block,trial,trial_type,taps_start_loc_during_fix,taps_end_loc_during_fix,taps_on_lever_during_fix,taps_on_lever_s_during_fix,bar_orientation,target_xy,cti,rt,acc,time,pulses,fa_rate_recent100,actual_invalid_type
0,1,valid,"[(1133, 838)]",[],[1],[0.36666666666666664],horizontal,"(390.0, 762.0)",0.65,0.339,1,0.652,1,0.0,same
0,2,valid,"[(1141, 813)]",[],[1],[0.3833333333333333],horizontal,"(390.0, 262.0)",1.05,0.346,1,11.85,1,0.0,same
0,3,invalid_same_bar,"[(1130, 848)]",[],[1],[0.5],vertical,"(890.0, 762.0)",1.1333333333333333,0.459,1,17.297,1,0.0,same
0,4,valid,"[(1134, 822)]",[],[1],[0.85],horizontal,"(390.0, 762.0)",0.36666666666666664,nan,0,725.118,0,0.0,same
0,5,valid,"[(1110, 830)]",[],[1],[0.5666666666666667],vertical,"(390.0, 262.0)",0.8,0.527,1,729.396,1,0.0,same
0,6,valid,"[(1101, 798)]",[],[1],[0.6],vertical,"(390.0, 762.0)",0.7166666666666667,0.556,1,734.228,1,0.0,same
0,7,catch,"[(1160, 786)]",[],[1],[],horizontal,"(390.0, 262.0)",1.7,nan,1,1133.997,1,0.0,same
0,8,catch,"[(1161, 795)]",[],[1],[],vertical,"(890.0, 262.0)",,"('cti', 1.599),nan",0,1139.464,0,0.125,same
0,9,valid,"[(1121, 781)]",[],[1],[0.55],vertical,"(390.0, 262.0)",0.48333333333333334,0.516,1,1143.941,1,0.1111111111111111,same
0,10,invalid_adjacent_other_bar,"[(1155, 804)]",[],[1],[0.5333333333333333],vertical,"(390.0, 762.0)",0.55,0.495,1,1148.405,1,0.1,other
0,11,valid,"[(1179, 799)]",[],[1],[0.5833333333333334],vertical,"(890.0, 262.0)",1.3166666666666667,0.541,1,1153.023,1,0.09090909090909091,same
0,12,catch,"[(1165, 786)]",[],[1],[],horizontal,"(390.0, 262.0)",1.7,nan,1,1158.475,2,0.08333333333333333,same
0,13,catch,"[(1180, 809)]",[],[1],[],horizontal,"(390.0, 262.0)",1.7,nan,1,1163.967,2,0.07692307692307693,same
0,14,valid,"[(1110, 844)]",[],[1],[0.6166666666666667],horizontal,"(890.0, 762.0)",1.5333333333333332,0.582,1,1169.56,2,0.07142857142857142,same
0,15,valid,"[(1144, 795)]",[],[1],[0.85],vertical,"(390.0, 762.0)",0.4,nan,0,1176.195,0,0.06666666666666667,same
0,16,valid,"[(1135, 787)]",[],[1],[0.85],vertical,"(890.0, 262.0)",0.8666666666666667,nan,0,1180.396,0,0.0625,same
0,17,valid,"[(1134, 804)]",[],[1],[0.85],vertical,"(890.0, 262.0)",0.48333333333333334,nan,0,1184.764,0,0.058823529411764705,same
0,18,valid,"[(1131, 801)]",[],[1],[0.5833333333333334],horizontal,"(890.0, 262.0)",1.0833333333333333,0.541,1,1189.081,1,0.05555555555555555,same
0,19,catch,"[(1135, 808)]",[],[1],[],vertical,"(890.0, 762.0)",1.7,nan,1,1194.453,1,0.05263157894736842,same
0,20,valid,"[(1160, 797)]",[],[1],[0.6833333333333333],horizontal,"(390.0, 262.0)",0.45,0.642,1,1199.246,1,0.05,same
0,21,valid,"[(1143, 813)]",[],[1],[0.48333333333333334],vertical,"(890.0, 262.0)",0.9,0.443,1,1203.963,2,0.047619047619047616,same
0,22,valid,"[(1138, 811)]",[],[1],[0.85],vertical,"(390.0, 762.0)",0.5,nan,0,1209.154,0,0.045454545454545456,same
0,23,catch,"[(1148, 796)]",[],[1],[],vertical,"(890.0, 762.0)",,"('cti', 1.539),nan",0,1213.208,0,0.08695652173913043,same
0,24,valid,"[(1131, 798)]",[],[1],[0.5166666666666666],vertical,"(890.0, 762.0)",0.5333333333333333,0.476,1,1218.064,1,0.08333333333333333,same
0,25,valid,"[(1178, 805)]",[],[1],[0.5833333333333334],horizontal,"(390.0, 762.0)",0.43333333333333335,0.539,1,1222.878,1,0.08,same
0,26,invalid_adjacent_other_bar,"[(1148, 782)]",[],[1],[0.55],vertical,"(390.0, 762.0)",1.35,0.506,1,1227.205,1,0.07692307692307693,other
0,27,valid,"[(1160, 797)]",[],[1],[0.85],horizontal,"(390.0, 762.0)",0.5666666666666667,nan,0,1232.866,0,0.07407407407407407,same
0,28,valid,"[(1096, 801)]",[],[1],[0.5833333333333334],vertical,"(390.0, 262.0)",1.2833333333333332,0.539,1,1236.98,1,0.07142857142857142,same
0,29,valid,"[(1163, 797)]",[],[1],[0.65],horizontal,"(890.0, 762.0)",0.9666666666666667,0.611,1,1242.447,1,0.06896551724137931,same
0,30,catch,"[(1166, 813)]",[],[1],[],horizontal,"(390.0, 262.0)",1.7,nan,1,1247.179,1,0.06666666666666667,same
0,31,invalid_same_bar,"[(1163, 767)]",[],[1],[0.55],vertical,"(390.0, 262.0)",0.35,0.507,1,1252.079,2,0.06451612903225806,same
0,32,catch,"[(1162, 782)]",[],[1],[],horizontal,"(390.0, 262.0)",1.7,nan,1,1256.719,2,0.0625,same
0,33,valid,"[(1165, 794)]",[],[1],[0.6166666666666667],vertical,"(890.0, 262.0)",0.8666666666666667,0.573,1,1262.063,2,0.06060606060606061,same
0,34,valid,"[(1164, 797)]",[],[1],[0.43333333333333335],vertical,"(890.0, 262.0)",1.35,0.392,1,1267.181,3,0.058823529411764705,same
0,35,valid,"[(1165, 782)]",[],[1],[0.55],vertical,"(890.0, 262.0)",1.5166666666666666,0.508,1,1273.696,3,0.05714285714285714,same
0,36,valid,"[(1165, 766)]",[],[1],[0.55],vertical,"(890.0, 762.0)",0.8333333333333334,0.51,1,1279.697,3,0.05555555555555555,same
0,37,valid,"[(1158, 777)]",[],[1],[0.7],vertical,"(390.0, 262.0)",0.7833333333333333,0.659,1,1285.443,3,0.05405405405405406,same
0,38,catch,"[(1163, 772)]",[],[1],[],horizontal,"(890.0, 262.0)",1.7,nan,1,1291.413,3,0.05263157894736842,same
0,39,valid,"[(1150, 794)]",[],[1],[0.5166666666666666],vertical,"(890.0, 762.0)",1.2333333333333334,0.473,1,1297.398,3,0.05128205128205128,same
0,40,valid,"[(1169, 762)]",[],[1],[0.6],vertical,"(390.0, 262.0)",0.9,0.556,1,1303.704,3,0.05,same
0,41,valid,"[(1177, 800)]",[],[1],[0.6],vertical,"(390.0, 262.0)",1.2333333333333334,0.552,1,1309.6,3,0.04878048780487805,same
0,42,valid,"[(1162, 797)]",[],[1],[0.5833333333333334],horizontal,"(390.0, 762.0)",0.7166666666666667,0.545,1,1315.596,3,0.047619047619047616,same
0,43,valid,"[(1145, 800)]",[],[1],[0.85],vertical,"(890.0, 262.0)",0.55,nan,0,1321.628,0,0.046511627906976744,same
0,44,valid,"[(1132, 786)]",[],[1],[0.85],vertical,"(390.0, 262.0)",0.9833333333333333,nan,0,1326.047,0,0.045454545454545456,same
0,45,valid,"[(1135, 803)]",[],[1],[0.6666666666666666],horizontal,"(890.0, 262.0)",0.7833333333333333,0.62,1,1331.418,1,0.044444444444444446,same
0,46,invalid_same_bar,"[(1131, 803)]",[],[1],[0.5166666666666666],horizontal,"(390.0, 762.0)",1.1666666666666667,0.474,1,1336.206,1,0.043478260869565216,same
0,47,valid,"[(1175, 795)]",[],[1],[0.6333333333333333],vertical,"(390.0, 762.0)",0.45,0.589,1,1340.847,1,0.0425531914893617,same
0,48,catch,"[(1158, 788)]",[],[1],[],horizontal,"(890.0, 262.0)",1.7,nan,1,1345.33,2,0.041666666666666664,same
0,49,valid,"[(1162, 770)]",[],[1],[0.48333333333333334],horizontal,"(890.0, 762.0)",0.36666666666666664,0.444,1,1350.98,2,0.04081632653061224,same
0,50,valid,"[(1180, 785)]",[],[1],[0.5],vertical,"(390.0, 762.0)",0.5,0.458,1,1355.407,2,0.04,same
0,51,catch,"[(1163, 804)]",[],[1],[],horizontal,"(390.0, 262.0)",1.7,nan,1,1360.369,3,0.04,same
0,52,catch,"[(1178, 790)]",[],[1],[],horizontal,"(890.0, 762.0)",1.7,nan,1,1366.371,3,0.04,same
0,53,valid,"[(1177, 799)]",[],[1],[0.5666666666666667],vertical,"(390.0, 262.0)",1.0833333333333333,0.522,1,1372.525,3,0.04,same
0,54,catch,"[(1163, 769)]",[],[1],[],horizontal,"(390.0, 262.0)",1.7,nan,1,1377.981,3,0.04,same
0,55,invalid_same_bar,"[(1164, 782)]",[],[1],[0.5833333333333334],vertical,"(390.0, 762.0)",0.85,0.54,1,1383.746,3,0.04,same
0,56,valid,"[(1166, 777)]",[],[1],[0.65],horizontal,"(390.0, 762.0)",1.3,0.603,1,1389.474,3,0.04,same
0,57,invalid_adjacent_other_bar,"[(1160, 772)]",[],[1],[0.6333333333333333],vertical,"(390.0, 762.0)",0.5166666666666666,0.588,1,1395.729,3,0.04,other
0,58,catch,"[(1160, 773)]",[],[1],[],vertical,"(390.0, 262.0)",1.7,nan,1,1401.43,3,0.02,same
0,59,invalid_adjacent_other_bar,"[(1164, 798)]",[],[1],[0.5333333333333333],vertical,"(890.0, 762.0)",0.8,0.49,1,1407.812,3,0.02,other
0,60,valid,"[(1146, 771)]",[],[1],[0.5333333333333333],horizontal,"(890.0, 262.0)",1.2166666666666666,0.489,1,1413.848,3,0.02,same
0,61,valid,"[(1180, 791)]",[],[1],[0.43333333333333335],horizontal,"(390.0, 262.0)",1.4333333333333333,0.394,1,1419.779,3,0.02,same
0,62,invalid_adjacent_other_bar,"[(1146, 774)]",[],[1],[0.48333333333333334],vertical,"(890.0, 262.0)",1.3166666666666667,0.449,1,1425.973,3,0.02,other
0,63,valid,"[(1178, 797)]",[],[1],[0.85],horizontal,"(390.0, 262.0)",0.9666666666666667,nan,0,1431.719,0,0.02,same
0,64,valid,"[(1134, 776)]",[],[1],[0.85],horizontal,"(390.0, 262.0)",0.7666666666666666,nan,0,1436.217,0,0.02,same
0,65,valid,"[(1121, 798)]",[],[1],[0.18333333333333332],horizontal,"(390.0, 262.0)",1.3,0.152,0,1440.98,0,0.02,same
0,66,valid,"[(1120, 761)]",[],[1],[0.85],vertical,"(890.0, 262.0)",1.05,nan,0,1445.548,0,0.02,same
0,67,invalid_adjacent_other_bar,"[(1130, 833)]",[],[1],[0.5833333333333334],horizontal,"(890.0, 762.0)",0.4666666666666667,0.537,1,1450.502,1,0.02,other
0,68,valid,"[(1165, 776)]",[],[1],[0.5166666666666666],horizontal,"(390.0, 762.0)",1.2,0.477,1,1455.179,1,0.02,same
0,69,valid,"[(1162, 769)]",[],[1],[0.4666666666666667],horizontal,"(390.0, 262.0)",1.3833333333333333,0.428,1,1460.062,1,0.02,same
0,70,valid,"[(1165, 800)]",[],[1],[0.5333333333333333],vertical,"(890.0, 262.0)",1.4166666666666667,0.493,1,1465.505,2,0.02,same
0,71,catch,"[(1165, 795)]",[],[1],[],horizontal,"(890.0, 762.0)",1.7,nan,1,1471.639,2,0.02,same
0,72,catch,"[(1178, 793)]",[],[1],[],vertical,"(390.0, 762.0)",1.7,nan,1,1477.572,2,0.02,same
0,73,valid,"[(1165, 794)]",[],[1],[0.23333333333333334],vertical,"(890.0, 262.0)",1.2666666666666666,0.196,0,1483.28,0,0.0,same
0,74,valid,"[(1120, 786)]",[],[1],[0.85],horizontal,"(390.0, 762.0)",0.7166666666666667,nan,0,1488.484,0,0.0,same
0,75,valid,"[(1135, 783)]",[],[1],[0.85],horizontal,"(390.0, 262.0)",0.8333333333333334,nan,0,1492.785,0,0.0,same
0,76,valid,"[(1112, 795)]",[],[1],[0.6666666666666666],horizontal,"(390.0, 262.0)",0.4,0.621,1,1497.53,1,0.0,same
0,77,valid,"[(1150, 791)]",[],[1],[0.7],vertical,"(890.0, 262.0)",0.95,0.657,1,1502.501,1,0.0,same
0,78,valid,"[(1171, 780)]",[],[1],[0.5],vertical,"(890.0, 762.0)",1.3166666666666667,0.456,1,1507.377,1,0.0,same
0,79,valid,"[(1163, 805)]",[],[1],[0.5],horizontal,"(890.0, 262.0)",1.1166666666666667,0.456,1,1512.71,2,0.0,same
0,80,valid,"[(1167, 777)]",[],[1],[0.85],vertical,"(890.0, 262.0)",0.55,nan,0,1518.024,0,0.0,same
0,81,valid,"[(1131, 792)]",[],[1],[0.45],vertical,"(890.0, 262.0)",1.35,0.412,1,1522.33,1,0.0,same
0,82,valid,"[(1163, 795)]",[],[1],[0.5333333333333333],horizontal,"(890.0, 262.0)",1.4166666666666667,0.488,1,1527.395,1,0.0,same
0,83,valid,"[(1180, 777)]",[],[1],[0.5666666666666667],horizontal,"(890.0, 262.0)",1.3833333333333333,0.524,1,1532.514,1,0.0,same
0,84,catch,"[(1164, 783)]",[],[1],[],vertical,"(390.0, 262.0)",1.7,nan,1,1537.959,2,0.0,same
0,85,invalid_same_bar,"[(1146, 802)]",[],[1],[0.6333333333333333],vertical,"(890.0, 262.0)",1.4666666666666666,0.586,1,1543.18,2,0.0,same
0,86,catch,"[(1170, 794)]",[],[1],[],vertical,"(390.0, 262.0)",1.7,nan,1,1549.195,2,0.0,same
0,87,valid,"[(1150, 791)]",[],[1],[0.6333333333333333],vertical,"(390.0, 262.0)",1.5333333333333332,0.603,1,1554.98,3,0.0,same
0,88,invalid_same_bar,"[(1165, 791)]",[],[1],[0.5333333333333333],vertical,"(390.0, 762.0)",0.65,0.489,1,1561.287,3,0.0,same
0,89,valid,"[(1164, 792)]",[],[1],[0.48333333333333334],vertical,"(390.0, 762.0)",0.55,0.442,1,1566.397,3,0.0,same
0,90,valid,"[(1162, 773)]",[],[1],[0.7166666666666667],vertical,"(390.0, 262.0)",0.75,0.668,1,1572.103,3,0.0,same
0,91,valid,"[(1165, 789)]",[],[1],[0.5],horizontal,"(390.0, 762.0)",0.55,0.461,1,1577.557,3,0.0,same
0,92,valid,"[(1163, 795)]",[],[1],[0.5],vertical,"(890.0, 262.0)",1.0,0.462,1,1583.03,3,0.0,same
0,93,catch,"[(1179, 775)]",[],[1],[],vertical,"(890.0, 762.0)",1.7,nan,1,1589.177,3,0.0,same
0,94,catch,"[(1159, 774)]",[],[1],[],horizontal,"(390.0, 262.0)",1.7,nan,1,1595.214,3,0.0,same
0,95,valid,"[(1160, 778)]",[],[1],[0.85],horizontal,"(890.0, 762.0)",0.7,nan,0,1601.535,0,0.0,same
0,96,catch,"[(1112, 782)]",[],[1],[],horizontal,"(390.0, 762.0)",1.7,nan,1,1606.047,1,0.0,same
0,97,invalid_adjacent_other_bar,"[(1161, 786)]",[],[1],[0.6],horizontal,"(390.0, 262.0)",1.1666666666666667,0.557,1,1611.664,1,0.0,other
0,98,catch,"[(1160, 802)]",[],[1],[],vertical,"(890.0, 262.0)",1.7,nan,1,1616.847,1,0.0,same
0,99,valid,"[(1161, 777)]",[],[1],[0.5],horizontal,"(390.0, 762.0)",1.0833333333333333,0.455,1,1622.181,2,0.0,same
0,100,valid,"[(1165, 791)]",[],[1],[0.55],horizontal,"(890.0, 262.0)",0.7,0.511,1,1627.381,2,0.0,same
0,101,valid,"[(1163, 796)]",[],[1],[0.6],horizontal,"(390.0, 762.0)",0.9,0.56,1,1632.699,2,0.0,same
0,102,valid,"[(1160, 802)]",[],[1],[0.6666666666666666],vertical,"(390.0, 762.0)",0.8666666666666667,0.626,1,1638.514,3,0.0,same
0,103,catch,"[(1171, 795)]",[],[1],[],horizontal,"(390.0, 762.0)",1.7,nan,1,1644.764,3,0.0,same
0,104,valid,"[(1176, 792)]",[],[1],[0.5],vertical,"(890.0, 762.0)",1.05,0.463,1,1650.598,3,0.0,same
0,105,catch,"[(1180, 773)]",[],[1],[],horizontal,"(390.0, 762.0)",1.7,nan,1,1656.328,3,0.0,same
0,106,valid,"[(1178, 802)]",[],[1],[0.5166666666666666],horizontal,"(890.0, 262.0)",0.5666666666666667,0.472,1,1661.963,3,0.0,same
0,107,catch,"[(1161, 774)]",[],[1],[],vertical,"(390.0, 262.0)",1.7,nan,1,1667.332,3,0.0,same
0,108,valid,"[(1164, 788)]",[],[1],[0.5],horizontal,"(390.0, 262.0)",0.43333333333333335,0.456,1,1673.131,3,0.0,same
0,109,invalid_same_bar,"[(1180, 783)]",[],[1],[0.5166666666666666],horizontal,"(890.0, 762.0)",0.43333333333333335,0.479,1,1678.048,3,0.0,same
0,110,valid,"[(1160, 773)]",[],[1],[0.5166666666666666],vertical,"(890.0, 262.0)",1.2166666666666666,0.476,1,1683.173,3,0.0,same
0,111,valid,"[(1146, 791)]",[],[1],[0.5166666666666666],horizontal,"(390.0, 262.0)",0.36666666666666664,0.476,1,1689.243,3,0.0,same
0,112,catch,"[(1164, 788)]",[],[1],[],vertical,"(390.0, 762.0)",1.7,nan,1,1694.564,3,0.0,same
0,113,catch,"[(1175, 788)]",[],[1],[],vertical,"(890.0, 762.0)",1.7,nan,1,1700.665,3,0.0,same
0,114,valid,"[(1180, 787)]",[],[1],[0.5333333333333333],horizontal,"(390.0, 262.0)",0.8833333333333333,0.49,1,1706.28,3,0.0,same
0,115,valid,"[(1160, 776)]",[],[1],[0.5833333333333334],horizontal,"(890.0, 262.0)",0.7666666666666666,0.542,1,1711.964,3,0.0,same
0,116,valid,"[(1158, 774)]",[],[1],[0.75],horizontal,"(390.0, 762.0)",1.25,0.704,1,1717.49,3,0.0,same
0,117,valid,"[(1160, 770)]",[],[1],[0.5],horizontal,"(390.0, 262.0)",0.6166666666666667,0.461,1,1723.582,3,0.0,same
0,118,valid,"[(1162, 778)]",[],[1],[0.5],horizontal,"(890.0, 262.0)",1.05,0.456,1,1728.873,3,0.0,same
0,119,catch,"[(1170, 782)]",[],[1],[],horizontal,"(890.0, 762.0)",1.7,nan,1,1734.564,3,0.0,same
0,120,valid,"[(1177, 774)]",[],[1],[0.85],vertical,"(890.0, 262.0)",0.55,nan,0,1740.334,0,0.0,same
0,121,valid,"[(1120, 779)]",[],[1],[0.5666666666666667],horizontal,"(390.0, 762.0)",1.25,0.522,1,1744.748,1,0.0,same
0,122,valid,"[(1161, 772)]",[],[1],[0.65],horizontal,"(390.0, 262.0)",0.7333333333333333,0.616,1,1749.882,1,0.0,same
0,123,catch,"[(1162, 776)]",[],[1],[],horizontal,"(890.0, 762.0)",1.7,nan,1,1754.557,1,0.0,same
0,124,valid,"[(1165, 791)]",[],[1],[0.5833333333333334],horizontal,"(890.0, 762.0)",1.4,0.54,1,1759.703,2,0.0,same
0,125,catch,"[(1176, 791)]",[],[1],[],vertical,"(890.0, 762.0)",1.7,nan,1,1765.749,2,0.0,same
0,126,valid,"[(1179, 789)]",[],[1],[0.5166666666666666],vertical,"(890.0, 762.0)",0.8833333333333333,0.484,1,1771.714,2,0.0,same
0,127,valid,"[(1180, 766)]",[],[1],[0.75],vertical,"(390.0, 762.0)",0.8166666666666667,0.707,1,1777.115,3,0.0,same
0,128,catch,"[(1130, 777)]",[],[1],[],horizontal,"(890.0, 762.0)",1.7,nan,1,1783.306,3,0.0,same
0,129,valid,"[(1180, 794)]",[],[1],[0.5833333333333334],horizontal,"(390.0, 262.0)",0.45,0.549,1,1789.598,3,0.0,same
0,130,valid,"[(1146, 802)]",[],[1],[0.55],vertical,"(390.0, 762.0)",0.7,0.516,1,1794.861,3,0.0,same
0,131,valid,"[(1163, 799)]",[],[1],[0.5166666666666666],vertical,"(890.0, 762.0)",1.3166666666666667,0.476,1,1800.348,3,0.0,same
0,132,valid,"[(1165, 786)]",[],[1],[0.6666666666666666],horizontal,"(390.0, 762.0)",0.9,0.631,1,1806.632,3,0.0,same
0,133,catch,"[(1166, 802)]",[],[1],[],horizontal,"(390.0, 762.0)",1.7,nan,1,1812.763,3,0.0,same
0,134,valid,"[(1160, 796)]",[],[1],[0.5166666666666666],vertical,"(390.0, 762.0)",0.9,0.472,1,1819.064,3,0.0,same
0,135,valid,"[(1160, 788)]",[],[1],[0.5333333333333333],horizontal,"(390.0, 762.0)",1.3666666666666667,0.502,1,1824.948,3,0.0,same
0,136,valid,"[(1168, 795)]",[],[1],[0.4],vertical,"(390.0, 262.0)",1.2,0.36,1,1830.953,3,0.0,same
0,137,catch,"[(1161, 776)]",[],[1],[],vertical,"(890.0, 262.0)",1.7,nan,1,1837.315,3,0.0,same
0,138,valid,"[(1183, 796)]",[],[1],[0.4666666666666667],horizontal,"(890.0, 262.0)",0.6666666666666666,0.429,1,1843.263,3,0.0,same
0,139,valid,"[(1162, 776)]",[],[1],[0.5166666666666666],vertical,"(890.0, 762.0)",0.85,0.478,1,1848.934,3,0.0,same
0,140,valid,"[(1162, 791)]",[],[1],[0.85],horizontal,"(390.0, 762.0)",0.3833333333333333,nan,0,1854.628,0,0.0,same
0,141,valid,"[(1132, 802)]",[],[1],[0.65],horizontal,"(890.0, 262.0)",1.4166666666666667,0.617,1,1859.043,1,0.0,same
0,142,invalid_adjacent_other_bar,"[(1163, 776)]",[],[1],[0.85],horizontal,"(890.0, 762.0)",0.4666666666666667,nan,0,1864.934,0,0.0,other
0,143,catch,"[(1121, 801)]",[],[1],[],horizontal,"(890.0, 262.0)",1.7,nan,1,1869.276,1,0.0,same
0,144,valid,"[(1160, 780)]",[],[1],[0.48333333333333334],vertical,"(890.0, 262.0)",0.75,0.443,1,1874.148,1,0.0,same
0,145,invalid_adjacent_other_bar,"[(1178, 781)]",[],[1],[0.4666666666666667],horizontal,"(390.0, 762.0)",1.15,0.431,1,1878.575,1,0.0,other
0,146,valid,"[(1159, 779)]",[],[1],[0.8],horizontal,"(890.0, 762.0)",0.6333333333333333,0.754,1,1883.9,2,0.0,same
0,147,catch,"[(1178, 789)]",[],[1],[],horizontal,"(390.0, 762.0)",1.7,nan,1,1889.175,2,0.0,same
0,148,valid,"[(1160, 796)]",[],[1],[0.5166666666666666],horizontal,"(890.0, 762.0)",1.1666666666666667,0.476,1,1894.631,2,0.0,same
0,149,invalid_same_bar,"[(1141, 799)]",[],[1],[0.5166666666666666],horizontal,"(390.0, 762.0)",1.3833333333333333,0.478,1,1900.031,3,0.0,same
0,150,catch,"[(1185, 790)]",[],[1],[],horizontal,"(390.0, 262.0)",1.7,nan,1,1906.431,3,0.0,same
0,151,valid,"[(1161, 773)]",[],[1],[0.5],horizontal,"(390.0, 762.0)",0.65,0.457,1,1912.347,3,0.0,same
0,152,valid,"[(1161, 778)]",[],[1],[0.5166666666666666],horizontal,"(890.0, 762.0)",1.15,0.478,1,1917.68,3,0.0,same
0,153,valid,"[(1180, 773)]",[],[1],[0.5666666666666667],vertical,"(890.0, 762.0)",0.8166666666666667,0.531,1,1923.769,3,0.0,same
0,154,valid,"[(1124, 845)]",[],[1],[0.48333333333333334],horizontal,"(390.0, 262.0)",0.9333333333333333,0.446,1,1929.206,3,0.0,same
0,155,valid,"[(1160, 796)]",[],[1],[0.85],horizontal,"(390.0, 762.0)",0.3833333333333333,nan,0,1934.956,0,0.0,same
0,156,catch,"[(1120, 769)]",[],[1],[],horizontal,"(390.0, 762.0)",1.7,nan,1,1938.953,1,0.0,same
0,157,valid,"[(1160, 798)]",[],[1],[0.55],horizontal,"(890.0, 762.0)",0.55,0.509,1,1944.008,1,0.0,same
0,158,catch,"[(1163, 804)]",[],[1],[],vertical,"(390.0, 762.0)",1.7,nan,1,1948.448,1,0.0,same
0,159,valid,"[(1181, 807)]",[],[1],[0.5166666666666666],vertical,"(390.0, 762.0)",1.3166666666666667,0.472,1,1953.983,2,0.0,same
0,160,valid,"[(1160, 787)]",[],[1],[0.7166666666666667],vertical,"(890.0, 762.0)",0.75,0.676,1,1960.35,2,0.0,same
0,161,valid,"[(1175, 797)]",[],[1],[0.43333333333333335],vertical,"(890.0, 262.0)",1.45,0.396,1,1965.299,2,0.0,same
0,162,valid,"[(1165, 784)]",[],[1],[0.45],vertical,"(890.0, 762.0)",1.3166666666666667,0.411,1,1971.433,3,0.0,same
0,163,valid,"[(1169, 799)]",[],[1],[0.5],horizontal,"(390.0, 262.0)",0.8833333333333333,0.46,1,1977.798,3,0.0,same
0,164,valid,"[(1169, 779)]",[],[1],[0.4666666666666667],horizontal,"(890.0, 762.0)",1.5,0.424,1,1983.206,3,0.0,same
0,165,invalid_adjacent_other_bar,"[(1159, 785)]",[],[1],[0.85],vertical,"(890.0, 262.0)",0.4666666666666667,nan,0,1989.574,0,0.0,other
0,166,valid,"[(1115, 790)]",[],[1],[0.5],horizontal,"(390.0, 262.0)",0.95,0.469,1,1993.716,1,0.0,same
0,167,catch,"[(1160, 792)]",[],[1],[],horizontal,"(890.0, 762.0)",,"('cti', 1.079),nan",0,1998.966,0,0.02,same
0,168,valid,"[(1135, 796)]",[],[1],[0.85],vertical,"(890.0, 762.0)",0.5,nan,0,2003.389,0,0.02,same
0,169,invalid_same_bar,"[(1133, 794)]",[],[1],[0.48333333333333334],horizontal,"(890.0, 262.0)",1.2333333333333334,0.444,1,2007.62,1,0.02,same
0,170,valid,"[(1181, 786)]",[],[1],[0.5166666666666666],horizontal,"(390.0, 262.0)",0.48333333333333334,0.484,1,2013.065,1,0.02,same
0,171,valid,"[(1164, 776)]",[],[1],[0.5333333333333333],vertical,"(390.0, 262.0)",1.0666666666666667,0.49,1,2017.158,1,0.02,same
0,172,valid,"[(1160, 791)]",[],[1],[0.5666666666666667],horizontal,"(890.0, 262.0)",0.6333333333333333,0.528,1,2022.127,2,0.02,same
0,173,valid,"[(1178, 791)]",[],[1],[0.5666666666666667],vertical,"(890.0, 762.0)",1.0833333333333333,0.53,1,2027.215,2,0.02,same
0,174,valid,"[(1154, 785)]",[],[1],[0.5],vertical,"(390.0, 762.0)",0.5166666666666666,0.455,1,2032.822,2,0.02,same
0,175,valid,"[(1161, 795)]",[],[1],[0.6166666666666667],horizontal,"(390.0, 762.0)",0.5333333333333333,0.577,1,2038.082,3,0.02,same
0,176,valid,"[(1185, 795)]",[],[1],[0.5333333333333333],vertical,"(390.0, 262.0)",0.7,0.496,1,2043.815,3,0.02,same
0,177,valid,"[(1170, 786)]",[],[1],[0.5166666666666666],horizontal,"(890.0, 762.0)",0.8333333333333334,0.475,1,2049.281,3,0.02,same
0,178,valid,"[(1164, 795)]",[],[1],[0.5333333333333333],vertical,"(890.0, 762.0)",1.1333333333333333,0.494,1,2055.115,3,0.02,same
0,179,valid,"[(1165, 783)]",[],[1],[0.6],vertical,"(390.0, 262.0)",0.6333333333333333,0.561,1,2061.409,3,0.02,same
0,180,valid,"[(1160, 785)]",[],[1],[0.48333333333333334],vertical,"(390.0, 262.0)",0.43333333333333335,0.443,1,2066.977,3,0.02,same
0,181,valid,"[(1164, 776)]",[],[1],[0.6666666666666666],vertical,"(890.0, 762.0)",0.6666666666666666,0.622,1,2072.199,3,0.02,same
0,182,invalid_same_bar,"[(1169, 797)]",[],[1],[0.6],vertical,"(390.0, 762.0)",0.43333333333333335,0.561,1,2077.932,3,0.02,same
0,183,invalid_same_bar,"[(1175, 775)]",[],[1],[0.65],horizontal,"(890.0, 762.0)",0.6,0.61,1,2083.599,3,0.02,same
0,184,valid,"[(1172, 797)]",[],[1],[0.6333333333333333],horizontal,"(390.0, 262.0)",0.8333333333333334,0.598,1,2089.019,3,0.02,same
0,185,valid,"[(1157, 782)]",[],[1],[0.4666666666666667],vertical,"(390.0, 262.0)",1.35,0.428,1,2094.606,3,0.02,same
0,186,catch,"[(1141, 796)]",[],[1],[],vertical,"(890.0, 762.0)",1.7,nan,1,2101.182,3,0.02,same
0,187,valid,"[(1178, 782)]",[],[1],[0.5166666666666666],horizontal,"(390.0, 762.0)",1.5166666666666666,0.484,1,2107.715,3,0.02,same
0,188,valid,"[(1179, 782)]",[],[1],[0.5166666666666666],horizontal,"(890.0, 762.0)",0.4666666666666667,0.483,1,2114.016,3,0.02,same
0,189,invalid_adjacent_other_bar,"[(1178, 791)]",[],[1],[0.5666666666666667],horizontal,"(390.0, 262.0)",0.9166666666666666,0.528,1,2119.032,3,0.02,other
0,190,valid,"[(1169, 786)]",[],[1],[0.85],vertical,"(890.0, 262.0)",0.7333333333333333,nan,0,2124.45,0,0.02,same
0,191,catch,"[(1120, 776)]",[],[1],[],vertical,"(890.0, 262.0)",1.7,nan,1,2128.981,1,0.02,same
0,192,catch,"[(1165, 786)]",[],[1],[],horizontal,"(890.0, 762.0)",1.7,nan,1,2134.633,1,0.02,same
0,193,valid,"[(1163, 792)]",[],[1],[0.5333333333333333],horizontal,"(890.0, 262.0)",1.1333333333333333,0.491,1,2139.974,1,0.02,same
0,194,valid,"[(1166, 772)]",[],[1],[0.6166666666666667],horizontal,"(390.0, 262.0)",1.5333333333333332,0.576,1,2144.94,2,0.02,same
0,195,valid,"[(1165, 781)]",[],[1],[0.5],horizontal,"(890.0, 262.0)",0.8166666666666667,0.468,1,2150.55,2,0.02,same
0,196,catch,"[(1162, 786)]",[],[1],[],vertical,"(390.0, 762.0)",1.7,nan,1,2155.632,2,0.02,same
0,197,valid,"[(1171, 791)]",[],[1],[0.5333333333333333],horizontal,"(390.0, 762.0)",0.5166666666666666,0.487,1,2161.516,3,0.02,same
0,198,valid,"[(1125, 825)]",[],[1],[0.7833333333333333],vertical,"(390.0, 262.0)",0.7,0.737,1,2167.0,3,0.02,same
0,199,invalid_same_bar,"[(1169, 786)]",[],[1],[0.5166666666666666],vertical,"(890.0, 262.0)",0.9,0.474,1,2173.317,3,0.02,same
0,200,valid,"[(1165, 790)]",[],[1],[0.5333333333333333],horizontal,"(390.0, 262.0)",1.15,0.5,1,2179.224,3,0.02,same
0,201,valid,"[(1136, 772)]",[],[1],[0.5833333333333334],horizontal,"(390.0, 762.0)",0.5333333333333333,0.557,1,2185.059,3,0.02,same
0,202,valid,"[(1162, 793)]",[],[1],[0.5833333333333334],vertical,"(890.0, 262.0)",0.65,0.541,1,2190.299,3,0.02,same
0,203,valid,"[(1163, 797)]",[],[1],[0.5666666666666667],horizontal,"(890.0, 762.0)",0.95,0.525,1,2196.0,3,0.02,same
0,204,valid,"[(1167, 785)]",[],[1],[0.48333333333333334],vertical,"(890.0, 262.0)",0.7333333333333333,0.445,1,2202.25,3,0.02,same
0,205,catch,"[(1136, 778)]",[],[1],[],horizontal,"(890.0, 262.0)",1.7,nan,1,2207.65,3,0.02,same
0,206,valid,"[(1165, 779)]",[],[1],[0.5833333333333334],vertical,"(890.0, 262.0)",0.6333333333333333,0.538,1,2213.799,3,0.02,same
0,207,valid,"[(1163, 807)]",[],[1],[0.5833333333333334],vertical,"(390.0, 262.0)",1.4666666666666666,0.542,1,2219.583,3,0.02,same
0,208,valid,"[(1162, 787)]",[],[1],[0.5],vertical,"(890.0, 762.0)",0.6,0.459,1,2225.932,3,0.02,same
0,209,valid,"[(1160, 786)]",[],[1],[0.7333333333333333],vertical,"(890.0, 762.0)",0.5333333333333333,0.694,1,2231.266,3,0.02,same
0,210,valid,"[(1166, 796)]",[],[1],[0.5333333333333333],horizontal,"(890.0, 262.0)",1.1833333333333333,0.487,1,2236.668,3,0.02,same
0,211,valid,"[(1160, 786)]",[],[1],[0.4666666666666667],vertical,"(890.0, 262.0)",1.25,0.428,1,2242.617,3,0.02,same
0,212,valid,"[(1162, 806)]",[],[1],[0.6333333333333333],horizontal,"(890.0, 262.0)",0.65,0.588,1,2249.0,3,0.02,same
0,213,valid,"[(1166, 801)]",[],[1],[0.6166666666666667],vertical,"(890.0, 762.0)",1.0166666666666666,0.578,1,2254.665,3,0.02,same
0,214,valid,"[(1132, 800)]",[],[1],[0.6],vertical,"(390.0, 262.0)",1.1666666666666667,0.563,1,2260.361,3,0.02,same
0,215,valid,"[(1160, 795)]",[],[1],[0.6333333333333333],vertical,"(390.0, 262.0)",0.48333333333333334,0.597,1,2266.436,3,0.02,same
0,216,valid,"[(1155, 787)]",[],[1],[0.48333333333333334],vertical,"(390.0, 262.0)",1.0,0.448,1,2271.917,3,0.02,same
0,217,valid,"[(1160, 778)]",[],[1],[0.7166666666666667],horizontal,"(390.0, 262.0)",0.7,0.67,1,2277.717,3,0.0,same
0,218,valid,"[(1156, 791)]",[],[1],[0.5333333333333333],horizontal,"(390.0, 262.0)",0.7333333333333333,0.495,1,2283.616,3,0.0,same
0,219,valid,"[(1156, 787)]",[],[1],[0.6833333333333333],horizontal,"(890.0, 762.0)",1.15,0.642,1,2288.933,3,0.0,same
0,220,invalid_adjacent_other_bar,"[(1137, 808)]",[],[1],[0.7333333333333333],horizontal,"(390.0, 762.0)",0.9333333333333333,0.69,1,2295.351,3,0.0,other
0,221,catch,"[(1165, 770)]",[],[1],[],horizontal,"(890.0, 262.0)",1.7,nan,1,2301.317,3,0.0,same
0,222,catch,"[(1163, 786)]",[],[1],[],vertical,"(890.0, 262.0)",1.7,nan,1,2307.166,3,0.0,same
0,223,valid,"[(1145, 778)]",[],[1],[0.55],horizontal,"(390.0, 262.0)",0.35,0.506,1,2313.184,3,0.0,same
0,224,valid,"[(1163, 788)]",[],[1],[0.7],vertical,"(390.0, 262.0)",1.4,0.664,1,2318.136,3,0.0,same
0,225,catch,"[(1150, 779)]",[],[1],[],horizontal,"(890.0, 262.0)",1.7,nan,1,2324.366,3,0.0,same
0,226,valid,"[(1164, 791)]",[],[1],[0.5166666666666666],horizontal,"(890.0, 262.0)",1.1,0.478,1,2330.45,3,0.0,same
0,227,catch,"[(1165, 781)]",[],[1],[],vertical,"(390.0, 262.0)",1.7,nan,1,2336.158,3,0.0,same
0,228,valid,"[(1164, 791)]",[],[1],[0.5666666666666667],vertical,"(890.0, 262.0)",0.5,0.529,1,2342.118,3,0.0,same
0,229,valid,"[(1163, 796)]",[],[1],[0.5166666666666666],vertical,"(390.0, 262.0)",0.8333333333333334,0.484,1,2347.284,3,0.0,same
0,230,invalid_adjacent_other_bar,"[(1162, 793)]",[],[1],[0.6],vertical,"(390.0, 762.0)",1.3,0.565,1,2352.596,3,0.0,other
0,231,catch,"[(1163, 781)]",[],[1],[],horizontal,"(890.0, 262.0)",1.7,nan,1,2358.652,3,0.0,same
0,232,valid,"[(1164, 791)]",[],[1],[0.5666666666666667],vertical,"(890.0, 762.0)",0.9333333333333333,0.537,1,2365.051,3,0.0,same
0,233,catch,"[(1162, 791)]",[],[1],[],vertical,"(890.0, 262.0)",1.7,nan,1,2370.467,3,0.0,same
0,234,valid,"[(1163, 787)]",[],[1],[0.65],horizontal,"(390.0, 262.0)",1.1,0.616,1,2376.517,3,0.0,same
0,235,valid,"[(1165, 777)]",[],[1],[0.5],horizontal,"(390.0, 762.0)",0.6166666666666667,0.46,1,2382.982,3,0.0,same
0,236,catch,"[(1163, 786)]",[],[1],[],vertical,"(390.0, 262.0)",1.7,nan,1,2388.594,3,0.0,same
0,237,valid,"[(1175, 802)]",[],[1],[0.6],horizontal,"(390.0, 762.0)",0.6,0.56,1,2394.751,3,0.0,same
0,238,valid,"[(1160, 766)]",[],[1],[0.65],horizontal,"(390.0, 262.0)",1.2166666666666666,0.606,1,2399.967,3,0.0,same
0,239,valid,"[(1178, 791)]",[],[1],[0.5333333333333333],vertical,"(390.0, 262.0)",1.5333333333333332,0.499,1,2406.346,3,0.0,same
0,240,catch,"[(1163, 773)]",[],[1],[],vertical,"(890.0, 762.0)",1.7,nan,1,2412.337,3,0.0,same
0,241,valid,"[(1163, 791)]",[],[1],[0.65],vertical,"(390.0, 762.0)",0.95,0.612,1,2418.35,3,0.0,same
0,242,valid,"[(1176, 780)]",[],[1],[0.5],vertical,"(890.0, 762.0)",0.8666666666666667,0.463,1,2424.495,3,0.0,same
0,243,catch,"[(1170, 781)]",[],[1],[],vertical,"(890.0, 262.0)",1.7,nan,1,2429.734,3,0.0,same
0,244,valid,"[(1160, 787)]",[],[1],[0.6333333333333333],vertical,"(390.0, 262.0)",1.5,0.586,1,2435.483,3,0.0,same
0,245,valid,"[(1162, 785)]",[],[1],[0.5333333333333333],vertical,"(390.0, 762.0)",1.1333333333333333,0.492,1,2442.101,3,0.0,same
0,246,valid,"[(1149, 778)]",[],[1],[0.5666666666666667],horizontal,"(890.0, 762.0)",0.55,0.525,1,2447.916,3,0.0,same
0,247,catch,"[(1162, 789)]",[],[1],[],horizontal,"(890.0, 762.0)",1.7,nan,1,2453.533,3,0.0,same
0,248,valid,"[(1164, 775)]",[],[1],[0.6333333333333333],vertical,"(390.0, 762.0)",1.0166666666666666,0.592,1,2459.668,3,0.0,same
0,249,valid,"[(1165, 773)]",[],[1],[0.75],horizontal,"(890.0, 762.0)",1.0333333333333332,0.7,1,2465.367,3,0.0,same
0,250,catch,"[(1163, 786)]",[],[1],[],horizontal,"(890.0, 262.0)",1.7,nan,1,2471.362,3,0.0,same
0,251,valid,"[(1162, 782)]",[],[1],[0.5833333333333334],horizontal,"(890.0, 262.0)",0.5,0.543,1,2477.217,3,0.0,same
0,252,valid,"[(1170, 785)]",[],[1],[0.5],vertical,"(890.0, 762.0)",0.7166666666666667,0.458,1,2482.482,3,0.0,same
0,253,catch,"[(1163, 791)]",[],[1],[],horizontal,"(890.0, 262.0)",1.7,nan,1,2487.655,3,0.0,same
0,254,invalid_same_bar,"[(1172, 787)]",[],[1],[0.65],horizontal,"(390.0, 762.0)",0.5,0.609,1,2493.384,3,0.0,same
0,255,valid,"[(1165, 782)]",[],[1],[0.5],vertical,"(390.0, 762.0)",0.75,0.459,1,2498.83,3,0.0,same
0,256,catch,"[(1136, 795)]",[],[1],[],vertical,"(890.0, 262.0)",1.7,nan,1,2504.039,3,0.0,same
0,257,valid,"[(1161, 782)]",[],[1],[0.3],vertical,"(390.0, 762.0)",1.5166666666666666,0.264,1,2509.807,3,0.0,same
0,258,valid,"[(1147, 791)]",[],[1],[0.5],horizontal,"(390.0, 762.0)",1.4666666666666666,0.459,1,2515.6,3,0.0,same
0,259,catch,"[(1166, 774)]",[],[1],[],vertical,"(390.0, 762.0)",1.7,nan,1,2521.701,3,0.0,same
0,260,valid,"[(1133, 833)]",[],[1],[0.5166666666666666],vertical,"(890.0, 762.0)",1.1,0.471,1,2527.935,3,0.0,same
0,261,catch,"[(1148, 795)]",[],[1],[],horizontal,"(890.0, 762.0)",1.7,nan,1,2533.915,3,0.0,same
0,262,valid,"[(1115, 816)]",[],[1],[0.5833333333333334],horizontal,"(890.0, 262.0)",0.7,0.539,1,2539.468,3,0.0,same
0,263,invalid_same_bar,"[(1165, 780)]",[],[1],[0.5833333333333334],horizontal,"(390.0, 762.0)",0.9833333333333333,0.556,1,2544.751,3,0.0,same
0,264,invalid_adjacent_other_bar,"[(1120, 812)]",[],[1],[0.85],horizontal,"(890.0, 762.0)",0.7833333333333333,nan,0,2550.518,0,0.0,other
0,265,valid,"[(1090, 818)]",[],[1],[0.6],vertical,"(390.0, 262.0)",0.6333333333333333,0.56,1,2556.267,1,0.0,same
0,266,catch,"[(1115, 812)]",[],[1],[],horizontal,"(390.0, 262.0)",1.7,nan,1,2561.472,1,0.0,same
0,267,valid,"[(1160, 776)]",[],[1],[0.48333333333333334],vertical,"(890.0, 262.0)",0.5166666666666666,0.445,1,4037.789,1,0.0,same
0,268,valid,"[(1160, 796)]",[],[1],[0.48333333333333334],vertical,"(390.0, 262.0)",0.7166666666666667,0.443,1,4042.476,2,0.0,same
0,269,valid,"[(1162, 779)]",[],[1],[0.18333333333333332],vertical,"(890.0, 262.0)",1.2666666666666666,0.152,0,4047.303,0,0.0,same
0,270,valid,"[(1137, 774)]",[],[1],[0.5],horizontal,"(890.0, 262.0)",0.75,0.463,1,4051.788,1,0.0,same
0,271,valid,"[(1138, 778)]",[],[1],[0.48333333333333334],vertical,"(390.0, 262.0)",0.9666666666666667,0.445,1,4056.605,1,0.0,same
0,272,valid,"[(1167, 794)]",[],[1],[0.5],vertical,"(390.0, 262.0)",0.4166666666666667,0.462,1,4061.146,1,0.0,same
0,273,valid,"[(1165, 761)]",[],[1],[0.4666666666666667],horizontal,"(390.0, 762.0)",0.95,0.435,1,4065.655,2,0.0,same
0,274,valid,"[(1165, 783)]",[],[1],[0.5333333333333333],vertical,"(890.0, 762.0)",1.4,0.49,1,4070.972,2,0.0,same
0,275,valid,"[(1165, 770)]",[],[1],[0.36666666666666664],horizontal,"(890.0, 262.0)",0.8,0.325,1,4076.605,2,0.0,same
0,276,valid,"[(1164, 776)]",[],[1],[0.5],horizontal,"(390.0, 762.0)",0.75,0.462,1,4082.038,3,0.0,same
0,277,valid,"[(1164, 768)]",[],[1],[0.26666666666666666],vertical,"(890.0, 262.0)",1.4666666666666666,0.232,1,4087.225,3,0.0,same
0,278,catch,"[(1184, 789)]",[],[1],[],vertical,"(890.0, 262.0)",1.7,nan,1,4093.222,3,0.0,same
0,279,catch,"[(1165, 785)]",[],[1],[],vertical,"(390.0, 762.0)",,"('cti', 1.526),nan",0,4099.371,0,0.02,same
0,280,catch,"[(1136, 769)]",[],[1],[],vertical,"(390.0, 262.0)",1.7,nan,1,4103.858,1,0.02,same
0,281,valid,"[(1160, 790)]",[],[1],[0.5333333333333333],vertical,"(390.0, 262.0)",0.7166666666666667,0.484,1,4108.677,1,0.02,same
0,282,valid,"[(1161, 787)]",[],[1],[0.85],horizontal,"(390.0, 262.0)",0.4166666666666667,nan,0,4113.384,0,0.02,same
0,283,valid,"[(1121, 782)]",[],[1],[0.85],vertical,"(390.0, 762.0)",0.9333333333333333,nan,0,4117.12,0,0.02,same
0,284,valid,"[(1115, 804)]",[],[1],[0.35],vertical,"(890.0, 262.0)",1.3,0.308,1,4121.413,1,0.02,same
0,285,valid,"[(1137, 786)]",[],[1],[],vertical,"(390.0, 762.0)",,"('fix', 0.315)",0,4126.588,0,0.02,same
0,286,invalid_same_bar,"[(1121, 833)]",[],[1],[0.55],horizontal,"(390.0, 762.0)",0.45,0.508,1,4128.25,1,0.02,same
0,287,catch,"[(1161, 777)]",[],[1],[],vertical,"(890.0, 762.0)",1.7,nan,1,4132.662,1,0.02,same
0,288,valid,"[(1141, 777)]",[],[1],[0.5666666666666667],vertical,"(890.0, 262.0)",0.5666666666666667,0.532,1,4138.129,1,0.02,same
0,289,valid,"[(1141, 773)]",[],[1],[0.3333333333333333],vertical,"(890.0, 262.0)",1.2833333333333332,0.296,1,4142.388,2,0.02,same
0,290,invalid_adjacent_other_bar,"[(1160, 788)]",[],[1],[0.8],horizontal,"(390.0, 762.0)",0.3833333333333333,0.751,1,4148.213,2,0.02,other
0,291,catch,"[(1156, 786)]",[],[1],[],vertical,"(890.0, 262.0)",1.7,nan,1,4153.523,2,0.02,same
0,292,catch,"[(1135, 780)]",[],[1],[0.03333333333333333],vertical,"(890.0, 762.0)",1.7,"0.019,nan",0,4159.604,0,0.04,same
0,293,catch,"[(1162, 794)]",[],[1],[0.03333333333333333],horizontal,"(390.0, 762.0)",1.7,"0.02,nan",0,4164.739,0,0.06,same
0,294,catch,"[(1128, 778)]",[],[1],[],vertical,"(390.0, 762.0)",1.7,nan,1,4169.827,1,0.06,same
0,295,valid,"[(1165, 795)]",[],[1],[0.4],vertical,"(390.0, 262.0)",1.4333333333333333,0.362,1,4175.055,1,0.06,same
0,296,valid,"[(1167, 805)]",[],[1],[0.7],horizontal,"(890.0, 262.0)",0.6666666666666666,0.659,1,4180.245,1,0.06,same
0,297,catch,"[(1162, 767)]",[],[1],[],vertical,"(890.0, 762.0)",1.7,"('cti', 1.684),nan",0,4185.073,0,0.08,same
0,298,valid,"[(1140, 793)]",[],[1],[0.55],horizontal,"(890.0, 762.0)",1.1333333333333333,0.506,1,4189.406,1,0.08,same
0,299,catch,"[(1165, 790)]",[],[1],[],vertical,"(890.0, 762.0)",1.7,nan,1,4194.472,1,0.08,same
0,300,catch,"[(1165, 790)]",[],[1],[],vertical,"(390.0, 762.0)",1.7,nan,1,4199.705,1,0.08,same
0,301,valid,"[(1165, 786)]",[],[1],[0.5333333333333333],vertical,"(390.0, 262.0)",1.0,0.496,1,4204.705,2,0.08,same
0,302,valid,"[(1165, 796)]",[],[1],[0.55],vertical,"(390.0, 262.0)",1.3833333333333333,0.511,1,4209.713,2,0.08,same
0,303,catch,"[(1145, 779)]",[],[1],[],horizontal,"(390.0, 762.0)",,"('cti', 1.67),nan",0,4215.322,0,0.1,same
0,304,valid,"[(1155, 791)]",[],[1],[0.85],horizontal,"(890.0, 762.0)",1.0833333333333333,nan,0,4220.39,0,0.1,same
0,305,catch,"[(1135, 778)]",[],[1],[],vertical,"(890.0, 262.0)",1.7,nan,1,4225.464,1,0.1,same
0,306,valid,"[(1120, 772)]",[],[1],[0.85],horizontal,"(390.0, 762.0)",1.0,nan,0,4230.885,0,0.1,same
0,307,valid,"[(1088, 774)]",[],[1],[0.7],vertical,"(390.0, 262.0)",0.55,0.657,1,4235.471,1,0.1,same
0,308,invalid_adjacent_other_bar,"[(1163, 784)]",[],[1],[0.6333333333333333],horizontal,"(890.0, 762.0)",0.8,0.593,1,4240.533,1,0.1,other
0,309,invalid_adjacent_other_bar,"[(1165, 758)]",[],[1],[0.5833333333333334],horizontal,"(390.0, 762.0)",0.45,0.541,1,4245.068,1,0.1,other
0,310,valid,"[(1165, 782)]",[],[1],[0.5333333333333333],vertical,"(890.0, 262.0)",0.6166666666666667,0.493,1,4249.323,2,0.1,same
0,311,catch,"[(1180, 780)]",[],[1],[0.03333333333333333],vertical,"(890.0, 762.0)",1.7,"0.018,nan",0,4254.438,0,0.12,same
0,312,invalid_adjacent_other_bar,"[(1160, 772)]",[],[1],[0.85],vertical,"(390.0, 262.0)",0.7,nan,0,4259.472,0,0.12,other
0,313,catch,"[(1115, 791)]",[],[1],[],horizontal,"(390.0, 762.0)",1.7,nan,1,4264.205,1,0.12,same
0,314,valid,"[(1160, 778)]",[],[1],[0.5166666666666666],horizontal,"(390.0, 762.0)",0.7166666666666667,0.476,1,4269.05,1,0.12,same
0,315,valid,"[(1169, 786)]",[],[1],[0.5666666666666667],vertical,"(890.0, 762.0)",1.4166666666666667,0.523,1,4273.863,1,0.12,same
0,316,invalid_same_bar,"[(1174, 789)]",[],[1],[0.5333333333333333],horizontal,"(890.0, 762.0)",1.1666666666666667,0.491,1,4279.39,2,0.12,same
0,317,invalid_adjacent_other_bar,"[(1170, 773)]",[],[1],[0.5666666666666667],horizontal,"(390.0, 762.0)",1.25,0.529,1,4285.328,2,0.12,other
0,318,valid,"[(1160, 781)]",[],[1],[0.5333333333333333],horizontal,"(390.0, 262.0)",0.8,0.495,1,4290.74,2,0.12,same
0,319,valid,"[(1163, 771)]",[],[1],[0.5333333333333333],horizontal,"(390.0, 262.0)",0.43333333333333335,0.493,1,4296.323,3,0.12,same
0,320,catch,"[(1145, 770)]",[],[1],[],vertical,"(390.0, 262.0)",1.7,nan,1,4301.739,3,0.12,same
0,321,invalid_same_bar,"[(1164, 803)]",[],[1],[0.85],horizontal,"(390.0, 762.0)",1.1,nan,0,4307.773,0,0.12,same
0,322,valid,"[(1137, 775)]",[],[1],[0.85],vertical,"(890.0, 262.0)",0.43333333333333335,nan,0,4312.518,0,0.12,same
0,323,catch,"[(1086, 797)]",[],[1],[],vertical,"(890.0, 762.0)",1.7,nan,1,4316.893,1,0.12,same
0,324,valid,"[(1180, 790)]",[],[1],[0.6833333333333333],horizontal,"(390.0, 262.0)",0.5333333333333333,0.646,1,4322.158,1,0.12,same
0,325,valid,"[(1163, 785)]",[],[1],[0.5166666666666666],horizontal,"(390.0, 762.0)",1.2666666666666666,0.476,1,4326.923,1,0.12,same
0,326,valid,"[(1131, 767)]",[],[1],[0.6833333333333333],horizontal,"(890.0, 262.0)",0.7,0.641,1,4332.14,2,0.12,same
0,327,catch,"[(1145, 772)]",[],[1],[],vertical,"(890.0, 762.0)",1.7,nan,1,4337.297,2,0.12,same
0,328,valid,"[(1165, 807)]",[],[1],[0.85],vertical,"(390.0, 762.0)",0.5833333333333334,nan,0,4342.49,0,0.12,same
0,329,valid,"[(1118, 781)]",[],[1],[0.65],horizontal,"(390.0, 262.0)",1.3833333333333333,0.61,1,4346.694,1,0.1,same
0,330,valid,"[(1140, 782)]",[],[1],[0.6833333333333333],horizontal,"(890.0, 762.0)",0.75,0.644,1,4352.123,1,0.1,same
0,331,valid,"[(1163, 779)]",[],[1],[0.85],horizontal,"(390.0, 262.0)",1.25,nan,0,4357.025,0,0.1,same
0,332,valid,"[(1160, 766)]",[],[1],[0.5833333333333334],horizontal,"(390.0, 762.0)",0.8,0.543,1,4362.705,1,0.1,same
0,333,catch,"[(1169, 777)]",[],[1],[],horizontal,"(890.0, 262.0)",1.7,nan,1,4367.786,1,0.1,same
0,334,invalid_adjacent_other_bar,"[(1163, 775)]",[],[1],[0.85],horizontal,"(390.0, 762.0)",0.75,nan,0,4372.672,0,0.1,other
0,335,valid,"[(1126, 777)]",[],[1],[0.6833333333333333],horizontal,"(390.0, 762.0)",1.2166666666666666,0.644,1,4377.074,1,0.1,same
0,336,catch,"[(1155, 794)]",[],[1],[],vertical,"(890.0, 262.0)",1.7,nan,1,4382.531,1,0.1,same
0,337,valid,"[(1163, 773)]",[],[1],[0.5166666666666666],horizontal,"(390.0, 262.0)",1.35,0.474,1,4387.723,1,0.1,same
0,338,valid,"[(1165, 771)]",[],[1],[0.4666666666666667],vertical,"(890.0, 762.0)",1.5,0.426,1,4392.69,2,0.1,same
0,339,catch,"[(1161, 772)]",[],[1],[],horizontal,"(390.0, 262.0)",1.7,nan,1,4398.735,2,0.1,same
0,340,valid,"[(1136, 781)]",[],[1],[],vertical,"(390.0, 762.0)",,"('cti', 0.545)",0,4404.193,0,0.1,same
0,341,valid,"[(1135, 773)]",[],[1],[0.48333333333333334],horizontal,"(890.0, 262.0)",1.3,0.445,1,4408.155,1,0.1,same
0,342,catch,"[(1147, 790)]",[],[1],[],horizontal,"(890.0, 262.0)",1.7,nan,1,4413.335,1,0.08,same
0,343,valid,"[(1142, 783)]",[],[1],[0.6166666666666667],vertical,"(390.0, 262.0)",1.5,0.578,1,4418.452,1,0.06,same
0,344,valid,"[(1163, 790)]",[],[1],[0.85],vertical,"(390.0, 762.0)",0.4,nan,0,4423.667,0,0.06,same
0,345,valid,"[(1134, 779)]",[],[1],[0.48333333333333334],horizontal,"(390.0, 762.0)",0.6166666666666667,0.451,1,4427.639,1,0.06,same
0,346,valid,"[(1161, 767)]",[],[1],[0.55],vertical,"(890.0, 262.0)",0.6666666666666666,0.518,1,4432.265,1,0.06,same
0,347,catch,"[(1160, 795)]",[],[1],[],vertical,"(390.0, 262.0)",1.7,nan,1,4436.825,1,0.04,same
0,348,catch,"[(1145, 772)]",[],[1],[],horizontal,"(390.0, 762.0)",1.7,nan,1,4441.644,2,0.04,same
0,349,valid,"[(1160, 783)]",[],[1],[0.5666666666666667],horizontal,"(390.0, 262.0)",0.5833333333333334,0.527,1,4447.422,2,0.04,same
0,350,catch,"[(1160, 780)]",[],[1],[],vertical,"(890.0, 762.0)",1.7,nan,1,4452.748,2,0.04,same
0,351,valid,"[(1148, 776)]",[],[1],[0.6333333333333333],horizontal,"(390.0, 762.0)",0.7166666666666667,0.595,1,4458.236,3,0.04,same
0,352,catch,"[(1160, 774)]",[],[1],[],vertical,"(890.0, 762.0)",,"('cti', 1.673),nan",0,4463.781,0,0.06,same
0,353,catch,"[(1140, 790)]",[],[1],[],vertical,"(390.0, 262.0)",1.7,nan,1,4468.662,1,0.04,same
0,354,catch,"[(1160, 792)]",[],[1],[],vertical,"(390.0, 262.0)",1.7,nan,1,4474.14,1,0.04,same
0,355,valid,"[(1162, 777)]",[],[1],[0.5333333333333333],horizontal,"(890.0, 762.0)",1.1,0.493,1,4479.071,1,0.04,same
0,356,valid,"[(1135, 776)]",[],[1],[0.4666666666666667],vertical,"(890.0, 262.0)",0.35,0.434,1,4484.284,2,0.04,same
0,357,catch,"[(1160, 797)]",[],[1],[],horizontal,"(390.0, 262.0)",1.7,nan,1,4489.057,2,0.04,same
0,358,catch,"[(1157, 799)]",[],[1],[],horizontal,"(890.0, 262.0)",1.7,nan,1,4494.539,2,0.04,same
0,359,valid,"[(1165, 783)]",[],[1],[0.55],vertical,"(890.0, 262.0)",1.3666666666666667,0.508,1,4500.185,3,0.04,same
0,360,valid,"[(1160, 789)]",[],[1],[0.55],vertical,"(890.0, 262.0)",0.45,0.517,1,4506.389,3,0.04,same
0,361,valid,"[(1177, 795)]",[],[1],[0.5166666666666666],vertical,"(390.0, 262.0)",0.7,0.478,1,4511.718,3,0.02,same
0,362,valid,"[(1162, 792)]",[],[1],[0.7833333333333333],vertical,"(390.0, 762.0)",1.2,0.742,1,4517.323,3,0.02,same
0,363,valid,"[(1135, 773)]",[],[1],[0.5166666666666666],vertical,"(390.0, 262.0)",1.1666666666666667,0.484,1,4523.556,3,0.02,same
0,364,valid,"[(1160, 776)]",[],[1],[0.6333333333333333],vertical,"(390.0, 262.0)",1.25,0.593,1,4529.773,3,0.02,same
0,365,catch,"[(1161, 770)]",[],[1],[],vertical,"(390.0, 762.0)",,"('cti', 1.554),nan",0,4535.947,0,0.04,same
0,366,valid,"[(1123, 791)]",[],[1],[0.85],horizontal,"(890.0, 762.0)",0.5333333333333333,nan,0,4540.756,0,0.04,same
0,367,valid,"[(1135, 796)]",[],[1],[0.45],vertical,"(890.0, 262.0)",0.9166666666666666,0.416,1,4545.182,1,0.04,same
0,368,valid,"[(1161, 789)]",[],[1],[0.5],horizontal,"(390.0, 762.0)",1.3333333333333333,0.459,1,4550.406,1,0.04,same
0,369,valid,"[(1171, 791)]",[],[1],[0.7333333333333333],horizontal,"(390.0, 262.0)",0.95,0.688,1,4555.969,1,0.04,same
0,370,invalid_adjacent_other_bar,"[(1161, 776)]",[],[1],[0.4],horizontal,"(890.0, 762.0)",1.0666666666666667,0.363,1,4561.09,2,0.04,other
0,371,valid,"[(1161, 778)]",[],[1],[0.5166666666666666],horizontal,"(890.0, 762.0)",0.75,0.472,1,4566.783,2,0.04,same
0,372,valid,"[(1136, 779)]",[],[1],[0.6833333333333333],horizontal,"(390.0, 762.0)",1.0,0.634,1,4571.638,2,0.04,same
0,373,catch,"[(1152, 780)]",[],[1],[],vertical,"(890.0, 262.0)",1.7,nan,1,4576.979,3,0.04,same
0,374,valid,"[(1160, 780)]",[],[1],[0.6333333333333333],vertical,"(890.0, 762.0)",0.9666666666666667,0.59,1,4583.138,3,0.04,same
0,375,valid,"[(1137, 779)]",[],[1],[0.65],horizontal,"(390.0, 262.0)",0.8166666666666667,0.61,1,4588.935,3,0.04,same
0,376,valid,"[(1140, 778)]",[],[1],[0.5],vertical,"(390.0, 262.0)",1.1166666666666667,0.459,1,4594.674,3,0.04,same
0,377,valid,"[(1134, 803)]",[],[1],[0.55],horizontal,"(890.0, 262.0)",1.4333333333333333,0.513,1,4600.374,3,0.04,same
0,378,valid,"[(1179, 779)]",[],[1],[0.85],vertical,"(890.0, 762.0)",0.6166666666666667,nan,0,4606.59,0,0.04,same
0,379,catch,"[(1134, 792)]",[],[1],[],vertical,"(890.0, 262.0)",1.7,nan,1,4610.841,1,0.04,same
0,380,valid,"[(1166, 786)]",[],[1],[0.85],vertical,"(390.0, 762.0)",0.8333333333333334,nan,0,4615.946,0,0.04,same
0,381,valid,"[(1121, 780)]",[],[1],[0.6333333333333333],horizontal,"(890.0, 762.0)",1.4666666666666666,0.589,1,4620.416,1,0.04,same
0,382,invalid_same_bar,"[(1142, 812)]",[],[1],[0.85],vertical,"(890.0, 762.0)",0.65,nan,0,4626.923,0,0.04,same
0,383,valid,"[(1115, 788)]",[],[1],[0.5666666666666667],vertical,"(890.0, 762.0)",0.9166666666666666,0.533,1,4631.684,1,0.04,same
0,384,valid,"[(1163, 788)]",[],[1],[0.5166666666666666],vertical,"(390.0, 262.0)",1.4333333333333333,0.48,1,4636.54,1,0.04,same
0,385,catch,"[(1135, 772)]",[],[1],[],vertical,"(890.0, 762.0)",1.7,nan,1,4641.812,1,0.04,same
0,386,valid,"[(1164, 782)]",[],[1],[0.65],horizontal,"(390.0, 762.0)",1.0333333333333332,0.608,1,4647.06,2,0.04,same
0,387,valid,"[(1155, 776)]",[],[1],[0.5833333333333334],vertical,"(890.0, 262.0)",1.3,0.54,1,4653.085,2,0.04,same
0,388,valid,"[(1140, 793)]",[],[1],[0.36666666666666664],horizontal,"(890.0, 262.0)",1.5,0.328,1,4658.574,2,0.04,same
0,389,invalid_adjacent_other_bar,"[(1165, 774)]",[],[1],[0.5],vertical,"(390.0, 762.0)",0.48333333333333334,0.459,1,4664.336,3,0.04,other
0,390,valid,"[(1163, 795)]",[],[1],[0.5],horizontal,"(890.0, 262.0)",1.25,0.457,1,4669.558,3,0.04,same
0,391,catch,"[(1145, 782)]",[],[1],[],horizontal,"(390.0, 762.0)",1.7,nan,1,4675.213,3,0.04,same
0,392,valid,"[(1165, 779)]",[],[1],[0.5833333333333334],vertical,"(390.0, 762.0)",0.6666666666666666,0.54,1,4681.304,3,0.04,same
0,393,valid,"[(1146, 778)]",[],[1],[0.6],vertical,"(890.0, 262.0)",1.3333333333333333,0.56,1,4686.753,3,0.04,same
0,394,valid,"[(1168, 776)]",[],[1],[0.36666666666666664],vertical,"(890.0, 762.0)",1.45,0.332,1,4692.623,3,0.04,same
0,395,invalid_same_bar,"[(1167, 777)]",[],[1],[0.55],horizontal,"(890.0, 262.0)",1.2833333333333332,0.509,1,4698.491,3,0.04,same
0,396,catch,"[(1165, 787)]",[],[1],[],horizontal,"(890.0, 262.0)",,"('cti', 1.485),nan",0,4704.719,0,0.06,same
0,397,valid,"[(1091, 803)]",[],[1],[0.6166666666666667],vertical,"(390.0, 762.0)",0.45,0.577,1,4709.324,1,0.06,same
0,398,valid,"[(1164, 792)]",[],[1],[0.5],vertical,"(890.0, 762.0)",1.1833333333333333,0.464,1,4718.219,1,0.06,same
0,399,valid,"[(1167, 786)]",[],[1],[0.85],vertical,"(390.0, 762.0)",0.65,nan,0,4723.131,0,0.06,same
0,400,catch,"[(1134, 800)]",[],[1],[],horizontal,"(390.0, 262.0)",,"('cti', 1.61),nan",0,4727.623,0,0.08,same
0,401,catch,"[(1165, 800)]",[],[1],[],horizontal,"(390.0, 762.0)",1.7,nan,1,4732.517,1,0.08,same
0,402,valid,"[(1165, 805)]",[],[1],[0.55],vertical,"(390.0, 762.0)",0.6666666666666666,0.506,1,4737.696,1,0.06,same
0,403,valid,"[(1165, 778)]",[],[1],[0.5333333333333333],horizontal,"(390.0, 262.0)",1.5,0.495,1,4742.724,1,0.06,same
0,404,valid,"[(1170, 782)]",[],[1],[0.5],horizontal,"(890.0, 262.0)",0.6833333333333333,0.459,1,4748.074,2,0.06,same
0,405,valid,"[(1164, 800)]",[],[1],[0.85],horizontal,"(890.0, 262.0)",0.55,nan,0,4753.207,0,0.06,same
0,406,valid,"[(1118, 777)]",[],[1],[0.85],horizontal,"(890.0, 762.0)",1.2333333333333334,nan,0,4757.339,0,0.06,same
0,407,valid,"[(1118, 787)]",[],[1],[0.48333333333333334],vertical,"(890.0, 762.0)",1.35,0.443,1,4762.261,1,0.06,same
0,408,valid,"[(1166, 779)]",[],[1],[0.6833333333333333],vertical,"(890.0, 762.0)",1.1833333333333333,0.641,1,4767.439,1,0.06,same
0,409,valid,"[(1169, 778)]",[],[1],[0.5166666666666666],vertical,"(890.0, 762.0)",1.0333333333333332,0.478,1,4772.691,1,0.06,same
0,410,valid,"[(1165, 796)]",[],[1],[0.5666666666666667],horizontal,"(890.0, 262.0)",1.4833333333333334,0.523,1,4777.692,2,0.06,same
0,411,valid,"[(1168, 800)]",[],[1],[0.5333333333333333],horizontal,"(890.0, 262.0)",0.7333333333333333,0.491,1,4783.437,2,0.06,same
0,412,valid,"[(1146, 789)]",[],[1],[0.75],vertical,"(890.0, 762.0)",0.55,0.697,1,4788.841,2,0.06,same
0,413,catch,"[(1141, 775)]",[],[1],[],vertical,"(390.0, 262.0)",1.7,nan,1,4793.824,3,0.06,same
0,414,catch,"[(1148, 790)]",[],[1],[],horizontal,"(390.0, 762.0)",1.7,nan,1,4799.84,3,0.06,same
0,415,catch,"[(1165, 779)]",[],[1],[],horizontal,"(390.0, 762.0)",1.7,nan,1,4805.908,3,0.04,same
0,416,invalid_same_bar,"[(1169, 785)]",[],[1],[0.5666666666666667],vertical,"(390.0, 262.0)",1.4833333333333334,0.522,1,4811.923,3,0.04,same
0,417,valid,"[(1137, 769)]",[],[1],[0.5166666666666666],horizontal,"(890.0, 762.0)",0.75,0.471,1,4818.023,3,0.04,same
0,418,catch,"[(1166, 786)]",[],[1],[],horizontal,"(390.0, 262.0)",1.7,nan,1,4823.807,3,0.04,same
0,419,valid,"[(1165, 791)]",[],[1],[0.6333333333333333],vertical,"(890.0, 762.0)",0.9666666666666667,0.582,1,4829.407,3,0.04,same
0,420,valid,"[(1137, 801)]",[],[1],[0.75],vertical,"(890.0, 262.0)",0.6833333333333333,0.703,1,4835.437,3,0.04,same
0,421,valid,"[(1165, 769)]",[],[1],[0.85],horizontal,"(390.0, 762.0)",0.55,nan,0,4841.057,0,0.04,same
0,422,valid,"[(1131, 789)]",[],[1],[0.5],horizontal,"(890.0, 262.0)",0.5,0.459,1,4845.541,1,0.04,same
0,423,valid,"[(1165, 779)]",[],[1],[0.8],vertical,"(390.0, 762.0)",0.8166666666666667,0.749,1,4850.483,1,0.04,same
0,424,catch,"[(1164, 786)]",[],[1],[],vertical,"(390.0, 762.0)",1.7,nan,1,4855.607,1,0.04,same
0,425,catch,"[(1165, 777)]",[],[1],[],vertical,"(890.0, 262.0)",1.7,nan,1,4861.037,2,0.04,same
0,426,valid,"[(1140, 785)]",[],[1],[0.7333333333333333],vertical,"(390.0, 262.0)",1.2666666666666666,0.688,1,4866.757,2,0.04,same
0,427,valid,"[(1165, 773)]",[],[1],[0.85],vertical,"(890.0, 262.0)",0.4166666666666667,nan,0,4872.291,0,0.04,same
0,428,valid,"[(1132, 782)]",[],[1],[0.6],vertical,"(890.0, 262.0)",0.6333333333333333,0.561,1,4876.755,1,0.04,same
0,429,invalid_same_bar,"[(1165, 792)]",[],[1],[0.85],horizontal,"(390.0, 762.0)",0.9666666666666667,nan,0,4881.441,0,0.04,same
0,430,catch,"[(1125, 797)]",[],[1],[],vertical,"(890.0, 762.0)",1.7,nan,1,4886.29,1,0.04,same
0,431,valid,"[(1165, 790)]",[],[1],[0.5333333333333333],horizontal,"(390.0, 262.0)",1.1166666666666667,0.49,1,4891.74,1,0.04,same
0,432,catch,"[(1167, 796)]",[],[1],[],vertical,"(890.0, 262.0)",1.7,nan,1,4896.84,1,0.04,same
0,433,valid,"[(1156, 770)]",[],[1],[0.6833333333333333],vertical,"(890.0, 762.0)",0.9166666666666666,0.643,1,4901.758,2,0.04,same
0,434,valid,"[(1169, 774)]",[],[1],[0.5666666666666667],vertical,"(390.0, 262.0)",1.25,0.523,1,4907.157,2,0.04,same
0,435,valid,"[(1173, 774)]",[],[1],[0.5],vertical,"(890.0, 762.0)",0.8666666666666667,0.46,1,4912.958,2,0.04,same
0,436,catch,"[(1135, 794)]",[],[1],[],vertical,"(890.0, 262.0)",1.7,nan,1,4918.258,3,0.04,same
0,437,valid,"[(1166, 779)]",[],[1],[0.65],horizontal,"(890.0, 762.0)",0.9333333333333333,0.606,1,4924.36,3,0.04,same
0,438,catch,"[(1161, 769)]",[],[1],[],vertical,"(390.0, 262.0)",1.7,nan,1,4929.875,3,0.04,same
0,439,catch,"[(1166, 789)]",[],[1],[],horizontal,"(890.0, 762.0)",1.7,nan,1,4936.092,3,0.04,same
0,440,valid,"[(1138, 779)]",[],[1],[0.6],vertical,"(890.0, 762.0)",0.4,0.561,1,4941.669,3,0.04,same
0,441,valid,"[(1162, 767)]",[],[1],[0.3833333333333333],vertical,"(390.0, 262.0)",1.3166666666666667,0.343,1,4947.156,3,0.04,same
0,442,valid,"[(1160, 787)]",[],[1],[0.5166666666666666],horizontal,"(390.0, 262.0)",0.8666666666666667,0.474,1,4953.374,3,0.04,same
0,443,valid,"[(1142, 795)]",[],[1],[0.55],vertical,"(390.0, 762.0)",1.35,0.515,1,4959.197,3,0.04,same
0,444,catch,"[(1141, 773)]",[],[1],[],vertical,"(890.0, 262.0)",1.7,nan,1,4965.209,3,0.04,same
0,445,valid,"[(1160, 791)]",[],[1],[0.55],horizontal,"(890.0, 262.0)",1.2666666666666666,0.506,1,4971.143,3,0.04,same
0,446,valid,"[(1160, 791)]",[],[1],[0.55],vertical,"(390.0, 762.0)",1.3833333333333333,0.507,1,4977.358,3,0.02,same
0,447,catch,"[(1120, 804)]",[],[1],[],horizontal,"(890.0, 262.0)",1.7,nan,1,4983.4,3,0.02,same
0,448,invalid_adjacent_other_bar,"[(1111, 825)]",[],[1],[0.85],horizontal,"(890.0, 262.0)",0.5,nan,0,4989.491,0,0.02,other
0,449,valid,"[(1121, 809)]",[],[1],[0.35],horizontal,"(390.0, 262.0)",1.2666666666666666,0.309,1,5042.524,1,0.02,same
0,450,valid,"[(1175, 789)]",[],[1],[0.5833333333333334],vertical,"(390.0, 262.0)",1.0,0.542,1,5047.874,1,0.0,same
0,451,valid,"[(1163, 796)]",[],[1],[0.6166666666666667],vertical,"(390.0, 262.0)",1.5333333333333332,0.58,1,5052.707,1,0.0,same
0,452,valid,"[(1150, 794)]",[],[1],[0.35],horizontal,"(390.0, 762.0)",1.3,0.313,1,5057.922,2,0.0,same
0,453,catch,"[(1155, 776)]",[],[1],[],vertical,"(890.0, 762.0)",1.7,nan,1,5063.666,2,0.0,same
0,454,catch,"[(1137, 806)]",[],[1],[],horizontal,"(890.0, 262.0)",1.7,nan,1,5068.875,2,0.0,same
0,455,invalid_same_bar,"[(1147, 775)]",[],[1],[0.5],vertical,"(890.0, 262.0)",0.9,0.457,1,5074.892,3,0.0,same
0,456,catch,"[(1165, 787)]",[],[1],[],horizontal,"(390.0, 262.0)",1.7,nan,1,5080.964,3,0.0,same
0,457,invalid_adjacent_other_bar,"[(1160, 777)]",[],[1],[0.6166666666666667],horizontal,"(890.0, 762.0)",0.9666666666666667,0.575,1,5087.158,3,0.0,other
0,458,valid,"[(1161, 788)]",[],[1],[0.11666666666666667],horizontal,"(890.0, 262.0)",1.4833333333333334,0.084,0,5093.024,0,0.0,same
0,459,catch,"[(1135, 777)]",[],[1],[],horizontal,"(890.0, 262.0)",1.7,nan,1,5097.675,1,0.0,same
0,460,valid,"[(1156, 792)]",[],[1],[0.6333333333333333],horizontal,"(890.0, 262.0)",0.8666666666666667,0.59,1,5102.907,1,0.0,same
0,461,valid,"[(1160, 783)]",[],[1],[0.55],horizontal,"(890.0, 262.0)",1.3833333333333333,0.513,1,5108.208,1,0.0,same
0,462,catch,"[(1180, 785)]",[],[1],[],horizontal,"(390.0, 262.0)",1.7,nan,1,5113.284,2,0.0,same
0,463,valid,"[(1160, 787)]",[],[1],[0.85],horizontal,"(890.0, 762.0)",0.35,nan,0,5119.241,0,0.0,same
0,464,valid,"[(1137, 771)]",[],[1],[0.5833333333333334],vertical,"(890.0, 762.0)",1.25,0.556,1,5123.624,1,0.0,same
0,465,catch,"[(1160, 795)]",[],[1],[],vertical,"(890.0, 762.0)",1.7,nan,1,5129.052,1,0.0,same
0,466,valid,"[(1161, 791)]",[],[1],[0.5666666666666667],horizontal,"(390.0, 762.0)",0.9166666666666666,0.524,1,5134.04,1,0.0,same
0,467,valid,"[(1145, 795)]",[],[1],[0.5],vertical,"(890.0, 762.0)",1.5,0.462,1,5138.739,2,0.0,same
0,468,valid,"[(1137, 778)]",[],[1],[0.6666666666666666],vertical,"(890.0, 762.0)",1.0666666666666667,0.622,1,5144.845,2,0.0,same
0,469,valid,"[(1160, 794)]",[],[1],[0.08333333333333333],vertical,"(890.0, 762.0)",1.25,0.053,0,5150.461,0,0.0,same
0,470,catch,"[(1165, 808)]",[],[1],[],horizontal,"(390.0, 262.0)",1.7,nan,1,5154.491,1,0.0,same
0,471,valid,"[(1163, 801)]",[],[1],[0.6],vertical,"(890.0, 262.0)",0.6833333333333333,0.564,1,5159.45,1,0.0,same
0,472,valid,"[(1146, 783)]",[],[1],[0.4666666666666667],horizontal,"(890.0, 262.0)",0.95,0.428,1,5164.216,1,0.0,same
0,473,valid,"[(1160, 793)]",[],[1],[0.5333333333333333],vertical,"(890.0, 262.0)",0.8,0.491,1,5169.591,2,0.0,same
0,474,valid,"[(1178, 785)]",[],[1],[0.5666666666666667],horizontal,"(390.0, 262.0)",0.6833333333333333,0.525,1,5175.224,2,0.0,same
0,475,valid,"[(1162, 777)]",[],[1],[0.6666666666666666],horizontal,"(390.0, 262.0)",0.9666666666666667,0.622,1,5180.182,2,0.0,same
0,476,catch,"[(1144, 798)]",[],[1],[],horizontal,"(390.0, 262.0)",1.7,nan,1,5185.875,3,0.0,same
0,477,valid,"[(1161, 794)]",[],[1],[0.5833333333333334],vertical,"(890.0, 762.0)",1.1666666666666667,0.543,1,5191.921,3,0.0,same
0,478,invalid_same_bar,"[(1142, 804)]",[],[1],[0.48333333333333334],vertical,"(890.0, 262.0)",0.9,0.448,1,5197.641,3,0.0,same
0,479,valid,"[(1160, 774)]",[],[1],[0.5166666666666666],horizontal,"(390.0, 762.0)",1.4333333333333333,0.476,1,5203.358,3,0.0,same
0,480,valid,"[(1163, 800)]",[],[1],[0.55],horizontal,"(890.0, 262.0)",1.3333333333333333,0.51,1,5209.267,3,0.0,same
0,481,valid,"[(1137, 787)]",[],[1],[0.5],vertical,"(890.0, 762.0)",0.85,0.459,1,5215.276,3,0.0,same
0,482,invalid_adjacent_other_bar,"[(1149, 806)]",[],[1],[0.4666666666666667],vertical,"(390.0, 762.0)",0.36666666666666664,0.423,1,5220.847,3,0.0,other
0,483,catch,"[(1162, 799)]",[],[1],[],horizontal,"(890.0, 262.0)",1.7,nan,1,5226.017,3,0.0,same
0,484,valid,"[(1167, 788)]",[],[1],[0.5166666666666666],horizontal,"(390.0, 262.0)",1.3,0.472,1,5231.669,3,0.0,same
0,485,catch,"[(1162, 786)]",[],[1],[],vertical,"(390.0, 762.0)",,"('cti', 1.265),nan",0,5237.992,0,0.02,same
0,486,valid,"[(1051, 906)]",[],[1],[0.5833333333333334],horizontal,"(890.0, 262.0)",0.4,0.548,1,5242.575,1,0.02,same
0,487,invalid_adjacent_other_bar,"[(1156, 788)]",[],[1],[0.5],vertical,"(890.0, 262.0)",1.1,0.456,1,5247.122,1,0.02,other
0,488,invalid_same_bar,"[(1160, 780)]",[],[1],[0.55],vertical,"(890.0, 262.0)",0.8666666666666667,0.512,1,5252.05,1,0.02,same
0,489,valid,"[(1160, 800)]",[],[1],[0.6666666666666666],horizontal,"(890.0, 262.0)",1.45,0.626,1,5256.701,2,0.02,same
0,490,valid,"[(1129, 813)]",[],[1],[0.55],vertical,"(890.0, 762.0)",0.5833333333333334,0.506,1,5262.302,2,0.02,same
0,491,valid,"[(1160, 790)]",[],[1],[0.85],vertical,"(390.0, 262.0)",0.35,nan,0,5267.581,0,0.02,same
0,492,valid,"[(1131, 816)]",[],[1],[0.7],vertical,"(390.0, 762.0)",0.8,0.662,1,5271.671,1,0.02,same
0,493,valid,"[(1165, 803)]",[],[1],[0.55],vertical,"(890.0, 262.0)",1.3666666666666667,0.512,1,5279.304,1,0.02,same
0,494,valid,"[(1135, 762)]",[],[1],[0.11666666666666667],vertical,"(890.0, 262.0)",1.05,0.083,0,5284.738,0,0.02,same
0,495,catch,"[(1060, 846)]",[],[1],[],vertical,"(390.0, 262.0)",,"('cti', 0.61),nan",0,5288.554,0,0.04,same
0,496,valid,"[(1112, 790)]",[],[1],[0.5],horizontal,"(390.0, 262.0)",1.05,0.461,1,5301.96,1,0.04,same
0,497,catch,"[(1162, 802)]",[],[1],[],vertical,"(390.0, 762.0)",1.7,nan,1,5311.54,1,0.04,same
0,498,valid,"[(1165, 804)]",[],[1],[0.5],vertical,"(890.0, 262.0)",0.7833333333333333,0.469,1,5316.828,1,0.04,same
0,499,valid,"[(1162, 808)]",[],[1],[0.5666666666666667],horizontal,"(890.0, 762.0)",0.65,0.523,1,5321.293,2,0.04,same
0,500,catch,"[(1165, 783)]",[],[1],[],horizontal,"(390.0, 262.0)",1.7,nan,1,5326.542,2,0.04,same
0,501,invalid_same_bar,"[(1161, 798)]",[],[1],[0.5166666666666666],vertical,"(390.0, 262.0)",1.35,0.476,1,5332.125,2,0.04,same
0,502,valid,"[(1161, 811)]",[],[1],[0.48333333333333334],vertical,"(890.0, 262.0)",1.1666666666666667,0.439,1,5337.927,3,0.04,same
0,503,valid,"[(1160, 792)]",[],[1],[0.5],vertical,"(390.0, 262.0)",1.35,0.467,1,5344.042,3,0.04,same
0,504,valid,"[(1170, 797)]",[],[1],[0.5],horizontal,"(890.0, 262.0)",1.25,0.459,1,5349.842,3,0.04,same
0,505,catch,"[(1135, 793)]",[],[1],[],vertical,"(890.0, 262.0)",1.7,nan,1,5355.708,3,0.04,same
0,506,invalid_adjacent_other_bar,"[(1159, 752), (1088, 830)]",[],"[0, 1]",[0.65],horizontal,"(390.0, 262.0)",1.0666666666666667,0.611,1,5361.851,3,0.04,other
0,507,valid,"[(1163, 798)]",[],[1],[0.4666666666666667],vertical,"(890.0, 262.0)",0.9833333333333333,0.432,1,5369.424,3,0.04,same
0,508,invalid_same_bar,"[(1160, 801)]",[],[1],[0.85],horizontal,"(890.0, 762.0)",0.5166666666666666,nan,0,5374.971,0,0.04,same
0,509,valid,"[(1130, 802)]",[],[1],[0.5333333333333333],horizontal,"(390.0, 762.0)",0.8833333333333333,0.496,1,5379.51,1,0.04,same
0,510,valid,"[(1189, 773)]",[],[1],[0.7],vertical,"(390.0, 262.0)",0.48333333333333334,0.655,1,5384.643,1,0.04,same
0,511,valid,"[(1160, 773)]",[],[1],[0.5333333333333333],horizontal,"(390.0, 262.0)",1.1,0.496,1,5388.725,1,0.04,same
0,512,valid,"[(1133, 829)]",[],[1],[0.85],horizontal,"(890.0, 262.0)",1.1,nan,0,5393.737,0,0.04,same
0,513,valid,"[(1107, 783)]",[],[1],[0.85],horizontal,"(390.0, 762.0)",0.9,nan,0,5398.958,0,0.04,same
0,514,valid,"[(1130, 787)]",[],[1],[0.6166666666666667],horizontal,"(390.0, 262.0)",0.7833333333333333,0.578,1,5403.327,1,0.04,same
0,515,valid,"[(1136, 777)]",[],[1],[],vertical,"(890.0, 262.0)",,"('cti', 1.414)",0,5408.825,0,0.04,same
0,516,valid,"[(1160, 806)]",[],[1],[0.5],vertical,"(890.0, 762.0)",0.6,0.458,1,5413.359,1,0.04,same
0,517,valid,"[(1162, 786)]",[],[1],[0.6],vertical,"(390.0, 262.0)",1.3166666666666667,0.56,1,5418.243,1,0.04,same
0,518,valid,"[(1161, 770)]",[],[1],[0.48333333333333334],vertical,"(890.0, 262.0)",0.7333333333333333,0.442,1,5423.764,1,0.04,same
0,519,valid,"[(1155, 788)]",[],[1],[0.85],horizontal,"(390.0, 762.0)",0.3833333333333333,nan,0,5428.341,0,0.04,same
0,520,catch,"[(1132, 772)]",[],[1],[],horizontal,"(890.0, 762.0)",,"('cti', 1.333),nan",0,5432.942,0,0.06,same
0,521,valid,"[(1165, 799)]",[],[1],[0.5],vertical,"(890.0, 762.0)",1.3,0.464,1,5437.076,1,0.06,same
0,522,valid,"[(1162, 789)]",[],[1],[0.85],horizontal,"(890.0, 262.0)",0.5,nan,0,5442.547,0,0.06,same
0,523,valid,"[(1159, 782)]",[],[1],[0.5833333333333334],vertical,"(390.0, 262.0)",1.2666666666666666,0.541,1,5446.375,1,0.06,same
0,524,valid,"[(1155, 804)]",[],[1],[0.55],vertical,"(390.0, 262.0)",1.15,0.504,1,5451.659,1,0.06,same
0,525,catch,"[(1160, 777)]",[],[1],[],horizontal,"(390.0, 762.0)",1.7,nan,1,5456.709,1,0.06,same
0,526,valid,"[(1158, 778)]",[],[1],[0.5333333333333333],vertical,"(890.0, 762.0)",1.3333333333333333,0.5,1,5461.659,2,0.06,same
0,527,valid,"[(1160, 782)]",[],[1],[0.6166666666666667],vertical,"(390.0, 762.0)",0.7666666666666666,0.583,1,5467.499,2,0.06,same
0,528,valid,"[(1154, 803)]",[],[1],[0.6],vertical,"(890.0, 262.0)",1.25,0.557,1,5472.504,2,0.06,same
0,529,valid,"[(1158, 783)]",[],[1],[0.85],vertical,"(890.0, 762.0)",0.55,nan,0,5478.075,0,0.06,same
0,530,invalid_same_bar,"[(1132, 777)]",[],[1],[0.5333333333333333],horizontal,"(890.0, 762.0)",1.2666666666666666,0.494,1,5482.669,1,0.06,same
0,531,valid,"[(1177, 795)]",[],[1],[0.85],vertical,"(390.0, 262.0)",1.4,nan,0,5488.193,0,0.06,same
0,532,valid,"[(1119, 772)]",[],[1],[0.6833333333333333],vertical,"(390.0, 262.0)",1.5166666666666666,0.64,1,5493.21,1,0.06,same
0,533,valid,"[(1180, 795)]",[],[1],[0.5166666666666666],vertical,"(890.0, 262.0)",1.4333333333333333,0.473,1,5498.645,1,0.06,same
0,534,catch,"[(1160, 773)]",[],[1],[],vertical,"(390.0, 762.0)",,"('cti', 1.62),nan",0,5503.841,0,0.08,same
0,535,valid,"[(1089, 817)]",[],[1],[0.5666666666666667],horizontal,"(390.0, 262.0)",0.36666666666666664,0.536,1,5508.835,1,0.06,same
0,536,valid,"[(1160, 796)]",[],[1],[0.5],vertical,"(890.0, 262.0)",1.3166666666666667,0.46,1,5550.361,1,0.06,same
0,537,catch,"[(1160, 777)]",[],[1],[],vertical,"(890.0, 262.0)",1.7,nan,1,5555.641,1,0.06,same
0,538,valid,"[(1161, 819)]",[],[1],[0.55],vertical,"(390.0, 262.0)",0.5833333333333334,0.51,1,5560.557,2,0.06,same
0,539,valid,"[(1178, 772)]",[],[1],[0.6],horizontal,"(390.0, 762.0)",0.8166666666666667,0.555,1,5566.017,2,0.06,same
0,540,valid,"[(1147, 789)]",[],[1],[0.6],horizontal,"(890.0, 262.0)",0.8,0.561,1,5571.591,2,0.06,same
0,541,invalid_adjacent_other_bar,"[(1160, 787)]",[],[1],[0.5],horizontal,"(390.0, 762.0)",0.8333333333333334,0.457,1,5577.075,3,0.06,other
0,542,catch,"[(1164, 785)]",[],[1],[],vertical,"(390.0, 762.0)",1.7,nan,1,5582.719,3,0.06,same
0,543,valid,"[(1132, 822)]",[],[1],[0.5333333333333333],vertical,"(390.0, 762.0)",0.55,0.491,1,5589.003,3,0.06,same
0,544,valid,"[(1153, 793)]",[],[1],[0.85],vertical,"(890.0, 262.0)",0.35,nan,0,5595.56,0,0.06,same
0,545,valid,"[(1135, 790)]",[],[1],[0.5333333333333333],vertical,"(890.0, 762.0)",0.5666666666666667,0.49,1,5599.984,1,0.04,same
0,546,invalid_same_bar,"[(1168, 789)]",[],[1],[0.6],horizontal,"(390.0, 762.0)",0.4,0.568,1,5604.639,1,0.04,same
0,547,valid,"[(1163, 782)]",[],[1],[0.5833333333333334],horizontal,"(390.0, 262.0)",1.0333333333333332,0.543,1,5609.309,1,0.04,same
0,548,catch,"[(1160, 778)]",[],[1],[],vertical,"(890.0, 762.0)",1.7,nan,1,5614.515,2,0.04,same
0,549,valid,"[(1167, 771)]",[],[1],[0.7],vertical,"(890.0, 762.0)",1.1,0.656,1,5620.243,2,0.04,same
0,550,catch,"[(1086, 825)]",[],[1],[],horizontal,"(890.0, 262.0)",1.7,nan,1,5625.726,2,0.04,same
0,551,valid,"[(1121, 807)]",[],[1],[0.43333333333333335],horizontal,"(890.0, 262.0)",1.45,0.394,1,5705.144,3,0.04,same
0,552,valid,"[(1160, 792)]",[],[1],[0.48333333333333334],vertical,"(390.0, 762.0)",0.45,0.447,1,5711.527,3,0.04,same
0,553,valid,"[(1200, 782)]",[],[1],[0.48333333333333334],vertical,"(390.0, 262.0)",0.7166666666666667,0.447,1,5716.711,3,0.04,same
0,554,catch,"[(1156, 782)]",[],[1],[],horizontal,"(390.0, 262.0)",1.7,nan,1,5722.293,3,0.04,same
0,555,valid,"[(1156, 787)]",[],[1],[0.4666666666666667],horizontal,"(390.0, 262.0)",0.5,0.424,1,5728.077,3,0.04,same
0,556,valid,"[(1162, 770)]",[],[1],[0.48333333333333334],horizontal,"(890.0, 762.0)",1.1166666666666667,0.442,1,5733.245,3,0.04,same
0,557,invalid_adjacent_other_bar,"[(1148, 793)]",[],[1],[0.6833333333333333],horizontal,"(890.0, 762.0)",1.3833333333333333,0.638,1,5739.113,3,0.04,other
0,558,catch,"[(1159, 791)]",[],[1],[],vertical,"(390.0, 762.0)",1.7,nan,1,5745.113,3,0.04,same
0,559,valid,"[(1179, 809)]",[],[1],[0.5833333333333334],horizontal,"(390.0, 762.0)",1.4333333333333333,0.55,1,5751.278,3,0.04,same
0,560,valid,"[(1178, 794)]",[],[1],[0.13333333333333333],vertical,"(390.0, 762.0)",1.2666666666666666,0.102,0,5757.401,0,0.04,same
0,561,catch,"[(1160, 791)]",[],[1],[],horizontal,"(390.0, 262.0)",1.7,nan,1,5762.213,1,0.04,same
0,562,catch,"[(1170, 768)]",[],[1],[],vertical,"(890.0, 262.0)",1.7,nan,1,5767.494,1,0.04,same
0,563,valid,"[(1165, 784)]",[],[1],[0.5166666666666666],horizontal,"(390.0, 262.0)",1.4333333333333333,0.484,1,5772.723,1,0.04,same
0,564,catch,"[(1162, 775)]",[],[1],[],vertical,"(390.0, 262.0)",1.7,nan,1,5777.911,2,0.04,same
0,565,valid,"[(1160, 772)]",[],[1],[0.35],horizontal,"(390.0, 762.0)",1.0,0.312,1,5783.294,2,0.04,same
0,566,valid,"[(1157, 773)]",[],[1],[0.6166666666666667],horizontal,"(890.0, 262.0)",1.3666666666666667,0.573,1,5788.379,2,0.04,same
0,567,catch,"[(1160, 763)]",[],[1],[],horizontal,"(890.0, 762.0)",1.7,nan,1,5794.428,3,0.04,same
0,568,valid,"[(1098, 803)]",[],[1],[0.6166666666666667],horizontal,"(890.0, 262.0)",0.45,0.571,1,5800.877,3,0.04,same
0,569,catch,"[(1155, 778)]",[],[1],[],vertical,"(890.0, 262.0)",1.7,nan,1,5810.108,3,0.04,same
0,570,catch,"[(1179, 782)]",[],[1],[],horizontal,"(390.0, 762.0)",1.7,nan,1,5816.01,3,0.02,same
0,571,valid,"[(1140, 781)]",[],[1],[0.4666666666666667],vertical,"(890.0, 262.0)",0.5666666666666667,0.427,1,5821.942,3,0.02,same
0,572,catch,"[(1164, 777)]",[],[1],[],vertical,"(890.0, 262.0)",1.7,nan,1,5827.211,3,0.02,same
0,573,valid,"[(1166, 776)]",[],[1],[0.5],vertical,"(390.0, 762.0)",0.75,0.456,1,5833.592,3,0.02,same
0,574,valid,"[(1163, 778)]",[],[1],[0.85],horizontal,"(890.0, 262.0)",0.55,nan,0,5839.042,0,0.02,same
0,575,valid,"[(1149, 770)]",[],[1],[0.6666666666666666],vertical,"(390.0, 762.0)",0.4166666666666667,0.626,1,5843.811,1,0.02,same
0,576,valid,"[(1163, 797)]",[],[1],[0.5666666666666667],vertical,"(890.0, 762.0)",1.0833333333333333,0.526,1,5848.627,1,0.02,same
0,577,catch,"[(1182, 772)]",[],[1],[],horizontal,"(390.0, 262.0)",1.7,nan,1,5853.875,1,0.02,same
0,578,catch,"[(1163, 794)]",[],[1],[],vertical,"(390.0, 762.0)",1.7,nan,1,5858.644,2,0.02,same
0,579,valid,"[(1173, 782)]",[],[1],[0.5666666666666667],horizontal,"(890.0, 762.0)",1.5166666666666666,0.524,1,5864.349,2,0.02,same
0,580,valid,"[(1178, 772)]",[],[1],[0.65],vertical,"(390.0, 762.0)",0.8166666666666667,0.611,1,5869.927,2,0.02,same
0,581,valid,"[(1151, 788)]",[],[1],[0.5333333333333333],horizontal,"(890.0, 762.0)",0.3833333333333333,0.492,1,5875.609,3,0.02,same
0,582,valid,"[(1160, 773)]",[],[1],[0.5333333333333333],horizontal,"(390.0, 762.0)",1.4833333333333334,0.494,1,5880.694,3,0.02,same
0,583,valid,"[(1163, 769)]",[],[1],[0.7166666666666667],horizontal,"(390.0, 762.0)",1.1,0.668,1,5886.65,3,0.02,same
0,584,valid,"[(1162, 777)]",[],[1],[0.7666666666666666],horizontal,"(890.0, 762.0)",1.25,0.712,1,5892.849,3,0.0,same
0,585,valid,"[(1160, 796)]",[],[1],[0.6],vertical,"(390.0, 262.0)",1.5,0.557,1,5898.702,3,0.0,same
0,586,valid,"[(1165, 796)]",[],[1],[0.7666666666666666],horizontal,"(390.0, 262.0)",1.15,0.737,1,5904.911,3,0.0,same
0,587,valid,"[(1153, 789)]",[],[1],[0.5333333333333333],horizontal,"(390.0, 762.0)",1.2333333333333334,0.491,1,5910.83,3,0.0,same
0,588,catch,"[(1165, 772)]",[],[1],[],vertical,"(890.0, 762.0)",1.7,nan,1,5916.911,3,0.0,same
0,589,valid,"[(1163, 771)]",[],[1],[0.5166666666666666],horizontal,"(890.0, 762.0)",0.65,0.476,1,5923.001,3,0.0,same
0,590,valid,"[(1113, 846)]",[],[1],[0.48333333333333334],vertical,"(390.0, 262.0)",0.8666666666666667,0.443,1,5928.561,3,0.0,same
0,591,invalid_adjacent_other_bar,"[(1165, 811)]",[],[1],[0.6],vertical,"(890.0, 762.0)",0.7333333333333333,0.555,1,6127.591,3,0.0,other
0,592,valid,"[(1132, 837)]",[],[1],[0.5],vertical,"(390.0, 762.0)",1.15,0.461,1,6132.926,3,0.0,same
0,593,catch,"[(1155, 806)]",[],[1],[],horizontal,"(890.0, 762.0)",,"('cti', 1.34),nan",0,6138.794,0,0.02,same
0,594,catch,"[(1127, 801)]",[],[1],[],vertical,"(890.0, 762.0)",1.7,nan,1,6143.315,1,0.02,same
0,595,valid,"[(1170, 794)]",[],[1],[0.5],horizontal,"(890.0, 762.0)",1.2166666666666666,0.461,1,6148.446,1,0.02,same
0,596,valid,"[(1135, 789)]",[],[1],[0.5333333333333333],vertical,"(390.0, 262.0)",0.7333333333333333,0.492,1,6153.845,1,0.02,same
0,597,valid,"[(1123, 808)]",[],[1],[0.85],horizontal,"(390.0, 762.0)",1.1166666666666667,nan,0,6158.702,0,0.02,same
0,598,invalid_same_bar,"[(1150, 801)]",[],[1],[0.65],horizontal,"(390.0, 262.0)",0.55,0.607,1,6163.557,1,0.02,same
0,599,valid,"[(1166, 776)]",[],[1],[0.5833333333333334],vertical,"(890.0, 762.0)",1.1,0.543,1,6168.155,1,0.02,same
0,600,invalid_adjacent_other_bar,"[(1175, 774)]",[],[1],[0.85],vertical,"(390.0, 262.0)",1.05,nan,0,6173.184,0,0.02,other
0,601,valid,"[(1165, 781)]",[],[1],[0.48333333333333334],horizontal,"(890.0, 262.0)",1.0166666666666666,0.438,1,6178.094,1,0.02,same
0,602,valid,"[(1165, 790)]",[],[1],[0.5166666666666666],vertical,"(890.0, 762.0)",0.6666666666666666,0.478,1,6183.203,1,0.02,same
0,603,valid,"[(1165, 770)]",[],[1],[0.5333333333333333],vertical,"(390.0, 262.0)",0.7333333333333333,0.494,1,6187.87,1,0.02,same
0,604,valid,"[(1165, 809)]",[],[1],[0.65],vertical,"(390.0, 762.0)",0.9333333333333333,0.61,1,6192.278,2,0.02,same
0,605,valid,"[(1165, 789)]",[],[1],[0.85],vertical,"(390.0, 262.0)",0.8333333333333334,nan,0,6198.058,0,0.02,same
0,606,valid,"[(1155, 777)]",[],[1],[0.5666666666666667],horizontal,"(390.0, 762.0)",0.7,0.523,1,6202.556,1,0.02,same
0,607,valid,"[(1166, 760)]",[],[1],[0.5166666666666666],vertical,"(890.0, 762.0)",0.85,0.475,1,6206.929,1,0.02,same
0,608,valid,"[(1137, 811)]",[],[1],[0.7],horizontal,"(390.0, 762.0)",0.7666666666666666,0.653,1,6211.833,1,0.02,same
0,609,valid,"[(1165, 807)]",[],[1],[0.7],horizontal,"(390.0, 762.0)",1.0333333333333332,0.65,1,6216.91,2,0.02,same
0,610,catch,"[(1162, 782)]",[],[1],[],vertical,"(390.0, 762.0)",1.7,nan,1,6222.886,2,0.02,same
0,611,valid,"[(1170, 763)]",[],[1],[0.23333333333333334],vertical,"(890.0, 762.0)",1.4666666666666666,0.2,1,6228.262,2,0.02,same
0,612,catch,"[(1146, 803)]",[],[1],[],vertical,"(890.0, 262.0)",1.7,nan,1,6233.962,3,0.02,same
0,613,valid,"[(1134, 786)]",[],[1],[0.5666666666666667],horizontal,"(390.0, 262.0)",0.7666666666666666,0.525,1,6240.461,3,0.02,same
0,614,valid,"[(1167, 786)]",[],[1],[0.55],vertical,"(390.0, 762.0)",1.1166666666666667,0.509,1,6246.113,3,0.02,same
0,615,valid,"[(1165, 807)]",[],[1],[0.4],vertical,"(390.0, 262.0)",1.4166666666666667,0.363,1,6251.91,3,0.02,same
0,616,catch,"[(1175, 796)]",[],[1],[],horizontal,"(890.0, 762.0)",1.7,nan,1,6258.174,3,0.02,same
0,617,valid,"[(1175, 795)]",[],[1],[0.5],vertical,"(890.0, 262.0)",1.0,0.457,1,6264.189,3,0.02,same
0,618,valid,"[(1167, 785)]",[],[1],[0.85],vertical,"(390.0, 262.0)",0.35,nan,0,6269.679,0,0.02,same
0,619,valid,"[(1099, 791)]",[],[1],[0.55],vertical,"(390.0, 262.0)",1.05,0.517,1,6274.0,1,0.02,same
0,620,valid,"[(1155, 773)]",[],[1],[0.65],vertical,"(390.0, 762.0)",1.2666666666666666,0.609,1,6279.219,1,0.02,same
0,621,valid,"[(1165, 773)]",[],[1],[0.85],vertical,"(390.0, 262.0)",1.0333333333333332,nan,0,6284.483,0,0.02,same
0,622,valid,"[(1130, 807)]",[],[1],[0.5166666666666666],horizontal,"(890.0, 762.0)",1.4333333333333333,0.479,1,6289.245,1,0.02,same
0,623,valid,"[(1165, 801)]",[],[1],[0.7166666666666667],vertical,"(890.0, 762.0)",0.8666666666666667,0.673,1,6294.778,1,0.02,same
0,624,catch,"[(1163, 802)]",[],[1],[],vertical,"(890.0, 262.0)",1.7,nan,1,6299.42,1,0.02,same
0,625,valid,"[(1175, 797)]",[],[1],[0.5333333333333333],horizontal,"(390.0, 262.0)",1.2666666666666666,0.495,1,6304.628,2,0.02,same
0,626,invalid_adjacent_other_bar,"[(1165, 789)]",[],[1],[0.5333333333333333],horizontal,"(890.0, 762.0)",0.6,0.486,1,6310.219,2,0.02,other
0,627,valid,"[(1170, 788)]",[],[1],[0.5],vertical,"(890.0, 762.0)",1.3166666666666667,0.458,1,6315.106,2,0.02,same
0,628,valid,"[(1179, 805)]",[],[1],[0.6166666666666667],horizontal,"(890.0, 262.0)",0.7166666666666667,0.57,1,6321.08,3,0.02,same
0,629,invalid_adjacent_other_bar,"[(1170, 777)]",[],[1],[0.7833333333333333],vertical,"(890.0, 762.0)",0.95,0.742,1,6327.026,3,0.02,other
0,630,valid,"[(1177, 773)]",[],[1],[0.5],vertical,"(890.0, 262.0)",0.5333333333333333,0.463,1,6333.009,3,0.02,same
0,631,valid,"[(1164, 786)]",[],[1],[0.5],horizontal,"(390.0, 262.0)",0.4,0.459,1,6337.971,3,0.02,same
0,632,catch,"[(1161, 789)]",[],[1],[],horizontal,"(890.0, 762.0)",1.7,nan,1,6342.849,3,0.02,same
0,633,valid,"[(1185, 796)]",[],[1],[0.55],vertical,"(390.0, 762.0)",0.5833333333333334,0.509,1,6348.895,3,0.02,same
0,634,catch,"[(1163, 786)]",[],[1],[],horizontal,"(390.0, 262.0)",1.7,nan,1,6354.053,3,0.02,same
0,635,valid,"[(1160, 772)]",[],[1],[0.55],vertical,"(390.0, 262.0)",1.2166666666666666,0.509,1,6359.778,3,0.02,same
0,636,valid,"[(1174, 778)]",[],[1],[0.5166666666666666],horizontal,"(890.0, 762.0)",0.5166666666666666,0.476,1,6365.483,3,0.02,same
0,637,valid,"[(1165, 777)]",[],[1],[0.5833333333333334],horizontal,"(390.0, 262.0)",0.3833333333333333,0.548,1,6370.828,3,0.02,same
0,638,valid,"[(1165, 794)]",[],[1],[0.85],vertical,"(390.0, 262.0)",1.0666666666666667,nan,0,6375.877,0,0.02,same
0,639,catch,"[(1139, 811)]",[],[1],[],vertical,"(890.0, 762.0)",1.7,nan,1,6380.597,1,0.02,same
0,640,valid,"[(1163, 795)]",[],[1],[0.5333333333333333],horizontal,"(890.0, 762.0)",0.4666666666666667,0.495,1,6385.995,1,0.02,same
0,641,valid,"[(1165, 796)]",[],[1],[0.48333333333333334],horizontal,"(890.0, 762.0)",0.8833333333333333,0.444,1,6390.386,1,0.02,same
0,642,valid,"[(1135, 796)]",[],[1],[0.5333333333333333],vertical,"(390.0, 262.0)",1.2833333333333332,0.488,1,6395.281,2,0.02,same
0,643,invalid_same_bar,"[(1163, 777)]",[],[1],[0.26666666666666666],vertical,"(390.0, 762.0)",1.4833333333333334,0.226,1,6400.729,2,0.0,same
0,644,catch,"[(1165, 770)]",[],[1],[],horizontal,"(890.0, 262.0)",1.7,nan,1,6406.512,2,0.0,same
0,645,valid,"[(1160, 786)]",[],[1],[0.85],vertical,"(890.0, 762.0)",1.4,nan,0,6412.261,0,0.0,same
0,646,catch,"[(1131, 787)]",[],[1],[],vertical,"(390.0, 762.0)",1.7,nan,1,6417.662,1,0.0,same
0,647,valid,"[(1165, 778)]",[],[1],[0.5166666666666666],horizontal,"(890.0, 262.0)",0.6166666666666667,0.473,1,6423.151,1,0.0,same
0,648,valid,"[(1180, 797)]",[],[1],[0.5666666666666667],vertical,"(390.0, 262.0)",0.4666666666666667,0.529,1,6428.135,1,0.0,same
0,649,catch,"[(1161, 792)]",[],[1],[],vertical,"(390.0, 762.0)",1.7,nan,1,6432.953,2,0.0,same
0,650,valid,"[(1175, 798)]",[],[1],[0.4666666666666667],horizontal,"(890.0, 262.0)",0.9666666666666667,0.428,1,6438.395,2,0.0,same
0,651,valid,"[(1161, 808)]",[],[1],[0.55],horizontal,"(890.0, 762.0)",0.35,0.513,1,6443.595,2,0.0,same
0,652,invalid_same_bar,"[(1165, 796)]",[],[1],[0.5],vertical,"(390.0, 762.0)",0.9166666666666666,0.455,1,6448.449,3,0.0,same
0,653,valid,"[(1139, 771)]",[],[1],[0.5],vertical,"(890.0, 762.0)",0.7333333333333333,0.458,1,6453.78,3,0.0,same
0,654,valid,"[(1160, 782)]",[],[1],[0.5833333333333334],horizontal,"(390.0, 262.0)",0.4666666666666667,0.549,1,6459.113,3,0.0,same
0,655,valid,"[(1125, 824)]",[],[1],[0.5666666666666667],vertical,"(390.0, 262.0)",0.5,0.525,1,6464.279,3,0.0,same
0,656,valid,"[(1175, 801)]",[],[1],[0.85],vertical,"(390.0, 262.0)",1.4666666666666666,nan,0,6469.84,0,0.0,same
0,657,catch,"[(1121, 808)]",[],[1],[],vertical,"(390.0, 762.0)",1.7,nan,1,6474.695,1,0.0,same
0,658,valid,"[(1160, 791)]",[],[1],[0.5166666666666666],vertical,"(890.0, 762.0)",1.3333333333333333,0.476,1,6480.229,1,0.0,same
0,659,valid,"[(1162, 784)]",[],[1],[0.6],horizontal,"(390.0, 762.0)",0.7333333333333333,0.558,1,6485.524,1,0.0,same
0,660,valid,"[(1165, 798)]",[],[1],[0.5333333333333333],horizontal,"(890.0, 762.0)",1.0166666666666666,0.494,1,6489.998,2,0.0,same
0,661,valid,"[(1170, 791)]",[],[1],[0.5],vertical,"(390.0, 262.0)",0.7166666666666667,0.466,1,6495.479,2,0.0,same
0,662,valid,"[(1168, 804)]",[],[1],[0.48333333333333334],horizontal,"(390.0, 762.0)",0.85,0.442,1,6500.211,2,0.0,same
0,663,valid,"[(1132, 796)]",[],[1],[0.7333333333333333],horizontal,"(390.0, 762.0)",0.8,0.697,1,6505.42,3,0.0,same
0,664,valid,"[(1165, 785)]",[],[1],[0.5833333333333334],horizontal,"(390.0, 762.0)",1.05,0.539,1,6511.497,3,0.0,same
0,665,valid,"[(1183, 790)]",[],[1],[0.5166666666666666],vertical,"(390.0, 762.0)",0.5333333333333333,0.477,1,6517.063,3,0.0,same
0,666,valid,"[(1181, 802)]",[],[1],[0.55],vertical,"(390.0, 262.0)",0.95,0.51,1,6522.145,3,0.0,same
0,667,catch,"[(1165, 790)]",[],[1],[],vertical,"(890.0, 762.0)",1.7,nan,1,6527.852,3,0.0,same
0,668,valid,"[(1135, 784)]",[],[1],[0.4666666666666667],vertical,"(890.0, 262.0)",1.05,0.428,1,6534.013,3,0.0,same
0,669,valid,"[(1177, 797)]",[],[1],[0.5],vertical,"(890.0, 762.0)",0.8333333333333334,0.457,1,6539.88,3,0.0,same
0,670,valid,"[(1165, 802)]",[],[1],[0.6666666666666666],horizontal,"(890.0, 762.0)",1.0,0.625,1,6545.345,3,0.0,same
0,671,valid,"[(1165, 777)]",[],[1],[0.48333333333333334],horizontal,"(890.0, 762.0)",0.5666666666666667,0.448,1,6551.33,3,0.0,same
0,672,valid,"[(1172, 778)]",[],[1],[0.5166666666666666],vertical,"(890.0, 262.0)",0.5666666666666667,0.48,1,6556.729,3,0.0,same
0,673,catch,"[(1165, 815)]",[],[1],[],vertical,"(390.0, 262.0)",1.7,nan,1,6561.913,3,0.0,same
0,674,valid,"[(1128, 821)]",[],[1],[0.5166666666666666],horizontal,"(390.0, 262.0)",1.1,0.482,1,6568.113,3,0.0,same
0,675,catch,"[(1163, 806)]",[],[1],[],horizontal,"(390.0, 762.0)",1.7,nan,1,6574.178,3,0.0,same
0,676,invalid_same_bar,"[(1164, 800)]",[],[1],[0.23333333333333334],vertical,"(890.0, 762.0)",1.4333333333333333,0.2,1,6580.437,3,0.0,same
0,677,valid,"[(1166, 769)]",[],[1],[0.5833333333333334],vertical,"(890.0, 762.0)",0.95,0.55,1,6586.613,3,0.0,same
0,678,catch,"[(1165, 780)]",[],[1],[],horizontal,"(890.0, 762.0)",1.7,nan,1,6592.48,3,0.0,same
0,679,catch,"[(1174, 784)]",[],[1],[],horizontal,"(390.0, 262.0)",1.7,nan,1,6598.413,3,0.0,same
0,680,valid,"[(1180, 785)]",[],[1],[0.4166666666666667],vertical,"(390.0, 262.0)",1.3,0.383,1,6604.229,3,0.0,same
0,681,valid,"[(1165, 798)]",[],[1],[0.5],horizontal,"(890.0, 262.0)",0.43333333333333335,0.462,1,6610.237,3,0.0,same
0,682,catch,"[(1170, 773)]",[],[1],[],horizontal,"(390.0, 262.0)",,"('cti', 1.507),nan",0,6615.376,0,0.02,same
0,683,catch,"[(1135, 796)]",[],[1],[],horizontal,"(890.0, 262.0)",,"('cti', 0.979),nan",0,6619.962,0,0.04,same
0,684,valid,"[(1162, 800)]",[],[1],[0.3333333333333333],vertical,"(890.0, 262.0)",0.9333333333333333,0.301,1,6623.846,1,0.04,same
0,685,invalid_same_bar,"[(1178, 786)]",[],[1],[0.85],horizontal,"(390.0, 762.0)",0.36666666666666664,nan,0,6629.063,0,0.04,same
0,686,valid,"[(1148, 792)]",[],[1],[0.5333333333333333],horizontal,"(890.0, 262.0)",0.45,0.498,1,6633.481,1,0.04,same
0,687,valid,"[(1175, 781)]",[],[1],[0.4666666666666667],horizontal,"(390.0, 762.0)",1.5,0.425,1,6638.366,1,0.04,same
0,688,valid,"[(1155, 777)]",[],[1],[0.5166666666666666],vertical,"(390.0, 762.0)",0.6,0.48,1,6643.914,1,0.04,same
0,689,valid,"[(1162, 789)]",[],[1],[0.5833333333333334],horizontal,"(390.0, 262.0)",1.4333333333333333,0.546,1,6648.347,2,0.04,same
0,690,catch,"[(1180, 798)]",[],[1],[],horizontal,"(390.0, 262.0)",1.7,nan,1,6654.358,2,0.04,same
0,691,valid,"[(1165, 809)]",[],[1],[0.4666666666666667],vertical,"(890.0, 762.0)",1.45,0.432,1,6659.907,2,0.04,same
0,692,valid,"[(1168, 798)]",[],[1],[0.5333333333333333],vertical,"(890.0, 762.0)",1.0,0.497,1,6665.929,3,0.04,same
0,693,valid,"[(1135, 791)]",[],[1],[0.5833333333333334],vertical,"(890.0, 762.0)",1.0333333333333332,0.545,1,6672.174,3,0.04,same
0,694,valid,"[(1176, 790)]",[],[1],[0.5833333333333334],vertical,"(390.0, 762.0)",0.9833333333333333,0.552,1,6677.98,3,0.04,same
0,695,catch,"[(1165, 782)]",[],[1],[],horizontal,"(390.0, 262.0)",1.7,nan,1,6684.014,3,0.04,same
0,696,valid,"[(1162, 791)]",[],[1],[0.6],vertical,"(390.0, 762.0)",0.5333333333333333,0.56,1,6690.234,3,0.04,same
0,697,invalid_adjacent_other_bar,"[(1165, 773)]",[],[1],[0.5],horizontal,"(890.0, 262.0)",0.35,0.463,1,6695.933,3,0.04,other
0,698,valid,"[(1160, 829)]",[],[1],[0.5166666666666666],horizontal,"(390.0, 262.0)",0.6,0.478,1,6700.855,3,0.04,same
0,699,valid,"[(1168, 772)]",[],[1],[0.85],horizontal,"(890.0, 762.0)",1.3333333333333333,nan,0,6706.096,0,0.04,same
0,700,valid,"[(1130, 780)]",[],[1],[0.5833333333333334],vertical,"(890.0, 762.0)",0.45,0.54,1,6711.468,1,0.04,same
0,701,valid,"[(1175, 794)]",[],[1],[0.5166666666666666],horizontal,"(390.0, 262.0)",1.3833333333333333,0.475,1,6716.267,1,0.04,same
0,702,valid,"[(1164, 807)]",[],[1],[0.48333333333333334],vertical,"(890.0, 262.0)",0.8,0.444,1,6721.664,1,0.04,same
0,703,valid,"[(1163, 773)]",[],[1],[0.5333333333333333],horizontal,"(390.0, 762.0)",0.5833333333333334,0.497,1,6725.818,2,0.04,same
0,704,catch,"[(1161, 778)]",[],[1],[],horizontal,"(890.0, 762.0)",1.7,nan,1,6730.778,2,0.04,same
0,705,valid,"[(1173, 795)]",[],[1],[0.6166666666666667],horizontal,"(390.0, 262.0)",0.8,0.578,1,6736.635,2,0.04,same
0,706,valid,"[(1137, 775)]",[],[1],[0.6333333333333333],vertical,"(390.0, 762.0)",0.7,0.594,1,6741.632,3,0.04,same
0,707,valid,"[(1141, 777)]",[],[1],[0.5833333333333334],horizontal,"(390.0, 262.0)",0.7333333333333333,0.546,1,6747.666,3,0.04,same
0,708,valid,"[(1167, 773)]",[],[1],[0.5666666666666667],vertical,"(890.0, 262.0)",1.0833333333333333,0.525,1,6753.478,3,0.04,same
0,709,valid,"[(1145, 773)]",[],[1],[0.85],horizontal,"(390.0, 762.0)",1.2666666666666666,nan,0,6758.879,0,0.04,same
0,710,valid,"[(1118, 782)]",[],[1],[0.5833333333333334],horizontal,"(390.0, 762.0)",1.3,0.538,1,6763.663,1,0.04,same
0,711,catch,"[(1165, 796)]",[],[1],[],horizontal,"(890.0, 762.0)",1.7,nan,1,6769.072,1,0.04,same
0,712,valid,"[(1167, 782)]",[],[1],[0.6333333333333333],horizontal,"(890.0, 762.0)",0.7333333333333333,0.59,1,6774.016,1,0.04,same
0,713,catch,"[(1170, 779)]",[],[1],[],horizontal,"(390.0, 262.0)",1.7,nan,1,6779.129,2,0.04,same
0,714,valid,"[(1165, 783)]",[],[1],[0.65],vertical,"(390.0, 262.0)",0.5166666666666666,0.612,1,6784.945,2,0.04,same
0,715,valid,"[(1163, 783)]",[],[1],[0.13333333333333333],horizontal,"(390.0, 762.0)",1.5166666666666666,0.101,0,6789.703,0,0.04,same
0,716,valid,"[(1087, 810)]",[],[1],[0.5],vertical,"(390.0, 262.0)",0.43333333333333335,0.464,1,6794.697,1,0.04,same
0,717,valid,"[(1179, 830)]",[],[1],[0.5166666666666666],horizontal,"(890.0, 262.0)",0.43333333333333335,0.478,1,6800.172,1,0.04,same
0,718,valid,"[(1169, 781)]",[],[1],[0.5],horizontal,"(390.0, 262.0)",1.5333333333333332,0.462,1,6804.845,1,0.04,same
0,719,valid,"[(1165, 781)]",[],[1],[0.7],horizontal,"(390.0, 262.0)",1.3166666666666667,0.66,1,6810.682,2,0.04,same
0,720,catch,"[(1175, 777)]",[],[1],[],horizontal,"(390.0, 762.0)",1.7,nan,1,6816.064,2,0.04,same
0,721,valid,"[(1165, 774)]",[],[1],[0.5166666666666666],horizontal,"(890.0, 762.0)",1.5166666666666666,0.481,1,6821.331,2,0.04,same
0,722,catch,"[(1165, 795)]",[],[1],[],vertical,"(390.0, 262.0)",1.7,nan,1,6826.896,3,0.04,same
0,723,valid,"[(1163, 779)]",[],[1],[0.5],horizontal,"(890.0, 762.0)",1.0833333333333333,0.459,1,6833.566,3,0.04,same
0,724,valid,"[(1169, 787)]",[],[1],[0.85],vertical,"(890.0, 262.0)",1.15,nan,0,6839.13,0,0.04,same
0,725,catch,"[(1119, 782)]",[],[1],[],vertical,"(390.0, 262.0)",1.7,nan,1,6843.762,1,0.04,same
0,726,valid,"[(1163, 812)]",[],[1],[0.48333333333333334],vertical,"(890.0, 762.0)",0.9333333333333333,0.441,1,6849.16,1,0.04,same
0,727,valid,"[(1169, 772)]",[],[1],[0.55],vertical,"(890.0, 262.0)",1.2166666666666666,0.511,1,6854.317,1,0.04,same
0,728,invalid_same_bar,"[(1167, 795)]",[],[1],[0.5],horizontal,"(890.0, 762.0)",1.2,0.457,1,6859.895,2,0.04,same
0,729,valid,"[(1163, 785)]",[],[1],[0.85],vertical,"(390.0, 762.0)",0.7666666666666666,nan,0,6865.647,0,0.04,same
0,730,valid,"[(1140, 783)]",[],[1],[0.5333333333333333],vertical,"(890.0, 762.0)",1.3666666666666667,0.492,1,6870.457,1,0.04,same
0,731,valid,"[(1160, 790)]",[],[1],[0.5666666666666667],horizontal,"(890.0, 762.0)",0.7,0.526,1,6876.031,1,0.04,same
0,732,valid,"[(1165, 782)]",[],[1],[0.43333333333333335],vertical,"(390.0, 262.0)",0.9333333333333333,0.395,1,6880.68,1,0.02,same
0,733,catch,"[(1155, 786)]",[],[1],[],horizontal,"(390.0, 762.0)",1.7,nan,1,6885.854,2,0.0,same
0,734,valid,"[(1180, 792)]",[],[1],[0.55],vertical,"(890.0, 262.0)",0.8166666666666667,0.51,1,6891.431,2,0.0,same
0,735,catch,"[(1170, 772)]",[],[1],[],horizontal,"(390.0, 762.0)",1.7,nan,1,6896.29,2,0.0,same
0,736,catch,"[(1165, 786)]",[],[1],[],horizontal,"(890.0, 762.0)",1.7,nan,1,6901.597,3,0.0,same
0,737,valid,"[(1165, 766)]",[],[1],[0.5166666666666666],vertical,"(890.0, 262.0)",0.4166666666666667,0.48,1,6907.83,3,0.0,same
0,738,valid,"[(1165, 770)]",[],[1],[0.5166666666666666],horizontal,"(390.0, 762.0)",0.7666666666666666,0.475,1,6912.813,3,0.0,same
0,739,valid,"[(1163, 773)]",[],[1],[0.16666666666666666],vertical,"(390.0, 762.0)",1.5,0.136,0,6918.328,0,0.0,same
0,740,valid,"[(1136, 801)]",[],[1],[0.7166666666666667],vertical,"(390.0, 762.0)",1.0833333333333333,0.674,1,6923.322,1,0.0,same
0,741,valid,"[(1165, 791)]",[],[1],[0.48333333333333334],vertical,"(390.0, 262.0)",0.8166666666666667,0.44,1,6928.417,1,0.0,same
0,742,valid,"[(1160, 805)]",[],[1],[0.5166666666666666],vertical,"(390.0, 762.0)",1.2166666666666666,0.477,1,6933.198,1,0.0,same
0,743,valid,"[(1174, 786)]",[],[1],[0.5166666666666666],horizontal,"(890.0, 762.0)",1.0166666666666666,0.48,1,6938.436,2,0.0,same
0,744,valid,"[(1158, 770)]",[],[1],[0.5666666666666667],horizontal,"(890.0, 262.0)",0.9666666666666667,0.525,1,6943.777,2,0.0,same
0,745,catch,"[(1171, 778)]",[],[1],[],vertical,"(890.0, 762.0)",,"('cti', 1.083),nan",0,6949.381,0,0.02,same
0,746,valid,"[(1162, 784)]",[],[1],[0.5333333333333333],horizontal,"(390.0, 262.0)",1.4833333333333334,0.5,1,6953.931,1,0.02,same
0,747,valid,"[(1165, 791)]",[],[1],[0.43333333333333335],horizontal,"(890.0, 262.0)",0.8,0.396,1,6959.181,1,0.02,same
0,748,catch,"[(1155, 780)]",[],[1],[],horizontal,"(390.0, 262.0)",1.7,nan,1,6964.114,1,0.02,same
0,749,valid,"[(1090, 801)]",[],[1],[0.5],horizontal,"(390.0, 762.0)",0.5333333333333333,0.458,1,6969.014,2,0.02,same
0,750,valid,"[(1179, 784)]",[],[1],[0.5166666666666666],vertical,"(890.0, 262.0)",0.6333333333333333,0.479,1,6976.162,2,0.02,same
0,751,invalid_adjacent_other_bar,"[(1160, 772)]",[],[1],[0.6],vertical,"(890.0, 762.0)",0.4666666666666667,0.558,1,6981.093,2,0.02,other
0,752,valid,"[(1160, 806)]",[],[1],[0.85],horizontal,"(390.0, 762.0)",1.05,nan,0,6986.006,0,0.02,same
0,753,valid,"[(1137, 785)]",[],[1],[0.5],vertical,"(390.0, 262.0)",1.3666666666666667,0.464,1,6991.231,1,0.02,same
0,754,valid,"[(1155, 783)]",[],[1],[0.23333333333333334],vertical,"(390.0, 262.0)",1.3333333333333333,0.199,0,6996.331,0,0.02,same
0,755,valid,"[(1138, 797)]",[],[1],[0.5333333333333333],horizontal,"(890.0, 762.0)",0.8,0.491,1,7000.999,1,0.02,same
0,756,valid,"[(1160, 805)]",[],[1],[0.5166666666666666],vertical,"(890.0, 262.0)",1.3666666666666667,0.472,1,7005.867,1,0.02,same
0,757,invalid_same_bar,"[(1160, 781)]",[],[1],[0.7666666666666666],horizontal,"(390.0, 762.0)",0.7333333333333333,0.726,1,7010.954,1,0.02,same
0,758,catch,"[(1148, 790)]",[],[1],[],horizontal,"(390.0, 762.0)",1.7,nan,1,7015.987,2,0.02,same
0,759,catch,"[(1135, 779)]",[],[1],[],vertical,"(390.0, 762.0)",1.7,nan,1,7021.837,2,0.02,same
0,760,valid,"[(1162, 787)]",[],[1],[0.5166666666666666],horizontal,"(890.0, 262.0)",0.9333333333333333,0.484,1,7027.614,2,0.02,same
0,761,valid,"[(1141, 809)]",[],[1],[0.5333333333333333],horizontal,"(390.0, 262.0)",1.25,0.495,1,7033.147,3,0.02,same
0,762,valid,"[(1126, 806)]",[],[1],[0.5666666666666667],horizontal,"(390.0, 262.0)",1.5333333333333332,0.525,1,7039.132,3,0.02,same
0,763,valid,"[(1180, 780)]",[],[1],[0.5333333333333333],vertical,"(890.0, 262.0)",0.65,0.492,1,7045.573,3,0.02,same
0,764,valid,"[(1175, 774)]",[],[1],[0.5666666666666667],horizontal,"(890.0, 762.0)",1.35,0.521,1,7050.864,3,0.02,same
0,765,valid,"[(1169, 772)]",[],[1],[0.45],horizontal,"(390.0, 762.0)",1.4666666666666666,0.407,1,7056.881,3,0.02,same
0,766,valid,"[(1161, 791)]",[],[1],[0.85],vertical,"(390.0, 262.0)",0.7333333333333333,nan,0,7063.148,0,0.02,same
0,767,catch,"[(1133, 782)]",[],[1],[],horizontal,"(890.0, 762.0)",1.7,nan,1,7067.531,1,0.02,same
0,768,valid,"[(1160, 786)]",[],[1],[0.6166666666666667],horizontal,"(390.0, 762.0)",1.4333333333333333,0.568,1,7072.714,1,0.02,same
0,769,valid,"[(1163, 782)]",[],[1],[0.5],vertical,"(390.0, 762.0)",0.6333333333333333,0.461,1,7078.318,1,0.02,same
0,770,valid,"[(1168, 776)]",[],[1],[0.48333333333333334],vertical,"(390.0, 762.0)",0.3833333333333333,0.442,1,7083.153,2,0.02,same
0,771,invalid_same_bar,"[(1155, 756)]",[],[1],[0.85],horizontal,"(890.0, 762.0)",0.4666666666666667,nan,0,7087.647,0,0.02,same
0,772,invalid_same_bar,"[(1103, 808)]",[],[1],[0.3],vertical,"(890.0, 262.0)",1.45,0.262,1,7092.034,1,0.02,same
0,773,valid,"[(1138, 780)]",[],[1],[0.6333333333333333],horizontal,"(890.0, 262.0)",0.6666666666666666,0.591,1,7135.658,1,0.02,same
0,774,valid,"[(1165, 798)]",[],[1],[0.5],vertical,"(890.0, 262.0)",0.5666666666666667,0.457,1,7140.458,1,0.02,same
0,775,catch,"[(1178, 763)]",[],[1],[],vertical,"(890.0, 762.0)",1.7,nan,1,7144.997,2,0.02,same
0,776,valid,"[(1164, 799)]",[],[1],[0.5833333333333334],vertical,"(390.0, 762.0)",0.35,0.537,1,7150.981,2,0.02,same
0,777,catch,"[(1160, 798)]",[],[1],[],horizontal,"(390.0, 762.0)",,"('cti', 1.497),nan",0,7155.546,0,0.04,same
0,778,valid,"[(1135, 796)]",[],[1],[0.5833333333333334],vertical,"(390.0, 762.0)",0.45,0.54,1,7160.198,1,0.04,same
0,779,invalid_adjacent_other_bar,"[(1124, 820)]",[],[1],[0.6],vertical,"(390.0, 762.0)",1.4,0.555,1,7164.648,1,0.04,other
0,780,invalid_same_bar,"[(1152, 792)]",[],[1],[0.55],horizontal,"(890.0, 262.0)",1.5333333333333332,0.505,1,7170.436,1,0.04,same
0,781,valid,"[(1135, 806)]",[],[1],[0.5833333333333334],horizontal,"(390.0, 762.0)",0.7666666666666666,0.544,1,7175.334,2,0.04,same
0,782,valid,"[(1155, 776)]",[],[1],[0.85],vertical,"(390.0, 762.0)",0.7833333333333333,nan,0,7180.597,0,0.04,same
0,783,valid,"[(1155, 761)]",[],[1],[0.4666666666666667],horizontal,"(390.0, 262.0)",0.7833333333333333,0.425,1,7184.912,1,0.04,same
0,784,invalid_same_bar,"[(1167, 778)]",[],[1],[0.45],horizontal,"(390.0, 262.0)",1.3833333333333333,0.411,1,7189.94,1,0.04,same
0,785,valid,"[(1169, 776)]",[],[1],[0.65],vertical,"(390.0, 262.0)",1.3833333333333333,0.605,1,7195.522,1,0.04,same
0,786,valid,"[(1164, 803)]",[],[1],[0.6166666666666667],vertical,"(390.0, 262.0)",1.0,0.564,1,7201.088,2,0.04,same
0,787,catch,"[(1163, 799)]",[],[1],[],vertical,"(390.0, 762.0)",1.7,nan,1,7206.514,2,0.04,same
0,788,valid,"[(1165, 771)]",[],[1],[0.5666666666666667],vertical,"(390.0, 762.0)",0.9833333333333333,0.522,1,7212.181,2,0.04,same
0,789,valid,"[(1165, 785)]",[],[1],[0.5166666666666666],vertical,"(890.0, 762.0)",1.5166666666666666,0.476,1,7217.677,3,0.04,same
0,790,catch,"[(1179, 799)]",[],[1],[],horizontal,"(890.0, 762.0)",1.7,nan,1,7223.798,3,0.04,same
0,791,invalid_same_bar,"[(1165, 803)]",[],[1],[0.85],vertical,"(890.0, 762.0)",1.0,nan,0,7229.507,0,0.04,same
0,792,valid,"[(1117, 806)]",[],[1],[0.48333333333333334],vertical,"(390.0, 762.0)",0.6333333333333333,0.444,1,7234.281,1,0.04,same
0,793,valid,"[(1163, 802)]",[],[1],[0.6333333333333333],horizontal,"(390.0, 262.0)",0.8333333333333334,0.602,1,7239.035,1,0.04,same
0,794,catch,"[(1166, 789)]",[],[1],[],vertical,"(890.0, 762.0)",1.7,nan,1,7244.174,1,0.04,same
0,795,valid,"[(1160, 775)]",[],[1],[0.4666666666666667],horizontal,"(890.0, 262.0)",1.45,0.43,1,7249.431,2,0.02,same
0,796,invalid_adjacent_other_bar,"[(1160, 778)]",[],[1],[0.5333333333333333],horizontal,"(890.0, 762.0)",0.85,0.488,1,7255.114,2,0.02,other
0,797,valid,"[(1165, 794)]",[],[1],[0.3333333333333333],horizontal,"(890.0, 262.0)",1.5166666666666666,0.298,1,7260.564,2,0.02,same
0,798,valid,"[(1143, 786)]",[],[1],[0.5333333333333333],vertical,"(890.0, 262.0)",0.5833333333333334,0.49,1,7266.182,3,0.02,same
0,799,catch,"[(1152, 800)]",[],[1],[],vertical,"(390.0, 762.0)",1.7,nan,1,7271.914,3,0.02,same
0,800,valid,"[(1170, 779)]",[],[1],[0.85],vertical,"(390.0, 262.0)",0.4166666666666667,nan,0,7278.232,0,0.02,same
0,801,catch,"[(1132, 787)]",[],[1],[],vertical,"(390.0, 762.0)",1.7,nan,1,7282.424,1,0.02,same
0,802,catch,"[(1121, 812)]",[],[1],[],vertical,"(890.0, 262.0)",1.7,nan,1,7287.385,1,0.02,same
0,803,catch,"[(1180, 796)]",[],[1],[],vertical,"(390.0, 262.0)",1.7,nan,1,7292.474,1,0.02,same
0,804,invalid_adjacent_other_bar,"[(1168, 776)]",[],[1],[0.5],vertical,"(390.0, 762.0)",0.95,0.461,1,7297.689,2,0.02,other
0,805,valid,"[(1156, 778)]",[],[1],[0.6],horizontal,"(890.0, 762.0)",0.4,0.556,1,7303.182,2,0.02,same
0,806,catch,"[(1135, 796)]",[],[1],[],vertical,"(390.0, 262.0)",1.7,nan,1,7308.098,2,0.02,same
0,807,catch,"[(1152, 793)]",[],[1],[],vertical,"(390.0, 762.0)",1.7,nan,1,7313.816,3,0.02,same
0,808,valid,"[(1165, 792)]",[],[1],[0.5],horizontal,"(390.0, 762.0)",0.5833333333333334,0.459,1,7319.765,3,0.02,same
0,809,catch,"[(1164, 776)]",[],[1],[],horizontal,"(890.0, 262.0)",1.7,nan,1,7324.748,3,0.02,same
0,810,valid,"[(1150, 766)]",[],[1],[0.65],vertical,"(390.0, 262.0)",0.5,0.611,1,7330.982,3,0.02,same
0,811,invalid_adjacent_other_bar,"[(1172, 772)]",[],[1],[0.5],horizontal,"(890.0, 762.0)",1.1333333333333333,0.459,1,7336.673,3,0.02,other
0,812,valid,"[(1163, 772)]",[],[1],[0.6166666666666667],horizontal,"(890.0, 762.0)",0.45,0.573,1,7342.463,3,0.02,same
0,813,valid,"[(1171, 781)]",[],[1],[0.6333333333333333],horizontal,"(890.0, 262.0)",1.4333333333333333,0.593,1,7347.779,3,0.02,same
0,814,valid,"[(1135, 783)]",[],[1],[0.85],horizontal,"(390.0, 762.0)",0.6333333333333333,nan,0,7354.238,0,0.02,same
0,815,valid,"[(1130, 790)]",[],[1],[0.5666666666666667],vertical,"(890.0, 762.0)",0.36666666666666664,0.521,1,7358.514,1,0.02,same
0,816,valid,"[(1137, 801)]",[],[1],[0.85],vertical,"(390.0, 762.0)",1.0166666666666666,nan,0,7363.597,0,0.02,same
0,817,valid,"[(1135, 776)]",[],[1],[0.6],horizontal,"(890.0, 262.0)",1.1666666666666667,0.561,1,7368.765,1,0.02,same
0,818,valid,"[(1175, 796)]",[],[1],[0.5333333333333333],vertical,"(890.0, 262.0)",0.36666666666666664,0.494,1,7373.911,1,0.02,same
0,819,invalid_adjacent_other_bar,"[(1160, 780)]",[],[1],[0.85],vertical,"(390.0, 762.0)",0.7666666666666666,nan,0,7377.849,0,0.02,other
0,820,catch,"[(1125, 800)]",[],[1],[],vertical,"(890.0, 262.0)",1.7,nan,1,7382.449,1,0.02,same
0,821,catch,"[(1060, 822)]",[],[1],[],vertical,"(890.0, 262.0)",1.7,nan,1,7387.806,1,0.02,same
0,822,invalid_adjacent_other_bar,"[(1145, 806)]",[],[1],[0.5333333333333333],horizontal,"(390.0, 762.0)",0.9666666666666667,0.497,1,7475.982,1,0.02,other
0,823,valid,"[(1137, 800)]",[],[1],[0.4666666666666667],vertical,"(390.0, 262.0)",0.5,0.428,1,7480.786,2,0.02,same
0,824,valid,"[(1155, 791)]",[],[1],[0.7833333333333333],vertical,"(390.0, 762.0)",0.6333333333333333,0.733,1,7486.014,2,0.02,same
0,825,valid,"[(1174, 796)]",[],[1],[0.85],horizontal,"(390.0, 262.0)",0.7166666666666667,nan,0,7491.532,0,0.02,same
0,826,catch,"[(1115, 843)]",[],[1],[],horizontal,"(390.0, 762.0)",,"('cti', 0.434),nan",0,7495.849,0,0.04,same
0,827,valid,"[(1161, 799)]",[],[1],[],horizontal,"(390.0, 262.0)",,"('fix', 0.214)",0,7502.399,0,0.02,same
0,828,valid,"[(1115, 800)]",[],[1],[0.48333333333333334],vertical,"(890.0, 262.0)",1.1166666666666667,0.441,1,7503.922,1,0.02,same
0,829,valid,"[(1142, 806)]",[],[1],[0.6],vertical,"(390.0, 762.0)",0.8,0.561,1,7509.328,1,0.02,same
0,830,valid,"[(1179, 801)]",[],[1],[0.5666666666666667],vertical,"(390.0, 262.0)",1.0333333333333332,0.526,1,7514.748,1,0.02,same
0,831,catch,"[(1170, 775)]",[],[1],[],horizontal,"(390.0, 262.0)",1.7,nan,1,7519.881,2,0.02,same
0,832,valid,"[(1160, 783)]",[],[1],[0.4666666666666667],horizontal,"(890.0, 262.0)",0.95,0.434,1,7525.349,2,0.02,same
0,833,valid,"[(1134, 816)]",[],[1],[0.6833333333333333],horizontal,"(390.0, 762.0)",1.4666666666666666,0.643,1,7530.881,2,0.02,same
0,834,invalid_same_bar,"[(1180, 782)]",[],[1],[0.5666666666666667],vertical,"(890.0, 262.0)",0.5,0.525,1,7537.316,3,0.02,same
0,835,valid,"[(1165, 773)]",[],[1],[0.4666666666666667],vertical,"(390.0, 262.0)",0.9666666666666667,0.43,1,7543.353,3,0.02,same
0,836,catch,"[(1178, 779)]",[],[1],[],vertical,"(390.0, 262.0)",1.7,nan,1,7548.981,3,0.02,same
0,837,valid,"[(1165, 785)]",[],[1],[0.6166666666666667],vertical,"(890.0, 262.0)",0.4666666666666667,0.575,1,7554.981,3,0.02,same
0,838,catch,"[(1162, 789)]",[],[1],[],vertical,"(390.0, 262.0)",1.7,nan,1,7560.585,3,0.02,same
0,839,valid,"[(1135, 773)]",[],[1],[0.85],vertical,"(390.0, 262.0)",0.45,nan,0,7566.847,0,0.02,same
0,840,valid,"[(1137, 776)]",[],[1],[0.5833333333333334],horizontal,"(390.0, 762.0)",1.1333333333333333,0.541,1,7571.333,1,0.02,same
0,841,catch,"[(1162, 782)]",[],[1],[],vertical,"(390.0, 262.0)",1.7,nan,1,7576.7,1,0.02,same
0,842,valid,"[(1175, 768)]",[],[1],[0.5666666666666667],vertical,"(390.0, 762.0)",1.0666666666666667,0.528,1,7581.682,1,0.02,same
0,843,catch,"[(1165, 777)]",[],[1],[],vertical,"(890.0, 262.0)",1.7,nan,1,7586.699,2,0.02,same
0,844,invalid_adjacent_other_bar,"[(1137, 803)]",[],[1],[0.85],vertical,"(890.0, 762.0)",0.9333333333333333,nan,0,7592.715,0,0.02,other
0,845,catch,"[(1136, 786)]",[],[1],[],horizontal,"(890.0, 262.0)",1.7,nan,1,7597.358,1,0.02,same
0,846,valid,"[(1162, 772)]",[],[1],[0.5],horizontal,"(390.0, 262.0)",0.65,0.459,1,7602.849,1,0.02,same
0,847,catch,"[(1183, 773)]",[],[1],[],horizontal,"(390.0, 762.0)",1.7,nan,1,7607.097,1,0.02,same
0,848,invalid_same_bar,"[(1180, 786)]",[],[1],[0.4666666666666667],horizontal,"(890.0, 762.0)",1.4166666666666667,0.435,1,7612.699,2,0.02,same
0,849,valid,"[(1170, 776)]",[],[1],[0.5833333333333334],vertical,"(890.0, 762.0)",0.6166666666666667,0.542,1,7618.146,2,0.02,same
0,850,invalid_adjacent_other_bar,"[(1161, 774)]",[],[1],[0.4666666666666667],horizontal,"(890.0, 262.0)",0.3833333333333333,0.425,1,7622.85,2,0.02,other
0,851,valid,"[(1165, 769)]",[],[1],[0.65],vertical,"(390.0, 262.0)",0.4,0.608,1,7627.45,3,0.02,same
0,852,catch,"[(1170, 761)]",[],[1],[],vertical,"(390.0, 762.0)",1.7,nan,1,7633.002,3,0.02,same
0,853,valid,"[(1166, 786)]",[],[1],[0.5833333333333334],horizontal,"(890.0, 762.0)",0.6666666666666666,0.547,1,7638.882,3,0.02,same
0,854,valid,"[(1160, 773)]",[],[1],[0.5666666666666667],horizontal,"(390.0, 762.0)",0.9,0.537,1,7644.183,3,0.02,same
0,855,valid,"[(1163, 772)]",[],[1],[0.85],horizontal,"(390.0, 762.0)",0.7166666666666667,nan,0,7650.033,0,0.02,same
0,856,valid,"[(1140, 762)]",[],[1],[0.6],horizontal,"(390.0, 262.0)",1.45,0.559,1,7654.712,1,0.02,same
0,857,invalid_adjacent_other_bar,"[(1159, 783)]",[],[1],[0.85],vertical,"(390.0, 762.0)",0.5166666666666666,nan,0,7660.076,0,0.02,other
0,858,valid,"[(1140, 760)]",[],[1],[0.5166666666666666],horizontal,"(890.0, 262.0)",0.4166666666666667,0.476,1,7664.683,1,0.02,same
0,859,valid,"[(1160, 801)]",[],[1],[0.5333333333333333],vertical,"(890.0, 762.0)",0.4,0.496,1,7669.178,1,0.02,same
0,860,valid,"[(1110, 825)]",[],[1],[0.85],horizontal,"(390.0, 262.0)",1.0666666666666667,nan,0,7673.682,0,0.02,same
0,861,valid,"[(1171, 778)]",[],[1],[0.4666666666666667],vertical,"(890.0, 262.0)",1.25,0.425,1,7679.35,1,0.02,same
0,862,valid,"[(1162, 801)]",[],[1],[0.55],horizontal,"(890.0, 262.0)",0.85,0.51,1,7684.263,1,0.02,same
0,863,valid,"[(1161, 781)]",[],[1],[0.5],horizontal,"(890.0, 262.0)",1.2666666666666666,0.454,1,7689.281,1,0.02,same
