block,trial,trial_type,taps_start_loc_during_fix,taps_end_loc_during_fix,taps_on_lever_during_fix,taps_on_lever_s_during_fix,bar_orientation,target_xy,cti,rt,acc,time,pulses,fa_rate_recent100,p_catch
0,1,target,"[(1265, 916), (82, 862), (84, 855), (80, 855), (82, 855), (81, 869), (82, 869), (80, 869), (77, 868), (1067, 863)]",[],"[0, 0, 0, 0, 0, 0, 0, 0, 0, 1]",[0.3833333333333333],horizontal,"(390.0, 262.0)",0.5333333333333333,0.348,1,0.832,1,0.0,0.25
0,2,target,"[(864, 516), (934, 684), (1200, 151), (909, 157), (1279, 453), (1146, 827)]",[],"[0, 0, 0, 0, 0, 1]",[0.5833333333333334],vertical,"(390.0, 262.0)",1.4,0.542,1,233.071,1,0.0,0.25
0,3,target,"[(1165, 795)]",[],[1],[],horizontal,"(890.0, 262.0)",,"('cti', 0.737)",0,3657.188,0,0.3333333333333333,0.25
0,4,target,"[(1127, 789)]",[],[1],[0.16666666666666666],vertical,"(390.0, 762.0)",0.5833333333333334,0.132,0,3661.23,0,0.25,0.25
0,5,target,"[(1174, 807)]",[],[1],[0.5833333333333334],horizontal,"(390.0, 262.0)",0.6166666666666667,0.539,1,3683.157,1,0.2,0.25
0,6,catch,"[(1170, 796)]",[],[1],[],vertical,"(890.0, 762.0)",1.6,nan,1,3757.958,1,0.16666666666666666,0.25
0,7,target,"[(1168, 785)]",[],[1],[0.55],horizontal,"(390.0, 262.0)",1.0166666666666666,0.517,1,3762.834,1,0.14285714285714285,0.25
0,8,target,"[(1169, 810)]",[],[1],[0.23333333333333334],horizontal,"(390.0, 262.0)",0.85,0.196,0,3768.314,0,0.125,0.25
0,9,target,"[(1172, 803)]",[],[1],[0.5833333333333334],vertical,"(890.0, 762.0)",0.55,0.538,1,3985.142,1,0.1111111111111111,0.25
0,10,target,"[(1180, 769)]",[],[1],[0.6166666666666667],vertical,"(390.0, 262.0)",0.75,0.572,1,3989.659,1,0.1,0.25
0,11,target,"[(1173, 762)]",[],[1],[0.4166666666666667],horizontal,"(890.0, 762.0)",1.2333333333333334,0.376,1,3994.239,1,0.09090909090909091,0.25
0,12,catch,"[(1193, 789)]",[],[1],[],vertical,"(390.0, 762.0)",,"('cti', 1.566),nan",0,3999.4,0,0.16666666666666666,0.25
0,13,catch,"[(1175, 801)]",[],[1],[],vertical,"(390.0, 762.0)",1.6,nan,1,4004.432,1,0.15384615384615385,0.25
0,14,target,"[(1165, 801)]",[],[1],[0.5666666666666667],horizontal,"(890.0, 762.0)",1.2,0.52,1,4009.421,1,0.14285714285714285,0.25
0,15,catch,"[(1178, 777)]",[],[1],[],vertical,"(890.0, 262.0)",1.6,nan,1,4014.973,1,0.13333333333333333,0.25
0,16,target,"[(1178, 769)]",[],[1],[0.65],vertical,"(890.0, 762.0)",0.95,0.607,1,4020.03,2,0.125,0.25
0,17,target,"[(1176, 777)]",[],[1],[0.7666666666666666],horizontal,"(390.0, 762.0)",0.4,0.719,1,4025.443,2,0.11764705882352941,0.25
0,18,target,"[(1184, 769)]",[],[1],[0.8],horizontal,"(890.0, 762.0)",1.05,0.758,1,4030.166,2,0.1111111111111111,0.25
0,19,target,"[(1177, 759)]",[],[1],[0.5],vertical,"(390.0, 762.0)",0.6166666666666667,0.462,1,4035.701,2,0.10526315789473684,0.25
0,20,target,"[(1191, 766)]",[],[1],[0.26666666666666666],horizontal,"(890.0, 262.0)",1.1333333333333333,0.233,1,4041.122,3,0.1,0.25
0,21,target,"[(1213, 785)]",[],[1],[0.55],horizontal,"(390.0, 762.0)",0.7833333333333333,0.511,1,4047.182,3,0.09523809523809523,0.25
0,22,catch,"[(1176, 778)]",[],[1],[],vertical,"(390.0, 762.0)",1.6,nan,1,4053.066,3,0.09090909090909091,0.25
0,23,catch,"[(1184, 815)]",[],[1],[],vertical,"(390.0, 262.0)",,"('cti', 1.579),nan",0,4059.149,0,0.13043478260869565,0.25
0,24,target,"[(1172, 795)]",[],[1],[0.5833333333333334],horizontal,"(890.0, 762.0)",0.7333333333333333,0.54,1,4282.466,1,0.125,0.25
0,25,target,"[(1217, 794)]",[],[1],[0.6666666666666666],horizontal,"(890.0, 762.0)",1.1166666666666667,0.626,1,4286.927,1,0.12,0.25
0,26,target,"[(1187, 776)]",[],[1],[0.5833333333333334],horizontal,"(890.0, 262.0)",0.8833333333333333,0.547,1,4292.162,1,0.11538461538461539,0.25
0,27,target,"[(1185, 776)]",[],[1],[0.85],horizontal,"(890.0, 762.0)",0.48333333333333334,nan,0,4296.874,0,0.1111111111111111,0.25
0,28,catch,"[(1172, 790)]",[],[1],[],horizontal,"(390.0, 262.0)",1.6,nan,1,4301.416,1,0.10714285714285714,0.25
0,29,target,"[(1190, 794)]",[],[1],[0.6333333333333333],horizontal,"(890.0, 262.0)",0.75,0.593,1,4306.328,1,0.10344827586206896,0.25
0,30,target,"[(1186, 781)]",[],[1],[0.26666666666666666],vertical,"(890.0, 262.0)",1.5333333333333332,0.233,1,4310.932,1,0.1,0.25
0,31,target,"[(1179, 769)]",[],[1],[0.7166666666666667],vertical,"(890.0, 762.0)",0.8333333333333334,0.682,1,4316.112,2,0.0967741935483871,0.25
0,32,catch,"[(1181, 775)]",[],[1],[],vertical,"(890.0, 262.0)",1.6,nan,1,4321.901,2,0.09375,0.25
0,33,target,"[(1174, 779)]",[],[1],[0.55],vertical,"(890.0, 762.0)",1.1166666666666667,0.508,1,4327.649,2,0.09090909090909091,0.25
0,34,target,"[(1172, 764)]",[],[1],[0.6166666666666667],horizontal,"(390.0, 262.0)",0.35,0.578,1,4333.289,2,0.08823529411764706,0.25
0,35,target,"[(1183, 785)]",[],[1],[0.5666666666666667],horizontal,"(890.0, 262.0)",0.4666666666666667,0.526,1,4338.099,3,0.08571428571428572,0.25
0,36,target,"[(1186, 778)]",[],[1],[0.6333333333333333],vertical,"(890.0, 762.0)",0.8333333333333334,0.592,1,4343.764,3,0.08333333333333333,0.25
0,37,catch,"[(1183, 785)]",[],[1],[],vertical,"(890.0, 262.0)",1.6,nan,1,4349.307,3,0.08108108108108109,0.25
0,38,target,"[(1183, 790)]",[],[1],[0.5333333333333333],horizontal,"(890.0, 762.0)",0.7166666666666667,0.491,1,4354.964,3,0.07894736842105263,0.25
0,39,catch,"[(1177, 785)]",[],[1],[],vertical,"(390.0, 262.0)",1.6,nan,1,4360.883,3,0.07692307692307693,0.25
0,40,target,"[(1177, 780)]",[],[1],[0.7],vertical,"(390.0, 762.0)",0.75,0.658,1,4366.577,3,0.075,0.25
0,41,target,"[(1174, 781)]",[],[1],[0.6166666666666667],vertical,"(890.0, 762.0)",0.5,0.578,1,4372.101,3,0.07317073170731707,0.25
0,42,target,"[(1178, 774)]",[],[1],[0.55],horizontal,"(890.0, 262.0)",1.1833333333333333,0.506,1,4377.509,3,0.07142857142857142,0.25
0,43,target,"[(1178, 761)]",[],[1],[0.5333333333333333],horizontal,"(890.0, 762.0)",1.2166666666666666,0.495,1,4383.517,3,0.06976744186046512,0.25
0,44,target,"[(1180, 768)]",[],[1],[0.65],vertical,"(390.0, 262.0)",1.1833333333333333,0.606,1,4389.733,3,0.06818181818181818,0.25
0,45,target,"[(1170, 770)]",[],[1],[0.5166666666666666],vertical,"(890.0, 762.0)",1.3333333333333333,0.478,1,4395.868,3,0.06666666666666667,0.25
0,46,target,"[(1178, 767)]",[],[1],[0.8166666666666667],horizontal,"(890.0, 762.0)",1.2,0.773,1,4401.764,3,0.06521739130434782,0.25
0,47,target,"[(1189, 782)]",[],[1],[0.6333333333333333],vertical,"(890.0, 762.0)",1.1333333333333333,0.592,1,4408.217,3,0.06382978723404255,0.25
0,48,catch,"[(1172, 777)]",[],[1],[],vertical,"(390.0, 762.0)",1.6,nan,1,4414.149,3,0.0625,0.25
0,49,catch,"[(1185, 788)]",[],[1],[],vertical,"(390.0, 262.0)",,"('cti', 1.495),nan",0,4419.866,0,0.08163265306122448,0.25
0,50,target,"[(1151, 809)]",[],[1],[0.5833333333333334],horizontal,"(890.0, 262.0)",1.1,0.541,1,4424.714,1,0.08,0.25
0,51,target,"[(1173, 790)]",[],[1],[0.6333333333333333],horizontal,"(890.0, 762.0)",0.9166666666666666,0.588,1,4431.899,1,0.08,0.25
0,52,target,"[(1184, 770)]",[],[1],[0.6],vertical,"(390.0, 762.0)",1.1166666666666667,0.576,1,4436.999,1,0.08,0.25
0,53,target,"[(1173, 797)]",[],[1],[0.7166666666666667],horizontal,"(890.0, 762.0)",0.95,0.667,1,4441.832,2,0.06,0.25
0,54,catch,"[(1190, 796)]",[],[1],[],vertical,"(390.0, 762.0)",1.6,nan,1,4447.564,2,0.06,0.25
0,55,target,"[(1182, 772)]",[],[1],[0.85],horizontal,"(890.0, 762.0)",0.5833333333333334,nan,0,4453.199,0,0.06,0.25
0,56,target,"[(1178, 782)]",[],[1],[0.6833333333333333],vertical,"(390.0, 262.0)",0.48333333333333334,0.638,1,4457.809,1,0.06,0.25
0,57,catch,"[(1185, 756)]",[],[1],[],vertical,"(890.0, 762.0)",1.6,nan,1,4462.582,1,0.06,0.25
0,58,target,"[(1185, 771)]",[],[1],[0.85],vertical,"(890.0, 762.0)",0.36666666666666664,nan,0,4467.893,0,0.06,0.25
0,59,catch,"[(1150, 806)]",[],[1],[],horizontal,"(390.0, 762.0)",,"('cti', 1.574),nan",0,4472.118,0,0.08,0.25
0,60,target,"[(1167, 769)]",[],[1],[0.6],vertical,"(390.0, 262.0)",0.5666666666666667,0.564,1,4480.249,1,0.08,0.25
0,61,target,"[(1178, 775)]",[],[1],[0.7],vertical,"(390.0, 262.0)",0.9833333333333333,0.658,1,4484.732,1,0.08,0.25
0,62,target,"[(1179, 779)]",[],[1],[0.5666666666666667],vertical,"(890.0, 262.0)",0.8333333333333334,0.524,1,4489.684,1,0.06,0.25
0,63,target,"[(1179, 774)]",[],[1],[0.5333333333333333],horizontal,"(890.0, 262.0)",0.6,0.494,1,4494.591,2,0.06,0.25
0,64,target,"[(1176, 773)]",[],[1],[0.65],horizontal,"(890.0, 262.0)",1.3166666666666667,0.606,1,4499.784,2,0.06,0.25
0,65,target,"[(1171, 753), (1170, 795)]",[],"[0, 1]",[0.6333333333333333],horizontal,"(890.0, 762.0)",0.8666666666666667,0.595,1,4505.314,2,0.06,0.25
0,66,target,"[(1178, 762)]",[],[1],[0.65],vertical,"(390.0, 262.0)",0.5833333333333334,0.609,1,4512.782,2,0.06,0.25
0,67,target,"[(1180, 767)]",[],[1],[0.5833333333333334],horizontal,"(390.0, 262.0)",1.1166666666666667,0.542,1,4518.216,3,0.06,0.25
0,68,catch,"[(1181, 765)]",[],[1],[],vertical,"(890.0, 762.0)",1.6,nan,1,4524.466,3,0.06,0.25
0,69,target,"[(1180, 769)]",[],[1],[0.7],vertical,"(390.0, 262.0)",1.0666666666666667,0.658,1,4530.309,3,0.06,0.25
0,70,target,"[(1195, 789)]",[],[1],[0.5333333333333333],horizontal,"(890.0, 762.0)",0.8,0.493,1,4536.278,3,0.06,0.25
0,71,target,"[(1176, 764)]",[],[1],[0.55],vertical,"(890.0, 262.0)",0.9333333333333333,0.511,1,4541.567,3,0.06,0.25
0,72,catch,"[(1176, 778)]",[],[1],[],horizontal,"(390.0, 262.0)",1.6,nan,1,4547.068,3,0.06,0.25
0,73,target,"[(1176, 773)]",[],[1],[0.7],horizontal,"(390.0, 762.0)",0.36666666666666664,0.662,1,4553.216,3,0.04,0.25
0,74,target,"[(1180, 770)]",[],[1],[0.6],vertical,"(390.0, 262.0)",0.7833333333333333,0.564,1,4558.884,3,0.04,0.25
0,75,target,"[(1159, 766)]",[],[1],[0.6166666666666667],vertical,"(890.0, 762.0)",1.1666666666666667,0.578,1,4564.784,3,0.04,0.25
0,76,catch,"[(1174, 783)]",[],[1],[],vertical,"(390.0, 262.0)",1.6,nan,1,4570.899,3,0.04,0.25
0,77,catch,"[(1175, 765)]",[],[1],[],vertical,"(890.0, 262.0)",1.6,nan,1,4576.848,3,0.04,0.25
0,78,catch,"[(1190, 769)]",[],[1],[],vertical,"(390.0, 262.0)",1.6,nan,1,4582.748,3,0.04,0.25
0,79,target,"[(1176, 761)]",[],[1],[],horizontal,"(390.0, 762.0)",,"('cti', 1.19)",0,4588.74,0,0.06,0.25
0,80,catch,"[(1169, 778)]",[],[1],[],horizontal,"(890.0, 762.0)",1.6,nan,1,4593.133,1,0.06,0.25
0,81,target,"[(1174, 766)]",[],[1],[0.5833333333333334],horizontal,"(890.0, 262.0)",1.0666666666666667,0.543,1,4598.234,1,0.06,0.25
0,82,target,"[(1165, 774)]",[],[1],[0.7833333333333333],horizontal,"(390.0, 262.0)",1.1166666666666667,0.736,1,4603.311,1,0.06,0.25
0,83,catch,"[(1175, 758)]",[],[1],[],vertical,"(890.0, 262.0)",1.6,nan,1,4608.629,2,0.06,0.25
0,84,target,"[(1180, 785)]",[],[1],[0.5833333333333334],vertical,"(890.0, 762.0)",0.65,0.537,1,4614.499,2,0.06,0.25
0,85,target,"[(1184, 790)]",[],[1],[0.7333333333333333],vertical,"(890.0, 262.0)",0.4666666666666667,0.692,1,4619.847,2,0.06,0.25
0,86,target,"[(1157, 786)]",[],[1],[0.4666666666666667],horizontal,"(390.0, 762.0)",1.3166666666666667,0.423,1,4625.024,2,0.06,0.25
0,87,catch,"[(1170, 794)]",[],[1],[],horizontal,"(390.0, 262.0)",1.6,nan,1,4630.867,3,0.06,0.25
0,88,catch,"[(1183, 763)]",[],[1],[],horizontal,"(890.0, 762.0)",1.6,nan,1,4636.7,3,0.06,0.25
0,89,catch,"[(1179, 764)]",[],[1],[],horizontal,"(390.0, 262.0)",1.6,nan,1,4642.599,3,0.06,0.25
0,90,target,"[(1176, 766)]",[],[1],[0.85],horizontal,"(390.0, 762.0)",0.4166666666666667,nan,0,4648.778,0,0.06,0.25
0,91,catch,"[(1167, 788)]",[],[1],[],horizontal,"(390.0, 262.0)",,"('cti', 1.486),nan",0,4653.112,0,0.08,0.25
0,92,catch,"[(1155, 786)]",[],[1],[],vertical,"(390.0, 262.0)",1.6,nan,1,4657.944,1,0.08,0.25
0,93,target,"[(1174, 796)]",[],[1],[0.5166666666666666],vertical,"(390.0, 762.0)",1.55,0.472,1,4663.99,1,0.08,0.25
0,94,target,"[(1180, 775)]",[],[1],[0.6666666666666666],vertical,"(390.0, 762.0)",1.1833333333333333,0.625,1,4669.863,1,0.08,0.25
0,95,target,"[(1179, 798)]",[],[1],[0.8166666666666667],vertical,"(890.0, 262.0)",1.0,0.762,1,4675.16,2,0.08,0.25
0,96,catch,"[(1170, 765)]",[],[1],[],vertical,"(390.0, 762.0)",1.6,nan,1,4681.049,2,0.08,0.25
0,97,catch,"[(1176, 785)]",[],[1],[],horizontal,"(890.0, 262.0)",1.6,nan,1,4686.533,2,0.08,0.25
0,98,target,"[(1180, 765)]",[],[1],[0.2833333333333333],horizontal,"(390.0, 762.0)",1.4833333333333334,0.247,1,4692.216,2,0.08,0.25
0,99,target,"[(1176, 783)]",[],[1],[0.85],vertical,"(890.0, 262.0)",0.55,nan,0,4698.032,0,0.06,0.25
0,100,target,"[(1176, 816)]",[],[1],[0.43333333333333335],horizontal,"(390.0, 762.0)",1.5333333333333332,0.391,1,4702.286,1,0.06,0.25
0,101,target,"[(1174, 800)]",[],[1],[0.48333333333333334],vertical,"(890.0, 762.0)",1.5333333333333332,0.436,1,4714.722,1,0.06,0.25
0,102,target,"[(1180, 768)]",[],[1],[0.6833333333333333],vertical,"(390.0, 262.0)",0.8,0.638,1,4720.158,1,0.06,0.25
0,103,target,"[(1173, 780)]",[],[1],[0.5833333333333334],vertical,"(890.0, 262.0)",0.85,0.541,1,4725.142,2,0.06,0.25
0,104,target,"[(1178, 781)]",[],[1],[0.55],horizontal,"(890.0, 762.0)",1.0666666666666667,0.504,1,4730.305,2,0.06,0.25
0,105,target,"[(1180, 790)]",[],[1],[0.6333333333333333],horizontal,"(890.0, 762.0)",1.05,0.601,1,4735.878,2,0.06,0.25
0,106,target,"[(1168, 780)]",[],[1],[0.55],horizontal,"(890.0, 262.0)",1.3833333333333333,0.507,1,4741.658,2,0.06,0.25
0,107,catch,"[(1178, 787)]",[],[1],[],horizontal,"(390.0, 762.0)",1.6,nan,1,4747.75,3,0.06,0.25
0,108,target,"[(1163, 784)]",[],[1],[0.85],horizontal,"(890.0, 262.0)",0.45,nan,0,4753.513,0,0.06,0.25
0,109,catch,"[(1152, 780)]",[],[1],[],vertical,"(390.0, 262.0)",1.6,nan,1,4757.352,1,0.04,0.25
0,110,target,"[(1180, 769)]",[],[1],[0.7],horizontal,"(390.0, 262.0)",1.1166666666666667,0.657,1,4762.834,1,0.04,0.25
0,111,target,"[(1155, 752), (1160, 790)]",[],"[0, 1]",[0.5666666666666667],horizontal,"(890.0, 762.0)",0.43333333333333335,0.521,1,4768.043,1,0.04,0.25
0,112,catch,"[(1180, 765)]",[],[1],[],vertical,"(390.0, 262.0)",1.6,nan,1,4774.003,2,0.04,0.25
0,113,target,"[(1178, 769)]",[],[1],[0.75],vertical,"(890.0, 762.0)",1.0166666666666666,0.702,1,4779.692,2,0.04,0.25
0,114,catch,"[(1160, 762)]",[],[1],[],vertical,"(390.0, 262.0)",1.6,nan,1,4785.478,2,0.04,0.25
0,115,catch,"[(1180, 773)]",[],[1],[],horizontal,"(890.0, 262.0)",1.6,nan,1,4790.667,2,0.04,0.25
0,116,target,"[(1188, 782)]",[],[1],[0.5833333333333334],horizontal,"(390.0, 262.0)",0.7666666666666666,0.554,1,4796.5,3,0.04,0.25
0,117,target,"[(1181, 769)]",[],[1],[0.36666666666666664],vertical,"(890.0, 762.0)",1.4166666666666667,0.33,1,4802.433,3,0.04,0.25
0,118,catch,"[(1181, 787)]",[],[1],[],vertical,"(890.0, 262.0)",1.6,nan,1,4808.794,3,0.04,0.25
0,119,catch,"[(1182, 758)]",[],[1],[],horizontal,"(390.0, 762.0)",1.6,nan,1,4814.613,3,0.04,0.25
0,120,target,"[(1179, 769)]",[],[1],[0.7333333333333333],horizontal,"(890.0, 762.0)",1.1166666666666667,0.696,1,4820.602,3,0.04,0.25
0,121,target,"[(1174, 772)]",[],[1],[0.5333333333333333],horizontal,"(390.0, 762.0)",1.25,0.489,1,4826.433,3,0.04,0.25
0,122,target,"[(1180, 766)]",[],[1],[0.6],vertical,"(390.0, 262.0)",0.5333333333333333,0.566,1,4832.7,3,0.04,0.25
0,123,catch,"[(1178, 772)]",[],[1],[],vertical,"(890.0, 762.0)",1.6,nan,1,4838.301,3,0.04,0.25
0,124,target,"[(1177, 795)]",[],[1],[0.6],horizontal,"(390.0, 262.0)",1.2666666666666666,0.558,1,4844.51,3,0.04,0.25
0,125,catch,"[(1180, 769)]",[],[1],[],vertical,"(890.0, 262.0)",1.6,nan,1,4850.623,3,0.04,0.25
0,126,target,"[(1179, 783)]",[],[1],[0.5666666666666667],horizontal,"(890.0, 262.0)",1.05,0.531,1,4856.7,3,0.04,0.25
0,127,target,"[(1180, 764)]",[],[1],[0.6166666666666667],vertical,"(390.0, 762.0)",0.8,0.574,1,4862.763,3,0.04,0.25
0,128,target,"[(1168, 761)]",[],[1],[0.6833333333333333],horizontal,"(390.0, 762.0)",0.43333333333333335,0.633,1,4868.156,3,0.04,0.25
0,129,target,"[(1183, 761)]",[],[1],[0.5666666666666667],vertical,"(390.0, 762.0)",0.8333333333333334,0.521,1,4873.25,3,0.02,0.25
0,130,target,"[(1158, 766)]",[],[1],[0.6],horizontal,"(890.0, 762.0)",0.6666666666666666,0.561,1,4878.836,3,0.02,0.25
0,131,catch,"[(1180, 770)]",[],[1],[],vertical,"(390.0, 262.0)",1.6,nan,1,4884.001,3,0.02,0.25
0,132,target,"[(1176, 769)]",[],[1],[0.8],vertical,"(390.0, 262.0)",1.25,0.754,1,4889.728,3,0.02,0.25
0,133,catch,"[(1184, 796)]",[],[1],[],horizontal,"(390.0, 262.0)",1.6,nan,1,4895.802,3,0.02,0.25
0,134,target,"[(1191, 795)]",[],[1],[0.6166666666666667],vertical,"(890.0, 262.0)",0.4666666666666667,0.574,1,4901.853,3,0.02,0.25
0,135,target,"[(1156, 773)]",[],[1],[0.6],horizontal,"(890.0, 762.0)",0.8166666666666667,0.557,1,4907.399,3,0.02,0.25
0,136,target,"[(1188, 784)]",[],[1],[0.55],vertical,"(890.0, 262.0)",0.5333333333333333,0.507,1,4912.7,3,0.02,0.25
0,137,target,"[(1181, 778)]",[],[1],[0.85],horizontal,"(890.0, 762.0)",0.6,nan,0,4918.0,0,0.02,0.25
0,138,catch,"[(1153, 799)]",[],[1],[],horizontal,"(390.0, 262.0)",1.6,nan,1,4922.316,1,0.02,0.25
0,139,target,"[(1180, 798)]",[],[1],[0.3333333333333333],vertical,"(390.0, 262.0)",1.5166666666666666,0.297,1,4927.31,1,0.02,0.25
0,140,target,"[(1177, 785)]",[],[1],[0.65],horizontal,"(890.0, 762.0)",1.1,0.612,1,4932.763,1,0.02,0.25
0,141,catch,"[(1183, 787)]",[],[1],[],vertical,"(390.0, 762.0)",1.6,nan,1,4938.012,2,0.0,0.25
0,142,catch,"[(1183, 787)]",[],[1],[],horizontal,"(890.0, 262.0)",1.6,nan,1,4943.81,2,0.0,0.25
0,143,target,"[(1180, 766)]",[],[1],[0.35],vertical,"(390.0, 762.0)",1.4,0.309,1,4949.85,2,0.0,0.25
0,144,catch,"[(1191, 777)]",[],[1],[],horizontal,"(390.0, 262.0)",1.6,nan,1,4955.783,2,0.0,0.25
0,145,target,"[(1184, 813)]",[],[1],[0.6166666666666667],horizontal,"(390.0, 262.0)",0.8666666666666667,0.584,1,4961.434,3,0.0,0.25
0,146,target,"[(1150, 775)]",[],[1],[0.6],vertical,"(890.0, 262.0)",1.2,0.554,1,4967.237,3,0.0,0.25
0,147,target,"[(1169, 757)]",[],[1],[0.6833333333333333],vertical,"(390.0, 762.0)",0.9333333333333333,0.636,1,4973.275,3,0.0,0.25
0,148,target,"[(1168, 769)]",[],[1],[0.36666666666666664],vertical,"(390.0, 762.0)",1.2833333333333332,0.326,1,4979.349,3,0.0,0.25
0,149,target,"[(1183, 775)]",[],[1],[0.5333333333333333],vertical,"(390.0, 262.0)",1.2833333333333332,0.491,1,4985.251,3,0.0,0.25
0,150,target,"[(1180, 776)]",[],[1],[0.55],horizontal,"(890.0, 262.0)",0.75,0.507,1,4991.468,3,0.0,0.25
0,151,target,"[(1164, 777)]",[],[1],[0.65],horizontal,"(390.0, 262.0)",1.1166666666666667,0.617,1,4997.083,3,0.0,0.25
0,152,target,"[(1183, 779)]",[],[1],[0.65],vertical,"(890.0, 262.0)",0.65,0.611,1,5003.135,3,0.0,0.25
0,153,catch,"[(1187, 776)]",[],[1],[],vertical,"(390.0, 762.0)",1.6,nan,1,5008.785,3,0.0,0.25
0,154,catch,"[(1184, 763)]",[],[1],[],horizontal,"(890.0, 262.0)",1.6,nan,1,5014.684,3,0.0,0.25
0,155,catch,"[(1167, 761)]",[],[1],[],vertical,"(890.0, 262.0)",1.6,nan,1,5020.851,3,0.0,0.25
0,156,target,"[(1165, 770)]",[],[1],[0.6833333333333333],horizontal,"(890.0, 262.0)",0.6666666666666666,0.637,1,5026.79,3,0.0,0.25
0,157,target,"[(1183, 787)]",[],[1],[0.6166666666666667],horizontal,"(390.0, 262.0)",0.8833333333333333,0.573,1,5032.677,3,0.0,0.25
0,158,catch,"[(1178, 765)]",[],[1],[],horizontal,"(890.0, 262.0)",,"('cti', 1.394),nan",0,5038.649,0,0.02,0.25
0,159,target,"[(1155, 799)]",[],[1],[0.85],horizontal,"(890.0, 762.0)",0.5166666666666666,nan,0,5043.468,0,0.02,0.25
0,160,catch,"[(1155, 788)]",[],[1],[],horizontal,"(390.0, 262.0)",1.6,nan,1,5047.985,1,0.02,0.25
0,161,catch,"[(1154, 775)]",[],[1],[],vertical,"(890.0, 762.0)",1.6,nan,1,5053.737,1,0.02,0.25
0,162,catch,"[(1188, 793)]",[],[1],[],vertical,"(890.0, 262.0)",1.6,nan,1,5058.907,1,0.02,0.25
0,163,target,"[(1175, 770)]",[],[1],[0.5],horizontal,"(390.0, 762.0)",1.25,0.462,1,5063.951,2,0.02,0.25
0,164,target,"[(1176, 782)]",[],[1],[0.5666666666666667],horizontal,"(890.0, 262.0)",0.48333333333333334,0.536,1,5069.368,2,0.02,0.25
0,165,target,"[(1166, 783)]",[],[1],[0.6],horizontal,"(890.0, 762.0)",0.9833333333333333,0.562,1,5074.128,2,0.02,0.25
0,166,target,"[(1170, 775)]",[],[1],[0.5666666666666667],vertical,"(890.0, 262.0)",0.4666666666666667,0.532,1,5079.985,2,0.02,0.25
0,167,target,"[(1180, 785)]",[],[1],[0.31666666666666665],vertical,"(890.0, 762.0)",1.5,0.284,1,5084.882,3,0.02,0.25
0,168,target,"[(1178, 771)]",[],[1],[0.45],vertical,"(890.0, 262.0)",1.5166666666666666,0.412,1,5091.117,3,0.02,0.25
0,169,catch,"[(1180, 768)]",[],[1],[],vertical,"(890.0, 262.0)",1.6,nan,1,5097.499,3,0.02,0.25
0,170,target,"[(1165, 780)]",[],[1],[0.6833333333333333],vertical,"(890.0, 762.0)",0.6,0.641,1,5103.219,3,0.02,0.25
0,171,target,"[(1180, 785)]",[],[1],[0.65],horizontal,"(390.0, 262.0)",0.8166666666666667,0.616,1,5108.62,3,0.02,0.25
0,172,target,"[(1178, 763)]",[],[1],[0.6166666666666667],vertical,"(890.0, 762.0)",0.7666666666666666,0.575,1,5114.635,3,0.02,0.25
0,173,target,"[(1178, 766)]",[],[1],[0.65],vertical,"(890.0, 262.0)",1.1666666666666667,0.609,1,5120.139,3,0.02,0.25
0,174,target,"[(1179, 770)]",[],[1],[0.6],vertical,"(390.0, 762.0)",1.2833333333333332,0.552,1,5125.784,3,0.02,0.25
0,175,target,"[(1181, 763)]",[],[1],[0.5166666666666666],vertical,"(890.0, 262.0)",1.15,0.477,1,5132.049,3,0.02,0.25
0,176,catch,"[(1185, 791)]",[],[1],[],vertical,"(890.0, 762.0)",1.6,nan,1,5137.951,3,0.02,0.25
0,177,target,"[(1185, 765)]",[],[1],[0.5666666666666667],vertical,"(890.0, 762.0)",0.6166666666666667,0.532,1,5143.718,3,0.02,0.25
0,178,target,"[(1179, 785)]",[],[1],[0.75],vertical,"(390.0, 262.0)",1.1666666666666667,0.711,1,5149.241,3,0.02,0.25
0,179,catch,"[(1181, 780)]",[],[1],[0.03333333333333333],vertical,"(390.0, 762.0)",1.6,"0.019,nan",0,5155.496,0,0.04,0.25
0,180,target,"[(1170, 770)]",[],[1],[0.5833333333333334],vertical,"(390.0, 262.0)",1.4,0.547,1,5160.667,1,0.04,0.25
0,181,target,"[(1170, 767)]",[],[1],[0.6],horizontal,"(390.0, 762.0)",0.5833333333333334,0.56,1,5165.884,1,0.04,0.25
0,182,catch,"[(1184, 775)]",[],[1],[],horizontal,"(890.0, 762.0)",1.6,nan,1,5170.687,1,0.04,0.25
0,183,target,"[(1145, 805)]",[],[1],[0.85],vertical,"(890.0, 762.0)",0.36666666666666664,nan,0,5175.618,0,0.04,0.25
0,184,target,"[(1150, 784)]",[],[1],[0.5166666666666666],vertical,"(890.0, 762.0)",1.2,0.474,1,5187.034,1,0.04,0.25
0,185,target,"[(1171, 792)]",[],[1],[0.65],horizontal,"(390.0, 262.0)",1.35,0.618,1,5192.268,1,0.04,0.25
0,186,catch,"[(1179, 780)]",[],[1],[],horizontal,"(890.0, 762.0)",1.6,nan,1,5197.403,1,0.04,0.25
0,187,catch,"[(1151, 799)]",[],[1],[],vertical,"(390.0, 762.0)",1.6,nan,1,5202.438,2,0.04,0.25
0,188,target,"[(1177, 787)]",[],[1],[0.55],vertical,"(890.0, 262.0)",0.85,0.506,1,5208.353,2,0.04,0.25
0,189,target,"[(1180, 784)]",[],[1],[0.5833333333333334],horizontal,"(390.0, 262.0)",1.0333333333333332,0.546,1,5213.661,2,0.04,0.25
0,190,target,"[(1180, 775)]",[],[1],[0.5],horizontal,"(890.0, 262.0)",1.15,0.464,1,5219.347,2,0.04,0.25
0,191,target,"[(1179, 780)]",[],[1],[0.35],vertical,"(890.0, 762.0)",1.4333333333333333,0.314,1,5225.143,3,0.04,0.25
0,192,target,"[(1179, 779)]",[],[1],[0.85],vertical,"(390.0, 762.0)",0.5166666666666666,nan,0,5231.517,0,0.04,0.25
0,193,target,"[(1150, 782)]",[],[1],[0.7333333333333333],vertical,"(390.0, 762.0)",0.6833333333333333,0.686,1,5236.022,1,0.04,0.25
0,194,catch,"[(1180, 784)]",[],[1],[],horizontal,"(390.0, 762.0)",1.6,nan,1,5240.812,1,0.04,0.25
0,195,target,"[(1182, 761)]",[],[1],[0.5833333333333334],horizontal,"(390.0, 262.0)",0.5833333333333334,0.545,1,5246.077,1,0.04,0.25
0,196,catch,"[(1177, 775)]",[],[1],[],horizontal,"(890.0, 262.0)",1.6,nan,1,5250.785,2,0.04,0.25
0,197,catch,"[(1179, 753), (1158, 809)]",[],"[0, 1]",[],vertical,"(890.0, 762.0)",1.6,nan,1,5255.918,2,0.04,0.25
0,198,catch,"[(1178, 776)]",[],[1],[],vertical,"(390.0, 262.0)",1.6,nan,1,5262.101,2,0.04,0.25
0,199,target,"[(1176, 772)]",[],[1],[0.6166666666666667],horizontal,"(890.0, 262.0)",0.8166666666666667,0.575,1,5267.751,2,0.04,0.25
0,200,target,"[(1159, 773)]",[],[1],[0.5333333333333333],vertical,"(390.0, 762.0)",1.1333333333333333,0.49,1,5272.884,3,0.04,0.25
0,201,target,"[(1183, 778)]",[],[1],[0.6333333333333333],vertical,"(890.0, 262.0)",0.9166666666666666,0.593,1,5278.886,3,0.04,0.25
0,202,target,"[(1182, 778)]",[],[1],[0.85],horizontal,"(390.0, 762.0)",1.5166666666666666,nan,0,5284.688,0,0.04,0.25
0,203,target,"[(1154, 785)]",[],[1],[0.5166666666666666],horizontal,"(890.0, 262.0)",1.2666666666666666,0.484,1,5289.668,1,0.04,0.25
0,204,target,"[(1155, 782)]",[],[1],[0.55],vertical,"(890.0, 262.0)",1.4666666666666666,0.506,1,5295.177,1,0.04,0.25
0,205,catch,"[(1155, 780)]",[],[1],[],vertical,"(890.0, 762.0)",1.6,nan,1,5300.568,1,0.04,0.25
0,206,target,"[(1155, 780)]",[],[1],[0.6666666666666666],horizontal,"(390.0, 762.0)",0.7666666666666666,0.624,1,5306.002,2,0.04,0.25
0,207,target,"[(1160, 777)]",[],[1],[0.5833333333333334],horizontal,"(390.0, 262.0)",0.5,0.543,1,5310.918,2,0.04,0.25
0,208,target,"[(1159, 781)]",[],[1],[0.5833333333333334],vertical,"(390.0, 762.0)",1.4833333333333334,0.543,1,5316.061,2,0.02,0.25
0,209,target,"[(1177, 790)]",[],[1],[0.85],horizontal,"(890.0, 262.0)",1.0,nan,0,5321.652,0,0.02,0.25
0,210,target,"[(1148, 790)]",[],[1],[0.65],horizontal,"(890.0, 762.0)",0.7833333333333333,0.606,1,5326.428,1,0.02,0.25
0,211,target,"[(1158, 755)]",[],[1],[0.6333333333333333],vertical,"(390.0, 262.0)",0.9166666666666666,0.59,1,5331.679,1,0.02,0.25
0,212,target,"[(1182, 753), (1150, 786)]",[],"[0, 1]",[0.3833333333333333],horizontal,"(890.0, 762.0)",1.4166666666666667,0.343,1,5336.353,1,0.02,0.25
0,213,target,"[(1179, 778)]",[],[1],[0.85],vertical,"(390.0, 762.0)",0.43333333333333335,nan,0,5343.151,0,0.02,0.25
0,214,catch,"[(1152, 781)]",[],[1],[],horizontal,"(390.0, 762.0)",1.6,nan,1,5347.302,1,0.02,0.25
0,215,target,"[(1174, 773)]",[],[1],[0.5],vertical,"(390.0, 262.0)",1.5,0.459,1,5352.851,1,0.02,0.25
0,216,target,"[(1157, 779)]",[],[1],[0.5833333333333334],vertical,"(390.0, 762.0)",1.5166666666666666,0.536,1,5358.166,1,0.02,0.25
0,217,target,"[(1166, 765)]",[],[1],[0.7666666666666666],horizontal,"(890.0, 762.0)",0.6166666666666667,0.72,1,5363.352,2,0.02,0.25
0,218,target,"[(1158, 783)]",[],[1],[0.6],horizontal,"(890.0, 262.0)",0.55,0.554,1,5368.818,2,0.02,0.25
0,219,target,"[(1156, 785)]",[],[1],[0.85],vertical,"(890.0, 262.0)",0.7666666666666666,nan,0,5373.451,0,0.02,0.25
0,220,target,"[(1151, 788)]",[],[1],[0.5666666666666667],horizontal,"(390.0, 262.0)",1.5333333333333332,0.526,1,5377.651,1,0.02,0.25
0,221,catch,"[(1191, 776)]",[],[1],[],horizontal,"(390.0, 262.0)",1.6,nan,1,5383.1,1,0.02,0.25
0,222,target,"[(1176, 779)]",[],[1],[0.5833333333333334],horizontal,"(390.0, 262.0)",0.7333333333333333,0.543,1,5388.211,1,0.02,0.25
0,223,target,"[(1184, 791)]",[],[1],[0.7166666666666667],horizontal,"(890.0, 762.0)",0.9833333333333333,0.67,1,5392.985,2,0.02,0.25
0,224,target,"[(1175, 783)]",[],[1],[0.5666666666666667],horizontal,"(390.0, 762.0)",1.2166666666666666,0.524,1,5398.485,2,0.02,0.25
0,225,target,"[(1155, 774)]",[],[1],[0.6166666666666667],vertical,"(390.0, 762.0)",1.1,0.576,1,5403.802,2,0.02,0.25
0,226,catch,"[(1175, 804)]",[],[1],[],vertical,"(890.0, 762.0)",1.6,nan,1,5409.38,2,0.02,0.25
0,227,target,"[(1194, 803)]",[],[1],[0.75],horizontal,"(390.0, 262.0)",0.5833333333333334,0.704,1,5414.736,3,0.02,0.25
0,228,target,"[(1179, 780)]",[],[1],[0.5833333333333334],horizontal,"(390.0, 262.0)",1.1166666666666667,0.539,1,5420.886,3,0.02,0.25
0,229,target,"[(1163, 756)]",[],[1],[0.7333333333333333],horizontal,"(890.0, 762.0)",1.0833333333333333,0.692,1,5427.202,3,0.0,0.25
0,230,catch,"[(1154, 752), (1138, 809)]",[],"[0, 1]",[],vertical,"(390.0, 262.0)",1.6,nan,1,5432.984,3,0.0,0.25
0,231,catch,"[(1181, 767)]",[],[1],[],horizontal,"(890.0, 762.0)",1.6,nan,1,5440.247,3,0.0,0.25
0,232,target,"[(1165, 779)]",[],[1],[0.6166666666666667],vertical,"(390.0, 762.0)",0.4,0.571,1,5446.251,3,0.0,0.25
0,233,target,"[(1178, 769)]",[],[1],[0.65],vertical,"(890.0, 762.0)",0.9833333333333333,0.604,1,5451.376,3,0.0,0.25
0,234,catch,"[(1156, 774)]",[],[1],[],horizontal,"(890.0, 262.0)",1.6,nan,1,5456.969,3,0.0,0.25
0,235,target,"[(1175, 776)]",[],[1],[0.25],horizontal,"(890.0, 262.0)",1.4833333333333334,0.213,1,5463.156,3,0.0,0.25
0,236,target,"[(1182, 781)]",[],[1],[0.5833333333333334],horizontal,"(390.0, 262.0)",0.6333333333333333,0.54,1,5469.403,3,0.0,0.25
0,237,target,"[(1181, 783)]",[],[1],[0.5833333333333334],horizontal,"(890.0, 762.0)",0.4166666666666667,0.536,1,5475.218,3,0.0,0.25
0,238,target,"[(1177, 770)]",[],[1],[0.5666666666666667],vertical,"(890.0, 262.0)",1.05,0.527,1,5480.608,3,0.0,0.25
0,239,target,"[(1174, 780)]",[],[1],[0.5666666666666667],horizontal,"(890.0, 762.0)",0.48333333333333334,0.522,1,5486.265,3,0.0,0.25
0,240,target,"[(1180, 773)]",[],[1],[0.5666666666666667],horizontal,"(890.0, 262.0)",0.6833333333333333,0.521,1,5491.151,3,0.0,0.25
0,241,target,"[(1179, 782)]",[],[1],[0.6166666666666667],vertical,"(890.0, 762.0)",0.3833333333333333,0.573,1,5496.443,3,0.0,0.25
0,242,target,"[(1190, 786)]",[],[1],[0.5833333333333334],horizontal,"(390.0, 262.0)",0.5666666666666667,0.537,1,5501.318,3,0.0,0.25
0,243,target,"[(1174, 808)]",[],[1],[0.5],vertical,"(890.0, 262.0)",1.2833333333333332,0.459,1,5506.409,3,0.0,0.25
0,244,target,"[(1177, 768)]",[],[1],[0.5833333333333334],vertical,"(390.0, 262.0)",0.6666666666666666,0.536,1,5513.0,3,0.0,0.25
0,245,target,"[(1177, 766)]",[],[1],[0.7666666666666666],vertical,"(390.0, 262.0)",0.9833333333333333,0.725,1,5518.452,3,0.0,0.25
0,246,target,"[(1155, 770)]",[],[1],[0.5],vertical,"(390.0, 262.0)",1.2666666666666666,0.458,1,5524.545,3,0.0,0.25
0,247,target,"[(1188, 751), (1154, 804)]",[],"[0, 1]",[0.7],vertical,"(890.0, 262.0)",0.6833333333333333,0.658,1,5530.761,3,0.0,0.25
0,248,catch,"[(1166, 781)]",[],[1],[],vertical,"(390.0, 262.0)",1.6,nan,1,5537.407,3,0.0,0.25
0,249,catch,"[(1177, 773)]",[],[1],[],horizontal,"(890.0, 762.0)",1.6,nan,1,5543.286,3,0.0,0.25
0,250,catch,"[(1184, 771)]",[],[1],[],horizontal,"(890.0, 762.0)",1.6,nan,1,5548.952,3,0.0,0.25
0,251,target,"[(1180, 759)]",[],[1],[0.3],horizontal,"(390.0, 762.0)",1.45,0.265,1,5555.097,3,0.0,0.25
0,252,target,"[(1196, 774)]",[],[1],[0.7166666666666667],vertical,"(390.0, 762.0)",1.0333333333333332,0.673,1,5561.324,3,0.0,0.25
0,253,target,"[(1151, 775)]",[],[1],[0.85],vertical,"(390.0, 762.0)",0.4166666666666667,nan,0,5567.513,0,0.0,0.25
0,254,catch,"[(1131, 786)]",[],[1],[],horizontal,"(390.0, 262.0)",1.6,nan,1,5572.152,1,0.0,0.25
0,255,target,"[(1181, 779)]",[],[1],[0.65],horizontal,"(890.0, 262.0)",0.9,0.615,1,5577.029,1,0.0,0.25
0,256,target,"[(1171, 782)]",[],[1],[0.6333333333333333],horizontal,"(890.0, 762.0)",0.9166666666666666,0.591,1,5581.918,1,0.0,0.25
0,257,catch,"[(1171, 783)]",[],[1],[],vertical,"(390.0, 762.0)",1.6,nan,1,5586.902,2,0.0,0.25
0,258,catch,"[(1145, 812)]",[],[1],[],horizontal,"(890.0, 262.0)",1.6,nan,1,5592.22,2,0.0,0.25
0,259,catch,"[(1180, 779)]",[],[1],[],horizontal,"(390.0, 262.0)",1.6,nan,1,5597.781,2,0.0,0.25
0,260,target,"[(1180, 753), (1155, 816)]",[],"[0, 1]",[0.6166666666666667],vertical,"(390.0, 262.0)",0.35,0.572,1,5603.331,2,0.0,0.25
0,261,target,"[(1155, 781)]",[],[1],[0.75],vertical,"(390.0, 262.0)",1.1333333333333333,0.705,1,5608.745,3,0.0,0.25
0,262,target,"[(1173, 788)]",[],[1],[0.55],vertical,"(890.0, 262.0)",0.4666666666666667,0.504,1,5614.982,3,0.0,0.25
0,263,target,"[(1170, 785)]",[],[1],[0.55],horizontal,"(390.0, 262.0)",0.8333333333333334,0.507,1,5620.143,3,0.0,0.25
0,264,target,"[(1173, 767)]",[],[1],[0.5833333333333334],horizontal,"(890.0, 262.0)",1.1,0.539,1,5625.91,3,0.0,0.25
0,265,target,"[(1155, 780)]",[],[1],[0.7333333333333333],vertical,"(390.0, 262.0)",0.43333333333333335,0.691,1,5631.685,3,0.0,0.25
0,266,target,"[(1174, 760)]",[],[1],[0.7333333333333333],vertical,"(390.0, 262.0)",0.36666666666666664,0.695,1,5637.241,3,0.0,0.25
0,267,catch,"[(1174, 779)]",[],[1],[],vertical,"(890.0, 262.0)",1.6,nan,1,5642.95,3,0.0,0.25
0,268,target,"[(1157, 777)]",[],[1],[0.7333333333333333],vertical,"(390.0, 262.0)",1.0833333333333333,0.69,1,5648.935,3,0.0,0.25
0,269,catch,"[(1186, 778)]",[],[1],[],horizontal,"(390.0, 762.0)",1.6,nan,1,5655.082,3,0.0,0.25
0,270,target,"[(1168, 783)]",[],[1],[0.65],horizontal,"(390.0, 262.0)",0.7666666666666666,0.611,1,5660.884,3,0.0,0.25
0,271,target,"[(1167, 778)]",[],[1],[0.45],vertical,"(390.0, 262.0)",1.3833333333333333,0.407,1,5666.736,3,0.0,0.25
0,272,target,"[(1162, 778)]",[],[1],[],vertical,"(890.0, 262.0)",,"('cti', 1.065)",0,5672.852,0,0.02,0.25
0,273,target,"[(1155, 780)]",[],[1],[0.5666666666666667],horizontal,"(390.0, 762.0)",0.95,0.534,1,5677.231,1,0.02,0.25
0,274,target,"[(1151, 782)]",[],[1],[0.6166666666666667],vertical,"(390.0, 762.0)",0.3833333333333333,0.572,1,5682.45,1,0.02,0.25
0,275,target,"[(1174, 776)]",[],[1],[0.6166666666666667],horizontal,"(890.0, 762.0)",1.1833333333333333,0.572,1,5687.186,1,0.02,0.25
0,276,catch,"[(1175, 779)]",[],[1],[],horizontal,"(890.0, 262.0)",1.6,nan,1,5692.37,2,0.02,0.25
0,277,catch,"[(1177, 758)]",[],[1],[],vertical,"(390.0, 762.0)",1.6,nan,1,5698.017,2,0.02,0.25
0,278,catch,"[(1164, 782)]",[],[1],[],horizontal,"(390.0, 262.0)",1.6,nan,1,5703.202,2,0.02,0.25
0,279,target,"[(1177, 780)]",[],[1],[0.36666666666666664],vertical,"(890.0, 262.0)",1.5333333333333332,0.328,1,5709.001,2,0.02,0.25
0,280,target,"[(1168, 774)]",[],[1],[0.6833333333333333],horizontal,"(390.0, 762.0)",0.7666666666666666,0.639,1,5714.869,3,0.02,0.25
0,281,target,"[(1176, 789)]",[],[1],[0.6],vertical,"(890.0, 762.0)",1.0166666666666666,0.564,1,5720.537,3,0.02,0.25
0,282,target,"[(1180, 785)]",[],[1],[0.7],horizontal,"(390.0, 262.0)",0.5666666666666667,0.659,1,5726.832,3,0.02,0.25
0,283,target,"[(1168, 765)]",[],[1],[0.6666666666666666],horizontal,"(890.0, 262.0)",0.3833333333333333,0.626,1,5732.736,3,0.02,0.25
0,284,catch,"[(1165, 780)]",[],[1],[],horizontal,"(390.0, 762.0)",1.6,nan,1,5738.019,3,0.02,0.25
0,285,target,"[(1179, 781)]",[],[1],[0.5666666666666667],horizontal,"(890.0, 262.0)",0.5666666666666667,0.53,1,5743.738,3,0.02,0.25
0,286,target,"[(1168, 784)]",[],[1],[0.35],horizontal,"(890.0, 262.0)",1.4666666666666666,0.312,1,5749.387,3,0.02,0.25
0,287,catch,"[(1179, 780)]",[],[1],[],horizontal,"(390.0, 262.0)",1.6,nan,1,5755.561,3,0.02,0.25
0,288,target,"[(1175, 780)]",[],[1],[0.85],horizontal,"(390.0, 762.0)",0.6333333333333333,nan,0,5761.37,0,0.02,0.25
0,289,target,"[(1153, 779)]",[],[1],[0.7166666666666667],vertical,"(890.0, 762.0)",0.4666666666666667,0.675,1,5766.035,1,0.02,0.25
0,290,target,"[(1179, 769)]",[],[1],[0.5666666666666667],vertical,"(390.0, 762.0)",0.95,0.521,1,5770.769,1,0.02,0.25
0,291,target,"[(1177, 781)]",[],[1],[0.5833333333333334],vertical,"(390.0, 262.0)",0.43333333333333335,0.544,1,5775.757,1,0.02,0.25
0,292,catch,"[(1176, 779)]",[],[1],[],horizontal,"(890.0, 262.0)",1.6,nan,1,5780.326,2,0.02,0.25
0,293,catch,"[(1180, 781)]",[],[1],[],vertical,"(390.0, 262.0)",1.6,nan,1,5786.117,2,0.02,0.25
0,294,target,"[(1173, 782)]",[],[1],[0.6],horizontal,"(890.0, 262.0)",1.0666666666666667,0.56,1,5791.535,2,0.02,0.25
0,295,target,"[(1174, 759)]",[],[1],[0.85],horizontal,"(890.0, 262.0)",1.1,"('cti', 1.095),nan",0,5797.053,0,0.04,0.25
0,296,target,"[(1154, 780)]",[],[1],[0.5833333333333334],vertical,"(390.0, 262.0)",0.9333333333333333,0.544,1,5802.452,1,0.04,0.25
0,297,target,"[(1165, 781)]",[],[1],[0.6833333333333333],vertical,"(890.0, 762.0)",1.0166666666666666,0.639,1,5807.285,1,0.04,0.25
0,298,target,"[(1174, 783)]",[],[1],[0.6],horizontal,"(890.0, 762.0)",1.2666666666666666,0.556,1,5812.796,1,0.04,0.25
0,299,target,"[(1179, 780)]",[],[1],[0.5833333333333334],horizontal,"(890.0, 262.0)",0.5666666666666667,0.541,1,5818.269,2,0.04,0.25
0,300,catch,"[(1160, 780)]",[],[1],[],horizontal,"(890.0, 262.0)",1.6,nan,1,5823.762,2,0.04,0.25
0,301,target,"[(1172, 801)]",[],[1],[0.6833333333333333],horizontal,"(390.0, 762.0)",0.95,0.637,1,5829.809,2,0.04,0.25
0,302,target,"[(1169, 780)]",[],[1],[0.65],horizontal,"(890.0, 762.0)",0.55,0.607,1,5835.252,2,0.04,0.25
0,303,catch,"[(1152, 782)]",[],[1],[],horizontal,"(390.0, 262.0)",1.6,nan,1,5840.616,3,0.04,0.25
0,304,catch,"[(1176, 781)]",[],[1],[],vertical,"(890.0, 262.0)",1.6,nan,1,5846.93,3,0.04,0.25
0,305,target,"[(1162, 781)]",[],[1],[0.85],vertical,"(390.0, 762.0)",0.6,nan,0,5852.587,0,0.04,0.25
0,306,target,"[(1153, 790)]",[],[1],[0.6166666666666667],horizontal,"(390.0, 262.0)",0.4666666666666667,0.58,1,5856.853,1,0.04,0.25
0,307,catch,"[(1168, 770)]",[],[1],[],horizontal,"(390.0, 762.0)",1.6,nan,1,5861.919,1,0.04,0.25
0,308,target,"[(1167, 808)]",[],[1],[0.5333333333333333],horizontal,"(890.0, 762.0)",1.2,0.497,1,5866.92,1,0.04,0.25
0,309,catch,"[(1175, 781)]",[],[1],[],horizontal,"(390.0, 762.0)",1.6,nan,1,5872.47,2,0.04,0.25
0,310,catch,"[(1171, 803)]",[],[1],[],vertical,"(390.0, 262.0)",1.6,nan,1,5877.862,2,0.04,0.25
0,311,target,"[(1161, 800)]",[],[1],[0.85],vertical,"(390.0, 262.0)",0.4,nan,0,5904.101,0,0.04,0.25
0,312,catch,"[(1165, 817)]",[],[1],[],horizontal,"(890.0, 762.0)",1.6,nan,1,5909.369,1,0.04,0.25
0,313,target,"[(1191, 787)]",[],[1],[0.7],vertical,"(390.0, 262.0)",1.2,0.655,1,5914.93,1,0.04,0.25
0,314,target,"[(1191, 804)]",[],[1],[0.7333333333333333],horizontal,"(890.0, 762.0)",0.5666666666666667,0.692,1,5920.387,1,0.04,0.25
0,315,catch,"[(1192, 766)]",[],[1],[],vertical,"(390.0, 762.0)",1.6,nan,1,5925.187,2,0.04,0.25
0,316,target,"[(1180, 770)]",[],[1],[0.55],horizontal,"(390.0, 762.0)",1.3166666666666667,0.509,1,5930.954,2,0.04,0.25
0,317,target,"[(1192, 791)]",[],[1],[0.5333333333333333],vertical,"(390.0, 262.0)",1.3,0.492,1,5936.804,2,0.04,0.25
0,318,target,"[(1177, 781)]",[],[1],[0.6166666666666667],horizontal,"(890.0, 762.0)",0.6166666666666667,0.577,1,5942.869,2,0.04,0.25
0,319,target,"[(1192, 780)]",[],[1],[0.4666666666666667],horizontal,"(390.0, 262.0)",1.3333333333333333,0.435,1,5948.182,3,0.04,0.25
0,320,catch,"[(1194, 779)]",[],[1],[],vertical,"(890.0, 762.0)",1.6,nan,1,5954.487,3,0.04,0.25
0,321,target,"[(1177, 790)]",[],[1],[0.65],vertical,"(390.0, 762.0)",0.7166666666666667,0.609,1,5960.459,3,0.04,0.25
0,322,catch,"[(1190, 770)]",[],[1],[],horizontal,"(890.0, 262.0)",1.6,nan,1,5966.131,3,0.02,0.25
0,323,target,"[(1190, 782)]",[],[1],[0.7666666666666666],vertical,"(390.0, 262.0)",0.4166666666666667,0.721,1,5972.138,3,0.02,0.25
0,324,catch,"[(1188, 779)]",[],[1],[],horizontal,"(890.0, 762.0)",1.6,nan,1,5977.768,3,0.02,0.25
0,325,target,"[(1190, 780)]",[],[1],[0.75],vertical,"(390.0, 262.0)",1.05,0.708,1,5983.521,3,0.02,0.25
0,326,catch,"[(1183, 770)]",[],[1],[],vertical,"(890.0, 762.0)",1.6,nan,1,5989.714,3,0.02,0.25
0,327,target,"[(1190, 778)]",[],[1],[0.5666666666666667],horizontal,"(390.0, 762.0)",1.15,0.526,1,5995.837,3,0.02,0.25
0,328,target,"[(1192, 780)]",[],[1],[0.5833333333333334],horizontal,"(390.0, 262.0)",0.7333333333333333,0.539,1,6002.07,3,0.02,0.25
0,329,catch,"[(1190, 758)]",[],[1],[],horizontal,"(890.0, 762.0)",1.6,nan,1,6007.342,3,0.02,0.25
0,330,target,"[(1191, 761)]",[],[1],[0.6],horizontal,"(890.0, 762.0)",0.8,0.556,1,6013.586,3,0.02,0.25
0,331,target,"[(1180, 764)]",[],[1],[0.5666666666666667],horizontal,"(390.0, 762.0)",1.3166666666666667,0.534,1,6019.068,3,0.02,0.25
0,332,target,"[(1188, 783)]",[],[1],[0.7],vertical,"(890.0, 762.0)",1.1,0.659,1,6025.07,3,0.02,0.25
0,333,target,"[(1186, 782)]",[],[1],[0.7],vertical,"(890.0, 762.0)",1.1333333333333333,0.654,1,6031.477,3,0.02,0.25
0,334,catch,"[(1177, 756)]",[],[1],[],vertical,"(890.0, 762.0)",1.6,"('cti', 1.594),nan",0,6037.775,0,0.04,0.25
0,335,catch,"[(1167, 777)]",[],[1],[],vertical,"(390.0, 262.0)",1.6,nan,1,6042.703,1,0.04,0.25
0,336,target,"[(1181, 779)]",[],[1],[0.65],vertical,"(390.0, 762.0)",1.15,0.61,1,6048.247,1,0.04,0.25
0,337,catch,"[(1180, 790)]",[],[1],[],horizontal,"(390.0, 262.0)",1.6,nan,1,6053.421,1,0.04,0.25
0,338,target,"[(1180, 756)]",[],[1],[0.5666666666666667],horizontal,"(890.0, 262.0)",1.0166666666666666,0.526,1,6058.437,2,0.04,0.25
0,339,catch,"[(1190, 779)]",[],[1],[],vertical,"(390.0, 762.0)",1.6,nan,1,6064.24,2,0.04,0.25
0,340,target,"[(1190, 780)]",[],[1],[0.7166666666666667],vertical,"(390.0, 262.0)",0.4166666666666667,0.671,1,6069.553,2,0.04,0.25
0,341,target,"[(1194, 763)]",[],[1],[0.3833333333333333],vertical,"(390.0, 762.0)",1.4833333333333334,0.351,1,6074.538,2,0.04,0.25
0,342,target,"[(1215, 781)]",[],[1],[0.7],vertical,"(890.0, 262.0)",1.0666666666666667,0.652,1,6080.882,3,0.04,0.25
0,343,target,"[(1180, 766)]",[],[1],[0.5666666666666667],horizontal,"(890.0, 762.0)",0.5666666666666667,0.522,1,6087.138,3,0.04,0.25
0,344,catch,"[(1180, 762)]",[],[1],[],vertical,"(390.0, 262.0)",1.6,nan,1,6092.321,3,0.04,0.25
0,345,catch,"[(1177, 780)]",[],[1],[],vertical,"(390.0, 762.0)",1.6,nan,1,6098.49,3,0.02,0.25
0,346,catch,"[(1185, 783)]",[],[1],[],horizontal,"(890.0, 262.0)",1.6,nan,1,6104.654,3,0.02,0.25
0,347,target,"[(1180, 778)]",[],[1],[0.7333333333333333],horizontal,"(390.0, 262.0)",0.8,0.681,1,6110.686,3,0.02,0.25
0,348,target,"[(1172, 809)]",[],[1],[0.85],vertical,"(390.0, 262.0)",0.4,nan,0,6116.36,0,0.02,0.25
0,349,target,"[(1145, 781)]",[],[1],[0.55],horizontal,"(390.0, 262.0)",1.3833333333333333,0.51,1,6120.563,1,0.02,0.25
0,350,target,"[(1180, 780)]",[],[1],[0.85],horizontal,"(390.0, 762.0)",0.6333333333333333,nan,0,6126.646,0,0.02,0.25
0,351,target,"[(1150, 775)]",[],[1],[0.6166666666666667],vertical,"(890.0, 762.0)",0.45,0.567,1,6131.254,1,0.02,0.25
0,352,catch,"[(1175, 784)]",[],[1],[],vertical,"(390.0, 262.0)",1.6,nan,1,6135.888,1,0.02,0.25
0,353,target,"[(1159, 790)]",[],[1],[0.5333333333333333],horizontal,"(890.0, 262.0)",0.8166666666666667,0.493,1,6140.786,1,0.02,0.25
0,354,target,"[(1192, 783)]",[],[1],[0.7333333333333333],vertical,"(390.0, 762.0)",1.15,0.683,1,6145.919,2,0.02,0.25
0,355,catch,"[(1190, 792)]",[],[1],[],horizontal,"(890.0, 762.0)",1.6,nan,1,6151.579,2,0.02,0.25
0,356,target,"[(1191, 785)]",[],[1],[0.85],horizontal,"(390.0, 262.0)",0.6833333333333333,nan,0,6157.302,0,0.02,0.25
0,357,catch,"[(1155, 780)]",[],[1],[],vertical,"(890.0, 762.0)",1.6,nan,1,6162.42,1,0.02,0.25
0,358,target,"[(1180, 756)]",[],[1],[0.6],horizontal,"(390.0, 262.0)",0.9166666666666666,0.56,1,6167.606,1,0.02,0.25
0,359,target,"[(1186, 780)]",[],[1],[0.5333333333333333],vertical,"(890.0, 262.0)",1.3333333333333333,0.493,1,6172.686,1,0.02,0.25
0,360,target,"[(1180, 781)]",[],[1],[0.65],vertical,"(390.0, 262.0)",0.6833333333333333,0.607,1,6178.16,2,0.02,0.25
0,361,target,"[(1180, 783)]",[],[1],[0.5666666666666667],horizontal,"(890.0, 262.0)",1.35,0.52,1,6183.776,2,0.02,0.25
0,362,target,"[(1195, 781)]",[],[1],[0.45],vertical,"(390.0, 262.0)",1.4333333333333333,0.412,1,6189.277,2,0.02,0.25
0,363,target,"[(1177, 778)]",[],[1],[0.55],vertical,"(890.0, 262.0)",0.9666666666666667,0.507,1,6194.937,2,0.02,0.25
0,364,target,"[(1180, 760)]",[],[1],[0.8],horizontal,"(890.0, 262.0)",0.48333333333333334,0.753,1,6200.103,3,0.02,0.25
0,365,target,"[(1192, 780)]",[],[1],[0.6166666666666667],vertical,"(390.0, 762.0)",1.3166666666666667,0.571,1,6205.51,3,0.02,0.25
0,366,catch,"[(1189, 768)]",[],[1],[],horizontal,"(890.0, 762.0)",1.6,nan,1,6211.773,3,0.02,0.25
0,367,target,"[(1189, 749), (1175, 790)]",[],"[0, 1]",[0.55],vertical,"(890.0, 262.0)",0.8166666666666667,0.51,1,6217.582,3,0.02,0.25
0,368,target,"[(1185, 780)]",[],[1],[0.55],vertical,"(890.0, 262.0)",1.0333333333333332,0.508,1,6224.42,3,0.02,0.25
0,369,target,"[(1194, 786)]",[],[1],[0.85],horizontal,"(390.0, 262.0)",0.5166666666666666,nan,0,6229.922,0,0.02,0.25
0,370,catch,"[(1154, 792)]",[],[1],[],vertical,"(390.0, 262.0)",1.6,nan,1,6234.503,1,0.02,0.25
0,371,catch,"[(1187, 772)]",[],[1],[],vertical,"(390.0, 262.0)",1.6,nan,1,6239.703,1,0.02,0.25
0,372,target,"[(1163, 761)]",[],[1],[0.6833333333333333],vertical,"(390.0, 262.0)",0.6333333333333333,0.636,1,6244.698,1,0.02,0.25
0,373,target,"[(1150, 790)]",[],[1],[0.5333333333333333],horizontal,"(890.0, 262.0)",0.4166666666666667,0.494,1,6249.454,2,0.02,0.25
0,374,target,"[(1194, 779)]",[],[1],[0.5666666666666667],horizontal,"(390.0, 262.0)",0.6666666666666666,0.525,1,6254.219,2,0.02,0.25
0,375,catch,"[(1192, 790)]",[],[1],[],vertical,"(890.0, 762.0)",1.6,nan,1,6259.445,2,0.02,0.25
0,376,target,"[(1174, 781)]",[],[1],[0.6166666666666667],horizontal,"(890.0, 762.0)",0.7166666666666667,0.57,1,6265.28,2,0.02,0.25
0,377,catch,"[(1190, 765)]",[],[1],[],horizontal,"(390.0, 762.0)",1.6,nan,1,6270.627,3,0.02,0.25
0,378,target,"[(1172, 771)]",[],[1],[0.6],horizontal,"(890.0, 262.0)",1.0166666666666666,0.562,1,6277.121,3,0.02,0.25
0,379,target,"[(1183, 775)]",[],[1],[0.35],horizontal,"(890.0, 762.0)",1.4333333333333333,0.313,1,6283.429,3,0.02,0.25
0,380,target,"[(1175, 772)]",[],[1],[0.5666666666666667],vertical,"(390.0, 262.0)",0.6166666666666667,0.522,1,6289.837,3,0.02,0.25
0,381,target,"[(1179, 780)]",[],[1],[0.6],horizontal,"(390.0, 262.0)",0.7166666666666667,0.561,1,6295.403,3,0.02,0.25
0,382,target,"[(1182, 779)]",[],[1],[0.85],horizontal,"(390.0, 262.0)",0.6833333333333333,nan,0,6301.17,0,0.02,0.25
0,383,catch,"[(1156, 791)]",[],[1],[],horizontal,"(890.0, 262.0)",1.6,nan,1,6305.57,1,0.02,0.25
0,384,target,"[(1159, 751), (1175, 797)]",[],"[0, 1]",[0.5166666666666666],vertical,"(390.0, 262.0)",1.1666666666666667,0.48,1,6310.803,1,0.0,0.25
0,385,target,"[(1189, 780)]",[],[1],[0.6],horizontal,"(890.0, 262.0)",0.36666666666666664,0.554,1,6317.745,1,0.0,0.25
0,386,target,"[(1181, 779)]",[],[1],[0.85],horizontal,"(890.0, 762.0)",0.6,nan,0,6322.553,0,0.0,0.25
0,387,target,"[(1180, 785)]",[],[1],[0.85],vertical,"(390.0, 762.0)",1.1666666666666667,nan,0,6326.656,0,0.0,0.25
0,388,catch,"[(1150, 804)]",[],[1],[],horizontal,"(890.0, 762.0)",1.6,nan,1,6331.47,1,0.0,0.25
0,389,target,"[(1179, 784)]",[],[1],[0.3],horizontal,"(890.0, 262.0)",1.5333333333333332,0.264,1,6351.052,1,0.0,0.25
0,390,target,"[(1180, 776)]",[],[1],[0.7],vertical,"(890.0, 262.0)",1.0166666666666666,0.672,1,6356.637,1,0.0,0.25
0,391,catch,"[(1185, 780)]",[],[1],[],horizontal,"(390.0, 762.0)",1.6,nan,1,6361.769,2,0.0,0.25
0,392,target,"[(1180, 766)]",[],[1],[0.6],horizontal,"(890.0, 262.0)",1.35,0.562,1,6367.482,2,0.0,0.25
0,393,target,"[(1180, 779)]",[],[1],[0.65],horizontal,"(890.0, 262.0)",0.9333333333333333,0.607,1,6373.514,2,0.0,0.25
0,394,target,"[(1195, 779)]",[],[1],[0.6],horizontal,"(890.0, 762.0)",1.1166666666666667,0.559,1,6378.763,2,0.0,0.25
0,395,catch,"[(1192, 781)]",[],[1],[],vertical,"(890.0, 262.0)",1.6,nan,1,6384.731,3,0.0,0.25
0,396,target,"[(1192, 805)]",[],[1],[0.26666666666666666],horizontal,"(890.0, 762.0)",1.4833333333333334,0.228,1,6390.525,3,0.0,0.25
0,397,target,"[(1180, 775)]",[],[1],[0.5833333333333334],horizontal,"(390.0, 762.0)",1.2333333333333334,0.542,1,6396.787,3,0.0,0.25
0,398,target,"[(1153, 776)]",[],[1],[0.3833333333333333],vertical,"(890.0, 762.0)",1.5333333333333332,0.345,1,6402.528,3,0.0,0.25
0,399,target,"[(1190, 776)]",[],[1],[0.6166666666666667],horizontal,"(390.0, 762.0)",0.9833333333333333,0.575,1,6409.003,3,0.0,0.25
0,400,target,"[(1180, 783)]",[],[1],[0.6],vertical,"(890.0, 762.0)",0.36666666666666664,0.553,1,6415.183,3,0.0,0.25
0,401,target,"[(1180, 776)]",[],[1],[0.6],horizontal,"(890.0, 762.0)",0.7666666666666666,0.562,1,6420.383,3,0.0,0.25
0,402,catch,"[(1182, 775)]",[],[1],[],vertical,"(390.0, 262.0)",1.6,nan,1,6426.203,3,0.0,0.25
0,403,catch,"[(1181, 766)]",[],[1],[],vertical,"(390.0, 762.0)",1.6,nan,1,6432.07,3,0.0,0.25
0,404,catch,"[(1180, 776)]",[],[1],[],horizontal,"(390.0, 262.0)",1.6,nan,1,6437.843,3,0.0,0.25
0,405,target,"[(1180, 779)]",[],[1],[0.5833333333333334],horizontal,"(890.0, 762.0)",1.1833333333333333,0.548,1,6443.461,3,0.0,0.25
0,406,target,"[(1183, 779)]",[],[1],[0.5666666666666667],horizontal,"(890.0, 262.0)",0.5833333333333334,0.525,1,6449.42,3,0.0,0.25
0,407,catch,"[(1183, 786)]",[],[1],[],horizontal,"(890.0, 762.0)",1.6,nan,1,6454.576,3,0.0,0.25
0,408,target,"[(1158, 773)]",[],[1],[0.65],vertical,"(890.0, 762.0)",1.15,0.607,1,6460.233,3,0.0,0.25
0,409,target,"[(1180, 777)]",[],[1],[0.6333333333333333],vertical,"(390.0, 262.0)",1.0833333333333333,0.592,1,6466.191,3,0.0,0.25
0,410,target,"[(1195, 819)]",[],[1],[0.6166666666666667],horizontal,"(390.0, 262.0)",0.6166666666666667,0.573,1,6472.41,3,0.0,0.25
0,411,target,"[(1179, 812)]",[],[1],[0.7333333333333333],horizontal,"(890.0, 762.0)",0.43333333333333335,0.691,1,6477.921,3,0.0,0.25
0,412,target,"[(1182, 777)]",[],[1],[0.5666666666666667],horizontal,"(890.0, 762.0)",1.2333333333333334,0.521,1,6483.972,3,0.0,0.25
0,413,target,"[(1155, 780)]",[],[1],[0.6166666666666667],vertical,"(890.0, 762.0)",0.4166666666666667,0.571,1,6490.282,3,0.0,0.25
0,414,target,"[(1176, 761)]",[],[1],[0.55],vertical,"(890.0, 762.0)",1.2333333333333334,0.506,1,6495.722,3,0.0,0.25
0,415,target,"[(1180, 777)]",[],[1],[0.6333333333333333],horizontal,"(890.0, 762.0)",0.7166666666666667,0.595,1,6501.371,3,0.0,0.25
0,416,catch,"[(1155, 790)]",[],[1],[],vertical,"(890.0, 262.0)",1.6,nan,1,6506.989,3,0.0,0.25
0,417,target,"[(1180, 782)]",[],[1],[0.43333333333333335],vertical,"(890.0, 262.0)",1.4833333333333334,0.393,1,6512.954,3,0.0,0.25
0,418,catch,"[(1175, 777)]",[],[1],[],horizontal,"(890.0, 262.0)",1.6,nan,1,6519.488,3,0.0,0.25
0,419,target,"[(1189, 779)]",[],[1],[0.55],horizontal,"(890.0, 262.0)",1.2166666666666666,0.507,1,6525.587,3,0.0,0.25
0,420,target,"[(1161, 761)]",[],[1],[0.5833333333333334],vertical,"(390.0, 262.0)",1.45,0.543,1,6531.555,3,0.0,0.25
0,421,target,"[(1158, 772)]",[],[1],[0.6],vertical,"(890.0, 262.0)",0.65,0.561,1,6537.704,3,0.0,0.25
0,422,target,"[(1180, 785)]",[],[1],[0.5833333333333334],horizontal,"(890.0, 262.0)",0.9333333333333333,0.542,1,6543.221,3,0.0,0.25
0,423,target,"[(1185, 775)]",[],[1],[0.5833333333333334],vertical,"(890.0, 262.0)",0.35,0.539,1,6548.954,3,0.0,0.25
0,424,target,"[(1175, 751), (1154, 806)]",[],"[0, 1]",[0.7],horizontal,"(890.0, 762.0)",0.55,0.655,1,6554.371,3,0.0,0.25
0,425,catch,"[(1158, 775)]",[],[1],[],horizontal,"(890.0, 762.0)",1.6,nan,1,6561.504,3,0.0,0.25
0,426,target,"[(1170, 774)]",[],[1],[0.43333333333333335],horizontal,"(390.0, 262.0)",1.4833333333333334,0.388,1,6567.147,3,0.0,0.25
0,427,target,"[(1176, 785)]",[],[1],[0.6833333333333333],horizontal,"(390.0, 762.0)",0.9,0.638,1,6573.093,3,0.0,0.25
0,428,target,"[(1180, 779)]",[],[1],[0.5666666666666667],vertical,"(890.0, 762.0)",0.8666666666666667,0.526,1,6578.803,3,0.0,0.25
0,429,target,"[(1156, 776)]",[],[1],[0.85],vertical,"(890.0, 762.0)",0.4,nan,0,6584.654,0,0.0,0.25
0,430,target,"[(1157, 800)]",[],[1],[0.7166666666666667],horizontal,"(890.0, 262.0)",0.5333333333333333,0.673,1,6589.232,1,0.0,0.25
0,431,catch,"[(1150, 777)]",[],[1],[],vertical,"(890.0, 762.0)",1.6,nan,1,6594.378,1,0.0,0.25
0,432,target,"[(1190, 776)]",[],[1],[0.75],vertical,"(390.0, 262.0)",1.1,0.71,1,6599.41,1,0.0,0.25
0,433,target,"[(1180, 780)]",[],[1],[0.75],horizontal,"(890.0, 762.0)",1.0,0.714,1,6605.021,2,0.0,0.25
0,434,target,"[(1190, 786)]",[],[1],[0.6],vertical,"(890.0, 762.0)",1.05,0.554,1,6611.007,2,0.0,0.25
0,435,target,"[(1185, 779)]",[],[1],[0.85],vertical,"(390.0, 262.0)",0.8666666666666667,nan,0,6616.668,0,0.0,0.25
0,436,target,"[(1150, 777)]",[],[1],[0.6666666666666666],horizontal,"(890.0, 762.0)",0.9666666666666667,0.634,1,6621.322,1,0.0,0.25
0,437,target,"[(1183, 775)]",[],[1],[0.5666666666666667],vertical,"(890.0, 262.0)",0.4,0.532,1,6626.818,1,0.0,0.25
0,438,target,"[(1181, 785)]",[],[1],[0.6666666666666666],vertical,"(390.0, 262.0)",1.3666666666666667,0.627,1,6631.453,1,0.0,0.25
0,439,catch,"[(1181, 777)]",[],[1],[],vertical,"(890.0, 762.0)",1.6,nan,1,6636.722,2,0.0,0.25
0,440,catch,"[(1185, 788)]",[],[1],[],vertical,"(390.0, 762.0)",1.6,nan,1,6642.555,2,0.0,0.25
0,441,target,"[(1190, 780)]",[],[1],[0.7333333333333333],horizontal,"(890.0, 762.0)",0.5666666666666667,0.698,1,6647.705,2,0.0,0.25
0,442,target,"[(1192, 786)]",[],[1],[0.45],horizontal,"(390.0, 262.0)",1.4,0.409,1,6653.133,2,0.0,0.25
0,443,target,"[(1179, 775)]",[],[1],[0.85],vertical,"(890.0, 762.0)",0.55,nan,0,6658.955,0,0.0,0.25
0,444,target,"[(1180, 785)]",[],[1],[0.6333333333333333],vertical,"(390.0, 262.0)",0.7333333333333333,0.594,1,6663.349,1,0.0,0.25
0,445,catch,"[(1145, 776)]",[],[1],[],vertical,"(890.0, 262.0)",1.6,nan,1,6668.35,1,0.0,0.25
0,446,catch,"[(1181, 797)]",[],[1],[],horizontal,"(390.0, 262.0)",1.6,nan,1,6697.638,1,0.0,0.25
0,447,target,"[(1161, 775)]",[],[1],[0.6],vertical,"(390.0, 762.0)",1.2,0.556,1,6702.857,2,0.0,0.25
0,448,catch,"[(1170, 778)]",[],[1],[],horizontal,"(390.0, 762.0)",,"('cti', 1.556),nan",0,6708.639,0,0.02,0.25
0,449,target,"[(1179, 759)]",[],[1],[0.5333333333333333],horizontal,"(890.0, 262.0)",1.1166666666666667,0.49,1,6713.538,1,0.02,0.25
0,450,target,"[(1169, 751), (1170, 794)]",[],"[0, 1]",[0.85],vertical,"(390.0, 762.0)",0.75,nan,0,6718.737,0,0.02,0.25
0,451,target,"[(1150, 780)]",[],[1],[0.65],horizontal,"(390.0, 762.0)",0.4666666666666667,0.606,1,6724.522,1,0.02,0.25
0,452,catch,"[(1170, 776)]",[],[1],[],vertical,"(390.0, 262.0)",1.6,nan,1,6729.153,1,0.02,0.25
0,453,target,"[(1181, 789)]",[],[1],[0.3],vertical,"(390.0, 262.0)",1.5166666666666666,0.263,1,6734.189,1,0.02,0.25
0,454,target,"[(1177, 766)]",[],[1],[0.6166666666666667],horizontal,"(390.0, 262.0)",1.4666666666666666,0.581,1,6739.656,2,0.02,0.25
0,455,target,"[(1178, 776)]",[],[1],[0.7],vertical,"(890.0, 762.0)",1.1,0.655,1,6745.306,2,0.02,0.25
0,456,target,"[(1180, 776)]",[],[1],[0.7333333333333333],vertical,"(390.0, 262.0)",0.5666666666666667,0.683,1,6750.787,2,0.02,0.25
0,457,catch,"[(1180, 789)]",[],[1],[],horizontal,"(390.0, 762.0)",1.6,nan,1,6755.772,2,0.02,0.25
0,458,catch,"[(1155, 780)]",[],[1],[],horizontal,"(390.0, 762.0)",1.6,nan,1,6760.955,3,0.02,0.25
0,459,catch,"[(1165, 780)]",[],[1],[],horizontal,"(890.0, 762.0)",1.6,nan,1,6767.056,3,0.02,0.25
0,460,catch,"[(1155, 789)]",[],[1],[],vertical,"(890.0, 762.0)",1.6,nan,1,6772.804,3,0.02,0.25
0,461,target,"[(1180, 776)]",[],[1],[0.65],vertical,"(390.0, 262.0)",1.05,0.626,1,6778.406,3,0.02,0.25
0,462,catch,"[(1182, 778)]",[],[1],[],horizontal,"(390.0, 262.0)",1.6,nan,1,6784.745,3,0.02,0.25
0,463,catch,"[(1181, 775)]",[],[1],[],horizontal,"(390.0, 762.0)",1.6,nan,1,6790.737,3,0.02,0.25
0,464,target,"[(1162, 776)]",[],[1],[0.6333333333333333],vertical,"(390.0, 262.0)",0.5833333333333334,0.589,1,6796.771,3,0.02,0.25
0,465,target,"[(1176, 770)]",[],[1],[0.5833333333333334],vertical,"(890.0, 762.0)",1.45,0.542,1,6802.204,3,0.02,0.25
0,466,target,"[(1183, 766)]",[],[1],[0.5666666666666667],vertical,"(390.0, 262.0)",1.4,0.522,1,6808.555,3,0.02,0.25
0,467,target,"[(1170, 774)]",[],[1],[0.5],horizontal,"(890.0, 262.0)",1.0,0.459,1,6814.65,3,0.02,0.25
0,468,target,"[(1158, 778)]",[],[1],[0.6],vertical,"(890.0, 262.0)",0.8333333333333334,0.553,1,6820.331,3,0.02,0.25
0,469,catch,"[(1156, 773)]",[],[1],[],vertical,"(890.0, 262.0)",1.6,nan,1,6826.065,3,0.02,0.25
0,470,target,"[(1180, 778)]",[],[1],[0.6],horizontal,"(890.0, 262.0)",1.0833333333333333,0.554,1,6832.033,3,0.02,0.25
0,471,target,"[(1158, 828)]",[],[1],[0.5666666666666667],horizontal,"(390.0, 762.0)",0.85,0.528,1,6837.905,3,0.02,0.25
0,472,target,"[(1167, 804)]",[],[1],[0.85],vertical,"(390.0, 762.0)",0.6166666666666667,nan,0,6906.357,0,0.02,0.25
0,473,target,"[(1173, 809)]",[],[1],[0.7333333333333333],vertical,"(890.0, 762.0)",1.05,0.683,1,6910.95,1,0.02,0.25
0,474,target,"[(1180, 780)]",[],[1],[0.5333333333333333],vertical,"(890.0, 262.0)",0.9166666666666666,0.493,1,6916.338,1,0.02,0.25
0,475,target,"[(1193, 791)]",[],[1],[0.85],vertical,"(890.0, 262.0)",0.48333333333333334,nan,0,6921.212,0,0.02,0.25
0,476,target,"[(1160, 786)]",[],[1],[0.55],horizontal,"(390.0, 762.0)",1.2333333333333334,0.51,1,6925.431,1,0.02,0.25
0,477,target,"[(1190, 802)]",[],[1],[0.6],horizontal,"(390.0, 762.0)",0.8,0.558,1,6930.923,1,0.02,0.25
0,478,target,"[(1181, 790)]",[],[1],[0.4166666666666667],vertical,"(390.0, 262.0)",1.5333333333333332,0.375,1,6935.667,1,0.02,0.25
0,479,target,"[(1192, 773)]",[],[1],[0.5666666666666667],horizontal,"(390.0, 262.0)",1.5333333333333332,0.525,1,6940.928,2,0.02,0.25
0,480,target,"[(1196, 779)]",[],[1],[0.4],horizontal,"(390.0, 762.0)",1.4166666666666667,0.361,1,6946.725,2,0.02,0.25
0,481,target,"[(1194, 790)]",[],[1],[0.5333333333333333],vertical,"(890.0, 262.0)",0.4166666666666667,0.49,1,6952.697,2,0.02,0.25
0,482,target,"[(1185, 770)]",[],[1],[0.6],vertical,"(390.0, 262.0)",1.2666666666666666,0.56,1,6957.473,2,0.02,0.25
0,483,target,"[(1153, 785)]",[],[1],[0.85],vertical,"(390.0, 762.0)",0.55,nan,0,6962.994,0,0.02,0.25
0,484,target,"[(1153, 780)]",[],[1],[0.5333333333333333],vertical,"(390.0, 762.0)",1.3,0.491,1,6967.744,1,0.02,0.25
0,485,catch,"[(1178, 791)]",[],[1],[],horizontal,"(390.0, 262.0)",1.6,nan,1,6973.254,1,0.02,0.25
0,486,target,"[(1180, 768)]",[],[1],[0.55],vertical,"(890.0, 262.0)",1.0333333333333332,0.506,1,6978.211,1,0.02,0.25
0,487,target,"[(1152, 783)]",[],[1],[0.5166666666666666],vertical,"(890.0, 762.0)",1.25,0.474,1,6983.681,2,0.02,0.25
0,488,target,"[(1179, 763)]",[],[1],[0.5833333333333334],horizontal,"(890.0, 762.0)",0.3833333333333333,0.54,1,6989.631,2,0.02,0.25
0,489,target,"[(1193, 795)]",[],[1],[0.55],vertical,"(390.0, 762.0)",1.3,0.512,1,6994.255,2,0.02,0.25
0,490,target,"[(1181, 751), (1155, 807)]",[],"[0, 1]",[0.5666666666666667],horizontal,"(890.0, 262.0)",0.9166666666666666,0.528,1,6999.972,2,0.02,0.25
0,491,target,"[(1180, 784)]",[],[1],[0.85],horizontal,"(390.0, 762.0)",0.43333333333333335,nan,0,7006.877,0,0.02,0.25
0,492,target,"[(1167, 779)]",[],[1],[0.5666666666666667],vertical,"(890.0, 262.0)",1.3,0.522,1,7011.138,1,0.02,0.25
0,493,catch,"[(1180, 786)]",[],[1],[],horizontal,"(390.0, 262.0)",1.6,nan,1,7016.623,1,0.02,0.25
0,494,target,"[(1183, 770)]",[],[1],[0.5666666666666667],horizontal,"(890.0, 262.0)",1.3333333333333333,0.519,1,7021.829,1,0.02,0.25
0,495,target,"[(1160, 757)]",[],[1],[0.3],horizontal,"(890.0, 762.0)",1.5333333333333332,0.262,1,7027.338,2,0.02,0.25
0,496,catch,"[(1166, 775)]",[],[1],[],horizontal,"(890.0, 262.0)",1.6,nan,1,7033.145,2,0.02,0.25
0,497,target,"[(1175, 785)]",[],[1],[0.4],horizontal,"(390.0, 262.0)",1.4,0.364,1,7038.648,2,0.02,0.25
0,498,catch,"[(1170, 780)]",[],[1],[],horizontal,"(890.0, 262.0)",1.6,nan,1,7044.372,2,0.0,0.25
0,499,target,"[(1154, 814)]",[],[1],[0.55],vertical,"(890.0, 762.0)",1.0833333333333333,0.514,1,7049.64,3,0.0,0.25
0,500,target,"[(1163, 787)]",[],[1],[0.65],horizontal,"(890.0, 762.0)",1.1333333333333333,0.608,1,7055.488,3,0.0,0.25
0,501,target,"[(1184, 776)]",[],[1],[0.5833333333333334],horizontal,"(890.0, 262.0)",0.6166666666666667,0.54,1,7061.481,3,0.0,0.25
0,502,target,"[(1161, 778)]",[],[1],[0.7166666666666667],horizontal,"(390.0, 262.0)",1.2833333333333332,0.679,1,7066.944,3,0.0,0.25
0,503,target,"[(1180, 821)]",[],[1],[0.65],vertical,"(390.0, 762.0)",1.3333333333333333,0.599,1,7072.855,3,0.0,0.25
0,504,target,"[(1181, 777)]",[],[1],[0.85],horizontal,"(390.0, 762.0)",0.43333333333333335,nan,0,7080.238,0,0.0,0.25
0,505,catch,"[(1156, 775)]",[],[1],[],vertical,"(890.0, 762.0)",1.6,nan,1,7084.705,1,0.0,0.25
0,506,target,"[(1184, 776)]",[],[1],[0.5666666666666667],horizontal,"(390.0, 762.0)",0.8333333333333334,0.527,1,7089.834,1,0.0,0.25
0,507,target,"[(1190, 781)]",[],[1],[0.85],vertical,"(390.0, 762.0)",0.65,nan,0,7094.756,0,0.0,0.25
0,508,target,"[(1155, 765)]",[],[1],[0.5666666666666667],vertical,"(390.0, 262.0)",0.35,0.528,1,7099.139,1,0.0,0.25
0,509,target,"[(1183, 779)]",[],[1],[0.5333333333333333],vertical,"(890.0, 262.0)",0.5666666666666667,0.494,1,7103.772,1,0.0,0.25
0,510,catch,"[(1190, 778)]",[],[1],[],horizontal,"(890.0, 762.0)",1.6,nan,1,7108.239,1,0.0,0.25
0,511,catch,"[(1183, 780)]",[],[1],[],vertical,"(390.0, 262.0)",1.6,nan,1,7113.506,2,0.0,0.25
0,512,target,"[(1180, 776)]",[],[1],[0.85],horizontal,"(890.0, 262.0)",0.8,nan,0,7119.123,0,0.0,0.25
0,513,target,"[(1151, 788)]",[],[1],[0.5666666666666667],vertical,"(390.0, 762.0)",0.6333333333333333,0.525,1,7123.611,1,0.0,0.25
0,514,catch,"[(1170, 776)]",[],[1],[],vertical,"(890.0, 762.0)",1.6,nan,1,7128.172,1,0.0,0.25
0,515,target,"[(1180, 788)]",[],[1],[0.45],vertical,"(890.0, 762.0)",1.3333333333333333,0.412,1,7133.11,1,0.0,0.25
0,516,target,"[(1175, 790)]",[],[1],[0.5666666666666667],vertical,"(890.0, 262.0)",0.43333333333333335,0.525,1,7138.595,2,0.0,0.25
0,517,target,"[(1183, 780)]",[],[1],[0.5166666666666666],horizontal,"(390.0, 762.0)",1.35,0.48,1,7143.797,2,0.0,0.25
0,518,target,"[(1184, 779)]",[],[1],[0.35],vertical,"(890.0, 762.0)",1.45,0.312,1,7149.317,2,0.0,0.25
0,519,catch,"[(1184, 781)]",[],[1],[],horizontal,"(890.0, 762.0)",1.6,nan,1,7155.271,2,0.0,0.25
0,520,target,"[(1190, 795)]",[],[1],[0.85],vertical,"(890.0, 262.0)",0.48333333333333334,nan,0,7161.132,0,0.0,0.25
0,521,target,"[(1162, 775)]",[],[1],[0.5833333333333334],vertical,"(890.0, 262.0)",0.65,0.542,1,7165.272,1,0.0,0.25
0,522,target,"[(1163, 758)]",[],[1],[0.55],vertical,"(890.0, 262.0)",1.5,0.509,1,7170.162,1,0.0,0.25
0,523,target,"[(1184, 770)]",[],[1],[0.35],vertical,"(890.0, 762.0)",1.5,0.312,1,7175.754,1,0.0,0.25
0,524,target,"[(1182, 781)]",[],[1],[0.5666666666666667],horizontal,"(890.0, 762.0)",1.2666666666666666,0.526,1,7180.973,2,0.0,0.25
0,525,target,"[(1186, 776)]",[],[1],[0.5833333333333334],vertical,"(390.0, 262.0)",0.55,0.545,1,7186.815,2,0.0,0.25
0,526,target,"[(1175, 756)]",[],[1],[0.5333333333333333],horizontal,"(890.0, 262.0)",0.75,0.493,1,7191.469,2,0.0,0.25
0,527,target,"[(1170, 778)]",[],[1],[0.55],vertical,"(890.0, 762.0)",1.2666666666666666,0.523,1,7196.374,2,0.0,0.25
0,528,target,"[(1180, 781)]",[],[1],[0.55],horizontal,"(390.0, 262.0)",1.2166666666666666,0.519,1,7201.889,3,0.0,0.25
0,529,target,"[(1186, 777)]",[],[1],[0.55],vertical,"(890.0, 762.0)",1.2333333333333334,0.509,1,7208.056,3,0.0,0.25
0,530,target,"[(1175, 780)]",[],[1],[0.5166666666666666],horizontal,"(390.0, 762.0)",1.2666666666666666,0.476,1,7214.238,3,0.0,0.25
0,531,catch,"[(1181, 790)]",[],[1],[],vertical,"(390.0, 762.0)",1.6,nan,1,7220.275,3,0.0,0.25
0,532,target,"[(1183, 781)]",[],[1],[0.5833333333333334],horizontal,"(390.0, 262.0)",0.8,0.547,1,7225.997,3,0.0,0.25
0,533,catch,"[(1180, 782)]",[],[1],[],vertical,"(890.0, 262.0)",1.6,nan,1,7231.49,3,0.0,0.25
0,534,target,"[(1160, 781)]",[],[1],[0.8166666666666667],horizontal,"(890.0, 762.0)",0.4,0.773,1,7237.448,3,0.0,0.25
0,535,catch,"[(1184, 782)]",[],[1],[],vertical,"(390.0, 262.0)",1.6,nan,1,7242.945,3,0.0,0.25
0,536,target,"[(1180, 792)]",[],[1],[0.6333333333333333],vertical,"(390.0, 262.0)",0.7666666666666666,0.582,1,7248.836,3,0.0,0.25
0,537,target,"[(1180, 776)]",[],[1],[0.55],horizontal,"(390.0, 262.0)",1.0166666666666666,0.517,1,7254.628,3,0.0,0.25
0,538,catch,"[(1167, 776)]",[],[1],[],vertical,"(890.0, 262.0)",1.6,nan,1,7260.19,3,0.0,0.25
0,539,target,"[(1156, 752), (1162, 807)]",[],"[0, 1]",[0.85],horizontal,"(390.0, 762.0)",0.3833333333333333,nan,0,7266.023,0,0.0,0.25
0,540,target,"[(1155, 782)]",[],[1],[0.6166666666666667],vertical,"(390.0, 262.0)",1.2333333333333334,0.578,1,7271.172,1,0.0,0.25
0,541,target,"[(1162, 776)]",[],[1],[0.85],vertical,"(390.0, 762.0)",1.0166666666666666,nan,0,7276.506,0,0.0,0.25
0,542,catch,"[(1175, 780)]",[],[1],[],vertical,"(890.0, 762.0)",1.6,nan,1,7281.674,1,0.0,0.25
0,543,catch,"[(1191, 783)]",[],[1],[],horizontal,"(390.0, 762.0)",1.6,nan,1,7286.401,1,0.0,0.25
0,544,catch,"[(1168, 777)]",[],[1],[],vertical,"(890.0, 762.0)",1.6,nan,1,7291.332,1,0.0,0.25
0,545,target,"[(1170, 771)]",[],[1],[0.6333333333333333],horizontal,"(390.0, 262.0)",0.7833333333333333,0.588,1,7296.489,2,0.0,0.25
0,546,catch,"[(1177, 780)]",[],[1],[],horizontal,"(890.0, 262.0)",1.6,nan,1,7301.745,2,0.0,0.25
0,547,target,"[(1177, 774)]",[],[1],[0.5833333333333334],horizontal,"(890.0, 762.0)",1.15,0.544,1,7307.54,2,0.0,0.25
0,548,target,"[(1185, 779)]",[],[1],[0.6166666666666667],horizontal,"(890.0, 762.0)",1.2333333333333334,0.574,1,7313.275,2,0.0,0.25
0,549,target,"[(1178, 778)]",[],[1],[0.5666666666666667],vertical,"(890.0, 762.0)",0.9166666666666666,0.53,1,7319.072,3,0.0,0.25
0,550,target,"[(1162, 776)]",[],[1],[0.5],horizontal,"(890.0, 262.0)",0.6166666666666667,0.466,1,7324.65,3,0.0,0.25
0,551,target,"[(1175, 765)]",[],[1],[0.6333333333333333],vertical,"(390.0, 262.0)",0.5666666666666667,0.593,1,7329.84,3,0.0,0.25
0,552,target,"[(1155, 782)]",[],[1],[0.65],vertical,"(890.0, 762.0)",0.8666666666666667,0.607,1,7335.424,3,0.0,0.25
0,553,target,"[(1175, 776)]",[],[1],[0.5666666666666667],vertical,"(890.0, 262.0)",1.2166666666666666,0.532,1,7341.306,3,0.0,0.25
0,554,target,"[(1173, 775)]",[],[1],[0.5833333333333334],vertical,"(890.0, 262.0)",1.15,0.542,1,7347.492,3,0.0,0.25
0,555,target,"[(1177, 784)]",[],[1],[0.5666666666666667],horizontal,"(890.0, 262.0)",1.2,0.527,1,7353.312,3,0.0,0.25
0,556,target,"[(1159, 778)]",[],[1],[0.85],horizontal,"(390.0, 262.0)",0.4,nan,0,7359.747,0,0.0,0.25
0,557,catch,"[(1150, 776)]",[],[1],[],vertical,"(390.0, 262.0)",1.6,nan,1,7364.039,1,0.0,0.25
0,558,target,"[(1185, 761)]",[],[1],[0.85],vertical,"(390.0, 762.0)",0.8,nan,0,7369.374,0,0.0,0.25
0,559,target,"[(1155, 782)]",[],[1],[0.8],horizontal,"(890.0, 762.0)",0.48333333333333334,0.758,1,7374.092,1,0.0,0.25
0,560,target,"[(1195, 777)]",[],[1],[0.6166666666666667],horizontal,"(890.0, 762.0)",1.2333333333333334,0.579,1,7378.774,1,0.0,0.25
0,561,catch,"[(1180, 780)]",[],[1],[],horizontal,"(390.0, 262.0)",1.6,nan,1,7384.002,1,0.0,0.25
0,562,catch,"[(1180, 784)]",[],[1],[],horizontal,"(890.0, 762.0)",1.6,nan,1,7388.956,2,0.0,0.25
0,563,target,"[(1159, 776)]",[],[1],[0.65],horizontal,"(890.0, 762.0)",0.65,0.602,1,7394.456,2,0.0,0.25
0,564,catch,"[(1180, 791)]",[],[1],[],vertical,"(390.0, 262.0)",1.6,nan,1,7399.957,2,0.0,0.25
0,565,catch,"[(1184, 781)]",[],[1],[],vertical,"(390.0, 762.0)",1.6,nan,1,7405.723,2,0.0,0.25
0,566,catch,"[(1175, 794)]",[],[1],[],horizontal,"(890.0, 262.0)",1.6,nan,1,7411.278,3,0.0,0.25
0,567,target,"[(1170, 757)]",[],[1],[0.6],horizontal,"(390.0, 762.0)",1.1833333333333333,0.564,1,7417.14,3,0.0,0.25
0,568,target,"[(1190, 778)]",[],[1],[0.85],vertical,"(390.0, 762.0)",0.7166666666666667,nan,0,7423.274,0,0.0,0.25
0,569,target,"[(1155, 792)]",[],[1],[0.6666666666666666],vertical,"(890.0, 762.0)",0.55,0.62,1,7427.582,1,0.0,0.25
0,570,target,"[(1179, 782)]",[],[1],[0.8],horizontal,"(890.0, 762.0)",0.5333333333333333,0.758,1,7432.674,1,0.0,0.25
0,571,target,"[(1184, 772)]",[],[1],[0.6166666666666667],vertical,"(390.0, 762.0)",1.0666666666666667,0.576,1,7437.316,1,0.0,0.25
0,572,target,"[(1180, 775)]",[],[1],[0.5666666666666667],horizontal,"(390.0, 262.0)",1.3166666666666667,0.531,1,7442.683,2,0.0,0.25
0,573,target,"[(1184, 790)]",[],[1],[0.6166666666666667],vertical,"(890.0, 762.0)",0.7166666666666667,0.574,1,7448.423,2,0.0,0.25
0,574,catch,"[(1179, 777)]",[],[1],[],horizontal,"(390.0, 262.0)",1.6,nan,1,7453.738,2,0.0,0.25
0,575,catch,"[(1199, 785)]",[],[1],[],horizontal,"(390.0, 262.0)",1.6,nan,1,7459.403,2,0.0,0.25
0,576,target,"[(1169, 787)]",[],[1],[0.6],vertical,"(390.0, 262.0)",0.43333333333333335,0.557,1,7464.909,3,0.0,0.25
0,577,catch,"[(1175, 795)]",[],[1],[],vertical,"(890.0, 762.0)",1.6,nan,1,7470.543,3,0.0,0.25
0,578,target,"[(1157, 787)]",[],[1],[0.36666666666666664],horizontal,"(890.0, 262.0)",1.4,0.33,1,7476.916,3,0.0,0.25
0,579,catch,"[(1148, 752), (1138, 790)]",[],"[0, 1]",[],vertical,"(390.0, 762.0)",1.6,nan,1,7483.219,3,0.0,0.25
0,580,target,"[(1175, 777)]",[],[1],[0.21666666666666667],vertical,"(390.0, 762.0)",1.4666666666666666,0.185,0,7491.477,0,0.0,0.25
0,581,target,"[(1155, 787)]",[],[1],[0.5833333333333334],vertical,"(390.0, 262.0)",0.95,0.547,1,7496.12,1,0.0,0.25
0,582,catch,"[(1160, 775)]",[],[1],[],horizontal,"(390.0, 262.0)",1.6,nan,1,7501.124,1,0.0,0.25
0,583,target,"[(1180, 765)]",[],[1],[0.5666666666666667],horizontal,"(390.0, 262.0)",1.0666666666666667,0.523,1,7506.124,1,0.0,0.25
0,584,catch,"[(1155, 770)]",[],[1],[],horizontal,"(390.0, 762.0)",1.6,nan,1,7511.657,2,0.0,0.25
0,585,target,"[(1180, 772)]",[],[1],[0.5666666666666667],horizontal,"(890.0, 762.0)",1.3333333333333333,0.524,1,7517.49,2,0.0,0.25
0,586,catch,"[(1178, 766)]",[],[1],[],vertical,"(890.0, 762.0)",1.6,nan,1,7523.15,2,0.0,0.25
0,587,catch,"[(1183, 776)]",[],[1],[],vertical,"(890.0, 262.0)",1.6,nan,1,7528.925,2,0.0,0.25
0,588,target,"[(1191, 778)]",[],[1],[0.5333333333333333],horizontal,"(890.0, 262.0)",0.43333333333333335,0.494,1,7534.842,3,0.0,0.25
0,589,target,"[(1175, 776)]",[],[1],[0.5666666666666667],horizontal,"(890.0, 762.0)",0.5,0.522,1,7540.273,3,0.0,0.25
0,590,target,"[(1183, 782)]",[],[1],[0.7666666666666666],vertical,"(390.0, 762.0)",1.0833333333333333,0.731,1,7545.585,3,0.0,0.25
0,591,target,"[(1178, 777)]",[],[1],[0.5666666666666667],vertical,"(890.0, 762.0)",0.5,0.52,1,7551.455,3,0.0,0.25
0,592,target,"[(1160, 790)]",[],[1],[0.85],vertical,"(390.0, 762.0)",0.48333333333333334,nan,0,7556.783,0,0.0,0.25
0,593,target,"[(1153, 781)]",[],[1],[0.5666666666666667],horizontal,"(390.0, 262.0)",1.0166666666666666,0.525,1,7561.096,1,0.0,0.25
0,594,catch,"[(1165, 785)]",[],[1],[],horizontal,"(890.0, 762.0)",1.6,nan,1,7566.119,1,0.0,0.25
0,595,target,"[(1178, 773)]",[],[1],[0.75],horizontal,"(890.0, 762.0)",0.5,0.703,1,7571.07,1,0.0,0.25
0,596,target,"[(1158, 778)]",[],[1],[0.75],horizontal,"(890.0, 762.0)",0.8833333333333333,0.703,1,7575.857,2,0.0,0.25
0,597,catch,"[(1139, 804)]",[],[1],[],horizontal,"(390.0, 762.0)",1.6,nan,1,7581.757,2,0.0,0.25
0,598,catch,"[(1190, 777)]",[],[1],[],vertical,"(890.0, 262.0)",1.6,nan,1,7587.211,2,0.0,0.25
0,599,catch,"[(1178, 775)]",[],[1],[],horizontal,"(390.0, 762.0)",1.6,nan,1,7593.157,2,0.0,0.25
0,600,catch,"[(1191, 777)]",[],[1],[],horizontal,"(890.0, 762.0)",1.6,nan,1,7598.724,3,0.0,0.25
0,601,target,"[(1187, 777)]",[],[1],[0.6],vertical,"(390.0, 262.0)",0.6666666666666666,0.557,1,7604.846,3,0.0,0.25
0,602,catch,"[(1182, 778)]",[],[1],[],horizontal,"(390.0, 262.0)",1.6,nan,1,7610.591,3,0.0,0.25
0,603,target,"[(1180, 785)]",[],[1],[0.3333333333333333],horizontal,"(890.0, 762.0)",1.5333333333333332,0.303,1,7616.69,3,0.0,0.25
0,604,target,"[(1183, 740), (1148, 782)]",[],"[0, 1]",[0.5166666666666666],horizontal,"(390.0, 262.0)",1.2833333333333332,0.469,1,7622.448,3,0.0,0.25
0,605,target,"[(1174, 756)]",[],[1],[0.5833333333333334],horizontal,"(390.0, 262.0)",0.9666666666666667,0.541,1,7630.158,3,0.0,0.25
0,606,target,"[(1170, 799)]",[],[1],[0.55],vertical,"(890.0, 262.0)",1.0666666666666667,0.507,1,7636.086,3,0.0,0.25
0,607,target,"[(1181, 775)]",[],[1],[0.6333333333333333],vertical,"(890.0, 262.0)",0.6,0.587,1,7642.407,3,0.0,0.25
0,608,catch,"[(1173, 781)]",[],[1],[],horizontal,"(390.0, 762.0)",1.6,nan,1,7647.984,3,0.0,0.25
0,609,target,"[(1151, 777)]",[],[1],[0.5],vertical,"(390.0, 762.0)",1.2666666666666666,0.457,1,7653.926,3,0.0,0.25
0,610,target,"[(1180, 765)]",[],[1],[0.85],horizontal,"(390.0, 762.0)",0.4666666666666667,nan,0,7660.191,0,0.0,0.25
0,611,target,"[(1148, 786)]",[],[1],[0.6333333333333333],vertical,"(890.0, 262.0)",1.3166666666666667,0.589,1,7664.589,1,0.0,0.25
0,612,target,"[(1160, 770)]",[],[1],[0.7833333333333333],horizontal,"(890.0, 762.0)",0.9,0.743,1,7670.013,1,0.0,0.25
0,613,target,"[(1181, 778)]",[],[1],[0.6166666666666667],horizontal,"(890.0, 262.0)",0.7166666666666667,0.569,1,7675.283,1,0.0,0.25
0,614,target,"[(1155, 796)]",[],[1],[0.85],horizontal,"(390.0, 262.0)",0.6166666666666667,nan,0,7680.155,0,0.0,0.25
0,615,catch,"[(1155, 761)]",[],[1],[],horizontal,"(390.0, 762.0)",1.6,nan,1,7684.84,1,0.0,0.25
0,616,target,"[(1183, 780)]",[],[1],[0.6333333333333333],vertical,"(890.0, 762.0)",0.55,0.584,1,7690.472,1,0.0,0.25
0,617,target,"[(1170, 779)]",[],[1],[0.5833333333333334],horizontal,"(390.0, 762.0)",1.3833333333333333,0.547,1,7695.003,1,0.0,0.25
0,618,target,"[(1185, 754)]",[],[1],[0.6],horizontal,"(890.0, 762.0)",0.8166666666666667,0.56,1,7700.223,2,0.0,0.25
0,619,target,"[(1178, 776)]",[],[1],[0.6666666666666666],horizontal,"(890.0, 762.0)",0.75,0.624,1,7705.567,2,0.0,0.25
0,620,target,"[(1176, 776)]",[],[1],[0.6],vertical,"(390.0, 262.0)",0.7166666666666667,0.551,1,7710.777,2,0.0,0.25
0,621,target,"[(1165, 780)]",[],[1],[0.85],vertical,"(390.0, 762.0)",0.6666666666666666,nan,0,7715.734,0,0.0,0.25
0,622,target,"[(1155, 775)]",[],[1],[0.5666666666666667],vertical,"(890.0, 262.0)",0.48333333333333334,0.531,1,7720.453,1,0.0,0.25
0,623,target,"[(1169, 786)]",[],[1],[0.7833333333333333],vertical,"(890.0, 762.0)",0.9666666666666667,0.743,1,7725.044,1,0.0,0.25
0,624,target,"[(1174, 790)]",[],[1],[0.5666666666666667],horizontal,"(890.0, 262.0)",0.9166666666666666,0.524,1,7730.366,1,0.0,0.25
0,625,catch,"[(1165, 790)]",[],[1],[],vertical,"(890.0, 762.0)",1.6,nan,1,7735.574,2,0.0,0.25
0,626,target,"[(1183, 776)]",[],[1],[0.5833333333333334],horizontal,"(890.0, 762.0)",0.7166666666666667,0.544,1,7741.292,2,0.0,0.25
0,627,target,"[(1183, 774)]",[],[1],[0.85],horizontal,"(890.0, 762.0)",0.48333333333333334,nan,0,7746.333,0,0.0,0.25
0,628,target,"[(1152, 776)]",[],[1],[0.7333333333333333],vertical,"(890.0, 762.0)",0.43333333333333335,0.688,1,7750.507,1,0.0,0.25
0,629,target,"[(1183, 794)]",[],[1],[0.6],vertical,"(890.0, 262.0)",0.75,0.557,1,7754.698,1,0.0,0.25
0,630,target,"[(1175, 775)]",[],[1],[0.7166666666666667],horizontal,"(390.0, 262.0)",0.55,0.675,1,7759.236,1,0.0,0.25
0,631,target,"[(1178, 778)]",[],[1],[0.55],vertical,"(890.0, 262.0)",0.7666666666666666,0.51,1,7763.974,2,0.0,0.25
0,632,target,"[(1182, 782)]",[],[1],[0.6],vertical,"(890.0, 262.0)",1.15,0.56,1,7769.276,2,0.0,0.25
0,633,catch,"[(1179, 782)]",[],[1],[],horizontal,"(890.0, 262.0)",1.6,nan,1,7775.211,2,0.0,0.25
0,634,catch,"[(1200, 780)]",[],[1],[],horizontal,"(890.0, 262.0)",1.6,nan,1,7781.242,2,0.0,0.25
0,635,target,"[(1184, 772)]",[],[1],[0.7666666666666666],horizontal,"(390.0, 262.0)",0.95,0.722,1,7787.07,3,0.0,0.25
0,636,target,"[(1192, 778)]",[],[1],[0.48333333333333334],horizontal,"(390.0, 762.0)",1.5,0.445,1,7793.538,3,0.0,0.25
0,637,target,"[(1180, 775)]",[],[1],[0.6166666666666667],vertical,"(390.0, 262.0)",0.6333333333333333,0.571,1,7799.929,3,0.0,0.25
0,638,target,"[(1186, 781)]",[],[1],[0.6333333333333333],horizontal,"(390.0, 762.0)",0.4666666666666667,0.59,1,7805.63,3,0.0,0.25
0,639,target,"[(1179, 778)]",[],[1],[0.65],vertical,"(890.0, 762.0)",1.15,0.605,1,7811.1,3,0.0,0.25
0,640,target,"[(1183, 779)]",[],[1],[0.85],horizontal,"(390.0, 762.0)",0.7166666666666667,nan,0,7817.59,0,0.0,0.25
0,641,target,"[(1158, 785)]",[],[1],[0.35],vertical,"(890.0, 262.0)",1.4333333333333333,0.315,1,7822.416,1,0.0,0.25
0,642,catch,"[(1180, 780)]",[],[1],[],horizontal,"(890.0, 762.0)",1.6,nan,1,7828.008,1,0.0,0.25
0,643,target,"[(1159, 766)]",[],[1],[0.7166666666666667],horizontal,"(390.0, 262.0)",1.1833333333333333,0.672,1,7832.933,1,0.0,0.25
0,644,target,"[(1180, 812)]",[],[1],[0.55],horizontal,"(390.0, 262.0)",1.3,0.512,1,7838.437,2,0.0,0.25
0,645,catch,"[(1190, 790)]",[],[1],[],horizontal,"(890.0, 762.0)",1.6,nan,1,7844.641,2,0.0,0.25
0,646,target,"[(1177, 781)]",[],[1],[0.7833333333333333],horizontal,"(390.0, 762.0)",0.9,0.749,1,7850.469,2,0.0,0.25
0,647,target,"[(1176, 775)]",[],[1],[0.5333333333333333],horizontal,"(890.0, 262.0)",1.1166666666666667,0.502,1,7856.141,2,0.0,0.25
0,648,target,"[(1179, 786)]",[],[1],[0.75],horizontal,"(890.0, 762.0)",0.9833333333333333,0.712,1,7861.441,3,0.0,0.25
0,649,target,"[(1183, 789)]",[],[1],[0.4666666666666667],vertical,"(390.0, 762.0)",1.4333333333333333,0.434,1,7867.791,3,0.0,0.25
0,650,catch,"[(1155, 780)]",[],[1],[],horizontal,"(890.0, 262.0)",1.6,nan,1,7874.088,3,0.0,0.25
0,651,target,"[(1150, 765)]",[],[1],[0.5666666666666667],horizontal,"(890.0, 762.0)",0.8166666666666667,0.528,1,7880.307,3,0.0,0.25
0,652,target,"[(1179, 785)]",[],[1],[0.43333333333333335],horizontal,"(890.0, 262.0)",1.45,0.401,1,7885.907,3,0.0,0.25
0,653,target,"[(1177, 778)]",[],[1],[0.6166666666666667],horizontal,"(890.0, 762.0)",1.2166666666666666,0.572,1,7891.724,3,0.0,0.25
0,654,catch,"[(1173, 788)]",[],[1],[],vertical,"(890.0, 262.0)",1.6,nan,1,7897.757,3,0.0,0.25
0,655,target,"[(1155, 782)]",[],[1],[0.4166666666666667],horizontal,"(890.0, 762.0)",1.2666666666666666,0.383,1,7903.775,3,0.0,0.25
0,656,target,"[(1181, 788)]",[],[1],[0.5],horizontal,"(390.0, 762.0)",1.2166666666666666,0.462,1,7909.741,3,0.0,0.25
0,657,target,"[(1182, 774)]",[],[1],[0.6166666666666667],vertical,"(390.0, 262.0)",0.8166666666666667,0.575,1,7916.004,3,0.0,0.25
0,658,target,"[(1162, 756)]",[],[1],[0.5833333333333334],vertical,"(390.0, 262.0)",0.35,0.537,1,7921.674,3,0.0,0.25
0,659,target,"[(1178, 809)]",[],[1],[0.6333333333333333],horizontal,"(890.0, 762.0)",1.15,0.59,1,7926.701,3,0.0,0.25
0,660,target,"[(1155, 783)]",[],[1],[0.55],horizontal,"(890.0, 262.0)",0.43333333333333335,0.51,1,7932.877,3,0.0,0.25
0,661,target,"[(1180, 752), (1139, 793)]",[],"[0, 1]",[0.6],horizontal,"(390.0, 262.0)",1.25,0.561,1,7938.249,3,0.0,0.25
0,662,target,"[(1181, 776)]",[],[1],[0.3],horizontal,"(890.0, 262.0)",1.5,0.266,1,7945.37,3,0.0,0.25
0,663,target,"[(1165, 778)]",[],[1],[0.6666666666666666],vertical,"(390.0, 262.0)",0.48333333333333334,0.627,1,7951.64,3,0.0,0.25
0,664,target,"[(1151, 756)]",[],[1],[0.5833333333333334],horizontal,"(390.0, 262.0)",0.8333333333333334,0.538,1,7956.891,3,0.0,0.25
0,665,catch,"[(1179, 775)]",[],[1],[],vertical,"(390.0, 762.0)",1.6,nan,1,7962.309,3,0.0,0.25
0,666,catch,"[(1175, 780)]",[],[1],[],horizontal,"(390.0, 762.0)",1.6,nan,1,7968.408,3,0.0,0.25
0,667,target,"[(1174, 796)]",[],[1],[0.5666666666666667],vertical,"(890.0, 762.0)",1.1833333333333333,0.519,1,7974.674,3,0.0,0.25
0,668,target,"[(1176, 795)]",[],[1],[0.6],horizontal,"(890.0, 762.0)",0.6666666666666666,0.554,1,7980.773,3,0.0,0.25
0,669,target,"[(1156, 775)]",[],[1],[0.5833333333333334],horizontal,"(390.0, 262.0)",0.7166666666666667,0.551,1,7986.219,3,0.0,0.25
0,670,catch,"[(1160, 764)]",[],[1],[],horizontal,"(890.0, 762.0)",1.6,nan,1,7992.106,3,0.0,0.25
0,671,target,"[(1175, 807)]",[],[1],[0.5666666666666667],horizontal,"(890.0, 762.0)",0.6333333333333333,0.523,1,7997.857,3,0.0,0.25
0,672,catch,"[(1177, 779)]",[],[1],[],vertical,"(890.0, 262.0)",1.6,nan,1,8003.891,3,0.0,0.25
0,673,target,"[(1169, 774)]",[],[1],[0.5666666666666667],horizontal,"(890.0, 762.0)",0.8166666666666667,0.532,1,8010.071,3,0.0,0.25
0,674,target,"[(1161, 773)]",[],[1],[0.5833333333333334],horizontal,"(890.0, 262.0)",0.8,0.543,1,8016.124,3,0.0,0.25
0,675,target,"[(1174, 823)]",[],[1],[0.5333333333333333],vertical,"(390.0, 262.0)",1.05,0.492,1,8021.625,3,0.0,0.25
0,676,catch,"[(1176, 777)]",[],[1],[],vertical,"(390.0, 762.0)",1.6,nan,1,8028.025,3,0.0,0.25
0,677,target,"[(1153, 802)]",[],[1],[0.25],vertical,"(890.0, 262.0)",1.45,0.213,1,8034.173,3,0.0,0.25
0,678,target,"[(1173, 782)]",[],[1],[0.6166666666666667],vertical,"(890.0, 262.0)",1.1666666666666667,0.571,1,8040.373,3,0.0,0.25
0,679,catch,"[(1180, 781)]",[],[1],[],vertical,"(890.0, 762.0)",1.6,nan,1,8046.271,3,0.0,0.25
0,680,target,"[(1154, 782)]",[],[1],[0.4666666666666667],horizontal,"(890.0, 262.0)",0.95,0.429,1,8051.841,3,0.0,0.25
0,681,target,"[(1167, 806)]",[],[1],[0.5666666666666667],vertical,"(890.0, 762.0)",1.2166666666666666,0.524,1,8057.867,3,0.0,0.25
0,682,target,"[(1190, 783)]",[],[1],[0.55],horizontal,"(890.0, 262.0)",0.35,0.508,1,8064.149,3,0.0,0.25
0,683,catch,"[(1175, 776)]",[],[1],[],horizontal,"(890.0, 762.0)",1.6,nan,1,8069.283,3,0.0,0.25
0,684,target,"[(1174, 779)]",[],[1],[0.55],vertical,"(390.0, 262.0)",0.55,0.516,1,8074.94,3,0.0,0.25
0,685,target,"[(1160, 782)]",[],[1],[0.7],horizontal,"(390.0, 762.0)",1.05,0.66,1,8079.974,3,0.0,0.25
0,686,catch,"[(1159, 756)]",[],[1],[],horizontal,"(890.0, 262.0)",1.6,nan,1,8086.032,3,0.0,0.25
0,687,target,"[(1190, 809)]",[],[1],[0.18333333333333332],vertical,"(890.0, 262.0)",1.5333333333333332,0.154,0,8092.056,0,0.0,0.25
0,688,catch,"[(1160, 790)]",[],[1],[],horizontal,"(890.0, 262.0)",1.6,nan,1,8096.961,1,0.0,0.25
0,689,target,"[(1169, 783)]",[],[1],[0.5833333333333334],horizontal,"(390.0, 262.0)",0.6833333333333333,0.538,1,8101.967,1,0.0,0.25
0,690,target,"[(1175, 796)]",[],[1],[0.6166666666666667],horizontal,"(390.0, 262.0)",0.6166666666666667,0.579,1,8106.594,1,0.0,0.25
0,691,target,"[(1179, 778)]",[],[1],[0.6833333333333333],vertical,"(890.0, 262.0)",0.7666666666666666,0.643,1,8111.205,2,0.0,0.25
0,692,target,"[(1194, 789)]",[],[1],[0.5833333333333334],horizontal,"(890.0, 762.0)",0.3833333333333333,0.544,1,8116.422,2,0.0,0.25
0,693,target,"[(1190, 786)]",[],[1],[0.85],vertical,"(390.0, 762.0)",0.5833333333333334,nan,0,8120.958,0,0.0,0.25
0,694,target,"[(1154, 761)]",[],[1],[0.7],vertical,"(890.0, 762.0)",0.8333333333333334,0.654,1,8125.194,1,0.0,0.25
0,695,catch,"[(1186, 780)]",[],[1],[],horizontal,"(890.0, 262.0)",1.6,nan,1,8130.177,1,0.0,0.25
0,696,target,"[(1178, 777)]",[],[1],[0.75],horizontal,"(890.0, 762.0)",0.9833333333333333,0.703,1,8135.352,1,0.0,0.25
0,697,catch,"[(1175, 766)]",[],[1],[],horizontal,"(890.0, 762.0)",1.6,nan,1,8140.693,2,0.0,0.25
0,698,target,"[(1155, 781)]",[],[1],[0.5666666666666667],horizontal,"(390.0, 262.0)",0.4,0.532,1,8146.492,2,0.0,0.25
0,699,target,"[(1177, 761)]",[],[1],[0.7],horizontal,"(390.0, 762.0)",0.4666666666666667,0.657,1,8151.428,2,0.0,0.25
0,700,catch,"[(1190, 783)]",[],[1],[0.03333333333333333],horizontal,"(390.0, 762.0)",1.6,"0.018,nan",0,8156.36,0,0.02,0.25
0,701,catch,"[(1148, 780)]",[],[1],[],vertical,"(890.0, 262.0)",1.6,nan,1,8161.209,1,0.02,0.25
0,702,target,"[(1164, 799)]",[],[1],[0.5666666666666667],horizontal,"(390.0, 262.0)",1.0,0.525,1,8166.556,1,0.02,0.25
0,703,target,"[(1180, 776)]",[],[1],[0.55],vertical,"(390.0, 262.0)",1.0,0.516,1,8171.475,1,0.02,0.25
0,704,catch,"[(1155, 781)]",[],[1],[],horizontal,"(390.0, 762.0)",1.6,nan,1,8176.456,2,0.02,0.25
0,705,target,"[(1180, 779)]",[],[1],[0.4666666666666667],vertical,"(390.0, 262.0)",1.0666666666666667,0.428,1,8181.805,2,0.02,0.25
0,706,target,"[(1180, 793)]",[],[1],[0.4166666666666667],vertical,"(390.0, 762.0)",1.4166666666666667,0.377,1,8187.579,2,0.02,0.25
0,707,catch,"[(1175, 781)]",[],[1],[],horizontal,"(390.0, 262.0)",1.6,nan,1,8193.417,2,0.02,0.25
0,708,target,"[(1175, 803)]",[],[1],[0.7166666666666667],horizontal,"(890.0, 262.0)",0.3833333333333333,0.679,1,8199.191,3,0.02,0.25
0,709,target,"[(1184, 764)]",[],[1],[0.31666666666666665],vertical,"(890.0, 762.0)",1.45,0.277,1,8204.909,3,0.02,0.25
0,710,target,"[(1180, 786)]",[],[1],[0.75],horizontal,"(390.0, 762.0)",0.35,0.702,1,8211.083,3,0.02,0.25
0,711,target,"[(1178, 775)]",[],[1],[0.48333333333333334],vertical,"(390.0, 262.0)",1.3,0.454,1,8216.229,3,0.02,0.25
0,712,target,"[(1155, 775)]",[],[1],[0.85],horizontal,"(390.0, 762.0)",0.4666666666666667,nan,0,8222.258,0,0.02,0.25
0,713,target,"[(1154, 782)]",[],[1],[0.5666666666666667],vertical,"(390.0, 262.0)",1.3333333333333333,0.523,1,8226.425,1,0.02,0.25
0,714,catch,"[(1155, 789)]",[],[1],[],vertical,"(390.0, 762.0)",1.6,nan,1,8231.841,1,0.02,0.25
0,715,target,"[(1179, 774)]",[],[1],[0.5833333333333334],vertical,"(390.0, 262.0)",0.7,0.538,1,8236.67,1,0.02,0.25
0,716,target,"[(1154, 790)]",[],[1],[0.6],vertical,"(890.0, 762.0)",0.35,0.551,1,8241.343,2,0.02,0.25
0,717,catch,"[(1157, 781)]",[],[1],[],horizontal,"(890.0, 762.0)",1.6,nan,1,8245.912,2,0.02,0.25
0,718,catch,"[(1192, 777)]",[],[1],[],horizontal,"(890.0, 262.0)",1.6,nan,1,8251.725,2,0.02,0.25
0,719,target,"[(1170, 775)]",[],[1],[0.5666666666666667],vertical,"(390.0, 762.0)",0.9666666666666667,0.525,1,8257.011,2,0.02,0.25
0,720,target,"[(1174, 799)]",[],[1],[0.55],vertical,"(890.0, 762.0)",1.1666666666666667,0.502,1,8262.426,3,0.02,0.25
0,721,target,"[(1147, 782)]",[],[1],[0.7166666666666667],horizontal,"(390.0, 262.0)",0.5666666666666667,0.67,1,8268.381,3,0.02,0.25
0,722,target,"[(1160, 773)]",[],[1],[0.55],horizontal,"(890.0, 262.0)",0.7666666666666666,0.511,1,8274.246,3,0.02,0.25
0,723,target,"[(1180, 777)]",[],[1],[0.4],vertical,"(890.0, 762.0)",1.5333333333333332,0.358,1,8279.525,3,0.02,0.25
0,724,target,"[(1177, 781)]",[],[1],[0.5666666666666667],horizontal,"(890.0, 762.0)",0.75,0.52,1,8285.716,3,0.02,0.25
0,725,target,"[(1170, 779)]",[],[1],[0.6166666666666667],vertical,"(890.0, 262.0)",1.1833333333333333,0.568,1,8291.491,3,0.02,0.25
0,726,target,"[(1180, 790)]",[],[1],[0.85],horizontal,"(390.0, 762.0)",0.7666666666666666,nan,0,8297.809,0,0.02,0.25
0,727,target,"[(1149, 783)]",[],[1],[0.6166666666666667],vertical,"(890.0, 262.0)",0.8666666666666667,0.573,1,8302.393,1,0.02,0.25
0,728,target,"[(1185, 795)]",[],[1],[0.5666666666666667],vertical,"(390.0, 262.0)",0.6166666666666667,0.524,1,8307.053,1,0.02,0.25
0,729,target,"[(1180, 776)]",[],[1],[0.85],horizontal,"(390.0, 762.0)",0.4166666666666667,nan,0,8311.578,0,0.02,0.25
0,730,catch,"[(1169, 799)]",[],[1],[],vertical,"(890.0, 262.0)",1.6,nan,1,8315.772,1,0.02,0.25
0,731,target,"[(1155, 780)]",[],[1],[0.6166666666666667],horizontal,"(390.0, 262.0)",1.4833333333333334,0.571,1,8320.886,1,0.02,0.25
0,732,target,"[(1180, 777)]",[],[1],[0.6666666666666666],horizontal,"(890.0, 762.0)",0.35,0.621,1,8326.12,1,0.02,0.25
0,733,target,"[(1175, 780)]",[],[1],[0.6166666666666667],vertical,"(890.0, 262.0)",0.95,0.569,1,8330.361,2,0.02,0.25
0,734,target,"[(1170, 790)]",[],[1],[0.55],vertical,"(390.0, 262.0)",0.6666666666666666,0.517,1,8336.038,2,0.02,0.25
0,735,target,"[(1199, 770)]",[],[1],[0.7666666666666666],vertical,"(890.0, 262.0)",0.36666666666666664,0.718,1,8341.118,2,0.02,0.25
0,736,target,"[(1175, 783)]",[],[1],[0.4],vertical,"(890.0, 262.0)",1.4666666666666666,0.362,1,8346.243,2,0.02,0.25
0,737,target,"[(1180, 786)]",[],[1],[0.4],horizontal,"(890.0, 762.0)",1.3333333333333333,0.36,1,8351.676,3,0.02,0.25
0,738,target,"[(1180, 779)]",[],[1],[0.55],horizontal,"(890.0, 262.0)",1.1666666666666667,0.508,1,8357.842,3,0.02,0.25
0,739,target,"[(1160, 783)]",[],[1],[0.8166666666666667],vertical,"(390.0, 762.0)",0.6,0.773,1,8363.665,3,0.02,0.25
0,740,catch,"[(1152, 776)]",[],[1],[],vertical,"(890.0, 762.0)",1.6,nan,1,8369.275,3,0.02,0.25
0,741,catch,"[(1175, 766)]",[],[1],[],vertical,"(890.0, 762.0)",1.6,nan,1,8374.798,3,0.02,0.25
0,742,target,"[(1180, 789)]",[],[1],[0.7166666666666667],vertical,"(890.0, 262.0)",0.8,0.672,1,8381.145,3,0.02,0.25
0,743,target,"[(1178, 777)]",[],[1],[0.5666666666666667],horizontal,"(890.0, 262.0)",1.0666666666666667,0.521,1,8387.122,3,0.02,0.25
0,744,target,"[(1165, 780)]",[],[1],[0.7166666666666667],horizontal,"(390.0, 262.0)",0.4166666666666667,0.67,1,8393.207,3,0.02,0.25
0,745,target,"[(1155, 770)]",[],[1],[0.6333333333333333],horizontal,"(890.0, 762.0)",1.0833333333333333,0.585,1,8398.46,3,0.02,0.25
0,746,catch,"[(1175, 784)]",[],[1],[],vertical,"(890.0, 262.0)",1.6,nan,1,8404.589,3,0.02,0.25
0,747,target,"[(1161, 807)]",[],[1],[0.65],vertical,"(390.0, 762.0)",0.8666666666666667,0.606,1,8410.7,3,0.02,0.25
0,748,catch,"[(1161, 778)]",[],[1],[],vertical,"(390.0, 762.0)",1.6,nan,1,8416.112,3,0.02,0.25
0,749,catch,"[(1174, 776)]",[],[1],[],horizontal,"(390.0, 262.0)",1.6,nan,1,8421.938,3,0.02,0.25
0,750,target,"[(1185, 776)]",[],[1],[0.6666666666666666],vertical,"(890.0, 262.0)",0.8,0.625,1,8428.285,3,0.0,0.25
0,751,target,"[(1150, 795)]",[],[1],[0.6],vertical,"(890.0, 762.0)",1.2166666666666666,0.562,1,8434.208,3,0.0,0.25
0,752,target,"[(1175, 766)]",[],[1],[0.85],horizontal,"(890.0, 762.0)",0.6333333333333333,nan,0,8440.33,0,0.0,0.25
0,753,target,"[(1136, 785)]",[],[1],[0.8333333333333334],vertical,"(890.0, 262.0)",1.1166666666666667,0.786,1,8444.526,1,0.0,0.25
0,754,target,"[(1158, 779)]",[],[1],[0.5666666666666667],vertical,"(390.0, 262.0)",1.05,0.523,1,8449.859,1,0.0,0.25
0,755,target,"[(1164, 780)]",[],[1],[0.7666666666666666],horizontal,"(390.0, 762.0)",1.0833333333333333,0.722,1,8455.243,1,0.0,0.25
0,756,target,"[(1155, 798)]",[],[1],[0.6],horizontal,"(390.0, 262.0)",0.65,0.556,1,8460.399,2,0.0,0.25
0,757,target,"[(1176, 771)]",[],[1],[0.7666666666666666],vertical,"(390.0, 262.0)",1.0333333333333332,0.721,1,8465.677,2,0.0,0.25
0,758,target,"[(1157, 790)]",[],[1],[0.6166666666666667],horizontal,"(390.0, 762.0)",0.5666666666666667,0.577,1,8471.493,2,0.0,0.25
0,759,catch,"[(1178, 774)]",[],[1],[],horizontal,"(390.0, 262.0)",1.6,nan,1,8476.41,2,0.0,0.25
0,760,target,"[(1172, 775)]",[],[1],[0.6],horizontal,"(390.0, 762.0)",0.8333333333333334,0.553,1,8482.253,3,0.0,0.25
0,761,catch,"[(1177, 782)]",[],[1],[],vertical,"(890.0, 762.0)",1.6,nan,1,8488.421,3,0.0,0.25
0,762,target,"[(1180, 776)]",[],[1],[0.7166666666666667],vertical,"(890.0, 262.0)",1.0166666666666666,0.675,1,8494.293,3,0.0,0.25
0,763,catch,"[(1183, 777)]",[],[1],[],vertical,"(390.0, 262.0)",1.6,nan,1,8500.423,3,0.0,0.25
0,764,target,"[(1167, 774)]",[],[1],[0.5],horizontal,"(390.0, 262.0)",1.3833333333333333,0.461,1,8506.412,3,0.0,0.25
0,765,target,"[(1153, 796)]",[],[1],[0.7833333333333333],horizontal,"(890.0, 762.0)",1.0833333333333333,0.745,1,8512.65,3,0.0,0.25
0,766,target,"[(1184, 783)]",[],[1],[0.7166666666666667],vertical,"(890.0, 762.0)",1.05,0.672,1,8518.775,3,0.0,0.25
0,767,target,"[(1154, 782)]",[],[1],[0.5],vertical,"(890.0, 262.0)",1.45,0.459,1,8525.336,3,0.0,0.25
0,768,target,"[(1175, 775)]",[],[1],[0.85],horizontal,"(390.0, 262.0)",0.5,nan,0,8531.444,0,0.0,0.25
0,769,target,"[(1177, 776)]",[],[1],[0.7],vertical,"(890.0, 262.0)",1.15,0.66,1,8536.075,1,0.0,0.25
0,770,target,"[(1175, 788)]",[],[1],[0.5666666666666667],horizontal,"(890.0, 262.0)",0.45,0.53,1,8541.906,1,0.0,0.25
0,771,catch,"[(1178, 775)]",[],[1],[],vertical,"(390.0, 762.0)",1.6,nan,1,8546.305,1,0.0,0.25
0,772,target,"[(1154, 809)]",[],[1],[0.85],vertical,"(390.0, 762.0)",0.35,nan,0,8551.789,0,0.0,0.25
0,773,target,"[(1127, 814)]",[],[1],[0.5666666666666667],vertical,"(890.0, 762.0)",0.6666666666666666,0.534,1,8556.356,1,0.0,0.25
0,774,target,"[(1171, 799)]",[],[1],[0.5666666666666667],horizontal,"(390.0, 762.0)",1.0333333333333332,0.529,1,8643.842,1,0.0,0.25
0,775,catch,"[(1158, 787)]",[],[1],[],vertical,"(390.0, 262.0)",1.6,nan,1,8649.339,1,0.0,0.25
0,776,target,"[(1152, 789)]",[],[1],[0.6166666666666667],vertical,"(390.0, 262.0)",0.4,0.571,1,8654.859,2,0.0,0.25
0,777,target,"[(1174, 781)]",[],[1],[0.5833333333333334],vertical,"(390.0, 762.0)",0.9,0.543,1,8659.678,2,0.0,0.25
0,778,catch,"[(1153, 778)]",[],[1],[],horizontal,"(890.0, 262.0)",1.6,nan,1,8665.526,2,0.0,0.25
0,779,target,"[(1174, 812)]",[],[1],[0.55],vertical,"(890.0, 262.0)",0.48333333333333334,0.512,1,8671.924,2,0.0,0.25
0,780,target,"[(1165, 795)]",[],[1],[0.3333333333333333],vertical,"(890.0, 762.0)",1.4833333333333334,0.291,1,8676.979,3,0.0,0.25
0,781,catch,"[(1161, 780)]",[],[1],[],vertical,"(890.0, 262.0)",1.6,nan,1,8683.345,3,0.0,0.25
0,782,target,"[(1189, 781)]",[],[1],[],horizontal,"(390.0, 262.0)",,"('cti', 1.358)",0,8689.059,0,0.02,0.25
0,783,target,"[(1175, 782)]",[],[1],[0.55],horizontal,"(390.0, 762.0)",0.9333333333333333,0.507,1,8693.693,1,0.02,0.25
0,784,target,"[(1192, 782)]",[],[1],[0.4166666666666667],horizontal,"(890.0, 762.0)",1.4333333333333333,0.376,1,8698.532,1,0.02,0.25
0,785,target,"[(1181, 774)]",[],[1],[0.85],horizontal,"(390.0, 762.0)",0.5,nan,0,8703.844,0,0.02,0.25
0,786,catch,"[(1153, 785)]",[],[1],[],vertical,"(890.0, 762.0)",1.6,nan,1,8708.368,1,0.02,0.25
0,787,target,"[(1177, 776)]",[],[1],[0.5333333333333333],horizontal,"(390.0, 762.0)",1.25,0.49,1,8713.218,1,0.02,0.25
0,788,target,"[(1191, 775)]",[],[1],[0.55],horizontal,"(390.0, 262.0)",0.9166666666666666,0.511,1,8718.571,1,0.02,0.25
0,789,target,"[(1192, 787)]",[],[1],[0.5833333333333334],vertical,"(890.0, 762.0)",1.3666666666666667,0.54,1,8723.527,2,0.02,0.25
0,790,target,"[(1180, 782)]",[],[1],[0.5833333333333334],horizontal,"(390.0, 762.0)",0.9,0.544,1,8729.245,2,0.02,0.25
0,791,catch,"[(1172, 776)]",[],[1],[],vertical,"(390.0, 262.0)",1.6,nan,1,8734.742,2,0.02,0.25
0,792,target,"[(1180, 779)]",[],[1],[0.4166666666666667],horizontal,"(390.0, 762.0)",1.3166666666666667,0.378,1,8740.301,2,0.02,0.25
0,793,target,"[(1195, 782)]",[],[1],[0.3833333333333333],horizontal,"(890.0, 262.0)",1.4333333333333333,0.342,1,8745.6,3,0.02,0.25
0,794,target,"[(1193, 777)]",[],[1],[0.6],horizontal,"(890.0, 762.0)",0.85,0.563,1,8751.616,3,0.02,0.25
0,795,target,"[(1180, 775)]",[],[1],[0.5666666666666667],vertical,"(390.0, 762.0)",1.3333333333333333,0.528,1,8757.128,3,0.02,0.25
0,796,catch,"[(1183, 768)]",[],[1],[],vertical,"(390.0, 262.0)",1.6,nan,1,8763.294,3,0.02,0.25
0,797,target,"[(1197, 789)]",[],[1],[0.55],horizontal,"(890.0, 762.0)",1.1,0.512,1,8769.527,3,0.02,0.25
0,798,catch,"[(1180, 763)]",[],[1],[],vertical,"(390.0, 762.0)",1.6,nan,1,8775.559,3,0.02,0.25
0,799,target,"[(1164, 775)]",[],[1],[0.6],horizontal,"(890.0, 762.0)",0.5166666666666666,0.569,1,8781.148,3,0.02,0.25
0,800,catch,"[(1176, 773)]",[],[1],[],vertical,"(890.0, 762.0)",1.6,nan,1,8786.683,3,0.02,0.25
0,801,target,"[(1187, 800)]",[],[1],[0.7],vertical,"(390.0, 262.0)",0.9666666666666667,0.661,1,8792.477,3,0.02,0.25
0,802,target,"[(1180, 777)]",[],[1],[0.5],horizontal,"(890.0, 262.0)",0.48333333333333334,0.457,1,8798.877,3,0.02,0.25
0,803,target,"[(1183, 776)]",[],[1],[0.65],horizontal,"(890.0, 262.0)",1.1166666666666667,0.609,1,8803.96,3,0.02,0.25
0,804,target,"[(1185, 774)]",[],[1],[0.7],vertical,"(890.0, 762.0)",0.9166666666666666,0.659,1,8809.794,3,0.02,0.25
0,805,target,"[(1179, 780)]",[],[1],[0.55],vertical,"(890.0, 262.0)",0.8666666666666667,0.515,1,8815.726,3,0.02,0.25
0,806,target,"[(1181, 764)]",[],[1],[0.6],horizontal,"(390.0, 262.0)",0.8,0.557,1,8821.749,3,0.02,0.25
0,807,target,"[(1178, 769)]",[],[1],[0.3333333333333333],vertical,"(890.0, 762.0)",1.45,0.293,1,8827.452,3,0.02,0.25
0,808,catch,"[(1180, 771)]",[],[1],[],vertical,"(390.0, 262.0)",1.6,nan,1,8833.693,3,0.02,0.25
0,809,target,"[(1178, 774)]",[],[1],[0.5166666666666666],vertical,"(390.0, 262.0)",1.2833333333333332,0.478,1,8839.343,3,0.02,0.25
0,810,catch,"[(1165, 775)]",[],[1],[0.03333333333333333],horizontal,"(890.0, 762.0)",1.6,"0.018,nan",0,8845.344,0,0.04,0.25
0,811,target,"[(1160, 761)]",[],[1],[0.6],vertical,"(390.0, 762.0)",0.4166666666666667,0.558,1,8850.109,1,0.04,0.25
0,812,target,"[(1175, 783)]",[],[1],[0.6],vertical,"(890.0, 262.0)",1.3666666666666667,0.558,1,8854.78,1,0.04,0.25
0,813,target,"[(1192, 786)]",[],[1],[0.4166666666666667],horizontal,"(890.0, 762.0)",1.3666666666666667,0.377,1,8860.328,1,0.04,0.25
0,814,target,"[(1175, 760)]",[],[1],[0.5666666666666667],vertical,"(390.0, 262.0)",0.3833333333333333,0.524,1,8865.578,2,0.04,0.25
0,815,target,"[(1198, 779)]",[],[1],[0.5333333333333333],vertical,"(890.0, 262.0)",0.8,0.487,1,8870.451,2,0.04,0.25
0,816,target,"[(1180, 774)]",[],[1],[0.5166666666666666],horizontal,"(890.0, 262.0)",1.05,0.474,1,8875.944,2,0.04,0.25
0,817,target,"[(1165, 787)]",[],[1],[0.5666666666666667],vertical,"(890.0, 262.0)",0.45,0.527,1,8881.171,2,0.04,0.25
0,818,catch,"[(1181, 775)]",[],[1],[],horizontal,"(890.0, 262.0)",,"('cti', 1.369),nan",0,8886.16,0,0.06,0.25
0,819,catch,"[(1181, 789)]",[],[1],[],horizontal,"(390.0, 262.0)",1.6,nan,1,8891.127,1,0.06,0.25
0,820,catch,"[(1175, 779)]",[],[1],[],vertical,"(390.0, 262.0)",1.6,nan,1,8896.422,1,0.06,0.25
0,821,target,"[(1192, 785)]",[],[1],[0.5],horizontal,"(890.0, 762.0)",1.3,0.455,1,8901.144,1,0.06,0.25
0,822,catch,"[(1186, 775)]",[],[1],[],vertical,"(390.0, 262.0)",1.6,nan,1,8906.608,2,0.06,0.25
0,823,catch,"[(1225, 777)]",[],[1],[],vertical,"(890.0, 762.0)",1.6,nan,1,8912.08,2,0.06,0.25
0,824,target,"[(1179, 795)]",[],[1],[0.6166666666666667],horizontal,"(890.0, 262.0)",0.7166666666666667,0.57,1,8917.628,2,0.06,0.25
0,825,target,"[(1181, 776)]",[],[1],[0.5666666666666667],horizontal,"(390.0, 262.0)",0.8333333333333334,0.526,1,8923.127,2,0.06,0.25
0,826,target,"[(1176, 782)]",[],[1],[0.5166666666666666],horizontal,"(890.0, 262.0)",1.15,0.475,1,8928.469,3,0.06,0.25
0,827,catch,"[(1178, 768)]",[],[1],[],vertical,"(890.0, 762.0)",1.6,nan,1,8934.092,3,0.06,0.25
0,828,target,"[(1190, 770)]",[],[1],[0.6166666666666667],horizontal,"(890.0, 762.0)",0.9666666666666667,0.57,1,8939.775,3,0.06,0.25
0,829,target,"[(1186, 764)]",[],[1],[0.4166666666666667],vertical,"(890.0, 762.0)",1.3,0.376,1,8945.959,3,0.06,0.25
0,830,target,"[(1178, 772)]",[],[1],[0.43333333333333335],vertical,"(390.0, 262.0)",1.5,0.391,1,8952.192,3,0.06,0.25
0,831,target,"[(1169, 785)]",[],[1],[0.6833333333333333],vertical,"(890.0, 262.0)",1.25,0.641,1,8958.273,3,0.06,0.25
0,832,target,"[(1170, 798)]",[],[1],[0.5833333333333334],vertical,"(890.0, 762.0)",0.9833333333333333,0.542,1,8964.102,3,0.04,0.25
0,833,catch,"[(1180, 777)]",[],[1],[],horizontal,"(390.0, 262.0)",1.6,nan,1,8970.106,3,0.04,0.25
0,834,target,"[(1180, 779)]",[],[1],[0.65],vertical,"(390.0, 762.0)",0.7,0.604,1,8976.307,3,0.04,0.25
0,835,target,"[(1170, 779)]",[],[1],[0.5333333333333333],horizontal,"(390.0, 762.0)",1.2666666666666666,0.49,1,8982.193,3,0.04,0.25
0,836,target,"[(1180, 774)]",[],[1],[0.55],vertical,"(890.0, 262.0)",1.2833333333333332,0.507,1,8988.311,3,0.04,0.25
0,837,target,"[(1173, 773)]",[],[1],[0.4166666666666667],vertical,"(890.0, 262.0)",1.3,0.375,1,8994.222,3,0.04,0.25
0,838,target,"[(1175, 773)]",[],[1],[0.4666666666666667],horizontal,"(390.0, 262.0)",1.2666666666666666,0.422,1,9000.381,3,0.04,0.25
0,839,catch,"[(1180, 788)]",[],[1],[],vertical,"(890.0, 262.0)",1.6,nan,1,9006.578,3,0.04,0.25
0,840,target,"[(1176, 786)]",[],[1],[0.7],vertical,"(890.0, 762.0)",0.6833333333333333,0.65,1,9012.459,3,0.04,0.25
0,841,catch,"[(1153, 785)]",[],[1],[],vertical,"(890.0, 762.0)",1.6,nan,1,9018.226,3,0.04,0.25
0,842,target,"[(1159, 779)]",[],[1],[0.55],horizontal,"(390.0, 262.0)",1.2666666666666666,0.509,1,9024.385,3,0.04,0.25
0,843,target,"[(1176, 775)]",[],[1],[0.7],horizontal,"(390.0, 762.0)",1.0,0.655,1,9030.51,3,0.04,0.25
0,844,target,"[(1177, 781)]",[],[1],[0.5333333333333333],horizontal,"(890.0, 262.0)",1.1666666666666667,0.489,1,9036.276,3,0.04,0.25
0,845,target,"[(1160, 781)]",[],[1],[0.65],vertical,"(890.0, 262.0)",0.8166666666666667,0.61,1,9042.635,3,0.04,0.25
0,846,target,"[(1177, 786)]",[],[1],[0.5166666666666666],vertical,"(390.0, 262.0)",1.0,0.476,1,9048.46,3,0.04,0.25
0,847,target,"[(1154, 780)]",[],[1],[0.55],vertical,"(890.0, 262.0)",1.3166666666666667,0.504,1,9054.261,3,0.04,0.25
0,848,target,"[(1185, 775)]",[],[1],[0.65],horizontal,"(390.0, 262.0)",0.8666666666666667,0.604,1,9060.227,3,0.04,0.25
0,849,target,"[(1159, 772)]",[],[1],[0.5833333333333334],horizontal,"(390.0, 762.0)",0.8666666666666667,0.536,1,9065.732,3,0.04,0.25
0,850,target,"[(1180, 782)]",[],[1],[0.48333333333333334],horizontal,"(390.0, 262.0)",1.5,0.446,1,9071.551,3,0.04,0.25
0,851,target,"[(1180, 781)]",[],[1],[0.55],vertical,"(390.0, 762.0)",1.0,0.506,1,9077.548,3,0.04,0.25
0,852,catch,"[(1175, 773)]",[],[1],[],vertical,"(390.0, 262.0)",1.6,nan,1,9083.505,3,0.04,0.25
0,853,target,"[(1179, 778)]",[],[1],[0.65],horizontal,"(390.0, 262.0)",0.7333333333333333,0.606,1,9089.478,3,0.04,0.25
0,854,target,"[(1180, 776)]",[],[1],[0.5333333333333333],vertical,"(390.0, 262.0)",0.43333333333333335,0.489,1,9095.343,3,0.04,0.25
0,855,target,"[(1168, 777)]",[],[1],[0.5833333333333334],vertical,"(390.0, 762.0)",0.95,0.541,1,9100.377,3,0.04,0.25
0,856,target,"[(1180, 782)]",[],[1],[0.65],vertical,"(890.0, 262.0)",0.9833333333333333,0.61,1,9106.21,3,0.04,0.25
0,857,catch,"[(1180, 775)]",[],[1],[],vertical,"(390.0, 262.0)",1.6,nan,1,9112.477,3,0.04,0.25
0,858,target,"[(1176, 778)]",[],[1],[0.6333333333333333],vertical,"(890.0, 762.0)",0.7,0.588,1,9118.377,3,0.04,0.25
0,859,target,"[(1170, 814)]",[],[1],[0.7166666666666667],horizontal,"(390.0, 262.0)",1.2,0.676,1,9124.484,3,0.04,0.25
0,860,target,"[(1158, 806)]",[],[1],[0.6],horizontal,"(390.0, 762.0)",0.9833333333333333,0.56,1,9131.695,3,0.02,0.25
0,861,target,"[(1170, 794)]",[],[1],[0.55],horizontal,"(390.0, 762.0)",1.0833333333333333,0.506,1,9205.154,3,0.02,0.25
0,862,catch,"[(1165, 788)]",[],[1],[],horizontal,"(390.0, 262.0)",1.6,nan,1,9211.226,3,0.02,0.25
0,863,target,"[(1174, 790)]",[],[1],[0.85],horizontal,"(890.0, 762.0)",0.5166666666666666,nan,0,9217.034,0,0.02,0.25
0,864,catch,"[(1166, 782)]",[],[1],[],horizontal,"(890.0, 262.0)",1.6,nan,1,9221.379,1,0.02,0.25
0,865,target,"[(1179, 799)]",[],[1],[0.85],horizontal,"(890.0, 762.0)",0.6,nan,0,9226.86,0,0.02,0.25
0,866,target,"[(1153, 781)]",[],[1],[0.7166666666666667],horizontal,"(390.0, 262.0)",0.4,0.67,1,9231.361,1,0.02,0.25
0,867,target,"[(1153, 811)]",[],[1],[0.5666666666666667],horizontal,"(890.0, 262.0)",1.0166666666666666,0.525,1,9236.679,1,0.02,0.25
0,868,target,"[(1166, 771)]",[],[1],[0.5666666666666667],horizontal,"(390.0, 762.0)",0.85,0.521,1,9245.022,1,0.0,0.25
