block,trial,trial_type,taps_start_loc_during_fix,taps_end_loc_during_fix,taps_on_lever_during_fix,taps_on_lever_s_during_fix,bar_orientation,target_xy,cti,rt,acc,time,pulses,fa_rate_recent100,p_catch
0,1,target,"[(1112, 848)]",[],[1],[0.45],horizontal,"(390.0, 262.0)",1.4166666666666667,0.419,1,0.497,1,0.0,0.25
0,2,target,"[(1121, 874)]",[],[1],[0.55],horizontal,"(390.0, 262.0)",1.0333333333333332,0.524,1,5.907,1,0.0,0.25
0,3,target,"[(1123, 855)]",[],[1],[0.5166666666666666],horizontal,"(390.0, 762.0)",1.2833333333333332,0.483,1,41.052,1,0.0,0.25
0,4,target,"[(1155, 816)]",[],[1],[0.5833333333333334],horizontal,"(890.0, 262.0)",0.5,0.558,1,46.572,2,0.0,0.25
0,5,target,"[(1153, 810)]",[],[1],[0.85],vertical,"(890.0, 262.0)",0.5333333333333333,nan,0,51.688,0,0.0,0.25
0,6,target,"[(1130, 824)]",[],[1],[0.85],vertical,"(890.0, 762.0)",0.36666666666666664,nan,0,56.035,0,0.0,0.25
0,7,target,"[(1087, 785)]",[],[1],[],horizontal,"(890.0, 262.0)",,"('fix', 0.413)",0,60.455,0,0.0,0.25
0,8,target,"[(1151, 839)]",[],[1],[0.5166666666666666],horizontal,"(890.0, 262.0)",1.2666666666666666,0.482,1,63.053,1,0.0,0.25
0,9,target,"[(1157, 802)]",[],[1],[0.5333333333333333],horizontal,"(390.0, 762.0)",0.9333333333333333,0.495,1,83.701,1,0.0,0.25
0,10,target,"[(1152, 803)]",[],[1],[0.5333333333333333],vertical,"(890.0, 262.0)",1.2,0.492,1,88.49,1,0.0,0.25
0,11,target,"[(1155, 782)]",[],[1],[0.5166666666666666],vertical,"(890.0, 762.0)",0.4666666666666667,0.478,1,93.808,2,0.0,0.25
0,12,target,"[(1134, 810)]",[],[1],[0.6833333333333333],horizontal,"(890.0, 262.0)",0.9333333333333333,0.638,1,98.456,2,0.0,0.25
0,13,target,"[(1153, 792)]",[],[1],[0.48333333333333334],vertical,"(390.0, 262.0)",0.8166666666666667,0.446,1,103.825,2,0.0,0.25
0,14,catch,"[(1156, 772)]",[],[1],[],vertical,"(890.0, 262.0)",,"('cti', 1.545),nan",0,108.942,0,0.07142857142857142,0.25
0,15,target,"[(1157, 789)]",[],[1],[0.85],vertical,"(390.0, 762.0)",0.8333333333333334,nan,0,113.858,0,0.06666666666666667,0.25
0,16,catch,"[(1153, 811)]",[],[1],[],horizontal,"(890.0, 262.0)",1.7,nan,1,118.452,1,0.0625,0.25
0,17,target,"[(1157, 791)]",[],[1],[0.6],vertical,"(390.0, 262.0)",0.4,0.555,1,123.942,1,0.058823529411764705,0.25
0,18,target,"[(1155, 812)]",[],[1],[0.6],horizontal,"(390.0, 762.0)",0.36666666666666664,0.555,1,128.425,1,0.05555555555555555,0.25
0,19,catch,"[(1136, 794)]",[],[1],[],horizontal,"(390.0, 262.0)",1.7,nan,1,133.308,2,0.05263157894736842,0.25
0,20,target,"[(1161, 806)]",[],[1],[0.5],horizontal,"(890.0, 262.0)",0.65,0.458,1,139.225,2,0.05,0.25
0,21,target,"[(1158, 802)]",[],[1],[0.7666666666666666],horizontal,"(890.0, 762.0)",0.3833333333333333,0.723,1,144.008,2,0.047619047619047616,0.25
0,22,target,"[(1160, 792)]",[],[1],[0.48333333333333334],vertical,"(390.0, 262.0)",1.35,0.438,1,149.338,3,0.045454545454545456,0.25
0,23,target,"[(1156, 791)]",[],[1],[0.5666666666666667],horizontal,"(390.0, 762.0)",0.4666666666666667,0.523,1,155.542,3,0.043478260869565216,0.25
0,24,target,"[(1159, 793)]",[],[1],[0.36666666666666664],horizontal,"(390.0, 262.0)",1.5166666666666666,0.324,1,160.607,3,0.041666666666666664,0.25
0,25,catch,"[(1162, 806)]",[],[1],[],vertical,"(890.0, 762.0)",1.7,nan,1,166.565,3,0.04,0.25
0,26,target,"[(1160, 764)]",[],[1],[0.5166666666666666],vertical,"(890.0, 762.0)",0.8833333333333333,0.481,1,172.491,3,0.038461538461538464,0.25
0,27,target,"[(1162, 787)]",[],[1],[0.6333333333333333],vertical,"(390.0, 762.0)",0.7333333333333333,0.592,1,178.442,3,0.037037037037037035,0.25
0,28,target,"[(1156, 791)]",[],[1],[0.5666666666666667],vertical,"(890.0, 762.0)",0.5166666666666666,0.528,1,183.991,3,0.03571428571428571,0.25
0,29,target,"[(1126, 811)]",[],[1],[0.5833333333333334],vertical,"(390.0, 762.0)",0.6833333333333333,0.542,1,188.914,3,0.034482758620689655,0.25
0,30,target,"[(1159, 810)]",[],[1],[0.5],vertical,"(390.0, 262.0)",0.5333333333333333,0.456,1,194.075,3,0.03333333333333333,0.25
0,31,catch,"[(1130, 777)]",[],[1],[],vertical,"(890.0, 762.0)",1.7,nan,1,199.242,3,0.03225806451612903,0.25
0,32,target,"[(1127, 776)]",[],[1],[0.6666666666666666],horizontal,"(390.0, 762.0)",0.8,0.629,1,205.242,3,0.03125,0.25
0,33,target,"[(1129, 789)]",[],[1],[0.35],vertical,"(890.0, 762.0)",1.4666666666666666,0.312,1,210.642,3,0.030303030303030304,0.25
0,34,catch,"[(1126, 781)]",[],[1],[],horizontal,"(390.0, 262.0)",,"('cti', 1.503),nan",0,216.873,0,0.058823529411764705,0.25
0,35,catch,"[(1160, 793)]",[],[1],[],vertical,"(890.0, 262.0)",,"('cti', 1.653),nan",0,221.633,0,0.08571428571428572,0.25
0,36,catch,"[(1158, 822)]",[],[1],[],horizontal,"(390.0, 762.0)",1.7,nan,1,226.341,1,0.08333333333333333,0.25
0,37,target,"[(1162, 784)]",[],[1],[0.5166666666666666],horizontal,"(890.0, 262.0)",1.1166666666666667,0.476,1,231.392,1,0.08108108108108109,0.25
0,38,target,"[(1166, 790)]",[],[1],[0.31666666666666665],horizontal,"(390.0, 762.0)",1.5166666666666666,0.276,1,236.609,1,0.07894736842105263,0.25
0,39,catch,"[(1160, 779)]",[],[1],[],vertical,"(390.0, 262.0)",1.7,nan,1,241.826,2,0.07692307692307693,0.25
0,40,catch,"[(1160, 787)]",[],[1],[],vertical,"(390.0, 262.0)",1.7,"('cti', 1.688),nan",0,247.457,0,0.1,0.25
0,41,target,"[(1162, 812)]",[],[1],[0.5333333333333333],horizontal,"(390.0, 762.0)",0.7666666666666666,0.494,1,252.092,1,0.0975609756097561,0.25
0,42,target,"[(1149, 776)]",[],[1],[0.55],horizontal,"(890.0, 262.0)",0.7166666666666667,0.513,1,256.726,1,0.09523809523809523,0.25
0,43,target,"[(1160, 791)]",[],[1],[0.55],horizontal,"(390.0, 262.0)",0.7666666666666666,0.51,1,261.256,1,0.09302325581395349,0.25
0,44,catch,"[(1161, 790)]",[],[1],[],horizontal,"(890.0, 262.0)",1.7,nan,1,266.173,2,0.09090909090909091,0.25
0,45,target,"[(1161, 816)]",[],[1],[0.65],vertical,"(390.0, 262.0)",0.9333333333333333,0.617,1,272.267,2,0.08888888888888889,0.25
0,46,target,"[(1160, 800)]",[],[1],[0.36666666666666664],horizontal,"(390.0, 262.0)",1.05,0.329,1,278.169,2,0.08695652173913043,0.25
0,47,target,"[(1172, 820)]",[],[1],[0.5],vertical,"(890.0, 262.0)",0.6333333333333333,0.464,1,283.76,3,0.0851063829787234,0.25
0,48,catch,"[(1160, 801)]",[],[1],[],vertical,"(890.0, 762.0)",,"('cti', 1.616),nan",0,289.651,0,0.10416666666666667,0.25
0,49,target,"[(1160, 811)]",[],[1],[0.4666666666666667],vertical,"(890.0, 262.0)",1.0333333333333332,0.438,1,294.531,1,0.10204081632653061,0.25
0,50,target,"[(1145, 782)]",[],[1],[0.21666666666666667],vertical,"(390.0, 762.0)",1.3,0.188,0,299.71,0,0.1,0.25
0,51,target,"[(1154, 799)]",[],[1],[0.85],horizontal,"(890.0, 762.0)",0.5333333333333333,nan,0,304.572,0,0.1,0.25
0,52,target,"[(1136, 801)]",[],[1],[0.6333333333333333],vertical,"(390.0, 762.0)",0.4166666666666667,0.594,1,309.083,1,0.1,0.25
0,53,target,"[(1129, 802)]",[],[1],[0.5333333333333333],vertical,"(890.0, 762.0)",0.75,0.494,1,313.948,1,0.1,0.25
0,54,target,"[(1155, 794)]",[],[1],[0.5166666666666666],vertical,"(390.0, 262.0)",1.4,0.487,1,318.958,1,0.1,0.25
0,55,target,"[(1160, 791)]",[],[1],[0.6666666666666666],horizontal,"(890.0, 762.0)",0.43333333333333335,0.625,1,324.665,2,0.1,0.25
0,56,target,"[(1165, 811)]",[],[1],[0.4666666666666667],horizontal,"(390.0, 762.0)",1.1166666666666667,0.434,1,329.932,2,0.1,0.25
0,57,catch,"[(1159, 786)]",[],[1],[],horizontal,"(890.0, 762.0)",1.7,nan,1,335.745,2,0.1,0.25
0,58,target,"[(1158, 792)]",[],[1],[0.5],horizontal,"(390.0, 262.0)",1.1833333333333333,0.466,1,341.89,3,0.1,0.25
0,59,target,"[(1160, 789)]",[],[1],[0.5833333333333334],horizontal,"(390.0, 262.0)",0.7833333333333333,0.547,1,347.738,3,0.1,0.25
0,60,target,"[(1160, 788)]",[],[1],[0.85],vertical,"(390.0, 762.0)",0.4,nan,0,353.724,0,0.1,0.25
0,61,target,"[(1146, 803)]",[],[1],[0.5],horizontal,"(890.0, 262.0)",1.3333333333333333,0.473,1,357.63,1,0.1,0.25
0,62,catch,"[(1160, 805)]",[],[1],[],horizontal,"(890.0, 262.0)",1.7,nan,1,362.858,1,0.1,0.25
0,63,catch,"[(1160, 784)]",[],[1],[],vertical,"(890.0, 262.0)",1.7,nan,1,368.054,1,0.1,0.25
0,64,catch,"[(1166, 786)]",[],[1],[],horizontal,"(390.0, 262.0)",1.7,nan,1,373.158,2,0.08,0.25
0,65,target,"[(1162, 783)]",[],[1],[0.2833333333333333],horizontal,"(390.0, 262.0)",1.5166666666666666,0.253,1,378.576,2,0.08,0.25
0,66,catch,"[(1160, 801)]",[],[1],[],vertical,"(890.0, 762.0)",1.7,nan,1,384.437,2,0.08,0.25
0,67,target,"[(1155, 795)]",[],[1],[0.7833333333333333],horizontal,"(890.0, 762.0)",0.8,0.754,1,390.254,3,0.08,0.25
0,68,target,"[(1153, 801)]",[],[1],[0.45],horizontal,"(390.0, 262.0)",1.4333333333333333,0.424,1,396.43,3,0.08,0.25
0,69,target,"[(1158, 807)]",[],[1],[0.55],horizontal,"(890.0, 762.0)",1.1833333333333333,0.525,1,402.591,3,0.08,0.25
0,70,catch,"[(1170, 804)]",[],[1],[],vertical,"(390.0, 762.0)",1.7,nan,1,408.721,3,0.08,0.25
0,71,target,"[(1163, 804)]",[],[1],[0.7166666666666667],vertical,"(890.0, 762.0)",0.4166666666666667,0.687,1,414.979,3,0.08,0.25
0,72,target,"[(1139, 807)]",[],[1],[0.5],horizontal,"(890.0, 262.0)",0.7666666666666666,0.465,1,420.237,3,0.08,0.25
0,73,target,"[(1155, 798)]",[],[1],[0.65],vertical,"(890.0, 262.0)",0.36666666666666664,0.627,1,425.581,3,0.08,0.25
0,74,target,"[(1160, 782)]",[],[1],[0.55],vertical,"(890.0, 762.0)",0.6833333333333333,0.511,1,431.151,3,0.08,0.25
0,75,target,"[(1163, 804)]",[],[1],[0.5333333333333333],vertical,"(390.0, 762.0)",0.5333333333333333,0.491,1,436.525,3,0.08,0.25
0,76,catch,"[(1146, 799)]",[],[1],[],horizontal,"(890.0, 262.0)",1.7,nan,1,442.149,3,0.08,0.25
0,77,catch,"[(1162, 780)]",[],[1],[],vertical,"(890.0, 262.0)",1.7,nan,1,447.919,3,0.08,0.25
0,78,target,"[(1160, 811)]",[],[1],[0.48333333333333334],horizontal,"(890.0, 262.0)",1.4166666666666667,0.445,1,453.926,3,0.08,0.25
0,79,target,"[(1144, 795)]",[],[1],[0.6666666666666666],vertical,"(390.0, 762.0)",1.0333333333333332,0.621,1,459.781,3,0.08,0.25
0,80,catch,"[(1160, 796)]",[],[1],[],vertical,"(390.0, 262.0)",,"('cti', 1.615),nan",0,465.776,0,0.1,0.25
0,81,target,"[(1137, 805)]",[],[1],[0.6],vertical,"(390.0, 762.0)",1.1666666666666667,0.558,1,470.11,1,0.1,0.25
0,82,target,"[(1160, 802)]",[],[1],[0.45],vertical,"(890.0, 262.0)",1.1166666666666667,0.415,1,475.292,1,0.1,0.25
0,83,catch,"[(1160, 787)]",[],[1],[],horizontal,"(390.0, 262.0)",,"('cti', 1.67),nan",0,480.644,0,0.12,0.25
0,84,target,"[(1150, 801)]",[],[1],[0.65],vertical,"(890.0, 262.0)",0.5666666666666667,0.612,1,485.431,1,0.1,0.25
0,85,catch,"[(1160, 789)]",[],[1],[],horizontal,"(890.0, 262.0)",,"('cti', 1.411),nan",0,490.002,0,0.1,0.25
0,86,catch,"[(1136, 813)]",[],[1],[],vertical,"(390.0, 762.0)",1.7,nan,1,494.51,1,0.1,0.25
0,87,catch,"[(1163, 802)]",[],[1],[],horizontal,"(390.0, 762.0)",1.7,nan,1,500.426,1,0.1,0.25
0,88,catch,"[(1160, 793)]",[],[1],[],vertical,"(890.0, 262.0)",,"('cti', 1.658),nan",0,505.632,0,0.12,0.25
0,89,target,"[(1162, 796)]",[],[1],[0.6],vertical,"(390.0, 762.0)",0.7,0.56,1,510.428,1,0.12,0.25
0,90,target,"[(1170, 817)]",[],[1],[0.5666666666666667],vertical,"(390.0, 762.0)",0.6,0.522,1,515.382,1,0.1,0.25
0,91,target,"[(1160, 803)]",[],[1],[0.5833333333333334],horizontal,"(890.0, 762.0)",1.1666666666666667,0.548,1,520.293,1,0.1,0.25
0,92,catch,"[(1170, 807)]",[],[1],[],vertical,"(890.0, 262.0)",,"('cti', 1.648),nan",0,525.492,0,0.12,0.25
0,93,target,"[(1136, 798)]",[],[1],[0.5333333333333333],vertical,"(890.0, 262.0)",0.85,0.492,1,530.331,1,0.12,0.25
0,94,catch,"[(1156, 791)]",[],[1],[],horizontal,"(390.0, 262.0)",,"('cti', 1.393),nan",0,534.913,0,0.14,0.25
0,95,target,"[(1148, 809)]",[],[1],[0.48333333333333334],horizontal,"(390.0, 262.0)",0.8,0.444,1,539.472,1,0.14,0.25
0,96,catch,"[(1160, 793)]",[],[1],[],horizontal,"(890.0, 762.0)",1.7,nan,1,544.409,1,0.14,0.25
0,97,target,"[(1160, 785)]",[],[1],[0.5333333333333333],vertical,"(390.0, 262.0)",0.9333333333333333,0.492,1,549.729,1,0.14,0.25
0,98,target,"[(1154, 779)]",[],[1],[0.5166666666666666],horizontal,"(890.0, 762.0)",1.35,0.478,1,554.692,2,0.12,0.25
0,99,target,"[(1158, 804)]",[],[1],[0.4666666666666667],vertical,"(890.0, 762.0)",1.4,0.425,1,560.776,2,0.12,0.25
0,100,target,"[(1171, 795)]",[],[1],[0.45],vertical,"(390.0, 762.0)",1.3166666666666667,0.417,1,566.46,2,0.12,0.25
0,101,target,"[(1159, 811)]",[],[1],[0.43333333333333335],horizontal,"(390.0, 262.0)",0.85,0.393,1,572.025,3,0.12,0.25
0,102,target,"[(1160, 801)]",[],[1],[0.5833333333333334],horizontal,"(890.0, 262.0)",0.65,0.539,1,577.939,3,0.12,0.25
0,103,target,"[(1161, 803)]",[],[1],[0.4666666666666667],horizontal,"(890.0, 262.0)",1.2833333333333332,0.43,1,583.576,3,0.12,0.25
0,104,target,"[(1169, 789)]",[],[1],[],vertical,"(890.0, 762.0)",,"('cti', 0.049)",0,589.571,0,0.14,0.25
0,105,target,"[(1116, 823)]",[],[1],[0.5166666666666666],vertical,"(390.0, 762.0)",1.3166666666666667,0.479,1,592.177,1,0.14,0.25
0,106,catch,"[(1158, 792)]",[],[1],[],vertical,"(390.0, 762.0)",1.7,nan,1,597.423,1,0.14,0.25
0,107,target,"[(1164, 794)]",[],[1],[0.36666666666666664],horizontal,"(390.0, 762.0)",1.3,0.334,1,602.627,1,0.14,0.25
0,108,target,"[(1165, 804)]",[],[1],[0.5166666666666666],vertical,"(890.0, 762.0)",1.2666666666666666,0.482,1,607.797,2,0.14,0.25
0,109,target,"[(1158, 802)]",[],[1],[0.5166666666666666],horizontal,"(390.0, 262.0)",1.2166666666666666,0.472,1,613.232,2,0.14,0.25
0,110,target,"[(1162, 796)]",[],[1],[0.35],vertical,"(890.0, 762.0)",1.5333333333333332,0.31,1,618.969,2,0.14,0.25
0,111,target,"[(1155, 811)]",[],[1],[0.5166666666666666],vertical,"(390.0, 762.0)",1.2333333333333334,0.477,1,624.534,3,0.14,0.25
0,112,target,"[(1160, 786)]",[],[1],[0.6],vertical,"(890.0, 262.0)",0.6833333333333333,0.558,1,630.66,3,0.14,0.25
0,113,catch,"[(1160, 803)]",[],[1],[],vertical,"(890.0, 262.0)",1.7,nan,1,636.088,3,0.14,0.25
0,114,target,"[(1141, 796)]",[],[1],[0.6],horizontal,"(390.0, 762.0)",0.65,0.556,1,642.031,3,0.14,0.25
0,115,catch,"[(1160, 798)]",[],[1],[],horizontal,"(890.0, 262.0)",1.7,nan,1,647.576,3,0.14,0.25
0,116,target,"[(1146, 800)]",[],[1],[0.5166666666666666],vertical,"(890.0, 262.0)",0.6333333333333333,0.484,1,653.116,3,0.14,0.25
0,117,target,"[(1142, 789)]",[],[1],[0.5166666666666666],horizontal,"(390.0, 262.0)",0.4166666666666667,0.484,1,658.494,3,0.14,0.25
0,118,target,"[(1155, 794)]",[],[1],[0.3],vertical,"(890.0, 262.0)",1.3166666666666667,0.268,1,663.987,3,0.14,0.25
0,119,catch,"[(1151, 807)]",[],[1],[],horizontal,"(390.0, 262.0)",,"('cti', 1.508),nan",0,670.15,0,0.16,0.25
0,120,target,"[(1137, 808)]",[],[1],[],horizontal,"(890.0, 262.0)",,"('cti', 1.149)",0,674.738,0,0.18,0.25
0,121,target,"[(1155, 796)]",[],[1],[0.13333333333333333],vertical,"(890.0, 262.0)",1.5166666666666666,0.102,0,679.478,0,0.18,0.25
0,122,target,"[(1161, 803)]",[],[1],[0.5833333333333334],vertical,"(890.0, 762.0)",0.9166666666666666,0.54,1,684.077,1,0.18,0.25
0,123,target,"[(1170, 799)]",[],[1],[0.5166666666666666],horizontal,"(890.0, 262.0)",0.85,0.476,1,689.238,1,0.18,0.25
0,124,target,"[(1156, 795)]",[],[1],[0.3],horizontal,"(890.0, 262.0)",1.5,0.263,1,694.228,1,0.18,0.25
0,125,target,"[(1147, 792)]",[],[1],[0.55],vertical,"(390.0, 262.0)",1.3333333333333333,0.513,1,699.227,2,0.18,0.25
0,126,target,"[(1160, 796)]",[],[1],[0.7333333333333333],vertical,"(890.0, 262.0)",0.95,0.692,1,705.351,2,0.18,0.25
0,127,target,"[(1160, 818)]",[],[1],[0.35],horizontal,"(890.0, 262.0)",1.2833333333333332,0.31,1,710.778,2,0.18,0.25
0,128,target,"[(1170, 800)]",[],[1],[],horizontal,"(390.0, 762.0)",,"('cti', 0.985)",0,716.805,0,0.2,0.25
0,129,target,"[(1146, 802)]",[],[1],[0.8],horizontal,"(890.0, 762.0)",0.9666666666666667,0.754,1,721.406,1,0.2,0.25
0,130,catch,"[(1161, 788)]",[],[1],[],vertical,"(890.0, 262.0)",1.7,nan,1,726.623,1,0.18,0.25
0,131,catch,"[(1160, 791)]",[],[1],[],horizontal,"(390.0, 262.0)",1.7,"('cti', 1.689),nan",0,731.82,0,0.2,0.25
0,132,target,"[(1146, 803)]",[],[1],[0.6333333333333333],horizontal,"(390.0, 262.0)",0.5333333333333333,0.59,1,736.217,1,0.2,0.25
0,133,target,"[(1171, 795)]",[],[1],[0.55],vertical,"(890.0, 762.0)",0.4666666666666667,0.519,1,740.843,1,0.18,0.25
0,134,target,"[(1152, 797)]",[],[1],[0.5666666666666667],horizontal,"(390.0, 762.0)",0.5333333333333333,0.522,1,744.996,1,0.18,0.25
0,135,target,"[(1131, 773)]",[],[1],[0.65],horizontal,"(890.0, 762.0)",0.5166666666666666,0.614,1,749.618,2,0.16,0.25
0,136,catch,"[(1142, 801)]",[],[1],[],horizontal,"(390.0, 262.0)",,"('cti', 1.632),nan",0,755.06,0,0.18,0.25
0,137,catch,"[(1136, 787)]",[],[1],[],horizontal,"(890.0, 262.0)",,"('cti', 1.429),nan",0,759.571,0,0.2,0.25
0,138,target,"[(1142, 793)]",[],[1],[0.5333333333333333],vertical,"(390.0, 262.0)",0.6,0.493,1,764.327,1,0.18,0.25
0,139,target,"[(1160, 780)]",[],[1],[0.6666666666666666],horizontal,"(390.0, 762.0)",1.0833333333333333,0.621,1,769.126,1,0.18,0.25
0,140,target,"[(1160, 790)]",[],[1],[0.5666666666666667],horizontal,"(890.0, 262.0)",0.5666666666666667,0.533,1,774.128,1,0.18,0.25
0,141,target,"[(1146, 792)]",[],[1],[0.5833333333333334],vertical,"(890.0, 762.0)",1.3,0.54,1,778.716,2,0.18,0.25
0,142,target,"[(1171, 802)]",[],[1],[0.4166666666666667],vertical,"(890.0, 262.0)",1.4666666666666666,0.391,1,784.627,2,0.16,0.25
0,143,catch,"[(1160, 826)]",[],[1],[],vertical,"(390.0, 262.0)",,"('cti', 1.599),nan",0,790.677,0,0.18,0.25
0,144,target,"[(1145, 800)]",[],[1],[0.5833333333333334],horizontal,"(390.0, 762.0)",0.7666666666666666,0.545,1,795.477,1,0.16,0.25
0,145,catch,"[(1144, 790)]",[],[1],[],vertical,"(890.0, 262.0)",,"('cti', 0.973),nan",0,800.468,0,0.18,0.25
0,146,catch,"[(1138, 808)]",[],[1],[],horizontal,"(890.0, 262.0)",1.7,nan,1,804.911,1,0.18,0.25
0,147,catch,"[(1160, 789)]",[],[1],[],vertical,"(390.0, 262.0)",1.7,nan,1,810.293,1,0.18,0.25
0,148,target,"[(1165, 819)]",[],[1],[0.6166666666666667],vertical,"(390.0, 762.0)",1.1833333333333333,0.575,1,815.673,1,0.18,0.25
0,149,target,"[(1150, 813)]",[],[1],[0.4166666666666667],horizontal,"(890.0, 762.0)",1.35,0.378,1,820.611,2,0.18,0.25
0,150,target,"[(1156, 791)]",[],[1],[0.5833333333333334],vertical,"(390.0, 762.0)",1.15,0.545,1,826.21,2,0.18,0.25
0,151,target,"[(1155, 808)]",[],[1],[0.5],vertical,"(890.0, 262.0)",1.1666666666666667,0.464,1,831.884,2,0.18,0.25
0,152,target,"[(1147, 800)]",[],[1],[0.6833333333333333],vertical,"(890.0, 762.0)",1.2166666666666666,0.64,1,837.545,3,0.18,0.25
0,153,target,"[(1160, 790)]",[],[1],[0.5],horizontal,"(890.0, 762.0)",0.75,0.466,1,844.078,3,0.18,0.25
0,154,target,"[(1156, 792)]",[],[1],[],horizontal,"(390.0, 762.0)",,"('cti', 1.122)",0,849.594,0,0.18,0.25
0,155,catch,"[(1153, 807)]",[],[1],[0.03333333333333333],horizontal,"(890.0, 762.0)",1.7,"0.02,nan",0,853.792,0,0.2,0.25
0,156,catch,"[(1151, 804)]",[],[1],[],horizontal,"(890.0, 262.0)",,"('cti', 1.297),nan",0,858.837,0,0.22,0.25
0,157,catch,"[(1152, 816)]",[],[1],[],vertical,"(390.0, 762.0)",1.7,nan,1,863.375,1,0.22,0.25
0,158,catch,"[(1164, 793)]",[],[1],[],vertical,"(390.0, 762.0)",1.7,nan,1,868.326,1,0.22,0.25
0,159,target,"[(1173, 800)]",[],[1],[0.6333333333333333],vertical,"(390.0, 762.0)",1.0833333333333333,0.591,1,873.409,1,0.22,0.25
0,160,target,"[(1159, 795)]",[],[1],[0.85],horizontal,"(890.0, 262.0)",0.5666666666666667,nan,0,878.744,0,0.22,0.25
0,161,catch,"[(1136, 829)]",[],[1],[],vertical,"(390.0, 762.0)",1.7,nan,1,882.99,1,0.22,0.25
0,162,target,"[(1172, 804)]",[],[1],[0.6166666666666667],horizontal,"(390.0, 262.0)",0.55,0.584,1,890.146,1,0.22,0.25
0,163,target,"[(1159, 790)]",[],[1],[0.5333333333333333],horizontal,"(890.0, 262.0)",0.6833333333333333,0.493,1,894.409,1,0.22,0.25
0,164,target,"[(1160, 793)]",[],[1],[0.7166666666666667],vertical,"(390.0, 762.0)",1.25,0.676,1,899.371,2,0.22,0.25
0,165,target,"[(1163, 794)]",[],[1],[0.48333333333333334],vertical,"(390.0, 262.0)",1.4166666666666667,0.448,1,905.261,2,0.22,0.25
0,166,target,"[(1147, 796)]",[],[1],[0.55],vertical,"(390.0, 262.0)",1.3833333333333333,0.506,1,910.933,2,0.22,0.25
0,167,target,"[(1161, 794)]",[],[1],[0.55],horizontal,"(390.0, 762.0)",0.4,0.507,1,916.921,3,0.22,0.25
0,168,catch,"[(1152, 801)]",[],[1],[],vertical,"(390.0, 262.0)",1.7,nan,1,922.045,3,0.22,0.25
0,169,target,"[(1169, 790)]",[],[1],[0.6],horizontal,"(390.0, 762.0)",0.6333333333333333,0.556,1,928.234,3,0.2,0.25
0,170,target,"[(1156, 802)]",[],[1],[0.5666666666666667],vertical,"(890.0, 762.0)",0.6833333333333333,0.524,1,933.61,3,0.18,0.25
0,171,target,"[(1160, 809)]",[],[1],[0.4666666666666667],vertical,"(390.0, 262.0)",1.3,0.428,1,938.844,3,0.18,0.25
0,172,catch,"[(1160, 795)]",[],[1],[],horizontal,"(890.0, 762.0)",1.7,nan,1,945.011,3,0.18,0.25
0,173,catch,"[(1159, 806)]",[],[1],[],vertical,"(390.0, 762.0)",1.7,nan,1,951.095,3,0.18,0.25
0,174,target,"[(1165, 796)]",[],[1],[0.5166666666666666],vertical,"(390.0, 262.0)",1.2333333333333334,0.48,1,957.289,3,0.18,0.25
0,175,target,"[(1178, 799)]",[],[1],[0.6333333333333333],horizontal,"(890.0, 762.0)",0.43333333333333335,0.592,1,963.561,3,0.18,0.25
0,176,target,"[(1159, 793)]",[],[1],[0.85],vertical,"(890.0, 762.0)",0.65,nan,0,968.814,0,0.18,0.25
0,177,catch,"[(1122, 797)]",[],[1],[],horizontal,"(890.0, 262.0)",1.7,nan,1,973.228,1,0.18,0.25
0,178,target,"[(1131, 798)]",[],[1],[0.5166666666666666],vertical,"(890.0, 262.0)",1.05,0.476,1,978.877,1,0.16,0.25
0,179,target,"[(1162, 779)]",[],[1],[0.18333333333333332],horizontal,"(390.0, 762.0)",0.8833333333333333,0.153,0,983.778,0,0.16,0.25
0,180,target,"[(1165, 801)]",[],[1],[0.4666666666666667],vertical,"(890.0, 262.0)",1.2666666666666666,0.428,1,988.206,1,0.16,0.25
0,181,target,"[(1168, 784)]",[],[1],[0.2833333333333333],vertical,"(890.0, 762.0)",1.5,0.247,1,992.967,1,0.14,0.25
0,182,target,"[(1167, 798)]",[],[1],[0.5333333333333333],horizontal,"(890.0, 262.0)",1.25,0.494,1,998.436,1,0.14,0.25
0,183,catch,"[(1131, 789)]",[],[1],[],horizontal,"(390.0, 762.0)",1.7,"('cti', 1.687),nan",0,1003.988,0,0.16,0.25
0,184,target,"[(1140, 832)]",[],[1],[0.5166666666666666],horizontal,"(390.0, 762.0)",0.65,0.477,1,1008.961,1,0.16,0.25
0,185,target,"[(1160, 792)]",[],[1],[0.6],vertical,"(390.0, 762.0)",1.5166666666666666,0.555,1,1013.779,1,0.16,0.25
0,186,catch,"[(1134, 801)]",[],[1],[],horizontal,"(890.0, 762.0)",1.7,nan,1,1019.232,1,0.14,0.25
0,187,target,"[(1164, 792)]",[],[1],[0.5],horizontal,"(890.0, 762.0)",0.35,0.456,1,1024.213,2,0.12,0.25
0,188,target,"[(1165, 795)]",[],[1],[0.6666666666666666],vertical,"(890.0, 762.0)",0.5166666666666666,0.624,1,1028.677,2,0.12,0.25
0,189,target,"[(1160, 795)]",[],[1],[0.48333333333333334],vertical,"(890.0, 262.0)",1.3666666666666667,0.438,1,1033.761,2,0.12,0.25
0,190,target,"[(1156, 804)]",[],[1],[0.5666666666666667],horizontal,"(390.0, 262.0)",0.8,0.527,1,1039.52,3,0.12,0.25
0,191,target,"[(1161, 794)]",[],[1],[0.43333333333333335],vertical,"(390.0, 262.0)",1.3166666666666667,0.396,1,1045.429,3,0.12,0.25
0,192,catch,"[(1153, 805)]",[],[1],[],horizontal,"(390.0, 762.0)",1.7,nan,1,1051.508,3,0.12,0.25
0,193,target,"[(1165, 783)]",[],[1],[0.6333333333333333],vertical,"(390.0, 262.0)",1.1,0.591,1,1057.831,3,0.1,0.25
0,194,catch,"[(1152, 790)]",[],[1],[],vertical,"(390.0, 762.0)",1.7,nan,1,1063.569,3,0.1,0.25
0,195,catch,"[(1140, 801)]",[],[1],[],vertical,"(890.0, 762.0)",1.7,nan,1,1069.328,3,0.08,0.25
0,196,catch,"[(1163, 798)]",[],[1],[],vertical,"(890.0, 262.0)",1.7,nan,1,1074.995,3,0.08,0.25
0,197,target,"[(1160, 804)]",[],[1],[0.7],horizontal,"(390.0, 262.0)",0.85,0.653,1,1081.072,3,0.08,0.25
0,198,target,"[(1137, 791)]",[],[1],[0.6],horizontal,"(390.0, 262.0)",0.95,0.558,1,1087.145,3,0.08,0.25
0,199,target,"[(1155, 812)]",[],[1],[0.55],vertical,"(890.0, 762.0)",1.2666666666666666,0.512,1,1092.799,3,0.08,0.25
0,200,target,"[(1132, 794)]",[],[1],[0.5],vertical,"(390.0, 262.0)",0.6166666666666667,0.462,1,1098.845,3,0.08,0.25
0,201,target,"[(1143, 796)]",[],[1],[0.5166666666666666],vertical,"(890.0, 262.0)",0.85,0.475,1,1103.929,3,0.08,0.25
0,202,catch,"[(1140, 822)]",[],[1],[],horizontal,"(890.0, 262.0)",,"('cti', 0.935),nan",0,1109.763,0,0.1,0.25
0,203,target,"[(1116, 829)]",[],[1],[0.85],vertical,"(890.0, 262.0)",1.4666666666666666,nan,0,1118.203,0,0.1,0.25
0,204,catch,"[(1135, 828)]",[],[1],[],vertical,"(890.0, 262.0)",,"('cti', 1.676),nan",0,1141.537,0,0.1,0.25
0,205,catch,"[(1134, 816)]",[],[1],[],vertical,"(890.0, 262.0)",1.7,"('cti', 1.696),nan",0,1147.091,0,0.1,0.25
0,206,target,"[(1132, 791)]",[],[1],[0.6166666666666667],horizontal,"(890.0, 262.0)",1.2333333333333334,0.575,1,1151.813,1,0.08,0.25
0,207,catch,"[(1153, 791)]",[],[1],[],vertical,"(390.0, 262.0)",1.7,nan,1,1157.329,1,0.08,0.25
0,208,target,"[(1156, 792)]",[],[1],[0.55],horizontal,"(890.0, 762.0)",0.95,0.507,1,1162.595,1,0.08,0.25
0,209,target,"[(1155, 802)]",[],[1],[0.6166666666666667],vertical,"(890.0, 762.0)",0.8,0.58,1,1167.653,2,0.08,0.25
0,210,target,"[(1148, 787)]",[],[1],[0.55],vertical,"(890.0, 762.0)",0.75,0.505,1,1172.962,2,0.08,0.25
0,211,target,"[(1146, 791)]",[],[1],[0.85],vertical,"(390.0, 762.0)",1.45,nan,0,1178.019,0,0.08,0.25
0,212,target,"[(1118, 798)]",[],[1],[0.5666666666666667],vertical,"(890.0, 762.0)",1.05,0.533,1,1183.179,1,0.08,0.25
0,213,catch,"[(1132, 799)]",[],[1],[],vertical,"(890.0, 762.0)",1.7,nan,1,1188.227,1,0.08,0.25
0,214,catch,"[(1158, 806)]",[],[1],[],vertical,"(390.0, 762.0)",1.7,nan,1,1193.271,1,0.08,0.25
0,215,catch,"[(1135, 829)]",[],[1],[],horizontal,"(890.0, 762.0)",1.7,nan,1,1198.528,2,0.08,0.25
0,216,catch,"[(1165, 813)]",[],[1],[],horizontal,"(890.0, 262.0)",1.7,nan,1,1204.447,2,0.08,0.25
0,217,target,"[(1153, 780)]",[],[1],[0.6],vertical,"(890.0, 762.0)",0.5333333333333333,0.56,1,1209.695,2,0.08,0.25
0,218,catch,"[(1155, 789)]",[],[1],[],vertical,"(890.0, 262.0)",1.7,nan,1,1214.429,3,0.08,0.25
0,219,target,"[(1151, 793)]",[],[1],[0.4666666666666667],vertical,"(890.0, 762.0)",0.6,0.427,1,1220.096,3,0.08,0.25
0,220,target,"[(1151, 814)]",[],[1],[0.5833333333333334],horizontal,"(890.0, 762.0)",0.5,0.542,1,1225.445,3,0.08,0.25
0,221,target,"[(1158, 797)]",[],[1],[0.45],horizontal,"(890.0, 262.0)",0.65,0.412,1,1231.056,3,0.08,0.25
0,222,target,"[(1148, 781)]",[],[1],[0.5666666666666667],horizontal,"(390.0, 762.0)",0.5666666666666667,0.525,1,1236.437,3,0.08,0.25
0,223,target,"[(1146, 795)]",[],[1],[0.6],vertical,"(390.0, 762.0)",1.1666666666666667,0.559,1,1242.053,3,0.08,0.25
0,224,target,"[(1141, 796)]",[],[1],[0.4666666666666667],horizontal,"(890.0, 762.0)",0.9833333333333333,0.425,1,1248.194,3,0.08,0.25
0,225,target,"[(1158, 795)]",[],[1],[0.5666666666666667],horizontal,"(890.0, 762.0)",0.6,0.523,1,1253.545,3,0.08,0.25
0,226,target,"[(1148, 792)]",[],[1],[0.5166666666666666],vertical,"(390.0, 262.0)",0.45,0.479,1,1259.172,3,0.08,0.25
0,227,target,"[(1142, 805)]",[],[1],[0.5166666666666666],horizontal,"(390.0, 762.0)",1.4333333333333333,0.475,1,1263.978,3,0.08,0.25
0,228,target,"[(1148, 803)]",[],[1],[0.5166666666666666],horizontal,"(390.0, 762.0)",0.8166666666666667,0.474,1,1269.946,3,0.08,0.25
0,229,target,"[(1157, 800)]",[],[1],[0.4666666666666667],vertical,"(390.0, 262.0)",0.5333333333333333,0.427,1,1275.671,3,0.08,0.25
0,230,target,"[(1157, 790)]",[],[1],[0.6333333333333333],horizontal,"(890.0, 762.0)",0.5,0.591,1,1280.651,3,0.08,0.25
0,231,catch,"[(1131, 799)]",[],[1],[],vertical,"(390.0, 262.0)",1.7,nan,1,1285.804,3,0.08,0.25
0,232,target,"[(1155, 810)]",[],[1],[0.48333333333333334],vertical,"(390.0, 262.0)",1.1,0.45,1,1291.446,3,0.08,0.25
0,233,catch,"[(1157, 786)]",[],[1],[],vertical,"(890.0, 262.0)",1.7,nan,1,1297.78,3,0.06,0.25
0,234,target,"[(1157, 805)]",[],[1],[0.25],vertical,"(890.0, 762.0)",0.9,0.213,1,1303.477,3,0.06,0.25
0,235,target,"[(1156, 791)]",[],[1],[],vertical,"(890.0, 262.0)",,"('cti', 1.224)",0,1309.212,0,0.08,0.25
0,236,target,"[(1133, 793)]",[],[1],[0.7333333333333333],vertical,"(390.0, 762.0)",1.0833333333333333,0.69,1,1313.879,1,0.08,0.25
0,237,target,"[(1161, 795)]",[],[1],[0.6],vertical,"(390.0, 762.0)",1.0666666666666667,0.562,1,1319.241,1,0.08,0.25
0,238,target,"[(1163, 785)]",[],[1],[0.6166666666666667],vertical,"(390.0, 262.0)",0.8166666666666667,0.577,1,1324.196,1,0.08,0.25
0,239,target,"[(1157, 796)]",[],[1],[0.5],horizontal,"(890.0, 262.0)",0.8,0.461,1,1329.544,2,0.08,0.25
0,240,catch,"[(1121, 813)]",[],[1],[],vertical,"(890.0, 762.0)",1.7,nan,1,1334.996,2,0.08,0.25
0,241,catch,"[(1156, 786)]",[],[1],[],horizontal,"(390.0, 762.0)",1.7,nan,1,1340.969,2,0.08,0.25
0,242,target,"[(1146, 836)]",[],[1],[0.5666666666666667],horizontal,"(890.0, 262.0)",0.7166666666666667,0.525,1,1346.437,3,0.08,0.25
0,243,target,"[(1178, 790)]",[],[1],[0.6166666666666667],horizontal,"(890.0, 762.0)",1.1833333333333333,0.577,1,1352.272,3,0.08,0.25
0,244,target,"[(1158, 809)]",[],[1],[0.4],vertical,"(890.0, 262.0)",1.3333333333333333,0.362,1,1358.113,3,0.08,0.25
0,245,target,"[(1159, 792)]",[],[1],[0.5833333333333334],vertical,"(390.0, 762.0)",0.6166666666666667,0.539,1,1364.215,3,0.08,0.25
0,246,target,"[(1177, 810)]",[],[1],[0.5166666666666666],vertical,"(890.0, 262.0)",0.7,0.477,1,1369.679,3,0.08,0.25
0,247,catch,"[(1156, 787)]",[],[1],[],horizontal,"(890.0, 262.0)",1.7,"('cti', 1.683),nan",0,1375.053,0,0.1,0.25
0,248,target,"[(1160, 818)]",[],[1],[0.5333333333333333],vertical,"(390.0, 762.0)",1.4833333333333334,0.494,1,1379.613,1,0.1,0.25
0,249,target,"[(1131, 823)]",[],[1],[0.5166666666666666],horizontal,"(890.0, 262.0)",1.4,0.475,1,1385.462,1,0.1,0.25
0,250,target,"[(1136, 816)]",[],[1],[0.5],horizontal,"(890.0, 262.0)",1.2,0.461,1,1391.257,1,0.1,0.25
0,251,target,"[(1176, 814)]",[],[1],[0.6166666666666667],vertical,"(390.0, 762.0)",0.43333333333333335,0.576,1,1396.729,2,0.1,0.25
0,252,catch,"[(1180, 806)]",[],[1],[],horizontal,"(890.0, 262.0)",,"('cti', 1.104),nan",0,1401.314,0,0.1,0.25
0,253,target,"[(1154, 798)]",[],[1],[0.5166666666666666],horizontal,"(890.0, 262.0)",0.9666666666666667,0.475,1,1405.813,1,0.1,0.25
0,254,target,"[(1136, 799)]",[],[1],[0.5],horizontal,"(890.0, 262.0)",0.8333333333333334,0.46,1,1411.279,1,0.08,0.25
0,255,target,"[(1156, 812)]",[],[1],[0.5833333333333334],vertical,"(390.0, 262.0)",1.25,0.536,1,1416.43,1,0.06,0.25
0,256,target,"[(1158, 783)]",[],[1],[0.6166666666666667],horizontal,"(390.0, 762.0)",0.7666666666666666,0.573,1,1422.01,2,0.06,0.25
0,257,target,"[(1171, 790)]",[],[1],[0.5166666666666666],horizontal,"(390.0, 262.0)",0.5166666666666666,0.472,1,1427.579,2,0.06,0.25
0,258,catch,"[(1155, 808)]",[],[1],[],vertical,"(890.0, 262.0)",1.7,nan,1,1432.513,2,0.06,0.25
0,259,target,"[(1178, 806)]",[],[1],[0.6666666666666666],vertical,"(390.0, 262.0)",0.4166666666666667,0.626,1,1438.313,3,0.06,0.25
0,260,target,"[(1165, 784)]",[],[1],[0.6],horizontal,"(890.0, 762.0)",0.8166666666666667,0.561,1,1443.824,3,0.06,0.25
0,261,target,"[(1171, 788)]",[],[1],[0.55],horizontal,"(890.0, 762.0)",1.2833333333333332,0.513,1,1449.305,3,0.06,0.25
0,262,target,"[(1177, 796)]",[],[1],[0.5666666666666667],vertical,"(890.0, 262.0)",1.2333333333333334,0.523,1,1455.314,3,0.06,0.25
0,263,catch,"[(1160, 806)]",[],[1],[],horizontal,"(890.0, 762.0)",1.7,nan,1,1460.997,3,0.06,0.25
0,264,target,"[(1128, 788)]",[],[1],[0.55],horizontal,"(890.0, 262.0)",1.3833333333333333,0.512,1,1467.114,3,0.06,0.25
0,265,target,"[(1134, 793)]",[],[1],[0.5],vertical,"(890.0, 262.0)",1.3833333333333333,0.46,1,1473.401,3,0.06,0.25
0,266,target,"[(1136, 801)]",[],[1],[0.6333333333333333],vertical,"(890.0, 262.0)",0.9,0.59,1,1479.381,3,0.06,0.25
0,267,target,"[(1155, 802)]",[],[1],[0.5],vertical,"(390.0, 262.0)",0.7833333333333333,0.463,1,1484.863,3,0.06,0.25
0,268,catch,"[(1160, 795)]",[],[1],[],horizontal,"(390.0, 762.0)",1.7,nan,1,1490.147,3,0.06,0.25
0,269,target,"[(1159, 787)]",[],[1],[0.6666666666666666],vertical,"(390.0, 762.0)",0.9833333333333333,0.622,1,1495.981,3,0.06,0.25
0,270,catch,"[(1166, 792)]",[],[1],[],horizontal,"(390.0, 762.0)",,"('cti', 1.554),nan",0,1502.264,0,0.08,0.25
0,271,target,"[(1141, 782)]",[],[1],[0.5],vertical,"(890.0, 262.0)",1.3166666666666667,0.461,1,1507.017,1,0.08,0.25
0,272,catch,"[(1155, 782)]",[],[1],[],horizontal,"(890.0, 262.0)",1.7,nan,1,1512.66,1,0.08,0.25
0,273,target,"[(1189, 803)]",[],[1],[0.85],horizontal,"(390.0, 762.0)",0.45,nan,0,1518.122,0,0.08,0.25
0,274,target,"[(1138, 806)]",[],[1],[0.6333333333333333],horizontal,"(390.0, 262.0)",0.8333333333333334,0.59,1,1522.697,1,0.08,0.25
0,275,target,"[(1158, 808)]",[],[1],[0.5166666666666666],horizontal,"(890.0, 762.0)",1.4333333333333333,0.477,1,1527.697,1,0.08,0.25
0,276,target,"[(1210, 808)]",[],[1],[0.5833333333333334],horizontal,"(390.0, 262.0)",1.2,0.543,1,1533.035,1,0.08,0.25
0,277,target,"[(1167, 803)]",[],[1],[0.48333333333333334],horizontal,"(890.0, 262.0)",1.0333333333333332,0.445,1,1538.046,2,0.08,0.25
0,278,catch,"[(1160, 782)]",[],[1],[],vertical,"(890.0, 262.0)",1.7,nan,1,1543.388,2,0.08,0.25
0,279,target,"[(1158, 783)]",[],[1],[0.4666666666666667],horizontal,"(390.0, 262.0)",1.2666666666666666,0.427,1,1548.9,2,0.08,0.25
0,280,catch,"[(1157, 797)]",[],[1],[],vertical,"(390.0, 762.0)",1.7,nan,1,1554.481,3,0.08,0.25
0,281,target,"[(1111, 820)]",[],[1],[0.48333333333333334],horizontal,"(890.0, 262.0)",1.35,0.442,1,1560.706,3,0.08,0.25
0,282,catch,"[(1150, 806)]",[],[1],[],horizontal,"(890.0, 762.0)",1.7,nan,1,1569.497,3,0.08,0.25
0,283,target,"[(1170, 794)]",[],[1],[0.5666666666666667],vertical,"(890.0, 762.0)",0.8666666666666667,0.524,1,1575.086,3,0.08,0.25
0,284,target,"[(1137, 860)]",[],[1],[0.5333333333333333],horizontal,"(390.0, 762.0)",1.1,0.494,1,1581.113,3,0.08,0.25
0,285,catch,"[(1158, 814)]",[],[1],[],vertical,"(890.0, 262.0)",1.7,"('cti', 1.687),nan",0,1645.585,0,0.08,0.25
0,286,target,"[(1136, 798)]",[],[1],[0.6],horizontal,"(890.0, 262.0)",0.9,0.559,1,1650.691,1,0.08,0.25
0,287,catch,"[(1174, 791)]",[],[1],[],horizontal,"(890.0, 762.0)",1.7,nan,1,1655.805,1,0.08,0.25
0,288,target,"[(1173, 805)]",[],[1],[0.5833333333333334],horizontal,"(390.0, 262.0)",1.2666666666666666,0.54,1,1661.159,1,0.08,0.25
0,289,target,"[(1175, 802)]",[],[1],[0.6166666666666667],vertical,"(390.0, 762.0)",0.7,0.575,1,1666.731,2,0.08,0.25
0,290,target,"[(1174, 795)]",[],[1],[0.5],vertical,"(390.0, 762.0)",0.9833333333333333,0.461,1,1672.013,2,0.08,0.25
0,291,catch,"[(1156, 783)]",[],[1],[0.03333333333333333],vertical,"(890.0, 762.0)",1.7,"0.019,nan",0,1677.421,0,0.1,0.25
0,292,target,"[(1125, 790)]",[],[1],[0.7],vertical,"(890.0, 262.0)",0.6666666666666666,0.655,1,1682.415,1,0.1,0.25
0,293,target,"[(1158, 801)]",[],[1],[0.6833333333333333],horizontal,"(390.0, 762.0)",0.85,0.645,1,1687.039,1,0.1,0.25
0,294,target,"[(1165, 786)]",[],[1],[0.5],horizontal,"(390.0, 762.0)",1.4666666666666666,0.455,1,1691.969,1,0.1,0.25
0,295,target,"[(1162, 812)]",[],[1],[0.6333333333333333],vertical,"(890.0, 262.0)",0.7833333333333333,0.59,1,1697.496,2,0.1,0.25
0,296,target,"[(1137, 790)]",[],[1],[0.48333333333333334],vertical,"(890.0, 262.0)",1.3166666666666667,0.445,1,1702.773,2,0.1,0.25
0,297,target,"[(1162, 786)]",[],[1],[0.6166666666666667],vertical,"(390.0, 762.0)",1.3166666666666667,0.568,1,1708.624,2,0.08,0.25
0,298,catch,"[(1170, 808)]",[],[1],[],vertical,"(390.0, 762.0)",1.7,nan,1,1714.381,3,0.08,0.25
0,299,target,"[(1166, 801)]",[],[1],[0.5333333333333333],horizontal,"(390.0, 762.0)",0.65,0.503,1,1720.723,3,0.08,0.25
0,300,target,"[(1160, 801)]",[],[1],[0.43333333333333335],horizontal,"(890.0, 762.0)",1.4833333333333334,0.396,1,1726.381,3,0.08,0.25
0,301,target,"[(1135, 815)]",[],[1],[0.85],vertical,"(390.0, 762.0)",1.0,nan,0,1732.547,0,0.08,0.25
0,302,catch,"[(1140, 803)]",[],[1],[],vertical,"(890.0, 762.0)",,"('cti', 1.258),nan",0,1737.331,0,0.08,0.25
0,303,target,"[(1165, 785)]",[],[1],[0.6833333333333333],vertical,"(390.0, 262.0)",0.6166666666666667,0.638,1,1741.719,1,0.08,0.25
0,304,catch,"[(1160, 817)]",[],[1],[],horizontal,"(890.0, 762.0)",1.7,nan,1,1746.814,1,0.08,0.25
0,305,catch,"[(1160, 807)]",[],[1],[],horizontal,"(390.0, 762.0)",1.7,nan,1,1752.315,1,0.08,0.25
0,306,catch,"[(1159, 822)]",[],[1],[],horizontal,"(890.0, 262.0)",1.7,nan,1,1757.385,2,0.08,0.25
0,307,target,"[(1132, 850)]",[],[1],[0.85],vertical,"(390.0, 762.0)",0.6,nan,0,1763.282,0,0.08,0.25
0,308,target,"[(1159, 793)]",[],[1],[0.5333333333333333],vertical,"(890.0, 262.0)",1.25,0.499,1,1768.464,1,0.08,0.25
0,309,catch,"[(1166, 796)]",[],[1],[],horizontal,"(390.0, 262.0)",,"('cti', 0.442),nan",0,1773.6,0,0.1,0.25
0,310,catch,"[(1136, 825)]",[],[1],[],vertical,"(390.0, 262.0)",1.7,nan,1,1777.314,1,0.1,0.25
0,311,target,"[(1175, 832)]",[],[1],[0.48333333333333334],horizontal,"(390.0, 762.0)",0.7666666666666666,0.447,1,1790.326,1,0.1,0.25
0,312,catch,"[(1160, 806)]",[],[1],[],horizontal,"(390.0, 762.0)",1.7,nan,1,1795.293,1,0.1,0.25
0,313,catch,"[(1161, 791)]",[],[1],[],vertical,"(890.0, 262.0)",1.7,nan,1,1800.315,2,0.1,0.25
0,314,target,"[(1166, 808)]",[],[1],[0.5833333333333334],horizontal,"(890.0, 262.0)",0.7666666666666666,0.555,1,1805.773,2,0.1,0.25
0,315,target,"[(1162, 781)]",[],[1],[0.55],vertical,"(890.0, 262.0)",1.5333333333333332,0.509,1,1810.73,2,0.1,0.25
0,316,target,"[(1147, 798)]",[],[1],[0.5666666666666667],horizontal,"(890.0, 262.0)",0.85,0.535,1,1816.598,3,0.1,0.25
0,317,catch,"[(1136, 801)]",[],[1],[],horizontal,"(390.0, 762.0)",1.7,"('cti', 1.68),nan",0,1822.945,0,0.12,0.25
0,318,target,"[(1162, 781)]",[],[1],[0.5333333333333333],vertical,"(890.0, 262.0)",0.7666666666666666,0.495,1,1827.56,1,0.12,0.25
0,319,catch,"[(1143, 806)]",[],[1],[],vertical,"(890.0, 762.0)",1.7,nan,1,1832.556,1,0.12,0.25
0,320,target,"[(1162, 786)]",[],[1],[0.7],horizontal,"(890.0, 262.0)",0.65,0.654,1,1837.582,1,0.1,0.25
0,321,target,"[(1164, 802)]",[],[1],[0.55],horizontal,"(890.0, 262.0)",1.25,0.51,1,1842.698,2,0.1,0.25
0,322,target,"[(1160, 801)]",[],[1],[0.48333333333333334],horizontal,"(390.0, 762.0)",1.35,0.442,1,1848.498,2,0.1,0.25
0,323,catch,"[(1159, 804)]",[],[1],[],horizontal,"(890.0, 762.0)",1.7,nan,1,1854.192,2,0.1,0.25
0,324,target,"[(1134, 806)]",[],[1],[0.6166666666666667],vertical,"(390.0, 762.0)",1.25,0.573,1,1859.9,3,0.1,0.25
0,325,target,"[(1149, 805)]",[],[1],[0.55],horizontal,"(890.0, 762.0)",0.85,0.51,1,1865.855,3,0.1,0.25
0,326,target,"[(1181, 809)]",[],[1],[0.8],horizontal,"(890.0, 762.0)",1.1,0.75,1,1871.716,3,0.1,0.25
0,327,catch,"[(1160, 801)]",[],[1],[],vertical,"(390.0, 762.0)",1.7,nan,1,1877.381,3,0.1,0.25
0,328,target,"[(1145, 792)]",[],[1],[0.48333333333333334],horizontal,"(390.0, 762.0)",0.9,0.446,1,1883.193,3,0.1,0.25
0,329,catch,"[(1160, 799)]",[],[1],[],vertical,"(890.0, 762.0)",1.7,nan,1,1888.599,3,0.1,0.25
0,330,target,"[(1162, 803)]",[],[1],[0.48333333333333334],horizontal,"(390.0, 762.0)",1.2666666666666666,0.447,1,1894.666,3,0.1,0.25
0,331,target,"[(1162, 799)]",[],[1],[0.45],horizontal,"(390.0, 262.0)",1.4666666666666666,0.411,1,1900.483,3,0.1,0.25
0,332,target,"[(1175, 807)]",[],[1],[0.65],vertical,"(390.0, 762.0)",0.55,0.605,1,1906.299,3,0.1,0.25
0,333,target,"[(1164, 796)]",[],[1],[],vertical,"(390.0, 262.0)",,"('cti', 1.026)",0,1911.977,0,0.12,0.25
0,334,catch,"[(1132, 806)]",[],[1],[],horizontal,"(390.0, 262.0)",1.7,nan,1,1915.732,1,0.12,0.25
0,335,target,"[(1166, 792)]",[],[1],[0.5666666666666667],horizontal,"(390.0, 762.0)",1.2,0.524,1,1920.999,1,0.1,0.25
0,336,target,"[(1176, 798)]",[],[1],[0.55],vertical,"(390.0, 262.0)",0.7,0.506,1,1925.916,1,0.1,0.25
0,337,catch,"[(1134, 838)]",[],[1],[0.03333333333333333],vertical,"(890.0, 262.0)",1.7,"0.018,nan",0,1930.581,0,0.12,0.25
0,338,target,"[(1160, 791)]",[],[1],[0.85],horizontal,"(390.0, 762.0)",0.7833333333333333,nan,0,1936.786,0,0.12,0.25
0,339,catch,"[(1172, 793)]",[],[1],[],horizontal,"(390.0, 762.0)",1.7,nan,1,1941.382,1,0.12,0.25
0,340,target,"[(1136, 800)]",[],[1],[0.5166666666666666],horizontal,"(890.0, 762.0)",1.3166666666666667,0.473,1,1946.783,1,0.12,0.25
0,341,target,"[(1160, 792)]",[],[1],[0.6166666666666667],horizontal,"(890.0, 762.0)",0.8,0.572,1,1952.116,1,0.1,0.25
0,342,target,"[(1137, 806)]",[],[1],[0.5666666666666667],vertical,"(890.0, 762.0)",1.3666666666666667,0.526,1,1956.599,2,0.1,0.25
0,343,target,"[(1145, 809)]",[],[1],[0.5333333333333333],horizontal,"(390.0, 762.0)",1.2166666666666666,0.491,1,1962.359,2,0.1,0.25
0,344,catch,"[(1165, 809)]",[],[1],[],vertical,"(390.0, 262.0)",1.7,nan,1,1967.869,2,0.1,0.25
0,345,target,"[(1141, 801)]",[],[1],[0.5],vertical,"(390.0, 762.0)",0.8,0.463,1,1973.645,3,0.1,0.25
0,346,target,"[(1165, 791)]",[],[1],[0.7166666666666667],horizontal,"(890.0, 762.0)",0.4,0.672,1,1979.65,3,0.1,0.25
0,347,target,"[(1161, 797)]",[],[1],[0.5833333333333334],horizontal,"(890.0, 762.0)",1.0333333333333332,0.549,1,1985.082,3,0.1,0.25
0,348,target,"[(1140, 806)]",[],[1],[0.55],vertical,"(390.0, 262.0)",0.45,0.504,1,1990.984,3,0.1,0.25
0,349,catch,"[(1177, 804)]",[],[1],[],vertical,"(890.0, 262.0)",1.7,nan,1,1996.348,3,0.1,0.25
0,350,target,"[(1160, 785)]",[],[1],[0.55],vertical,"(390.0, 762.0)",0.9166666666666666,0.506,1,2002.099,3,0.1,0.25
0,351,target,"[(1165, 785)]",[],[1],[0.45],vertical,"(390.0, 762.0)",1.45,0.412,1,2007.532,3,0.1,0.25
0,352,target,"[(1170, 788)]",[],[1],[0.5],vertical,"(390.0, 762.0)",1.2333333333333334,0.457,1,2013.565,3,0.08,0.25
0,353,target,"[(1161, 800)]",[],[1],[0.6333333333333333],horizontal,"(390.0, 262.0)",1.2,0.59,1,2019.832,3,0.08,0.25
0,354,target,"[(1122, 820)]",[],[1],[0.5],horizontal,"(390.0, 762.0)",0.45,0.46,1,2025.65,3,0.08,0.25
0,355,target,"[(1141, 791)]",[],[1],[0.6166666666666667],vertical,"(890.0, 262.0)",0.5666666666666667,0.573,1,2033.733,3,0.08,0.25
0,356,target,"[(1160, 786)]",[],[1],[0.5333333333333333],vertical,"(890.0, 762.0)",0.3833333333333333,0.492,1,2038.972,3,0.08,0.25
0,357,target,"[(1131, 789)]",[],[1],[0.5166666666666666],vertical,"(890.0, 762.0)",1.0,0.475,1,2044.015,3,0.08,0.25
0,358,target,"[(1161, 792)]",[],[1],[0.6],vertical,"(890.0, 262.0)",1.4333333333333333,0.554,1,2049.865,3,0.08,0.25
0,359,target,"[(1161, 801)]",[],[1],[0.5333333333333333],vertical,"(390.0, 262.0)",0.5833333333333334,0.49,1,2055.9,3,0.06,0.25
0,360,target,"[(1132, 789)]",[],[1],[0.7166666666666667],vertical,"(390.0, 262.0)",1.0166666666666666,0.666,1,2061.283,3,0.06,0.25
0,361,target,"[(1160, 795)]",[],[1],[0.85],horizontal,"(890.0, 262.0)",0.5666666666666667,nan,0,2067.373,0,0.06,0.25
0,362,target,"[(1155, 836)]",[],[1],[0.5333333333333333],vertical,"(890.0, 762.0)",0.65,0.49,1,2071.767,1,0.06,0.25
0,363,target,"[(1128, 803)]",[],[1],[0.85],horizontal,"(890.0, 762.0)",1.1666666666666667,nan,0,3853.588,0,0.06,0.25
0,364,catch,"[(1117, 809)]",[],[1],[],horizontal,"(890.0, 762.0)",1.7,nan,1,3858.347,1,0.06,0.25
0,365,target,"[(1143, 785)]",[],[1],[0.5166666666666666],horizontal,"(390.0, 262.0)",1.2,0.475,1,3863.873,1,0.06,0.25
0,366,target,"[(1165, 795)]",[],[1],[0.55],horizontal,"(890.0, 762.0)",0.8333333333333334,0.506,1,3869.244,1,0.06,0.25
0,367,catch,"[(1161, 789)]",[],[1],[],vertical,"(390.0, 262.0)",1.7,nan,1,3874.174,2,0.04,0.25
0,368,target,"[(1154, 792)]",[],[1],[0.5666666666666667],horizontal,"(390.0, 762.0)",0.5333333333333333,0.527,1,3879.608,2,0.04,0.25
0,369,target,"[(1165, 799)]",[],[1],[0.85],vertical,"(390.0, 262.0)",0.35,nan,0,3884.685,0,0.04,0.25
0,370,target,"[(1129, 819)]",[],[1],[0.7],horizontal,"(890.0, 762.0)",0.55,0.656,1,3888.907,1,0.04,0.25
0,371,target,"[(1158, 806)]",[],[1],[0.5166666666666666],horizontal,"(390.0, 762.0)",0.6,0.476,1,3893.708,1,0.04,0.25
0,372,target,"[(1126, 848)]",[],[1],[0.5333333333333333],horizontal,"(890.0, 262.0)",0.43333333333333335,0.495,1,3898.107,1,0.04,0.25
0,373,target,"[(1125, 837)]",[],[1],[0.48333333333333334],horizontal,"(390.0, 762.0)",1.3833333333333333,0.444,1,3903.074,2,0.04,0.25
0,374,catch,"[(1135, 806)]",[],[1],[],vertical,"(390.0, 762.0)",1.7,nan,1,3908.682,2,0.04,0.25
0,375,target,"[(1166, 793)]",[],[1],[0.4166666666666667],vertical,"(890.0, 762.0)",1.4166666666666667,0.376,1,3913.873,2,0.04,0.25
0,376,target,"[(1160, 797)]",[],[1],[0.5166666666666666],horizontal,"(390.0, 762.0)",1.2166666666666666,0.481,1,3919.65,3,0.04,0.25
0,377,target,"[(1164, 795)]",[],[1],[0.35],horizontal,"(390.0, 762.0)",1.4333333333333333,0.317,1,3926.075,3,0.04,0.25
0,378,target,"[(1162, 795)]",[],[1],[0.5333333333333333],horizontal,"(390.0, 762.0)",0.9333333333333333,0.492,1,3932.274,3,0.04,0.25
0,379,target,"[(1159, 798)]",[],[1],[0.85],horizontal,"(390.0, 762.0)",0.9833333333333333,nan,0,3938.188,0,0.04,0.25
0,380,target,"[(1141, 782)]",[],[1],[0.6166666666666667],horizontal,"(890.0, 262.0)",1.5333333333333332,0.583,1,3942.724,1,0.04,0.25
0,381,catch,"[(1136, 788)]",[],[1],[],vertical,"(390.0, 762.0)",,"('cti', 1.66),nan",0,3948.24,0,0.06,0.25
0,382,target,"[(1126, 839)]",[],[1],[0.85],vertical,"(890.0, 762.0)",1.5,nan,0,3953.032,0,0.06,0.25
0,383,catch,"[(1162, 810)]",[],[1],[],vertical,"(390.0, 262.0)",1.7,nan,1,3963.425,1,0.04,0.25
0,384,catch,"[(1165, 811)]",[],[1],[],vertical,"(890.0, 262.0)",,"('cti', 1.176),nan",0,3969.024,0,0.06,0.25
0,385,catch,"[(1157, 794)]",[],[1],[],horizontal,"(890.0, 762.0)",1.7,nan,1,3973.308,1,0.06,0.25
0,386,target,"[(1147, 761)]",[],[1],[0.5833333333333334],horizontal,"(390.0, 762.0)",1.0333333333333332,0.54,1,3978.608,1,0.06,0.25
0,387,target,"[(1158, 784)]",[],[1],[0.5166666666666666],vertical,"(390.0, 262.0)",0.6166666666666667,0.477,1,3983.658,1,0.04,0.25
0,388,catch,"[(1169, 790)]",[],[1],[],horizontal,"(390.0, 762.0)",1.7,nan,1,3988.053,2,0.04,0.25
0,389,catch,"[(1155, 785)]",[],[1],[],horizontal,"(390.0, 262.0)",1.7,nan,1,3993.7,2,0.04,0.25
0,390,catch,"[(1141, 780)]",[],[1],[],vertical,"(890.0, 262.0)",1.7,nan,1,3999.438,2,0.04,0.25
0,391,target,"[(1160, 800)]",[],[1],[0.5166666666666666],vertical,"(390.0, 762.0)",0.55,0.474,1,4005.557,3,0.04,0.25
0,392,catch,"[(1162, 784)]",[],[1],[],vertical,"(890.0, 262.0)",1.7,nan,1,4010.657,3,0.04,0.25
0,393,target,"[(1168, 802)]",[],[1],[0.5666666666666667],vertical,"(390.0, 762.0)",1.3333333333333333,0.527,1,4016.373,3,0.04,0.25
0,394,catch,"[(1168, 790)]",[],[1],[],vertical,"(390.0, 262.0)",1.7,nan,1,4022.324,3,0.04,0.25
0,395,target,"[(1172, 771)]",[],[1],[0.6833333333333333],horizontal,"(890.0, 762.0)",1.4,0.639,1,4027.956,3,0.04,0.25
0,396,target,"[(1171, 791)]",[],[1],[0.5],horizontal,"(890.0, 762.0)",0.9,0.458,1,4034.276,3,0.04,0.25
0,397,target,"[(1165, 792)]",[],[1],[0.85],horizontal,"(390.0, 762.0)",1.0333333333333332,nan,0,4039.881,0,0.04,0.25
0,398,target,"[(1173, 794)]",[],[1],[0.5333333333333333],vertical,"(390.0, 262.0)",0.95,0.49,1,4044.2,1,0.04,0.25
0,399,target,"[(1165, 801)]",[],[1],[0.5333333333333333],horizontal,"(890.0, 762.0)",1.0,0.487,1,4048.955,1,0.04,0.25
0,400,target,"[(1161, 804)]",[],[1],[0.85],vertical,"(890.0, 262.0)",1.2166666666666666,nan,0,4054.475,0,0.04,0.25
0,401,catch,"[(1143, 804)]",[],[1],[],horizontal,"(390.0, 762.0)",1.7,nan,1,4059.459,1,0.04,0.25
0,402,target,"[(1150, 806)]",[],[1],[0.65],vertical,"(890.0, 262.0)",1.4833333333333334,0.603,1,4064.624,1,0.04,0.25
0,403,target,"[(1155, 803)]",[],[1],[0.6166666666666667],vertical,"(890.0, 262.0)",0.5166666666666666,0.574,1,4069.781,1,0.04,0.25
0,404,catch,"[(1156, 787)]",[],[1],[],vertical,"(890.0, 762.0)",1.7,nan,1,4074.324,2,0.04,0.25
0,405,target,"[(1149, 782)]",[],[1],[0.5333333333333333],vertical,"(390.0, 762.0)",0.5666666666666667,0.491,1,4080.324,2,0.04,0.25
0,406,catch,"[(1141, 792)]",[],[1],[],horizontal,"(390.0, 762.0)",1.7,nan,1,4084.792,2,0.04,0.25
0,407,catch,"[(1159, 793)]",[],[1],[],vertical,"(890.0, 262.0)",1.7,nan,1,4090.792,3,0.04,0.25
0,408,target,"[(1146, 807)]",[],[1],[0.85],vertical,"(390.0, 262.0)",1.2833333333333332,nan,0,4096.934,0,0.04,0.25
0,409,target,"[(1135, 790)]",[],[1],[0.85],vertical,"(390.0, 762.0)",1.0333333333333332,nan,0,4101.999,0,0.04,0.25
0,410,target,"[(1155, 792)]",[],[1],[0.5833333333333334],vertical,"(890.0, 262.0)",0.4166666666666667,0.538,1,4107.138,1,0.04,0.25
0,411,target,"[(1159, 781)]",[],[1],[0.85],vertical,"(390.0, 762.0)",0.9833333333333333,nan,0,4111.703,0,0.04,0.25
0,412,target,"[(1131, 778)]",[],[1],[0.5666666666666667],horizontal,"(890.0, 262.0)",0.8666666666666667,0.526,1,4116.562,1,0.04,0.25
0,413,target,"[(1096, 791)]",[],[1],[0.85],vertical,"(390.0, 262.0)",0.8666666666666667,nan,0,4121.509,0,0.04,0.25
0,414,target,"[(1126, 793)]",[],[1],[0.85],vertical,"(390.0, 762.0)",0.3833333333333333,nan,0,4125.976,0,0.04,0.25
0,415,catch,"[(1140, 795)]",[],[1],[],horizontal,"(890.0, 762.0)",1.7,nan,1,4135.305,1,0.04,0.25
0,416,target,"[(1161, 787)]",[],[1],[0.5666666666666667],horizontal,"(890.0, 262.0)",0.5666666666666667,0.521,1,4140.576,1,0.04,0.25
0,417,target,"[(1160, 792)]",[],[1],[0.6],horizontal,"(390.0, 262.0)",0.4166666666666667,0.56,1,4145.135,1,0.04,0.25
0,418,target,"[(1159, 802)]",[],[1],[0.48333333333333334],horizontal,"(890.0, 262.0)",0.43333333333333335,0.44,1,4149.608,2,0.04,0.25
0,419,target,"[(1166, 791)]",[],[1],[],vertical,"(890.0, 762.0)",,"('cti', 0.405)",0,4154.576,0,0.06,0.25
0,420,target,"[(1138, 825)]",[],[1],[0.5333333333333333],vertical,"(890.0, 762.0)",1.0166666666666666,0.489,1,4158.259,1,0.06,0.25
0,421,target,"[(1155, 791)]",[],[1],[0.5333333333333333],vertical,"(890.0, 762.0)",0.8,0.493,1,4163.2,1,0.06,0.25
0,422,target,"[(1159, 802)]",[],[1],[0.7],horizontal,"(390.0, 262.0)",0.45,0.653,1,4167.676,1,0.06,0.25
0,423,catch,"[(1177, 799)]","[(1156, 848)]",[1],[0.05],horizontal,"(390.0, 762.0)",,"('bar', 0.066),nan",0,4172.908,0,0.08,0.25
0,424,target,"[(1130, 805)]",[],[1],[0.5166666666666666],horizontal,"(390.0, 262.0)",0.36666666666666664,0.472,1,4175.326,1,0.08,0.25
0,425,target,"[(1160, 798)]",[],[1],[0.85],horizontal,"(390.0, 262.0)",0.8,nan,0,4179.867,0,0.08,0.25
0,426,target,"[(1130, 803)]",[],[1],[0.5666666666666667],vertical,"(890.0, 762.0)",0.43333333333333335,0.524,1,4184.643,1,0.08,0.25
0,427,target,"[(1160, 788)]",[],[1],[0.5333333333333333],horizontal,"(890.0, 762.0)",1.4166666666666667,0.491,1,4189.351,1,0.08,0.25
0,428,catch,"[(1161, 806)]",[],[1],[],horizontal,"(890.0, 762.0)",1.7,nan,1,4195.143,1,0.08,0.25
0,429,target,"[(1172, 795)]",[],[1],[0.8],horizontal,"(890.0, 262.0)",1.05,0.75,1,4200.813,2,0.08,0.25
0,430,catch,"[(1161, 796)]",[],[1],[],vertical,"(390.0, 762.0)",1.7,nan,1,4206.226,2,0.08,0.25
0,431,target,"[(1161, 797)]",[],[1],[0.5166666666666666],horizontal,"(890.0, 262.0)",0.4,0.471,1,4211.946,2,0.06,0.25
0,432,catch,"[(1158, 798)]",[],[1],[],vertical,"(390.0, 262.0)",1.7,nan,1,4216.836,3,0.06,0.25
0,433,target,"[(1132, 801)]",[],[1],[0.5666666666666667],vertical,"(890.0, 262.0)",0.6833333333333333,0.525,1,4222.68,3,0.06,0.25
0,434,target,"[(1156, 786)]",[],[1],[0.55],horizontal,"(390.0, 762.0)",1.1,0.507,1,4228.376,3,0.04,0.25
0,435,catch,"[(1152, 806)]",[],[1],[],horizontal,"(390.0, 762.0)",,"('cti', 1.644),nan",0,4234.328,0,0.06,0.25
0,436,target,"[(1137, 795)]",[],[1],[0.55],vertical,"(390.0, 262.0)",1.35,0.509,1,4239.188,1,0.06,0.25
0,437,target,"[(1149, 790)]",[],[1],[0.55],horizontal,"(890.0, 762.0)",1.1166666666666667,0.506,1,4244.56,1,0.06,0.25
0,438,target,"[(1158, 803)]",[],[1],[0.5833333333333334],horizontal,"(390.0, 262.0)",0.8333333333333334,0.542,1,4249.593,1,0.06,0.25
0,439,target,"[(1160, 796)]",[],[1],[0.7],horizontal,"(890.0, 762.0)",0.7,0.66,1,4254.526,2,0.06,0.25
0,440,catch,"[(1165, 800)]",[],[1],[],horizontal,"(390.0, 762.0)",1.7,nan,1,4259.863,2,0.06,0.25
0,441,catch,"[(1161, 800)]",[],[1],[],horizontal,"(890.0, 762.0)",1.7,nan,1,4265.493,2,0.06,0.25
0,442,catch,"[(1149, 795)]",[],[1],[],horizontal,"(890.0, 262.0)",1.7,nan,1,4271.44,3,0.06,0.25
0,443,target,"[(1148, 792)]",[],[1],[0.48333333333333334],horizontal,"(890.0, 762.0)",0.48333333333333334,0.447,1,4277.798,3,0.06,0.25
0,444,target,"[(1158, 803)]",[],[1],[0.5666666666666667],vertical,"(390.0, 762.0)",0.7666666666666666,0.528,1,4283.075,3,0.06,0.25
0,445,target,"[(1148, 805)]",[],[1],[0.5166666666666666],horizontal,"(390.0, 262.0)",1.35,0.475,1,4288.551,3,0.06,0.25
0,446,target,"[(1086, 828)]",[],[1],[0.7],vertical,"(890.0, 262.0)",0.43333333333333335,0.656,1,4294.46,3,0.06,0.25
0,447,target,"[(1163, 801)]",[],[1],[0.55],vertical,"(390.0, 262.0)",0.85,0.509,1,4300.578,3,0.06,0.25
0,448,target,"[(1141, 805)]",[],[1],[0.5666666666666667],horizontal,"(890.0, 262.0)",0.4666666666666667,0.521,1,4306.292,3,0.06,0.25
0,449,target,"[(1131, 790)]",[],[1],[0.6666666666666666],vertical,"(390.0, 762.0)",0.7,0.62,1,4311.586,3,0.06,0.25
0,450,target,"[(1131, 793)]",[],[1],[0.5333333333333333],vertical,"(890.0, 762.0)",0.95,0.49,1,4316.937,3,0.06,0.25
0,451,target,"[(1155, 780)]",[],[1],[0.85],horizontal,"(390.0, 262.0)",1.05,nan,0,4322.725,0,0.06,0.25
0,452,target,"[(1115, 799)]",[],[1],[0.65],horizontal,"(390.0, 262.0)",0.9,0.605,1,4327.37,1,0.06,0.25
0,453,target,"[(1119, 778)]",[],[1],[0.5333333333333333],horizontal,"(390.0, 762.0)",0.95,0.492,1,4332.608,1,0.06,0.25
0,454,target,"[(1162, 796)]",[],[1],[0.6666666666666666],vertical,"(390.0, 762.0)",0.45,0.622,1,4337.239,1,0.06,0.25
0,455,catch,"[(1136, 785)]",[],[1],[],vertical,"(890.0, 262.0)",1.7,nan,1,4341.811,2,0.06,0.25
0,456,target,"[(1158, 787)]",[],[1],[0.55],vertical,"(390.0, 262.0)",0.75,0.504,1,4347.592,2,0.06,0.25
0,457,target,"[(1161, 795)]",[],[1],[0.85],horizontal,"(890.0, 762.0)",0.6,nan,0,4352.759,0,0.06,0.25
0,458,target,"[(1121, 830)]",[],[1],[0.85],vertical,"(390.0, 262.0)",0.6833333333333333,nan,0,4357.304,0,0.06,0.25
0,459,target,"[(1116, 808)]",[],[1],[0.85],vertical,"(890.0, 262.0)",1.1166666666666667,nan,0,4362.075,0,0.06,0.25
0,460,target,"[(1160, 793)]",[],[1],[0.6],vertical,"(390.0, 262.0)",1.0666666666666667,0.556,1,4367.277,1,0.06,0.25
0,461,catch,"[(1131, 789)]",[],[1],[],vertical,"(890.0, 262.0)",1.7,nan,1,4372.953,1,0.06,0.25
0,462,catch,"[(1153, 803)]",[],[1],[],vertical,"(890.0, 262.0)",1.7,nan,1,4378.009,1,0.06,0.25
0,463,target,"[(1156, 795)]",[],[1],[0.48333333333333334],horizontal,"(390.0, 262.0)",0.4,0.442,1,4383.56,2,0.06,0.25
0,464,catch,"[(1159, 811)]",[],[1],[],vertical,"(890.0, 762.0)",1.7,nan,1,4388.009,2,0.06,0.25
0,465,target,"[(1130, 795)]",[],[1],[0.85],horizontal,"(890.0, 262.0)",1.0,nan,0,4393.195,0,0.06,0.25
0,466,target,"[(1120, 812)]",[],[1],[0.4666666666666667],vertical,"(890.0, 262.0)",0.7666666666666666,0.427,1,4398.2,1,0.06,0.25
0,467,target,"[(1136, 801)]",[],[1],[0.6],vertical,"(890.0, 762.0)",0.7,0.557,1,4403.293,1,0.06,0.25
0,468,catch,"[(1162, 793)]",[],[1],[],vertical,"(390.0, 262.0)",1.7,nan,1,4407.891,1,0.06,0.25
0,469,target,"[(1138, 807)]",[],[1],[0.48333333333333334],vertical,"(890.0, 762.0)",0.8666666666666667,0.446,1,4412.86,2,0.04,0.25
0,470,target,"[(1131, 793)]",[],[1],[0.48333333333333334],vertical,"(890.0, 762.0)",1.4833333333333334,0.437,1,4417.812,2,0.04,0.25
0,471,target,"[(1147, 786)]",[],[1],[0.6],horizontal,"(890.0, 262.0)",0.75,0.557,1,4423.36,2,0.04,0.25
0,472,target,"[(1142, 799)]",[],[1],[0.5666666666666667],vertical,"(890.0, 762.0)",0.9833333333333333,0.529,1,4428.848,3,0.04,0.25
0,473,target,"[(1132, 794)]",[],[1],[0.6],vertical,"(390.0, 762.0)",0.9666666666666667,0.555,1,4435.161,3,0.02,0.25
0,474,catch,"[(1134, 796)]",[],[1],[],vertical,"(390.0, 262.0)",1.7,nan,1,4440.563,3,0.02,0.25
0,475,target,"[(1141, 772)]",[],[1],[0.5166666666666666],vertical,"(890.0, 262.0)",0.95,0.477,1,4446.509,3,0.02,0.25
0,476,target,"[(1155, 794)]",[],[1],[0.4666666666666667],horizontal,"(890.0, 262.0)",0.8833333333333333,0.43,1,4452.426,3,0.02,0.25
0,477,target,"[(1155, 803)]",[],[1],[0.55],horizontal,"(390.0, 762.0)",1.2833333333333332,0.514,1,4458.142,3,0.02,0.25
0,478,catch,"[(1151, 776)]",[],[1],[],horizontal,"(390.0, 262.0)",1.7,nan,1,4464.019,3,0.02,0.25
0,479,target,"[(1159, 778)]",[],[1],[0.6333333333333333],horizontal,"(890.0, 762.0)",1.1166666666666667,0.591,1,4470.377,3,0.02,0.25
0,480,target,"[(1160, 800)]",[],[1],[0.65],horizontal,"(390.0, 262.0)",0.4166666666666667,0.611,1,4476.743,3,0.02,0.25
0,481,catch,"[(1160, 791)]",[],[1],[],vertical,"(390.0, 762.0)",1.7,nan,1,4481.877,3,0.02,0.25
0,482,target,"[(1128, 789)]",[],[1],[0.55],vertical,"(390.0, 762.0)",0.5333333333333333,0.503,1,4487.66,3,0.02,0.25
0,483,catch,"[(1123, 782)]",[],[1],[],vertical,"(890.0, 762.0)",1.7,nan,1,4492.594,3,0.02,0.25
0,484,target,"[(1136, 788)]",[],[1],[0.85],horizontal,"(390.0, 262.0)",0.5333333333333333,nan,0,4498.43,0,0.02,0.25
0,485,target,"[(1118, 796)]",[],[1],[0.6833333333333333],vertical,"(390.0, 262.0)",1.3333333333333333,0.642,1,4502.444,1,0.0,0.25
0,486,target,"[(1151, 796)]",[],[1],[0.85],horizontal,"(890.0, 262.0)",0.55,nan,0,4507.937,0,0.0,0.25
0,487,catch,"[(1127, 809)]",[],[1],[],horizontal,"(390.0, 262.0)",1.7,nan,1,4512.408,1,0.0,0.25
0,488,target,"[(1155, 810)]",[],[1],[0.7333333333333333],horizontal,"(890.0, 762.0)",0.36666666666666664,0.685,1,4517.677,1,0.0,0.25
0,489,target,"[(1160, 793)]",[],[1],[0.55],vertical,"(390.0, 262.0)",0.65,0.505,1,4522.771,1,0.0,0.25
0,490,target,"[(1155, 794)]",[],[1],[0.55],horizontal,"(390.0, 262.0)",0.6333333333333333,0.511,1,4527.369,2,0.0,0.25
0,491,target,"[(1123, 795)]",[],[1],[0.85],horizontal,"(390.0, 262.0)",0.48333333333333334,nan,0,4532.593,0,0.0,0.25
0,492,target,"[(1123, 796)]",[],[1],[0.85],vertical,"(890.0, 762.0)",0.9666666666666667,nan,0,4536.743,0,0.0,0.25
0,493,target,"[(1131, 790)]",[],[1],[0.5333333333333333],horizontal,"(890.0, 762.0)",0.9833333333333333,0.492,1,4541.944,1,0.0,0.25
0,494,target,"[(1130, 782)]",[],[1],[0.5166666666666666],horizontal,"(390.0, 762.0)",0.3833333333333333,0.47,1,4546.793,1,0.0,0.25
0,495,target,"[(1172, 800)]",[],[1],[0.48333333333333334],vertical,"(890.0, 762.0)",0.45,0.442,1,4550.81,1,0.0,0.25
0,496,target,"[(1160, 818)]",[],[1],[0.6166666666666667],horizontal,"(890.0, 762.0)",0.7666666666666666,0.573,1,4555.228,2,0.0,0.25
0,497,target,"[(1137, 775)]",[],[1],[0.6666666666666666],vertical,"(390.0, 762.0)",0.4666666666666667,0.623,1,4561.016,2,0.0,0.25
0,498,catch,"[(1160, 787)]",[],[1],[],vertical,"(890.0, 262.0)",1.7,nan,1,4566.158,2,0.0,0.25
0,499,catch,"[(1158, 788)]",[],[1],[],vertical,"(890.0, 262.0)",1.7,nan,1,4571.634,3,0.0,0.25
0,500,target,"[(1164, 779)]",[],[1],[0.5333333333333333],horizontal,"(390.0, 262.0)",0.7333333333333333,0.492,1,4578.075,3,0.0,0.25
0,501,catch,"[(1132, 797)]",[],[1],[],vertical,"(390.0, 762.0)",1.7,nan,1,4583.127,3,0.0,0.25
0,502,target,"[(1163, 782)]",[],[1],[0.36666666666666664],horizontal,"(890.0, 762.0)",1.5166666666666666,0.329,1,4589.277,3,0.0,0.25
0,503,target,"[(1158, 805)]",[],[1],[0.5666666666666667],vertical,"(390.0, 762.0)",0.9166666666666666,0.533,1,4595.589,3,0.0,0.25
0,504,target,"[(1140, 801)]",[],[1],[0.6166666666666667],vertical,"(390.0, 262.0)",0.55,0.57,1,4601.511,3,0.0,0.25
0,505,target,"[(1121, 804)]",[],[1],[0.4666666666666667],horizontal,"(390.0, 762.0)",0.6666666666666666,0.424,1,4607.211,3,0.0,0.25
0,506,target,"[(1134, 791)]",[],[1],[0.5166666666666666],vertical,"(390.0, 762.0)",0.4166666666666667,0.477,1,4612.911,3,0.0,0.25
0,507,target,"[(1159, 793)]",[],[1],[0.6166666666666667],horizontal,"(390.0, 762.0)",0.7833333333333333,0.579,1,4617.912,3,0.0,0.25
0,508,target,"[(1160, 794)]",[],[1],[0.65],horizontal,"(890.0, 262.0)",0.5333333333333333,0.615,1,4623.093,3,0.0,0.25
0,509,target,"[(1160, 804)]",[],[1],[0.8166666666666667],horizontal,"(390.0, 762.0)",1.1333333333333333,0.773,1,4628.593,3,0.0,0.25
0,510,target,"[(1135, 791)]",[],[1],[0.5166666666666666],horizontal,"(390.0, 262.0)",0.6,0.478,1,4634.511,3,0.0,0.25
0,511,catch,"[(1131, 796)]",[],[1],[],horizontal,"(890.0, 762.0)",1.7,nan,1,4640.144,3,0.0,0.25
0,512,catch,"[(1149, 795)]",[],[1],[],vertical,"(390.0, 762.0)",1.7,nan,1,4646.176,3,0.0,0.25
0,513,target,"[(1159, 791)]",[],[1],[0.5166666666666666],horizontal,"(890.0, 262.0)",0.3833333333333333,0.48,1,4652.428,3,0.0,0.25
0,514,target,"[(1157, 808)]",[],[1],[0.5333333333333333],vertical,"(890.0, 262.0)",0.5666666666666667,0.494,1,4657.727,3,0.0,0.25
0,515,target,"[(1131, 799)]",[],[1],[0.5666666666666667],vertical,"(390.0, 262.0)",1.1,0.528,1,4662.928,3,0.0,0.25
0,516,target,"[(1157, 788)]",[],[1],[0.6333333333333333],vertical,"(890.0, 762.0)",0.7166666666666667,0.594,1,4668.635,3,0.0,0.25
0,517,target,"[(1146, 796)]",[],[1],[],vertical,"(390.0, 262.0)",,"('cti', 0.559)",0,4674.572,0,0.02,0.25
0,518,catch,"[(1136, 789)]",[],[1],[],horizontal,"(390.0, 762.0)",1.7,nan,1,4678.211,1,0.02,0.25
0,519,target,"[(1167, 808)]",[],[1],[0.6],horizontal,"(390.0, 762.0)",1.1,0.565,1,4683.295,1,0.02,0.25
0,520,target,"[(1146, 801)]",[],[1],[0.8333333333333334],horizontal,"(390.0, 262.0)",1.05,0.784,1,4688.509,1,0.02,0.25
0,521,catch,"[(1158, 785)]",[],[1],[],vertical,"(390.0, 262.0)",1.7,nan,1,4694.266,2,0.02,0.25
0,522,target,"[(1163, 791)]",[],[1],[0.55],vertical,"(890.0, 762.0)",0.7833333333333333,0.503,1,4700.325,2,0.02,0.25
0,523,catch,"[(1140, 816)]",[],[1],[],vertical,"(890.0, 762.0)",1.7,nan,1,4705.018,2,0.02,0.25
0,524,target,"[(1137, 786)]",[],[1],[0.5666666666666667],horizontal,"(890.0, 762.0)",0.9833333333333333,0.529,1,4711.216,3,0.02,0.25
0,525,target,"[(1138, 787)]",[],[1],[0.85],vertical,"(390.0, 762.0)",1.2833333333333332,nan,0,4717.246,0,0.02,0.25
0,526,target,"[(1131, 796)]",[],[1],[0.5166666666666666],horizontal,"(390.0, 262.0)",1.3666666666666667,0.48,1,4722.044,1,0.02,0.25
0,527,target,"[(1137, 802)]",[],[1],[0.5333333333333333],vertical,"(390.0, 762.0)",0.8666666666666667,0.491,1,4727.8,1,0.02,0.25
0,528,target,"[(1140, 834)]",[],[1],[0.26666666666666666],horizontal,"(390.0, 762.0)",1.5,0.231,1,4732.942,1,0.02,0.25
0,529,target,"[(1145, 802)]",[],[1],[0.7166666666666667],vertical,"(390.0, 762.0)",1.15,0.672,1,4738.804,2,0.02,0.25
0,530,catch,"[(1134, 781)]",[],[1],[],vertical,"(890.0, 262.0)",1.7,nan,1,4744.807,2,0.02,0.25
0,531,target,"[(1160, 795)]",[],[1],[0.5],horizontal,"(390.0, 262.0)",0.7333333333333333,0.461,1,4750.477,2,0.02,0.25
0,532,target,"[(1160, 797)]",[],[1],[0.5166666666666666],vertical,"(890.0, 762.0)",0.6666666666666666,0.476,1,4755.983,3,0.02,0.25
0,533,target,"[(1175, 799)]",[],[1],[0.65],horizontal,"(890.0, 762.0)",0.6,0.605,1,4761.889,3,0.02,0.25
0,534,catch,"[(1158, 781)]",[],[1],[],horizontal,"(890.0, 762.0)",1.7,nan,1,4767.16,3,0.02,0.25
0,535,catch,"[(1157, 769)]",[],[1],[],vertical,"(890.0, 262.0)",1.7,nan,1,4772.795,3,0.02,0.25
0,536,target,"[(1160, 790)]",[],[1],[0.6333333333333333],vertical,"(890.0, 262.0)",0.4666666666666667,0.585,1,4778.794,3,0.02,0.25
0,537,target,"[(1137, 770)]",[],[1],[0.5666666666666667],vertical,"(890.0, 762.0)",0.7166666666666667,0.525,1,4784.144,3,0.02,0.25
0,538,catch,"[(1131, 796)]",[],[1],[],vertical,"(390.0, 262.0)",1.7,nan,1,4789.579,3,0.02,0.25
0,539,target,"[(1160, 786)]",[],[1],[0.48333333333333334],horizontal,"(390.0, 762.0)",0.9,0.444,1,4795.383,3,0.02,0.25
0,540,target,"[(1158, 795)]",[],[1],[0.5166666666666666],horizontal,"(390.0, 762.0)",1.3666666666666667,0.476,1,4801.09,3,0.02,0.25
0,541,target,"[(1116, 810)]",[],[1],[0.5333333333333333],vertical,"(890.0, 262.0)",1.2166666666666666,0.499,1,4806.967,3,0.02,0.25
0,542,catch,"[(1155, 781)]",[],[1],[],horizontal,"(890.0, 262.0)",1.7,nan,1,4815.812,3,0.02,0.25
0,543,target,"[(1132, 782)]",[],[1],[0.7],vertical,"(390.0, 262.0)",1.05,0.658,1,4821.695,3,0.02,0.25
0,544,target,"[(1157, 797)]",[],[1],[0.26666666666666666],vertical,"(390.0, 762.0)",1.5,0.232,1,4827.513,3,0.02,0.25
0,545,target,"[(1155, 781)]",[],[1],[0.5833333333333334],horizontal,"(390.0, 262.0)",0.9,0.541,1,4833.862,3,0.02,0.25
0,546,target,"[(1146, 787)]",[],[1],[0.7],horizontal,"(890.0, 262.0)",1.35,0.665,1,4839.595,3,0.02,0.25
0,547,target,"[(1154, 786)]",[],[1],[0.5333333333333333],horizontal,"(390.0, 762.0)",0.7333333333333333,0.493,1,4845.586,3,0.02,0.25
0,548,target,"[(1133, 770)]",[],[1],[0.5],vertical,"(890.0, 262.0)",0.8166666666666667,0.461,1,4850.9,3,0.02,0.25
0,549,target,"[(1143, 789)]",[],[1],[0.6166666666666667],vertical,"(890.0, 262.0)",0.4666666666666667,0.578,1,4856.572,3,0.02,0.25
0,550,target,"[(1136, 781)]",[],[1],[0.5333333333333333],horizontal,"(890.0, 262.0)",0.5666666666666667,0.488,1,4862.261,3,0.02,0.25
0,551,target,"[(1132, 773)]",[],[1],[0.43333333333333335],horizontal,"(390.0, 262.0)",1.4333333333333333,0.402,1,4867.444,3,0.02,0.25
0,552,target,"[(1136, 787)]",[],[1],[0.5166666666666666],vertical,"(890.0, 762.0)",0.8,0.478,1,4873.765,3,0.02,0.25
0,553,catch,"[(1155, 788)]",[],[1],[],horizontal,"(390.0, 262.0)",1.7,nan,1,4879.206,3,0.02,0.25
0,554,target,"[(1152, 786)]",[],[1],[0.5],horizontal,"(390.0, 262.0)",1.1666666666666667,0.465,1,4884.829,3,0.02,0.25
0,555,target,"[(1155, 792)]",[],[1],[0.7],horizontal,"(890.0, 262.0)",0.48333333333333334,0.658,1,4890.328,3,0.02,0.25
0,556,target,"[(1160, 781)]",[],[1],[0.5],horizontal,"(890.0, 262.0)",1.0166666666666666,0.458,1,4895.79,3,0.02,0.25
0,557,target,"[(1159, 778)]",[],[1],[],horizontal,"(390.0, 762.0)",,"('cti', 1.081)",0,4901.811,0,0.04,0.25
0,558,target,"[(1119, 877)]",[],[1],[0.5333333333333333],vertical,"(390.0, 762.0)",0.9,0.493,1,4906.144,1,0.04,0.25
0,559,target,"[(1156, 805)]",[],[1],[0.6333333333333333],vertical,"(890.0, 262.0)",0.65,0.594,1,4927.137,1,0.04,0.25
0,560,target,"[(1151, 797)]",[],[1],[0.5],horizontal,"(390.0, 762.0)",0.9833333333333333,0.467,1,4931.996,1,0.04,0.25
0,561,catch,"[(1182, 812)]",[],[1],[],horizontal,"(890.0, 762.0)",,"('cti', 0.591),nan",0,4936.703,0,0.06,0.25
0,562,target,"[(1039, 796)]",[],[1],[0.13333333333333333],horizontal,"(390.0, 762.0)",1.2666666666666666,0.1,0,4940.528,0,0.06,0.25
0,563,target,"[(1165, 806)]",[],[1],[],horizontal,"(390.0, 762.0)",,"('cti', 1.05)",0,4945.079,0,0.08,0.25
0,564,target,"[(1025, 798)]",[],[1],[0.6166666666666667],vertical,"(390.0, 262.0)",0.9666666666666667,0.572,1,4948.911,1,0.08,0.25
0,565,target,"[(1170, 796)]",[],[1],[0.35],vertical,"(390.0, 762.0)",1.1333333333333333,0.318,1,4954.214,1,0.08,0.25
0,566,catch,"[(1164, 789)]",[],[1],[],horizontal,"(890.0, 762.0)",1.7,nan,1,4959.078,1,0.08,0.25
0,567,target,"[(1176, 816)]",[],[1],[0.5833333333333334],horizontal,"(890.0, 262.0)",0.65,0.545,1,4964.561,2,0.06,0.25
0,568,target,"[(1160, 809)]","[(1155, 855)]",[1],[0.45],horizontal,"(390.0, 762.0)",,"('bar', 0.459)",0,4969.329,0,0.06,0.25
0,569,catch,"[(1137, 821)]",[],[1],[],horizontal,"(390.0, 262.0)",1.7,nan,1,4971.88,1,0.06,0.25
0,570,target,"[(1179, 790)]",[],[1],[0.85],vertical,"(890.0, 762.0)",0.8166666666666667,nan,0,4976.815,0,0.06,0.25
0,571,catch,"[(1159, 820)]","[(1139, 837)]",[1],[0.11666666666666667],horizontal,"(390.0, 262.0)",,"('bar', 0.134),nan",0,4981.286,0,0.08,0.25
0,572,target,"[(1163, 834)]",[],[1],[0.6166666666666667],horizontal,"(890.0, 762.0)",1.05,0.586,1,4983.613,1,0.08,0.25
0,573,target,"[(1162, 798)]",[],[1],[0.45],horizontal,"(890.0, 762.0)",1.2833333333333332,0.411,1,4990.475,1,0.08,0.25
0,574,target,"[(1157, 802)]",[],[1],[0.5833333333333334],vertical,"(390.0, 762.0)",1.0833333333333333,0.542,1,4995.704,1,0.08,0.25
0,575,target,"[(1150, 802)]",[],[1],[0.55],vertical,"(390.0, 262.0)",0.43333333333333335,0.517,1,5001.029,2,0.08,0.25
0,576,catch,"[(1159, 811)]",[],[1],[],vertical,"(890.0, 262.0)",1.7,nan,1,5005.658,2,0.08,0.25
0,577,target,"[(1174, 802)]",[],[1],[0.5],horizontal,"(890.0, 262.0)",1.25,0.467,1,5011.244,2,0.08,0.25
0,578,catch,"[(1165, 817)]",[],[1],[],horizontal,"(890.0, 762.0)",,"('cti', 1.361),nan",0,5017.004,0,0.1,0.25
0,579,target,"[(1169, 798)]",[],[1],[0.65],horizontal,"(390.0, 762.0)",0.8166666666666667,0.616,1,5021.877,1,0.1,0.25
0,580,target,"[(1147, 788)]",[],[1],[0.6333333333333333],horizontal,"(390.0, 262.0)",0.9333333333333333,0.588,1,5027.096,1,0.1,0.25
0,581,catch,"[(1165, 797)]",[],[1],[],horizontal,"(890.0, 762.0)",1.7,nan,1,5032.406,1,0.1,0.25
0,582,target,"[(1160, 791)]",[],[1],[0.65],vertical,"(390.0, 262.0)",1.1833333333333333,0.61,1,5037.663,2,0.1,0.25
0,583,target,"[(1161, 815)]",[],[1],[0.5333333333333333],horizontal,"(390.0, 762.0)",1.4833333333333334,0.499,1,5043.64,2,0.1,0.25
0,584,target,"[(1163, 785)]",[],[1],[0.85],vertical,"(390.0, 262.0)",0.8,nan,0,5049.578,0,0.1,0.25
0,585,target,"[(1146, 814)]",[],[1],[0.6833333333333333],horizontal,"(890.0, 762.0)",0.9833333333333333,0.648,1,5053.887,1,0.1,0.25
0,586,target,"[(1134, 800)]",[],[1],[0.48333333333333334],horizontal,"(890.0, 762.0)",1.5166666666666666,0.451,1,5059.458,1,0.1,0.25
0,587,target,"[(1160, 783)]",[],[1],[0.18333333333333332],horizontal,"(390.0, 762.0)",1.5166666666666666,0.152,0,5064.529,0,0.1,0.25
0,588,target,"[(1146, 799)]",[],[1],[0.5333333333333333],horizontal,"(890.0, 262.0)",0.8333333333333334,0.492,1,5069.396,1,0.1,0.25
0,589,catch,"[(1161, 783)]",[],[1],[],vertical,"(390.0, 762.0)",1.7,nan,1,5074.112,1,0.1,0.25
0,590,target,"[(1165, 786)]",[],[1],[0.5333333333333333],vertical,"(390.0, 762.0)",1.3166666666666667,0.493,1,5079.346,1,0.1,0.25
0,591,target,"[(1157, 794)]",[],[1],[0.5833333333333334],horizontal,"(390.0, 762.0)",1.2,0.549,1,5084.46,2,0.1,0.25
0,592,catch,"[(1146, 785)]",[],[1],[],horizontal,"(390.0, 762.0)",1.7,nan,1,5090.478,2,0.1,0.25
0,593,target,"[(1161, 803)]",[],[1],[0.55],horizontal,"(390.0, 762.0)",1.4,0.507,1,5095.778,2,0.1,0.25
0,594,target,"[(1177, 790)]",[],[1],[0.6166666666666667],horizontal,"(890.0, 262.0)",1.2,0.577,1,5101.694,3,0.1,0.25
0,595,catch,"[(1175, 771)]",[],[1],[],vertical,"(890.0, 262.0)",1.7,nan,1,5107.87,3,0.1,0.25
0,596,target,"[(1158, 806)]",[],[1],[0.5833333333333334],vertical,"(890.0, 262.0)",0.35,0.542,1,5113.481,3,0.1,0.25
0,597,target,"[(1161, 787)]",[],[1],[0.55],horizontal,"(890.0, 262.0)",1.4166666666666667,0.51,1,5118.421,3,0.1,0.25
0,598,target,"[(1163, 799)]",[],[1],[0.5166666666666666],horizontal,"(390.0, 262.0)",0.7166666666666667,0.476,1,5124.212,3,0.1,0.25
0,599,target,"[(1160, 799)]",[],[1],[0.6666666666666666],vertical,"(390.0, 262.0)",0.3833333333333333,0.621,1,5129.913,3,0.1,0.25
0,600,catch,"[(1133, 786)]",[],[1],[],vertical,"(390.0, 762.0)",1.7,nan,1,5135.019,3,0.1,0.25
0,601,catch,"[(1157, 791)]",[],[1],[],horizontal,"(390.0, 762.0)",1.7,nan,1,5140.774,3,0.1,0.25
0,602,catch,"[(1150, 798)]",[],[1],[],horizontal,"(390.0, 762.0)",1.7,nan,1,5146.688,3,0.1,0.25
0,603,target,"[(1159, 791)]",[],[1],[0.5166666666666666],vertical,"(890.0, 762.0)",1.4666666666666666,0.472,1,5152.813,3,0.1,0.25
0,604,catch,"[(1175, 825)]",[],[1],[],horizontal,"(890.0, 262.0)",1.7,nan,1,5158.824,3,0.1,0.25
0,605,target,"[(1159, 788)]",[],[1],[0.5833333333333334],vertical,"(890.0, 762.0)",0.7,0.539,1,5164.845,3,0.1,0.25
0,606,target,"[(1170, 803)]",[],[1],[0.5833333333333334],horizontal,"(390.0, 762.0)",1.0833333333333333,0.547,1,5170.449,3,0.1,0.25
0,607,target,"[(1141, 796)]",[],[1],[0.5833333333333334],horizontal,"(890.0, 262.0)",0.7666666666666666,0.544,1,5176.645,3,0.08,0.25
0,608,target,"[(1159, 796)]",[],[1],[0.65],vertical,"(390.0, 762.0)",1.1,0.607,1,5182.503,3,0.08,0.25
0,609,catch,"[(1165, 799)]",[],[1],[],vertical,"(390.0, 262.0)",1.7,nan,1,5188.606,3,0.08,0.25
0,610,target,"[(1136, 796)]",[],[1],[0.4666666666666667],vertical,"(390.0, 762.0)",1.45,0.432,1,5194.493,3,0.08,0.25
0,611,target,"[(1156, 778)]",[],[1],[0.5],vertical,"(890.0, 262.0)",0.9666666666666667,0.463,1,5200.548,3,0.06,0.25
0,612,catch,"[(1165, 783)]",[],[1],[0.03333333333333333],horizontal,"(390.0, 762.0)",1.7,"0.019,nan",0,5206.314,0,0.08,0.25
0,613,target,"[(1139, 797)]",[],[1],[0.5166666666666666],vertical,"(890.0, 762.0)",0.8,0.483,1,5211.096,1,0.06,0.25
0,614,target,"[(1161, 786)]",[],[1],[0.5333333333333333],vertical,"(390.0, 262.0)",1.2833333333333332,0.489,1,5216.136,1,0.06,0.25
0,615,target,"[(1159, 807)]",[],[1],[0.6],vertical,"(890.0, 762.0)",0.6,0.56,1,5221.546,1,0.06,0.25
0,616,catch,"[(1138, 794)]",[],[1],[],vertical,"(890.0, 262.0)",1.7,nan,1,5225.982,2,0.06,0.25
0,617,catch,"[(1136, 799)]",[],[1],[],horizontal,"(890.0, 262.0)",1.7,nan,1,5231.904,2,0.06,0.25
0,618,target,"[(1136, 801)]",[],[1],[0.5166666666666666],vertical,"(890.0, 262.0)",1.3833333333333333,0.48,1,5237.203,2,0.06,0.25
0,619,target,"[(1149, 798)]",[],[1],[0.55],vertical,"(390.0, 762.0)",1.1666666666666667,0.511,1,5243.39,3,0.06,0.25
0,620,target,"[(1155, 782)]",[],[1],[0.5833333333333334],horizontal,"(890.0, 262.0)",0.7666666666666666,0.539,1,5250.201,3,0.06,0.25
0,621,target,"[(1155, 790)]",[],[1],[0.48333333333333334],horizontal,"(890.0, 262.0)",0.4,0.442,1,5256.133,3,0.04,0.25
0,622,target,"[(1153, 785)]",[],[1],[0.3],horizontal,"(890.0, 262.0)",1.4666666666666666,0.262,1,5261.013,3,0.04,0.25
0,623,target,"[(1153, 809)]",[],[1],[0.5],vertical,"(390.0, 262.0)",0.9,0.461,1,5267.045,3,0.04,0.25
0,624,target,"[(1145, 779)]",[],[1],[0.75],vertical,"(890.0, 762.0)",1.15,0.707,1,5272.513,3,0.04,0.25
0,625,target,"[(1156, 811)]",[],[1],[0.5],vertical,"(890.0, 762.0)",1.5333333333333332,0.469,1,5278.895,3,0.04,0.25
0,626,target,"[(1152, 783)]",[],[1],[0.6666666666666666],vertical,"(890.0, 262.0)",0.3833333333333333,0.627,1,5284.78,3,0.04,0.25
0,627,target,"[(1151, 785)]",[],[1],[0.75],horizontal,"(890.0, 762.0)",1.0666666666666667,0.707,1,5290.098,3,0.04,0.25
0,628,target,"[(1154, 792)]",[],[1],[0.5666666666666667],vertical,"(390.0, 262.0)",1.0333333333333332,0.526,1,5296.079,3,0.02,0.25
0,629,catch,"[(1150, 793)]",[],[1],[],horizontal,"(390.0, 762.0)",,"('cti', 1.034),nan",0,5302.042,0,0.04,0.25
0,630,target,"[(1116, 821)]",[],[1],[0.4666666666666667],horizontal,"(390.0, 262.0)",0.9666666666666667,0.43,1,5306.248,1,0.04,0.25
0,631,target,"[(1140, 788)]",[],[1],[0.5333333333333333],vertical,"(390.0, 762.0)",1.05,0.489,1,5311.101,1,0.04,0.25
0,632,target,"[(1157, 812)]",[],[1],[0.5],vertical,"(890.0, 762.0)",1.4333333333333333,0.461,1,5316.133,1,0.04,0.25
0,633,target,"[(1163, 803)]",[],[1],[0.5666666666666667],vertical,"(390.0, 262.0)",0.5166666666666666,0.524,1,5321.697,2,0.04,0.25
0,634,catch,"[(1168, 807)]",[],[1],[],horizontal,"(390.0, 262.0)",1.7,nan,1,5326.827,2,0.04,0.25
0,635,target,"[(1173, 801)]",[],[1],[0.5166666666666666],horizontal,"(890.0, 762.0)",1.2666666666666666,0.476,1,5332.501,2,0.04,0.25
0,636,target,"[(1132, 793)]",[],[1],[0.7833333333333333],horizontal,"(890.0, 262.0)",1.05,0.739,1,5338.496,3,0.04,0.25
0,637,target,"[(1155, 787)]",[],[1],[0.5166666666666666],vertical,"(390.0, 262.0)",1.5,0.483,1,5345.048,3,0.04,0.25
0,638,target,"[(1160, 779)]",[],[1],[0.6833333333333333],horizontal,"(390.0, 762.0)",1.25,0.647,1,5350.999,3,0.04,0.25
0,639,target,"[(1163, 795)]",[],[1],[0.5166666666666666],vertical,"(890.0, 262.0)",0.6,0.485,1,5356.862,3,0.04,0.25
0,640,target,"[(1160, 788)]",[],[1],[0.5333333333333333],horizontal,"(390.0, 762.0)",0.5,0.494,1,5362.383,3,0.04,0.25
0,641,target,"[(1155, 787)]",[],[1],[0.7666666666666666],vertical,"(390.0, 262.0)",1.0166666666666666,0.719,1,5367.613,3,0.04,0.25
0,642,target,"[(1161, 795)]",[],[1],[0.85],vertical,"(890.0, 262.0)",0.5333333333333333,nan,0,5373.897,0,0.04,0.25
0,643,target,"[(1131, 796)]",[],[1],[0.5333333333333333],horizontal,"(890.0, 262.0)",0.9666666666666667,0.493,1,5377.908,1,0.04,0.25
0,644,target,"[(1162, 817)]",[],[1],[0.6],horizontal,"(390.0, 762.0)",1.2166666666666666,0.558,1,5383.047,1,0.04,0.25
0,645,target,"[(1138, 776)]",[],[1],[0.85],vertical,"(890.0, 762.0)",1.1,nan,0,5388.248,0,0.04,0.25
0,646,catch,"[(1134, 797)]",[],[1],[],vertical,"(890.0, 762.0)",1.7,nan,1,5392.981,1,0.04,0.25
0,647,target,"[(1156, 797)]",[],[1],[0.7166666666666667],vertical,"(390.0, 762.0)",1.2666666666666666,0.671,1,5398.279,1,0.04,0.25
0,648,catch,"[(1161, 813)]",[],[1],[],horizontal,"(890.0, 262.0)",1.7,nan,1,5404.081,1,0.04,0.25
0,649,target,"[(1135, 793)]",[],[1],[0.5833333333333334],horizontal,"(890.0, 762.0)",0.75,0.541,1,5409.432,2,0.04,0.25
0,650,target,"[(1175, 809)]",[],[1],[0.85],horizontal,"(390.0, 762.0)",0.9666666666666667,nan,0,5414.822,0,0.04,0.25
0,651,target,"[(1138, 794)]",[],[1],[0.6166666666666667],vertical,"(890.0, 262.0)",1.1666666666666667,0.573,1,5419.913,1,0.04,0.25
0,652,target,"[(1151, 789)]",[],[1],[0.7666666666666666],horizontal,"(390.0, 262.0)",1.35,0.724,1,5425.064,1,0.04,0.25
0,653,catch,"[(1162, 782)]",[],[1],[],vertical,"(890.0, 762.0)",1.7,nan,1,5430.647,1,0.04,0.25
0,654,target,"[(1155, 805)]",[],[1],[0.7],horizontal,"(390.0, 262.0)",0.35,0.667,1,5436.007,2,0.04,0.25
0,655,target,"[(1158, 786)]",[],[1],[0.5333333333333333],horizontal,"(890.0, 762.0)",0.7,0.493,1,5441.098,2,0.04,0.25
0,656,target,"[(1157, 803)]",[],[1],[0.5333333333333333],vertical,"(390.0, 762.0)",0.9833333333333333,0.491,1,5446.58,2,0.04,0.25
0,657,target,"[(1166, 819)]",[],[1],[0.55],vertical,"(390.0, 262.0)",1.1333333333333333,0.511,1,5452.296,3,0.04,0.25
0,658,target,"[(1162, 797)]",[],[1],[0.65],horizontal,"(390.0, 262.0)",0.3833333333333333,0.608,1,5458.68,3,0.04,0.25
0,659,target,"[(1160, 792)]",[],[1],[0.5833333333333334],horizontal,"(890.0, 762.0)",1.3166666666666667,0.541,1,5463.908,3,0.04,0.25
0,660,target,"[(1166, 787)]",[],[1],[0.55],vertical,"(890.0, 262.0)",0.65,0.508,1,5469.815,3,0.04,0.25
0,661,catch,"[(1135, 759)]",[],[1],[],vertical,"(890.0, 262.0)",1.7,nan,1,5474.73,3,0.04,0.25
0,662,catch,"[(1143, 789)]",[],[1],[],horizontal,"(890.0, 262.0)",1.7,nan,1,5481.033,3,0.02,0.25
0,663,target,"[(1166, 773)]",[],[1],[0.8166666666666667],vertical,"(890.0, 762.0)",1.1833333333333333,0.775,1,5487.316,3,0.02,0.25
0,664,target,"[(1159, 794)]",[],[1],[0.5166666666666666],horizontal,"(390.0, 762.0)",0.8833333333333333,0.48,1,5493.681,3,0.02,0.25
0,665,catch,"[(1157, 806)]",[],[1],[],horizontal,"(890.0, 262.0)",1.7,nan,1,5499.548,3,0.02,0.25
0,666,target,"[(1156, 796)]",[],[1],[0.5333333333333333],vertical,"(390.0, 762.0)",0.7166666666666667,0.503,1,5505.53,3,0.02,0.25
0,667,target,"[(1160, 772)]",[],[1],[0.48333333333333334],vertical,"(890.0, 262.0)",1.25,0.444,1,5511.232,3,0.02,0.25
0,668,target,"[(1160, 769)]",[],[1],[0.5166666666666666],horizontal,"(390.0, 262.0)",1.4166666666666667,0.474,1,5516.781,3,0.02,0.25
0,669,catch,"[(1140, 802)]",[],[1],[],horizontal,"(390.0, 262.0)",1.7,nan,1,5523.114,3,0.02,0.25
0,670,target,"[(1151, 777)]",[],[1],[0.6333333333333333],vertical,"(890.0, 762.0)",0.35,0.593,1,5529.465,3,0.02,0.25
0,671,target,"[(1170, 771)]",[],[1],[0.5333333333333333],horizontal,"(390.0, 762.0)",1.45,0.494,1,5534.919,3,0.02,0.25
0,672,target,"[(1136, 778)]",[],[1],[0.5],horizontal,"(890.0, 762.0)",0.7833333333333333,0.462,1,5541.263,3,0.02,0.25
0,673,target,"[(1148, 804)]",[],[1],[0.6666666666666666],horizontal,"(890.0, 762.0)",1.0333333333333332,0.623,1,5546.899,3,0.02,0.25
0,674,catch,"[(1159, 796)]",[],[1],[],horizontal,"(390.0, 762.0)",1.7,nan,1,5553.08,3,0.02,0.25
0,675,target,"[(1160, 792)]",[],[1],[0.5],vertical,"(890.0, 262.0)",1.0166666666666666,0.462,1,5559.007,3,0.02,0.25
0,676,target,"[(1155, 776)]",[],[1],[0.7],vertical,"(390.0, 262.0)",1.4,0.658,1,5564.63,3,0.02,0.25
0,677,catch,"[(1163, 800)]",[],[1],[],vertical,"(390.0, 262.0)",1.7,nan,1,5570.654,3,0.02,0.25
0,678,target,"[(1161, 790)]",[],[1],[0.5166666666666666],vertical,"(890.0, 262.0)",0.6833333333333333,0.477,1,5576.468,3,0.02,0.25
0,679,target,"[(1162, 787)]",[],[1],[0.5166666666666666],vertical,"(390.0, 762.0)",1.35,0.476,1,5582.081,3,0.0,0.25
0,680,catch,"[(1145, 794)]",[],[1],[],horizontal,"(390.0, 262.0)",1.7,nan,1,5587.813,3,0.0,0.25
0,681,target,"[(1138, 788)]",[],[1],[0.6666666666666666],horizontal,"(390.0, 762.0)",1.1,0.631,1,5593.996,3,0.0,0.25
0,682,catch,"[(1153, 790)]",[],[1],[],vertical,"(890.0, 262.0)",1.7,nan,1,5599.73,3,0.0,0.25
0,683,catch,"[(1159, 782)]",[],[1],[],vertical,"(390.0, 762.0)",1.7,nan,1,5605.458,3,0.0,0.25
0,684,target,"[(1147, 807)]",[],[1],[0.5333333333333333],horizontal,"(890.0, 762.0)",0.8166666666666667,0.493,1,5611.174,3,0.0,0.25
0,685,target,"[(1141, 789)]",[],[1],[0.5],horizontal,"(390.0, 262.0)",1.5333333333333332,0.459,1,5616.728,3,0.0,0.25
0,686,target,"[(1161, 783)]",[],[1],[0.55],vertical,"(890.0, 762.0)",1.2666666666666666,0.51,1,5623.04,3,0.0,0.25
0,687,target,"[(1175, 804)]",[],[1],[0.6166666666666667],vertical,"(890.0, 262.0)",1.1166666666666667,0.574,1,5629.032,3,0.0,0.25
0,688,target,"[(1162, 807)]",[],[1],[0.6666666666666666],vertical,"(890.0, 762.0)",0.9666666666666667,0.625,1,5635.065,3,0.0,0.25
0,689,target,"[(1157, 813)]",[],[1],[0.7],horizontal,"(390.0, 262.0)",0.8666666666666667,0.652,1,5641.298,3,0.0,0.25
0,690,target,"[(1136, 776)]",[],[1],[0.5],vertical,"(890.0, 262.0)",0.5833333333333334,0.457,1,5647.046,3,0.0,0.25
0,691,target,"[(1140, 781)]",[],[1],[0.4],horizontal,"(390.0, 262.0)",1.5333333333333332,0.361,1,5652.288,3,0.0,0.25
0,692,target,"[(1134, 790)]",[],[1],[0.5166666666666666],horizontal,"(890.0, 762.0)",0.36666666666666664,0.475,1,5658.764,3,0.0,0.25
0,693,target,"[(1166, 785)]",[],[1],[0.5833333333333334],vertical,"(390.0, 762.0)",0.6,0.546,1,5664.031,3,0.0,0.25
0,694,target,"[(1158, 792)]",[],[1],[0.5833333333333334],horizontal,"(890.0, 762.0)",1.25,0.537,1,5669.619,3,0.0,0.25
0,695,target,"[(1131, 786)]",[],[1],[0.55],vertical,"(890.0, 762.0)",0.36666666666666664,0.507,1,5675.755,3,0.0,0.25
0,696,target,"[(1142, 796)]",[],[1],[0.5],vertical,"(890.0, 762.0)",0.55,0.457,1,5680.915,3,0.0,0.25
0,697,target,"[(1165, 789)]",[],[1],[0.4166666666666667],vertical,"(390.0, 762.0)",1.5333333333333332,0.375,1,5686.047,3,0.0,0.25
0,698,target,"[(1132, 791)]",[],[1],[0.85],horizontal,"(390.0, 762.0)",1.2666666666666666,nan,0,5692.515,0,0.0,0.25
0,699,target,"[(1111, 801)]",[],[1],[0.55],horizontal,"(890.0, 262.0)",0.9,0.511,1,5697.182,1,0.0,0.25
0,700,target,"[(1160, 792)]",[],[1],[0.6666666666666666],vertical,"(890.0, 762.0)",1.2,0.623,1,5702.201,1,0.0,0.25
0,701,catch,"[(1160, 795)]",[],[1],[],horizontal,"(890.0, 262.0)",1.7,nan,1,5707.448,1,0.0,0.25
0,702,target,"[(1160, 808)]",[],[1],[0.25],horizontal,"(390.0, 262.0)",1.25,0.217,1,5712.692,2,0.0,0.25
0,703,target,"[(1156, 781)]",[],[1],[0.5833333333333334],vertical,"(390.0, 762.0)",0.75,0.541,1,5718.326,2,0.0,0.25
0,704,target,"[(1160, 797)]",[],[1],[0.6],vertical,"(390.0, 762.0)",1.2333333333333334,0.555,1,5723.715,2,0.0,0.25
0,705,target,"[(1159, 778)]",[],[1],[0.85],horizontal,"(390.0, 762.0)",0.9,nan,0,5729.582,0,0.0,0.25
0,706,catch,"[(1112, 797)]",[],[1],[],horizontal,"(390.0, 262.0)",1.7,nan,1,5734.619,1,0.0,0.25
0,707,target,"[(1158, 796)]",[],[1],[0.6666666666666666],vertical,"(890.0, 262.0)",0.65,0.619,1,5739.571,1,0.0,0.25
0,708,catch,"[(1137, 836)]",[],[1],[],vertical,"(890.0, 762.0)",1.7,nan,1,5744.171,1,0.0,0.25
0,709,target,"[(1082, 835)]",[],[1],[0.85],horizontal,"(890.0, 762.0)",0.5833333333333334,nan,0,5938.618,0,0.0,0.25
0,710,catch,"[(1127, 846)]",[],[1],[],horizontal,"(890.0, 762.0)",1.7,nan,1,5943.282,1,0.0,0.25
0,711,target,"[(1136, 815)]",[],[1],[0.85],horizontal,"(890.0, 762.0)",0.4166666666666667,nan,0,5948.564,0,0.0,0.25
0,712,target,"[(1156, 821)]",[],[1],[0.65],horizontal,"(890.0, 262.0)",0.5,0.605,1,5952.999,1,0.0,0.25
0,713,target,"[(1132, 789)]",[],[1],[0.3333333333333333],horizontal,"(390.0, 262.0)",1.4833333333333334,0.296,1,5960.309,1,0.0,0.25
0,714,target,"[(1160, 808)]",[],[1],[0.5166666666666666],vertical,"(890.0, 262.0)",1.2333333333333334,0.472,1,5965.782,1,0.0,0.25
0,715,target,"[(1163, 793)]",[],[1],[0.48333333333333334],horizontal,"(890.0, 262.0)",1.0,0.444,1,5971.283,2,0.0,0.25
0,716,catch,"[(1157, 806)]",[],[1],[0.03333333333333333],vertical,"(890.0, 262.0)",1.7,"0.018,nan",0,5976.133,0,0.02,0.25
0,717,target,"[(1137, 795)]",[],[1],[0.5166666666666666],vertical,"(390.0, 762.0)",0.8,0.475,1,5981.301,1,0.02,0.25
0,718,catch,"[(1162, 790)]",[],[1],[],vertical,"(390.0, 262.0)",1.7,nan,1,5986.165,1,0.02,0.25
0,719,target,"[(1163, 795)]",[],[1],[0.6],vertical,"(390.0, 262.0)",0.6333333333333333,0.559,1,5991.449,1,0.02,0.25
0,720,target,"[(1162, 805)]",[],[1],[0.48333333333333334],horizontal,"(890.0, 762.0)",0.3833333333333333,0.444,1,5996.349,2,0.02,0.25
0,721,catch,"[(1166, 785)]",[],[1],[],horizontal,"(390.0, 262.0)",1.7,nan,1,6000.985,2,0.02,0.25
0,722,target,"[(1172, 797)]",[],[1],[0.55],horizontal,"(390.0, 262.0)",0.7166666666666667,0.509,1,6006.344,2,0.02,0.25
0,723,target,"[(1166, 804)]",[],[1],[0.5],horizontal,"(890.0, 762.0)",0.9833333333333333,0.461,1,6012.033,3,0.02,0.25
0,724,target,"[(1165, 785)]",[],[1],[0.5],vertical,"(390.0, 262.0)",0.6333333333333333,0.455,1,6017.884,3,0.02,0.25
0,725,catch,"[(1175, 791)]",[],[1],[],horizontal,"(390.0, 262.0)",1.7,nan,1,6023.317,3,0.02,0.25
0,726,target,"[(1137, 786)]",[],[1],[0.5333333333333333],vertical,"(390.0, 262.0)",0.8,0.494,1,6029.06,3,0.02,0.25
0,727,target,"[(1158, 790)]",[],[1],[0.48333333333333334],horizontal,"(390.0, 262.0)",1.3666666666666667,0.446,1,6034.883,3,0.02,0.25
0,728,target,"[(1160, 789)]",[],[1],[0.5],horizontal,"(390.0, 762.0)",0.9166666666666666,0.459,1,6041.337,3,0.02,0.25
0,729,target,"[(1160, 791)]",[],[1],[0.6],horizontal,"(890.0, 262.0)",0.4666666666666667,0.557,1,6046.967,3,0.02,0.25
0,730,target,"[(1155, 768)]",[],[1],[0.5333333333333333],horizontal,"(890.0, 762.0)",0.5166666666666666,0.492,1,6051.934,3,0.02,0.25
0,731,target,"[(1165, 790)]",[],[1],[0.6],vertical,"(890.0, 262.0)",0.9,0.558,1,6056.821,3,0.02,0.25
0,732,catch,"[(1157, 800)]",[],[1],[],vertical,"(390.0, 762.0)",1.7,nan,1,6062.14,3,0.02,0.25
0,733,target,"[(1163, 788)]",[],[1],[0.6666666666666666],vertical,"(390.0, 262.0)",1.3,0.62,1,6068.331,3,0.02,0.25
0,734,target,"[(1167, 788)]",[],[1],[0.7333333333333333],horizontal,"(890.0, 762.0)",1.35,0.69,1,6074.306,3,0.02,0.25
0,735,target,"[(1171, 792)]",[],[1],[0.5666666666666667],horizontal,"(890.0, 262.0)",0.75,0.522,1,6080.545,3,0.02,0.25
0,736,target,"[(1173, 790)]",[],[1],[0.55],vertical,"(890.0, 262.0)",1.0166666666666666,0.508,1,6085.988,3,0.02,0.25
0,737,catch,"[(1160, 786)]",[],[1],[],vertical,"(390.0, 762.0)",1.7,nan,1,6091.617,3,0.02,0.25
0,738,catch,"[(1138, 804)]",[],[1],[],horizontal,"(390.0, 762.0)",1.7,nan,1,6097.612,3,0.02,0.25
0,739,target,"[(1137, 791)]",[],[1],[0.85],horizontal,"(890.0, 262.0)",0.6166666666666667,nan,0,6103.749,0,0.02,0.25
0,740,target,"[(1134, 816)]",[],[1],[0.55],horizontal,"(390.0, 262.0)",1.2333333333333334,0.506,1,6108.483,1,0.02,0.25
0,741,target,"[(1138, 801)]",[],[1],[0.5833333333333334],horizontal,"(390.0, 762.0)",1.0,0.542,1,6113.877,1,0.02,0.25
0,742,catch,"[(1164, 784)]",[],[1],[],vertical,"(890.0, 262.0)",1.7,nan,1,6119.341,1,0.02,0.25
0,743,target,"[(1162, 790)]",[],[1],[0.65],horizontal,"(390.0, 262.0)",0.65,0.603,1,6124.358,2,0.02,0.25
0,744,catch,"[(1171, 795)]",[],[1],[],horizontal,"(890.0, 262.0)",1.7,nan,1,6129.584,2,0.02,0.25
0,745,target,"[(1155, 781)]",[],[1],[0.5333333333333333],horizontal,"(890.0, 762.0)",1.0166666666666666,0.497,1,6134.909,2,0.02,0.25
0,746,target,"[(1162, 793)]",[],[1],[0.6],vertical,"(390.0, 762.0)",0.8333333333333334,0.556,1,6140.384,3,0.02,0.25
0,747,catch,"[(1159, 801)]",[],[1],[],vertical,"(390.0, 262.0)",1.7,nan,1,6146.273,3,0.02,0.25
0,748,target,"[(1156, 778)]",[],[1],[0.6333333333333333],vertical,"(390.0, 762.0)",0.7666666666666666,0.583,1,6152.705,3,0.02,0.25
0,749,target,"[(1163, 784)]",[],[1],[0.6666666666666666],vertical,"(890.0, 762.0)",0.5,0.622,1,6158.401,3,0.02,0.25
0,750,target,"[(1158, 795)]",[],[1],[0.5166666666666666],horizontal,"(390.0, 762.0)",0.7333333333333333,0.477,1,6164.096,3,0.02,0.25
0,751,target,"[(1156, 778)]",[],[1],[0.55],vertical,"(390.0, 762.0)",0.6166666666666667,0.507,1,6169.852,3,0.02,0.25
0,752,target,"[(1156, 778)]",[],[1],[0.6],horizontal,"(390.0, 762.0)",0.45,0.556,1,6175.117,3,0.02,0.25
0,753,target,"[(1140, 798)]",[],[1],[0.65],horizontal,"(390.0, 262.0)",0.4666666666666667,0.606,1,6180.739,3,0.02,0.25
0,754,catch,"[(1151, 782)]",[],[1],[],horizontal,"(390.0, 762.0)",1.7,nan,1,6186.162,3,0.02,0.25
0,755,target,"[(1157, 787)]",[],[1],[0.6],vertical,"(390.0, 762.0)",0.8,0.557,1,6192.263,3,0.02,0.25
0,756,target,"[(1161, 806)]",[],[1],[0.65],vertical,"(890.0, 262.0)",1.15,0.602,1,6198.169,3,0.02,0.25
0,757,catch,"[(1167, 807)]",[],[1],[],horizontal,"(890.0, 762.0)",1.7,nan,1,6203.888,3,0.02,0.25
0,758,catch,"[(1160, 787)]",[],[1],[],horizontal,"(390.0, 762.0)",1.7,nan,1,6209.574,3,0.02,0.25
0,759,target,"[(1175, 798)]",[],[1],[0.5],horizontal,"(390.0, 262.0)",0.6666666666666666,0.459,1,6215.401,3,0.02,0.25
0,760,catch,"[(1160, 786)]",[],[1],[],vertical,"(890.0, 262.0)",1.7,nan,1,6220.407,3,0.02,0.25
0,761,target,"[(1155, 798)]",[],[1],[0.55],vertical,"(890.0, 762.0)",1.45,0.507,1,6226.269,3,0.02,0.25
0,762,target,"[(1152, 791)]",[],[1],[0.55],vertical,"(390.0, 762.0)",0.55,0.51,1,6232.5,3,0.02,0.25
0,763,target,"[(1160, 791)]",[],[1],[0.5333333333333333],vertical,"(890.0, 262.0)",0.7666666666666666,0.489,1,6237.689,3,0.02,0.25
0,764,target,"[(1132, 788)]",[],[1],[0.5333333333333333],vertical,"(890.0, 262.0)",1.1166666666666667,0.491,1,6243.268,3,0.02,0.25
0,765,target,"[(1160, 795)]",[],[1],[0.6166666666666667],horizontal,"(890.0, 762.0)",0.43333333333333335,0.566,1,6249.098,3,0.02,0.25
0,766,target,"[(1145, 796)]",[],[1],[0.5666666666666667],horizontal,"(390.0, 262.0)",1.4666666666666666,0.519,1,6254.341,3,0.0,0.25
0,767,target,"[(1159, 787)]",[],[1],[0.5333333333333333],horizontal,"(390.0, 262.0)",0.9666666666666667,0.495,1,6260.918,3,0.0,0.25
0,768,target,"[(1160, 801)]",[],[1],[0.7666666666666666],horizontal,"(890.0, 762.0)",1.0166666666666666,0.72,1,6266.301,3,0.0,0.25
0,769,target,"[(1146, 799)]",[],[1],[0.5],horizontal,"(390.0, 762.0)",1.5166666666666666,0.456,1,6272.652,3,0.0,0.25
0,770,target,"[(1158, 784)]",[],[1],[0.7166666666666667],vertical,"(890.0, 262.0)",1.4666666666666666,0.67,1,6279.001,3,0.0,0.25
0,771,target,"[(1136, 796)]",[],[1],[0.5166666666666666],vertical,"(390.0, 262.0)",0.43333333333333335,0.478,1,6285.018,3,0.0,0.25
0,772,target,"[(1156, 799)]",[],[1],[0.5333333333333333],vertical,"(390.0, 262.0)",0.8166666666666667,0.488,1,6290.392,3,0.0,0.25
0,773,target,"[(1161, 796)]",[],[1],[0.48333333333333334],horizontal,"(890.0, 762.0)",1.4333333333333333,0.441,1,6296.107,3,0.0,0.25
0,774,target,"[(1158, 811)]",[],[1],[0.5333333333333333],horizontal,"(890.0, 262.0)",0.65,0.492,1,6302.367,3,0.0,0.25
0,775,target,"[(1163, 784)]",[],[1],[0.5333333333333333],horizontal,"(890.0, 762.0)",0.36666666666666664,0.494,1,6307.914,3,0.0,0.25
0,776,target,"[(1132, 796)]",[],[1],[0.5],horizontal,"(890.0, 762.0)",0.8,0.457,1,6312.961,3,0.0,0.25
0,777,target,"[(1136, 811)]",[],[1],[0.85],horizontal,"(890.0, 262.0)",1.4166666666666667,nan,0,6318.759,0,0.0,0.25
0,778,catch,"[(1136, 802)]",[],[1],[],horizontal,"(890.0, 762.0)",1.7,nan,1,6324.007,1,0.0,0.25
0,779,catch,"[(1160, 800)]",[],[1],[],vertical,"(890.0, 262.0)",1.7,nan,1,6328.959,1,0.0,0.25
0,780,target,"[(1165, 779)]",[],[1],[0.5166666666666666],vertical,"(890.0, 762.0)",0.9833333333333333,0.47,1,6333.997,1,0.0,0.25
0,781,catch,"[(1163, 816)]",[],[1],[],vertical,"(390.0, 762.0)",1.7,nan,1,6338.7,2,0.0,0.25
0,782,catch,"[(1175, 793)]",[],[1],[],vertical,"(390.0, 762.0)",1.7,nan,1,6344.492,2,0.0,0.25
0,783,target,"[(1160, 786)]",[],[1],[0.8166666666666667],horizontal,"(890.0, 262.0)",1.0166666666666666,0.765,1,6349.949,2,0.0,0.25
0,784,target,"[(1162, 807)]",[],[1],[0.5166666666666666],vertical,"(390.0, 262.0)",0.9,0.473,1,6355.74,3,0.0,0.25
0,785,target,"[(1133, 793)]",[],[1],[0.45],vertical,"(390.0, 762.0)",1.4833333333333334,0.411,1,6361.234,3,0.0,0.25
0,786,target,"[(1166, 790)]",[],[1],[0.5166666666666666],horizontal,"(390.0, 762.0)",1.45,0.478,1,6367.741,3,0.0,0.25
0,787,target,"[(1137, 781)]",[],[1],[0.5333333333333333],vertical,"(390.0, 262.0)",0.55,0.489,1,6373.467,3,0.0,0.25
0,788,target,"[(1151, 816)]",[],[1],[0.5666666666666667],vertical,"(390.0, 762.0)",0.6333333333333333,0.52,1,6378.337,3,0.0,0.25
0,789,catch,"[(1160, 785)]",[],[1],[],vertical,"(890.0, 262.0)",1.7,nan,1,6383.885,3,0.0,0.25
0,790,target,"[(1142, 781)]",[],[1],[0.5666666666666667],horizontal,"(390.0, 762.0)",0.6666666666666666,0.523,1,6389.869,3,0.0,0.25
0,791,target,"[(1156, 768)]",[],[1],[0.55],vertical,"(390.0, 762.0)",0.65,0.509,1,6395.086,3,0.0,0.25
0,792,target,"[(1160, 796)]",[],[1],[0.5],horizontal,"(390.0, 262.0)",0.7666666666666666,0.459,1,6400.393,3,0.0,0.25
0,793,catch,"[(1170, 791)]",[],[1],[],horizontal,"(890.0, 262.0)",,"('cti', 1.534),nan",0,6405.693,0,0.02,0.25
0,794,target,"[(1158, 807)]",[],[1],[0.36666666666666664],horizontal,"(390.0, 762.0)",1.3666666666666667,0.328,1,6410.802,1,0.02,0.25
0,795,catch,"[(1138, 782)]",[],[1],[],horizontal,"(890.0, 762.0)",1.7,nan,1,6416.119,1,0.02,0.25
0,796,catch,"[(1152, 793)]",[],[1],[],horizontal,"(390.0, 262.0)",1.7,nan,1,6421.076,1,0.02,0.25
0,797,catch,"[(1160, 776)]",[],[1],[],horizontal,"(390.0, 262.0)",1.7,nan,1,6426.354,2,0.02,0.25
0,798,catch,"[(1161, 774)]",[],[1],[],vertical,"(390.0, 262.0)",1.7,nan,1,6432.147,2,0.02,0.25
0,799,target,"[(1175, 792)]",[],[1],[0.6666666666666666],vertical,"(390.0, 262.0)",0.43333333333333335,0.623,1,6437.511,2,0.02,0.25
0,800,catch,"[(1178, 811)]",[],[1],[],horizontal,"(890.0, 762.0)",1.7,nan,1,6442.533,3,0.02,0.25
0,801,catch,"[(1136, 804)]",[],[1],[],vertical,"(390.0, 762.0)",1.7,nan,1,6448.613,3,0.02,0.25
0,802,target,"[(1161, 792)]",[],[1],[0.5166666666666666],horizontal,"(890.0, 762.0)",0.36666666666666664,0.472,1,6454.719,3,0.02,0.25
0,803,catch,"[(1160, 798)]",[],[1],[],vertical,"(390.0, 262.0)",1.7,nan,1,6459.516,3,0.02,0.25
0,804,target,"[(1160, 786)]",[],[1],[0.6666666666666666],vertical,"(390.0, 762.0)",1.4,0.618,1,6465.418,3,0.02,0.25
0,805,catch,"[(1164, 799)]",[],[1],[],horizontal,"(390.0, 762.0)",1.7,nan,1,6471.266,3,0.02,0.25
0,806,target,"[(1160, 794)]",[],[1],[0.6333333333333333],vertical,"(890.0, 762.0)",0.4666666666666667,0.594,1,6477.468,3,0.02,0.25
0,807,catch,"[(1162, 781)]",[],[1],[],vertical,"(390.0, 762.0)",1.7,nan,1,6482.973,3,0.02,0.25
0,808,catch,"[(1162, 792)]",[],[1],[],vertical,"(890.0, 262.0)",1.7,nan,1,6488.97,3,0.02,0.25
0,809,target,"[(1175, 795)]",[],[1],[0.6166666666666667],horizontal,"(890.0, 262.0)",0.7666666666666666,0.576,1,6495.718,3,0.02,0.25
0,810,catch,"[(1161, 800)]",[],[1],[],vertical,"(890.0, 762.0)",1.7,nan,1,6501.552,3,0.02,0.25
0,811,target,"[(1170, 795)]",[],[1],[0.7],horizontal,"(390.0, 762.0)",0.9666666666666667,0.654,1,6507.785,3,0.02,0.25
0,812,target,"[(1161, 808)]",[],[1],[0.5],vertical,"(390.0, 262.0)",0.9,0.463,1,6513.669,3,0.02,0.25
0,813,target,"[(1165, 786)]",[],[1],[0.65],vertical,"(890.0, 762.0)",0.6666666666666666,0.611,1,6519.618,3,0.02,0.25
0,814,catch,"[(1145, 802)]",[],[1],[],vertical,"(890.0, 262.0)",1.7,nan,1,6525.351,3,0.02,0.25
0,815,catch,"[(1140, 797)]",[],[1],[],horizontal,"(890.0, 262.0)",1.7,nan,1,6531.667,3,0.02,0.25
0,816,catch,"[(1156, 786)]",[],[1],[],vertical,"(890.0, 762.0)",1.7,nan,1,6537.57,3,0.02,0.25
0,817,target,"[(1162, 782)]",[],[1],[0.5333333333333333],horizontal,"(390.0, 762.0)",0.85,0.492,1,6543.435,3,0.02,0.25
0,818,target,"[(1161, 799)]",[],[1],[0.5333333333333333],vertical,"(890.0, 762.0)",0.7166666666666667,0.493,1,6549.352,3,0.02,0.25
0,819,catch,"[(1160, 795)]",[],[1],[],horizontal,"(890.0, 762.0)",1.7,nan,1,6554.904,3,0.02,0.25
0,820,target,"[(1169, 801)]",[],[1],[0.65],horizontal,"(890.0, 262.0)",0.6166666666666667,0.602,1,6560.51,3,0.02,0.25
0,821,target,"[(1170, 794)]",[],[1],[0.5666666666666667],horizontal,"(390.0, 262.0)",1.3,0.531,1,6565.802,3,0.02,0.25
0,822,target,"[(1165, 821)]",[],[1],[],horizontal,"(890.0, 262.0)",,"('cti', 1.081)",0,6571.919,0,0.04,0.25
0,823,catch,"[(1136, 807)]",[],[1],[],horizontal,"(890.0, 762.0)",1.7,nan,1,6576.705,1,0.04,0.25
0,824,target,"[(1146, 792)]",[],[1],[0.6166666666666667],vertical,"(390.0, 262.0)",1.5333333333333332,0.577,1,6581.853,1,0.04,0.25
0,825,target,"[(1157, 785)]",[],[1],[0.4666666666666667],vertical,"(890.0, 262.0)",1.4666666666666666,0.422,1,6587.352,1,0.04,0.25
0,826,target,"[(1136, 788)]",[],[1],[0.6833333333333333],vertical,"(390.0, 262.0)",0.5333333333333333,0.638,1,6592.786,2,0.04,0.25
0,827,target,"[(1167, 770)]",[],[1],[0.7],vertical,"(390.0, 262.0)",0.3833333333333333,0.65,1,6597.916,2,0.04,0.25
0,828,target,"[(1151, 800)]",[],[1],[0.5666666666666667],vertical,"(890.0, 762.0)",0.6833333333333333,0.523,1,6602.601,2,0.04,0.25
0,829,target,"[(1133, 808)]",[],[1],[0.48333333333333334],vertical,"(390.0, 262.0)",1.2666666666666666,0.44,1,6608.257,3,0.04,0.25
0,830,target,"[(1160, 801)]",[],[1],[0.6166666666666667],vertical,"(390.0, 762.0)",1.3166666666666667,0.568,1,6614.825,3,0.04,0.25
0,831,catch,"[(1168, 795)]",[],[1],[],horizontal,"(390.0, 762.0)",1.7,nan,1,6620.677,3,0.04,0.25
0,832,target,"[(1146, 797)]",[],[1],[0.5333333333333333],horizontal,"(390.0, 762.0)",1.0166666666666666,0.489,1,6626.864,3,0.04,0.25
0,833,target,"[(1136, 786)]",[],[1],[0.7],horizontal,"(890.0, 762.0)",0.8833333333333333,0.654,1,6632.62,3,0.04,0.25
0,834,target,"[(1163, 796)]",[],[1],[0.5833333333333334],horizontal,"(390.0, 262.0)",1.4333333333333333,0.542,1,6638.629,3,0.04,0.25
0,835,catch,"[(1167, 778)]",[],[1],[],vertical,"(890.0, 262.0)",1.7,nan,1,6644.803,3,0.04,0.25
0,836,target,"[(1165, 796)]",[],[1],[0.55],horizontal,"(390.0, 262.0)",0.4,0.509,1,6651.102,3,0.04,0.25
0,837,target,"[(1162, 776)]",[],[1],[0.5166666666666666],vertical,"(390.0, 262.0)",0.9166666666666666,0.48,1,6656.184,3,0.04,0.25
0,838,target,"[(1161, 787)]",[],[1],[0.5],vertical,"(890.0, 262.0)",0.7833333333333333,0.463,1,6661.567,3,0.04,0.25
0,839,target,"[(1167, 791)]",[],[1],[0.55],vertical,"(890.0, 762.0)",0.4666666666666667,0.505,1,6667.314,3,0.04,0.25
0,840,catch,"[(1159, 789)]",[],[1],[],horizontal,"(890.0, 762.0)",1.7,nan,1,6672.965,3,0.04,0.25
0,841,catch,"[(1160, 801)]",[],[1],[],vertical,"(890.0, 762.0)",1.7,nan,1,6679.259,3,0.04,0.25
0,842,target,"[(1165, 798)]",[],[1],[0.5333333333333333],vertical,"(890.0, 762.0)",1.0,0.49,1,6685.377,3,0.04,0.25
0,843,target,"[(1169, 795)]",[],[1],[0.5666666666666667],vertical,"(390.0, 762.0)",1.5166666666666666,0.526,1,6691.237,3,0.02,0.25
0,844,target,"[(1164, 805)]",[],[1],[0.85],vertical,"(890.0, 762.0)",0.65,nan,0,6697.52,0,0.02,0.25
0,845,target,"[(1139, 805)]",[],[1],[0.5333333333333333],horizontal,"(890.0, 262.0)",0.6833333333333333,0.489,1,6702.149,1,0.02,0.25
0,846,target,"[(1156, 791)]",[],[1],[0.6666666666666666],horizontal,"(890.0, 262.0)",0.4166666666666667,0.627,1,6706.746,1,0.02,0.25
0,847,target,"[(1156, 795)]",[],[1],[0.85],vertical,"(890.0, 762.0)",0.65,nan,0,6711.057,0,0.02,0.25
0,848,target,"[(1137, 799)]",[],[1],[0.5],horizontal,"(390.0, 762.0)",0.48333333333333334,0.457,1,6715.637,1,0.02,0.25
0,849,target,"[(1164, 790)]",[],[1],[0.5666666666666667],horizontal,"(390.0, 262.0)",1.0,0.521,1,6720.304,1,0.02,0.25
0,850,target,"[(1162, 791)]",[],[1],[0.5833333333333334],vertical,"(890.0, 262.0)",0.5333333333333333,0.546,1,6725.464,1,0.02,0.25
0,851,target,"[(1164, 791)]",[],[1],[0.6],vertical,"(890.0, 762.0)",1.3333333333333333,0.559,1,6730.103,2,0.02,0.25
0,852,target,"[(1166, 799)]",[],[1],[0.5666666666666667],horizontal,"(890.0, 762.0)",0.7833333333333333,0.527,1,6735.969,2,0.02,0.25
0,853,target,"[(1168, 801)]",[],[1],[0.45],vertical,"(890.0, 262.0)",1.4833333333333334,0.411,1,6740.994,2,0.02,0.25
0,854,catch,"[(1179, 806)]",[],[1],[],horizontal,"(390.0, 762.0)",1.7,nan,1,6746.841,3,0.02,0.25
0,855,catch,"[(1137, 816)]",[],[1],[],vertical,"(390.0, 762.0)",1.7,nan,1,6753.079,3,0.02,0.25
0,856,catch,"[(1170, 782)]",[],[1],[],horizontal,"(890.0, 762.0)",1.7,nan,1,6759.196,3,0.02,0.25
0,857,target,"[(1149, 785)]",[],[1],[0.5833333333333334],vertical,"(390.0, 262.0)",0.95,0.546,1,6765.286,3,0.02,0.25
0,858,target,"[(1163, 789)]",[],[1],[0.85],vertical,"(890.0, 262.0)",0.5166666666666666,nan,0,6771.037,0,0.02,0.25
0,859,target,"[(1141, 802)]",[],[1],[0.85],horizontal,"(390.0, 762.0)",0.9166666666666666,nan,0,6775.257,0,0.02,0.25
0,860,target,"[(1135, 802)]",[],[1],[0.5666666666666667],vertical,"(890.0, 262.0)",0.5666666666666667,0.526,1,6780.254,1,0.02,0.25
0,861,target,"[(1167, 787)]",[],[1],[0.5333333333333333],vertical,"(390.0, 762.0)",0.8833333333333333,0.495,1,6785.059,1,0.02,0.25
0,862,target,"[(1151, 795)]",[],[1],[0.5333333333333333],horizontal,"(390.0, 262.0)",1.35,0.493,1,6789.603,1,0.02,0.25
0,863,target,"[(1166, 813)]",[],[1],[0.75],horizontal,"(890.0, 762.0)",1.2333333333333334,0.709,1,6795.404,2,0.02,0.25
0,864,target,"[(1140, 820)]",[],[1],[0.5166666666666666],horizontal,"(890.0, 262.0)",0.8666666666666667,0.479,1,6801.135,2,0.02,0.25
0,865,target,"[(1171, 796)]",[],[1],[0.31666666666666665],horizontal,"(890.0, 262.0)",1.3666666666666667,0.284,1,6807.369,2,0.02,0.25
0,866,catch,"[(1161, 803)]",[],[1],[],vertical,"(890.0, 262.0)",1.7,nan,1,6813.253,3,0.02,0.25
0,867,target,"[(1164, 795)]",[],[1],[0.5666666666666667],vertical,"(890.0, 762.0)",1.4666666666666666,0.525,1,6819.854,3,0.02,0.25
0,868,target,"[(1160, 791)]",[],[1],[0.5666666666666667],horizontal,"(890.0, 262.0)",1.4333333333333333,0.521,1,6825.987,3,0.02,0.25
