block,trial,trial_type,taps_start_loc_during_fix,taps_end_loc_during_fix,taps_on_lever_during_fix,taps_on_lever_s_during_fix,bar_orientation,target_xy,cti,rt,acc,time,pulses
0,1,target,"[(1122, 804)]",[],[1],[0.45],vertical,"(390.0, 762.0)",1.5,0.418,1,0.488,1
0,2,target,"[(1066, 812)]",[],[1],[0.4],horizontal,"(890.0, 762.0)",1.0833333333333333,0.366,1,16.345,1
0,3,target,"[(1001, 878), (1030, 833)]",[],"[0, 1]",[0.85],vertical,"(890.0, 262.0)",0.5833333333333334,nan,0,23.553,0
0,4,catch,"[(528, 543), (965, 859), (1000, 839), (1037, 839)]",[],"[0, 0, 0, 1]",[],horizontal,"(390.0, 762.0)",,"('cti', 1.58),nan",0,132.557,0
0,5,catch,"[(1028, 819)]",[],[1],[],vertical,"(390.0, 762.0)",1.6,nan,1,151.944,1
0,6,target,"[(1032, 810)]",[],[1],[0.85],horizontal,"(390.0, 262.0)",0.5166666666666666,nan,0,156.946,0
0,7,target,"[(1043, 822)]",[],[1],[0.65],vertical,"(890.0, 762.0)",1.1166666666666667,0.612,1,161.422,1
0,8,target,"[(1038, 811)]",[],[1],[0.5666666666666667],vertical,"(390.0, 762.0)",0.65,0.525,1,166.289,1
0,9,target,"[(1025, 786)]",[],[1],[0.5666666666666667],horizontal,"(890.0, 262.0)",0.7333333333333333,0.525,1,170.878,2
0,10,target,"[(1057, 799)]",[],[1],[0.36666666666666664],horizontal,"(390.0, 262.0)",1.2,0.327,1,175.976,2
0,11,target,"[(1053, 807)]",[],[1],[0.85],vertical,"(390.0, 262.0)",0.7833333333333333,nan,0,181.281,0
0,12,catch,"[(1041, 808)]",[],[1],[],vertical,"(390.0, 262.0)",1.6,nan,1,185.558,1
0,13,target,"[(1032, 826)]",[],[1],[],horizontal,"(390.0, 262.0)",,"('cti', 0.437)",0,190.557,0
0,14,catch,"[(1016, 803)]",[],[1],[],vertical,"(390.0, 762.0)",1.6,nan,1,194.444,1
0,15,target,"[(1032, 845)]",[],[1],[0.5666666666666667],vertical,"(890.0, 762.0)",0.9333333333333333,0.527,1,201.528,1
0,16,target,"[(1049, 825)]",[],[1],[0.35],horizontal,"(890.0, 262.0)",1.3666666666666667,0.31,1,206.714,2
0,17,target,"[(1029, 809)]",[],[1],[0.3],horizontal,"(390.0, 262.0)",1.0333333333333332,0.262,1,211.971,2
0,18,catch,"[(1029, 802)]",[],[1],[],vertical,"(890.0, 762.0)",1.6,nan,1,217.383,2
0,19,catch,"[(1055, 807)]",[],[1],[],vertical,"(890.0, 262.0)",1.6,nan,1,222.407,2
0,20,target,"[(1037, 810)]",[],[1],[0.5166666666666666],horizontal,"(390.0, 262.0)",1.1833333333333333,0.472,1,227.957,3
0,21,catch,"[(1034, 810)]",[],[1],[],horizontal,"(390.0, 262.0)",1.6,nan,1,234.257,3
0,22,target,"[(1038, 798)]",[],[1],[0.5],vertical,"(890.0, 762.0)",0.95,0.463,1,239.69,3
0,23,target,"[(1037, 815)]",[],[1],[0.5166666666666666],horizontal,"(390.0, 762.0)",0.6333333333333333,0.477,1,245.194,3
0,24,target,"[(1037, 799)]",[],[1],[0.85],vertical,"(890.0, 762.0)",1.3833333333333333,nan,0,250.774,0
0,25,catch,"[(1029, 830)]",[],[1],[],vertical,"(890.0, 262.0)",1.6,nan,1,255.776,1
0,26,target,"[(1029, 803)]",[],[1],[0.5166666666666666],horizontal,"(390.0, 262.0)",0.9166666666666666,0.476,1,260.547,1
0,27,target,"[(1033, 786)]",[],[1],[0.85],horizontal,"(890.0, 762.0)",0.9833333333333333,nan,0,265.069,0
0,28,target,"[(1021, 799)]",[],[1],[0.48333333333333334],vertical,"(390.0, 262.0)",1.0166666666666666,0.443,1,269.64,1
0,29,target,"[(1046, 810)]",[],[1],[0.48333333333333334],horizontal,"(890.0, 262.0)",1.15,0.444,1,274.969,1
0,30,target,"[(1049, 796)]",[],[1],[0.3],horizontal,"(890.0, 262.0)",1.5,0.264,1,279.675,2
0,31,catch,"[(1030, 790)]",[],[1],[],vertical,"(390.0, 762.0)",1.6,nan,1,285.036,2
0,32,target,"[(1024, 779)]",[],[1],[0.48333333333333334],vertical,"(890.0, 262.0)",0.6833333333333333,0.442,1,290.524,2
0,33,target,"[(1055, 791)]",[],[1],[0.85],vertical,"(890.0, 262.0)",0.5,nan,0,295.706,0
0,34,catch,"[(1036, 799)]",[],[1],[],vertical,"(390.0, 262.0)",1.6,nan,1,300.075,1
0,35,target,"[(1029, 800)]",[],[1],[0.85],horizontal,"(890.0, 762.0)",0.8,nan,0,305.31,0
0,36,target,"[(1035, 797)]",[],[1],[0.45],vertical,"(390.0, 262.0)",0.5666666666666667,0.41,1,310.19,1
0,37,target,"[(1030, 798)]",[],[1],[0.5],horizontal,"(890.0, 262.0)",0.7166666666666667,0.461,1,314.374,1
0,38,target,"[(1037, 785)]",[],[1],[0.5666666666666667],vertical,"(390.0, 262.0)",0.9166666666666666,0.526,1,319.657,2
0,39,target,"[(1052, 795)]",[],[1],[0.5333333333333333],vertical,"(390.0, 262.0)",1.0166666666666666,0.491,1,325.003,2
0,40,target,"[(1033, 801)]",[],[1],[0.4666666666666667],vertical,"(390.0, 262.0)",1.0666666666666667,0.426,1,330.009,2
0,41,target,"[(1025, 785)]",[],[1],[0.35],horizontal,"(890.0, 262.0)",1.1833333333333333,0.31,1,335.374,2
0,42,target,"[(1032, 819)]",[],[1],[0.6],vertical,"(390.0, 762.0)",1.2333333333333334,0.563,1,340.758,3
0,43,target,"[(1036, 779)]",[],[1],[],vertical,"(890.0, 262.0)",,"('cti', 1.242)",0,349.674,0
0,44,target,"[(1017, 799)]",[],[1],[0.48333333333333334],vertical,"(890.0, 262.0)",1.3166666666666667,0.446,1,353.802,1
0,45,target,"[(1036, 795)]",[],[1],[0.2],vertical,"(890.0, 262.0)",1.5833333333333333,0.166,0,358.924,0
0,46,target,"[(1029, 800)]",[],[1],[0.75],vertical,"(890.0, 262.0)",0.75,0.703,1,363.839,1
0,47,target,"[(1030, 804)]",[],[1],[0.6666666666666666],horizontal,"(390.0, 262.0)",0.8833333333333333,0.622,1,369.102,1
0,48,target,"[(1034, 798)]",[],[1],[0.13333333333333333],horizontal,"(390.0, 762.0)",1.5,0.1,0,373.931,0
0,49,target,"[(1029, 806)]",[],[1],[0.55],horizontal,"(390.0, 262.0)",0.6,0.508,1,378.359,1
0,50,target,"[(1057, 811)]",[],[1],[0.6],vertical,"(890.0, 262.0)",0.5166666666666666,0.557,1,382.779,1
0,51,catch,"[(1046, 787)]",[],[1],[0.03333333333333333],horizontal,"(390.0, 262.0)",1.6,"0.02,nan",0,387.107,0
0,52,target,"[(1039, 802)]",[],[1],[0.5833333333333334],vertical,"(390.0, 262.0)",0.9,0.552,1,391.559,1
0,53,target,"[(1059, 785)]",[],[1],[0.65],horizontal,"(390.0, 762.0)",0.8166666666666667,0.604,1,396.673,1
0,54,target,"[(1028, 775)]",[],[1],[0.6],horizontal,"(890.0, 762.0)",0.8333333333333334,0.556,1,401.209,2
0,55,target,"[(1028, 781)]",[],[1],[],horizontal,"(890.0, 262.0)",,"('cti', 1.325)",0,406.065,0
0,56,target,"[(1021, 797)]",[],[1],[0.3],horizontal,"(390.0, 262.0)",1.5666666666666667,0.267,1,410.158,1
0,57,target,"[(1029, 801)]",[],[1],[0.5666666666666667],horizontal,"(390.0, 762.0)",0.7166666666666667,0.527,1,416.132,1
0,58,target,"[(1049, 795)]",[],[1],[0.75],vertical,"(390.0, 762.0)",0.9666666666666667,0.702,1,421.143,2
0,59,target,"[(1035, 799)]",[],[1],[0.31666666666666665],horizontal,"(890.0, 762.0)",1.2166666666666666,0.283,1,426.607,2
0,60,target,"[(1035, 795)]",[],[1],[0.5166666666666666],horizontal,"(890.0, 762.0)",1.1166666666666667,0.493,1,432.109,2
0,61,target,"[(1033, 792)]",[],[1],[0.36666666666666664],horizontal,"(390.0, 762.0)",1.35,0.33,1,437.625,2
0,62,target,"[(1041, 790)]",[],[1],[0.06666666666666667],vertical,"(890.0, 762.0)",1.5666666666666667,0.035,0,443.191,0
0,63,target,"[(1029, 794)]",[],[1],[0.55],vertical,"(890.0, 262.0)",0.6666666666666666,0.521,1,448.009,1
0,64,target,"[(1040, 789)]",[],[1],[0.5666666666666667],horizontal,"(890.0, 262.0)",0.9166666666666666,0.533,1,452.876,1
0,65,catch,"[(1033, 813)]",[],[1],[],horizontal,"(390.0, 762.0)",,"('cti', 1.589),nan",0,457.721,0
0,66,catch,"[(1033, 800)]",[],[1],[],horizontal,"(890.0, 262.0)",1.6,nan,1,462.573,1
0,67,target,"[(1059, 793)]",[],[1],[0.5],horizontal,"(890.0, 762.0)",0.9833333333333333,0.476,1,467.439,1
0,68,catch,"[(1032, 787)]",[],[1],[],vertical,"(390.0, 762.0)",,"('cti', 1.586),nan",0,472.127,0
0,69,target,"[(1025, 794)]",[],[1],[0.31666666666666665],horizontal,"(390.0, 262.0)",1.4333333333333333,0.287,1,476.84,1
0,70,target,"[(1029, 798)]",[],[1],[0.7333333333333333],horizontal,"(890.0, 762.0)",1.2,0.684,1,482.199,1
0,71,target,"[(1033, 788)]",[],[1],[0.6166666666666667],vertical,"(390.0, 262.0)",0.5333333333333333,0.592,1,487.355,2
0,72,target,"[(1057, 795)]",[],[1],[0.2833333333333333],vertical,"(890.0, 262.0)",1.4833333333333334,0.252,1,492.433,2
0,73,target,"[(1034, 793)]",[],[1],[0.2833333333333333],horizontal,"(390.0, 262.0)",1.3833333333333333,0.244,1,497.549,2
0,74,target,"[(1028, 799)]",[],[1],[0.48333333333333334],vertical,"(390.0, 262.0)",0.9166666666666666,0.45,1,502.982,2
0,75,target,"[(1043, 794)]",[],[1],[0.5166666666666666],vertical,"(890.0, 762.0)",1.25,0.475,1,508.26,3
0,76,target,"[(1044, 802)]",[],[1],[0.16666666666666666],vertical,"(890.0, 762.0)",1.45,0.134,0,514.09,0
0,77,target,"[(1025, 796)]",[],[1],[0.35],vertical,"(390.0, 762.0)",1.4833333333333334,0.312,1,518.692,1
0,78,target,"[(1052, 782)]",[],[1],[0.5833333333333334],vertical,"(390.0, 762.0)",0.9166666666666666,0.541,1,523.64,1
0,79,target,"[(1031, 786)]",[],[1],[0.65],horizontal,"(890.0, 262.0)",1.1333333333333333,0.609,1,528.343,2
0,80,target,"[(1057, 804)]",[],[1],[0.11666666666666667],horizontal,"(390.0, 762.0)",1.4833333333333334,0.084,0,533.6,0
0,81,target,"[(1026, 796)]",[],[1],[0.7],vertical,"(390.0, 762.0)",1.45,0.657,1,538.576,1
0,82,target,"[(1057, 797)]",[],[1],[0.7333333333333333],vertical,"(390.0, 762.0)",1.0166666666666666,0.693,1,543.659,1
0,83,target,"[(1057, 812)]",[],[1],[0.5833333333333334],horizontal,"(390.0, 262.0)",1.1166666666666667,0.547,1,548.509,2
0,84,target,"[(1057, 788)]",[],[1],[0.26666666666666666],horizontal,"(390.0, 262.0)",1.3666666666666667,0.237,1,553.926,2
0,85,target,"[(1056, 800)]",[],[1],[0.48333333333333334],horizontal,"(890.0, 262.0)",0.6333333333333333,0.445,1,559.019,2
0,86,catch,"[(1057, 791)]",[],[1],[],horizontal,"(390.0, 762.0)",1.6,nan,1,563.766,2
0,87,target,"[(1033, 790)]",[],[1],[0.6],horizontal,"(390.0, 762.0)",1.0666666666666667,0.564,1,569.233,3
0,88,target,"[(1052, 797)]",[],[1],[0.5333333333333333],vertical,"(890.0, 262.0)",1.5333333333333332,0.492,1,574.99,3
0,89,target,"[(1026, 790)]",[],[1],[0.6833333333333333],horizontal,"(390.0, 262.0)",0.5,0.645,1,580.825,3
0,90,target,"[(1052, 779)]",[],[1],[0.5666666666666667],vertical,"(390.0, 262.0)",1.2166666666666666,0.529,1,586.456,3
0,91,target,"[(1030, 781)]",[],[1],[0.6166666666666667],horizontal,"(890.0, 262.0)",0.55,0.583,1,592.025,3
0,92,target,"[(1039, 796)]",[],[1],[0.85],vertical,"(890.0, 762.0)",0.7666666666666666,nan,0,597.408,0
0,93,target,"[(1031, 797)]",[],[1],[0.7],horizontal,"(390.0, 762.0)",1.0,0.652,1,601.823,1
0,94,target,"[(1049, 787)]",[],[1],[0.6],vertical,"(890.0, 262.0)",1.1666666666666667,0.561,1,606.975,1
0,95,target,"[(1052, 787)]",[],[1],[0.6833333333333333],horizontal,"(890.0, 762.0)",1.0166666666666666,0.65,1,611.777,2
0,96,target,"[(1038, 785)]",[],[1],[0.5333333333333333],vertical,"(390.0, 762.0)",0.9,0.493,1,617.158,2
0,97,target,"[(1033, 793)]",[],[1],[0.5666666666666667],horizontal,"(390.0, 762.0)",0.9,0.531,1,622.568,2
0,98,target,"[(1032, 804)]",[],[1],[0.6166666666666667],vertical,"(890.0, 762.0)",0.8166666666666667,0.576,1,627.708,2
0,99,target,"[(1060, 803)]",[],[1],[0.5333333333333333],horizontal,"(390.0, 262.0)",0.8,0.488,1,632.607,3
0,100,target,"[(1035, 783)]",[],[1],[0.5166666666666666],vertical,"(890.0, 262.0)",1.0666666666666667,0.481,1,638.064,3
0,101,catch,"[(1036, 793)]",[],[1],[],vertical,"(890.0, 762.0)",1.6,nan,1,643.891,3
0,102,target,"[(1037, 798)]",[],[1],[0.6333333333333333],vertical,"(390.0, 262.0)",0.8166666666666667,0.592,1,649.907,3
0,103,target,"[(1037, 783)]",[],[1],[0.45],horizontal,"(890.0, 262.0)",0.95,0.415,1,655.642,3
0,104,catch,"[(1025, 787)]",[],[1],[],vertical,"(890.0, 262.0)",1.6,nan,1,661.008,3
0,105,target,"[(1042, 809)]",[],[1],[0.5],vertical,"(390.0, 262.0)",1.2166666666666666,0.459,1,666.887,3
0,106,target,"[(1038, 779)]",[],[1],[0.18333333333333332],horizontal,"(890.0, 762.0)",1.5666666666666667,0.15,0,673.07,0
0,107,catch,"[(1038, 802)]",[],[1],[],horizontal,"(390.0, 262.0)",1.6,nan,1,677.979,1
0,108,target,"[(1057, 790)]",[],[1],[0.4666666666666667],horizontal,"(890.0, 762.0)",1.4166666666666667,0.426,1,682.925,1
0,109,target,"[(1053, 790)]",[],[1],[0.45],horizontal,"(890.0, 262.0)",1.2166666666666666,0.414,1,688.081,2
0,110,target,"[(1033, 792)]",[],[1],[0.45],horizontal,"(890.0, 762.0)",1.3833333333333333,0.412,1,693.488,2
0,111,target,"[(1054, 796)]",[],[1],[0.48333333333333334],vertical,"(390.0, 762.0)",1.2333333333333334,0.44,1,698.776,2
0,112,target,"[(1044, 797)]",[],[1],[0.85],vertical,"(390.0, 762.0)",0.5666666666666667,nan,0,704.391,0
0,113,target,"[(1021, 801)]",[],[1],[0.4],horizontal,"(390.0, 262.0)",1.1333333333333333,0.358,1,708.992,1
0,114,target,"[(1044, 803)]",[],[1],[0.55],horizontal,"(890.0, 262.0)",0.8666666666666667,0.509,1,713.893,1
0,115,target,"[(1041, 804)]",[],[1],[0.6166666666666667],horizontal,"(890.0, 262.0)",0.55,0.575,1,718.483,2
0,116,target,"[(1038, 791)]",[],[1],[0.5666666666666667],horizontal,"(390.0, 262.0)",0.9666666666666667,0.521,1,723.325,2
0,117,target,"[(1056, 789)]",[],[1],[0.4],vertical,"(890.0, 762.0)",1.45,0.361,1,728.577,2
0,118,target,"[(1037, 795)]",[],[1],[0.15],vertical,"(390.0, 762.0)",1.55,0.121,0,733.975,0
0,119,target,"[(1039, 801)]",[],[1],[0.6166666666666667],horizontal,"(890.0, 762.0)",1.3166666666666667,0.583,1,738.909,1
0,120,target,"[(1045, 765)]",[],[1],[0.5],horizontal,"(890.0, 262.0)",1.4166666666666667,0.464,1,743.692,1
0,121,target,"[(1039, 793)]",[],[1],[0.16666666666666666],horizontal,"(390.0, 762.0)",1.5333333333333332,0.134,0,748.642,0
0,122,target,"[(1035, 795)]",[],[1],[0.6333333333333333],horizontal,"(890.0, 762.0)",0.7166666666666667,0.593,1,753.305,1
0,123,target,"[(1040, 795)]",[],[1],[0.7166666666666667],horizontal,"(390.0, 762.0)",0.95,0.676,1,757.709,1
0,124,target,"[(1053, 792)]",[],[1],[0.6166666666666667],vertical,"(890.0, 762.0)",0.7833333333333333,0.574,1,762.442,2
0,125,target,"[(1057, 793)]",[],[1],[0.65],horizontal,"(890.0, 762.0)",0.9333333333333333,0.609,1,768.01,2
0,126,target,"[(1060, 806)]",[],[1],[],horizontal,"(890.0, 262.0)",,"('cti', 0.546)",0,773.025,0
0,127,target,"[(1034, 800)]",[],[1],[0.55],vertical,"(890.0, 262.0)",1.55,0.51,1,776.709,1
0,128,target,"[(1027, 792)]",[],[1],[0.6666666666666666],horizontal,"(390.0, 762.0)",0.7833333333333333,0.623,1,781.761,1
0,129,target,"[(1035, 787)]",[],[1],[0.31666666666666665],vertical,"(390.0, 762.0)",1.5,0.276,1,786.577,2
0,130,target,"[(1035, 798)]",[],[1],[0.6833333333333333],vertical,"(890.0, 762.0)",0.5166666666666666,0.646,1,791.887,2
0,131,target,"[(1037, 790)]",[],[1],[0.5],vertical,"(890.0, 262.0)",0.7166666666666667,0.463,1,796.953,2
0,132,target,"[(1038, 810)]",[],[1],[0.48333333333333334],horizontal,"(390.0, 262.0)",0.9666666666666667,0.447,1,801.66,2
0,133,target,"[(1033, 786)]",[],[1],[0.6333333333333333],horizontal,"(390.0, 762.0)",0.8333333333333334,0.594,1,806.925,3
0,134,target,"[(1049, 783)]",[],[1],[0.43333333333333335],vertical,"(890.0, 262.0)",1.2833333333333332,0.394,1,812.859,3
0,135,target,"[(1037, 785)]",[],[1],[0.5],vertical,"(890.0, 262.0)",1.0166666666666666,0.463,1,818.592,3
0,136,target,"[(1034, 785)]",[],[1],[0.6],vertical,"(390.0, 762.0)",1.1833333333333333,0.558,1,824.182,3
0,137,catch,"[(1029, 793)]",[],[1],[],horizontal,"(390.0, 262.0)",1.6,nan,1,830.276,3
0,138,target,"[(1033, 795)]",[],[1],[],horizontal,"(890.0, 762.0)",,"('cti', 1.308)",0,835.577,0
0,139,target,"[(1039, 792)]",[],[1],[0.6166666666666667],horizontal,"(890.0, 262.0)",0.6333333333333333,0.575,1,840.029,1
0,140,target,"[(1033, 784)]",[],[1],[0.18333333333333332],horizontal,"(390.0, 762.0)",1.4833333333333334,0.15,0,845.027,0
0,141,target,"[(1037, 773)]",[],[1],[0.85],vertical,"(390.0, 762.0)",0.5166666666666666,nan,0,849.692,0
0,142,target,"[(1044, 799)]",[],[1],[0.5666666666666667],vertical,"(390.0, 762.0)",0.6666666666666666,0.531,1,853.86,1
0,143,target,"[(1029, 787)]",[],[1],[0.18333333333333332],vertical,"(890.0, 762.0)",1.5166666666666666,0.152,0,858.726,0
0,144,target,"[(1035, 792)]",[],[1],[0.6666666666666666],vertical,"(890.0, 762.0)",0.7666666666666666,0.617,1,863.606,1
0,145,target,"[(1025, 777)]",[],[1],[0.4666666666666667],vertical,"(390.0, 262.0)",0.8166666666666667,0.419,1,868.126,1
0,146,target,"[(1027, 759)]",[],[1],[0.5833333333333334],horizontal,"(890.0, 762.0)",0.8333333333333334,0.545,1,872.777,2
0,147,target,"[(1033, 779)]",[],[1],[0.5666666666666667],horizontal,"(390.0, 262.0)",0.6,0.522,1,877.993,2
0,148,target,"[(1025, 796)]",[],[1],[0.4666666666666667],horizontal,"(890.0, 762.0)",1.1166666666666667,0.423,1,882.841,2
0,149,catch,"[(1037, 792)]",[],[1],[],vertical,"(890.0, 762.0)",1.6,nan,1,888.133,2
0,150,target,"[(1025, 766)]",[],[1],[0.85],horizontal,"(890.0, 762.0)",0.65,nan,0,893.693,0
0,151,catch,"[(1037, 796)]",[],[1],[],vertical,"(390.0, 262.0)",1.6,nan,1,898.31,1
0,152,target,"[(1037, 795)]",[],[1],[0.6],vertical,"(890.0, 762.0)",1.25,0.556,1,903.242,1
0,153,target,"[(1043, 807)]",[],[1],[0.6833333333333333],horizontal,"(390.0, 762.0)",0.7833333333333333,0.637,1,908.769,2
0,154,target,"[(1057, 801)]",[],[1],[0.23333333333333334],horizontal,"(890.0, 262.0)",1.5333333333333332,0.202,1,914.054,2
0,155,target,"[(1037, 806)]",[],[1],[0.45],vertical,"(890.0, 762.0)",1.2833333333333332,0.413,1,919.675,2
0,156,target,"[(1041, 788)]",[],[1],[0.5],vertical,"(390.0, 262.0)",1.0,0.462,1,925.25,2
0,157,target,"[(1033, 790)]",[],[1],[0.5833333333333334],horizontal,"(390.0, 262.0)",0.8833333333333333,0.54,1,930.228,3
0,158,target,"[(1042, 787)]",[],[1],[0.06666666666666667],vertical,"(390.0, 262.0)",1.4333333333333333,0.035,0,935.493,0
0,159,target,"[(1021, 813)]",[],[1],[0.5666666666666667],horizontal,"(390.0, 262.0)",0.6,0.521,1,940.008,1
0,160,target,"[(1045, 803)]",[],[1],[0.5166666666666666],horizontal,"(890.0, 262.0)",0.6666666666666666,0.477,1,946.984,1
0,161,target,"[(1049, 793)]",[],[1],[0.6],vertical,"(890.0, 262.0)",0.7833333333333333,0.552,1,951.71,2
0,162,target,"[(1057, 805)]",[],[1],[0.85],vertical,"(390.0, 762.0)",0.7166666666666667,nan,0,956.863,0
0,163,target,"[(1035, 808)]",[],[1],[0.6166666666666667],horizontal,"(890.0, 262.0)",1.0,0.566,1,961.596,1
0,164,target,"[(1065, 804)]",[],[1],[0.7],horizontal,"(390.0, 262.0)",0.6833333333333333,0.654,1,966.179,1
0,165,target,"[(1041, 792)]",[],[1],[0.65],vertical,"(890.0, 762.0)",0.6333333333333333,0.608,1,970.749,2
0,166,target,"[(1029, 795)]",[],[1],[0.5666666666666667],horizontal,"(890.0, 262.0)",1.2,0.525,1,975.965,2
0,167,catch,"[(1035, 790)]",[],[1],[],horizontal,"(390.0, 262.0)",1.6,nan,1,981.243,2
0,168,target,"[(1033, 771)]",[],[1],[0.36666666666666664],vertical,"(890.0, 762.0)",1.4166666666666667,0.327,1,986.491,2
0,169,target,"[(1057, 795)]",[],[1],[0.48333333333333334],vertical,"(390.0, 262.0)",0.8666666666666667,0.456,1,991.905,3
0,170,target,"[(1033, 793)]",[],[1],[0.5166666666666666],horizontal,"(390.0, 762.0)",1.2166666666666666,0.474,1,997.209,3
0,171,target,"[(1038, 781)]",[],[1],[0.4],horizontal,"(890.0, 762.0)",1.45,0.364,1,1003.25,3
0,172,target,"[(1033, 791)]",[],[1],[0.5],horizontal,"(890.0, 262.0)",0.8666666666666667,0.454,1,1009.01,3
0,173,target,"[(1034, 783)]",[],[1],[0.7],horizontal,"(390.0, 262.0)",1.1166666666666667,0.658,1,1014.61,3
0,174,catch,"[(1033, 780)]",[],[1],[],vertical,"(390.0, 262.0)",1.6,nan,1,1020.317,3
0,175,target,"[(1033, 780)]",[],[1],[0.23333333333333334],horizontal,"(390.0, 262.0)",0.9833333333333333,0.199,0,1025.951,0
0,176,target,"[(1026, 788)]",[],[1],[0.5333333333333333],horizontal,"(390.0, 262.0)",0.9333333333333333,0.494,1,1030.41,1
0,177,target,"[(1038, 792)]",[],[1],[0.4],vertical,"(390.0, 762.0)",1.45,0.363,1,1035.327,1
0,178,target,"[(1033, 789)]",[],[1],[0.35],horizontal,"(890.0, 762.0)",1.4166666666666667,0.314,1,1040.609,2
0,179,target,"[(1038, 783)]",[],[1],[0.16666666666666666],vertical,"(890.0, 262.0)",1.4833333333333334,0.134,0,1046.317,0
0,180,target,"[(1036, 783)]",[],[1],[0.85],horizontal,"(390.0, 262.0)",0.8666666666666667,nan,0,1051.109,0
0,181,target,"[(1033, 809)]",[],[1],[0.5833333333333334],vertical,"(390.0, 262.0)",1.1166666666666667,0.538,1,1055.864,1
0,182,target,"[(1036, 766)]",[],[1],[0.5666666666666667],vertical,"(890.0, 762.0)",1.1,0.519,1,1060.812,1
0,183,target,"[(1035, 778)]",[],[1],[0.85],horizontal,"(390.0, 762.0)",0.6666666666666666,nan,0,1065.976,0
0,184,target,"[(1029, 794)]",[],[1],[0.85],horizontal,"(890.0, 762.0)",0.8166666666666667,nan,0,1070.343,0
0,185,target,"[(1026, 799)]",[],[1],[0.85],horizontal,"(390.0, 262.0)",0.5166666666666666,nan,0,1074.893,0
0,186,target,"[(1029, 807)]",[],[1],[0.4166666666666667],vertical,"(890.0, 262.0)",1.35,0.377,1,1079.294,1
0,187,catch,"[(1033, 816)]",[],[1],[],horizontal,"(890.0, 262.0)",1.6,nan,1,1090.627,1
0,188,target,"[(1043, 795)]",[],[1],[0.6166666666666667],vertical,"(890.0, 262.0)",0.5666666666666667,0.569,1,1096.036,2
0,189,target,"[(1056, 783)]",[],[1],[0.48333333333333334],vertical,"(390.0, 262.0)",1.35,0.44,1,1101.209,2
0,190,target,"[(1041, 790)]",[],[1],[0.85],vertical,"(890.0, 262.0)",0.65,nan,0,1106.442,0
0,191,catch,"[(1033, 781)]",[],[1],[],vertical,"(890.0, 262.0)",1.6,nan,1,1110.634,1
0,192,target,"[(1038, 776)]",[],[1],[0.85],horizontal,"(390.0, 762.0)",0.8666666666666667,nan,0,1115.502,0
0,193,target,"[(1036, 795)]",[],[1],[0.6833333333333333],vertical,"(890.0, 262.0)",1.2166666666666666,0.634,1,1119.884,1
0,194,target,"[(1033, 783)]",[],[1],[0.65],horizontal,"(390.0, 762.0)",1.1333333333333333,0.608,1,1125.533,1
0,195,target,"[(1036, 802)]",[],[1],[0.7166666666666667],horizontal,"(390.0, 762.0)",0.5,0.673,1,1130.608,2
0,196,target,"[(1056, 789)]",[],[1],[0.4666666666666667],horizontal,"(390.0, 762.0)",1.35,0.425,1,1135.509,2
0,197,target,"[(1037, 791)]",[],[1],[0.85],horizontal,"(890.0, 762.0)",0.9666666666666667,nan,0,1140.738,0
0,198,catch,"[(1029, 793)]",[],[1],[],horizontal,"(890.0, 262.0)",1.6,nan,1,1145.191,1
0,199,target,"[(1036, 777)]",[],[1],[0.65],vertical,"(390.0, 762.0)",1.15,0.605,1,1150.209,1
0,200,target,"[(1041, 779)]",[],[1],[0.6166666666666667],vertical,"(890.0, 262.0)",0.6,0.574,1,1155.436,2
0,201,catch,"[(1036, 756)]",[],[1],[],horizontal,"(890.0, 262.0)",1.6,nan,1,1160.503,2
0,202,target,"[(1037, 798)]",[],[1],[0.5166666666666666],vertical,"(890.0, 762.0)",0.75,0.471,1,1165.856,2
0,203,catch,"[(1034, 794)]",[],[1],[],horizontal,"(890.0, 762.0)",1.6,nan,1,1170.602,2
0,204,catch,"[(1037, 803)]",[],[1],[],vertical,"(390.0, 762.0)",1.6,nan,1,1176.26,3
0,205,target,"[(1035, 795)]",[],[1],[0.5833333333333334],vertical,"(390.0, 762.0)",0.8,0.546,1,1181.976,3
0,206,target,"[(1060, 792)]",[],[1],[0.5333333333333333],vertical,"(890.0, 762.0)",0.9833333333333333,0.497,1,1187.7,3
0,207,target,"[(1025, 778)]",[],[1],[0.6666666666666666],horizontal,"(390.0, 762.0)",0.6666666666666666,0.623,1,1193.346,3
0,208,target,"[(1035, 792)]",[],[1],[0.7166666666666667],horizontal,"(890.0, 262.0)",0.6833333333333333,0.674,1,1198.842,3
0,209,target,"[(1023, 798)]",[],[1],[0.8166666666666667],vertical,"(890.0, 262.0)",0.5333333333333333,0.773,1,1204.085,3
0,210,target,"[(1042, 800)]",[],[1],[0.55],vertical,"(390.0, 762.0)",0.8833333333333333,0.51,1,1209.687,3
0,211,target,"[(1035, 786)]",[],[1],[0.4],vertical,"(890.0, 262.0)",1.3833333333333333,0.359,1,1215.255,3
0,212,target,"[(1033, 802)]",[],[1],[0.25],horizontal,"(890.0, 762.0)",1.3333333333333333,0.212,1,1221.337,3
0,213,target,"[(1055, 790)]",[],[1],[0.3333333333333333],horizontal,"(390.0, 262.0)",0.7833333333333333,0.297,1,1227.31,3
0,214,target,"[(1025, 792)]",[],[1],[0.48333333333333334],vertical,"(890.0, 262.0)",0.9833333333333333,0.44,1,1232.722,3
0,215,catch,"[(1033, 778)]",[],[1],[0.03333333333333333],vertical,"(890.0, 262.0)",1.6,"0.02,nan",0,1238.287,0
0,216,target,"[(1033, 804)]",[],[1],[0.5666666666666667],horizontal,"(890.0, 762.0)",1.2166666666666666,0.526,1,1243.244,1
0,217,target,"[(1057, 796)]",[],[1],[0.35],vertical,"(390.0, 762.0)",1.5833333333333333,0.308,1,1248.01,1
0,218,target,"[(1033, 781)]",[],[1],[0.5666666666666667],horizontal,"(890.0, 762.0)",1.1166666666666667,0.521,1,1252.827,2
0,219,target,"[(1057, 804)]",[],[1],[0.6333333333333333],vertical,"(390.0, 262.0)",0.6,0.589,1,1258.527,2
0,220,target,"[(1034, 794)]",[],[1],[0.85],horizontal,"(890.0, 262.0)",0.7,nan,0,1263.128,0
0,221,target,"[(1022, 800)]",[],[1],[0.5],horizontal,"(390.0, 762.0)",1.4,0.462,1,1267.708,1
0,222,target,"[(1044, 778)]",[],[1],[0.31666666666666665],horizontal,"(390.0, 262.0)",1.5,0.281,1,1272.661,1
0,223,target,"[(1044, 792)]",[],[1],[0.3],horizontal,"(390.0, 762.0)",1.4666666666666666,0.264,1,1277.828,2
0,224,target,"[(1038, 790)]",[],[1],[0.5166666666666666],vertical,"(390.0, 762.0)",1.2333333333333334,0.477,1,1283.277,2
0,225,target,"[(1038, 778)]",[],[1],[],horizontal,"(390.0, 762.0)",,"('cti', 0.508)",0,1288.543,0
0,226,catch,"[(1033, 797)]",[],[1],[],vertical,"(390.0, 762.0)",1.6,nan,1,1292.059,1
0,227,target,"[(1029, 805)]",[],[1],[0.25],vertical,"(390.0, 262.0)",1.35,0.213,1,1297.273,1
0,228,target,"[(1025, 790)]",[],[1],[0.55],horizontal,"(890.0, 762.0)",0.9333333333333333,0.507,1,1302.427,2
0,229,target,"[(1035, 789)]",[],[1],[0.6],horizontal,"(890.0, 262.0)",0.85,0.555,1,1307.547,2
0,230,target,"[(1033, 793)]",[],[1],[0.6333333333333333],horizontal,"(390.0, 262.0)",0.7666666666666666,0.592,1,1312.394,2
0,231,target,"[(1032, 795)]",[],[1],[0.5166666666666666],vertical,"(890.0, 762.0)",0.9333333333333333,0.477,1,1317.825,2
0,232,target,"[(1033, 801)]",[],[1],[0.6],vertical,"(890.0, 762.0)",0.8833333333333333,0.558,1,1322.868,3
0,233,target,"[(1029, 786)]",[],[1],[0.5166666666666666],vertical,"(390.0, 762.0)",1.1666666666666667,0.477,1,1328.46,3
0,234,target,"[(1060, 799)]",[],[1],[0.85],vertical,"(390.0, 762.0)",0.5833333333333334,nan,0,1334.41,0
0,235,target,"[(1024, 783)]",[],[1],[0.65],horizontal,"(390.0, 762.0)",0.8666666666666667,0.607,1,1338.811,1
0,236,target,"[(1058, 788)]",[],[1],[0.5666666666666667],vertical,"(890.0, 762.0)",0.95,0.529,1,1343.51,1
0,237,catch,"[(1036, 795)]",[],[1],[],vertical,"(390.0, 762.0)",1.6,nan,1,1348.41,2
0,238,target,"[(1034, 791)]",[],[1],[0.23333333333333334],vertical,"(390.0, 762.0)",1.4833333333333334,0.2,1,1353.906,2
0,239,target,"[(1057, 809)]",[],[1],[0.75],vertical,"(890.0, 762.0)",0.9666666666666667,0.705,1,1359.624,2
0,240,target,"[(1039, 789)]",[],[1],[0.85],horizontal,"(390.0, 262.0)",1.25,nan,0,1365.128,0
0,241,target,"[(1032, 787)]",[],[1],[0.85],horizontal,"(390.0, 262.0)",0.55,nan,0,1369.826,0
0,242,catch,"[(1037, 808)]",[],[1],[],vertical,"(390.0, 262.0)",,"('cti', 1.429),nan",0,1374.56,0
0,243,target,"[(1023, 790)]",[],[1],[0.55],horizontal,"(890.0, 762.0)",0.8166666666666667,0.508,1,1379.493,1
0,244,catch,"[(1037, 808)]",[],[1],[],vertical,"(890.0, 762.0)",1.6,nan,1,1384.677,1
0,245,target,"[(1021, 790)]",[],[1],[0.6166666666666667],horizontal,"(390.0, 262.0)",1.0666666666666667,0.58,1,1389.804,2
0,246,target,"[(1035, 809)]",[],[1],[0.3833333333333333],vertical,"(390.0, 262.0)",1.3333333333333333,0.345,1,1395.77,2
0,247,target,"[(1034, 770)]",[],[1],[0.85],vertical,"(890.0, 262.0)",0.95,nan,0,1401.41,0
0,248,catch,"[(1032, 787)]",[],[1],[],horizontal,"(890.0, 762.0)",1.6,nan,1,1406.111,1
0,249,target,"[(1038, 789)]",[],[1],[0.55],vertical,"(890.0, 262.0)",1.15,0.517,1,1410.617,1
0,250,target,"[(1033, 769)]",[],[1],[0.85],horizontal,"(390.0, 762.0)",0.5833333333333334,nan,0,1415.597,0
0,251,catch,"[(1028, 810)]",[],[1],[],horizontal,"(890.0, 762.0)",1.6,nan,1,1419.728,1
0,252,target,"[(1040, 780)]",[],[1],[0.6166666666666667],vertical,"(890.0, 762.0)",0.6333333333333333,0.576,1,1424.794,1
0,253,target,"[(1033, 774)]",[],[1],[],vertical,"(390.0, 262.0)",,"('cti', 1.331)",0,1429.659,0
0,254,target,"[(1003, 806), (1025, 809)]",[],"[0, 1]",[0.2833333333333333],vertical,"(890.0, 762.0)",1.3833333333333333,0.249,1,1434.093,1
0,255,target,"[(1051, 791)]",[],[1],[0.85],horizontal,"(890.0, 262.0)",0.6166666666666667,nan,0,1440.361,0
0,256,target,"[(1032, 805)]",[],[1],[0.85],horizontal,"(390.0, 262.0)",0.85,nan,0,1444.711,0
0,257,target,"[(1029, 809)]",[],[1],[0.85],horizontal,"(890.0, 762.0)",0.6333333333333333,nan,0,1449.494,0
0,258,target,"[(982, 845), (1044, 874)]",[],"[0, 1]",[0.85],vertical,"(890.0, 762.0)",0.7,nan,0,1478.687,0
0,259,target,"[(1024, 825)]",[],[1],[0.45],vertical,"(390.0, 762.0)",1.5833333333333333,0.412,1,1485.824,1
0,260,target,"[(1033, 791)]",[],[1],[0.6333333333333333],vertical,"(390.0, 262.0)",0.85,0.588,1,1491.36,1
0,261,catch,"[(1027, 806)]",[],[1],[],vertical,"(890.0, 262.0)",1.6,nan,1,1496.304,2
0,262,target,"[(1025, 813)]",[],[1],[0.26666666666666666],vertical,"(390.0, 762.0)",1.35,0.232,1,1501.465,2
0,263,catch,"[(1030, 811)]",[],[1],[],vertical,"(890.0, 262.0)",,"('cti', 1.549),nan",0,1507.243,0
0,264,target,"[(1034, 794)]",[],[1],[0.3],vertical,"(890.0, 762.0)",1.4333333333333333,0.266,1,1512.087,1
0,265,catch,"[(1033, 791)]",[],[1],[],vertical,"(890.0, 762.0)",1.6,nan,1,1517.12,1
0,266,catch,"[(1029, 806)]",[],[1],[],horizontal,"(890.0, 762.0)",1.6,nan,1,1522.259,2
0,267,target,"[(1029, 826)]",[],[1],[0.6666666666666666],vertical,"(390.0, 262.0)",0.8666666666666667,0.626,1,1527.413,2
0,268,target,"[(1029, 795)]",[],[1],[0.36666666666666664],vertical,"(890.0, 762.0)",1.3833333333333333,0.33,1,1532.887,2
0,269,target,"[(1029, 787)]",[],[1],[0.4666666666666667],horizontal,"(390.0, 262.0)",1.1,0.435,1,1538.502,2
0,270,catch,"[(1029, 794)]",[],[1],[],horizontal,"(390.0, 262.0)",1.6,nan,1,1544.12,3
0,271,target,"[(1033, 790)]",[],[1],[0.5833333333333334],horizontal,"(890.0, 762.0)",0.8333333333333334,0.544,1,1549.729,3
0,272,target,"[(1044, 788)]",[],[1],[0.5833333333333334],vertical,"(390.0, 262.0)",0.8,0.544,1,1555.051,3
0,273,target,"[(1031, 804)]",[],[1],[0.48333333333333334],horizontal,"(890.0, 762.0)",0.5166666666666666,0.446,1,1560.685,3
0,274,target,"[(1033, 794)]",[],[1],[0.26666666666666666],vertical,"(390.0, 762.0)",1.5166666666666666,0.232,1,1566.107,3
0,275,target,"[(1032, 784)]",[],[1],[0.5],horizontal,"(890.0, 262.0)",0.8,0.464,1,1572.027,3
0,276,target,"[(1017, 791)]",[],[1],[0.85],vertical,"(390.0, 262.0)",0.5,nan,0,1577.362,0
0,277,target,"[(1017, 800)]",[],[1],[0.18333333333333332],vertical,"(390.0, 262.0)",1.45,0.153,0,1582.054,0
0,278,target,"[(1033, 781)]",[],[1],[0.55],horizontal,"(890.0, 762.0)",1.0,0.507,1,1586.977,1
0,279,target,"[(1005, 774)]",[],[1],[0.6166666666666667],vertical,"(390.0, 762.0)",0.5,0.571,1,1591.606,1
0,280,catch,"[(1023, 813)]",[],[1],[],vertical,"(890.0, 762.0)",1.6,nan,1,1596.293,2
0,281,target,"[(1029, 776)]",[],[1],[0.08333333333333333],horizontal,"(390.0, 262.0)",1.5666666666666667,0.053,0,1601.879,0
0,282,target,"[(1062, 798)]",[],[1],[0.5],horizontal,"(890.0, 762.0)",1.3333333333333333,0.465,1,1606.611,1
0,283,target,"[(1037, 782)]",[],[1],[0.48333333333333334],vertical,"(390.0, 262.0)",1.3166666666666667,0.446,1,1611.735,1
0,284,target,"[(1013, 775)]",[],[1],[0.85],horizontal,"(390.0, 762.0)",0.5666666666666667,nan,0,1616.54,0
0,285,target,"[(1033, 810)]",[],[1],[0.85],horizontal,"(890.0, 762.0)",0.5166666666666666,nan,0,1621.045,0
0,286,target,"[(1021, 808)]",[],[1],[0.5],horizontal,"(390.0, 762.0)",1.1833333333333333,0.457,1,1625.298,1
0,287,target,"[(1029, 806)]",[],[1],[0.5],horizontal,"(890.0, 262.0)",0.6333333333333333,0.459,1,1630.495,1
0,288,target,"[(1034, 782)]",[],[1],[0.65],horizontal,"(390.0, 262.0)",0.8666666666666667,0.607,1,1635.195,2
0,289,catch,"[(1033, 795)]",[],[1],[],vertical,"(390.0, 762.0)",1.6,nan,1,1640.278,2
0,290,catch,"[(1021, 790)]",[],[1],[],vertical,"(890.0, 762.0)",1.6,nan,1,1645.561,2
0,291,target,"[(1029, 808)]",[],[1],[0.1],vertical,"(890.0, 762.0)",1.4166666666666667,0.069,0,1650.643,0
0,292,catch,"[(1026, 778)]",[],[1],[],vertical,"(390.0, 262.0)",,"('cti', 1.493),nan",0,1655.626,0
0,293,target,"[(1029, 781)]",[],[1],[0.5666666666666667],vertical,"(390.0, 762.0)",0.7833333333333333,0.525,1,1660.579,1
0,294,target,"[(1033, 785)]",[],[1],[0.75],vertical,"(890.0, 262.0)",0.5333333333333333,0.71,1,1664.99,1
0,295,target,"[(1022, 782)]",[],[1],[0.5666666666666667],vertical,"(890.0, 262.0)",0.6,0.528,1,1669.372,2
0,296,target,"[(1036, 789)]",[],[1],[0.6],vertical,"(390.0, 762.0)",0.7833333333333333,0.557,1,1674.069,2
0,297,target,"[(1023, 782)]",[],[1],[0.5333333333333333],horizontal,"(390.0, 262.0)",0.65,0.492,1,1679.094,2
0,298,target,"[(1033, 785)]",[],[1],[0.23333333333333334],vertical,"(390.0, 262.0)",1.1833333333333333,0.198,0,1684.088,0
0,299,target,"[(1035, 780)]",[],[1],[0.13333333333333333],horizontal,"(390.0, 762.0)",1.5833333333333333,0.101,0,1688.612,0
0,300,target,"[(1058, 809)]",[],[1],[0.1],horizontal,"(390.0, 762.0)",1.2833333333333332,0.068,0,1693.128,0
0,301,target,"[(1027, 804)]",[],[1],[0.5],vertical,"(390.0, 762.0)",0.5166666666666666,0.468,1,1697.386,1
0,302,target,"[(1019, 765)]",[],[1],[0.4666666666666667],horizontal,"(390.0, 762.0)",1.4,0.428,1,1701.646,1
0,303,target,"[(1040, 808)]",[],[1],[0.1],horizontal,"(890.0, 262.0)",1.4833333333333334,0.068,0,1706.428,0
0,304,catch,"[(1037, 804)]",[],[1],[],vertical,"(390.0, 762.0)",1.6,nan,1,1711.15,1
0,305,target,"[(1033, 779)]",[],[1],[0.5166666666666666],vertical,"(890.0, 762.0)",1.0833333333333333,0.477,1,1716.0,1
0,306,target,"[(1035, 795)]",[],[1],[0.35],vertical,"(390.0, 762.0)",1.2833333333333332,0.31,1,1721.045,2
0,307,target,"[(1038, 787)]",[],[1],[0.65],vertical,"(390.0, 762.0)",0.7666666666666666,0.605,1,1726.695,2
0,308,target,"[(1021, 801)]",[],[1],[0.55],vertical,"(390.0, 262.0)",1.1166666666666667,0.513,1,1731.845,2
0,309,catch,"[(1025, 802)]",[],[1],[],horizontal,"(890.0, 262.0)",,"('cti', 0.981),nan",0,1737.301,0
0,310,target,"[(1033, 790)]",[],[1],[0.35],vertical,"(390.0, 262.0)",1.3166666666666667,0.313,1,1741.678,1
0,311,target,"[(1050, 805)]",[],[1],[0.8],vertical,"(390.0, 262.0)",0.7333333333333333,0.757,1,1746.443,1
0,312,catch,"[(1025, 800)]",[],[1],[],horizontal,"(390.0, 762.0)",1.6,nan,1,1750.945,2
0,313,target,"[(1033, 792)]",[],[1],[0.15],horizontal,"(890.0, 262.0)",1.45,0.116,0,1756.313,0
0,314,target,"[(1041, 793)]",[],[1],[0.5666666666666667],horizontal,"(390.0, 262.0)",1.15,0.524,1,1760.978,1
0,315,target,"[(1031, 791)]",[],[1],[0.5833333333333334],vertical,"(890.0, 262.0)",0.95,0.54,1,1765.722,1
0,316,target,"[(1033, 792)]",[],[1],[0.5],vertical,"(890.0, 262.0)",1.2666666666666666,0.463,1,1770.049,2
0,317,target,"[(1029, 778)]",[],[1],[0.5],horizontal,"(390.0, 262.0)",1.4,0.459,1,1775.594,2
0,318,target,"[(1053, 790)]",[],[1],[0.5],vertical,"(890.0, 262.0)",1.0,0.463,1,1780.98,2
0,319,target,"[(1034, 785)]",[],[1],[0.2833333333333333],horizontal,"(390.0, 262.0)",1.2,0.242,1,1786.229,2
0,320,target,"[(1031, 796)]",[],[1],[0.08333333333333333],horizontal,"(390.0, 262.0)",1.5,0.053,0,1791.165,0
0,321,catch,"[(1057, 800)]",[],[1],[],horizontal,"(390.0, 262.0)",1.6,nan,1,1795.897,1
0,322,target,"[(1030, 769)]",[],[1],[0.6],vertical,"(390.0, 762.0)",0.9,0.552,1,1800.414,1
0,323,target,"[(1017, 777)]",[],[1],[0.5],horizontal,"(390.0, 262.0)",1.1,0.464,1,1804.808,2
0,324,target,"[(1029, 790)]",[],[1],[0.85],horizontal,"(890.0, 762.0)",0.6,nan,0,1810.245,0
0,325,catch,"[(1009, 787)]",[],[1],[],horizontal,"(890.0, 262.0)",1.6,nan,1,1814.468,1
0,326,catch,"[(1029, 787)]",[],[1],[],vertical,"(390.0, 262.0)",1.6,nan,1,1819.621,1
0,327,target,"[(1029, 780)]",[],[1],[0.5166666666666666],horizontal,"(390.0, 762.0)",1.1833333333333333,0.477,1,1824.385,2
0,328,target,"[(1033, 781)]",[],[1],[0.85],vertical,"(390.0, 762.0)",0.5333333333333333,nan,0,1829.809,0
0,329,target,"[(1025, 794)]",[],[1],[0.36666666666666664],vertical,"(890.0, 762.0)",1.5166666666666666,0.329,1,1834.426,1
0,330,target,"[(1044, 785)]",[],[1],[0.65],vertical,"(890.0, 762.0)",0.6333333333333333,0.605,1,1839.384,1
0,331,target,"[(1032, 769)]",[],[1],[0.5],horizontal,"(890.0, 262.0)",0.9666666666666667,0.459,1,1843.98,2
0,332,target,"[(1040, 801)]",[],[1],[0.5833333333333334],horizontal,"(390.0, 762.0)",1.2333333333333334,0.538,1,1848.775,2
0,333,target,"[(1029, 772)]",[],[1],[0.5666666666666667],vertical,"(890.0, 762.0)",0.8333333333333334,0.525,1,1854.192,2
0,334,target,"[(1032, 781)]",[],[1],[0.45],horizontal,"(390.0, 262.0)",0.8,0.407,1,1859.265,2
0,335,catch,"[(1029, 799)]",[],[1],[0.03333333333333333],horizontal,"(390.0, 762.0)",1.6,"0.018,nan",0,1863.978,0
0,336,target,"[(1031, 788)]",[],[1],[0.6],vertical,"(890.0, 262.0)",0.6333333333333333,0.56,1,1868.546,1
0,337,catch,"[(1060, 785)]",[],[1],[],vertical,"(890.0, 262.0)",1.6,nan,1,1873.071,1
0,338,target,"[(1030, 787)]",[],[1],[0.5666666666666667],horizontal,"(390.0, 262.0)",0.5833333333333334,0.525,1,1877.879,2
0,339,target,"[(1029, 819)]",[],[1],[0.55],vertical,"(390.0, 262.0)",1.0666666666666667,0.517,1,1882.995,2
0,340,target,"[(1041, 795)]",[],[1],[0.5333333333333333],vertical,"(890.0, 762.0)",1.0833333333333333,0.494,1,1888.695,2
0,341,target,"[(1029, 801)]",[],[1],[0.36666666666666664],vertical,"(390.0, 762.0)",1.2666666666666666,0.328,1,1894.085,2
0,342,target,"[(1025, 792)]",[],[1],[0.4666666666666667],horizontal,"(390.0, 262.0)",1.2666666666666666,0.425,1,1899.715,3
0,343,target,"[(1030, 782)]",[],[1],[0.85],horizontal,"(890.0, 262.0)",0.8,nan,0,1905.779,0
0,344,target,"[(997, 787), (1005, 790)]",[],"[0, 1]",[0.23333333333333334],vertical,"(890.0, 262.0)",1.5666666666666667,0.197,0,1910.078,0
0,345,target,"[(1029, 822)]",[],[1],[0.6166666666666667],vertical,"(390.0, 262.0)",1.1666666666666667,0.571,1,1915.746,1
0,346,catch,"[(1040, 785)]",[],[1],[],vertical,"(890.0, 262.0)",1.6,nan,1,1925.722,1
0,347,target,"[(1021, 790)]",[],[1],[0.5],horizontal,"(390.0, 262.0)",0.9666666666666667,0.457,1,1930.446,2
0,348,target,"[(1034, 787)]",[],[1],[0.6],vertical,"(890.0, 762.0)",1.3,0.553,1,1935.462,2
0,349,target,"[(1052, 791)]",[],[1],[0.5666666666666667],horizontal,"(390.0, 762.0)",0.7833333333333333,0.524,1,1941.009,2
0,350,target,"[(1052, 779)]",[],[1],[0.5333333333333333],vertical,"(890.0, 262.0)",0.8166666666666667,0.491,1,1945.948,2
0,351,target,"[(1034, 794)]",[],[1],[0.31666666666666665],horizontal,"(390.0, 762.0)",1.3666666666666667,0.284,1,1951.013,3
0,352,target,"[(1028, 789)]",[],[1],[0.5166666666666666],horizontal,"(390.0, 262.0)",1.2333333333333334,0.477,1,1956.962,3
0,353,target,"[(1033, 777)]",[],[1],[0.2],vertical,"(390.0, 762.0)",1.5,0.169,0,1962.774,0
0,354,target,"[(997, 763), (1025, 820)]",[],"[0, 1]",[0.35],horizontal,"(390.0, 262.0)",1.5,0.312,1,1967.681,1
0,355,target,"[(1029, 766)]",[],[1],[0.5333333333333333],vertical,"(890.0, 762.0)",0.7666666666666666,0.494,1,1973.696,1
0,356,target,"[(1030, 782)]",[],[1],[0.5333333333333333],horizontal,"(890.0, 262.0)",0.6833333333333333,0.496,1,1978.462,2
0,357,target,"[(1033, 801)]",[],[1],[0.5333333333333333],horizontal,"(390.0, 262.0)",1.1833333333333333,0.492,1,1983.679,2
0,358,target,"[(1037, 775)]",[],[1],[0.3333333333333333],vertical,"(890.0, 262.0)",1.25,0.299,1,1988.882,2
0,359,target,"[(1042, 789)]",[],[1],[0.5],vertical,"(390.0, 262.0)",0.7333333333333333,0.462,1,1994.254,2
0,360,target,"[(1065, 792)]",[],[1],[0.5333333333333333],vertical,"(390.0, 262.0)",0.9333333333333333,0.497,1,1999.329,3
0,361,target,"[(1029, 798)]",[],[1],[0.3],horizontal,"(890.0, 262.0)",1.4833333333333334,0.264,1,2005.124,3
0,362,target,"[(1030, 796)]",[],[1],[0.85],horizontal,"(890.0, 762.0)",0.6333333333333333,nan,0,2011.029,0
0,363,target,"[(1035, 803)]",[],[1],[0.5833333333333334],vertical,"(890.0, 262.0)",1.2166666666666666,0.545,1,2015.583,1
0,364,target,"[(1036, 782)]",[],[1],[0.5166666666666666],vertical,"(890.0, 262.0)",1.1,0.471,1,2020.573,1
0,365,target,"[(1025, 781)]",[],[1],[0.11666666666666667],vertical,"(890.0, 262.0)",1.5166666666666666,0.087,0,2025.028,0
0,366,target,"[(1026, 815)]",[],[1],[0.13333333333333333],vertical,"(890.0, 262.0)",1.5666666666666667,0.1,0,2029.696,0
0,367,target,"[(1017, 789)]",[],[1],[0.08333333333333333],vertical,"(390.0, 262.0)",1.4833333333333334,0.051,0,2090.696,0
0,368,catch,"[(1030, 782)]",[],[1],[],vertical,"(890.0, 262.0)",1.6,nan,1,2095.622,1
0,369,target,"[(1034, 806)]",[],[1],[0.25],vertical,"(390.0, 262.0)",1.4333333333333333,0.214,1,2101.09,1
0,370,catch,"[(1026, 794)]",[],[1],[],vertical,"(890.0, 262.0)",1.6,nan,1,2106.356,2
0,371,target,"[(1033, 808)]",[],[1],[0.35],horizontal,"(390.0, 762.0)",1.3,0.312,1,2111.529,2
0,372,target,"[(1035, 800)]",[],[1],[0.11666666666666667],vertical,"(890.0, 262.0)",1.5,0.085,0,2116.579,0
0,373,target,"[(1023, 767)]",[],[1],[0.85],horizontal,"(890.0, 762.0)",0.8666666666666667,nan,0,2121.346,0
0,374,target,"[(1024, 800)]",[],[1],[0.65],horizontal,"(390.0, 762.0)",0.55,0.604,1,2125.724,1
0,375,target,"[(1057, 804)]",[],[1],[0.55],vertical,"(390.0, 762.0)",1.1166666666666667,0.517,1,2130.246,1
0,376,target,"[(1033, 791)]",[],[1],[0.55],vertical,"(890.0, 762.0)",1.0,0.513,1,2135.395,2
0,377,target,"[(1046, 780)]",[],[1],[0.55],vertical,"(890.0, 762.0)",0.8,0.509,1,2141.113,2
0,378,target,"[(1037, 806)]",[],[1],[0.48333333333333334],horizontal,"(890.0, 262.0)",0.8833333333333333,0.445,1,2146.171,2
0,379,target,"[(1038, 808)]",[],[1],[0.5666666666666667],vertical,"(890.0, 762.0)",0.95,0.526,1,2151.413,2
0,380,catch,"[(1029, 780)]",[],[1],[],horizontal,"(890.0, 762.0)",,"('cti', 1.565),nan",0,2156.761,0
0,381,target,"[(1029, 794)]",[],[1],[0.3333333333333333],vertical,"(890.0, 762.0)",1.2833333333333332,0.296,1,2161.146,1
0,382,target,"[(1022, 799)]",[],[1],[0.6166666666666667],horizontal,"(390.0, 262.0)",0.9333333333333333,0.581,1,2166.082,1
0,383,target,"[(1033, 785)]",[],[1],[0.13333333333333333],horizontal,"(890.0, 262.0)",1.4,0.101,0,2170.516,0
0,384,target,"[(1035, 775)]",[],[1],[0.5666666666666667],horizontal,"(390.0, 762.0)",1.0166666666666666,0.523,1,2175.398,1
0,385,target,"[(1060, 801)]",[],[1],[0.45],horizontal,"(890.0, 262.0)",1.2,0.413,1,2180.318,1
0,386,target,"[(1020, 779)]",[],[1],[0.65],vertical,"(890.0, 762.0)",0.6166666666666667,0.607,1,2185.529,2
0,387,target,"[(1033, 782)]",[],[1],[0.5333333333333333],horizontal,"(390.0, 262.0)",0.6,0.49,1,2190.037,2
0,388,target,"[(1035, 783)]",[],[1],[0.8166666666666667],horizontal,"(890.0, 762.0)",0.55,0.774,1,2195.33,2
0,389,target,"[(1044, 785)]",[],[1],[0.5],vertical,"(890.0, 262.0)",1.35,0.46,1,2200.827,2
0,390,target,"[(1039, 806)]",[],[1],[0.5],vertical,"(390.0, 262.0)",0.8333333333333334,0.458,1,2206.163,3
0,391,target,"[(1037, 804)]",[],[1],[0.6],vertical,"(390.0, 762.0)",1.0166666666666666,0.557,1,2211.68,3
0,392,target,"[(1037, 804)]",[],[1],[0.5],horizontal,"(890.0, 262.0)",0.6666666666666666,0.46,1,2217.22,3
0,393,target,"[(1021, 768)]",[],[1],[],horizontal,"(390.0, 262.0)",,"('cti', 0.524)",0,2222.612,0
0,394,catch,"[(1027, 798)]",[],[1],[],vertical,"(890.0, 262.0)",1.6,nan,1,2226.797,1
0,395,target,"[(1025, 766)]",[],[1],[0.4],vertical,"(890.0, 762.0)",1.4833333333333334,0.363,1,2231.837,1
0,396,target,"[(1028, 799)]",[],[1],[0.4666666666666667],vertical,"(390.0, 762.0)",1.3166666666666667,0.428,1,2236.546,2
0,397,catch,"[(1036, 791)]",[],[1],[0.03333333333333333],horizontal,"(890.0, 262.0)",1.6,"0.019,nan",0,2241.859,0
0,398,target,"[(1041, 794)]",[],[1],[0.5333333333333333],horizontal,"(890.0, 762.0)",1.3166666666666667,0.498,1,2246.757,1
0,399,catch,"[(1045, 780)]",[],[1],[],vertical,"(890.0, 762.0)",1.6,nan,1,2251.574,1
0,400,target,"[(1047, 791)]",[],[1],[0.55],vertical,"(890.0, 762.0)",1.2666666666666666,0.517,1,2256.45,2
0,401,target,"[(1057, 796)]",[],[1],[0.85],vertical,"(390.0, 762.0)",0.5,nan,0,2261.614,0
0,402,target,"[(1024, 792)]",[],[1],[0.2833333333333333],vertical,"(890.0, 762.0)",1.3333333333333333,0.248,1,2266.168,1
0,403,target,"[(1033, 794)]",[],[1],[0.3333333333333333],vertical,"(390.0, 762.0)",1.25,0.297,1,2271.113,1
0,404,target,"[(1044, 794)]",[],[1],[0.5166666666666666],horizontal,"(890.0, 262.0)",0.9333333333333333,0.478,1,2276.243,2
0,405,target,"[(1029, 772)]",[],[1],[0.18333333333333332],horizontal,"(890.0, 762.0)",1.4166666666666667,0.151,0,2281.429,0
0,406,target,"[(1057, 791)]",[],[1],[0.4],horizontal,"(390.0, 262.0)",1.3166666666666667,0.365,1,2286.48,1
0,407,target,"[(1013, 811)]",[],[1],[0.3333333333333333],horizontal,"(390.0, 262.0)",1.3666666666666667,0.294,1,2291.63,1
0,408,target,"[(1057, 785)]",[],[1],[0.85],horizontal,"(890.0, 762.0)",0.65,nan,0,2298.132,0
0,409,target,"[(1019, 790)]",[],[1],[0.6],vertical,"(890.0, 762.0)",1.0666666666666667,0.557,1,2302.531,1
0,410,target,"[(1043, 791)]",[],[1],[0.85],vertical,"(890.0, 262.0)",1.5833333333333333,"('cti', 1.566),nan",0,2307.269,0
0,411,target,"[(1041, 805)]",[],[1],[0.4666666666666667],horizontal,"(890.0, 262.0)",1.1,0.43,1,2312.519,1
0,412,target,"[(1041, 796)]",[],[1],[0.5833333333333334],vertical,"(390.0, 262.0)",0.85,0.549,1,2317.025,1
0,413,target,"[(1038, 782)]",[],[1],[0.2833333333333333],horizontal,"(890.0, 762.0)",1.5833333333333333,0.244,1,2321.414,2
0,414,target,"[(1033, 774)]",[],[1],[],horizontal,"(890.0, 262.0)",,"('cti', 1.045)",0,2326.829,0
0,415,target,"[(1033, 798)]",[],[1],[0.85],horizontal,"(390.0, 262.0)",0.6833333333333333,nan,0,2330.747,0
0,416,catch,"[(1035, 805)]",[],[1],[],horizontal,"(890.0, 762.0)",1.6,nan,1,2335.413,1
0,417,target,"[(1025, 774)]",[],[1],[0.3833333333333333],horizontal,"(890.0, 762.0)",1.35,0.352,1,2340.245,1
0,418,target,"[(1021, 789)]",[],[1],[0.6333333333333333],horizontal,"(890.0, 762.0)",0.85,0.6,1,2344.985,2
0,419,target,"[(1052, 789)]",[],[1],[0.11666666666666667],horizontal,"(390.0, 262.0)",1.5666666666666667,0.087,0,2349.988,0
0,420,catch,"[(1036, 796)]",[],[1],[],horizontal,"(890.0, 262.0)",,"('cti', 1.589),nan",0,2354.852,0
0,421,target,"[(1028, 797)]",[],[1],[0.21666666666666667],vertical,"(390.0, 762.0)",1.5,0.178,0,2359.664,0
0,422,target,"[(1039, 789)]",[],[1],[0.3],horizontal,"(390.0, 262.0)",1.3333333333333333,0.266,1,2364.328,1
0,423,target,"[(1025, 790)]",[],[1],[0.5833333333333334],vertical,"(390.0, 762.0)",0.8,0.553,1,2369.552,1
0,424,target,"[(1057, 800)]",[],[1],[0.43333333333333335],horizontal,"(390.0, 262.0)",1.1666666666666667,0.396,1,2374.342,2
0,425,target,"[(1043, 795)]",[],[1],[0.5166666666666666],horizontal,"(390.0, 262.0)",0.7166666666666667,0.481,1,2379.62,2
0,426,target,"[(1042, 796)]",[],[1],[0.65],horizontal,"(890.0, 262.0)",0.7333333333333333,0.617,1,2384.807,2
0,427,target,"[(1038, 779)]",[],[1],[0.5833333333333334],horizontal,"(390.0, 762.0)",1.0166666666666666,0.542,1,2389.478,2
0,428,target,"[(1039, 776)]",[],[1],[0.5],vertical,"(390.0, 262.0)",0.5,0.468,1,2394.855,3
0,429,target,"[(1044, 789)]",[],[1],[0.5166666666666666],vertical,"(390.0, 762.0)",1.2166666666666666,0.48,1,2399.63,3
0,430,target,"[(1033, 779)]",[],[1],[0.5333333333333333],vertical,"(390.0, 762.0)",0.9666666666666667,0.492,1,2405.254,3
0,431,target,"[(1037, 795)]",[],[1],[0.5166666666666666],horizontal,"(390.0, 762.0)",0.7166666666666667,0.479,1,2411.13,3
0,432,target,"[(1025, 795)]",[],[1],[0.6166666666666667],horizontal,"(890.0, 762.0)",1.0666666666666667,0.572,1,2416.898,3
0,433,target,"[(1025, 778)]",[],[1],[0.6166666666666667],vertical,"(890.0, 262.0)",0.6166666666666667,0.573,1,2422.959,3
0,434,target,"[(1021, 786)]",[],[1],[0.5666666666666667],vertical,"(890.0, 262.0)",1.2,0.523,1,2428.658,3
0,435,catch,"[(1025, 780)]",[],[1],[],horizontal,"(890.0, 762.0)",1.6,nan,1,2434.364,3
0,436,catch,"[(1032, 799)]",[],[1],[],vertical,"(390.0, 262.0)",1.6,nan,1,2439.996,3
0,437,target,"[(1029, 790)]",[],[1],[],vertical,"(390.0, 762.0)",,"('cti', 1.482)",0,2445.869,0
0,438,catch,"[(1028, 776)]",[],[1],[],vertical,"(890.0, 762.0)",1.6,nan,1,2450.442,1
0,439,target,"[(1042, 779)]",[],[1],[0.18333333333333332],horizontal,"(390.0, 262.0)",1.5833333333333333,0.149,0,2455.472,0
0,440,target,"[(1060, 793)]",[],[1],[0.5166666666666666],vertical,"(390.0, 262.0)",0.6833333333333333,0.478,1,2460.432,1
0,441,target,"[(1018, 766)]","[(1003, 802)]",[1],[0.16666666666666666],horizontal,"(390.0, 762.0)",,"('bar', 0.183)",0,2464.787,0
0,442,target,"[(1040, 817)]",[],[1],[0.2],horizontal,"(890.0, 262.0)",1.4166666666666667,0.17,0,2467.34,0
0,443,target,"[(1037, 802)]",[],[1],[0.43333333333333335],horizontal,"(390.0, 262.0)",1.2,0.393,1,2472.163,1
0,444,catch,"[(1046, 804)]",[],[1],[],horizontal,"(890.0, 262.0)",1.6,nan,1,2476.997,1
0,445,target,"[(1033, 809)]",[],[1],[0.6333333333333333],horizontal,"(390.0, 262.0)",0.9666666666666667,0.59,1,2481.748,2
0,446,target,"[(1037, 795)]",[],[1],[0.5833333333333334],horizontal,"(890.0, 262.0)",0.8333333333333334,0.55,1,2487.044,2
0,447,target,"[(1033, 795)]",[],[1],[0.5166666666666666],horizontal,"(390.0, 262.0)",0.8,0.479,1,2492.381,2
0,448,catch,"[(1053, 805)]",[],[1],[],horizontal,"(390.0, 762.0)",1.6,"('cti', 1.599),nan",0,2497.373,0
0,449,target,"[(1037, 798)]",[],[1],[0.5333333333333333],horizontal,"(390.0, 262.0)",1.0666666666666667,0.497,1,2501.803,1
0,450,target,"[(1051, 775)]",[],[1],[0.5],horizontal,"(890.0, 262.0)",0.7333333333333333,0.46,1,2506.735,1
0,451,target,"[(1026, 785)]",[],[1],[0.36666666666666664],horizontal,"(890.0, 762.0)",1.3666666666666667,0.33,1,2511.8,2
0,452,target,"[(1037, 794)]",[],[1],[0.85],vertical,"(890.0, 762.0)",0.7166666666666667,nan,0,2517.513,0
0,453,target,"[(1025, 781)]",[],[1],[],horizontal,"(390.0, 762.0)",,"('cti', 1.265)",0,2521.946,0
0,454,target,"[(1033, 804)]",[],[1],[0.5833333333333334],horizontal,"(890.0, 762.0)",1.0833333333333333,0.541,1,2526.482,1
0,455,catch,"[(1034, 776)]",[],[1],[],horizontal,"(390.0, 762.0)",,"('cti', 1.541),nan",0,2531.839,0
0,456,target,"[(1037, 802)]",[],[1],[0.21666666666666667],horizontal,"(890.0, 262.0)",1.5666666666666667,0.183,0,2536.749,0
0,457,catch,"[(1040, 790)]",[],[1],[],horizontal,"(890.0, 762.0)",1.6,nan,1,2541.598,1
0,458,target,"[(1031, 791)]",[],[1],[0.5666666666666667],horizontal,"(390.0, 762.0)",1.0666666666666667,0.529,1,2546.714,1
0,459,target,"[(1030, 780)]",[],[1],[0.7666666666666666],vertical,"(390.0, 762.0)",0.6833333333333333,0.733,1,2551.614,2
0,460,target,"[(1041, 787)]",[],[1],[0.5833333333333334],horizontal,"(390.0, 262.0)",1.1166666666666667,0.536,1,2556.431,2
0,461,target,"[(1040, 794)]",[],[1],[0.5166666666666666],vertical,"(890.0, 762.0)",1.15,0.476,1,2561.48,2
0,462,target,"[(1043, 795)]",[],[1],[0.5],vertical,"(390.0, 762.0)",0.8833333333333333,0.461,1,2566.729,2
0,463,target,"[(1033, 786)]",[],[1],[0.4],vertical,"(890.0, 762.0)",1.2166666666666666,0.363,1,2571.845,3
0,464,catch,"[(1033, 792)]",[],[1],[],horizontal,"(890.0, 262.0)",1.6,nan,1,2577.947,3
0,465,target,"[(1037, 786)]",[],[1],[0.55],horizontal,"(390.0, 262.0)",0.6666666666666666,0.506,1,2583.731,3
0,466,target,"[(1021, 795)]",[],[1],[0.55],horizontal,"(390.0, 262.0)",0.55,0.511,1,2588.629,3
0,467,target,"[(1031, 791)]",[],[1],[0.48333333333333334],horizontal,"(390.0, 262.0)",1.0166666666666666,0.445,1,2594.23,3
0,468,target,"[(1032, 786)]",[],[1],[],horizontal,"(890.0, 262.0)",,"('cti', 1.112)",0,2599.397,0
0,469,target,"[(1034, 795)]",[],[1],[0.6666666666666666],horizontal,"(390.0, 762.0)",0.7333333333333333,0.621,1,2603.895,1
0,470,target,"[(1037, 789)]",[],[1],[0.05],vertical,"(390.0, 762.0)",1.4166666666666667,0.018,0,2608.635,0
0,471,catch,"[(1033, 774)]",[],[1],[],horizontal,"(390.0, 762.0)",,"('cti', 1.111),nan",0,2613.434,0
0,472,target,"[(1049, 807)]",[],[1],[0.5166666666666666],vertical,"(390.0, 262.0)",1.0333333333333332,0.477,1,2617.731,1
0,473,target,"[(1036, 786)]",[],[1],[0.6833333333333333],horizontal,"(390.0, 262.0)",1.0833333333333333,0.641,1,2622.616,1
0,474,catch,"[(1023, 790)]",[],[1],[],horizontal,"(390.0, 262.0)",1.6,nan,1,2627.515,2
0,475,target,"[(1037, 817)]",[],[1],[0.4166666666666667],horizontal,"(890.0, 262.0)",1.1833333333333333,0.377,1,2632.548,2
0,476,target,"[(1013, 812)]",[],[1],[0.5166666666666666],vertical,"(890.0, 762.0)",0.9333333333333333,0.476,1,2652.93,2
0,477,target,"[(1017, 804)]",[],[1],[0.26666666666666666],vertical,"(390.0, 262.0)",1.3,0.231,1,2658.439,2
0,478,catch,"[(1021, 795)]",[],[1],[],horizontal,"(390.0, 262.0)",,"('cti', 1.562),nan",0,2663.857,0
0,479,target,"[(1037, 804)]",[],[1],[0.85],vertical,"(890.0, 762.0)",0.65,nan,0,2668.673,0
0,480,target,"[(1019, 799)]",[],[1],[0.55],vertical,"(890.0, 762.0)",0.9166666666666666,0.511,1,2673.153,1
0,481,target,"[(1042, 806)]",[],[1],[0.6166666666666667],horizontal,"(390.0, 762.0)",0.6666666666666666,0.571,1,2677.889,1
0,482,target,"[(1020, 795)]",[],[1],[],horizontal,"(390.0, 262.0)",,"('cti', 1.525)",0,2682.065,0
0,483,target,"[(1021, 816)]",[],[1],[0.23333333333333334],horizontal,"(890.0, 762.0)",1.5,0.193,0,2687.296,0
0,484,target,"[(1055, 814)]",[],[1],[0.55],vertical,"(390.0, 262.0)",0.9833333333333333,0.506,1,2696.478,1
0,485,target,"[(1060, 787)]",[],[1],[0.5333333333333333],horizontal,"(390.0, 762.0)",0.6,0.489,1,2701.442,1
0,486,catch,"[(1033, 794)]",[],[1],[],vertical,"(890.0, 762.0)",1.6,nan,1,2705.635,2
0,487,target,"[(1054, 793)]",[],[1],[0.5],vertical,"(890.0, 762.0)",1.3833333333333333,0.457,1,2710.921,2
0,488,target,"[(1033, 787)]",[],[1],[0.45],vertical,"(390.0, 762.0)",0.9166666666666666,0.409,1,2716.197,2
0,489,target,"[(1049, 795)]",[],[1],[0.5333333333333333],vertical,"(390.0, 762.0)",0.7333333333333333,0.492,1,2721.414,2
0,490,target,"[(1037, 790)]",[],[1],[0.1],vertical,"(390.0, 262.0)",1.1166666666666667,0.068,0,2726.385,0
0,491,target,"[(1041, 805)]",[],[1],[0.5166666666666666],horizontal,"(390.0, 762.0)",0.8333333333333334,0.489,1,2730.948,1
0,492,target,"[(1037, 795)]",[],[1],[0.6833333333333333],horizontal,"(390.0, 762.0)",0.7333333333333333,0.635,1,2735.762,1
0,493,target,"[(1021, 787)]",[],[1],[0.5166666666666666],horizontal,"(390.0, 262.0)",0.7,0.474,1,2740.285,2
0,494,target,"[(1056, 765)]",[],[1],[0.4666666666666667],vertical,"(890.0, 262.0)",1.2333333333333334,0.42,1,2745.143,2
0,495,catch,"[(1034, 785)]",[],[1],[],vertical,"(890.0, 762.0)",1.6,nan,1,2750.7,2
0,496,target,"[(1057, 807)]",[],[1],[0.48333333333333334],horizontal,"(890.0, 262.0)",1.3166666666666667,0.441,1,2755.731,2
0,497,target,"[(1041, 798)]",[],[1],[0.35],vertical,"(390.0, 262.0)",1.2833333333333332,0.312,1,2760.947,3
0,498,catch,"[(1033, 805)]",[],[1],[],vertical,"(390.0, 762.0)",1.6,"('cti', 1.579),nan",0,2766.931,0
0,499,target,"[(1033, 794)]",[],[1],[0.5333333333333333],vertical,"(890.0, 262.0)",1.2833333333333332,0.49,1,2771.706,1
0,500,target,"[(1032, 790)]",[],[1],[0.55],vertical,"(390.0, 262.0)",0.5666666666666667,0.509,1,2776.997,1
0,501,target,"[(1022, 789)]",[],[1],[0.5333333333333333],vertical,"(890.0, 762.0)",1.0333333333333332,0.491,1,2781.548,2
0,502,target,"[(1040, 796)]",[],[1],[0.85],horizontal,"(890.0, 262.0)",0.5333333333333333,nan,0,2786.598,0
0,503,target,"[(1042, 790)]",[],[1],[0.85],vertical,"(890.0, 762.0)",0.6,nan,0,2790.972,0
0,504,target,"[(1033, 802)]",[],[1],[0.55],horizontal,"(890.0, 762.0)",0.9333333333333333,0.505,1,2795.609,1
0,505,target,"[(1033, 782)]",[],[1],[0.13333333333333333],vertical,"(390.0, 762.0)",1.5,0.104,0,2800.399,0
0,506,target,"[(1022, 792)]",[],[1],[0.5666666666666667],horizontal,"(890.0, 762.0)",0.6333333333333333,0.525,1,2805.094,1
0,507,target,"[(1029, 804)]",[],[1],[0.13333333333333333],horizontal,"(890.0, 262.0)",1.15,0.102,0,2809.591,0
0,508,catch,"[(1017, 771)]",[],[1],[],vertical,"(890.0, 262.0)",1.6,nan,1,2814.425,1
0,509,target,"[(1024, 769)]",[],[1],[0.5166666666666666],horizontal,"(390.0, 262.0)",0.6666666666666666,0.478,1,2819.449,1
0,510,target,"[(1037, 815)]",[],[1],[0.5166666666666666],horizontal,"(890.0, 762.0)",0.6666666666666666,0.475,1,2823.607,2
0,511,target,"[(1022, 787)]",[],[1],[0.65],horizontal,"(390.0, 762.0)",0.7666666666666666,0.601,1,2828.531,2
0,512,catch,"[(1044, 793)]",[],[1],[],vertical,"(390.0, 262.0)",1.6,nan,1,2835.614,2
0,513,target,"[(1034, 788)]",[],[1],[0.6],horizontal,"(890.0, 762.0)",1.15,0.554,1,2841.056,2
0,514,target,"[(1051, 791)]",[],[1],[0.6333333333333333],horizontal,"(890.0, 762.0)",1.15,0.592,1,2846.247,3
0,515,catch,"[(1033, 804)]",[],[1],[],horizontal,"(390.0, 762.0)",,"('cti', 1.605),nan",0,2851.797,0
0,516,target,"[(1037, 811)]",[],[1],[0.3333333333333333],horizontal,"(390.0, 762.0)",1.4333333333333333,0.294,1,2856.459,1
0,517,catch,"[(1040, 790)]",[],[1],[],vertical,"(890.0, 762.0)",,"('cti', 1.56),nan",0,2861.647,0
0,518,target,"[(992, 837), (1037, 817)]",[],"[0, 1]",[0.3],vertical,"(390.0, 762.0)",1.2166666666666666,0.265,1,2866.105,1
0,519,target,"[(1037, 791)]",[],[1],[],vertical,"(390.0, 262.0)",,"('cti', 1.15)",0,2876.381,0
0,520,target,"[(1041, 787)]",[],[1],[0.5333333333333333],vertical,"(390.0, 262.0)",0.5833333333333334,0.489,1,2880.756,1
0,521,target,"[(1034, 782)]",[],[1],[0.85],horizontal,"(890.0, 762.0)",0.5833333333333334,nan,0,2885.161,0
0,522,target,"[(1014, 773)]",[],[1],[0.85],vertical,"(390.0, 762.0)",0.5666666666666667,nan,0,2889.864,0
0,523,target,"[(1008, 811)]",[],[1],[0.2],horizontal,"(390.0, 262.0)",1.5,0.17,0,2894.254,0
0,524,catch,"[(1037, 809)]",[],[1],[],horizontal,"(390.0, 262.0)",1.6,nan,1,2909.238,1
0,525,target,"[(1057, 809)]",[],[1],[0.36666666666666664],horizontal,"(390.0, 762.0)",1.3166666666666667,0.324,1,2914.027,1
0,526,target,"[(1038, 801)]",[],[1],[0.7833333333333333],vertical,"(390.0, 262.0)",0.5,0.735,1,2918.604,2
0,527,catch,"[(1032, 796)]",[],[1],[],vertical,"(890.0, 762.0)",1.6,nan,1,2923.498,2
0,528,target,"[(1036, 796)]",[],[1],[0.3333333333333333],horizontal,"(890.0, 262.0)",1.4833333333333334,0.296,1,2928.78,2
0,529,target,"[(1042, 809)]",[],[1],[0.43333333333333335],horizontal,"(390.0, 762.0)",1.3,0.395,1,2934.247,2
0,530,target,"[(1054, 808)]",[],[1],[0.5166666666666666],vertical,"(390.0, 262.0)",0.85,0.479,1,2939.447,3
0,531,target,"[(1049, 794)]",[],[1],[0.85],horizontal,"(890.0, 762.0)",0.5333333333333333,nan,0,2945.163,0
0,532,target,"[(1038, 792)]",[],[1],[0.5833333333333334],vertical,"(890.0, 762.0)",0.7833333333333333,0.542,1,2949.721,1
0,533,target,"[(1037, 775)]",[],[1],[],vertical,"(390.0, 262.0)",,"('cti', 1.31)",0,2954.232,0
0,534,target,"[(1022, 813)]",[],[1],[0.85],vertical,"(390.0, 262.0)",0.9166666666666666,nan,0,2958.648,0
0,535,target,"[(1003, 799), (1042, 811)]",[],"[0, 1]",[],vertical,"(390.0, 762.0)",,"('cti', 1.242)",0,2964.971,0
0,536,catch,"[(1021, 824)]",[],[1],[],vertical,"(390.0, 262.0)",1.6,nan,1,2971.053,1
0,537,catch,"[(1036, 790)]",[],[1],[],vertical,"(390.0, 262.0)",1.6,nan,1,2975.877,1
0,538,target,"[(1041, 817)]",[],[1],[0.45],vertical,"(890.0, 262.0)",1.2166666666666666,0.41,1,2980.748,2
0,539,target,"[(1041, 812)]",[],[1],[0.11666666666666667],vertical,"(890.0, 762.0)",1.5333333333333332,0.084,0,2985.981,0
0,540,target,"[(1041, 801)]",[],[1],[0.6333333333333333],horizontal,"(390.0, 762.0)",0.7666666666666666,0.592,1,2990.865,1
0,541,target,"[(1037, 801)]",[],[1],[0.85],vertical,"(890.0, 762.0)",0.55,nan,0,2995.952,0
0,542,target,"[(1043, 794)]",[],[1],[0.48333333333333334],vertical,"(390.0, 262.0)",1.0166666666666666,0.451,1,3000.498,1
0,543,target,"[(1053, 806)]",[],[1],[0.35],vertical,"(890.0, 262.0)",1.5,0.314,1,3005.683,1
0,544,target,"[(1041, 785)]",[],[1],[0.4666666666666667],vertical,"(890.0, 762.0)",0.8666666666666667,0.425,1,3010.348,2
0,545,target,"[(1038, 799)]",[],[1],[0.6333333333333333],vertical,"(390.0, 762.0)",0.6666666666666666,0.592,1,3015.364,2
0,546,target,"[(1058, 802)]",[],[1],[0.5833333333333334],vertical,"(390.0, 762.0)",1.4333333333333333,0.544,1,3020.65,2
0,547,target,"[(1032, 789)]",[],[1],[0.6833333333333333],horizontal,"(890.0, 262.0)",1.0833333333333333,0.639,1,3026.272,2
0,548,target,"[(1030, 800)]",[],[1],[0.5],vertical,"(890.0, 762.0)",1.1666666666666667,0.473,1,3031.681,3
0,549,target,"[(1053, 795)]",[],[1],[],horizontal,"(890.0, 262.0)",,"('cti', 1.407)",0,3037.367,0
0,550,target,"[(1037, 784)]",[],[1],[0.85],vertical,"(390.0, 762.0)",0.5333333333333333,nan,0,3041.856,0
0,551,target,"[(1018, 788)]",[],[1],[0.5666666666666667],horizontal,"(390.0, 262.0)",1.1333333333333333,0.524,1,3046.015,1
0,552,target,"[(1049, 798)]",[],[1],[0.4],vertical,"(890.0, 262.0)",1.5333333333333332,0.366,1,3051.471,1
0,553,catch,"[(1035, 795)]",[],[1],[],vertical,"(890.0, 762.0)",1.6,nan,1,3056.283,2
0,554,target,"[(1059, 795)]",[],[1],[0.16666666666666666],vertical,"(390.0, 762.0)",1.5666666666666667,0.135,0,3061.331,0
0,555,target,"[(1028, 804)]",[],[1],[0.7],vertical,"(390.0, 262.0)",0.6166666666666667,0.661,1,3065.998,1
0,556,target,"[(1055, 795)]",[],[1],[0.6666666666666666],horizontal,"(390.0, 762.0)",1.0833333333333333,0.629,1,3070.883,1
0,557,target,"[(1061, 780)]",[],[1],[0.6166666666666667],vertical,"(890.0, 262.0)",1.1166666666666667,0.58,1,3075.963,2
0,558,target,"[(1056, 801)]",[],[1],[0.6833333333333333],horizontal,"(890.0, 762.0)",0.9166666666666666,0.646,1,3081.428,2
0,559,catch,"[(1055, 792)]",[],[1],[],horizontal,"(390.0, 262.0)",1.6,nan,1,3086.749,2
0,560,target,"[(1034, 801)]",[],[1],[0.11666666666666667],horizontal,"(890.0, 762.0)",1.6,0.086,0,3092.063,0
0,561,target,"[(1033, 801)]",[],[1],[0.6],horizontal,"(890.0, 762.0)",1.0666666666666667,0.562,1,3096.925,1
0,562,target,"[(1033, 794)]",[],[1],[0.2833333333333333],vertical,"(890.0, 262.0)",1.55,0.247,1,3101.732,1
0,563,target,"[(1040, 790)]",[],[1],[0.6],horizontal,"(390.0, 262.0)",0.7333333333333333,0.564,1,3106.742,2
0,564,catch,"[(1033, 790)]",[],[1],[],vertical,"(390.0, 262.0)",1.6,nan,1,3111.564,2
0,565,target,"[(1056, 810)]",[],[1],[0.85],vertical,"(390.0, 762.0)",0.7,nan,0,3117.099,0
0,566,target,"[(1025, 813)]",[],[1],[0.85],horizontal,"(890.0, 762.0)",0.8,nan,0,3121.383,0
0,567,target,"[(1027, 811)]",[],[1],[0.5666666666666667],vertical,"(890.0, 762.0)",0.9166666666666666,0.525,1,3332.482,1
0,568,target,"[(1033, 815)]",[],[1],[0.6333333333333333],vertical,"(390.0, 762.0)",0.85,0.592,1,3337.122,1
0,569,target,"[(1035, 807)]",[],[1],[0.48333333333333334],vertical,"(390.0, 762.0)",1.4833333333333334,0.442,1,3341.866,2
0,570,target,"[(1057, 811)]",[],[1],[0.48333333333333334],vertical,"(890.0, 262.0)",1.2,0.444,1,3347.674,2
0,571,target,"[(1037, 816)]",[],[1],[0.21666666666666667],vertical,"(890.0, 262.0)",0.95,0.182,0,3353.198,0
0,572,target,"[(1039, 811)]",[],[1],[0.4166666666666667],vertical,"(390.0, 262.0)",1.25,0.38,1,3370.15,1
0,573,target,"[(1040, 803)]",[],[1],[0.6],horizontal,"(890.0, 762.0)",0.6833333333333333,0.558,1,3374.92,1
0,574,catch,"[(1032, 812)]",[],[1],[],horizontal,"(390.0, 762.0)",1.6,nan,1,3379.916,2
0,575,target,"[(1041, 805)]",[],[1],[0.48333333333333334],vertical,"(890.0, 762.0)",0.8166666666666667,0.448,1,3385.3,2
0,576,target,"[(1033, 793)]",[],[1],[0.6666666666666666],horizontal,"(390.0, 762.0)",0.8166666666666667,0.622,1,3390.218,2
0,577,target,"[(1038, 799)]",[],[1],[0.3],vertical,"(390.0, 262.0)",1.45,0.262,1,3395.851,2
0,578,catch,"[(1055, 795)]",[],[1],[],vertical,"(390.0, 262.0)",1.6,nan,1,3401.032,3
0,579,target,"[(1049, 824)]",[],[1],[0.4166666666666667],horizontal,"(890.0, 762.0)",1.5166666666666666,0.378,1,3406.549,3
0,580,target,"[(1037, 784)]",[],[1],[0.5],horizontal,"(390.0, 762.0)",1.3166666666666667,0.462,1,3412.578,3
0,581,target,"[(1040, 799)]",[],[1],[0.5166666666666666],vertical,"(390.0, 262.0)",0.9666666666666667,0.482,1,3418.107,3
0,582,target,"[(1033, 806)]",[],[1],[0.3333333333333333],horizontal,"(890.0, 762.0)",1.3666666666666667,0.301,1,3423.284,3
0,583,target,"[(1038, 773)]",[],[1],[0.4],horizontal,"(390.0, 262.0)",1.1166666666666667,0.363,1,3429.399,3
0,584,catch,"[(1040, 792)]",[],[1],[],vertical,"(890.0, 762.0)",1.6,nan,1,3435.196,3
0,585,target,"[(1052, 804)]",[],[1],[0.85],horizontal,"(890.0, 262.0)",0.5833333333333334,nan,0,3440.801,0
0,586,target,"[(1017, 807)]",[],[1],[0.6666666666666666],horizontal,"(390.0, 762.0)",0.5,0.623,1,3445.499,1
0,587,target,"[(1030, 812)]",[],[1],[0.23333333333333334],vertical,"(390.0, 762.0)",1.3166666666666667,0.202,1,3450.567,1
0,588,target,"[(1037, 783)]",[],[1],[0.45],vertical,"(390.0, 262.0)",0.75,0.407,1,3456.183,2
0,589,target,"[(1041, 813)]",[],[1],[],horizontal,"(390.0, 262.0)",,"('cti', 1.395)",0,3461.231,0
0,590,target,"[(1034, 813)]",[],[1],[0.6666666666666666],vertical,"(390.0, 262.0)",0.7,0.623,1,3465.717,1
0,591,target,"[(1046, 800)]",[],[1],[0.6333333333333333],horizontal,"(890.0, 762.0)",1.15,0.589,1,3470.549,1
0,592,target,"[(1037, 805)]",[],[1],[0.6333333333333333],horizontal,"(890.0, 262.0)",0.7333333333333333,0.588,1,3475.736,2
0,593,target,"[(1057, 801)]",[],[1],[0.18333333333333332],horizontal,"(390.0, 762.0)",1.0833333333333333,0.149,0,3480.817,0
0,594,target,"[(1032, 804)]",[],[1],[0.16666666666666666],vertical,"(890.0, 262.0)",0.5166666666666666,0.134,0,3485.257,0
0,595,target,"[(1035, 790)]",[],[1],[0.23333333333333334],horizontal,"(890.0, 762.0)",1.4666666666666666,0.194,0,3499.21,0
0,596,target,"[(1016, 800)]",[],[1],[0.55],horizontal,"(390.0, 762.0)",0.7666666666666666,0.506,1,3517.068,1
0,597,target,"[(1041, 809)]",[],[1],[0.6333333333333333],horizontal,"(390.0, 262.0)",1.1166666666666667,0.586,1,3521.817,1
0,598,target,"[(1054, 803)]",[],[1],[0.85],horizontal,"(390.0, 262.0)",0.7166666666666667,nan,0,3526.798,0
0,599,target,"[(1054, 809)]",[],[1],[0.85],horizontal,"(890.0, 762.0)",0.5,nan,0,3531.356,0
0,600,target,"[(1041, 812)]",[],[1],[0.4666666666666667],horizontal,"(890.0, 262.0)",1.3166666666666667,0.429,1,3536.258,1
0,601,catch,"[(1056, 809)]",[],[1],[],vertical,"(390.0, 262.0)",,"('cti', 1.472),nan",0,3541.517,0
0,602,target,"[(1052, 809)]",[],[1],[0.21666666666666667],horizontal,"(890.0, 762.0)",1.3833333333333333,0.18,0,3546.232,0
0,603,target,"[(1037, 815)]",[],[1],[0.8333333333333334],vertical,"(390.0, 762.0)",0.5166666666666666,0.779,1,3550.966,1
0,604,target,"[(1045, 790)]",[],[1],[0.5],vertical,"(890.0, 762.0)",0.9833333333333333,0.456,1,3555.649,1
0,605,target,"[(1036, 805)]",[],[1],[0.6],horizontal,"(890.0, 262.0)",0.5,0.555,1,3560.248,2
0,606,target,"[(1069, 800)]",[],[1],[],horizontal,"(390.0, 262.0)",,"('cti', 1.24)",0,3565.25,0
0,607,target,"[(1043, 813)]",[],[1],[0.2833333333333333],horizontal,"(890.0, 262.0)",1.5833333333333333,0.243,1,3569.721,1
0,608,target,"[(1047, 800)]",[],[1],[0.85],horizontal,"(890.0, 262.0)",0.7333333333333333,nan,0,3574.468,0
0,609,target,"[(1034, 800)]",[],[1],[0.55],horizontal,"(890.0, 262.0)",1.2666666666666666,0.506,1,3578.768,1
0,610,catch,"[(1052, 794)]",[],[1],[],vertical,"(890.0, 762.0)",1.6,nan,1,3583.628,1
0,611,target,"[(1033, 790)]",[],[1],[0.4166666666666667],vertical,"(390.0, 762.0)",1.1,0.378,1,3588.277,2
0,612,target,"[(1051, 829)]",[],[1],[0.48333333333333334],horizontal,"(890.0, 762.0)",0.7666666666666666,0.439,1,3593.581,2
0,613,target,"[(1052, 787)]",[],[1],[0.5],vertical,"(890.0, 762.0)",0.9833333333333333,0.458,1,3598.492,2
0,614,target,"[(1057, 798)]",[],[1],[0.45],vertical,"(890.0, 262.0)",1.2166666666666666,0.411,1,3603.566,2
0,615,catch,"[(1053, 809)]",[],[1],[],vertical,"(390.0, 762.0)",,"('cti', 1.467),nan",0,3609.004,0
0,616,target,"[(1042, 820)]",[],[1],[0.7833333333333333],vertical,"(890.0, 762.0)",0.65,0.73,1,3613.866,1
0,617,target,"[(1036, 782)]",[],[1],[0.5],vertical,"(390.0, 762.0)",1.3,0.463,1,3618.449,1
0,618,target,"[(1036, 813)]",[],[1],[0.55],horizontal,"(390.0, 762.0)",0.5666666666666667,0.506,1,3623.322,2
0,619,target,"[(1034, 813)]",[],[1],[0.5166666666666666],horizontal,"(390.0, 762.0)",1.1833333333333333,0.476,1,3627.982,2
0,620,target,"[(1052, 799)]",[],[1],[0.08333333333333333],vertical,"(390.0, 262.0)",1.55,0.051,0,3632.943,0
0,621,target,"[(1029, 800)]",[],[1],[0.55],vertical,"(890.0, 762.0)",0.9,0.514,1,3637.913,1
0,622,target,"[(1051, 796)]",[],[1],[],vertical,"(390.0, 262.0)",,"('cti', 1.171)",0,3642.749,0
0,623,target,"[(1030, 804)]",[],[1],[0.5666666666666667],vertical,"(890.0, 762.0)",0.6333333333333333,0.523,1,3647.172,1
0,624,target,"[(1049, 770)]",[],[1],[0.85],horizontal,"(890.0, 762.0)",0.5166666666666666,nan,0,3651.438,0
0,625,target,"[(1037, 780)]",[],[1],[0.5833333333333334],vertical,"(890.0, 762.0)",0.8666666666666667,0.537,1,3655.75,1
0,626,target,"[(1057, 784)]",[],[1],[0.25],horizontal,"(390.0, 762.0)",1.4666666666666666,0.216,1,3661.215,1
0,627,target,"[(1057, 793)]",[],[1],[0.85],horizontal,"(390.0, 762.0)",0.55,nan,0,3666.008,0
0,628,target,"[(1039, 812)]",[],[1],[0.55],vertical,"(890.0, 262.0)",0.5166666666666666,0.505,1,3670.611,1
0,629,target,"[(1049, 789)]",[],[1],[0.55],horizontal,"(890.0, 762.0)",1.1,0.506,1,3675.067,1
0,630,target,"[(1033, 786)]",[],[1],[0.6666666666666666],horizontal,"(890.0, 262.0)",0.9166666666666666,0.627,1,3680.094,2
0,631,target,"[(1049, 790)]",[],[1],[0.85],vertical,"(390.0, 262.0)",0.5166666666666666,nan,0,3685.432,0
0,632,catch,"[(1029, 805)]",[],[1],[],vertical,"(390.0, 762.0)",1.6,nan,1,3689.916,1
0,633,target,"[(1033, 802)]",[],[1],[0.5833333333333334],horizontal,"(890.0, 262.0)",0.7666666666666666,0.545,1,3694.747,1
0,634,target,"[(1037, 799)]",[],[1],[0.3333333333333333],vertical,"(890.0, 762.0)",1.2333333333333334,0.3,1,3699.483,2
0,635,target,"[(1041, 809)]",[],[1],[0.5],horizontal,"(890.0, 262.0)",0.9,0.461,1,3704.884,2
0,636,catch,"[(1057, 793)]",[],[1],[],horizontal,"(390.0, 762.0)",,"('cti', 1.533),nan",0,3710.423,0
0,637,target,"[(1041, 812)]",[],[1],[0.5],horizontal,"(890.0, 262.0)",1.0,0.463,1,3714.834,1
0,638,target,"[(1033, 820)]",[],[1],[0.13333333333333333],vertical,"(390.0, 762.0)",0.9166666666666666,0.099,0,3719.324,0
0,639,target,"[(1037, 798)]",[],[1],[0.6666666666666666],vertical,"(890.0, 262.0)",0.6166666666666667,0.62,1,3723.166,1
0,640,target,"[(1036, 789)]",[],[1],[0.3333333333333333],horizontal,"(890.0, 262.0)",1.2666666666666666,0.295,1,3727.249,1
0,641,target,"[(1034, 785)]",[],[1],[0.6166666666666667],horizontal,"(390.0, 762.0)",0.8,0.572,1,3732.292,2
0,642,target,"[(1021, 798)]",[],[1],[0.7166666666666667],vertical,"(390.0, 762.0)",0.7166666666666667,0.668,1,3737.31,2
0,643,catch,"[(1043, 789)]",[],[1],[],vertical,"(390.0, 262.0)",1.6,nan,1,3742.542,2
0,644,target,"[(1044, 785)]",[],[1],[0.5333333333333333],vertical,"(390.0, 262.0)",0.7166666666666667,0.49,1,3747.616,2
0,645,target,"[(1058, 790)]",[],[1],[0.5],horizontal,"(890.0, 262.0)",0.6166666666666667,0.461,1,3752.549,3
0,646,catch,"[(1033, 794)]",[],[1],[],vertical,"(890.0, 762.0)",1.6,nan,1,3757.901,3
0,647,catch,"[(1032, 781)]",[],[1],[0.03333333333333333],horizontal,"(390.0, 262.0)",1.6,"0.019,nan",0,3763.308,0
0,648,target,"[(1048, 804)]",[],[1],[0.11666666666666667],vertical,"(890.0, 762.0)",1.5166666666666666,0.083,0,3768.047,0
0,649,target,"[(1040, 791)]",[],[1],[0.85],vertical,"(390.0, 762.0)",0.5333333333333333,nan,0,3772.784,0
0,650,target,"[(1033, 804)]",[],[1],[0.08333333333333333],vertical,"(890.0, 262.0)",1.3833333333333333,0.05,0,3777.419,0
0,651,target,"[(1060, 806)]",[],[1],[0.55],vertical,"(890.0, 262.0)",1.2333333333333334,0.523,1,3782.34,1
0,652,target,"[(1033, 771)]",[],[1],[0.31666666666666665],horizontal,"(390.0, 262.0)",1.5,0.282,1,3787.17,1
0,653,target,"[(1059, 784)]",[],[1],[0.55],horizontal,"(890.0, 762.0)",1.15,0.509,1,3792.455,2
0,654,target,"[(1045, 808)]",[],[1],[0.5333333333333333],horizontal,"(390.0, 262.0)",0.6166666666666667,0.489,1,3797.928,2
0,655,target,"[(1035, 785)]",[],[1],[0.5],vertical,"(890.0, 762.0)",1.0166666666666666,0.459,1,3802.388,2
0,656,catch,"[(1045, 790)]",[],[1],[0.03333333333333333],horizontal,"(890.0, 762.0)",1.6,"0.02,nan",0,3807.383,0
0,657,target,"[(1033, 785)]",[],[1],[0.5166666666666666],vertical,"(890.0, 262.0)",1.0833333333333333,0.478,1,3811.866,1
0,658,target,"[(1047, 782)]",[],[1],[0.85],vertical,"(390.0, 262.0)",0.5,nan,0,3816.916,0
0,659,target,"[(1035, 808)]",[],[1],[0.4],horizontal,"(890.0, 262.0)",1.3833333333333333,0.365,1,3821.332,1
0,660,catch,"[(1053, 790)]",[],[1],[],horizontal,"(390.0, 762.0)",,"('cti', 1.537),nan",0,3826.228,0
0,661,target,"[(1035, 787)]",[],[1],[0.5],horizontal,"(890.0, 762.0)",1.2666666666666666,0.461,1,3830.866,1
0,662,catch,"[(1041, 782)]",[],[1],[],horizontal,"(390.0, 262.0)",,"('cti', 1.543),nan",0,3835.753,0
0,663,target,"[(1037, 788)]",[],[1],[0.85],vertical,"(390.0, 762.0)",1.0333333333333332,nan,0,3840.717,0
0,664,target,"[(1049, 811)]",[],[1],[0.85],vertical,"(390.0, 762.0)",0.6833333333333333,nan,0,3845.3,0
0,665,target,"[(1045, 814)]",[],[1],[0.6166666666666667],vertical,"(390.0, 262.0)",0.6333333333333333,0.574,1,3849.775,1
0,666,target,"[(1057, 815)]",[],[1],[0.5666666666666667],horizontal,"(890.0, 262.0)",0.5833333333333334,0.525,1,3854.134,1
0,667,target,"[(1029, 790)]",[],[1],[0.4],vertical,"(390.0, 262.0)",1.2333333333333334,0.366,1,3858.838,2
0,668,catch,"[(1041, 808)]",[],[1],[],horizontal,"(390.0, 262.0)",,"('cti', 1.441),nan",0,3864.117,0
0,669,target,"[(1029, 789)]",[],[1],[0.5333333333333333],horizontal,"(390.0, 262.0)",1.0666666666666667,0.494,1,3868.877,1
0,670,target,"[(1033, 782)]",[],[1],[0.5],horizontal,"(890.0, 762.0)",0.7833333333333333,0.462,1,3873.985,1
0,671,target,"[(1029, 803)]",[],[1],[0.7833333333333333],vertical,"(390.0, 762.0)",0.5833333333333334,0.741,1,3878.799,2
0,672,target,"[(1056, 799)]",[],[1],[0.55],vertical,"(890.0, 262.0)",0.9666666666666667,0.513,1,3884.001,2
0,673,target,"[(1057, 800)]",[],[1],[0.55],horizontal,"(890.0, 762.0)",0.8166666666666667,0.51,1,3889.587,2
0,674,catch,"[(1042, 795)]",[],[1],[],vertical,"(890.0, 262.0)",1.6,nan,1,3894.825,2
0,675,target,"[(1039, 796)]",[],[1],[0.5166666666666666],vertical,"(890.0, 262.0)",1.0833333333333333,0.478,1,3900.132,3
0,676,target,"[(1037, 803)]",[],[1],[0.36666666666666664],vertical,"(390.0, 262.0)",1.2,0.331,1,3905.801,3
0,677,target,"[(1057, 791)]",[],[1],[0.35],vertical,"(390.0, 762.0)",1.4,0.314,1,3911.316,3
0,678,target,"[(1035, 787)]",[],[1],[0.85],vertical,"(890.0, 762.0)",0.5833333333333334,nan,0,3917.018,0
0,679,target,"[(1031, 815)]",[],[1],[0.18333333333333332],vertical,"(890.0, 762.0)",1.3833333333333333,0.154,0,3921.351,0
0,680,target,"[(1037, 803)]",[],[1],[0.55],horizontal,"(390.0, 762.0)",0.8833333333333333,0.511,1,3926.184,1
0,681,target,"[(1037, 786)]",[],[1],[0.21666666666666667],vertical,"(890.0, 262.0)",1.3166666666666667,0.185,0,3931.235,0
0,682,target,"[(1024, 792)]",[],[1],[0.6],vertical,"(890.0, 262.0)",0.5833333333333334,0.56,1,3935.969,1
0,683,target,"[(1041, 783)]",[],[1],[0.4666666666666667],vertical,"(890.0, 762.0)",1.1166666666666667,0.432,1,3940.204,1
0,684,target,"[(1038, 776)]",[],[1],[0.23333333333333334],horizontal,"(890.0, 262.0)",1.5833333333333333,0.198,0,3945.137,0
0,685,target,"[(1033, 805)]",[],[1],[0.55],vertical,"(390.0, 262.0)",0.7833333333333333,0.512,1,3949.925,1
0,686,target,"[(1037, 790)]",[],[1],[0.5833333333333334],horizontal,"(890.0, 762.0)",0.75,0.54,1,3954.823,1
0,687,target,"[(1041, 799)]",[],[1],[0.65],vertical,"(390.0, 262.0)",0.7666666666666666,0.611,1,3959.64,2
0,688,catch,"[(1038, 800)]",[],[1],[],vertical,"(390.0, 762.0)",,"('cti', 1.355),nan",0,3964.45,0
0,689,target,"[(1035, 795)]",[],[1],[0.5],horizontal,"(890.0, 262.0)",0.8666666666666667,0.457,1,3969.11,1
0,690,target,"[(1054, 782)]",[],[1],[0.25],vertical,"(390.0, 262.0)",1.4333333333333333,0.212,1,3973.675,1
0,691,target,"[(1039, 798)]",[],[1],[0.85],vertical,"(390.0, 762.0)",0.6,nan,0,3978.517,0
0,692,target,"[(1049, 808)]",[],[1],[0.21666666666666667],vertical,"(890.0, 762.0)",1.45,0.182,0,3983.171,0
0,693,target,"[(1041, 813)]",[],[1],[0.45],horizontal,"(890.0, 262.0)",1.3666666666666667,0.413,1,3987.942,1
0,694,target,"[(1037, 805)]",[],[1],[0.5666666666666667],horizontal,"(890.0, 762.0)",0.7833333333333333,0.532,1,3992.924,1
0,695,target,"[(1041, 798)]",[],[1],[0.6666666666666666],vertical,"(390.0, 762.0)",0.6166666666666667,0.621,1,3997.526,2
0,696,target,"[(1035, 803)]",[],[1],[0.6],vertical,"(390.0, 762.0)",0.9666666666666667,0.56,1,4002.775,2
0,697,target,"[(1024, 768)]",[],[1],[0.35],horizontal,"(890.0, 762.0)",1.2166666666666666,0.318,1,4008.185,2
0,698,target,"[(1039, 810)]",[],[1],[0.45],horizontal,"(390.0, 262.0)",1.3333333333333333,0.413,1,4013.807,2
0,699,target,"[(1057, 802)]",[],[1],[0.5166666666666666],vertical,"(890.0, 762.0)",1.4,0.474,1,4019.486,3
0,700,target,"[(1042, 785)]",[],[1],[0.5166666666666666],horizontal,"(890.0, 762.0)",1.2,0.481,1,4025.167,3
0,701,target,"[(1036, 790)]",[],[1],[],horizontal,"(390.0, 762.0)",,"('cti', 1.476)",0,4031.018,0
0,702,target,"[(1034, 805)]",[],[1],[0.85],horizontal,"(390.0, 262.0)",0.6,nan,0,4035.751,0
0,703,catch,"[(1029, 812)]",[],[1],[],vertical,"(390.0, 262.0)",,"('cti', 1.575),nan",0,4040.433,0
0,704,target,"[(1040, 806)]",[],[1],[0.65],vertical,"(390.0, 762.0)",0.8666666666666667,0.613,1,4044.967,1
0,705,target,"[(1033, 775)]",[],[1],[0.48333333333333334],horizontal,"(890.0, 762.0)",1.2833333333333332,0.447,1,4050.032,1
0,706,catch,"[(1033, 766)]",[],[1],[],vertical,"(390.0, 262.0)",1.6,nan,1,4055.382,2
0,707,target,"[(1032, 780)]",[],[1],[0.85],horizontal,"(390.0, 262.0)",1.0166666666666666,nan,0,4060.734,0
0,708,target,"[(1037, 794)]",[],[1],[0.6166666666666667],vertical,"(390.0, 262.0)",0.8333333333333334,0.579,1,4065.646,1
0,709,target,"[(1051, 806)]",[],[1],[0.3333333333333333],horizontal,"(390.0, 762.0)",1.3166666666666667,0.299,1,4070.584,1
0,710,target,"[(1051, 798)]",[],[1],[],horizontal,"(390.0, 762.0)",,"('cti', 1.541)",0,4075.618,0
0,711,target,"[(1058, 782)]",[],[1],[0.85],horizontal,"(890.0, 762.0)",0.5666666666666667,nan,0,4080.517,0
0,712,target,"[(1017, 800)]",[],[1],[0.5166666666666666],horizontal,"(890.0, 262.0)",1.3166666666666667,0.478,1,4084.8,1
0,713,target,"[(1044, 782)]",[],[1],[0.3],horizontal,"(890.0, 762.0)",1.3666666666666667,0.269,1,4090.118,1
0,714,target,"[(1021, 803)]",[],[1],[0.5666666666666667],vertical,"(390.0, 262.0)",1.0666666666666667,0.533,1,4094.899,2
0,715,target,"[(1057, 820)]",[],[1],[0.6],horizontal,"(890.0, 262.0)",0.7333333333333333,0.562,1,4100.007,2
0,716,target,"[(1038, 780)]",[],[1],[0.4],horizontal,"(890.0, 262.0)",1.15,0.356,1,4105.134,2
0,717,target,"[(1030, 787)]",[],[1],[0.4666666666666667],horizontal,"(390.0, 262.0)",0.9666666666666667,0.433,1,4110.552,2
0,718,catch,"[(1043, 790)]",[],[1],[],vertical,"(890.0, 262.0)",1.6,nan,1,4115.707,3
0,719,target,"[(1037, 811)]",[],[1],[0.55],vertical,"(890.0, 262.0)",0.7666666666666666,0.507,1,4121.368,3
0,720,target,"[(1056, 787)]",[],[1],[0.16666666666666666],vertical,"(390.0, 262.0)",1.5333333333333332,0.133,0,4126.919,0
0,721,target,"[(1033, 789)]",[],[1],[0.5333333333333333],vertical,"(390.0, 762.0)",0.8333333333333334,0.495,1,4131.411,1
0,722,target,"[(1033, 789)]",[],[1],[0.48333333333333334],horizontal,"(890.0, 262.0)",1.2,0.44,1,4136.2,1
0,723,target,"[(1053, 792)]",[],[1],[0.5666666666666667],vertical,"(890.0, 762.0)",0.5833333333333334,0.528,1,4140.771,2
0,724,target,"[(1041, 782)]",[],[1],[0.43333333333333335],vertical,"(390.0, 262.0)",1.1833333333333333,0.395,1,4145.834,2
0,725,target,"[(1040, 785)]",[],[1],[0.85],horizontal,"(890.0, 762.0)",0.6166666666666667,nan,0,4151.243,0
0,726,target,"[(1037, 778)]",[],[1],[0.43333333333333335],horizontal,"(390.0, 262.0)",1.5166666666666666,0.394,1,4155.447,1
0,727,target,"[(1049, 789)]",[],[1],[0.4166666666666667],horizontal,"(890.0, 762.0)",1.1666666666666667,0.384,1,4160.597,1
0,728,target,"[(1041, 790)]",[],[1],[0.85],vertical,"(390.0, 262.0)",1.4333333333333333,"('cti', 1.426),nan",0,4165.701,0
0,729,target,"[(1043, 801)]",[],[1],[0.55],horizontal,"(390.0, 762.0)",0.9666666666666667,0.517,1,4171.012,1
0,730,target,"[(1057, 787)]",[],[1],[0.48333333333333334],horizontal,"(890.0, 262.0)",1.0833333333333333,0.444,1,4175.407,1
0,731,target,"[(1052, 792)]",[],[1],[0.13333333333333333],vertical,"(890.0, 762.0)",1.55,0.102,0,4180.077,0
0,732,catch,"[(1041, 792)]",[],[1],[],vertical,"(890.0, 762.0)",1.6,nan,1,4184.718,1
0,733,target,"[(1057, 788)]",[],[1],[0.5166666666666666],horizontal,"(390.0, 262.0)",1.3166666666666667,0.477,1,4189.717,1
0,734,target,"[(1040, 774)]",[],[1],[0.6666666666666666],vertical,"(890.0, 262.0)",0.7833333333333333,0.623,1,4194.585,2
0,735,target,"[(1035, 788)]",[],[1],[0.15],vertical,"(890.0, 262.0)",1.5,0.115,0,4199.951,0
0,736,target,"[(1036, 800)]",[],[1],[0.6],vertical,"(390.0, 262.0)",0.7833333333333333,0.559,1,4204.635,1
0,737,catch,"[(1038, 777)]",[],[1],[],horizontal,"(890.0, 762.0)",1.6,nan,1,4209.545,1
0,738,target,"[(1043, 794)]",[],[1],[0.5666666666666667],horizontal,"(890.0, 262.0)",1.2333333333333334,0.526,1,4214.284,2
0,739,target,"[(1033, 767)]",[],[1],[0.43333333333333335],vertical,"(390.0, 262.0)",1.1,0.392,1,4219.851,2
0,740,target,"[(1045, 790)]",[],[1],[0.13333333333333333],horizontal,"(390.0, 262.0)",1.4833333333333334,0.101,0,4225.186,0
0,741,target,"[(1030, 789)]",[],[1],[0.7],horizontal,"(390.0, 762.0)",0.9166666666666666,0.658,1,4229.953,1
0,742,catch,"[(1046, 792)]",[],[1],[],vertical,"(890.0, 762.0)",1.6,nan,1,4234.682,1
0,743,target,"[(1028, 785)]",[],[1],[0.6166666666666667],horizontal,"(890.0, 762.0)",0.9833333333333333,0.582,1,4239.857,2
0,744,target,"[(1041, 794)]",[],[1],[0.15],vertical,"(390.0, 762.0)",1.5,0.12,0,4245.268,0
0,745,target,"[(1033, 803)]",[],[1],[0.5666666666666667],horizontal,"(890.0, 762.0)",0.5166666666666666,0.527,1,4249.968,1
0,746,target,"[(1033, 793)]",[],[1],[0.85],vertical,"(390.0, 262.0)",0.6833333333333333,nan,0,4253.93,0
0,747,catch,"[(1022, 788)]",[],[1],[],vertical,"(390.0, 762.0)",1.6,nan,1,4258.172,1
0,748,target,"[(1040, 774)]",[],[1],[0.6],vertical,"(390.0, 262.0)",0.5333333333333333,0.562,1,4262.918,1
0,749,catch,"[(1037, 790)]",[],[1],[],horizontal,"(390.0, 762.0)",1.6,nan,1,4267.068,2
0,750,target,"[(1040, 786)]",[],[1],[0.85],vertical,"(390.0, 262.0)",0.6333333333333333,nan,0,4272.518,0
0,751,target,"[(1018, 779)]",[],[1],[0.85],horizontal,"(390.0, 762.0)",0.7,nan,0,4277.118,0
0,752,catch,"[(1033, 796)]",[],[1],[],vertical,"(890.0, 262.0)",1.6,nan,1,4281.719,1
0,753,target,"[(1054, 777)]",[],[1],[0.55],horizontal,"(890.0, 762.0)",0.8166666666666667,0.508,1,4286.675,1
0,754,target,"[(1055, 781)]",[],[1],[0.35],horizontal,"(390.0, 762.0)",1.35,0.315,1,4291.319,2
0,755,target,"[(1037, 776)]",[],[1],[0.6],vertical,"(890.0, 762.0)",0.55,0.559,1,4296.493,2
0,756,target,"[(1050, 785)]",[],[1],[0.45],horizontal,"(890.0, 762.0)",1.1833333333333333,0.413,1,4301.631,2
0,757,target,"[(1040, 798)]",[],[1],[0.5833333333333334],horizontal,"(890.0, 262.0)",1.0833333333333333,0.542,1,4307.218,2
0,758,target,"[(1037, 773)]",[],[1],[0.36666666666666664],vertical,"(890.0, 762.0)",1.4333333333333333,0.324,1,4312.569,3
0,759,target,"[(1033, 787)]",[],[1],[0.65],horizontal,"(390.0, 762.0)",0.8333333333333334,0.608,1,4318.38,3
0,760,target,"[(1033, 782)]",[],[1],[0.5],vertical,"(890.0, 762.0)",1.0666666666666667,0.467,1,4323.685,3
0,761,target,"[(1037, 785)]",[],[1],[0.5333333333333333],vertical,"(890.0, 762.0)",1.35,0.493,1,4329.385,3
0,762,target,"[(1029, 794)]",[],[1],[0.2833333333333333],horizontal,"(890.0, 262.0)",1.5166666666666666,0.241,1,4335.651,3
0,763,target,"[(1041, 791)]",[],[1],[0.5166666666666666],horizontal,"(890.0, 762.0)",0.95,0.473,1,4341.369,3
0,764,catch,"[(1040, 792)]",[],[1],[],vertical,"(390.0, 762.0)",1.6,nan,1,4346.518,3
0,765,target,"[(1029, 791)]",[],[1],[0.5666666666666667],vertical,"(390.0, 762.0)",0.8,0.531,1,4352.019,3
0,766,target,"[(1037, 808)]",[],[1],[0.23333333333333334],horizontal,"(890.0, 262.0)",1.5833333333333333,0.198,0,4357.779,0
0,767,catch,"[(1029, 796)]",[],[1],[0.03333333333333333],horizontal,"(390.0, 762.0)",1.6,"0.019,nan",0,4362.683,0
0,768,target,"[(1025, 790)]",[],[1],[0.55],horizontal,"(890.0, 262.0)",1.0,0.505,1,4367.094,1
0,769,catch,"[(1018, 782)]",[],[1],[],vertical,"(390.0, 262.0)",,"('cti', 1.546),nan",0,4371.886,0
0,770,target,"[(1007, 796)]",[],[1],[0.7166666666666667],vertical,"(390.0, 762.0)",1.05,0.666,1,4377.143,1
0,771,target,"[(1049, 795)]",[],[1],[0.6333333333333333],vertical,"(890.0, 262.0)",1.2833333333333332,0.584,1,4381.883,1
0,772,target,"[(1048, 785)]",[],[1],[0.8166666666666667],horizontal,"(390.0, 262.0)",0.7666666666666666,0.764,1,4386.847,2
0,773,target,"[(1041, 795)]",[],[1],[0.85],horizontal,"(390.0, 762.0)",0.5166666666666666,nan,0,4391.753,0
0,774,target,"[(1013, 785)]",[],[1],[0.5833333333333334],horizontal,"(890.0, 762.0)",0.9,0.544,1,4396.334,1
0,775,target,"[(1057, 787)]",[],[1],[0.85],horizontal,"(390.0, 262.0)",0.6,nan,0,4400.837,0
0,776,target,"[(1001, 781), (1037, 795)]",[],"[0, 1]",[0.5333333333333333],horizontal,"(390.0, 762.0)",1.0166666666666666,0.491,1,4405.187,1
0,777,target,"[(1033, 799)]",[],[1],[0.5333333333333333],horizontal,"(890.0, 762.0)",1.0833333333333333,0.495,1,4411.584,1
0,778,target,"[(1033, 786)]",[],[1],[0.31666666666666665],vertical,"(390.0, 262.0)",1.5166666666666666,0.276,1,4416.562,2
0,779,target,"[(1055, 801)]",[],[1],[0.65],horizontal,"(890.0, 762.0)",1.1833333333333333,0.61,1,4421.76,2
0,780,target,"[(1040, 785)]",[],[1],[0.45],vertical,"(390.0, 762.0)",1.3,0.405,1,4427.109,2
0,781,target,"[(1033, 785)]",[],[1],[0.85],horizontal,"(390.0, 762.0)",0.6166666666666667,nan,0,4432.518,0
0,782,catch,"[(1024, 799)]",[],[1],[],horizontal,"(890.0, 762.0)",1.6,nan,1,4436.871,1
0,783,target,"[(1035, 791)]",[],[1],[0.6],horizontal,"(890.0, 262.0)",0.5166666666666666,0.555,1,4442.187,1
0,784,target,"[(1021, 776)]",[],[1],[0.85],vertical,"(390.0, 262.0)",0.5666666666666667,nan,0,4446.705,0
0,785,target,"[(1021, 799)]",[],[1],[0.85],horizontal,"(390.0, 262.0)",0.6666666666666666,nan,0,4451.205,0
0,786,target,"[(994, 791), (1043, 790)]",[],"[0, 1]",[0.4666666666666667],vertical,"(890.0, 762.0)",1.3833333333333333,0.42,1,4455.728,1
0,787,target,"[(1021, 784)]",[],[1],[0.31666666666666665],horizontal,"(890.0, 262.0)",1.1166666666666667,0.279,1,4461.682,1
0,788,target,"[(1043, 776)]",[],[1],[0.13333333333333333],vertical,"(390.0, 262.0)",1.5166666666666666,0.1,0,4466.852,0
0,789,target,"[(1037, 796)]",[],[1],[0.6],horizontal,"(390.0, 262.0)",1.0166666666666666,0.551,1,4471.55,1
0,790,catch,"[(1038, 804)]",[],[1],[],horizontal,"(390.0, 762.0)",1.6,nan,1,4478.251,1
0,791,catch,"[(1022, 802)]",[],[1],[],vertical,"(890.0, 762.0)",,"('cti', 1.466),nan",0,4482.881,0
0,792,target,"[(1044, 792)]",[],[1],[0.4666666666666667],horizontal,"(390.0, 762.0)",1.1833333333333333,0.421,1,4487.759,1
0,793,target,"[(1039, 781)]",[],[1],[0.13333333333333333],vertical,"(390.0, 262.0)",1.4,0.102,0,4492.485,0
0,794,target,"[(1046, 795)]",[],[1],[0.85],horizontal,"(890.0, 262.0)",0.6166666666666667,nan,0,4497.253,0
0,795,catch,"[(1020, 810)]",[],[1],[],horizontal,"(390.0, 762.0)",1.6,nan,1,4501.871,1
0,796,target,"[(1037, 787)]",[],[1],[0.55],vertical,"(390.0, 762.0)",0.7333333333333333,0.51,1,4506.708,1
0,797,target,"[(1033, 805)]",[],[1],[0.55],vertical,"(890.0, 762.0)",0.7833333333333333,0.506,1,4511.408,2
0,798,catch,"[(1052, 796)]",[],[1],[],horizontal,"(890.0, 762.0)",,"('cti', 1.295),nan",0,4516.651,0
0,799,target,"[(1039, 806)]",[],[1],[0.65],horizontal,"(890.0, 762.0)",0.7833333333333333,0.603,1,4520.568,1
0,800,target,"[(1040, 772)]",[],[1],[0.5166666666666666],horizontal,"(890.0, 762.0)",0.7666666666666666,0.475,1,4525.378,1
0,801,catch,"[(1013, 805)]",[],[1],[],horizontal,"(390.0, 762.0)",,"('cti', 1.389),nan",0,4530.09,0
0,802,target,"[(1015, 814)]",[],[1],[0.5666666666666667],horizontal,"(390.0, 262.0)",0.7,0.522,1,4534.372,1
0,803,target,"[(1033, 803)]",[],[1],[0.4666666666666667],horizontal,"(890.0, 262.0)",1.2666666666666666,0.429,1,4545.717,1
0,804,target,"[(1021, 793)]",[],[1],[0.8333333333333334],vertical,"(890.0, 762.0)",0.8166666666666667,0.783,1,4551.044,2
0,805,target,"[(1037, 825)]",[],[1],[0.31666666666666665],horizontal,"(890.0, 262.0)",1.3666666666666667,0.28,1,4556.653,2
0,806,target,"[(1033, 793)]",[],[1],[0.2],horizontal,"(890.0, 762.0)",1.5,0.166,0,4562.286,0
0,807,target,"[(1005, 791)]",[],[1],[0.5],vertical,"(390.0, 262.0)",0.7666666666666666,0.46,1,4566.915,1
0,808,catch,"[(1030, 780)]",[],[1],[],vertical,"(890.0, 262.0)",1.6,nan,1,4571.403,1
0,809,catch,"[(1040, 766)]",[],[1],[],horizontal,"(890.0, 762.0)",1.6,"('cti', 1.589),nan",0,4576.0,0
0,810,target,"[(1033, 805)]",[],[1],[0.6166666666666667],vertical,"(890.0, 762.0)",1.3,0.568,1,4580.67,1
0,811,target,"[(1017, 823)]",[],[1],[0.5333333333333333],horizontal,"(890.0, 262.0)",1.5666666666666667,0.493,1,5500.004,1
0,812,target,"[(1022, 804)]",[],[1],[0.5333333333333333],horizontal,"(390.0, 262.0)",0.9666666666666667,0.493,1,5505.141,2
0,813,target,"[(1035, 812)]",[],[1],[0.5833333333333334],horizontal,"(390.0, 262.0)",0.8666666666666667,0.551,1,5510.763,2
0,814,catch,"[(1035, 787)]",[],[1],[],horizontal,"(890.0, 762.0)",1.6,nan,1,5515.955,2
0,815,catch,"[(1050, 810)]",[],[1],[],horizontal,"(890.0, 262.0)",,"('cti', 1.154),nan",0,5520.922,0
0,816,target,"[(1051, 793)]",[],[1],[0.35],horizontal,"(890.0, 762.0)",1.55,0.314,1,5525.565,1
0,817,target,"[(1035, 799)]",[],[1],[0.4666666666666667],horizontal,"(390.0, 762.0)",1.2166666666666666,0.431,1,5530.978,1
0,818,catch,"[(1037, 787)]",[],[1],[],horizontal,"(390.0, 262.0)",,"('cti', 1.576),nan",0,5536.312,0
0,819,target,"[(1048, 798)]",[],[1],[0.6666666666666666],vertical,"(390.0, 262.0)",0.5833333333333334,0.629,1,5540.98,1
0,820,target,"[(1035, 788)]",[],[1],[0.85],vertical,"(890.0, 262.0)",0.8,nan,0,5545.572,0
0,821,target,"[(1028, 809)]",[],[1],[0.65],vertical,"(890.0, 762.0)",0.7666666666666666,0.608,1,5550.454,1
0,822,target,"[(1036, 784)]",[],[1],[0.48333333333333334],vertical,"(390.0, 762.0)",1.4333333333333333,0.437,1,5555.438,1
0,823,catch,"[(1028, 792)]",[],[1],[],vertical,"(390.0, 762.0)",1.6,nan,1,5560.372,2
0,824,target,"[(1052, 791)]",[],[1],[0.21666666666666667],horizontal,"(890.0, 262.0)",1.4166666666666667,0.183,0,5565.431,0
0,825,target,"[(976, 806), (1023, 800)]",[],"[0, 1]",[0.5],vertical,"(390.0, 262.0)",0.9666666666666667,0.461,1,5570.288,1
0,826,target,"[(1039, 780)]",[],[1],[0.45],vertical,"(890.0, 262.0)",1.2666666666666666,0.414,1,5576.566,1
0,827,target,"[(1053, 803)]",[],[1],[0.5333333333333333],vertical,"(390.0, 762.0)",1.4166666666666667,0.494,1,5581.489,2
0,828,target,"[(1037, 783)]",[],[1],[0.25],vertical,"(890.0, 762.0)",1.55,0.211,1,5586.889,2
0,829,target,"[(1014, 781)]",[],[1],[0.5166666666666666],horizontal,"(890.0, 262.0)",0.9666666666666667,0.475,1,5592.164,2
0,830,target,"[(1035, 781)]",[],[1],[0.13333333333333333],vertical,"(890.0, 262.0)",1.5666666666666667,0.102,0,5597.534,0
0,831,target,"[(1033, 781)]",[],[1],[0.35],horizontal,"(390.0, 762.0)",1.3166666666666667,0.315,1,5601.989,1
0,832,target,"[(1037, 780)]",[],[1],[0.6],vertical,"(390.0, 262.0)",0.8333333333333334,0.56,1,5607.145,1
0,833,target,"[(1033, 796)]",[],[1],[0.4],horizontal,"(890.0, 262.0)",1.1333333333333333,0.362,1,5611.655,2
0,834,target,"[(1015, 791)]",[],[1],[0.5333333333333333],horizontal,"(890.0, 262.0)",0.5666666666666667,0.49,1,5617.306,2
0,835,target,"[(1041, 786)]",[],[1],[0.6],vertical,"(890.0, 262.0)",1.0166666666666666,0.562,1,5623.439,2
0,836,target,"[(1017, 827)]",[],[1],[0.5166666666666666],vertical,"(890.0, 262.0)",1.0666666666666667,0.481,1,5628.488,2
0,837,target,"[(1019, 811)]",[],[1],[0.7666666666666666],horizontal,"(390.0, 762.0)",0.6,0.72,1,5636.128,3
0,838,target,"[(1030, 814)]",[],[1],[],vertical,"(890.0, 762.0)",,"('cti', 1.332)",0,5642.372,0
0,839,target,"[(1023, 809)]",[],[1],[0.55],vertical,"(390.0, 262.0)",1.2,0.513,1,5647.21,1
0,840,target,"[(1033, 772)]",[],[1],[0.85],vertical,"(890.0, 762.0)",0.6166666666666667,nan,0,5652.57,0
0,841,target,"[(1025, 795)]",[],[1],[0.6333333333333333],vertical,"(890.0, 262.0)",0.75,0.596,1,5656.715,1
0,842,target,"[(1032, 792)]",[],[1],[0.5833333333333334],vertical,"(390.0, 262.0)",0.8,0.543,1,5661.705,1
0,843,target,"[(1051, 799)]",[],[1],[0.26666666666666666],vertical,"(890.0, 762.0)",1.4166666666666667,0.227,1,5666.289,2
0,844,catch,"[(1052, 808)]",[],[1],[],horizontal,"(890.0, 762.0)",,"('cti', 1.53),nan",0,5671.422,0
0,845,target,"[(1035, 799)]",[],[1],[0.6833333333333333],horizontal,"(890.0, 762.0)",1.2,0.64,1,5676.093,1
0,846,target,"[(1044, 780)]",[],[1],[0.55],horizontal,"(390.0, 262.0)",0.9,0.511,1,5681.522,1
0,847,target,"[(1029, 807)]",[],[1],[0.36666666666666664],horizontal,"(890.0, 762.0)",1.15,0.327,1,5686.472,2
0,848,target,"[(1033, 810)]",[],[1],[0.45],vertical,"(390.0, 262.0)",1.1333333333333333,0.409,1,5691.823,2
0,849,target,"[(1035, 777)]",[],[1],[0.15],vertical,"(890.0, 262.0)",1.5166666666666666,0.117,0,5696.917,0
0,850,target,"[(1053, 790)]",[],[1],[0.26666666666666666],horizontal,"(390.0, 762.0)",1.25,0.232,1,5701.422,1
0,851,target,"[(1047, 807)]",[],[1],[0.6],horizontal,"(390.0, 762.0)",0.6666666666666666,0.558,1,5706.172,1
0,852,target,"[(1049, 790)]",[],[1],[0.55],horizontal,"(390.0, 262.0)",1.0833333333333333,0.515,1,5710.424,2
0,853,catch,"[(1042, 780)]",[],[1],[],vertical,"(890.0, 262.0)",1.6,nan,1,5715.756,2
0,854,catch,"[(1035, 810)]",[],[1],[],vertical,"(390.0, 762.0)",1.6,nan,1,5720.972,2
0,855,target,"[(1033, 789)]",[],[1],[0.31666666666666665],vertical,"(890.0, 262.0)",1.2833333333333332,0.279,1,5726.173,2
0,856,target,"[(1051, 785)]",[],[1],[0.6],vertical,"(890.0, 262.0)",0.75,0.569,1,5731.575,3
0,857,target,"[(1036, 770)]",[],[1],[0.85],horizontal,"(890.0, 762.0)",0.5666666666666667,nan,0,5736.988,0
0,858,target,"[(1040, 792)]",[],[1],[0.85],horizontal,"(890.0, 762.0)",0.7666666666666666,nan,0,5741.328,0
0,859,target,"[(1032, 804)]",[],[1],[0.5333333333333333],vertical,"(890.0, 762.0)",0.95,0.499,1,5745.528,1
0,860,target,"[(1033, 801)]",[],[1],[0.5833333333333334],vertical,"(890.0, 262.0)",0.7166666666666667,0.547,1,5750.447,1
0,861,catch,"[(1038, 812)]",[],[1],[],vertical,"(890.0, 262.0)",1.6,nan,1,5755.088,2
0,862,target,"[(1046, 805)]",[],[1],[0.43333333333333335],vertical,"(390.0, 762.0)",1.15,0.394,1,5760.197,2
0,863,target,"[(1053, 785)]",[],[1],[0.55],horizontal,"(390.0, 762.0)",1.0,0.508,1,5765.802,2
0,864,target,"[(1033, 780)]",[],[1],[0.48333333333333334],vertical,"(390.0, 262.0)",0.6166666666666667,0.449,1,5771.089,2
0,865,target,"[(1034, 777)]",[],[1],[0.31666666666666665],horizontal,"(390.0, 262.0)",1.35,0.28,1,5775.799,3
0,866,target,"[(1040, 780)]",[],[1],[0.2833333333333333],vertical,"(390.0, 262.0)",1.35,0.247,1,5781.216,3
0,867,target,"[(1045, 780)]",[],[1],[0.8166666666666667],horizontal,"(890.0, 262.0)",0.6,0.782,1,5786.772,3
0,868,target,"[(1044, 790)]",[],[1],[0.7166666666666667],vertical,"(890.0, 262.0)",0.9333333333333333,0.689,1,5792.156,3
0,869,target,"[(1044, 803)]",[],[1],[0.5166666666666666],horizontal,"(890.0, 262.0)",1.2,0.484,1,5797.688,3
0,870,target,"[(1043, 795)]",[],[1],[0.6166666666666667],vertical,"(390.0, 762.0)",1.0166666666666666,0.584,1,5803.357,3
0,871,target,"[(1033, 790)]",[],[1],[0.5333333333333333],horizontal,"(390.0, 262.0)",0.8333333333333334,0.492,1,5808.839,3
0,872,target,"[(1040, 765)]",[],[1],[0.6833333333333333],horizontal,"(890.0, 762.0)",0.9666666666666667,0.651,1,5814.557,3
0,873,target,"[(1030, 812)]",[],[1],[0.85],vertical,"(890.0, 262.0)",0.55,nan,0,5819.976,0
0,874,target,"[(1021, 795)]",[],[1],[0.3],horizontal,"(890.0, 762.0)",1.4666666666666666,0.268,1,5826.573,1
0,875,catch,"[(1023, 794)]",[],[1],[],horizontal,"(890.0, 262.0)",1.6,nan,1,5831.246,1
0,876,target,"[(1025, 807)]",[],[1],[0.85],vertical,"(390.0, 762.0)",0.7,nan,0,5836.435,0
0,877,target,"[(997, 785), (1049, 801)]",[],"[0, 1]",[0.65],horizontal,"(890.0, 262.0)",0.7333333333333333,0.604,1,5841.029,1
0,878,target,"[(1033, 785)]",[],[1],[0.7166666666666667],horizontal,"(390.0, 262.0)",0.6,0.671,1,5846.982,1
0,879,catch,"[(1049, 785)]",[],[1],[0.03333333333333333],horizontal,"(890.0, 262.0)",1.6,"0.018,nan",0,5851.409,0
0,880,target,"[(1047, 795)]",[],[1],[0.6],horizontal,"(890.0, 762.0)",1.0,0.562,1,5855.999,1
0,881,target,"[(1045, 777)]",[],[1],[0.6166666666666667],horizontal,"(890.0, 262.0)",0.9166666666666666,0.574,1,5860.784,1
0,882,target,"[(1033, 780)]",[],[1],[0.5833333333333334],vertical,"(390.0, 262.0)",1.1,0.543,1,5865.669,2
0,883,target,"[(1038, 781)]",[],[1],[0.85],vertical,"(390.0, 262.0)",0.8,nan,0,5870.809,0
0,884,target,"[(1039, 775)]",[],[1],[0.3833333333333333],vertical,"(890.0, 762.0)",1.5166666666666666,0.342,1,5875.305,1
0,885,target,"[(1032, 788)]",[],[1],[0.5833333333333334],horizontal,"(890.0, 762.0)",0.7333333333333333,0.538,1,5880.619,1
0,886,target,"[(1035, 785)]",[],[1],[0.85],horizontal,"(390.0, 262.0)",0.7666666666666666,nan,0,5885.114,0
0,887,catch,"[(1023, 786)]",[],[1],[],vertical,"(390.0, 262.0)",1.6,nan,1,5889.601,1
0,888,target,"[(1034, 786)]",[],[1],[0.3333333333333333],horizontal,"(890.0, 262.0)",1.2833333333333332,0.299,1,5894.388,1
0,889,target,"[(1049, 793)]",[],[1],[0.26666666666666666],vertical,"(890.0, 262.0)",1.4166666666666667,0.23,1,5899.654,2
0,890,target,"[(1029, 786)]",[],[1],[0.25],horizontal,"(890.0, 262.0)",1.5166666666666666,0.214,1,5904.711,2
0,891,target,"[(1047, 782)]",[],[1],[0.36666666666666664],vertical,"(390.0, 762.0)",1.3666666666666667,0.33,1,5909.991,2
0,892,target,"[(1032, 800)]",[],[1],[0.5166666666666666],vertical,"(390.0, 762.0)",0.85,0.476,1,5915.639,2
0,893,target,"[(1035, 792)]",[],[1],[0.5333333333333333],vertical,"(890.0, 762.0)",0.7166666666666667,0.49,1,5921.054,3
0,894,target,"[(1029, 784)]",[],[1],[0.5333333333333333],horizontal,"(890.0, 762.0)",0.85,0.492,1,5926.305,3
0,895,target,"[(1028, 781)]",[],[1],[0.7],vertical,"(390.0, 262.0)",1.0166666666666666,0.657,1,5931.789,3
0,896,target,"[(1049, 789)]",[],[1],[0.5166666666666666],horizontal,"(390.0, 262.0)",0.55,0.479,1,5937.806,3
0,897,target,"[(1032, 781)]",[],[1],[0.3833333333333333],vertical,"(890.0, 762.0)",1.2833333333333332,0.347,1,5943.371,3
0,898,target,"[(1048, 799)]",[],[1],[0.31666666666666665],horizontal,"(890.0, 262.0)",1.4166666666666667,0.285,1,5949.355,3
0,899,catch,"[(1049, 815)]",[],[1],[],vertical,"(390.0, 762.0)",1.6,nan,1,5954.9,3
0,900,catch,"[(1031, 799)]",[],[1],[],vertical,"(390.0, 262.0)",1.6,nan,1,5960.627,3
0,901,target,"[(1045, 807)]",[],[1],[0.8],vertical,"(890.0, 262.0)",1.0833333333333333,0.755,1,5966.416,3
0,902,target,"[(1048, 790)]",[],[1],[0.43333333333333335],vertical,"(390.0, 262.0)",1.4166666666666667,0.395,1,5972.124,3
0,903,target,"[(1050, 778)]",[],[1],[0.31666666666666665],horizontal,"(890.0, 762.0)",1.2666666666666666,0.278,1,5977.791,3
0,904,target,"[(1052, 790)]",[],[1],[0.6333333333333333],horizontal,"(890.0, 262.0)",0.8333333333333334,0.592,1,5983.819,3
0,905,target,"[(1034, 809)]",[],[1],[0.6],horizontal,"(390.0, 762.0)",0.65,0.557,1,5989.456,3
0,906,target,"[(1021, 810)]",[],[1],[0.5166666666666666],vertical,"(390.0, 262.0)",0.5166666666666666,0.476,1,5994.69,3
0,907,target,"[(1037, 806)]",[],[1],[0.05],vertical,"(390.0, 262.0)",1.4666666666666666,0.02,0,6000.442,0
0,908,target,"[(1042, 789)]",[],[1],[0.2],horizontal,"(390.0, 762.0)",1.4166666666666667,0.168,0,6005.09,0
0,909,target,"[(1047, 775)]",[],[1],[0.55],horizontal,"(390.0, 262.0)",1.3333333333333333,0.519,1,6009.625,1
0,910,target,"[(1033, 772)]",[],[1],[0.08333333333333333],vertical,"(390.0, 762.0)",1.5666666666666667,0.053,0,6014.771,0
0,911,target,"[(1065, 775)]",[],[1],[0.55],horizontal,"(390.0, 262.0)",0.95,0.512,1,6019.389,1
0,912,target,"[(1058, 790)]",[],[1],[0.5],horizontal,"(390.0, 262.0)",1.25,0.461,1,6024.278,1
0,913,target,"[(1033, 793)]",[],[1],[],vertical,"(390.0, 262.0)",,"('cti', 1.025)",0,6029.079,0
0,914,target,"[(1040, 786)]",[],[1],[0.15],vertical,"(890.0, 762.0)",1.4,0.117,0,6033.423,0
0,915,target,"[(1058, 802)]",[],[1],[0.13333333333333333],vertical,"(890.0, 262.0)",1.4666666666666666,0.1,0,6038.373,0
0,916,target,"[(1045, 833)]",[],[1],[0.43333333333333335],vertical,"(890.0, 262.0)",1.35,0.395,1,6043.157,1
0,917,target,"[(1052, 799)]",[],[1],[0.43333333333333335],horizontal,"(390.0, 762.0)",1.1833333333333333,0.391,1,6052.123,1
0,918,target,"[(1055, 809)]",[],[1],[0.85],horizontal,"(390.0, 762.0)",0.6666666666666666,nan,0,6056.832,0
0,919,target,"[(1048, 809)]",[],[1],[0.26666666666666666],horizontal,"(890.0, 762.0)",1.4333333333333333,0.229,1,6061.339,1
0,920,target,"[(1030, 790)]",[],[1],[0.6333333333333333],vertical,"(390.0, 262.0)",0.8666666666666667,0.588,1,6066.213,1
0,921,target,"[(1046, 794)]",[],[1],[0.5333333333333333],vertical,"(890.0, 762.0)",0.9333333333333333,0.489,1,6070.772,2
0,922,target,"[(1033, 804)]",[],[1],[0.5666666666666667],vertical,"(890.0, 762.0)",0.9666666666666667,0.526,1,6075.857,2
0,923,target,"[(1036, 799)]",[],[1],[0.6833333333333333],horizontal,"(390.0, 262.0)",0.55,0.634,1,6080.904,2
0,924,target,"[(1036, 804)]",[],[1],[0.85],horizontal,"(890.0, 762.0)",0.6,nan,0,6086.207,0
0,925,target,"[(1017, 805)]",[],[1],[0.36666666666666664],horizontal,"(890.0, 762.0)",1.4,0.335,1,6090.557,1
0,926,target,"[(1043, 785)]",[],[1],[0.7],horizontal,"(390.0, 762.0)",0.8,0.651,1,6095.689,1
