block,trial,trial_type,taps_start_loc_during_fix,taps_end_loc_during_fix,taps_on_lever_during_fix,taps_on_lever_s_during_fix,bar_orientation,target_xy,cti,rt,acc,time,pulses,fa_rate_recent100,actual_invalid_type
0,1,catch,"[(1147, 821)]",[],[1],[],horizontal,"(390.0, 762.0)",1.7,nan,1,0.504,1,0.0,same
0,2,invalid_adjacent_other_bar,"[(1100, 816)]",[],[1],[0.5666666666666667],horizontal,"(390.0, 262.0)",1.45,0.523,1,10.446,1,0.0,other
0,3,valid,"[(1140, 776)]",[],[1],[0.85],vertical,"(390.0, 262.0)",0.4,nan,0,284.049,0,0.0,same
0,4,valid,"[(1071, 804)]",[],[1],[0.5666666666666667],horizontal,"(390.0, 262.0)",1.1833333333333333,0.522,1,288.679,1,0.0,same
0,5,catch,"[(1164, 772)]",[],[1],[],vertical,"(890.0, 762.0)",1.7,nan,1,295.494,1,0.0,same
0,6,valid,"[(1159, 768)]",[],[1],[0.6],horizontal,"(890.0, 762.0)",0.8166666666666667,0.558,1,300.4,1,0.0,same
0,7,catch,"[(1178, 797)]",[],[1],[],horizontal,"(390.0, 762.0)",1.7,nan,1,305.228,2,0.0,same
0,8,valid,"[(1161, 792)]",[],[1],[0.7],vertical,"(390.0, 762.0)",0.35,0.652,1,310.739,2,0.0,same
0,9,invalid_same_bar,"[(1165, 794)]",[],[1],[0.6666666666666666],horizontal,"(890.0, 762.0)",0.9833333333333333,0.62,1,315.192,2,0.0,same
0,10,invalid_same_bar,"[(1145, 762)]",[],[1],[0.8166666666666667],horizontal,"(890.0, 762.0)",0.55,0.768,1,320.845,3,0.0,same
0,11,catch,"[(1140, 773)]",[],[1],[],vertical,"(890.0, 262.0)",1.7,nan,1,326.996,3,0.0,same
0,12,valid,"[(1143, 775)]",[],[1],[0.5166666666666666],horizontal,"(890.0, 262.0)",1.3833333333333333,0.473,1,332.9,3,0.0,same
0,13,catch,"[(1163, 798)]",[],[1],[],vertical,"(890.0, 762.0)",1.7,nan,1,338.877,3,0.0,same
0,14,catch,"[(1143, 792)]",[],[1],[],vertical,"(390.0, 762.0)",1.7,nan,1,344.628,3,0.0,same
0,15,catch,"[(1165, 764)]",[],[1],[],horizontal,"(890.0, 262.0)",1.7,nan,1,350.458,3,0.0,same
0,16,valid,"[(1165, 778)]",[],[1],[0.5],horizontal,"(390.0, 762.0)",0.75,0.461,1,356.663,3,0.0,same
0,17,valid,"[(1163, 775)]",[],[1],[0.85],horizontal,"(390.0, 762.0)",0.3833333333333333,nan,0,362.261,0,0.0,same
0,18,valid,"[(1141, 777)]",[],[1],[0.5333333333333333],horizontal,"(890.0, 762.0)",0.85,0.498,1,366.012,1,0.0,same
0,19,valid,"[(1160, 778)]",[],[1],[0.55],vertical,"(890.0, 262.0)",0.8,0.504,1,370.882,1,0.0,same
0,20,valid,"[(1160, 772)]",[],[1],[0.5166666666666666],horizontal,"(390.0, 762.0)",0.43333333333333335,0.478,1,375.711,1,0.0,same
0,21,valid,"[(1160, 774)]",[],[1],[0.5333333333333333],vertical,"(390.0, 762.0)",0.95,0.489,1,380.296,2,0.0,same
0,22,valid,"[(1161, 777)]",[],[1],[0.6666666666666666],horizontal,"(890.0, 262.0)",1.3833333333333333,0.624,1,385.529,2,0.0,same
0,23,valid,"[(1163, 791)]",[],[1],[0.5666666666666667],vertical,"(390.0, 762.0)",0.7833333333333333,0.519,1,391.112,2,0.0,same
0,24,catch,"[(1159, 765)]",[],[1],[],vertical,"(390.0, 262.0)",1.7,nan,1,396.036,3,0.0,same
0,25,valid,"[(1137, 747), (1131, 796)]",[],"[0, 1]",[0.65],vertical,"(890.0, 762.0)",0.45,0.609,1,402.322,3,0.0,same
0,26,valid,"[(1105, 801)]",[],[1],[0.5166666666666666],vertical,"(890.0, 762.0)",1.2333333333333334,0.474,1,408.879,3,0.0,same
0,27,catch,"[(1135, 766)]",[],[1],[],horizontal,"(390.0, 762.0)",1.7,nan,1,414.657,3,0.0,same
0,28,valid,"[(1156, 791)]",[],[1],[0.85],vertical,"(890.0, 762.0)",0.4,nan,0,420.795,0,0.0,same
0,29,invalid_adjacent_other_bar,"[(1103, 766)]",[],[1],[0.65],vertical,"(890.0, 762.0)",0.5833333333333334,0.602,1,425.344,1,0.0,other
0,30,valid,"[(1150, 801)]",[],[1],[0.6333333333333333],horizontal,"(890.0, 762.0)",0.8666666666666667,0.585,1,430.148,1,0.0,same
0,31,valid,"[(1162, 788)]",[],[1],[0.55],horizontal,"(390.0, 762.0)",1.3333333333333333,0.509,1,435.418,1,0.0,same
0,32,catch,"[(1165, 765)]",[],[1],[],horizontal,"(890.0, 762.0)",1.7,nan,1,440.96,2,0.0,same
0,33,valid,"[(1161, 770)]",[],[1],[0.5333333333333333],vertical,"(890.0, 262.0)",1.5166666666666666,0.487,1,446.506,2,0.0,same
0,34,invalid_adjacent_other_bar,"[(1160, 776)]",[],[1],[0.5333333333333333],vertical,"(390.0, 762.0)",1.1666666666666667,0.495,1,452.255,2,0.0,other
0,35,catch,"[(1137, 774)]",[],[1],[],vertical,"(890.0, 262.0)",1.7,nan,1,457.687,3,0.0,same
0,36,invalid_same_bar,"[(1161, 776)]",[],[1],[0.5666666666666667],vertical,"(890.0, 762.0)",0.95,0.52,1,464.386,3,0.0,same
0,37,valid,"[(1158, 767)]",[],[1],[0.5166666666666666],horizontal,"(390.0, 762.0)",0.4166666666666667,0.472,1,470.362,3,0.0,same
0,38,valid,"[(1165, 776)]",[],[1],[0.48333333333333334],horizontal,"(390.0, 262.0)",0.55,0.444,1,475.614,3,0.0,same
0,39,valid,"[(1165, 760)]",[],[1],[0.5666666666666667],vertical,"(390.0, 762.0)",1.1833333333333333,0.524,1,481.001,3,0.0,same
0,40,catch,"[(1168, 791)]",[],[1],[],vertical,"(390.0, 262.0)",1.7,nan,1,486.937,3,0.0,same
0,41,valid,"[(1166, 773)]",[],[1],[0.5166666666666666],horizontal,"(390.0, 762.0)",1.1166666666666667,0.474,1,492.761,3,0.0,same
0,42,valid,"[(1165, 770)]",[],[1],[0.5833333333333334],horizontal,"(390.0, 762.0)",1.45,0.54,1,498.7,3,0.0,same
0,43,valid,"[(1135, 756)]",[],[1],[0.55],horizontal,"(890.0, 762.0)",0.8666666666666667,0.509,1,504.655,3,0.0,same
0,44,valid,"[(1143, 777)]",[],[1],[0.6],horizontal,"(890.0, 762.0)",0.4166666666666667,0.55,1,510.214,3,0.0,same
0,45,catch,"[(1160, 765)]",[],[1],[],horizontal,"(890.0, 262.0)",1.7,nan,1,515.278,3,0.0,same
0,46,valid,"[(1141, 772)]",[],[1],[0.85],horizontal,"(390.0, 762.0)",0.9166666666666666,nan,0,521.161,0,0.0,same
0,47,invalid_same_bar,"[(1160, 800)]",[],[1],[0.6666666666666666],horizontal,"(390.0, 762.0)",0.8666666666666667,0.621,1,525.778,1,0.0,same
0,48,valid,"[(1160, 782)]",[],[1],[0.4666666666666667],horizontal,"(390.0, 762.0)",0.75,0.423,1,530.628,1,0.0,same
0,49,valid,"[(1127, 823)]",[],[1],[0.6333333333333333],horizontal,"(390.0, 762.0)",1.15,0.595,1,535.322,1,0.0,same
0,50,catch,"[(1135, 791)]",[],[1],[],horizontal,"(890.0, 762.0)",1.7,nan,1,540.74,2,0.0,same
0,51,valid,"[(1160, 792)]",[],[1],[0.48333333333333334],vertical,"(890.0, 762.0)",0.9833333333333333,0.441,1,546.502,2,0.0,same
0,52,catch,"[(1175, 783)]",[],[1],[],vertical,"(390.0, 262.0)",1.7,nan,1,551.296,2,0.0,same
0,53,valid,"[(1140, 784)]",[],[1],[0.55],horizontal,"(390.0, 262.0)",0.5833333333333334,0.51,1,556.725,3,0.0,same
0,54,invalid_adjacent_other_bar,"[(1160, 793)]",[],[1],[0.48333333333333334],vertical,"(890.0, 262.0)",0.85,0.444,1,562.518,3,0.0,other
0,55,catch,"[(1180, 769)]",[],[1],[],vertical,"(890.0, 762.0)",1.7,nan,1,567.946,3,0.0,same
0,56,catch,"[(1135, 772)]",[],[1],[],horizontal,"(890.0, 762.0)",1.7,nan,1,573.579,3,0.0,same
0,57,catch,"[(1161, 775)]",[],[1],[],vertical,"(390.0, 762.0)",1.7,nan,1,580.114,3,0.0,same
0,58,catch,"[(1160, 773)]",[],[1],[],vertical,"(890.0, 262.0)",1.7,nan,1,585.963,3,0.0,same
0,59,valid,"[(1165, 772)]",[],[1],[0.6333333333333333],vertical,"(890.0, 262.0)",1.05,0.592,1,591.85,3,0.0,same
0,60,catch,"[(1165, 760)]",[],[1],[],vertical,"(390.0, 762.0)",1.7,nan,1,597.629,3,0.0,same
0,61,valid,"[(1156, 769)]",[],[1],[0.6166666666666667],horizontal,"(890.0, 762.0)",1.2,0.575,1,603.763,3,0.0,same
0,62,valid,"[(1160, 783)]",[],[1],[0.5],vertical,"(890.0, 762.0)",0.5166666666666666,0.458,1,609.712,3,0.0,same
0,63,catch,"[(1160, 779)]",[],[1],[],horizontal,"(890.0, 262.0)",1.7,nan,1,615.125,3,0.0,same
0,64,valid,"[(1137, 776)]",[],[1],[0.85],horizontal,"(390.0, 762.0)",0.4,nan,0,620.813,0,0.0,same
0,65,valid,"[(1138, 779)]",[],[1],[0.4666666666666667],horizontal,"(390.0, 262.0)",1.3666666666666667,0.43,1,625.246,1,0.0,same
0,66,catch,"[(1162, 785)]",[],[1],[],vertical,"(390.0, 762.0)",1.7,nan,1,630.817,1,0.0,same
0,67,invalid_adjacent_other_bar,"[(1150, 798)]",[],[1],[0.6],horizontal,"(890.0, 262.0)",0.5,0.554,1,635.917,1,0.0,other
0,68,valid,"[(1168, 788)]",[],[1],[0.5166666666666666],horizontal,"(390.0, 762.0)",0.4666666666666667,0.474,1,640.495,2,0.0,same
0,69,valid,"[(1165, 778)]",[],[1],[0.5],vertical,"(390.0, 762.0)",1.5,0.462,1,645.174,2,0.0,same
0,70,valid,"[(1161, 795)]",[],[1],[0.5],horizontal,"(390.0, 762.0)",0.55,0.458,1,650.895,2,0.0,same
0,71,invalid_same_bar,"[(1135, 786)]",[],[1],[0.5],horizontal,"(390.0, 762.0)",0.9,0.458,1,655.712,3,0.0,same
0,72,valid,"[(1172, 771)]",[],[1],[0.5166666666666666],horizontal,"(390.0, 262.0)",0.36666666666666664,0.473,1,661.412,3,0.0,same
0,73,invalid_adjacent_other_bar,"[(1165, 776)]",[],[1],[0.5333333333333333],horizontal,"(890.0, 762.0)",1.15,0.491,1,666.613,3,0.0,other
0,74,valid,"[(1160, 776)]",[],[1],[0.85],vertical,"(890.0, 262.0)",1.0833333333333333,nan,0,672.545,0,0.0,same
0,75,valid,"[(1137, 805)]",[],[1],[0.85],vertical,"(890.0, 762.0)",0.35,nan,0,677.346,0,0.0,same
0,76,valid,"[(1138, 799)]",[],[1],[0.4666666666666667],vertical,"(890.0, 262.0)",0.45,0.428,1,681.813,1,0.0,same
0,77,catch,"[(1135, 791)]",[],[1],[],horizontal,"(890.0, 762.0)",1.7,nan,1,686.165,1,0.0,same
0,78,invalid_same_bar,"[(1160, 791)]",[],[1],[0.6166666666666667],horizontal,"(890.0, 762.0)",0.5166666666666666,0.571,1,691.596,1,0.0,same
0,79,catch,"[(1140, 772)]",[],[1],[],vertical,"(390.0, 262.0)",1.7,nan,1,696.047,2,0.0,same
0,80,valid,"[(1137, 776)]",[],[1],[0.6],horizontal,"(890.0, 762.0)",0.9,0.563,1,701.996,2,0.0,same
0,81,valid,"[(1133, 791)]",[],[1],[0.6166666666666667],horizontal,"(890.0, 262.0)",0.8333333333333334,0.583,1,707.312,2,0.0,same
0,82,valid,"[(1135, 780)]",[],[1],[0.5333333333333333],horizontal,"(390.0, 762.0)",1.3,0.495,1,712.661,3,0.0,same
0,83,catch,"[(1150, 772)]",[],[1],[],vertical,"(890.0, 762.0)",1.7,nan,1,719.063,3,0.0,same
0,84,valid,"[(1130, 766)]",[],[1],[0.5],vertical,"(890.0, 262.0)",0.5333333333333333,0.461,1,725.22,3,0.0,same
0,85,valid,"[(1165, 767)]",[],[1],[0.6666666666666666],horizontal,"(890.0, 762.0)",1.15,0.624,1,730.229,3,0.0,same
0,86,valid,"[(1164, 753), (1111, 824)]",[],"[0, 1]",[0.5333333333333333],horizontal,"(390.0, 762.0)",1.4333333333333333,0.497,1,736.052,3,0.0,same
0,87,valid,"[(1162, 782)]",[],[1],[0.5833333333333334],horizontal,"(890.0, 262.0)",0.85,0.551,1,743.396,3,0.0,same
0,88,invalid_same_bar,"[(1160, 767)]",[],[1],[],horizontal,"(390.0, 762.0)",,"('cti', 1.036)",0,749.162,0,0.0,same
0,89,valid,"[(1133, 822)]",[],[1],[0.5333333333333333],horizontal,"(890.0, 262.0)",1.3,0.495,1,753.345,1,0.0,same
0,90,invalid_same_bar,"[(1140, 773)]",[],[1],[0.85],horizontal,"(390.0, 762.0)",0.8,nan,0,767.311,0,0.0,same
0,91,valid,"[(1160, 768)]",[],[1],[0.48333333333333334],horizontal,"(390.0, 762.0)",1.2333333333333334,0.442,1,771.529,1,0.0,same
0,92,valid,"[(1115, 785)]",[],[1],[0.5333333333333333],vertical,"(390.0, 262.0)",0.7833333333333333,0.491,1,776.879,1,0.0,same
0,93,valid,"[(1170, 792)]",[],[1],[0.4666666666666667],vertical,"(890.0, 262.0)",0.7666666666666666,0.426,1,781.476,1,0.0,same
0,94,valid,"[(1187, 784)]",[],[1],[0.5666666666666667],vertical,"(390.0, 262.0)",0.7166666666666667,0.523,1,785.812,2,0.0,same
0,95,catch,"[(1140, 800)]",[],[1],[],horizontal,"(390.0, 262.0)",1.7,nan,1,791.362,2,0.0,same
0,96,valid,"[(1165, 773)]",[],[1],[0.5166666666666666],horizontal,"(890.0, 762.0)",1.25,0.48,1,796.646,2,0.0,same
0,97,valid,"[(1155, 772)]",[],[1],[0.85],vertical,"(890.0, 762.0)",1.1,nan,0,802.243,0,0.0,same
0,98,valid,"[(1155, 791)]",[],[1],[0.5333333333333333],vertical,"(890.0, 262.0)",0.6666666666666666,0.494,1,807.514,1,0.0,same
0,99,valid,"[(1165, 772)]",[],[1],[0.45],vertical,"(390.0, 262.0)",1.2333333333333334,0.408,1,812.363,1,0.0,same
0,100,valid,"[(1164, 788)]",[],[1],[0.4666666666666667],vertical,"(890.0, 762.0)",1.35,0.428,1,817.75,1,0.0,same
0,101,valid,"[(1165, 785)]",[],[1],[0.55],horizontal,"(390.0, 262.0)",1.1833333333333333,0.505,1,822.761,2,0.0,same
0,102,invalid_same_bar,"[(1179, 779)]",[],[1],[0.5],horizontal,"(890.0, 262.0)",0.7333333333333333,0.457,1,828.65,2,0.0,same
0,103,valid,"[(1178, 781)]",[],[1],[0.48333333333333334],horizontal,"(890.0, 262.0)",0.7,0.443,1,833.763,2,0.0,same
0,104,valid,"[(1131, 824)]",[],[1],[0.85],horizontal,"(390.0, 262.0)",1.4166666666666667,nan,0,838.811,0,0.0,same
0,105,invalid_same_bar,"[(1124, 781)]",[],[1],[0.65],horizontal,"(890.0, 262.0)",1.1166666666666667,0.608,1,844.496,1,0.0,same
0,106,catch,"[(1150, 796)]",[],[1],[],horizontal,"(390.0, 762.0)",1.7,nan,1,849.653,1,0.0,same
0,107,valid,"[(1166, 777)]",[],[1],[0.7],horizontal,"(890.0, 762.0)",0.7,0.654,1,854.963,1,0.0,same
0,108,valid,"[(1161, 753), (1115, 780)]",[],"[0, 1]",[0.5],horizontal,"(390.0, 762.0)",1.5333333333333332,0.462,1,860.046,2,0.0,same
0,109,invalid_adjacent_other_bar,"[(1162, 766)]",[],[1],[0.85],horizontal,"(390.0, 762.0)",1.1,nan,0,867.346,0,0.0,other
0,110,valid,"[(1161, 791)]",[],[1],[0.6333333333333333],vertical,"(890.0, 262.0)",1.4333333333333333,0.6,1,872.363,1,0.0,same
0,111,valid,"[(1160, 782)]",[],[1],[0.5166666666666666],vertical,"(890.0, 762.0)",1.5166666666666666,0.475,1,877.996,1,0.0,same
0,112,valid,"[(1160, 780)]",[],[1],[0.5333333333333333],horizontal,"(890.0, 762.0)",1.2,0.489,1,883.033,1,0.0,same
0,113,valid,"[(1135, 787)]",[],[1],[0.5],vertical,"(390.0, 762.0)",1.1,0.461,1,888.495,2,0.0,same
0,114,valid,"[(1138, 771)]",[],[1],[0.5],horizontal,"(390.0, 262.0)",0.36666666666666664,0.461,1,893.997,2,0.0,same
0,115,catch,"[(1114, 825)]",[],[1],[],horizontal,"(890.0, 762.0)",1.7,nan,1,898.78,2,0.0,same
0,116,valid,"[(1135, 787)]",[],[1],[0.5166666666666666],vertical,"(390.0, 762.0)",1.4333333333333333,0.478,1,904.713,3,0.0,same
0,117,valid,"[(1166, 785)]",[],[1],[0.85],horizontal,"(390.0, 262.0)",1.1666666666666667,nan,0,911.38,0,0.0,same
0,118,invalid_adjacent_other_bar,"[(1131, 776)]",[],[1],[0.85],vertical,"(890.0, 262.0)",0.5166666666666666,nan,0,916.059,0,0.0,other
0,119,catch,"[(1140, 769)]",[],[1],[],vertical,"(390.0, 762.0)",1.7,nan,1,920.714,1,0.0,same
0,120,valid,"[(1135, 782)]",[],[1],[0.5166666666666666],vertical,"(890.0, 762.0)",1.1833333333333333,0.473,1,926.13,1,0.0,same
0,121,valid,"[(1161, 772)]",[],[1],[0.6166666666666667],vertical,"(390.0, 262.0)",0.36666666666666664,0.584,1,931.263,1,0.0,same
0,122,catch,"[(1137, 761)]",[],[1],[],vertical,"(890.0, 762.0)",1.7,nan,1,935.68,2,0.0,same
0,123,valid,"[(1177, 776)]",[],[1],[0.5333333333333333],horizontal,"(890.0, 262.0)",1.2166666666666666,0.491,1,941.163,2,0.0,same
0,124,catch,"[(1156, 786)]",[],[1],[],vertical,"(390.0, 262.0)",1.7,nan,1,946.781,2,0.0,same
0,125,valid,"[(1155, 782)]",[],[1],[0.85],horizontal,"(390.0, 762.0)",1.2666666666666666,nan,0,952.763,0,0.0,same
0,126,valid,"[(1137, 782)]",[],[1],[0.6666666666666666],vertical,"(390.0, 762.0)",1.45,0.624,1,957.861,1,0.0,same
0,127,valid,"[(1160, 794)]",[],[1],[0.85],horizontal,"(390.0, 762.0)",1.2166666666666666,nan,0,963.38,0,0.0,same
0,128,catch,"[(1153, 765)]",[],[1],[],horizontal,"(390.0, 762.0)",1.7,nan,1,968.152,1,0.0,same
0,129,valid,"[(1178, 789)]",[],[1],[0.85],horizontal,"(390.0, 262.0)",1.1166666666666667,nan,0,973.338,0,0.0,same
0,130,valid,"[(1159, 778)]",[],[1],[0.6166666666666667],horizontal,"(390.0, 262.0)",1.5,0.576,1,978.566,1,0.0,same
0,131,valid,"[(1160, 801)]",[],[1],[0.5666666666666667],horizontal,"(390.0, 762.0)",0.5833333333333334,0.535,1,984.022,1,0.0,same
0,132,valid,"[(1160, 774)]",[],[1],[0.6],horizontal,"(890.0, 262.0)",1.4333333333333333,0.562,1,988.434,1,0.0,same
0,133,valid,"[(1144, 784)]",[],[1],[0.5],horizontal,"(390.0, 262.0)",0.5666666666666667,0.465,1,993.738,2,0.0,same
0,134,valid,"[(1135, 771)]",[],[1],[0.85],horizontal,"(890.0, 762.0)",0.85,nan,0,998.545,0,0.0,same
0,135,catch,"[(1125, 764)]",[],[1],[],horizontal,"(890.0, 762.0)",1.7,nan,1,1003.33,1,0.0,same
0,136,invalid_adjacent_other_bar,"[(1155, 776)]",[],[1],[0.5166666666666666],horizontal,"(390.0, 762.0)",0.7333333333333333,0.481,1,1008.606,1,0.0,other
0,137,catch,"[(1165, 784)]",[],[1],[],horizontal,"(890.0, 262.0)",1.7,nan,1,1013.678,1,0.0,same
0,138,catch,"[(1160, 779)]",[],[1],[],horizontal,"(890.0, 762.0)",1.7,nan,1,1018.803,2,0.0,same
0,139,valid,"[(1165, 777)]",[],[1],[0.5],vertical,"(390.0, 762.0)",0.7333333333333333,0.462,1,1024.711,2,0.0,same
0,140,valid,"[(1146, 805)]",[],[1],[0.55],vertical,"(890.0, 762.0)",0.9666666666666667,0.506,1,1029.742,2,0.0,same
0,141,valid,"[(1163, 784)]",[],[1],[0.5166666666666666],horizontal,"(390.0, 262.0)",1.1333333333333333,0.475,1,1035.029,3,0.0,same
0,142,valid,"[(1160, 777)]",[],[1],[0.85],horizontal,"(890.0, 762.0)",0.6166666666666667,nan,0,1040.707,0,0.0,same
0,143,catch,"[(1123, 800)]",[],[1],[],horizontal,"(390.0, 762.0)",1.7,nan,1,1044.72,1,0.0,same
0,144,valid,"[(1131, 775)]",[],[1],[0.85],horizontal,"(390.0, 762.0)",0.3833333333333333,nan,0,1050.334,0,0.0,same
0,145,valid,"[(1130, 783)]",[],[1],[0.6166666666666667],horizontal,"(890.0, 262.0)",1.0666666666666667,0.57,1,1054.648,1,0.0,same
0,146,catch,"[(1165, 786)]",[],[1],[],horizontal,"(890.0, 262.0)",1.7,nan,1,1060.03,1,0.0,same
0,147,catch,"[(1165, 799)]",[],[1],[],horizontal,"(890.0, 762.0)",1.7,nan,1,1065.21,1,0.0,same
0,148,valid,"[(1139, 790)]",[],[1],[0.48333333333333334],vertical,"(890.0, 262.0)",1.0166666666666666,0.445,1,1070.162,2,0.0,same
0,149,valid,"[(1162, 816)]",[],[1],[0.55],horizontal,"(390.0, 762.0)",1.1666666666666667,0.511,1,1075.277,2,0.0,same
0,150,valid,"[(1164, 816)]",[],[1],[0.5],vertical,"(390.0, 762.0)",1.4666666666666666,0.46,1,1080.8,2,0.0,same
0,151,valid,"[(1166, 786)]",[],[1],[0.5166666666666666],horizontal,"(390.0, 262.0)",1.1833333333333333,0.484,1,1086.777,3,0.0,same
0,152,invalid_adjacent_other_bar,"[(1138, 776)]",[],[1],[0.5],vertical,"(390.0, 262.0)",0.7666666666666666,0.464,1,1092.726,3,0.0,other
0,153,valid,"[(1160, 767)]",[],[1],[0.4666666666666667],vertical,"(390.0, 262.0)",0.8,0.426,1,1098.508,3,0.0,same
0,154,valid,"[(1165, 780)]",[],[1],[0.5333333333333333],horizontal,"(390.0, 762.0)",1.1333333333333333,0.492,1,1103.839,3,0.0,same
0,155,catch,"[(1165, 782)]",[],[1],[],vertical,"(390.0, 762.0)",1.7,nan,1,1109.68,3,0.0,same
0,156,valid,"[(1145, 786)]",[],[1],[0.75],horizontal,"(890.0, 762.0)",1.2666666666666666,0.713,1,1115.73,3,0.0,same
0,157,catch,"[(1138, 769)]",[],[1],[],horizontal,"(390.0, 762.0)",1.7,nan,1,1122.164,3,0.0,same
0,158,valid,"[(1148, 779)]",[],[1],[0.6],horizontal,"(890.0, 262.0)",0.8833333333333333,0.56,1,1128.047,3,0.0,same
0,159,catch,"[(1160, 774)]",[],[1],[],horizontal,"(890.0, 762.0)",1.7,nan,1,1133.962,3,0.0,same
0,160,valid,"[(1165, 786)]",[],[1],[0.5166666666666666],horizontal,"(890.0, 762.0)",0.7666666666666666,0.476,1,1140.199,3,0.0,same
0,161,catch,"[(1153, 793)]",[],[1],[],horizontal,"(890.0, 262.0)",1.7,nan,1,1145.583,3,0.0,same
0,162,valid,"[(1175, 816)]",[],[1],[0.6166666666666667],horizontal,"(390.0, 762.0)",1.2,0.578,1,1151.933,3,0.0,same
0,163,invalid_adjacent_other_bar,"[(1170, 786)]",[],[1],[0.6],horizontal,"(890.0, 262.0)",0.9166666666666666,0.556,1,1157.748,3,0.0,other
0,164,valid,"[(1182, 795)]",[],[1],[0.5166666666666666],vertical,"(390.0, 262.0)",0.7666666666666666,0.475,1,1163.898,3,0.0,same
0,165,valid,"[(1167, 786)]",[],[1],[0.5833333333333334],vertical,"(390.0, 262.0)",0.5,0.542,1,1169.751,3,0.0,same
0,166,valid,"[(1169, 761)]",[],[1],[0.5],horizontal,"(890.0, 762.0)",0.5666666666666667,0.461,1,1175.169,3,0.0,same
0,167,catch,"[(1138, 783)]",[],[1],[],vertical,"(890.0, 762.0)",1.7,nan,1,1180.161,3,0.0,same
0,168,valid,"[(1166, 808)]",[],[1],[0.85],horizontal,"(390.0, 762.0)",1.0833333333333333,nan,0,1186.514,0,0.0,same
0,169,valid,"[(1169, 777)]",[],[1],[0.6],horizontal,"(390.0, 762.0)",0.36666666666666664,0.56,1,1191.296,1,0.0,same
0,170,catch,"[(1090, 851)]",[],[1],[],vertical,"(890.0, 762.0)",1.7,nan,1,1195.635,1,0.0,same
0,171,valid,"[(1143, 779)]",[],[1],[0.5],vertical,"(890.0, 762.0)",1.3666666666666667,0.456,1,1201.343,1,0.0,same
0,172,valid,"[(1169, 785)]",[],[1],[0.5666666666666667],vertical,"(890.0, 262.0)",0.35,0.525,1,1206.668,2,0.0,same
0,173,valid,"[(1121, 781)]",[],[1],[0.43333333333333335],horizontal,"(890.0, 262.0)",1.5,0.396,1,1211.664,2,0.0,same
0,174,valid,"[(1162, 781)]",[],[1],[0.85],horizontal,"(390.0, 262.0)",1.35,nan,0,1217.28,0,0.0,same
0,175,catch,"[(1160, 804)]",[],[1],[],horizontal,"(890.0, 762.0)",1.7,nan,1,1222.015,1,0.0,same
0,176,catch,"[(1135, 770)]",[],[1],[],vertical,"(390.0, 762.0)",1.7,nan,1,1227.332,1,0.0,same
0,177,valid,"[(1153, 763)]",[],[1],[0.5],horizontal,"(890.0, 262.0)",1.5333333333333332,0.457,1,1232.765,1,0.0,same
0,178,valid,"[(1159, 781)]",[],[1],[0.5333333333333333],horizontal,"(890.0, 262.0)",1.5166666666666666,0.487,1,1237.959,2,0.0,same
0,179,valid,"[(1165, 777)]",[],[1],[0.5333333333333333],vertical,"(390.0, 262.0)",0.5833333333333334,0.493,1,1244.015,2,0.0,same
0,180,catch,"[(1138, 779)]",[],[1],[],horizontal,"(890.0, 762.0)",1.7,nan,1,1249.208,2,0.0,same
0,181,catch,"[(1167, 779)]",[],[1],[],horizontal,"(390.0, 262.0)",1.7,nan,1,1254.898,3,0.0,same
0,182,catch,"[(1130, 831)]",[],[1],[],horizontal,"(390.0, 262.0)",1.7,nan,1,1261.047,3,0.0,same
0,183,valid,"[(1130, 802)]",[],[1],[0.5333333333333333],horizontal,"(890.0, 262.0)",0.5,0.49,1,1267.165,3,0.0,same
0,184,invalid_adjacent_other_bar,"[(1135, 816)]",[],[1],[0.5166666666666666],horizontal,"(390.0, 262.0)",1.0833333333333333,0.475,1,1272.598,3,0.0,other
0,185,catch,"[(1135, 785)]",[],[1],[],horizontal,"(390.0, 262.0)",1.7,nan,1,1278.649,3,0.0,same
0,186,valid,"[(1143, 781)]",[],[1],[0.65],vertical,"(390.0, 762.0)",1.5166666666666666,0.605,1,1284.599,3,0.0,same
0,187,valid,"[(1169, 772)]",[],[1],[0.5333333333333333],vertical,"(390.0, 262.0)",0.4,0.492,1,1291.149,3,0.0,same
0,188,valid,"[(1123, 824)]",[],[1],[0.55],vertical,"(890.0, 762.0)",1.2333333333333334,0.506,1,1296.385,3,0.0,same
0,189,valid,"[(1165, 791)]",[],[1],[0.43333333333333335],vertical,"(890.0, 262.0)",1.5,0.392,1,1303.114,3,0.0,same
0,190,catch,"[(1160, 772)]",[],[1],[],vertical,"(890.0, 262.0)",1.7,nan,1,1309.432,3,0.0,same
0,191,valid,"[(1170, 794)]",[],[1],[0.7666666666666666],vertical,"(890.0, 762.0)",0.7,0.72,1,1315.499,3,0.0,same
0,192,valid,"[(1142, 781)]",[],[1],[0.85],vertical,"(390.0, 762.0)",1.2333333333333334,nan,0,1321.114,0,0.0,same
0,193,valid,"[(1089, 821)]",[],[1],[0.5666666666666667],vertical,"(890.0, 762.0)",0.7833333333333333,0.525,1,1325.816,1,0.0,same
0,194,valid,"[(1138, 821)]",[],[1],[0.6333333333333333],horizontal,"(390.0, 262.0)",0.5833333333333334,0.594,1,1364.778,1,0.0,same
0,195,catch,"[(1165, 820)]",[],[1],[],vertical,"(390.0, 262.0)",1.7,nan,1,1369.766,1,0.0,same
0,196,valid,"[(1168, 786)]",[],[1],[0.48333333333333334],vertical,"(390.0, 762.0)",0.9333333333333333,0.442,1,1375.276,2,0.0,same
0,197,valid,"[(1131, 785)]",[],[1],[0.85],horizontal,"(390.0, 762.0)",1.1333333333333333,nan,0,1380.536,0,0.0,same
0,198,valid,"[(1148, 780)]",[],[1],[0.55],vertical,"(390.0, 262.0)",0.4666666666666667,0.503,1,1385.416,1,0.0,same
0,199,valid,"[(1140, 779)]",[],[1],[0.5833333333333334],vertical,"(390.0, 262.0)",1.3166666666666667,0.54,1,1390.277,1,0.0,same
0,200,valid,"[(1129, 801)]",[],[1],[0.5666666666666667],horizontal,"(390.0, 762.0)",1.1,0.531,1,1395.132,1,0.0,same
0,201,valid,"[(1169, 781)]",[],[1],[0.6],horizontal,"(390.0, 262.0)",0.5166666666666666,0.56,1,1400.451,2,0.0,same
0,202,valid,"[(1135, 773)]",[],[1],[0.7166666666666667],horizontal,"(890.0, 262.0)",0.48333333333333334,0.666,1,1405.855,2,0.0,same
0,203,valid,"[(1140, 793)]",[],[1],[0.75],vertical,"(390.0, 262.0)",1.3666666666666667,0.699,1,1410.751,2,0.0,same
0,204,valid,"[(1140, 790)]",[],[1],[0.5166666666666666],vertical,"(390.0, 762.0)",0.8166666666666667,0.474,1,1417.194,3,0.0,same
0,205,valid,"[(1165, 796)]",[],[1],[0.5166666666666666],vertical,"(390.0, 762.0)",0.9166666666666666,0.471,1,1423.049,3,0.0,same
0,206,valid,"[(1143, 783)]",[],[1],[0.48333333333333334],horizontal,"(890.0, 762.0)",1.0166666666666666,0.443,1,1429.132,3,0.0,same
0,207,invalid_same_bar,"[(1162, 794)]",[],[1],[0.5],vertical,"(890.0, 262.0)",0.75,0.459,1,1434.648,3,0.0,same
0,208,invalid_adjacent_other_bar,"[(1165, 805)]",[],[1],[0.6],vertical,"(890.0, 762.0)",0.4666666666666667,0.558,1,1440.098,3,0.0,other
0,209,valid,"[(1141, 791)]",[],[1],[0.4666666666666667],horizontal,"(890.0, 262.0)",1.3666666666666667,0.428,1,1445.152,3,0.0,same
0,210,valid,"[(1166, 785)]",[],[1],[0.5166666666666666],vertical,"(890.0, 762.0)",0.3833333333333333,0.476,1,1451.68,3,0.0,same
0,211,valid,"[(1150, 781)]",[],[1],[0.5666666666666667],vertical,"(890.0, 762.0)",0.4166666666666667,0.517,1,1457.032,3,0.0,same
0,212,catch,"[(1146, 788)]",[],[1],[],vertical,"(890.0, 262.0)",1.7,nan,1,1462.472,3,0.0,same
0,213,valid,"[(1168, 794)]",[],[1],[0.55],horizontal,"(890.0, 262.0)",0.9166666666666666,0.509,1,1468.516,3,0.0,same
0,214,valid,"[(1141, 808)]",[],[1],[0.7166666666666667],horizontal,"(890.0, 762.0)",0.8,0.671,1,1473.982,3,0.0,same
0,215,invalid_same_bar,"[(1141, 796)]",[],[1],[0.5833333333333334],horizontal,"(890.0, 262.0)",0.7333333333333333,0.538,1,1479.38,3,0.0,same
0,216,valid,"[(1145, 778)]",[],[1],[0.5333333333333333],vertical,"(390.0, 762.0)",1.1666666666666667,0.498,1,1485.067,3,0.0,same
0,217,valid,"[(1146, 783)]",[],[1],[0.55],vertical,"(390.0, 262.0)",1.5,0.516,1,1491.184,3,0.0,same
0,218,catch,"[(1146, 781)]",[],[1],[],horizontal,"(890.0, 762.0)",1.7,nan,1,1497.075,3,0.0,same
0,219,valid,"[(1140, 776)]",[],[1],[0.6],horizontal,"(890.0, 762.0)",0.5833333333333334,0.553,1,1502.766,3,0.0,same
0,220,invalid_adjacent_other_bar,"[(1110, 840)]",[],[1],[0.85],horizontal,"(390.0, 262.0)",0.5333333333333333,nan,0,1508.448,0,0.0,other
0,221,valid,"[(1120, 761)]",[],[1],[0.5666666666666667],vertical,"(890.0, 262.0)",0.9333333333333333,0.527,1,1540.594,1,0.0,same
0,222,valid,"[(1142, 791)]",[],[1],[0.6166666666666667],horizontal,"(890.0, 762.0)",0.4,0.575,1,1545.631,1,0.0,same
0,223,invalid_adjacent_other_bar,"[(1145, 796)]",[],[1],[0.45],horizontal,"(890.0, 762.0)",1.2166666666666666,0.409,1,1550.182,1,0.0,other
0,224,valid,"[(1120, 871)]",[],[1],[0.11666666666666667],horizontal,"(390.0, 262.0)",1.5166666666666666,0.083,0,1555.611,0,0.0,same
0,225,valid,"[(1135, 809)]",[],[1],[0.5666666666666667],horizontal,"(390.0, 762.0)",1.35,0.523,1,1590.503,1,0.0,same
0,226,catch,"[(1172, 786)]",[],[1],[],horizontal,"(890.0, 762.0)",1.7,nan,1,1595.637,1,0.0,same
0,227,invalid_adjacent_other_bar,"[(1166, 791)]",[],[1],[0.5],horizontal,"(390.0, 262.0)",1.1166666666666667,0.459,1,1601.197,1,0.0,other
0,228,valid,"[(1165, 786)]",[],[1],[0.85],horizontal,"(390.0, 262.0)",1.0833333333333333,nan,0,1606.103,0,0.0,same
0,229,valid,"[(1140, 776)]",[],[1],[0.5833333333333334],vertical,"(890.0, 762.0)",1.0666666666666667,0.542,1,1610.625,1,0.0,same
0,230,valid,"[(1165, 816)]",[],[1],[0.7],horizontal,"(390.0, 762.0)",1.1166666666666667,0.655,1,1616.166,1,0.0,same
0,231,catch,"[(1146, 806)]",[],[1],[],horizontal,"(890.0, 762.0)",1.7,nan,1,1621.65,1,0.0,same
0,232,valid,"[(1166, 781)]",[],[1],[0.5166666666666666],vertical,"(890.0, 262.0)",1.4333333333333333,0.47,1,1627.013,2,0.0,same
0,233,valid,"[(1155, 781)]",[],[1],[0.55],vertical,"(890.0, 762.0)",0.9666666666666667,0.515,1,1632.667,2,0.0,same
0,234,valid,"[(1150, 801)]",[],[1],[0.5166666666666666],vertical,"(390.0, 262.0)",0.43333333333333335,0.478,1,1637.887,2,0.0,same
0,235,catch,"[(1161, 796)]",[],[1],[],vertical,"(390.0, 262.0)",1.7,nan,1,1642.98,3,0.0,same
0,236,invalid_adjacent_other_bar,"[(1168, 796)]",[],[1],[0.85],horizontal,"(390.0, 762.0)",1.3666666666666667,nan,0,1649.243,0,0.0,other
0,237,valid,"[(1155, 784)]",[],[1],[0.5833333333333334],vertical,"(390.0, 762.0)",0.5166666666666666,0.541,1,1654.365,1,0.0,same
0,238,valid,"[(1167, 786)]",[],[1],[0.45],horizontal,"(890.0, 262.0)",1.25,0.413,1,1659.103,1,0.0,same
0,239,valid,"[(1166, 791)]",[],[1],[0.48333333333333334],horizontal,"(890.0, 262.0)",0.6666666666666666,0.446,1,1664.477,1,0.0,same
0,240,valid,"[(1166, 799)]",[],[1],[0.6333333333333333],vertical,"(390.0, 762.0)",0.45,0.587,1,1668.907,2,0.0,same
0,241,valid,"[(1146, 796)]",[],[1],[0.6166666666666667],horizontal,"(390.0, 762.0)",1.15,0.573,1,1674.032,2,0.0,same
0,242,catch,"[(1155, 789)]",[],[1],[],horizontal,"(890.0, 262.0)",1.7,nan,1,1679.433,2,0.0,same
0,243,valid,"[(1130, 821)]",[],[1],[0.48333333333333334],vertical,"(890.0, 762.0)",1.2833333333333332,0.443,1,1685.483,3,0.0,same
0,244,valid,"[(1140, 807)]",[],[1],[0.85],vertical,"(390.0, 762.0)",1.4166666666666667,nan,0,1691.75,0,0.0,same
0,245,valid,"[(1120, 769)]",[],[1],[0.5],vertical,"(890.0, 762.0)",0.6833333333333333,0.47,1,1696.866,1,0.0,same
0,246,valid,"[(1170, 779)]",[],[1],[0.85],vertical,"(890.0, 762.0)",1.1166666666666667,nan,0,1701.694,0,0.0,same
0,247,valid,"[(1168, 780)]",[],[1],[0.6166666666666667],horizontal,"(390.0, 262.0)",0.5666666666666667,0.579,1,1706.949,1,0.0,same
0,248,valid,"[(1163, 796)]",[],[1],[0.6333333333333333],horizontal,"(890.0, 762.0)",0.6833333333333333,0.593,1,1711.432,1,0.0,same
0,249,catch,"[(1165, 775)]",[],[1],[],horizontal,"(890.0, 762.0)",1.7,nan,1,1716.515,1,0.0,same
0,250,valid,"[(1140, 771)]",[],[1],[0.48333333333333334],horizontal,"(890.0, 762.0)",0.4,0.442,1,1721.632,2,0.0,same
0,251,valid,"[(1138, 790)]",[],[1],[0.55],vertical,"(390.0, 262.0)",1.3833333333333333,0.513,1,1726.614,2,0.0,same
0,252,valid,"[(1132, 807)]",[],[1],[0.6666666666666666],vertical,"(890.0, 262.0)",0.43333333333333335,0.624,1,1732.359,2,0.0,same
0,253,valid,"[(1135, 797)]",[],[1],[0.5166666666666666],vertical,"(890.0, 262.0)",1.4666666666666666,0.48,1,1737.933,3,0.0,same
0,254,valid,"[(1161, 782)]",[],[1],[0.48333333333333334],horizontal,"(890.0, 762.0)",0.3833333333333333,0.441,1,1744.633,3,0.0,same
0,255,valid,"[(1133, 797)]",[],[1],[0.5166666666666666],horizontal,"(390.0, 762.0)",1.35,0.482,1,1749.731,3,0.0,same
0,256,invalid_same_bar,"[(1140, 792)]",[],[1],[0.5166666666666666],vertical,"(890.0, 762.0)",1.1166666666666667,0.486,1,1755.916,3,0.0,same
0,257,valid,"[(1170, 789)]",[],[1],[0.5166666666666666],vertical,"(890.0, 762.0)",0.7333333333333333,0.479,1,1761.76,3,0.0,same
0,258,catch,"[(1166, 781)]",[],[1],[],horizontal,"(890.0, 262.0)",1.7,nan,1,1767.529,3,0.0,same
0,259,valid,"[(1166, 787)]",[],[1],[0.5666666666666667],horizontal,"(890.0, 762.0)",1.55,0.522,1,1773.859,3,0.0,same
0,260,valid,"[(1170, 787)]",[],[1],[0.5],vertical,"(890.0, 762.0)",0.9666666666666667,0.455,1,1780.542,3,0.0,same
0,261,valid,"[(1169, 776)]",[],[1],[0.5],vertical,"(890.0, 262.0)",0.5833333333333334,0.456,1,1786.3,3,0.0,same
0,262,valid,"[(1170, 777)]",[],[1],[0.5],vertical,"(390.0, 762.0)",0.8,0.455,1,1791.565,3,0.0,same
0,263,invalid_adjacent_other_bar,"[(1133, 776)]",[],[1],[0.7166666666666667],vertical,"(890.0, 762.0)",0.8833333333333333,0.668,1,1797.466,3,0.0,other
0,264,valid,"[(1169, 791)]",[],[1],[0.6833333333333333],vertical,"(890.0, 262.0)",1.2333333333333334,0.639,1,1803.416,3,0.0,same
0,265,catch,"[(1154, 788)]",[],[1],[],vertical,"(890.0, 262.0)",1.7,nan,1,1809.783,3,0.0,same
0,266,valid,"[(1169, 770)]",[],[1],[0.6],vertical,"(890.0, 262.0)",1.25,0.562,1,1815.966,3,0.0,same
0,267,valid,"[(1167, 788)]",[],[1],[0.4666666666666667],horizontal,"(390.0, 262.0)",1.5166666666666666,0.428,1,1822.116,3,0.0,same
0,268,valid,"[(1165, 782)]",[],[1],[0.85],vertical,"(390.0, 262.0)",1.2833333333333332,nan,0,1828.432,0,0.0,same
0,269,catch,"[(1128, 763)]",[],[1],[],vertical,"(890.0, 762.0)",1.7,nan,1,1833.701,1,0.0,same
0,270,catch,"[(1162, 783)]",[],[1],[],vertical,"(890.0, 762.0)",1.7,nan,1,1839.083,1,0.0,same
0,271,valid,"[(1146, 778)]",[],[1],[0.85],vertical,"(390.0, 762.0)",0.9833333333333333,nan,0,1844.457,0,0.0,same
0,272,invalid_adjacent_other_bar,"[(1137, 771)]",[],[1],[0.6],horizontal,"(390.0, 262.0)",0.7166666666666667,0.555,1,1848.966,1,0.0,other
0,273,valid,"[(1162, 796)]",[],[1],[0.6],horizontal,"(890.0, 262.0)",0.5666666666666667,0.56,1,1853.887,1,0.0,same
0,274,valid,"[(1169, 781)]",[],[1],[0.5333333333333333],vertical,"(890.0, 262.0)",1.4166666666666667,0.496,1,1858.579,1,0.0,same
0,275,valid,"[(1145, 782)]",[],[1],[0.48333333333333334],horizontal,"(890.0, 262.0)",1.35,0.448,1,1864.074,2,0.0,same
0,276,catch,"[(1155, 779)]",[],[1],[],vertical,"(890.0, 262.0)",1.7,nan,1,1869.394,2,0.0,same
0,277,valid,"[(1160, 776)]",[],[1],[0.6666666666666666],horizontal,"(390.0, 262.0)",0.7166666666666667,0.624,1,1874.899,2,0.0,same
0,278,valid,"[(1170, 784)]",[],[1],[0.6166666666666667],vertical,"(890.0, 762.0)",1.15,0.576,1,1880.415,3,0.0,same
0,279,valid,"[(1170, 770)]",[],[1],[0.5],horizontal,"(890.0, 762.0)",0.8333333333333334,0.463,1,1886.753,3,0.0,same
0,280,valid,"[(1160, 780)]",[],[1],[0.5166666666666666],horizontal,"(890.0, 262.0)",0.7666666666666666,0.477,1,1892.376,3,0.0,same
0,281,catch,"[(1168, 769)]",[],[1],[],vertical,"(390.0, 762.0)",1.7,nan,1,1897.726,3,0.0,same
0,282,valid,"[(1169, 776)]",[],[1],[0.5333333333333333],vertical,"(390.0, 262.0)",0.6,0.491,1,1903.716,3,0.0,same
0,283,invalid_same_bar,"[(1135, 775)]",[],[1],[0.6],vertical,"(390.0, 762.0)",1.4,0.558,1,1908.9,3,0.0,same
0,284,invalid_adjacent_other_bar,"[(1146, 778)]",[],[1],[0.5333333333333333],vertical,"(390.0, 762.0)",0.4166666666666667,0.492,1,1915.061,3,0.0,other
0,285,catch,"[(1160, 777)]",[],[1],[],horizontal,"(890.0, 262.0)",1.7,nan,1,1920.473,3,0.0,same
0,286,invalid_adjacent_other_bar,"[(1177, 771)]",[],[1],[0.6],horizontal,"(390.0, 762.0)",0.36666666666666664,0.553,1,1926.657,3,0.0,other
0,287,valid,"[(1170, 782)]",[],[1],[0.5166666666666666],horizontal,"(890.0, 762.0)",0.9666666666666667,0.472,1,1931.845,3,0.0,same
0,288,valid,"[(1140, 772)]",[],[1],[0.85],horizontal,"(390.0, 762.0)",1.25,nan,0,1937.437,0,0.0,same
0,289,valid,"[(1125, 778)]",[],[1],[0.5833333333333334],horizontal,"(390.0, 762.0)",1.0,0.542,1,1942.166,1,0.0,same
0,290,valid,"[(1160, 786)]",[],[1],[0.5],horizontal,"(390.0, 762.0)",0.48333333333333334,0.456,1,1947.519,1,0.0,same
0,291,catch,"[(1163, 762)]",[],[1],[],vertical,"(890.0, 262.0)",1.7,nan,1,1951.783,1,0.0,same
0,292,valid,"[(1169, 789)]",[],[1],[0.8166666666666667],horizontal,"(390.0, 762.0)",1.3666666666666667,0.767,1,1957.257,2,0.0,same
0,293,valid,"[(1166, 796)]",[],[1],[0.5],horizontal,"(890.0, 262.0)",0.45,0.465,1,1963.35,2,0.0,same
0,294,valid,"[(1165, 776)]",[],[1],[0.5833333333333334],horizontal,"(890.0, 262.0)",0.9833333333333333,0.543,1,1968.188,2,0.0,same
0,295,valid,"[(1154, 771)]",[],[1],[0.6],horizontal,"(390.0, 762.0)",0.7166666666666667,0.558,1,1973.75,3,0.0,same
0,296,valid,"[(1172, 800)]",[],[1],[0.65],vertical,"(390.0, 762.0)",0.35,0.601,1,1979.739,3,0.0,same
0,297,catch,"[(1130, 787)]",[],[1],[],horizontal,"(890.0, 762.0)",1.7,nan,1,1984.877,3,0.0,same
0,298,valid,"[(1166, 787)]",[],[1],[0.48333333333333334],vertical,"(890.0, 762.0)",1.15,0.443,1,1991.216,3,0.0,same
0,299,valid,"[(1132, 791)]",[],[1],[0.75],vertical,"(890.0, 262.0)",1.0333333333333332,0.708,1,1997.017,3,0.0,same
0,300,catch,"[(1134, 742), (1146, 816)]",[],"[0, 1]",[],vertical,"(390.0, 262.0)",1.7,nan,1,2003.292,3,0.0,same
0,301,catch,"[(1169, 776)]",[],[1],[],horizontal,"(390.0, 262.0)",,"('cti', 1.28),nan",0,2011.298,0,0.02,same
0,302,valid,"[(1155, 781)]",[],[1],[0.5333333333333333],vertical,"(890.0, 762.0)",0.45,0.495,1,2015.799,1,0.02,same
0,303,valid,"[(1146, 805)]",[],[1],[0.85],horizontal,"(390.0, 262.0)",1.2,nan,0,2020.249,0,0.02,same
0,304,valid,"[(1155, 772)]",[],[1],[0.6],vertical,"(390.0, 762.0)",0.5833333333333334,0.557,1,2025.2,1,0.02,same
0,305,invalid_same_bar,"[(1165, 773)]",[],[1],[0.5333333333333333],vertical,"(390.0, 762.0)",0.75,0.494,1,2029.867,1,0.02,same
0,306,catch,"[(1130, 802)]",[],[1],[],vertical,"(890.0, 762.0)",1.7,nan,1,2035.05,1,0.02,same
0,307,invalid_adjacent_other_bar,"[(1131, 778)]",[],[1],[0.6],horizontal,"(890.0, 262.0)",1.0666666666666667,0.564,1,2040.527,2,0.02,other
0,308,catch,"[(1163, 762)]",[],[1],[],vertical,"(390.0, 762.0)",,"('cti', 1.217),nan",0,2045.733,0,0.04,same
0,309,catch,"[(1132, 765)]",[],[1],[],vertical,"(890.0, 262.0)",1.7,nan,1,2050.283,1,0.04,same
0,310,valid,"[(1166, 768)]",[],[1],[0.5166666666666666],horizontal,"(390.0, 262.0)",0.65,0.479,1,2055.717,1,0.04,same
0,311,valid,"[(1166, 787)]",[],[1],[0.5333333333333333],horizontal,"(390.0, 262.0)",1.1,0.496,1,2060.321,1,0.04,same
0,312,catch,"[(1167, 776)]",[],[1],[],horizontal,"(390.0, 262.0)",1.7,nan,1,2065.482,2,0.04,same
0,313,valid,"[(1165, 778)]",[],[1],[0.3333333333333333],horizontal,"(390.0, 762.0)",1.1,0.297,1,2071.401,2,0.04,same
0,314,catch,"[(1146, 786)]",[],[1],[],horizontal,"(390.0, 262.0)",1.7,nan,1,2076.75,2,0.04,same
0,315,invalid_same_bar,"[(1161, 789)]",[],[1],[0.65],horizontal,"(390.0, 262.0)",1.3666666666666667,0.603,1,2082.034,3,0.04,same
0,316,valid,"[(1132, 776)]",[],[1],[0.48333333333333334],horizontal,"(890.0, 262.0)",0.5166666666666666,0.451,1,2088.303,3,0.04,same
0,317,invalid_adjacent_other_bar,"[(1160, 755)]",[],[1],[0.5833333333333334],horizontal,"(890.0, 762.0)",1.3166666666666667,0.544,1,2093.698,3,0.04,other
0,318,valid,"[(1136, 778)]",[],[1],[0.6833333333333333],vertical,"(390.0, 262.0)",0.9166666666666666,0.642,1,2099.733,3,0.04,same
0,319,invalid_adjacent_other_bar,"[(1169, 777)]",[],[1],[0.5333333333333333],horizontal,"(890.0, 762.0)",1.0333333333333332,0.498,1,2105.24,3,0.04,other
0,320,valid,"[(1170, 773)]",[],[1],[0.5166666666666666],horizontal,"(890.0, 262.0)",1.1833333333333333,0.475,1,2110.801,3,0.04,same
0,321,valid,"[(1161, 783)]",[],[1],[0.5166666666666666],horizontal,"(390.0, 762.0)",0.8333333333333334,0.483,1,2117.168,3,0.04,same
0,322,catch,"[(1145, 791)]",[],[1],[],vertical,"(890.0, 762.0)",1.7,nan,1,2122.901,3,0.04,same
0,323,catch,"[(1164, 776)]",[],[1],[],vertical,"(390.0, 762.0)",1.7,nan,1,2128.983,3,0.04,same
0,324,catch,"[(1165, 781)]",[],[1],[],horizontal,"(390.0, 262.0)",1.7,nan,1,2135.068,3,0.04,same
0,325,valid,"[(1165, 785)]",[],[1],[0.65],horizontal,"(390.0, 262.0)",0.6166666666666667,0.612,1,2141.252,3,0.04,same
0,326,invalid_adjacent_other_bar,"[(1165, 776)]",[],[1],[0.5666666666666667],horizontal,"(390.0, 762.0)",0.85,0.528,1,2146.568,3,0.04,other
0,327,valid,"[(1132, 760)]",[],[1],[0.5833333333333334],horizontal,"(390.0, 762.0)",1.4333333333333333,0.541,1,2152.718,3,0.04,same
0,328,valid,"[(1170, 789)]",[],[1],[0.85],horizontal,"(390.0, 762.0)",1.15,nan,0,2159.168,0,0.04,same
0,329,valid,"[(1148, 772)]",[],[1],[0.5833333333333334],horizontal,"(390.0, 262.0)",1.0333333333333332,0.541,1,2164.151,1,0.04,same
0,330,valid,"[(1169, 781)]",[],[1],[0.5166666666666666],horizontal,"(390.0, 262.0)",1.4166666666666667,0.481,1,2169.1,1,0.04,same
0,331,catch,"[(1170, 795)]",[],[1],[],vertical,"(390.0, 262.0)",1.7,nan,1,2174.403,1,0.04,same
0,332,invalid_adjacent_other_bar,"[(1139, 806)]",[],[1],[0.5],vertical,"(890.0, 262.0)",0.5166666666666666,0.467,1,2179.251,2,0.04,other
0,333,valid,"[(1170, 780)]",[],[1],[0.8],vertical,"(390.0, 262.0)",1.0166666666666666,0.755,1,2183.9,2,0.04,same
0,334,valid,"[(1170, 778)]",[],[1],[0.5333333333333333],horizontal,"(890.0, 262.0)",1.0166666666666666,0.495,1,2189.447,2,0.04,same
0,335,valid,"[(1131, 786)]",[],[1],[0.5],vertical,"(890.0, 762.0)",1.0166666666666666,0.465,1,2194.801,3,0.04,same
0,336,catch,"[(1165, 791)]",[],[1],[],vertical,"(890.0, 762.0)",1.7,nan,1,2200.8,3,0.04,same
0,337,catch,"[(1178, 787)]",[],[1],[],horizontal,"(390.0, 262.0)",1.7,nan,1,2206.626,3,0.04,same
0,338,valid,"[(1168, 777)]",[],[1],[0.5],vertical,"(390.0, 262.0)",1.4666666666666666,0.467,1,2212.282,3,0.04,same
0,339,invalid_same_bar,"[(1125, 783)]",[],[1],[0.5166666666666666],horizontal,"(890.0, 762.0)",0.8833333333333333,0.479,1,2218.601,3,0.04,same
0,340,valid,"[(1124, 796)]",[],[1],[0.6666666666666666],horizontal,"(890.0, 762.0)",0.3833333333333333,0.634,1,2224.767,3,0.04,same
0,341,catch,"[(1138, 781)]",[],[1],[],vertical,"(890.0, 262.0)",1.7,nan,1,2229.884,3,0.04,same
0,342,catch,"[(1170, 776)]",[],[1],[],horizontal,"(390.0, 762.0)",1.7,nan,1,2235.796,3,0.04,same
0,343,valid,"[(1170, 786)]",[],[1],[0.55],horizontal,"(390.0, 262.0)",0.36666666666666664,0.511,1,2242.117,3,0.04,same
0,344,valid,"[(1164, 786)]",[],[1],[0.8333333333333334],vertical,"(390.0, 762.0)",1.3666666666666667,0.793,1,2247.476,3,0.04,same
0,345,valid,"[(1170, 799)]",[],[1],[0.5833333333333334],horizontal,"(390.0, 762.0)",1.5166666666666666,0.543,1,2254.027,3,0.04,same
0,346,valid,"[(1166, 768)]",[],[1],[0.5833333333333334],horizontal,"(390.0, 762.0)",0.6333333333333333,0.549,1,2260.635,3,0.04,same
0,347,catch,"[(1142, 805)]",[],[1],[],vertical,"(390.0, 762.0)",1.7,nan,1,2266.401,3,0.04,same
0,348,valid,"[(1166, 794)]",[],[1],[0.55],vertical,"(890.0, 262.0)",0.7833333333333333,0.517,1,2272.418,3,0.04,same
0,349,valid,"[(1168, 784)]",[],[1],[0.5333333333333333],vertical,"(890.0, 762.0)",0.48333333333333334,0.499,1,2278.151,3,0.04,same
0,350,valid,"[(1163, 781)]",[],[1],[0.5],vertical,"(890.0, 762.0)",0.35,0.466,1,2283.467,3,0.04,same
0,351,valid,"[(1161, 777)]",[],[1],[0.85],vertical,"(390.0, 762.0)",0.9333333333333333,nan,0,2288.686,0,0.02,same
0,352,catch,"[(1080, 870)]",[],[1],[],horizontal,"(390.0, 762.0)",1.7,nan,1,2293.747,1,0.02,same
0,353,valid,"[(1131, 803)]",[],[1],[0.5166666666666666],horizontal,"(890.0, 762.0)",1.25,0.476,1,2372.562,1,0.02,same
0,354,valid,"[(1143, 803)]",[],[1],[0.48333333333333334],vertical,"(890.0, 262.0)",0.9666666666666667,0.442,1,2378.218,1,0.02,same
0,355,catch,"[(1140, 788)]",[],[1],[],horizontal,"(890.0, 262.0)",1.7,nan,1,2383.003,2,0.02,same
0,356,valid,"[(1146, 799)]",[],[1],[0.5166666666666666],vertical,"(890.0, 262.0)",0.9166666666666666,0.475,1,2388.718,2,0.02,same
0,357,valid,"[(1140, 812)]",[],[1],[0.7],horizontal,"(890.0, 262.0)",1.5,0.656,1,2393.968,2,0.02,same
0,358,valid,"[(1161, 820)]",[],[1],[],vertical,"(890.0, 762.0)",,"('cti', 0.971)",0,2400.068,0,0.0,same
0,359,valid,"[(1155, 800)]",[],[1],[0.5],vertical,"(890.0, 762.0)",0.5166666666666666,0.464,1,2404.507,1,0.0,same
0,360,valid,"[(1160, 777)]",[],[1],[0.5333333333333333],horizontal,"(890.0, 262.0)",0.6,0.493,1,2408.888,1,0.0,same
0,361,catch,"[(1142, 796)]",[],[1],[],vertical,"(390.0, 762.0)",1.7,nan,1,2412.984,1,0.0,same
0,362,valid,"[(1149, 785)]",[],[1],[0.5],vertical,"(390.0, 262.0)",0.7333333333333333,0.456,1,2418.135,2,0.0,same
0,363,valid,"[(1169, 806)]",[],[1],[0.48333333333333334],vertical,"(890.0, 762.0)",1.4,0.448,1,2422.934,2,0.0,same
0,364,catch,"[(1165, 782)]",[],[1],[],vertical,"(390.0, 262.0)",,"('cti', 0.913),nan",0,2428.369,0,0.02,same
0,365,valid,"[(1130, 787)]",[],[1],[0.45],vertical,"(390.0, 262.0)",0.9833333333333333,0.411,1,2432.619,1,0.02,same
0,366,catch,"[(1165, 781)]",[],[1],[],vertical,"(390.0, 262.0)",1.7,nan,1,2437.484,1,0.02,same
0,367,valid,"[(1169, 781)]",[],[1],[0.6833333333333333],vertical,"(390.0, 762.0)",1.1166666666666667,0.643,1,2442.827,1,0.02,same
0,368,catch,"[(1134, 777)]",[],[1],[],horizontal,"(890.0, 262.0)",1.7,nan,1,2448.201,2,0.02,same
0,369,valid,"[(1131, 797)]","[(1042, 891)]",[1],[0.55],horizontal,"(890.0, 762.0)",,"('bar', 0.557)",0,2453.599,0,0.02,same
0,370,valid,"[(1133, 840)]",[],[1],[0.6333333333333333],vertical,"(390.0, 762.0)",0.7833333333333333,0.591,1,2456.587,1,0.02,same
0,371,valid,"[(1135, 792)]",[],[1],[0.85],horizontal,"(890.0, 262.0)",0.4,nan,0,2461.51,0,0.02,same
0,372,valid,"[(1167, 812)]",[],[1],[0.5166666666666666],horizontal,"(390.0, 262.0)",0.95,0.472,1,2465.702,1,0.02,same
0,373,catch,"[(1168, 788)]","[(1060, 889)]",[1],[0.85],horizontal,"(890.0, 262.0)",,"('bar', 0.866),nan",0,2470.447,0,0.04,same
0,374,invalid_adjacent_other_bar,"[(1131, 790)]",[],[1],[0.4666666666666667],horizontal,"(890.0, 262.0)",1.3166666666666667,0.429,1,2473.469,1,0.04,other
0,375,catch,"[(1165, 818)]",[],[1],[],vertical,"(890.0, 262.0)",1.7,nan,1,2478.902,1,0.04,same
0,376,valid,"[(1131, 811)]","[(1074, 846)]",[1],[0.05],vertical,"(390.0, 762.0)",,"('bar', 0.066)",0,2484.237,0,0.04,same
0,377,valid,"[(1130, 815)]",[],[1],[0.45],horizontal,"(890.0, 262.0)",0.8166666666666667,0.409,1,2486.453,1,0.04,same
0,378,valid,"[(1133, 785)]",[],[1],[0.5333333333333333],vertical,"(390.0, 262.0)",1.2333333333333334,0.497,1,2491.353,1,0.04,same
0,379,valid,"[(1134, 791)]",[],[1],[0.85],vertical,"(390.0, 762.0)",1.05,nan,0,2496.342,0,0.04,same
0,380,catch,"[(1151, 786)]",[],[1],[],vertical,"(890.0, 762.0)",1.7,nan,1,2501.335,1,0.04,same
0,381,valid,"[(1141, 791)]",[],[1],[0.5166666666666666],vertical,"(890.0, 262.0)",0.8,0.48,1,2506.508,1,0.04,same
0,382,valid,"[(1110, 841)]",[],[1],[0.65],vertical,"(890.0, 262.0)",1.0,0.603,1,2511.471,1,0.04,same
0,383,valid,"[(1140, 796)]",[],[1],[0.85],horizontal,"(890.0, 762.0)",1.1,nan,0,2516.837,0,0.04,same
0,384,catch,"[(1167, 808)]",[],[1],[],horizontal,"(390.0, 762.0)",,"('fix', 0.346),nan",0,2521.712,0,0.06,same
0,385,catch,"[(1165, 759)]",[],[1],[],vertical,"(390.0, 762.0)",,"('cti', 0.748),nan",0,2523.67,0,0.08,same
0,386,catch,"[(1088, 799)]","[(985, 894)]",[1],[0.16666666666666666],vertical,"(890.0, 262.0)",,"('bar', 0.182),nan",0,2527.576,0,0.1,same
0,387,invalid_adjacent_other_bar,"[(1006, 868)]",[],[1],[0.3],horizontal,"(390.0, 262.0)",1.35,0.26,1,2531.336,1,0.1,other
0,388,valid,"[(1142, 761)]",[],[1],[],vertical,"(890.0, 262.0)",,"('fix', 0.263)",0,2536.41,0,0.1,same
0,389,catch,"[(1120, 823)]",[],[1],[],horizontal,"(390.0, 762.0)",1.7,nan,1,2538.268,1,0.1,same
0,390,valid,"[(1140, 796)]",[],[1],[0.6333333333333333],horizontal,"(390.0, 262.0)",1.0666666666666667,0.591,1,2543.869,1,0.1,same
0,391,valid,"[(1145, 781)]",[],[1],[],horizontal,"(890.0, 762.0)",,"('fix', 0.185)",0,2549.402,0,0.1,same
0,392,valid,"[(1147, 805)]",[],[1],[0.7333333333333333],horizontal,"(390.0, 262.0)",1.0,0.685,1,2551.219,1,0.1,same
0,393,valid,"[(1169, 775)]",[],[1],[],vertical,"(390.0, 762.0)",,"('fix', 0.267)",0,2556.51,0,0.1,same
0,394,catch,"[(1125, 816)]",[],[1],[],horizontal,"(890.0, 262.0)",1.7,nan,1,2558.368,1,0.1,same
0,395,valid,"[(1136, 775)]",[],[1],[0.06666666666666667],horizontal,"(890.0, 262.0)",0.36666666666666664,0.034,0,2563.843,0,0.1,same
0,396,valid,"[(1144, 762)]",[],[1],[0.5333333333333333],horizontal,"(390.0, 762.0)",1.4166666666666667,0.491,1,2567.402,1,0.1,same
0,397,valid,"[(1162, 811)]",[],[1],[0.55],vertical,"(890.0, 262.0)",0.4666666666666667,0.508,1,2573.201,1,0.1,same
0,398,valid,"[(1163, 782)]",[],[1],[0.85],vertical,"(890.0, 762.0)",0.7333333333333333,nan,0,2577.818,0,0.1,same
0,399,valid,"[(1156, 779)]",[],[1],[0.65],horizontal,"(890.0, 262.0)",1.0333333333333332,0.608,1,2582.418,1,0.1,same
0,400,valid,"[(1157, 773)]",[],[1],[0.5166666666666666],horizontal,"(890.0, 262.0)",0.7,0.483,1,2587.535,1,0.1,same
0,401,catch,"[(1162, 791)]",[],[1],[],horizontal,"(890.0, 762.0)",1.7,nan,1,2592.419,1,0.1,same
0,402,valid,"[(1161, 796)]",[],[1],[0.5833333333333334],vertical,"(390.0, 262.0)",0.48333333333333334,0.542,1,2597.987,2,0.1,same
0,403,valid,"[(1166, 758)]",[],[1],[0.85],vertical,"(890.0, 762.0)",1.4,nan,0,2603.052,0,0.1,same
0,404,catch,"[(1160, 791)]",[],[1],[],vertical,"(390.0, 762.0)",1.7,nan,1,2608.452,1,0.1,same
0,405,valid,"[(1161, 804)]",[],[1],[0.6666666666666666],horizontal,"(390.0, 262.0)",1.3833333333333333,0.621,1,2613.658,1,0.1,same
0,406,valid,"[(1146, 778)]",[],[1],[0.6166666666666667],vertical,"(390.0, 762.0)",0.43333333333333335,0.576,1,2619.062,1,0.1,same
0,407,valid,"[(1140, 809)]",[],[1],[0.8],horizontal,"(390.0, 762.0)",1.2333333333333334,0.756,1,2623.839,2,0.1,same
0,408,valid,"[(1160, 801)]",[],[1],[0.5166666666666666],horizontal,"(890.0, 762.0)",0.9166666666666666,0.472,1,2629.746,2,0.1,same
0,409,valid,"[(1165, 796)]",[],[1],[0.5333333333333333],horizontal,"(890.0, 762.0)",1.05,0.491,1,2634.685,2,0.1,same
0,410,valid,"[(1162, 806)]",[],[1],[0.5666666666666667],horizontal,"(890.0, 762.0)",0.48333333333333334,0.526,1,2640.54,3,0.1,same
0,411,catch,"[(1164, 781)]",[],[1],[],horizontal,"(390.0, 762.0)",1.7,nan,1,2646.135,3,0.1,same
0,412,invalid_adjacent_other_bar,"[(1178, 787)]",[],[1],[0.85],vertical,"(390.0, 762.0)",0.75,nan,0,2652.468,0,0.1,other
0,413,valid,"[(1126, 787)]",[],[1],[0.6333333333333333],horizontal,"(390.0, 762.0)",0.9833333333333333,0.584,1,2657.251,1,0.1,same
0,414,valid,"[(1159, 777)]",[],[1],[0.5666666666666667],vertical,"(390.0, 262.0)",0.6166666666666667,0.519,1,2662.628,1,0.08,same
0,415,invalid_adjacent_other_bar,"[(1163, 786)]",[],[1],[0.55],vertical,"(890.0, 762.0)",0.8333333333333334,0.51,1,2667.43,1,0.08,other
0,416,valid,"[(1170, 779)]",[],[1],[0.5833333333333334],vertical,"(390.0, 762.0)",1.4833333333333334,0.542,1,2672.578,2,0.08,same
0,417,valid,"[(1146, 786)]",[],[1],[0.5166666666666666],horizontal,"(890.0, 262.0)",0.7166666666666667,0.478,1,2678.451,2,0.08,same
0,418,catch,"[(1143, 810)]",[],[1],[],vertical,"(390.0, 262.0)",1.7,nan,1,2683.744,2,0.08,same
0,419,invalid_same_bar,"[(1141, 800)]",[],[1],[0.85],vertical,"(390.0, 262.0)",1.2333333333333334,nan,0,2689.978,0,0.08,same
0,420,valid,"[(1170, 772)]",[],[1],[0.5],horizontal,"(890.0, 262.0)",0.8833333333333333,0.456,1,2695.324,1,0.08,same
0,421,valid,"[(1165, 777)]",[],[1],[0.5833333333333334],vertical,"(890.0, 762.0)",0.75,0.538,1,2700.586,1,0.08,same
0,422,valid,"[(1151, 788)]",[],[1],[0.48333333333333334],horizontal,"(890.0, 762.0)",0.3833333333333333,0.44,1,2705.556,1,0.08,same
0,423,catch,"[(1131, 776)]",[],[1],[],horizontal,"(890.0, 262.0)",1.7,nan,1,2709.654,2,0.06,same
0,424,valid,"[(1166, 781)]",[],[1],[0.65],horizontal,"(890.0, 762.0)",0.9,0.61,1,2715.315,2,0.06,same
0,425,valid,"[(1166, 786)]",[],[1],[0.6666666666666666],horizontal,"(390.0, 762.0)",0.4,0.623,1,2720.908,2,0.06,same
0,426,valid,"[(1163, 798)]",[],[1],[0.85],horizontal,"(390.0, 262.0)",0.3833333333333333,nan,0,2726.187,0,0.06,same
0,427,valid,"[(1121, 787)]",[],[1],[0.5166666666666666],horizontal,"(890.0, 762.0)",0.8166666666666667,0.476,1,2730.346,1,0.06,same
0,428,valid,"[(1135, 781)]",[],[1],[0.6],horizontal,"(390.0, 262.0)",1.1666666666666667,0.556,1,2734.889,1,0.06,same
0,429,catch,"[(1170, 778)]",[],[1],[],horizontal,"(890.0, 262.0)",1.7,nan,1,2739.985,1,0.06,same
0,430,catch,"[(1166, 788)]",[],[1],[],vertical,"(390.0, 762.0)",1.7,nan,1,2745.159,2,0.06,same
0,431,valid,"[(1133, 820)]",[],[1],[0.5166666666666666],vertical,"(890.0, 762.0)",0.9,0.477,1,2751.004,2,0.06,same
0,432,valid,"[(1135, 811)]",[],[1],[0.48333333333333334],horizontal,"(890.0, 762.0)",1.5,0.439,1,2756.569,2,0.06,same
0,433,valid,"[(1136, 802)]",[],[1],[0.7166666666666667],horizontal,"(890.0, 262.0)",0.95,0.67,1,2762.417,3,0.06,same
0,434,catch,"[(1170, 781)]",[],[1],[],vertical,"(390.0, 262.0)",1.7,nan,1,2768.657,3,0.04,same
0,435,catch,"[(1169, 780)]",[],[1],[],vertical,"(390.0, 762.0)",1.7,nan,1,2774.617,3,0.02,same
0,436,catch,"[(1130, 789)]",[],[1],[],horizontal,"(890.0, 762.0)",1.7,nan,1,2780.655,3,0.0,same
0,437,catch,"[(1135, 790)]",[],[1],[],horizontal,"(890.0, 762.0)",1.7,nan,1,2787.002,3,0.0,same
0,438,valid,"[(1162, 806)]",[],[1],[0.5],horizontal,"(890.0, 762.0)",0.5666666666666667,0.455,1,2792.955,3,0.0,same
0,439,valid,"[(1133, 815)]",[],[1],[0.55],vertical,"(890.0, 762.0)",1.0,0.507,1,2797.907,3,0.0,same
0,440,valid,"[(1142, 796)]",[],[1],[0.6333333333333333],vertical,"(390.0, 762.0)",1.4833333333333334,0.588,1,2803.652,3,0.0,same
0,441,invalid_adjacent_other_bar,"[(1136, 773)]",[],[1],[0.5],horizontal,"(390.0, 262.0)",1.1666666666666667,0.452,1,2810.296,3,0.0,other
0,442,valid,"[(1154, 791)]",[],[1],[0.5],horizontal,"(890.0, 762.0)",1.5333333333333332,0.459,1,2816.119,3,0.0,same
0,443,catch,"[(1170, 786)]",[],[1],[],horizontal,"(390.0, 762.0)",1.7,nan,1,2822.7,3,0.0,same
0,444,valid,"[(1174, 778)]",[],[1],[0.5],vertical,"(890.0, 762.0)",0.43333333333333335,0.455,1,2829.2,3,0.0,same
0,445,catch,"[(1132, 792)]",[],[1],[],vertical,"(890.0, 762.0)",1.7,nan,1,2834.619,3,0.0,same
0,446,valid,"[(1135, 786)]",[],[1],[0.5833333333333334],vertical,"(890.0, 262.0)",0.8,0.542,1,2840.252,3,0.0,same
0,447,catch,"[(1168, 795)]",[],[1],[],vertical,"(390.0, 262.0)",1.7,nan,1,2846.113,3,0.0,same
0,448,catch,"[(1175, 787)]",[],[1],[],horizontal,"(890.0, 762.0)",,"('cti', 1.626),nan",0,2852.286,0,0.02,same
0,449,valid,"[(1149, 805)]",[],[1],[0.5833333333333334],horizontal,"(390.0, 762.0)",0.8,0.542,1,2856.969,1,0.02,same
0,450,invalid_adjacent_other_bar,"[(1175, 783)]",[],[1],[0.6833333333333333],horizontal,"(390.0, 262.0)",0.6666666666666666,0.636,1,2861.693,1,0.02,other
0,451,invalid_same_bar,"[(1131, 772)]",[],[1],[0.5333333333333333],vertical,"(890.0, 762.0)",0.5,0.488,1,2866.568,1,0.02,same
0,452,valid,"[(1170, 781)]",[],[1],[0.45],vertical,"(890.0, 262.0)",1.3,0.408,1,2870.914,2,0.02,same
0,453,valid,"[(1160, 773)]",[],[1],[0.5],horizontal,"(390.0, 262.0)",1.0833333333333333,0.462,1,2877.151,2,0.02,same
0,454,catch,"[(1169, 782)]",[],[1],[],horizontal,"(390.0, 262.0)",1.7,nan,1,2882.603,2,0.02,same
0,455,valid,"[(1160, 782)]",[],[1],[0.5833333333333334],vertical,"(390.0, 762.0)",1.5333333333333332,0.539,1,2888.598,3,0.02,same
0,456,valid,"[(1145, 773)]",[],[1],[0.65],horizontal,"(390.0, 262.0)",0.8,0.606,1,2895.368,3,0.02,same
0,457,catch,"[(1160, 778)]",[],[1],[],vertical,"(890.0, 262.0)",1.7,nan,1,2900.776,3,0.02,same
0,458,valid,"[(1166, 795)]",[],[1],[0.6],vertical,"(390.0, 262.0)",0.6,0.559,1,2906.953,3,0.02,same
0,459,catch,"[(1170, 790)]",[],[1],[],horizontal,"(390.0, 262.0)",1.7,nan,1,2912.575,3,0.02,same
0,460,valid,"[(1135, 775)]",[],[1],[0.6],horizontal,"(390.0, 762.0)",0.9666666666666667,0.555,1,2918.99,3,0.02,same
0,461,valid,"[(1165, 781)]",[],[1],[0.5333333333333333],horizontal,"(890.0, 262.0)",1.2666666666666666,0.491,1,2925.203,3,0.02,same
0,462,catch,"[(1146, 789)]",[],[1],[],horizontal,"(390.0, 762.0)",1.7,nan,1,2931.632,3,0.02,same
0,463,valid,"[(1165, 781)]",[],[1],[0.7833333333333333],horizontal,"(890.0, 762.0)",1.0833333333333333,0.737,1,2937.877,3,0.02,same
0,464,valid,"[(1135, 787)]",[],[1],[0.5666666666666667],vertical,"(390.0, 762.0)",0.7166666666666667,0.531,1,2943.801,3,0.02,same
0,465,valid,"[(1135, 782)]",[],[1],[0.65],horizontal,"(390.0, 762.0)",1.5333333333333332,0.606,1,2949.302,3,0.02,same
0,466,valid,"[(1135, 776)]",[],[1],[0.6833333333333333],vertical,"(390.0, 762.0)",0.35,0.65,1,2955.57,3,0.02,same
0,467,valid,"[(1182, 777)]",[],[1],[0.55],vertical,"(890.0, 762.0)",1.35,0.51,1,2960.779,3,0.02,same
0,468,invalid_same_bar,"[(1156, 782)]",[],[1],[0.6166666666666667],horizontal,"(890.0, 262.0)",0.8166666666666667,0.581,1,2966.862,3,0.02,same
0,469,valid,"[(1167, 788)]",[],[1],[0.6166666666666667],horizontal,"(390.0, 762.0)",0.8,0.569,1,2972.967,3,0.02,same
0,470,invalid_adjacent_other_bar,"[(1157, 786)]",[],[1],[0.55],horizontal,"(890.0, 762.0)",1.4,0.512,1,2978.486,3,0.02,other
0,471,catch,"[(1135, 786)]",[],[1],[],vertical,"(890.0, 262.0)",1.7,nan,1,2984.553,3,0.02,same
0,472,invalid_adjacent_other_bar,"[(1165, 802)]",[],[1],[0.6833333333333333],horizontal,"(390.0, 762.0)",1.3666666666666667,0.638,1,2990.486,3,0.02,other
0,473,catch,"[(1167, 808)]",[],[1],[],vertical,"(890.0, 262.0)",1.7,nan,1,2996.989,3,0.02,same
0,474,invalid_same_bar,"[(1130, 880)]",[],[1],[0.5166666666666666],vertical,"(390.0, 262.0)",1.35,0.475,1,3002.904,3,0.02,same
0,475,catch,"[(1121, 809)]",[],[1],[],horizontal,"(390.0, 762.0)",1.7,nan,1,3079.706,3,0.02,same
0,476,valid,"[(1155, 802)]",[],[1],[0.5333333333333333],horizontal,"(890.0, 762.0)",0.5333333333333333,0.497,1,3086.087,3,0.02,same
0,477,valid,"[(1160, 806)]",[],[1],[0.5333333333333333],horizontal,"(390.0, 262.0)",1.0,0.492,1,3091.397,3,0.02,same
0,478,catch,"[(1134, 815)]",[],[1],[],vertical,"(390.0, 262.0)",1.7,nan,1,3096.836,3,0.02,same
0,479,valid,"[(1169, 802)]",[],[1],[0.5333333333333333],horizontal,"(390.0, 762.0)",1.3,0.495,1,3103.244,3,0.02,same
0,480,invalid_same_bar,"[(1131, 794)]",[],[1],[0.6333333333333333],vertical,"(890.0, 262.0)",1.0166666666666666,0.588,1,3109.419,3,0.02,same
0,481,valid,"[(1149, 820)]",[],[1],[0.65],vertical,"(890.0, 762.0)",1.0666666666666667,0.613,1,3115.455,3,0.02,same
0,482,valid,"[(1161, 810)]",[],[1],[0.5666666666666667],horizontal,"(390.0, 762.0)",1.5,0.531,1,3121.754,3,0.02,same
0,483,valid,"[(1158, 778)]",[],[1],[0.6666666666666666],vertical,"(390.0, 262.0)",1.3166666666666667,0.629,1,3127.91,3,0.02,same
0,484,valid,"[(1170, 797)]",[],[1],[0.45],horizontal,"(390.0, 262.0)",1.4,0.414,1,3134.553,3,0.02,same
0,485,valid,"[(1141, 801)]",[],[1],[0.36666666666666664],horizontal,"(390.0, 762.0)",1.5166666666666666,0.33,1,3140.97,3,0.02,same
0,486,valid,"[(1165, 793)]",[],[1],[0.5666666666666667],horizontal,"(390.0, 262.0)",0.65,0.53,1,3147.35,3,0.02,same
0,487,valid,"[(1135, 801)]",[],[1],[0.7666666666666666],horizontal,"(890.0, 762.0)",0.4,0.728,1,3152.754,3,0.02,same
0,488,valid,"[(1165, 797)]",[],[1],[0.5333333333333333],vertical,"(390.0, 262.0)",0.95,0.494,1,3158.482,3,0.02,same
0,489,valid,"[(1165, 791)]",[],[1],[0.5666666666666667],vertical,"(890.0, 762.0)",1.2166666666666666,0.522,1,3164.071,3,0.02,same
0,490,catch,"[(1150, 833)]",[],[1],[],vertical,"(890.0, 762.0)",1.7,nan,1,3170.052,3,0.02,same
0,491,catch,"[(1165, 799)]",[],[1],[],horizontal,"(890.0, 262.0)",1.7,nan,1,3176.254,3,0.02,same
0,492,catch,"[(1135, 803)]",[],[1],[],vertical,"(390.0, 762.0)",1.7,nan,1,3182.053,3,0.02,same
0,493,valid,"[(1165, 805)]",[],[1],[0.5166666666666666],vertical,"(890.0, 262.0)",1.5333333333333332,0.476,1,3188.065,3,0.02,same
0,494,valid,"[(1144, 786)]",[],[1],[0.7333333333333333],horizontal,"(890.0, 762.0)",1.5,0.688,1,3194.187,3,0.02,same
0,495,valid,"[(1165, 783)]",[],[1],[0.6666666666666666],horizontal,"(890.0, 262.0)",1.4,0.62,1,3200.853,3,0.02,same
0,496,invalid_adjacent_other_bar,"[(1135, 788)]",[],[1],[0.5666666666666667],horizontal,"(890.0, 262.0)",1.2833333333333332,0.525,1,3207.286,3,0.02,other
0,497,valid,"[(1165, 799)]",[],[1],[0.5666666666666667],vertical,"(890.0, 262.0)",0.8166666666666667,0.527,1,3213.725,3,0.02,same
0,498,catch,"[(1135, 787)]",[],[1],[],horizontal,"(890.0, 762.0)",1.7,nan,1,3219.609,3,0.0,same
0,499,invalid_same_bar,"[(1147, 807)]",[],[1],[0.48333333333333334],vertical,"(890.0, 262.0)",0.75,0.449,1,3226.105,3,0.0,same
0,500,valid,"[(1163, 779)]",[],[1],[0.6333333333333333],vertical,"(890.0, 762.0)",1.1833333333333333,0.589,1,3231.504,3,0.0,same
0,501,valid,"[(1138, 814)]",[],[1],[0.55],vertical,"(890.0, 262.0)",0.5333333333333333,0.509,1,3237.712,3,0.0,same
0,502,invalid_adjacent_other_bar,"[(1135, 791)]",[],[1],[0.7333333333333333],horizontal,"(890.0, 762.0)",1.3666666666666667,0.691,1,3242.798,3,0.0,other
0,503,valid,"[(1165, 801)]",[],[1],[0.55],horizontal,"(390.0, 262.0)",1.4333333333333333,0.511,1,3249.464,3,0.0,same
0,504,valid,"[(1160, 803)]",[],[1],[0.55],horizontal,"(390.0, 262.0)",0.8,0.511,1,3255.756,3,0.0,same
0,505,valid,"[(1165, 792)]",[],[1],[0.5333333333333333],vertical,"(890.0, 762.0)",1.2333333333333334,0.498,1,3261.552,3,0.0,same
0,506,valid,"[(1131, 787)]",[],[1],[0.5166666666666666],horizontal,"(390.0, 262.0)",1.25,0.474,1,3267.58,3,0.0,same
0,507,valid,"[(1138, 797)]",[],[1],[0.6],vertical,"(890.0, 762.0)",1.1166666666666667,0.561,1,3273.861,3,0.0,same
0,508,catch,"[(1129, 816)]",[],[1],[],horizontal,"(390.0, 762.0)",1.7,nan,1,3280.03,3,0.0,same
0,509,valid,"[(1169, 802)]",[],[1],[0.6166666666666667],vertical,"(390.0, 762.0)",1.1666666666666667,0.576,1,3286.22,3,0.0,same
0,510,invalid_same_bar,"[(1165, 786)]",[],[1],[0.5333333333333333],vertical,"(390.0, 762.0)",0.55,0.491,1,3292.287,3,0.0,same
0,511,valid,"[(1135, 776)]",[],[1],[0.65],vertical,"(390.0, 762.0)",0.7,0.606,1,3297.688,3,0.0,same
0,512,valid,"[(1149, 790)]",[],[1],[0.7166666666666667],vertical,"(390.0, 762.0)",1.1833333333333333,0.668,1,3303.143,3,0.0,same
0,513,invalid_adjacent_other_bar,"[(1168, 783)]",[],[1],[0.85],horizontal,"(390.0, 762.0)",1.2,nan,0,3309.385,0,0.0,other
0,514,valid,"[(1116, 790)]",[],[1],[0.55],vertical,"(890.0, 262.0)",0.8,0.511,1,3314.537,1,0.0,same
0,515,catch,"[(1120, 826)]",[],[1],[],horizontal,"(390.0, 262.0)",1.7,nan,1,3319.384,1,0.0,same
0,516,catch,"[(1160, 786)]",[],[1],[],vertical,"(390.0, 262.0)",1.7,"('cti', 1.699),nan",0,3325.663,0,0.02,same
0,517,valid,"[(1149, 780)]",[],[1],[0.5333333333333333],vertical,"(890.0, 762.0)",0.36666666666666664,0.496,1,3330.755,1,0.02,same
0,518,valid,"[(1165, 804)]",[],[1],[0.5666666666666667],vertical,"(890.0, 262.0)",0.7,0.529,1,3335.271,1,0.02,same
0,519,valid,"[(1165, 794)]",[],[1],[0.6333333333333333],vertical,"(390.0, 262.0)",1.3666666666666667,0.593,1,3340.459,1,0.02,same
0,520,valid,"[(1134, 778)]",[],[1],[0.55],horizontal,"(390.0, 262.0)",0.5166666666666666,0.509,1,3346.005,2,0.02,same
0,521,valid,"[(1135, 778)]",[],[1],[0.75],horizontal,"(390.0, 262.0)",1.3666666666666667,0.707,1,3351.266,2,0.02,same
0,522,valid,"[(1136, 796)]",[],[1],[0.55],vertical,"(890.0, 762.0)",1.5333333333333332,0.507,1,3357.516,2,0.02,same
0,523,catch,"[(1136, 780)]",[],[1],[],horizontal,"(890.0, 262.0)",1.7,nan,1,3363.614,3,0.02,same
0,524,valid,"[(1165, 792)]",[],[1],[0.65],horizontal,"(390.0, 762.0)",1.0,0.609,1,3369.54,3,0.02,same
0,525,catch,"[(1135, 801)]",[],[1],[],vertical,"(890.0, 762.0)",1.7,nan,1,3375.455,3,0.02,same
0,526,valid,"[(1135, 798)]",[],[1],[0.5333333333333333],vertical,"(390.0, 262.0)",0.8833333333333333,0.494,1,3381.688,3,0.02,same
0,527,valid,"[(1135, 793)]",[],[1],[0.5],horizontal,"(890.0, 262.0)",0.7666666666666666,0.466,1,3387.17,3,0.02,same
0,528,valid,"[(1136, 765)]",[],[1],[0.55],vertical,"(890.0, 762.0)",0.75,0.512,1,3392.456,3,0.02,same
0,529,valid,"[(1165, 768)]",[],[1],[0.5833333333333334],vertical,"(890.0, 762.0)",0.75,0.545,1,3397.903,3,0.02,same
0,530,valid,"[(1153, 811)]",[],[1],[0.6166666666666667],horizontal,"(390.0, 762.0)",1.0333333333333332,0.583,1,3403.419,3,0.02,same
0,531,valid,"[(1135, 805)]",[],[1],[0.5166666666666666],horizontal,"(390.0, 262.0)",1.2833333333333332,0.478,1,3409.858,3,0.02,same
0,532,valid,"[(1135, 791)]",[],[1],[0.75],horizontal,"(890.0, 762.0)",1.2833333333333332,0.717,1,3415.487,3,0.02,same
0,533,catch,"[(1163, 781)]",[],[1],[],horizontal,"(390.0, 262.0)",1.7,nan,1,3421.68,3,0.02,same
0,534,valid,"[(1165, 797)]",[],[1],[0.5666666666666667],horizontal,"(390.0, 262.0)",0.8333333333333334,0.521,1,3427.681,3,0.02,same
0,535,valid,"[(1168, 781)]",[],[1],[0.5166666666666666],vertical,"(390.0, 762.0)",0.8333333333333334,0.476,1,3433.716,3,0.02,same
0,536,catch,"[(1168, 790)]",[],[1],[],horizontal,"(390.0, 762.0)",1.7,nan,1,3439.222,3,0.02,same
0,537,valid,"[(1132, 796)]",[],[1],[0.6833333333333333],vertical,"(890.0, 762.0)",1.2666666666666666,0.645,1,3445.367,3,0.02,same
0,538,valid,"[(1150, 777)]",[],[1],[0.6333333333333333],horizontal,"(890.0, 262.0)",0.9666666666666667,0.594,1,3451.82,3,0.02,same
0,539,valid,"[(1098, 826)]",[],[1],[0.85],horizontal,"(890.0, 262.0)",0.5833333333333334,nan,0,3457.504,0,0.02,same
0,540,valid,"[(1126, 800)]",[],[1],[0.5333333333333333],vertical,"(890.0, 762.0)",0.7,0.497,1,3464.439,1,0.02,same
0,541,catch,"[(1125, 803)]",[],[1],[],horizontal,"(890.0, 762.0)",1.7,nan,1,3469.337,1,0.02,same
0,542,catch,"[(1122, 805)]",[],[1],[],horizontal,"(890.0, 262.0)",1.7,nan,1,3474.77,1,0.02,same
0,543,catch,"[(1165, 835)]",[],[1],[],vertical,"(390.0, 262.0)",1.7,nan,1,3480.232,2,0.02,same
0,544,valid,"[(1160, 796)]",[],[1],[0.6166666666666667],horizontal,"(890.0, 262.0)",1.4666666666666666,0.575,1,3485.988,2,0.02,same
0,545,valid,"[(1133, 780)]",[],[1],[0.5],horizontal,"(390.0, 762.0)",1.35,0.466,1,3491.638,2,0.02,same
0,546,valid,"[(1165, 803)]",[],[1],[0.5166666666666666],vertical,"(390.0, 262.0)",1.3333333333333333,0.479,1,3497.053,3,0.02,same
0,547,catch,"[(1165, 796)]",[],[1],[],vertical,"(890.0, 262.0)",1.7,nan,1,3503.521,3,0.02,same
0,548,catch,"[(1150, 782)]",[],[1],[],horizontal,"(390.0, 262.0)",1.7,nan,1,3509.288,3,0.02,same
0,549,valid,"[(1165, 801)]",[],[1],[0.5],vertical,"(890.0, 262.0)",0.6333333333333333,0.455,1,3514.987,3,0.02,same
0,550,catch,"[(1170, 787)]",[],[1],[],horizontal,"(890.0, 262.0)",1.7,nan,1,3520.373,3,0.02,same
0,551,valid,"[(1165, 782)]",[],[1],[0.6166666666666667],vertical,"(890.0, 262.0)",0.5333333333333333,0.569,1,3526.422,3,0.02,same
0,552,valid,"[(1165, 788)]",[],[1],[0.48333333333333334],horizontal,"(890.0, 762.0)",0.8,0.451,1,3532.086,3,0.02,same
0,553,valid,"[(1160, 805)]",[],[1],[0.85],vertical,"(890.0, 262.0)",0.8833333333333333,nan,0,3537.654,0,0.02,same
0,554,catch,"[(1131, 774)]",[],[1],[],horizontal,"(390.0, 762.0)",1.7,nan,1,3542.422,1,0.02,same
0,555,valid,"[(1160, 780)]",[],[1],[0.6833333333333333],vertical,"(390.0, 762.0)",1.15,0.641,1,3547.904,1,0.02,same
0,556,valid,"[(1160, 802)]",[],[1],[0.5333333333333333],vertical,"(890.0, 762.0)",1.4666666666666666,0.492,1,3553.144,1,0.02,same
0,557,catch,"[(1170, 795)]",[],[1],[],horizontal,"(390.0, 762.0)",1.7,nan,1,3558.571,2,0.02,same
0,558,catch,"[(1168, 775)]",[],[1],[],horizontal,"(390.0, 262.0)",1.7,nan,1,3564.313,2,0.02,same
0,559,invalid_same_bar,"[(1127, 800)]",[],[1],[0.5333333333333333],horizontal,"(390.0, 262.0)",1.05,0.491,1,3570.288,2,0.02,same
0,560,catch,"[(1135, 814)]",[],[1],[],vertical,"(890.0, 262.0)",1.7,nan,1,3575.849,3,0.02,same
0,561,valid,"[(1160, 794)]",[],[1],[0.5],horizontal,"(890.0, 262.0)",0.48333333333333334,0.457,1,3582.118,3,0.02,same
0,562,valid,"[(1169, 786)]",[],[1],[0.5333333333333333],vertical,"(390.0, 262.0)",0.3833333333333333,0.488,1,3587.437,3,0.02,same
0,563,catch,"[(1168, 779)]",[],[1],[],horizontal,"(390.0, 762.0)",1.7,nan,1,3592.394,3,0.02,same
0,564,valid,"[(1170, 786)]",[],[1],[0.65],horizontal,"(890.0, 262.0)",0.7,0.605,1,3598.221,3,0.02,same
0,565,valid,"[(1155, 796)]",[],[1],[0.4666666666666667],horizontal,"(890.0, 262.0)",1.35,0.431,1,3603.691,3,0.02,same
0,566,catch,"[(1165, 781)]",[],[1],[],horizontal,"(390.0, 762.0)",1.7,nan,1,3610.019,3,0.0,same
0,567,invalid_same_bar,"[(1165, 784)]",[],[1],[0.5333333333333333],horizontal,"(390.0, 762.0)",1.5,0.5,1,3615.938,3,0.0,same
0,568,valid,"[(1165, 785)]",[],[1],[0.5],vertical,"(390.0, 262.0)",0.6166666666666667,0.455,1,3621.971,3,0.0,same
0,569,catch,"[(1169, 785)]",[],[1],[],horizontal,"(390.0, 262.0)",1.7,nan,1,3627.222,3,0.0,same
0,570,invalid_adjacent_other_bar,"[(1169, 789)]",[],[1],[0.55],horizontal,"(390.0, 262.0)",0.5833333333333334,0.507,1,3633.357,3,0.0,other
0,571,catch,"[(1138, 777)]",[],[1],[],vertical,"(890.0, 762.0)",1.7,nan,1,3638.355,3,0.0,same
0,572,invalid_adjacent_other_bar,"[(1170, 809)]",[],[1],[0.6],horizontal,"(890.0, 262.0)",1.2666666666666666,0.559,1,3644.602,3,0.0,other
0,573,valid,"[(1165, 780)]",[],[1],[0.85],horizontal,"(390.0, 762.0)",0.4666666666666667,nan,0,3651.346,0,0.0,same
0,574,catch,"[(1135, 781)]",[],[1],[],horizontal,"(390.0, 762.0)",1.7,nan,1,3655.957,1,0.0,same
0,575,valid,"[(1115, 786)]",[],[1],[0.65],vertical,"(390.0, 262.0)",1.0,0.602,1,3661.288,1,0.0,same
0,576,valid,"[(1163, 802)]",[],[1],[0.5833333333333334],horizontal,"(390.0, 762.0)",0.7166666666666667,0.536,1,3677.457,1,0.0,same
0,577,valid,"[(1175, 814)]",[],[1],[0.5166666666666666],vertical,"(890.0, 762.0)",0.48333333333333334,0.474,1,3682.815,2,0.0,same
0,578,catch,"[(1164, 796)]",[],[1],[],horizontal,"(390.0, 262.0)",1.7,nan,1,3687.612,2,0.0,same
0,579,valid,"[(1160, 801)]",[],[1],[0.48333333333333334],horizontal,"(890.0, 762.0)",1.3333333333333333,0.446,1,3693.337,2,0.0,same
0,580,invalid_adjacent_other_bar,"[(1165, 781)]",[],[1],[0.6166666666666667],horizontal,"(890.0, 762.0)",1.1333333333333333,0.579,1,3698.488,3,0.0,other
0,581,invalid_same_bar,"[(1168, 776)]",[],[1],[0.5166666666666666],vertical,"(890.0, 262.0)",0.85,0.476,1,3704.654,3,0.0,same
0,582,catch,"[(1170, 777)]",[],[1],[],horizontal,"(890.0, 762.0)",1.7,nan,1,3710.051,3,0.0,same
0,583,valid,"[(1169, 791)]",[],[1],[0.5166666666666666],horizontal,"(390.0, 262.0)",0.6666666666666666,0.475,1,3716.021,3,0.0,same
0,584,catch,"[(1145, 779)]",[],[1],[],horizontal,"(390.0, 262.0)",1.7,nan,1,3721.334,3,0.0,same
0,585,catch,"[(1169, 783)]",[],[1],[],horizontal,"(390.0, 762.0)",1.7,nan,1,3727.072,3,0.0,same
0,586,valid,"[(1165, 795)]",[],[1],[0.5166666666666666],vertical,"(890.0, 262.0)",0.5,0.475,1,3732.839,3,0.0,same
0,587,invalid_same_bar,"[(1137, 804)]",[],[1],[0.85],horizontal,"(890.0, 762.0)",0.65,nan,0,3737.905,0,0.0,same
0,588,valid,"[(1145, 792)]",[],[1],[0.85],vertical,"(890.0, 762.0)",0.45,nan,0,3742.256,0,0.0,same
0,589,catch,"[(1112, 828)]",[],[1],[],horizontal,"(390.0, 762.0)",1.7,nan,1,3746.805,1,0.0,same
0,590,valid,"[(1165, 816)]",[],[1],[0.5833333333333334],vertical,"(390.0, 262.0)",1.05,0.536,1,3751.971,1,0.0,same
0,591,valid,"[(1168, 801)]",[],[1],[0.5666666666666667],vertical,"(390.0, 762.0)",1.4666666666666666,0.527,1,3756.772,1,0.0,same
0,592,catch,"[(1158, 786)]",[],[1],[],horizontal,"(890.0, 762.0)",1.7,nan,1,3762.489,2,0.0,same
0,593,invalid_same_bar,"[(1158, 792)]",[],[1],[0.6166666666666667],horizontal,"(390.0, 762.0)",1.2666666666666666,0.577,1,3768.488,2,0.0,same
0,594,valid,"[(1140, 787)]",[],[1],[0.5],vertical,"(890.0, 262.0)",1.45,0.456,1,3774.173,2,0.0,same
0,595,valid,"[(1137, 783)]",[],[1],[0.55],horizontal,"(890.0, 262.0)",0.4,0.505,1,3780.091,3,0.0,same
0,596,catch,"[(1164, 773)]",[],[1],[],horizontal,"(390.0, 762.0)",1.7,nan,1,3785.372,3,0.0,same
0,597,valid,"[(1168, 808)]",[],[1],[0.7333333333333333],horizontal,"(890.0, 762.0)",1.4333333333333333,0.682,1,3791.481,3,0.0,same
0,598,invalid_adjacent_other_bar,"[(1150, 785)]",[],[1],[0.6333333333333333],vertical,"(890.0, 762.0)",1.1666666666666667,0.591,1,3797.738,3,0.0,other
0,599,valid,"[(1105, 854)]",[],[1],[0.5833333333333334],horizontal,"(390.0, 262.0)",1.15,0.533,1,3804.101,3,0.0,same
0,600,valid,"[(1119, 796)]",[],[1],[0.5166666666666666],vertical,"(890.0, 262.0)",1.0833333333333333,0.472,1,3893.556,3,0.0,same
0,601,valid,"[(1163, 787)]",[],[1],[0.6],horizontal,"(890.0, 762.0)",0.9666666666666667,0.554,1,3899.739,3,0.0,same
0,602,invalid_same_bar,"[(1150, 780)]",[],[1],[0.5166666666666666],horizontal,"(390.0, 262.0)",0.4166666666666667,0.473,1,3905.749,3,0.0,same
0,603,catch,"[(1162, 758)]",[],[1],[],horizontal,"(390.0, 762.0)",1.7,nan,1,3910.991,3,0.0,same
0,604,valid,"[(1155, 798)]",[],[1],[0.5666666666666667],vertical,"(390.0, 262.0)",0.65,0.526,1,3916.706,3,0.0,same
0,605,valid,"[(1165, 791)]",[],[1],[0.5333333333333333],vertical,"(390.0, 262.0)",0.48333333333333334,0.491,1,3921.695,3,0.0,same
0,606,valid,"[(1155, 779)]",[],[1],[0.55],vertical,"(390.0, 762.0)",0.9166666666666666,0.507,1,3926.488,3,0.0,same
0,607,invalid_adjacent_other_bar,"[(1162, 783)]",[],[1],[0.6166666666666667],horizontal,"(390.0, 762.0)",0.8,0.572,1,3932.337,3,0.0,other
0,608,valid,"[(1140, 792)]",[],[1],[0.75],vertical,"(890.0, 762.0)",0.6166666666666667,0.703,1,3938.155,3,0.0,same
0,609,invalid_adjacent_other_bar,"[(1163, 800)]",[],[1],[0.85],vertical,"(390.0, 762.0)",1.5166666666666666,nan,0,3943.671,0,0.0,other
0,610,valid,"[(1145, 791)]",[],[1],[0.65],horizontal,"(390.0, 762.0)",1.4166666666666667,0.603,1,3949.193,1,0.0,same
0,611,invalid_same_bar,"[(1131, 817)]",[],[1],[0.5833333333333334],horizontal,"(390.0, 262.0)",0.48333333333333334,0.54,1,3954.722,1,0.0,same
0,612,valid,"[(1087, 823)]",[],[1],[0.85],vertical,"(390.0, 262.0)",1.1833333333333333,nan,0,3959.461,0,0.0,same
0,613,invalid_adjacent_other_bar,"[(1115, 810)]",[],[1],[0.5333333333333333],horizontal,"(890.0, 762.0)",0.8166666666666667,0.489,1,3964.495,1,0.0,other
0,614,valid,"[(1155, 778)]",[],[1],[0.55],horizontal,"(890.0, 262.0)",0.75,0.512,1,3969.179,1,0.0,same
0,615,valid,"[(1158, 786)]",[],[1],[0.85],horizontal,"(390.0, 762.0)",0.43333333333333335,nan,0,3973.739,0,0.0,same
0,616,valid,"[(1099, 837)]",[],[1],[0.5333333333333333],vertical,"(890.0, 262.0)",1.0666666666666667,0.492,1,3977.775,1,0.0,same
0,617,valid,"[(1156, 795)]",[],[1],[0.6166666666666667],vertical,"(390.0, 262.0)",0.9833333333333333,0.574,1,3982.845,1,0.0,same
0,618,valid,"[(1149, 806)]",[],[1],[0.4666666666666667],vertical,"(890.0, 262.0)",0.45,0.426,1,3987.322,1,0.0,same
0,619,valid,"[(1162, 781)]",[],[1],[0.4666666666666667],vertical,"(890.0, 262.0)",1.4666666666666666,0.427,1,3991.898,2,0.0,same
0,620,valid,"[(1125, 800)]",[],[1],[0.5],vertical,"(890.0, 762.0)",0.3833333333333333,0.46,1,3997.932,2,0.0,same
0,621,valid,"[(1135, 811)]",[],[1],[0.5166666666666666],vertical,"(390.0, 762.0)",0.55,0.472,1,4002.972,2,0.0,same
0,622,valid,"[(1158, 815)]",[],[1],[0.6166666666666667],vertical,"(390.0, 262.0)",0.8833333333333333,0.572,1,4008.291,3,0.0,same
0,623,valid,"[(1140, 817)]",[],[1],[0.4666666666666667],vertical,"(390.0, 262.0)",1.0833333333333333,0.429,1,4014.355,3,0.0,same
0,624,invalid_adjacent_other_bar,"[(1143, 806)]",[],[1],[0.5333333333333333],vertical,"(890.0, 762.0)",1.1833333333333333,0.488,1,4020.173,3,0.0,other
0,625,valid,"[(1133, 815)]",[],[1],[0.5666666666666667],vertical,"(390.0, 762.0)",0.9,0.532,1,4026.346,3,0.0,same
0,626,catch,"[(1133, 782)]",[],[1],[],horizontal,"(890.0, 262.0)",1.7,nan,1,4031.907,3,0.0,same
0,627,catch,"[(1157, 799)]",[],[1],[],horizontal,"(390.0, 762.0)",1.7,nan,1,4037.992,3,0.0,same
0,628,catch,"[(1160, 788)]",[],[1],[],horizontal,"(890.0, 762.0)",1.7,nan,1,4043.89,3,0.0,same
0,629,valid,"[(1163, 808)]",[],[1],[0.85],vertical,"(890.0, 762.0)",1.4,nan,0,4049.806,0,0.0,same
0,630,catch,"[(1155, 801)]",[],[1],[],horizontal,"(890.0, 262.0)",1.7,nan,1,4055.184,1,0.0,same
0,631,valid,"[(1175, 791)]",[],[1],[0.6666666666666666],horizontal,"(390.0, 762.0)",1.2166666666666666,0.619,1,4060.113,1,0.0,same
0,632,valid,"[(1150, 783)]",[],[1],[0.48333333333333334],horizontal,"(390.0, 762.0)",0.6833333333333333,0.439,1,4065.339,1,0.0,same
0,633,valid,"[(1173, 791)]",[],[1],[0.85],horizontal,"(890.0, 762.0)",0.6666666666666666,nan,0,4069.993,0,0.0,same
0,634,catch,"[(1135, 788)]",[],[1],[],horizontal,"(890.0, 762.0)",1.7,nan,1,4074.867,1,0.0,same
0,635,valid,"[(1148, 782)]",[],[1],[0.5166666666666666],vertical,"(390.0, 762.0)",0.7,0.474,1,4080.106,1,0.0,same
0,636,valid,"[(1163, 796)]",[],[1],[0.5333333333333333],horizontal,"(890.0, 262.0)",0.8666666666666667,0.489,1,4084.989,1,0.0,same
0,637,catch,"[(1170, 785)]",[],[1],[],vertical,"(890.0, 762.0)",1.7,nan,1,4089.901,2,0.0,same
0,638,valid,"[(1165, 794)]",[],[1],[0.85],horizontal,"(390.0, 262.0)",1.2,nan,0,4095.668,0,0.0,same
0,639,catch,"[(1158, 786)]",[],[1],[],vertical,"(390.0, 262.0)",1.7,nan,1,4101.069,1,0.0,same
0,640,valid,"[(1135, 777)]",[],[1],[0.5666666666666667],vertical,"(390.0, 262.0)",0.43333333333333335,0.525,1,4106.431,1,0.0,same
0,641,catch,"[(1132, 808)]",[],[1],[],vertical,"(890.0, 762.0)",1.7,nan,1,4111.022,1,0.0,same
0,642,valid,"[(1163, 813)]",[],[1],[0.5666666666666667],horizontal,"(890.0, 762.0)",1.35,0.533,1,4116.619,2,0.0,same
0,643,valid,"[(1159, 799)]",[],[1],[0.48333333333333334],vertical,"(890.0, 762.0)",0.55,0.436,1,4122.406,2,0.0,same
0,644,valid,"[(1160, 795)]",[],[1],[0.6],horizontal,"(390.0, 762.0)",1.3166666666666667,0.555,1,4127.388,2,0.0,same
0,645,valid,"[(1158, 781)]",[],[1],[0.65],vertical,"(890.0, 262.0)",1.25,0.614,1,4133.436,3,0.0,same
0,646,valid,"[(1167, 781)]",[],[1],[0.6333333333333333],vertical,"(390.0, 762.0)",0.7666666666666666,0.59,1,4140.106,3,0.0,same
0,647,valid,"[(1166, 789)]",[],[1],[0.48333333333333334],vertical,"(390.0, 762.0)",0.65,0.439,1,4145.922,3,0.0,same
0,648,catch,"[(1165, 786)]",[],[1],[],vertical,"(890.0, 262.0)",1.7,nan,1,4151.223,3,0.0,same
0,649,valid,"[(1160, 789)]",[],[1],[0.5833333333333334],horizontal,"(890.0, 262.0)",1.15,0.543,1,4157.023,3,0.0,same
0,650,valid,"[(1161, 785)]",[],[1],[0.65],horizontal,"(390.0, 262.0)",1.4,0.609,1,4162.823,3,0.0,same
0,651,catch,"[(1164, 782)]",[],[1],[],vertical,"(890.0, 762.0)",1.7,nan,1,4169.061,3,0.0,same
0,652,catch,"[(1133, 795)]",[],[1],[],vertical,"(390.0, 262.0)",1.7,nan,1,4174.719,3,0.0,same
0,653,valid,"[(1160, 792)]",[],[1],[0.5166666666666666],vertical,"(390.0, 262.0)",0.4166666666666667,0.484,1,4180.989,3,0.0,same
0,654,invalid_same_bar,"[(1135, 788)]",[],[1],[0.6],vertical,"(890.0, 262.0)",1.45,0.561,1,4186.495,3,0.0,same
0,655,valid,"[(1135, 806)]",[],[1],[0.6666666666666666],horizontal,"(890.0, 762.0)",1.05,0.622,1,4192.766,3,0.0,same
0,656,invalid_same_bar,"[(1159, 777)]",[],[1],[0.5],horizontal,"(390.0, 762.0)",1.5,0.464,1,4198.776,3,0.0,same
0,657,valid,"[(1123, 796)]",[],[1],[0.6166666666666667],vertical,"(890.0, 762.0)",1.4333333333333333,0.583,1,4205.24,3,0.0,same
0,658,valid,"[(1131, 800)]",[],[1],[0.5833333333333334],vertical,"(390.0, 262.0)",0.9166666666666666,0.539,1,4211.307,3,0.0,same
0,659,valid,"[(1135, 795)]",[],[1],[0.85],horizontal,"(890.0, 262.0)",0.5166666666666666,nan,0,4216.774,0,0.0,same
0,660,invalid_same_bar,"[(1135, 786)]",[],[1],[0.85],vertical,"(390.0, 262.0)",0.6,nan,0,4220.78,0,0.0,same
0,661,valid,"[(1165, 787)]",[],[1],[0.5],horizontal,"(890.0, 262.0)",0.7,0.452,1,4225.451,1,0.0,same
0,662,invalid_adjacent_other_bar,"[(1151, 782)]",[],[1],[0.5],horizontal,"(890.0, 262.0)",0.6,0.461,1,4230.339,1,0.0,other
0,663,catch,"[(1125, 806)]",[],[1],[],horizontal,"(390.0, 762.0)",1.7,nan,1,4235.049,1,0.0,same
0,664,valid,"[(1162, 772)]",[],[1],[0.6333333333333333],vertical,"(390.0, 762.0)",1.4666666666666666,0.595,1,4240.336,2,0.0,same
0,665,valid,"[(1132, 777)]",[],[1],[0.5833333333333334],horizontal,"(390.0, 262.0)",1.4,0.553,1,4246.279,2,0.0,same
0,666,valid,"[(1130, 782)]",[],[1],[0.85],horizontal,"(890.0, 762.0)",1.1333333333333333,nan,0,4251.939,0,0.0,same
0,667,catch,"[(1135, 782)]",[],[1],[],horizontal,"(390.0, 762.0)",1.7,nan,1,4256.757,1,0.0,same
0,668,invalid_same_bar,"[(1125, 788)]",[],[1],[0.6833333333333333],horizontal,"(890.0, 762.0)",1.5,0.642,1,4261.709,1,0.0,same
0,669,valid,"[(1141, 801)]",[],[1],[0.6833333333333333],vertical,"(890.0, 262.0)",0.6333333333333333,0.642,1,4267.298,1,0.0,same
0,670,valid,"[(1125, 782)]",[],[1],[0.5666666666666667],horizontal,"(390.0, 262.0)",1.35,0.521,1,4271.89,2,0.0,same
0,671,valid,"[(1164, 796)]",[],[1],[0.5666666666666667],horizontal,"(890.0, 762.0)",0.65,0.529,1,4278.106,2,0.0,same
0,672,valid,"[(1163, 788)]",[],[1],[0.5166666666666666],horizontal,"(390.0, 262.0)",0.9666666666666667,0.477,1,4282.867,2,0.0,same
0,673,valid,"[(1165, 767)]",[],[1],[0.5],vertical,"(390.0, 262.0)",0.43333333333333335,0.464,1,4288.224,3,0.0,same
0,674,valid,"[(1171, 782)]",[],[1],[0.5833333333333334],horizontal,"(390.0, 262.0)",0.5166666666666666,0.537,1,4294.028,3,0.0,same
0,675,valid,"[(1162, 785)]",[],[1],[0.5666666666666667],vertical,"(890.0, 262.0)",0.3833333333333333,0.527,1,4299.389,3,0.0,same
0,676,valid,"[(1167, 782)]",[],[1],[0.5333333333333333],vertical,"(890.0, 262.0)",0.36666666666666664,0.494,1,4304.189,3,0.0,same
0,677,valid,"[(1135, 775)]",[],[1],[0.55],vertical,"(890.0, 762.0)",1.1166666666666667,0.509,1,4309.523,3,0.0,same
0,678,valid,"[(1157, 799)]",[],[1],[0.5166666666666666],horizontal,"(390.0, 762.0)",0.8333333333333334,0.479,1,4315.444,3,0.0,same
0,679,valid,"[(1135, 786)]",[],[1],[0.5333333333333333],vertical,"(890.0, 262.0)",0.8833333333333333,0.489,1,4321.29,3,0.0,same
0,680,valid,"[(1165, 783)]",[],[1],[0.5166666666666666],horizontal,"(890.0, 262.0)",0.75,0.48,1,4327.207,3,0.0,same
0,681,valid,"[(1163, 803)]",[],[1],[0.5166666666666666],vertical,"(390.0, 262.0)",0.5833333333333334,0.472,1,4332.858,3,0.0,same
0,682,invalid_adjacent_other_bar,"[(1167, 782)]",[],[1],[0.6333333333333333],horizontal,"(890.0, 762.0)",0.4,0.592,1,4338.098,3,0.0,other
0,683,valid,"[(1141, 778)]",[],[1],[0.6166666666666667],horizontal,"(390.0, 262.0)",0.4166666666666667,0.57,1,4343.141,3,0.0,same
0,684,catch,"[(1167, 798)]",[],[1],[],vertical,"(390.0, 262.0)",1.7,nan,1,4348.649,3,0.0,same
0,685,valid,"[(1165, 790)]",[],[1],[0.6333333333333333],horizontal,"(890.0, 262.0)",0.9166666666666666,0.59,1,4354.69,3,0.0,same
0,686,valid,"[(1140, 753), (1130, 830)]",[],"[0, 1]",[0.55],vertical,"(890.0, 762.0)",1.4333333333333333,0.509,1,4360.408,3,0.0,same
0,687,valid,"[(1160, 782)]",[],[1],[0.6333333333333333],horizontal,"(890.0, 262.0)",0.3833333333333333,0.593,1,4368.608,3,0.0,same
0,688,valid,"[(1165, 772)]",[],[1],[0.6666666666666666],vertical,"(390.0, 762.0)",1.1166666666666667,0.62,1,4373.789,3,0.0,same
0,689,catch,"[(1170, 791)]",[],[1],[],vertical,"(390.0, 262.0)",1.7,nan,1,4380.107,3,0.0,same
0,690,catch,"[(1163, 781)]",[],[1],[],vertical,"(390.0, 262.0)",1.7,nan,1,4386.009,3,0.0,same
0,691,valid,"[(1160, 782)]",[],[1],[0.5833333333333334],horizontal,"(890.0, 262.0)",1.45,0.542,1,4392.339,3,0.0,same
0,692,valid,"[(1168, 777)]",[],[1],[0.5166666666666666],horizontal,"(390.0, 762.0)",0.9,0.478,1,4398.201,3,0.0,same
0,693,catch,"[(1160, 781)]",[],[1],[],horizontal,"(390.0, 262.0)",1.7,nan,1,4403.658,3,0.0,same
0,694,valid,"[(1131, 790)]",[],[1],[0.48333333333333334],horizontal,"(890.0, 262.0)",0.8166666666666667,0.451,1,4409.93,3,0.0,same
0,695,valid,"[(1134, 782)]",[],[1],[0.7333333333333333],horizontal,"(390.0, 262.0)",1.2666666666666666,0.693,1,4415.49,3,0.0,same
0,696,valid,"[(1135, 777)]",[],[1],[0.5333333333333333],vertical,"(890.0, 262.0)",1.5166666666666666,0.496,1,4421.507,3,0.0,same
0,697,valid,"[(1169, 787)]",[],[1],[0.55],vertical,"(890.0, 762.0)",1.15,0.509,1,4428.05,3,0.0,same
0,698,valid,"[(1153, 786)]",[],[1],[0.5],vertical,"(890.0, 262.0)",0.6166666666666667,0.458,1,4433.873,3,0.0,same
0,699,catch,"[(1171, 787)]",[],[1],[],horizontal,"(390.0, 762.0)",1.7,nan,1,4439.14,3,0.0,same
0,700,valid,"[(1160, 785)]",[],[1],[0.6666666666666666],vertical,"(890.0, 762.0)",0.5333333333333333,0.624,1,4444.918,3,0.0,same
0,701,invalid_same_bar,"[(1160, 780)]",[],[1],[0.5333333333333333],vertical,"(890.0, 762.0)",1.3333333333333333,0.494,1,4450.163,3,0.0,same
0,702,valid,"[(1165, 778)]",[],[1],[0.55],vertical,"(390.0, 762.0)",0.55,0.511,1,4455.889,3,0.0,same
0,703,valid,"[(1165, 803)]",[],[1],[0.6],vertical,"(390.0, 262.0)",1.1,0.568,1,4461.4,3,0.0,same
0,704,catch,"[(1167, 784)]",[],[1],[],horizontal,"(890.0, 762.0)",1.7,nan,1,4467.674,3,0.0,same
0,705,catch,"[(1133, 779)]",[],[1],[],vertical,"(890.0, 762.0)",1.7,nan,1,4473.877,3,0.0,same
0,706,valid,"[(1122, 832)]",[],[1],[0.48333333333333334],horizontal,"(890.0, 262.0)",1.1666666666666667,0.449,1,4480.044,3,0.0,same
0,707,valid,"[(1087, 852)]",[],[1],[0.4666666666666667],vertical,"(390.0, 262.0)",0.8833333333333333,0.426,1,4486.607,3,0.0,same
0,708,catch,"[(1086, 841)]",[],[1],[],vertical,"(390.0, 762.0)",1.7,nan,1,4492.684,3,0.0,same
0,709,catch,"[(1142, 820)]",[],[1],[],vertical,"(890.0, 762.0)",1.7,nan,1,4541.681,3,0.0,same
0,710,catch,"[(1120, 806)]",[],[1],[],horizontal,"(390.0, 762.0)",,"('cti', 1.039),nan",0,4547.635,0,0.02,same
0,711,valid,"[(1167, 808)]",[],[1],[0.6],horizontal,"(390.0, 262.0)",1.3666666666666667,0.556,1,4551.818,1,0.02,same
0,712,valid,"[(1169, 795)]",[],[1],[0.55],vertical,"(390.0, 262.0)",0.65,0.515,1,4557.266,1,0.02,same
0,713,valid,"[(1144, 783)]",[],[1],[0.6833333333333333],horizontal,"(390.0, 262.0)",0.7833333333333333,0.645,1,4562.185,1,0.02,same
0,714,catch,"[(1151, 825)]",[],[1],[],vertical,"(890.0, 262.0)",1.7,nan,1,4567.391,2,0.02,same
0,715,catch,"[(1155, 798)]",[],[1],[],vertical,"(890.0, 762.0)",1.7,nan,1,4573.036,2,0.02,same
0,716,valid,"[(1135, 808)]",[],[1],[0.5833333333333334],vertical,"(390.0, 262.0)",0.3833333333333333,0.544,1,4578.52,2,0.02,same
0,717,catch,"[(1160, 798)]",[],[1],[],vertical,"(890.0, 762.0)",1.7,nan,1,4582.992,3,0.02,same
0,718,valid,"[(1145, 806)]",[],[1],[0.5166666666666666],vertical,"(390.0, 762.0)",0.8833333333333333,0.478,1,4588.961,3,0.02,same
0,719,catch,"[(1127, 822)]",[],[1],[],horizontal,"(890.0, 262.0)",1.7,nan,1,4594.542,3,0.02,same
0,720,valid,"[(1086, 819)]",[],[1],[0.5666666666666667],vertical,"(890.0, 262.0)",1.3,0.526,1,4600.664,3,0.02,same
0,721,valid,"[(1124, 841)]",[],[1],[0.48333333333333334],vertical,"(890.0, 262.0)",0.7666666666666666,0.445,1,4608.641,3,0.02,same
0,722,valid,"[(1132, 784)]",[],[1],[0.85],horizontal,"(390.0, 762.0)",0.5,nan,0,4614.26,0,0.02,same
0,723,catch,"[(1104, 806)]",[],[1],[],horizontal,"(390.0, 762.0)",1.7,nan,1,4618.792,1,0.02,same
0,724,valid,"[(1164, 798)]",[],[1],[0.65],horizontal,"(390.0, 762.0)",0.35,0.605,1,4624.075,1,0.02,same
0,725,valid,"[(1158, 814)]",[],[1],[0.5666666666666667],vertical,"(890.0, 762.0)",1.5333333333333332,0.524,1,4628.592,1,0.02,same
0,726,valid,"[(1135, 800)]",[],[1],[0.6666666666666666],vertical,"(890.0, 762.0)",1.1833333333333333,0.622,1,4634.261,2,0.02,same
0,727,valid,"[(1161, 790)]",[],[1],[0.55],vertical,"(890.0, 262.0)",1.2,0.518,1,4640.391,2,0.02,same
0,728,valid,"[(1158, 799)]",[],[1],[0.5833333333333334],horizontal,"(890.0, 762.0)",1.3,0.543,1,4645.845,2,0.02,same
0,729,valid,"[(1135, 793)]",[],[1],[0.5833333333333334],vertical,"(390.0, 762.0)",0.6,0.542,1,4651.709,3,0.02,same
0,730,catch,"[(1175, 808)]",[],[1],[],horizontal,"(390.0, 262.0)",1.7,nan,1,4657.416,3,0.02,same
0,731,valid,"[(1148, 782)]",[],[1],[0.6],vertical,"(390.0, 762.0)",1.0166666666666666,0.562,1,4663.507,3,0.02,same
0,732,valid,"[(1169, 788)]",[],[1],[0.65],horizontal,"(390.0, 262.0)",0.6833333333333333,0.604,1,4669.2,3,0.02,same
0,733,valid,"[(1164, 771)]",[],[1],[0.5],horizontal,"(890.0, 762.0)",0.8666666666666667,0.461,1,4675.025,3,0.02,same
0,734,catch,"[(1160, 777)]",[],[1],[],horizontal,"(390.0, 262.0)",1.7,nan,1,4680.625,3,0.02,same
0,735,catch,"[(1165, 781)]",[],[1],[],vertical,"(890.0, 762.0)",1.7,nan,1,4686.991,3,0.02,same
0,736,valid,"[(1136, 787)]",[],[1],[0.5166666666666666],horizontal,"(890.0, 762.0)",1.1,0.476,1,4693.05,3,0.02,same
0,737,valid,"[(1160, 792)]",[],[1],[0.5333333333333333],horizontal,"(390.0, 262.0)",0.65,0.494,1,4698.524,3,0.02,same
0,738,valid,"[(1155, 779)]",[],[1],[0.5666666666666667],vertical,"(890.0, 762.0)",1.3166666666666667,0.525,1,4703.742,3,0.02,same
0,739,catch,"[(1168, 779)]",[],[1],[],vertical,"(390.0, 762.0)",1.7,nan,1,4710.334,3,0.02,same
0,740,valid,"[(1164, 791)]",[],[1],[0.65],horizontal,"(890.0, 762.0)",1.5166666666666666,0.608,1,4716.441,3,0.02,same
0,741,valid,"[(1135, 793)]",[],[1],[0.5666666666666667],vertical,"(890.0, 762.0)",1.1,0.524,1,4723.115,3,0.02,same
0,742,valid,"[(1135, 796)]",[],[1],[0.5666666666666667],vertical,"(890.0, 262.0)",0.5166666666666666,0.522,1,4729.056,3,0.02,same
0,743,valid,"[(1133, 796)]",[],[1],[0.5833333333333334],horizontal,"(890.0, 262.0)",0.4666666666666667,0.545,1,4734.269,3,0.02,same
0,744,valid,"[(1169, 786)]",[],[1],[0.5],vertical,"(390.0, 762.0)",1.1,0.464,1,4739.558,3,0.02,same
0,745,catch,"[(1169, 784)]",[],[1],[],vertical,"(390.0, 762.0)",1.7,nan,1,4745.077,3,0.02,same
0,746,valid,"[(1135, 774)]",[],[1],[0.5333333333333333],vertical,"(390.0, 762.0)",0.35,0.497,1,4750.891,3,0.02,same
0,747,catch,"[(1135, 796)]",[],[1],[],horizontal,"(890.0, 262.0)",1.7,nan,1,4755.974,3,0.02,same
0,748,valid,"[(1160, 797)]",[],[1],[0.85],horizontal,"(890.0, 762.0)",0.7,nan,0,4761.71,0,0.02,same
0,749,valid,"[(1120, 761)]",[],[1],[0.6],vertical,"(890.0, 262.0)",0.4,0.557,1,4766.22,1,0.02,same
0,750,invalid_adjacent_other_bar,"[(1136, 784)]",[],[1],[0.6166666666666667],horizontal,"(390.0, 262.0)",0.5333333333333333,0.579,1,4770.846,1,0.02,other
0,751,invalid_adjacent_other_bar,"[(1160, 803)]",[],[1],[0.5666666666666667],horizontal,"(890.0, 262.0)",1.3833333333333333,0.525,1,4775.466,1,0.02,other
0,752,valid,"[(1161, 790)]",[],[1],[0.6666666666666666],horizontal,"(890.0, 762.0)",1.1666666666666667,0.623,1,4780.524,2,0.02,same
0,753,valid,"[(1163, 780)]",[],[1],[0.43333333333333335],horizontal,"(890.0, 262.0)",1.5333333333333332,0.394,1,4786.408,2,0.02,same
0,754,catch,"[(1156, 794)]",[],[1],[],vertical,"(890.0, 262.0)",1.7,nan,1,4792.541,2,0.02,same
0,755,invalid_adjacent_other_bar,"[(1135, 766)]",[],[1],[0.5666666666666667],horizontal,"(390.0, 262.0)",1.0333333333333332,0.52,1,4797.975,3,0.02,other
0,756,valid,"[(1161, 802)]",[],[1],[0.5833333333333334],vertical,"(890.0, 762.0)",1.3833333333333333,0.546,1,4804.15,3,0.02,same
0,757,valid,"[(1079, 830)]",[],[1],[0.5333333333333333],horizontal,"(390.0, 762.0)",1.5166666666666666,0.491,1,4810.759,3,0.02,same
0,758,valid,"[(1134, 794)]",[],[1],[0.7],horizontal,"(890.0, 762.0)",1.2666666666666666,0.654,1,4817.892,3,0.02,same
0,759,valid,"[(1137, 775)]",[],[1],[0.5],horizontal,"(390.0, 762.0)",0.5833333333333334,0.461,1,4824.025,3,0.02,same
0,760,catch,"[(1150, 799)]",[],[1],[],horizontal,"(890.0, 262.0)",1.7,nan,1,4829.325,3,0.0,same
0,761,valid,"[(1155, 795)]",[],[1],[0.5166666666666666],vertical,"(890.0, 762.0)",0.45,0.472,1,4835.109,3,0.0,same
0,762,valid,"[(1132, 804)]",[],[1],[0.48333333333333334],horizontal,"(390.0, 262.0)",0.4,0.442,1,4840.458,3,0.0,same
0,763,valid,"[(1160, 799)]",[],[1],[0.7333333333333333],horizontal,"(390.0, 262.0)",1.4333333333333333,0.691,1,4846.059,3,0.0,same
0,764,catch,"[(1136, 773)]",[],[1],[],horizontal,"(390.0, 762.0)",1.7,nan,1,4852.125,3,0.0,same
0,765,invalid_same_bar,"[(1160, 785)]",[],[1],[0.5166666666666666],vertical,"(890.0, 262.0)",1.1833333333333333,0.478,1,4858.067,3,0.0,same
0,766,catch,"[(1165, 775)]",[],[1],[],horizontal,"(390.0, 262.0)",1.7,nan,1,4863.95,3,0.0,same
0,767,valid,"[(1135, 773)]",[],[1],[0.55],vertical,"(390.0, 262.0)",0.5666666666666667,0.507,1,4869.841,3,0.0,same
0,768,valid,"[(1154, 770)]",[],[1],[0.6666666666666666],vertical,"(890.0, 762.0)",1.2666666666666666,0.626,1,4874.991,3,0.0,same
0,769,invalid_adjacent_other_bar,"[(1135, 801)]",[],[1],[0.5166666666666666],vertical,"(890.0, 262.0)",1.4666666666666666,0.474,1,4881.509,3,0.0,other
0,770,valid,"[(1137, 779)]",[],[1],[0.7],horizontal,"(390.0, 262.0)",1.3833333333333333,0.657,1,4887.793,3,0.0,same
0,771,catch,"[(1160, 773)]",[],[1],[],horizontal,"(890.0, 762.0)",1.7,nan,1,4894.076,3,0.0,same
0,772,valid,"[(1173, 785)]",[],[1],[0.6],vertical,"(890.0, 762.0)",1.3833333333333333,0.556,1,4899.924,3,0.0,same
0,773,valid,"[(1160, 776)]",[],[1],[0.55],horizontal,"(890.0, 762.0)",0.75,0.506,1,4905.993,3,0.0,same
0,774,valid,"[(1162, 781)]",[],[1],[0.8333333333333334],vertical,"(890.0, 762.0)",0.85,0.8,1,4911.445,3,0.0,same
0,775,catch,"[(1134, 774)]",[],[1],[],horizontal,"(890.0, 262.0)",1.7,nan,1,4917.478,3,0.0,same
0,776,valid,"[(1126, 783)]",[],[1],[0.55],horizontal,"(390.0, 762.0)",0.9,0.513,1,4923.745,3,0.0,same
0,777,valid,"[(1160, 795)]",[],[1],[0.65],horizontal,"(390.0, 262.0)",0.43333333333333335,0.607,1,4929.975,3,0.0,same
0,778,valid,"[(1149, 775)]",[],[1],[0.5333333333333333],vertical,"(390.0, 262.0)",0.75,0.493,1,4935.734,3,0.0,same
0,779,catch,"[(1135, 784)]",[],[1],[],vertical,"(890.0, 762.0)",1.7,nan,1,4940.983,3,0.0,same
0,780,invalid_adjacent_other_bar,"[(1131, 800)]",[],[1],[0.5666666666666667],vertical,"(390.0, 762.0)",0.6833333333333333,0.526,1,4946.693,3,0.0,other
0,781,valid,"[(1144, 784)]",[],[1],[0.6666666666666666],vertical,"(890.0, 262.0)",0.5833333333333334,0.622,1,4952.118,3,0.0,same
0,782,catch,"[(1169, 777)]",[],[1],[],horizontal,"(390.0, 262.0)",1.7,nan,1,4957.454,3,0.0,same
0,783,valid,"[(1163, 780)]",[],[1],[0.5833333333333334],horizontal,"(890.0, 262.0)",0.8666666666666667,0.536,1,4963.425,3,0.0,same
0,784,valid,"[(1165, 776)]",[],[1],[0.6333333333333333],horizontal,"(390.0, 762.0)",1.1166666666666667,0.585,1,4968.981,3,0.0,same
0,785,valid,"[(1166, 786)]",[],[1],[0.7833333333333333],horizontal,"(890.0, 762.0)",1.3,0.735,1,4975.018,3,0.0,same
0,786,valid,"[(1138, 776)]",[],[1],[0.5333333333333333],horizontal,"(890.0, 762.0)",0.75,0.491,1,4981.178,3,0.0,same
0,787,catch,"[(1168, 767)]",[],[1],[],horizontal,"(390.0, 762.0)",1.7,nan,1,4987.091,3,0.0,same
0,788,valid,"[(1166, 779)]",[],[1],[0.5333333333333333],horizontal,"(890.0, 762.0)",1.0,0.491,1,4992.993,3,0.0,same
0,789,invalid_same_bar,"[(1169, 774)]",[],[1],[0.6666666666666666],vertical,"(890.0, 262.0)",0.95,0.617,1,4998.625,3,0.0,same
0,790,invalid_same_bar,"[(1135, 766)]",[],[1],[0.55],vertical,"(390.0, 762.0)",0.43333333333333335,0.506,1,5004.72,3,0.0,same
0,791,valid,"[(1165, 780)]",[],[1],[0.6],vertical,"(890.0, 762.0)",0.9166666666666666,0.562,1,5009.659,3,0.0,same
0,792,catch,"[(1140, 778)]",[],[1],[],horizontal,"(890.0, 762.0)",1.7,nan,1,5015.475,3,0.0,same
0,793,catch,"[(1169, 785)]",[],[1],[],horizontal,"(890.0, 762.0)",1.7,nan,1,5021.692,3,0.0,same
0,794,valid,"[(1135, 781)]",[],[1],[0.5],vertical,"(390.0, 762.0)",1.1166666666666667,0.457,1,5027.942,3,0.0,same
0,795,valid,"[(1170, 781)]",[],[1],[0.5],vertical,"(890.0, 262.0)",1.45,0.46,1,5033.86,3,0.0,same
0,796,valid,"[(1164, 776)]",[],[1],[0.5333333333333333],vertical,"(390.0, 762.0)",0.65,0.488,1,5040.185,3,0.0,same
0,797,valid,"[(1117, 754)]",[],[1],[0.5],horizontal,"(390.0, 762.0)",1.3,0.461,1,5045.659,3,0.0,same
0,798,valid,"[(1144, 805)]",[],[1],[0.55],horizontal,"(390.0, 762.0)",0.43333333333333335,0.508,1,5051.642,3,0.0,same
0,799,catch,"[(1140, 798)]",[],[1],[],horizontal,"(390.0, 262.0)",1.7,nan,1,5057.391,3,0.0,same
0,800,valid,"[(1149, 774)]",[],[1],[0.5333333333333333],horizontal,"(390.0, 262.0)",0.55,0.487,1,5063.259,3,0.0,same
0,801,valid,"[(1136, 802)]",[],[1],[0.7],horizontal,"(890.0, 762.0)",1.3333333333333333,0.653,1,5068.426,3,0.0,same
0,802,invalid_same_bar,"[(1167, 792)]",[],[1],[0.5166666666666666],horizontal,"(890.0, 762.0)",0.9333333333333333,0.472,1,5074.536,3,0.0,same
0,803,catch,"[(1144, 783)]",[],[1],[],vertical,"(890.0, 762.0)",1.7,nan,1,5080.222,3,0.0,same
0,804,valid,"[(1170, 772)]",[],[1],[0.5],vertical,"(390.0, 762.0)",0.6,0.456,1,5086.269,3,0.0,same
0,805,valid,"[(1169, 779)]",[],[1],[0.5666666666666667],horizontal,"(390.0, 262.0)",1.45,0.526,1,5091.374,3,0.0,same
0,806,valid,"[(1154, 785)]",[],[1],[0.5666666666666667],vertical,"(390.0, 762.0)",1.4333333333333333,0.519,1,5097.907,3,0.0,same
0,807,valid,"[(1170, 805)]",[],[1],[0.5666666666666667],vertical,"(890.0, 762.0)",1.1333333333333333,0.525,1,5104.338,3,0.0,same
0,808,valid,"[(1140, 774)]",[],[1],[0.6166666666666667],vertical,"(890.0, 262.0)",1.35,0.576,1,5110.108,3,0.0,same
0,809,catch,"[(1140, 783)]",[],[1],[],horizontal,"(890.0, 262.0)",1.7,nan,1,5116.129,3,0.0,same
0,810,catch,"[(1128, 830)]",[],[1],[],vertical,"(390.0, 262.0)",1.7,nan,1,5122.378,3,0.0,same
0,811,valid,"[(1155, 820)]",[],[1],[0.48333333333333334],horizontal,"(890.0, 762.0)",0.4,0.452,1,5244.776,3,0.0,same
0,812,valid,"[(1169, 806)]",[],[1],[0.48333333333333334],horizontal,"(390.0, 762.0)",0.5666666666666667,0.447,1,5250.026,3,0.0,same
0,813,valid,"[(1150, 793)]",[],[1],[0.6833333333333333],horizontal,"(890.0, 262.0)",1.0666666666666667,0.639,1,5255.006,3,0.0,same
0,814,valid,"[(1142, 786)]",[],[1],[0.5666666666666667],vertical,"(390.0, 262.0)",0.36666666666666664,0.522,1,5260.976,3,0.0,same
0,815,valid,"[(1140, 779)]",[],[1],[0.5166666666666666],vertical,"(390.0, 762.0)",0.9166666666666666,0.473,1,5266.109,3,0.0,same
0,816,valid,"[(1167, 791)]",[],[1],[0.55],horizontal,"(890.0, 762.0)",0.7333333333333333,0.505,1,5271.626,3,0.0,same
0,817,valid,"[(1165, 788)]",[],[1],[0.5833333333333334],vertical,"(890.0, 762.0)",1.3666666666666667,0.541,1,5277.16,3,0.0,same
0,818,valid,"[(1145, 796)]",[],[1],[0.48333333333333334],vertical,"(390.0, 762.0)",0.5333333333333333,0.441,1,5283.447,3,0.0,same
0,819,catch,"[(1142, 777)]",[],[1],[],horizontal,"(890.0, 262.0)",1.7,nan,1,5288.464,3,0.0,same
0,820,catch,"[(1165, 800)]",[],[1],[],horizontal,"(390.0, 262.0)",1.7,nan,1,5294.403,3,0.0,same
0,821,valid,"[(1165, 781)]",[],[1],[0.55],horizontal,"(390.0, 262.0)",0.7333333333333333,0.506,1,5300.427,3,0.0,same
0,822,valid,"[(1136, 791)]",[],[1],[0.5666666666666667],vertical,"(890.0, 762.0)",0.9333333333333333,0.525,1,5306.076,3,0.0,same
0,823,valid,"[(1165, 818)]",[],[1],[0.5],horizontal,"(890.0, 262.0)",0.9666666666666667,0.467,1,5311.742,3,0.0,same
0,824,catch,"[(1167, 766)]",[],[1],[],horizontal,"(890.0, 262.0)",1.7,nan,1,5317.654,3,0.0,same
0,825,valid,"[(1168, 792)]",[],[1],[0.5666666666666667],horizontal,"(890.0, 762.0)",1.4333333333333333,0.529,1,5323.756,3,0.0,same
0,826,valid,"[(1146, 814)]",[],[1],[0.5833333333333334],horizontal,"(390.0, 762.0)",0.7833333333333333,0.538,1,5330.154,3,0.0,same
0,827,catch,"[(1142, 821)]",[],[1],[],horizontal,"(390.0, 762.0)",1.7,nan,1,5343.277,3,0.0,same
0,828,valid,"[(1133, 786)]",[],[1],[0.85],horizontal,"(890.0, 762.0)",1.45,nan,0,5349.416,0,0.0,same
0,829,invalid_same_bar,"[(1135, 795)]",[],[1],[0.5166666666666666],horizontal,"(890.0, 262.0)",0.5833333333333334,0.472,1,5354.621,1,0.0,same
0,830,invalid_same_bar,"[(1161, 787)]",[],[1],[0.6166666666666667],horizontal,"(390.0, 762.0)",1.1333333333333333,0.571,1,5359.38,1,0.0,same
0,831,valid,"[(1135, 774)]",[],[1],[0.5833333333333334],vertical,"(890.0, 262.0)",1.2666666666666666,0.55,1,5364.681,1,0.0,same
0,832,invalid_same_bar,"[(1135, 806)]",[],[1],[0.65],horizontal,"(390.0, 262.0)",1.5166666666666666,0.604,1,5370.41,2,0.0,same
0,833,catch,"[(1165, 797)]",[],[1],[],vertical,"(390.0, 762.0)",1.7,nan,1,5376.46,2,0.0,same
0,834,valid,"[(1165, 779)]",[],[1],[0.55],horizontal,"(890.0, 262.0)",0.9666666666666667,0.507,1,5382.072,2,0.0,same
0,835,invalid_same_bar,"[(1135, 792)]",[],[1],[0.7666666666666666],vertical,"(890.0, 762.0)",0.9166666666666666,0.727,1,5387.264,3,0.0,same
0,836,valid,"[(1165, 797)]",[],[1],[0.6666666666666666],horizontal,"(890.0, 262.0)",0.5,0.625,1,5393.246,3,0.0,same
0,837,valid,"[(1137, 782)]",[],[1],[0.5166666666666666],vertical,"(890.0, 762.0)",0.8,0.48,1,5398.522,3,0.0,same
0,838,catch,"[(1134, 815)]",[],[1],[],vertical,"(390.0, 262.0)",1.7,nan,1,5404.48,3,0.0,same
0,839,valid,"[(1175, 794)]",[],[1],[0.45],horizontal,"(390.0, 262.0)",1.5166666666666666,0.412,1,5410.921,3,0.0,same
0,840,valid,"[(1165, 797)]",[],[1],[0.6833333333333333],horizontal,"(390.0, 762.0)",1.2666666666666666,0.638,1,5417.468,3,0.0,same
0,841,valid,"[(1141, 757)]",[],[1],[0.6833333333333333],vertical,"(390.0, 262.0)",1.2666666666666666,0.639,1,5423.829,3,0.0,same
0,842,catch,"[(1137, 772)]",[],[1],[],horizontal,"(390.0, 762.0)",1.7,nan,1,5430.198,3,0.0,same
0,843,valid,"[(1136, 779)]",[],[1],[0.6666666666666666],vertical,"(390.0, 262.0)",1.1833333333333333,0.638,1,5436.283,3,0.0,same
0,844,valid,"[(1144, 792)]",[],[1],[0.5166666666666666],horizontal,"(890.0, 262.0)",0.55,0.478,1,5442.405,3,0.0,same
0,845,catch,"[(1168, 774)]",[],[1],[],horizontal,"(890.0, 262.0)",1.7,nan,1,5447.738,3,0.0,same
0,846,valid,"[(1136, 779)]",[],[1],[0.5833333333333334],horizontal,"(390.0, 762.0)",1.5,0.549,1,5453.969,3,0.0,same
0,847,catch,"[(1163, 774)]",[],[1],[],horizontal,"(390.0, 262.0)",1.7,nan,1,5460.495,3,0.0,same
0,848,catch,"[(1140, 769)]",[],[1],[],vertical,"(390.0, 262.0)",1.7,nan,1,5466.793,3,0.0,same
0,849,valid,"[(1168, 784)]",[],[1],[0.5166666666666666],vertical,"(390.0, 262.0)",1.4833333333333334,0.477,1,5472.794,3,0.0,same
0,850,catch,"[(1170, 772)]",[],[1],[],horizontal,"(890.0, 262.0)",1.7,nan,1,5478.743,3,0.0,same
0,851,catch,"[(1168, 791)]",[],[1],[],horizontal,"(390.0, 262.0)",1.7,nan,1,5484.794,3,0.0,same
0,852,valid,"[(1165, 766)]",[],[1],[0.5],vertical,"(390.0, 262.0)",1.4,0.463,1,5490.81,3,0.0,same
0,853,valid,"[(1165, 803)]",[],[1],[0.5166666666666666],vertical,"(390.0, 762.0)",0.6333333333333333,0.484,1,5496.678,3,0.0,same
0,854,valid,"[(1135, 765)]",[],[1],[0.5333333333333333],horizontal,"(890.0, 262.0)",0.7166666666666667,0.494,1,5501.877,3,0.0,same
0,855,catch,"[(1168, 773)]",[],[1],[],horizontal,"(890.0, 262.0)",1.7,nan,1,5507.262,3,0.0,same
0,856,valid,"[(1165, 792)]",[],[1],[0.6166666666666667],horizontal,"(890.0, 762.0)",0.43333333333333335,0.576,1,5513.41,3,0.0,same
0,857,catch,"[(1146, 789)]",[],[1],[],horizontal,"(890.0, 262.0)",1.7,nan,1,5518.91,3,0.0,same
0,858,invalid_adjacent_other_bar,"[(1168, 788)]",[],[1],[0.6166666666666667],horizontal,"(890.0, 262.0)",1.3,0.584,1,5524.847,3,0.0,other
0,859,catch,"[(1163, 781)]",[],[1],[],horizontal,"(890.0, 762.0)",1.7,nan,1,5531.049,3,0.0,same
0,860,invalid_same_bar,"[(1132, 788)]",[],[1],[0.5166666666666666],vertical,"(390.0, 762.0)",0.9166666666666666,0.476,1,5537.127,3,0.0,same
0,861,invalid_adjacent_other_bar,"[(1140, 787)]",[],[1],[0.5],vertical,"(890.0, 262.0)",1.1,0.461,1,5543.26,3,0.0,other
0,862,valid,"[(1121, 785)]",[],[1],[0.7],horizontal,"(390.0, 262.0)",0.4,0.655,1,5549.343,3,0.0,same
0,863,valid,"[(1160, 759)]",[],[1],[0.6666666666666666],horizontal,"(890.0, 762.0)",1.3166666666666667,0.623,1,5554.678,3,0.0,same
0,864,catch,"[(1129, 831)]",[],[1],[],vertical,"(890.0, 762.0)",1.7,nan,1,5561.214,3,0.0,same
0,865,valid,"[(1168, 792)]",[],[1],[0.5833333333333334],horizontal,"(390.0, 762.0)",1.5166666666666666,0.544,1,5567.537,3,0.0,same
0,866,valid,"[(1132, 781)]",[],[1],[0.6],horizontal,"(890.0, 262.0)",0.9166666666666666,0.56,1,5574.274,3,0.0,same
0,867,valid,"[(1126, 778)]",[],[1],[0.85],vertical,"(390.0, 262.0)",0.45,nan,0,5579.71,0,0.0,same
