block,trial,trial_type,taps_start_loc_during_fix,taps_end_loc_during_fix,taps_on_lever_during_fix,taps_on_lever_s_during_fix,bar_orientation,target_xy,cti,rt,acc,time,pulses,fa_rate_recent100,actual_invalid_type
0,1,valid,"[(1081, 893)]",[],[1],[0.43333333333333335],vertical,"(390.0, 262.0)",1.45,0.406,1,0.662,1,0.0,same
0,2,valid,"[(1067, 850)]",[],[1],[0.85],vertical,"(390.0, 762.0)",0.8166666666666667,nan,0,9.254,0,0.0,same
0,3,catch,"[(1095, 886)]","[(1074, 913)]",[1],[0.3333333333333333],vertical,"(390.0, 762.0)",,"('bar', 0.356),nan",0,39.567,0,0.3333333333333333,same
0,4,catch,"[(1155, 811)]",[],[1],[],vertical,"(390.0, 262.0)",1.7,nan,1,42.336,1,0.25,same
0,5,catch,"[(1128, 835)]",[],[1],[],vertical,"(890.0, 762.0)",1.7,nan,1,47.641,1,0.2,same
0,6,catch,"[(1093, 819)]",[],[1],[],vertical,"(890.0, 762.0)",1.7,nan,1,53.028,1,0.16666666666666666,same
0,7,valid,"[(1073, 866)]",[],[1],[0.6333333333333333],horizontal,"(390.0, 262.0)",0.5,0.583,1,76.8,2,0.14285714285714285,same
0,8,valid,"[(1149, 799)]",[],[1],[0.7],vertical,"(890.0, 762.0)",1.2,0.661,1,84.195,2,0.125,same
0,9,valid,"[(1169, 821)]",[],[1],[0.6],horizontal,"(890.0, 262.0)",0.5833333333333334,0.561,1,90.31,2,0.1111111111111111,same
0,10,catch,"[(1169, 799)]",[],[1],[],horizontal,"(390.0, 262.0)",1.7,nan,1,95.41,3,0.1,same
0,11,valid,"[(1155, 807)]",[],[1],[0.85],horizontal,"(890.0, 762.0)",0.4,nan,0,101.438,0,0.09090909090909091,same
0,12,valid,"[(1143, 821)]",[],[1],[0.6166666666666667],vertical,"(890.0, 762.0)",0.9833333333333333,0.583,1,105.975,1,0.08333333333333333,same
0,13,valid,"[(1158, 790)]",[],[1],[0.7333333333333333],vertical,"(890.0, 762.0)",1.3833333333333333,0.695,1,114.044,1,0.07692307692307693,same
0,14,valid,"[(1163, 791)]",[],[1],[0.85],horizontal,"(390.0, 262.0)",0.5166666666666666,nan,0,119.859,0,0.07142857142857142,same
0,15,catch,"[(1110, 785)]",[],[1],[],vertical,"(390.0, 262.0)",1.7,nan,1,124.609,1,0.06666666666666667,same
0,16,valid,"[(1185, 778)]",[],[1],[0.6],horizontal,"(890.0, 262.0)",1.3666666666666667,0.561,1,130.084,1,0.0625,same
0,17,valid,"[(1156, 772)]",[],[1],[0.6166666666666667],vertical,"(890.0, 262.0)",1.4166666666666667,0.587,1,135.718,1,0.058823529411764705,same
0,18,valid,"[(1120, 828)]",[],[1],[0.6333333333333333],vertical,"(390.0, 762.0)",0.5666666666666667,0.599,1,141.435,2,0.05555555555555555,same
0,19,valid,"[(1141, 785)]",[],[1],[0.55],vertical,"(890.0, 262.0)",1.3833333333333333,0.527,1,146.722,2,0.05263157894736842,same
0,20,valid,"[(1161, 759)]",[],[1],[0.6833333333333333],horizontal,"(390.0, 262.0)",0.3833333333333333,0.643,1,152.803,2,0.05,same
0,21,valid,"[(1087, 876)]",[],[1],[0.6166666666666667],horizontal,"(390.0, 762.0)",1.4333333333333333,0.584,1,157.961,3,0.047619047619047616,same
0,22,valid,"[(1161, 774)]",[],[1],[0.6833333333333333],vertical,"(890.0, 262.0)",0.5333333333333333,0.652,1,164.455,3,0.045454545454545456,same
0,23,valid,"[(1159, 763)]",[],[1],[0.6166666666666667],vertical,"(890.0, 262.0)",0.6333333333333333,0.593,1,170.15,3,0.043478260869565216,same
0,24,valid,"[(1161, 772)]",[],[1],[0.6666666666666666],horizontal,"(890.0, 262.0)",0.7166666666666667,0.63,1,175.919,3,0.041666666666666664,same
0,25,valid,"[(1165, 777)]",[],[1],[0.65],horizontal,"(390.0, 262.0)",1.4666666666666666,0.616,1,181.456,3,0.04,same
0,26,valid,"[(1188, 777)]",[],[1],[0.5333333333333333],horizontal,"(890.0, 262.0)",0.7333333333333333,0.497,1,187.838,3,0.038461538461538464,same
0,27,valid,"[(1181, 777)]",[],[1],[0.7],horizontal,"(890.0, 762.0)",0.43333333333333335,0.677,1,193.374,3,0.037037037037037035,same
0,28,catch,"[(1168, 774)]",[],[1],[],horizontal,"(390.0, 762.0)",1.7,nan,1,198.941,3,0.03571428571428571,same
0,29,valid,"[(1158, 765)]",[],[1],[0.6166666666666667],vertical,"(390.0, 762.0)",0.6666666666666666,0.589,1,204.777,3,0.034482758620689655,same
0,30,valid,"[(1161, 778)]",[],[1],[0.85],vertical,"(890.0, 762.0)",0.9833333333333333,nan,0,210.721,0,0.03333333333333333,same
0,31,valid,"[(1099, 787)]",[],[1],[0.85],horizontal,"(390.0, 762.0)",1.4333333333333333,nan,0,215.489,0,0.03225806451612903,same
0,32,catch,"[(1144, 807)]",[],[1],[],horizontal,"(390.0, 262.0)",1.7,nan,1,220.698,1,0.03125,same
0,33,invalid_adjacent_other_bar,"[(1186, 784)]",[],[1],[0.85],vertical,"(390.0, 262.0)",0.9,nan,0,226.28,0,0.030303030303030304,other
0,34,valid,"[(1130, 794)]",[],[1],[],vertical,"(390.0, 262.0)",,"('cti', 0.202)",0,230.695,0,0.029411764705882353,same
0,35,valid,"[(1162, 777)]",[],[1],[0.5833333333333334],horizontal,"(890.0, 262.0)",0.55,0.556,1,234.293,1,0.02857142857142857,same
0,36,valid,"[(1194, 783)]",[],[1],[0.85],horizontal,"(390.0, 262.0)",0.9833333333333333,nan,0,239.23,0,0.027777777777777776,same
0,37,catch,"[(1175, 782)]",[],[1],[],horizontal,"(890.0, 762.0)",1.7,nan,1,244.129,1,0.02702702702702703,same
0,38,valid,"[(1190, 795)]","[(1167, 832)]",[1],[0.4666666666666667],horizontal,"(890.0, 762.0)",,"('bar', 0.48)",0,249.676,0,0.02631578947368421,same
0,39,valid,"[(1153, 799)]",[],[1],[0.5166666666666666],horizontal,"(390.0, 262.0)",0.95,0.478,1,252.529,1,0.02564102564102564,same
0,40,valid,"[(1180, 776)]",[],[1],[0.5666666666666667],horizontal,"(890.0, 762.0)",1.1333333333333333,0.522,1,257.639,1,0.025,same
0,41,valid,"[(1190, 769)]","[(1170, 808)]",[1],[0.23333333333333334],vertical,"(390.0, 262.0)",,"('bar', 0.25)",0,262.663,0,0.024390243902439025,same
0,42,catch,"[(1141, 783)]",[],[1],[],vertical,"(890.0, 262.0)",1.7,nan,1,265.18,1,0.023809523809523808,same
0,43,valid,"[(1163, 776)]",[],[1],[0.85],horizontal,"(390.0, 262.0)",0.8166666666666667,nan,0,270.229,0,0.023255813953488372,same
0,44,valid,"[(1166, 769)]",[],[1],[0.7666666666666666],horizontal,"(390.0, 762.0)",0.8,0.725,1,275.129,1,0.022727272727272728,same
0,45,invalid_adjacent_other_bar,"[(1185, 770)]","[(1136, 850)]",[1],[0.7166666666666667],horizontal,"(390.0, 762.0)",,"('bar', 0.723)",0,280.247,0,0.022222222222222223,other
0,46,catch,"[(1141, 800)]",[],[1],[],horizontal,"(890.0, 762.0)",,"('cti', 1.539),nan",0,283.062,0,0.043478260869565216,same
0,47,valid,"[(1167, 767)]",[],[1],[0.5],horizontal,"(890.0, 262.0)",0.45,0.457,1,287.846,1,0.0425531914893617,same
0,48,valid,"[(1165, 772)]",[],[1],[0.6333333333333333],horizontal,"(390.0, 762.0)",0.4666666666666667,0.591,1,292.329,1,0.041666666666666664,same
0,49,valid,"[(1170, 779)]",[],[1],[0.6],vertical,"(890.0, 262.0)",1.4,0.562,1,296.858,1,0.04081632653061224,same
0,50,catch,"[(1167, 771)]",[],[1],[],vertical,"(390.0, 762.0)",1.7,nan,1,302.462,2,0.04,same
0,51,invalid_same_bar,"[(1160, 798)]","[(1164, 862)]",[1],[0.5333333333333333],vertical,"(890.0, 262.0)",,"('bar', 0.545)",0,308.062,0,0.04,same
0,52,catch,"[(1166, 801)]",[],[1],[],horizontal,"(890.0, 262.0)",1.7,nan,1,311.18,1,0.04,same
0,53,valid,"[(1166, 769)]",[],[1],[0.5666666666666667],horizontal,"(390.0, 262.0)",0.7833333333333333,0.525,1,316.379,1,0.02,same
0,54,catch,"[(1180, 785)]",[],[1],[],vertical,"(390.0, 262.0)",1.7,nan,1,321.412,1,0.02,same
0,55,valid,"[(1161, 811)]",[],[1],[0.6166666666666667],horizontal,"(390.0, 262.0)",1.4666666666666666,0.581,1,327.045,2,0.02,same
0,56,valid,"[(1167, 777)]",[],[1],[0.6833333333333333],horizontal,"(890.0, 262.0)",1.2166666666666666,0.641,1,332.839,2,0.02,same
0,57,valid,"[(1167, 761)]",[],[1],[0.7166666666666667],horizontal,"(390.0, 762.0)",1.3166666666666667,0.678,1,338.568,2,0.02,same
0,58,catch,"[(1170, 772)]","[(1163, 844)]",[1],[0.5166666666666666],horizontal,"(390.0, 262.0)",,"('bar', 0.542),nan",0,344.513,0,0.04,same
0,59,valid,"[(1135, 797)]",[],[1],[0.5333333333333333],horizontal,"(390.0, 762.0)",1.0666666666666667,0.509,1,347.56,1,0.04,same
0,60,catch,"[(1180, 770)]",[],[1],[],horizontal,"(890.0, 762.0)",1.7,nan,1,352.627,1,0.04,same
0,61,valid,"[(1184, 794)]",[],[1],[0.6333333333333333],horizontal,"(390.0, 262.0)",1.2166666666666666,0.59,1,357.835,1,0.04,same
0,62,valid,"[(1180, 770)]",[],[1],[0.85],horizontal,"(890.0, 262.0)",0.4166666666666667,nan,0,363.457,0,0.04,same
0,63,invalid_adjacent_other_bar,"[(1146, 803)]",[],[1],[0.8333333333333334],horizontal,"(390.0, 762.0)",1.0666666666666667,0.815,0,367.823,0,0.04,other
0,64,valid,"[(1170, 788)]",[],[1],[0.5166666666666666],vertical,"(890.0, 762.0)",0.7833333333333333,0.487,1,372.877,1,0.04,same
0,65,invalid_adjacent_other_bar,"[(1172, 775)]",[],[1],[0.6166666666666667],vertical,"(890.0, 262.0)",1.5166666666666666,0.591,1,377.445,1,0.04,other
0,66,valid,"[(1180, 770)]",[],[1],[0.45],vertical,"(890.0, 762.0)",1.5166666666666666,0.422,1,383.061,1,0.04,same
0,67,catch,"[(1175, 770)]","[(1168, 842)]",[1],[0.5666666666666667],vertical,"(390.0, 262.0)",,"('bar', 0.573),nan",0,388.458,0,0.06,same
0,68,valid,"[(1123, 796)]",[],[1],[0.55],vertical,"(890.0, 262.0)",0.5833333333333334,0.505,1,391.447,1,0.06,same
0,69,valid,"[(1180, 766)]",[],[1],[0.85],horizontal,"(390.0, 262.0)",1.0666666666666667,nan,0,396.302,0,0.06,same
0,70,valid,"[(1160, 785)]",[],[1],[0.5833333333333334],horizontal,"(390.0, 762.0)",1.0333333333333332,0.538,1,401.174,1,0.06,same
0,71,valid,"[(1213, 780)]",[],[1],[0.55],horizontal,"(390.0, 762.0)",0.43333333333333335,0.511,1,406.587,1,0.06,same
0,72,catch,"[(1176, 782)]",[],[1],[],vertical,"(890.0, 762.0)",1.7,nan,1,411.025,1,0.06,same
0,73,valid,"[(1185, 764)]",[],[1],[0.5333333333333333],vertical,"(890.0, 762.0)",1.4166666666666667,0.497,1,416.412,2,0.06,same
0,74,catch,"[(1174, 772)]",[],[1],[],horizontal,"(890.0, 262.0)",1.7,nan,1,422.501,2,0.06,same
0,75,valid,"[(1165, 757)]",[],[1],[0.55],vertical,"(890.0, 762.0)",0.5166666666666666,0.507,1,427.965,2,0.06,same
0,76,valid,"[(1165, 784)]",[],[1],[0.85],horizontal,"(390.0, 262.0)",0.7333333333333333,nan,0,433.452,0,0.06,same
0,77,catch,"[(1165, 774)]",[],[1],[],horizontal,"(890.0, 262.0)",1.7,nan,1,438.184,1,0.06,same
0,78,valid,"[(1165, 761)]",[],[1],[0.55],vertical,"(390.0, 762.0)",0.5666666666666667,0.506,1,443.503,1,0.06,same
0,79,valid,"[(1180, 772)]",[],[1],[0.6],vertical,"(390.0, 262.0)",1.1166666666666667,0.561,1,447.828,1,0.06,same
0,80,valid,"[(1170, 760)]",[],[1],[0.5666666666666667],vertical,"(390.0, 262.0)",1.3166666666666667,0.53,1,453.28,2,0.06,same
0,81,valid,"[(1178, 777)]",[],[1],[0.5666666666666667],horizontal,"(890.0, 262.0)",1.0333333333333332,0.52,1,459.081,2,0.06,same
0,82,valid,"[(1174, 767)]",[],[1],[0.55],vertical,"(390.0, 262.0)",1.45,0.505,1,464.864,2,0.06,same
0,83,catch,"[(1179, 788)]",[],[1],[],vertical,"(890.0, 762.0)",1.7,nan,1,471.093,3,0.06,same
0,84,catch,"[(1180, 765)]",[],[1],[],vertical,"(390.0, 762.0)",1.7,nan,1,477.215,3,0.06,same
0,85,valid,"[(1178, 768)]","[(1167, 830)]",[1],[0.21666666666666667],horizontal,"(390.0, 762.0)",,"('bar', 0.232)",0,483.057,0,0.06,same
0,86,valid,"[(1144, 811)]",[],[1],[0.6166666666666667],horizontal,"(390.0, 262.0)",0.55,0.575,1,485.446,1,0.06,same
0,87,valid,"[(1180, 785)]",[],[1],[0.85],vertical,"(390.0, 762.0)",0.5666666666666667,nan,0,490.196,0,0.06,same
0,88,valid,"[(1156, 788)]",[],[1],[0.5333333333333333],horizontal,"(890.0, 262.0)",1.2833333333333332,0.5,1,494.547,1,0.06,same
0,89,invalid_adjacent_other_bar,"[(1182, 782)]",[],[1],[0.7666666666666666],vertical,"(890.0, 762.0)",0.95,0.725,1,499.691,1,0.06,other
0,90,valid,"[(1182, 790)]","[(1142, 832)]",[1],[0.43333333333333335],vertical,"(890.0, 262.0)",,"('bar', 0.443)",0,504.87,0,0.06,same
0,91,valid,"[(1167, 805)]",[],[1],[0.7166666666666667],vertical,"(890.0, 262.0)",0.6,0.677,1,507.531,1,0.06,same
0,92,valid,"[(1168, 765)]",[],[1],[0.5666666666666667],horizontal,"(890.0, 262.0)",1.25,0.526,1,512.505,1,0.06,same
0,93,valid,"[(1194, 792)]",[],[1],[0.45],horizontal,"(390.0, 762.0)",1.4666666666666666,0.412,1,517.939,1,0.06,same
0,94,valid,"[(1190, 770)]",[],[1],[0.5833333333333334],vertical,"(390.0, 262.0)",0.4,0.543,1,523.487,2,0.06,same
0,95,catch,"[(1188, 779)]",[],[1],[],horizontal,"(890.0, 762.0)",1.7,nan,1,528.548,2,0.06,same
0,96,catch,"[(1182, 791)]",[],[1],[],vertical,"(390.0, 262.0)",1.7,nan,1,534.231,2,0.04,same
0,97,invalid_same_bar,"[(1185, 773)]",[],[1],[0.6166666666666667],vertical,"(390.0, 762.0)",1.25,0.577,1,540.068,3,0.04,same
0,98,catch,"[(1155, 762)]",[],[1],[],horizontal,"(890.0, 762.0)",1.7,nan,1,546.207,3,0.04,same
0,99,valid,"[(1163, 770)]",[],[1],[0.65],horizontal,"(390.0, 262.0)",1.4,0.606,1,552.247,3,0.04,same
0,100,catch,"[(1160, 766)]",[],[1],[],vertical,"(890.0, 762.0)",1.7,nan,1,558.78,3,0.04,same
0,101,valid,"[(1160, 759)]",[],[1],[0.5666666666666667],horizontal,"(390.0, 762.0)",0.55,0.526,1,565.046,3,0.04,same
0,102,valid,"[(1187, 770)]",[],[1],[0.5333333333333333],horizontal,"(390.0, 762.0)",1.45,0.489,1,570.681,3,0.04,same
0,103,valid,"[(1195, 783)]",[],[1],[0.6333333333333333],vertical,"(390.0, 262.0)",1.1166666666666667,0.587,1,577.23,3,0.04,same
0,104,valid,"[(1190, 781)]",[],[1],"[0.85, 0.85]",vertical,"(890.0, 762.0)",0.5833333333333334,"0.798,nan",0,583.298,0,0.04,same
0,105,valid,"[(1151, 784)]",[],[1],[0.5333333333333333],vertical,"(390.0, 262.0)",1.4333333333333333,0.488,1,587.798,1,0.04,same
0,106,valid,"[(1186, 770)]",[],[1],[0.5333333333333333],vertical,"(890.0, 262.0)",0.6166666666666667,0.491,1,593.505,1,0.04,same
0,107,valid,"[(1188, 777)]",[],[1],"[0.85, 0.85]",horizontal,"(890.0, 262.0)",1.5333333333333332,"0.819,nan",0,598.356,0,0.04,same
0,108,valid,"[(1174, 796)]",[],[1],[0.6166666666666667],vertical,"(890.0, 262.0)",0.6,0.574,1,603.663,1,0.02,same
0,109,catch,"[(1188, 778)]","[(1179, 816)]",[1],[0.06666666666666667],vertical,"(390.0, 262.0)",,"('bar', 0.083),nan",0,608.231,0,0.04,same
0,110,catch,"[(1157, 832)]",[],[1],[],vertical,"(890.0, 262.0)",1.7,nan,1,610.648,1,0.04,same
0,111,catch,"[(1170, 808)]",[],[1],[],horizontal,"(890.0, 262.0)",1.7,nan,1,626.514,1,0.04,same
0,112,invalid_adjacent_other_bar,"[(1165, 802)]",[],[1],[0.6333333333333333],vertical,"(890.0, 262.0)",1.2166666666666666,0.603,1,631.998,1,0.04,other
0,113,valid,"[(1185, 781)]",[],[1],[0.5833333333333334],vertical,"(890.0, 762.0)",1.4333333333333333,0.546,1,637.15,2,0.04,same
0,114,valid,"[(1140, 776)]",[],[1],[0.6333333333333333],vertical,"(890.0, 262.0)",1.3,0.594,1,643.101,2,0.04,same
0,115,valid,"[(1182, 781)]",[],[1],[0.85],vertical,"(890.0, 762.0)",0.36666666666666664,nan,0,649.169,0,0.04,same
0,116,valid,"[(1163, 776)]",[],[1],[0.48333333333333334],horizontal,"(390.0, 762.0)",1.5333333333333332,0.441,1,653.813,1,0.04,same
0,117,valid,"[(1180, 765)]",[],[1],[0.7166666666666667],vertical,"(890.0, 762.0)",0.3833333333333333,0.674,1,659.414,1,0.02,same
0,118,catch,"[(1160, 775)]",[],[1],[],horizontal,"(890.0, 262.0)",1.7,nan,1,664.048,1,0.02,same
0,119,valid,"[(1160, 797)]",[],[1],[0.5833333333333334],vertical,"(890.0, 262.0)",0.5833333333333334,0.544,1,669.331,2,0.02,same
0,120,valid,"[(1164, 767)]",[],[1],[0.6166666666666667],horizontal,"(390.0, 762.0)",1.0166666666666666,0.575,1,674.298,2,0.02,same
0,121,valid,"[(1179, 776)]",[],[1],[0.55],vertical,"(390.0, 262.0)",0.9166666666666666,0.51,1,680.303,2,0.02,same
0,122,valid,"[(1180, 778)]",[],[1],[0.75],vertical,"(390.0, 762.0)",0.36666666666666664,0.707,1,685.857,3,0.02,same
0,123,invalid_same_bar,"[(1171, 791)]",[],[1],[0.85],vertical,"(890.0, 262.0)",0.65,nan,0,691.557,0,0.02,same
0,124,valid,"[(1162, 791)]",[],[1],[0.5333333333333333],vertical,"(890.0, 262.0)",0.9166666666666666,0.492,1,696.438,1,0.02,same
0,125,catch,"[(1191, 782)]",[],[1],[],horizontal,"(390.0, 762.0)",1.7,nan,1,701.23,1,0.02,same
0,126,valid,"[(1165, 786)]",[],[1],[0.6],vertical,"(390.0, 262.0)",1.3333333333333333,0.553,1,706.636,1,0.02,same
0,127,valid,"[(1207, 779)]",[],[1],[0.6166666666666667],vertical,"(390.0, 262.0)",0.65,0.58,1,712.287,2,0.02,same
0,128,valid,"[(1194, 774)]",[],[1],[0.7166666666666667],horizontal,"(390.0, 262.0)",1.1666666666666667,0.676,1,717.524,2,0.02,same
0,129,invalid_same_bar,"[(1218, 786)]",[],[1],[0.6333333333333333],vertical,"(890.0, 262.0)",1.45,0.588,1,723.313,2,0.02,same
0,130,valid,"[(1210, 777)]",[],[1],[0.5666666666666667],vertical,"(390.0, 762.0)",0.8166666666666667,0.527,1,729.768,3,0.02,same
0,131,valid,"[(1131, 781)]",[],[1],[0.8333333333333334],vertical,"(890.0, 762.0)",1.25,0.788,1,735.746,3,0.02,same
0,132,valid,"[(1149, 776)]",[],[1],[0.7166666666666667],horizontal,"(890.0, 762.0)",1.0833333333333333,0.668,1,741.923,3,0.02,same
0,133,valid,"[(1152, 769)]",[],[1],[0.85],horizontal,"(390.0, 262.0)",1.0333333333333332,nan,0,748.108,0,0.02,same
0,134,catch,"[(1167, 785)]",[],[1],[],vertical,"(890.0, 762.0)",1.7,nan,1,752.918,1,0.02,same
0,135,valid,"[(1185, 773)]",[],[1],[0.5833333333333334],horizontal,"(390.0, 262.0)",0.5833333333333334,0.537,1,758.675,1,0.02,same
0,136,catch,"[(1167, 782)]",[],[1],[],horizontal,"(390.0, 262.0)",1.7,nan,1,763.48,1,0.02,same
0,137,valid,"[(1170, 792)]",[],[1],[0.5333333333333333],vertical,"(890.0, 762.0)",1.05,0.501,1,768.621,2,0.02,same
0,138,valid,"[(1190, 773)]","[(1171, 827)]",[1],[0.016666666666666666],horizontal,"(890.0, 262.0)",,"('bar', 0.033)",0,774.115,0,0.02,same
0,139,catch,"[(1145, 798)]",[],[1],[],horizontal,"(890.0, 262.0)",,"('cti', 1.332),nan",0,776.565,0,0.04,same
0,140,valid,"[(1086, 770)]",[],[1],[0.48333333333333334],vertical,"(390.0, 262.0)",0.75,0.447,1,781.392,1,0.04,same
0,141,valid,"[(1203, 782)]",[],[1],[0.5333333333333333],vertical,"(390.0, 762.0)",0.7666666666666666,0.491,1,786.492,1,0.04,same
0,142,catch,"[(1204, 793)]",[],[1],[],horizontal,"(390.0, 262.0)",1.7,nan,1,791.259,1,0.04,same
0,143,valid,"[(1202, 787)]",[],[1],[],vertical,"(390.0, 762.0)",,"('fix', 0.416)",0,796.426,0,0.04,same
0,144,invalid_same_bar,"[(1135, 800)]",[],[1],[0.75],horizontal,"(390.0, 262.0)",1.1,0.702,1,798.596,1,0.04,same
0,145,valid,"[(1193, 792)]","[(1152, 833)]",[1],[0.16666666666666666],horizontal,"(390.0, 262.0)",,"('bar', 0.184)",0,804.048,0,0.04,same
0,146,valid,"[(1140, 791)]",[],[1],[0.5666666666666667],horizontal,"(890.0, 262.0)",1.3833333333333333,0.542,1,806.647,1,0.04,same
0,147,valid,"[(1180, 798)]",[],[1],[0.5666666666666667],vertical,"(890.0, 262.0)",1.35,0.528,1,812.148,1,0.04,same
0,148,valid,"[(1170, 767)]",[],[1],[0.5666666666666667],vertical,"(890.0, 762.0)",0.8166666666666667,0.521,1,817.839,1,0.04,same
0,149,invalid_same_bar,"[(1194, 783)]",[],[1],[0.5],horizontal,"(890.0, 262.0)",0.6,0.463,1,822.448,2,0.04,same
0,150,catch,"[(1197, 778)]",[],[1],[],horizontal,"(890.0, 262.0)",1.7,nan,1,827.942,2,0.04,same
0,151,valid,"[(1192, 786)]",[],[1],[0.6833333333333333],vertical,"(390.0, 762.0)",1.0,0.636,1,833.577,2,0.04,same
0,152,valid,"[(1194, 782)]",[],[1],[0.5666666666666667],vertical,"(390.0, 262.0)",1.4833333333333334,0.527,1,839.248,3,0.04,same
0,153,invalid_adjacent_other_bar,"[(1194, 767)]",[],[1],[0.5666666666666667],vertical,"(890.0, 262.0)",0.45,0.529,1,845.848,3,0.04,other
0,154,catch,"[(1175, 776)]",[],[1],[],horizontal,"(390.0, 262.0)",1.7,nan,1,851.399,3,0.04,same
0,155,valid,"[(1202, 769)]",[],[1],[0.6166666666666667],horizontal,"(390.0, 762.0)",1.0166666666666666,0.581,1,857.565,3,0.04,same
0,156,valid,"[(1171, 767)]",[],[1],[0.6333333333333333],horizontal,"(890.0, 762.0)",1.0,0.591,1,863.55,3,0.04,same
0,157,valid,"[(1179, 772)]",[],[1],[0.5166666666666666],horizontal,"(890.0, 762.0)",0.65,0.477,1,869.236,3,0.04,same
0,158,catch,"[(1167, 767)]",[],[1],[],vertical,"(890.0, 762.0)",1.7,nan,1,874.214,3,0.04,same
0,159,valid,"[(1174, 791)]",[],[1],[0.6166666666666667],vertical,"(390.0, 762.0)",1.2833333333333332,0.574,1,879.98,3,0.02,same
0,160,catch,"[(1180, 772)]",[],[1],[],vertical,"(390.0, 762.0)",1.7,nan,1,886.024,3,0.02,same
0,161,valid,"[(1160, 770)]",[],[1],[0.6833333333333333],vertical,"(390.0, 762.0)",1.1,0.641,1,892.373,3,0.02,same
0,162,valid,"[(1161, 762)]",[],[1],[0.6833333333333333],horizontal,"(390.0, 262.0)",1.1666666666666667,0.645,1,898.799,3,0.02,same
0,163,catch,"[(1160, 767)]",[],[1],[],horizontal,"(890.0, 262.0)",1.7,nan,1,904.865,3,0.02,same
0,164,catch,"[(1184, 768)]",[],[1],[],horizontal,"(390.0, 762.0)",1.7,nan,1,911.148,3,0.02,same
0,165,invalid_adjacent_other_bar,"[(1165, 766)]",[],[1],[0.55],vertical,"(390.0, 762.0)",1.1333333333333333,0.515,1,916.997,3,0.02,other
0,166,valid,"[(1177, 784)]",[],[1],[0.5833333333333334],vertical,"(390.0, 762.0)",1.0666666666666667,0.541,1,922.627,3,0.02,same
0,167,valid,"[(1166, 774)]",[],[1],[0.5833333333333334],horizontal,"(890.0, 762.0)",0.6666666666666666,0.55,1,928.981,3,0.02,same
0,168,invalid_same_bar,"[(1169, 772)]",[],[1],[0.85],vertical,"(390.0, 262.0)",1.25,nan,0,934.519,0,0.02,same
0,169,valid,"[(1166, 773)]",[],[1],[0.5666666666666667],vertical,"(390.0, 262.0)",0.9833333333333333,0.533,1,939.644,1,0.02,same
0,170,valid,"[(1176, 767)]",[],[1],[0.85],vertical,"(390.0, 262.0)",0.8833333333333333,nan,0,944.85,0,0.02,same
0,171,valid,"[(1145, 785)]",[],[1],[0.6833333333333333],vertical,"(890.0, 262.0)",0.9666666666666667,0.652,1,949.647,1,0.02,same
0,172,valid,"[(1205, 803)]",[],[1],[0.6666666666666666],vertical,"(390.0, 262.0)",1.2333333333333334,0.621,1,954.623,1,0.02,same
0,173,invalid_adjacent_other_bar,"[(1183, 763)]",[],[1],[0.6666666666666666],horizontal,"(890.0, 262.0)",1.3,0.624,1,959.869,1,0.02,other
0,174,valid,"[(1164, 777)]",[],[1],[0.8333333333333334],horizontal,"(890.0, 762.0)",0.7666666666666666,0.786,1,965.335,2,0.02,same
0,175,valid,"[(1178, 795)]",[],[1],[0.6],horizontal,"(890.0, 762.0)",1.0666666666666667,0.557,1,971.133,2,0.02,same
0,176,invalid_adjacent_other_bar,"[(1178, 788)]",[],[1],[0.55],vertical,"(890.0, 762.0)",0.4,0.507,1,977.022,2,0.02,other
0,177,valid,"[(1161, 759)]",[],[1],[0.5833333333333334],horizontal,"(390.0, 762.0)",0.85,0.548,1,981.931,3,0.02,same
0,178,catch,"[(1177, 765)]",[],[1],[],horizontal,"(390.0, 762.0)",1.7,nan,1,987.558,3,0.02,same
0,179,catch,"[(1175, 772)]",[],[1],[],horizontal,"(390.0, 762.0)",1.7,nan,1,993.853,3,0.02,same
0,180,valid,"[(1169, 774)]",[],[1],[0.5],horizontal,"(390.0, 762.0)",1.4833333333333334,0.461,1,999.592,3,0.02,same
0,181,valid,"[(1166, 761)]",[],[1],[0.6],horizontal,"(390.0, 262.0)",0.9166666666666666,0.564,1,1006.228,3,0.02,same
0,182,catch,"[(1175, 771)]",[],[1],[],vertical,"(390.0, 762.0)",1.7,nan,1,1011.711,3,0.02,same
0,183,valid,"[(1176, 772)]",[],[1],[0.55],vertical,"(390.0, 262.0)",1.3333333333333333,0.508,1,1017.565,3,0.02,same
0,184,valid,"[(1181, 768)]",[],[1],[0.7166666666666667],vertical,"(890.0, 762.0)",1.2666666666666666,0.669,1,1023.999,3,0.02,same
0,185,valid,"[(1178, 787)]",[],[1],[0.7333333333333333],horizontal,"(390.0, 262.0)",1.1333333333333333,0.691,1,1030.114,3,0.02,same
0,186,invalid_same_bar,"[(1206, 779)]",[],[1],[0.7333333333333333],horizontal,"(390.0, 762.0)",1.4833333333333334,0.69,1,1036.209,3,0.02,same
0,187,valid,"[(1185, 774)]",[],[1],[0.5666666666666667],horizontal,"(390.0, 262.0)",0.48333333333333334,0.525,1,1042.607,3,0.02,same
0,188,valid,"[(1170, 796)]",[],[1],[0.5666666666666667],horizontal,"(390.0, 762.0)",1.15,0.525,1,1048.199,3,0.02,same
0,189,valid,"[(1160, 763)]",[],[1],[0.6333333333333333],horizontal,"(890.0, 762.0)",1.1666666666666667,0.591,1,1054.504,3,0.0,same
0,190,invalid_adjacent_other_bar,"[(1210, 776)]",[],[1],[0.5333333333333333],horizontal,"(890.0, 262.0)",0.9166666666666666,0.49,1,1060.649,3,0.0,other
0,191,invalid_same_bar,"[(1167, 764)]",[],[1],[0.5666666666666667],horizontal,"(390.0, 762.0)",0.4666666666666667,0.529,1,1066.82,3,0.0,same
0,192,catch,"[(1180, 766)]",[],[1],[],horizontal,"(390.0, 762.0)",1.7,nan,1,1072.388,3,0.0,same
0,193,valid,"[(1174, 768)]",[],[1],[0.5833333333333334],vertical,"(390.0, 262.0)",0.6666666666666666,0.542,1,1078.516,3,0.0,same
0,194,valid,"[(1177, 772)]",[],[1],[0.65],vertical,"(390.0, 262.0)",1.3833333333333333,0.612,1,1083.865,3,0.0,same
0,195,valid,"[(1175, 766)]",[],[1],[0.6166666666666667],vertical,"(390.0, 262.0)",0.43333333333333335,0.57,1,1090.199,3,0.0,same
0,196,catch,"[(1202, 775)]",[],[1],[],vertical,"(890.0, 262.0)",1.7,nan,1,1095.674,3,0.0,same
0,197,valid,"[(1162, 784)]",[],[1],[0.75],vertical,"(390.0, 262.0)",1.4166666666666667,0.709,1,1102.022,3,0.0,same
0,198,catch,"[(1180, 769)]",[],[1],[],horizontal,"(390.0, 262.0)",1.7,nan,1,1108.415,3,0.0,same
0,199,invalid_adjacent_other_bar,"[(1175, 778)]",[],[1],[0.85],vertical,"(390.0, 762.0)",0.95,nan,0,1114.697,0,0.0,other
0,200,invalid_adjacent_other_bar,"[(1172, 771)]",[],[1],[0.85],horizontal,"(390.0, 762.0)",0.4166666666666667,nan,0,1119.644,0,0.0,other
0,201,catch,"[(1145, 787)]",[],[1],[],horizontal,"(390.0, 262.0)",1.7,nan,1,1124.058,1,0.0,same
0,202,valid,"[(1160, 762)]",[],[1],[0.6333333333333333],horizontal,"(890.0, 262.0)",0.8166666666666667,0.59,1,1129.295,1,0.0,same
0,203,valid,"[(1179, 766)]",[],[1],[0.55],vertical,"(890.0, 762.0)",1.35,0.515,1,1134.123,1,0.0,same
0,204,valid,"[(1195, 788)]",[],[1],[0.6166666666666667],vertical,"(890.0, 762.0)",0.5166666666666666,0.572,1,1139.715,2,0.0,same
0,205,valid,"[(1175, 786)]",[],[1],[0.85],vertical,"(890.0, 262.0)",0.7833333333333333,nan,0,1144.945,0,0.0,same
0,206,valid,"[(1140, 777)]",[],[1],[0.5666666666666667],vertical,"(890.0, 762.0)",0.7333333333333333,0.529,1,1149.692,1,0.0,same
0,207,valid,"[(1185, 763)]",[],[1],[0.6333333333333333],vertical,"(390.0, 762.0)",0.8166666666666667,0.59,1,1154.335,1,0.0,same
0,208,valid,"[(1175, 768)]",[],[1],[0.5666666666666667],horizontal,"(390.0, 262.0)",0.6833333333333333,0.534,1,1159.15,1,0.0,same
0,209,valid,"[(1178, 766)]",[],[1],[0.8166666666666667],horizontal,"(890.0, 262.0)",0.8666666666666667,0.768,1,1164.215,2,0.0,same
0,210,valid,"[(1176, 784)]",[],[1],[0.65],horizontal,"(390.0, 762.0)",1.0333333333333332,0.606,1,1170.449,2,0.0,same
0,211,catch,"[(1188, 781)]",[],[1],[],vertical,"(390.0, 762.0)",1.7,nan,1,1176.597,2,0.0,same
0,212,valid,"[(1168, 795)]",[],[1],[0.1],vertical,"(890.0, 762.0)",1.2666666666666666,0.068,0,1182.116,0,0.0,same
0,213,catch,"[(1160, 772)]",[],[1],[],vertical,"(890.0, 262.0)",1.7,nan,1,1187.024,1,0.0,same
0,214,valid,"[(1173, 766)]",[],[1],[0.5333333333333333],horizontal,"(890.0, 262.0)",0.36666666666666664,0.5,1,1191.827,1,0.0,same
0,215,catch,"[(1173, 766)]",[],[1],[],horizontal,"(890.0, 262.0)",1.7,nan,1,1195.941,1,0.0,same
0,216,valid,"[(1170, 791)]",[],[1],[0.7333333333333333],horizontal,"(890.0, 762.0)",1.2833333333333332,0.69,1,1201.462,2,0.0,same
0,217,catch,"[(1177, 769)]",[],[1],[],vertical,"(390.0, 762.0)",1.7,nan,1,1207.949,2,0.0,same
0,218,catch,"[(1175, 806)]",[],[1],[],horizontal,"(390.0, 762.0)",1.7,nan,1,1213.764,2,0.0,same
0,219,valid,"[(1177, 767)]",[],[1],[0.65],horizontal,"(890.0, 762.0)",1.3333333333333333,0.619,1,1219.947,3,0.0,same
0,220,invalid_same_bar,"[(1165, 766)]",[],[1],[0.6333333333333333],vertical,"(890.0, 762.0)",1.5166666666666666,0.593,1,1226.849,3,0.0,same
0,221,valid,"[(1172, 766)]",[],[1],[0.7166666666666667],horizontal,"(890.0, 762.0)",0.7,0.669,1,1233.229,3,0.0,same
0,222,invalid_same_bar,"[(1178, 787)]",[],[1],[0.7333333333333333],vertical,"(890.0, 762.0)",1.2833333333333332,0.701,1,1238.563,3,0.0,same
0,223,valid,"[(1176, 772)]",[],[1],[0.5333333333333333],vertical,"(890.0, 262.0)",0.4166666666666667,0.491,1,1244.9,3,0.0,same
0,224,valid,"[(1177, 780)]",[],[1],[0.5166666666666666],horizontal,"(390.0, 762.0)",1.5,0.483,1,1249.931,3,0.0,same
0,225,valid,"[(1166, 790)]",[],[1],[0.5],vertical,"(890.0, 762.0)",0.6333333333333333,0.46,1,1255.961,3,0.0,same
0,226,valid,"[(1176, 785)]",[],[1],[0.6166666666666667],horizontal,"(390.0, 262.0)",0.8333333333333334,0.573,1,1261.72,3,0.0,same
0,227,valid,"[(1165, 791)]",[],[1],[0.65],vertical,"(390.0, 262.0)",0.36666666666666664,0.607,1,1267.304,3,0.0,same
0,228,valid,"[(1165, 784)]",[],[1],[0.5333333333333333],vertical,"(390.0, 262.0)",0.7,0.494,1,1273.123,3,0.0,same
0,229,valid,"[(1168, 773)]",[],[1],[0.65],vertical,"(390.0, 262.0)",1.1833333333333333,0.603,1,1278.492,3,0.0,same
0,230,valid,"[(1177, 768)]",[],[1],[0.8],horizontal,"(390.0, 762.0)",0.36666666666666664,0.769,1,1284.949,3,0.0,same
0,231,invalid_same_bar,"[(1165, 791)]",[],[1],[0.6333333333333333],vertical,"(890.0, 762.0)",1.3666666666666667,0.592,1,1290.799,3,0.0,same
0,232,valid,"[(1184, 789)]",[],[1],[0.6666666666666666],horizontal,"(890.0, 262.0)",1.5,0.626,1,1297.227,3,0.0,same
0,233,catch,"[(1176, 773)]",[],[1],[],horizontal,"(890.0, 762.0)",1.7,nan,1,1303.666,3,0.0,same
0,234,valid,"[(1175, 773)]",[],[1],[0.85],horizontal,"(890.0, 262.0)",0.7666666666666666,nan,0,1310.132,0,0.0,same
0,235,valid,"[(1160, 795)]",[],[1],[0.5666666666666667],horizontal,"(890.0, 762.0)",0.6666666666666666,0.527,1,1315.157,1,0.0,same
0,236,valid,"[(1180, 768)]",[],[1],[0.43333333333333335],horizontal,"(390.0, 262.0)",1.4166666666666667,0.401,1,1320.116,1,0.0,same
0,237,valid,"[(1163, 769)]",[],[1],[0.65],vertical,"(390.0, 262.0)",1.5166666666666666,0.61,1,1326.138,1,0.0,same
0,238,valid,"[(1180, 766)]",[],[1],[0.6833333333333333],horizontal,"(390.0, 262.0)",1.1166666666666667,0.645,1,1331.758,2,0.0,same
0,239,catch,"[(1159, 749), (1131, 779)]",[],"[0, 1]",[],horizontal,"(890.0, 762.0)",1.7,nan,1,1337.551,2,0.0,same
0,240,valid,"[(1172, 767)]",[],[1],"[0.85, 0.85]",horizontal,"(390.0, 262.0)",0.4666666666666667,"0.816,nan",0,1345.011,0,0.0,same
0,241,catch,"[(1145, 770)]",[],[1],[],vertical,"(890.0, 762.0)",1.7,nan,1,1349.298,1,0.0,same
0,242,catch,"[(1147, 798)]",[],[1],[],vertical,"(390.0, 762.0)",,"('fix', 0.281),nan",0,1354.649,0,0.02,same
0,243,catch,"[(1147, 807)]",[],[1],[],vertical,"(390.0, 762.0)",1.7,nan,1,1356.257,1,0.02,same
0,244,catch,"[(1170, 795)]",[],[1],[],vertical,"(390.0, 762.0)",1.7,nan,1,1361.646,1,0.02,same
0,245,valid,"[(1172, 783)]",[],[1],[0.7166666666666667],vertical,"(390.0, 762.0)",1.0666666666666667,0.684,1,1366.969,1,0.02,same
0,246,invalid_adjacent_other_bar,"[(1179, 771)]",[],[1],[0.6166666666666667],horizontal,"(890.0, 262.0)",1.0666666666666667,0.576,1,1372.344,2,0.02,other
0,247,valid,"[(1194, 770)]",[],[1],[0.5],vertical,"(890.0, 262.0)",0.8166666666666667,0.46,1,1378.099,2,0.02,same
0,248,valid,"[(1188, 782)]",[],[1],[0.7166666666666667],vertical,"(390.0, 262.0)",1.2666666666666666,0.677,1,1383.144,2,0.02,same
0,249,valid,"[(1191, 790)]",[],[1],[0.8333333333333334],vertical,"(390.0, 262.0)",1.0333333333333332,0.798,1,1389.405,3,0.02,same
0,250,valid,"[(1172, 777)]",[],[1],[0.5833333333333334],horizontal,"(390.0, 262.0)",1.0333333333333332,0.543,1,1396.05,3,0.02,same
0,251,valid,"[(1170, 769)]",[],[1],[0.5666666666666667],horizontal,"(890.0, 762.0)",0.36666666666666664,0.526,1,1401.849,3,0.02,same
0,252,catch,"[(1175, 771)]",[],[1],[],horizontal,"(890.0, 262.0)",1.7,nan,1,1407.333,3,0.02,same
0,253,valid,"[(1170, 782)]",[],[1],[0.75],horizontal,"(890.0, 262.0)",1.0833333333333333,0.722,1,1413.845,3,0.02,same
0,254,invalid_same_bar,"[(1175, 768)]",[],[1],[0.8],horizontal,"(390.0, 762.0)",1.2,0.758,1,1420.033,3,0.02,same
0,255,catch,"[(1160, 774)]",[],[1],[],vertical,"(890.0, 762.0)",1.7,nan,1,1426.512,3,0.02,same
0,256,catch,"[(1173, 796)]",[],[1],[],vertical,"(390.0, 762.0)",1.7,nan,1,1433.001,3,0.02,same
0,257,valid,"[(1168, 770)]",[],[1],[0.6],horizontal,"(390.0, 262.0)",0.35,0.556,1,1439.034,3,0.02,same
0,258,valid,"[(1170, 789)]",[],[1],[0.6],horizontal,"(890.0, 762.0)",1.2833333333333332,0.557,1,1444.625,3,0.02,same
0,259,valid,"[(1170, 789)]",[],[1],[0.5833333333333334],horizontal,"(890.0, 262.0)",1.5,0.541,1,1450.455,3,0.02,same
0,260,invalid_same_bar,"[(1175, 770)]",[],[1],[0.5333333333333333],horizontal,"(390.0, 762.0)",1.0333333333333332,0.502,1,1457.149,3,0.02,same
0,261,catch,"[(1177, 790)]",[],[1],[],horizontal,"(390.0, 262.0)",1.7,nan,1,1463.118,3,0.02,same
0,262,valid,"[(1175, 767)]",[],[1],[0.6166666666666667],horizontal,"(390.0, 762.0)",0.6166666666666667,0.574,1,1469.312,3,0.02,same
0,263,catch,"[(1166, 771)]",[],[1],[],horizontal,"(890.0, 762.0)",1.7,nan,1,1474.691,3,0.02,same
0,264,valid,"[(1160, 771)]",[],[1],[0.6166666666666667],horizontal,"(890.0, 762.0)",1.1833333333333333,0.578,1,1480.55,3,0.02,same
0,265,valid,"[(1174, 767)]",[],[1],[0.6666666666666666],vertical,"(390.0, 262.0)",1.0,0.633,1,1486.682,3,0.02,same
0,266,valid,"[(1171, 765)]",[],[1],[0.7333333333333333],horizontal,"(390.0, 762.0)",1.0,0.702,1,1492.98,3,0.02,same
0,267,valid,"[(1170, 776)]",[],[1],[0.5333333333333333],horizontal,"(390.0, 762.0)",1.1333333333333333,0.493,1,1498.95,3,0.02,same
0,268,valid,"[(1165, 766)]",[],[1],[0.7],vertical,"(890.0, 262.0)",0.7666666666666666,0.658,1,1504.615,3,0.02,same
0,269,valid,"[(1170, 766)]",[],[1],[0.5333333333333333],vertical,"(890.0, 262.0)",0.7833333333333333,0.491,1,1510.682,3,0.02,same
0,270,valid,"[(1175, 795)]",[],[1],[0.6833333333333333],vertical,"(390.0, 262.0)",0.7333333333333333,0.643,1,1516.684,3,0.02,same
0,271,valid,"[(1175, 766)]",[],[1],[0.7166666666666667],vertical,"(890.0, 762.0)",0.5333333333333333,0.68,1,1522.424,3,0.02,same
0,272,invalid_adjacent_other_bar,"[(1175, 770)]",[],[1],[0.75],horizontal,"(890.0, 762.0)",0.7166666666666667,0.705,1,1527.967,3,0.02,other
0,273,valid,"[(1177, 787)]",[],[1],[0.65],horizontal,"(890.0, 262.0)",1.1166666666666667,0.612,1,1534.058,3,0.02,same
0,274,valid,"[(1174, 772)]",[],[1],[0.6833333333333333],horizontal,"(390.0, 762.0)",1.2833333333333332,0.639,1,1540.304,3,0.02,same
0,275,invalid_same_bar,"[(1179, 772)]",[],[1],[0.75],vertical,"(390.0, 262.0)",0.8166666666666667,0.71,1,1546.317,3,0.02,same
0,276,catch,"[(1170, 766)]",[],[1],[],vertical,"(890.0, 262.0)",1.7,nan,1,1551.872,3,0.02,same
0,277,valid,"[(1175, 752), (1142, 833)]",[],"[0, 1]",[0.16666666666666666],vertical,"(890.0, 262.0)",1.3,0.134,0,1558.052,0,0.02,same
0,278,valid,"[(1170, 806)]",[],[1],[0.8],horizontal,"(890.0, 262.0)",0.9666666666666667,0.758,1,1564.032,1,0.02,same
0,279,valid,"[(1171, 770)]",[],[1],[0.4666666666666667],vertical,"(890.0, 262.0)",1.4166666666666667,0.423,1,1568.993,1,0.02,same
0,280,valid,"[(1174, 766)]",[],[1],[0.5],horizontal,"(890.0, 762.0)",1.3333333333333333,0.459,1,1574.534,1,0.02,same
0,281,catch,"[(1177, 776)]",[],[1],[],vertical,"(890.0, 262.0)",1.7,nan,1,1579.998,2,0.02,same
0,282,valid,"[(1165, 766)]",[],[1],[0.6666666666666666],horizontal,"(390.0, 762.0)",0.6666666666666666,0.625,1,1585.461,2,0.02,same
0,283,invalid_same_bar,"[(1175, 794)]",[],[1],[0.6833333333333333],horizontal,"(890.0, 762.0)",0.4,0.644,1,1590.484,2,0.02,same
0,284,valid,"[(1166, 769)]",[],[1],[0.8333333333333334],horizontal,"(390.0, 262.0)",0.9666666666666667,0.79,1,1595.434,3,0.02,same
0,285,catch,"[(1172, 766)]",[],[1],[],vertical,"(890.0, 762.0)",1.7,nan,1,1601.55,3,0.02,same
0,286,valid,"[(1172, 766)]",[],[1],[0.6333333333333333],vertical,"(390.0, 762.0)",0.8333333333333334,0.592,1,1607.618,3,0.02,same
0,287,valid,"[(1165, 766)]",[],[1],[0.5666666666666667],vertical,"(390.0, 262.0)",0.8,0.531,1,1613.1,3,0.02,same
0,288,catch,"[(1180, 789)]",[],[1],[],horizontal,"(390.0, 262.0)",1.7,nan,1,1618.504,3,0.02,same
0,289,valid,"[(1172, 789)]",[],[1],[0.6166666666666667],vertical,"(890.0, 762.0)",1.45,0.576,1,1624.404,3,0.02,same
0,290,catch,"[(1169, 790)]",[],[1],[],vertical,"(390.0, 762.0)",1.7,nan,1,1630.457,3,0.02,same
0,291,valid,"[(1176, 791)]",[],[1],[0.7166666666666667],vertical,"(390.0, 262.0)",0.4666666666666667,0.675,1,1636.465,3,0.02,same
0,292,valid,"[(1165, 765)]",[],[1],[0.5666666666666667],horizontal,"(390.0, 762.0)",0.5833333333333334,0.529,1,1641.829,3,0.0,same
0,293,catch,"[(1175, 766)]",[],[1],[],horizontal,"(390.0, 762.0)",1.7,nan,1,1647.524,3,0.0,same
0,294,catch,"[(1170, 775)]",[],[1],[],vertical,"(890.0, 262.0)",1.7,nan,1,1653.463,3,0.0,same
0,295,catch,"[(1170, 766)]",[],[1],[],vertical,"(890.0, 762.0)",1.7,nan,1,1659.907,3,0.0,same
0,296,valid,"[(1178, 773)]",[],[1],[0.55],vertical,"(890.0, 762.0)",1.2,0.509,1,1665.601,3,0.0,same
0,297,catch,"[(1184, 772)]",[],[1],[],vertical,"(890.0, 262.0)",1.7,nan,1,1671.304,3,0.0,same
0,298,catch,"[(1160, 769)]",[],[1],[],vertical,"(890.0, 762.0)",1.7,nan,1,1677.647,3,0.0,same
0,299,valid,"[(1161, 777)]",[],[1],[0.6],vertical,"(890.0, 762.0)",1.0666666666666667,0.563,1,1683.818,3,0.0,same
0,300,valid,"[(1190, 776)]",[],[1],[0.6],vertical,"(390.0, 262.0)",0.43333333333333335,0.561,1,1690.516,3,0.0,same
0,301,valid,"[(1152, 791)]",[],[1],[0.7333333333333333],horizontal,"(890.0, 262.0)",0.7,0.69,1,1695.903,3,0.0,same
0,302,valid,"[(1164, 779)]",[],[1],[0.65],horizontal,"(890.0, 762.0)",0.9833333333333333,0.609,1,1702.483,3,0.0,same
0,303,catch,"[(1140, 788)]",[],[1],[],horizontal,"(390.0, 762.0)",1.7,nan,1,1708.867,3,0.0,same
0,304,valid,"[(1186, 784)]",[],[1],[0.6],vertical,"(890.0, 762.0)",0.8833333333333333,0.563,1,1715.175,3,0.0,same
0,305,invalid_adjacent_other_bar,"[(1168, 766)]",[],[1],[0.6166666666666667],vertical,"(390.0, 262.0)",0.95,0.577,1,1721.388,3,0.0,other
0,306,valid,"[(1175, 770)]",[],[1],[0.7333333333333333],vertical,"(890.0, 262.0)",1.1166666666666667,0.694,1,1727.446,3,0.0,same
0,307,valid,"[(1177, 786)]",[],[1],[0.65],vertical,"(890.0, 762.0)",0.6666666666666666,0.611,1,1733.384,3,0.0,same
0,308,valid,"[(1175, 784)]",[],[1],[0.7833333333333333],horizontal,"(890.0, 262.0)",0.4,0.739,1,1739.027,3,0.0,same
0,309,valid,"[(1170, 772)]",[],[1],[0.6833333333333333],horizontal,"(390.0, 762.0)",1.15,0.642,1,1744.502,3,0.0,same
0,310,valid,"[(1169, 766)]",[],[1],[0.7833333333333333],vertical,"(890.0, 762.0)",0.4666666666666667,0.744,1,1750.567,3,0.0,same
0,311,valid,"[(1175, 777)]",[],[1],[0.5333333333333333],horizontal,"(890.0, 262.0)",0.7666666666666666,0.494,1,1756.002,3,0.0,same
0,312,valid,"[(1168, 772)]",[],[1],[],vertical,"(390.0, 262.0)",,"('cti', 1.209)",0,1761.352,0,0.0,same
0,313,valid,"[(1150, 801)]",[],[1],[0.5833333333333334],vertical,"(890.0, 262.0)",0.9333333333333333,0.541,1,1765.858,1,0.0,same
0,314,valid,"[(1171, 773)]",[],[1],[0.6833333333333333],vertical,"(390.0, 262.0)",1.0333333333333332,0.642,1,1771.035,1,0.0,same
0,315,catch,"[(1175, 775)]",[],[1],[],horizontal,"(890.0, 762.0)",1.7,nan,1,1776.152,1,0.0,same
0,316,invalid_adjacent_other_bar,"[(1168, 765)]",[],[1],[0.8333333333333334],horizontal,"(890.0, 762.0)",0.8333333333333334,0.786,1,1781.184,2,0.0,other
0,317,catch,"[(1165, 791)]",[],[1],[],vertical,"(890.0, 762.0)",1.7,nan,1,1786.727,2,0.0,same
0,318,catch,"[(1174, 776)]",[],[1],[],horizontal,"(390.0, 762.0)",1.7,nan,1,1792.352,2,0.0,same
0,319,valid,"[(1173, 770)]",[],[1],[0.5666666666666667],horizontal,"(390.0, 262.0)",0.7,0.53,1,1798.584,3,0.0,same
0,320,invalid_same_bar,"[(1175, 772)]",[],[1],[0.55],vertical,"(390.0, 762.0)",0.6666666666666666,0.513,1,1804.526,3,0.0,same
0,321,valid,"[(1190, 773)]",[],[1],[0.5666666666666667],horizontal,"(390.0, 762.0)",1.1333333333333333,0.526,1,1809.968,3,0.0,same
0,322,valid,"[(1171, 768)]",[],[1],[],horizontal,"(390.0, 262.0)",,"('fix', 0.3)",0,1816.484,0,0.0,same
0,323,invalid_adjacent_other_bar,"[(1148, 804)]",[],[1],[0.5666666666666667],horizontal,"(390.0, 262.0)",1.1166666666666667,0.525,1,1818.152,1,0.0,other
0,324,valid,"[(1168, 764)]",[],[1],[0.7],vertical,"(890.0, 262.0)",0.5833333333333334,0.663,1,1823.41,1,0.0,same
0,325,valid,"[(1170, 786)]",[],[1],[0.5833333333333334],horizontal,"(890.0, 762.0)",1.5,0.543,1,1827.905,1,0.0,same
0,326,catch,"[(1174, 770)]",[],[1],[],horizontal,"(890.0, 262.0)",1.7,nan,1,1834.018,2,0.0,same
0,327,valid,"[(1191, 774)]",[],[1],[0.7333333333333333],horizontal,"(390.0, 762.0)",1.1333333333333333,0.686,1,1840.126,2,0.0,same
0,328,valid,"[(1176, 796)]",[],[1],[0.5333333333333333],horizontal,"(390.0, 262.0)",0.9166666666666666,0.497,1,1845.805,2,0.0,same
0,329,catch,"[(1175, 774)]",[],[1],[],horizontal,"(890.0, 262.0)",1.7,nan,1,1851.424,3,0.0,same
0,330,catch,"[(1166, 789)]",[],[1],[],vertical,"(890.0, 262.0)",1.7,nan,1,1857.652,3,0.0,same
0,331,catch,"[(1178, 773)]",[],[1],[],horizontal,"(890.0, 762.0)",1.7,nan,1,1863.552,3,0.0,same
0,332,valid,"[(1211, 774)]",[],[1],[0.65],horizontal,"(390.0, 762.0)",1.2166666666666666,0.612,1,1869.797,3,0.0,same
0,333,valid,"[(1175, 773)]",[],[1],[0.5666666666666667],horizontal,"(390.0, 262.0)",0.5833333333333334,0.532,1,1876.134,3,0.0,same
0,334,valid,"[(1175, 793)]",[],[1],[0.6166666666666667],vertical,"(890.0, 762.0)",1.45,0.58,1,1881.799,3,0.0,same
0,335,invalid_adjacent_other_bar,"[(1190, 794)]",[],[1],[0.85],vertical,"(390.0, 262.0)",0.5,nan,0,1887.951,0,0.0,other
0,336,valid,"[(1166, 780)]",[],[1],[0.85],horizontal,"(390.0, 762.0)",0.4166666666666667,nan,0,1892.299,0,0.0,same
0,337,catch,"[(1126, 806)]",[],[1],[],vertical,"(390.0, 262.0)",1.7,nan,1,1896.883,1,0.0,same
0,338,catch,"[(1192, 783)]",[],[1],[],horizontal,"(390.0, 262.0)",1.7,nan,1,1902.307,1,0.0,same
0,339,valid,"[(1178, 784)]",[],[1],[0.6],vertical,"(890.0, 262.0)",1.3,0.559,1,1907.201,1,0.0,same
0,340,valid,"[(1171, 771)]",[],[1],[0.5333333333333333],horizontal,"(890.0, 262.0)",0.7,0.497,1,1912.68,2,0.0,same
0,341,valid,"[(1180, 785)]",[],[1],[0.65],horizontal,"(390.0, 762.0)",1.3666666666666667,0.61,1,1918.13,2,0.0,same
0,342,valid,"[(1165, 798)]",[],[1],[0.7166666666666667],vertical,"(390.0, 262.0)",1.1333333333333333,0.678,1,1924.285,2,0.0,same
0,343,catch,"[(1168, 781)]",[],[1],[],horizontal,"(390.0, 762.0)",,"('cti', 1.46),nan",0,1929.968,0,0.02,same
0,344,valid,"[(1115, 808)]",[],[1],[0.6166666666666667],horizontal,"(390.0, 762.0)",1.0,0.577,1,1934.686,1,0.02,same
0,345,valid,"[(1177, 766)]",[],[1],[0.7],vertical,"(890.0, 762.0)",0.6333333333333333,0.661,1,1940.244,1,0.02,same
0,346,valid,"[(1180, 768)]",[],[1],[0.85],horizontal,"(390.0, 262.0)",0.36666666666666664,nan,0,1945.251,0,0.02,same
0,347,valid,"[(1148, 793)]",[],[1],[0.5833333333333334],horizontal,"(890.0, 262.0)",0.48333333333333334,0.536,1,1949.622,1,0.02,same
0,348,valid,"[(1193, 770)]",[],[1],[0.7166666666666667],horizontal,"(890.0, 762.0)",1.2333333333333334,0.684,1,1954.169,1,0.02,same
0,349,valid,"[(1170, 801)]",[],[1],[0.6],horizontal,"(890.0, 262.0)",1.2833333333333332,0.56,1,1959.78,1,0.02,same
0,350,valid,"[(1178, 786)]",[],[1],[0.5666666666666667],horizontal,"(390.0, 262.0)",1.5166666666666666,0.523,1,1965.197,2,0.02,same
0,351,valid,"[(1170, 796)]",[],[1],[0.5666666666666667],horizontal,"(390.0, 262.0)",1.4666666666666666,0.526,1,1971.147,2,0.02,same
0,352,catch,"[(1162, 769)]",[],[1],[],horizontal,"(890.0, 762.0)",1.7,nan,1,1977.501,2,0.02,same
0,353,valid,"[(1165, 795)]",[],[1],[0.7833333333333333],vertical,"(890.0, 262.0)",1.1666666666666667,0.735,1,1982.923,3,0.02,same
0,354,valid,"[(1177, 780)]",[],[1],[0.65],vertical,"(390.0, 762.0)",1.1833333333333333,0.61,1,1989.535,3,0.02,same
0,355,valid,"[(1159, 777)]",[],[1],[0.6166666666666667],vertical,"(390.0, 762.0)",0.7333333333333333,0.568,1,1995.629,3,0.02,same
0,356,valid,"[(1160, 780)]",[],[1],[0.55],horizontal,"(390.0, 262.0)",0.36666666666666664,0.507,1,2001.334,3,0.02,same
0,357,valid,"[(1165, 775)]",[],[1],[0.6666666666666666],horizontal,"(390.0, 262.0)",0.5166666666666666,0.622,1,2006.736,3,0.02,same
0,358,catch,"[(1178, 791)]",[],[1],[],horizontal,"(890.0, 262.0)",1.7,nan,1,2011.821,3,0.02,same
0,359,invalid_same_bar,"[(1160, 782)]",[],[1],[0.5666666666666667],vertical,"(390.0, 262.0)",0.48333333333333334,0.523,1,2017.719,3,0.02,same
0,360,valid,"[(1162, 782)]",[],[1],[0.7],horizontal,"(390.0, 262.0)",0.8,0.651,1,2023.051,3,0.02,same
0,361,valid,"[(1161, 777)]",[],[1],[0.5333333333333333],vertical,"(890.0, 762.0)",1.05,0.488,1,2029.019,3,0.02,same
0,362,valid,"[(1167, 760)]",[],[1],[0.7166666666666667],vertical,"(390.0, 262.0)",1.1666666666666667,0.669,1,2034.966,3,0.02,same
0,363,catch,"[(1160, 782)]",[],[1],[],vertical,"(890.0, 762.0)",1.7,nan,1,2041.004,3,0.02,same
0,364,catch,"[(1180, 782)]",[],[1],[],vertical,"(890.0, 762.0)",1.7,nan,1,2046.901,3,0.02,same
0,365,catch,"[(1172, 790)]",[],[1],[],vertical,"(390.0, 262.0)",1.7,nan,1,2053.322,3,0.02,same
0,366,catch,"[(1165, 786)]",[],[1],[],vertical,"(890.0, 762.0)",1.7,nan,1,2059.339,3,0.02,same
0,367,valid,"[(1170, 776)]",[],[1],[0.6666666666666666],horizontal,"(390.0, 262.0)",1.0333333333333332,0.621,1,2065.208,3,0.02,same
0,368,valid,"[(1179, 782)]",[],[1],[0.65],horizontal,"(390.0, 762.0)",0.7833333333333333,0.605,1,2071.099,3,0.02,same
0,369,valid,"[(1161, 757)]",[],[1],[0.26666666666666666],horizontal,"(390.0, 762.0)",1.3333333333333333,0.233,1,2076.868,3,0.02,same
0,370,valid,"[(1165, 771)]",[],[1],[0.65],vertical,"(890.0, 262.0)",0.8833333333333333,0.605,1,2083.164,3,0.02,same
0,371,catch,"[(1174, 764)]",[],[1],[],vertical,"(890.0, 762.0)",1.7,nan,1,2088.83,3,0.02,same
0,372,valid,"[(1177, 761)]",[],[1],[0.5666666666666667],horizontal,"(890.0, 762.0)",0.85,0.52,1,2094.653,3,0.02,same
0,373,valid,"[(1185, 790)]",[],[1],[0.65],vertical,"(390.0, 262.0)",1.45,0.604,1,2100.618,3,0.02,same
0,374,valid,"[(1138, 775)]",[],[1],[0.6333333333333333],horizontal,"(390.0, 262.0)",1.1333333333333333,0.59,1,2107.342,3,0.02,same
0,375,invalid_adjacent_other_bar,"[(1179, 778)]",[],[1],[0.6666666666666666],horizontal,"(890.0, 262.0)",1.1666666666666667,0.616,1,2113.618,3,0.02,other
0,376,catch,"[(1170, 791)]",[],[1],[],horizontal,"(390.0, 262.0)",1.7,nan,1,2119.52,3,0.02,same
0,377,catch,"[(1175, 789)]",[],[1],[],horizontal,"(890.0, 262.0)",1.7,nan,1,2125.636,3,0.02,same
0,378,catch,"[(1182, 767)]",[],[1],[],horizontal,"(890.0, 262.0)",1.7,nan,1,2131.601,3,0.02,same
0,379,valid,"[(1185, 777)]",[],[1],[0.6833333333333333],vertical,"(890.0, 762.0)",1.2,0.638,1,2137.511,3,0.02,same
0,380,invalid_same_bar,"[(1140, 792)]",[],[1],[0.7],vertical,"(390.0, 762.0)",0.85,0.657,1,2144.003,3,0.02,same
0,381,valid,"[(1164, 784)]",[],[1],[0.85],vertical,"(390.0, 762.0)",0.5333333333333333,nan,0,2150.756,0,0.02,same
0,382,valid,"[(1140, 787)]",[],[1],[0.6],vertical,"(890.0, 762.0)",1.25,0.554,1,2154.97,1,0.02,same
0,383,invalid_same_bar,"[(1184, 781)]",[],[1],[0.5166666666666666],vertical,"(890.0, 262.0)",0.5,0.479,1,2160.396,1,0.02,same
0,384,valid,"[(1175, 759)]",[],[1],[0.5833333333333334],horizontal,"(890.0, 262.0)",1.1833333333333333,0.54,1,2164.786,1,0.02,same
0,385,catch,"[(1174, 779)]",[],[1],[],horizontal,"(890.0, 762.0)",1.7,nan,1,2170.268,2,0.02,same
0,386,valid,"[(1160, 793)]",[],[1],[0.5333333333333333],horizontal,"(390.0, 262.0)",0.85,0.493,1,2175.784,2,0.02,same
0,387,valid,"[(1205, 792)]",[],[1],[0.6333333333333333],vertical,"(390.0, 762.0)",1.3166666666666667,0.591,1,2180.645,2,0.02,same
0,388,valid,"[(1181, 781)]",[],[1],[0.5333333333333333],horizontal,"(890.0, 762.0)",0.3833333333333333,0.492,1,2186.39,3,0.02,same
0,389,catch,"[(1170, 795)]",[],[1],[],vertical,"(390.0, 262.0)",1.7,nan,1,2191.447,3,0.02,same
0,390,catch,"[(1162, 777)]",[],[1],[],horizontal,"(390.0, 262.0)",1.7,nan,1,2197.317,3,0.02,same
0,391,catch,"[(1160, 772)]",[],[1],[],vertical,"(390.0, 262.0)",1.7,nan,1,2203.569,3,0.02,same
0,392,catch,"[(1161, 788)]",[],[1],[],vertical,"(890.0, 262.0)",1.7,nan,1,2209.886,3,0.02,same
0,393,valid,"[(1180, 783)]",[],[1],[0.7166666666666667],horizontal,"(890.0, 262.0)",1.0833333333333333,0.671,1,2215.694,3,0.0,same
0,394,valid,"[(1141, 769)]",[],[1],[0.6333333333333333],horizontal,"(390.0, 762.0)",0.6166666666666667,0.587,1,2221.855,3,0.0,same
0,395,valid,"[(1160, 788)]",[],[1],[0.85],vertical,"(390.0, 762.0)",1.1,nan,0,2227.837,0,0.0,same
0,396,catch,"[(1160, 784)]",[],[1],[],horizontal,"(390.0, 262.0)",1.7,nan,1,2232.603,1,0.0,same
0,397,valid,"[(1177, 782)]",[],[1],[0.7166666666666667],horizontal,"(390.0, 262.0)",0.7333333333333333,0.671,1,2238.005,1,0.0,same
0,398,valid,"[(1193, 776)]",[],[1],[0.8166666666666667],vertical,"(390.0, 262.0)",1.0833333333333333,0.772,1,2242.719,1,0.0,same
0,399,valid,"[(1180, 775)]",[],[1],[0.6],vertical,"(390.0, 262.0)",1.0,0.552,1,2248.534,2,0.0,same
0,400,invalid_same_bar,"[(1183, 783)]",[],[1],[0.5666666666666667],horizontal,"(390.0, 762.0)",0.3833333333333333,0.533,1,2254.239,2,0.0,same
0,401,catch,"[(1178, 777)]",[],[1],[],vertical,"(890.0, 762.0)",1.7,nan,1,2259.385,2,0.0,same
0,402,catch,"[(1178, 786)]",[],[1],[],vertical,"(890.0, 262.0)",1.7,nan,1,2265.071,3,0.0,same
0,403,valid,"[(1181, 789)]",[],[1],[0.6166666666666667],vertical,"(390.0, 762.0)",1.1,0.571,1,2271.701,3,0.0,same
0,404,valid,"[(1175, 791)]",[],[1],[0.65],vertical,"(390.0, 762.0)",1.1666666666666667,0.611,1,2277.956,3,0.0,same
0,405,catch,"[(1178, 777)]",[],[1],[],vertical,"(390.0, 262.0)",1.7,nan,1,2284.386,3,0.0,same
0,406,catch,"[(1177, 762)]",[],[1],[],vertical,"(890.0, 262.0)",1.7,nan,1,2290.254,3,0.0,same
0,407,valid,"[(1177, 774)]",[],[1],[0.8166666666666667],horizontal,"(890.0, 762.0)",1.0666666666666667,0.771,1,2296.387,3,0.0,same
0,408,invalid_same_bar,"[(1186, 793)]",[],[1],[0.55],vertical,"(390.0, 262.0)",1.0333333333333332,0.509,1,2302.307,3,0.0,same
0,409,valid,"[(1175, 789)]",[],[1],[0.85],vertical,"(890.0, 762.0)",1.1666666666666667,nan,0,2308.216,0,0.0,same
0,410,valid,"[(1115, 833)]",[],[1],[0.7166666666666667],vertical,"(890.0, 262.0)",0.35,0.676,1,2313.202,1,0.0,same
0,411,catch,"[(1177, 810)]",[],[1],[],horizontal,"(890.0, 262.0)",,"('cti', 1.532),nan",0,2374.073,0,0.02,same
0,412,valid,"[(1127, 798)]",[],[1],[0.85],horizontal,"(390.0, 262.0)",0.6666666666666666,nan,0,2379.177,0,0.02,same
0,413,valid,"[(1148, 790)]",[],[1],[0.85],horizontal,"(890.0, 762.0)",0.8833333333333333,nan,0,2384.302,0,0.02,same
0,414,catch,"[(1147, 803)]",[],[1],[],vertical,"(890.0, 762.0)",1.7,nan,1,2389.504,1,0.02,same
0,415,valid,"[(1180, 781)]",[],[1],[0.5666666666666667],horizontal,"(390.0, 262.0)",0.95,0.519,1,2395.109,1,0.02,same
0,416,catch,"[(1169, 784)]",[],[1],[],horizontal,"(390.0, 762.0)",1.7,nan,1,2399.903,1,0.02,same
0,417,valid,"[(1175, 771)]",[],[1],[0.85],horizontal,"(390.0, 262.0)",0.9,nan,0,2405.105,0,0.02,same
0,418,valid,"[(1148, 780)]",[],[1],[0.5833333333333334],horizontal,"(390.0, 762.0)",0.9,0.542,1,2410.064,1,0.02,same
0,419,valid,"[(1204, 759)]",[],[1],[0.6166666666666667],vertical,"(390.0, 262.0)",1.1666666666666667,0.57,1,2415.07,1,0.02,same
0,420,invalid_same_bar,"[(1176, 781)]",[],[1],[0.6],horizontal,"(890.0, 262.0)",1.1333333333333333,0.557,1,2420.147,1,0.02,same
0,421,catch,"[(1160, 761)]",[],[1],[],horizontal,"(890.0, 762.0)",1.7,nan,1,2425.436,2,0.02,same
0,422,valid,"[(1175, 784)]",[],[1],[0.7333333333333333],vertical,"(390.0, 762.0)",1.1,0.683,1,2431.323,2,0.02,same
0,423,valid,"[(1156, 767)]",[],[1],[0.5166666666666666],vertical,"(390.0, 762.0)",0.7,0.474,1,2437.401,2,0.02,same
0,424,valid,"[(1177, 772)]",[],[1],[0.6],horizontal,"(390.0, 262.0)",1.4833333333333334,0.559,1,2442.754,3,0.02,same
0,425,valid,"[(1182, 793)]",[],[1],[0.5333333333333333],vertical,"(890.0, 262.0)",1.4666666666666666,0.493,1,2448.921,3,0.02,same
0,426,invalid_adjacent_other_bar,"[(1172, 771)]",[],[1],[0.6333333333333333],vertical,"(890.0, 762.0)",1.1166666666666667,0.594,1,2454.887,3,0.02,other
0,427,catch,"[(1178, 778)]",[],[1],[],horizontal,"(890.0, 762.0)",1.7,nan,1,2461.198,3,0.02,same
0,428,valid,"[(1160, 781)]",[],[1],[0.7],horizontal,"(890.0, 762.0)",1.25,0.653,1,2467.172,3,0.02,same
0,429,valid,"[(1180, 779)]",[],[1],[0.6166666666666667],horizontal,"(390.0, 762.0)",0.9,0.574,1,2473.219,3,0.02,same
0,430,catch,"[(1177, 785)]",[],[1],[],vertical,"(390.0, 762.0)",1.7,nan,1,2479.054,3,0.02,same
0,431,catch,"[(1171, 768)]",[],[1],[],vertical,"(890.0, 762.0)",1.7,nan,1,2485.108,3,0.02,same
0,432,valid,"[(1179, 778)]",[],[1],[0.65],horizontal,"(890.0, 762.0)",1.4333333333333333,0.609,1,2490.988,3,0.02,same
0,433,catch,"[(1179, 783)]",[],[1],[],vertical,"(390.0, 262.0)",1.7,nan,1,2497.384,3,0.02,same
0,434,invalid_adjacent_other_bar,"[(1176, 794)]",[],[1],[0.85],vertical,"(890.0, 262.0)",0.9833333333333333,nan,0,2503.194,0,0.02,other
0,435,invalid_adjacent_other_bar,"[(1131, 796)]",[],[1],[0.7166666666666667],horizontal,"(390.0, 262.0)",1.0666666666666667,0.674,1,2508.389,1,0.02,other
0,436,invalid_adjacent_other_bar,"[(1176, 767)]",[],[1],[0.6],vertical,"(390.0, 262.0)",0.5666666666666667,0.562,1,2513.854,1,0.02,other
0,437,invalid_adjacent_other_bar,"[(1176, 765)]",[],[1],[0.6833333333333333],vertical,"(890.0, 762.0)",1.2333333333333334,0.643,1,2518.208,1,0.02,other
0,438,catch,"[(1175, 774)]",[],[1],[],vertical,"(390.0, 762.0)",1.7,nan,1,2523.637,2,0.02,same
0,439,valid,"[(1160, 776)]",[],[1],[0.6166666666666667],horizontal,"(390.0, 262.0)",1.4333333333333333,0.573,1,2529.583,2,0.02,same
0,440,valid,"[(1177, 776)]",[],[1],[0.6],vertical,"(890.0, 762.0)",0.7166666666666667,0.56,1,2535.444,2,0.02,same
0,441,valid,"[(1173, 771)]",[],[1],[0.5833333333333334],vertical,"(390.0, 762.0)",1.3666666666666667,0.542,1,2540.853,3,0.02,same
0,442,valid,"[(1164, 783)]",[],[1],[0.6833333333333333],vertical,"(890.0, 762.0)",1.2666666666666666,0.64,1,2547.594,3,0.02,same
0,443,catch,"[(1195, 784)]",[],[1],[],horizontal,"(390.0, 762.0)",1.7,nan,1,2553.77,3,0.02,same
0,444,valid,"[(1175, 780)]",[],[1],[0.6333333333333333],horizontal,"(390.0, 762.0)",0.9333333333333333,0.59,1,2559.82,3,0.02,same
0,445,valid,"[(1175, 766)]",[],[1],[0.5833333333333334],horizontal,"(890.0, 262.0)",1.4,0.543,1,2565.988,3,0.02,same
0,446,catch,"[(1183, 775)]",[],[1],[],horizontal,"(890.0, 262.0)",1.7,nan,1,2572.604,3,0.02,same
0,447,valid,"[(1155, 777)]",[],[1],[0.6333333333333333],horizontal,"(890.0, 762.0)",0.6666666666666666,0.586,1,2578.553,3,0.02,same
0,448,valid,"[(1155, 766)]",[],[1],[0.8166666666666667],horizontal,"(890.0, 762.0)",0.9333333333333333,0.767,1,2584.253,3,0.02,same
0,449,valid,"[(1175, 768)]",[],[1],[0.6166666666666667],horizontal,"(390.0, 762.0)",1.0,0.575,1,2590.021,3,0.02,same
0,450,catch,"[(1171, 768)]",[],[1],[],vertical,"(390.0, 762.0)",1.7,nan,1,2595.521,3,0.02,same
0,451,valid,"[(1174, 779)]",[],[1],[0.75],vertical,"(390.0, 262.0)",1.5166666666666666,0.704,1,2601.613,3,0.02,same
0,452,catch,"[(1155, 793)]",[],[1],[],horizontal,"(390.0, 762.0)",1.7,nan,1,2608.288,3,0.02,same
0,453,valid,"[(1170, 782)]",[],[1],[0.48333333333333334],vertical,"(890.0, 262.0)",1.0666666666666667,0.454,1,2614.45,3,0.02,same
0,454,valid,"[(1176, 776)]",[],[1],[0.6166666666666667],vertical,"(890.0, 762.0)",0.48333333333333334,0.582,1,2620.231,3,0.02,same
0,455,valid,"[(1175, 771)]",[],[1],[0.75],horizontal,"(890.0, 762.0)",0.6,0.701,1,2625.524,3,0.02,same
0,456,valid,"[(1179, 786)]",[],[1],[0.7333333333333333],horizontal,"(890.0, 262.0)",0.4,0.691,1,2630.826,3,0.02,same
0,457,valid,"[(1176, 783)]",[],[1],[0.5666666666666667],vertical,"(890.0, 262.0)",1.5333333333333332,0.526,1,2636.274,3,0.02,same
0,458,catch,"[(1180, 773)]",[],[1],[],horizontal,"(390.0, 262.0)",1.7,nan,1,2642.512,3,0.02,same
0,459,valid,"[(1175, 774)]",[],[1],[0.6833333333333333],horizontal,"(890.0, 262.0)",1.3,0.636,1,2648.683,3,0.02,same
0,460,invalid_same_bar,"[(1158, 777)]",[],[1],[0.85],horizontal,"(390.0, 262.0)",0.3833333333333333,nan,0,2654.816,0,0.02,same
0,461,valid,"[(1159, 769)]",[],[1],[0.7666666666666666],vertical,"(390.0, 762.0)",0.35,0.721,1,2658.887,1,0.0,same
0,462,catch,"[(1209, 767)]",[],[1],[],vertical,"(890.0, 262.0)",1.7,nan,1,2664.07,1,0.0,same
0,463,invalid_same_bar,"[(1177, 755)]",[],[1],[0.85],horizontal,"(390.0, 762.0)",0.65,nan,0,2669.071,0,0.0,same
0,464,catch,"[(1150, 770)]",[],[1],[],vertical,"(390.0, 762.0)",1.7,nan,1,2673.52,1,0.0,same
0,465,valid,"[(1180, 777)]",[],[1],[0.6333333333333333],vertical,"(390.0, 762.0)",0.5166666666666666,0.588,1,2678.953,1,0.0,same
0,466,valid,"[(1210, 784)]",[],[1],[0.85],horizontal,"(890.0, 762.0)",0.6166666666666667,nan,0,2683.97,0,0.0,same
0,467,valid,"[(1165, 792)]",[],[1],[0.5833333333333334],vertical,"(390.0, 762.0)",1.15,0.539,1,2688.205,1,0.0,same
0,468,valid,"[(1177, 788)]",[],[1],[0.6166666666666667],horizontal,"(890.0, 262.0)",1.4166666666666667,0.573,1,2693.85,1,0.0,same
0,469,valid,"[(1175, 770)]",[],[1],[0.65],vertical,"(390.0, 762.0)",1.3666666666666667,0.605,1,2699.497,1,0.0,same
0,470,valid,"[(1203, 766)]",[],[1],[0.7333333333333333],horizontal,"(390.0, 262.0)",0.4166666666666667,0.691,1,2704.904,2,0.0,same
0,471,valid,"[(1175, 793)]",[],[1],[0.5833333333333334],vertical,"(890.0, 262.0)",1.5333333333333332,0.55,1,2710.308,2,0.0,same
0,472,valid,"[(1171, 764)]",[],[1],[0.5666666666666667],horizontal,"(890.0, 762.0)",0.75,0.528,1,2715.92,2,0.0,same
0,473,valid,"[(1175, 770)]",[],[1],[0.6666666666666666],horizontal,"(390.0, 762.0)",0.7166666666666667,0.621,1,2721.209,3,0.0,same
0,474,valid,"[(1180, 768)]",[],[1],[0.8166666666666667],horizontal,"(890.0, 762.0)",0.95,0.765,1,2727.048,3,0.0,same
0,475,invalid_same_bar,"[(1178, 786)]",[],[1],[0.5],horizontal,"(890.0, 262.0)",1.15,0.46,1,2733.079,3,0.0,same
0,476,valid,"[(1178, 766)]",[],[1],[0.7666666666666666],vertical,"(390.0, 262.0)",1.3,0.72,1,2738.604,3,0.0,same
0,477,catch,"[(1180, 771)]",[],[1],[],horizontal,"(890.0, 262.0)",1.7,nan,1,2744.842,3,0.0,same
0,478,valid,"[(1165, 776)]",[],[1],[0.6333333333333333],horizontal,"(890.0, 762.0)",1.2666666666666666,0.587,1,2751.1,3,0.0,same
0,479,invalid_same_bar,"[(1180, 770)]",[],[1],[0.6166666666666667],vertical,"(890.0, 262.0)",1.1333333333333333,0.572,1,2757.378,3,0.0,same
0,480,valid,"[(1165, 764)]",[],[1],[0.6666666666666666],vertical,"(390.0, 262.0)",0.5833333333333334,0.63,1,2763.648,3,0.0,same
0,481,invalid_same_bar,"[(1180, 777)]",[],[1],[0.5833333333333334],horizontal,"(390.0, 262.0)",1.5,0.543,1,2769.436,3,0.0,same
0,482,valid,"[(1185, 782)]",[],[1],[0.5666666666666667],horizontal,"(890.0, 762.0)",1.0666666666666667,0.52,1,2775.551,3,0.0,same
0,483,valid,"[(1206, 770)]",[],[1],[0.85],vertical,"(890.0, 762.0)",1.2833333333333332,nan,0,2781.674,0,0.0,same
0,484,valid,"[(1120, 787)]",[],[1],[0.6666666666666666],horizontal,"(890.0, 762.0)",1.25,0.625,1,2786.737,1,0.0,same
0,485,invalid_adjacent_other_bar,"[(1172, 769)]",[],[1],[0.7],horizontal,"(390.0, 262.0)",1.1666666666666667,0.656,1,2792.605,1,0.0,other
0,486,valid,"[(1159, 798)]",[],[1],[0.5333333333333333],horizontal,"(390.0, 262.0)",0.35,0.489,1,2798.037,1,0.0,same
0,487,valid,"[(1145, 779)]",[],[1],[0.6833333333333333],vertical,"(890.0, 762.0)",1.1833333333333333,0.64,1,2802.894,2,0.0,same
0,488,valid,"[(1179, 784)]",[],[1],[0.7],vertical,"(890.0, 762.0)",1.1333333333333333,0.66,1,2808.353,2,0.0,same
0,489,valid,"[(1180, 783)]",[],[1],[0.85],vertical,"(390.0, 762.0)",0.65,nan,0,2814.396,0,0.0,same
0,490,invalid_same_bar,"[(1160, 779)]",[],[1],[0.65],vertical,"(390.0, 262.0)",1.3666666666666667,0.607,1,2819.153,1,0.0,same
0,491,valid,"[(1178, 810)]",[],[1],[0.5833333333333334],horizontal,"(390.0, 262.0)",0.4166666666666667,0.544,1,2824.554,1,0.0,same
0,492,catch,"[(1197, 773)]",[],[1],[],vertical,"(890.0, 262.0)",1.7,nan,1,2829.271,1,0.0,same
0,493,invalid_adjacent_other_bar,"[(1157, 781)]",[],[1],[0.55],vertical,"(890.0, 262.0)",0.5333333333333333,0.51,1,2834.621,2,0.0,other
0,494,catch,"[(1180, 791)]",[],[1],[],horizontal,"(890.0, 762.0)",,"('cti', 1.587),nan",0,2839.521,0,0.02,same
0,495,catch,"[(1156, 789)]",[],[1],[],vertical,"(890.0, 262.0)",1.7,nan,1,2844.486,1,0.02,same
0,496,valid,"[(1157, 756)]",[],[1],[0.75],vertical,"(890.0, 262.0)",1.1166666666666667,0.711,1,2849.773,1,0.02,same
0,497,valid,"[(1157, 788)]",[],[1],[0.65],horizontal,"(390.0, 262.0)",1.2666666666666666,0.604,1,2855.055,1,0.02,same
0,498,invalid_adjacent_other_bar,"[(1176, 786)]",[],[1],[0.7333333333333333],horizontal,"(390.0, 762.0)",0.5166666666666666,0.684,1,2860.538,2,0.02,other
0,499,valid,"[(1176, 767)]",[],[1],[0.4666666666666667],vertical,"(890.0, 762.0)",1.2333333333333334,0.429,1,2865.972,2,0.02,same
0,500,valid,"[(1168, 789)]",[],[1],[0.5833333333333334],vertical,"(890.0, 262.0)",1.1166666666666667,0.542,1,2872.068,2,0.02,same
0,501,valid,"[(1192, 790)]",[],[1],[0.3833333333333333],horizontal,"(390.0, 762.0)",1.4666666666666666,0.346,1,2877.721,3,0.02,same
0,502,valid,"[(1202, 771)]",[],[1],[0.65],horizontal,"(390.0, 762.0)",0.8166666666666667,0.608,1,2884.454,3,0.02,same
0,503,valid,"[(1164, 763)]",[],[1],[0.5666666666666667],horizontal,"(390.0, 762.0)",0.5166666666666666,0.528,1,2890.338,3,0.02,same
0,504,catch,"[(1175, 776)]",[],[1],[],horizontal,"(890.0, 762.0)",1.7,nan,1,2895.791,3,0.02,same
0,505,invalid_same_bar,"[(1164, 789)]",[],[1],[0.85],horizontal,"(390.0, 762.0)",0.8666666666666667,nan,0,2901.511,0,0.02,same
0,506,valid,"[(1140, 782)]",[],[1],[0.5666666666666667],vertical,"(390.0, 262.0)",1.35,0.523,1,2906.221,1,0.02,same
0,507,valid,"[(1178, 762)]",[],[1],[0.5666666666666667],vertical,"(890.0, 262.0)",0.9666666666666667,0.526,1,2911.62,1,0.02,same
0,508,catch,"[(1177, 779)]",[],[1],[],vertical,"(390.0, 762.0)",1.7,nan,1,2917.195,1,0.02,same
0,509,catch,"[(1164, 786)]",[],[1],[],vertical,"(390.0, 762.0)",1.7,nan,1,2922.224,2,0.02,same
0,510,valid,"[(1180, 766)]",[],[1],[0.6166666666666667],horizontal,"(890.0, 262.0)",1.25,0.578,1,2927.688,2,0.02,same
0,511,catch,"[(1182, 759)]",[],[1],[],horizontal,"(890.0, 262.0)",1.7,nan,1,2933.73,2,0.02,same
0,512,catch,"[(1177, 761)]",[],[1],[],horizontal,"(890.0, 762.0)",,"('cti', 1.207),nan",0,2939.673,0,0.04,same
0,513,valid,"[(1164, 773)]",[],[1],[0.7333333333333333],horizontal,"(390.0, 762.0)",1.15,0.687,1,2944.304,1,0.04,same
0,514,invalid_adjacent_other_bar,"[(1175, 769)]",[],[1],[0.7166666666666667],vertical,"(890.0, 262.0)",1.4,0.67,1,2949.425,1,0.04,other
0,515,valid,"[(1179, 785)]",[],[1],[0.6333333333333333],horizontal,"(890.0, 262.0)",0.4166666666666667,0.59,1,2954.788,1,0.04,same
0,516,valid,"[(1175, 766)]",[],[1],"[0.85, 0.85]",vertical,"(390.0, 262.0)",1.2333333333333334,"0.804,nan",0,2959.433,0,0.04,same
0,517,valid,"[(1131, 786)]",[],[1],[0.5666666666666667],horizontal,"(390.0, 762.0)",1.0333333333333332,0.526,1,2964.222,1,0.04,same
0,518,valid,"[(1178, 766)]",[],[1],[0.55],horizontal,"(890.0, 262.0)",0.7166666666666667,0.514,1,2969.321,1,0.04,same
0,519,catch,"[(1160, 766)]",[],[1],[],vertical,"(890.0, 262.0)",1.7,nan,1,2974.598,1,0.04,same
0,520,catch,"[(1181, 778)]",[],[1],[],horizontal,"(890.0, 762.0)",1.7,nan,1,2980.021,2,0.04,same
0,521,valid,"[(1161, 770)]",[],[1],[0.5333333333333333],vertical,"(890.0, 262.0)",1.3333333333333333,0.497,1,2985.672,2,0.04,same
0,522,catch,"[(1160, 779)]",[],[1],[],vertical,"(390.0, 262.0)",1.7,nan,1,2991.919,2,0.04,same
0,523,invalid_adjacent_other_bar,"[(1178, 786)]",[],[1],[0.6666666666666666],horizontal,"(890.0, 262.0)",1.3666666666666667,0.628,1,2997.513,3,0.04,other
0,524,invalid_adjacent_other_bar,"[(1180, 792)]",[],[1],[0.5666666666666667],vertical,"(890.0, 762.0)",0.36666666666666664,0.524,1,3003.714,3,0.04,other
0,525,valid,"[(1173, 772)]",[],[1],[0.5166666666666666],horizontal,"(390.0, 262.0)",0.65,0.477,1,3009.216,3,0.04,same
0,526,valid,"[(1175, 769)]",[],[1],[0.6],vertical,"(390.0, 762.0)",0.7333333333333333,0.559,1,3014.789,3,0.04,same
0,527,valid,"[(1175, 778)]",[],[1],[0.55],vertical,"(390.0, 262.0)",1.2,0.509,1,3020.622,3,0.04,same
0,528,valid,"[(1140, 776)]",[],[1],[0.5666666666666667],horizontal,"(390.0, 762.0)",0.7833333333333333,0.529,1,3026.624,3,0.04,same
0,529,valid,"[(1178, 774)]",[],[1],[0.85],vertical,"(890.0, 262.0)",0.9333333333333333,nan,0,3032.555,0,0.04,same
0,530,valid,"[(1141, 795)]",[],[1],[0.6],vertical,"(390.0, 262.0)",0.85,0.557,1,3037.308,1,0.04,same
0,531,valid,"[(1175, 786)]",[],[1],[0.7833333333333333],horizontal,"(390.0, 262.0)",0.43333333333333335,0.739,1,3042.183,1,0.04,same
0,532,valid,"[(1185, 777)]",[],[1],[0.6333333333333333],horizontal,"(390.0, 262.0)",1.2833333333333332,0.59,1,3046.963,1,0.04,same
0,533,valid,"[(1180, 766)]",[],[1],[0.85],horizontal,"(890.0, 762.0)",0.4666666666666667,nan,0,3052.244,0,0.04,same
0,534,invalid_adjacent_other_bar,"[(1144, 779)]",[],[1],[0.6333333333333333],vertical,"(890.0, 262.0)",0.35,0.593,1,3056.723,1,0.04,other
0,535,valid,"[(1160, 779)]",[],[1],[0.6333333333333333],horizontal,"(390.0, 762.0)",1.4833333333333334,0.59,1,3061.837,1,0.04,same
0,536,catch,"[(1180, 774)]",[],[1],[],vertical,"(390.0, 262.0)",1.7,nan,1,3067.707,1,0.04,same
0,537,valid,"[(1170, 761)]",[],[1],[0.5833333333333334],vertical,"(390.0, 762.0)",1.45,0.543,1,3072.768,2,0.04,same
0,538,valid,"[(1176, 791)]",[],[1],[0.5833333333333334],vertical,"(390.0, 262.0)",0.5666666666666667,0.542,1,3078.992,2,0.04,same
0,539,valid,"[(1162, 789)]",[],[1],[0.6166666666666667],vertical,"(390.0, 262.0)",0.9833333333333333,0.582,1,3083.915,2,0.04,same
0,540,invalid_same_bar,"[(1136, 787)]",[],[1],[0.5333333333333333],vertical,"(890.0, 262.0)",1.2666666666666666,0.49,1,3089.333,3,0.04,same
0,541,valid,"[(1178, 772)]",[],[1],[0.55],horizontal,"(390.0, 262.0)",0.7,0.511,1,3095.751,3,0.04,same
0,542,catch,"[(1174, 778)]",[],[1],[],vertical,"(890.0, 262.0)",1.7,nan,1,3101.431,3,0.04,same
0,543,valid,"[(1155, 783)]",[],[1],[0.65],horizontal,"(890.0, 262.0)",1.3333333333333333,0.602,1,3107.555,3,0.04,same
0,544,valid,"[(1165, 777)]",[],[1],[0.85],vertical,"(390.0, 762.0)",0.8833333333333333,nan,0,3113.899,0,0.02,same
0,545,valid,"[(1140, 862)]",[],[1],[0.65],vertical,"(390.0, 762.0)",0.35,0.608,1,3119.051,1,0.02,same
0,546,valid,"[(1165, 817)]",[],[1],[],horizontal,"(390.0, 262.0)",,"('cti', 0.592)",0,3207.994,0,0.02,same
0,547,valid,"[(1121, 798)]",[],[1],[0.6333333333333333],vertical,"(390.0, 762.0)",1.2166666666666666,0.594,1,3211.898,1,0.02,same
0,548,valid,"[(1178, 778)]",[],[1],[0.5333333333333333],vertical,"(890.0, 762.0)",0.5,0.489,1,3217.471,1,0.02,same
0,549,invalid_adjacent_other_bar,"[(1182, 791)]",[],[1],[0.55],vertical,"(390.0, 262.0)",1.4333333333333333,0.506,1,3221.984,1,0.02,other
0,550,valid,"[(1177, 790)]",[],[1],[0.6333333333333333],vertical,"(890.0, 262.0)",0.5666666666666667,0.591,1,3227.422,2,0.02,same
0,551,catch,"[(1180, 778)]",[],[1],[],horizontal,"(890.0, 762.0)",1.7,nan,1,3232.719,2,0.02,same
0,552,catch,"[(1160, 755)]",[],[1],[],vertical,"(890.0, 762.0)",1.7,nan,1,3238.656,2,0.02,same
0,553,valid,"[(1176, 791)]",[],[1],[0.7333333333333333],vertical,"(390.0, 262.0)",1.0166666666666666,0.684,1,3244.554,3,0.02,same
0,554,valid,"[(1165, 801)]",[],[1],[0.5833333333333334],vertical,"(390.0, 762.0)",1.5,0.547,1,3250.769,3,0.02,same
0,555,valid,"[(1176, 766)]",[],[1],[0.5166666666666666],vertical,"(890.0, 262.0)",0.5666666666666667,0.478,1,3257.11,3,0.02,same
0,556,valid,"[(1170, 760)]",[],[1],[0.5666666666666667],vertical,"(390.0, 762.0)",0.45,0.523,1,3262.46,3,0.02,same
0,557,valid,"[(1210, 764)]",[],[1],[0.7],vertical,"(890.0, 762.0)",1.4166666666666667,0.655,1,3267.545,3,0.02,same
0,558,valid,"[(1180, 779)]",[],[1],[0.5833333333333334],horizontal,"(390.0, 762.0)",0.5,0.556,1,3273.976,3,0.02,same
0,559,valid,"[(1208, 787)]",[],[1],[0.5333333333333333],horizontal,"(890.0, 262.0)",0.9166666666666666,0.493,1,3279.594,3,0.02,same
0,560,valid,"[(1180, 766)]",[],[1],[0.5333333333333333],horizontal,"(390.0, 262.0)",0.75,0.493,1,3285.574,3,0.02,same
0,561,invalid_same_bar,"[(1160, 780)]",[],[1],[0.6333333333333333],vertical,"(890.0, 262.0)",1.3,0.593,1,3290.722,3,0.02,same
0,562,valid,"[(1181, 768)]",[],[1],[0.65],horizontal,"(390.0, 262.0)",1.3333333333333333,0.606,1,3296.921,3,0.0,same
0,563,catch,"[(1183, 784)]",[],[1],[],vertical,"(390.0, 262.0)",1.7,nan,1,3303.492,3,0.0,same
0,564,catch,"[(1192, 772)]",[],[1],[],horizontal,"(390.0, 762.0)",1.7,nan,1,3309.383,3,0.0,same
0,565,catch,"[(1211, 773)]",[],[1],[],horizontal,"(890.0, 262.0)",1.7,nan,1,3315.371,3,0.0,same
0,566,valid,"[(1176, 779)]",[],[1],[0.75],horizontal,"(390.0, 762.0)",0.4166666666666667,0.699,1,3321.739,3,0.0,same
0,567,valid,"[(1210, 772)]",[],[1],[0.6166666666666667],vertical,"(390.0, 762.0)",1.3666666666666667,0.573,1,3327.104,3,0.0,same
0,568,catch,"[(1180, 767)]",[],[1],[],horizontal,"(390.0, 262.0)",1.7,nan,1,3333.222,3,0.0,same
0,569,catch,"[(1181, 787)]",[],[1],[],horizontal,"(390.0, 762.0)",1.7,nan,1,3339.361,3,0.0,same
0,570,valid,"[(1174, 773)]",[],[1],[0.7333333333333333],horizontal,"(890.0, 262.0)",1.4666666666666666,0.691,1,3345.999,3,0.0,same
0,571,valid,"[(1180, 778)]",[],[1],[0.5666666666666667],horizontal,"(890.0, 762.0)",1.5333333333333332,0.529,1,3352.357,3,0.0,same
0,572,invalid_adjacent_other_bar,"[(1178, 772)]",[],[1],[0.5666666666666667],vertical,"(890.0, 762.0)",1.4333333333333333,0.527,1,3358.808,3,0.0,other
0,573,catch,"[(1177, 782)]",[],[1],[],horizontal,"(390.0, 262.0)",1.7,nan,1,3365.406,3,0.0,same
0,574,valid,"[(1180, 772)]",[],[1],[0.5333333333333333],horizontal,"(890.0, 762.0)",0.55,0.494,1,3371.577,3,0.0,same
0,575,valid,"[(1180, 777)]",[],[1],[0.5166666666666666],horizontal,"(890.0, 262.0)",0.5833333333333334,0.482,1,3376.786,3,0.0,same
0,576,valid,"[(1180, 773)]",[],[1],[0.6666666666666666],vertical,"(890.0, 262.0)",0.7666666666666666,0.622,1,3381.823,3,0.0,same
0,577,valid,"[(1166, 771)]",[],[1],[0.85],vertical,"(890.0, 262.0)",0.85,nan,0,3387.689,0,0.0,same
0,578,valid,"[(1145, 773)]",[],[1],[0.85],horizontal,"(390.0, 262.0)",1.0666666666666667,nan,0,3392.926,0,0.0,same
0,579,valid,"[(1146, 791)]",[],[1],[0.75],horizontal,"(390.0, 262.0)",1.0166666666666666,0.705,1,3397.708,1,0.0,same
0,580,valid,"[(1179, 779)]",[],[1],[0.5833333333333334],vertical,"(390.0, 262.0)",0.65,0.541,1,3403.274,1,0.0,same
0,581,valid,"[(1178, 769)]",[],[1],[0.6],horizontal,"(890.0, 262.0)",1.4,0.556,1,3408.223,1,0.0,same
0,582,catch,"[(1202, 782)]",[],[1],[],horizontal,"(890.0, 262.0)",1.7,nan,1,3413.514,2,0.0,same
0,583,valid,"[(1178, 786)]",[],[1],[0.5],vertical,"(390.0, 262.0)",1.35,0.459,1,3418.923,2,0.0,same
0,584,catch,"[(1178, 762)]",[],[1],[],vertical,"(390.0, 262.0)",1.7,nan,1,3424.658,2,0.0,same
0,585,valid,"[(1206, 755)]",[],[1],[0.7166666666666667],horizontal,"(890.0, 762.0)",1.0166666666666666,0.674,1,3430.542,3,0.0,same
0,586,valid,"[(1165, 762)]",[],[1],[0.5666666666666667],horizontal,"(390.0, 762.0)",0.7666666666666666,0.533,1,3436.573,3,0.0,same
0,587,valid,"[(1171, 760)]",[],[1],[0.5333333333333333],vertical,"(890.0, 762.0)",1.0,0.493,1,3442.14,3,0.0,same
0,588,invalid_adjacent_other_bar,"[(1211, 791)]",[],[1],[0.85],vertical,"(390.0, 762.0)",0.6666666666666666,nan,0,3447.712,0,0.0,other
0,589,invalid_same_bar,"[(1156, 791)]",[],[1],[0.7166666666666667],horizontal,"(390.0, 262.0)",0.4666666666666667,0.665,1,3452.072,1,0.0,same
0,590,valid,"[(1180, 776)]",[],[1],[0.65],vertical,"(390.0, 762.0)",1.4,0.606,1,3456.991,1,0.0,same
0,591,valid,"[(1161, 766)]",[],[1],[0.5833333333333334],vertical,"(890.0, 262.0)",0.7333333333333333,0.543,1,3462.386,1,0.0,same
0,592,catch,"[(1176, 758)]",[],[1],[],vertical,"(390.0, 262.0)",1.7,nan,1,3467.406,2,0.0,same
0,593,invalid_adjacent_other_bar,"[(1174, 776)]",[],[1],[0.7166666666666667],horizontal,"(390.0, 762.0)",0.6,0.67,1,3473.624,2,0.0,other
0,594,catch,"[(1200, 785)]",[],[1],[],vertical,"(390.0, 262.0)",1.7,nan,1,3479.224,2,0.0,same
0,595,catch,"[(1180, 770)]",[],[1],[],vertical,"(390.0, 262.0)",1.7,nan,1,3484.574,3,0.0,same
0,596,valid,"[(1179, 777)]",[],[1],[0.5166666666666666],vertical,"(390.0, 262.0)",0.9166666666666666,0.474,1,3491.05,3,0.0,same
0,597,valid,"[(1161, 765)]",[],[1],[0.48333333333333334],vertical,"(890.0, 262.0)",0.85,0.445,1,3496.94,3,0.0,same
0,598,valid,"[(1177, 769)]",[],[1],[0.6],vertical,"(890.0, 762.0)",1.0666666666666667,0.563,1,3502.272,3,0.0,same
0,599,invalid_same_bar,"[(1177, 767)]",[],[1],[0.6833333333333333],horizontal,"(390.0, 262.0)",1.2333333333333334,0.649,1,3508.123,3,0.0,same
0,600,valid,"[(1208, 779)]",[],[1],[0.6333333333333333],horizontal,"(390.0, 262.0)",1.4666666666666666,0.594,1,3514.339,3,0.0,same
0,601,valid,"[(1176, 773)]",[],[1],[0.7],vertical,"(390.0, 262.0)",0.8,0.658,1,3521.007,3,0.0,same
0,602,valid,"[(1175, 775)]",[],[1],[0.6166666666666667],vertical,"(390.0, 262.0)",1.25,0.577,1,3527.13,3,0.0,same
0,603,valid,"[(1179, 761)]",[],[1],[0.5166666666666666],horizontal,"(390.0, 262.0)",0.8166666666666667,0.484,1,3533.533,3,0.0,same
0,604,valid,"[(1160, 771)]",[],[1],[0.55],horizontal,"(390.0, 262.0)",0.4666666666666667,0.51,1,3539.123,3,0.0,same
0,605,valid,"[(1160, 770)]",[],[1],[0.6666666666666666],vertical,"(890.0, 262.0)",1.3166666666666667,0.626,1,3544.373,3,0.0,same
0,606,invalid_adjacent_other_bar,"[(1178, 794)]",[],[1],[0.7],vertical,"(890.0, 762.0)",0.4166666666666667,0.657,1,3550.558,3,0.0,other
0,607,invalid_same_bar,"[(1160, 773)]",[],[1],[0.7333333333333333],horizontal,"(390.0, 262.0)",1.3,0.697,1,3555.899,3,0.0,same
0,608,valid,"[(1208, 782)]",[],[1],[0.5833333333333334],horizontal,"(390.0, 762.0)",1.0,0.542,1,3562.322,3,0.0,same
0,609,valid,"[(1175, 773)]",[],[1],[0.7333333333333333],horizontal,"(890.0, 262.0)",0.75,0.686,1,3568.24,3,0.0,same
0,610,valid,"[(1181, 768)]",[],[1],[0.5666666666666667],horizontal,"(890.0, 262.0)",0.7166666666666667,0.538,1,3574.097,3,0.0,same
0,611,catch,"[(1192, 766)]",[],[1],[],horizontal,"(890.0, 762.0)",1.7,nan,1,3579.608,3,0.0,same
0,612,valid,"[(1180, 768)]",[],[1],[0.6333333333333333],horizontal,"(890.0, 762.0)",1.3166666666666667,0.594,1,3585.719,3,0.0,same
0,613,valid,"[(1160, 769)]",[],[1],[0.5166666666666666],vertical,"(890.0, 262.0)",0.5333333333333333,0.48,1,3592.372,3,0.0,same
0,614,catch,"[(1204, 774)]",[],[1],[],horizontal,"(390.0, 262.0)",1.7,nan,1,3597.824,3,0.0,same
0,615,valid,"[(1175, 761)]",[],[1],[0.48333333333333334],horizontal,"(890.0, 262.0)",1.15,0.444,1,3603.474,3,0.0,same
0,616,valid,"[(1174, 773)]",[],[1],[0.5166666666666666],vertical,"(390.0, 262.0)",0.8,0.479,1,3609.657,3,0.0,same
0,617,catch,"[(1175, 796)]",[],[1],[],horizontal,"(390.0, 262.0)",1.7,nan,1,3615.548,3,0.0,same
0,618,valid,"[(1180, 796)]",[],[1],[0.5333333333333333],vertical,"(890.0, 762.0)",1.35,0.502,1,3621.798,3,0.0,same
0,619,valid,"[(1161, 766)]",[],[1],[0.85],vertical,"(390.0, 262.0)",0.7666666666666666,nan,0,3627.744,0,0.0,same
0,620,catch,"[(1165, 773)]",[],[1],[],horizontal,"(390.0, 262.0)",1.7,nan,1,3632.081,1,0.0,same
0,621,catch,"[(1178, 792)]",[],[1],[],vertical,"(890.0, 262.0)",1.7,nan,1,3637.855,1,0.0,same
0,622,valid,"[(1198, 784)]",[],[1],[0.6166666666666667],vertical,"(390.0, 762.0)",0.6666666666666666,0.577,1,3643.023,1,0.0,same
0,623,catch,"[(1174, 769)]",[],[1],[],horizontal,"(390.0, 762.0)",1.7,nan,1,3647.873,2,0.0,same
0,624,catch,"[(1179, 779)]",[],[1],[],vertical,"(390.0, 262.0)",1.7,nan,1,3653.448,2,0.0,same
0,625,valid,"[(1176, 751), (1125, 830)]",[],"[0, 1]",[0.13333333333333333],horizontal,"(390.0, 762.0)",1.35,0.099,0,3659.607,0,0.0,same
0,626,catch,"[(1150, 765)]",[],[1],[],vertical,"(390.0, 262.0)",1.7,nan,1,3665.442,1,0.0,same
0,627,valid,"[(1164, 771)]",[],[1],[0.55],vertical,"(390.0, 262.0)",0.48333333333333334,0.507,1,3670.674,1,0.0,same
0,628,valid,"[(1115, 785)]",[],[1],[0.5166666666666666],horizontal,"(390.0, 762.0)",1.2666666666666666,0.479,1,3675.074,1,0.0,same
0,629,valid,"[(1175, 808)]",[],[1],[0.55],horizontal,"(390.0, 262.0)",0.7333333333333333,0.511,1,3683.419,2,0.0,same
0,630,catch,"[(1176, 789)]",[],[1],[],horizontal,"(390.0, 262.0)",1.7,nan,1,3689.292,2,0.0,same
0,631,invalid_same_bar,"[(1191, 786)]",[],[1],[0.55],horizontal,"(390.0, 762.0)",1.3166666666666667,0.509,1,3694.995,2,0.0,same
0,632,valid,"[(1183, 789)]",[],[1],[0.85],horizontal,"(890.0, 262.0)",1.3166666666666667,nan,0,3700.857,0,0.0,same
0,633,valid,"[(1132, 798)]",[],[1],[0.36666666666666664],vertical,"(890.0, 262.0)",1.4666666666666666,0.328,1,3706.133,1,0.0,same
0,634,valid,"[(1160, 774)]",[],[1],[0.6666666666666666],vertical,"(890.0, 262.0)",0.9166666666666666,0.627,1,3711.504,1,0.0,same
0,635,valid,"[(1172, 784)]",[],[1],[0.85],vertical,"(390.0, 762.0)",0.6166666666666667,nan,0,3716.653,0,0.0,same
0,636,valid,"[(1137, 776)]",[],[1],[0.6],vertical,"(390.0, 262.0)",1.4833333333333334,0.56,1,3721.092,1,0.0,same
0,637,catch,"[(1173, 794)]",[],[1],[],vertical,"(390.0, 762.0)",1.7,nan,1,3726.975,1,0.0,same
0,638,valid,"[(1172, 772)]",[],[1],[0.6333333333333333],vertical,"(890.0, 762.0)",1.5166666666666666,0.59,1,3732.796,1,0.0,same
0,639,valid,"[(1206, 781)]",[],[1],[0.6166666666666667],vertical,"(390.0, 262.0)",1.4166666666666667,0.578,1,3738.724,2,0.0,same
0,640,valid,"[(1175, 776)]",[],[1],[0.7333333333333333],vertical,"(890.0, 762.0)",0.95,0.694,1,3744.791,2,0.0,same
0,641,valid,"[(1178, 779)]",[],[1],[0.5833333333333334],vertical,"(890.0, 262.0)",1.3333333333333333,0.541,1,3750.448,2,0.0,same
0,642,valid,"[(1175, 770)]",[],[1],[0.5833333333333334],horizontal,"(390.0, 262.0)",1.45,0.543,1,3755.841,3,0.0,same
0,643,valid,"[(1179, 749), (1120, 836)]",[],"[0, 1]",[0.55],vertical,"(390.0, 762.0)",1.1333333333333333,0.511,1,3762.107,3,0.0,same
0,644,valid,"[(1164, 789)]",[],[1],[0.6666666666666666],horizontal,"(390.0, 262.0)",1.3333333333333333,0.629,1,3769.208,3,0.0,same
0,645,catch,"[(1200, 783)]",[],[1],[0.03333333333333333],vertical,"(890.0, 262.0)",1.7,"0.02,nan",0,3775.701,0,0.02,same
0,646,valid,"[(1135, 786)]",[],[1],[0.5666666666666667],vertical,"(890.0, 762.0)",1.0666666666666667,0.522,1,3780.942,1,0.02,same
0,647,catch,"[(1176, 799)]",[],[1],[],vertical,"(390.0, 762.0)",1.7,nan,1,3786.103,1,0.02,same
0,648,catch,"[(1210, 774)]",[],[1],[],horizontal,"(390.0, 762.0)",1.7,nan,1,3791.34,1,0.02,same
0,649,valid,"[(1165, 790)]",[],[1],[0.65],vertical,"(890.0, 762.0)",1.3333333333333333,0.605,1,3796.667,2,0.02,same
0,650,valid,"[(1180, 801)]",[],[1],[0.5166666666666666],vertical,"(890.0, 262.0)",1.1166666666666667,0.477,1,3802.469,2,0.02,same
0,651,valid,"[(1170, 757)]",[],[1],[0.55],vertical,"(890.0, 762.0)",0.55,0.508,1,3807.643,2,0.02,same
0,652,catch,"[(1175, 784)]",[],[1],[],vertical,"(390.0, 762.0)",1.7,nan,1,3812.459,3,0.02,same
0,653,valid,"[(1165, 786)]",[],[1],[0.6166666666666667],vertical,"(890.0, 762.0)",0.5333333333333333,0.575,1,3818.651,3,0.02,same
0,654,valid,"[(1176, 766)]",[],[1],[0.65],horizontal,"(390.0, 262.0)",0.7333333333333333,0.608,1,3824.308,3,0.02,same
0,655,valid,"[(1162, 786)]",[],[1],[0.6],vertical,"(890.0, 262.0)",0.9333333333333333,0.56,1,3829.642,3,0.02,same
0,656,valid,"[(1162, 774)]",[],[1],[0.7666666666666666],vertical,"(390.0, 262.0)",0.5833333333333334,0.724,1,3835.467,3,0.02,same
0,657,valid,"[(1175, 788)]",[],[1],[0.6833333333333333],vertical,"(890.0, 762.0)",1.3666666666666667,0.638,1,3841.042,3,0.02,same
0,658,valid,"[(1180, 779)]",[],[1],[0.6166666666666667],vertical,"(390.0, 262.0)",0.75,0.574,1,3847.509,3,0.02,same
0,659,valid,"[(1181, 795)]",[],[1],[0.55],vertical,"(390.0, 762.0)",1.1833333333333333,0.51,1,3853.308,3,0.02,same
0,660,valid,"[(1175, 783)]",[],[1],[0.5666666666666667],vertical,"(390.0, 262.0)",0.65,0.523,1,3859.27,3,0.02,same
0,661,catch,"[(1175, 776)]",[],[1],[0.03333333333333333],vertical,"(890.0, 262.0)",1.7,"0.018,nan",0,3864.799,0,0.04,same
0,662,valid,"[(1139, 790)]",[],[1],[0.65],vertical,"(890.0, 262.0)",1.1666666666666667,0.606,1,3870.092,1,0.04,same
0,663,catch,"[(1163, 770)]",[],[1],[],vertical,"(390.0, 262.0)",,"('cti', 1.672),nan",0,3875.192,0,0.06,same
0,664,catch,"[(1133, 786)]",[],[1],[],horizontal,"(890.0, 262.0)",1.7,nan,1,3880.079,1,0.06,same
0,665,valid,"[(1177, 782)]",[],[1],[0.85],vertical,"(390.0, 762.0)",0.75,nan,0,3885.706,0,0.06,same
0,666,catch,"[(1160, 783)]",[],[1],[],horizontal,"(390.0, 262.0)",1.7,nan,1,3890.267,1,0.06,same
0,667,catch,"[(1194, 769)]",[],[1],[],horizontal,"(390.0, 762.0)",1.7,nan,1,3895.867,1,0.06,same
0,668,invalid_adjacent_other_bar,"[(1175, 787)]",[],[1],[0.6],vertical,"(890.0, 762.0)",0.7,0.556,1,3900.908,1,0.06,other
0,669,valid,"[(1172, 781)]",[],[1],[0.55],horizontal,"(890.0, 762.0)",1.3833333333333333,0.51,1,3905.848,2,0.06,same
0,670,valid,"[(1165, 777)]",[],[1],[0.5833333333333334],vertical,"(890.0, 262.0)",1.4166666666666667,0.54,1,3911.69,2,0.06,same
0,671,valid,"[(1175, 768)]",[],[1],[0.6666666666666666],vertical,"(890.0, 262.0)",0.7833333333333333,0.622,1,3917.715,2,0.06,same
0,672,valid,"[(1194, 772)]",[],[1],[0.7833333333333333],horizontal,"(890.0, 262.0)",1.45,0.742,1,3923.225,3,0.06,same
0,673,valid,"[(1171, 781)]",[],[1],[0.6833333333333333],vertical,"(390.0, 762.0)",1.0666666666666667,0.641,1,3929.658,3,0.06,same
0,674,valid,"[(1178, 786)]",[],[1],[0.55],horizontal,"(890.0, 262.0)",1.4833333333333334,0.513,1,3936.026,3,0.06,same
0,675,valid,"[(1175, 773)]",[],[1],[0.5333333333333333],vertical,"(890.0, 762.0)",1.0,0.493,1,3942.558,3,0.06,same
0,676,valid,"[(1166, 756)]",[],[1],[0.55],vertical,"(390.0, 262.0)",0.5333333333333333,0.518,1,3948.494,3,0.06,same
0,677,valid,"[(1167, 773)]",[],[1],[0.3],vertical,"(390.0, 762.0)",1.3666666666666667,0.265,1,3953.847,3,0.06,same
0,678,catch,"[(1180, 753), (1118, 841)]",[],"[0, 1]",[],vertical,"(890.0, 262.0)",,"('cti', 1.319),nan",0,3959.944,0,0.08,same
0,679,valid,"[(1137, 791)]",[],[1],[0.6],vertical,"(390.0, 762.0)",0.65,0.56,1,3966.333,1,0.08,same
0,680,valid,"[(1162, 752), (1114, 825)]",[],"[0, 1]",[0.3833333333333333],horizontal,"(890.0, 762.0)",1.3333333333333333,0.35,1,3970.817,1,0.08,same
0,681,valid,"[(1181, 762)]",[],[1],[0.85],horizontal,"(390.0, 262.0)",0.4166666666666667,nan,0,3976.992,0,0.08,same
0,682,catch,"[(1165, 785)]",[],[1],[],vertical,"(390.0, 262.0)",1.7,nan,1,3981.319,1,0.08,same
0,683,invalid_adjacent_other_bar,"[(1164, 786)]",[],[1],[0.5333333333333333],horizontal,"(390.0, 762.0)",0.35,0.496,1,3986.933,1,0.08,other
0,684,catch,"[(1179, 786)]",[],[1],[],vertical,"(890.0, 262.0)",1.7,nan,1,3991.338,1,0.08,same
0,685,valid,"[(1163, 789)]",[],[1],[0.65],horizontal,"(390.0, 262.0)",1.45,0.608,1,3996.615,2,0.08,same
0,686,valid,"[(1168, 782)]",[],[1],[0.5666666666666667],vertical,"(390.0, 262.0)",0.9,0.535,1,4002.443,2,0.08,same
0,687,invalid_adjacent_other_bar,"[(1184, 774)]",[],[1],[0.6166666666666667],horizontal,"(390.0, 762.0)",0.6166666666666667,0.577,1,4008.25,2,0.08,other
0,688,catch,"[(1180, 790)]",[],[1],[],horizontal,"(890.0, 762.0)",1.7,nan,1,4013.706,3,0.08,same
0,689,valid,"[(1175, 795)]",[],[1],[0.5166666666666666],vertical,"(390.0, 262.0)",0.5333333333333333,0.478,1,4019.825,3,0.08,same
0,690,catch,"[(1181, 766)]",[],[1],[],vertical,"(890.0, 762.0)",1.7,nan,1,4024.967,3,0.08,same
0,691,invalid_same_bar,"[(1164, 790)]",[],[1],[0.7],vertical,"(890.0, 762.0)",1.5,0.66,1,4030.876,3,0.08,same
0,692,valid,"[(1168, 777)]",[],[1],[0.5],horizontal,"(890.0, 762.0)",0.5166666666666666,0.457,1,4037.318,3,0.08,same
0,693,valid,"[(1177, 778)]",[],[1],[0.5166666666666666],vertical,"(390.0, 762.0)",0.6,0.477,1,4042.649,3,0.08,same
0,694,valid,"[(1176, 785)]",[],[1],[0.6833333333333333],horizontal,"(390.0, 762.0)",0.9333333333333333,0.641,1,4048.009,3,0.08,same
0,695,valid,"[(1162, 782)]",[],[1],[0.7833333333333333],horizontal,"(890.0, 762.0)",0.43333333333333335,0.743,1,4053.743,3,0.06,same
0,696,valid,"[(1180, 767)]",[],[1],[0.85],vertical,"(390.0, 762.0)",0.4166666666666667,nan,0,4059.06,0,0.06,same
0,697,valid,"[(1150, 791)]",[],[1],[0.5833333333333334],vertical,"(390.0, 762.0)",0.75,0.543,1,4063.226,1,0.06,same
0,698,valid,"[(1172, 784)]",[],[1],[0.6],horizontal,"(890.0, 262.0)",1.25,0.556,1,4068.509,1,0.06,same
0,699,valid,"[(1172, 756)]",[],[1],[0.6833333333333333],horizontal,"(390.0, 762.0)",1.4,0.641,1,4073.592,1,0.06,same
0,700,catch,"[(1180, 759)]",[],[1],[],horizontal,"(390.0, 262.0)",1.7,nan,1,4078.971,2,0.06,same
0,701,catch,"[(1181, 791)]",[],[1],[],vertical,"(890.0, 262.0)",1.7,nan,1,4084.892,2,0.06,same
0,702,valid,"[(1183, 770)]",[],[1],[0.5166666666666666],horizontal,"(890.0, 762.0)",1.05,0.478,1,4090.875,2,0.06,same
0,703,valid,"[(1169, 782)]",[],[1],[0.3833333333333333],horizontal,"(890.0, 762.0)",1.4166666666666667,0.346,1,4096.342,3,0.06,same
0,704,catch,"[(1161, 792)]",[],[1],[],horizontal,"(390.0, 762.0)",1.7,nan,1,4102.608,3,0.06,same
0,705,valid,"[(1189, 782)]",[],[1],[0.85],vertical,"(390.0, 762.0)",0.48333333333333334,nan,0,4108.876,0,0.06,same
0,706,invalid_same_bar,"[(1147, 786)]",[],[1],[0.5666666666666667],vertical,"(890.0, 762.0)",1.3166666666666667,0.537,1,4113.409,1,0.06,same
0,707,catch,"[(1194, 784)]",[],[1],[],horizontal,"(390.0, 262.0)",1.7,nan,1,4118.825,1,0.06,same
0,708,valid,"[(1163, 773)]",[],[1],[0.55],vertical,"(390.0, 762.0)",0.8,0.511,1,4123.977,1,0.06,same
0,709,catch,"[(1136, 801)]",[],[1],[],vertical,"(390.0, 262.0)",,"('cti', 1.673),nan",0,4128.744,0,0.08,same
0,710,valid,"[(1136, 792)]",[],[1],[],vertical,"(390.0, 762.0)",,"('cti', 0.199)",0,4133.542,0,0.08,same
0,711,valid,"[(1123, 855)]",[],[1],[0.85],horizontal,"(890.0, 762.0)",0.75,nan,0,4137.039,0,0.06,same
0,712,valid,"[(1113, 845)]",[],[1],[0.5833333333333334],vertical,"(890.0, 262.0)",0.4,0.542,1,4173.021,1,0.06,same
0,713,catch,"[(1143, 781)]",[],[1],[],vertical,"(390.0, 262.0)",,"('cti', 1.675),nan",0,4178.217,0,0.06,same
0,714,catch,"[(1140, 795)]",[],[1],[],horizontal,"(390.0, 262.0)",1.7,nan,1,4183.814,1,0.06,same
0,715,valid,"[(1175, 796)]",[],[1],[0.6666666666666666],vertical,"(390.0, 262.0)",1.15,0.619,1,4188.903,1,0.06,same
0,716,invalid_same_bar,"[(1172, 775)]",[],[1],[0.55],horizontal,"(390.0, 262.0)",1.25,0.515,1,4194.549,1,0.06,same
0,717,invalid_adjacent_other_bar,"[(1120, 804)]",[],[1],[0.85],vertical,"(390.0, 762.0)",1.1,nan,0,4199.592,0,0.06,other
0,718,valid,"[(1134, 796)]",[],[1],[0.55],vertical,"(390.0, 762.0)",0.7166666666666667,0.516,1,4204.825,1,0.06,same
0,719,valid,"[(1182, 771)]",[],[1],[0.6666666666666666],vertical,"(890.0, 762.0)",1.0166666666666666,0.633,1,4209.502,1,0.06,same
0,720,catch,"[(1120, 811)]",[],[1],[],vertical,"(390.0, 762.0)",1.7,nan,1,4214.561,1,0.06,same
0,721,catch,"[(1180, 787)]",[],[1],[],vertical,"(390.0, 762.0)",1.7,nan,1,4222.81,2,0.06,same
0,722,valid,"[(1180, 762)]",[],[1],[0.4666666666666667],vertical,"(390.0, 262.0)",1.4833333333333334,0.426,1,4228.342,2,0.06,same
0,723,valid,"[(1180, 786)]",[],[1],[0.5],vertical,"(390.0, 762.0)",0.6666666666666666,0.469,1,4234.627,2,0.06,same
0,724,valid,"[(1153, 791)]",[],[1],[0.6333333333333333],vertical,"(390.0, 262.0)",1.2333333333333334,0.587,1,4240.055,3,0.06,same
0,725,valid,"[(1165, 772)]",[],[1],[0.5666666666666667],horizontal,"(390.0, 762.0)",0.8,0.524,1,4246.411,3,0.06,same
0,726,valid,"[(1137, 788)]",[],[1],[0.6],vertical,"(390.0, 762.0)",1.5166666666666666,0.559,1,4252.371,3,0.06,same
0,727,valid,"[(1170, 774)]",[],[1],[0.55],horizontal,"(390.0, 762.0)",0.35,0.506,1,4258.793,3,0.06,same
0,728,valid,"[(1149, 778)]",[],[1],[0.7333333333333333],vertical,"(890.0, 762.0)",1.4166666666666667,0.689,1,4264.025,3,0.04,same
0,729,valid,"[(1160, 768)]",[],[1],[0.6],horizontal,"(390.0, 762.0)",0.48333333333333334,0.557,1,4270.592,3,0.04,same
0,730,valid,"[(1160, 774)]",[],[1],[0.5833333333333334],vertical,"(390.0, 762.0)",0.8166666666666667,0.538,1,4276.935,3,0.04,same
0,731,valid,"[(1178, 764)]",[],[1],[0.6333333333333333],horizontal,"(390.0, 762.0)",0.6166666666666667,0.593,1,4282.759,3,0.04,same
0,732,valid,"[(1180, 776)]",[],[1],[0.6166666666666667],vertical,"(390.0, 762.0)",1.2166666666666666,0.575,1,4288.443,3,0.04,same
0,733,valid,"[(1167, 769)]",[],[1],[0.6666666666666666],horizontal,"(890.0, 262.0)",0.9666666666666667,0.628,1,4294.593,3,0.04,same
0,734,valid,"[(1193, 795)]",[],[1],[0.6666666666666666],horizontal,"(390.0, 262.0)",1.2166666666666666,0.623,1,4300.356,3,0.04,same
0,735,valid,"[(1160, 786)]",[],[1],[0.5666666666666667],horizontal,"(890.0, 762.0)",0.7666666666666666,0.527,1,4306.222,3,0.04,same
0,736,valid,"[(1177, 778)]",[],[1],[0.6166666666666667],horizontal,"(390.0, 762.0)",1.4666666666666666,0.578,1,4311.56,3,0.04,same
0,737,valid,"[(1176, 778)]",[],[1],[0.5666666666666667],vertical,"(890.0, 762.0)",1.1166666666666667,0.525,1,4318.264,3,0.04,same
0,738,valid,"[(1160, 770)]",[],[1],[0.75],horizontal,"(390.0, 762.0)",0.7666666666666666,0.7,1,4324.371,3,0.04,same
0,739,valid,"[(1167, 789)]",[],[1],[0.55],horizontal,"(890.0, 762.0)",0.8333333333333334,0.508,1,4330.385,3,0.04,same
0,740,catch,"[(1151, 789)]",[],[1],[],vertical,"(390.0, 262.0)",1.7,nan,1,4335.77,3,0.04,same
0,741,valid,"[(1189, 795)]",[],[1],[0.5166666666666666],horizontal,"(890.0, 762.0)",0.9166666666666666,0.478,1,4342.327,3,0.04,same
0,742,valid,"[(1184, 783)]",[],[1],[0.55],horizontal,"(390.0, 762.0)",1.4666666666666666,0.511,1,4348.319,3,0.04,same
0,743,catch,"[(1184, 766)]",[],[1],[],vertical,"(390.0, 262.0)",1.7,nan,1,4354.862,3,0.04,same
0,744,valid,"[(1165, 782)]",[],[1],[0.5],vertical,"(390.0, 262.0)",0.7,0.456,1,4361.104,3,0.04,same
0,745,catch,"[(1180, 774)]",[],[1],[],horizontal,"(890.0, 262.0)",1.7,nan,1,4366.343,3,0.04,same
0,746,valid,"[(1180, 778)]",[],[1],[0.5666666666666667],vertical,"(890.0, 762.0)",0.5333333333333333,0.524,1,4372.496,3,0.04,same
0,747,catch,"[(1180, 773)]",[],[1],[],vertical,"(890.0, 262.0)",1.7,nan,1,4378.092,3,0.04,same
0,748,invalid_adjacent_other_bar,"[(1179, 790)]",[],[1],[0.55],horizontal,"(390.0, 262.0)",0.95,0.507,1,4384.224,3,0.04,other
0,749,valid,"[(1162, 780)]",[],[1],[0.6833333333333333],horizontal,"(390.0, 262.0)",1.15,0.643,1,4389.881,3,0.04,same
0,750,valid,"[(1125, 816)]",[],[1],[0.5166666666666666],vertical,"(390.0, 762.0)",1.0833333333333333,0.477,1,4396.094,3,0.04,same
0,751,invalid_adjacent_other_bar,"[(1145, 793)]",[],[1],[0.55],horizontal,"(390.0, 762.0)",0.48333333333333334,0.508,1,4402.444,3,0.04,other
0,752,valid,"[(1179, 781)]",[],[1],[0.5166666666666666],horizontal,"(390.0, 262.0)",0.5333333333333333,0.474,1,4408.399,3,0.04,same
0,753,valid,"[(1164, 766)]",[],[1],[0.5666666666666667],horizontal,"(390.0, 762.0)",1.2666666666666666,0.534,1,4413.558,3,0.04,same
0,754,catch,"[(1163, 789)]",[],[1],[],horizontal,"(390.0, 262.0)",1.7,nan,1,4420.014,3,0.04,same
0,755,catch,"[(1170, 780)]",[],[1],[],vertical,"(390.0, 762.0)",1.7,nan,1,4426.059,3,0.04,same
0,756,valid,"[(1179, 777)]",[],[1],[0.5833333333333334],vertical,"(390.0, 762.0)",0.8,0.545,1,4432.141,3,0.04,same
0,757,valid,"[(1162, 779)]",[],[1],[0.75],vertical,"(390.0, 262.0)",0.7166666666666667,0.702,1,4437.595,3,0.04,same
0,758,catch,"[(1160, 782)]",[],[1],[],vertical,"(390.0, 262.0)",1.7,nan,1,4443.571,3,0.04,same
0,759,catch,"[(1170, 776)]",[],[1],[],horizontal,"(890.0, 262.0)",1.7,nan,1,4449.558,3,0.02,same
0,760,valid,"[(1169, 782)]",[],[1],[0.5666666666666667],vertical,"(390.0, 762.0)",0.95,0.535,1,4455.609,3,0.02,same
0,761,catch,"[(1180, 774)]",[],[1],[],horizontal,"(390.0, 262.0)",1.7,nan,1,4461.544,3,0.02,same
0,762,invalid_same_bar,"[(1161, 785)]",[],[1],[0.6666666666666666],vertical,"(890.0, 762.0)",0.95,0.63,1,4467.977,3,0.02,same
0,763,invalid_same_bar,"[(1183, 782)]",[],[1],[0.7166666666666667],horizontal,"(890.0, 262.0)",0.95,0.686,1,4474.093,3,0.0,same
0,764,catch,"[(1183, 771)]",[],[1],[],horizontal,"(890.0, 762.0)",1.7,nan,1,4479.744,3,0.0,same
0,765,valid,"[(1165, 794)]",[],[1],[0.75],horizontal,"(890.0, 262.0)",0.5,0.705,1,4486.366,3,0.0,same
0,766,valid,"[(1182, 794)]",[],[1],[0.75],vertical,"(390.0, 262.0)",0.8666666666666667,0.702,1,4492.395,3,0.0,same
0,767,valid,"[(1183, 793)]",[],[1],[0.65],vertical,"(890.0, 762.0)",0.8,0.607,1,4498.088,3,0.0,same
0,768,valid,"[(1165, 787)]",[],[1],[0.6],horizontal,"(890.0, 762.0)",1.1,0.557,1,4504.111,3,0.0,same
0,769,valid,"[(1150, 784)]",[],[1],[0.6166666666666667],horizontal,"(890.0, 262.0)",0.6,0.57,1,4510.329,3,0.0,same
0,770,catch,"[(1165, 763)]",[],[1],[],horizontal,"(890.0, 762.0)",1.7,nan,1,4516.345,3,0.0,same
0,771,catch,"[(1167, 776)]",[],[1],[],vertical,"(890.0, 262.0)",1.7,nan,1,4522.586,3,0.0,same
0,772,valid,"[(1161, 786)]",[],[1],[0.7333333333333333],horizontal,"(890.0, 762.0)",1.5166666666666666,0.684,1,4529.06,3,0.0,same
0,773,valid,"[(1161, 778)]",[],[1],[0.7166666666666667],vertical,"(390.0, 262.0)",0.9666666666666667,0.671,1,4535.371,3,0.0,same
0,774,valid,"[(1184, 793)]",[],[1],[0.6],horizontal,"(890.0, 762.0)",0.5333333333333333,0.554,1,4541.659,3,0.0,same
0,775,valid,"[(1184, 784)]",[],[1],[],horizontal,"(390.0, 262.0)",,"('cti', 1.226)",0,4547.06,0,0.0,same
0,776,valid,"[(1144, 787)]",[],[1],[0.5166666666666666],vertical,"(390.0, 262.0)",0.9166666666666666,0.478,1,4551.528,1,0.0,same
0,777,catch,"[(1183, 785)]",[],[1],[],vertical,"(890.0, 262.0)",1.7,nan,1,4556.53,1,0.0,same
0,778,valid,"[(1144, 793)]",[],[1],[0.65],horizontal,"(890.0, 262.0)",0.95,0.604,1,4561.787,1,0.0,same
0,779,catch,"[(1160, 772)]",[],[1],[],horizontal,"(390.0, 262.0)",1.7,nan,1,4567.16,2,0.0,same
0,780,invalid_same_bar,"[(1185, 796)]",[],[1],[0.5333333333333333],horizontal,"(890.0, 262.0)",0.7666666666666666,0.486,1,4573.094,2,0.0,same
0,781,catch,"[(1177, 785)]",[],[1],[],vertical,"(890.0, 262.0)",1.7,nan,1,4578.46,2,0.0,same
0,782,valid,"[(1184, 781)]",[],[1],[0.85],vertical,"(390.0, 762.0)",0.6833333333333333,nan,0,4584.093,0,0.0,same
0,783,catch,"[(1153, 788)]",[],[1],[],vertical,"(890.0, 762.0)",1.7,nan,1,4588.976,1,0.0,same
0,784,valid,"[(1164, 793)]",[],[1],[0.55],horizontal,"(890.0, 762.0)",0.85,0.52,1,4594.377,1,0.0,same
0,785,valid,"[(1196, 794)]",[],[1],[0.6166666666666667],horizontal,"(890.0, 762.0)",0.6833333333333333,0.575,1,4598.941,1,0.0,same
0,786,valid,"[(1155, 794)]",[],[1],[0.6166666666666667],horizontal,"(390.0, 762.0)",1.0666666666666667,0.571,1,4603.841,2,0.0,same
0,787,valid,"[(1153, 761)]",[],[1],[0.6833333333333333],vertical,"(890.0, 262.0)",1.1666666666666667,0.634,1,4609.784,2,0.0,same
0,788,valid,"[(1187, 791)]",[],[1],[0.5333333333333333],vertical,"(390.0, 262.0)",1.5,0.495,1,4615.603,2,0.0,same
0,789,invalid_adjacent_other_bar,"[(1179, 796)]",[],[1],[0.85],vertical,"(890.0, 762.0)",1.05,nan,0,4621.782,0,0.0,other
0,790,catch,"[(1124, 786)]",[],[1],[],horizontal,"(890.0, 762.0)",1.7,nan,1,4627.004,1,0.0,same
0,791,invalid_same_bar,"[(1159, 789)]",[],[1],[0.8166666666666667],vertical,"(390.0, 762.0)",1.2,0.769,1,4631.838,1,0.0,same
0,792,invalid_same_bar,"[(1135, 776)]",[],[1],[0.5333333333333333],horizontal,"(390.0, 262.0)",0.45,0.49,1,4637.411,1,0.0,same
0,793,valid,"[(1171, 789)]",[],[1],[0.5833333333333334],vertical,"(390.0, 262.0)",0.4166666666666667,0.545,1,4642.805,2,0.0,same
0,794,catch,"[(1184, 777)]",[],[1],[],vertical,"(890.0, 262.0)",1.7,nan,1,4647.967,2,0.0,same
0,795,valid,"[(1159, 793)]",[],[1],[0.6833333333333333],horizontal,"(890.0, 262.0)",1.1666666666666667,0.65,1,4653.844,2,0.0,same
0,796,invalid_same_bar,"[(1164, 791)]",[],[1],[0.5333333333333333],vertical,"(890.0, 262.0)",0.6666666666666666,0.494,1,4659.745,3,0.0,same
0,797,valid,"[(1179, 785)]",[],[1],[0.55],vertical,"(890.0, 762.0)",1.1666666666666667,0.51,1,4665.46,3,0.0,same
0,798,catch,"[(1177, 789)]",[],[1],[],vertical,"(390.0, 262.0)",1.7,nan,1,4671.542,3,0.0,same
0,799,valid,"[(1160, 786)]",[],[1],[0.85],vertical,"(390.0, 262.0)",0.36666666666666664,nan,0,4677.493,0,0.0,same
0,800,catch,"[(1158, 799)]",[],[1],[],horizontal,"(390.0, 262.0)",1.7,nan,1,4681.661,1,0.0,same
0,801,valid,"[(1160, 773)]",[],[1],[0.7666666666666666],vertical,"(390.0, 762.0)",1.2,0.716,1,4687.655,1,0.0,same
0,802,valid,"[(1177, 774)]",[],[1],[0.5666666666666667],vertical,"(390.0, 262.0)",1.5166666666666666,0.522,1,4693.561,1,0.0,same
0,803,catch,"[(1166, 779)]",[],[1],[],vertical,"(390.0, 762.0)",1.7,nan,1,4699.244,2,0.0,same
0,804,valid,"[(1162, 793)]",[],[1],[0.65],horizontal,"(890.0, 762.0)",0.45,0.601,1,4704.812,2,0.0,same
0,805,invalid_adjacent_other_bar,"[(1177, 786)]",[],[1],[0.55],vertical,"(390.0, 262.0)",1.0166666666666666,0.506,1,4709.731,2,0.0,other
0,806,invalid_adjacent_other_bar,"[(1161, 785)]",[],[1],[0.48333333333333334],vertical,"(890.0, 262.0)",1.55,0.448,1,4715.365,3,0.0,other
0,807,valid,"[(1163, 766)]",[],[1],[0.5333333333333333],vertical,"(890.0, 762.0)",1.3833333333333333,0.489,1,4721.76,3,0.0,same
0,808,invalid_adjacent_other_bar,"[(1161, 786)]",[],[1],[0.85],vertical,"(390.0, 262.0)",0.75,nan,0,4727.743,0,0.0,other
0,809,catch,"[(1142, 814)]",[],[1],[],horizontal,"(890.0, 762.0)",,"('cti', 1.63),nan",0,4732.41,0,0.02,same
0,810,invalid_adjacent_other_bar,"[(1126, 799)]",[],[1],[0.7833333333333333],horizontal,"(390.0, 262.0)",1.0166666666666666,0.737,1,4770.659,1,0.02,other
0,811,valid,"[(1170, 791)]",[],[1],[0.7166666666666667],vertical,"(390.0, 762.0)",0.5333333333333333,0.665,1,4776.941,1,0.02,same
0,812,valid,"[(1149, 786)]",[],[1],[0.5333333333333333],horizontal,"(390.0, 762.0)",1.4333333333333333,0.486,1,4782.188,1,0.02,same
0,813,catch,"[(1166, 773)]",[],[1],[],vertical,"(390.0, 262.0)",1.7,nan,1,4787.813,2,0.02,same
0,814,valid,"[(1165, 782)]",[],[1],[0.5166666666666666],horizontal,"(390.0, 262.0)",0.9833333333333333,0.479,1,4793.261,2,0.02,same
0,815,valid,"[(1190, 785)]",[],[1],[0.85],vertical,"(390.0, 762.0)",1.3666666666666667,nan,0,4798.878,0,0.02,same
0,816,valid,"[(1122, 790)]",[],[1],[0.55],horizontal,"(390.0, 262.0)",0.3833333333333333,0.511,1,4803.724,1,0.02,same
0,817,valid,"[(1162, 804)]",[],[1],[0.55],horizontal,"(890.0, 262.0)",1.3833333333333333,0.506,1,4808.306,1,0.02,same
0,818,valid,"[(1161, 772)]",[],[1],[0.7],vertical,"(390.0, 262.0)",0.45,0.655,1,4813.667,1,0.02,same
0,819,valid,"[(1160, 791)]",[],[1],[0.6833333333333333],horizontal,"(890.0, 262.0)",0.95,0.637,1,4818.438,2,0.02,same
0,820,catch,"[(1177, 757)]",[],[1],[],vertical,"(390.0, 262.0)",1.7,nan,1,4823.717,2,0.02,same
0,821,catch,"[(1170, 788)]",[],[1],[],horizontal,"(390.0, 762.0)",1.7,nan,1,4829.403,2,0.02,same
0,822,catch,"[(1183, 791)]",[],[1],[],vertical,"(890.0, 762.0)",1.7,nan,1,4834.862,3,0.02,same
0,823,valid,"[(1178, 761)]",[],[1],[0.6],horizontal,"(890.0, 762.0)",0.6666666666666666,0.563,1,4840.975,3,0.02,same
0,824,valid,"[(1203, 786)]",[],[1],[0.85],vertical,"(390.0, 762.0)",1.2166666666666666,nan,0,4846.79,0,0.02,same
0,825,valid,"[(1161, 790)]",[],[1],[0.7166666666666667],vertical,"(390.0, 762.0)",1.1333333333333333,0.667,1,4851.739,1,0.02,same
0,826,valid,"[(1172, 791)]",[],[1],[0.5833333333333334],vertical,"(890.0, 762.0)",1.2833333333333332,0.545,1,4857.295,1,0.02,same
0,827,invalid_adjacent_other_bar,"[(1181, 756)]",[],[1],[0.5666666666666667],vertical,"(390.0, 262.0)",0.75,0.524,1,4862.724,1,0.02,other
0,828,invalid_adjacent_other_bar,"[(1189, 772)]",[],[1],[0.7166666666666667],horizontal,"(390.0, 762.0)",1.4833333333333334,0.663,1,4867.41,2,0.02,other
0,829,valid,"[(1181, 786)]",[],[1],[0.5833333333333334],horizontal,"(890.0, 262.0)",1.4333333333333333,0.539,1,4873.824,2,0.02,same
0,830,catch,"[(1181, 769)]",[],[1],[],vertical,"(390.0, 262.0)",1.7,nan,1,4879.914,2,0.02,same
0,831,catch,"[(1160, 804)]",[],[1],[],horizontal,"(890.0, 262.0)",1.7,nan,1,4885.261,3,0.02,same
0,832,invalid_adjacent_other_bar,"[(1181, 785)]",[],[1],[0.55],horizontal,"(890.0, 762.0)",0.65,0.513,1,4891.478,3,0.02,other
0,833,valid,"[(1183, 791)]",[],[1],[0.5833333333333334],horizontal,"(390.0, 262.0)",1.0166666666666666,0.539,1,4896.909,3,0.02,same
0,834,catch,"[(1162, 767)]",[],[1],[],horizontal,"(390.0, 262.0)",1.7,nan,1,4903.162,3,0.02,same
0,835,catch,"[(1165, 785)]",[],[1],[],horizontal,"(390.0, 262.0)",,"('cti', 1.264),nan",0,4908.903,0,0.04,same
0,836,catch,"[(1135, 791)]",[],[1],[],vertical,"(890.0, 762.0)",1.7,nan,1,4912.912,1,0.04,same
0,837,valid,"[(1163, 779)]",[],[1],[0.5833333333333334],horizontal,"(390.0, 262.0)",1.0333333333333332,0.543,1,4918.111,1,0.04,same
0,838,valid,"[(1170, 786)]",[],[1],[0.5833333333333334],horizontal,"(890.0, 262.0)",1.2333333333333334,0.537,1,4923.217,1,0.04,same
0,839,valid,"[(1167, 776)]",[],[1],[0.6333333333333333],vertical,"(390.0, 762.0)",0.6,0.59,1,4928.363,2,0.04,same
0,840,catch,"[(1175, 774)]",[],[1],[],vertical,"(890.0, 262.0)",1.7,nan,1,4933.305,2,0.04,same
0,841,valid,"[(1185, 776)]",[],[1],[0.7666666666666666],horizontal,"(390.0, 262.0)",1.0833333333333333,0.721,1,4939.199,2,0.04,same
0,842,catch,"[(1166, 790)]",[],[1],[],vertical,"(890.0, 762.0)",1.7,nan,1,4945.357,3,0.04,same
0,843,catch,"[(1160, 773)]",[],[1],[],horizontal,"(890.0, 762.0)",1.7,nan,1,4951.523,3,0.04,same
0,844,valid,"[(1179, 776)]",[],[1],[0.7166666666666667],vertical,"(390.0, 262.0)",0.45,0.673,1,4957.628,3,0.04,same
0,845,valid,"[(1177, 792)]",[],[1],[0.75],horizontal,"(390.0, 762.0)",0.9333333333333333,0.706,1,4962.911,3,0.04,same
0,846,valid,"[(1179, 784)]",[],[1],[0.5333333333333333],horizontal,"(390.0, 762.0)",0.6833333333333333,0.49,1,4969.111,3,0.04,same
0,847,catch,"[(1135, 795)]",[],[1],[],horizontal,"(890.0, 262.0)",1.7,nan,1,4974.236,3,0.04,same
0,848,valid,"[(1179, 795)]",[],[1],[0.5666666666666667],horizontal,"(890.0, 262.0)",1.1,0.526,1,4982.062,3,0.04,same
0,849,valid,"[(1161, 795)]",[],[1],[0.6],vertical,"(890.0, 762.0)",1.1166666666666667,0.558,1,4988.27,3,0.04,same
0,850,valid,"[(1172, 773)]",[],[1],[0.55],horizontal,"(390.0, 762.0)",0.36666666666666664,0.518,1,4994.4,3,0.04,same
0,851,valid,"[(1180, 778)]",[],[1],[0.5333333333333333],horizontal,"(890.0, 762.0)",0.95,0.489,1,4999.995,3,0.04,same
