block,trial,trial_type,taps_start_loc_during_fix,taps_end_loc_during_fix,taps_on_lever_during_fix,taps_on_lever_s_during_fix,bar_orientation,target_xy,cti,rt,acc,time,pulses,fa_rate_recent100,actual_invalid_type
0,1,catch,"[(1116, 807)]",[],[1],[],vertical,"(890.0, 762.0)",1.7,nan,1,0.469,1,0.0,same
0,2,catch,"[(1086, 836)]",[],[1],[],vertical,"(390.0, 262.0)",1.7,nan,1,9.025,1,0.0,same
0,3,invalid_same_bar,"[(1135, 836)]",[],[1],[0.8],vertical,"(890.0, 762.0)",0.45,0.76,1,49.964,1,0.0,same
0,4,valid,"[(1135, 831)]",[],[1],[0.6333333333333333],horizontal,"(890.0, 262.0)",0.9,0.592,1,58.595,2,0.0,same
0,5,valid,"[(1168, 803)]",[],[1],[0.55],horizontal,"(390.0, 262.0)",1.4833333333333334,0.514,1,63.997,2,0.0,same
0,6,invalid_adjacent_other_bar,"[(1149, 789)]",[],[1],[],horizontal,"(390.0, 762.0)",,"('cti', 1.245)",0,69.977,0,0.0,other
0,7,catch,"[(1158, 797)]",[],[1],[],vertical,"(390.0, 762.0)",1.7,nan,1,74.629,1,0.0,same
0,8,valid,"[(1173, 809)]",[],[1],[0.5666666666666667],horizontal,"(390.0, 762.0)",1.2,0.539,1,79.689,1,0.0,same
0,9,catch,"[(1124, 825)]",[],[1],[],horizontal,"(390.0, 262.0)",1.7,nan,1,85.257,1,0.0,same
0,10,valid,"[(1164, 808)]",[],[1],[0.85],vertical,"(390.0, 262.0)",1.2,nan,0,98.669,0,0.0,same
0,11,valid,"[(1157, 811)]",[],[1],[0.85],horizontal,"(890.0, 262.0)",0.45,nan,0,104.453,0,0.0,same
0,12,valid,"[(1155, 816)]",[],[1],[0.8166666666666667],vertical,"(390.0, 762.0)",0.8833333333333333,0.798,1,108.879,1,0.0,same
0,13,valid,"[(1169, 783)]",[],[1],[0.5333333333333333],horizontal,"(890.0, 762.0)",0.6666666666666666,0.507,1,114.16,1,0.0,same
0,14,valid,"[(1167, 765)]",[],[1],[0.85],horizontal,"(890.0, 762.0)",1.0166666666666666,nan,0,118.641,0,0.0,same
0,15,valid,"[(1205, 794)]",[],[1],[0.85],vertical,"(390.0, 762.0)",1.2833333333333332,nan,0,123.722,0,0.0,same
0,16,invalid_same_bar,"[(1118, 811)]",[],[1],[0.85],vertical,"(390.0, 262.0)",1.4666666666666666,nan,0,130.191,0,0.0,same
0,17,catch,"[(1122, 804)]",[],[1],[],horizontal,"(390.0, 762.0)",1.7,nan,1,135.517,1,0.0,same
0,18,invalid_same_bar,"[(1161, 797)]",[],[1],[0.7],vertical,"(390.0, 762.0)",1.1666666666666667,0.667,1,141.09,1,0.0,same
0,19,valid,"[(1145, 820)]",[],[1],[0.8333333333333334],vertical,"(890.0, 762.0)",0.6666666666666666,0.809,0,146.855,0,0.0,same
0,20,valid,"[(1171, 806)]",[],[1],[0.85],vertical,"(390.0, 262.0)",0.7666666666666666,nan,0,151.734,0,0.0,same
0,21,catch,"[(1145, 808)]",[],[1],[],vertical,"(890.0, 262.0)",1.7,nan,1,156.51,1,0.0,same
0,22,catch,"[(1164, 794)]",[],[1],[],horizontal,"(890.0, 262.0)",1.7,nan,1,161.823,1,0.0,same
0,23,valid,"[(1207, 786)]",[],[1],[0.75],horizontal,"(890.0, 262.0)",0.6666666666666666,0.709,1,166.546,1,0.0,same
0,24,valid,"[(1205, 796)]",[],[1],[0.7],vertical,"(890.0, 762.0)",0.48333333333333334,0.664,1,171.794,2,0.0,same
0,25,valid,"[(1175, 789)]",[],[1],[0.7166666666666667],horizontal,"(890.0, 762.0)",1.5,0.675,1,177.123,2,0.0,same
0,26,valid,"[(1180, 791)]",[],[1],[0.5],vertical,"(890.0, 762.0)",0.7666666666666666,0.462,1,183.106,2,0.0,same
0,27,valid,"[(1169, 761)]",[],[1],[0.65],vertical,"(390.0, 262.0)",0.36666666666666664,0.609,1,188.361,3,0.0,same
0,28,valid,"[(1173, 777)]",[],[1],[0.5333333333333333],horizontal,"(390.0, 762.0)",0.7333333333333333,0.494,1,193.894,3,0.0,same
0,29,valid,"[(1176, 784)]",[],[1],[0.5],vertical,"(890.0, 262.0)",0.95,0.466,1,199.357,3,0.0,same
0,30,valid,"[(1165, 780)]",[],[1],[0.85],horizontal,"(390.0, 262.0)",1.0,nan,0,205.075,0,0.0,same
0,31,valid,"[(1135, 794)]",[],[1],[0.5],vertical,"(890.0, 262.0)",1.4833333333333334,0.466,1,210.411,1,0.0,same
0,32,valid,"[(1185, 770)]",[],[1],[0.5666666666666667],vertical,"(390.0, 762.0)",1.2833333333333332,0.54,1,215.891,1,0.0,same
0,33,valid,"[(1171, 742), (1138, 813)]",[],"[0, 1]",[0.7],vertical,"(890.0, 762.0)",0.6333333333333333,0.679,1,221.263,1,0.0,same
0,34,valid,"[(1180, 777)]",[],[1],[0.85],vertical,"(390.0, 262.0)",1.1166666666666667,nan,0,227.226,0,0.0,same
0,35,valid,"[(1156, 791)]",[],[1],[0.85],horizontal,"(390.0, 262.0)",1.2166666666666666,nan,0,232.212,0,0.0,same
0,36,valid,"[(1141, 776)]",[],[1],[0.5],horizontal,"(390.0, 262.0)",1.4833333333333334,0.475,1,237.179,1,0.0,same
0,37,valid,"[(1212, 788)]",[],[1],[0.65],horizontal,"(390.0, 762.0)",1.05,0.629,1,242.429,1,0.0,same
0,38,catch,"[(1175, 805)]",[],[1],[],horizontal,"(390.0, 762.0)",1.7,nan,1,247.779,1,0.0,same
0,39,valid,"[(1206, 790)]",[],[1],[0.5333333333333333],horizontal,"(390.0, 262.0)",0.9833333333333333,0.485,1,253.269,2,0.0,same
0,40,valid,"[(1178, 774)]",[],[1],[0.75],vertical,"(390.0, 762.0)",0.9666666666666667,0.731,1,258.441,2,0.0,same
0,41,valid,"[(1190, 765)]",[],[1],[0.48333333333333334],horizontal,"(890.0, 262.0)",1.45,0.445,1,264.543,2,0.0,same
0,42,invalid_adjacent_other_bar,"[(1175, 782)]",[],[1],[0.5],horizontal,"(890.0, 262.0)",1.4333333333333333,0.472,1,270.519,3,0.0,other
0,43,valid,"[(1178, 757)]",[],[1],[0.55],horizontal,"(890.0, 262.0)",0.8333333333333334,0.518,1,276.768,3,0.0,same
0,44,catch,"[(1171, 776)]",[],[1],[],vertical,"(390.0, 262.0)",1.7,nan,1,282.587,3,0.0,same
0,45,valid,"[(1205, 796)]",[],[1],[0.55],vertical,"(390.0, 262.0)",1.0,0.515,1,288.816,3,0.0,same
0,46,valid,"[(1175, 787)]",[],[1],[0.5166666666666666],vertical,"(390.0, 262.0)",0.9166666666666666,0.488,1,294.167,3,0.0,same
0,47,valid,"[(1165, 783)]",[],[1],[0.48333333333333334],horizontal,"(890.0, 262.0)",0.45,0.453,1,300.024,3,0.0,same
0,48,valid,"[(1165, 770)]",[],[1],[0.65],horizontal,"(890.0, 262.0)",0.5833333333333334,0.624,1,305.182,3,0.0,same
0,49,catch,"[(1175, 788)]",[],[1],[],vertical,"(890.0, 262.0)",1.7,nan,1,310.641,3,0.0,same
0,50,valid,"[(1170, 792)]",[],[1],[0.48333333333333334],horizontal,"(890.0, 262.0)",0.8333333333333334,0.456,1,316.83,3,0.0,same
0,51,valid,"[(1175, 781)]",[],[1],[0.5],horizontal,"(390.0, 262.0)",0.95,0.467,1,322.208,3,0.0,same
0,52,valid,"[(1175, 760)]",[],[1],[0.48333333333333334],vertical,"(390.0, 262.0)",1.5,0.458,1,328.3,3,0.0,same
0,53,catch,"[(1167, 783)]",[],[1],[],vertical,"(390.0, 762.0)",1.7,nan,1,334.831,3,0.0,same
0,54,valid,"[(1180, 793)]",[],[1],[0.5166666666666666],horizontal,"(390.0, 762.0)",0.6333333333333333,0.482,1,341.092,3,0.0,same
0,55,valid,"[(1175, 773)]",[],[1],[0.6166666666666667],horizontal,"(390.0, 762.0)",0.7666666666666666,0.591,1,346.224,3,0.0,same
0,56,catch,"[(1170, 766)]",[],[1],[],vertical,"(890.0, 762.0)",1.7,nan,1,351.686,3,0.0,same
0,57,valid,"[(1166, 767)]",[],[1],[0.65],vertical,"(890.0, 762.0)",0.6333333333333333,0.617,1,357.461,3,0.0,same
0,58,valid,"[(1167, 777)]",[],[1],[0.5166666666666666],vertical,"(390.0, 762.0)",1.1833333333333333,0.491,1,362.851,3,0.0,same
0,59,valid,"[(1178, 772)]",[],[1],[0.5666666666666667],horizontal,"(890.0, 762.0)",1.25,0.543,1,369.062,3,0.0,same
0,60,valid,"[(1163, 798)]",[],[1],[0.5833333333333334],vertical,"(390.0, 762.0)",1.1,0.545,1,375.28,3,0.0,same
0,61,valid,"[(1167, 784)]",[],[1],[0.5333333333333333],vertical,"(390.0, 762.0)",1.3166666666666667,0.501,1,381.544,3,0.0,same
0,62,valid,"[(1180, 787)]",[],[1],[0.5833333333333334],horizontal,"(890.0, 262.0)",1.1166666666666667,0.541,1,387.497,3,0.0,same
0,63,valid,"[(1185, 785)]",[],[1],[0.6833333333333333],horizontal,"(390.0, 762.0)",1.35,0.659,1,393.559,3,0.0,same
0,64,valid,"[(1190, 761)]",[],[1],[0.6],horizontal,"(390.0, 762.0)",0.6666666666666666,0.572,1,399.674,3,0.0,same
0,65,valid,"[(1165, 799)]",[],[1],[0.48333333333333334],horizontal,"(390.0, 762.0)",1.2166666666666666,0.45,1,405.136,3,0.0,same
0,66,valid,"[(1120, 838)]",[],[1],[0.5166666666666666],horizontal,"(390.0, 762.0)",0.8666666666666667,0.477,1,411.343,3,0.0,same
0,67,catch,"[(1180, 782)]",[],[1],[],horizontal,"(890.0, 262.0)",1.7,nan,1,459.106,3,0.0,same
0,68,catch,"[(1180, 794)]",[],[1],[],horizontal,"(890.0, 262.0)",1.7,nan,1,465.294,3,0.0,same
0,69,valid,"[(1175, 778)]",[],[1],[0.5833333333333334],vertical,"(390.0, 762.0)",1.2,0.54,1,471.343,3,0.0,same
0,70,valid,"[(1184, 792)]",[],[1],[0.6833333333333333],vertical,"(890.0, 262.0)",0.8833333333333333,0.643,1,477.178,3,0.0,same
0,71,valid,"[(1193, 781)]",[],[1],[0.55],horizontal,"(890.0, 262.0)",1.3833333333333333,0.508,1,483.009,3,0.0,same
0,72,valid,"[(1178, 778)]",[],[1],[0.5],vertical,"(890.0, 762.0)",1.2333333333333334,0.461,1,488.78,3,0.0,same
0,73,valid,"[(1101, 842)]",[],[1],[0.7666666666666666],vertical,"(390.0, 762.0)",1.0666666666666667,0.722,1,495.078,3,0.0,same
0,74,valid,"[(1153, 819)]",[],[1],[0.85],vertical,"(890.0, 762.0)",0.85,nan,0,1221.86,0,0.0,same
0,75,valid,"[(1140, 808)]",[],[1],[0.65],vertical,"(890.0, 762.0)",0.8333333333333334,0.608,1,1226.845,1,0.0,same
0,76,invalid_same_bar,"[(1132, 850)]",[],[1],[0.85],vertical,"(390.0, 762.0)",0.6166666666666667,nan,0,1231.543,0,0.0,same
0,77,valid,"[(1115, 804)]",[],[1],[0.6666666666666666],vertical,"(390.0, 262.0)",1.5333333333333332,0.623,1,1236.256,1,0.0,same
0,78,valid,"[(1160, 811)]",[],[1],[0.85],horizontal,"(890.0, 762.0)",1.3833333333333333,nan,0,1244.262,0,0.0,same
0,79,valid,"[(1134, 779)]",[],[1],[0.85],horizontal,"(390.0, 262.0)",1.5166666666666666,nan,0,1249.294,0,0.0,same
0,80,catch,"[(1160, 785)]",[],[1],[],vertical,"(890.0, 262.0)",1.7,nan,1,1254.829,1,0.0,same
0,81,valid,"[(1174, 805)]",[],[1],[0.85],vertical,"(890.0, 262.0)",1.4833333333333334,nan,0,1260.029,0,0.0,same
0,82,valid,"[(1163, 795)]",[],[1],[0.5833333333333334],horizontal,"(890.0, 762.0)",0.7666666666666666,0.537,1,1264.928,1,0.0,same
0,83,valid,"[(1163, 786)]",[],[1],[0.6833333333333333],vertical,"(390.0, 262.0)",1.25,0.641,1,1270.629,1,0.0,same
0,84,catch,"[(1162, 782)]",[],[1],[],vertical,"(890.0, 262.0)",1.7,nan,1,1276.322,1,0.0,same
0,85,catch,"[(1136, 789)]",[],[1],[],horizontal,"(390.0, 762.0)",1.7,nan,1,1281.923,2,0.0,same
0,86,valid,"[(1162, 796)]",[],[1],[0.5666666666666667],horizontal,"(390.0, 762.0)",0.9833333333333333,0.527,1,1298.607,2,0.0,same
0,87,catch,"[(1161, 808)]",[],[1],[],horizontal,"(390.0, 762.0)",1.7,nan,1,1304.12,2,0.0,same
0,88,invalid_adjacent_other_bar,"[(1165, 811)]",[],[1],[0.85],vertical,"(890.0, 262.0)",0.55,nan,0,1309.744,0,0.0,other
0,89,valid,"[(1161, 784)]",[],[1],[0.5833333333333334],horizontal,"(390.0, 762.0)",0.6,0.546,1,1314.012,1,0.0,same
0,90,invalid_same_bar,"[(1211, 801)]",[],[1],[0.65],horizontal,"(390.0, 262.0)",0.5166666666666666,0.61,1,1318.979,1,0.0,same
0,91,catch,"[(1209, 805)]",[],[1],[],horizontal,"(890.0, 762.0)",1.7,nan,1,1323.754,1,0.0,same
0,92,valid,"[(1171, 827)]",[],[1],[0.5833333333333334],horizontal,"(390.0, 762.0)",1.0833333333333333,0.546,1,1329.088,2,0.0,same
0,93,valid,"[(1165, 770)]",[],[1],[0.6333333333333333],horizontal,"(390.0, 262.0)",0.9,0.589,1,1334.378,2,0.0,same
0,94,valid,"[(1159, 795)]",[],[1],[0.7166666666666667],horizontal,"(390.0, 262.0)",0.8666666666666667,0.67,1,1340.096,2,0.0,same
0,95,catch,"[(1206, 811)]",[],[1],[],horizontal,"(390.0, 262.0)",1.7,nan,1,1345.548,3,0.0,same
0,96,valid,"[(1170, 804)]",[],[1],[0.5833333333333334],horizontal,"(890.0, 762.0)",1.1833333333333333,0.539,1,1351.471,3,0.0,same
0,97,valid,"[(1170, 795)]",[],[1],[0.5833333333333334],horizontal,"(390.0, 262.0)",0.4666666666666667,0.554,1,1357.159,3,0.0,same
0,98,catch,"[(1152, 798)]",[],[1],[],horizontal,"(390.0, 762.0)",1.7,nan,1,1362.251,3,0.0,same
0,99,valid,"[(1173, 796)]",[],[1],[0.85],vertical,"(890.0, 762.0)",0.8333333333333334,nan,0,1368.478,0,0.0,same
0,100,catch,"[(1168, 799)]",[],[1],[],vertical,"(890.0, 762.0)",1.7,nan,1,1373.205,1,0.0,same
0,101,valid,"[(1161, 797)]",[],[1],[0.85],vertical,"(390.0, 262.0)",0.5166666666666666,nan,0,1379.037,0,0.0,same
0,102,catch,"[(1132, 772)]",[],[1],[],vertical,"(890.0, 762.0)",1.7,nan,1,1383.496,1,0.0,same
0,103,catch,"[(1166, 825)]",[],[1],[],horizontal,"(890.0, 762.0)",1.7,nan,1,1388.489,1,0.0,same
0,104,valid,"[(1161, 796)]",[],[1],[0.85],vertical,"(890.0, 262.0)",0.36666666666666664,nan,0,1393.98,0,0.0,same
0,105,valid,"[(1150, 821)]",[],[1],[0.8],vertical,"(890.0, 262.0)",1.2833333333333332,0.754,1,1398.121,1,0.0,same
0,106,catch,"[(1165, 817)]",[],[1],[],vertical,"(890.0, 762.0)",1.7,nan,1,1404.711,1,0.0,same
0,107,valid,"[(1187, 794)]",[],[1],[0.55],vertical,"(390.0, 262.0)",0.6,0.51,1,1409.93,1,0.0,same
0,108,catch,"[(1170, 801)]",[],[1],[],horizontal,"(890.0, 262.0)",1.7,nan,1,1414.279,2,0.0,same
0,109,catch,"[(1170, 811)]",[],[1],[],horizontal,"(390.0, 762.0)",,"('cti', 1.306),nan",0,1419.67,0,0.02,same
0,110,valid,"[(1160, 792)]",[],[1],[0.5166666666666666],vertical,"(390.0, 262.0)",0.75,0.484,1,1424.3,1,0.02,same
0,111,valid,"[(1165, 785)]",[],[1],[0.6],horizontal,"(890.0, 262.0)",1.3333333333333333,0.557,1,1429.111,1,0.02,same
0,112,valid,"[(1178, 800)]",[],[1],[0.6666666666666666],horizontal,"(890.0, 762.0)",1.1666666666666667,0.626,1,1434.151,1,0.02,same
0,113,valid,"[(1177, 806)]",[],[1],[0.43333333333333335],horizontal,"(890.0, 262.0)",1.5,0.4,1,1439.213,2,0.02,same
0,114,invalid_adjacent_other_bar,"[(1182, 796)]",[],[1],[0.5833333333333334],vertical,"(390.0, 262.0)",0.6833333333333333,0.543,1,1445.095,2,0.02,other
0,115,invalid_same_bar,"[(1160, 789)]",[],[1],[0.85],horizontal,"(890.0, 762.0)",0.8666666666666667,nan,0,1450.818,0,0.02,same
0,116,catch,"[(1113, 845)]",[],[1],[],horizontal,"(890.0, 262.0)",1.7,nan,1,1455.545,1,0.02,same
0,117,invalid_same_bar,"[(1159, 807)]",[],[1],[0.65],horizontal,"(390.0, 762.0)",1.4,0.611,1,1463.546,1,0.02,same
0,118,catch,"[(1140, 822)]",[],[1],[],vertical,"(890.0, 262.0)",1.7,nan,1,1469.337,1,0.02,same
0,119,valid,"[(1203, 805)]",[],[1],[0.6666666666666666],vertical,"(890.0, 262.0)",0.7666666666666666,0.627,1,1474.676,2,0.02,same
0,120,valid,"[(1149, 835)]",[],[1],[0.6],vertical,"(890.0, 762.0)",0.9166666666666666,0.558,1,1480.195,2,0.02,same
0,121,valid,"[(1164, 803)]",[],[1],[0.5833333333333334],vertical,"(390.0, 262.0)",1.3333333333333333,0.538,1,1485.346,2,0.02,same
0,122,valid,"[(1165, 795)]",[],[1],[0.6833333333333333],horizontal,"(390.0, 262.0)",0.4166666666666667,0.648,1,1490.878,3,0.02,same
0,123,valid,"[(1167, 785)]",[],[1],[0.7666666666666666],horizontal,"(890.0, 262.0)",1.0833333333333333,0.721,1,1496.33,3,0.02,same
0,124,catch,"[(1195, 781)]",[],[1],[],vertical,"(890.0, 262.0)",1.7,nan,1,1502.258,3,0.02,same
0,125,catch,"[(1161, 786)]",[],[1],[],vertical,"(890.0, 262.0)",1.7,nan,1,1508.479,3,0.02,same
0,126,valid,"[(1204, 795)]",[],[1],[0.7666666666666666],horizontal,"(890.0, 762.0)",0.7666666666666666,0.724,1,1514.195,3,0.02,same
0,127,catch,"[(1174, 782)]",[],[1],[],vertical,"(390.0, 762.0)",1.7,nan,1,1520.329,3,0.02,same
0,128,valid,"[(1172, 810)]",[],[1],[0.5166666666666666],vertical,"(390.0, 262.0)",1.5,0.475,1,1526.042,3,0.02,same
0,129,valid,"[(1170, 796)]",[],[1],[0.5],vertical,"(890.0, 262.0)",1.2166666666666666,0.461,1,1532.227,3,0.02,same
0,130,valid,"[(1175, 783)]",[],[1],[0.85],horizontal,"(890.0, 762.0)",0.6333333333333333,nan,0,1538.439,0,0.02,same
0,131,catch,"[(1157, 825)]",[],[1],[],vertical,"(390.0, 262.0)",1.7,nan,1,1543.319,1,0.02,same
0,132,valid,"[(1170, 796)]",[],[1],[0.4166666666666667],horizontal,"(390.0, 762.0)",1.5,0.379,1,1549.568,1,0.02,same
0,133,valid,"[(1175, 791)]",[],[1],[0.6833333333333333],horizontal,"(390.0, 762.0)",0.35,0.639,1,1555.127,1,0.02,same
0,134,valid,"[(1173, 806)]",[],[1],[0.8166666666666667],horizontal,"(390.0, 762.0)",0.55,0.777,1,1559.957,2,0.02,same
0,135,catch,"[(1175, 806)]",[],[1],[],vertical,"(390.0, 762.0)",1.7,nan,1,1565.556,2,0.02,same
0,136,catch,"[(1175, 796)]",[],[1],[],horizontal,"(390.0, 762.0)",1.7,nan,1,1570.78,2,0.02,same
0,137,valid,"[(1180, 794)]",[],[1],[0.6333333333333333],horizontal,"(890.0, 762.0)",0.4666666666666667,0.597,1,1576.323,3,0.02,same
0,138,valid,"[(1134, 808)]",[],[1],[0.5833333333333334],vertical,"(390.0, 762.0)",1.05,0.541,1,1581.869,3,0.02,same
0,139,valid,"[(1177, 792)]",[],[1],[0.5],horizontal,"(390.0, 262.0)",0.35,0.46,1,1588.395,3,0.02,same
0,140,valid,"[(1160, 802)]",[],[1],[0.5166666666666666],horizontal,"(390.0, 762.0)",0.9,0.477,1,1593.364,3,0.02,same
0,141,catch,"[(1165, 794)]",[],[1],[],vertical,"(390.0, 262.0)",1.7,nan,1,1599.02,3,0.02,same
0,142,catch,"[(1165, 796)]",[],[1],[],vertical,"(890.0, 262.0)",,"('cti', 1.517),nan",0,1604.825,0,0.04,same
0,143,catch,"[(1144, 807)]",[],[1],[],horizontal,"(390.0, 262.0)",1.7,nan,1,1609.58,1,0.04,same
0,144,catch,"[(1140, 816)]",[],[1],[],vertical,"(890.0, 262.0)",1.7,nan,1,1615.579,1,0.04,same
0,145,catch,"[(1160, 801)]",[],[1],[],vertical,"(390.0, 262.0)",1.7,nan,1,1620.445,1,0.04,same
0,146,valid,"[(1147, 780)]",[],[1],[0.6333333333333333],horizontal,"(890.0, 262.0)",0.5166666666666666,0.593,1,1625.495,2,0.04,same
0,147,catch,"[(1183, 795)]",[],[1],[],vertical,"(390.0, 762.0)",1.7,nan,1,1630.595,2,0.04,same
0,148,valid,"[(1165, 807)]",[],[1],[0.6166666666666667],vertical,"(390.0, 762.0)",0.8666666666666667,0.578,1,1636.129,2,0.04,same
0,149,valid,"[(1180, 794)]",[],[1],[0.6833333333333333],horizontal,"(390.0, 262.0)",0.95,0.644,1,1641.964,3,0.04,same
0,150,valid,"[(1174, 800)]",[],[1],[0.65],horizontal,"(890.0, 762.0)",0.4,0.606,1,1647.834,3,0.04,same
0,151,valid,"[(1170, 782)]",[],[1],[0.55],horizontal,"(390.0, 262.0)",1.35,0.509,1,1652.858,3,0.04,same
0,152,catch,"[(1162, 792)]",[],[1],[],vertical,"(390.0, 762.0)",,"('cti', 1.631),nan",0,1658.766,0,0.06,same
0,153,valid,"[(1143, 816)]",[],[1],[0.8],horizontal,"(390.0, 262.0)",0.6,0.747,1,1663.163,1,0.06,same
0,154,valid,"[(1145, 812)]",[],[1],[0.55],horizontal,"(390.0, 762.0)",0.85,0.504,1,1676.129,1,0.06,same
0,155,valid,"[(1124, 824)]",[],[1],[0.7166666666666667],vertical,"(890.0, 762.0)",0.7166666666666667,0.667,1,1681.169,1,0.06,same
0,156,valid,"[(1164, 769)]",[],[1],[0.6666666666666666],horizontal,"(890.0, 762.0)",1.35,0.624,1,1686.48,2,0.06,same
0,157,valid,"[(1175, 801)]",[],[1],[0.5166666666666666],horizontal,"(890.0, 762.0)",1.5333333333333332,0.473,1,1692.308,2,0.06,same
0,158,valid,"[(1079, 847)]",[],[1],[0.18333333333333332],horizontal,"(890.0, 762.0)",1.3666666666666667,0.15,0,1698.351,0,0.06,same
0,159,catch,"[(1131, 821)]",[],[1],[],horizontal,"(890.0, 262.0)",1.7,nan,1,1916.255,1,0.04,same
0,160,valid,"[(1143, 804)]",[],[1],[0.8],vertical,"(890.0, 262.0)",0.7,0.757,1,1921.879,1,0.04,same
0,161,valid,"[(1165, 836)]",[],[1],[0.5833333333333334],horizontal,"(390.0, 762.0)",1.4166666666666667,0.544,1,1926.753,1,0.04,same
0,162,valid,"[(1162, 798)]",[],[1],[0.7166666666666667],vertical,"(890.0, 762.0)",0.8,0.676,1,1932.23,2,0.04,same
0,163,catch,"[(1160, 791)]",[],[1],[],vertical,"(890.0, 262.0)",1.7,nan,1,1937.871,2,0.04,same
0,164,invalid_same_bar,"[(1161, 809)]",[],[1],[0.48333333333333334],vertical,"(390.0, 762.0)",0.9333333333333333,0.448,1,1943.395,2,0.04,same
0,165,valid,"[(1179, 811)]",[],[1],[0.6],horizontal,"(890.0, 762.0)",0.8666666666666667,0.554,1,1948.596,3,0.04,same
0,166,catch,"[(1168, 805)]",[],[1],[],vertical,"(390.0, 762.0)",1.7,nan,1,1954.52,3,0.04,same
0,167,valid,"[(1162, 782)]",[],[1],[0.85],vertical,"(390.0, 262.0)",0.48333333333333334,nan,0,1960.261,0,0.04,same
0,168,valid,"[(1127, 825)]",[],[1],[0.5833333333333334],horizontal,"(390.0, 762.0)",1.1,0.54,1,1964.574,1,0.04,same
0,169,valid,"[(1173, 806)]",[],[1],[0.5833333333333334],horizontal,"(390.0, 262.0)",0.9833333333333333,0.55,1,2004.931,1,0.04,same
0,170,valid,"[(1173, 801)]",[],[1],[0.5166666666666666],vertical,"(890.0, 262.0)",1.4333333333333333,0.478,1,2010.236,1,0.04,same
0,171,valid,"[(1139, 797)]",[],[1],[0.6],vertical,"(890.0, 262.0)",1.0166666666666666,0.562,1,2015.881,2,0.04,same
0,172,valid,"[(1175, 805)]",[],[1],[0.6333333333333333],horizontal,"(890.0, 762.0)",0.75,0.595,1,2021.502,2,0.04,same
0,173,valid,"[(1168, 803)]",[],[1],[0.5666666666666667],horizontal,"(890.0, 762.0)",0.85,0.521,1,2026.775,2,0.04,same
0,174,catch,"[(1174, 808)]",[],[1],[],horizontal,"(390.0, 262.0)",1.7,nan,1,2032.334,3,0.04,same
0,175,catch,"[(1163, 797)]",[],[1],[],vertical,"(890.0, 262.0)",1.7,nan,1,2038.678,3,0.04,same
0,176,invalid_same_bar,"[(1164, 799)]",[],[1],[0.5833333333333334],horizontal,"(890.0, 762.0)",0.7833333333333333,0.541,1,2045.213,3,0.04,same
0,177,valid,"[(1175, 784)]",[],[1],[0.6],horizontal,"(890.0, 762.0)",0.35,0.558,1,2050.858,3,0.04,same
0,178,valid,"[(1176, 803)]",[],[1],[0.5333333333333333],horizontal,"(890.0, 262.0)",0.43333333333333335,0.498,1,2056.287,3,0.04,same
0,179,catch,"[(1179, 793)]",[],[1],[],vertical,"(390.0, 262.0)",1.7,nan,1,2061.751,3,0.04,same
0,180,catch,"[(1197, 806)]",[],[1],[],vertical,"(390.0, 762.0)",1.7,nan,1,2068.103,3,0.04,same
0,181,catch,"[(1175, 796)]",[],[1],[],vertical,"(890.0, 262.0)",1.7,nan,1,2073.613,3,0.04,same
0,182,valid,"[(1175, 796)]",[],[1],[0.65],vertical,"(390.0, 262.0)",1.2666666666666666,0.604,1,2079.657,3,0.04,same
0,183,catch,"[(1165, 806)]",[],[1],[],horizontal,"(890.0, 262.0)",1.7,nan,1,2085.714,3,0.04,same
0,184,valid,"[(1170, 801)]",[],[1],[0.5333333333333333],vertical,"(390.0, 762.0)",0.6666666666666666,0.487,1,2091.624,3,0.04,same
0,185,valid,"[(1168, 793)]",[],[1],[0.5666666666666667],vertical,"(890.0, 762.0)",1.4833333333333334,0.528,1,2096.829,3,0.04,same
0,186,valid,"[(1167, 791)]",[],[1],[0.65],horizontal,"(390.0, 762.0)",0.6166666666666667,0.609,1,2103.214,3,0.04,same
0,187,invalid_adjacent_other_bar,"[(1167, 788)]",[],[1],[0.6166666666666667],vertical,"(390.0, 262.0)",1.1166666666666667,0.57,1,2108.786,3,0.04,other
0,188,catch,"[(1170, 801)]",[],[1],[0.03333333333333333],horizontal,"(390.0, 762.0)",1.7,"0.018,nan",0,2114.562,0,0.06,same
0,189,valid,"[(1162, 801)]",[],[1],[0.85],vertical,"(890.0, 762.0)",0.45,nan,0,2119.618,0,0.06,same
0,190,valid,"[(1132, 781)]",[],[1],[0.5333333333333333],horizontal,"(390.0, 262.0)",0.6,0.491,1,2123.496,1,0.06,same
0,191,valid,"[(1168, 798)]",[],[1],[0.5166666666666666],horizontal,"(390.0, 262.0)",1.2,0.476,1,2128.279,1,0.06,same
0,192,valid,"[(1185, 804)]",[],[1],[],horizontal,"(890.0, 262.0)",,"('cti', 1.245)",0,2133.24,0,0.04,same
0,193,catch,"[(1090, 778)]",[],[1],[],horizontal,"(890.0, 262.0)",1.7,nan,1,2137.863,1,0.04,same
0,194,valid,"[(1145, 796)]",[],[1],[0.6],vertical,"(390.0, 262.0)",1.0166666666666666,0.557,1,2172.664,1,0.04,same
0,195,valid,"[(1167, 796)]",[],[1],[0.7666666666666666],vertical,"(390.0, 762.0)",0.4166666666666667,0.721,1,2177.972,1,0.04,same
0,196,invalid_adjacent_other_bar,"[(1165, 792)]",[],[1],[0.55],horizontal,"(890.0, 262.0)",1.2833333333333332,0.504,1,2182.681,2,0.04,other
0,197,valid,"[(1161, 781)]",[],[1],[0.6],vertical,"(890.0, 762.0)",0.43333333333333335,0.557,1,2188.723,2,0.04,same
0,198,catch,"[(1172, 816)]",[],[1],[],vertical,"(390.0, 762.0)",1.7,nan,1,2193.229,2,0.04,same
0,199,valid,"[(1170, 807)]",[],[1],[0.85],horizontal,"(890.0, 262.0)",0.7833333333333333,nan,0,2198.832,0,0.04,same
0,200,invalid_adjacent_other_bar,"[(1163, 792)]",[],[1],[0.85],horizontal,"(890.0, 762.0)",1.3166666666666667,nan,0,2203.443,0,0.04,other
0,201,invalid_same_bar,"[(1140, 828)]",[],[1],[0.85],vertical,"(890.0, 762.0)",1.4666666666666666,nan,0,2208.679,0,0.04,same
0,202,valid,"[(1126, 821)]",[],[1],[0.5833333333333334],vertical,"(890.0, 262.0)",0.5333333333333333,0.54,1,2217.347,1,0.02,same
0,203,invalid_same_bar,"[(1160, 796)]",[],[1],[0.65],horizontal,"(390.0, 262.0)",0.8,0.613,1,2265.713,1,0.02,same
0,204,valid,"[(1162, 799)]",[],[1],[0.48333333333333334],horizontal,"(890.0, 262.0)",1.2166666666666666,0.438,1,2270.752,1,0.02,same
0,205,invalid_adjacent_other_bar,"[(1170, 791)]",[],[1],[0.5666666666666667],vertical,"(890.0, 762.0)",1.0833333333333333,0.527,1,2276.146,2,0.02,other
0,206,invalid_adjacent_other_bar,"[(1169, 772)]",[],[1],[0.5333333333333333],horizontal,"(390.0, 262.0)",0.6166666666666667,0.501,1,2281.652,2,0.02,other
0,207,catch,"[(1165, 799)]",[],[1],[],vertical,"(390.0, 262.0)",1.7,nan,1,2286.451,2,0.02,same
0,208,valid,"[(1183, 800)]",[],[1],[0.43333333333333335],horizontal,"(890.0, 262.0)",1.5333333333333332,0.395,1,2291.917,3,0.02,same
0,209,valid,"[(1175, 821)]",[],[1],[0.85],vertical,"(390.0, 262.0)",0.4166666666666667,nan,0,2298.282,0,0.02,same
0,210,valid,"[(1169, 804)]",[],[1],[0.7],horizontal,"(890.0, 262.0)",0.9666666666666667,0.656,1,2302.298,1,0.02,same
0,211,valid,"[(1184, 795)]",[],[1],[0.5666666666666667],horizontal,"(890.0, 262.0)",1.15,0.531,1,2307.276,1,0.02,same
0,212,valid,"[(1175, 797)]",[],[1],[0.5333333333333333],horizontal,"(390.0, 762.0)",1.4666666666666666,0.492,1,2312.397,1,0.02,same
0,213,catch,"[(1179, 807)]",[],[1],[],vertical,"(890.0, 762.0)",1.7,nan,1,2317.815,2,0.02,same
0,214,valid,"[(1180, 790)]",[],[1],[0.6166666666666667],vertical,"(390.0, 262.0)",0.48333333333333334,0.574,1,2323.483,2,0.02,same
0,215,catch,"[(1180, 783)]",[],[1],[],vertical,"(390.0, 262.0)",1.7,nan,1,2328.446,2,0.02,same
0,216,valid,"[(1175, 798)]",[],[1],[0.5666666666666667],horizontal,"(890.0, 262.0)",0.5666666666666667,0.531,1,2334.676,3,0.02,same
0,217,valid,"[(1175, 821)]",[],[1],[0.65],vertical,"(390.0, 262.0)",1.2333333333333334,0.601,1,2340.613,3,0.02,same
0,218,valid,"[(1175, 812)]",[],[1],[0.2833333333333333],horizontal,"(890.0, 262.0)",1.4833333333333334,0.245,1,2346.274,3,0.02,same
0,219,valid,"[(1174, 813)]",[],[1],[0.65],vertical,"(890.0, 762.0)",0.35,0.604,1,2352.331,3,0.02,same
0,220,valid,"[(1174, 803)]",[],[1],[0.5333333333333333],vertical,"(390.0, 262.0)",0.7333333333333333,0.492,1,2357.142,3,0.02,same
0,221,valid,"[(1176, 796)]",[],[1],[0.85],horizontal,"(390.0, 262.0)",0.43333333333333335,nan,0,2362.88,0,0.02,same
0,222,valid,"[(1174, 776)]",[],[1],[0.85],vertical,"(890.0, 262.0)",0.7,nan,0,2367.163,0,0.02,same
0,223,catch,"[(1140, 796)]",[],[1],[],horizontal,"(390.0, 262.0)",1.7,nan,1,2372.143,1,0.02,same
0,224,valid,"[(1170, 794)]",[],[1],[0.6],vertical,"(390.0, 762.0)",1.1833333333333333,0.555,1,2377.189,1,0.02,same
0,225,valid,"[(1171, 801)]",[],[1],[0.6833333333333333],horizontal,"(890.0, 262.0)",1.25,0.636,1,2382.081,1,0.02,same
0,226,valid,"[(1179, 797)]",[],[1],[0.5],horizontal,"(390.0, 262.0)",0.6333333333333333,0.461,1,2387.08,2,0.02,same
0,227,catch,"[(1170, 785)]",[],[1],[],vertical,"(390.0, 762.0)",1.7,nan,1,2391.971,2,0.02,same
0,228,valid,"[(1183, 792)]",[],[1],[0.5666666666666667],horizontal,"(890.0, 262.0)",0.9333333333333333,0.53,1,2397.297,2,0.02,same
0,229,valid,"[(1176, 799)]",[],[1],[0.8],horizontal,"(890.0, 762.0)",0.4,0.755,1,2403.08,3,0.02,same
0,230,invalid_same_bar,"[(1179, 811)]",[],[1],[0.65],horizontal,"(890.0, 762.0)",0.65,0.612,1,2408.731,3,0.02,same
0,231,invalid_same_bar,"[(1171, 813)]",[],[1],[0.85],vertical,"(390.0, 762.0)",0.3833333333333333,nan,0,2414.214,0,0.02,same
0,232,valid,"[(1137, 791)]",[],[1],[0.6333333333333333],vertical,"(390.0, 762.0)",0.6333333333333333,0.583,1,2418.664,1,0.02,same
0,233,valid,"[(1183, 795)]",[],[1],[0.5666666666666667],vertical,"(390.0, 262.0)",1.2166666666666666,0.528,1,2423.548,1,0.02,same
0,234,valid,"[(1189, 807)]",[],[1],[0.5],vertical,"(890.0, 262.0)",1.1,0.457,1,2428.748,1,0.02,same
0,235,valid,"[(1180, 796)]",[],[1],[0.85],vertical,"(890.0, 262.0)",0.4666666666666667,nan,0,2433.846,0,0.02,same
0,236,valid,"[(1170, 798)]",[],[1],[0.15],vertical,"(390.0, 262.0)",1.5166666666666666,0.119,0,2438.38,0,0.02,same
0,237,valid,"[(1133, 796)]",[],[1],[0.6166666666666667],vertical,"(890.0, 262.0)",0.43333333333333335,0.582,1,2443.225,1,0.02,same
0,238,valid,"[(1175, 801)]",[],[1],[0.5166666666666666],horizontal,"(890.0, 262.0)",1.2166666666666666,0.479,1,2535.181,1,0.0,same
0,239,valid,"[(1160, 792)]",[],[1],[0.6333333333333333],horizontal,"(390.0, 262.0)",0.65,0.597,1,2540.581,1,0.0,same
0,240,valid,"[(1165, 794)]",[],[1],[0.5166666666666666],horizontal,"(890.0, 262.0)",0.9666666666666667,0.479,1,2545.38,2,0.0,same
0,241,valid,"[(1196, 814)]",[],[1],[0.55],vertical,"(390.0, 762.0)",0.7,0.511,1,2550.681,2,0.0,same
0,242,valid,"[(1180, 792)]",[],[1],[0.5833333333333334],vertical,"(890.0, 762.0)",1.5333333333333332,0.543,1,2556.126,2,0.0,same
0,243,invalid_same_bar,"[(1175, 784)]",[],[1],[0.6333333333333333],horizontal,"(390.0, 762.0)",0.3833333333333333,0.588,1,2561.925,3,0.0,same
0,244,valid,"[(1180, 792)]",[],[1],[0.65],vertical,"(390.0, 262.0)",1.0666666666666667,0.602,1,2567.257,3,0.0,same
0,245,catch,"[(1176, 813)]",[],[1],[],vertical,"(390.0, 762.0)",1.7,nan,1,2573.423,3,0.0,same
0,246,valid,"[(1175, 792)]",[],[1],[0.6833333333333333],horizontal,"(390.0, 262.0)",0.6833333333333333,0.634,1,2579.481,3,0.0,same
0,247,catch,"[(1165, 799)]",[],[1],[],horizontal,"(890.0, 262.0)",1.7,nan,1,2585.413,3,0.0,same
0,248,catch,"[(1165, 789)]",[],[1],[],vertical,"(390.0, 762.0)",1.7,nan,1,2591.555,3,0.0,same
0,249,valid,"[(1170, 797)]",[],[1],[0.6666666666666666],vertical,"(890.0, 262.0)",1.2333333333333334,0.622,1,2597.135,3,0.0,same
0,250,invalid_adjacent_other_bar,"[(1170, 814)]",[],[1],[0.5333333333333333],vertical,"(390.0, 762.0)",1.05,0.489,1,2602.98,3,0.0,other
0,251,valid,"[(1161, 808)]",[],[1],[0.6166666666666667],horizontal,"(390.0, 262.0)",1.4166666666666667,0.57,1,2608.347,3,0.0,same
0,252,invalid_adjacent_other_bar,"[(1181, 800)]",[],[1],[0.85],vertical,"(390.0, 262.0)",0.45,nan,0,2614.676,0,0.0,other
0,253,catch,"[(1160, 791)]",[],[1],[],horizontal,"(890.0, 762.0)",1.7,nan,1,2618.67,1,0.0,same
0,254,valid,"[(1160, 812)]",[],[1],[0.6],vertical,"(390.0, 762.0)",0.9666666666666667,0.558,1,2624.365,1,0.0,same
0,255,valid,"[(1178, 790)]",[],[1],[0.6166666666666667],vertical,"(390.0, 762.0)",0.7,0.574,1,2629.481,1,0.0,same
0,256,valid,"[(1163, 795)]",[],[1],[0.5166666666666666],vertical,"(390.0, 762.0)",0.75,0.474,1,2634.253,2,0.0,same
0,257,catch,"[(1172, 791)]",[],[1],[],vertical,"(890.0, 762.0)",1.7,nan,1,2639.305,2,0.0,same
0,258,valid,"[(1165, 808)]",[],[1],[0.5],horizontal,"(890.0, 262.0)",1.3166666666666667,0.462,1,2645.132,2,0.0,same
0,259,valid,"[(1160, 791)]",[],[1],[0.55],horizontal,"(390.0, 262.0)",1.4666666666666666,0.507,1,2650.717,3,0.0,same
0,260,valid,"[(1175, 796)]",[],[1],[0.5833333333333334],horizontal,"(390.0, 762.0)",0.6,0.544,1,2657.08,3,0.0,same
0,261,valid,"[(1174, 784)]",[],[1],[0.5333333333333333],vertical,"(890.0, 762.0)",1.4166666666666667,0.487,1,2662.215,3,0.0,same
0,262,valid,"[(1157, 788)]",[],[1],[0.5333333333333333],vertical,"(390.0, 762.0)",0.8333333333333334,0.494,1,2668.447,3,0.0,same
0,263,valid,"[(1176, 794)]",[],[1],[0.5666666666666667],horizontal,"(890.0, 262.0)",1.1666666666666667,0.526,1,2673.881,3,0.0,same
0,264,valid,"[(1178, 809)]",[],[1],[0.5833333333333334],vertical,"(390.0, 762.0)",1.0333333333333332,0.538,1,2680.031,3,0.0,same
0,265,valid,"[(1173, 789)]",[],[1],[0.5666666666666667],vertical,"(890.0, 262.0)",0.5666666666666667,0.525,1,2686.048,3,0.0,same
0,266,valid,"[(1181, 785)]",[],[1],[0.55],horizontal,"(890.0, 762.0)",0.65,0.513,1,2691.555,3,0.0,same
0,267,valid,"[(1208, 805)]",[],[1],[0.5833333333333334],vertical,"(890.0, 762.0)",1.5333333333333332,0.538,1,2696.975,3,0.0,same
0,268,valid,"[(1175, 792)]",[],[1],[0.6666666666666666],horizontal,"(390.0, 262.0)",0.55,0.625,1,2703.531,3,0.0,same
0,269,catch,"[(1175, 788)]",[],[1],[],horizontal,"(890.0, 762.0)",1.7,nan,1,2709.194,3,0.0,same
0,270,catch,"[(1175, 785)]",[],[1],[],horizontal,"(890.0, 762.0)",1.7,nan,1,2714.948,3,0.0,same
0,271,valid,"[(1180, 791)]",[],[1],[0.6666666666666666],horizontal,"(890.0, 762.0)",1.35,0.621,1,2721.031,3,0.0,same
0,272,catch,"[(1158, 795)]",[],[1],[],horizontal,"(890.0, 762.0)",1.7,nan,1,2726.93,3,0.0,same
0,273,valid,"[(1160, 793)]",[],[1],[0.5],vertical,"(890.0, 262.0)",1.4333333333333333,0.457,1,2732.714,3,0.0,same
0,274,valid,"[(1175, 803)]",[],[1],[0.5166666666666666],vertical,"(890.0, 262.0)",1.1833333333333333,0.481,1,2739.147,3,0.0,same
0,275,valid,"[(1165, 796)]",[],[1],[0.6],vertical,"(390.0, 262.0)",1.1166666666666667,0.561,1,2745.23,3,0.0,same
0,276,catch,"[(1165, 789)]",[],[1],[],horizontal,"(390.0, 262.0)",1.7,nan,1,2751.188,3,0.0,same
0,277,valid,"[(1167, 779)]",[],[1],[0.65],horizontal,"(890.0, 262.0)",0.9166666666666666,0.616,1,2757.208,3,0.0,same
0,278,valid,"[(1186, 774)]",[],[1],[0.6666666666666666],vertical,"(890.0, 262.0)",1.35,0.627,1,2762.618,3,0.0,same
0,279,valid,"[(1160, 787)]",[],[1],[0.6666666666666666],horizontal,"(390.0, 262.0)",0.7166666666666667,0.618,1,2768.714,3,0.0,same
0,280,catch,"[(1165, 795)]",[],[1],[],vertical,"(890.0, 262.0)",1.7,nan,1,2774.691,3,0.0,same
0,281,valid,"[(1199, 796)]",[],[1],[0.5666666666666667],horizontal,"(390.0, 762.0)",1.3166666666666667,0.525,1,2780.736,3,0.0,same
0,282,catch,"[(1191, 794)]",[],[1],[],horizontal,"(890.0, 762.0)",1.7,nan,1,2787.051,3,0.0,same
0,283,valid,"[(1170, 800)]",[],[1],[0.5333333333333333],horizontal,"(390.0, 262.0)",0.5166666666666666,0.496,1,2793.015,3,0.0,same
0,284,valid,"[(1200, 795)]",[],[1],[0.6333333333333333],horizontal,"(390.0, 762.0)",1.2,0.589,1,2798.266,3,0.0,same
0,285,valid,"[(1175, 790)]",[],[1],[0.6166666666666667],vertical,"(890.0, 262.0)",1.0,0.584,1,2804.529,3,0.0,same
0,286,valid,"[(1176, 791)]",[],[1],[0.6833333333333333],horizontal,"(390.0, 262.0)",1.15,0.645,1,2810.356,3,0.0,same
0,287,invalid_same_bar,"[(1175, 791)]",[],[1],[0.5333333333333333],horizontal,"(890.0, 262.0)",1.3666666666666667,0.492,1,2816.58,3,0.0,same
0,288,valid,"[(1180, 796)]",[],[1],[0.6],horizontal,"(390.0, 762.0)",1.2833333333333332,0.558,1,2822.64,3,0.0,same
0,289,valid,"[(1202, 809)]",[],[1],[0.6833333333333333],vertical,"(890.0, 262.0)",1.2833333333333332,0.637,1,2828.725,3,0.0,same
0,290,valid,"[(1176, 801)]",[],[1],[0.6],horizontal,"(390.0, 262.0)",0.8833333333333333,0.557,1,2834.88,3,0.0,same
0,291,valid,"[(1205, 808)]",[],[1],[0.5166666666666666],vertical,"(890.0, 262.0)",0.95,0.478,1,2840.715,3,0.0,same
0,292,catch,"[(1198, 791)]",[],[1],[],vertical,"(890.0, 262.0)",1.7,nan,1,2846.415,3,0.0,same
0,293,valid,"[(1166, 790)]",[],[1],[0.5833333333333334],horizontal,"(890.0, 262.0)",1.3333333333333333,0.54,1,2852.247,3,0.0,same
0,294,valid,"[(1175, 782)]",[],[1],[0.7833333333333333],vertical,"(890.0, 262.0)",0.35,0.74,1,2858.48,3,0.0,same
0,295,catch,"[(1165, 794)]",[],[1],[],vertical,"(390.0, 762.0)",1.7,nan,1,2863.697,3,0.0,same
0,296,valid,"[(1178, 786)]",[],[1],[0.5666666666666667],horizontal,"(390.0, 762.0)",1.4333333333333333,0.522,1,2869.84,3,0.0,same
0,297,valid,"[(1170, 789)]",[],[1],[0.5166666666666666],horizontal,"(890.0, 262.0)",0.9666666666666667,0.48,1,2876.032,3,0.0,same
0,298,valid,"[(1160, 782)]",[],[1],[0.5166666666666666],vertical,"(390.0, 262.0)",0.85,0.48,1,2881.422,3,0.0,same
0,299,valid,"[(1175, 790)]",[],[1],[0.7333333333333333],horizontal,"(390.0, 262.0)",1.2333333333333334,0.693,1,2887.093,3,0.0,same
0,300,valid,"[(1175, 800)]",[],[1],[0.6166666666666667],vertical,"(390.0, 762.0)",1.2166666666666666,0.574,1,2893.481,3,0.0,same
0,301,catch,"[(1175, 793)]",[],[1],[],vertical,"(390.0, 762.0)",1.7,nan,1,2899.815,3,0.0,same
0,302,valid,"[(1175, 796)]",[],[1],[0.6833333333333333],vertical,"(890.0, 762.0)",1.3333333333333333,0.641,1,2905.564,3,0.0,same
0,303,catch,"[(1163, 791)]",[],[1],[],horizontal,"(890.0, 262.0)",1.7,nan,1,2912.031,3,0.0,same
0,304,catch,"[(1158, 777)]",[],[1],[],vertical,"(890.0, 762.0)",1.7,nan,1,2918.165,3,0.0,same
0,305,valid,"[(1174, 776)]",[],[1],[0.5166666666666666],horizontal,"(890.0, 262.0)",1.1333333333333333,0.473,1,2923.996,3,0.0,same
0,306,valid,"[(1175, 798)]",[],[1],[0.85],vertical,"(890.0, 762.0)",1.0666666666666667,nan,0,2930.016,0,0.0,same
0,307,valid,"[(1155, 808)]",[],[1],[0.85],horizontal,"(890.0, 262.0)",1.4833333333333334,nan,0,2934.916,0,0.0,same
0,308,catch,"[(1113, 816)]",[],[1],[],vertical,"(390.0, 762.0)",1.7,nan,1,2941.097,1,0.0,same
0,309,catch,"[(1161, 797)]",[],[1],[],horizontal,"(890.0, 262.0)",1.7,nan,1,2947.827,1,0.0,same
0,310,valid,"[(1175, 792)]",[],[1],[0.5333333333333333],vertical,"(890.0, 762.0)",0.36666666666666664,0.494,1,2952.666,1,0.0,same
0,311,valid,"[(1175, 801)]",[],[1],[0.85],vertical,"(390.0, 262.0)",0.95,nan,0,2957.199,0,0.0,same
0,312,valid,"[(1163, 782)]",[],[1],[0.85],vertical,"(390.0, 762.0)",1.5333333333333332,nan,0,2961.913,0,0.0,same
0,313,catch,"[(1166, 799)]",[],[1],[],horizontal,"(890.0, 762.0)",1.7,nan,1,2967.132,1,0.0,same
0,314,invalid_adjacent_other_bar,"[(1214, 807)]",[],[1],[0.5],horizontal,"(890.0, 262.0)",1.4833333333333334,0.466,1,2972.708,1,0.0,other
0,315,invalid_adjacent_other_bar,"[(1210, 811)]",[],[1],[0.85],vertical,"(890.0, 762.0)",0.5,nan,0,2978.413,0,0.0,other
0,316,invalid_same_bar,"[(1143, 787)]",[],[1],[0.65],horizontal,"(390.0, 262.0)",0.6333333333333333,0.607,1,2982.848,1,0.0,same
0,317,valid,"[(1172, 798)]",[],[1],[0.85],horizontal,"(390.0, 262.0)",0.7833333333333333,nan,0,2987.449,0,0.0,same
0,318,invalid_adjacent_other_bar,"[(1165, 793)]",[],[1],[0.4666666666666667],vertical,"(390.0, 762.0)",1.3166666666666667,0.426,1,2992.02,1,0.0,other
0,319,valid,"[(1175, 817)]",[],[1],[0.6666666666666666],vertical,"(390.0, 262.0)",0.9333333333333333,0.619,1,2997.599,1,0.0,same
0,320,invalid_same_bar,"[(1186, 781)]",[],[1],[0.5333333333333333],vertical,"(390.0, 762.0)",0.7333333333333333,0.493,1,3002.244,1,0.0,same
0,321,catch,"[(1175, 784)]",[],[1],[],horizontal,"(890.0, 262.0)",1.7,nan,1,3006.699,2,0.0,same
0,322,valid,"[(1170, 785)]",[],[1],[0.5333333333333333],vertical,"(390.0, 262.0)",0.8,0.491,1,3012.166,2,0.0,same
0,323,valid,"[(1165, 778)]",[],[1],[0.7333333333333333],horizontal,"(390.0, 762.0)",1.4833333333333334,0.687,1,3017.183,2,0.0,same
0,324,catch,"[(1175, 774)]",[],[1],[],horizontal,"(390.0, 262.0)",1.7,nan,1,3022.86,3,0.0,same
0,325,valid,"[(1170, 795)]",[],[1],[0.5],vertical,"(890.0, 762.0)",1.1666666666666667,0.462,1,3029.049,3,0.0,same
0,326,catch,"[(1172, 789)]",[],[1],[],horizontal,"(890.0, 262.0)",1.7,nan,1,3034.449,3,0.0,same
0,327,catch,"[(1170, 797)]",[],[1],[],vertical,"(890.0, 262.0)",1.7,nan,1,3040.211,3,0.0,same
0,328,catch,"[(1160, 789)]",[],[1],[],horizontal,"(390.0, 762.0)",1.7,nan,1,3046.142,3,0.0,same
0,329,valid,"[(1165, 798)]",[],[1],[0.85],horizontal,"(890.0, 262.0)",0.8166666666666667,nan,0,3051.72,0,0.0,same
0,330,valid,"[(1165, 787)]",[],[1],[0.6166666666666667],horizontal,"(890.0, 762.0)",1.4333333333333333,0.568,1,3056.831,1,0.0,same
0,331,valid,"[(1178, 791)]",[],[1],[0.5],horizontal,"(390.0, 762.0)",0.5333333333333333,0.456,1,3062.615,1,0.0,same
0,332,valid,"[(1167, 777)]",[],[1],[0.65],vertical,"(390.0, 262.0)",0.5666666666666667,0.599,1,3066.983,1,0.0,same
0,333,valid,"[(1193, 798)]",[],[1],[0.6333333333333333],horizontal,"(390.0, 762.0)",0.35,0.588,1,3071.589,2,0.0,same
0,334,valid,"[(1175, 801)]",[],[1],[0.65],vertical,"(890.0, 762.0)",1.1666666666666667,0.606,1,3076.864,2,0.0,same
0,335,valid,"[(1178, 783)]",[],[1],[0.6166666666666667],horizontal,"(890.0, 262.0)",0.85,0.569,1,3082.614,2,0.0,same
0,336,invalid_adjacent_other_bar,"[(1179, 792)]",[],[1],[0.85],vertical,"(890.0, 262.0)",1.1666666666666667,nan,0,3087.918,0,0.0,other
0,337,valid,"[(1135, 802)]",[],[1],[0.6666666666666666],horizontal,"(390.0, 262.0)",0.65,0.624,1,3092.997,1,0.0,same
0,338,valid,"[(1175, 799)]",[],[1],[0.5666666666666667],vertical,"(390.0, 762.0)",1.0333333333333332,0.522,1,3097.782,1,0.0,same
0,339,valid,"[(1210, 791)]",[],[1],[0.6166666666666667],horizontal,"(890.0, 762.0)",0.65,0.576,1,3102.797,1,0.0,same
0,340,invalid_same_bar,"[(1177, 805)]",[],[1],[0.85],vertical,"(390.0, 262.0)",0.45,nan,0,3107.732,0,0.0,same
0,341,valid,"[(1159, 785)]",[],[1],[0.85],horizontal,"(890.0, 762.0)",0.48333333333333334,nan,0,3112.182,0,0.0,same
0,342,valid,"[(1135, 797)]",[],[1],[0.55],vertical,"(890.0, 762.0)",0.7666666666666666,0.508,1,3116.565,1,0.0,same
0,343,invalid_same_bar,"[(1175, 796)]",[],[1],[0.6333333333333333],vertical,"(890.0, 262.0)",0.9,0.588,1,3121.208,1,0.0,same
0,344,valid,"[(1174, 799)]",[],[1],[0.5666666666666667],horizontal,"(390.0, 262.0)",1.3166666666666667,0.524,1,3126.202,1,0.0,same
0,345,valid,"[(1175, 796)]",[],[1],[0.5333333333333333],horizontal,"(890.0, 762.0)",0.4666666666666667,0.494,1,3131.264,2,0.0,same
0,346,invalid_same_bar,"[(1192, 800)]",[],[1],[0.85],horizontal,"(890.0, 762.0)",0.9833333333333333,nan,0,3136.604,0,0.0,same
0,347,valid,"[(1165, 797)]",[],[1],[0.85],vertical,"(890.0, 262.0)",0.75,nan,0,3141.337,0,0.0,same
0,348,catch,"[(1165, 803)]",[],[1],[],horizontal,"(890.0, 262.0)",1.7,nan,1,3146.214,1,0.0,same
0,349,catch,"[(1161, 801)]",[],[1],[],vertical,"(890.0, 762.0)",1.7,nan,1,3151.001,1,0.0,same
0,350,catch,"[(1171, 801)]",[],[1],[],vertical,"(390.0, 762.0)",1.7,nan,1,3156.31,1,0.0,same
0,351,catch,"[(1208, 786)]",[],[1],[],vertical,"(390.0, 762.0)",1.7,nan,1,3161.916,2,0.0,same
0,352,valid,"[(1175, 812)]",[],[1],[0.5833333333333334],horizontal,"(390.0, 762.0)",0.8166666666666667,0.544,1,3167.888,2,0.0,same
0,353,valid,"[(1175, 817)]",[],[1],[0.6833333333333333],vertical,"(890.0, 762.0)",1.2166666666666666,0.637,1,3172.865,2,0.0,same
0,354,valid,"[(1145, 796)]",[],[1],[0.85],vertical,"(890.0, 762.0)",1.0833333333333333,nan,0,3178.515,0,0.0,same
0,355,catch,"[(1148, 792)]",[],[1],[],vertical,"(890.0, 762.0)",1.7,nan,1,3183.932,1,0.0,same
0,356,catch,"[(1175, 786)]",[],[1],[],vertical,"(390.0, 262.0)",1.7,nan,1,3189.487,1,0.0,same
0,357,valid,"[(1170, 796)]",[],[1],[0.5333333333333333],horizontal,"(390.0, 762.0)",1.4166666666666667,0.49,1,3194.898,1,0.0,same
0,358,catch,"[(1177, 803)]",[],[1],[],vertical,"(890.0, 762.0)",1.7,nan,1,3200.082,2,0.0,same
0,359,valid,"[(1163, 811)]",[],[1],[0.5],vertical,"(390.0, 762.0)",1.45,0.458,1,3205.398,2,0.0,same
0,360,catch,"[(1175, 782)]",[],[1],[],vertical,"(390.0, 762.0)",1.7,nan,1,3211.332,2,0.0,same
0,361,valid,"[(1160, 804)]",[],[1],[0.5333333333333333],vertical,"(890.0, 762.0)",0.9166666666666666,0.499,1,3217.226,3,0.0,same
0,362,invalid_adjacent_other_bar,"[(1168, 806)]",[],[1],[0.48333333333333334],vertical,"(890.0, 262.0)",1.3666666666666667,0.448,1,3222.814,3,0.0,other
0,363,catch,"[(1175, 802)]",[],[1],[],horizontal,"(890.0, 262.0)",1.7,nan,1,3229.13,3,0.0,same
0,364,catch,"[(1190, 812)]",[],[1],[],vertical,"(390.0, 262.0)",1.7,nan,1,3234.704,3,0.0,same
0,365,invalid_adjacent_other_bar,"[(1178, 785)]",[],[1],[0.5666666666666667],vertical,"(390.0, 262.0)",0.9166666666666666,0.528,1,3240.922,3,0.0,other
0,366,valid,"[(1184, 796)]",[],[1],[0.5333333333333333],horizontal,"(890.0, 262.0)",1.15,0.494,1,3246.349,3,0.0,same
0,367,valid,"[(1174, 782)]",[],[1],[0.6333333333333333],horizontal,"(390.0, 762.0)",1.0166666666666666,0.593,1,3252.381,3,0.0,same
0,368,invalid_same_bar,"[(1161, 786)]",[],[1],[0.85],vertical,"(390.0, 762.0)",0.7166666666666667,nan,0,3258.115,0,0.0,same
0,369,valid,"[(1135, 765)]",[],[1],[0.85],horizontal,"(390.0, 762.0)",0.9833333333333333,nan,0,3262.499,0,0.0,same
0,370,valid,"[(1153, 792)]",[],[1],[0.5333333333333333],horizontal,"(890.0, 262.0)",1.55,0.488,1,3267.348,1,0.0,same
0,371,valid,"[(1155, 806)]",[],[1],[0.6166666666666667],horizontal,"(390.0, 762.0)",1.1,0.573,1,3272.773,1,0.0,same
0,372,invalid_adjacent_other_bar,"[(1168, 787)]",[],[1],[0.75],horizontal,"(390.0, 262.0)",0.6666666666666666,0.708,1,3277.79,1,0.0,other
0,373,valid,"[(1179, 788)]",[],[1],[0.4],horizontal,"(390.0, 762.0)",1.4,0.366,1,3282.681,2,0.0,same
0,374,catch,"[(1175, 792)]",[],[1],[],vertical,"(390.0, 762.0)",1.7,nan,1,3288.498,2,0.0,same
0,375,valid,"[(1204, 799)]",[],[1],[0.8166666666666667],horizontal,"(890.0, 762.0)",1.4166666666666667,0.77,1,3294.207,2,0.0,same
0,376,catch,"[(1179, 786)]",[],[1],[],horizontal,"(890.0, 762.0)",1.7,nan,1,3300.249,3,0.0,same
0,377,catch,"[(1162, 798)]",[],[1],[],vertical,"(390.0, 262.0)",1.7,nan,1,3306.348,3,0.0,same
0,378,catch,"[(1160, 787)]",[],[1],[],horizontal,"(890.0, 762.0)",1.7,"('cti', 1.686),nan",0,3311.915,0,0.02,same
0,379,catch,"[(1174, 803)]",[],[1],[],horizontal,"(890.0, 262.0)",1.7,nan,1,3317.089,1,0.02,same
0,380,valid,"[(1175, 787)]",[],[1],[0.55],vertical,"(890.0, 262.0)",0.9166666666666666,0.511,1,3322.332,1,0.02,same
0,381,valid,"[(1200, 789)]",[],[1],[0.55],horizontal,"(390.0, 262.0)",0.55,0.508,1,3327.414,1,0.02,same
0,382,valid,"[(1160, 821)]",[],[1],[0.55],horizontal,"(390.0, 262.0)",1.1666666666666667,0.508,1,3332.277,2,0.02,same
0,383,valid,"[(1170, 794)]",[],[1],[0.55],vertical,"(390.0, 262.0)",1.0333333333333332,0.513,1,3338.513,2,0.02,same
0,384,invalid_same_bar,"[(1176, 793)]",[],[1],[0.5333333333333333],vertical,"(390.0, 262.0)",0.7833333333333333,0.497,1,3343.833,2,0.02,same
0,385,catch,"[(1160, 797)]",[],[1],[],vertical,"(890.0, 262.0)",1.7,nan,1,3349.072,3,0.02,same
0,386,valid,"[(1165, 789)]",[],[1],[0.5666666666666667],vertical,"(890.0, 262.0)",0.7,0.526,1,3355.089,3,0.02,same
0,387,catch,"[(1177, 793)]",[],[1],[],horizontal,"(890.0, 262.0)",1.7,nan,1,3360.232,3,0.02,same
0,388,valid,"[(1173, 799)]",[],[1],[0.43333333333333335],vertical,"(390.0, 262.0)",1.4833333333333334,0.394,1,3366.016,3,0.02,same
0,389,valid,"[(1168, 796)]",[],[1],[0.5166666666666666],vertical,"(390.0, 762.0)",0.95,0.478,1,3372.236,3,0.02,same
0,390,invalid_same_bar,"[(1200, 787)]",[],[1],[0.5666666666666667],horizontal,"(890.0, 262.0)",1.4833333333333334,0.524,1,3378.183,3,0.02,same
0,391,valid,"[(1173, 781)]",[],[1],[0.5833333333333334],vertical,"(390.0, 762.0)",1.1333333333333333,0.542,1,3384.252,3,0.02,same
0,392,valid,"[(1179, 783)]",[],[1],[0.5333333333333333],vertical,"(390.0, 762.0)",1.1166666666666667,0.495,1,3389.886,3,0.02,same
0,393,catch,"[(1165, 806)]",[],[1],[],vertical,"(390.0, 762.0)",1.7,nan,1,3395.638,3,0.02,same
0,394,invalid_same_bar,"[(1166, 792)]",[],[1],[0.5666666666666667],vertical,"(390.0, 762.0)",0.35,0.533,1,3401.998,3,0.02,same
0,395,valid,"[(1170, 796)]",[],[1],[0.43333333333333335],horizontal,"(890.0, 762.0)",1.0666666666666667,0.393,1,3406.966,3,0.02,same
0,396,valid,"[(1165, 792)]",[],[1],[0.5666666666666667],vertical,"(890.0, 762.0)",0.8333333333333334,0.525,1,3413.048,3,0.02,same
0,397,invalid_same_bar,"[(1177, 791)]",[],[1],[0.55],vertical,"(890.0, 762.0)",1.0,0.509,1,3418.577,3,0.02,same
0,398,catch,"[(1172, 788)]",[],[1],[],horizontal,"(890.0, 262.0)",1.7,nan,1,3424.044,3,0.02,same
0,399,catch,"[(1175, 802)]",[],[1],[],vertical,"(890.0, 262.0)",1.7,nan,1,3429.748,3,0.02,same
0,400,invalid_adjacent_other_bar,"[(1165, 806)]",[],[1],[0.5666666666666667],horizontal,"(390.0, 262.0)",0.48333333333333334,0.525,1,3436.033,3,0.02,other
0,401,valid,"[(1135, 805)]",[],[1],[0.6333333333333333],vertical,"(890.0, 262.0)",0.4,0.591,1,3441.827,3,0.02,same
0,402,valid,"[(1178, 791)]",[],[1],[0.85],vertical,"(890.0, 262.0)",0.8,nan,0,3447.412,0,0.02,same
0,403,valid,"[(1149, 780)]",[],[1],[0.6],vertical,"(890.0, 262.0)",1.4833333333333334,0.557,1,3451.823,1,0.02,same
0,404,valid,"[(1165, 820)]",[],[1],[0.5333333333333333],horizontal,"(890.0, 762.0)",1.2666666666666666,0.492,1,3457.605,1,0.02,same
0,405,invalid_adjacent_other_bar,"[(1186, 806)]",[],[1],[0.5333333333333333],vertical,"(890.0, 262.0)",1.4,0.495,1,3462.649,1,0.02,other
0,406,valid,"[(1164, 782)]",[],[1],[0.5333333333333333],vertical,"(390.0, 762.0)",0.9166666666666666,0.497,1,3468.338,2,0.02,same
0,407,valid,"[(1200, 791)]",[],[1],[0.5666666666666667],horizontal,"(390.0, 762.0)",1.2166666666666666,0.524,1,3473.282,2,0.02,same
0,408,valid,"[(1160, 779)]",[],[1],[0.6],horizontal,"(390.0, 262.0)",0.5833333333333334,0.555,1,3479.088,2,0.02,same
0,409,valid,"[(1175, 786)]",[],[1],[0.55],vertical,"(890.0, 262.0)",0.35,0.508,1,3484.333,3,0.02,same
0,410,catch,"[(1162, 792)]",[],[1],[],vertical,"(390.0, 262.0)",,"('cti', 1.55),nan",0,3489.316,0,0.04,same
0,411,valid,"[(1165, 799)]",[],[1],[0.5833333333333334],horizontal,"(390.0, 262.0)",0.4,0.54,1,3494.099,1,0.04,same
0,412,valid,"[(1174, 796)]",[],[1],[0.85],vertical,"(390.0, 262.0)",1.1833333333333333,nan,0,3498.92,0,0.04,same
0,413,valid,"[(1161, 807)]",[],[1],[0.65],vertical,"(390.0, 762.0)",0.3833333333333333,0.608,1,3503.72,1,0.04,same
0,414,valid,"[(1168, 811)]",[],[1],[0.75],horizontal,"(890.0, 762.0)",1.3333333333333333,0.713,1,3508.048,1,0.04,same
0,415,valid,"[(1175, 804)]",[],[1],[0.5833333333333334],vertical,"(890.0, 762.0)",1.4,0.538,1,3513.249,1,0.04,same
0,416,valid,"[(1204, 803)]",[],[1],[0.6],horizontal,"(890.0, 762.0)",0.85,0.558,1,3518.209,2,0.04,same
0,417,catch,"[(1138, 811)]",[],[1],[],vertical,"(390.0, 762.0)",1.7,nan,1,3523.799,2,0.04,same
0,418,valid,"[(1172, 803)]",[],[1],[0.55],vertical,"(390.0, 262.0)",1.5166666666666666,0.506,1,3529.567,2,0.04,same
0,419,valid,"[(1175, 803)]",[],[1],[0.5333333333333333],vertical,"(890.0, 762.0)",0.55,0.49,1,3535.653,3,0.04,same
0,420,valid,"[(1170, 784)]",[],[1],[0.85],vertical,"(390.0, 262.0)",0.5333333333333333,nan,0,3541.273,0,0.04,same
0,421,valid,"[(1140, 781)]",[],[1],[0.5666666666666667],horizontal,"(390.0, 762.0)",0.43333333333333335,0.523,1,3545.51,1,0.04,same
0,422,catch,"[(1155, 799)]",[],[1],[],vertical,"(890.0, 762.0)",,"('cti', 1.633),nan",0,3550.133,0,0.06,same
0,423,catch,"[(1085, 821)]",[],[1],[],horizontal,"(890.0, 262.0)",1.7,nan,1,3555.13,1,0.06,same
0,424,valid,"[(1205, 822)]",[],[1],[0.7],vertical,"(390.0, 262.0)",0.95,0.653,1,3894.397,1,0.06,same
0,425,invalid_adjacent_other_bar,"[(1161, 822)]",[],[1],[0.5833333333333334],horizontal,"(390.0, 762.0)",1.3666666666666667,0.538,1,3899.556,1,0.06,other
0,426,valid,"[(1178, 801)]",[],[1],[0.5333333333333333],horizontal,"(390.0, 262.0)",1.5,0.491,1,3904.967,2,0.06,same
0,427,valid,"[(1175, 797)]",[],[1],[0.5333333333333333],vertical,"(890.0, 262.0)",1.15,0.495,1,3910.902,2,0.06,same
0,428,valid,"[(1136, 807)]",[],[1],[0.6666666666666666],vertical,"(390.0, 762.0)",0.7166666666666667,0.621,1,3916.139,2,0.04,same
0,429,valid,"[(1176, 817)]",[],[1],[0.5333333333333333],horizontal,"(390.0, 762.0)",0.8333333333333334,0.489,1,3921.732,3,0.04,same
0,430,invalid_same_bar,"[(1189, 791)]",[],[1],[0.5833333333333334],vertical,"(890.0, 262.0)",0.6333333333333333,0.535,1,3927.582,3,0.04,same
0,431,valid,"[(1204, 806)]",[],[1],[0.6666666666666666],vertical,"(390.0, 262.0)",1.35,0.62,1,3933.165,3,0.04,same
0,432,invalid_adjacent_other_bar,"[(1185, 794)]",[],[1],[0.5333333333333333],vertical,"(890.0, 762.0)",0.5666666666666667,0.488,1,3939.349,3,0.04,other
0,433,valid,"[(1166, 786)]",[],[1],[0.55],vertical,"(390.0, 262.0)",0.7666666666666666,0.506,1,3944.374,3,0.04,same
0,434,valid,"[(1178, 786)]",[],[1],[0.6666666666666666],vertical,"(390.0, 762.0)",0.5333333333333333,0.62,1,3949.756,3,0.04,same
0,435,invalid_same_bar,"[(1180, 790)]",[],[1],[0.6166666666666667],horizontal,"(890.0, 262.0)",1.05,0.569,1,3954.949,3,0.04,same
0,436,valid,"[(1147, 802)]",[],[1],[0.85],horizontal,"(390.0, 262.0)",0.4166666666666667,nan,0,3960.599,0,0.04,same
0,437,valid,"[(1136, 774)]",[],[1],[0.85],horizontal,"(390.0, 762.0)",1.1666666666666667,nan,0,3964.588,0,0.04,same
0,438,catch,"[(1165, 800)]",[],[1],[],horizontal,"(890.0, 762.0)",,"('cti', 1.494),nan",0,3969.929,0,0.06,same
0,439,invalid_same_bar,"[(1170, 787)]",[],[1],[0.85],vertical,"(890.0, 762.0)",0.4166666666666667,nan,0,3974.831,0,0.06,same
0,440,valid,"[(1168, 780)]",[],[1],[0.7333333333333333],horizontal,"(390.0, 762.0)",0.5333333333333333,0.697,1,3979.042,1,0.06,same
0,441,valid,"[(1179, 791)]",[],[1],[0.5666666666666667],vertical,"(890.0, 762.0)",1.3333333333333333,0.522,1,3984.067,1,0.06,same
0,442,valid,"[(1175, 786)]",[],[1],[0.55],horizontal,"(890.0, 762.0)",1.25,0.505,1,3989.45,1,0.06,same
0,443,valid,"[(1205, 786)]",[],[1],[0.7833333333333333],horizontal,"(890.0, 762.0)",0.7166666666666667,0.739,1,3994.967,2,0.06,same
0,444,catch,"[(1175, 777)]",[],[1],[],vertical,"(390.0, 762.0)",1.7,nan,1,4000.278,2,0.06,same
0,445,valid,"[(1181, 803)]",[],[1],[0.85],vertical,"(890.0, 762.0)",0.4,nan,0,4005.633,0,0.06,same
0,446,valid,"[(1146, 795)]",[],[1],[0.55],horizontal,"(390.0, 762.0)",0.7666666666666666,0.512,1,4009.864,1,0.06,same
0,447,catch,"[(1180, 773)]",[],[1],[],horizontal,"(890.0, 262.0)",1.7,nan,1,4014.658,1,0.06,same
0,448,catch,"[(1176, 773)]",[],[1],[],horizontal,"(890.0, 262.0)",1.7,nan,1,4020.039,1,0.06,same
0,449,valid,"[(1175, 781)]",[],[1],[0.6166666666666667],horizontal,"(890.0, 762.0)",1.2166666666666666,0.573,1,4025.105,2,0.06,same
0,450,valid,"[(1180, 794)]",[],[1],[0.5],vertical,"(390.0, 262.0)",0.6166666666666667,0.458,1,4030.692,2,0.06,same
0,451,catch,"[(1175, 771)]",[],[1],[],horizontal,"(390.0, 262.0)",1.7,nan,1,4035.66,2,0.06,same
0,452,valid,"[(1172, 818)]",[],[1],[0.65],horizontal,"(890.0, 262.0)",1.1833333333333333,0.609,1,4041.133,3,0.06,same
0,453,valid,"[(1178, 786)]",[],[1],[0.55],horizontal,"(890.0, 262.0)",1.2166666666666666,0.511,1,4047.586,3,0.06,same
0,454,catch,"[(1211, 787)]",[],[1],[],horizontal,"(890.0, 762.0)",1.7,nan,1,4053.252,3,0.06,same
0,455,catch,"[(1175, 774)]",[],[1],[],vertical,"(890.0, 762.0)",1.7,nan,1,4059.468,3,0.06,same
0,456,valid,"[(1175, 790)]",[],[1],[0.7],vertical,"(390.0, 762.0)",0.9,0.653,1,4065.218,3,0.06,same
0,457,invalid_adjacent_other_bar,"[(1174, 786)]",[],[1],[0.55],horizontal,"(890.0, 762.0)",1.0833333333333333,0.509,1,4070.633,3,0.06,other
0,458,invalid_adjacent_other_bar,"[(1195, 801)]",[],[1],[0.5666666666666667],horizontal,"(890.0, 762.0)",1.0,0.522,1,4076.667,3,0.06,other
0,459,valid,"[(1207, 785)]",[],[1],[0.5833333333333334],vertical,"(390.0, 262.0)",1.3,0.541,1,4082.536,3,0.06,same
0,460,catch,"[(1180, 778)]",[],[1],[],vertical,"(890.0, 262.0)",1.7,nan,1,4088.733,3,0.04,same
0,461,valid,"[(1204, 785)]",[],[1],[0.55],horizontal,"(390.0, 762.0)",1.4,0.509,1,4094.479,3,0.04,same
0,462,valid,"[(1178, 775)]",[],[1],[0.5666666666666667],horizontal,"(890.0, 262.0)",0.7166666666666667,0.523,1,4100.505,3,0.04,same
0,463,catch,"[(1160, 780)]",[],[1],[],vertical,"(890.0, 762.0)",1.7,nan,1,4105.649,3,0.04,same
0,464,invalid_same_bar,"[(1175, 778)]",[],[1],[0.5166666666666666],vertical,"(890.0, 262.0)",0.9833333333333333,0.478,1,4111.749,3,0.04,same
0,465,catch,"[(1175, 777)]",[],[1],[],vertical,"(390.0, 762.0)",1.7,nan,1,4117.336,3,0.04,same
0,466,valid,"[(1183, 778)]",[],[1],[0.5333333333333333],horizontal,"(890.0, 262.0)",0.8166666666666667,0.492,1,4123.083,3,0.04,same
0,467,invalid_same_bar,"[(1190, 796)]",[],[1],[0.8166666666666667],vertical,"(390.0, 762.0)",1.05,0.774,1,4128.499,3,0.04,same
0,468,valid,"[(1177, 791)]",[],[1],[0.7166666666666667],horizontal,"(890.0, 262.0)",0.4666666666666667,0.676,1,4134.883,3,0.04,same
0,469,invalid_adjacent_other_bar,"[(1199, 780)]",[],[1],[0.4166666666666667],vertical,"(390.0, 262.0)",1.4833333333333334,0.384,1,4140.465,3,0.04,other
0,470,valid,"[(1178, 786)]",[],[1],[0.6],vertical,"(890.0, 262.0)",0.9333333333333333,0.555,1,4146.7,3,0.04,same
0,471,catch,"[(1173, 794)]",[],[1],[],vertical,"(390.0, 262.0)",,"('cti', 1.405),nan",0,4152.75,0,0.06,same
0,472,valid,"[(1154, 782)]",[],[1],[0.5166666666666666],vertical,"(390.0, 762.0)",1.5333333333333332,0.478,1,4157.299,1,0.04,same
0,473,catch,"[(1179, 787)]",[],[1],[],vertical,"(890.0, 762.0)",1.7,nan,1,4162.693,1,0.04,same
0,474,valid,"[(1178, 784)]",[],[1],[0.75],horizontal,"(890.0, 262.0)",0.9,0.707,1,4168.166,1,0.04,same
0,475,invalid_same_bar,"[(1185, 782)]",[],[1],[0.5666666666666667],vertical,"(890.0, 262.0)",0.7666666666666666,0.527,1,4173.284,2,0.04,same
0,476,valid,"[(1180, 799)]",[],[1],[0.85],horizontal,"(390.0, 262.0)",0.45,nan,0,4178.614,0,0.04,same
0,477,invalid_adjacent_other_bar,"[(1163, 783)]",[],[1],[0.5333333333333333],vertical,"(390.0, 262.0)",0.45,0.492,1,4182.785,1,0.04,other
0,478,valid,"[(1180, 798)]",[],[1],[0.6],horizontal,"(390.0, 262.0)",1.4166666666666667,0.561,1,4187.616,1,0.04,same
0,479,invalid_same_bar,"[(1195, 779)]",[],[1],[0.5833333333333334],horizontal,"(890.0, 262.0)",1.4666666666666666,0.541,1,4193.216,1,0.04,same
0,480,valid,"[(1195, 791)]",[],[1],[0.5833333333333334],horizontal,"(890.0, 262.0)",1.4666666666666666,0.544,1,4198.548,2,0.04,same
0,481,catch,"[(1177, 773)]",[],[1],[],vertical,"(890.0, 762.0)",1.7,nan,1,4204.634,2,0.04,same
0,482,invalid_adjacent_other_bar,"[(1171, 822)]",[],[1],[0.85],vertical,"(390.0, 262.0)",1.1166666666666667,nan,0,4209.883,0,0.04,other
0,483,valid,"[(1162, 777)]",[],[1],[0.4],vertical,"(390.0, 762.0)",1.4666666666666666,0.362,1,4215.134,1,0.04,same
0,484,valid,"[(1182, 778)]",[],[1],[0.5666666666666667],horizontal,"(890.0, 762.0)",0.4,0.533,1,4220.666,1,0.04,same
0,485,valid,"[(1200, 787)]",[],[1],[0.55],horizontal,"(890.0, 262.0)",1.1666666666666667,0.508,1,4224.922,1,0.04,same
0,486,valid,"[(1186, 790)]",[],[1],[0.55],vertical,"(390.0, 262.0)",0.8833333333333333,0.509,1,4229.983,2,0.04,same
0,487,invalid_adjacent_other_bar,"[(1185, 786)]",[],[1],[0.55],horizontal,"(390.0, 262.0)",1.15,0.524,1,4235.392,2,0.04,other
0,488,catch,"[(1181, 775)]",[],[1],[],horizontal,"(390.0, 762.0)",1.7,nan,1,4241.436,2,0.02,same
0,489,invalid_adjacent_other_bar,"[(1175, 795)]",[],[1],[0.6666666666666666],vertical,"(390.0, 262.0)",1.2833333333333332,0.631,1,4247.381,3,0.02,other
0,490,catch,"[(1180, 784)]",[],[1],[],horizontal,"(390.0, 262.0)",1.7,nan,1,4253.849,3,0.02,same
0,491,valid,"[(1195, 780)]",[],[1],[0.5333333333333333],horizontal,"(890.0, 762.0)",0.3833333333333333,0.494,1,4259.651,3,0.02,same
0,492,valid,"[(1165, 790)]",[],[1],[0.55],vertical,"(890.0, 762.0)",1.0166666666666666,0.511,1,4264.74,3,0.02,same
0,493,valid,"[(1179, 779)]",[],[1],[0.6],vertical,"(390.0, 762.0)",1.35,0.555,1,4270.5,3,0.02,same
0,494,valid,"[(1174, 791)]",[],[1],[0.5833333333333334],vertical,"(890.0, 762.0)",0.9666666666666667,0.544,1,4276.596,3,0.02,same
0,495,valid,"[(1175, 800)]",[],[1],[0.85],horizontal,"(890.0, 762.0)",0.48333333333333334,nan,0,4282.417,0,0.02,same
0,496,invalid_same_bar,"[(1165, 785)]",[],[1],[0.5333333333333333],vertical,"(890.0, 262.0)",0.43333333333333335,0.494,1,4287.184,1,0.02,same
0,497,valid,"[(1190, 777)]",[],[1],[0.5],vertical,"(890.0, 262.0)",1.4666666666666666,0.459,1,4291.566,1,0.02,same
0,498,catch,"[(1161, 785)]",[],[1],[],horizontal,"(390.0, 762.0)",1.7,nan,1,4297.316,1,0.02,same
0,499,valid,"[(1172, 769)]",[],[1],[0.6166666666666667],horizontal,"(890.0, 262.0)",0.85,0.576,1,4302.417,2,0.02,same
0,500,valid,"[(1177, 786)]",[],[1],[0.5333333333333333],horizontal,"(390.0, 762.0)",1.2,0.489,1,4307.937,2,0.02,same
0,501,valid,"[(1175, 776)]",[],[1],[0.85],vertical,"(890.0, 762.0)",0.6166666666666667,nan,0,4313.735,0,0.02,same
0,502,valid,"[(1160, 789)]",[],[1],[0.5833333333333334],horizontal,"(390.0, 762.0)",1.2166666666666666,0.537,1,4318.268,1,0.02,same
0,503,catch,"[(1182, 780)]",[],[1],[],vertical,"(390.0, 262.0)",1.7,nan,1,4323.4,1,0.02,same
0,504,valid,"[(1170, 776)]",[],[1],[0.5],horizontal,"(390.0, 762.0)",1.3666666666666667,0.458,1,4328.909,1,0.02,same
0,505,valid,"[(1160, 824)]",[],[1],[0.5166666666666666],vertical,"(890.0, 762.0)",0.8833333333333333,0.476,1,4334.443,2,0.02,same
0,506,invalid_adjacent_other_bar,"[(1179, 782)]",[],[1],[0.6166666666666667],horizontal,"(890.0, 262.0)",1.0166666666666666,0.576,1,4340.917,2,0.02,other
0,507,catch,"[(1180, 777)]",[],[1],[],vertical,"(390.0, 262.0)",1.7,nan,1,4346.65,2,0.02,same
0,508,valid,"[(1196, 789)]",[],[1],[0.55],horizontal,"(890.0, 262.0)",0.85,0.512,1,4352.401,3,0.02,same
0,509,valid,"[(1182, 776)]",[],[1],[0.5333333333333333],vertical,"(890.0, 262.0)",0.9833333333333333,0.489,1,4358.258,3,0.02,same
0,510,valid,"[(1178, 777)]",[],[1],[0.6166666666666667],horizontal,"(390.0, 762.0)",0.6333333333333333,0.58,1,4364.166,3,0.02,same
0,511,catch,"[(1179, 779)]",[],[1],[],horizontal,"(390.0, 762.0)",1.7,nan,1,4369.835,3,0.02,same
0,512,valid,"[(1173, 785)]",[],[1],[0.6166666666666667],horizontal,"(890.0, 762.0)",0.6666666666666666,0.572,1,4375.665,3,0.02,same
0,513,valid,"[(1178, 782)]",[],[1],[0.5333333333333333],vertical,"(890.0, 762.0)",1.0666666666666667,0.492,1,4380.91,3,0.02,same
0,514,valid,"[(1160, 756)]",[],[1],[0.85],vertical,"(890.0, 762.0)",1.2,nan,0,4386.601,0,0.02,same
0,515,valid,"[(1162, 789)]",[],[1],[0.5666666666666667],vertical,"(890.0, 762.0)",1.4166666666666667,0.52,1,4391.633,1,0.02,same
0,516,valid,"[(1180, 776)]",[],[1],[0.6666666666666666],vertical,"(890.0, 262.0)",0.5166666666666666,0.619,1,4396.81,1,0.02,same
0,517,invalid_same_bar,"[(1178, 772)]",[],[1],[0.4666666666666667],vertical,"(390.0, 262.0)",1.5,0.428,1,4401.735,1,0.02,same
0,518,invalid_adjacent_other_bar,"[(1178, 777)]",[],[1],[0.85],horizontal,"(390.0, 762.0)",0.45,nan,0,4407.167,0,0.02,other
0,519,valid,"[(1160, 764)]",[],[1],[0.48333333333333334],vertical,"(890.0, 262.0)",1.5333333333333332,0.447,1,4411.6,1,0.02,same
0,520,invalid_same_bar,"[(1210, 805)]",[],[1],[0.6166666666666667],horizontal,"(390.0, 762.0)",0.7666666666666666,0.576,1,4417.445,1,0.02,same
0,521,catch,"[(1183, 782)]",[],[1],[],horizontal,"(390.0, 262.0)",1.7,nan,1,4422.094,1,0.0,same
0,522,valid,"[(1186, 776)]",[],[1],[0.85],horizontal,"(390.0, 262.0)",1.2,nan,0,4427.545,0,0.0,same
0,523,catch,"[(1137, 827)]",[],[1],[],vertical,"(390.0, 262.0)",1.7,nan,1,4432.316,1,0.0,same
0,524,valid,"[(1165, 743), (1140, 820)]",[],"[0, 1]",[0.85],horizontal,"(890.0, 262.0)",1.0666666666666667,nan,0,4440.651,0,0.0,same
0,525,invalid_adjacent_other_bar,"[(1153, 786)]",[],[1],[0.55],horizontal,"(890.0, 262.0)",1.0333333333333332,0.507,1,4446.536,1,0.0,other
0,526,valid,"[(1204, 773)]",[],[1],[0.5166666666666666],vertical,"(890.0, 262.0)",1.1833333333333333,0.47,1,4451.9,1,0.0,same
0,527,catch,"[(1168, 761)]",[],[1],[],horizontal,"(890.0, 262.0)",1.7,nan,1,4456.91,1,0.0,same
0,528,catch,"[(1187, 769)]",[],[1],[],horizontal,"(390.0, 262.0)",1.7,nan,1,4462.266,2,0.0,same
0,529,invalid_adjacent_other_bar,"[(1176, 806)]",[],[1],[0.8333333333333334],horizontal,"(890.0, 262.0)",0.7666666666666666,0.787,1,4467.616,2,0.0,other
0,530,valid,"[(1174, 779)]",[],[1],[0.55],horizontal,"(390.0, 262.0)",0.7333333333333333,0.508,1,4473.381,2,0.0,same
0,531,invalid_same_bar,"[(1208, 784)]",[],[1],[0.55],vertical,"(890.0, 762.0)",0.36666666666666664,0.502,1,4478.715,3,0.0,same
0,532,invalid_adjacent_other_bar,"[(1115, 821)]",[],[1],[0.6666666666666666],vertical,"(390.0, 262.0)",0.9333333333333333,0.629,1,4484.017,3,0.0,other
0,533,valid,"[(1195, 795)]",[],[1],[0.75],vertical,"(390.0, 762.0)",1.0,0.702,1,4491.65,3,0.0,same
0,534,valid,"[(1180, 796)]",[],[1],[0.5166666666666666],vertical,"(890.0, 262.0)",0.5666666666666667,0.474,1,4497.531,3,0.0,same
0,535,valid,"[(1169, 781)]",[],[1],[0.36666666666666664],horizontal,"(890.0, 262.0)",1.4666666666666666,0.326,1,4503.015,3,0.0,same
0,536,valid,"[(1171, 750), (1138, 816)]",[],"[0, 1]",[0.55],horizontal,"(390.0, 262.0)",0.48333333333333334,0.509,1,4508.933,3,0.0,same
0,537,catch,"[(1182, 779)]",[],[1],[],horizontal,"(390.0, 262.0)",1.7,nan,1,4515.198,3,0.0,same
0,538,valid,"[(1185, 774)]",[],[1],[0.7166666666666667],horizontal,"(890.0, 762.0)",1.2166666666666666,0.671,1,4521.334,3,0.0,same
0,539,valid,"[(1175, 778)]",[],[1],[0.85],vertical,"(390.0, 762.0)",1.0666666666666667,nan,0,4527.773,0,0.0,same
0,540,catch,"[(1150, 773)]",[],[1],[],vertical,"(890.0, 262.0)",1.7,nan,1,4532.338,1,0.0,same
0,541,valid,"[(1170, 773)]",[],[1],[0.4666666666666667],vertical,"(890.0, 262.0)",1.4833333333333334,0.431,1,4537.666,1,0.0,same
0,542,invalid_same_bar,"[(1173, 778)]",[],[1],[0.85],horizontal,"(390.0, 762.0)",1.2666666666666666,nan,0,4543.24,0,0.0,same
0,543,valid,"[(1175, 806)]",[],[1],[0.5666666666666667],horizontal,"(890.0, 762.0)",1.3,0.524,1,4548.233,1,0.0,same
0,544,valid,"[(1205, 784)]",[],[1],[0.5166666666666666],horizontal,"(390.0, 262.0)",0.55,0.475,1,4553.344,1,0.0,same
0,545,valid,"[(1180, 779)]",[],[1],[0.55],vertical,"(890.0, 762.0)",1.3,0.508,1,4557.616,1,0.0,same
0,546,catch,"[(1180, 776)]",[],[1],[],vertical,"(890.0, 762.0)",1.7,nan,1,4563.254,2,0.0,same
0,547,valid,"[(1172, 770)]",[],[1],[0.55],vertical,"(890.0, 262.0)",1.1166666666666667,0.51,1,4569.39,2,0.0,same
0,548,catch,"[(1175, 779)]",[],[1],[],vertical,"(390.0, 262.0)",1.7,nan,1,4574.744,2,0.0,same
0,549,valid,"[(1171, 795)]",[],[1],[0.5833333333333334],vertical,"(890.0, 762.0)",0.8333333333333334,0.544,1,4580.686,3,0.0,same
0,550,valid,"[(1188, 788)]",[],[1],[0.6666666666666666],horizontal,"(390.0, 762.0)",1.2166666666666666,0.626,1,4586.63,3,0.0,same
0,551,valid,"[(1175, 781)]",[],[1],[0.6],vertical,"(390.0, 762.0)",0.7333333333333333,0.557,1,4592.976,3,0.0,same
0,552,catch,"[(1174, 782)]",[],[1],[],horizontal,"(890.0, 762.0)",1.7,nan,1,4598.634,3,0.0,same
0,553,valid,"[(1175, 782)]",[],[1],[0.6166666666666667],vertical,"(890.0, 762.0)",0.7166666666666667,0.571,1,4604.649,3,0.0,same
0,554,valid,"[(1201, 789)]",[],[1],[0.6333333333333333],vertical,"(890.0, 262.0)",0.7333333333333333,0.59,1,4610.2,3,0.0,same
0,555,valid,"[(1174, 796)]",[],[1],[0.5333333333333333],vertical,"(890.0, 762.0)",0.6833333333333333,0.494,1,4615.783,3,0.0,same
0,556,valid,"[(1200, 820)]",[],[1],[0.85],vertical,"(890.0, 262.0)",0.7333333333333333,nan,0,4621.783,0,0.0,same
0,557,valid,"[(1150, 778)]",[],[1],[0.85],horizontal,"(890.0, 762.0)",0.75,nan,0,4626.43,0,0.0,same
0,558,catch,"[(1175, 790)]",[],[1],[],vertical,"(890.0, 262.0)",1.7,nan,1,4631.286,1,0.0,same
0,559,catch,"[(1180, 778)]",[],[1],[],vertical,"(390.0, 762.0)",1.7,nan,1,4636.306,1,0.0,same
0,560,valid,"[(1174, 760)]",[],[1],[0.65],horizontal,"(890.0, 262.0)",1.1,0.604,1,4641.584,1,0.0,same
0,561,valid,"[(1180, 795)]",[],[1],[0.6333333333333333],vertical,"(390.0, 262.0)",0.55,0.594,1,4646.762,2,0.0,same
0,562,catch,"[(1206, 782)]",[],[1],[],horizontal,"(890.0, 262.0)",1.7,nan,1,4652.016,2,0.0,same
0,563,invalid_same_bar,"[(1179, 762)]",[],[1],[0.55],vertical,"(890.0, 262.0)",0.6833333333333333,0.517,1,4657.526,2,0.0,same
0,564,valid,"[(1157, 785)]",[],[1],[0.5666666666666667],horizontal,"(390.0, 262.0)",0.5333333333333333,0.526,1,4662.599,3,0.0,same
0,565,valid,"[(1180, 783)]",[],[1],[0.5166666666666666],horizontal,"(390.0, 762.0)",1.25,0.478,1,4668.467,3,0.0,same
0,566,valid,"[(1211, 810)]",[],[1],[0.5833333333333334],vertical,"(890.0, 262.0)",1.3833333333333333,0.544,1,4674.322,3,0.0,same
0,567,catch,"[(1190, 781)]",[],[1],[],vertical,"(890.0, 262.0)",1.7,nan,1,4680.3,3,0.0,same
0,568,valid,"[(1175, 798)]",[],[1],[0.18333333333333332],horizontal,"(390.0, 762.0)",1.15,0.15,0,4686.7,0,0.0,same
0,569,valid,"[(1140, 775)]",[],[1],[0.5333333333333333],horizontal,"(890.0, 262.0)",0.35,0.495,1,4690.791,1,0.0,same
0,570,valid,"[(1175, 781)]",[],[1],[0.5666666666666667],vertical,"(890.0, 262.0)",1.2833333333333332,0.524,1,4695.467,1,0.0,same
0,571,valid,"[(1170, 773)]",[],[1],[0.6333333333333333],vertical,"(390.0, 262.0)",0.7833333333333333,0.59,1,4700.576,1,0.0,same
0,572,valid,"[(1175, 776)]",[],[1],[0.5833333333333334],vertical,"(390.0, 762.0)",0.5166666666666666,0.539,1,4705.325,2,0.0,same
0,573,valid,"[(1195, 785)]",[],[1],[0.6166666666666667],vertical,"(890.0, 262.0)",0.7333333333333333,0.578,1,4710.447,2,0.0,same
0,574,catch,"[(1176, 811)]",[],[1],[],horizontal,"(890.0, 262.0)",1.7,nan,1,4715.851,2,0.0,same
0,575,valid,"[(1170, 807)]",[],[1],[0.55],vertical,"(890.0, 262.0)",0.9666666666666667,0.507,1,4721.885,3,0.0,same
0,576,catch,"[(1178, 770)]",[],[1],[],vertical,"(890.0, 762.0)",1.7,nan,1,4727.785,3,0.0,same
0,577,catch,"[(1180, 774)]",[],[1],[0.03333333333333333],vertical,"(890.0, 262.0)",1.7,"0.019,nan",0,4733.65,0,0.02,same
0,578,catch,"[(1174, 781)]",[],[1],[],horizontal,"(890.0, 262.0)",1.7,nan,1,4738.351,1,0.02,same
0,579,valid,"[(1182, 787)]",[],[1],[0.85],horizontal,"(390.0, 262.0)",0.35,nan,0,4743.852,0,0.02,same
0,580,valid,"[(1158, 773)]",[],[1],[0.5333333333333333],horizontal,"(390.0, 762.0)",0.8833333333333333,0.496,1,4747.882,1,0.02,same
0,581,valid,"[(1165, 809)]",[],[1],[0.6],horizontal,"(890.0, 262.0)",0.5666666666666667,0.558,1,4752.976,1,0.02,same
0,582,valid,"[(1175, 779)]",[],[1],[0.5166666666666666],vertical,"(890.0, 762.0)",1.2666666666666666,0.478,1,4757.538,1,0.02,same
0,583,valid,"[(1179, 791)]",[],[1],[0.55],vertical,"(890.0, 762.0)",1.1666666666666667,0.509,1,4762.782,2,0.02,same
0,584,valid,"[(1176, 790)]",[],[1],[0.6166666666666667],vertical,"(390.0, 262.0)",0.85,0.581,1,4768.635,2,0.02,same
0,585,valid,"[(1150, 801)]",[],[1],[0.85],vertical,"(890.0, 762.0)",0.5333333333333333,nan,0,4773.854,0,0.02,same
0,586,valid,"[(1152, 782)]",[],[1],[0.5333333333333333],vertical,"(390.0, 762.0)",0.6666666666666666,0.498,1,4778.499,1,0.02,same
0,587,catch,"[(1206, 782)]",[],[1],[],vertical,"(890.0, 762.0)",1.7,nan,1,4783.251,1,0.02,same
0,588,catch,"[(1188, 802)]",[],[1],[],vertical,"(390.0, 762.0)",1.7,nan,1,4788.212,1,0.02,same
0,589,invalid_same_bar,"[(1178, 776)]",[],[1],[0.7166666666666667],horizontal,"(890.0, 762.0)",0.9833333333333333,0.668,1,4793.268,2,0.02,same
0,590,valid,"[(1210, 811)]",[],[1],[0.5166666666666666],horizontal,"(890.0, 262.0)",0.5666666666666667,0.472,1,4798.8,2,0.02,same
0,591,catch,"[(1180, 785)]",[],[1],[],vertical,"(890.0, 262.0)",1.7,nan,1,4803.64,2,0.02,same
0,592,valid,"[(1185, 775)]",[],[1],[0.85],horizontal,"(890.0, 762.0)",0.6833333333333333,nan,0,4809.468,0,0.02,same
0,593,valid,"[(1155, 786)]",[],[1],[0.85],vertical,"(390.0, 762.0)",0.55,nan,0,4813.749,0,0.02,same
0,594,invalid_same_bar,"[(1142, 782)]",[],[1],[0.65],horizontal,"(390.0, 262.0)",0.85,0.607,1,4818.301,1,0.02,same
0,595,valid,"[(1140, 790)]",[],[1],[0.6666666666666666],horizontal,"(890.0, 762.0)",0.4,0.616,1,4823.285,1,0.02,same
0,596,valid,"[(1178, 808)]",[],[1],[0.5833333333333334],vertical,"(890.0, 762.0)",0.6,0.542,1,4827.599,1,0.02,same
0,597,valid,"[(1180, 790)]",[],[1],[0.85],horizontal,"(390.0, 762.0)",0.9,nan,0,4831.818,0,0.02,same
0,598,valid,"[(1182, 775)]",[],[1],[0.85],horizontal,"(390.0, 762.0)",0.9833333333333333,nan,0,4836.579,0,0.02,same
0,599,catch,"[(1150, 787)]",[],[1],[0.03333333333333333],horizontal,"(890.0, 762.0)",1.7,"0.019,nan",0,4841.346,0,0.04,same
0,600,invalid_same_bar,"[(1162, 754)]",[],[1],[0.65],horizontal,"(390.0, 762.0)",1.2166666666666666,0.603,1,4846.135,1,0.04,same
0,601,valid,"[(1180, 781)]",[],[1],[0.3833333333333333],horizontal,"(390.0, 762.0)",1.2333333333333334,0.341,1,4851.658,1,0.04,same
0,602,catch,"[(1182, 782)]",[],[1],[],vertical,"(890.0, 262.0)",1.7,nan,1,4856.674,1,0.04,same
0,603,catch,"[(1179, 772)]",[],[1],[],horizontal,"(890.0, 262.0)",1.7,nan,1,4861.896,2,0.04,same
0,604,valid,"[(1205, 783)]",[],[1],[0.85],vertical,"(890.0, 262.0)",0.6166666666666667,nan,0,4867.541,0,0.04,same
0,605,valid,"[(1170, 788)]",[],[1],[0.7666666666666666],horizontal,"(390.0, 762.0)",0.7166666666666667,0.715,1,4872.083,1,0.04,same
0,606,valid,"[(1205, 761)]",[],[1],[0.5666666666666667],horizontal,"(390.0, 762.0)",1.3,0.525,1,4877.154,1,0.04,same
0,607,catch,"[(1178, 782)]",[],[1],[],horizontal,"(390.0, 262.0)",1.7,nan,1,4882.233,1,0.04,same
0,608,valid,"[(1179, 773)]",[],[1],[0.7],horizontal,"(890.0, 762.0)",0.3833333333333333,0.654,1,4887.234,2,0.04,same
0,609,valid,"[(1175, 791)]",[],[1],[0.7],horizontal,"(890.0, 762.0)",0.35,0.657,1,4892.367,2,0.04,same
0,610,valid,"[(1184, 793)]",[],[1],[0.5833333333333334],horizontal,"(390.0, 762.0)",1.5,0.538,1,4897.037,2,0.04,same
0,611,valid,"[(1202, 791)]",[],[1],[0.48333333333333334],vertical,"(890.0, 762.0)",1.3,0.441,1,4902.69,3,0.04,same
0,612,valid,"[(1190, 789)]",[],[1],[0.5666666666666667],horizontal,"(390.0, 262.0)",0.8833333333333333,0.521,1,4909.0,3,0.04,same
0,613,valid,"[(1180, 779)]",[],[1],[0.6],vertical,"(390.0, 762.0)",1.1333333333333333,0.554,1,4914.269,3,0.04,same
0,614,valid,"[(1191, 793)]",[],[1],[0.5833333333333334],vertical,"(890.0, 762.0)",1.3333333333333333,0.541,1,4920.523,3,0.04,same
0,615,valid,"[(1178, 765)]",[],[1],[0.4],horizontal,"(390.0, 262.0)",1.15,0.362,1,4926.751,3,0.04,same
0,616,valid,"[(1178, 785)]",[],[1],[0.7],horizontal,"(890.0, 262.0)",0.4,0.652,1,4932.705,3,0.04,same
0,617,valid,"[(1170, 786)]",[],[1],[0.85],horizontal,"(390.0, 762.0)",0.36666666666666664,nan,0,4938.34,0,0.04,same
0,618,catch,"[(1146, 789)]",[],[1],[],horizontal,"(890.0, 262.0)",1.7,nan,1,4942.257,1,0.04,same
0,619,invalid_adjacent_other_bar,"[(1204, 786)]",[],[1],[],horizontal,"(890.0, 262.0)",,"('fix', 0.134)",0,4947.117,0,0.04,other
0,620,valid,"[(1135, 821)]",[],[1],[0.6],horizontal,"(890.0, 762.0)",1.5,0.558,1,4948.634,1,0.04,same
0,621,catch,"[(1195, 776)]",[],[1],[],horizontal,"(890.0, 762.0)",1.7,nan,1,4954.39,1,0.04,same
0,622,catch,"[(1185, 800)]",[],[1],[],horizontal,"(390.0, 262.0)",,"('cti', 1.66),nan",0,4959.317,0,0.06,same
0,623,valid,"[(1137, 831)]",[],[1],[0.6166666666666667],vertical,"(390.0, 762.0)",0.9333333333333333,0.579,1,4964.118,1,0.06,same
0,624,catch,"[(1170, 806)]",[],[1],[],horizontal,"(390.0, 262.0)",1.7,nan,1,4976.035,1,0.06,same
0,625,valid,"[(1153, 819)]",[],[1],[0.45],vertical,"(890.0, 262.0)",1.45,0.41,1,4981.478,1,0.06,same
0,626,catch,"[(1178, 802)]",[],[1],[],vertical,"(890.0, 262.0)",1.7,nan,1,4988.019,2,0.06,same
0,627,valid,"[(1178, 808)]",[],[1],[0.7166666666666667],vertical,"(390.0, 762.0)",1.0833333333333333,0.677,1,4993.696,2,0.04,same
0,628,invalid_same_bar,"[(1175, 777)]",[],[1],[0.45],horizontal,"(890.0, 262.0)",1.4833333333333334,0.407,1,4999.172,2,0.04,same
0,629,valid,"[(1164, 794)]",[],[1],[0.5166666666666666],vertical,"(890.0, 762.0)",0.9833333333333333,0.476,1,5005.078,3,0.04,same
0,630,invalid_same_bar,"[(1176, 802)]",[],[1],[0.5166666666666666],vertical,"(390.0, 762.0)",0.7333333333333333,0.476,1,5010.834,3,0.04,same
0,631,valid,"[(1210, 793)]",[],[1],[0.85],vertical,"(390.0, 262.0)",0.7166666666666667,nan,0,5016.151,0,0.04,same
0,632,valid,"[(1144, 775)]",[],[1],[0.85],horizontal,"(890.0, 262.0)",0.6166666666666667,nan,0,5020.768,0,0.04,same
0,633,catch,"[(1143, 821)]",[],[1],[],vertical,"(890.0, 762.0)",,"('cti', 1.266),nan",0,5025.566,0,0.06,same
0,634,valid,"[(1116, 826)]",[],[1],[0.85],horizontal,"(390.0, 262.0)",1.3666666666666667,nan,0,5029.972,0,0.06,same
0,635,valid,"[(1163, 789)]",[],[1],[0.48333333333333334],horizontal,"(890.0, 262.0)",0.8833333333333333,0.444,1,5035.585,1,0.06,same
0,636,catch,"[(1201, 791)]",[],[1],[],vertical,"(390.0, 762.0)",1.7,nan,1,5040.767,1,0.06,same
0,637,valid,"[(1175, 816)]",[],[1],[0.48333333333333334],horizontal,"(390.0, 762.0)",0.8666666666666667,0.452,1,5046.152,1,0.06,same
0,638,catch,"[(1208, 820)]",[],[1],[],vertical,"(890.0, 262.0)",,"('cti', 1.681),nan",0,5050.767,0,0.08,same
0,639,valid,"[(1204, 788)]",[],[1],[0.55],vertical,"(390.0, 762.0)",0.4666666666666667,0.504,1,5055.631,1,0.08,same
0,640,valid,"[(1181, 810)]",[],[1],[0.5166666666666666],horizontal,"(890.0, 762.0)",0.6166666666666667,0.48,1,5060.017,1,0.08,same
0,641,valid,"[(1170, 794)]",[],[1],[0.6666666666666666],vertical,"(390.0, 762.0)",1.2166666666666666,0.622,1,5064.405,1,0.08,same
0,642,invalid_adjacent_other_bar,"[(1180, 779)]",[],[1],[0.5833333333333334],horizontal,"(890.0, 762.0)",1.0,0.542,1,5069.533,2,0.08,other
0,643,valid,"[(1180, 789)]",[],[1],[0.6],horizontal,"(390.0, 762.0)",0.5666666666666667,0.558,1,5074.864,2,0.08,same
0,644,valid,"[(1180, 796)]",[],[1],[0.6],vertical,"(890.0, 262.0)",1.2333333333333334,0.558,1,5080.001,2,0.08,same
0,645,valid,"[(1175, 784)]",[],[1],[0.55],horizontal,"(890.0, 762.0)",1.35,0.502,1,5085.769,3,0.08,same
0,646,invalid_same_bar,"[(1185, 773)]",[],[1],[0.4666666666666667],horizontal,"(890.0, 262.0)",1.4,0.423,1,5092.418,3,0.08,same
0,647,valid,"[(1179, 778)]",[],[1],[0.55],horizontal,"(890.0, 262.0)",0.9166666666666666,0.512,1,5098.545,3,0.08,same
0,648,catch,"[(1161, 817)]",[],[1],[],vertical,"(890.0, 262.0)",1.7,nan,1,5104.047,3,0.08,same
0,649,valid,"[(1170, 782)]",[],[1],[0.5166666666666666],vertical,"(890.0, 262.0)",0.7333333333333333,0.479,1,5110.083,3,0.06,same
0,650,valid,"[(1193, 776)]",[],[1],[0.6],horizontal,"(890.0, 762.0)",0.9166666666666666,0.555,1,5115.797,3,0.06,same
0,651,invalid_adjacent_other_bar,"[(1165, 760)]",[],[1],[0.5833333333333334],vertical,"(890.0, 762.0)",0.55,0.55,1,5121.718,3,0.06,other
0,652,valid,"[(1175, 785)]",[],[1],[0.65],vertical,"(390.0, 762.0)",0.4166666666666667,0.609,1,5126.885,3,0.06,same
0,653,valid,"[(1140, 794)]",[],[1],[0.5166666666666666],horizontal,"(890.0, 762.0)",0.7666666666666666,0.479,1,5132.268,3,0.06,same
0,654,valid,"[(1174, 784)]",[],[1],[0.85],vertical,"(890.0, 762.0)",0.65,nan,0,5138.149,0,0.06,same
0,655,invalid_same_bar,"[(1142, 768)]",[],[1],[],vertical,"(390.0, 762.0)",,"('cti', 0.953)",0,5142.753,0,0.06,same
0,656,catch,"[(1107, 837)]",[],[1],[],horizontal,"(390.0, 762.0)",1.7,nan,1,5147.134,1,0.06,same
0,657,invalid_adjacent_other_bar,"[(1183, 798)]",[],[1],[0.85],horizontal,"(390.0, 262.0)",1.2333333333333334,nan,0,5821.624,0,0.06,other
0,658,valid,"[(1140, 802)]",[],[1],[0.5166666666666666],vertical,"(390.0, 262.0)",0.9666666666666667,0.474,1,5826.915,1,0.06,same
0,659,valid,"[(1173, 801)]",[],[1],[0.3833333333333333],horizontal,"(390.0, 262.0)",1.5166666666666666,0.343,1,5832.119,1,0.06,same
0,660,catch,"[(1173, 792)]",[],[1],[],vertical,"(390.0, 762.0)",1.7,nan,1,5837.619,1,0.06,same
0,661,invalid_adjacent_other_bar,"[(1177, 785)]",[],[1],[0.6333333333333333],horizontal,"(390.0, 262.0)",1.3166666666666667,0.584,1,5842.935,2,0.06,other
0,662,valid,"[(1170, 800)]",[],[1],[0.48333333333333334],horizontal,"(890.0, 262.0)",1.5333333333333332,0.445,1,5848.848,2,0.06,same
0,663,valid,"[(1185, 799)]",[],[1],[0.6166666666666667],vertical,"(390.0, 262.0)",0.9166666666666666,0.59,1,5854.653,2,0.06,same
0,664,valid,"[(1170, 791)]",[],[1],[0.5166666666666666],vertical,"(890.0, 762.0)",0.8166666666666667,0.478,1,5860.518,3,0.06,same
0,665,valid,"[(1175, 796)]",[],[1],[0.5333333333333333],vertical,"(890.0, 262.0)",1.2166666666666666,0.493,1,5866.146,3,0.06,same
0,666,valid,"[(1200, 795)]",[],[1],[0.55],vertical,"(390.0, 262.0)",0.9666666666666667,0.511,1,5872.297,3,0.06,same
0,667,valid,"[(1175, 779)]",[],[1],[0.55],horizontal,"(890.0, 262.0)",1.1333333333333333,0.515,1,5878.027,3,0.06,same
0,668,invalid_same_bar,"[(1176, 786)]",[],[1],[0.5333333333333333],horizontal,"(390.0, 262.0)",1.15,0.492,1,5883.584,3,0.06,same
0,669,valid,"[(1202, 782)]",[],[1],[0.5333333333333333],horizontal,"(890.0, 762.0)",1.5,0.49,1,5889.582,3,0.06,same
0,670,catch,"[(1176, 778)]",[],[1],[],horizontal,"(890.0, 762.0)",1.7,nan,1,5895.969,3,0.06,same
0,671,valid,"[(1198, 798)]",[],[1],[0.5],horizontal,"(390.0, 762.0)",0.5333333333333333,0.463,1,5901.625,3,0.06,same
0,672,valid,"[(1182, 766)]",[],[1],[0.55],vertical,"(390.0, 262.0)",0.36666666666666664,0.508,1,5906.628,3,0.04,same
0,673,catch,"[(1184, 779)]",[],[1],[],horizontal,"(390.0, 262.0)",1.7,nan,1,5911.652,3,0.04,same
0,674,invalid_adjacent_other_bar,"[(1197, 783)]",[],[1],[0.85],vertical,"(390.0, 762.0)",0.6666666666666666,nan,0,5917.312,0,0.04,other
0,675,valid,"[(1155, 778)]",[],[1],[0.85],vertical,"(390.0, 762.0)",0.8666666666666667,nan,0,5921.994,0,0.04,same
0,676,catch,"[(1148, 773)]",[],[1],[],horizontal,"(890.0, 762.0)",1.7,nan,1,5926.752,1,0.04,same
0,677,valid,"[(1179, 768)]",[],[1],[0.06666666666666667],vertical,"(890.0, 762.0)",1.4833333333333334,0.036,0,5931.896,0,0.04,same
0,678,invalid_adjacent_other_bar,"[(1135, 793)]",[],[1],[0.5],horizontal,"(390.0, 762.0)",1.0333333333333332,0.46,1,5936.606,1,0.04,other
0,679,valid,"[(1159, 812)]",[],[1],[0.65],vertical,"(390.0, 262.0)",1.1,0.608,1,5941.903,1,0.04,same
0,680,valid,"[(1188, 776)]",[],[1],[0.6166666666666667],horizontal,"(390.0, 262.0)",1.0166666666666666,0.573,1,5947.043,1,0.04,same
0,681,valid,"[(1204, 796)]",[],[1],[0.5],vertical,"(890.0, 762.0)",1.2333333333333334,0.458,1,5951.862,2,0.04,same
0,682,valid,"[(1190, 788)]",[],[1],[0.5333333333333333],vertical,"(390.0, 762.0)",0.8333333333333334,0.495,1,5957.873,2,0.04,same
0,683,invalid_adjacent_other_bar,"[(1200, 798)]",[],[1],[0.6666666666666666],horizontal,"(890.0, 262.0)",1.2,0.628,1,5963.157,2,0.02,other
0,684,valid,"[(1174, 811)]",[],[1],[0.5666666666666667],vertical,"(390.0, 762.0)",1.0333333333333332,0.527,1,5968.815,3,0.02,same
0,685,catch,"[(1179, 795)]",[],[1],[],vertical,"(390.0, 262.0)",1.7,nan,1,5975.687,3,0.02,same
0,686,valid,"[(1175, 791)]",[],[1],[0.5666666666666667],horizontal,"(390.0, 262.0)",0.9,0.525,1,5981.822,3,0.02,same
0,687,valid,"[(1195, 794)]",[],[1],[0.6],horizontal,"(390.0, 762.0)",1.0166666666666666,0.567,1,5987.57,3,0.02,same
0,688,valid,"[(1167, 790)]",[],[1],[0.6166666666666667],vertical,"(390.0, 762.0)",1.2,0.572,1,5993.274,3,0.0,same
0,689,valid,"[(1180, 769)]",[],[1],[0.5166666666666666],horizontal,"(390.0, 262.0)",1.4833333333333334,0.477,1,5999.481,3,0.0,same
0,690,valid,"[(1180, 772)]",[],[1],[0.85],horizontal,"(890.0, 762.0)",1.2333333333333334,nan,0,6005.596,0,0.0,same
0,691,invalid_same_bar,"[(1175, 781)]",[],[1],[0.85],vertical,"(390.0, 262.0)",0.8,nan,0,6010.287,0,0.0,same
0,692,invalid_same_bar,"[(1175, 762)]",[],[1],[0.55],horizontal,"(390.0, 762.0)",1.5333333333333332,0.503,1,6014.861,1,0.0,same
0,693,valid,"[(1190, 788)]",[],[1],[0.8333333333333334],horizontal,"(890.0, 762.0)",0.7166666666666667,0.789,1,6020.293,1,0.0,same
0,694,valid,"[(1198, 786)]",[],[1],[0.85],vertical,"(890.0, 262.0)",1.05,nan,0,6025.306,0,0.0,same
0,695,valid,"[(1175, 796)]",[],[1],[0.55],vertical,"(390.0, 262.0)",0.5,0.507,1,6030.403,1,0.0,same
0,696,catch,"[(1180, 759)]",[],[1],[],horizontal,"(390.0, 762.0)",1.7,nan,1,6034.663,1,0.0,same
0,697,valid,"[(1175, 787)]",[],[1],[0.5833333333333334],horizontal,"(390.0, 262.0)",0.4,0.54,1,6039.586,1,0.0,same
0,698,valid,"[(1204, 775)]",[],[1],[0.5666666666666667],horizontal,"(390.0, 262.0)",0.8,0.529,1,6044.432,2,0.0,same
0,699,invalid_adjacent_other_bar,"[(1181, 772)]",[],[1],[0.85],horizontal,"(390.0, 262.0)",1.35,nan,0,6050.086,0,0.0,other
0,700,valid,"[(1160, 792)]",[],[1],[0.6333333333333333],vertical,"(890.0, 262.0)",0.6833333333333333,0.589,1,6054.919,1,0.0,same
0,701,valid,"[(1174, 761)]",[],[1],[0.55],vertical,"(890.0, 762.0)",0.5333333333333333,0.511,1,6060.07,1,0.0,same
0,702,valid,"[(1180, 772)]",[],[1],[0.85],horizontal,"(890.0, 262.0)",1.0666666666666667,nan,0,6064.232,0,0.0,same
0,703,catch,"[(1168, 786)]",[],[1],[],horizontal,"(890.0, 262.0)",1.7,nan,1,6069.128,1,0.0,same
0,704,catch,"[(1204, 803)]",[],[1],[],vertical,"(890.0, 262.0)",1.7,nan,1,6074.549,1,0.0,same
0,705,valid,"[(1186, 789)]",[],[1],[0.5666666666666667],vertical,"(390.0, 762.0)",1.1833333333333333,0.52,1,6080.051,1,0.0,same
0,706,catch,"[(1180, 783)]",[],[1],[],horizontal,"(890.0, 762.0)",1.7,nan,1,6085.058,2,0.0,same
0,707,valid,"[(1198, 796)]",[],[1],[0.6333333333333333],horizontal,"(890.0, 262.0)",0.45,0.589,1,6090.397,2,0.0,same
0,708,valid,"[(1175, 787)]",[],[1],[0.48333333333333334],vertical,"(390.0, 762.0)",1.45,0.458,1,6095.287,2,0.0,same
0,709,invalid_adjacent_other_bar,"[(1181, 786)]",[],[1],[0.65],vertical,"(890.0, 262.0)",1.1666666666666667,0.609,1,6101.12,3,0.0,other
0,710,valid,"[(1199, 803)]",[],[1],[0.5333333333333333],vertical,"(890.0, 762.0)",1.1,0.491,1,6106.902,3,0.0,same
0,711,valid,"[(1175, 796)]",[],[1],[0.7666666666666666],horizontal,"(890.0, 762.0)",1.2,0.726,1,6112.899,3,0.0,same
0,712,catch,"[(1171, 779)]",[],[1],[],horizontal,"(890.0, 262.0)",1.7,nan,1,6119.304,3,0.0,same
0,713,valid,"[(1168, 778)]",[],[1],[0.7166666666666667],vertical,"(390.0, 762.0)",1.2166666666666666,0.677,1,6125.419,3,0.0,same
0,714,valid,"[(1206, 804)]",[],[1],[0.7666666666666666],horizontal,"(890.0, 762.0)",0.7666666666666666,0.724,1,6131.42,3,0.0,same
0,715,valid,"[(1179, 798)]",[],[1],[0.7333333333333333],horizontal,"(890.0, 762.0)",0.6666666666666666,0.691,1,6137.181,3,0.0,same
0,716,valid,"[(1173, 791)]",[],[1],[0.75],vertical,"(390.0, 262.0)",1.05,0.707,1,6142.637,3,0.0,same
0,717,catch,"[(1205, 783)]",[],[1],[],horizontal,"(390.0, 262.0)",1.7,nan,1,6148.871,3,0.0,same
0,718,catch,"[(1190, 774)]",[],[1],[],vertical,"(890.0, 262.0)",1.7,nan,1,6154.903,3,0.0,same
0,719,valid,"[(1196, 794)]",[],[1],[0.5166666666666666],horizontal,"(890.0, 262.0)",0.4666666666666667,0.475,1,6160.555,3,0.0,same
0,720,catch,"[(1178, 767)]",[],[1],[],vertical,"(890.0, 262.0)",1.7,nan,1,6165.552,3,0.0,same
0,721,valid,"[(1176, 778)]",[],[1],[0.6166666666666667],horizontal,"(890.0, 262.0)",1.4833333333333334,0.576,1,6171.487,3,0.0,same
0,722,valid,"[(1175, 794)]",[],[1],[0.5666666666666667],horizontal,"(390.0, 762.0)",0.5,0.522,1,6177.681,3,0.0,same
0,723,valid,"[(1177, 791)]",[],[1],[0.7],horizontal,"(890.0, 262.0)",0.5,0.656,1,6182.919,3,0.0,same
0,724,valid,"[(1161, 782)]",[],[1],[0.5666666666666667],vertical,"(890.0, 762.0)",0.65,0.521,1,6188.391,3,0.0,same
0,725,valid,"[(1087, 803)]",[],[1],[0.5833333333333334],vertical,"(390.0, 762.0)",0.9666666666666667,0.548,1,6194.136,3,0.0,same
0,726,valid,"[(1162, 778)]",[],[1],[0.35],vertical,"(390.0, 762.0)",1.4666666666666666,0.314,1,6200.219,3,0.0,same
0,727,valid,"[(1135, 825)]",[],[1],[0.5666666666666667],horizontal,"(890.0, 762.0)",0.8833333333333333,0.522,1,6206.914,3,0.0,same
0,728,invalid_adjacent_other_bar,"[(1180, 798)]",[],[1],[0.85],vertical,"(390.0, 762.0)",1.1,nan,0,6213.978,0,0.0,other
0,729,invalid_adjacent_other_bar,"[(1157, 779)]",[],[1],[0.85],vertical,"(390.0, 762.0)",0.9,nan,0,6219.229,0,0.0,other
0,730,valid,"[(1155, 781)]",[],[1],[0.5833333333333334],horizontal,"(890.0, 262.0)",0.7666666666666666,0.54,1,6223.789,1,0.0,same
0,731,valid,"[(1159, 792)]",[],[1],[0.55],vertical,"(390.0, 262.0)",0.5,0.508,1,6228.687,1,0.0,same
0,732,valid,"[(1180, 778)]",[],[1],[0.55],horizontal,"(390.0, 262.0)",0.43333333333333335,0.506,1,6233.057,1,0.0,same
0,733,catch,"[(1180, 768)]",[],[1],[],vertical,"(890.0, 262.0)",1.7,nan,1,6237.369,2,0.0,same
0,734,valid,"[(1175, 797)]",[],[1],[0.5333333333333333],vertical,"(890.0, 762.0)",0.45,0.495,1,6243.252,2,0.0,same
0,735,valid,"[(1186, 796)]",[],[1],[0.7166666666666667],vertical,"(390.0, 262.0)",0.9166666666666666,0.666,1,6247.777,2,0.0,same
0,736,catch,"[(1164, 796)]",[],[1],[],vertical,"(390.0, 762.0)",1.7,nan,1,6253.448,3,0.0,same
0,737,valid,"[(1188, 787)]",[],[1],[0.55],vertical,"(390.0, 762.0)",0.36666666666666664,0.511,1,6259.72,3,0.0,same
0,738,valid,"[(1176, 790)]",[],[1],[0.5166666666666666],horizontal,"(890.0, 262.0)",0.36666666666666664,0.472,1,6264.365,3,0.0,same
0,739,valid,"[(1165, 775)]",[],[1],[0.5666666666666667],vertical,"(890.0, 762.0)",1.1333333333333333,0.529,1,6269.403,3,0.0,same
0,740,valid,"[(1160, 778)]",[],[1],[0.5666666666666667],vertical,"(890.0, 762.0)",0.5666666666666667,0.523,1,6275.093,3,0.0,same
0,741,valid,"[(1174, 777)]",[],[1],[0.6],horizontal,"(390.0, 262.0)",1.0666666666666667,0.556,1,6280.537,3,0.0,same
0,742,valid,"[(1181, 788)]",[],[1],[0.6166666666666667],horizontal,"(390.0, 262.0)",0.6,0.572,1,6286.314,3,0.0,same
0,743,valid,"[(1205, 792)]",[],[1],[0.7166666666666667],vertical,"(390.0, 262.0)",1.2166666666666666,0.675,1,6292.134,3,0.0,same
0,744,valid,"[(1214, 800)]",[],[1],[0.85],horizontal,"(890.0, 262.0)",0.6666666666666666,nan,0,6298.359,0,0.0,same
0,745,valid,"[(1145, 786)]",[],[1],[0.5833333333333334],vertical,"(890.0, 762.0)",1.1833333333333333,0.54,1,6303.059,1,0.0,same
0,746,valid,"[(1175, 804)]",[],[1],[0.5166666666666666],horizontal,"(390.0, 762.0)",0.8,0.476,1,6308.763,1,0.0,same
0,747,catch,"[(1175, 793)]",[],[1],[],horizontal,"(390.0, 262.0)",1.7,nan,1,6313.677,1,0.0,same
0,748,valid,"[(1172, 781)]",[],[1],[0.5],vertical,"(390.0, 762.0)",0.9666666666666667,0.46,1,6318.886,2,0.0,same
0,749,catch,"[(1176, 791)]",[],[1],[],horizontal,"(390.0, 762.0)",1.7,nan,1,6324.436,2,0.0,same
0,750,invalid_adjacent_other_bar,"[(1175, 774)]",[],[1],[0.85],vertical,"(890.0, 762.0)",1.1166666666666667,nan,0,6329.863,0,0.0,other
0,751,valid,"[(1147, 761)]",[],[1],[0.7333333333333333],vertical,"(890.0, 762.0)",1.1,0.706,1,6334.871,1,0.0,same
0,752,valid,"[(1178, 783)]",[],[1],[0.85],horizontal,"(390.0, 762.0)",0.35,nan,0,6340.659,0,0.0,same
0,753,valid,"[(1140, 785)]",[],[1],[0.6333333333333333],horizontal,"(390.0, 762.0)",1.5166666666666666,0.595,1,6344.837,1,0.0,same
0,754,catch,"[(1204, 799)]",[],[1],[],vertical,"(390.0, 762.0)",1.7,nan,1,6350.906,1,0.0,same
0,755,valid,"[(1158, 772)]",[],[1],[0.5833333333333334],horizontal,"(890.0, 262.0)",1.0,0.545,1,6355.77,1,0.0,same
0,756,valid,"[(1170, 822)]",[],[1],[0.55],vertical,"(890.0, 762.0)",1.45,0.506,1,6361.102,2,0.0,same
0,757,valid,"[(1172, 787)]",[],[1],[0.65],horizontal,"(390.0, 762.0)",0.8333333333333334,0.612,1,6367.202,2,0.0,same
0,758,valid,"[(1197, 781)]",[],[1],[0.5666666666666667],vertical,"(390.0, 262.0)",1.2833333333333332,0.529,1,6372.336,2,0.0,same
0,759,invalid_adjacent_other_bar,"[(1179, 784)]",[],[1],[0.5666666666666667],horizontal,"(890.0, 762.0)",0.3833333333333333,0.526,1,6377.79,3,0.0,other
0,760,catch,"[(1190, 801)]",[],[1],[],vertical,"(390.0, 762.0)",1.7,nan,1,6383.417,3,0.0,same
0,761,invalid_adjacent_other_bar,"[(1162, 811)]",[],[1],[0.85],horizontal,"(390.0, 262.0)",0.75,nan,0,6389.421,0,0.0,other
0,762,valid,"[(1140, 778)]",[],[1],[0.55],horizontal,"(890.0, 262.0)",0.8833333333333333,0.507,1,6394.104,1,0.0,same
0,763,catch,"[(1135, 803)]",[],[1],[],horizontal,"(890.0, 262.0)",1.7,nan,1,6399.719,1,0.0,same
0,764,catch,"[(1174, 788)]",[],[1],[0.03333333333333333],vertical,"(890.0, 762.0)",1.7,"0.018,nan",0,6405.136,0,0.02,same
0,765,valid,"[(1140, 796)]",[],[1],[0.6666666666666666],horizontal,"(890.0, 762.0)",1.15,0.624,1,6409.677,1,0.02,same
0,766,valid,"[(1165, 796)]",[],[1],[0.5166666666666666],horizontal,"(890.0, 762.0)",0.6666666666666666,0.477,1,6415.154,1,0.02,same
0,767,valid,"[(1189, 786)]",[],[1],[0.6166666666666667],vertical,"(390.0, 762.0)",0.6666666666666666,0.573,1,6420.17,1,0.02,same
0,768,valid,"[(1177, 779)]",[],[1],[0.5833333333333334],horizontal,"(890.0, 762.0)",0.8666666666666667,0.55,1,6425.037,2,0.02,same
0,769,valid,"[(1204, 796)]",[],[1],[0.5166666666666666],vertical,"(890.0, 762.0)",1.4166666666666667,0.475,1,6430.436,2,0.02,same
0,770,catch,"[(1177, 803)]",[],[1],[],vertical,"(890.0, 262.0)",1.7,nan,1,6436.153,2,0.02,same
0,771,valid,"[(1192, 784)]",[],[1],[0.65],vertical,"(890.0, 762.0)",1.4333333333333333,0.605,1,6441.77,3,0.02,same
0,772,valid,"[(1172, 811)]",[],[1],[0.75],horizontal,"(390.0, 262.0)",0.9666666666666667,0.714,1,6448.253,3,0.02,same
0,773,valid,"[(1091, 829)]",[],[1],[0.85],vertical,"(390.0, 762.0)",1.0333333333333332,nan,0,6454.595,0,0.02,same
0,774,catch,"[(1136, 820)]",[],[1],[],vertical,"(890.0, 762.0)",1.7,nan,1,6650.038,1,0.02,same
0,775,valid,"[(1175, 835)]",[],[1],[0.7666666666666666],vertical,"(890.0, 762.0)",0.9666666666666667,0.716,1,6655.605,1,0.02,same
0,776,valid,"[(1210, 803)]",[],[1],[0.5333333333333333],horizontal,"(390.0, 262.0)",1.4,0.49,1,6660.62,1,0.02,same
0,777,invalid_same_bar,"[(1212, 831)]",[],[1],[0.55],vertical,"(390.0, 262.0)",0.48333333333333334,0.514,1,6666.254,2,0.02,same
0,778,valid,"[(1190, 806)]",[],[1],[0.6666666666666666],vertical,"(890.0, 262.0)",0.65,0.621,1,6671.254,2,0.02,same
0,779,valid,"[(1155, 831)]",[],[1],[0.5666666666666667],vertical,"(890.0, 762.0)",1.1333333333333333,0.526,1,6676.607,2,0.02,same
0,780,valid,"[(1197, 794)]",[],[1],[0.5333333333333333],horizontal,"(890.0, 762.0)",0.6166666666666667,0.493,1,6682.121,3,0.02,same
0,781,catch,"[(1214, 791)]",[],[1],[],horizontal,"(390.0, 262.0)",,"('cti', 0.051),nan",0,6687.355,0,0.04,same
0,782,valid,"[(1175, 785)]",[],[1],[0.6833333333333333],horizontal,"(890.0, 262.0)",0.5,0.637,1,6690.371,1,0.04,same
0,783,invalid_adjacent_other_bar,"[(1205, 789)]",[],[1],[0.85],horizontal,"(390.0, 762.0)",0.5166666666666666,nan,0,6695.32,0,0.04,other
0,784,valid,"[(1178, 783)]",[],[1],[0.6],vertical,"(890.0, 262.0)",1.1166666666666667,0.553,1,6699.395,1,0.04,same
0,785,invalid_same_bar,"[(1203, 796)]",[],[1],[0.6],vertical,"(390.0, 762.0)",1.2166666666666666,0.562,1,6704.953,1,0.04,same
0,786,valid,"[(1178, 816)]",[],[1],[0.65],horizontal,"(890.0, 262.0)",1.35,0.606,1,6710.371,1,0.04,same
0,787,valid,"[(1148, 791)]",[],[1],[0.85],vertical,"(890.0, 262.0)",1.0,nan,0,6715.788,0,0.04,same
0,788,valid,"[(1178, 783)]",[],[1],[0.5333333333333333],horizontal,"(390.0, 262.0)",0.95,0.494,1,6721.0,1,0.04,same
0,789,invalid_same_bar,"[(1180, 791)]",[],[1],[0.6333333333333333],horizontal,"(890.0, 262.0)",0.65,0.589,1,6725.92,1,0.04,same
0,790,invalid_adjacent_other_bar,"[(1202, 798)]",[],[1],[0.6333333333333333],horizontal,"(390.0, 762.0)",1.1833333333333333,0.593,1,6730.638,1,0.04,other
0,791,valid,"[(1205, 796)]",[],[1],[0.48333333333333334],horizontal,"(890.0, 762.0)",1.4666666666666666,0.441,1,6735.654,2,0.04,same
0,792,catch,"[(1190, 796)]",[],[1],[],vertical,"(390.0, 762.0)",1.7,nan,1,6741.79,2,0.04,same
0,793,valid,"[(1175, 791)]",[],[1],[0.5166666666666666],vertical,"(390.0, 262.0)",0.6,0.475,1,6747.134,2,0.04,same
0,794,valid,"[(1204, 790)]",[],[1],[0.43333333333333335],horizontal,"(890.0, 262.0)",1.4,0.392,1,6752.104,3,0.04,same
0,795,valid,"[(1202, 792)]",[],[1],[0.5166666666666666],vertical,"(890.0, 262.0)",1.4166666666666667,0.474,1,6758.786,3,0.04,same
0,796,valid,"[(1211, 797)]",[],[1],[0.85],horizontal,"(890.0, 762.0)",0.43333333333333335,nan,0,6764.932,0,0.04,same
0,797,catch,"[(1167, 784)]",[],[1],[],vertical,"(890.0, 762.0)",1.7,nan,1,6769.571,1,0.04,same
0,798,catch,"[(1162, 805)]",[],[1],[],horizontal,"(890.0, 262.0)",1.7,nan,1,6774.887,1,0.04,same
0,799,valid,"[(1201, 799)]",[],[1],[0.5666666666666667],horizontal,"(890.0, 762.0)",1.1666666666666667,0.522,1,6780.389,1,0.04,same
0,800,catch,"[(1182, 786)]",[],[1],[],vertical,"(890.0, 762.0)",1.7,nan,1,6785.628,2,0.04,same
0,801,catch,"[(1204, 814)]",[],[1],[],vertical,"(890.0, 762.0)",1.7,nan,1,6791.604,2,0.04,same
0,802,invalid_adjacent_other_bar,"[(1180, 792)]",[],[1],[0.5166666666666666],vertical,"(890.0, 262.0)",0.9833333333333333,0.475,1,6796.958,2,0.04,other
0,803,valid,"[(1184, 781)]",[],[1],[0.5333333333333333],horizontal,"(890.0, 262.0)",1.4666666666666666,0.492,1,6802.408,3,0.04,same
0,804,valid,"[(1172, 808)]",[],[1],[0.5666666666666667],horizontal,"(890.0, 262.0)",0.45,0.522,1,6809.083,3,0.04,same
0,805,catch,"[(1186, 784)]",[],[1],[],horizontal,"(390.0, 262.0)",1.7,nan,1,6814.688,3,0.04,same
0,806,valid,"[(1181, 800)]",[],[1],[0.5666666666666667],vertical,"(390.0, 262.0)",1.4333333333333333,0.526,1,6820.854,3,0.04,same
0,807,catch,"[(1179, 811)]",[],[1],[],horizontal,"(390.0, 262.0)",1.7,nan,1,6827.355,3,0.04,same
0,808,valid,"[(1180, 786)]",[],[1],[0.5666666666666667],vertical,"(890.0, 762.0)",0.8,0.53,1,6833.291,3,0.04,same
0,809,catch,"[(1185, 781)]",[],[1],[],vertical,"(390.0, 262.0)",1.7,nan,1,6839.171,3,0.04,same
0,810,invalid_same_bar,"[(1175, 801)]",[],[1],[0.7833333333333333],horizontal,"(390.0, 262.0)",1.5166666666666666,0.738,1,6845.052,3,0.04,same
0,811,catch,"[(1204, 801)]",[],[1],[],vertical,"(390.0, 262.0)",1.7,nan,1,6851.935,3,0.04,same
0,812,valid,"[(1198, 767)]",[],[1],[0.48333333333333334],vertical,"(890.0, 262.0)",1.2,0.443,1,6857.959,3,0.04,same
0,813,invalid_adjacent_other_bar,"[(1183, 773)]",[],[1],[0.6833333333333333],horizontal,"(390.0, 262.0)",0.6166666666666667,0.641,1,6863.702,3,0.04,other
0,814,catch,"[(1160, 826)]",[],[1],[],vertical,"(390.0, 262.0)",1.7,nan,1,6869.587,3,0.02,same
0,815,catch,"[(1185, 803)]",[],[1],[],vertical,"(890.0, 262.0)",1.7,nan,1,6875.596,3,0.02,same
0,816,valid,"[(1182, 790)]",[],[1],[0.85],horizontal,"(390.0, 762.0)",1.4,nan,0,6881.713,0,0.02,same
0,817,valid,"[(1165, 767)]",[],[1],[0.55],horizontal,"(890.0, 762.0)",0.36666666666666664,0.508,1,6886.747,1,0.02,same
0,818,valid,"[(1193, 796)]",[],[1],[0.55],horizontal,"(890.0, 262.0)",1.0166666666666666,0.512,1,6891.344,1,0.02,same
0,819,valid,"[(1198, 769)]",[],[1],[0.55],horizontal,"(390.0, 762.0)",1.0333333333333332,0.511,1,6896.22,1,0.02,same
0,820,catch,"[(1201, 791)]",[],[1],[],vertical,"(390.0, 762.0)",,"('fix', 0.036),nan",0,6901.417,0,0.04,same
0,821,valid,"[(1140, 811)]",[],[1],[0.6166666666666667],horizontal,"(390.0, 262.0)",0.48333333333333334,0.578,1,6902.851,1,0.04,same
0,822,valid,"[(1194, 808)]",[],[1],[0.5],horizontal,"(890.0, 762.0)",1.25,0.458,1,6907.291,1,0.04,same
0,823,catch,"[(1188, 786)]",[],[1],[],vertical,"(890.0, 762.0)",1.7,nan,1,6912.504,1,0.04,same
0,824,catch,"[(1203, 774)]",[],[1],[],vertical,"(890.0, 262.0)",1.7,nan,1,6917.844,2,0.04,same
0,825,catch,"[(1180, 773)]",[],[1],[],horizontal,"(890.0, 762.0)",1.7,nan,1,6923.871,2,0.04,same
0,826,invalid_adjacent_other_bar,"[(1204, 781)]",[],[1],[0.6],vertical,"(890.0, 762.0)",1.4333333333333333,0.565,1,6929.504,2,0.04,other
0,827,invalid_adjacent_other_bar,"[(1195, 801)]",[],[1],[0.55],vertical,"(390.0, 762.0)",1.5,0.509,1,6935.53,3,0.04,other
0,828,valid,"[(1205, 791)]",[],[1],[0.85],horizontal,"(890.0, 762.0)",0.6666666666666666,nan,0,6942.138,0,0.04,same
0,829,valid,"[(1138, 812)]",[],[1],[0.43333333333333335],vertical,"(390.0, 262.0)",1.35,0.4,1,6946.421,1,0.04,same
0,830,invalid_same_bar,"[(1175, 812)]",[],[1],[0.5333333333333333],horizontal,"(390.0, 262.0)",1.1166666666666667,0.491,1,6952.992,1,0.04,same
0,831,valid,"[(1176, 796)]",[],[1],[0.85],horizontal,"(390.0, 762.0)",0.48333333333333334,nan,0,6957.937,0,0.02,same
0,832,invalid_same_bar,"[(1163, 781)]",[],[1],[0.55],vertical,"(890.0, 262.0)",1.25,0.506,1,6962.304,1,0.02,same
0,833,invalid_same_bar,"[(1203, 797)]",[],[1],[0.5333333333333333],vertical,"(890.0, 262.0)",1.45,0.491,1,6968.012,1,0.02,same
0,834,catch,"[(1200, 793)]",[],[1],[],vertical,"(890.0, 762.0)",1.7,nan,1,6973.59,1,0.02,same
0,835,valid,"[(1180, 753), (1140, 815)]",[],"[0, 1]",[0.6666666666666666],horizontal,"(890.0, 762.0)",1.2166666666666666,0.626,1,6979.071,2,0.02,same
0,836,valid,"[(1185, 782)]",[],[1],[0.55],horizontal,"(890.0, 762.0)",1.3166666666666667,0.514,1,6986.262,2,0.02,same
0,837,valid,"[(1222, 801)]",[],[1],[],vertical,"(390.0, 262.0)",,"('fix', 0.146)",0,6992.361,0,0.02,same
0,838,valid,"[(1155, 801)]",[],[1],[0.65],horizontal,"(390.0, 762.0)",0.7,0.604,1,6993.989,1,0.02,same
0,839,valid,"[(1181, 784)]",[],[1],[0.5333333333333333],vertical,"(390.0, 762.0)",0.5166666666666666,0.494,1,6999.106,1,0.02,same
0,840,valid,"[(1205, 796)]",[],[1],[0.55],vertical,"(390.0, 262.0)",0.36666666666666664,0.509,1,7003.231,1,0.02,same
0,841,invalid_adjacent_other_bar,"[(1204, 783)]",[],[1],[0.55],horizontal,"(390.0, 262.0)",0.85,0.509,1,7007.939,2,0.02,other
0,842,valid,"[(1209, 763)]",[],[1],[0.5666666666666667],horizontal,"(890.0, 262.0)",1.5,0.525,1,7012.854,2,0.02,same
0,843,invalid_same_bar,"[(1205, 779)]",[],[1],[0.5333333333333333],horizontal,"(390.0, 262.0)",0.9166666666666666,0.493,1,7019.005,2,0.02,same
0,844,catch,"[(1199, 795)]",[],[1],[],vertical,"(390.0, 262.0)",1.7,nan,1,7024.389,3,0.02,same
0,845,valid,"[(1204, 792)]",[],[1],[0.55],vertical,"(890.0, 762.0)",1.4,0.506,1,7030.855,3,0.02,same
0,846,catch,"[(1224, 773)]",[],[1],[],vertical,"(890.0, 262.0)",,"('fix', 0.201),nan",0,7036.955,0,0.04,same
0,847,valid,"[(1161, 804)]",[],[1],[0.85],vertical,"(390.0, 262.0)",1.35,nan,0,7038.605,0,0.04,same
0,848,valid,"[(1162, 796)]",[],[1],[0.5],horizontal,"(890.0, 762.0)",1.1166666666666667,0.456,1,7043.939,1,0.04,same
0,849,valid,"[(1202, 793)]",[],[1],[0.85],horizontal,"(890.0, 762.0)",0.4,nan,0,7049.037,0,0.04,same
0,850,valid,"[(1152, 774)]",[],[1],[0.7],horizontal,"(890.0, 262.0)",0.9166666666666666,0.656,1,7053.554,1,0.04,same
0,851,valid,"[(1175, 778)]",[],[1],[0.6],vertical,"(390.0, 262.0)",0.9833333333333333,0.558,1,7058.703,1,0.04,same
0,852,valid,"[(1180, 774)]",[],[1],[0.7166666666666667],horizontal,"(390.0, 262.0)",1.2333333333333334,0.669,1,7063.831,1,0.04,same
0,853,valid,"[(1175, 790)]",[],[1],[0.5166666666666666],horizontal,"(890.0, 262.0)",1.1833333333333333,0.474,1,7069.58,2,0.04,same
0,854,invalid_adjacent_other_bar,"[(1180, 803)]",[],[1],[0.5333333333333333],horizontal,"(390.0, 262.0)",0.65,0.492,1,7075.25,2,0.04,other
0,855,valid,"[(1175, 789)]",[],[1],[0.5166666666666666],vertical,"(890.0, 262.0)",0.48333333333333334,0.478,1,7080.476,2,0.04,same
0,856,valid,"[(1176, 774)]",[],[1],[0.6333333333333333],horizontal,"(390.0, 762.0)",1.2833333333333332,0.588,1,7085.388,3,0.04,same
0,857,invalid_same_bar,"[(1202, 784)]",[],[1],[0.5333333333333333],vertical,"(390.0, 762.0)",0.4166666666666667,0.496,1,7091.497,3,0.04,same
0,858,valid,"[(1175, 767)]",[],[1],[0.5666666666666667],vertical,"(390.0, 762.0)",1.4833333333333334,0.521,1,7096.737,3,0.04,same
0,859,valid,"[(1165, 778)]",[],[1],[0.6],vertical,"(390.0, 762.0)",0.35,0.558,1,7103.153,3,0.04,same
0,860,valid,"[(1175, 778)]",[],[1],[0.7166666666666667],vertical,"(390.0, 262.0)",0.4,0.664,1,7108.267,3,0.04,same
