block,trial,trial_type,taps_start_loc_during_fix,taps_end_loc_during_fix,taps_on_lever_during_fix,taps_on_lever_s_during_fix,bar_orientation,target_xy,cti,rt,acc,time
1,1,catch,"[(1116, 918)]",[],[1],[0.85],vertical,"(890.0, 762.0)",1.6666666666666667,nan,1,0.341
1,2,catch,"[(1152, 848)]",[],[1],[0.85],horizontal,"(390.0, 762.0)",0.8166666666666667,nan,1,6.826
1,3,catch,"[(1152, 847)]",[],[1],[0.85],horizontal,"(890.0, 762.0)",0.8666666666666667,nan,1,86.673
1,4,catch,"[(1137, 860)]",[],[1],[0.85],horizontal,"(390.0, 262.0)",1.2666666666666666,nan,1,114.022
1,5,catch,"[(704, 706), (818, 773), (819, 657), (862, 671), (1155, 824), (826, 677)]",[],"[0, 0, 0, 0, 1, 0]",[],vertical,"(890.0, 762.0)",,fix_phase,0,119.016
1,6,catch,"[(927, 585), (709, 773), (1072, 868)]",[],"[0, 0, 1]",[0.05],horizontal,"(890.0, 762.0)",1.1,0.018,0,123.935
1,7,catch,"[(923, 565), (962, 594), (894, 705), (709, 614), (989, 570), (893, 565), (854, 794), (719, 783), (907, 802), (748, 802), (705, 798), (917, 811), (827, 793), (849, 817), (719, 821), (898, 677), (732, 652), (869, 833), (942, 851), (952, 730), (932, 701), (901, 705), (808, 710), (839, 889), (916, 720), (734, 914), (830, 872), (686, 909), (802, 829), (1047, 723), (747, 914), (859, 919), (888, 855), (826, 773), (936, 933), (888, 764), (864, 938), (917, 928), (821, 880), (932, 885), (912, 943), (888, 885), (760, 725), (777, 739), (933, 720), (922, 986), (927, 986), (826, 928), (858, 991), (797, 875), (779, 925), (893, 938), (782, 941), (883, 957), (893, 880), (1062, 891)]",[],"[0, 0, 0, 0, 0, 0, 0, 0, 0, 0, 0, 0, 0, 0, 0, 0, 0, 0, 0, 0, 0, 0, 0, 0, 0, 0, 0, 0, 0, 0, 0, 0, 0, 0, 0, 0, 0, 0, 0, 0, 0, 0, 0, 0, 0, 0, 0, 0, 0, 0, 0, 0, 0, 0, 0, 1]",[0.85],horizontal,"(390.0, 762.0)",1.05,nan,1,129.674
1,8,catch,"[(1069, 909)]",[],[1],[0.85],horizontal,"(890.0, 762.0)",0.8166666666666667,nan,1,11738.707
1,9,catch,"[(1072, 889)]",[],[1],[0.5333333333333333],vertical,"(890.0, 762.0)",1.1666666666666667,0.488,0,11744.322
1,10,catch,"[(1079, 896)]",[],[1],[0.85],horizontal,"(890.0, 762.0)",1.25,nan,1,11750.491
2,11,catch,"[(1072, 879)]",[],[1],[0.85],horizontal,"(390.0, 762.0)",0.8833333333333333,nan,1,11755.753
2,12,catch,"[(1055, 889)]",[],[1],[0.6],horizontal,"(390.0, 762.0)",0.7333333333333333,0.555,0,11760.366
2,13,catch,"[(1057, 892)]",[],[1],[0.5666666666666667],vertical,"(390.0, 762.0)",1.35,0.523,0,11765.374
2,14,catch,"[(1076, 893)]",[],[1],[0.65],vertical,"(890.0, 262.0)",1.55,0.604,0,11770.167
2,15,catch,"[(1076, 867)]",[],[1],[0.85],vertical,"(890.0, 262.0)",1.2833333333333332,nan,1,11774.989
2,16,catch,"[(1065, 890)]",[],[1],[0.85],vertical,"(890.0, 762.0)",0.85,nan,1,11780.006
2,17,catch,"[(1069, 897)]",[],[1],[],horizontal,"(390.0, 262.0)",,cti_phase,0,11785.389
2,18,catch,"[(1076, 896)]",[],[1],[0.85],horizontal,"(390.0, 262.0)",1.6333333333333333,nan,1,11790.84
2,19,catch,"[(1076, 894)]",[],[1],[0.6],horizontal,"(890.0, 762.0)",1.4,0.562,0,11796.543
2,20,catch,"[(1076, 902)]",[],[1],[0.85],horizontal,"(890.0, 262.0)",1.2,nan,1,11802.374
3,21,catch,"[(1072, 905)]",[],[1],[0.85],horizontal,"(390.0, 762.0)",0.55,nan,1,11807.365
3,22,catch,"[(1067, 910)]",[],[1],[0.5166666666666666],vertical,"(390.0, 762.0)",0.65,0.48,0,11812.523
3,23,catch,"[(1067, 891)]",[],[1],[0.85],vertical,"(890.0, 762.0)",0.9166666666666666,nan,1,11817.493
3,24,catch,"[(1072, 904)]",[],[1],[0.4],vertical,"(390.0, 762.0)",0.8,0.367,0,11822.038
3,25,catch,"[(1057, 898)]",[],[1],[],horizontal,"(390.0, 762.0)",,cti_phase,0,11827.021
3,26,catch,"[(1014, 903)]",[],[1],[0.4666666666666667],horizontal,"(390.0, 762.0)",0.6333333333333333,0.437,0,11830.892
3,27,catch,"[(1076, 893)]",[],[1],[],horizontal,"(390.0, 762.0)",,cti_phase,0,11835.289
3,28,catch,"[(1076, 902)]",[],[1],[0.85],horizontal,"(890.0, 262.0)",1.65,nan,1,11839.722
3,29,catch,"[(1072, 912)]",[],[1],[0.5166666666666666],horizontal,"(890.0, 762.0)",1.1,0.478,0,11844.915
3,30,catch,"[(1076, 904)]",[],[1],[0.7],vertical,"(390.0, 262.0)",1.5833333333333333,0.656,0,11850.342
4,31,catch,"[(1067, 875)]",[],[1],[0.85],horizontal,"(390.0, 762.0)",0.6833333333333333,nan,1,11855.534
4,32,catch,"[(1094, 902)]",[],[1],[0.3333333333333333],vertical,"(390.0, 262.0)",1.3166666666666667,0.295,0,11860.088
4,33,catch,"[(1058, 904)]",[],[1],[0.85],horizontal,"(390.0, 262.0)",0.7833333333333333,nan,1,11865.713
4,34,catch,"[(1067, 899)]",[],[1],[0.4666666666666667],vertical,"(890.0, 262.0)",1.5833333333333333,0.425,0,11870.605
4,35,catch,"[(1067, 897)]",[],[1],[0.85],horizontal,"(390.0, 262.0)",1.1333333333333333,nan,1,11875.79
4,36,catch,"[(1072, 905)]",[],[1],[0.5166666666666666],horizontal,"(390.0, 762.0)",1.3333333333333333,0.479,0,11880.59
4,37,catch,"[(1052, 894)]",[],[1],[],horizontal,"(390.0, 262.0)",,cti_phase,0,11885.924
4,38,catch,"[(1072, 901)]",[],[1],[0.08333333333333333],vertical,"(390.0, 762.0)",1.3333333333333333,0.053,0,11890.841
4,39,catch,"[(1076, 899)]",[],[1],[0.85],horizontal,"(890.0, 762.0)",1.05,nan,1,11895.14
4,40,catch,"[(1067, 904)]",[],[1],[0.85],vertical,"(390.0, 262.0)",0.65,nan,1,11899.902
5,41,catch,"[(1050, 904)]",[],[1],[0.3833333333333333],horizontal,"(890.0, 762.0)",1.0833333333333333,0.351,0,11904.524
5,42,catch,"[(1094, 903)]",[],[1],[0.85],horizontal,"(390.0, 262.0)",0.8833333333333333,nan,1,11909.758
5,43,catch,"[(1053, 902)]",[],[1],[0.85],horizontal,"(890.0, 762.0)",0.55,nan,1,11914.574
5,44,catch,"[(1067, 916)]",[],[1],[0.75],vertical,"(890.0, 262.0)",0.8166666666666667,0.708,0,11919.89
5,45,catch,"[(1072, 908)]",[],[1],[0.85],horizontal,"(890.0, 262.0)",0.9666666666666667,nan,1,11924.873
5,46,catch,"[(1049, 901)]",[],[1],[0.85],horizontal,"(890.0, 262.0)",0.5,nan,1,11930.025
5,47,catch,"[(1041, 900)]",[],[1],[0.85],horizontal,"(890.0, 762.0)",0.65,nan,1,11936.274
5,48,catch,"[(1057, 897)]",[],[1],[0.85],vertical,"(890.0, 262.0)",0.7,nan,1,11941.772
5,49,catch,"[(1076, 899)]",[],[1],[0.45],vertical,"(390.0, 262.0)",1.0666666666666667,0.411,0,11947.021
5,50,catch,"[(1062, 889)]",[],[1],[0.85],horizontal,"(890.0, 262.0)",1.2166666666666666,nan,1,11951.922
6,51,catch,"[(1062, 894)]",[],[1],[0.5666666666666667],horizontal,"(890.0, 262.0)",1.0666666666666667,0.525,0,11956.732
6,52,catch,"[(1067, 887)]",[],[1],[0.85],horizontal,"(890.0, 262.0)",0.8166666666666667,nan,1,11962.071
6,53,catch,"[(1049, 889)]",[],[1],[0.85],horizontal,"(890.0, 262.0)",1.5,nan,1,11966.819
6,54,catch,"[(1065, 889)]",[],[1],[0.55],vertical,"(890.0, 262.0)",1.0833333333333333,0.504,0,11972.386
6,55,catch,"[(1081, 874)]",[],[1],[],vertical,"(390.0, 262.0)",,cti_phase,0,11977.24
6,56,catch,"[(1072, 889)]",[],[1],[0.11666666666666667],horizontal,"(390.0, 262.0)",1.35,0.084,0,11981.346
6,57,catch,"[(1076, 890)]",[],[1],[0.85],horizontal,"(390.0, 262.0)",0.9666666666666667,nan,1,11986.107
6,58,catch,"[(1064, 890)]",[],[1],[0.5333333333333333],horizontal,"(890.0, 262.0)",1.1166666666666667,0.497,0,11990.956
6,59,catch,"[(1076, 894)]",[],[1],[0.85],horizontal,"(890.0, 262.0)",0.5166666666666666,nan,1,11996.19
6,60,catch,"[(1057, 894)]",[],[1],[],vertical,"(890.0, 762.0)",,cti_phase,0,12000.356
7,61,catch,"[(1100, 889)]",[],[1],[],vertical,"(890.0, 762.0)",,cti_phase,0,12005.167
7,62,catch,"[(1079, 894)]",[],[1],[0.13333333333333333],horizontal,"(890.0, 262.0)",1.4666666666666666,0.102,0,12009.007
7,63,catch,"[(1086, 891)]",[],[1],[0.85],vertical,"(890.0, 262.0)",0.95,nan,1,12013.706
7,64,catch,"[(1076, 899)]",[],[1],[],vertical,"(890.0, 762.0)",,cti_phase,0,12018.706
7,65,catch,"[(1085, 894)]",[],[1],[0.85],vertical,"(390.0, 762.0)",1.0666666666666667,nan,1,12023.947
7,66,catch,"[(1072, 900)]",[],[1],[0.85],vertical,"(890.0, 762.0)",0.9166666666666666,nan,1,12029.223
7,67,catch,"[(1086, 897)]",[],[1],[0.85],vertical,"(390.0, 262.0)",0.85,nan,1,12034.572
7,68,catch,"[(1072, 891)]",[],[1],[0.85],vertical,"(390.0, 262.0)",1.2333333333333334,nan,1,12039.855
7,69,catch,"[(1057, 895)]",[],[1],[0.5],horizontal,"(390.0, 762.0)",1.2666666666666666,0.458,0,12045.374
7,70,catch,"[(1076, 897)]",[],[1],[0.85],vertical,"(390.0, 762.0)",0.9833333333333333,nan,1,12050.673
8,71,catch,"[(1076, 903)]",[],[1],[0.7333333333333333],vertical,"(390.0, 262.0)",0.6166666666666667,0.698,0,12055.524
8,72,catch,"[(1086, 902)]",[],[1],[0.85],horizontal,"(890.0, 762.0)",1.5833333333333333,nan,1,12060.44
8,73,catch,"[(1058, 898)]",[],[1],[0.5],horizontal,"(390.0, 762.0)",1.5333333333333332,0.466,0,12066.152
8,74,catch,"[(1072, 900)]",[],[1],[0.85],horizontal,"(890.0, 262.0)",1.5833333333333333,nan,1,12071.66
8,75,catch,"[(1053, 886)]",[],[1],[0.85],vertical,"(890.0, 762.0)",0.9,nan,1,12076.956
8,76,catch,"[(1062, 894)]",[],[1],[],horizontal,"(390.0, 262.0)",,cti_phase,0,12084.54
8,77,catch,"[(1072, 897)]",[],[1],[0.8],vertical,"(890.0, 762.0)",1.0166666666666666,0.769,0,12089.458
8,78,catch,"[(1076, 901)]",[],[1],[0.5166666666666666],horizontal,"(390.0, 762.0)",1.25,0.48,0,12094.187
8,79,catch,"[(1076, 901)]",[],[1],[0.85],horizontal,"(390.0, 262.0)",0.5333333333333333,nan,1,12099.113
8,80,catch,"[(1063, 898)]",[],[1],[0.7666666666666666],horizontal,"(390.0, 262.0)",0.85,0.731,0,12104.023
9,81,catch,"[(1076, 898)]",[],[1],[0.85],horizontal,"(390.0, 762.0)",1.2333333333333334,nan,1,12108.772
9,82,catch,"[(1067, 894)]",[],[1],[0.85],vertical,"(890.0, 762.0)",0.9833333333333333,nan,1,12113.741
9,83,catch,"[(1076, 904)]",[],[1],[0.45],horizontal,"(390.0, 262.0)",1.15,0.412,0,12118.628
9,84,catch,"[(1092, 895)]",[],[1],[0.85],vertical,"(890.0, 262.0)",0.7,nan,1,12123.722
9,85,catch,"[(1073, 904)]",[],[1],[0.85],vertical,"(390.0, 262.0)",0.8,nan,1,12128.456
9,86,catch,"[(1052, 898)]",[],[1],[0.3],horizontal,"(890.0, 762.0)",1.6333333333333333,0.263,0,12133.322
9,87,catch,"[(1090, 894)]",[],[1],[0.5833333333333334],horizontal,"(390.0, 762.0)",1.2833333333333332,0.542,0,12139.025
9,88,catch,"[(1086, 898)]",[],[1],[0.85],horizontal,"(390.0, 262.0)",0.7833333333333333,nan,1,12143.773
9,89,catch,"[(1071, 899)]",[],[1],[0.85],vertical,"(390.0, 762.0)",0.6666666666666666,nan,1,12148.447
9,90,catch,"[(1072, 905)]",[],[1],[0.8],vertical,"(390.0, 262.0)",0.9166666666666666,0.762,0,12153.024
10,91,catch,"[(1081, 897)]",[],[1],[0.7],vertical,"(390.0, 262.0)",1.5666666666666667,0.658,0,12158.156
10,92,catch,"[(1086, 899)]",[],[1],[0.85],vertical,"(390.0, 762.0)",1.5666666666666667,"cti_phase,nan",1,12163.34
10,93,catch,"[(1052, 896)]",[],[1],[0.85],horizontal,"(890.0, 262.0)",0.95,nan,1,12168.492
10,94,catch,"[(1067, 901)]",[],[1],[0.5],vertical,"(390.0, 262.0)",1.4166666666666667,0.469,0,12173.59
10,95,catch,"[(1076, 901)]",[],[1],[0.85],horizontal,"(890.0, 762.0)",1.3833333333333333,"cti_phase,nan",1,12179.093
10,96,catch,"[(1072, 904)]",[],[1],[0.3833333333333333],vertical,"(890.0, 762.0)",1.2666666666666666,0.352,0,12184.59
10,97,catch,"[(1083, 899)]",[],[1],[0.7],vertical,"(890.0, 262.0)",1.65,0.66,0,12189.975
10,98,catch,"[(1086, 899)]",[],[1],[0.7333333333333333],vertical,"(390.0, 762.0)",0.95,0.688,0,12195.139
10,99,catch,"[(1099, 899)]",[],[1],[0.85],horizontal,"(890.0, 262.0)",1.6,nan,1,12199.906
10,100,catch,"[(1076, 900)]",[],[1],[0.85],vertical,"(890.0, 262.0)",0.8166666666666667,nan,1,12205.391
11,101,catch,"[(1072, 899)]",[],[1],[],vertical,"(390.0, 762.0)",,cti_phase,0,12210.472
11,102,catch,"[(1076, 883)]",[],[1],[0.85],vertical,"(890.0, 762.0)",0.6833333333333333,nan,1,12215.275
11,103,catch,"[(1076, 898)]",[],[1],[0.5],horizontal,"(390.0, 762.0)",1.2666666666666666,0.461,0,12220.108
11,104,catch,"[(1100, 893)]",[],[1],[0.85],horizontal,"(890.0, 762.0)",0.5666666666666667,nan,1,12225.541
11,105,catch,"[(1085, 913)]",[],[1],[0.85],horizontal,"(390.0, 262.0)",1.2666666666666666,nan,1,12229.513
11,106,catch,"[(1078, 893)]",[],[1],[0.85],vertical,"(390.0, 262.0)",0.65,nan,1,12234.807
11,107,catch,"[(1072, 889)]",[],[1],[0.85],horizontal,"(890.0, 262.0)",0.5333333333333333,nan,1,12239.806
11,108,catch,"[(1072, 899)]",[],[1],[0.3333333333333333],horizontal,"(390.0, 762.0)",1.55,0.296,0,12244.323
11,109,catch,"[(1076, 898)]",[],[1],[0.6],vertical,"(390.0, 262.0)",1.05,0.564,0,12249.33
11,110,catch,"[(1059, 884)]",[],[1],[0.85],horizontal,"(390.0, 262.0)",0.8166666666666667,nan,1,12254.19
12,111,catch,"[(1072, 900)]",[],[1],[0.8166666666666667],horizontal,"(390.0, 262.0)",0.9833333333333333,0.778,0,12258.745
12,112,catch,"[(1067, 886)]",[],[1],[0.85],vertical,"(390.0, 762.0)",1.25,nan,1,12263.377
12,113,catch,"[(1067, 891)]",[],[1],[0.65],horizontal,"(890.0, 262.0)",1.55,0.605,0,12268.192
12,114,catch,"[(1097, 895)]",[],[1],[0.85],horizontal,"(890.0, 762.0)",0.85,nan,1,12273.525
12,115,catch,"[(1077, 901)]",[],[1],[0.6166666666666667],vertical,"(890.0, 262.0)",1.5333333333333332,0.576,0,12277.975
12,116,catch,"[(1097, 897)]",[],[1],[0.6],vertical,"(890.0, 762.0)",1.4333333333333333,0.573,0,12283.692
12,117,catch,"[(1072, 885)]",[],[1],[0.85],horizontal,"(390.0, 262.0)",0.7333333333333333,nan,1,12288.824
12,118,catch,"[(1062, 901)]",[],[1],[0.7833333333333333],vertical,"(390.0, 762.0)",1.55,0.734,0,12294.374
12,119,catch,"[(1093, 884)]",[],[1],[0.85],horizontal,"(390.0, 262.0)",1.1333333333333333,nan,1,12299.823
12,120,catch,"[(1066, 893)]",[],[1],[0.85],horizontal,"(890.0, 262.0)",0.8,nan,1,12304.87
13,121,catch,"[(1072, 901)]",[],[1],[0.85],horizontal,"(390.0, 762.0)",1.05,nan,1,12309.623
13,122,catch,"[(1063, 889)]",[],[1],[0.85],horizontal,"(890.0, 762.0)",0.8833333333333333,nan,1,12314.958
13,123,catch,"[(1076, 909)]",[],[1],[0.6166666666666667],vertical,"(890.0, 262.0)",1.6833333333333333,0.584,0,12319.723
13,124,catch,"[(1081, 897)]",[],[1],[0.85],vertical,"(890.0, 762.0)",1.15,nan,1,12325.023
13,125,catch,"[(1076, 893)]",[],[1],[0.85],horizontal,"(890.0, 262.0)",0.7333333333333333,nan,1,12330.258
13,126,catch,"[(1072, 899)]",[],[1],[0.85],vertical,"(390.0, 262.0)",0.9833333333333333,nan,1,12335.458
13,127,catch,"[(1072, 899)]",[],[1],[0.85],vertical,"(390.0, 262.0)",0.8166666666666667,nan,1,12340.408
13,128,catch,"[(1091, 878)]",[],[1],[0.06666666666666667],horizontal,"(390.0, 762.0)",1.65,0.035,0,12345.226
13,129,catch,"[(1084, 896)]",[],[1],[0.4],vertical,"(890.0, 262.0)",1.6166666666666667,0.365,0,12350.292
13,130,catch,"[(1081, 897)]",[],[1],[0.6],horizontal,"(390.0, 262.0)",1.1,0.561,0,12355.275
14,131,catch,"[(1086, 896)]",[],[1],[0.85],horizontal,"(390.0, 262.0)",0.9166666666666666,nan,1,12360.367
14,132,catch,"[(1067, 891)]",[],[1],[0.85],vertical,"(390.0, 262.0)",1.4,nan,1,12365.041
14,133,catch,"[(1072, 905)]",[],[1],[0.85],horizontal,"(890.0, 762.0)",1.55,nan,1,12370.324
14,134,catch,"[(1062, 894)]",[],[1],[0.85],horizontal,"(890.0, 262.0)",0.9833333333333333,nan,1,12375.691
14,135,catch,"[(1062, 893)]",[],[1],[0.85],vertical,"(890.0, 762.0)",0.65,nan,1,12380.759
14,136,catch,"[(1076, 894)]",[],[1],[0.85],vertical,"(390.0, 262.0)",0.6666666666666666,nan,1,12385.674
14,137,catch,"[(1057, 908)]",[],[1],[0.75],vertical,"(890.0, 762.0)",1.1,0.708,0,12390.691
14,138,catch,"[(1081, 886)]",[],[1],[0.4666666666666667],vertical,"(390.0, 262.0)",1.3166666666666667,0.432,0,12395.558
14,139,catch,"[(1077, 890)]",[],[1],[0.85],horizontal,"(890.0, 762.0)",0.9166666666666666,nan,1,12400.775
14,140,catch,"[(1072, 903)]",[],[1],[0.85],vertical,"(390.0, 262.0)",1.2,nan,1,12405.476
15,141,catch,"[(1081, 894)]",[],[1],[0.6],vertical,"(390.0, 262.0)",1.1666666666666667,0.56,0,12417.656
15,142,catch,"[(1098, 897)]",[],[1],[0.7333333333333333],horizontal,"(890.0, 762.0)",1.3666666666666667,0.692,0,12424.673
15,143,catch,"[(1076, 889)]",[],[1],[0.5833333333333334],vertical,"(390.0, 262.0)",1.5333333333333332,0.546,0,12429.69
15,144,catch,"[(1083, 889)]",[],[1],[0.85],vertical,"(390.0, 762.0)",0.6333333333333333,nan,1,12434.874
15,145,catch,"[(1073, 890)]",[],[1],[0.2833333333333333],vertical,"(390.0, 762.0)",1.0666666666666667,0.249,0,12439.424
15,146,catch,"[(1086, 885)]",[],[1],[0.85],vertical,"(390.0, 262.0)",0.6666666666666666,nan,1,12443.766
15,147,catch,"[(1071, 895)]",[],[1],"[0.85, 0.85]",horizontal,"(890.0, 262.0)",1.3666666666666667,"0.805,nan",1,12448.174
15,148,catch,"[(1081, 895)]",[],[1],[0.85],vertical,"(390.0, 762.0)",0.7,nan,1,12453.719
15,149,catch,"[(1076, 887)]",[],[1],[0.8166666666666667],vertical,"(890.0, 762.0)",0.9,0.773,0,12458.158
15,150,catch,"[(1114, 892)]",[],[1],[0.85],horizontal,"(390.0, 262.0)",0.75,nan,1,12465.126
16,151,catch,"[(1081, 891)]",[],[1],[0.85],vertical,"(390.0, 262.0)",0.65,nan,1,12469.352
16,152,catch,"[(1072, 883)]",[],[1],[0.85],horizontal,"(890.0, 262.0)",0.5333333333333333,nan,1,12474.071
16,153,catch,"[(1072, 882)]",[],[1],[0.85],vertical,"(390.0, 762.0)",0.6833333333333333,nan,1,12482.062
16,154,catch,"[(1076, 905)]",[],[1],[0.85],vertical,"(890.0, 262.0)",0.85,nan,1,12486.866
16,155,catch,"[(1076, 893)]",[],[1],[0.85],vertical,"(890.0, 262.0)",0.7666666666666666,nan,1,12491.574
16,156,catch,"[(1081, 889)]",[],[1],[0.5],horizontal,"(390.0, 762.0)",0.9833333333333333,0.461,0,12496.741
16,157,catch,"[(1091, 892)]",[],[1],[0.15],vertical,"(390.0, 762.0)",1.1333333333333333,0.114,0,12501.628
16,158,catch,"[(1076, 888)]",[],[1],[],vertical,"(390.0, 762.0)",,cti_phase,0,12505.736
16,159,catch,"[(1083, 889)]",[],[1],[0.7166666666666667],vertical,"(890.0, 262.0)",1.5666666666666667,0.678,0,12510.042
16,160,catch,"[(1096, 889)]",[],[1],[0.7166666666666667],horizontal,"(390.0, 762.0)",1.05,0.675,0,12515.291
17,161,catch,"[(1081, 888)]",[],[1],[0.2],vertical,"(390.0, 762.0)",1.6666666666666667,0.166,0,12520.24
17,162,catch,"[(1108, 865)]",[],[1],[0.85],horizontal,"(890.0, 262.0)",1.0333333333333332,nan,1,12524.662
17,163,catch,"[(1076, 888)]",[],[1],[0.55],horizontal,"(390.0, 762.0)",0.9833333333333333,0.517,0,12529.779
17,164,catch,"[(1088, 884)]",[],[1],[0.85],horizontal,"(890.0, 262.0)",0.7666666666666666,nan,1,12534.264
17,165,catch,"[(1088, 891)]",[],[1],[0.6666666666666666],horizontal,"(390.0, 762.0)",1.0666666666666667,0.625,0,12538.704
17,166,catch,"[(1083, 886)]",[],[1],[0.85],horizontal,"(890.0, 762.0)",0.9833333333333333,nan,1,12543.908
17,167,catch,"[(1076, 884)]",[],[1],[0.85],horizontal,"(390.0, 262.0)",0.75,nan,1,12548.6
17,168,catch,"[(1076, 885)]",[],[1],[0.45],horizontal,"(390.0, 262.0)",1.4,0.416,0,12553.271
17,169,catch,"[(859, 85), (679, 720), (169, 794), (710, 894), (618, 914), (175, 629), (608, 936), (609, 656), (169, 657), (247, 531), (1134, 925)]",[],"[0, 0, 0, 0, 0, 0, 0, 0, 0, 0, 1]",[],horizontal,"(890.0, 762.0)",,fix_phase,0,12558.338
17,170,catch,"[(657, 870), (717, 778), (652, 701), (1009, 903)]",[],"[0, 0, 0, 1]",[],vertical,"(390.0, 262.0)",,fix_phase,0,12568.765
18,171,catch,"[(737, 957), (1089, 767)]",[],"[0, 1]",[],horizontal,"(890.0, 262.0)",,fix_phase,0,12571.545
18,172,catch,"[(937, 318), (574, 933), (1029, 903)]",[],"[0, 0, 1]",[],horizontal,"(890.0, 762.0)",,fix_phase,0,12573.542
18,173,catch,"[(706, 163), (1082, 877)]","[(1025, 899)]","[0, 1]",[0.26666666666666666],vertical,"(890.0, 762.0)",,bar_phase,0,12575.859
18,174,catch,"[(1028, 898)]",[],[1],[],vertical,"(890.0, 262.0)",,fix_phase,0,12578.565
18,175,catch,"[(768, 126), (850, 217), (1077, 870)]",[],"[0, 0, 1]",[],horizontal,"(890.0, 762.0)",,fix_phase,0,12580.959
18,176,catch,"[(252, 235), (1097, 893)]",[],"[0, 1]",[],horizontal,"(390.0, 262.0)",,fix_phase,0,12584.701
18,177,catch,"[(1078, 888)]",[],[1],[],horizontal,"(390.0, 262.0)",,fix_phase,0,12586.874
18,178,catch,"[(1063, 845)]","[(999, 881)]",[1],[0.15],horizontal,"(390.0, 262.0)",,bar_phase,0,12589.268
18,179,catch,"[(970, 366), (1082, 890)]",[],"[0, 1]",[],vertical,"(390.0, 762.0)",,cti_phase,0,12591.882
18,180,catch,"[(1112, 875)]",[],[1],[],horizontal,"(890.0, 262.0)",,fix_phase,0,12595.491
19,181,catch,"[(710, 207), (663, 833), (702, 628), (893, 881), (854, 657), (888, 754), (816, 773), (772, 773), (710, 710), (951, 783), (734, 812), (1113, 894)]","[(1042, 900)]","[0, 0, 0, 0, 0, 0, 0, 0, 0, 0, 0, 1]",[0.08333333333333333],vertical,"(390.0, 262.0)",,bar_phase,0,12597.5
19,182,catch,"[(1103, 923)]","[(1058, 902)]",[1],[0.5833333333333334],horizontal,"(390.0, 762.0)",,bar_phase,0,12609.492
19,183,catch,"[(1049, 897)]",[],[1],[0.13333333333333333],vertical,"(390.0, 762.0)",1.2,0.103,0,12612.339
19,184,catch,"[(1109, 871)]",[],[1],[0.4166666666666667],horizontal,"(890.0, 762.0)",1.05,0.377,0,12616.709
19,185,catch,"[(1107, 888)]",[],[1],[],vertical,"(390.0, 762.0)",,cti_phase,0,12621.144
19,186,catch,"[(1122, 883)]","[(1120, 889)]",[1],[0.03333333333333333],horizontal,"(390.0, 762.0)",,bar_phase,0,12625.075
19,187,catch,"[(1141, 843)]",[],[1],[],horizontal,"(390.0, 762.0)",,fix_phase,0,12627.357
19,188,catch,"[(1076, 868)]",[],[1],[0.85],vertical,"(390.0, 262.0)",0.5333333333333333,nan,1,12631.409
19,189,catch,"[(1081, 894)]",[],[1],[],vertical,"(390.0, 262.0)",,cti_phase,0,12640.742
19,190,catch,"[(1091, 891)]",[],[1],[0.85],horizontal,"(890.0, 262.0)",0.9333333333333333,nan,1,12645.489
20,191,catch,"[(1101, 885)]",[],[1],[0.85],vertical,"(890.0, 262.0)",0.6166666666666667,nan,1,12650.747
20,192,catch,"[(1076, 878)]",[],[1],[],horizontal,"(890.0, 762.0)",,cti_phase,0,12654.986
20,193,catch,"[(1085, 877)]",[],[1],[0.21666666666666667],horizontal,"(390.0, 762.0)",1.6166666666666667,0.184,0,12661.958
20,194,catch,"[(1091, 895)]",[],[1],[0.5666666666666667],horizontal,"(390.0, 762.0)",1.15,0.522,0,12667.191
20,195,catch,"[(1103, 898)]",[],[1],[0.85],vertical,"(390.0, 262.0)",0.6,nan,1,12671.791
20,196,catch,"[(1086, 890)]",[],[1],[0.85],vertical,"(890.0, 262.0)",0.8333333333333334,nan,1,12676.574
20,197,catch,"[(1089, 902)]",[],[1],[0.85],vertical,"(890.0, 262.0)",0.5166666666666666,nan,1,12681.448
20,198,catch,"[(1089, 891)]",[],[1],[0.65],vertical,"(390.0, 262.0)",1.4,0.606,0,12686.011
20,199,catch,"[(1096, 878)]",[],[1],[0.85],horizontal,"(890.0, 762.0)",0.5666666666666667,nan,1,12691.293
20,200,catch,"[(1078, 911)]",[],[1],[0.23333333333333334],horizontal,"(890.0, 262.0)",1.5666666666666667,0.196,0,12696.123
21,201,catch,"[(1095, 895)]",[],[1],[0.85],horizontal,"(890.0, 262.0)",1.65,nan,1,12701.887
21,202,catch,"[(1076, 899)]",[],[1],[0.5166666666666666],horizontal,"(890.0, 262.0)",1.5333333333333332,0.475,0,12707.408
21,203,catch,"[(1098, 888)]",[],[1],[0.85],vertical,"(390.0, 762.0)",1.2333333333333334,nan,1,12712.592
21,204,catch,"[(1091, 903)]",[],[1],[0.08333333333333333],horizontal,"(390.0, 762.0)",1.5166666666666666,0.05,0,12717.577
21,205,catch,"[(1100, 885)]",[],[1],[0.85],vertical,"(390.0, 262.0)",1.1333333333333333,nan,1,12722.575
21,206,catch,"[(1097, 885)]",[],[1],[0.85],vertical,"(890.0, 262.0)",1.3166666666666667,nan,1,12727.208
21,207,catch,"[(1098, 904)]",[],[1],[0.43333333333333335],vertical,"(890.0, 262.0)",1.6166666666666667,0.395,0,12732.593
21,208,catch,"[(1100, 896)]",[],[1],[0.3333333333333333],horizontal,"(890.0, 762.0)",1.65,0.301,0,12737.593
21,209,catch,"[(1109, 874)]",[],[1],[0.85],horizontal,"(890.0, 262.0)",1.3666666666666667,nan,1,12742.867
21,210,catch,"[(1087, 883)]",[],[1],[0.5833333333333334],vertical,"(390.0, 762.0)",1.1333333333333333,0.554,0,12748.059
22,211,catch,"[(1102, 889)]",[],[1],[0.85],horizontal,"(390.0, 262.0)",1.05,nan,1,12752.992
22,212,catch,"[(1076, 899)]",[],[1],[0.85],vertical,"(890.0, 762.0)",0.65,nan,1,12757.678
22,213,catch,"[(1095, 884)]",[],[1],[0.85],horizontal,"(890.0, 262.0)",1.25,nan,1,12762.391
22,214,catch,"[(1072, 902)]",[],[1],[0.85],vertical,"(390.0, 762.0)",0.7,nan,1,12767.708
22,215,catch,"[(1091, 902)]",[],[1],[0.35],vertical,"(890.0, 762.0)",1.0833333333333333,0.315,0,12773.693
22,216,catch,"[(1098, 878)]",[],[1],[0.85],vertical,"(390.0, 262.0)",0.7166666666666667,nan,1,12778.51
22,217,catch,"[(1086, 889)]",[],[1],[0.85],horizontal,"(890.0, 762.0)",0.6333333333333333,nan,1,12783.092
22,218,catch,"[(1100, 909)]",[],[1],[0.85],vertical,"(390.0, 762.0)",0.5166666666666666,nan,1,12791.691
22,219,catch,"[(1067, 889)]",[],[1],[0.45],horizontal,"(890.0, 762.0)",1.2333333333333334,0.412,0,12796.442
22,220,catch,"[(1077, 868)]",[],[1],[0.85],vertical,"(890.0, 762.0)",0.5666666666666667,nan,1,12801.104
23,221,catch,"[(1090, 905)]",[],[1],[0.85],horizontal,"(890.0, 262.0)",0.5833333333333334,nan,1,12806.23
23,222,catch,"[(1084, 904)]",[],[1],[0.2],horizontal,"(390.0, 262.0)",1.4,0.165,0,12810.508
23,223,catch,"[(1094, 887)]",[],[1],[0.85],horizontal,"(890.0, 262.0)",0.55,nan,1,12815.141
23,224,catch,"[(1076, 879)]",[],[1],[0.6666666666666666],horizontal,"(390.0, 262.0)",0.8833333333333333,0.622,0,12819.525
23,225,catch,"[(1083, 875)]",[],[1],[],horizontal,"(890.0, 262.0)",,cti_phase,0,12826.808
23,226,catch,"[(1124, 886)]",[],[1],[0.85],horizontal,"(390.0, 262.0)",0.5166666666666666,nan,1,12831.214
23,227,catch,"[(1089, 889)]",[],[1],[0.2833333333333333],vertical,"(390.0, 262.0)",1.2666666666666666,0.247,0,12835.922
23,228,catch,"[(1102, 880)]",[],[1],[0.85],vertical,"(390.0, 762.0)",1.65,"cti_phase,nan",1,12840.443
23,229,catch,"[(1076, 891)]",[],[1],[0.85],horizontal,"(890.0, 262.0)",1.3,nan,1,12846.169
23,230,catch,"[(1076, 888)]",[],[1],[0.5833333333333334],horizontal,"(890.0, 262.0)",0.6166666666666667,0.542,0,12851.064
24,231,catch,"[(1077, 907)]",[],[1],[0.85],vertical,"(890.0, 262.0)",1.2,nan,1,12855.934
24,232,catch,"[(1024, 916)]",[],[1],[0.4666666666666667],vertical,"(890.0, 762.0)",1.1,0.432,0,12861.234
24,233,catch,"[(1174, 901)]",[],[1],[0.85],vertical,"(390.0, 262.0)",1.2166666666666666,nan,1,12866.106
24,234,catch,"[(1077, 889)]",[],[1],[0.13333333333333333],vertical,"(890.0, 262.0)",1.2666666666666666,0.1,0,12871.984
24,235,catch,"[(1120, 891)]",[],[1],[0.85],horizontal,"(890.0, 262.0)",1.1166666666666667,nan,1,12876.212
24,236,catch,"[(1076, 878)]",[],[1],[],vertical,"(890.0, 762.0)",,cti_phase,0,12881.022
24,237,catch,"[(1096, 873)]",[],[1],[],horizontal,"(890.0, 262.0)",,cti_phase,0,12885.27
24,238,catch,"[(1081, 884)]",[],[1],[0.13333333333333333],vertical,"(390.0, 262.0)",1.5166666666666666,0.102,0,12889.974
24,239,catch,"[(1202, 886)]",[],[1],[0.85],horizontal,"(890.0, 762.0)",0.8833333333333333,nan,1,12894.847
24,240,catch,"[(1091, 900)]",[],[1],[0.13333333333333333],horizontal,"(890.0, 262.0)",1.4166666666666667,0.101,0,12899.763
25,241,catch,"[(1096, 884)]",[],[1],[0.85],vertical,"(890.0, 262.0)",0.9,nan,1,12904.463
25,242,catch,"[(1081, 893)]",[],[1],[0.85],horizontal,"(890.0, 762.0)",0.65,nan,1,12909.487
25,243,catch,"[(1076, 881)]",[],[1],[0.85],vertical,"(890.0, 262.0)",0.5333333333333333,nan,1,12913.842
25,244,catch,"[(1086, 889)]",[],[1],[0.5],horizontal,"(390.0, 262.0)",0.9666666666666667,0.457,0,12918.086
25,245,catch,"[(1101, 865)]",[],[1],[0.85],horizontal,"(390.0, 762.0)",0.6,nan,1,12922.725
25,246,catch,"[(107, 375), (536, 694), (684, 423), (247, 226), (528, 671), (165, 638), (951, 383), (170, 620), (526, 386), (478, 463), (544, 715), (483, 269), (530, 391), (514, 682), (247, 373), (536, 313), (1081, 696), (1057, 868)]",[],"[0, 0, 0, 0, 0, 0, 0, 0, 0, 0, 0, 0, 0, 0, 0, 0, 0, 1]",[],horizontal,"(890.0, 762.0)",,cti_phase,0,12926.808
25,247,catch,"[(536, 846), (1008, 894)]","[(1020, 904)]","[0, 1]",[0.2],horizontal,"(390.0, 262.0)",,bar_phase,0,12952.092
25,248,catch,"[(223, 870), (540, 946), (613, 57), (546, 250), (546, 768), (527, 778), (223, 540), (556, 649), (549, 366), (1094, 885)]",[],"[0, 0, 0, 0, 0, 0, 0, 0, 0, 1]",[0.7166666666666667],vertical,"(390.0, 262.0)",0.9166666666666666,0.676,0,12955.174
25,249,catch,"[(1089, 880)]",[],[1],[0.85],horizontal,"(890.0, 262.0)",0.5666666666666667,nan,1,12978.09
25,250,catch,"[(1058, 916)]",[],[1],[0.5833333333333334],vertical,"(890.0, 762.0)",1.3166666666666667,0.553,0,12982.973
26,251,catch,"[(1086, 909)]",[],[1],[0.85],vertical,"(390.0, 762.0)",0.55,nan,1,12988.243
26,252,catch,"[(1105, 893)]",[],[1],[0.5833333333333334],horizontal,"(390.0, 262.0)",1.0333333333333332,0.546,0,12992.758
26,253,catch,"[(1096, 901)]",[],[1],[0.85],vertical,"(390.0, 262.0)",1.3,nan,1,13000.376
26,254,catch,"[(1088, 902)]",[],[1],[0.85],horizontal,"(890.0, 762.0)",0.6666666666666666,nan,1,13005.564
26,255,catch,"[(1087, 906)]",[],[1],[0.45],horizontal,"(890.0, 262.0)",1.55,0.416,0,13010.227
26,256,catch,"[(1081, 900)]",[],[1],[0.85],vertical,"(390.0, 262.0)",1.4333333333333333,nan,1,13015.777
26,257,catch,"[(1056, 900)]",[],[1],[0.85],vertical,"(890.0, 262.0)",0.6333333333333333,nan,1,13020.548
26,258,catch,"[(1057, 915)]",[],[1],[0.85],vertical,"(390.0, 762.0)",1.4833333333333334,nan,1,13025.297
26,259,catch,"[(1067, 897)]",[],[1],[0.55],vertical,"(390.0, 262.0)",1.6666666666666667,0.517,0,13031.277
26,260,catch,"[(1083, 891)]",[],[1],[0.85],horizontal,"(890.0, 762.0)",1.3833333333333333,nan,1,13040.244
27,261,catch,"[(1084, 902)]",[],[1],[0.85],vertical,"(890.0, 262.0)",1.6,nan,1,13045.676
27,262,catch,"[(1077, 891)]",[],[1],[0.85],horizontal,"(890.0, 262.0)",1.2666666666666666,nan,1,13051.126
27,263,catch,"[(1063, 895)]",[],[1],[0.85],vertical,"(890.0, 262.0)",0.6833333333333333,nan,1,13056.444
27,264,catch,"[(1075, 906)]",[],[1],[0.85],vertical,"(890.0, 762.0)",0.7166666666666667,nan,1,13061.226
27,265,catch,"[(1067, 904)]",[],[1],[0.85],vertical,"(890.0, 762.0)",1.3,nan,1,13065.827
27,266,catch,"[(1052, 906)]",[],[1],[0.85],vertical,"(390.0, 762.0)",0.6833333333333333,nan,1,13070.856
27,267,catch,"[(1076, 915)]",[],[1],[0.85],horizontal,"(890.0, 262.0)",0.6,nan,1,13075.361
27,268,catch,"[(202, 239), (310, 806), (317, 386), (519, 212), (515, 265), (318, 187), (319, 269), (525, 202), (527, 196), (411, 210), (221, 391), (1057, 924)]",[],"[0, 0, 0, 0, 0, 0, 0, 0, 0, 0, 0, 1]",[0.85],vertical,"(890.0, 262.0)",0.7333333333333333,nan,1,13080.093
27,269,catch,"[(1074, 898)]",[],[1],[0.5166666666666666],horizontal,"(890.0, 762.0)",1.65,0.474,0,13354.301
27,270,catch,"[(1089, 915)]",[],[1],[0.7833333333333333],vertical,"(890.0, 762.0)",1.4666666666666666,0.752,0,13359.494
28,271,catch,"[(1105, 892)]",[],[1],[0.85],vertical,"(390.0, 262.0)",1.5166666666666666,nan,1,13364.555
28,272,catch,"[(1087, 907)]",[],[1],[0.48333333333333334],horizontal,"(890.0, 262.0)",1.5166666666666666,0.448,0,13369.999
28,273,catch,"[(1089, 901)]",[],[1],[0.85],horizontal,"(890.0, 762.0)",0.5666666666666667,nan,1,13375.291
28,274,catch,"[(1086, 904)]",[],[1],[0.8166666666666667],vertical,"(890.0, 762.0)",0.7166666666666667,0.775,0,13379.793
28,275,catch,"[(1086, 891)]",[],[1],[0.85],horizontal,"(390.0, 762.0)",0.5666666666666667,nan,1,13384.263
28,276,catch,"[(1087, 894)]",[],[1],[0.85],horizontal,"(890.0, 762.0)",0.6666666666666666,nan,1,13388.851
28,277,catch,"[(1077, 908)]",[],[1],[0.85],vertical,"(390.0, 262.0)",0.8666666666666667,nan,1,13393.285
28,278,catch,"[(1083, 906)]",[],[1],[],horizontal,"(890.0, 762.0)",,cti_phase,0,13398.126
28,279,catch,"[(1086, 894)]",[],[1],[0.4666666666666667],horizontal,"(890.0, 262.0)",1.6666666666666667,0.433,0,13402.262
28,280,catch,"[(1093, 891)]",[],[1],[0.85],vertical,"(890.0, 262.0)",1.2166666666666666,nan,1,13406.969
29,281,catch,"[(1086, 915)]",[],[1],[0.85],horizontal,"(890.0, 762.0)",0.5,nan,1,13412.036
29,282,catch,"[(1092, 916)]",[],[1],[0.85],horizontal,"(890.0, 262.0)",0.6166666666666667,nan,1,13416.121
29,283,catch,"[(1076, 904)]",[],[1],[],vertical,"(390.0, 762.0)",,cti_phase,0,13421.079
29,284,catch,"[(1078, 876)]",[],[1],[0.5833333333333334],horizontal,"(390.0, 262.0)",0.8833333333333333,0.551,0,13425.295
29,285,catch,"[(1096, 875)]",[],[1],[0.65],vertical,"(390.0, 262.0)",1.4833333333333334,0.617,0,13430.095
29,286,catch,"[(1093, 872)]",[],[1],[0.85],vertical,"(890.0, 262.0)",1.3,nan,1,13435.045
29,287,catch,"[(1086, 885)]",[],[1],[0.85],horizontal,"(390.0, 762.0)",0.6166666666666667,nan,1,13440.312
29,288,catch,"[(1083, 906)]",[],[1],[0.85],vertical,"(890.0, 262.0)",1.05,nan,1,13444.611
29,289,catch,"[(1088, 900)]",[],[1],[0.85],horizontal,"(890.0, 762.0)",0.8333333333333334,nan,1,13449.778
29,290,catch,"[(1081, 889)]",[],[1],[0.4666666666666667],horizontal,"(890.0, 262.0)",0.5333333333333333,0.432,0,13454.444
30,291,catch,"[(1120, 884)]",[],[1],[0.85],vertical,"(890.0, 262.0)",0.9333333333333333,nan,1,13458.882
30,292,catch,"[(1081, 904)]",[],[1],[0.85],horizontal,"(890.0, 262.0)",1.1166666666666667,nan,1,13463.477
30,293,catch,"[(1078, 914)]",[],[1],[],horizontal,"(390.0, 262.0)",,cti_phase,0,13468.21
30,294,catch,"[(1105, 887)]",[],[1],[0.85],vertical,"(890.0, 262.0)",0.5666666666666667,nan,1,13473.015
30,295,catch,"[(1086, 888)]",[],[1],[0.3333333333333333],horizontal,"(890.0, 262.0)",0.9333333333333333,0.294,0,13477.358
30,296,catch,"[(1099, 894)]",[],[1],[0.85],vertical,"(890.0, 262.0)",0.5166666666666666,nan,1,13482.178
30,297,catch,"[(1047, 880)]",[],[1],[],horizontal,"(890.0, 762.0)",,cti_phase,0,13486.686
30,298,catch,"[(1091, 885)]",[],[1],[0.75],horizontal,"(890.0, 762.0)",0.9666666666666667,0.707,0,13491.243
30,299,catch,"[(1081, 885)]",[],[1],[0.6],vertical,"(390.0, 262.0)",1.2166666666666666,0.561,0,13495.846
30,300,catch,"[(1120, 880)]",[],[1],[0.85],vertical,"(390.0, 762.0)",0.5666666666666667,nan,1,13500.706
31,301,catch,"[(1088, 904)]",[],[1],[0.7833333333333333],vertical,"(390.0, 762.0)",0.9833333333333333,0.738,0,13505.273
31,302,catch,"[(1082, 885)]",[],[1],[0.85],vertical,"(390.0, 262.0)",0.7833333333333333,nan,1,13510.127
31,303,catch,"[(1086, 902)]",[],[1],[0.35],vertical,"(390.0, 762.0)",0.9833333333333333,0.316,0,13514.635
31,304,catch,"[(1090, 895)]",[],[1],[0.85],vertical,"(390.0, 262.0)",1.0166666666666666,nan,1,13519.211
31,305,catch,"[(1083, 901)]",[],[1],[0.85],horizontal,"(890.0, 262.0)",0.7333333333333333,nan,1,13524.212
31,306,catch,"[(1091, 880)]",[],[1],[0.7333333333333333],vertical,"(890.0, 262.0)",0.7333333333333333,0.687,0,13528.811
31,307,catch,"[(1096, 899)]",[],[1],[0.06666666666666667],horizontal,"(390.0, 762.0)",0.6,0.037,0,13533.392
31,308,catch,"[(1097, 884)]",[],[1],[0.85],horizontal,"(890.0, 762.0)",0.8333333333333334,nan,1,13537.36
31,309,catch,"[(1088, 904)]",[],[1],[0.15],vertical,"(390.0, 762.0)",1.35,0.118,0,13541.628
31,310,catch,"[(1117, 874)]",[],[1],[0.8],vertical,"(890.0, 262.0)",1.2666666666666666,0.761,0,13546.293
32,311,catch,"[(1091, 875)]",[],[1],[0.75],vertical,"(390.0, 762.0)",0.7666666666666666,0.704,0,13551.538
32,312,catch,"[(1096, 875)]",[],[1],[0.31666666666666665],horizontal,"(390.0, 762.0)",1.4,0.278,0,13555.672
32,313,catch,"[(1127, 878)]",[],[1],[0.85],horizontal,"(390.0, 262.0)",0.7,nan,1,13560.183
32,314,catch,"[(1088, 885)]",[],[1],[0.8333333333333334],horizontal,"(890.0, 262.0)",1.35,0.788,0,13564.961
32,315,catch,"[(1090, 882)]",[],[1],[0.85],vertical,"(390.0, 762.0)",1.0,nan,1,13570.129
32,316,catch,"[(1091, 889)]",[],[1],[0.05],vertical,"(390.0, 762.0)",1.65,0.019,0,13575.057
32,317,catch,"[(1119, 889)]",[],[1],[0.7166666666666667],horizontal,"(890.0, 762.0)",1.4166666666666667,0.676,0,13579.621
32,318,catch,"[(1102, 885)]",[],[1],[0.85],horizontal,"(890.0, 262.0)",0.7666666666666666,nan,1,13584.929
32,319,catch,"[(1089, 888)]",[],[1],[0.8333333333333334],horizontal,"(890.0, 762.0)",1.5666666666666667,0.789,0,13589.202
32,320,catch,"[(1105, 873)]",[],[1],[0.85],vertical,"(390.0, 762.0)",1.0666666666666667,nan,1,13595.145
33,321,catch,"[(1090, 874)]",[],[1],[0.85],horizontal,"(390.0, 762.0)",0.5166666666666666,nan,1,13599.871
33,322,catch,"[(1087, 906)]",[],[1],[0.85],horizontal,"(890.0, 762.0)",1.2333333333333334,nan,1,13604.429
33,323,catch,"[(1100, 892)]",[],[1],[0.4],horizontal,"(390.0, 762.0)",1.4333333333333333,0.366,0,13609.74
33,324,catch,"[(1089, 885)]",[],[1],[0.8],horizontal,"(890.0, 762.0)",1.5833333333333333,0.754,0,13615.046
33,325,catch,"[(1092, 879)]",[],[1],[0.6666666666666666],vertical,"(890.0, 762.0)",1.3,0.62,0,13620.344
33,326,catch,"[(1094, 883)]",[],[1],[0.85],horizontal,"(390.0, 762.0)",1.45,nan,1,13625.667
33,327,catch,"[(1096, 879)]",[],[1],[0.85],vertical,"(390.0, 762.0)",0.6,nan,1,13630.845
33,328,catch,"[(1072, 865)]",[],[1],[0.43333333333333335],vertical,"(390.0, 262.0)",1.5166666666666666,0.401,0,13635.594
33,329,catch,"[(1105, 881)]",[],[1],"[0.85, 0.85]",vertical,"(890.0, 762.0)",1.35,"0.814,nan",1,13641.029
33,330,catch,"[(1091, 893)]",[],[1],[0.85],vertical,"(890.0, 262.0)",1.3666666666666667,nan,1,13646.461
34,331,catch,"[(1093, 885)]",[],[1],[0.55],horizontal,"(390.0, 262.0)",1.5,0.509,0,13651.726
34,332,catch,"[(1124, 897)]",[],[1],[0.85],horizontal,"(390.0, 762.0)",1.25,nan,1,13656.516
34,333,catch,"[(1086, 881)]",[],[1],[0.7666666666666666],horizontal,"(890.0, 262.0)",0.7666666666666666,0.72,0,13661.579
34,334,catch,"[(1096, 881)]",[],[1],[0.3833333333333333],vertical,"(390.0, 762.0)",1.5666666666666667,0.346,0,13666.146
34,335,catch,"[(1120, 889)]",[],[1],[0.85],vertical,"(890.0, 762.0)",1.0166666666666666,nan,1,13671.229
34,336,catch,"[(1091, 889)]",[],[1],[0.85],vertical,"(890.0, 762.0)",0.7833333333333333,nan,1,13676.211
34,337,catch,"[(1091, 896)]",[],[1],[0.85],horizontal,"(390.0, 762.0)",1.0333333333333332,nan,1,13681.211
34,338,catch,"[(1076, 894)]",[],[1],[0.6333333333333333],vertical,"(390.0, 262.0)",1.6,0.585,0,13690.71
34,339,catch,"[(1092, 890)]",[],[1],[0.7333333333333333],vertical,"(890.0, 762.0)",0.9166666666666666,0.689,0,13696.395
34,340,catch,"[(1090, 895)]",[],[1],[0.8333333333333334],horizontal,"(390.0, 262.0)",1.5333333333333332,0.792,0,13701.03
35,341,catch,"[(1104, 885)]",[],[1],[0.85],horizontal,"(890.0, 762.0)",1.35,nan,1,13706.087
35,342,catch,"[(1082, 889)]",[],[1],[0.85],vertical,"(390.0, 762.0)",1.3333333333333333,nan,1,13711.463
35,343,catch,"[(1086, 889)]",[],[1],[0.8166666666666667],horizontal,"(890.0, 262.0)",1.55,0.775,0,13716.617
35,344,catch,"[(1105, 885)]",[],[1],[0.55],vertical,"(890.0, 762.0)",1.4833333333333334,0.51,0,13721.723
35,345,catch,"[(1116, 868)]",[],[1],[0.85],vertical,"(890.0, 762.0)",1.35,nan,1,13726.579
35,346,catch,"[(1092, 886)]",[],[1],[0.85],vertical,"(390.0, 262.0)",1.3666666666666667,nan,1,13732.145
35,347,catch,"[(1086, 900)]",[],[1],[0.85],horizontal,"(890.0, 762.0)",1.0666666666666667,nan,1,13737.811
35,348,catch,"[(1084, 880)]",[],[1],[0.4666666666666667],horizontal,"(890.0, 262.0)",1.0,0.431,0,13742.489
35,349,catch,"[(1086, 866)]",[],[1],[0.85],horizontal,"(390.0, 762.0)",0.9833333333333333,nan,1,13747.062
35,350,catch,"[(1091, 899)]",[],[1],[0.85],vertical,"(390.0, 762.0)",1.0,nan,1,13751.862
36,351,catch,"[(1086, 891)]",[],[1],[0.85],horizontal,"(390.0, 262.0)",0.8833333333333333,nan,1,13757.02
36,352,catch,"[(1076, 880)]",[],[1],[0.6666666666666666],horizontal,"(390.0, 762.0)",1.1,0.627,0,13762.194
36,353,catch,"[(1101, 883)]",[],[1],[0.85],vertical,"(890.0, 762.0)",1.4,nan,1,13767.447
36,354,catch,"[(1083, 894)]",[],[1],[0.43333333333333335],horizontal,"(890.0, 762.0)",1.4666666666666666,0.393,0,13772.096
36,355,catch,"[(1096, 885)]",[],[1],[0.85],horizontal,"(390.0, 762.0)",0.5,nan,1,13777.212
36,356,catch,"[(1078, 885)]",[],[1],[0.35],vertical,"(890.0, 762.0)",1.25,0.312,0,13781.489
36,357,catch,"[(1096, 876)]",[],[1],[0.85],vertical,"(890.0, 262.0)",1.1833333333333333,nan,1,13786.294
36,358,catch,"[(1092, 898)]",[],[1],[0.8166666666666667],horizontal,"(890.0, 262.0)",1.3833333333333333,0.767,0,13791.265
36,359,catch,"[(1093, 888)]",[],[1],[0.85],vertical,"(890.0, 262.0)",1.1166666666666667,nan,1,13796.465
36,360,catch,"[(1060, 889)]",[],[1],[0.85],horizontal,"(390.0, 762.0)",0.7,nan,1,13801.096
37,361,catch,"[(1076, 876)]",[],[1],[0.85],horizontal,"(890.0, 762.0)",0.6333333333333333,nan,1,13805.776
37,362,catch,"[(1095, 881)]",[],[1],[0.5333333333333333],horizontal,"(890.0, 762.0)",1.6333333333333333,0.497,0,13810.464
37,363,catch,"[(1100, 879)]",[],[1],[0.85],horizontal,"(890.0, 762.0)",0.55,nan,1,13815.695
37,364,catch,"[(1086, 883)]",[],[1],[0.6],vertical,"(890.0, 262.0)",1.3166666666666667,0.565,0,13820.23
37,365,catch,"[(1100, 870)]",[],[1],[0.8333333333333334],vertical,"(390.0, 762.0)",1.1,0.786,0,13825.629
37,366,catch,"[(1096, 887)]",[],[1],[0.85],vertical,"(890.0, 262.0)",1.25,nan,1,13830.451
37,367,catch,"[(1081, 887)]",[],[1],[0.85],horizontal,"(390.0, 762.0)",1.6333333333333333,nan,1,13835.877
37,368,catch,"[(1077, 889)]",[],[1],[0.85],horizontal,"(890.0, 262.0)",0.8333333333333334,nan,1,13841.147
37,369,catch,"[(1100, 888)]",[],[1],[0.45],horizontal,"(390.0, 262.0)",1.2833333333333332,0.416,0,13845.527
37,370,catch,"[(1095, 893)]",[],[1],[0.8333333333333334],vertical,"(390.0, 762.0)",0.6666666666666666,0.786,0,13850.712
38,371,catch,"[(1089, 870)]",[],[1],[0.85],vertical,"(390.0, 762.0)",1.0166666666666666,nan,1,13855.255
38,372,catch,"[(1096, 904)]",[],[1],[0.85],horizontal,"(890.0, 762.0)",0.7166666666666667,nan,1,13859.768
38,373,catch,"[(1089, 885)]",[],[1],[0.85],vertical,"(890.0, 262.0)",1.0833333333333333,nan,1,13864.497
38,374,catch,"[(1096, 901)]",[],[1],[0.75],vertical,"(890.0, 762.0)",0.7333333333333333,0.71,0,13869.613
38,375,catch,"[(1114, 883)]",[],[1],[0.85],vertical,"(890.0, 262.0)",0.6666666666666666,nan,1,13874.316
38,376,catch,"[(1079, 903)]",[],[1],[0.31666666666666665],vertical,"(890.0, 262.0)",1.5666666666666667,0.278,0,13878.979
38,377,catch,"[(1096, 881)]",[],[1],[0.85],horizontal,"(890.0, 262.0)",0.8,nan,1,13884.174
38,378,catch,"[(1079, 889)]",[],[1],[0.85],vertical,"(890.0, 262.0)",0.9666666666666667,nan,1,13888.561
38,379,catch,"[(1079, 879)]",[],[1],[0.7666666666666666],vertical,"(890.0, 262.0)",1.6166666666666667,0.723,0,13893.512
38,380,catch,"[(1091, 885)]",[],[1],[],vertical,"(390.0, 762.0)",,fix_phase,0,13899.261
39,381,catch,"[(1095, 863)]",[],[1],[0.85],vertical,"(890.0, 762.0)",0.6166666666666667,nan,1,13900.786
39,382,catch,"[(1076, 877)]",[],[1],[0.85],horizontal,"(890.0, 762.0)",0.65,nan,1,13905.045
39,383,catch,"[(1086, 875)]",[],[1],[],vertical,"(890.0, 762.0)",,cti_phase,0,13909.411
39,384,catch,"[(1094, 880)]",[],[1],[0.85],vertical,"(890.0, 762.0)",0.55,nan,1,13913.644
39,385,catch,"[(1087, 893)]",[],[1],[0.43333333333333335],vertical,"(390.0, 762.0)",1.4166666666666667,0.397,0,13918.003
39,386,catch,"[(1067, 904)]",[],[1],[0.5],vertical,"(890.0, 762.0)",1.0666666666666667,0.458,0,13922.863
39,387,catch,"[(1095, 875)]",[],[1],[0.85],horizontal,"(890.0, 762.0)",0.9333333333333333,nan,1,13927.928
39,388,catch,"[(1086, 875)]",[],[1],[],vertical,"(890.0, 762.0)",,cti_phase,0,13932.462
39,389,catch,"[(1100, 886)]",[],[1],[0.85],horizontal,"(390.0, 262.0)",0.9333333333333333,nan,1,13936.664
39,390,catch,"[(1088, 895)]",[],[1],[0.65],vertical,"(390.0, 262.0)",1.0,0.61,0,13941.013
40,391,catch,"[(1105, 881)]",[],[1],[0.85],horizontal,"(890.0, 262.0)",0.8666666666666667,nan,1,13946.058
40,392,catch,"[(1092, 873)]",[],[1],[0.3],vertical,"(390.0, 762.0)",1.3666666666666667,0.263,0,13950.828
40,393,catch,"[(1119, 878)]",[],[1],[0.18333333333333332],vertical,"(890.0, 762.0)",1.3166666666666667,0.151,0,13955.545
40,394,catch,"[(1096, 871)]",[],[1],[0.35],vertical,"(390.0, 762.0)",1.3833333333333333,0.315,0,13959.663
40,395,catch,"[(1055, 894)]",[],[1],[0.85],horizontal,"(390.0, 762.0)",1.65,nan,1,13964.678
40,396,catch,"[(1095, 883)]",[],[1],[0.45],vertical,"(890.0, 262.0)",1.5166666666666666,0.417,0,13970.296
40,397,catch,"[(614, 89), (681, 269), (697, 891), (655, 130), (912, 426), (811, 949), (691, 307), (589, 363), (664, 129), (675, 623), (1197, 232), (434, 302), (658, 279), (670, 313), (951, 411), (746, 720), (1035, 323), (710, 313), (854, 197), (763, 441), (738, 609), (917, 645), (686, 452), (691, 352), (753, 274), (662, 521), (681, 615), (874, 649), (676, 90), (695, 581), (830, 631), (753, 356), (869, 580), (899, 769), (991, 192), (756, 325), (970, 616), (1173, 292), (888, 467), (1163, 532), (1149, 349), (1207, 613), (1144, 295), (1253, 983), (743, 920), (1254, 366), (773, 687), (782, 810), (1221, 989), (777, 614), (768, 875), (1259, 373), (787, 565), (873, 633), (1183, 609), (777, 347), (692, 412), (763, 850), (705, 321), (937, 409), (975, 487), (993, 345), (1030, 410), (1250, 331), (821, 834), (768, 739), (921, 521), (874, 376), (893, 633), (763, 511), (983, 701), (787, 468), (781, 641), (869, 374), (869, 646), (835, 415), (868, 391), (1005, 925)]",[],"[0, 0, 0, 0, 0, 0, 0, 0, 0, 0, 0, 0, 0, 0, 0, 0, 0, 0, 0, 0, 0, 0, 0, 0, 0, 0, 0, 0, 0, 0, 0, 0, 0, 0, 0, 0, 0, 0, 0, 0, 0, 0, 0, 0, 0, 0, 0, 0, 0, 0, 0, 0, 0, 0, 0, 0, 0, 0, 0, 0, 0, 0, 0, 0, 0, 0, 0, 0, 0, 0, 0, 0, 0, 0, 0, 0, 0, 1]","[0.85, 0.85]",horizontal,"(390.0, 762.0)",0.5333333333333333,"0.809,nan",1,13975.375
40,398,catch,"[(1099, 897)]",[],[1],[],horizontal,"(890.0, 762.0)",,cti_phase,0,14054.774
40,399,catch,"[(1081, 877)]",[],[1],[0.85],horizontal,"(390.0, 762.0)",0.8666666666666667,nan,1,14059.929
40,400,catch,"[(1032, 910)]",[],[1],[],vertical,"(890.0, 262.0)",,cti_phase,0,14068.785
41,401,catch,"[(1101, 902)]",[],[1],[0.7333333333333333],vertical,"(390.0, 762.0)",1.2166666666666666,0.692,0,14073.045
41,402,catch,"[(1081, 881)]",[],[1],[0.5833333333333334],vertical,"(890.0, 762.0)",1.4833333333333334,0.541,0,14078.257
41,403,catch,"[(1096, 898)]",[],[1],[0.85],horizontal,"(390.0, 262.0)",1.6333333333333333,nan,1,14083.265
41,404,catch,"[(1081, 906)]",[],[1],[0.85],horizontal,"(390.0, 762.0)",0.9,nan,1,14088.697
41,405,catch,"[(1072, 910)]",[],[1],[0.85],horizontal,"(890.0, 762.0)",0.7833333333333333,nan,1,14093.529
41,406,catch,"[(1085, 918)]",[],[1],[0.85],horizontal,"(890.0, 762.0)",1.05,nan,1,14098.38
41,407,catch,"[(1088, 894)]",[],[1],[0.85],horizontal,"(890.0, 762.0)",0.65,nan,1,14103.297
41,408,catch,"[(1091, 898)]",[],[1],[0.85],horizontal,"(390.0, 762.0)",1.4833333333333334,nan,1,14107.929
41,409,catch,"[(1067, 898)]",[],[1],[0.85],vertical,"(890.0, 262.0)",0.6666666666666666,nan,1,14113.853
41,410,catch,"[(1033, 899)]",[],[1],[0.6333333333333333],vertical,"(890.0, 262.0)",1.0166666666666666,0.591,0,14119.157
42,411,catch,"[(1105, 891)]",[],[1],[0.85],vertical,"(390.0, 262.0)",0.5333333333333333,nan,1,14124.557
42,412,catch,"[(1085, 905)]",[],[1],[0.85],horizontal,"(890.0, 262.0)",1.0333333333333332,nan,1,14128.7
42,413,catch,"[(1042, 909)]",[],[1],[0.85],horizontal,"(390.0, 262.0)",1.55,nan,1,14133.597
42,414,catch,"[(1094, 905)]",[],[1],[0.85],horizontal,"(890.0, 262.0)",1.6166666666666667,nan,1,14139.114
42,415,catch,"[(1081, 882)]",[],[1],[0.85],horizontal,"(390.0, 262.0)",1.4,nan,1,14144.433
42,416,catch,"[(950, 646), (1067, 900)]",[],"[0, 1]",[],horizontal,"(890.0, 762.0)",,fix_phase,0,14149.623
42,417,catch,"[(1250, 760), (1140, 857)]",[],"[0, 1]",[],vertical,"(890.0, 262.0)",,fix_phase,0,14151.98
42,418,catch,"[(854, 729), (997, 565), (1197, 802)]",[],"[0, 0, 1]",[],horizontal,"(390.0, 762.0)",,fix_phase,0,14153.795
42,419,catch,"[(1071, 425), (1158, 962), (965, 623), (946, 696), (1031, 642), (1004, 725), (961, 463), (1091, 662), (1033, 627), (1153, 914)]",[],"[0, 0, 0, 0, 0, 0, 0, 0, 0, 1]",[],horizontal,"(890.0, 262.0)",,fix_phase,0,14158.328
42,420,catch,"[(898, 528), (1192, 696), (1032, 560), (1120, 560), (1155, 715), (1117, 614), (1120, 662), (1120, 876)]",[],"[0, 0, 0, 0, 0, 0, 0, 1]",[],horizontal,"(390.0, 262.0)",,fix_phase,0,14165.346
43,421,catch,"[(1014, 759)]",[],[1],[],horizontal,"(890.0, 762.0)",,fix_phase,0,14171.86
43,422,catch,"[(1173, 478), (1197, 629), (1173, 633), (1149, 641), (1220, 546), (917, 580), (1018, 618), (1178, 769)]",[],"[0, 0, 0, 0, 0, 0, 0, 1]",[],vertical,"(890.0, 762.0)",,fix_phase,0,14174.933
43,423,catch,"[(961, 616), (1178, 502), (1091, 614), (1192, 938)]",[],"[0, 0, 0, 1]",[],horizontal,"(890.0, 262.0)",,fix_phase,0,14181.291
43,424,catch,"[(1100, 646), (796, 570), (1163, 594), (1188, 759)]",[],"[0, 0, 0, 1]",[],vertical,"(890.0, 262.0)",,fix_phase,0,14185.479
43,425,catch,"[(1144, 796)]",[],[1],[],horizontal,"(890.0, 762.0)",,fix_phase,0,14189.612
43,426,catch,"[(1120, 776)]",[],[1],[],horizontal,"(890.0, 762.0)",,fix_phase,0,14191.078
43,427,catch,"[(1087, 890)]",[],[1],[],horizontal,"(890.0, 762.0)",,fix_phase,0,14192.63
43,428,catch,"[(1189, 507), (1227, 580), (1041, 943)]",[],"[0, 0, 1]",[],horizontal,"(890.0, 762.0)",,fix_phase,0,14194.057
43,429,catch,"[(1192, 647), (1047, 638), (758, 589), (1202, 933)]",[],"[0, 0, 0, 1]",[],horizontal,"(390.0, 762.0)",,fix_phase,0,14196.663
43,430,catch,"[(1207, 943)]","[(1201, 948)]",[1],[0.26666666666666666],vertical,"(890.0, 262.0)",,bar_phase,0,14199.964
44,431,catch,"[(1073, 739), (1163, 513), (1091, 655), (1073, 513), (994, 657), (792, 537), (1033, 657), (1001, 658), (1072, 565), (1139, 618), (1168, 676), (1158, 652), (1055, 1010), (1149, 623), (1009, 665), (796, 943), (776, 657), (1120, 676), (1188, 657), (946, 679), (1004, 783), (1046, 652), (1062, 788)]",[],"[0, 0, 0, 0, 0, 0, 0, 0, 0, 0, 0, 0, 0, 0, 0, 0, 0, 0, 0, 0, 0, 0, 1]",[],vertical,"(890.0, 762.0)",,fix_phase,0,14202.254
44,432,catch,"[(985, 701), (1089, 889)]",[],"[0, 1]",[0.5833333333333334],horizontal,"(390.0, 762.0)",1.5166666666666666,0.547,0,14266.398
44,433,catch,"[(1091, 881)]",[],[1],[0.85],vertical,"(890.0, 762.0)",0.6166666666666667,nan,1,14415.064
44,434,catch,"[(1076, 893)]",[],[1],[0.85],vertical,"(390.0, 762.0)",0.8833333333333333,nan,1,14419.282
44,435,catch,"[(1086, 893)]",[],[1],[0.85],vertical,"(390.0, 762.0)",0.6333333333333333,nan,1,14424.398
44,436,catch,"[(1076, 880)]",[],[1],[0.85],horizontal,"(890.0, 262.0)",1.1666666666666667,nan,1,14429.053
44,437,catch,"[(1098, 892)]",[],[1],[0.85],horizontal,"(390.0, 262.0)",0.55,nan,1,14434.529
44,438,catch,"[(1039, 881)]",[],[1],[0.85],vertical,"(890.0, 262.0)",1.3333333333333333,nan,1,14439.22
44,439,catch,"[(1067, 883)]",[],[1],[0.6],horizontal,"(390.0, 762.0)",1.0666666666666667,0.573,0,14444.566
44,440,catch,"[(1123, 892)]",[],[1],[0.6833333333333333],vertical,"(890.0, 262.0)",1.35,0.639,0,14449.265
45,441,catch,"[(1111, 868)]",[],[1],[0.7166666666666667],vertical,"(390.0, 762.0)",1.3166666666666667,0.68,0,14454.857
45,442,catch,"[(1081, 885)]",[],[1],[0.85],vertical,"(390.0, 262.0)",1.6833333333333333,nan,1,14460.18
45,443,catch,"[(1086, 889)]",[],[1],[0.85],horizontal,"(390.0, 762.0)",1.2833333333333332,nan,1,14466.023
45,444,catch,"[(1085, 877)]",[],[1],[0.5166666666666666],vertical,"(390.0, 762.0)",1.3,0.478,0,14471.081
45,445,catch,"[(1100, 884)]",[],[1],[0.85],vertical,"(890.0, 762.0)",1.1833333333333333,nan,1,14475.88
45,446,catch,"[(1103, 886)]",[],[1],[0.85],vertical,"(390.0, 262.0)",0.5833333333333334,nan,1,14480.732
45,447,catch,"[(1081, 884)]",[],[1],[0.85],vertical,"(890.0, 762.0)",0.7166666666666667,nan,1,14485.261
45,448,catch,"[(1090, 895)]",[],[1],[0.2833333333333333],vertical,"(390.0, 762.0)",1.2833333333333332,0.25,0,14490.098
45,449,catch,"[(1100, 880)]",[],[1],[0.85],horizontal,"(890.0, 262.0)",0.5166666666666666,nan,1,14495.013
45,450,catch,"[(1081, 887)]",[],[1],[0.55],horizontal,"(390.0, 762.0)",1.0833333333333333,0.508,0,14499.448
46,451,catch,"[(1093, 878)]",[],[1],[0.85],vertical,"(390.0, 762.0)",1.25,nan,1,14504.597
46,452,catch,"[(1079, 897)]",[],[1],[0.85],vertical,"(390.0, 262.0)",0.6333333333333333,nan,1,14509.946
46,453,catch,"[(1086, 897)]",[],[1],[0.55],vertical,"(890.0, 762.0)",0.5833333333333334,0.511,0,14514.497
46,454,catch,"[(1099, 899)]",[],[1],[0.85],horizontal,"(890.0, 262.0)",0.55,nan,1,14518.653
46,455,catch,"[(1108, 894)]",[],[1],[0.85],vertical,"(390.0, 762.0)",0.8666666666666667,nan,1,14522.782
46,456,catch,"[(1081, 889)]",[],[1],[0.85],vertical,"(390.0, 262.0)",0.7166666666666667,nan,1,14527.564
46,457,catch,"[(1086, 904)]",[],[1],[0.5],vertical,"(390.0, 262.0)",0.8666666666666667,0.459,0,14532.287
46,458,catch,"[(1129, 886)]",[],[1],[0.7333333333333333],horizontal,"(890.0, 262.0)",1.4333333333333333,0.691,0,14536.914
46,459,catch,"[(1135, 883)]",[],[1],[0.85],vertical,"(890.0, 262.0)",0.6666666666666666,nan,1,14542.042
46,460,catch,"[(1094, 894)]",[],[1],[0.8],vertical,"(390.0, 262.0)",1.3,0.753,0,14546.347
47,461,catch,"[(1091, 880)]",[],[1],[0.85],horizontal,"(390.0, 762.0)",0.7,nan,1,14551.565
47,462,catch,"[(1078, 885)]",[],[1],[0.85],vertical,"(890.0, 262.0)",0.5166666666666666,nan,1,14555.801
47,463,catch,"[(1078, 894)]",[],[1],[0.85],horizontal,"(390.0, 262.0)",0.8,nan,1,14560.482
47,464,catch,"[(1086, 870)]",[],[1],[0.7666666666666666],vertical,"(390.0, 262.0)",0.7833333333333333,0.733,0,14565.091
47,465,catch,"[(1129, 890)]",[],[1],[0.85],vertical,"(390.0, 262.0)",1.2,nan,1,14570.113
47,466,catch,"[(1096, 891)]",[],[1],[0.85],vertical,"(390.0, 262.0)",1.1666666666666667,nan,1,14574.736
47,467,catch,"[(1098, 896)]",[],[1],[0.7666666666666666],horizontal,"(390.0, 762.0)",1.5666666666666667,0.721,0,14579.645
47,468,catch,"[(1115, 877)]",[],[1],[0.85],vertical,"(890.0, 262.0)",0.8,nan,1,14584.881
47,469,catch,"[(1100, 899)]",[],[1],[0.85],horizontal,"(390.0, 762.0)",0.65,nan,1,14589.593
47,470,catch,"[(1072, 887)]",[],[1],[0.85],horizontal,"(890.0, 262.0)",0.5333333333333333,nan,1,14593.923
48,471,catch,"[(1100, 887)]",[],[1],[0.85],vertical,"(390.0, 262.0)",0.7166666666666667,nan,1,14598.345
48,472,catch,"[(1146, 884)]",[],[1],[0.6333333333333333],vertical,"(890.0, 262.0)",0.9166666666666666,0.587,0,14603.364
48,473,catch,"[(1138, 898)]",[],[1],[0.85],horizontal,"(390.0, 762.0)",1.2,nan,1,14608.181
48,474,catch,"[(1081, 893)]",[],[1],[0.1],vertical,"(890.0, 762.0)",1.3833333333333333,0.067,0,14613.513
48,475,catch,"[(1094, 880)]",[],[1],[0.85],horizontal,"(390.0, 262.0)",0.85,nan,1,14617.999
48,476,catch,"[(1086, 905)]",[],[1],[0.85],horizontal,"(390.0, 262.0)",0.9166666666666666,nan,1,14622.774
48,477,catch,"[(1088, 888)]",[],[1],[0.08333333333333333],vertical,"(890.0, 762.0)",1.35,0.052,0,14627.329
48,478,catch,"[(1105, 879)]",[],[1],[0.7166666666666667],horizontal,"(390.0, 262.0)",1.1666666666666667,0.673,0,14632.333
48,479,catch,"[(1113, 897)]",[],[1],[0.85],vertical,"(890.0, 762.0)",0.65,nan,1,14637.45
48,480,catch,"[(1097, 898)]",[],[1],[0.13333333333333333],vertical,"(890.0, 762.0)",1.2666666666666666,0.105,0,14641.903
49,481,catch,"[(1116, 904)]",[],[1],[0.85],horizontal,"(890.0, 262.0)",0.5333333333333333,nan,1,14646.405
49,482,catch,"[(1096, 902)]",[],[1],[0.31666666666666665],vertical,"(890.0, 762.0)",1.2833333333333332,0.28,0,14650.503
49,483,catch,"[(1110, 879)]",[],[1],[0.45],horizontal,"(390.0, 762.0)",1.4,0.412,0,14655.049
49,484,catch,"[(1100, 897)]",[],[1],[0.75],horizontal,"(890.0, 762.0)",1.4,0.711,0,14659.479
49,485,catch,"[(1122, 882)]",[],[1],[0.85],horizontal,"(890.0, 762.0)",1.1333333333333333,nan,1,14664.982
49,486,catch,"[(1095, 882)]",[],[1],[0.85],horizontal,"(890.0, 262.0)",1.25,nan,1,14669.914
49,487,catch,"[(1096, 880)]",[],[1],[0.75],vertical,"(390.0, 762.0)",1.25,0.699,0,14675.541
49,488,catch,"[(1118, 885)]",[],[1],[0.85],vertical,"(390.0, 762.0)",0.9333333333333333,nan,1,14680.746
49,489,catch,"[(1099, 909)]",[],[1],[0.85],vertical,"(390.0, 262.0)",0.8666666666666667,nan,1,14685.716
49,490,catch,"[(1096, 899)]",[],[1],[0.85],vertical,"(390.0, 262.0)",0.8166666666666667,nan,1,14690.434
50,491,catch,"[(1097, 907)]",[],[1],[0.6166666666666667],horizontal,"(390.0, 262.0)",1.4333333333333333,0.584,0,14695.101
50,492,catch,"[(1104, 875)]",[],[1],[0.85],horizontal,"(390.0, 262.0)",0.8833333333333333,nan,1,14699.931
50,493,catch,"[(1099, 894)]",[],[1],[0.6333333333333333],vertical,"(890.0, 262.0)",1.25,0.588,0,14704.667
50,494,catch,"[(1107, 881)]",[],[1],[0.85],vertical,"(890.0, 762.0)",0.6666666666666666,nan,1,14709.516
50,495,catch,"[(1086, 880)]",[],[1],[],horizontal,"(390.0, 762.0)",,cti_phase,0,14714.131
50,496,catch,"[(1105, 891)]",[],[1],[0.85],horizontal,"(390.0, 262.0)",1.3,nan,1,14719.232
50,497,catch,"[(1105, 881)]",[],[1],[0.48333333333333334],vertical,"(390.0, 262.0)",1.1166666666666667,0.448,0,14724.633
50,498,catch,"[(1105, 879)]",[],[1],[0.85],vertical,"(390.0, 262.0)",1.0666666666666667,nan,1,14729.416
50,499,catch,"[(1099, 890)]",[],[1],[0.85],vertical,"(890.0, 262.0)",0.7,nan,1,14734.41
50,500,catch,"[(1086, 890)]",[],[1],[0.8166666666666667],horizontal,"(390.0, 262.0)",0.85,0.766,0,14738.948
51,501,catch,"[(1096, 873)]",[],[1],[0.3833333333333333],horizontal,"(890.0, 762.0)",1.05,0.343,0,14743.891
51,502,catch,"[(1097, 894)]",[],[1],[0.85],vertical,"(390.0, 762.0)",0.8666666666666667,nan,1,14748.583
51,503,catch,"[(1086, 881)]",[],[1],[0.85],horizontal,"(890.0, 262.0)",0.7666666666666666,nan,1,14753.242
51,504,catch,"[(1086, 888)]",[],[1],[0.3],vertical,"(390.0, 762.0)",1.0666666666666667,0.266,0,14757.999
51,505,catch,"[(1097, 885)]",[],[1],[0.26666666666666666],vertical,"(890.0, 762.0)",1.1333333333333333,0.227,0,14762.449
51,506,catch,"[(1093, 880)]",[],[1],[0.85],horizontal,"(890.0, 762.0)",0.5833333333333334,nan,1,14766.93
51,507,catch,"[(1090, 895)]",[],[1],[0.8],horizontal,"(390.0, 262.0)",0.8666666666666667,0.766,0,14771.52
51,508,catch,"[(1100, 888)]",[],[1],[0.7166666666666667],vertical,"(390.0, 262.0)",1.2,0.676,0,14776.232
51,509,catch,"[(1109, 875)]",[],[1],[0.85],horizontal,"(890.0, 762.0)",1.0166666666666666,nan,1,14781.132
51,510,catch,"[(1100, 899)]",[],[1],[0.06666666666666667],horizontal,"(390.0, 262.0)",1.5,0.035,0,14785.814
52,511,catch,"[(1101, 876)]",[],[1],[0.8],horizontal,"(390.0, 262.0)",1.4,0.756,0,14790.655
52,512,catch,"[(1100, 887)]",[],[1],[0.85],vertical,"(890.0, 762.0)",1.3166666666666667,nan,1,14795.858
52,513,catch,"[(1095, 876)]",[],[1],[0.85],horizontal,"(890.0, 262.0)",1.1666666666666667,nan,1,14800.899
52,514,catch,"[(1081, 889)]",[],[1],[0.85],vertical,"(890.0, 262.0)",0.6666666666666666,nan,1,14805.577
52,515,catch,"[(1084, 899)]",[],[1],[0.36666666666666664],horizontal,"(390.0, 762.0)",1.5666666666666667,0.328,0,14810.479
52,516,catch,"[(1094, 871)]",[],[1],[0.5666666666666667],horizontal,"(390.0, 762.0)",1.3166666666666667,0.524,0,14815.665
52,517,catch,"[(1102, 869)]",[],[1],[0.85],vertical,"(890.0, 762.0)",0.5833333333333334,nan,1,14820.967
52,518,catch,"[(1086, 900)]",[],[1],[0.85],horizontal,"(890.0, 762.0)",0.6,nan,1,14825.502
52,519,catch,"[(1083, 902)]",[],[1],[0.85],vertical,"(890.0, 762.0)",0.65,nan,1,14830.381
52,520,catch,"[(1088, 896)]",[],[1],[0.85],horizontal,"(890.0, 262.0)",0.5,nan,1,14834.877
53,521,catch,"[(1083, 883)]",[],[1],[],vertical,"(890.0, 762.0)",,cti_phase,0,14839.309
53,522,catch,"[(1092, 875)]",[],[1],[0.85],vertical,"(390.0, 262.0)",1.0333333333333332,nan,1,14844.116
53,523,catch,"[(1096, 885)]",[],[1],[0.85],vertical,"(390.0, 262.0)",1.2833333333333332,nan,1,14848.825
53,524,catch,"[(1096, 899)]",[],[1],[0.85],horizontal,"(390.0, 762.0)",0.9166666666666666,nan,1,14853.804
53,525,catch,"[(1083, 892)]",[],[1],[],vertical,"(890.0, 762.0)",,cti_phase,0,14858.948
53,526,catch,"[(1110, 884)]",[],[1],[0.85],vertical,"(390.0, 762.0)",0.9333333333333333,nan,1,14863.632
53,527,catch,"[(1083, 902)]",[],[1],[0.85],vertical,"(890.0, 262.0)",1.0833333333333333,nan,1,14868.136
53,528,catch,"[(1091, 889)]",[],[1],[0.6],vertical,"(390.0, 262.0)",1.3666666666666667,0.558,0,14872.855
53,529,catch,"[(1114, 882)]",[],[1],[0.85],vertical,"(890.0, 762.0)",0.5166666666666666,nan,1,14877.761
53,530,catch,"[(1076, 885)]",[],[1],[0.85],horizontal,"(390.0, 762.0)",0.6333333333333333,nan,1,14882.405
54,531,catch,"[(1081, 884)]",[],[1],[0.15],horizontal,"(890.0, 762.0)",1.45,0.116,0,14886.747
54,532,catch,"[(1096, 885)]",[],[1],[0.6333333333333333],horizontal,"(890.0, 262.0)",1.2833333333333332,0.592,0,14891.315
54,533,catch,"[(1113, 884)]",[],[1],[0.85],vertical,"(390.0, 762.0)",0.6666666666666666,nan,1,14896.412
54,534,catch,"[(1101, 891)]",[],[1],[0.7],horizontal,"(390.0, 262.0)",1.1833333333333333,0.659,0,14900.915
54,535,catch,"[(1076, 885)]",[],[1],[],vertical,"(890.0, 762.0)",,cti_phase,0,14906.049
54,536,catch,"[(1115, 877)]",[],[1],[0.36666666666666664],horizontal,"(390.0, 762.0)",1.45,0.332,0,14910.182
54,537,catch,"[(1103, 885)]",[],[1],[0.85],horizontal,"(390.0, 262.0)",0.9333333333333333,nan,1,14915.149
54,538,catch,"[(1091, 886)]",[],[1],[0.85],vertical,"(390.0, 262.0)",0.9166666666666666,nan,1,14920.182
54,539,catch,"[(1081, 875)]",[],[1],[0.45],vertical,"(890.0, 762.0)",0.7,0.422,0,14924.899
54,540,catch,"[(1115, 897)]",[],[1],[0.85],horizontal,"(390.0, 262.0)",0.5833333333333334,nan,1,14929.115
55,541,catch,"[(1081, 881)]",[],[1],[0.85],horizontal,"(890.0, 262.0)",0.9,nan,1,14933.437
55,542,catch,"[(1081, 894)]",[],[1],[],vertical,"(890.0, 762.0)",,cti_phase,0,14938.532
55,543,catch,"[(1112, 872)]",[],[1],[0.4666666666666667],horizontal,"(890.0, 762.0)",0.9333333333333333,0.427,0,14942.38
55,544,catch,"[(1100, 873)]",[],[1],[0.85],vertical,"(390.0, 762.0)",0.5166666666666666,nan,1,14946.567
55,545,catch,"[(1081, 878)]",[],[1],[0.85],horizontal,"(390.0, 762.0)",1.05,nan,1,14951.033
55,546,catch,"[(1105, 888)]",[],[1],[0.85],horizontal,"(890.0, 762.0)",1.05,nan,1,14956.216
55,547,catch,"[(1081, 885)]",[],[1],[0.85],vertical,"(890.0, 762.0)",1.2166666666666666,nan,1,14961.43
55,548,catch,"[(1076, 881)]",[],[1],[0.85],vertical,"(890.0, 262.0)",0.55,nan,1,14966.482
55,549,catch,"[(1083, 885)]",[],[1],[0.85],vertical,"(890.0, 262.0)",0.5666666666666667,nan,1,14970.815
55,550,catch,"[(1081, 907)]",[],[1],[0.3333333333333333],horizontal,"(890.0, 262.0)",1.6166666666666667,0.305,0,14975.583
56,551,catch,"[(1114, 893)]",[],[1],[0.21666666666666667],vertical,"(890.0, 762.0)",1.4666666666666666,0.18,0,14980.44
56,552,catch,"[(1116, 878)]",[],[1],[0.85],vertical,"(890.0, 262.0)",0.65,nan,1,14985.392
56,553,catch,"[(1082, 884)]",[],[1],[0.85],horizontal,"(390.0, 262.0)",0.5166666666666666,nan,1,14989.985
56,554,catch,"[(1085, 901)]",[],[1],[],vertical,"(890.0, 762.0)",,cti_phase,0,14994.422
56,555,catch,"[(1097, 885)]",[],[1],[0.48333333333333334],horizontal,"(390.0, 762.0)",1.0833333333333333,0.447,0,14999.299
56,556,catch,"[(1113, 882)]",[],[1],[0.85],horizontal,"(390.0, 262.0)",1.2166666666666666,nan,1,15004.166
56,557,catch,"[(1096, 893)]",[],[1],[0.5166666666666666],horizontal,"(890.0, 262.0)",1.5,0.475,0,15009.548
56,558,catch,"[(1115, 884)]",[],[1],[0.7],horizontal,"(390.0, 262.0)",1.2333333333333334,0.657,0,15014.598
56,559,catch,"[(1113, 885)]",[],[1],[0.85],vertical,"(390.0, 762.0)",0.8,nan,1,15019.382
56,560,catch,"[(1088, 875)]",[],[1],[0.85],horizontal,"(890.0, 262.0)",1.0,nan,1,15023.998
57,561,catch,"[(1093, 894)]",[],[1],[0.7333333333333333],horizontal,"(890.0, 762.0)",1.2333333333333334,0.687,0,15029.023
57,562,catch,"[(1119, 870)]",[],[1],[0.85],horizontal,"(890.0, 762.0)",1.3333333333333333,nan,1,15033.55
57,563,catch,"[(1038, 197), (452, 691), (184, 671), (194, 227), (445, 337), (233, 339), (340, 139), (353, 250), (1091, 151), (1139, 229), (1089, 260), (348, 362), (1099, 887)]",[],"[0, 0, 0, 0, 0, 0, 0, 0, 0, 0, 0, 0, 1]",[0.85],vertical,"(890.0, 262.0)",1.6166666666666667,nan,1,15038.602
57,564,catch,"[(1002, 671), (1100, 870)]",[],"[0, 1]",[],vertical,"(390.0, 262.0)",,fix_phase,0,15098.481
57,565,catch,"[(893, 793), (999, 807), (850, 815), (989, 831), (951, 852), (1107, 894)]","[(1086, 901)]","[0, 0, 0, 0, 0, 1]",[0.06666666666666667],vertical,"(390.0, 262.0)",,bar_phase,0,15100.949
57,566,catch,"[(917, 793), (932, 654), (885, 952), (930, 647), (1067, 666), (1077, 905)]",[],"[0, 0, 0, 0, 0, 1]",[],vertical,"(890.0, 262.0)",,fix_phase,0,15105.067
57,567,catch,"[(1095, 861)]","[(999, 876)]",[1],[0.36666666666666664],vertical,"(890.0, 262.0)",,bar_phase,0,15111.808
57,568,catch,"[(1090, 896)]",[],[1],[],horizontal,"(390.0, 762.0)",,cti_phase,0,15114.54
57,569,catch,"[(1038, 696), (828, 614), (946, 933), (1004, 884), (892, 675), (1094, 879)]",[],"[0, 0, 0, 0, 0, 1]",[],horizontal,"(890.0, 762.0)",,fix_phase,0,15118.494
57,570,catch,"[(869, 620), (1102, 873)]",[],"[0, 1]",[],horizontal,"(390.0, 762.0)",,fix_phase,0,15122.962
58,571,catch,"[(1139, 754)]","[(1139, 770)]",[1],[0.05],vertical,"(390.0, 262.0)",,bar_phase,0,15128.876
58,572,catch,"[(1067, 786)]","[(1146, 781)]",[1],[0.05],vertical,"(890.0, 262.0)",,bar_phase,0,15134.517
58,573,catch,"[(1138, 778)]",[],[1],[],horizontal,"(390.0, 262.0)",,fix_phase,0,15137.204
58,574,catch,"[(1120, 813)]",[],[1],[],horizontal,"(890.0, 262.0)",,fix_phase,0,15142.483
58,575,catch,"[(1125, 836)]",[],[1],[],vertical,"(390.0, 262.0)",,fix_phase,0,15148.299
58,576,catch,"[(1158, 502), (1053, 841)]",[],"[0, 1]",[],vertical,"(390.0, 762.0)",,fix_phase,0,15151.434
58,577,catch,"[(937, 495), (1066, 886)]",[],"[0, 1]",[],vertical,"(890.0, 262.0)",,fix_phase,0,15161.391
58,578,catch,"[(1100, 858)]",[],[1],[0.21666666666666667],horizontal,"(390.0, 262.0)",1.1166666666666667,0.183,0,15174.331
58,579,catch,"[(1069, 889)]",[],[1],[0.18333333333333332],vertical,"(890.0, 762.0)",1.6666666666666667,0.148,0,15178.684
58,580,catch,"[(1119, 884)]",[],[1],[0.85],horizontal,"(890.0, 262.0)",1.0833333333333333,nan,1,15184.182
59,581,catch,"[(1097, 910)]",[],[1],[0.85],horizontal,"(390.0, 262.0)",0.75,nan,1,15189.199
59,582,catch,"[(1093, 858)]",[],[1],[0.85],vertical,"(890.0, 262.0)",0.6,nan,1,15193.784
59,583,catch,"[(1092, 908)]",[],[1],[0.85],horizontal,"(390.0, 262.0)",1.3,nan,1,15200.154
59,584,catch,"[(1087, 894)]",[],[1],[0.4666666666666667],vertical,"(890.0, 262.0)",1.3,0.429,0,15205.156
59,585,catch,"[(1081, 878)]",[],[1],[0.85],horizontal,"(390.0, 262.0)",1.2666666666666666,nan,1,15209.608
59,586,catch,"[(1100, 881)]",[],[1],[0.85],horizontal,"(890.0, 262.0)",1.1333333333333333,nan,1,15214.451
59,587,catch,"[(1086, 888)]",[],[1],[0.85],horizontal,"(890.0, 762.0)",1.5,nan,1,15219.595
59,588,catch,"[(1117, 888)]",[],[1],[0.2833333333333333],horizontal,"(890.0, 262.0)",1.5,0.251,0,15224.977
59,589,catch,"[(1110, 868)]",[],[1],[0.85],vertical,"(890.0, 262.0)",1.2666666666666666,nan,1,15230.116
59,590,catch,"[(1082, 870)]",[],[1],[0.16666666666666666],vertical,"(890.0, 762.0)",0.9833333333333333,0.136,0,15234.929
60,591,catch,"[(1111, 773)]",[],[1],[0.85],horizontal,"(890.0, 762.0)",1.3166666666666667,nan,1,15239.291
60,592,catch,"[(1019, 909)]",[],[1],[0.85],horizontal,"(890.0, 762.0)",1.3,nan,1,15244.284
60,593,catch,"[(1086, 902)]",[],[1],[0.85],vertical,"(390.0, 262.0)",0.6333333333333333,nan,1,15249.184
60,594,catch,"[(1104, 902)]",[],[1],[0.85],vertical,"(390.0, 762.0)",1.3166666666666667,nan,1,15253.389
60,595,catch,"[(1097, 904)]",[],[1],[0.85],horizontal,"(890.0, 262.0)",0.95,nan,1,15260.531
60,596,catch,"[(1076, 888)]",[],[1],[0.85],vertical,"(390.0, 762.0)",0.9333333333333333,nan,1,15265.488
60,597,catch,"[(1091, 890)]",[],[1],[0.85],horizontal,"(390.0, 762.0)",1.55,nan,1,15270.448
60,598,catch,"[(1096, 875)]",[],[1],[0.85],vertical,"(390.0, 762.0)",0.9,nan,1,15275.667
60,599,catch,"[(1144, 897)]",[],[1],[0.85],horizontal,"(890.0, 762.0)",1.1833333333333333,nan,1,15280.467
60,600,catch,"[(1081, 902)]",[],[1],[0.85],horizontal,"(390.0, 262.0)",1.6,nan,1,15285.898
61,601,catch,"[(1176, 892)]",[],[1],[0.85],horizontal,"(390.0, 762.0)",1.0166666666666666,nan,1,15291.311
61,602,catch,"[(1076, 879)]",[],[1],[0.85],horizontal,"(890.0, 262.0)",1.3166666666666667,nan,1,15296.467
61,603,catch,"[(1142, 881)]",[],[1],[],horizontal,"(890.0, 762.0)",,cti_phase,0,15301.684
61,604,catch,"[(1081, 884)]",[],[1],[0.3333333333333333],horizontal,"(890.0, 762.0)",1.1,0.297,0,15311.617
61,605,catch,"[(1120, 868)]",[],[1],[0.85],horizontal,"(890.0, 762.0)",1.2333333333333334,nan,1,15316.001
61,606,catch,"[(1082, 892)]",[],[1],[0.85],horizontal,"(390.0, 262.0)",0.7833333333333333,nan,1,15321.201
61,607,catch,"[(1079, 867)]",[],[1],[0.25],vertical,"(890.0, 262.0)",1.0833333333333333,0.215,0,15325.732
61,608,catch,"[(1086, 864)]",[],[1],[0.85],horizontal,"(890.0, 262.0)",1.6,nan,1,15330.533
61,609,catch,"[(1081, 901)]",[],[1],[0.85],vertical,"(390.0, 262.0)",0.5166666666666666,nan,1,15335.934
61,610,catch,"[(1084, 902)]",[],[1],[0.4166666666666667],horizontal,"(890.0, 762.0)",1.55,0.381,0,15340.151
62,611,catch,"[(1168, 889)]",[],[1],[0.85],horizontal,"(890.0, 762.0)",0.7,nan,1,15345.099
62,612,catch,"[(1086, 899)]",[],[1],[0.4166666666666667],vertical,"(390.0, 762.0)",1.3666666666666667,0.376,0,15349.933
62,613,catch,"[(1143, 871)]",[],[1],[0.11666666666666667],vertical,"(890.0, 762.0)",1.2333333333333334,0.084,0,15354.892
62,614,catch,"[(1162, 860)]",[],[1],[0.3333333333333333],vertical,"(390.0, 262.0)",1.3166666666666667,0.297,0,15359.184
62,615,catch,"[(1102, 875)]",[],[1],[0.85],horizontal,"(890.0, 762.0)",0.5333333333333333,nan,1,15364.167
62,616,catch,"[(1076, 896)]",[],[1],[0.85],vertical,"(390.0, 262.0)",1.1166666666666667,nan,1,15368.9
62,617,catch,"[(1082, 876)]",[],[1],[0.85],horizontal,"(890.0, 262.0)",0.85,nan,1,15374.384
62,618,catch,"[(1081, 897)]",[],[1],[0.85],horizontal,"(390.0, 262.0)",1.3666666666666667,nan,1,15378.966
62,619,catch,"[(1091, 886)]",[],[1],[0.85],horizontal,"(890.0, 262.0)",0.8,nan,1,15384.218
62,620,catch,"[(1075, 885)]",[],[1],[0.85],vertical,"(890.0, 262.0)",0.9666666666666667,nan,1,15388.811
63,621,catch,"[(1072, 903)]",[],[1],[0.1],horizontal,"(890.0, 262.0)",0.9,0.068,0,15393.497
63,622,catch,"[(1065, 881)]",[],[1],[],vertical,"(390.0, 262.0)",,cti_phase,0,15397.872
63,623,catch,"[(1086, 901)]",[],[1],[0.85],vertical,"(890.0, 762.0)",0.55,nan,1,15402.432
63,624,catch,"[(1072, 904)]",[],[1],[],horizontal,"(390.0, 262.0)",,cti_phase,0,15409.567
63,625,catch,"[(1120, 889)]",[],[1],[0.3833333333333333],horizontal,"(890.0, 262.0)",1.4666666666666666,0.35,0,15413.262
63,626,catch,"[(1067, 881)]",[],[1],[0.6333333333333333],horizontal,"(890.0, 262.0)",0.7333333333333333,0.601,0,15418.346
63,627,catch,"[(1058, 902)]",[],[1],[0.65],horizontal,"(890.0, 762.0)",1.3166666666666667,0.615,0,15422.698
63,628,catch,"[(1113, 869)]",[],[1],[0.85],horizontal,"(390.0, 762.0)",0.9166666666666666,nan,1,15429.713
63,629,catch,"[(1099, 865)]",[],[1],[0.1],horizontal,"(390.0, 762.0)",0.5,0.068,0,15434.701
63,630,catch,"[(1096, 875)]",[],[1],[0.85],vertical,"(390.0, 262.0)",0.6833333333333333,nan,1,15462.349
64,631,catch,"[(1089, 896)]",[],[1],[],vertical,"(890.0, 262.0)",,cti_phase,0,15466.926
64,632,catch,"[(1090, 899)]",[],[1],[0.3833333333333333],horizontal,"(390.0, 762.0)",1.1,0.346,0,15470.964
64,633,catch,"[(1096, 889)]",[],[1],[0.85],horizontal,"(890.0, 762.0)",0.9666666666666667,nan,1,15475.831
64,634,catch,"[(1085, 902)]",[],[1],[0.6666666666666666],vertical,"(390.0, 262.0)",1.2333333333333334,0.629,0,15480.772
64,635,catch,"[(1087, 866)]",[],[1],[0.3],vertical,"(890.0, 762.0)",1.15,0.266,0,15485.948
64,636,catch,"[(1124, 875)]",[],[1],[0.85],horizontal,"(890.0, 762.0)",0.7333333333333333,nan,1,15490.159
64,637,catch,"[(1086, 902)]",[],[1],[0.6166666666666667],horizontal,"(390.0, 762.0)",1.1,0.575,0,15495.226
64,638,catch,"[(1091, 890)]",[],[1],[0.85],vertical,"(890.0, 262.0)",0.6833333333333333,nan,1,15499.96
64,639,catch,"[(1087, 905)]",[],[1],[0.85],horizontal,"(890.0, 262.0)",1.0166666666666666,nan,1,15504.616
64,640,catch,"[(1090, 890)]",[],[1],[0.5333333333333333],horizontal,"(390.0, 262.0)",1.1833333333333333,0.492,0,15509.808
65,641,catch,"[(1090, 869)]",[],[1],[0.7166666666666667],horizontal,"(390.0, 762.0)",1.3,0.674,0,15514.479
65,642,catch,"[(1093, 868)]",[],[1],[0.7166666666666667],horizontal,"(390.0, 762.0)",1.4166666666666667,0.676,0,15520.068
65,643,catch,"[(1129, 880)]",[],[1],[0.85],horizontal,"(890.0, 762.0)",0.5166666666666666,nan,1,15525.353
65,644,catch,"[(1085, 882)]",[],[1],[0.36666666666666664],vertical,"(390.0, 262.0)",1.4666666666666666,0.33,0,15529.382
65,645,catch,"[(1093, 879)]",[],[1],[0.5833333333333334],horizontal,"(390.0, 262.0)",1.05,0.543,0,15534.617
65,646,catch,"[(1119, 876)]",[],[1],[0.85],vertical,"(890.0, 262.0)",1.05,nan,1,15539.501
65,647,catch,"[(1092, 899)]",[],[1],[0.85],vertical,"(390.0, 262.0)",1.1833333333333333,nan,1,15544.618
65,648,catch,"[(1082, 880)]",[],[1],[0.7],vertical,"(390.0, 262.0)",1.2833333333333332,0.668,0,15549.951
65,649,catch,"[(1089, 880)]",[],[1],[0.45],horizontal,"(890.0, 762.0)",1.4666666666666666,0.415,0,15555.143
65,650,catch,"[(1105, 866)]",[],[1],[0.85],horizontal,"(890.0, 762.0)",1.05,nan,1,15560.302
66,651,catch,"[(1086, 886)]",[],[1],[0.4666666666666667],vertical,"(890.0, 762.0)",1.2,0.426,0,15564.981
66,652,catch,"[(1089, 886)]",[],[1],[0.85],vertical,"(890.0, 262.0)",0.9333333333333333,nan,1,15569.869
66,653,catch,"[(1085, 894)]",[],[1],[0.85],vertical,"(890.0, 262.0)",0.8333333333333334,nan,1,15576.801
66,654,catch,"[(1085, 886)]",[],[1],[0.85],vertical,"(390.0, 762.0)",1.45,nan,1,15581.866
66,655,catch,"[(1081, 879)]",[],[1],[0.3833333333333333],horizontal,"(390.0, 762.0)",1.4,0.347,0,15587.269
66,656,catch,"[(1100, 870)]",[],[1],[0.85],horizontal,"(390.0, 262.0)",0.9666666666666667,nan,1,15591.952
66,657,catch,"[(1076, 921)]",[],[1],[0.85],horizontal,"(390.0, 262.0)",0.7,nan,1,15597.002
66,658,catch,"[(1086, 913)]",[],[1],[0.31666666666666665],horizontal,"(890.0, 262.0)",1.1666666666666667,0.283,0,15601.934
66,659,catch,"[(1086, 885)]",[],[1],[0.85],vertical,"(890.0, 762.0)",1.2333333333333334,nan,1,15607.05
66,660,catch,"[(1091, 913)]",[],[1],[0.85],horizontal,"(390.0, 762.0)",0.5166666666666666,nan,1,15613.324
67,661,catch,"[(1197, 405), (739, 434), (724, 638), (399, 618), (165, 725), (826, 589), (532, 594), (483, 618), (112, 744), (392, 499), (265, 521), (1158, 449), (125, 652), (1211, 421), (518, 491), (758, 357), (204, 658), (127, 339), (565, 494), (989, 459), (580, 503), (128, 580), (830, 550), (146, 298), (522, 458), (410, 449), (411, 447), (1057, 294), (891, 628), (483, 754), (503, 702), (483, 681), (290, 662), (902, 782), (144, 383), (315, 713), (141, 536), (136, 466), (478, 546), (339, 781), (975, 733), (299, 846), (1258, 574), (1120, 803)]",[],"[0, 0, 0, 0, 0, 0, 0, 0, 0, 0, 0, 0, 0, 0, 0, 0, 0, 0, 0, 0, 0, 0, 0, 0, 0, 0, 0, 0, 0, 0, 0, 0, 0, 0, 0, 0, 0, 0, 0, 0, 0, 0, 0, 1]",[],vertical,"(890.0, 262.0)",,fix_phase,0,15618.157
67,662,catch,"[(651, 264), (575, 793), (541, 807), (498, 641), (488, 345), (1129, 303), (739, 821), (1142, 798)]",[],"[0, 0, 0, 0, 0, 0, 0, 1]",[],vertical,"(890.0, 762.0)",,fix_phase,0,15647.916
67,663,catch,"[(599, 492), (879, 775), (117, 513), (151, 289), (213, 279), (758, 846), (1182, 798)]",[],"[0, 0, 0, 0, 0, 0, 1]",[],vertical,"(890.0, 262.0)",,fix_phase,0,15658.75
67,664,catch,"[(358, 511), (141, 802), (223, 443), (1222, 855)]",[],"[0, 0, 0, 1]",[],horizontal,"(390.0, 262.0)",,fix_phase,0,15670.368
67,665,catch,"[(762, 876), (1226, 531), (218, 565), (127, 444), (127, 473), (1139, 907)]","[(1139, 953)]","[0, 0, 0, 0, 0, 1]",[0.5333333333333333],horizontal,"(890.0, 262.0)",,bar_phase,0,15688.334
67,666,catch,"[(1180, 628), (257, 482), (1141, 604), (256, 943), (1211, 507), (1198, 581), (1139, 802)]","[(1139, 802)]","[0, 0, 0, 0, 0, 0, 1]",[0.03333333333333333],vertical,"(390.0, 762.0)",,bar_phase,0,15723.717
