block,trial,trial_type,taps_start_loc_during_fix,taps_end_loc_during_fix,taps_on_lever_during_fix,taps_on_lever_s_during_fix,bar_orientation,target_xy,cti,rt,acc,time,pulses,fa_rate_recent100,p_catch
0,1,catch,"[(921, 817), (749, 800), (1096, 875)]",[],"[0, 0, 1]",[],vertical,"(890.0, 762.0)",1.7,nan,1,0.035,1,0.0,0.25
0,2,catch,"[(1117, 880)]",[],[1],[],horizontal,"(890.0, 262.0)",1.7,nan,1,32.78,1,0.0,0.25
0,3,catch,"[(1134, 852)]",[],[1],[],horizontal,"(890.0, 262.0)",1.7,nan,1,222.053,1,0.0,0.25
0,4,catch,"[(1156, 840)]",[],[1],[],horizontal,"(890.0, 762.0)",1.7,nan,1,227.264,2,0.0,0.25
0,5,catch,"[(1136, 808)]",[],[1],[0.03333333333333333],horizontal,"(890.0, 762.0)",1.7,"0.018,nan",0,232.982,0,0.2,0.25
0,6,target,"[(1121, 829)]",[],[1],[0.45],vertical,"(390.0, 262.0)",1.3666666666666667,0.414,1,237.566,1,0.16666666666666666,0.25
0,7,target,"[(1126, 837)]",[],[1],[0.7],vertical,"(390.0, 762.0)",0.9166666666666666,0.653,1,242.863,1,0.14285714285714285,0.25
0,8,catch,"[(1135, 821)]",[],[1],[],vertical,"(390.0, 762.0)",1.7,nan,1,248.261,1,0.125,0.25
0,9,target,"[(1126, 852)]",[],[1],[0.2],vertical,"(890.0, 262.0)",1.4,0.171,0,253.58,0,0.1111111111111111,0.25
0,10,target,"[(1111, 819)]",[],[1],[0.6833333333333333],horizontal,"(890.0, 762.0)",1.3166666666666667,0.631,1,258.564,1,0.1,0.25
0,11,target,"[(1126, 831)]",[],[1],[0.43333333333333335],horizontal,"(890.0, 262.0)",1.1666666666666667,0.397,1,264.497,1,0.09090909090909091,0.25
0,12,target,"[(1132, 796)]",[],[1],[0.48333333333333334],vertical,"(890.0, 262.0)",1.5,0.442,1,269.599,1,0.08333333333333333,0.25
0,13,target,"[(1130, 809)]",[],[1],[0.5666666666666667],horizontal,"(390.0, 762.0)",1.25,0.53,1,274.763,2,0.07692307692307693,0.25
0,14,target,"[(1159, 799)]",[],[1],[0.43333333333333335],vertical,"(890.0, 262.0)",1.4333333333333333,0.395,1,280.358,2,0.07142857142857142,0.25
0,15,target,"[(1159, 812)]",[],[1],[0.55],vertical,"(890.0, 262.0)",1.2166666666666666,0.505,1,286.292,2,0.06666666666666667,0.25
0,16,target,"[(1161, 810)]",[],[1],[0.5166666666666666],horizontal,"(890.0, 262.0)",0.5166666666666666,0.471,1,291.998,2,0.0625,0.25
0,17,target,"[(1133, 778)]",[],[1],[0.5],vertical,"(390.0, 262.0)",0.35,0.452,1,297.14,3,0.058823529411764705,0.25
0,18,target,"[(1160, 818)]",[],[1],[0.85],vertical,"(890.0, 762.0)",0.4166666666666667,nan,0,302.415,0,0.05555555555555555,0.25
0,19,target,"[(1131, 813)]",[],[1],[0.5333333333333333],vertical,"(890.0, 262.0)",1.4,0.494,1,306.731,1,0.05263157894736842,0.25
0,20,target,"[(1136, 808)]",[],[1],[0.4666666666666667],horizontal,"(890.0, 262.0)",0.9833333333333333,0.431,1,312.383,1,0.05,0.25
0,21,target,"[(1157, 808)]",[],[1],[0.3833333333333333],vertical,"(890.0, 262.0)",1.4166666666666667,0.345,1,317.331,1,0.047619047619047616,0.25
0,22,catch,"[(1159, 790)]",[],[1],[],vertical,"(890.0, 762.0)",1.7,nan,1,322.897,2,0.045454545454545456,0.25
0,23,target,"[(1146, 816)]",[],[1],[0.5333333333333333],horizontal,"(390.0, 262.0)",0.6333333333333333,0.491,1,328.692,2,0.043478260869565216,0.25
0,24,target,"[(1159, 799)]",[],[1],[0.55],horizontal,"(890.0, 262.0)",0.4166666666666667,0.507,1,333.814,2,0.041666666666666664,0.25
0,25,target,"[(1157, 809)]",[],[1],[0.7333333333333333],vertical,"(390.0, 262.0)",1.15,0.686,1,338.48,2,0.04,0.25
0,26,target,"[(1158, 794)]",[],[1],[0.48333333333333334],horizontal,"(390.0, 262.0)",1.45,0.441,1,344.172,3,0.038461538461538464,0.25
0,27,target,"[(1155, 798)]",[],[1],[0.5833333333333334],horizontal,"(390.0, 262.0)",1.25,0.537,1,350.612,3,0.037037037037037035,0.25
0,28,target,"[(1159, 795)]",[],[1],[0.6333333333333333],vertical,"(390.0, 262.0)",1.0833333333333333,0.586,1,356.88,3,0.03571428571428571,0.25
0,29,target,"[(1168, 793)]",[],[1],[0.5166666666666666],vertical,"(890.0, 262.0)",0.6166666666666667,0.469,1,363.031,3,0.034482758620689655,0.25
0,30,target,"[(1169, 816)]",[],[1],[0.5333333333333333],vertical,"(890.0, 762.0)",1.4333333333333333,0.489,1,368.458,3,0.03333333333333333,0.25
0,31,catch,"[(1165, 808)]",[],[1],[],horizontal,"(890.0, 762.0)",1.7,nan,1,374.797,3,0.03225806451612903,0.25
0,32,target,"[(1167, 809)]",[],[1],[0.5333333333333333],horizontal,"(390.0, 262.0)",0.7333333333333333,0.49,1,380.998,3,0.03125,0.25
0,33,target,"[(1159, 804)]",[],[1],[0.8],horizontal,"(890.0, 762.0)",0.8833333333333333,0.746,1,386.654,3,0.030303030303030304,0.25
0,34,target,"[(1135, 795)]",[],[1],[0.55],vertical,"(890.0, 262.0)",0.8333333333333334,0.505,1,392.764,3,0.029411764705882353,0.25
0,35,target,"[(1135, 783)]",[],[1],[0.5333333333333333],horizontal,"(890.0, 262.0)",0.6333333333333333,0.492,1,398.265,3,0.02857142857142857,0.25
0,36,target,"[(1158, 784)]",[],[1],[0.5333333333333333],vertical,"(390.0, 262.0)",0.9833333333333333,0.495,1,403.382,3,0.027777777777777776,0.25
0,37,target,"[(1156, 795)]",[],[1],[0.55],vertical,"(390.0, 762.0)",0.8333333333333334,0.511,1,409.115,3,0.02702702702702703,0.25
0,38,target,"[(1155, 806)]",[],[1],[0.6333333333333333],horizontal,"(890.0, 762.0)",1.0833333333333333,0.588,1,414.641,3,0.02631578947368421,0.25
0,39,catch,"[(1131, 785)]",[],[1],[],vertical,"(890.0, 262.0)",1.7,nan,1,420.892,3,0.02564102564102564,0.25
0,40,catch,"[(1138, 778)]",[],[1],[],vertical,"(390.0, 762.0)",1.7,nan,1,427.098,3,0.025,0.25
0,41,target,"[(1150, 778)]",[],[1],[0.5833333333333334],vertical,"(390.0, 762.0)",1.4,0.544,1,433.365,3,0.024390243902439025,0.25
0,42,target,"[(1157, 784)]",[],[1],[0.7833333333333333],vertical,"(890.0, 762.0)",0.9666666666666667,0.737,1,439.703,3,0.023809523809523808,0.25
0,43,catch,"[(1165, 776)]",[],[1],[],horizontal,"(390.0, 762.0)",1.7,nan,1,445.73,3,0.023255813953488372,0.25
0,44,target,"[(1156, 778)]",[],[1],[0.7333333333333333],vertical,"(390.0, 262.0)",0.9833333333333333,0.685,1,451.531,3,0.022727272727272728,0.25
0,45,target,"[(1169, 779)]",[],[1],[0.4666666666666667],horizontal,"(390.0, 762.0)",1.5,0.423,1,457.776,3,0.022222222222222223,0.25
0,46,catch,"[(1158, 804)]",[],[1],[],horizontal,"(390.0, 262.0)",1.7,nan,1,464.23,3,0.021739130434782608,0.25
0,47,catch,"[(1158, 773)]",[],[1],[],vertical,"(390.0, 762.0)",1.7,nan,1,470.182,3,0.02127659574468085,0.25
0,48,target,"[(1145, 774)]",[],[1],[0.65],vertical,"(890.0, 762.0)",1.0333333333333332,0.601,1,476.416,3,0.020833333333333332,0.25
0,49,target,"[(1137, 812)]",[],[1],[0.6666666666666666],vertical,"(890.0, 262.0)",1.0,0.622,1,482.265,3,0.02040816326530612,0.25
0,50,target,"[(1159, 803)]",[],[1],[0.5333333333333333],horizontal,"(390.0, 262.0)",0.9666666666666667,0.493,1,488.229,3,0.02,0.25
0,51,target,"[(1160, 794)]",[],[1],[0.65],vertical,"(890.0, 762.0)",0.4,0.604,1,494.39,3,0.02,0.25
0,52,target,"[(1152, 793)]",[],[1],[0.5166666666666666],horizontal,"(390.0, 262.0)",0.36666666666666664,0.471,1,499.564,3,0.02,0.25
0,53,catch,"[(1156, 772)]",[],[1],[],vertical,"(390.0, 762.0)",1.7,nan,1,504.884,3,0.02,0.25
0,54,catch,"[(1168, 789)]",[],[1],[],horizontal,"(390.0, 762.0)",1.7,"('cti', 1.683),nan",0,510.868,0,0.04,0.25
0,55,target,"[(1135, 802)]",[],[1],[0.25],vertical,"(390.0, 762.0)",1.5166666666666666,0.217,1,516.031,1,0.02,0.25
0,56,target,"[(1155, 776)]",[],[1],[0.5833333333333334],vertical,"(890.0, 262.0)",0.6166666666666667,0.544,1,521.41,1,0.02,0.25
0,57,catch,"[(1154, 789)]",[],[1],[],horizontal,"(890.0, 762.0)",1.7,nan,1,525.899,1,0.02,0.25
0,58,target,"[(1156, 796)]",[],[1],[0.55],horizontal,"(390.0, 762.0)",0.9666666666666667,0.505,1,531.508,2,0.02,0.25
0,59,target,"[(1172, 790)]",[],[1],[0.5833333333333334],horizontal,"(890.0, 262.0)",0.36666666666666664,0.54,1,536.949,2,0.02,0.25
0,60,catch,"[(1151, 774)]",[],[1],[],vertical,"(390.0, 762.0)",1.7,nan,1,541.927,2,0.02,0.25
0,61,target,"[(1159, 816)]",[],[1],[0.5333333333333333],horizontal,"(390.0, 762.0)",0.5,0.502,1,547.315,2,0.02,0.25
0,62,catch,"[(1173, 794)]",[],[1],[],vertical,"(390.0, 262.0)",1.7,"('cti', 1.685),nan",0,552.197,0,0.04,0.25
0,63,target,"[(1135, 792)]",[],[1],[0.55],horizontal,"(390.0, 262.0)",0.6833333333333333,0.507,1,557.186,1,0.04,0.25
0,64,catch,"[(1160, 798)]",[],[1],[],vertical,"(890.0, 262.0)",1.7,nan,1,562.165,1,0.04,0.25
0,65,target,"[(1156, 764)]",[],[1],[0.5166666666666666],horizontal,"(890.0, 262.0)",1.0166666666666666,0.477,1,567.364,1,0.04,0.25
0,66,catch,"[(1155, 781)]",[],[1],[],vertical,"(890.0, 262.0)",1.7,nan,1,572.373,2,0.04,0.25
0,67,target,"[(1170, 785)]",[],[1],[0.6166666666666667],vertical,"(390.0, 262.0)",1.4166666666666667,0.57,1,577.777,2,0.04,0.25
0,68,catch,"[(1165, 789)]",[],[1],[],vertical,"(890.0, 262.0)",1.7,nan,1,583.353,2,0.04,0.25
0,69,target,"[(1160, 801)]",[],[1],[0.5166666666666666],horizontal,"(390.0, 262.0)",0.6833333333333333,0.471,1,589.064,2,0.04,0.25
0,70,catch,"[(1168, 801)]",[],[1],[],vertical,"(890.0, 762.0)",1.7,nan,1,594.616,3,0.04,0.25
0,71,target,"[(1136, 774)]",[],[1],[0.6166666666666667],vertical,"(390.0, 762.0)",0.6333333333333333,0.571,1,600.997,3,0.04,0.25
0,72,target,"[(1158, 783)]",[],[1],[0.5666666666666667],horizontal,"(390.0, 762.0)",1.4166666666666667,0.523,1,606.431,3,0.04,0.25
0,73,catch,"[(1157, 785)]",[],[1],[],horizontal,"(390.0, 262.0)",1.7,nan,1,612.931,3,0.04,0.25
0,74,catch,"[(1158, 780)]",[],[1],[],horizontal,"(890.0, 262.0)",1.7,nan,1,618.815,3,0.04,0.25
0,75,target,"[(1156, 787)]",[],[1],[0.43333333333333335],vertical,"(390.0, 762.0)",1.45,0.394,1,624.993,3,0.04,0.25
0,76,catch,"[(1159, 798)]",[],[1],[],horizontal,"(890.0, 262.0)",,"('cti', 1.147),nan",0,631.266,0,0.06,0.25
0,77,target,"[(1136, 808)]",[],[1],[0.45],vertical,"(890.0, 762.0)",1.3666666666666667,0.408,1,635.532,1,0.06,0.25
0,78,target,"[(1165, 788)]",[],[1],[0.5],horizontal,"(390.0, 262.0)",0.9166666666666666,0.459,1,640.681,1,0.06,0.25
0,79,catch,"[(1155, 779)]",[],[1],[],vertical,"(390.0, 762.0)",1.7,nan,1,645.883,1,0.06,0.25
0,80,target,"[(1160, 798)]",[],[1],[0.5666666666666667],vertical,"(890.0, 262.0)",1.2333333333333334,0.529,1,650.982,2,0.06,0.25
0,81,target,"[(1165, 782)]",[],[1],[0.5833333333333334],horizontal,"(390.0, 262.0)",1.0666666666666667,0.541,1,656.609,2,0.06,0.25
0,82,catch,"[(1155, 801)]",[],[1],[],vertical,"(890.0, 762.0)",1.7,nan,1,661.739,2,0.06,0.25
0,83,target,"[(1172, 802)]",[],[1],[0.5333333333333333],vertical,"(390.0, 262.0)",1.3333333333333333,0.493,1,667.449,2,0.06,0.25
0,84,target,"[(1151, 789)]",[],[1],[0.5833333333333334],vertical,"(890.0, 262.0)",1.4333333333333333,0.54,1,672.948,3,0.06,0.25
0,85,target,"[(1155, 784)]",[],[1],[0.7],vertical,"(390.0, 262.0)",1.25,0.651,1,679.672,3,0.06,0.25
0,86,target,"[(1154, 770)]",[],[1],[0.65],vertical,"(890.0, 262.0)",1.3166666666666667,0.603,1,686.014,3,0.06,0.25
0,87,target,"[(1148, 795)]",[],[1],[0.5833333333333334],horizontal,"(390.0, 262.0)",1.0166666666666666,0.544,1,692.165,3,0.06,0.25
0,88,catch,"[(1157, 799)]",[],[1],[],horizontal,"(390.0, 762.0)",1.7,nan,1,698.289,3,0.06,0.25
0,89,catch,"[(1153, 777)]",[],[1],[],vertical,"(890.0, 262.0)",1.7,nan,1,704.564,3,0.06,0.25
0,90,target,"[(1156, 791)]",[],[1],[0.5333333333333333],vertical,"(390.0, 762.0)",0.8,0.492,1,710.848,3,0.06,0.25
0,91,target,"[(1153, 790)]",[],[1],[0.85],horizontal,"(390.0, 262.0)",0.7333333333333333,nan,0,716.032,0,0.06,0.25
0,92,target,"[(1136, 801)]",[],[1],[0.4666666666666667],vertical,"(390.0, 262.0)",1.5166666666666666,0.431,1,720.624,1,0.06,0.25
0,93,target,"[(1171, 767)]",[],[1],[0.55],vertical,"(890.0, 262.0)",0.95,0.509,1,726.609,1,0.06,0.25
0,94,target,"[(1155, 786)]",[],[1],[0.7166666666666667],horizontal,"(390.0, 762.0)",1.0333333333333332,0.672,1,731.768,1,0.06,0.25
0,95,target,"[(1155, 789)]",[],[1],[0.5666666666666667],horizontal,"(390.0, 262.0)",0.5166666666666666,0.528,1,737.333,2,0.06,0.25
0,96,target,"[(1153, 779)]",[],[1],[0.55],horizontal,"(390.0, 262.0)",1.1,0.507,1,742.03,2,0.06,0.25
0,97,target,"[(1148, 793)]",[],[1],[0.5333333333333333],horizontal,"(890.0, 262.0)",1.0,0.49,1,747.164,2,0.06,0.25
0,98,catch,"[(1161, 776)]",[],[1],[],horizontal,"(890.0, 762.0)",1.7,nan,1,753.049,2,0.06,0.25
0,99,target,"[(1160, 788)]",[],[1],[0.55],horizontal,"(890.0, 262.0)",1.5,0.511,1,758.715,3,0.06,0.25
0,100,target,"[(1158, 781)]",[],[1],[0.65],horizontal,"(390.0, 262.0)",0.6,0.606,1,765.315,3,0.06,0.25
0,101,target,"[(1160, 791)]",[],[1],[0.5],vertical,"(890.0, 762.0)",0.4,0.463,1,770.648,3,0.06,0.25
0,102,target,"[(1171, 787)]",[],[1],[0.4],vertical,"(390.0, 262.0)",1.5333333333333332,0.358,1,775.882,3,0.06,0.25
0,103,target,"[(1159, 772)]",[],[1],[0.6333333333333333],horizontal,"(390.0, 762.0)",0.6333333333333333,0.589,1,782.149,3,0.06,0.25
0,104,catch,"[(1157, 769)]",[],[1],[],horizontal,"(390.0, 762.0)",,"('cti', 1.1),nan",0,787.73,0,0.06,0.25
0,105,target,"[(1134, 778)]",[],[1],[0.48333333333333334],vertical,"(390.0, 762.0)",1.3833333333333333,0.443,1,791.815,1,0.06,0.25
0,106,target,"[(1143, 806)]",[],[1],[0.5333333333333333],horizontal,"(390.0, 762.0)",0.75,0.496,1,797.412,1,0.06,0.25
0,107,target,"[(1164, 791)]",[],[1],[0.5],horizontal,"(890.0, 262.0)",1.3833333333333333,0.463,1,802.372,1,0.06,0.25
0,108,target,"[(1170, 787)]",[],[1],[0.55],vertical,"(890.0, 762.0)",1.0833333333333333,0.515,1,807.647,2,0.06,0.25
0,109,target,"[(1160, 764)]",[],[1],[0.7],vertical,"(390.0, 762.0)",1.15,0.658,1,813.098,2,0.06,0.25
0,110,target,"[(1160, 762)]",[],[1],[0.5666666666666667],vertical,"(390.0, 262.0)",1.0666666666666667,0.522,1,818.787,2,0.06,0.25
0,111,target,"[(1160, 801)]",[],[1],[0.5166666666666666],vertical,"(890.0, 762.0)",0.6166666666666667,0.479,1,824.571,2,0.06,0.25
0,112,catch,"[(1159, 785)]",[],[1],[],vertical,"(890.0, 262.0)",1.7,nan,1,829.599,3,0.04,0.25
0,113,target,"[(1151, 770)]",[],[1],[0.5166666666666666],horizontal,"(890.0, 762.0)",1.3166666666666667,0.475,1,835.402,3,0.04,0.25
0,114,catch,"[(1155, 793)]",[],[1],[],horizontal,"(890.0, 262.0)",1.7,nan,1,841.454,3,0.04,0.25
0,115,target,"[(1140, 785)]",[],[1],[0.5333333333333333],horizontal,"(890.0, 262.0)",1.15,0.5,1,847.8,3,0.04,0.25
0,116,target,"[(1161, 798)]",[],[1],[0.5333333333333333],horizontal,"(890.0, 262.0)",1.0166666666666666,0.494,1,854.104,3,0.04,0.25
0,117,target,"[(1170, 783)]",[],[1],[0.5333333333333333],vertical,"(890.0, 262.0)",0.6,0.491,1,859.965,3,0.04,0.25
0,118,target,"[(1146, 782)]",[],[1],[0.5166666666666666],horizontal,"(390.0, 262.0)",0.5666666666666667,0.476,1,865.46,3,0.04,0.25
0,119,catch,"[(1160, 782)]",[],[1],[],vertical,"(390.0, 762.0)",1.7,nan,1,870.643,3,0.04,0.25
0,120,target,"[(1152, 793)]",[],[1],[0.5333333333333333],horizontal,"(890.0, 762.0)",1.4,0.494,1,876.607,3,0.04,0.25
0,121,target,"[(1159, 779)]",[],[1],[0.7333333333333333],horizontal,"(890.0, 262.0)",1.0,0.695,1,882.998,3,0.04,0.25
0,122,catch,"[(1157, 792)]",[],[1],[],horizontal,"(890.0, 762.0)",1.7,nan,1,889.348,3,0.04,0.25
0,123,target,"[(1158, 774)]",[],[1],[0.6333333333333333],vertical,"(890.0, 762.0)",1.2666666666666666,0.594,1,894.89,3,0.04,0.25
0,124,target,"[(1137, 783)]",[],[1],[0.5166666666666666],vertical,"(890.0, 762.0)",1.0166666666666666,0.479,1,900.904,3,0.04,0.25
0,125,catch,"[(1158, 787)]",[],[1],[],horizontal,"(890.0, 262.0)",1.7,nan,1,906.748,3,0.04,0.25
0,126,target,"[(1116, 784)]",[],[1],[0.5833333333333334],vertical,"(890.0, 262.0)",0.9,0.542,1,912.781,3,0.02,0.25
0,127,catch,"[(1163, 795)]",[],[1],[],vertical,"(390.0, 762.0)",1.7,nan,1,918.282,3,0.02,0.25
0,128,target,"[(1151, 791)]",[],[1],[0.6833333333333333],vertical,"(890.0, 262.0)",0.9166666666666666,0.645,1,924.286,3,0.02,0.25
0,129,catch,"[(1160, 769)]",[],[1],[],horizontal,"(890.0, 262.0)",1.7,nan,1,930.155,3,0.02,0.25
0,130,target,"[(1155, 774)]",[],[1],[0.5333333333333333],horizontal,"(390.0, 262.0)",1.0333333333333332,0.494,1,936.257,3,0.02,0.25
0,131,target,"[(1160, 782)]",[],[1],[0.6166666666666667],vertical,"(390.0, 762.0)",1.15,0.569,1,942.315,3,0.02,0.25
0,132,target,"[(1152, 763)]",[],[1],[0.85],horizontal,"(390.0, 262.0)",0.3833333333333333,nan,0,948.399,0,0.02,0.25
0,133,target,"[(1120, 788)]",[],[1],[0.5833333333333334],horizontal,"(890.0, 762.0)",1.2333333333333334,0.542,1,952.916,1,0.02,0.25
0,134,catch,"[(1165, 775)]",[],[1],[],vertical,"(390.0, 762.0)",1.7,nan,1,958.208,1,0.02,0.25
0,135,catch,"[(1134, 826)]",[],[1],[],vertical,"(390.0, 762.0)",1.7,nan,1,963.0,1,0.02,0.25
0,136,target,"[(1160, 808)]",[],[1],[0.48333333333333334],horizontal,"(890.0, 262.0)",0.8833333333333333,0.447,1,976.374,2,0.02,0.25
0,137,target,"[(1157, 808)]",[],[1],[0.6],horizontal,"(890.0, 262.0)",1.0,0.557,1,981.449,2,0.02,0.25
0,138,target,"[(1154, 798)]",[],[1],[0.6166666666666667],vertical,"(890.0, 262.0)",1.1666666666666667,0.573,1,987.466,2,0.02,0.25
0,139,target,"[(1170, 799)]",[],[1],[0.48333333333333334],vertical,"(890.0, 262.0)",0.85,0.446,1,993.381,2,0.02,0.25
0,140,target,"[(1143, 808)]",[],[1],[0.5166666666666666],horizontal,"(390.0, 762.0)",0.75,0.478,1,998.67,3,0.02,0.25
0,141,target,"[(1147, 801)]",[],[1],[0.85],horizontal,"(890.0, 262.0)",1.2666666666666666,nan,0,1004.199,0,0.02,0.25
0,142,target,"[(1128, 797)]",[],[1],[0.65],vertical,"(390.0, 262.0)",1.3,0.614,1,1009.049,1,0.02,0.25
0,143,target,"[(1136, 794)]",[],[1],[0.4666666666666667],vertical,"(390.0, 262.0)",1.5333333333333332,0.426,1,1014.666,1,0.02,0.25
0,144,target,"[(1156, 773)]",[],[1],[0.6333333333333333],vertical,"(890.0, 262.0)",1.4,0.589,1,1020.329,1,0.02,0.25
0,145,catch,"[(1159, 801)]",[],[1],[],horizontal,"(890.0, 762.0)",1.7,nan,1,1025.76,2,0.02,0.25
0,146,target,"[(1160, 800)]",[],[1],[0.7666666666666666],horizontal,"(890.0, 762.0)",0.7,0.73,1,1031.399,2,0.02,0.25
0,147,catch,"[(1135, 803)]",[],[1],[],vertical,"(390.0, 262.0)",1.7,nan,1,1036.799,2,0.02,0.25
0,148,catch,"[(1170, 801)]",[],[1],[],vertical,"(390.0, 262.0)",1.7,nan,1,1042.499,2,0.02,0.25
0,149,target,"[(1173, 788)]",[],[1],[0.5],horizontal,"(890.0, 262.0)",1.4666666666666666,0.46,1,1048.45,3,0.02,0.25
0,150,target,"[(1151, 777)]",[],[1],[0.5166666666666666],vertical,"(890.0, 262.0)",0.48333333333333334,0.479,1,1054.734,3,0.02,0.25
0,151,target,"[(1160, 778)]",[],[1],[0.5166666666666666],horizontal,"(390.0, 262.0)",0.8333333333333334,0.482,1,1059.9,3,0.02,0.25
0,152,catch,"[(1157, 819)]",[],[1],[],horizontal,"(390.0, 762.0)",1.7,nan,1,1065.166,3,0.02,0.25
0,153,target,"[(1160, 779)]",[],[1],[0.48333333333333334],vertical,"(890.0, 262.0)",1.5,0.442,1,1071.525,3,0.02,0.25
0,154,catch,"[(1157, 799)]",[],[1],[],horizontal,"(890.0, 262.0)",1.7,nan,1,1077.529,3,0.0,0.25
0,155,target,"[(1166, 813)]",[],[1],[0.55],vertical,"(890.0, 762.0)",0.9,0.507,1,1083.699,3,0.0,0.25
0,156,catch,"[(1155, 817)]",[],[1],[],vertical,"(890.0, 762.0)",1.7,nan,1,1089.451,3,0.0,0.25
0,157,target,"[(1137, 808)]",[],[1],[0.65],vertical,"(390.0, 762.0)",0.75,0.605,1,1095.733,3,0.0,0.25
0,158,catch,"[(1157, 798)]",[],[1],[],vertical,"(890.0, 262.0)",1.7,nan,1,1101.367,3,0.0,0.25
0,159,target,"[(1151, 803)]",[],[1],[0.5166666666666666],vertical,"(390.0, 762.0)",0.9166666666666666,0.474,1,1107.662,3,0.0,0.25
0,160,catch,"[(1161, 794)]",[],[1],[],vertical,"(890.0, 262.0)",1.7,nan,1,1113.529,3,0.0,0.25
0,161,target,"[(1160, 807)]",[],[1],[0.5333333333333333],vertical,"(890.0, 262.0)",1.35,0.487,1,1119.167,3,0.0,0.25
0,162,target,"[(1166, 799)]",[],[1],[0.5333333333333333],vertical,"(390.0, 762.0)",1.0333333333333332,0.489,1,1125.25,3,0.0,0.25
0,163,target,"[(1172, 801)]",[],[1],[0.23333333333333334],horizontal,"(390.0, 762.0)",1.2666666666666666,0.197,0,1131.047,0,0.0,0.25
0,164,catch,"[(1130, 799)]",[],[1],[],horizontal,"(390.0, 262.0)",1.7,nan,1,1135.078,1,0.0,0.25
0,165,target,"[(1146, 786)]",[],[1],[0.5666666666666667],horizontal,"(390.0, 762.0)",0.8833333333333333,0.522,1,1140.267,1,0.0,0.25
0,166,target,"[(1162, 795)]",[],[1],[0.5333333333333333],vertical,"(390.0, 762.0)",0.7666666666666666,0.502,1,1145.567,1,0.0,0.25
0,167,target,"[(1156, 788)]",[],[1],[0.65],horizontal,"(890.0, 262.0)",0.48333333333333334,0.608,1,1150.203,2,0.0,0.25
0,168,catch,"[(1167, 802)]",[],[1],[],horizontal,"(390.0, 262.0)",1.7,nan,1,1155.528,2,0.0,0.25
0,169,target,"[(1157, 798)]",[],[1],[0.6666666666666666],vertical,"(890.0, 762.0)",1.0,0.63,1,1161.117,2,0.0,0.25
0,170,target,"[(1159, 798)]",[],[1],[0.6],horizontal,"(890.0, 262.0)",0.95,0.554,1,1166.983,2,0.0,0.25
0,171,target,"[(1168, 807)]",[],[1],[0.5666666666666667],vertical,"(390.0, 762.0)",0.48333333333333334,0.534,1,1172.766,3,0.0,0.25
0,172,catch,"[(1169, 797)]",[],[1],[],vertical,"(890.0, 262.0)",1.7,nan,1,1177.821,3,0.0,0.25
0,173,target,"[(1155, 797)]",[],[1],[0.7333333333333333],vertical,"(890.0, 762.0)",1.0,0.694,1,1183.567,3,0.0,0.25
0,174,target,"[(1170, 797)]",[],[1],[0.5833333333333334],horizontal,"(890.0, 262.0)",0.35,0.542,1,1189.817,3,0.0,0.25
0,175,target,"[(1158, 802)]",[],[1],[0.5],vertical,"(890.0, 762.0)",0.85,0.468,1,1194.734,3,0.0,0.25
0,176,target,"[(1156, 797)]",[],[1],[0.5333333333333333],vertical,"(890.0, 762.0)",0.95,0.491,1,1200.25,3,0.0,0.25
0,177,catch,"[(1149, 798)]",[],[1],[],vertical,"(390.0, 262.0)",1.7,nan,1,1206.133,3,0.0,0.25
0,178,target,"[(1141, 803)]",[],[1],[0.5166666666666666],horizontal,"(890.0, 762.0)",1.0,0.484,1,1211.812,3,0.0,0.25
0,179,catch,"[(1160, 803)]",[],[1],[0.03333333333333333],horizontal,"(390.0, 762.0)",1.7,"0.019,nan",0,1217.635,0,0.02,0.25
0,180,target,"[(1140, 808)]",[],[1],[0.5166666666666666],vertical,"(390.0, 262.0)",0.6166666666666667,0.476,1,1222.291,1,0.02,0.25
0,181,target,"[(1141, 840)]",[],[1],[0.5666666666666667],vertical,"(390.0, 262.0)",1.5333333333333332,0.53,1,1226.847,1,0.02,0.25
0,182,catch,"[(1169, 797)]",[],[1],[],horizontal,"(890.0, 762.0)",1.7,nan,1,1232.564,1,0.02,0.25
0,183,target,"[(1146, 803)]",[],[1],[0.5666666666666667],vertical,"(390.0, 262.0)",0.8666666666666667,0.529,1,1238.343,2,0.02,0.25
0,184,target,"[(1160, 793)]",[],[1],[0.55],vertical,"(390.0, 262.0)",1.3833333333333333,0.516,1,1243.867,2,0.02,0.25
0,185,target,"[(1166, 811)]",[],[1],[0.5333333333333333],vertical,"(890.0, 762.0)",0.5,0.499,1,1249.751,2,0.02,0.25
0,186,target,"[(1160, 799)]",[],[1],[0.5666666666666667],vertical,"(390.0, 762.0)",1.4166666666666667,0.532,1,1254.695,2,0.02,0.25
0,187,target,"[(1156, 795)]",[],[1],[0.4166666666666667],vertical,"(390.0, 762.0)",1.5166666666666666,0.377,1,1260.401,3,0.02,0.25
0,188,catch,"[(1144, 795)]",[],[1],[],vertical,"(890.0, 262.0)",1.7,nan,1,1266.656,3,0.02,0.25
0,189,target,"[(1160, 785)]",[],[1],[0.3833333333333333],horizontal,"(890.0, 262.0)",1.5333333333333332,0.352,1,1272.722,3,0.02,0.25
0,190,target,"[(1157, 802)]",[],[1],[0.7166666666666667],horizontal,"(390.0, 762.0)",1.0,0.684,1,1278.792,3,0.02,0.25
0,191,catch,"[(1158, 797)]",[],[1],[],vertical,"(890.0, 762.0)",1.7,nan,1,1285.151,3,0.02,0.25
0,192,target,"[(1171, 813)]",[],[1],[],horizontal,"(390.0, 262.0)",,"('fix', 0.284)",0,1291.166,0,0.02,0.25
0,193,target,"[(1107, 847)]",[],[1],[0.55],vertical,"(390.0, 262.0)",0.85,0.509,1,1292.817,1,0.02,0.25
0,194,target,"[(1165, 806)]",[],[1],[0.6166666666666667],horizontal,"(390.0, 262.0)",1.2166666666666666,0.575,1,1297.684,1,0.02,0.25
0,195,catch,"[(1143, 798)]",[],[1],[],vertical,"(390.0, 262.0)",1.7,nan,1,1303.151,1,0.02,0.25
0,196,target,"[(1160, 800)]",[],[1],[0.5666666666666667],vertical,"(390.0, 762.0)",1.4333333333333333,0.524,1,1308.35,2,0.02,0.25
0,197,target,"[(1170, 803)]",[],[1],[0.55],horizontal,"(890.0, 262.0)",0.3833333333333333,0.506,1,1314.592,2,0.02,0.25
0,198,target,"[(1160, 813)]",[],[1],[0.5333333333333333],vertical,"(390.0, 262.0)",0.9833333333333333,0.489,1,1319.255,2,0.02,0.25
0,199,target,"[(1140, 798)]",[],[1],[0.5833333333333334],horizontal,"(390.0, 762.0)",0.6,0.545,1,1324.583,2,0.02,0.25
0,200,target,"[(1159, 771)]",[],[1],[0.55],horizontal,"(390.0, 262.0)",0.6166666666666667,0.515,1,1329.639,3,0.02,0.25
0,201,catch,"[(1165, 803)]",[],[1],[],horizontal,"(390.0, 762.0)",1.7,nan,1,1334.74,3,0.02,0.25
0,202,target,"[(1166, 779)]",[],[1],[0.55],horizontal,"(890.0, 762.0)",0.9,0.509,1,1340.617,3,0.02,0.25
0,203,target,"[(1158, 800)]",[],[1],[0.5166666666666666],vertical,"(890.0, 262.0)",1.0166666666666666,0.474,1,1346.51,3,0.02,0.25
0,204,target,"[(1136, 775)]",[],[1],[0.5],vertical,"(890.0, 262.0)",1.0166666666666666,0.46,1,1352.434,3,0.02,0.25
0,205,target,"[(1160, 787)]",[],[1],[0.85],horizontal,"(890.0, 262.0)",0.65,nan,0,1358.445,0,0.02,0.25
0,206,target,"[(1139, 800)]",[],[1],[0.55],vertical,"(390.0, 262.0)",0.6333333333333333,0.507,1,1363.317,1,0.02,0.25
0,207,catch,"[(1136, 798)]",[],[1],[],horizontal,"(890.0, 762.0)",1.7,nan,1,1368.134,1,0.02,0.25
0,208,target,"[(1155, 789)]",[],[1],[0.7],horizontal,"(890.0, 262.0)",0.3833333333333333,0.656,1,1373.587,1,0.02,0.25
0,209,catch,"[(1163, 788)]",[],[1],[],horizontal,"(890.0, 262.0)",1.7,nan,1,1378.369,2,0.02,0.25
0,210,catch,"[(1156, 805)]",[],[1],[],horizontal,"(890.0, 262.0)",1.7,nan,1,1384.148,2,0.02,0.25
0,211,catch,"[(1166, 807)]",[],[1],[],horizontal,"(390.0, 262.0)",1.7,nan,1,1389.984,2,0.02,0.25
0,212,target,"[(1160, 800)]",[],[1],[0.65],horizontal,"(390.0, 762.0)",0.4666666666666667,0.612,1,1395.5,2,0.02,0.25
0,213,target,"[(1162, 803)]",[],[1],[0.5666666666666667],horizontal,"(390.0, 762.0)",1.2333333333333334,0.524,1,1400.418,3,0.02,0.25
0,214,target,"[(1146, 800)]",[],[1],[0.8333333333333334],horizontal,"(890.0, 262.0)",0.7333333333333333,0.792,1,1406.583,3,0.02,0.25
0,215,target,"[(1150, 823)]",[],[1],[0.48333333333333334],vertical,"(890.0, 762.0)",1.45,0.448,1,1412.195,3,0.02,0.25
0,216,target,"[(1170, 809)]",[],[1],[0.55],vertical,"(890.0, 262.0)",0.9833333333333333,0.513,1,1418.696,3,0.02,0.25
0,217,target,"[(1142, 794)]",[],[1],[0.5333333333333333],horizontal,"(390.0, 262.0)",1.0833333333333333,0.495,1,1424.616,3,0.02,0.25
0,218,target,"[(1173, 802)]",[],[1],[0.65],vertical,"(890.0, 762.0)",0.43333333333333335,0.611,1,1430.4,3,0.02,0.25
0,219,target,"[(1159, 799)]",[],[1],[0.5],horizontal,"(890.0, 262.0)",1.4333333333333333,0.461,1,1435.734,3,0.02,0.25
0,220,target,"[(1157, 799)]",[],[1],[0.8],vertical,"(390.0, 262.0)",0.8,0.757,1,1441.935,3,0.02,0.25
0,221,target,"[(1158, 795)]",[],[1],[0.5833333333333334],horizontal,"(390.0, 762.0)",0.3833333333333333,0.54,1,1448.104,3,0.02,0.25
0,222,catch,"[(1143, 799)]",[],[1],[],vertical,"(890.0, 762.0)",1.7,nan,1,1453.035,3,0.02,0.25
0,223,catch,"[(1160, 799)]",[],[1],[],vertical,"(390.0, 762.0)",1.7,nan,1,1459.218,3,0.02,0.25
0,224,catch,"[(1159, 795)]",[],[1],[],vertical,"(890.0, 762.0)",1.7,nan,1,1465.4,3,0.02,0.25
0,225,target,"[(1175, 799)]",[],[1],[0.55],vertical,"(890.0, 262.0)",0.65,0.509,1,1471.168,3,0.02,0.25
0,226,target,"[(1168, 800)]",[],[1],[0.65],vertical,"(890.0, 762.0)",0.7166666666666667,0.613,1,1476.652,3,0.02,0.25
0,227,target,"[(1158, 799)]",[],[1],[0.5666666666666667],vertical,"(890.0, 762.0)",1.4166666666666667,0.523,1,1482.117,3,0.02,0.25
0,228,target,"[(1158, 783)]",[],[1],[0.5666666666666667],horizontal,"(390.0, 762.0)",1.35,0.528,1,1488.541,3,0.02,0.25
0,229,target,"[(1158, 783)]",[],[1],[0.55],horizontal,"(390.0, 762.0)",0.5666666666666667,0.509,1,1494.733,3,0.0,0.25
0,230,target,"[(1158, 797)]",[],[1],[0.36666666666666664],horizontal,"(390.0, 762.0)",1.4333333333333333,0.334,1,1500.217,3,0.0,0.25
0,231,target,"[(1160, 798)]",[],[1],[0.85],vertical,"(890.0, 762.0)",0.5166666666666666,nan,0,1505.984,0,0.0,0.25
0,232,target,"[(1134, 799)]",[],[1],[0.65],horizontal,"(890.0, 762.0)",0.48333333333333334,0.607,1,1509.951,1,0.0,0.25
0,233,target,"[(1156, 808)]",[],[1],[0.5666666666666667],horizontal,"(390.0, 262.0)",1.1666666666666667,0.525,1,1514.467,1,0.0,0.25
0,234,target,"[(1157, 818)]",[],[1],[0.65],vertical,"(390.0, 262.0)",0.3833333333333333,0.606,1,1519.65,1,0.0,0.25
0,235,catch,"[(1156, 800)]",[],[1],[],horizontal,"(390.0, 762.0)",1.7,nan,1,1524.135,2,0.0,0.25
0,236,target,"[(1162, 792)]",[],[1],[0.5333333333333333],horizontal,"(390.0, 262.0)",0.4166666666666667,0.489,1,1529.634,2,0.0,0.25
0,237,catch,"[(1168, 792)]",[],[1],[],horizontal,"(890.0, 762.0)",1.7,nan,1,1534.174,2,0.0,0.25
0,238,target,"[(1171, 779)]",[],[1],[0.5833333333333334],vertical,"(390.0, 262.0)",1.2,0.539,1,1539.968,2,0.0,0.25
0,239,catch,"[(1175, 793)]",[],[1],[],vertical,"(890.0, 762.0)",1.7,nan,1,1546.085,3,0.0,0.25
0,240,target,"[(1171, 796)]",[],[1],[0.5666666666666667],vertical,"(890.0, 262.0)",0.43333333333333335,0.522,1,1552.701,3,0.0,0.25
0,241,target,"[(1160, 797)]",[],[1],[0.85],horizontal,"(890.0, 262.0)",0.6,nan,0,1557.884,0,0.0,0.25
0,242,catch,"[(1141, 800)]",[],[1],[],vertical,"(890.0, 762.0)",1.7,nan,1,1562.368,1,0.0,0.25
0,243,target,"[(1131, 806)]",[],[1],[0.5833333333333334],horizontal,"(390.0, 262.0)",1.3833333333333333,0.541,1,1567.435,1,0.0,0.25
0,244,target,"[(1165, 806)]",[],[1],[0.5666666666666667],horizontal,"(890.0, 762.0)",0.5333333333333333,0.521,1,1573.15,1,0.0,0.25
0,245,target,"[(1175, 776)]",[],[1],[0.5],vertical,"(890.0, 262.0)",0.9666666666666667,0.464,1,1577.425,2,0.0,0.25
0,246,target,"[(1165, 797)]",[],[1],[0.6833333333333333],horizontal,"(890.0, 762.0)",1.4166666666666667,0.645,1,1583.118,2,0.0,0.25
0,247,target,"[(1160, 800)]",[],[1],[0.6],vertical,"(890.0, 262.0)",1.3666666666666667,0.551,1,1589.092,2,0.0,0.25
0,248,target,"[(1158, 790)]",[],[1],[0.23333333333333334],vertical,"(390.0, 262.0)",1.3666666666666667,0.195,0,1594.802,0,0.0,0.25
0,249,target,"[(1136, 808)]",[],[1],[0.75],horizontal,"(890.0, 262.0)",1.35,0.706,1,1600.035,1,0.0,0.25
0,250,catch,"[(1160, 808)]",[],[1],[],vertical,"(390.0, 762.0)",1.7,nan,1,1609.285,1,0.0,0.25
0,251,target,"[(1175, 791)]",[],[1],[0.5833333333333334],vertical,"(390.0, 262.0)",1.3,0.54,1,1614.681,1,0.0,0.25
0,252,target,"[(1158, 799)]",[],[1],[0.5833333333333334],vertical,"(890.0, 762.0)",0.65,0.535,1,1620.468,2,0.0,0.25
0,253,target,"[(1162, 803)]",[],[1],[0.6333333333333333],vertical,"(890.0, 262.0)",1.3833333333333333,0.591,1,1625.385,2,0.0,0.25
0,254,target,"[(1172, 817)]",[],[1],[0.75],vertical,"(890.0, 262.0)",0.7166666666666667,0.703,1,1631.509,2,0.0,0.25
0,255,target,"[(1167, 808)]",[],[1],[0.5],vertical,"(890.0, 762.0)",0.48333333333333334,0.457,1,1636.489,2,0.0,0.25
0,256,target,"[(1136, 799)]",[],[1],[0.5666666666666667],horizontal,"(890.0, 762.0)",1.3166666666666667,0.52,1,1641.268,3,0.0,0.25
0,257,catch,"[(1155, 799)]",[],[1],[],vertical,"(390.0, 262.0)",1.7,nan,1,1647.511,3,0.0,0.25
0,258,target,"[(1162, 798)]",[],[1],[0.6],horizontal,"(390.0, 762.0)",0.43333333333333335,0.56,1,1653.439,3,0.0,0.25
0,259,target,"[(1175, 793)]",[],[1],[0.6],vertical,"(390.0, 262.0)",1.0333333333333332,0.552,1,1658.567,3,0.0,0.25
0,260,target,"[(1160, 808)]",[],[1],[0.5666666666666667],vertical,"(390.0, 262.0)",1.0666666666666667,0.525,1,1664.455,3,0.0,0.25
0,261,catch,"[(1160, 787)]",[],[1],[],vertical,"(390.0, 762.0)",1.7,nan,1,1670.468,3,0.0,0.25
0,262,target,"[(1171, 799)]",[],[1],[0.5333333333333333],horizontal,"(390.0, 262.0)",0.9666666666666667,0.492,1,1676.62,3,0.0,0.25
0,263,target,"[(1167, 798)]",[],[1],[0.85],horizontal,"(890.0, 762.0)",1.25,nan,0,1681.977,0,0.0,0.25
0,264,catch,"[(1134, 799)]",[],[1],[],vertical,"(390.0, 262.0)",1.7,nan,1,1686.741,1,0.0,0.25
0,265,target,"[(1172, 801)]",[],[1],[0.6666666666666666],horizontal,"(890.0, 762.0)",0.6,0.622,1,1692.03,1,0.0,0.25
0,266,catch,"[(1161, 795)]",[],[1],[],horizontal,"(890.0, 762.0)",1.7,nan,1,1697.039,1,0.0,0.25
0,267,target,"[(1158, 784)]",[],[1],[0.6666666666666666],horizontal,"(390.0, 262.0)",1.2333333333333334,0.619,1,1702.779,2,0.0,0.25
0,268,catch,"[(1160, 787)]",[],[1],[],horizontal,"(390.0, 762.0)",1.7,nan,1,1708.751,2,0.0,0.25
0,269,target,"[(1175, 808)]",[],[1],[0.7166666666666667],horizontal,"(890.0, 262.0)",0.7333333333333333,0.676,1,1714.402,2,0.0,0.25
0,270,target,"[(1162, 799)]",[],[1],[0.7166666666666667],vertical,"(390.0, 762.0)",0.5333333333333333,0.673,1,1719.585,2,0.0,0.25
0,271,target,"[(1174, 794)]",[],[1],[0.6166666666666667],horizontal,"(890.0, 762.0)",1.45,0.575,1,1724.634,3,0.0,0.25
0,272,target,"[(1160, 809)]",[],[1],[0.55],vertical,"(390.0, 762.0)",0.5166666666666666,0.509,1,1731.04,3,0.0,0.25
0,273,target,"[(1136, 800)]",[],[1],[0.5666666666666667],vertical,"(890.0, 762.0)",1.2333333333333334,0.521,1,1736.502,3,0.0,0.25
0,274,catch,"[(1160, 806)]",[],[1],[],vertical,"(390.0, 762.0)",1.7,nan,1,1742.405,3,0.0,0.25
0,275,target,"[(1158, 783)]",[],[1],[0.6],vertical,"(390.0, 262.0)",1.0833333333333333,0.558,1,1748.182,3,0.0,0.25
0,276,target,"[(1161, 808)]",[],[1],[0.65],vertical,"(390.0, 262.0)",1.05,0.606,1,1754.313,3,0.0,0.25
0,277,target,"[(1136, 792)]",[],[1],[0.5],vertical,"(890.0, 762.0)",1.1833333333333333,0.459,1,1760.079,3,0.0,0.25
0,278,target,"[(1159, 807)]",[],[1],[0.7333333333333333],vertical,"(390.0, 262.0)",1.2,0.681,1,1766.126,3,0.0,0.25
0,279,catch,"[(1156, 791)]",[],[1],[],vertical,"(390.0, 262.0)",1.7,nan,1,1772.371,3,0.0,0.25
0,280,target,"[(1146, 828)]",[],[1],[0.6666666666666666],vertical,"(390.0, 762.0)",0.7666666666666666,0.619,1,1778.269,3,0.0,0.25
0,281,target,"[(1165, 799)]",[],[1],[0.5833333333333334],vertical,"(390.0, 762.0)",1.25,0.537,1,1784.381,3,0.0,0.25
0,282,target,"[(1158, 806)]",[],[1],[0.6166666666666667],horizontal,"(390.0, 762.0)",0.5,0.581,1,1790.631,3,0.0,0.25
0,283,target,"[(1158, 805)]",[],[1],[0.6666666666666666],vertical,"(890.0, 262.0)",0.4166666666666667,0.632,1,1795.852,3,0.0,0.25
0,284,target,"[(1160, 796)]",[],[1],[0.5833333333333334],horizontal,"(890.0, 762.0)",1.3833333333333333,0.544,1,1801.392,3,0.0,0.25
0,285,target,"[(1155, 796)]",[],[1],[0.65],horizontal,"(390.0, 762.0)",0.95,0.606,1,1807.792,3,0.0,0.25
0,286,target,"[(1136, 786)]",[],[1],[0.85],vertical,"(390.0, 762.0)",0.4,nan,0,1813.939,0,0.0,0.25
0,287,catch,"[(1126, 799)]",[],[1],[],vertical,"(390.0, 262.0)",1.7,nan,1,1818.067,1,0.0,0.25
0,288,target,"[(1163, 800)]",[],[1],[0.6833333333333333],horizontal,"(390.0, 262.0)",0.7833333333333333,0.637,1,1823.308,1,0.0,0.25
0,289,target,"[(1162, 790)]",[],[1],[0.6],vertical,"(390.0, 762.0)",0.7166666666666667,0.559,1,1828.439,1,0.0,0.25
0,290,catch,"[(1162, 794)]",[],[1],[],horizontal,"(390.0, 262.0)",1.7,nan,1,1832.784,2,0.0,0.25
0,291,catch,"[(1158, 802)]",[],[1],[],vertical,"(890.0, 262.0)",1.7,nan,1,1837.999,2,0.0,0.25
0,292,target,"[(1155, 773)]",[],[1],[0.48333333333333334],horizontal,"(390.0, 262.0)",1.4333333333333333,0.445,1,1843.548,2,0.0,0.25
0,293,target,"[(1141, 798)]",[],[1],[0.6166666666666667],vertical,"(390.0, 262.0)",1.3,0.581,1,1849.397,2,0.0,0.25
0,294,target,"[(1158, 778)]",[],[1],[0.6],horizontal,"(390.0, 762.0)",0.7,0.556,1,1855.351,3,0.0,0.25
0,295,catch,"[(1162, 773)]",[],[1],[],vertical,"(390.0, 262.0)",1.7,nan,1,1861.251,3,0.0,0.25
0,296,target,"[(1159, 782)]",[],[1],[0.5666666666666667],vertical,"(390.0, 262.0)",0.6,0.526,1,1867.284,3,0.0,0.25
0,297,catch,"[(1159, 803)]",[],[1],[],horizontal,"(390.0, 762.0)",1.7,nan,1,1872.751,3,0.0,0.25
0,298,target,"[(1136, 802)]",[],[1],[0.55],horizontal,"(890.0, 762.0)",0.9333333333333333,0.514,1,1878.613,3,0.0,0.25
0,299,target,"[(1158, 778)]",[],[1],[0.65],vertical,"(890.0, 262.0)",0.36666666666666664,0.606,1,1884.601,3,0.0,0.25
0,300,catch,"[(1158, 789)]",[],[1],[],vertical,"(390.0, 762.0)",1.7,nan,1,1890.05,3,0.0,0.25
0,301,target,"[(1164, 779)]",[],[1],[0.55],vertical,"(890.0, 262.0)",0.6,0.507,1,1895.968,3,0.0,0.25
0,302,target,"[(1158, 803)]",[],[1],[0.6833333333333333],horizontal,"(890.0, 262.0)",0.48333333333333334,0.638,1,1901.351,3,0.0,0.25
0,303,target,"[(1136, 782)]",[],[1],[0.5333333333333333],horizontal,"(890.0, 262.0)",0.55,0.493,1,1906.751,3,0.0,0.25
0,304,target,"[(1156, 798)]",[],[1],[0.48333333333333334],horizontal,"(890.0, 262.0)",0.7666666666666666,0.442,1,1911.969,3,0.0,0.25
0,305,target,"[(1136, 790)]",[],[1],[0.55],horizontal,"(890.0, 762.0)",0.43333333333333335,0.504,1,1917.17,3,0.0,0.25
0,306,target,"[(1160, 800)]",[],[1],[0.36666666666666664],horizontal,"(390.0, 262.0)",0.7666666666666666,0.323,1,1922.252,3,0.0,0.25
0,307,catch,"[(1160, 803)]",[],[1],[],horizontal,"(890.0, 762.0)",1.7,nan,1,1927.936,3,0.0,0.25
0,308,target,"[(1151, 800)]",[],[1],[0.6666666666666666],horizontal,"(890.0, 262.0)",0.75,0.624,1,1933.98,3,0.0,0.25
0,309,target,"[(1145, 779)]",[],[1],[0.6166666666666667],vertical,"(390.0, 762.0)",0.7666666666666666,0.575,1,1939.747,3,0.0,0.25
0,310,target,"[(1159, 794)]",[],[1],[0.5333333333333333],horizontal,"(890.0, 262.0)",0.3833333333333333,0.494,1,1945.618,3,0.0,0.25
0,311,target,"[(1157, 766)]",[],[1],[0.85],vertical,"(890.0, 262.0)",1.0833333333333333,nan,0,1951.171,0,0.0,0.25
0,312,target,"[(1112, 802)]",[],[1],[0.7166666666666667],vertical,"(390.0, 762.0)",0.4666666666666667,0.672,1,1955.802,1,0.0,0.25
0,313,target,"[(1136, 771)]",[],[1],[0.7333333333333333],vertical,"(890.0, 762.0)",1.1666666666666667,0.683,1,1960.819,1,0.0,0.25
0,314,target,"[(1139, 808)]",[],[1],[0.6833333333333333],horizontal,"(390.0, 762.0)",1.2833333333333332,0.64,1,1965.783,1,0.0,0.25
0,315,target,"[(1136, 788)]",[],[1],[0.5833333333333334],vertical,"(390.0, 262.0)",0.5166666666666666,0.538,1,1971.436,2,0.0,0.25
0,316,target,"[(1166, 806)]",[],[1],[0.6],vertical,"(390.0, 262.0)",1.2,0.559,1,1976.455,2,0.0,0.25
0,317,target,"[(1165, 807)]",[],[1],[0.7666666666666666],vertical,"(390.0, 762.0)",1.0333333333333332,0.715,1,1982.052,2,0.0,0.25
0,318,catch,"[(1159, 764)]",[],[1],[],horizontal,"(390.0, 262.0)",1.7,nan,1,1987.601,2,0.0,0.25
0,319,catch,"[(1158, 800)]",[],[1],[],vertical,"(390.0, 762.0)",1.7,nan,1,1993.375,3,0.0,0.25
0,320,target,"[(1165, 782)]",[],[1],[0.5166666666666666],vertical,"(890.0, 262.0)",1.5,0.477,1,1999.769,3,0.0,0.25
0,321,target,"[(1163, 789)]",[],[1],[0.6333333333333333],horizontal,"(890.0, 762.0)",0.9666666666666667,0.596,1,2006.185,3,0.0,0.25
0,322,target,"[(1160, 799)]",[],[1],[0.5666666666666667],vertical,"(890.0, 262.0)",1.0833333333333333,0.528,1,2012.636,3,0.0,0.25
0,323,target,"[(1148, 800)]",[],[1],[0.75],vertical,"(890.0, 762.0)",1.2833333333333332,0.701,1,2018.836,3,0.0,0.25
0,324,catch,"[(1165, 789)]",[],[1],[],vertical,"(890.0, 262.0)",1.7,nan,1,2025.003,3,0.0,0.25
0,325,target,"[(1161, 798)]",[],[1],[0.6166666666666667],horizontal,"(890.0, 762.0)",1.4333333333333333,0.572,1,2031.203,3,0.0,0.25
0,326,target,"[(1165, 788)]",[],[1],[0.6],horizontal,"(390.0, 262.0)",1.05,0.553,1,2037.401,3,0.0,0.25
0,327,target,"[(1165, 793)]",[],[1],[0.6833333333333333],horizontal,"(890.0, 262.0)",1.2,0.638,1,2043.215,3,0.0,0.25
0,328,target,"[(1157, 805)]",[],[1],[0.7166666666666667],horizontal,"(890.0, 762.0)",1.1,0.679,1,2049.141,3,0.0,0.25
0,329,catch,"[(1146, 803)]",[],[1],[],vertical,"(390.0, 762.0)",1.7,nan,1,2055.431,3,0.0,0.25
0,330,target,"[(1159, 794)]",[],[1],[0.5333333333333333],vertical,"(390.0, 262.0)",1.2166666666666666,0.498,1,2061.885,3,0.0,0.25
0,331,target,"[(1175, 785)]",[],[1],[0.6],vertical,"(890.0, 262.0)",1.4666666666666666,0.557,1,2067.567,3,0.0,0.25
0,332,target,"[(1153, 813)]",[],[1],[0.85],horizontal,"(890.0, 762.0)",1.0166666666666666,nan,0,2073.818,0,0.0,0.25
0,333,target,"[(1142, 805)]",[],[1],[0.85],vertical,"(390.0, 262.0)",0.4,nan,0,2078.853,0,0.0,0.25
0,334,target,"[(1134, 798)]",[],[1],[0.5666666666666667],vertical,"(890.0, 262.0)",0.8333333333333334,0.524,1,2083.418,1,0.0,0.25
0,335,target,"[(1157, 803)]",[],[1],[0.5333333333333333],horizontal,"(390.0, 262.0)",0.8166666666666667,0.497,1,2088.824,1,0.0,0.25
0,336,target,"[(1159, 784)]",[],[1],[0.55],vertical,"(890.0, 762.0)",0.55,0.51,1,2094.152,1,0.0,0.25
0,337,target,"[(1173, 801)]",[],[1],[0.6666666666666666],horizontal,"(390.0, 762.0)",0.7,0.633,1,2098.852,2,0.0,0.25
0,338,target,"[(1159, 803)]",[],[1],[0.75],vertical,"(390.0, 762.0)",0.4666666666666667,0.706,1,2104.352,2,0.0,0.25
0,339,target,"[(1138, 799)]",[],[1],[0.6833333333333333],horizontal,"(890.0, 262.0)",0.45,0.64,1,2109.305,2,0.0,0.25
0,340,target,"[(1158, 799)]",[],[1],[0.6666666666666666],horizontal,"(890.0, 262.0)",0.4,0.621,1,2114.829,2,0.0,0.25
0,341,target,"[(1142, 799)]",[],[1],[0.6333333333333333],vertical,"(390.0, 762.0)",0.75,0.593,1,2119.734,3,0.0,0.25
0,342,target,"[(1138, 803)]",[],[1],[0.85],vertical,"(390.0, 262.0)",0.8666666666666667,nan,0,2125.605,0,0.0,0.25
0,343,catch,"[(1136, 793)]",[],[1],[],horizontal,"(890.0, 262.0)",1.7,nan,1,2130.635,1,0.0,0.25
0,344,catch,"[(1160, 776)]",[],[1],[],vertical,"(390.0, 262.0)",1.7,nan,1,2136.202,1,0.0,0.25
0,345,target,"[(1136, 800)]",[],[1],[0.5333333333333333],vertical,"(390.0, 262.0)",0.75,0.491,1,2141.428,1,0.0,0.25
0,346,target,"[(1135, 813)]",[],[1],[0.5333333333333333],horizontal,"(890.0, 762.0)",1.0333333333333332,0.493,1,2146.004,2,0.0,0.25
0,347,target,"[(1163, 786)]",[],[1],[0.8],vertical,"(890.0, 262.0)",1.3166666666666667,0.755,1,2151.678,2,0.0,0.25
0,348,catch,"[(1140, 827)]",[],[1],[],horizontal,"(890.0, 262.0)",,"('cti', 1.603),nan",0,2157.626,0,0.02,0.25
0,349,catch,"[(1131, 788)]",[],[1],[],horizontal,"(890.0, 762.0)",1.7,nan,1,2198.503,1,0.02,0.25
0,350,catch,"[(1167, 788)]",[],[1],[],vertical,"(390.0, 262.0)",1.7,nan,1,2204.119,1,0.02,0.25
0,351,target,"[(1164, 809)]",[],[1],[0.55],vertical,"(390.0, 762.0)",1.1833333333333333,0.509,1,2209.413,1,0.02,0.25
0,352,catch,"[(1171, 797)]",[],[1],[],horizontal,"(890.0, 762.0)",1.7,nan,1,2214.514,2,0.02,0.25
0,353,target,"[(1179, 798)]",[],[1],[0.5833333333333334],horizontal,"(890.0, 762.0)",0.65,0.546,1,2220.29,2,0.02,0.25
0,354,catch,"[(1159, 808)]",[],[1],[],vertical,"(390.0, 762.0)",1.7,nan,1,2225.286,2,0.02,0.25
0,355,catch,"[(1175, 784)]",[],[1],[],horizontal,"(390.0, 262.0)",1.7,nan,1,2231.077,2,0.02,0.25
0,356,catch,"[(1172, 805)]",[],[1],[],horizontal,"(890.0, 262.0)",1.7,nan,1,2236.698,3,0.02,0.25
0,357,target,"[(1162, 798)]",[],[1],[0.6],horizontal,"(390.0, 762.0)",0.43333333333333335,0.561,1,2243.22,3,0.02,0.25
0,358,target,"[(1165, 803)]",[],[1],[0.6166666666666667],horizontal,"(890.0, 762.0)",0.85,0.577,1,2248.531,3,0.02,0.25
0,359,target,"[(1164, 791)]",[],[1],[0.5666666666666667],horizontal,"(390.0, 762.0)",1.3833333333333333,0.527,1,2254.321,3,0.02,0.25
0,360,target,"[(1157, 793)]",[],[1],[0.6166666666666667],vertical,"(890.0, 762.0)",0.7833333333333333,0.577,1,2260.403,3,0.02,0.25
0,361,target,"[(1157, 789)]",[],[1],[0.6833333333333333],vertical,"(390.0, 762.0)",0.45,0.642,1,2266.236,3,0.02,0.25
0,362,target,"[(1170, 789)]",[],[1],[0.7833333333333333],vertical,"(390.0, 262.0)",0.5833333333333334,0.737,1,2271.504,3,0.02,0.25
0,363,target,"[(1156, 790)]",[],[1],[0.6],horizontal,"(390.0, 762.0)",1.2833333333333332,0.558,1,2277.287,3,0.02,0.25
0,364,target,"[(1167, 791)]",[],[1],[0.6666666666666666],vertical,"(890.0, 762.0)",1.3166666666666667,0.625,1,2283.355,3,0.02,0.25
0,365,target,"[(1156, 803)]",[],[1],[0.5333333333333333],vertical,"(390.0, 762.0)",0.9833333333333333,0.494,1,2289.953,3,0.02,0.25
0,366,target,"[(1156, 782)]",[],[1],[0.55],vertical,"(390.0, 762.0)",0.35,0.518,1,2295.994,3,0.02,0.25
0,367,target,"[(1158, 795)]",[],[1],[0.48333333333333334],horizontal,"(890.0, 762.0)",1.3833333333333333,0.45,1,2300.956,3,0.02,0.25
0,368,target,"[(1157, 798)]",[],[1],[0.6166666666666667],vertical,"(890.0, 762.0)",1.3833333333333333,0.577,1,2306.87,3,0.02,0.25
0,369,target,"[(1157, 794)]",[],[1],[0.7166666666666667],vertical,"(890.0, 262.0)",1.4,0.68,1,2312.8,3,0.02,0.25
0,370,target,"[(1163, 797)]",[],[1],[0.4166666666666667],vertical,"(390.0, 262.0)",1.45,0.38,1,2318.901,3,0.02,0.25
0,371,target,"[(1136, 793)]",[],[1],[0.55],horizontal,"(390.0, 762.0)",1.1166666666666667,0.505,1,2325.12,3,0.02,0.25
0,372,target,"[(1155, 782)]",[],[1],[0.6333333333333333],vertical,"(390.0, 762.0)",0.95,0.595,1,2330.737,3,0.02,0.25
0,373,target,"[(1131, 800)]",[],[1],[0.55],horizontal,"(890.0, 262.0)",1.4,0.508,1,2336.38,3,0.02,0.25
0,374,target,"[(1136, 784)]",[],[1],[0.5666666666666667],horizontal,"(890.0, 762.0)",0.85,0.529,1,2342.27,3,0.02,0.25
0,375,target,"[(1135, 784)]",[],[1],[0.5333333333333333],vertical,"(890.0, 262.0)",1.05,0.491,1,2348.161,3,0.02,0.25
0,376,target,"[(1157, 842)]",[],[1],[0.65],horizontal,"(390.0, 262.0)",1.0666666666666667,0.608,1,2353.92,3,0.02,0.25
0,377,target,"[(1155, 813)]",[],[1],[0.5],vertical,"(890.0, 762.0)",1.45,0.456,1,2360.303,3,0.02,0.25
0,378,target,"[(1171, 800)]",[],[1],[0.5666666666666667],vertical,"(890.0, 262.0)",0.45,0.536,1,2366.475,3,0.02,0.25
0,379,target,"[(1158, 800)]",[],[1],[0.6166666666666667],vertical,"(890.0, 262.0)",1.1,0.576,1,2372.017,3,0.02,0.25
0,380,target,"[(1157, 806)]",[],[1],[0.7],vertical,"(890.0, 762.0)",1.3833333333333333,0.659,1,2378.378,3,0.02,0.25
0,381,target,"[(1145, 793)]",[],[1],[0.7333333333333333],horizontal,"(890.0, 262.0)",0.4666666666666667,0.69,1,2384.63,3,0.02,0.25
0,382,catch,"[(1139, 799)]",[],[1],[],vertical,"(390.0, 262.0)",1.7,nan,1,2389.829,3,0.02,0.25
0,383,target,"[(1156, 792)]",[],[1],[0.65],horizontal,"(390.0, 762.0)",1.5333333333333332,0.611,1,2396.136,3,0.02,0.25
0,384,target,"[(1157, 782)]",[],[1],[0.5333333333333333],horizontal,"(390.0, 762.0)",0.4,0.496,1,2402.296,3,0.02,0.25
0,385,target,"[(1156, 767)]",[],[1],[0.5333333333333333],vertical,"(390.0, 262.0)",1.1,0.497,1,2407.369,3,0.02,0.25
0,386,target,"[(1154, 794)]",[],[1],[0.55],horizontal,"(890.0, 762.0)",1.1166666666666667,0.51,1,2413.104,3,0.02,0.25
0,387,target,"[(1161, 806)]",[],[1],[0.6333333333333333],horizontal,"(390.0, 762.0)",0.8,0.588,1,2419.151,3,0.02,0.25
0,388,target,"[(1153, 808)]",[],[1],[0.5833333333333334],vertical,"(890.0, 762.0)",1.3333333333333333,0.54,1,2424.635,3,0.02,0.25
0,389,target,"[(1160, 808)]",[],[1],[0.5333333333333333],horizontal,"(890.0, 262.0)",1.25,0.495,1,2431.054,3,0.02,0.25
0,390,target,"[(1141, 798)]",[],[1],[0.5666666666666667],vertical,"(390.0, 262.0)",1.1,0.529,1,2437.254,3,0.02,0.25
0,391,target,"[(1159, 792)]",[],[1],[0.5333333333333333],horizontal,"(890.0, 262.0)",1.15,0.493,1,2442.954,3,0.02,0.25
0,392,catch,"[(1157, 770)]",[],[1],[],vertical,"(890.0, 262.0)",1.7,nan,1,2449.004,3,0.02,0.25
0,393,catch,"[(1157, 813)]",[],[1],[],vertical,"(390.0, 762.0)",1.7,nan,1,2455.254,3,0.02,0.25
0,394,catch,"[(1155, 794)]",[],[1],[],vertical,"(890.0, 262.0)",1.7,nan,1,2461.336,3,0.02,0.25
0,395,target,"[(1155, 808)]",[],[1],[0.5833333333333334],horizontal,"(390.0, 262.0)",1.45,0.544,1,2467.553,3,0.02,0.25
0,396,target,"[(1160, 799)]",[],[1],[0.85],horizontal,"(390.0, 262.0)",1.45,nan,0,2473.586,0,0.02,0.25
0,397,target,"[(1155, 802)]",[],[1],[0.6166666666666667],horizontal,"(890.0, 762.0)",1.5,0.577,1,2478.682,1,0.02,0.25
0,398,catch,"[(1155, 783)]",[],[1],[],vertical,"(890.0, 762.0)",1.7,nan,1,2484.361,1,0.0,0.25
0,399,target,"[(1155, 808)]",[],[1],[0.7],vertical,"(390.0, 762.0)",1.2333333333333334,0.656,1,2489.855,1,0.0,0.25
0,400,catch,"[(1169, 784)]",[],[1],[],vertical,"(390.0, 762.0)",1.7,nan,1,2495.104,2,0.0,0.25
0,401,target,"[(1158, 791)]",[],[1],[0.4666666666666667],vertical,"(890.0, 762.0)",1.4833333333333334,0.434,1,2501.211,2,0.0,0.25
0,402,target,"[(1175, 804)]",[],[1],[0.55],vertical,"(890.0, 762.0)",0.36666666666666664,0.518,1,2507.415,2,0.0,0.25
0,403,target,"[(1175, 814)]",[],[1],[0.5],horizontal,"(390.0, 262.0)",0.5166666666666666,0.465,1,2512.194,2,0.0,0.25
0,404,target,"[(1155, 796)]",[],[1],[0.6],vertical,"(890.0, 262.0)",0.36666666666666664,0.561,1,2517.253,3,0.0,0.25
0,405,target,"[(1159, 806)]",[],[1],[0.55],vertical,"(890.0, 262.0)",1.3833333333333333,0.509,1,2522.42,3,0.0,0.25
0,406,target,"[(1158, 778)]",[],[1],[0.6166666666666667],horizontal,"(890.0, 262.0)",0.5833333333333334,0.577,1,2528.424,3,0.0,0.25
0,407,target,"[(1159, 786)]",[],[1],[0.7666666666666666],vertical,"(390.0, 762.0)",1.2,0.726,1,2533.721,3,0.0,0.25
0,408,target,"[(1157, 774)]",[],[1],[0.6833333333333333],horizontal,"(390.0, 762.0)",0.85,0.638,1,2540.138,3,0.0,0.25
0,409,target,"[(1156, 779)]",[],[1],[0.65],vertical,"(890.0, 762.0)",1.2666666666666666,0.607,1,2545.971,3,0.0,0.25
0,410,target,"[(1136, 802)]",[],[1],[0.8],vertical,"(890.0, 762.0)",1.0333333333333332,0.76,1,2552.488,3,0.0,0.25
0,411,target,"[(1157, 798)]",[],[1],[0.65],vertical,"(890.0, 262.0)",1.3666666666666667,0.603,1,2559.371,3,0.0,0.25
0,412,catch,"[(1152, 803)]",[],[1],[],vertical,"(390.0, 762.0)",1.7,nan,1,2565.59,3,0.0,0.25
0,413,catch,"[(1156, 780)]",[],[1],[],vertical,"(390.0, 262.0)",1.7,nan,1,2572.003,3,0.0,0.25
0,414,target,"[(1156, 800)]",[],[1],[0.6],horizontal,"(390.0, 262.0)",0.95,0.559,1,2577.805,3,0.0,0.25
0,415,target,"[(1160, 802)]",[],[1],[0.6166666666666667],vertical,"(890.0, 762.0)",1.2333333333333334,0.578,1,2583.958,3,0.0,0.25
0,416,target,"[(1149, 800)]",[],[1],[0.5],vertical,"(890.0, 262.0)",1.2833333333333332,0.462,1,2590.185,3,0.0,0.25
0,417,catch,"[(1156, 783)]",[],[1],[],horizontal,"(890.0, 262.0)",1.7,nan,1,2595.921,3,0.0,0.25
0,418,target,"[(1157, 776)]",[],[1],[0.6],horizontal,"(890.0, 262.0)",0.6666666666666666,0.557,1,2601.882,3,0.0,0.25
0,419,target,"[(1151, 798)]",[],[1],[0.5333333333333333],horizontal,"(890.0, 262.0)",1.4833333333333334,0.501,1,2607.855,3,0.0,0.25
0,420,catch,"[(1154, 803)]",[],[1],[],vertical,"(890.0, 262.0)",1.7,nan,1,2613.838,3,0.0,0.25
0,421,target,"[(1151, 803)]",[],[1],[0.6],vertical,"(890.0, 262.0)",1.1666666666666667,0.566,1,2620.037,3,0.0,0.25
0,422,target,"[(1166, 786)]",[],[1],[0.6],vertical,"(890.0, 762.0)",1.5,0.561,1,2626.39,3,0.0,0.25
0,423,target,"[(1157, 802)]",[],[1],[0.6166666666666667],vertical,"(890.0, 762.0)",0.36666666666666664,0.584,1,2632.366,3,0.0,0.25
0,424,target,"[(1142, 803)]",[],[1],[0.6666666666666666],horizontal,"(390.0, 262.0)",1.4833333333333334,0.624,1,2637.403,3,0.0,0.25
0,425,target,"[(1148, 803)]",[],[1],[0.55],horizontal,"(390.0, 762.0)",0.6333333333333333,0.515,1,2643.688,3,0.0,0.25
0,426,target,"[(1153, 808)]",[],[1],[0.5666666666666667],horizontal,"(390.0, 762.0)",1.2,0.526,1,2649.008,3,0.0,0.25
0,427,target,"[(1147, 790)]",[],[1],[0.5666666666666667],horizontal,"(890.0, 762.0)",1.1,0.527,1,2655.649,3,0.0,0.25
0,428,catch,"[(1160, 798)]",[],[1],[],horizontal,"(890.0, 262.0)",1.7,nan,1,2661.886,3,0.0,0.25
0,429,target,"[(1166, 790)]",[],[1],[0.48333333333333334],vertical,"(390.0, 762.0)",1.4166666666666667,0.445,1,2668.008,3,0.0,0.25
0,430,target,"[(1159, 786)]",[],[1],[0.5833333333333334],vertical,"(390.0, 262.0)",1.15,0.541,1,2674.381,3,0.0,0.25
0,431,target,"[(1142, 799)]",[],[1],[0.5333333333333333],horizontal,"(890.0, 262.0)",0.9333333333333333,0.495,1,2680.145,3,0.0,0.25
0,432,target,"[(1146, 800)]",[],[1],[0.55],vertical,"(390.0, 262.0)",0.6166666666666667,0.508,1,2685.86,3,0.0,0.25
0,433,target,"[(1171, 780)]",[],[1],[0.5333333333333333],vertical,"(890.0, 262.0)",0.9833333333333333,0.494,1,2691.305,3,0.0,0.25
0,434,target,"[(1141, 797)]",[],[1],[0.7833333333333333],horizontal,"(390.0, 762.0)",0.9666666666666667,0.735,1,2697.397,3,0.0,0.25
0,435,target,"[(1136, 783)]",[],[1],[0.5166666666666666],vertical,"(390.0, 262.0)",0.95,0.474,1,2703.53,3,0.0,0.25
0,436,target,"[(1165, 803)]",[],[1],[0.6],horizontal,"(390.0, 762.0)",1.5,0.56,1,2709.321,3,0.0,0.25
0,437,target,"[(1135, 792)]",[],[1],[0.5666666666666667],vertical,"(390.0, 262.0)",1.0833333333333333,0.525,1,2715.887,3,0.0,0.25
0,438,target,"[(1155, 803)]",[],[1],[0.6166666666666667],horizontal,"(890.0, 762.0)",0.55,0.57,1,2721.921,3,0.0,0.25
0,439,target,"[(1158, 813)]",[],[1],[0.08333333333333333],vertical,"(890.0, 762.0)",0.95,0.053,0,2727.137,0,0.0,0.25
0,440,target,"[(1160, 828)]",[],[1],[0.85],vertical,"(890.0, 262.0)",0.3833333333333333,nan,0,2730.938,0,0.0,0.25
0,441,target,"[(1159, 803)]",[],[1],[],vertical,"(890.0, 762.0)",,"('fix', 0.12)",0,2773.954,0,0.0,0.25
0,442,target,"[(1141, 822)]",[],[1],[0.5666666666666667],horizontal,"(390.0, 262.0)",1.4,0.522,1,2776.037,1,0.0,0.25
0,443,target,"[(1175, 798)]",[],[1],[0.85],horizontal,"(890.0, 762.0)",0.6833333333333333,nan,0,2781.704,0,0.0,0.25
0,444,target,"[(1160, 772)]",[],[1],[0.5666666666666667],horizontal,"(390.0, 762.0)",0.35,0.526,1,2786.045,1,0.0,0.25
0,445,target,"[(1149, 787)]",[],[1],[0.48333333333333334],vertical,"(890.0, 262.0)",0.5,0.443,1,2790.808,1,0.0,0.25
0,446,target,"[(1158, 800)]",[],[1],[0.7166666666666667],vertical,"(390.0, 262.0)",1.1833333333333333,0.673,1,2795.318,1,0.0,0.25
0,447,target,"[(1136, 799)]",[],[1],[0.5166666666666666],vertical,"(890.0, 262.0)",0.5166666666666666,0.479,1,2800.972,2,0.0,0.25
0,448,target,"[(1168, 793)]",[],[1],[0.6166666666666667],vertical,"(890.0, 262.0)",1.1833333333333333,0.575,1,2805.934,2,0.0,0.25
0,449,catch,"[(1157, 808)]",[],[1],[],horizontal,"(890.0, 762.0)",1.7,nan,1,2811.221,2,0.0,0.25
0,450,target,"[(1159, 799)]",[],[1],[0.5833333333333334],vertical,"(390.0, 262.0)",0.7166666666666667,0.539,1,2816.872,2,0.0,0.25
0,451,catch,"[(1165, 772)]",[],[1],[],horizontal,"(890.0, 762.0)",1.7,nan,1,2822.422,3,0.0,0.25
0,452,catch,"[(1134, 803)]",[],[1],[],horizontal,"(390.0, 762.0)",1.7,nan,1,2828.39,3,0.0,0.25
0,453,catch,"[(1157, 803)]",[],[1],[],horizontal,"(890.0, 762.0)",1.7,nan,1,2834.139,3,0.0,0.25
0,454,target,"[(1151, 798)]",[],[1],[0.5333333333333333],vertical,"(890.0, 762.0)",1.4333333333333333,0.49,1,2840.421,3,0.0,0.25
0,455,catch,"[(1144, 804)]",[],[1],[],vertical,"(890.0, 262.0)",1.7,nan,1,2846.708,3,0.0,0.25
0,456,target,"[(1165, 783)]",[],[1],[0.7],vertical,"(390.0, 262.0)",1.0333333333333332,0.653,1,2852.489,3,0.0,0.25
0,457,catch,"[(1146, 803)]",[],[1],[],horizontal,"(390.0, 262.0)",1.7,nan,1,2858.628,3,0.0,0.25
0,458,target,"[(1163, 776)]",[],[1],[0.48333333333333334],horizontal,"(890.0, 262.0)",1.0,0.442,1,2864.66,3,0.0,0.25
0,459,target,"[(1151, 779)]",[],[1],[0.6166666666666667],vertical,"(890.0, 762.0)",0.6833333333333333,0.575,1,2870.772,3,0.0,0.25
0,460,catch,"[(1147, 781)]",[],[1],[],horizontal,"(390.0, 762.0)",1.7,nan,1,2876.272,3,0.0,0.25
0,461,target,"[(1152, 800)]",[],[1],[0.75],vertical,"(890.0, 262.0)",1.2666666666666666,0.713,1,2882.484,3,0.0,0.25
0,462,target,"[(1160, 801)]",[],[1],[0.5166666666666666],vertical,"(890.0, 262.0)",1.3,0.474,1,2889.02,3,0.0,0.25
0,463,target,"[(1147, 774)]",[],[1],[0.6],vertical,"(390.0, 762.0)",0.6333333333333333,0.554,1,2894.788,3,0.0,0.25
0,464,target,"[(1152, 801)]",[],[1],[0.55],horizontal,"(390.0, 762.0)",0.6166666666666667,0.506,1,2900.084,3,0.0,0.25
0,465,target,"[(1133, 794)]",[],[1],[0.5166666666666666],horizontal,"(390.0, 262.0)",1.4833333333333334,0.472,1,2905.655,3,0.0,0.25
0,466,target,"[(1161, 807)]",[],[1],[0.5166666666666666],vertical,"(390.0, 762.0)",1.2333333333333334,0.471,1,2911.905,3,0.0,0.25
0,467,catch,"[(1153, 798)]",[],[1],[],horizontal,"(890.0, 762.0)",1.7,nan,1,2918.022,3,0.0,0.25
0,468,target,"[(1166, 798)]",[],[1],[0.6166666666666667],horizontal,"(390.0, 262.0)",0.8,0.576,1,2924.186,3,0.0,0.25
0,469,target,"[(1167, 799)]",[],[1],[0.7166666666666667],horizontal,"(390.0, 262.0)",1.15,0.666,1,2930.198,3,0.0,0.25
0,470,target,"[(1133, 800)]",[],[1],[0.5333333333333333],horizontal,"(890.0, 262.0)",0.6833333333333333,0.492,1,2936.434,3,0.0,0.25
0,471,target,"[(1159, 801)]",[],[1],[0.85],vertical,"(390.0, 262.0)",0.36666666666666664,nan,0,2942.658,0,0.0,0.25
0,472,target,"[(1139, 803)]",[],[1],[0.5833333333333334],horizontal,"(890.0, 762.0)",1.0333333333333332,0.539,1,2946.472,1,0.0,0.25
0,473,target,"[(1170, 786)]",[],[1],[0.5833333333333334],horizontal,"(390.0, 762.0)",0.8,0.542,1,2951.845,1,0.0,0.25
0,474,target,"[(1170, 788)]",[],[1],[0.6166666666666667],horizontal,"(390.0, 262.0)",0.6833333333333333,0.575,1,2956.564,1,0.0,0.25
0,475,catch,"[(1165, 803)]",[],[1],[],vertical,"(890.0, 762.0)",1.7,nan,1,2961.673,2,0.0,0.25
0,476,target,"[(1155, 801)]",[],[1],[0.5833333333333334],vertical,"(390.0, 762.0)",0.7666666666666666,0.539,1,2967.795,2,0.0,0.25
0,477,catch,"[(1168, 800)]",[],[1],[],vertical,"(390.0, 762.0)",1.7,nan,1,2972.741,2,0.0,0.25
0,478,target,"[(1151, 782)]",[],[1],[0.6666666666666666],horizontal,"(390.0, 762.0)",1.0833333333333333,0.619,1,2978.166,2,0.0,0.25
0,479,catch,"[(1141, 800)]",[],[1],[],vertical,"(890.0, 762.0)",1.7,nan,1,2983.566,3,0.0,0.25
0,480,target,"[(1155, 776)]",[],[1],[0.6333333333333333],vertical,"(390.0, 762.0)",0.9166666666666666,0.585,1,2989.606,3,0.0,0.25
0,481,catch,"[(1158, 776)]",[],[1],[],horizontal,"(890.0, 762.0)",1.7,nan,1,2995.486,3,0.0,0.25
0,482,target,"[(1161, 778)]",[],[1],[0.5166666666666666],horizontal,"(390.0, 262.0)",1.0333333333333332,0.475,1,3001.455,3,0.0,0.25
0,483,catch,"[(1165, 811)]",[],[1],[],vertical,"(390.0, 762.0)",1.7,nan,1,3006.938,3,0.0,0.25
0,484,target,"[(1135, 770)]",[],[1],[0.6166666666666667],vertical,"(390.0, 762.0)",1.0166666666666666,0.569,1,3013.146,3,0.0,0.25
0,485,catch,"[(1142, 804)]",[],[1],[],vertical,"(890.0, 262.0)",1.7,nan,1,3018.91,3,0.0,0.25
0,486,target,"[(1165, 803)]",[],[1],[0.5833333333333334],vertical,"(890.0, 762.0)",0.5333333333333333,0.539,1,3024.938,3,0.0,0.25
0,487,target,"[(1122, 798)]",[],[1],[0.5333333333333333],horizontal,"(890.0, 762.0)",1.3333333333333333,0.493,1,3030.321,3,0.0,0.25
0,488,target,"[(1165, 804)]",[],[1],[0.55],vertical,"(390.0, 262.0)",1.1333333333333333,0.51,1,3036.702,3,0.0,0.25
0,489,target,"[(1159, 801)]",[],[1],[0.5666666666666667],vertical,"(890.0, 262.0)",0.8333333333333334,0.526,1,3042.49,3,0.0,0.25
0,490,target,"[(1160, 788)]",[],[1],[0.5],horizontal,"(890.0, 262.0)",1.25,0.458,1,3048.238,3,0.0,0.25
0,491,catch,"[(1134, 803)]",[],[1],[],vertical,"(890.0, 262.0)",1.7,nan,1,3054.139,3,0.0,0.25
0,492,target,"[(1159, 800)]",[],[1],[0.5333333333333333],horizontal,"(890.0, 262.0)",0.4166666666666667,0.492,1,3060.547,3,0.0,0.25
0,493,target,"[(1153, 793)]",[],[1],[0.55],horizontal,"(890.0, 762.0)",1.3833333333333333,0.505,1,3065.804,3,0.0,0.25
0,494,target,"[(1161, 786)]",[],[1],[0.7],vertical,"(890.0, 262.0)",0.48333333333333334,0.656,1,3072.294,3,0.0,0.25
0,495,target,"[(1132, 785)]",[],[1],[0.7333333333333333],vertical,"(890.0, 262.0)",0.55,0.689,1,3077.856,3,0.0,0.25
0,496,catch,"[(1157, 779)]",[],[1],[],vertical,"(890.0, 762.0)",1.7,nan,1,3083.284,3,0.0,0.25
0,497,target,"[(1144, 792)]",[],[1],[0.7],vertical,"(390.0, 762.0)",1.5333333333333332,0.653,1,3089.437,3,0.0,0.25
0,498,target,"[(1154, 780)]",[],[1],[0.5833333333333334],horizontal,"(390.0, 762.0)",1.0833333333333333,0.548,1,3095.684,3,0.0,0.25
0,499,catch,"[(1166, 798)]",[],[1],[],vertical,"(390.0, 762.0)",1.7,nan,1,3101.523,3,0.0,0.25
0,500,catch,"[(1160, 783)]",[],[1],[],horizontal,"(390.0, 262.0)",1.7,nan,1,3107.201,3,0.0,0.25
0,501,target,"[(1166, 779)]",[],[1],[0.5333333333333333],horizontal,"(890.0, 762.0)",1.4166666666666667,0.493,1,3113.414,3,0.0,0.25
0,502,catch,"[(1174, 808)]",[],[1],[],horizontal,"(390.0, 262.0)",1.7,nan,1,3119.562,3,0.0,0.25
0,503,target,"[(1167, 794)]",[],[1],[0.6833333333333333],horizontal,"(890.0, 262.0)",1.1,0.641,1,3125.755,3,0.0,0.25
0,504,target,"[(1116, 796)]",[],[1],[0.55],horizontal,"(390.0, 262.0)",1.1166666666666667,0.508,1,3132.016,3,0.0,0.25
0,505,target,"[(1156, 803)]",[],[1],[0.6333333333333333],vertical,"(890.0, 262.0)",1.4666666666666666,0.591,1,3140.085,3,0.0,0.25
0,506,catch,"[(1164, 803)]",[],[1],[],horizontal,"(890.0, 262.0)",1.7,nan,1,3146.739,3,0.0,0.25
0,507,target,"[(1155, 788)]",[],[1],[0.6833333333333333],vertical,"(890.0, 762.0)",0.6833333333333333,0.637,1,3152.556,3,0.0,0.25
0,508,catch,"[(1165, 803)]",[],[1],[],vertical,"(390.0, 262.0)",1.7,nan,1,3158.479,3,0.0,0.25
0,509,target,"[(1134, 803)]",[],[1],[0.6666666666666666],vertical,"(390.0, 762.0)",1.3,0.618,1,3164.371,3,0.0,0.25
0,510,target,"[(1131, 792)]",[],[1],[0.6],horizontal,"(890.0, 762.0)",1.3833333333333333,0.553,1,3170.938,3,0.0,0.25
0,511,catch,"[(1165, 803)]",[],[1],[],horizontal,"(890.0, 762.0)",1.7,nan,1,3177.446,3,0.0,0.25
0,512,catch,"[(1164, 799)]",[],[1],[],horizontal,"(890.0, 262.0)",1.7,nan,1,3183.801,3,0.0,0.25
0,513,target,"[(1157, 793)]",[],[1],[0.5],horizontal,"(390.0, 262.0)",0.6166666666666667,0.459,1,3189.456,3,0.0,0.25
0,514,target,"[(1160, 798)]",[],[1],[0.5],vertical,"(390.0, 762.0)",1.45,0.455,1,3194.605,3,0.0,0.25
0,515,target,"[(1136, 774)]",[],[1],[0.6166666666666667],vertical,"(390.0, 762.0)",1.1666666666666667,0.577,1,3201.0,3,0.0,0.25
0,516,catch,"[(1126, 803)]",[],[1],[],horizontal,"(390.0, 262.0)",1.7,nan,1,3207.472,3,0.0,0.25
0,517,catch,"[(1169, 804)]",[],[1],[],horizontal,"(890.0, 262.0)",1.7,nan,1,3213.795,3,0.0,0.25
0,518,catch,"[(1165, 800)]",[],[1],[],vertical,"(390.0, 762.0)",1.7,nan,1,3220.172,3,0.0,0.25
0,519,target,"[(1141, 783)]",[],[1],[0.5166666666666666],vertical,"(890.0, 262.0)",1.5166666666666666,0.475,1,3225.889,3,0.0,0.25
0,520,catch,"[(1160, 798)]",[],[1],[],horizontal,"(890.0, 762.0)",1.7,nan,1,3232.094,3,0.0,0.25
0,521,catch,"[(1163, 798)]",[],[1],[],horizontal,"(890.0, 262.0)",1.7,nan,1,3238.455,3,0.0,0.25
0,522,catch,"[(1133, 803)]",[],[1],[],vertical,"(390.0, 262.0)",1.7,nan,1,3244.156,3,0.0,0.25
0,523,catch,"[(1162, 794)]",[],[1],[],vertical,"(390.0, 762.0)",1.7,nan,1,3250.03,3,0.0,0.25
0,524,target,"[(1159, 806)]",[],[1],[0.5666666666666667],horizontal,"(390.0, 762.0)",0.6166666666666667,0.526,1,3256.317,3,0.0,0.25
0,525,target,"[(1173, 803)]",[],[1],[0.6],horizontal,"(890.0, 762.0)",1.45,0.562,1,3261.633,3,0.0,0.25
0,526,catch,"[(1160, 803)]",[],[1],[],vertical,"(390.0, 762.0)",1.7,nan,1,3267.954,3,0.0,0.25
0,527,target,"[(1171, 808)]",[],[1],[0.55],horizontal,"(390.0, 762.0)",0.8166666666666667,0.508,1,3274.189,3,0.0,0.25
0,528,target,"[(1165, 808)]",[],[1],[0.6333333333333333],vertical,"(890.0, 762.0)",0.7333333333333333,0.595,1,3279.843,3,0.0,0.25
0,529,target,"[(1131, 783)]",[],[1],[0.6833333333333333],horizontal,"(390.0, 262.0)",1.3833333333333333,0.641,1,3285.922,3,0.0,0.25
0,530,catch,"[(1136, 800)]",[],[1],[],horizontal,"(390.0, 762.0)",1.7,nan,1,3292.106,3,0.0,0.25
0,531,target,"[(1141, 803)]",[],[1],[0.4166666666666667],vertical,"(390.0, 262.0)",1.3833333333333333,0.377,1,3299.271,3,0.0,0.25
0,532,target,"[(1167, 804)]",[],[1],[0.48333333333333334],horizontal,"(890.0, 262.0)",1.5,0.447,1,3305.74,3,0.0,0.25
0,533,target,"[(1137, 806)]",[],[1],[0.6666666666666666],vertical,"(390.0, 262.0)",1.3166666666666667,0.625,1,3311.857,3,0.0,0.25
0,534,target,"[(1160, 803)]",[],[1],[0.6833333333333333],vertical,"(390.0, 762.0)",1.2166666666666666,0.636,1,3318.323,3,0.0,0.25
0,535,catch,"[(1157, 765)]",[],[1],[],vertical,"(390.0, 762.0)",1.7,nan,1,3324.455,3,0.0,0.25
0,536,target,"[(1136, 803)]",[],[1],[0.6166666666666667],vertical,"(390.0, 762.0)",0.8666666666666667,0.568,1,3330.501,3,0.0,0.25
0,537,catch,"[(1164, 801)]",[],[1],[],horizontal,"(890.0, 262.0)",1.7,nan,1,3339.035,3,0.0,0.25
0,538,target,"[(1145, 780)]",[],[1],[0.5833333333333334],horizontal,"(390.0, 762.0)",0.5,0.538,1,3345.364,3,0.0,0.25
0,539,target,"[(1142, 803)]",[],[1],[0.75],horizontal,"(890.0, 762.0)",0.6166666666666667,0.702,1,3350.732,3,0.0,0.25
0,540,target,"[(1181, 800)]",[],[1],[0.5],vertical,"(890.0, 262.0)",1.0,0.459,1,3356.621,3,0.0,0.25
0,541,target,"[(1165, 803)]",[],[1],[0.7],vertical,"(890.0, 262.0)",1.4333333333333333,0.653,1,3362.656,3,0.0,0.25
0,542,target,"[(1162, 800)]",[],[1],[0.75],vertical,"(890.0, 762.0)",0.55,0.71,1,3368.841,3,0.0,0.25
0,543,target,"[(1151, 788)]",[],[1],[0.35],vertical,"(890.0, 262.0)",1.4166666666666667,0.314,1,3374.921,3,0.0,0.25
0,544,target,"[(1136, 812)]",[],[1],[0.6166666666666667],horizontal,"(890.0, 262.0)",1.2333333333333334,0.585,1,3381.685,3,0.0,0.25
0,545,target,"[(1163, 799)]",[],[1],[0.7666666666666666],vertical,"(390.0, 762.0)",0.65,0.727,1,3387.721,3,0.0,0.25
0,546,target,"[(1141, 803)]",[],[1],[0.5666666666666667],vertical,"(890.0, 762.0)",1.45,0.525,1,3393.393,3,0.0,0.25
0,547,target,"[(1137, 811)]",[],[1],[0.55],vertical,"(390.0, 762.0)",0.8833333333333333,0.51,1,3399.826,3,0.0,0.25
0,548,target,"[(1141, 799)]",[],[1],[0.6333333333333333],horizontal,"(890.0, 762.0)",0.75,0.593,1,3405.378,3,0.0,0.25
0,549,catch,"[(1141, 807)]",[],[1],[],vertical,"(890.0, 762.0)",1.7,nan,1,3411.956,3,0.0,0.25
0,550,target,"[(1158, 798)]",[],[1],[0.5333333333333333],vertical,"(390.0, 762.0)",0.6,0.496,1,3417.884,3,0.0,0.25
0,551,catch,"[(1165, 784)]",[],[1],[],vertical,"(890.0, 762.0)",1.7,nan,1,3423.098,3,0.0,0.25
0,552,catch,"[(1160, 813)]",[],[1],[],horizontal,"(390.0, 762.0)",1.7,nan,1,3429.044,3,0.0,0.25
0,553,target,"[(1160, 798)]",[],[1],[0.45],vertical,"(390.0, 262.0)",1.25,0.414,1,3434.891,3,0.0,0.25
0,554,target,"[(1160, 803)]",[],[1],[0.6666666666666666],vertical,"(390.0, 762.0)",1.4666666666666666,0.634,1,3441.183,3,0.0,0.25
0,555,catch,"[(1137, 813)]",[],[1],[],horizontal,"(890.0, 762.0)",1.7,nan,1,3447.422,3,0.0,0.25
0,556,target,"[(1165, 803)]",[],[1],[0.45],horizontal,"(390.0, 762.0)",0.6666666666666666,0.412,1,3453.393,3,0.0,0.25
0,557,target,"[(1160, 778)]",[],[1],[0.6333333333333333],horizontal,"(390.0, 262.0)",0.9166666666666666,0.596,1,3459.113,3,0.0,0.25
0,558,catch,"[(1160, 809)]",[],[1],[],horizontal,"(390.0, 762.0)",1.7,nan,1,3465.33,3,0.0,0.25
0,559,catch,"[(1136, 770)]",[],[1],[],vertical,"(890.0, 262.0)",1.7,nan,1,3470.99,3,0.0,0.25
0,560,target,"[(1155, 827)]",[],[1],[0.5],horizontal,"(890.0, 262.0)",1.1833333333333333,0.469,1,3476.89,3,0.0,0.25
0,561,target,"[(1141, 779)]",[],[1],[0.43333333333333335],horizontal,"(390.0, 762.0)",1.4333333333333333,0.402,1,3482.862,3,0.0,0.25
0,562,catch,"[(1164, 776)]",[],[1],[],horizontal,"(890.0, 762.0)",1.7,nan,1,3489.121,3,0.0,0.25
0,563,catch,"[(1136, 808)]",[],[1],[],horizontal,"(890.0, 262.0)",1.7,nan,1,3495.723,3,0.0,0.25
0,564,target,"[(1158, 803)]",[],[1],[0.4],vertical,"(890.0, 262.0)",1.45,0.36,1,3501.775,3,0.0,0.25
0,565,target,"[(1160, 787)]",[],[1],[0.2833333333333333],horizontal,"(890.0, 262.0)",1.5,0.247,1,3507.732,3,0.0,0.25
0,566,target,"[(1136, 801)]",[],[1],[0.55],vertical,"(390.0, 262.0)",0.5333333333333333,0.513,1,3514.068,3,0.0,0.25
0,567,target,"[(1163, 811)]",[],[1],[0.55],vertical,"(390.0, 762.0)",0.95,0.505,1,3519.356,3,0.0,0.25
0,568,target,"[(1140, 767)]",[],[1],[0.5666666666666667],vertical,"(390.0, 262.0)",0.9833333333333333,0.53,1,3524.886,3,0.0,0.25
0,569,target,"[(1155, 799)]",[],[1],[0.85],vertical,"(390.0, 262.0)",0.5833333333333334,nan,0,3530.955,0,0.0,0.25
0,570,catch,"[(1165, 822)]",[],[1],[],horizontal,"(390.0, 762.0)",1.7,nan,1,3535.222,1,0.0,0.25
0,571,catch,"[(1134, 779)]",[],[1],[],horizontal,"(390.0, 762.0)",1.7,nan,1,3688.974,1,0.0,0.25
0,572,target,"[(1163, 784)]",[],[1],[0.7166666666666667],horizontal,"(890.0, 762.0)",1.0666666666666667,0.675,1,3694.617,1,0.0,0.25
0,573,target,"[(1164, 784)]",[],[1],[0.6666666666666666],vertical,"(890.0, 762.0)",0.6666666666666666,0.624,1,3700.384,2,0.0,0.25
0,574,target,"[(1136, 831)]",[],[1],[0.6],vertical,"(390.0, 262.0)",1.2333333333333334,0.566,1,3706.174,2,0.0,0.25
0,575,target,"[(1158, 792)]",[],[1],[0.6666666666666666],vertical,"(890.0, 262.0)",0.75,0.625,1,3717.457,2,0.0,0.25
0,576,target,"[(1143, 820)]",[],[1],[0.5],horizontal,"(890.0, 262.0)",0.48333333333333334,0.462,1,3722.775,2,0.0,0.25
0,577,target,"[(1110, 825)]",[],[1],[0.6],vertical,"(890.0, 762.0)",1.0166666666666666,0.561,1,3728.574,3,0.0,0.25
0,578,target,"[(1141, 813)]",[],[1],[0.55],horizontal,"(890.0, 762.0)",0.7333333333333333,0.509,1,3739.35,3,0.0,0.25
0,579,target,"[(1140, 833)]",[],[1],[0.5166666666666666],vertical,"(890.0, 262.0)",0.7166666666666667,0.473,1,3745.198,3,0.0,0.25
0,580,target,"[(1171, 774)]",[],[1],[0.5666666666666667],vertical,"(890.0, 262.0)",0.7166666666666667,0.535,1,3751.674,3,0.0,0.25
0,581,target,"[(1160, 808)]",[],[1],[0.5166666666666666],horizontal,"(390.0, 762.0)",0.3833333333333333,0.478,1,3757.058,3,0.0,0.25
0,582,target,"[(1158, 808)]",[],[1],[0.48333333333333334],vertical,"(890.0, 262.0)",0.7833333333333333,0.448,1,3762.175,3,0.0,0.25
0,583,target,"[(1160, 813)]",[],[1],[0.5166666666666666],vertical,"(890.0, 262.0)",0.6666666666666666,0.477,1,3768.093,3,0.0,0.25
0,584,target,"[(1157, 800)]",[],[1],[0.6666666666666666],vertical,"(390.0, 262.0)",1.1333333333333333,0.635,1,3773.395,3,0.0,0.25
0,585,target,"[(1158, 798)]",[],[1],[0.6],horizontal,"(890.0, 762.0)",0.9333333333333333,0.57,1,3779.578,3,0.0,0.25
0,586,catch,"[(1157, 800)]",[],[1],[],vertical,"(890.0, 762.0)",1.7,nan,1,3785.548,3,0.0,0.25
0,587,target,"[(1153, 785)]",[],[1],[0.55],horizontal,"(390.0, 262.0)",0.7,0.517,1,3791.627,3,0.0,0.25
0,588,target,"[(1166, 804)]",[],[1],[0.6],vertical,"(890.0, 762.0)",0.6833333333333333,0.558,1,3797.153,3,0.0,0.25
0,589,target,"[(1159, 798)]",[],[1],[0.5],horizontal,"(890.0, 762.0)",0.5333333333333333,0.467,1,3802.627,3,0.0,0.25
0,590,target,"[(1159, 782)]",[],[1],[0.6333333333333333],vertical,"(390.0, 762.0)",0.9833333333333333,0.588,1,3808.275,3,0.0,0.25
0,591,target,"[(1159, 776)]",[],[1],[0.85],vertical,"(390.0, 762.0)",0.6166666666666667,nan,0,3814.024,0,0.0,0.25
0,592,target,"[(1120, 843)]",[],[1],[0.08333333333333333],vertical,"(390.0, 762.0)",1.1833333333333333,0.053,0,3818.529,0,0.0,0.25
0,593,catch,"[(1141, 807)]",[],[1],[],vertical,"(890.0, 762.0)",1.7,nan,1,3827.85,1,0.0,0.25
0,594,target,"[(1170, 799)]",[],[1],[0.7166666666666667],vertical,"(890.0, 262.0)",1.1166666666666667,0.678,1,3833.489,1,0.0,0.25
0,595,target,"[(1150, 798)]",[],[1],[0.5166666666666666],vertical,"(390.0, 762.0)",0.4666666666666667,0.488,1,3839.259,1,0.0,0.25
0,596,target,"[(1165, 804)]",[],[1],[0.85],vertical,"(390.0, 262.0)",1.4666666666666666,nan,0,3844.167,0,0.0,0.25
0,597,catch,"[(1136, 790)]",[],[1],[],vertical,"(890.0, 762.0)",1.7,nan,1,3849.689,1,0.0,0.25
0,598,target,"[(1160, 789)]",[],[1],[0.75],vertical,"(890.0, 762.0)",0.6166666666666667,0.705,1,3855.792,1,0.0,0.25
0,599,target,"[(1157, 779)]",[],[1],[0.85],vertical,"(390.0, 762.0)",0.85,nan,0,3860.925,0,0.0,0.25
0,600,target,"[(1092, 803)]",[],[1],[0.5333333333333333],vertical,"(390.0, 262.0)",1.4,0.5,1,3865.891,1,0.0,0.25
0,601,target,"[(1160, 800)]",[],[1],[0.5333333333333333],vertical,"(890.0, 262.0)",0.65,0.491,1,3874.659,1,0.0,0.25
0,602,target,"[(1140, 805)]",[],[1],[0.8],horizontal,"(890.0, 762.0)",1.1833333333333333,0.767,1,3879.565,1,0.0,0.25
0,603,target,"[(1137, 808)]",[],[1],[0.85],vertical,"(390.0, 262.0)",1.4,nan,0,3885.092,0,0.0,0.25
0,604,target,"[(1136, 800)]",[],[1],[0.5166666666666666],vertical,"(390.0, 262.0)",1.0,0.477,1,3890.309,1,0.0,0.25
0,605,target,"[(1157, 803)]",[],[1],[0.5333333333333333],vertical,"(890.0, 762.0)",0.7166666666666667,0.497,1,3895.245,1,0.0,0.25
0,606,target,"[(1165, 801)]",[],[1],[0.55],horizontal,"(390.0, 762.0)",0.85,0.51,1,3899.758,1,0.0,0.25
0,607,target,"[(1146, 800)]",[],[1],[0.25],vertical,"(390.0, 762.0)",1.5333333333333332,0.221,1,3904.709,2,0.0,0.25
0,608,catch,"[(1159, 798)]",[],[1],[],horizontal,"(390.0, 762.0)",1.7,nan,1,3910.643,2,0.0,0.25
0,609,target,"[(1146, 790)]",[],[1],[0.85],horizontal,"(390.0, 262.0)",0.7333333333333333,nan,0,3916.224,0,0.0,0.25
0,610,target,"[(1136, 798)]",[],[1],[0.55],horizontal,"(890.0, 762.0)",0.4166666666666667,0.508,1,3920.739,1,0.0,0.25
0,611,target,"[(1156, 773)]",[],[1],[0.5333333333333333],vertical,"(890.0, 262.0)",1.4166666666666667,0.49,1,3925.342,1,0.0,0.25
0,612,target,"[(1142, 807)]",[],[1],[0.36666666666666664],horizontal,"(890.0, 262.0)",1.4666666666666666,0.327,1,3930.991,1,0.0,0.25
0,613,target,"[(1158, 803)]",[],[1],[0.85],horizontal,"(390.0, 262.0)",0.5,nan,0,3936.517,0,0.0,0.25
0,614,catch,"[(1156, 772)]",[],[1],[],vertical,"(390.0, 762.0)",1.7,nan,1,3940.891,1,0.0,0.25
0,615,target,"[(1165, 820)]",[],[1],[0.85],vertical,"(390.0, 762.0)",0.7833333333333333,nan,0,4020.327,0,0.0,0.25
0,616,target,"[(1151, 799)]",[],[1],[0.65],horizontal,"(390.0, 762.0)",0.9166666666666666,0.622,1,4025.276,1,0.0,0.25
0,617,catch,"[(1160, 804)]",[],[1],[],horizontal,"(890.0, 262.0)",1.7,nan,1,4030.754,1,0.0,0.25
0,618,target,"[(1197, 778)]",[],[1],[0.7],horizontal,"(890.0, 262.0)",1.3833333333333333,0.657,1,4036.283,1,0.0,0.25
0,619,target,"[(1131, 799)]",[],[1],[0.6],horizontal,"(390.0, 262.0)",1.45,0.556,1,4041.816,2,0.0,0.25
0,620,target,"[(1172, 802)]",[],[1],[0.5333333333333333],vertical,"(890.0, 262.0)",0.85,0.489,1,4047.708,2,0.0,0.25
0,621,target,"[(1157, 769)]",[],[1],[0.7333333333333333],vertical,"(390.0, 262.0)",1.4166666666666667,0.688,1,4052.997,2,0.0,0.25
0,622,catch,"[(1160, 798)]",[],[1],[],vertical,"(390.0, 262.0)",1.7,nan,1,4058.724,2,0.0,0.25
0,623,catch,"[(1158, 798)]",[],[1],[],horizontal,"(890.0, 762.0)",1.7,nan,1,4064.909,3,0.0,0.25
0,624,catch,"[(1160, 793)]",[],[1],[],horizontal,"(890.0, 262.0)",1.7,nan,1,4071.408,3,0.0,0.25
0,625,catch,"[(1166, 783)]",[],[1],[],horizontal,"(890.0, 262.0)",1.7,nan,1,4077.807,3,0.0,0.25
0,626,catch,"[(1173, 783)]",[],[1],[],horizontal,"(390.0, 262.0)",1.7,nan,1,4083.578,3,0.0,0.25
0,627,catch,"[(1157, 805)]",[],[1],[],vertical,"(390.0, 762.0)",1.7,nan,1,4089.223,3,0.0,0.25
0,628,catch,"[(1154, 782)]",[],[1],[],vertical,"(390.0, 762.0)",1.7,nan,1,4095.675,3,0.0,0.25
0,629,target,"[(1156, 798)]",[],[1],[0.5166666666666666],horizontal,"(890.0, 762.0)",0.7333333333333333,0.477,1,4101.309,3,0.0,0.25
0,630,target,"[(1160, 800)]",[],[1],[0.85],horizontal,"(890.0, 762.0)",0.48333333333333334,nan,0,4106.708,0,0.0,0.25
0,631,target,"[(1136, 800)]",[],[1],[0.5166666666666666],horizontal,"(390.0, 262.0)",1.2833333333333332,0.478,1,4110.826,1,0.0,0.25
0,632,target,"[(1144, 803)]",[],[1],[0.55],vertical,"(390.0, 262.0)",0.8166666666666667,0.504,1,4116.211,1,0.0,0.25
0,633,target,"[(1160, 779)]",[],[1],[0.85],vertical,"(890.0, 262.0)",1.1166666666666667,nan,0,4121.317,0,0.0,0.25
0,634,target,"[(1123, 802)]",[],[1],[0.5166666666666666],vertical,"(390.0, 762.0)",0.5333333333333333,0.481,1,4126.059,1,0.0,0.25
0,635,catch,"[(1136, 775)]",[],[1],[],horizontal,"(390.0, 762.0)",1.7,nan,1,4130.53,1,0.0,0.25
0,636,target,"[(1165, 781)]",[],[1],[0.65],horizontal,"(890.0, 762.0)",0.6333333333333333,0.609,1,4136.059,1,0.0,0.25
0,637,target,"[(1155, 803)]",[],[1],[0.6333333333333333],vertical,"(390.0, 262.0)",1.15,0.586,1,4141.065,2,0.0,0.25
0,638,target,"[(1155, 807)]",[],[1],[0.4],vertical,"(890.0, 762.0)",1.4833333333333334,0.363,1,4146.442,2,0.0,0.25
0,639,target,"[(1165, 808)]",[],[1],[0.5333333333333333],horizontal,"(890.0, 262.0)",1.35,0.491,1,4152.32,2,0.0,0.25
0,640,target,"[(1156, 803)]",[],[1],[0.5833333333333334],horizontal,"(390.0, 762.0)",0.48333333333333334,0.539,1,4158.225,2,0.0,0.25
0,641,target,"[(1155, 800)]",[],[1],[0.6],horizontal,"(390.0, 262.0)",1.4,0.559,1,4163.042,3,0.0,0.25
0,642,target,"[(1156, 774)]",[],[1],[0.5],horizontal,"(890.0, 262.0)",0.4666666666666667,0.458,1,4168.93,3,0.0,0.25
0,643,target,"[(1146, 798)]",[],[1],[0.5333333333333333],vertical,"(390.0, 262.0)",0.65,0.49,1,4174.093,3,0.0,0.25
0,644,catch,"[(1139, 803)]",[],[1],[],horizontal,"(390.0, 262.0)",1.7,nan,1,4179.245,3,0.0,0.25
0,645,target,"[(1159, 792)]",[],[1],[0.5333333333333333],vertical,"(890.0, 762.0)",0.4666666666666667,0.488,1,4185.207,3,0.0,0.25
0,646,target,"[(1155, 803)]",[],[1],[0.5333333333333333],horizontal,"(890.0, 262.0)",0.95,0.488,1,4190.676,3,0.0,0.25
0,647,target,"[(1156, 799)]",[],[1],[0.55],horizontal,"(890.0, 262.0)",1.2833333333333332,0.51,1,4196.276,3,0.0,0.25
0,648,target,"[(1133, 808)]",[],[1],[0.6166666666666667],horizontal,"(890.0, 262.0)",0.48333333333333334,0.573,1,4202.275,3,0.0,0.25
0,649,target,"[(1151, 789)]",[],[1],[0.75],vertical,"(890.0, 262.0)",1.2166666666666666,0.703,1,4208.825,3,0.0,0.25
0,650,catch,"[(1145, 780)]",[],[1],[],horizontal,"(890.0, 762.0)",1.7,nan,1,4214.764,3,0.0,0.25
0,651,target,"[(1159, 774)]",[],[1],[0.85],vertical,"(390.0, 762.0)",0.8166666666666667,nan,0,4220.642,0,0.0,0.25
0,652,target,"[(1122, 803)]",[],[1],[0.65],vertical,"(890.0, 762.0)",1.4666666666666666,0.602,1,4225.108,1,0.0,0.25
0,653,target,"[(1157, 776)]",[],[1],[0.5666666666666667],vertical,"(890.0, 762.0)",1.0333333333333332,0.525,1,4230.707,1,0.0,0.25
0,654,target,"[(1160, 803)]",[],[1],[0.5333333333333333],horizontal,"(390.0, 262.0)",0.5,0.493,1,4235.357,1,0.0,0.25
0,655,target,"[(1160, 794)]",[],[1],[0.55],vertical,"(390.0, 262.0)",0.6,0.508,1,4239.819,2,0.0,0.25
0,656,target,"[(1158, 748), (1135, 822)]",[],"[0, 1]",[0.21666666666666667],horizontal,"(890.0, 762.0)",1.5,0.184,0,4245.378,0,0.0,0.25
0,657,catch,"[(1156, 803)]",[],[1],[],vertical,"(390.0, 262.0)",1.7,nan,1,4252.421,1,0.0,0.25
0,658,target,"[(1162, 798)]",[],[1],[0.5333333333333333],vertical,"(890.0, 262.0)",1.5,0.493,1,4257.475,1,0.0,0.25
0,659,target,"[(1160, 802)]",[],[1],[0.5833333333333334],vertical,"(390.0, 262.0)",0.9833333333333333,0.536,1,4263.165,1,0.0,0.25
0,660,target,"[(1160, 804)]",[],[1],[0.65],vertical,"(890.0, 262.0)",0.3833333333333333,0.607,1,4268.168,2,0.0,0.25
0,661,catch,"[(1164, 779)]",[],[1],[],horizontal,"(890.0, 262.0)",1.7,nan,1,4272.86,2,0.0,0.25
0,662,target,"[(1160, 780)]",[],[1],[0.3333333333333333],vertical,"(890.0, 762.0)",1.5333333333333332,0.297,1,4278.325,2,0.0,0.25
0,663,target,"[(1160, 798)]",[],[1],[0.55],horizontal,"(390.0, 262.0)",1.0,0.506,1,4284.56,2,0.0,0.25
0,664,target,"[(1160, 800)]",[],[1],[0.6666666666666666],vertical,"(890.0, 762.0)",0.6666666666666666,0.62,1,4290.028,3,0.0,0.25
0,665,target,"[(1166, 798)]",[],[1],[0.5666666666666667],vertical,"(390.0, 762.0)",1.4833333333333334,0.52,1,4296.331,3,0.0,0.25
0,666,target,"[(1142, 793)]",[],[1],[0.7666666666666666],horizontal,"(390.0, 762.0)",1.1,0.725,1,4302.435,3,0.0,0.25
0,667,catch,"[(1157, 774)]",[],[1],[],vertical,"(390.0, 262.0)",1.7,nan,1,4308.243,3,0.0,0.25
0,668,target,"[(1161, 802)]",[],[1],[0.85],vertical,"(890.0, 762.0)",1.0166666666666666,nan,0,4313.959,0,0.0,0.25
0,669,target,"[(1141, 800)]",[],[1],[0.6666666666666666],vertical,"(890.0, 762.0)",1.5,0.618,1,4318.983,1,0.0,0.25
0,670,catch,"[(1160, 798)]",[],[1],[],horizontal,"(390.0, 262.0)",1.7,nan,1,4324.347,1,0.0,0.25
0,671,target,"[(1160, 785)]",[],[1],[0.5166666666666666],vertical,"(890.0, 762.0)",0.9166666666666666,0.476,1,4329.277,1,0.0,0.25
0,672,catch,"[(1170, 774)]",[],[1],[],horizontal,"(890.0, 262.0)",1.7,nan,1,4334.259,2,0.0,0.25
0,673,target,"[(1137, 788)]",[],[1],[0.7333333333333333],horizontal,"(890.0, 762.0)",1.3166666666666667,0.682,1,4340.345,2,0.0,0.25
0,674,catch,"[(1151, 788)]",[],[1],[],horizontal,"(890.0, 762.0)",1.7,nan,1,4346.393,2,0.0,0.25
0,675,target,"[(1164, 804)]",[],[1],[0.6166666666666667],vertical,"(890.0, 262.0)",0.9333333333333333,0.575,1,4352.108,2,0.0,0.25
0,676,target,"[(1171, 779)]",[],[1],[0.5666666666666667],horizontal,"(390.0, 262.0)",1.1,0.521,1,4357.705,3,0.0,0.25
0,677,target,"[(1160, 798)]",[],[1],[0.5833333333333334],vertical,"(890.0, 262.0)",0.9333333333333333,0.541,1,4363.501,3,0.0,0.25
0,678,target,"[(1169, 803)]",[],[1],[0.55],horizontal,"(390.0, 762.0)",1.4166666666666667,0.506,1,4369.523,3,0.0,0.25
0,679,target,"[(1145, 800)]",[],[1],[0.5333333333333333],horizontal,"(390.0, 762.0)",0.3833333333333333,0.489,1,4375.776,3,0.0,0.25
0,680,catch,"[(1157, 778)]",[],[1],[],horizontal,"(890.0, 262.0)",1.7,nan,1,4380.919,3,0.0,0.25
0,681,catch,"[(1160, 785)]",[],[1],[],vertical,"(390.0, 262.0)",1.7,nan,1,4387.042,3,0.0,0.25
0,682,target,"[(1176, 799)]",[],[1],[0.6],vertical,"(390.0, 762.0)",1.2666666666666666,0.554,1,4392.758,3,0.0,0.25
0,683,target,"[(1160, 779)]",[],[1],[0.5833333333333334],vertical,"(390.0, 762.0)",0.3833333333333333,0.542,1,4398.96,3,0.0,0.25
0,684,target,"[(1160, 801)]",[],[1],[0.7666666666666666],horizontal,"(390.0, 262.0)",0.4,0.721,1,4404.035,3,0.0,0.25
0,685,target,"[(1137, 801)]",[],[1],[0.5666666666666667],vertical,"(890.0, 762.0)",1.1,0.521,1,4409.442,3,0.0,0.25
0,686,target,"[(1136, 808)]",[],[1],[0.6],horizontal,"(390.0, 762.0)",0.75,0.559,1,4415.287,3,0.0,0.25
0,687,target,"[(1161, 802)]",[],[1],[0.55],vertical,"(390.0, 262.0)",1.4166666666666667,0.507,1,4421.877,3,0.0,0.25
0,688,catch,"[(1158, 804)]",[],[1],[],horizontal,"(890.0, 762.0)",1.7,nan,1,4428.088,3,0.0,0.25
0,689,target,"[(1163, 779)]",[],[1],[0.5333333333333333],vertical,"(390.0, 262.0)",0.6833333333333333,0.5,1,4433.823,3,0.0,0.25
0,690,target,"[(1158, 771)]",[],[1],[0.7333333333333333],vertical,"(890.0, 262.0)",0.7833333333333333,0.691,1,4438.981,3,0.0,0.25
0,691,target,"[(1160, 769)]",[],[1],[0.5333333333333333],vertical,"(890.0, 762.0)",1.1833333333333333,0.489,1,4444.922,3,0.0,0.25
0,692,catch,"[(1136, 774)]",[],[1],[],vertical,"(390.0, 262.0)",1.7,nan,1,4450.606,3,0.0,0.25
0,693,target,"[(1163, 775)]",[],[1],[0.6833333333333333],horizontal,"(390.0, 762.0)",1.2,0.639,1,4456.91,3,0.0,0.25
0,694,target,"[(1151, 778)]",[],[1],[0.55],horizontal,"(890.0, 762.0)",1.3,0.517,1,4462.853,3,0.0,0.25
0,695,target,"[(1155, 798)]",[],[1],[0.55],horizontal,"(890.0, 762.0)",0.43333333333333335,0.507,1,4469.108,3,0.0,0.25
0,696,target,"[(1141, 782)]",[],[1],[0.6833333333333333],vertical,"(890.0, 262.0)",1.4166666666666667,0.64,1,4474.06,3,0.0,0.25
0,697,target,"[(1159, 799)]",[],[1],[0.5166666666666666],vertical,"(890.0, 262.0)",1.1,0.474,1,4480.327,3,0.0,0.25
0,698,catch,"[(1160, 781)]",[],[1],[],horizontal,"(890.0, 262.0)",1.7,nan,1,4486.227,3,0.0,0.25
0,699,target,"[(1162, 799)]",[],[1],[0.7166666666666667],horizontal,"(390.0, 762.0)",1.3,0.678,1,4492.759,3,0.0,0.25
0,700,target,"[(1166, 799)]",[],[1],[0.5666666666666667],horizontal,"(890.0, 762.0)",0.43333333333333335,0.526,1,4498.643,3,0.0,0.25
0,701,target,"[(1155, 779)]",[],[1],[0.7166666666666667],horizontal,"(890.0, 762.0)",0.9,0.676,1,4503.777,3,0.0,0.25
0,702,target,"[(1143, 798)]",[],[1],[0.6333333333333333],horizontal,"(890.0, 762.0)",1.3,0.593,1,4509.877,3,0.0,0.25
0,703,target,"[(1174, 785)]",[],[1],[0.55],vertical,"(890.0, 762.0)",1.0666666666666667,0.509,1,4516.149,3,0.0,0.25
0,704,target,"[(1160, 793)]",[],[1],[0.6166666666666667],vertical,"(890.0, 262.0)",0.7833333333333333,0.575,1,4522.194,3,0.0,0.25
0,705,target,"[(1151, 805)]",[],[1],[0.5166666666666666],vertical,"(890.0, 762.0)",1.5333333333333332,0.474,1,4527.608,3,0.0,0.25
0,706,target,"[(1143, 778)]",[],[1],[0.6833333333333333],horizontal,"(890.0, 262.0)",1.15,0.636,1,4533.858,3,0.0,0.25
0,707,target,"[(1158, 801)]",[],[1],[0.6],vertical,"(890.0, 762.0)",1.5,0.56,1,4539.792,3,0.0,0.25
0,708,target,"[(1137, 788)]",[],[1],[0.7833333333333333],horizontal,"(390.0, 762.0)",1.25,0.74,1,4545.843,3,0.0,0.25
0,709,catch,"[(1131, 800)]",[],[1],[],horizontal,"(390.0, 762.0)",1.7,nan,1,4553.645,3,0.0,0.25
0,710,target,"[(1141, 799)]",[],[1],[0.6166666666666667],vertical,"(390.0, 762.0)",0.75,0.576,1,4559.675,3,0.0,0.25
0,711,target,"[(1151, 798)]",[],[1],[0.5666666666666667],vertical,"(390.0, 262.0)",1.0333333333333332,0.529,1,4565.327,3,0.0,0.25
0,712,target,"[(1141, 783)]",[],[1],[0.6],horizontal,"(890.0, 262.0)",0.5333333333333333,0.549,1,4571.011,3,0.0,0.25
0,713,target,"[(1153, 779)]",[],[1],[0.5333333333333333],vertical,"(390.0, 762.0)",0.75,0.494,1,4576.36,3,0.0,0.25
0,714,target,"[(1160, 790)]",[],[1],[0.5333333333333333],horizontal,"(890.0, 762.0)",0.6,0.495,1,4581.627,3,0.0,0.25
0,715,target,"[(1150, 803)]",[],[1],[0.5333333333333333],vertical,"(890.0, 762.0)",0.36666666666666664,0.501,1,4587.009,3,0.0,0.25
0,716,catch,"[(1140, 777)]",[],[1],[],vertical,"(890.0, 262.0)",1.7,nan,1,4592.341,3,0.0,0.25
0,717,catch,"[(1154, 803)]",[],[1],[],horizontal,"(890.0, 262.0)",1.7,nan,1,4598.247,3,0.0,0.25
0,718,target,"[(1158, 791)]",[],[1],[0.5833333333333334],horizontal,"(890.0, 762.0)",0.36666666666666664,0.544,1,4604.028,3,0.0,0.25
0,719,target,"[(1140, 773)]",[],[1],[0.65],horizontal,"(390.0, 262.0)",0.95,0.61,1,4609.328,3,0.0,0.25
0,720,target,"[(1140, 776)]",[],[1],[0.5666666666666667],vertical,"(890.0, 762.0)",1.2,0.535,1,4615.11,3,0.0,0.25
0,721,target,"[(1156, 798)]",[],[1],[0.6333333333333333],vertical,"(390.0, 262.0)",0.8,0.584,1,4620.994,3,0.0,0.25
0,722,target,"[(1157, 803)]",[],[1],[0.6166666666666667],horizontal,"(390.0, 762.0)",1.5,0.577,1,4627.161,3,0.0,0.25
0,723,target,"[(1136, 815)]",[],[1],[0.55],horizontal,"(390.0, 762.0)",1.3833333333333333,0.517,1,4633.344,3,0.0,0.25
0,724,target,"[(1160, 803)]",[],[1],[0.6166666666666667],horizontal,"(390.0, 762.0)",1.4,0.574,1,4639.393,3,0.0,0.25
0,725,target,"[(1157, 794)]",[],[1],[0.5666666666666667],horizontal,"(890.0, 762.0)",0.5333333333333333,0.528,1,4645.244,3,0.0,0.25
0,726,target,"[(1157, 806)]",[],[1],[0.5166666666666666],vertical,"(890.0, 262.0)",0.55,0.483,1,4650.855,3,0.0,0.25
0,727,target,"[(1157, 783)]",[],[1],[0.6],horizontal,"(890.0, 762.0)",1.4166666666666667,0.556,1,4656.194,3,0.0,0.25
0,728,catch,"[(1162, 805)]",[],[1],[],horizontal,"(890.0, 762.0)",1.7,nan,1,4662.444,3,0.0,0.25
0,729,target,"[(1148, 798)]",[],[1],[0.7],vertical,"(390.0, 762.0)",0.8833333333333333,0.663,1,4668.273,3,0.0,0.25
0,730,target,"[(1169, 803)]",[],[1],[0.7],horizontal,"(890.0, 762.0)",0.8833333333333333,0.654,1,4674.344,3,0.0,0.25
0,731,target,"[(1148, 806)]",[],[1],[0.5166666666666666],horizontal,"(390.0, 762.0)",0.9,0.481,1,4680.036,3,0.0,0.25
0,732,target,"[(1157, 794)]",[],[1],[0.7666666666666666],vertical,"(390.0, 762.0)",1.1166666666666667,0.725,1,4686.477,3,0.0,0.25
0,733,target,"[(1139, 813)]",[],[1],[0.6833333333333333],vertical,"(390.0, 762.0)",0.7666666666666666,0.642,1,4692.996,3,0.0,0.25
0,734,catch,"[(1151, 784)]",[],[1],[],vertical,"(390.0, 762.0)",1.7,nan,1,4698.752,3,0.0,0.25
0,735,target,"[(1137, 809)]",[],[1],[0.85],vertical,"(890.0, 762.0)",0.55,nan,0,4704.527,0,0.0,0.25
0,736,target,"[(1127, 808)]",[],[1],"[0.85, 0.85]",vertical,"(390.0, 262.0)",1.2666666666666666,"0.805,nan",0,4712.149,0,0.0,0.25
0,737,target,"[(1141, 871)]",[],[1],[0.6],vertical,"(890.0, 262.0)",0.6166666666666667,0.561,1,4717.544,1,0.0,0.25
0,738,target,"[(1159, 786)]",[],[1],[0.48333333333333334],horizontal,"(890.0, 262.0)",1.0166666666666666,0.441,1,5030.211,1,0.0,0.25
0,739,target,"[(1157, 804)]",[],[1],[0.5],vertical,"(890.0, 262.0)",1.0,0.462,1,5036.014,1,0.0,0.25
0,740,catch,"[(1135, 778)]",[],[1],[],horizontal,"(390.0, 262.0)",1.7,nan,1,5041.777,2,0.0,0.25
0,741,target,"[(1157, 794)]",[],[1],[0.6666666666666666],horizontal,"(390.0, 262.0)",1.0333333333333332,0.621,1,5048.125,2,0.0,0.25
0,742,target,"[(1146, 788)]",[],[1],[0.6333333333333333],horizontal,"(390.0, 762.0)",1.1833333333333333,0.591,1,5053.679,2,0.0,0.25
0,743,target,"[(1159, 794)]",[],[1],[0.5],vertical,"(890.0, 762.0)",1.4166666666666667,0.463,1,5059.258,2,0.0,0.25
0,744,catch,"[(1140, 787)]",[],[1],[],horizontal,"(890.0, 262.0)",,"('cti', 1.297),nan",0,5065.062,0,0.02,0.25
0,745,target,"[(1137, 813)]",[],[1],[0.5333333333333333],vertical,"(390.0, 262.0)",0.8166666666666667,0.488,1,5069.596,1,0.02,0.25
0,746,target,"[(1155, 770)]",[],[1],[0.5],vertical,"(890.0, 762.0)",1.4333333333333333,0.463,1,5074.468,1,0.02,0.25
0,747,catch,"[(1160, 797)]",[],[1],[],horizontal,"(890.0, 762.0)",1.7,nan,1,5079.696,1,0.02,0.25
0,748,target,"[(1160, 791)]",[],[1],[0.5666666666666667],vertical,"(890.0, 262.0)",0.9,0.524,1,5085.162,2,0.02,0.25
0,749,target,"[(1159, 789)]",[],[1],[0.48333333333333334],horizontal,"(890.0, 262.0)",0.35,0.444,1,5090.631,2,0.02,0.25
0,750,target,"[(1137, 794)]",[],[1],[0.55],vertical,"(890.0, 262.0)",1.3166666666666667,0.51,1,5095.512,2,0.02,0.25
0,751,target,"[(1136, 759)]",[],[1],[0.5166666666666666],vertical,"(390.0, 762.0)",0.9666666666666667,0.481,1,5101.743,2,0.02,0.25
0,752,target,"[(1136, 765)]",[],[1],[0.65],horizontal,"(890.0, 762.0)",0.8833333333333333,0.609,1,5107.161,3,0.02,0.25
0,753,catch,"[(1166, 799)]",[],[1],[],horizontal,"(890.0, 262.0)",1.7,nan,1,5112.878,3,0.02,0.25
0,754,target,"[(1163, 783)]",[],[1],[0.65],vertical,"(390.0, 762.0)",0.6833333333333333,0.609,1,5118.879,3,0.02,0.25
0,755,target,"[(1165, 798)]",[],[1],[0.5166666666666666],vertical,"(890.0, 762.0)",1.1166666666666667,0.472,1,5124.429,3,0.02,0.25
0,756,target,"[(1135, 803)]",[],[1],[0.7333333333333333],horizontal,"(890.0, 762.0)",0.8666666666666667,0.693,1,5130.246,3,0.02,0.25
0,757,target,"[(1158, 806)]",[],[1],[0.85],vertical,"(390.0, 262.0)",0.43333333333333335,nan,0,5136.469,0,0.02,0.25
0,758,catch,"[(1104, 772)]",[],[1],[],horizontal,"(890.0, 762.0)",,"('cti', 1.667),nan",0,5141.128,0,0.04,0.25
0,759,target,"[(1092, 784)]",[],[1],[0.55],vertical,"(890.0, 762.0)",0.6333333333333333,0.51,1,5146.029,1,0.04,0.25
0,760,target,"[(1155, 801)]",[],[1],[0.7333333333333333],vertical,"(390.0, 262.0)",0.5333333333333333,0.684,1,5153.279,1,0.04,0.25
0,761,target,"[(1158, 769)]",[],[1],[0.5666666666666667],horizontal,"(890.0, 762.0)",0.95,0.525,1,5158.279,1,0.04,0.25
0,762,catch,"[(1137, 779)]",[],[1],[],horizontal,"(890.0, 762.0)",1.7,nan,1,5163.504,2,0.04,0.25
0,763,target,"[(1131, 801)]",[],[1],[0.6166666666666667],horizontal,"(890.0, 262.0)",0.5833333333333334,0.578,1,5168.843,2,0.04,0.25
0,764,target,"[(1174, 798)]",[],[1],[0.48333333333333334],vertical,"(890.0, 262.0)",1.2333333333333334,0.441,1,5174.086,2,0.04,0.25
0,765,target,"[(1155, 789)]",[],[1],[0.4666666666666667],horizontal,"(390.0, 762.0)",1.3166666666666667,0.425,1,5179.979,2,0.04,0.25
0,766,target,"[(1157, 789)]",[],[1],[0.6333333333333333],vertical,"(390.0, 262.0)",0.7166666666666667,0.589,1,5185.796,3,0.04,0.25
0,767,target,"[(1166, 795)]",[],[1],[0.5833333333333334],vertical,"(390.0, 762.0)",0.4166666666666667,0.543,1,5191.793,3,0.04,0.25
0,768,target,"[(1206, 822)]",[],[1],[0.65],vertical,"(390.0, 262.0)",0.4166666666666667,0.617,1,5197.045,3,0.04,0.25
0,769,target,"[(1131, 811)]",[],[1],[0.6333333333333333],vertical,"(390.0, 762.0)",0.9166666666666666,0.591,1,5203.024,3,0.04,0.25
0,770,target,"[(1121, 803)]",[],[1],[0.4666666666666667],vertical,"(890.0, 262.0)",0.9166666666666666,0.428,1,5208.746,3,0.04,0.25
0,771,target,"[(1148, 776)]",[],[1],[0.6166666666666667],horizontal,"(390.0, 762.0)",0.7333333333333333,0.577,1,5217.895,3,0.04,0.25
0,772,target,"[(1155, 797)]",[],[1],[0.55],vertical,"(390.0, 262.0)",1.0166666666666666,0.508,1,5223.825,3,0.04,0.25
0,773,target,"[(1155, 804)]",[],[1],[0.6833333333333333],vertical,"(890.0, 262.0)",1.3166666666666667,0.643,1,5229.497,3,0.04,0.25
0,774,target,"[(1136, 789)]",[],[1],[0.6166666666666667],horizontal,"(390.0, 762.0)",0.8,0.584,1,5235.577,3,0.04,0.25
0,775,catch,"[(1154, 804)]",[],[1],[],vertical,"(890.0, 762.0)",1.7,nan,1,5241.445,3,0.04,0.25
0,776,target,"[(1158, 774)]",[],[1],[0.5166666666666666],horizontal,"(890.0, 262.0)",0.36666666666666664,0.484,1,5247.112,3,0.04,0.25
0,777,target,"[(1154, 790)]",[],[1],[0.85],horizontal,"(390.0, 762.0)",1.1833333333333333,nan,0,5252.31,0,0.04,0.25
0,778,catch,"[(1136, 808)]",[],[1],[],horizontal,"(890.0, 762.0)",1.7,nan,1,5257.227,1,0.04,0.25
0,779,target,"[(1141, 803)]",[],[1],[0.5333333333333333],vertical,"(890.0, 262.0)",1.3,0.493,1,5262.462,1,0.04,0.25
0,780,target,"[(1160, 772)]",[],[1],[0.5666666666666667],horizontal,"(390.0, 262.0)",1.5,0.523,1,5267.713,1,0.04,0.25
0,781,target,"[(1155, 778)]",[],[1],[0.85],horizontal,"(390.0, 262.0)",1.3333333333333333,nan,0,5273.596,0,0.04,0.25
0,782,target,"[(1087, 817)]",[],[1],[0.6666666666666666],horizontal,"(890.0, 262.0)",0.8666666666666667,0.629,1,5278.929,1,0.04,0.25
0,783,target,"[(1155, 769)]",[],[1],[0.7166666666666667],vertical,"(890.0, 262.0)",1.2666666666666666,0.672,1,5288.293,1,0.04,0.25
0,784,target,"[(1136, 806)]",[],[1],[0.65],vertical,"(390.0, 262.0)",0.43333333333333335,0.61,1,5293.711,1,0.04,0.25
0,785,target,"[(1158, 793)]",[],[1],[0.5333333333333333],vertical,"(390.0, 762.0)",1.0666666666666667,0.492,1,5298.429,2,0.04,0.25
0,786,target,"[(1155, 781)]",[],[1],[0.48333333333333334],vertical,"(390.0, 762.0)",1.55,0.446,1,5303.812,2,0.04,0.25
0,787,target,"[(1158, 777)]",[],[1],[0.5166666666666666],horizontal,"(890.0, 762.0)",0.8333333333333334,0.476,1,5309.68,2,0.04,0.25
0,788,target,"[(1165, 813)]",[],[1],[0.7],vertical,"(390.0, 762.0)",1.2166666666666666,0.651,1,5314.751,2,0.04,0.25
0,789,catch,"[(1156, 773)]",[],[1],[],vertical,"(390.0, 762.0)",1.7,nan,1,5320.67,3,0.04,0.25
0,790,target,"[(1141, 788)]",[],[1],[0.65],vertical,"(390.0, 262.0)",1.0666666666666667,0.605,1,5326.996,3,0.04,0.25
0,791,target,"[(1160, 808)]",[],[1],[0.8166666666666667],vertical,"(890.0, 262.0)",1.4666666666666666,0.773,1,5333.012,3,0.04,0.25
0,792,target,"[(1158, 784)]",[],[1],[0.7],horizontal,"(390.0, 762.0)",1.0666666666666667,0.657,1,5339.365,3,0.04,0.25
0,793,target,"[(1158, 782)]",[],[1],[0.5333333333333333],vertical,"(390.0, 762.0)",1.3166666666666667,0.499,1,5345.596,3,0.04,0.25
0,794,catch,"[(1160, 808)]",[],[1],[],vertical,"(890.0, 762.0)",1.7,nan,1,5351.429,3,0.02,0.25
0,795,catch,"[(1138, 809)]",[],[1],[],vertical,"(390.0, 262.0)",1.7,nan,1,5357.279,3,0.02,0.25
0,796,target,"[(1156, 774)]",[],[1],[0.75],vertical,"(890.0, 762.0)",1.4166666666666667,0.706,1,5363.432,3,0.02,0.25
0,797,target,"[(1154, 770)]",[],[1],[0.48333333333333334],vertical,"(890.0, 262.0)",0.8,0.446,1,5369.663,3,0.02,0.25
0,798,target,"[(1156, 808)]",[],[1],[0.55],horizontal,"(890.0, 762.0)",0.5333333333333333,0.508,1,5375.047,3,0.02,0.25
0,799,target,"[(1161, 786)]",[],[1],[0.65],horizontal,"(390.0, 262.0)",0.8166666666666667,0.604,1,5380.644,3,0.02,0.25
0,800,catch,"[(1160, 786)]",[],[1],[],horizontal,"(390.0, 262.0)",1.7,nan,1,5386.429,3,0.02,0.25
0,801,target,"[(1159, 786)]",[],[1],[0.5166666666666666],vertical,"(390.0, 262.0)",1.45,0.484,1,5392.762,3,0.02,0.25
0,802,target,"[(1143, 785)]",[],[1],[0.55],vertical,"(390.0, 262.0)",0.65,0.51,1,5399.23,3,0.02,0.25
0,803,target,"[(1151, 791)]",[],[1],[0.5833333333333334],vertical,"(390.0, 262.0)",0.8666666666666667,0.54,1,5404.609,3,0.02,0.25
0,804,target,"[(1136, 774)]",[],[1],[0.85],horizontal,"(390.0, 762.0)",0.65,nan,0,5410.386,0,0.02,0.25
0,805,target,"[(1141, 808)]",[],[1],[0.5166666666666666],vertical,"(890.0, 762.0)",1.1,0.476,1,5415.179,1,0.02,0.25
0,806,target,"[(1155, 765)]",[],[1],[0.5333333333333333],horizontal,"(890.0, 762.0)",0.8666666666666667,0.494,1,5420.263,1,0.02,0.25
0,807,target,"[(1135, 804)]",[],[1],[0.85],horizontal,"(890.0, 262.0)",0.35,nan,0,5424.93,0,0.02,0.25
0,808,target,"[(1137, 807)]",[],[1],[0.5666666666666667],horizontal,"(890.0, 762.0)",0.7333333333333333,0.519,1,5429.117,1,0.0,0.25
0,809,target,"[(1160, 776)]",[],[1],[0.5166666666666666],vertical,"(890.0, 262.0)",1.05,0.478,1,5434.594,1,0.0,0.25
0,810,target,"[(1158, 827)]",[],[1],[0.5166666666666666],vertical,"(890.0, 762.0)",1.2833333333333332,0.472,1,5439.544,1,0.0,0.25
0,811,target,"[(1160, 810)]",[],[1],[0.5833333333333334],vertical,"(390.0, 262.0)",1.1833333333333333,0.54,1,5444.521,2,0.0,0.25
0,812,target,"[(1158, 803)]",[],[1],[0.6666666666666666],horizontal,"(890.0, 262.0)",0.9,0.619,1,5450.15,2,0.0,0.25
0,813,catch,"[(1158, 803)]",[],[1],[],vertical,"(390.0, 262.0)",1.7,nan,1,5455.896,2,0.0,0.25
0,814,target,"[(1160, 794)]",[],[1],[0.5333333333333333],horizontal,"(890.0, 262.0)",0.9166666666666666,0.493,1,5461.757,2,0.0,0.25
0,815,target,"[(1150, 814)]",[],[1],[0.5333333333333333],vertical,"(390.0, 762.0)",1.35,0.488,1,5467.488,3,0.0,0.25
0,816,catch,"[(1155, 790)]",[],[1],[],vertical,"(390.0, 262.0)",1.7,nan,1,5473.962,3,0.0,0.25
0,817,catch,"[(1150, 793)]",[],[1],[],horizontal,"(390.0, 262.0)",1.7,nan,1,5479.888,3,0.0,0.25
0,818,target,"[(1161, 788)]",[],[1],[0.65],horizontal,"(890.0, 262.0)",0.8666666666666667,0.609,1,5485.562,3,0.0,0.25
0,819,target,"[(1137, 799)]",[],[1],[0.6],vertical,"(890.0, 262.0)",0.9833333333333333,0.56,1,5491.462,3,0.0,0.25
0,820,target,"[(1151, 799)]",[],[1],[0.85],horizontal,"(390.0, 762.0)",0.4666666666666667,nan,0,5497.308,0,0.0,0.25
0,821,catch,"[(1101, 813)]",[],[1],[],vertical,"(890.0, 262.0)",1.7,nan,1,5501.298,1,0.0,0.25
0,822,target,"[(1126, 803)]",[],[1],[0.85],vertical,"(390.0, 262.0)",0.8333333333333334,nan,0,5513.672,0,0.0,0.25
0,823,target,"[(1136, 803)]",[],[1],[0.48333333333333334],horizontal,"(390.0, 262.0)",0.9333333333333333,0.443,1,5519.764,1,0.0,0.25
0,824,catch,"[(1156, 798)]",[],[1],[],horizontal,"(390.0, 762.0)",1.7,nan,1,5524.668,1,0.0,0.25
0,825,target,"[(1161, 784)]",[],[1],[0.65],vertical,"(390.0, 762.0)",0.6666666666666666,0.611,1,5529.761,1,0.0,0.25
0,826,catch,"[(1165, 799)]",[],[1],[],vertical,"(390.0, 262.0)",1.7,nan,1,5534.829,2,0.0,0.25
0,827,target,"[(1178, 795)]",[],[1],[0.5333333333333333],vertical,"(890.0, 262.0)",0.4166666666666667,0.488,1,5540.283,2,0.0,0.25
0,828,target,"[(1165, 816)]",[],[1],[0.6],horizontal,"(890.0, 262.0)",1.2166666666666666,0.553,1,5545.312,2,0.0,0.25
0,829,catch,"[(1156, 785)]",[],[1],[],vertical,"(390.0, 762.0)",1.7,nan,1,5551.436,2,0.0,0.25
0,830,target,"[(1167, 792)]",[],[1],[0.85],vertical,"(890.0, 762.0)",0.7,nan,0,5557.344,0,0.0,0.25
0,831,target,"[(1136, 791)]",[],[1],[0.5166666666666666],vertical,"(390.0, 262.0)",1.5166666666666666,0.474,1,5562.109,1,0.0,0.25
0,832,catch,"[(1157, 798)]",[],[1],[],horizontal,"(890.0, 262.0)",1.7,nan,1,5567.841,1,0.0,0.25
0,833,target,"[(1156, 777)]",[],[1],[0.5333333333333333],horizontal,"(890.0, 262.0)",0.6666666666666666,0.494,1,5572.977,1,0.0,0.25
0,834,catch,"[(1166, 799)]",[],[1],[],vertical,"(390.0, 262.0)",1.7,nan,1,5577.638,2,0.0,0.25
0,835,target,"[(1156, 784)]",[],[1],[0.55],vertical,"(390.0, 762.0)",0.7166666666666667,0.509,1,5583.247,2,0.0,0.25
0,836,target,"[(1165, 808)]",[],[1],[0.5166666666666666],horizontal,"(390.0, 262.0)",0.4166666666666667,0.477,1,5588.11,2,0.0,0.25
0,837,target,"[(1160, 809)]",[],[1],[0.55],horizontal,"(890.0, 262.0)",1.0333333333333332,0.518,1,5593.34,2,0.0,0.25
0,838,target,"[(1160, 803)]",[],[1],[0.5166666666666666],vertical,"(390.0, 262.0)",0.5833333333333334,0.476,1,5598.93,3,0.0,0.25
0,839,target,"[(1136, 803)]",[],[1],[0.45],vertical,"(390.0, 762.0)",1.05,0.411,1,5604.586,3,0.0,0.25
0,840,target,"[(1156, 771)]",[],[1],[0.55],horizontal,"(390.0, 762.0)",0.95,0.508,1,5610.664,3,0.0,0.25
0,841,target,"[(1150, 806)]",[],[1],[0.75],vertical,"(890.0, 762.0)",1.1333333333333333,0.709,1,5616.614,3,0.0,0.25
0,842,target,"[(1157, 778)]",[],[1],[0.6],vertical,"(390.0, 262.0)",0.7166666666666667,0.556,1,5623.031,3,0.0,0.25
0,843,target,"[(1136, 778)]",[],[1],[0.5333333333333333],vertical,"(390.0, 262.0)",0.5833333333333334,0.49,1,5628.131,3,0.0,0.25
0,844,target,"[(1156, 794)]",[],[1],[0.5166666666666666],vertical,"(890.0, 262.0)",0.7833333333333333,0.477,1,5633.763,3,0.0,0.25
0,845,target,"[(1132, 778)]",[],[1],[0.55],horizontal,"(890.0, 262.0)",0.9666666666666667,0.511,1,5639.013,3,0.0,0.25
0,846,target,"[(1157, 788)]",[],[1],[0.5666666666666667],horizontal,"(390.0, 262.0)",1.3333333333333333,0.535,1,5645.088,3,0.0,0.25
0,847,target,"[(1150, 808)]",[],[1],[0.6666666666666666],horizontal,"(890.0, 762.0)",0.4166666666666667,0.623,1,5651.069,3,0.0,0.25
0,848,target,"[(1144, 774)]",[],[1],[0.6],vertical,"(890.0, 262.0)",1.4666666666666666,0.557,1,5656.102,3,0.0,0.25
0,849,target,"[(1158, 780)]",[],[1],[0.7],horizontal,"(390.0, 762.0)",1.1333333333333333,0.656,1,5662.263,3,0.0,0.25
0,850,catch,"[(1160, 789)]",[],[1],[],horizontal,"(390.0, 762.0)",1.7,nan,1,5668.446,3,0.0,0.25
0,851,target,"[(1155, 795)]",[],[1],[0.85],vertical,"(390.0, 762.0)",0.6333333333333333,nan,0,5674.504,0,0.0,0.25
0,852,target,"[(1135, 802)]",[],[1],[0.5333333333333333],horizontal,"(890.0, 262.0)",1.1166666666666667,0.488,1,5678.996,1,0.0,0.25
0,853,catch,"[(1136, 783)]",[],[1],[],vertical,"(890.0, 762.0)",1.7,nan,1,5684.946,1,0.0,0.25
0,854,target,"[(1159, 798)]",[],[1],[0.55],vertical,"(390.0, 762.0)",0.4166666666666667,0.508,1,5690.347,1,0.0,0.25
0,855,target,"[(1163, 791)]",[],[1],[0.6333333333333333],vertical,"(390.0, 762.0)",0.7166666666666667,0.593,1,5694.914,2,0.0,0.25
0,856,target,"[(1155, 800)]",[],[1],[0.5833333333333334],vertical,"(390.0, 762.0)",1.2333333333333334,0.541,1,5700.553,2,0.0,0.25
0,857,target,"[(1155, 783)]",[],[1],[0.4166666666666667],vertical,"(390.0, 762.0)",1.4833333333333334,0.378,1,5706.363,2,0.0,0.25
0,858,target,"[(1172, 781)]",[],[1],[0.5333333333333333],horizontal,"(390.0, 262.0)",0.7833333333333333,0.493,1,5712.114,2,0.0,0.25
0,859,target,"[(1166, 808)]",[],[1],[0.6],vertical,"(890.0, 262.0)",0.85,0.555,1,5717.58,3,0.0,0.25
0,860,catch,"[(1155, 803)]",[],[1],[],vertical,"(390.0, 262.0)",1.7,nan,1,5723.481,3,0.0,0.25
0,861,target,"[(1155, 782)]",[],[1],[0.5333333333333333],horizontal,"(390.0, 762.0)",1.2666666666666666,0.491,1,5729.563,3,0.0,0.25
0,862,target,"[(1160, 774)]",[],[1],[0.6666666666666666],horizontal,"(390.0, 762.0)",1.4166666666666667,0.622,1,5735.756,3,0.0,0.25
0,863,target,"[(1155, 770)]",[],[1],[0.7833333333333333],vertical,"(390.0, 762.0)",0.55,0.743,1,5741.828,3,0.0,0.25
0,864,target,"[(1158, 802)]",[],[1],[0.55],vertical,"(890.0, 262.0)",1.3166666666666667,0.508,1,5747.762,3,0.0,0.25
0,865,target,"[(1159, 798)]",[],[1],[0.6],vertical,"(390.0, 762.0)",1.3166666666666667,0.559,1,5754.045,3,0.0,0.25
