block,trial,trial_type,taps_start_loc_during_fix,taps_end_loc_during_fix,taps_on_lever_during_fix,taps_on_lever_s_during_fix,bar_orientation,target_xy,cti,rt,acc,time,pulses
0,1,target,"[(1025, 851)]",[],[1],[0.55],vertical,"(890.0, 762.0)",0.9166666666666666,0.507,1,0.05,1
0,2,target,"[(1033, 882)]",[],[1],[0.4],vertical,"(890.0, 262.0)",1.2666666666666666,0.366,1,43.071,1
0,3,target,"[(1062, 872)]",[],[1],[0.3],horizontal,"(890.0, 762.0)",1.5333333333333332,0.263,1,48.337,1
0,4,target,"[(1053, 845)]",[],[1],[0.85],vertical,"(890.0, 262.0)",1.2166666666666666,nan,0,53.67,0
0,5,target,"[(1038, 852)]",[],[1],[0.85],vertical,"(390.0, 762.0)",1.6666666666666667,nan,0,58.942,0
0,6,target,"[(985, 886), (1025, 850)]",[],"[0, 1]",[],vertical,"(390.0, 762.0)",,"('fix', 0.244)",0,64.671,0
0,7,target,"[(1022, 837)]",[],[1],[0.85],vertical,"(890.0, 762.0)",1.2833333333333332,nan,0,71.438,0
0,8,target,"[(1057, 802)]",[],[1],[0.85],vertical,"(890.0, 762.0)",0.9333333333333333,nan,0,76.622,0
0,9,target,"[(1044, 859)]",[],[1],[0.85],horizontal,"(890.0, 262.0)",1.3666666666666667,nan,0,81.42,0
0,10,target,"[(925, 672), (919, 815), (372, 316), (478, 117), (651, 290), (892, 903), (927, 536), (860, 942), (931, 888), (927, 933), (719, 942), (1033, 871)]",[],"[0, 0, 0, 0, 0, 0, 0, 0, 0, 0, 0, 1]",[],horizontal,"(390.0, 262.0)",,"('cti', 1.121)",0,91.187,0
0,11,target,"[(1053, 854)]",[],[1],[0.48333333333333334],vertical,"(890.0, 762.0)",1.5,0.448,1,140.636,1
0,12,target,"[(1057, 853)]",[],[1],[0.36666666666666664],horizontal,"(890.0, 762.0)",0.7166666666666667,0.33,1,146.192,1
0,13,target,"[(1065, 853)]",[],[1],[0.31666666666666665],vertical,"(390.0, 762.0)",1.4,0.285,1,150.939,1
0,14,target,"[(1087, 820)]",[],[1],[0.45],vertical,"(890.0, 762.0)",1.15,0.408,1,156.331,2
0,15,target,"[(1053, 832)]",[],[1],[0.55],horizontal,"(390.0, 262.0)",0.8166666666666667,0.515,1,161.688,1
0,16,target,"[(1052, 843)]",[],[1],[0.7166666666666667],vertical,"(390.0, 262.0)",1.5833333333333333,0.673,1,166.428,1
0,17,target,"[(1059, 839)]",[],[1],[0.4666666666666667],horizontal,"(390.0, 262.0)",0.5666666666666667,0.425,1,172.22,1
0,18,target,"[(1053, 820)]",[],[1],[0.7166666666666667],vertical,"(390.0, 762.0)",0.9666666666666667,0.673,1,176.954,3
0,19,target,"[(1057, 833)]",[],[1],[0.25],horizontal,"(890.0, 762.0)",1.6,0.215,1,182.705,1
0,20,target,"[(1025, 869)]",[],[1],[],horizontal,"(890.0, 262.0)",,"('cti', 0.506)",0,187.627,0
0,21,target,"[(1024, 876)]",[],[1],[0.4166666666666667],horizontal,"(890.0, 762.0)",1.3833333333333333,0.376,1,192.372,1
0,22,target,"[(1053, 831)]",[],[1],[0.3333333333333333],horizontal,"(390.0, 262.0)",1.2666666666666666,0.295,1,214.829,1
0,23,target,"[(1060, 810)]",[],[1],[0.5833333333333334],horizontal,"(390.0, 262.0)",0.5666666666666667,0.546,1,219.855,1
0,24,target,"[(1033, 847)]",[],[1],[0.85],horizontal,"(890.0, 762.0)",1.5333333333333332,nan,0,224.605,0
0,25,target,"[(1023, 859)]",[],[1],[0.5666666666666667],horizontal,"(890.0, 262.0)",0.6666666666666666,0.525,1,233.371,1
0,26,target,"[(1061, 814)]",[],[1],[0.85],horizontal,"(890.0, 762.0)",1.2,nan,0,243.168,0
0,27,target,"[(1053, 838)]",[],[1],[0.25],vertical,"(890.0, 762.0)",1.6333333333333333,0.212,1,248.508,1
0,28,target,"[(1052, 800)]",[],[1],[0.5166666666666666],vertical,"(890.0, 262.0)",0.6833333333333333,0.474,1,253.637,1
0,29,target,"[(1030, 831)]",[],[1],[0.5833333333333334],horizontal,"(390.0, 762.0)",0.8166666666666667,0.553,1,258.053,1
0,30,catch,"[(1037, 815)]",[],[1],[],horizontal,"(390.0, 262.0)",1.1833333333333333,nan,1,262.586,2
0,31,target,"[(1053, 818)]",[],[1],[0.5666666666666667],vertical,"(890.0, 262.0)",0.75,0.532,1,267.528,1
0,32,target,"[(1064, 814)]",[],[1],[0.4],horizontal,"(390.0, 762.0)",1.0166666666666666,0.366,1,271.989,1
0,33,target,"[(1057, 816)]",[],[1],[0.6166666666666667],vertical,"(890.0, 262.0)",1.0,0.577,1,277.024,1
0,34,target,"[(1093, 846)]","[(1084, 861)]",[1],[0.95],vertical,"(390.0, 262.0)",,"('bar', 0.948)",0,282.095,0
0,35,target,"[(1053, 844)]",[],[1],[0.5333333333333333],horizontal,"(890.0, 762.0)",1.2333333333333334,0.495,1,285.153,1
0,36,target,"[(1053, 843)]",[],[1],[0.31666666666666665],horizontal,"(890.0, 762.0)",1.6166666666666667,0.279,1,290.788,1
0,37,target,"[(1053, 818)]",[],[1],[0.23333333333333334],vertical,"(890.0, 262.0)",1.55,0.196,1,296.025,1
0,38,target,"[(1053, 828)]",[],[1],[0.5166666666666666],vertical,"(890.0, 762.0)",1.0166666666666666,0.475,1,300.803,2
0,39,target,"[(1053, 807)]",[],[1],[0.7333333333333333],vertical,"(390.0, 762.0)",0.5166666666666666,0.688,1,305.955,1
0,40,catch,"[(1057, 823)]",[],[1],[],vertical,"(390.0, 762.0)",1.4,nan,1,310.254,1
0,41,target,"[(1053, 821)]",[],[1],[0.45],horizontal,"(890.0, 262.0)",1.5,0.417,1,315.372,1
0,42,target,"[(1054, 825)]",[],[1],[0.16666666666666666],horizontal,"(890.0, 262.0)",1.5666666666666667,0.136,1,320.606,3
0,43,target,"[(1057, 831)]",[],[1],[0.48333333333333334],horizontal,"(890.0, 262.0)",1.0166666666666666,0.448,1,326.855,1
0,44,catch,"[(1061, 823)]",[],[1],[],horizontal,"(390.0, 262.0)",1.05,nan,1,331.838,1
0,45,target,"[(1061, 808)]",[],[1],[0.25],horizontal,"(890.0, 762.0)",1.4333333333333333,0.217,1,335.906,1
0,46,target,"[(1082, 821)]",[],[1],[0.2833333333333333],horizontal,"(890.0, 262.0)",1.2,0.245,1,340.722,2
0,47,target,"[(1045, 820)]",[],[1],[0.5333333333333333],horizontal,"(390.0, 762.0)",1.2666666666666666,0.492,1,345.858,1
0,48,target,"[(1053, 820)]",[],[1],[0.2],vertical,"(390.0, 262.0)",1.3666666666666667,0.17,1,350.709,1
0,49,target,"[(1053, 801)]",[],[1],[0.55],horizontal,"(890.0, 762.0)",0.9166666666666666,0.511,1,355.438,1
0,50,target,"[(1057, 833)]",[],[1],[0.26666666666666666],horizontal,"(390.0, 762.0)",1.5833333333333333,0.231,1,360.323,3
0,51,target,"[(1056, 812)]",[],[1],[0.5166666666666666],horizontal,"(390.0, 762.0)",0.85,0.473,1,366.172,1
0,52,target,"[(1053, 821)]",[],[1],[],horizontal,"(890.0, 762.0)",,"('cti', 0.89)",0,370.431,0
0,53,target,"[(1053, 825)]",[],[1],[0.65],horizontal,"(390.0, 262.0)",0.7833333333333333,0.61,1,374.872,1
0,54,target,"[(1057, 819)]",[],[1],[0.48333333333333334],vertical,"(890.0, 262.0)",1.0333333333333332,0.445,1,379.851,1
0,55,target,"[(1072, 822)]",[],[1],[0.48333333333333334],vertical,"(890.0, 262.0)",0.7666666666666666,0.445,1,384.806,1
0,56,target,"[(1057, 828)]",[],[1],[0.4666666666666667],vertical,"(890.0, 762.0)",0.95,0.43,1,389.768,2
0,57,target,"[(1056, 809)]",[],[1],[0.5],vertical,"(390.0, 762.0)",1.2333333333333334,0.458,1,395.24,1
0,58,target,"[(1053, 813)]",[],[1],[0.31666666666666665],vertical,"(890.0, 262.0)",1.5,0.277,1,399.895,1
0,59,catch,"[(1053, 819)]",[],[1],[],vertical,"(390.0, 262.0)",1.4166666666666667,nan,1,404.873,1
0,60,target,"[(1057, 808)]",[],[1],[0.5333333333333333],horizontal,"(890.0, 262.0)",1.2833333333333332,0.492,1,410.007,3
0,61,target,"[(1063, 820)]",[],[1],[0.4],vertical,"(890.0, 762.0)",1.1,0.362,1,415.74,1
0,62,target,"[(1061, 821)]",[],[1],[0.48333333333333334],vertical,"(390.0, 262.0)",1.1,0.445,1,420.772,1
0,63,target,"[(1059, 815)]",[],[1],[0.5333333333333333],vertical,"(890.0, 762.0)",0.95,0.495,1,425.673,1
0,64,target,"[(1029, 795)]",[],[1],[0.55],vertical,"(390.0, 262.0)",0.9166666666666666,0.516,1,430.289,2
0,65,target,"[(1061, 802)]",[],[1],[0.5166666666666666],vertical,"(890.0, 762.0)",0.75,0.478,1,435.31,1
0,66,target,"[(1057, 807)]",[],[1],[0.5],vertical,"(390.0, 262.0)",0.7333333333333333,0.457,1,439.524,1
0,67,target,"[(1054, 812)]",[],[1],[],vertical,"(890.0, 762.0)",,"('cti', 1.454)",0,444.473,0
0,68,target,"[(1037, 817)]",[],[1],[0.5],horizontal,"(390.0, 262.0)",1.1,0.459,1,448.989,1
0,69,target,"[(1057, 819)]",[],[1],[0.26666666666666666],vertical,"(890.0, 262.0)",1.5166666666666666,0.232,1,453.735,1
0,70,target,"[(1057, 807)]",[],[1],[0.5333333333333333],vertical,"(890.0, 262.0)",1.2833333333333332,0.497,1,458.961,1
0,71,target,"[(1057, 816)]",[],[1],[0.48333333333333334],vertical,"(390.0, 762.0)",1.65,0.452,1,463.841,2
0,72,target,"[(1049, 786)]",[],[1],[0.6333333333333333],horizontal,"(390.0, 262.0)",0.6833333333333333,0.601,1,469.472,1
0,73,catch,"[(1057, 802)]",[],[1],[],horizontal,"(890.0, 262.0)",1.3166666666666667,nan,1,474.339,1
0,74,target,"[(1030, 813)]",[],[1],[0.55],horizontal,"(390.0, 762.0)",1.1333333333333333,0.508,1,478.68,1
0,75,catch,"[(1059, 802)]",[],[1],[],horizontal,"(390.0, 762.0)",1.6,nan,1,483.757,3
0,76,target,"[(1053, 820)]",[],[1],[0.5833333333333334],vertical,"(390.0, 762.0)",0.7166666666666667,0.554,1,489.174,1
0,77,target,"[(1069, 813)]",[],[1],[0.3333333333333333],horizontal,"(390.0, 262.0)",1.4,0.298,1,493.738,1
0,78,target,"[(1057, 803)]",[],[1],[0.6666666666666666],horizontal,"(890.0, 762.0)",0.5,0.635,1,498.873,1
0,79,target,"[(1061, 809)]",[],[1],[0.3],horizontal,"(390.0, 262.0)",1.55,0.266,1,503.289,2
0,80,target,"[(1077, 806)]",[],[1],[0.85],vertical,"(390.0, 762.0)",1.0166666666666666,nan,0,508.823,0
0,81,target,"[(1058, 837)]",[],[1],[],vertical,"(890.0, 762.0)",,"('cti', 1.545)",0,513.889,0
0,82,target,"[(1051, 809)]",[],[1],[0.8166666666666667],horizontal,"(890.0, 762.0)",0.85,0.777,1,518.932,1
0,83,target,"[(1057, 798)]",[],[1],[0.5666666666666667],horizontal,"(890.0, 762.0)",0.8333333333333334,0.528,1,524.388,1
0,84,target,"[(1057, 799)]",[],[1],[0.6],vertical,"(390.0, 262.0)",0.5833333333333334,0.562,1,529.44,1
0,85,target,"[(1075, 804)]",[],[1],[0.25],vertical,"(390.0, 762.0)",1.35,0.221,1,534.355,2
0,86,catch,"[(1077, 798)]",[],[1],[],vertical,"(890.0, 762.0)",1.3,nan,1,539.508,1
0,87,catch,"[(1059, 810)]",[],[1],[],vertical,"(890.0, 262.0)",,"('cti', 1.539),nan",0,544.04,0
0,88,target,"[(1027, 815)]",[],[1],[0.26666666666666666],vertical,"(390.0, 762.0)",1.55,0.233,1,548.424,1
0,89,catch,"[(1057, 807)]",[],[1],[],horizontal,"(890.0, 762.0)",1.25,nan,1,553.748,1
0,90,target,"[(1061, 825)]",[],[1],[0.5333333333333333],horizontal,"(390.0, 262.0)",0.8,0.495,1,558.091,1
0,91,target,"[(1072, 800)]",[],[1],[],vertical,"(890.0, 262.0)",,"('cti', 1.596)",0,562.806,0
0,92,target,"[(1061, 804)]",[],[1],[0.48333333333333334],vertical,"(390.0, 762.0)",1.2,0.443,1,567.522,1
0,93,target,"[(1064, 793)]",[],[1],[0.5166666666666666],vertical,"(390.0, 262.0)",1.3166666666666667,0.474,1,572.057,1
0,94,target,"[(1057, 801)]",[],[1],[0.4666666666666667],horizontal,"(390.0, 762.0)",1.0166666666666666,0.427,1,577.164,1
0,95,target,"[(1034, 803)]",[],[1],[],vertical,"(890.0, 262.0)",,"('cti', 1.255)",0,581.974,0
0,96,target,"[(1057, 807)]",[],[1],[0.85],vertical,"(890.0, 262.0)",0.6,nan,0,586.669,0
0,97,target,"[(1061, 794)]",[],[1],[0.7],vertical,"(890.0, 262.0)",0.7166666666666667,0.656,1,590.857,1
0,98,target,"[(1061, 808)]",[],[1],[0.4666666666666667],vertical,"(890.0, 762.0)",1.4666666666666666,0.43,1,595.964,1
0,99,target,"[(1061, 794)]",[],[1],[0.23333333333333334],horizontal,"(390.0, 762.0)",1.45,0.197,1,601.34,1
0,100,target,"[(1077, 792)]",[],[1],[0.21666666666666667],horizontal,"(890.0, 262.0)",1.0,0.18,1,606.515,2
0,101,target,"[(1061, 812)]",[],[1],[0.55],horizontal,"(390.0, 262.0)",0.8833333333333333,0.522,1,611.265,1
0,102,target,"[(1061, 805)]",[],[1],[0.7166666666666667],horizontal,"(390.0, 762.0)",0.8666666666666667,0.683,1,616.167,1
0,103,target,"[(1033, 833)]",[],[1],[0.85],vertical,"(390.0, 262.0)",0.5,nan,0,621.314,0
0,104,target,"[(1024, 841)]",[],[1],[0.5],vertical,"(390.0, 262.0)",0.75,0.457,1,650.49,1
0,105,target,"[(1029, 813)]",[],[1],[],vertical,"(890.0, 262.0)",,"('cti', 1.109)",0,655.207,0
0,106,catch,"[(1067, 812)]",[],[1],[],horizontal,"(390.0, 262.0)",1.2333333333333334,nan,1,659.574,1
0,107,catch,"[(1061, 800)]",[],[1],[],horizontal,"(390.0, 762.0)",1.4833333333333334,nan,1,663.807,1
0,108,target,"[(1077, 808)]",[],[1],[],horizontal,"(390.0, 262.0)",,"('fix', 0.168)",0,668.757,0
0,109,target,"[(1052, 841)]",[],[1],[0.15],horizontal,"(390.0, 762.0)",1.5666666666666667,0.116,1,670.525,1
0,110,target,"[(1064, 821)]",[],[1],[0.5],vertical,"(890.0, 262.0)",1.1166666666666667,0.46,1,675.394,1
0,111,target,"[(1057, 808)]",[],[1],[0.48333333333333334],horizontal,"(890.0, 262.0)",1.1833333333333333,0.442,1,680.191,1
0,112,target,"[(1057, 804)]",[],[1],[0.5666666666666667],vertical,"(890.0, 262.0)",1.2333333333333334,0.528,1,685.34,2
0,113,target,"[(1053, 804)]",[],[1],[0.85],horizontal,"(890.0, 262.0)",0.5833333333333334,nan,0,690.69,0
0,114,target,"[(1057, 821)]",[],[1],[0.26666666666666666],horizontal,"(890.0, 262.0)",1.1333333333333333,0.231,1,694.81,1
0,115,target,"[(1050, 787)]",[],[1],"[0.85, 0.85]",horizontal,"(390.0, 762.0)",1.4666666666666666,"0.801,nan",0,699.854,0
0,116,target,"[(1032, 808)]",[],[1],[0.5666666666666667],vertical,"(890.0, 762.0)",0.8166666666666667,0.525,1,704.789,1
0,117,catch,"[(1033, 796)]",[],[1],[],vertical,"(390.0, 762.0)",1.1,nan,1,709.692,1
0,118,target,"[(1025, 868)]",[],[1],[0.85],horizontal,"(390.0, 762.0)",1.2833333333333332,nan,0,714.158,0
0,119,target,"[(1042, 887)]",[],[1],[0.48333333333333334],horizontal,"(890.0, 762.0)",1.2333333333333334,0.445,1,1044.26,1
0,120,catch,"[(1082, 833)]","[(1091, 888)]",[1],[0.8833333333333333],vertical,"(890.0, 762.0)",,"('bar', 0.885),nan",0,1073.476,0
0,121,target,"[(1011, 850)]",[],[1],[0.5833333333333334],vertical,"(890.0, 262.0)",0.7833333333333333,0.56,1,1076.544,1
0,122,target,"[(1029, 818)]",[],[1],[],vertical,"(890.0, 262.0)",,"('cti', 1.485)",0,1096.208,0
0,123,target,"[(1056, 844)]",[],[1],[0.5666666666666667],horizontal,"(390.0, 262.0)",0.5666666666666667,0.52,1,1100.796,1
0,124,target,"[(1017, 819)]",[],[1],[0.55],vertical,"(890.0, 762.0)",0.8333333333333334,0.511,1,1104.959,1
0,125,target,"[(1032, 815)]",[],[1],[],vertical,"(890.0, 762.0)",,"('cti', 0.441)",0,1110.126,0
0,126,target,"[(1026, 836)]",[],[1],[0.45],vertical,"(890.0, 262.0)",1.2833333333333332,0.409,1,1113.944,1
0,127,target,"[(1061, 823)]",[],[1],[0.36666666666666664],vertical,"(390.0, 262.0)",1.2166666666666666,0.325,1,1119.644,1
0,128,target,"[(1065, 810)]",[],[1],[0.6],vertical,"(390.0, 762.0)",1.4,0.557,1,1124.923,1
0,129,target,"[(1061, 805)]",[],[1],[0.85],horizontal,"(890.0, 762.0)",1.55,"('cti', 1.523),nan",0,1130.327,0
0,130,catch,"[(1049, 842)]",[],[1],[],horizontal,"(390.0, 762.0)",1.5,nan,1,1135.793,1
0,131,target,"[(1065, 810)]",[],[1],[0.11666666666666667],vertical,"(890.0, 262.0)",1.6666666666666667,0.084,0,1140.444,0
0,132,target,"[(1057, 834)]",[],[1],[0.85],vertical,"(390.0, 262.0)",0.65,nan,0,1145.127,0
0,133,catch,"[(1017, 853)]",[],[1],[],vertical,"(390.0, 262.0)",1.5166666666666666,nan,1,1149.778,1
0,134,target,"[(1055, 839)]",[],[1],[0.6166666666666667],horizontal,"(890.0, 762.0)",1.1,0.574,1,1209.727,1
0,135,target,"[(1032, 829)]",[],[1],[0.85],horizontal,"(890.0, 262.0)",1.65,nan,0,1214.662,0
0,136,target,"[(1037, 873)]",[],[1],[],vertical,"(890.0, 262.0)",,"('cti', 0.797)",0,1220.306,0
0,137,target,"[(1036, 838)]",[],[1],[0.6166666666666667],vertical,"(390.0, 262.0)",1.1166666666666667,0.571,1,1223.927,1
0,138,target,"[(1035, 827)]",[],[1],[0.85],horizontal,"(390.0, 262.0)",0.7833333333333333,nan,0,1230.46,0
0,139,target,"[(986, 891), (522, 526), (1032, 861)]",[],"[0, 0, 1]",[0.85],vertical,"(390.0, 762.0)",1.4,nan,0,1235.215,0
0,140,target,"[(1042, 842)]",[],[1],[0.55],vertical,"(890.0, 762.0)",0.8166666666666667,0.507,1,1244.698,1
0,141,target,"[(1028, 833)]",[],[1],[0.48333333333333334],vertical,"(390.0, 262.0)",1.2333333333333334,0.44,1,1249.228,1
0,142,catch,"[(1029, 846)]",[],[1],[],vertical,"(390.0, 762.0)",,"('cti', 1.502),nan",0,1258.179,0
0,143,target,"[(1068, 813)]",[],[1],[0.5166666666666666],vertical,"(890.0, 262.0)",1.1666666666666667,0.477,1,1263.064,1
0,144,target,"[(1066, 813)]",[],[1],[0.75],vertical,"(390.0, 762.0)",1.0833333333333333,0.701,1,1268.175,1
0,145,target,"[(1061, 821)]",[],[1],[0.7666666666666666],vertical,"(390.0, 762.0)",0.8833333333333333,0.719,1,1273.427,1
0,146,target,"[(1058, 836)]",[],[1],[0.85],horizontal,"(390.0, 262.0)",1.25,nan,0,1278.125,0
0,147,target,"[(1025, 826)]",[],[1],[0.48333333333333334],vertical,"(890.0, 762.0)",0.6666666666666666,0.446,1,1283.049,1
0,148,target,"[(1065, 846)]",[],[1],[0.13333333333333333],vertical,"(890.0, 762.0)",1.55,0.101,1,1289.571,1
0,149,catch,"[(1061, 799)]",[],[1],[],vertical,"(390.0, 762.0)",1.25,nan,1,1294.861,1
0,150,target,"[(1061, 816)]",[],[1],[0.5166666666666666],vertical,"(890.0, 262.0)",1.1166666666666667,0.476,1,1299.498,2
0,151,target,"[(1065, 808)]",[],[1],[],horizontal,"(890.0, 762.0)",,"('cti', 1.481)",0,1305.433,0
0,152,target,"[(1028, 828)]",[],[1],[0.55],vertical,"(390.0, 262.0)",1.0166666666666666,0.504,1,1310.356,1
0,153,target,"[(1066, 809)]",[],[1],[0.3333333333333333],horizontal,"(890.0, 262.0)",1.4833333333333334,0.294,1,1315.38,1
0,154,catch,"[(1081, 822)]",[],[1],[],vertical,"(890.0, 762.0)",1.6333333333333333,nan,1,1320.834,1
0,155,target,"[(1066, 820)]",[],[1],[0.06666666666666667],vertical,"(890.0, 262.0)",1.4333333333333333,0.035,0,1326.061,0
0,156,target,"[(1055, 833)]",[],[1],[0.4],horizontal,"(890.0, 762.0)",1.35,0.365,1,1330.561,1
0,157,target,"[(1071, 837)]",[],[1],[0.6166666666666667],horizontal,"(390.0, 762.0)",0.7,0.576,1,1336.768,1
0,158,target,"[(1065, 795)]",[],[1],[0.7166666666666667],horizontal,"(890.0, 762.0)",0.7333333333333333,0.674,1,1341.677,1
0,159,target,"[(1063, 804)]",[],[1],[0.5166666666666666],vertical,"(890.0, 762.0)",0.6333333333333333,0.479,1,1346.171,2
0,160,target,"[(1062, 808)]",[],[1],[0.11666666666666667],horizontal,"(890.0, 762.0)",1.55,0.088,0,1350.813,0
0,161,target,"[(1061, 811)]",[],[1],[0.55],vertical,"(390.0, 762.0)",1.1166666666666667,0.508,1,1355.309,1
0,162,target,"[(1061, 814)]",[],[1],[0.5666666666666667],horizontal,"(890.0, 262.0)",0.75,0.521,1,1360.571,1
0,163,catch,"[(1054, 816)]",[],[1],[],vertical,"(390.0, 762.0)",1.3333333333333333,nan,1,1365.061,1
0,164,target,"[(1057, 808)]",[],[1],[0.21666666666666667],horizontal,"(390.0, 262.0)",1.4833333333333334,0.185,1,1369.608,2
0,165,target,"[(1051, 816)]",[],[1],[0.6],vertical,"(390.0, 762.0)",1.5333333333333332,0.562,1,1375.146,1
0,166,target,"[(1072, 828)]",[],[1],[0.6666666666666666],horizontal,"(390.0, 762.0)",0.95,0.631,1,1380.445,1
0,167,catch,"[(1061, 810)]",[],[1],[],horizontal,"(890.0, 762.0)",1.2333333333333334,nan,1,1385.277,1
0,168,target,"[(1068, 819)]",[],[1],[0.6166666666666667],vertical,"(390.0, 262.0)",0.5833333333333334,0.576,1,1390.044,3
0,169,catch,"[(1068, 827)]",[],[1],[],vertical,"(390.0, 262.0)",1.6,nan,1,1395.379,1
0,170,target,"[(1064, 809)]",[],[1],[0.7833333333333333],vertical,"(390.0, 762.0)",0.7833333333333333,0.739,1,1400.296,1
0,171,target,"[(1059, 834)]",[],[1],[0.5],vertical,"(390.0, 262.0)",1.15,0.459,1,1405.426,1
0,172,target,"[(1068, 804)]",[],[1],[0.45],horizontal,"(890.0, 762.0)",1.0166666666666666,0.412,1,1410.595,2
0,173,target,"[(1060, 823)]",[],[1],[0.3333333333333333],horizontal,"(890.0, 762.0)",1.4,0.298,1,1415.913,1
0,174,target,"[(1065, 803)]",[],[1],[0.48333333333333334],vertical,"(390.0, 762.0)",1.3,0.444,1,1420.521,1
0,175,target,"[(1057, 822)]",[],[1],[0.4166666666666667],vertical,"(390.0, 262.0)",1.5,0.375,1,1425.988,1
0,176,target,"[(1087, 793)]",[],[1],[0.5],vertical,"(390.0, 762.0)",1.1166666666666667,0.456,1,1430.912,3
0,177,target,"[(1064, 807)]",[],[1],[0.85],vertical,"(390.0, 762.0)",0.5333333333333333,nan,0,1436.545,0
0,178,target,"[(1065, 840)]",[],[1],[0.85],vertical,"(390.0, 762.0)",1.6666666666666667,"('cti', 1.645),nan",0,1440.996,0
0,179,target,"[(1056, 827)]",[],[1],[0.5],vertical,"(890.0, 762.0)",1.2333333333333334,0.456,1,1446.522,1
0,180,target,"[(1072, 802)]",[],[1],[0.5],vertical,"(890.0, 262.0)",1.0,0.457,1,1451.729,1
0,181,target,"[(1057, 821)]",[],[1],[0.5166666666666666],vertical,"(890.0, 762.0)",0.6666666666666666,0.48,1,1456.711,1
0,182,target,"[(1068, 803)]",[],[1],[0.31666666666666665],vertical,"(890.0, 762.0)",1.25,0.283,1,1461.318,2
0,183,target,"[(1060, 792)]",[],[1],[0.75],horizontal,"(890.0, 262.0)",1.3333333333333333,0.711,1,1466.878,1
0,184,catch,"[(1072, 807)]",[],[1],[],vertical,"(390.0, 262.0)",1.2,nan,1,1471.784,1
0,185,catch,"[(1065, 805)]",[],[1],[],horizontal,"(890.0, 762.0)",1.0666666666666667,nan,1,1476.411,1
0,186,target,"[(1049, 837)]",[],[1],[0.16666666666666666],horizontal,"(890.0, 762.0)",1.35,0.133,1,1480.545,3
0,187,target,"[(1065, 833)]",[],[1],[0.5666666666666667],vertical,"(890.0, 762.0)",0.95,0.522,1,1486.345,1
0,188,target,"[(1066, 818)]",[],[1],[],vertical,"(890.0, 262.0)",,"('cti', 1.413)",0,1491.028,0
0,189,catch,"[(1045, 828)]",[],[1],[],vertical,"(890.0, 762.0)",1.4166666666666667,nan,1,1495.641,1
0,190,target,"[(1068, 814)]",[],[1],[0.18333333333333332],vertical,"(390.0, 262.0)",1.3833333333333333,0.15,1,1500.514,1
0,191,target,"[(1052, 807)]",[],[1],[0.15],horizontal,"(890.0, 762.0)",1.5,0.119,1,1505.462,1
0,192,target,"[(1065, 815)]",[],[1],[],horizontal,"(890.0, 262.0)",,"('cti', 1.481)",0,1510.795,0
0,193,target,"[(1037, 808)]",[],[1],[0.6666666666666666],horizontal,"(390.0, 262.0)",1.5333333333333332,0.628,1,1515.531,1
0,194,target,"[(1059, 802)]",[],[1],[0.4],horizontal,"(890.0, 262.0)",1.3,0.366,1,1520.618,1
0,195,target,"[(1053, 793)]",[],[1],[0.8333333333333334],vertical,"(890.0, 262.0)",0.9166666666666666,0.787,1,1525.812,1
0,196,target,"[(1065, 808)]",[],[1],[0.7833333333333333],horizontal,"(890.0, 762.0)",0.8666666666666667,0.733,1,1530.688,2
0,197,target,"[(1065, 814)]",[],[1],[0.5833333333333334],horizontal,"(890.0, 762.0)",0.9333333333333333,0.546,1,1536.077,1
0,198,target,"[(1071, 806)]",[],[1],[0.5666666666666667],horizontal,"(890.0, 762.0)",1.1833333333333333,0.528,1,1540.796,1
0,199,target,"[(1077, 816)]",[],[1],[0.55],vertical,"(890.0, 762.0)",0.6666666666666666,0.509,1,1546.27,1
0,200,target,"[(1070, 836)]",[],[1],[0.5333333333333333],horizontal,"(890.0, 762.0)",0.7333333333333333,0.491,1,1550.778,3
0,201,target,"[(1083, 815)]",[],[1],[0.21666666666666667],horizontal,"(390.0, 262.0)",1.1833333333333333,0.184,1,1557.347,1
0,202,target,"[(1057, 812)]",[],[1],[0.6833333333333333],horizontal,"(390.0, 262.0)",0.5333333333333333,0.635,1,1562.297,1
0,203,target,"[(1068, 838)]",[],[1],[0.25],horizontal,"(890.0, 762.0)",1.2333333333333334,0.215,1,1566.632,1
0,204,target,"[(1065, 812)]",[],[1],[0.23333333333333334],horizontal,"(390.0, 762.0)",1.3833333333333333,0.198,1,1572.53,2
0,205,target,"[(1033, 818)]",[],[1],[0.5333333333333333],vertical,"(890.0, 262.0)",0.95,0.496,1,1577.797,1
0,206,target,"[(1036, 828)]",[],[1],[0.48333333333333334],vertical,"(390.0, 262.0)",1.0166666666666666,0.443,1,1582.98,1
0,207,target,"[(1034, 833)]",[],[1],[0.18333333333333332],vertical,"(890.0, 262.0)",1.3833333333333333,0.151,1,1587.663,1
0,208,target,"[(1068, 819)]",[],[1],[0.7166666666666667],vertical,"(390.0, 262.0)",0.65,0.669,1,1593.03,3
0,209,target,"[(1057, 815)]",[],[1],[0.6166666666666667],vertical,"(890.0, 762.0)",1.1666666666666667,0.576,1,1598.63,1
0,210,target,"[(1054, 807)]",[],[1],[0.5333333333333333],horizontal,"(890.0, 262.0)",1.15,0.495,1,1603.697,1
0,211,target,"[(1065, 804)]",[],[1],[0.7333333333333333],vertical,"(390.0, 262.0)",0.95,0.687,1,1608.607,1
0,212,target,"[(1062, 800)]",[],[1],[0.7],horizontal,"(890.0, 762.0)",0.95,0.661,1,1613.778,2
0,213,target,"[(1066, 798)]",[],[1],[0.2833333333333333],vertical,"(390.0, 762.0)",1.2833333333333332,0.251,1,1619.213,1
0,214,target,"[(1068, 814)]",[],[1],[0.26666666666666666],vertical,"(890.0, 762.0)",1.35,0.236,1,1624.39,1
0,215,target,"[(1037, 817)]",[],[1],[0.5833333333333334],vertical,"(890.0, 262.0)",0.5166666666666666,0.541,1,1629.062,1
0,216,target,"[(1058, 803)]",[],[1],[0.7333333333333333],vertical,"(890.0, 762.0)",0.7833333333333333,0.689,1,1633.362,3
0,217,catch,"[(1055, 807)]",[],[1],[],vertical,"(890.0, 762.0)",1.6666666666666667,nan,1,1639.079,1
0,218,catch,"[(1055, 825)]",[],[1],[],vertical,"(890.0, 262.0)",1.0833333333333333,nan,1,1643.724,1
0,219,catch,"[(1063, 802)]",[],[1],[],horizontal,"(390.0, 762.0)",1.3333333333333333,nan,1,1647.862,1
0,220,target,"[(1068, 813)]",[],[1],[0.35],vertical,"(390.0, 262.0)",1.2166666666666666,0.317,1,1652.901,2
0,221,target,"[(1065, 813)]",[],[1],[0.4],vertical,"(390.0, 762.0)",1.2,0.362,1,1658.147,1
0,222,target,"[(1068, 808)]",[],[1],[0.6666666666666666],horizontal,"(390.0, 262.0)",0.55,0.621,1,1662.897,1
0,223,catch,"[(1065, 817)]",[],[1],[],horizontal,"(890.0, 262.0)",1.35,nan,1,1667.88,1
0,224,target,"[(1063, 813)]",[],[1],[],horizontal,"(890.0, 762.0)",,"('cti', 0.588)",0,1672.796,0
0,225,target,"[(1068, 825)]",[],[1],[0.43333333333333335],vertical,"(890.0, 262.0)",1.3333333333333333,0.394,1,1676.772,1
0,226,target,"[(1065, 808)]",[],[1],[0.5666666666666667],horizontal,"(390.0, 762.0)",0.5,0.528,1,1681.591,1
0,227,target,"[(1064, 818)]",[],[1],[0.26666666666666666],vertical,"(890.0, 262.0)",1.0,0.23,1,1686.072,1
0,228,target,"[(1065, 794)]",[],[1],[0.85],vertical,"(390.0, 762.0)",0.7666666666666666,nan,0,1691.063,0
0,229,target,"[(1025, 822)]",[],[1],[0.85],horizontal,"(390.0, 762.0)",0.6166666666666667,nan,0,1695.363,0
0,230,target,"[(1028, 831)]",[],[1],[0.4],horizontal,"(390.0, 762.0)",1.1166666666666667,0.365,1,1700.063,1
0,231,target,"[(1068, 808)]",[],[1],[0.5333333333333333],horizontal,"(890.0, 262.0)",0.8333333333333334,0.488,1,1705.495,1
0,232,target,"[(1068, 836)]",[],[1],[0.5166666666666666],horizontal,"(890.0, 262.0)",0.7666666666666666,0.474,1,1709.981,1
0,233,target,"[(1068, 808)]",[],[1],[0.7333333333333333],vertical,"(390.0, 262.0)",0.9333333333333333,0.692,1,1714.887,2
0,234,target,"[(1068, 790)]",[],[1],[],horizontal,"(390.0, 762.0)",,"('cti', 1.398)",0,1720.196,0
0,235,target,"[(1057, 835)]",[],[1],[],horizontal,"(390.0, 762.0)",,"('cti', 1.424)",0,1724.464,0
0,236,target,"[(1054, 829)]",[],[1],[0.15],horizontal,"(890.0, 762.0)",1.2833333333333332,0.119,1,1742.738,1
0,237,target,"[(1058, 813)]",[],[1],[0.6],horizontal,"(390.0, 762.0)",0.6,0.562,1,1747.747,1
0,238,target,"[(1029, 871)]",[],[1],[0.5666666666666667],vertical,"(890.0, 762.0)",0.95,0.528,1,1752.113,1
0,239,target,"[(1057, 828)]",[],[1],[0.6],vertical,"(390.0, 762.0)",0.75,0.563,1,2061.832,2
0,240,target,"[(1057, 819)]",[],[1],[0.5166666666666666],vertical,"(390.0, 262.0)",0.65,0.485,1,2066.765,1
0,241,target,"[(1053, 821)]",[],[1],[0.85],horizontal,"(390.0, 762.0)",0.7666666666666666,nan,0,2071.198,0
0,242,target,"[(1053, 834)]",[],[1],[0.5666666666666667],horizontal,"(890.0, 762.0)",0.9666666666666667,0.522,1,2075.6,1
0,243,catch,"[(1061, 812)]",[],[1],[],horizontal,"(390.0, 762.0)",1.2333333333333334,nan,1,2080.848,1
0,244,target,"[(1061, 842)]",[],[1],[0.85],vertical,"(890.0, 762.0)",1.65,nan,0,2085.651,0
0,245,catch,"[(1022, 837)]",[],[1],[],horizontal,"(890.0, 762.0)",1.5,nan,1,2091.465,1
0,246,target,"[(1069, 825)]",[],[1],[0.5333333333333333],horizontal,"(890.0, 762.0)",1.2333333333333334,0.495,1,2096.741,1
0,247,catch,"[(1072, 828)]",[],[1],[],horizontal,"(390.0, 262.0)",1.6666666666666667,nan,1,2101.75,1
0,248,target,"[(1033, 813)]",[],[1],[0.5333333333333333],vertical,"(390.0, 762.0)",0.7666666666666666,0.497,1,2106.433,2
0,249,target,"[(1072, 817)]",[],[1],[0.48333333333333334],vertical,"(890.0, 762.0)",0.75,0.439,1,2111.117,1
0,250,target,"[(1072, 824)]",[],[1],[0.5166666666666666],vertical,"(890.0, 262.0)",1.2833333333333332,0.471,1,2115.488,1
0,251,target,"[(1072, 827)]",[],[1],[],vertical,"(390.0, 762.0)",,"('cti', 1.34)",0,2120.516,0
0,252,catch,"[(1065, 830)]",[],[1],[],vertical,"(890.0, 262.0)",1.4833333333333334,nan,1,2125.255,1
0,253,target,"[(1058, 813)]",[],[1],[0.1],vertical,"(890.0, 262.0)",1.6666666666666667,0.066,0,2129.932,0
0,254,target,"[(1024, 843)]",[],[1],[0.55],vertical,"(390.0, 262.0)",0.8166666666666667,0.511,1,2134.685,1
0,255,target,"[(1033, 777)]",[],[1],[0.5666666666666667],horizontal,"(890.0, 262.0)",0.6666666666666666,0.527,1,2139.832,1
0,256,target,"[(1060, 815)]",[],[1],[0.4666666666666667],vertical,"(890.0, 262.0)",0.9166666666666666,0.429,1,2144.019,1
0,257,target,"[(1072, 822)]",[],[1],[0.5666666666666667],vertical,"(390.0, 762.0)",1.05,0.535,1,2148.55,2
0,258,target,"[(1069, 815)]",[],[1],[0.13333333333333333],vertical,"(890.0, 762.0)",1.6,0.102,1,2153.883,1
0,259,target,"[(1088, 822)]",[],[1],[0.45],horizontal,"(390.0, 262.0)",1.3666666666666667,0.416,1,2159.036,1
0,260,target,"[(1068, 807)]",[],[1],[0.55],horizontal,"(890.0, 762.0)",0.8166666666666667,0.511,1,2164.167,1
0,261,target,"[(1062, 807)]",[],[1],[0.7166666666666667],vertical,"(390.0, 762.0)",0.5666666666666667,0.682,1,2169.133,3
0,262,target,"[(1057, 806)]",[],[1],[0.85],horizontal,"(390.0, 262.0)",0.5666666666666667,nan,0,2174.337,0
0,263,target,"[(1027, 846)]",[],[1],[0.85],vertical,"(890.0, 762.0)",1.1833333333333333,nan,0,2178.653,0
0,264,target,"[(1040, 850)]",[],[1],[],vertical,"(890.0, 762.0)",,"('cti', 1.339)",0,2190.567,0
0,265,target,"[(1026, 837)]",[],[1],[0.35],horizontal,"(390.0, 762.0)",1.3333333333333333,0.308,1,2195.182,1
0,266,catch,"[(1037, 825)]",[],[1],[],vertical,"(390.0, 262.0)",1.1166666666666667,nan,1,2203.266,1
0,267,target,"[(1013, 807)]",[],[1],[0.35],vertical,"(390.0, 262.0)",1.2833333333333332,0.313,1,2207.433,1
0,268,target,"[(1055, 826)]",[],[1],[0.7333333333333333],vertical,"(890.0, 262.0)",0.55,0.693,1,2212.934,2
0,269,target,"[(1062, 812)]",[],[1],[0.5],horizontal,"(890.0, 262.0)",0.75,0.458,1,2218.421,1
0,270,target,"[(1069, 827)]",[],[1],[0.3],vertical,"(390.0, 262.0)",1.2666666666666666,0.269,1,2223.165,1
0,271,target,"[(1053, 834)]",[],[1],[0.5],horizontal,"(390.0, 262.0)",0.65,0.461,1,2227.934,1
0,272,target,"[(1002, 825), (1025, 845)]",[],"[0, 1]",[0.2],vertical,"(890.0, 762.0)",1.65,0.165,1,2232.833,3
0,273,target,"[(1055, 827)]",[],[1],[0.5166666666666666],horizontal,"(390.0, 262.0)",0.7833333333333333,0.476,1,2245.735,1
0,274,target,"[(1050, 828)]",[],[1],[0.55],horizontal,"(390.0, 762.0)",0.55,0.508,1,2250.5,1
0,275,target,"[(1073, 826)]",[],[1],[0.48333333333333334],vertical,"(890.0, 762.0)",0.5333333333333333,0.446,1,2254.745,1
0,276,target,"[(1025, 798)]",[],[1],[0.43333333333333335],horizontal,"(890.0, 262.0)",1.6666666666666667,0.397,1,2259.394,2
0,277,target,"[(1068, 827)]",[],[1],[0.5],horizontal,"(390.0, 262.0)",0.95,0.458,1,2264.85,1
0,278,target,"[(1033, 832)]",[],[1],[0.2833333333333333],horizontal,"(890.0, 262.0)",1.2833333333333332,0.248,1,2269.801,1
0,279,target,"[(1059, 842)]",[],[1],[0.5666666666666667],horizontal,"(890.0, 762.0)",0.8,0.53,1,2274.984,1
0,280,target,"[(1044, 850)]",[],[1],[0.5666666666666667],vertical,"(890.0, 762.0)",1.0166666666666666,0.526,1,2279.471,3
0,281,target,"[(1061, 820)]",[],[1],[0.85],vertical,"(390.0, 762.0)",0.7166666666666667,nan,0,2285.368,0
0,282,target,"[(1023, 843)]",[],[1],[0.16666666666666666],horizontal,"(890.0, 262.0)",1.6666666666666667,0.135,1,2289.668,1
0,283,target,"[(1068, 823)]",[],[1],[0.5],vertical,"(390.0, 262.0)",1.5,0.468,1,2298.643,1
0,284,target,"[(1033, 845)]",[],[1],[0.21666666666666667],vertical,"(890.0, 762.0)",1.35,0.18,1,2303.718,1
0,285,catch,"[(1033, 834)]",[],[1],[],horizontal,"(890.0, 262.0)",1.3666666666666667,nan,1,2309.053,2
0,286,target,"[(1065, 805)]",[],[1],[0.3333333333333333],horizontal,"(890.0, 262.0)",1.3833333333333333,0.298,1,2313.954,1
0,287,target,"[(1068, 817)]",[],[1],[0.5166666666666666],horizontal,"(890.0, 262.0)",0.9833333333333333,0.484,1,2318.517,1
0,288,target,"[(1049, 813)]",[],[1],[0.7166666666666667],horizontal,"(890.0, 762.0)",1.1166666666666667,0.673,1,2323.667,1
0,289,target,"[(1068, 805)]",[],[1],[0.7333333333333333],vertical,"(890.0, 262.0)",0.85,0.69,1,2328.733,3
0,290,catch,"[(1065, 816)]",[],[1],[],horizontal,"(890.0, 762.0)",1.05,nan,1,2334.048,1
0,291,target,"[(1043, 825)]",[],[1],[0.43333333333333335],horizontal,"(390.0, 762.0)",1.3833333333333333,0.4,1,2338.534,1
0,292,target,"[(1065, 806)]",[],[1],[0.6666666666666666],horizontal,"(890.0, 262.0)",1.0666666666666667,0.62,1,2343.307,1
0,293,target,"[(1068, 825)]",[],[1],[0.13333333333333333],vertical,"(390.0, 762.0)",1.3666666666666667,0.102,1,2348.099,2
0,294,target,"[(1049, 844)]",[],[1],[0.8166666666666667],vertical,"(890.0, 762.0)",0.7333333333333333,0.779,1,2353.652,1
0,295,target,"[(1057, 816)]",[],[1],[0.4666666666666667],vertical,"(890.0, 262.0)",0.55,0.427,1,2358.718,1
0,296,target,"[(1061, 813)]",[],[1],[0.5166666666666666],horizontal,"(890.0, 762.0)",1.2666666666666666,0.481,1,2362.817,1
0,297,target,"[(1040, 816)]",[],[1],[0.15],horizontal,"(890.0, 262.0)",1.6666666666666667,0.12,1,2368.217,3
0,298,target,"[(1065, 822)]",[],[1],[0.6],vertical,"(890.0, 762.0)",0.65,0.559,1,2374.367,1
0,299,target,"[(1068, 822)]",[],[1],[0.6666666666666666],horizontal,"(390.0, 762.0)",0.95,0.627,1,2379.167,1
0,300,target,"[(1065, 809)]",[],[1],[0.36666666666666664],vertical,"(390.0, 762.0)",1.35,0.329,1,2384.451,1
0,301,target,"[(1068, 807)]",[],[1],[0.26666666666666666],vertical,"(890.0, 762.0)",1.4166666666666667,0.23,1,2389.451,2
0,302,target,"[(1039, 818)]",[],[1],[0.7333333333333333],vertical,"(890.0, 262.0)",0.55,0.69,1,2394.738,1
0,303,target,"[(1051, 816)]",[],[1],[0.15],vertical,"(890.0, 262.0)",1.3,0.115,1,2399.518,1
0,304,target,"[(1061, 803)]",[],[1],[0.55],horizontal,"(390.0, 262.0)",0.9,0.502,1,2404.669,1
0,305,target,"[(1056, 819)]",[],[1],[0.5666666666666667],horizontal,"(390.0, 762.0)",0.5333333333333333,0.53,1,2409.818,3
0,306,catch,"[(1061, 820)]",[],[1],[],horizontal,"(390.0, 762.0)",,"('cti', 1.519),nan",0,2415.175,0
0,307,target,"[(1059, 831)]",[],[1],[0.26666666666666666],vertical,"(390.0, 762.0)",1.5666666666666667,0.23,1,2419.604,1
0,308,catch,"[(1066, 806)]",[],[1],[],horizontal,"(390.0, 762.0)",1.4333333333333333,nan,1,2424.802,1
0,309,target,"[(1062, 811)]",[],[1],[],horizontal,"(890.0, 762.0)",,"('cti', 1.422)",0,2429.485,0
0,310,target,"[(1047, 822)]",[],[1],[0.2833333333333333],horizontal,"(890.0, 262.0)",1.5166666666666666,0.252,1,2433.889,1
0,311,target,"[(1065, 818)]",[],[1],[],horizontal,"(390.0, 262.0)",,"('cti', 1.082)",0,2438.968,0
0,312,target,"[(1027, 822)]",[],[1],[0.4666666666666667],vertical,"(390.0, 762.0)",1.55,0.428,1,2443.535,1
0,313,target,"[(1061, 794)]",[],[1],[0.48333333333333334],vertical,"(890.0, 762.0)",1.2333333333333334,0.438,1,2448.968,1
0,314,target,"[(1033, 826)]",[],[1],[0.5],vertical,"(890.0, 762.0)",1.0333333333333332,0.457,1,2453.949,1
0,315,target,"[(1067, 807)]",[],[1],[0.6333333333333333],vertical,"(390.0, 762.0)",1.0833333333333333,0.591,1,2458.694,2
0,316,target,"[(1061, 792)]",[],[1],[0.85],vertical,"(390.0, 762.0)",0.5166666666666666,nan,0,2463.827,0
0,317,catch,"[(1031, 809)]",[],[1],[],horizontal,"(390.0, 762.0)",1.3166666666666667,nan,1,2468.43,1
0,318,catch,"[(1057, 802)]",[],[1],[],vertical,"(390.0, 262.0)",1.4333333333333333,nan,1,2475.978,1
0,319,target,"[(1064, 820)]",[],[1],[0.5666666666666667],vertical,"(390.0, 762.0)",0.5166666666666666,0.523,1,2480.735,1
0,320,target,"[(1058, 818)]",[],[1],[0.48333333333333334],vertical,"(890.0, 262.0)",1.1166666666666667,0.444,1,2484.905,2
0,321,target,"[(1067, 802)]",[],[1],[0.65],horizontal,"(390.0, 262.0)",0.9333333333333333,0.605,1,2490.818,1
0,322,target,"[(1061, 808)]",[],[1],[0.65],horizontal,"(890.0, 262.0)",0.8,0.61,1,2495.528,1
0,323,target,"[(1057, 835)]",[],[1],[0.13333333333333333],horizontal,"(890.0, 762.0)",1.4833333333333334,0.102,1,2500.337,1
0,324,target,"[(1057, 815)]",[],[1],[],vertical,"(890.0, 262.0)",,"('cti', 1.358)",0,2505.277,0
0,325,target,"[(1030, 810)]",[],[1],[0.36666666666666664],vertical,"(390.0, 762.0)",1.0,0.326,1,2510.015,1
0,326,target,"[(1022, 836)]",[],[1],[0.5166666666666666],horizontal,"(890.0, 762.0)",0.7166666666666667,0.473,1,2514.451,1
0,327,target,"[(1064, 831)]",[],[1],[0.08333333333333333],horizontal,"(390.0, 762.0)",1.5166666666666666,0.05,0,2521.784,0
0,328,catch,"[(1017, 839)]",[],[1],[],vertical,"(890.0, 762.0)",1.0166666666666666,nan,1,2526.389,1
0,329,target,"[(1069, 827)]",[],[1],[0.5666666666666667],vertical,"(390.0, 762.0)",0.9333333333333333,0.525,1,2533.682,1
0,330,target,"[(1063, 815)]",[],[1],[],vertical,"(890.0, 262.0)",,"('cti', 1.578)",0,2538.058,0
0,331,target,"[(1057, 813)]",[],[1],[0.2],horizontal,"(390.0, 762.0)",1.5333333333333332,0.167,1,2542.885,1
0,332,target,"[(1071, 795)]",[],[1],[0.6833333333333333],vertical,"(390.0, 262.0)",0.8833333333333333,0.639,1,2547.968,1
0,333,target,"[(1061, 813)]",[],[1],[],vertical,"(390.0, 262.0)",,"('cti', 1.273)",0,2552.972,0
0,334,target,"[(1064, 804)]",[],[1],[0.5666666666666667],vertical,"(890.0, 262.0)",0.65,0.528,1,2557.67,1
0,335,catch,"[(1021, 809)]",[],[1],[],horizontal,"(390.0, 262.0)",1.0666666666666667,nan,1,2562.236,1
0,336,target,"[(1068, 803)]",[],[1],[0.5333333333333333],horizontal,"(890.0, 262.0)",0.5666666666666667,0.493,1,2566.619,1
0,337,target,"[(1072, 810)]",[],[1],[0.6333333333333333],horizontal,"(390.0, 262.0)",0.5166666666666666,0.588,1,2570.961,2
0,338,target,"[(1072, 805)]",[],[1],[],horizontal,"(390.0, 762.0)",,"('cti', 1.414)",0,2575.87,0
0,339,target,"[(1029, 806)]",[],[1],[0.5833333333333334],vertical,"(890.0, 762.0)",0.6,0.537,1,2580.452,1
0,340,target,"[(1072, 814)]",[],[1],[0.25],horizontal,"(890.0, 262.0)",1.5,0.216,1,2584.852,1
0,341,catch,"[(1057, 811)]",[],[1],[],vertical,"(890.0, 762.0)",1.3333333333333333,nan,1,2590.037,1
0,342,target,"[(1069, 802)]",[],[1],[0.2833333333333333],horizontal,"(890.0, 262.0)",1.3,0.248,1,2594.984,2
0,343,target,"[(459, 879), (461, 872), (460, 872), (457, 872), (1077, 268), (1033, 892)]",[],"[0, 0, 0, 0, 0, 1]",[0.55],vertical,"(890.0, 262.0)",0.5833333333333334,0.515,1,2599.952,1
0,344,target,"[(1072, 841)]",[],[1],[0.13333333333333333],vertical,"(890.0, 762.0)",1.5,0.103,1,3246.439,1
0,345,target,"[(1068, 813)]",[],[1],[0.55],horizontal,"(890.0, 762.0)",0.6333333333333333,0.521,1,3251.572,1
0,346,target,"[(1072, 829)]",[],[1],[0.6166666666666667],vertical,"(890.0, 262.0)",1.1333333333333333,0.578,1,3256.247,3
0,347,target,"[(1035, 846)]",[],[1],[0.6666666666666666],vertical,"(390.0, 262.0)",0.5333333333333333,0.628,1,3262.006,1
0,348,catch,"[(1035, 845)]",[],[1],[],vertical,"(390.0, 262.0)",1.25,nan,1,3266.722,1
0,349,target,"[(1048, 850)]",[],[1],[0.8166666666666667],vertical,"(390.0, 262.0)",0.7666666666666666,0.774,1,3273.547,1
0,350,target,"[(1061, 823)]",[],[1],[0.5833333333333334],vertical,"(390.0, 262.0)",0.95,0.54,1,3278.537,2
0,351,catch,"[(1070, 839)]",[],[1],[],horizontal,"(890.0, 762.0)",1.5166666666666666,nan,1,3284.012,1
0,352,target,"[(1086, 823)]",[],[1],[],horizontal,"(390.0, 762.0)",,"('cti', 0.539)",0,3289.242,0
0,353,target,"[(1071, 827)]",[],[1],[0.4166666666666667],vertical,"(390.0, 262.0)",1.3666666666666667,0.378,1,3293.167,1
0,354,target,"[(1072, 814)]",[],[1],[0.31666666666666665],vertical,"(890.0, 262.0)",1.2,0.283,1,3298.597,1
0,355,target,"[(1074, 787)]",[],[1],[0.45],vertical,"(390.0, 762.0)",1.6333333333333333,0.41,1,3303.489,1
0,356,target,"[(1063, 833)]",[],[1],[0.85],vertical,"(390.0, 762.0)",0.5,nan,0,3308.74,0
0,357,target,"[(1040, 836)]",[],[1],[0.5666666666666667],horizontal,"(890.0, 262.0)",1.0166666666666666,0.527,1,3313.34,1
0,358,target,"[(1076, 818)]",[],[1],[0.25],horizontal,"(890.0, 262.0)",1.25,0.214,1,3321.359,1
0,359,target,"[(1077, 826)]",[],[1],[0.2833333333333333],horizontal,"(390.0, 262.0)",1.2833333333333332,0.244,1,3326.085,1
0,360,target,"[(1084, 818)]",[],[1],[0.5833333333333334],horizontal,"(390.0, 762.0)",0.8,0.543,1,3330.806,2
0,361,target,"[(1072, 816)]",[],[1],[0.48333333333333334],horizontal,"(890.0, 262.0)",0.55,0.445,1,3335.817,1
0,362,target,"[(1062, 807)]",[],[1],[],horizontal,"(890.0, 262.0)",,"('cti', 1.213)",0,3340.426,0
0,363,target,"[(1040, 838)]",[],[1],[0.26666666666666666],vertical,"(890.0, 262.0)",1.4333333333333333,0.235,1,3344.386,1
0,364,target,"[(1037, 827)]",[],[1],[0.6833333333333333],horizontal,"(890.0, 262.0)",0.8166666666666667,0.651,1,3349.534,1
0,365,target,"[(1079, 828)]",[],[1],[0.3833333333333333],horizontal,"(890.0, 762.0)",1.4666666666666666,0.346,1,3354.933,1
0,366,target,"[(1069, 813)]",[],[1],[0.5166666666666666],horizontal,"(890.0, 762.0)",0.7833333333333333,0.476,1,3359.788,2
0,367,target,"[(1084, 830)]",[],[1],[0.4],vertical,"(390.0, 262.0)",0.6333333333333333,0.364,1,3364.689,1
0,368,target,"[(1084, 812)]",[],[1],[],vertical,"(390.0, 762.0)",,"('cti', 1.331)",0,3369.273,0
0,369,target,"[(1076, 814)]",[],[1],[0.48333333333333334],horizontal,"(890.0, 262.0)",1.3666666666666667,0.449,1,3373.453,1
0,370,target,"[(1064, 815)]",[],[1],[],horizontal,"(890.0, 262.0)",,"('cti', 1.062)",0,3378.647,0
0,371,target,"[(1075, 831)]",[],[1],[0.6],horizontal,"(890.0, 262.0)",0.7,0.555,1,3383.023,1
0,372,target,"[(1072, 804)]",[],[1],[0.7666666666666666],vertical,"(390.0, 762.0)",0.85,0.717,1,3388.824,1
0,373,target,"[(1072, 820)]",[],[1],[0.5833333333333334],horizontal,"(890.0, 262.0)",1.1833333333333333,0.543,1,3394.106,1
0,374,catch,"[(1076, 812)]",[],[1],[],horizontal,"(390.0, 762.0)",1.2,nan,1,3399.49,2
0,375,catch,"[(1072, 815)]",[],[1],[],vertical,"(890.0, 262.0)",1.25,nan,1,3404.874,1
0,376,target,"[(1064, 819)]",[],[1],[0.55],vertical,"(890.0, 762.0)",0.65,0.504,1,3409.373,1
0,377,target,"[(1076, 820)]",[],[1],[0.2],vertical,"(890.0, 762.0)",1.2666666666666666,0.164,1,3414.123,1
0,378,target,"[(1074, 821)]",[],[1],[0.65],vertical,"(890.0, 262.0)",0.9666666666666667,0.607,1,3419.157,3
0,379,target,"[(1057, 810)]",[],[1],[0.5333333333333333],horizontal,"(390.0, 762.0)",0.8,0.494,1,3424.581,1
0,380,target,"[(1075, 794)]",[],[1],[],vertical,"(390.0, 762.0)",,"('cti', 0.883)",0,3429.022,0
0,381,target,"[(1065, 842)]",[],[1],[],horizontal,"(890.0, 762.0)",,"('cti', 0.566)",0,3433.424,0
0,382,target,"[(1053, 837)]",[],[1],[0.6166666666666667],vertical,"(890.0, 262.0)",0.8333333333333334,0.574,1,3439.807,1
0,383,target,"[(1039, 811)]",[],[1],[0.26666666666666666],horizontal,"(390.0, 262.0)",1.2166666666666666,0.234,1,3444.738,1
0,384,target,"[(1065, 821)]",[],[1],[0.6166666666666667],vertical,"(890.0, 762.0)",1.3,0.577,1,3449.786,1
0,385,target,"[(1057, 816)]",[],[1],[0.43333333333333335],horizontal,"(390.0, 762.0)",1.1333333333333333,0.398,1,3454.791,2
0,386,target,"[(1065, 817)]",[],[1],[0.5],horizontal,"(890.0, 262.0)",1.0333333333333332,0.462,1,3459.844,1
0,387,target,"[(404, 386), (931, 497), (675, 229), (1017, 866)]",[],"[0, 0, 0, 1]",[0.7],horizontal,"(390.0, 262.0)",1.0166666666666666,0.657,1,3464.473,1
0,388,target,"[(1065, 854)]",[],[1],[0.85],horizontal,"(390.0, 762.0)",1.05,nan,0,7483.297,0
0,389,target,"[(1017, 875)]",[],[1],[0.48333333333333334],vertical,"(890.0, 762.0)",0.95,0.443,1,7488.239,1
0,390,target,"[(1072, 837)]",[],[1],[0.18333333333333332],horizontal,"(390.0, 762.0)",1.6666666666666667,0.153,1,7493.646,1
0,391,target,"[(1065, 829)]",[],[1],[0.3],horizontal,"(390.0, 762.0)",1.4166666666666667,0.269,1,7499.097,1
0,392,target,"[(1057, 820)]",[],[1],[0.5833333333333334],vertical,"(890.0, 262.0)",1.5166666666666666,0.543,1,7504.141,2
0,393,target,"[(1069, 823)]","[(1012, 856)]",[1],[0.5833333333333334],horizontal,"(390.0, 262.0)",,"('bar', 0.599)",0,7509.709,0
0,394,target,"[(1069, 831)]",[],[1],[0.85],horizontal,"(390.0, 762.0)",0.6333333333333333,nan,0,7512.714,0
0,395,target,"[(1008, 843)]",[],[1],[0.65],vertical,"(390.0, 762.0)",1.05,0.614,1,7517.863,1
0,396,target,"[(1033, 877)]",[],[1],[0.85],vertical,"(390.0, 262.0)",0.8833333333333333,nan,0,8006.783,0
0,397,target,"[(1013, 866)]",[],[1],[0.5666666666666667],vertical,"(390.0, 762.0)",0.8166666666666667,0.529,1,8011.804,1
0,398,catch,"[(1061, 831)]",[],[1],[],vertical,"(890.0, 762.0)",,"('cti', 1.39),nan",0,8020.817,0
0,399,target,"[(1033, 825)]",[],[1],[0.48333333333333334],vertical,"(890.0, 762.0)",0.7666666666666666,0.442,1,8025.316,1
0,400,catch,"[(1059, 807)]",[],[1],[],vertical,"(390.0, 762.0)",,"('cti', 1.186),nan",0,8030.365,0
0,401,target,"[(1036, 819)]",[],[1],[0.5166666666666666],horizontal,"(390.0, 762.0)",1.6833333333333333,0.473,1,8034.801,1
0,402,target,"[(1037, 832)]",[],[1],[],horizontal,"(390.0, 762.0)",,"('cti', 1.455)",0,8040.134,0
0,403,target,"[(1028, 820)]",[],[1],[0.85],horizontal,"(890.0, 762.0)",1.1833333333333333,nan,0,8044.835,0
0,404,target,"[(1045, 853)]",[],[1],[0.05],vertical,"(890.0, 762.0)",1.55,0.018,0,8049.767,0
0,405,catch,"[(1037, 815)]",[],[1],[],horizontal,"(890.0, 762.0)",1.1,nan,1,8054.806,1
0,406,target,"[(1061, 811)]",[],[1],[0.55],vertical,"(390.0, 762.0)",1.2,0.517,1,8059.167,1
0,407,target,"[(1054, 842)]",[],[1],[0.6166666666666667],vertical,"(890.0, 262.0)",0.8666666666666667,0.573,1,8063.768,1
0,408,target,"[(1058, 807)]",[],[1],[],horizontal,"(390.0, 262.0)",,"('cti', 1.539)",0,8068.433,0
0,409,target,"[(1057, 832)]",[],[1],[0.35],horizontal,"(890.0, 262.0)",1.5166666666666666,0.31,1,8073.482,1
0,410,target,"[(1053, 838)]",[],[1],[0.5666666666666667],vertical,"(890.0, 262.0)",0.75,0.527,1,8080.33,1
0,411,target,"[(1061, 828)]",[],[1],[0.5],vertical,"(890.0, 762.0)",1.15,0.46,1,8084.551,1
0,412,target,"[(1088, 820)]",[],[1],[0.85],vertical,"(390.0, 762.0)",0.6166666666666667,nan,0,8089.367,0
0,413,target,"[(1042, 842)]",[],[1],[0.65],vertical,"(390.0, 262.0)",0.9833333333333333,0.604,1,8093.517,1
0,414,target,"[(1052, 822)]",[],[1],[0.55],horizontal,"(390.0, 762.0)",1.35,0.507,1,8098.166,1
0,415,catch,"[(1057, 811)]",[],[1],[],vertical,"(390.0, 762.0)",1.4666666666666666,nan,1,8103.167,1
0,416,target,"[(1019, 807)]",[],[1],[0.85],horizontal,"(890.0, 262.0)",0.7166666666666667,nan,0,8107.934,0
0,417,target,"[(1056, 829)]",[],[1],[0.85],vertical,"(390.0, 762.0)",1.05,nan,0,8112.285,0
0,418,target,"[(1040, 815)]",[],[1],[0.85],vertical,"(390.0, 762.0)",0.8166666666666667,nan,0,8117.052,0
0,419,catch,"[(1029, 827)]",[],[1],[],vertical,"(390.0, 262.0)",1.1333333333333333,nan,1,8122.664,1
0,420,target,"[(1058, 847)]",[],[1],[0.8166666666666667],vertical,"(890.0, 262.0)",1.0166666666666666,0.764,1,8143.114,1
0,421,target,"[(664, 747), (624, 439), (447, 418), (549, 453), (675, 459), (565, 383), (561, 573), (636, 678), (726, 541), (624, 215), (1013, 877)]",[],"[0, 0, 0, 0, 0, 0, 0, 0, 0, 0, 1]",[],vertical,"(390.0, 762.0)",,"('fix', 0.347)",0,8148.732,0
0,422,target,"[(679, 558), (1041, 840)]",[],"[0, 1]",[],vertical,"(890.0, 762.0)",,"('fix', 0.065)",0,8153.232,0
0,423,catch,"[(793, 852), (671, 271), (587, 838), (718, 177), (679, 617), (773, 294), (722, 483), (604, 196), (620, 300), (715, 311), (574, 325), (718, 880), (609, 343), (616, 694), (679, 814), (632, 315), (644, 900), (561, 464), (713, 714), (647, 665), (647, 378), (699, 355), (620, 718), (625, 681), (750, 622), (718, 942), (805, 718), (734, 399), (754, 641), (696, 244), (687, 638), (711, 401), (742, 637), (738, 325), (742, 413), (738, 650), (680, 411), (807, 421), (1010, 882)]",[],"[0, 0, 0, 0, 0, 0, 0, 0, 0, 0, 0, 0, 0, 0, 0, 0, 0, 0, 0, 0, 0, 0, 0, 0, 0, 0, 0, 0, 0, 0, 0, 0, 0, 0, 0, 0, 0, 0, 1]",[],horizontal,"(390.0, 762.0)",1.25,nan,1,8154.875,1
0,424,target,"[(1045, 868)]",[],[1],[0.85],horizontal,"(890.0, 262.0)",1.6833333333333333,nan,0,8222.727,0
0,425,target,"[(1021, 873)]",[],[1],[0.5666666666666667],horizontal,"(890.0, 262.0)",0.9166666666666666,0.541,1,8228.051,1
0,426,target,"[(1053, 852)]",[],[1],[0.85],vertical,"(890.0, 262.0)",0.5333333333333333,nan,0,8237.755,0
0,427,target,"[(1032, 847)]",[],[1],[0.85],vertical,"(890.0, 262.0)",0.9666666666666667,nan,0,8242.134,0
0,428,target,"[(1029, 818)]",[],[1],[0.5],horizontal,"(890.0, 262.0)",0.9666666666666667,0.472,1,8247.282,1
0,429,target,"[(1073, 840)]",[],[1],[],horizontal,"(390.0, 262.0)",,"('cti', 1.141)",0,8252.584,0
0,430,target,"[(1068, 833)]",[],[1],[0.7],horizontal,"(890.0, 762.0)",0.6166666666666667,0.657,1,8256.941,1
0,431,target,"[(1071, 842)]",[],[1],[0.85],vertical,"(390.0, 262.0)",1.4833333333333334,nan,0,8261.369,0
0,432,target,"[(1063, 819)]",[],[1],[0.5166666666666666],vertical,"(890.0, 262.0)",0.5666666666666667,0.473,1,8266.934,1
0,433,target,"[(1065, 817)]",[],[1],[0.11666666666666667],horizontal,"(390.0, 262.0)",1.6333333333333333,0.083,0,8270.984,0
0,434,target,"[(1019, 840)]",[],[1],[],horizontal,"(890.0, 262.0)",,"('cti', 1.289)",0,8275.984,0
0,435,target,"[(1029, 838)]",[],[1],[0.85],vertical,"(890.0, 762.0)",0.6833333333333333,nan,0,8280.471,0
0,436,target,"[(1052, 851)]",[],[1],[0.45],horizontal,"(890.0, 762.0)",1.1,0.412,1,8285.06,1
0,437,target,"[(1068, 829)]",[],[1],[0.25],horizontal,"(390.0, 262.0)",1.1833333333333333,0.219,1,8290.517,1
0,438,target,"[(1072, 857)]",[],[1],[0.85],horizontal,"(390.0, 762.0)",0.9333333333333333,nan,0,8295.67,0
0,439,catch,"[(1004, 890), (1022, 858)]",[],"[0, 1]",[],horizontal,"(390.0, 762.0)",1.6,nan,1,8300.551,1
0,440,target,"[(1032, 834)]",[],[1],[0.85],vertical,"(890.0, 262.0)",1.5833333333333333,nan,0,8309.969,0
0,441,target,"[(1034, 835)]",[],[1],[0.5333333333333333],vertical,"(890.0, 262.0)",1.4,0.49,1,8315.44,1
0,442,catch,"[(1068, 812)]",[],[1],[],vertical,"(390.0, 762.0)",1.0,nan,1,8320.968,1
0,443,target,"[(1049, 809)]",[],[1],[0.45],vertical,"(890.0, 262.0)",1.5,0.416,1,8325.814,1
0,444,target,"[(1072, 839)]",[],[1],[0.4166666666666667],horizontal,"(390.0, 762.0)",1.1166666666666667,0.38,1,8331.052,2
0,445,target,"[(1065, 819)]",[],[1],[0.3833333333333333],vertical,"(890.0, 262.0)",1.5333333333333332,0.35,1,8336.703,1
0,446,target,"[(1041, 860)]",[],[1],[],vertical,"(390.0, 762.0)",,"('cti', 1.305)",0,8341.885,0
0,447,target,"[(1037, 823)]",[],[1],[0.16666666666666666],vertical,"(890.0, 262.0)",1.5,0.135,1,8350.502,1
0,448,target,"[(1063, 833)]",[],[1],[],vertical,"(890.0, 262.0)",,"('cti', 1.554)",0,8355.603,0
0,449,catch,"[(1046, 825)]",[],[1],[],horizontal,"(890.0, 762.0)",1.55,nan,1,8360.0,1
0,450,target,"[(1066, 815)]",[],[1],[0.43333333333333335],vertical,"(890.0, 262.0)",1.5166666666666666,0.393,1,8365.075,1
0,451,target,"[(1061, 806)]",[],[1],[0.5166666666666666],horizontal,"(390.0, 762.0)",1.2166666666666666,0.475,1,8370.246,1
0,452,catch,"[(1067, 827)]",[],[1],[],vertical,"(890.0, 262.0)",1.0666666666666667,nan,1,8375.003,2
0,453,target,"[(1068, 827)]",[],[1],[0.11666666666666667],vertical,"(890.0, 262.0)",1.4333333333333333,0.085,0,8379.82,0
0,454,target,"[(1066, 831)]",[],[1],[0.65],vertical,"(890.0, 762.0)",0.95,0.607,1,8384.588,1
0,455,target,"[(1068, 828)]",[],[1],[0.48333333333333334],horizontal,"(890.0, 262.0)",1.2166666666666666,0.443,1,8389.519,1
0,456,target,"[(1068, 826)]",[],[1],[0.5666666666666667],vertical,"(390.0, 262.0)",0.5,0.524,1,8394.57,1
0,457,target,"[(1054, 813)]",[],[1],[0.5333333333333333],horizontal,"(890.0, 262.0)",0.8333333333333334,0.491,1,8399.065,2
0,458,target,"[(1065, 792)]",[],[1],[0.26666666666666666],horizontal,"(390.0, 262.0)",1.3333333333333333,0.236,1,8403.786,1
0,459,target,"[(1061, 818)]",[],[1],[0.55],horizontal,"(890.0, 262.0)",0.8333333333333334,0.505,1,8408.236,1
0,460,target,"[(1075, 819)]",[],[1],[0.5333333333333333],vertical,"(390.0, 262.0)",1.0833333333333333,0.495,1,8413.221,1
0,461,target,"[(1025, 816)]",[],[1],[0.2833333333333333],horizontal,"(890.0, 262.0)",1.5833333333333333,0.251,1,8418.423,3
0,462,target,"[(1077, 820)]",[],[1],[0.15],vertical,"(390.0, 262.0)",1.6,0.118,1,8424.509,1
0,463,target,"[(1077, 819)]",[],[1],[0.6],horizontal,"(890.0, 262.0)",0.7,0.56,1,8429.352,1
0,464,target,"[(1076, 818)]",[],[1],[0.5166666666666666],horizontal,"(390.0, 262.0)",0.7666666666666666,0.479,1,8434.07,1
0,465,target,"[(1069, 822)]",[],[1],[0.65],horizontal,"(390.0, 762.0)",0.85,0.61,1,8438.907,2
0,466,target,"[(1057, 808)]",[],[1],[0.4],horizontal,"(390.0, 762.0)",1.1,0.365,1,8444.273,1
0,467,target,"[(1065, 815)]",[],[1],[0.1],horizontal,"(390.0, 262.0)",1.4666666666666666,0.067,0,8448.973,0
0,468,target,"[(1046, 832)]",[],[1],[0.6166666666666667],vertical,"(890.0, 762.0)",0.7666666666666666,0.571,1,8453.558,1
0,469,target,"[(1062, 823)]",[],[1],[0.13333333333333333],horizontal,"(890.0, 262.0)",1.4666666666666666,0.102,1,8458.602,1
0,470,target,"[(1032, 828)]",[],[1],[0.5333333333333333],horizontal,"(390.0, 262.0)",0.9666666666666667,0.493,1,8463.61,1
0,471,catch,"[(1052, 863)]",[],[1],[],horizontal,"(390.0, 762.0)",1.1666666666666667,nan,1,8468.44,2
0,472,target,"[(1068, 825)]",[],[1],[0.11666666666666667],vertical,"(390.0, 262.0)",1.65,0.083,0,8474.57,0
0,473,target,"[(1033, 829)]",[],[1],[0.3833333333333333],vertical,"(890.0, 762.0)",1.35,0.341,1,8479.451,1
0,474,target,"[(1059, 811)]",[],[1],[],vertical,"(890.0, 762.0)",,"('cti', 1.471)",0,8484.41,0
0,475,target,"[(1061, 832)]",[],[1],[0.85],vertical,"(390.0, 762.0)",0.5666666666666667,nan,0,8488.747,0
0,476,target,"[(1063, 831)]",[],[1],[0.5166666666666666],vertical,"(390.0, 762.0)",1.35,0.476,1,8493.12,1
0,477,target,"[(1049, 800)]",[],[1],[0.3833333333333333],horizontal,"(890.0, 762.0)",1.3166666666666667,0.347,1,8498.036,1
0,478,target,"[(1037, 807)]",[],[1],[0.18333333333333332],horizontal,"(890.0, 262.0)",1.3833333333333333,0.151,1,8502.673,1
0,479,target,"[(1036, 810)]",[],[1],[],vertical,"(890.0, 262.0)",,"('cti', 1.417)",0,8507.502,0
0,480,target,"[(1050, 833)]",[],[1],[0.5166666666666666],horizontal,"(890.0, 762.0)",1.3333333333333333,0.474,1,8512.07,1
0,481,catch,"[(1073, 812)]",[],[1],[],vertical,"(890.0, 762.0)",1.2666666666666666,nan,1,8516.798,1
0,482,target,"[(1061, 820)]",[],[1],[],vertical,"(390.0, 762.0)",,"('cti', 1.537)",0,8521.403,0
0,483,target,"[(1049, 805)]",[],[1],[0.6],vertical,"(890.0, 762.0)",0.7,0.555,1,8526.503,1
0,484,target,"[(1073, 821)]",[],[1],[0.85],horizontal,"(890.0, 762.0)",0.8333333333333334,nan,0,8531.054,0
0,485,target,"[(1055, 831)]",[],[1],[0.2833333333333333],horizontal,"(890.0, 762.0)",1.3666666666666667,0.247,1,8535.521,1
0,486,target,"[(1062, 817)]",[],[1],[0.85],horizontal,"(390.0, 262.0)",0.5333333333333333,nan,0,8540.27,0
0,487,target,"[(1024, 832)]",[],[1],[0.6166666666666667],horizontal,"(390.0, 762.0)",0.6166666666666667,0.576,1,8544.685,1
0,488,target,"[(1061, 812)]",[],[1],[0.2],horizontal,"(890.0, 262.0)",1.5333333333333332,0.169,1,8549.437,1
0,489,target,"[(1064, 824)]",[],[1],[0.48333333333333334],horizontal,"(890.0, 262.0)",1.1666666666666667,0.445,1,8554.52,1
0,490,target,"[(1072, 810)]",[],[1],[0.4],horizontal,"(390.0, 762.0)",1.1666666666666667,0.36,1,8559.357,2
0,491,target,"[(1055, 824)]",[],[1],[0.3],vertical,"(390.0, 262.0)",1.45,0.268,1,8564.621,1
0,492,target,"[(1065, 819)]",[],[1],[0.05],vertical,"(890.0, 762.0)",1.6666666666666667,0.018,0,8569.453,0
0,493,target,"[(1051, 822)]",[],[1],[0.6],horizontal,"(890.0, 762.0)",0.6166666666666667,0.556,1,8574.068,1
0,494,target,"[(1068, 822)]",[],[1],[0.45],horizontal,"(390.0, 762.0)",1.1833333333333333,0.409,1,8578.72,1
0,495,catch,"[(1061, 808)]",[],[1],[],vertical,"(390.0, 262.0)",1.1166666666666667,nan,1,8583.602,1
0,496,target,"[(1066, 838)]",[],[1],[0.3833333333333333],horizontal,"(390.0, 262.0)",0.7,0.345,1,8588.486,2
0,497,target,"[(1034, 828)]",[],[1],[0.15],vertical,"(890.0, 262.0)",1.5666666666666667,0.118,1,8593.236,1
0,498,target,"[(1066, 816)]",[],[1],[0.6333333333333333],horizontal,"(390.0, 762.0)",0.7833333333333333,0.593,1,8598.769,1
0,499,target,"[(1054, 808)]",[],[1],[0.8333333333333334],vertical,"(390.0, 762.0)",0.6833333333333333,0.788,1,8603.47,1
0,500,target,"[(1045, 812)]",[],[1],[0.48333333333333334],vertical,"(890.0, 262.0)",1.0333333333333332,0.443,1,8608.214,3
0,501,target,"[(1053, 817)]",[],[1],[],vertical,"(890.0, 262.0)",,"('cti', 1.23)",0,8614.061,0
0,502,target,"[(1053, 826)]",[],[1],[0.5166666666666666],vertical,"(390.0, 262.0)",0.6833333333333333,0.471,1,8618.778,1
0,503,target,"[(1055, 834)]",[],[1],[0.5],vertical,"(390.0, 762.0)",1.3333333333333333,0.46,1,8623.686,1
0,504,target,"[(1065, 820)]",[],[1],[],horizontal,"(390.0, 762.0)",,"('cti', 1.492)",0,8628.754,0
0,505,target,"[(1037, 828)]",[],[1],[0.23333333333333334],horizontal,"(890.0, 762.0)",1.65,0.2,1,8633.321,1
0,506,target,"[(1074, 830)]",[],[1],[],horizontal,"(890.0, 762.0)",,"('cti', 1.533)",0,8638.38,0
0,507,target,"[(1066, 801)]",[],[1],[0.6333333333333333],horizontal,"(890.0, 262.0)",0.7666666666666666,0.599,1,8642.704,1
0,508,target,"[(1076, 825)]",[],[1],[0.5166666666666666],vertical,"(390.0, 262.0)",0.9833333333333333,0.485,1,8647.403,1
0,509,target,"[(1058, 809)]",[],[1],[],horizontal,"(890.0, 762.0)",,"('cti', 1.422)",0,8652.069,0
0,510,target,"[(1053, 823)]",[],[1],[],vertical,"(390.0, 262.0)",,"('cti', 1.59)",0,8656.437,0
0,511,target,"[(1039, 811)]",[],[1],[0.8166666666666667],horizontal,"(390.0, 262.0)",0.9833333333333333,0.768,1,8661.02,1
0,512,target,"[(1057, 808)]",[],[1],[0.5333333333333333],horizontal,"(390.0, 762.0)",1.3166666666666667,0.487,1,8666.32,1
0,513,target,"[(1081, 805)]",[],[1],[0.8],horizontal,"(390.0, 262.0)",0.95,0.76,1,8671.323,1
0,514,target,"[(1066, 821)]",[],[1],[0.6166666666666667],vertical,"(890.0, 262.0)",0.9,0.583,1,8676.343,2
0,515,catch,"[(1053, 813)]",[],[1],[],vertical,"(890.0, 762.0)",1.2833333333333332,nan,1,8681.284,1
0,516,target,"[(1025, 837)]",[],[1],[0.31666666666666665],vertical,"(890.0, 762.0)",1.3666666666666667,0.281,1,8685.638,1
0,517,target,"[(1055, 818)]",[],[1],[0.1],vertical,"(390.0, 762.0)",1.5,0.068,0,8691.055,0
0,518,target,"[(1053, 824)]",[],[1],[0.55],horizontal,"(890.0, 262.0)",0.9166666666666666,0.511,1,8695.683,1
0,519,target,"[(1065, 813)]",[],[1],[0.13333333333333333],horizontal,"(890.0, 762.0)",1.3833333333333333,0.102,1,8700.788,1
0,520,target,"[(1050, 837)]",[],[1],[0.4166666666666667],horizontal,"(890.0, 762.0)",1.5833333333333333,0.372,1,8705.621,1
0,521,target,"[(1057, 818)]",[],[1],[0.6833333333333333],horizontal,"(390.0, 762.0)",0.5333333333333333,0.638,1,8711.304,2
0,522,target,"[(1057, 791)]",[],[1],[0.3],horizontal,"(390.0, 262.0)",1.35,0.265,1,8716.243,1
0,523,catch,"[(1062, 829)]",[],[1],[],vertical,"(390.0, 262.0)",1.2333333333333334,nan,1,8721.12,1
0,524,target,"[(1065, 816)]",[],[1],[0.5],horizontal,"(390.0, 262.0)",0.8333333333333334,0.465,1,8725.948,1
0,525,target,"[(1064, 808)]",[],[1],[0.5333333333333333],horizontal,"(390.0, 262.0)",0.8666666666666667,0.493,1,8730.9,3
0,526,target,"[(358, 239), (290, 703), (317, 708), (641, 828), (295, 867), (675, 904), (474, 459), (848, 469), (250, 751), (681, 472), (738, 933), (858, 352), (411, 350), (494, 674), (702, 398), (299, 521), (443, 392), (478, 261), (313, 726), (238, 852), (409, 363), (645, 845), (288, 790), (287, 564), (521, 550), (687, 555), (293, 556), (638, 478), (644, 617), (307, 516), (290, 483), (683, 623), (309, 670), (659, 718), (277, 655), (262, 565), (837, 765), (159, 579), (313, 602), (246, 306), (309, 823), (201, 755), (171, 782), (396, 459), (215, 480), (1022, 502), (187, 648), (360, 689), (147, 659), (297, 349), (512, 344), (353, 790), (711, 335), (797, 363), (353, 374), (718, 516), (837, 739), (711, 751), (227, 356), (368, 708), (423, 721), (284, 354), (1041, 598), (380, 619), (222, 622), (231, 600), (502, 732), (405, 355), (624, 517), (648, 536), (990, 357), (439, 464), (670, 411), (624, 526), (435, 373), (690, 636), (636, 722), (656, 876), (640, 650), (278, 737), (456, 765), (589, 765), (412, 623), (439, 694), (620, 655), (612, 680), (427, 675), (653, 617), (443, 617), (341, 627), (533, 794), (648, 809), (408, 732), (396, 807), (530, 871), (876, 871), (451, 785), (1022, 886)]",[],"[0, 0, 0, 0, 0, 0, 0, 0, 0, 0, 0, 0, 0, 0, 0, 0, 0, 0, 0, 0, 0, 0, 0, 0, 0, 0, 0, 0, 0, 0, 0, 0, 0, 0, 0, 0, 0, 0, 0, 0, 0, 0, 0, 0, 0, 0, 0, 0, 0, 0, 0, 0, 0, 0, 0, 0, 0, 0, 0, 0, 0, 0, 0, 0, 0, 0, 0, 0, 0, 0, 0, 0, 0, 0, 0, 0, 0, 0, 0, 0, 0, 0, 0, 0, 0, 0, 0, 0, 0, 0, 0, 0, 0, 0, 0, 0, 0, 1]",[0.85],horizontal,"(390.0, 262.0)",0.6833333333333333,nan,0,8736.22,0
0,527,target,"[(1053, 867)]",[],[1],[0.85],horizontal,"(390.0, 762.0)",1.2666666666666666,nan,0,13265.904,0
0,528,catch,"[(1049, 836)]",[],[1],[],vertical,"(390.0, 762.0)",,"('cti', 1.289),nan",0,13296.964,0
0,529,target,"[(1054, 844)]",[],[1],[0.85],vertical,"(890.0, 262.0)",1.4833333333333334,nan,0,13301.58,0
0,530,target,"[(1029, 834)]",[],[1],[0.85],horizontal,"(890.0, 262.0)",1.0333333333333332,nan,0,13306.93,0
0,531,target,"[(1023, 863)]",[],[1],[0.85],vertical,"(890.0, 262.0)",0.95,nan,0,13312.739,0
0,532,target,"[(1044, 847)]",[],[1],[0.6666666666666666],vertical,"(390.0, 262.0)",1.3166666666666667,0.622,1,13321.467,1
0,533,target,"[(1049, 863)]",[],[1],[0.85],horizontal,"(390.0, 762.0)",1.2333333333333334,nan,0,13333.374,0
0,534,catch,"[(1001, 867), (1013, 876)]",[],"[0, 1]",[],horizontal,"(390.0, 262.0)",1.4833333333333334,nan,1,13338.964,1
0,535,target,"[(1069, 842)]",[],[1],[0.4166666666666667],horizontal,"(890.0, 262.0)",1.3333333333333333,0.378,1,13345.005,1
0,536,target,"[(1072, 844)]",[],[1],[0.6],horizontal,"(390.0, 762.0)",0.8,0.565,1,13350.129,1
0,537,target,"[(1068, 831)]",[],[1],[0.5833333333333334],vertical,"(390.0, 262.0)",1.0,0.545,1,13354.497,2
0,538,target,"[(1052, 829)]",[],[1],[0.5166666666666666],vertical,"(390.0, 262.0)",1.1166666666666667,0.472,1,13359.71,1
0,539,target,"[(1069, 838)]",[],[1],[0.15],horizontal,"(890.0, 762.0)",1.3166666666666667,0.116,1,13364.515,1
0,540,target,"[(1081, 819)]",[],[1],[0.6833333333333333],horizontal,"(390.0, 762.0)",0.5833333333333334,0.64,1,13369.065,1
0,541,target,"[(1074, 817)]",[],[1],[0.55],vertical,"(890.0, 262.0)",0.5,0.505,1,13373.467,3
0,542,catch,"[(1068, 835)]",[],[1],[],horizontal,"(390.0, 762.0)",,"('cti', 1.065),nan",0,13378.499,0
0,543,target,"[(1038, 852)]",[],[1],[0.4166666666666667],vertical,"(890.0, 262.0)",1.55,0.375,1,13382.782,1
0,544,target,"[(1077, 839)]",[],[1],[0.55],vertical,"(390.0, 262.0)",0.7,0.507,1,13387.781,1
0,545,target,"[(1080, 825)]",[],[1],[],horizontal,"(890.0, 262.0)",,"('fix', 0.214)",0,13392.311,0
0,546,target,"[(1032, 852)]",[],[1],[0.5833333333333334],horizontal,"(390.0, 762.0)",0.65,0.542,1,13394.148,1
0,547,target,"[(1061, 822)]",[],[1],[],horizontal,"(890.0, 762.0)",,"('cti', 0.554)",0,13398.948,0
0,548,target,"[(1043, 838)]",[],[1],[0.05],horizontal,"(890.0, 762.0)",1.5833333333333333,0.019,0,13402.832,0
0,549,target,"[(1036, 831)]",[],[1],[0.4666666666666667],horizontal,"(890.0, 262.0)",0.8,0.424,1,13407.32,1
0,550,target,"[(1068, 825)]",[],[1],[0.35],horizontal,"(390.0, 262.0)",0.8333333333333334,0.317,1,13412.064,1
0,551,target,"[(1068, 819)]",[],[1],[],vertical,"(890.0, 262.0)",,"('cti', 1.451)",0,13416.786,0
0,552,target,"[(1047, 839)]",[],[1],[0.2833333333333333],horizontal,"(390.0, 262.0)",1.4166666666666667,0.246,1,13420.983,1
0,553,target,"[(1052, 816)]",[],[1],[0.85],horizontal,"(390.0, 762.0)",0.5,nan,0,13425.897,0
0,554,target,"[(1053, 863)]",[],[1],[0.3333333333333333],horizontal,"(390.0, 262.0)",1.05,0.295,1,13429.964,1
0,555,target,"[(1069, 820)]",[],[1],[0.6166666666666667],vertical,"(890.0, 262.0)",0.8666666666666667,0.578,1,13434.949,1
0,556,target,"[(1069, 821)]",[],[1],[],vertical,"(890.0, 262.0)",,"('cti', 1.448)",0,13439.565,0
0,557,target,"[(1029, 847)]",[],[1],[0.05],horizontal,"(390.0, 762.0)",1.0666666666666667,0.018,0,13444.131,0
0,558,catch,"[(1030, 855)]",[],[1],[],horizontal,"(390.0, 262.0)",1.1166666666666667,nan,1,13456.791,1
0,559,target,"[(1061, 820)]",[],[1],[],vertical,"(390.0, 762.0)",,"('cti', 1.39)",0,13461.278,0
0,560,target,"[(1030, 842)]",[],[1],[],horizontal,"(390.0, 762.0)",,"('cti', 0.443)",0,13466.068,0
0,561,target,"[(1028, 847)]",[],[1],[0.6166666666666667],horizontal,"(390.0, 762.0)",0.8333333333333334,0.573,1,13471.265,1
0,562,target,"[(1069, 833)]",[],[1],[0.5833333333333334],vertical,"(890.0, 762.0)",0.9666666666666667,0.54,1,13476.315,1
0,563,target,"[(1054, 831)]",[],[1],[],horizontal,"(390.0, 262.0)",,"('cti', 1.278)",0,13481.532,0
0,564,target,"[(1030, 866)]",[],[1],[0.5],vertical,"(890.0, 762.0)",1.1166666666666667,0.459,1,13485.866,1
0,565,target,"[(1068, 834)]",[],[1],[0.4666666666666667],horizontal,"(890.0, 762.0)",0.6833333333333333,0.43,1,13498.499,1
0,566,target,"[(1053, 847)]",[],[1],[0.5],horizontal,"(890.0, 262.0)",0.5833333333333334,0.461,1,13503.164,1
0,567,target,"[(1066, 828)]",[],[1],[0.7333333333333333],horizontal,"(390.0, 762.0)",0.6,0.692,1,13507.699,2
0,568,catch,"[(1053, 819)]",[],[1],[],vertical,"(390.0, 262.0)",1.5,"('cti', 1.528),nan",0,13513.082,0
0,569,target,"[(1030, 852)]",[],[1],[0.5833333333333334],horizontal,"(390.0, 762.0)",0.5833333333333334,0.543,1,13517.665,1
0,570,target,"[(1066, 826)]",[],[1],[],vertical,"(390.0, 262.0)",,"('cti', 1.456)",0,13522.116,0
0,571,target,"[(1029, 858)]",[],[1],[0.5833333333333334],vertical,"(390.0, 762.0)",0.5,0.538,1,13526.555,1
0,572,target,"[(1067, 830)]",[],[1],[0.5833333333333334],horizontal,"(390.0, 262.0)",0.6,0.537,1,13533.922,1
0,573,target,"[(1053, 844)]",[],[1],[0.48333333333333334],horizontal,"(890.0, 262.0)",1.4,0.444,1,13538.182,1
0,574,target,"[(1052, 824)]",[],[1],[0.16666666666666666],horizontal,"(390.0, 262.0)",1.4833333333333334,0.134,1,13543.199,2
0,575,target,"[(1088, 813)]",[],[1],[0.7833333333333333],horizontal,"(390.0, 262.0)",0.7833333333333333,0.737,1,13548.253,1
0,576,target,"[(1054, 810)]",[],[1],[0.6166666666666667],vertical,"(390.0, 262.0)",1.0333333333333332,0.575,1,13552.567,1
0,577,target,"[(1068, 825)]",[],[1],[0.65],vertical,"(390.0, 262.0)",0.9,0.601,1,13557.553,1
0,578,target,"[(1068, 829)]",[],[1],[],horizontal,"(890.0, 262.0)",,"('cti', 1.198)",0,13562.233,0
0,579,target,"[(1022, 847)]",[],[1],[0.5666666666666667],horizontal,"(890.0, 262.0)",0.5833333333333334,0.522,1,13566.683,1
0,580,target,"[(1018, 891)]",[],[1],[0.7],vertical,"(890.0, 762.0)",0.8833333333333333,0.662,1,13573.566,1
0,581,target,"[(1029, 851)]",[],[1],[0.5],horizontal,"(390.0, 262.0)",0.6333333333333333,0.461,1,13639.832,1
0,582,target,"[(1066, 833)]",[],[1],[],horizontal,"(890.0, 262.0)",,"('cti', 1.278)",0,13643.999,0
0,583,target,"[(1030, 849)]",[],[1],[0.85],horizontal,"(890.0, 262.0)",1.25,nan,0,13648.483,0
0,584,target,"[(1061, 838)]",[],[1],[0.85],horizontal,"(390.0, 762.0)",1.4666666666666666,nan,0,13653.343,0
0,585,target,"[(1033, 847)]",[],[1],[0.18333333333333332],vertical,"(390.0, 762.0)",1.5833333333333333,0.151,1,13658.817,1
0,586,target,"[(1068, 823)]",[],[1],[0.15],vertical,"(390.0, 262.0)",1.6333333333333333,0.119,1,13663.666,1
0,587,target,"[(1053, 828)]",[],[1],[0.55],vertical,"(390.0, 762.0)",1.1,0.515,1,13668.428,1
0,588,target,"[(1053, 817)]",[],[1],[0.43333333333333335],vertical,"(890.0, 262.0)",1.6166666666666667,0.391,1,13673.028,2
0,589,target,"[(1068, 820)]",[],[1],[0.55],vertical,"(890.0, 262.0)",0.6833333333333333,0.509,1,13678.383,1
0,590,target,"[(1077, 832)]",[],[1],[0.6666666666666666],horizontal,"(890.0, 262.0)",0.85,0.618,1,13682.85,1
0,591,target,"[(1071, 812)]",[],[1],[0.5166666666666666],horizontal,"(890.0, 762.0)",0.8166666666666667,0.474,1,13687.617,1
0,592,catch,"[(1068, 807)]",[],[1],[],horizontal,"(890.0, 762.0)",,"('fix', 0.232),nan",0,13692.367,0
0,593,target,"[(1057, 848)]",[],[1],[0.11666666666666667],horizontal,"(390.0, 762.0)",1.5166666666666666,0.084,0,13694.201,0
0,594,target,"[(1068, 831)]",[],[1],[0.48333333333333334],horizontal,"(390.0, 262.0)",1.3333333333333333,0.441,1,13698.906,1
0,595,catch,"[(1061, 816)]",[],[1],[],vertical,"(390.0, 262.0)",1.55,nan,1,13704.084,1
0,596,target,"[(1054, 832)]",[],[1],[0.5333333333333333],vertical,"(890.0, 762.0)",0.7166666666666667,0.492,1,13709.281,1
0,597,target,"[(1057, 832)]",[],[1],[],vertical,"(890.0, 262.0)",,"('cti', 1.039)",0,13714.249,0
0,598,catch,"[(1057, 849)]",[],[1],[],vertical,"(390.0, 262.0)",1.6833333333333333,nan,1,13718.734,1
0,599,target,"[(1047, 814)]",[],[1],[0.5166666666666666],horizontal,"(890.0, 262.0)",0.5,0.471,1,13723.449,1
0,600,target,"[(1068, 832)]",[],[1],[0.45],vertical,"(390.0, 762.0)",0.7333333333333333,0.41,1,13727.549,1
0,601,target,"[(1061, 821)]",[],[1],[0.6333333333333333],vertical,"(890.0, 762.0)",0.8833333333333333,0.584,1,13732.403,2
0,602,target,"[(1072, 822)]",[],[1],[0.7],vertical,"(390.0, 262.0)",0.75,0.653,1,13737.332,1
0,603,catch,"[(1065, 816)]",[],[1],[],vertical,"(390.0, 262.0)",1.0833333333333333,nan,1,13742.284,1
0,604,catch,"[(1065, 820)]",[],[1],[],horizontal,"(890.0, 262.0)",1.6166666666666667,nan,1,13746.849,1
0,605,target,"[(1049, 852)]",[],[1],[0.2],vertical,"(390.0, 262.0)",1.4833333333333334,0.17,1,13751.944,3
0,606,target,"[(1068, 832)]",[],[1],[0.08333333333333333],horizontal,"(890.0, 262.0)",1.4833333333333334,0.051,0,13757.739,0
0,607,target,"[(1032, 847)]",[],[1],[0.4666666666666667],horizontal,"(890.0, 262.0)",1.6,0.426,1,13762.501,1
0,608,catch,"[(1067, 833)]",[],[1],[],horizontal,"(890.0, 262.0)",1.0,nan,1,13767.955,1
0,609,target,"[(1033, 823)]",[],[1],[0.5333333333333333],vertical,"(390.0, 762.0)",0.5333333333333333,0.489,1,13771.929,1
0,610,target,"[(1038, 830)]",[],[1],[],horizontal,"(890.0, 762.0)",,"('cti', 1.305)",0,13775.956,0
0,611,catch,"[(1056, 823)]",[],[1],[],vertical,"(890.0, 762.0)",1.5333333333333332,nan,1,13780.585,1
0,612,target,"[(1033, 842)]",[],[1],[0.5833333333333334],vertical,"(390.0, 262.0)",0.5333333333333333,0.539,1,13785.209,1
0,613,target,"[(1022, 835)]",[],[1],[0.2],vertical,"(390.0, 762.0)",1.1666666666666667,0.163,1,13789.773,1
0,614,target,"[(1066, 822)]",[],[1],[0.6166666666666667],horizontal,"(890.0, 762.0)",0.85,0.567,1,13794.266,2
0,615,target,"[(1066, 829)]",[],[1],[0.4666666666666667],horizontal,"(390.0, 262.0)",0.75,0.426,1,13799.136,1
0,616,target,"[(1042, 821)]",[],[1],[0.55],horizontal,"(890.0, 762.0)",0.5166666666666666,0.507,1,13803.8,1
0,617,target,"[(1041, 828)]",[],[1],[0.43333333333333335],vertical,"(890.0, 262.0)",1.05,0.391,1,13808.527,1
0,618,target,"[(1065, 818)]",[],[1],[0.5833333333333334],vertical,"(390.0, 762.0)",0.5,0.543,1,13813.233,3
0,619,target,"[(1068, 830)]",[],[1],[0.85],vertical,"(390.0, 262.0)",1.1166666666666667,nan,0,13818.601,0
0,620,target,"[(1023, 842)]",[],[1],[0.85],vertical,"(390.0, 262.0)",1.15,nan,0,13823.583,0
0,621,target,"[(1045, 847)]",[],[1],[0.85],vertical,"(890.0, 262.0)",1.5166666666666666,nan,0,13830.445,0
0,622,target,"[(1031, 854)]",[],[1],[0.85],horizontal,"(390.0, 262.0)",0.7166666666666667,nan,0,13836.651,0
0,623,target,"[(1024, 851)]",[],[1],[0.85],horizontal,"(390.0, 262.0)",1.2833333333333332,nan,0,13843.518,0
0,624,catch,"[(1020, 846)]",[],[1],[],horizontal,"(890.0, 762.0)",1.6666666666666667,nan,1,13854.952,1
0,625,target,"[(1068, 853)]",[],[1],[0.45],vertical,"(890.0, 262.0)",1.3,0.416,1,13860.234,1
0,626,target,"[(1068, 832)]",[],[1],[],vertical,"(890.0, 262.0)",,"('cti', 1.189)",0,13865.2,0
0,627,target,"[(1024, 846)]",[],[1],[0.5166666666666666],vertical,"(890.0, 762.0)",0.85,0.472,1,13869.784,1
0,628,target,"[(1066, 826)]",[],[1],[0.31666666666666665],horizontal,"(390.0, 262.0)",1.5166666666666666,0.281,1,13874.534,1
0,629,target,"[(1054, 817)]",[],[1],[0.5333333333333333],vertical,"(890.0, 762.0)",0.6333333333333333,0.487,1,13879.647,1
0,630,target,"[(1068, 832)]",[],[1],[0.85],vertical,"(390.0, 262.0)",0.95,nan,0,13883.833,0
0,631,target,"[(1055, 732), (1032, 845)]",[],"[0, 1]",[0.6],horizontal,"(890.0, 262.0)",0.5666666666666667,0.557,1,13889.001,1
0,632,target,"[(1060, 828)]",[],[1],[0.6833333333333333],vertical,"(890.0, 262.0)",1.25,0.646,1,13897.78,1
0,633,target,"[(1065, 820)]",[],[1],[0.6333333333333333],horizontal,"(390.0, 262.0)",1.6166666666666667,0.589,1,13902.933,1
0,634,target,"[(1067, 842)]",[],[1],[0.5333333333333333],vertical,"(890.0, 262.0)",0.7333333333333333,0.489,1,13908.195,2
0,635,target,"[(1072, 833)]",[],[1],[0.65],vertical,"(390.0, 762.0)",0.8166666666666667,0.601,1,13912.799,1
0,636,target,"[(1036, 852)]",[],[1],[0.5666666666666667],vertical,"(390.0, 762.0)",1.0166666666666666,0.527,1,13917.447,1
0,637,catch,"[(1057, 817)]",[],[1],[],horizontal,"(890.0, 262.0)",1.15,nan,1,13922.383,1
0,638,target,"[(1037, 833)]",[],[1],[0.3833333333333333],horizontal,"(390.0, 262.0)",1.3666666666666667,0.341,1,13927.049,3
0,639,target,"[(1065, 833)]",[],[1],[0.55],vertical,"(890.0, 262.0)",0.8666666666666667,0.508,1,13933.135,1
0,640,target,"[(1074, 833)]",[],[1],[0.5],horizontal,"(390.0, 762.0)",0.6333333333333333,0.46,1,13937.933,1
0,641,target,"[(1067, 823)]",[],[1],[0.8166666666666667],horizontal,"(890.0, 262.0)",1.0166666666666666,0.771,1,13942.7,1
0,642,catch,"[(1061, 829)]",[],[1],[],vertical,"(390.0, 262.0)",1.1166666666666667,nan,1,13947.567,2
0,643,target,"[(1040, 832)]",[],[1],[0.7166666666666667],vertical,"(890.0, 762.0)",0.7166666666666667,0.672,1,13952.609,1
0,644,target,"[(1037, 809)]",[],[1],[0.7333333333333333],vertical,"(390.0, 762.0)",0.7166666666666667,0.685,1,13957.302,1
0,645,target,"[(1061, 816)]",[],[1],[0.3333333333333333],horizontal,"(390.0, 762.0)",1.05,0.293,1,13961.818,1
0,646,target,"[(1042, 833)]",[],[1],[0.65],horizontal,"(890.0, 762.0)",1.1,0.61,1,13966.725,3
0,647,target,"[(1034, 831)]",[],[1],[0.5],vertical,"(890.0, 762.0)",0.95,0.46,1,13972.268,1
0,648,target,"[(1071, 836)]",[],[1],[0.6333333333333333],vertical,"(390.0, 762.0)",0.6,0.59,1,13977.434,1
0,649,target,"[(1049, 816)]",[],[1],[0.7166666666666667],vertical,"(890.0, 262.0)",0.8,0.67,1,13981.834,1
0,650,catch,"[(1071, 842)]",[],[1],[],vertical,"(390.0, 262.0)",1.3666666666666667,nan,1,13986.54,2
0,651,target,"[(1065, 821)]",[],[1],[0.5333333333333333],horizontal,"(390.0, 762.0)",0.8833333333333333,0.497,1,13991.492,1
0,652,target,"[(1068, 830)]",[],[1],[0.55],vertical,"(890.0, 262.0)",0.5166666666666666,0.507,1,13996.641,1
0,653,target,"[(1053, 823)]",[],[1],[0.11666666666666667],horizontal,"(890.0, 762.0)",1.35,0.083,0,14001.084,0
0,654,catch,"[(1065, 820)]",[],[1],[],vertical,"(890.0, 762.0)",1.1166666666666667,nan,1,14005.52,1
0,655,target,"[(1052, 802)]",[],[1],[0.55],vertical,"(390.0, 762.0)",1.6666666666666667,0.515,1,14009.652,1
0,656,target,"[(1061, 824)]",[],[1],[0.6333333333333333],horizontal,"(390.0, 262.0)",1.0166666666666666,0.595,1,14014.935,1
0,657,target,"[(1068, 824)]",[],[1],[0.5],horizontal,"(390.0, 762.0)",0.75,0.462,1,14019.602,2
0,658,target,"[(1053, 824)]",[],[1],[0.15],vertical,"(390.0, 262.0)",1.55,0.119,1,14024.701,1
0,659,catch,"[(1038, 827)]",[],[1],[],horizontal,"(890.0, 262.0)",1.0166666666666666,nan,1,14029.551,1
0,660,target,"[(1037, 842)]",[],[1],[0.36666666666666664],horizontal,"(390.0, 762.0)",1.1833333333333333,0.332,1,14033.823,1
0,661,target,"[(1058, 840)]",[],[1],[0.6333333333333333],horizontal,"(890.0, 262.0)",0.8833333333333333,0.593,1,14038.761,3
0,662,target,"[(1041, 845)]",[],[1],[0.5166666666666666],horizontal,"(890.0, 762.0)",1.1333333333333333,0.478,1,14044.369,1
0,663,target,"[(1075, 830)]",[],[1],[0.16666666666666666],vertical,"(890.0, 762.0)",1.4,0.133,1,14049.65,1
0,664,target,"[(1064, 818)]",[],[1],[],vertical,"(390.0, 262.0)",,"('cti', 1.244)",0,14054.47,0
0,665,target,"[(1066, 828)]",[],[1],[0.6],horizontal,"(390.0, 762.0)",0.95,0.553,1,14059.135,1
0,666,target,"[(1072, 828)]",[],[1],[0.48333333333333334],vertical,"(890.0, 762.0)",1.0333333333333332,0.447,1,14063.592,1
0,667,target,"[(1054, 827)]",[],[1],[0.6166666666666667],horizontal,"(890.0, 762.0)",0.5166666666666666,0.568,1,14068.524,1
0,668,target,"[(1029, 846)]",[],[1],[0.5],vertical,"(390.0, 762.0)",1.1333333333333333,0.458,1,14073.241,2
0,669,target,"[(1051, 854)]",[],[1],[],horizontal,"(390.0, 762.0)",,"('cti', 1.436)",0,14078.639,0
0,670,target,"[(1036, 849)]",[],[1],[0.5166666666666666],vertical,"(890.0, 762.0)",0.9833333333333333,0.474,1,14084.473,1
0,671,target,"[(1037, 821)]",[],[1],[0.5],vertical,"(890.0, 762.0)",0.9333333333333333,0.459,1,14088.845,1
0,672,target,"[(1052, 827)]",[],[1],[0.15],horizontal,"(390.0, 262.0)",1.4333333333333333,0.119,1,14093.831,1
0,673,target,"[(1037, 825)]",[],[1],[0.5833333333333334],vertical,"(890.0, 762.0)",0.5,0.541,1,14098.519,2
0,674,target,"[(1053, 822)]",[],[1],[],horizontal,"(390.0, 762.0)",,"('cti', 1.535)",0,14103.218,0
0,675,target,"[(1037, 824)]",[],[1],[0.2],vertical,"(890.0, 262.0)",1.45,0.167,1,14107.839,1
0,676,catch,"[(1024, 872)]",[],[1],[],vertical,"(890.0, 762.0)",1.1166666666666667,nan,1,14112.975,1
0,677,target,"[(1029, 856)]",[],[1],[0.23333333333333334],horizontal,"(890.0, 262.0)",1.3333333333333333,0.201,1,14117.869,1
0,678,target,"[(1036, 833)]",[],[1],[],horizontal,"(390.0, 262.0)",,"('cti', 1.325)",0,14124.454,0
0,679,target,"[(1038, 847)]",[],[1],[0.85],vertical,"(390.0, 262.0)",1.6833333333333333,"('cti', 1.676),nan",0,14129.102,0
0,680,target,"[(1055, 824)]",[],[1],[0.48333333333333334],vertical,"(890.0, 762.0)",1.4333333333333333,0.447,1,14135.018,1
0,681,target,"[(1061, 824)]",[],[1],[0.45],horizontal,"(890.0, 762.0)",1.4,0.408,1,14140.139,1
0,682,target,"[(1055, 817)]",[],[1],[0.43333333333333335],horizontal,"(390.0, 262.0)",1.1833333333333333,0.401,1,14145.247,1
0,683,catch,"[(1056, 831)]",[],[1],[],horizontal,"(390.0, 262.0)",1.5333333333333332,nan,1,14149.963,2
0,684,target,"[(1063, 818)]",[],[1],[0.2],vertical,"(890.0, 762.0)",1.2833333333333332,0.168,1,14155.385,1
0,685,target,"[(1070, 822)]",[],[1],[0.3833333333333333],vertical,"(890.0, 262.0)",1.6,0.346,1,14160.352,1
0,686,target,"[(1033, 827)]",[],[1],[0.55],horizontal,"(890.0, 262.0)",0.5166666666666666,0.51,1,14165.386,1
0,687,target,"[(1031, 832)]",[],[1],[0.5],vertical,"(390.0, 262.0)",0.9333333333333333,0.462,1,14169.911,3
0,688,target,"[(1057, 819)]",[],[1],[0.6666666666666666],horizontal,"(890.0, 762.0)",0.5333333333333333,0.624,1,14175.298,1
0,689,target,"[(1071, 803)]",[],[1],[0.5666666666666667],vertical,"(890.0, 262.0)",1.1166666666666667,0.524,1,14179.819,1
0,690,target,"[(1049, 829)]",[],[1],[0.5333333333333333],vertical,"(390.0, 762.0)",0.7,0.498,1,14184.87,1
0,691,target,"[(1069, 815)]",[],[1],[0.25],vertical,"(390.0, 762.0)",1.35,0.218,1,14189.57,2
0,692,catch,"[(1068, 819)]",[],[1],[],horizontal,"(890.0, 762.0)",1.55,nan,1,14194.635,1
0,693,target,"[(1064, 824)]",[],[1],[0.5166666666666666],horizontal,"(890.0, 762.0)",0.85,0.478,1,14199.256,1
0,694,target,"[(1065, 808)]",[],[1],[],horizontal,"(390.0, 762.0)",,"('cti', 1.491)",0,14203.736,0
0,695,target,"[(1041, 827)]",[],[1],[0.23333333333333334],horizontal,"(390.0, 262.0)",1.4,0.199,1,14208.003,1
0,696,target,"[(1074, 825)]",[],[1],[0.5666666666666667],horizontal,"(390.0, 762.0)",0.5666666666666667,0.526,1,14213.152,1
0,697,target,"[(1068, 818)]",[],[1],[0.5],vertical,"(390.0, 262.0)",0.6333333333333333,0.468,1,14217.819,1
0,698,target,"[(1072, 825)]",[],[1],[0.55],horizontal,"(390.0, 262.0)",0.5666666666666667,0.509,1,14222.537,2
0,699,target,"[(1068, 831)]",[],[1],[0.5333333333333333],horizontal,"(390.0, 262.0)",0.6666666666666666,0.494,1,14227.381,1
0,700,catch,"[(1051, 813)]",[],[1],[],vertical,"(390.0, 262.0)",,"('cti', 1.284),nan",0,14231.803,0
0,701,target,"[(1036, 837)]",[],[1],[0.21666666666666667],horizontal,"(390.0, 762.0)",1.4833333333333334,0.183,1,14236.353,1
0,702,target,"[(1069, 812)]",[],[1],[0.85],horizontal,"(390.0, 262.0)",0.55,nan,0,14241.399,0
0,703,target,"[(1032, 836)]",[],[1],[0.5],horizontal,"(890.0, 262.0)",1.15,0.455,1,14246.001,1
0,704,target,"[(1072, 803)]",[],[1],[0.5],horizontal,"(390.0, 762.0)",0.6333333333333333,0.458,1,14250.737,1
0,705,target,"[(1045, 820)]",[],[1],[0.6833333333333333],horizontal,"(890.0, 262.0)",0.6,0.636,1,14255.185,1
0,706,target,"[(1057, 809)]",[],[1],[0.5833333333333334],horizontal,"(390.0, 262.0)",0.8833333333333333,0.548,1,14259.687,2
0,707,target,"[(1029, 824)]",[],[1],[0.5166666666666666],horizontal,"(390.0, 262.0)",0.55,0.474,1,14264.878,1
0,708,target,"[(1069, 818)]",[],[1],[0.48333333333333334],vertical,"(890.0, 262.0)",1.0,0.451,1,14269.436,1
0,709,target,"[(1064, 803)]",[],[1],[0.48333333333333334],horizontal,"(890.0, 262.0)",1.05,0.44,1,14274.237,1
0,710,target,"[(1065, 812)]",[],[1],[0.55],vertical,"(890.0, 762.0)",0.95,0.51,1,14279.269,3
0,711,target,"[(1054, 847)]",[],[1],[0.48333333333333334],horizontal,"(390.0, 762.0)",1.0166666666666666,0.452,1,14284.845,1
0,712,target,"[(1072, 820)]",[],[1],[0.5],horizontal,"(390.0, 262.0)",0.7166666666666667,0.461,1,14289.57,1
0,713,target,"[(1058, 813)]",[],[1],[0.8166666666666667],horizontal,"(890.0, 762.0)",0.8,0.772,1,14293.886,1
0,714,target,"[(1070, 822)]",[],[1],[0.55],vertical,"(390.0, 762.0)",0.6166666666666667,0.505,1,14298.849,2
0,715,target,"[(1072, 813)]",[],[1],[0.3833333333333333],horizontal,"(890.0, 262.0)",1.4666666666666666,0.349,1,14304.146,1
0,716,catch,"[(1075, 815)]",[],[1],[],horizontal,"(390.0, 762.0)",1.0166666666666666,nan,1,14309.153,1
0,717,catch,"[(1037, 809)]",[],[1],[],horizontal,"(890.0, 262.0)",1.1166666666666667,nan,1,14313.819,1
0,718,target,"[(1065, 819)]",[],[1],[0.5666666666666667],horizontal,"(890.0, 762.0)",0.8833333333333333,0.522,1,14318.519,3
0,719,target,"[(1073, 828)]",[],[1],[0.85],vertical,"(390.0, 262.0)",0.6666666666666666,nan,0,14324.486,0
0,720,catch,"[(1045, 844)]",[],[1],[],horizontal,"(890.0, 262.0)",1.4666666666666666,nan,1,14328.886,1
0,721,target,"[(1064, 808)]",[],[1],[0.5166666666666666],vertical,"(890.0, 262.0)",0.6833333333333333,0.475,1,14333.514,1
0,722,target,"[(1074, 812)]",[],[1],[0.5666666666666667],horizontal,"(890.0, 762.0)",1.0833333333333333,0.527,1,14338.42,1
0,723,target,"[(1010, 837)]",[],[1],[0.18333333333333332],vertical,"(390.0, 762.0)",1.0666666666666667,0.151,1,14343.171,2
0,724,target,"[(1038, 823)]",[],[1],[0.23333333333333334],vertical,"(390.0, 262.0)",1.4833333333333334,0.199,1,14348.137,1
0,725,target,"[(1044, 810)]",[],[1],[],vertical,"(890.0, 262.0)",,"('cti', 1.561)",0,14353.336,0
0,726,target,"[(1063, 832)]",[],[1],[],horizontal,"(390.0, 762.0)",,"('cti', 1.506)",0,14357.753,0
0,727,target,"[(1033, 849)]",[],[1],[0.5666666666666667],horizontal,"(890.0, 762.0)",0.7666666666666666,0.525,1,14362.559,1
0,728,target,"[(1065, 821)]",[],[1],[0.5666666666666667],horizontal,"(390.0, 762.0)",0.9333333333333333,0.528,1,14367.037,1
0,729,target,"[(1061, 813)]",[],[1],[0.35],horizontal,"(890.0, 262.0)",0.8666666666666667,0.316,1,14372.037,1
0,730,target,"[(1051, 828)]",[],[1],[0.4],vertical,"(390.0, 262.0)",1.3333333333333333,0.363,1,14377.003,2
0,731,target,"[(1038, 818)]",[],[1],[0.5833333333333334],horizontal,"(890.0, 762.0)",0.6,0.541,1,14382.254,1
0,732,target,"[(1064, 820)]",[],[1],[0.55],vertical,"(890.0, 262.0)",1.1166666666666667,0.509,1,14386.97,1
0,733,target,"[(1068, 821)]",[],[1],[0.5166666666666666],vertical,"(890.0, 762.0)",0.7833333333333333,0.476,1,14392.353,1
0,734,target,"[(1033, 812)]",[],[1],[],horizontal,"(390.0, 762.0)",,"('cti', 1.482)",0,14396.77,0
0,735,catch,"[(1057, 822)]",[],[1],[],vertical,"(390.0, 762.0)",1.1666666666666667,nan,1,14401.336,1
0,736,catch,"[(1040, 816)]",[],[1],[],vertical,"(890.0, 262.0)",1.3,nan,1,14405.779,1
0,737,target,"[(1068, 822)]",[],[1],[0.45],horizontal,"(390.0, 762.0)",1.0833333333333333,0.414,1,14410.404,1
0,738,target,"[(1036, 855)]",[],[1],[0.55],vertical,"(390.0, 262.0)",0.95,0.511,1,14415.473,2
0,739,catch,"[(1080, 828)]",[],[1],[],horizontal,"(890.0, 262.0)",1.0666666666666667,nan,1,14421.638,1
0,740,target,"[(1054, 818)]",[],[1],[0.4666666666666667],vertical,"(890.0, 762.0)",1.1,0.434,1,14426.47,1
0,741,target,"[(1061, 821)]",[],[1],[0.08333333333333333],horizontal,"(390.0, 262.0)",1.4333333333333333,0.051,0,14431.652,0
0,742,target,"[(1043, 820)]",[],[1],[],horizontal,"(890.0, 762.0)",,"('cti', 1.326)",0,14435.938,0
0,743,target,"[(1051, 842)]",[],[1],[0.8333333333333334],vertical,"(890.0, 762.0)",0.8333333333333334,0.79,1,14440.254,1
0,744,target,"[(1014, 840)]",[],[1],[0.55],horizontal,"(890.0, 262.0)",0.85,0.51,1,14446.603,1
0,745,target,"[(1044, 833)]",[],[1],[0.5],vertical,"(890.0, 762.0)",0.9166666666666666,0.46,1,14451.357,1
0,746,target,"[(1034, 881)]",[],[1],[0.25],horizontal,"(390.0, 762.0)",1.3833333333333333,0.217,1,14456.179,2
0,747,target,"[(1041, 846)]",[],[1],[0.2833333333333333],horizontal,"(890.0, 762.0)",1.2833333333333332,0.254,1,14657.19,1
0,748,target,"[(1045, 842)]",[],[1],[0.5333333333333333],horizontal,"(890.0, 762.0)",0.7333333333333333,0.491,1,14661.689,1
0,749,catch,"[(1063, 846)]",[],[1],[0.03333333333333333],horizontal,"(390.0, 262.0)",1.45,"0.019,nan",0,14666.724,0
0,750,target,"[(1032, 861)]",[],[1],[0.26666666666666666],vertical,"(390.0, 262.0)",1.3666666666666667,0.233,1,14671.456,1
0,751,target,"[(1044, 861)]",[],[1],[0.5166666666666666],horizontal,"(890.0, 262.0)",0.8,0.482,1,14677.105,1
0,752,target,"[(1032, 868)]",[],[1],[0.5],horizontal,"(890.0, 262.0)",0.9333333333333333,0.464,1,14682.489,1
0,753,target,"[(1058, 830)]",[],[1],[0.3],horizontal,"(890.0, 762.0)",1.5,0.265,1,14687.989,2
0,754,target,"[(1065, 820)]",[],[1],[0.5833333333333334],vertical,"(390.0, 762.0)",0.55,0.542,1,14693.405,1
0,755,target,"[(1072, 838)]",[],[1],[0.6],vertical,"(390.0, 262.0)",1.0166666666666666,0.558,1,14697.888,1
0,756,target,"[(1036, 834)]",[],[1],[0.85],vertical,"(390.0, 762.0)",0.85,nan,0,14702.838,0
0,757,target,"[(1061, 825)]",[],[1],[0.5833333333333334],vertical,"(890.0, 762.0)",0.75,0.544,1,14707.256,1
0,758,target,"[(1065, 820)]",[],[1],[0.7166666666666667],vertical,"(890.0, 762.0)",0.9,0.68,1,14711.92,1
0,759,target,"[(1072, 818)]",[],[1],[0.1],horizontal,"(890.0, 762.0)",1.5666666666666667,0.068,0,14716.667,0
0,760,target,"[(1037, 818)]",[],[1],[0.5166666666666666],horizontal,"(890.0, 262.0)",0.5166666666666666,0.484,1,14721.288,1
0,761,target,"[(1074, 836)]",[],[1],[0.85],horizontal,"(890.0, 262.0)",0.5833333333333334,nan,0,14725.616,0
0,762,target,"[(1022, 837)]",[],[1],[0.6166666666666667],vertical,"(890.0, 762.0)",0.7333333333333333,0.579,1,14730.272,1
0,763,target,"[(1065, 822)]",[],[1],"[0.85, 0.85]",vertical,"(890.0, 762.0)",1.05,"0.811,nan",0,14734.822,0
0,764,target,"[(1039, 831)]",[],[1],[0.5],vertical,"(890.0, 262.0)",0.7,0.463,1,14739.656,1
0,765,target,"[(1050, 833)]",[],[1],[0.5333333333333333],vertical,"(890.0, 262.0)",0.7833333333333333,0.492,1,14744.14,1
0,766,target,"[(1058, 819)]",[],[1],[0.4666666666666667],vertical,"(890.0, 262.0)",0.7833333333333333,0.427,1,14749.405,1
0,767,target,"[(1072, 828)]",[],[1],[0.5333333333333333],horizontal,"(890.0, 762.0)",0.8,0.493,1,14753.739,2
0,768,catch,"[(1057, 831)]",[],[1],[],horizontal,"(390.0, 762.0)",1.1666666666666667,nan,1,14758.342,1
0,769,target,"[(1065, 827)]",[],[1],[0.55],vertical,"(390.0, 262.0)",0.7666666666666666,0.511,1,14762.806,1
0,770,target,"[(1071, 840)]",[],[1],[0.7666666666666666],vertical,"(890.0, 762.0)",0.7666666666666666,0.718,1,14767.275,1
0,771,catch,"[(1065, 813)]",[],[1],[],horizontal,"(890.0, 762.0)",1.5333333333333332,nan,1,14772.076,3
0,772,target,"[(1049, 809)]",[],[1],[0.55],horizontal,"(390.0, 262.0)",1.3333333333333333,0.508,1,14777.791,1
0,773,target,"[(1070, 818)]",[],[1],[],horizontal,"(390.0, 762.0)",,"('cti', 1.384)",0,14782.667,0
0,774,target,"[(1037, 829)]",[],[1],[],vertical,"(390.0, 762.0)",,"('cti', 1.213)",0,14787.256,0
0,775,target,"[(1035, 847)]",[],[1],[0.15],horizontal,"(390.0, 262.0)",1.4,0.12,1,14791.532,1
0,776,target,"[(1048, 836)]",[],[1],[0.48333333333333334],vertical,"(890.0, 762.0)",0.6166666666666667,0.446,1,14796.63,1
0,777,target,"[(1068, 839)]",[],[1],[0.48333333333333334],vertical,"(890.0, 262.0)",1.0833333333333333,0.445,1,14801.479,1
0,778,target,"[(1060, 800)]",[],[1],[0.65],horizontal,"(390.0, 762.0)",0.5333333333333333,0.615,1,14806.473,2
0,779,target,"[(1057, 817)]",[],[1],[0.5166666666666666],vertical,"(890.0, 762.0)",1.05,0.481,1,14811.174,1
0,780,catch,"[(1060, 812)]",[],[1],[],horizontal,"(890.0, 262.0)",1.35,nan,1,14815.921,1
0,781,target,"[(1068, 832)]",[],[1],[0.5],vertical,"(390.0, 262.0)",0.8,0.462,1,14820.685,1
0,782,target,"[(1072, 838)]",[],[1],[0.48333333333333334],horizontal,"(390.0, 762.0)",0.9666666666666667,0.443,1,14825.359,3
0,783,target,"[(1057, 820)]",[],[1],[0.5],vertical,"(890.0, 262.0)",0.6833333333333333,0.468,1,14831.157,1
0,784,catch,"[(1069, 813)]",[],[1],[],horizontal,"(390.0, 762.0)",1.6,nan,1,14835.954,1
0,785,target,"[(1056, 821)]",[],[1],[0.5],vertical,"(890.0, 262.0)",0.9666666666666667,0.459,1,14840.773,1
0,786,target,"[(1030, 855)]",[],[1],[0.2833333333333333],horizontal,"(390.0, 262.0)",1.2833333333333332,0.253,1,14845.29,2
0,787,target,"[(1047, 833)]",[],[1],[0.3333333333333333],horizontal,"(890.0, 262.0)",0.9666666666666667,0.302,1,14851.006,1
0,788,target,"[(1067, 825)]",[],[1],[0.6166666666666667],vertical,"(390.0, 262.0)",0.7166666666666667,0.574,1,14855.89,1
0,789,target,"[(1062, 822)]",[],[1],[0.5833333333333334],horizontal,"(890.0, 762.0)",0.8166666666666667,0.549,1,14860.689,1
0,790,target,"[(1066, 832)]",[],[1],[0.2],vertical,"(890.0, 262.0)",1.5166666666666666,0.171,1,14865.523,3
0,791,target,"[(1051, 810)]",[],[1],[0.2833333333333333],vertical,"(390.0, 262.0)",1.3333333333333333,0.249,1,14871.14,1
0,792,target,"[(1064, 842)]",[],[1],[0.6166666666666667],vertical,"(390.0, 262.0)",0.9833333333333333,0.573,1,14876.055,1
0,793,target,"[(1055, 818)]",[],[1],[0.85],horizontal,"(890.0, 762.0)",0.6833333333333333,nan,0,14881.173,0
0,794,target,"[(1038, 838)]",[],[1],[0.1],horizontal,"(390.0, 262.0)",1.4666666666666666,0.069,0,14885.574,0
0,795,target,"[(1061, 822)]",[],[1],[0.75],horizontal,"(890.0, 262.0)",0.9,0.703,1,14891.357,1
0,796,target,"[(1072, 841)]",[],[1],[0.2833333333333333],horizontal,"(890.0, 262.0)",1.5166666666666666,0.247,1,14895.855,1
0,797,target,"[(1072, 825)]",[],[1],[0.5833333333333334],horizontal,"(390.0, 762.0)",0.5333333333333333,0.544,1,14901.022,1
0,798,target,"[(1065, 827)]",[],[1],[0.48333333333333334],horizontal,"(890.0, 262.0)",1.0666666666666667,0.445,1,14905.873,2
0,799,target,"[(1070, 857)]",[],[1],[0.43333333333333335],vertical,"(390.0, 762.0)",1.3333333333333333,0.394,1,14911.391,1
0,800,target,"[(1037, 794)]",[],[1],[0.55],horizontal,"(390.0, 262.0)",0.9333333333333333,0.508,1,14916.424,1
0,801,target,"[(1050, 845)]",[],[1],[0.5666666666666667],vertical,"(390.0, 762.0)",1.25,0.528,1,14921.208,1
0,802,target,"[(1061, 819)]",[],[1],[0.36666666666666664],horizontal,"(890.0, 262.0)",1.1833333333333333,0.328,1,14926.074,3
0,803,catch,"[(1061, 816)]",[],[1],[],horizontal,"(890.0, 262.0)",1.55,nan,1,14931.991,1
0,804,target,"[(1049, 810)]",[],[1],[0.5],horizontal,"(890.0, 762.0)",1.0833333333333333,0.458,1,14936.641,1
0,805,target,"[(1070, 820)]",[],[1],[0.48333333333333334],vertical,"(890.0, 762.0)",1.6833333333333333,0.443,1,14941.724,1
0,806,target,"[(1068, 812)]",[],[1],[0.06666666666666667],vertical,"(390.0, 262.0)",1.5666666666666667,0.036,0,14947.073,0
0,807,target,"[(1057, 832)]",[],[1],[0.21666666666666667],vertical,"(890.0, 262.0)",1.5,0.184,1,14951.507,1
0,808,target,"[(1053, 843)]",[],[1],[0.4166666666666667],horizontal,"(390.0, 262.0)",1.4166666666666667,0.374,1,14956.736,1
0,809,target,"[(1072, 832)]",[],[1],[0.6833333333333333],horizontal,"(890.0, 762.0)",1.1333333333333333,0.643,1,14962.206,1
0,810,target,"[(1065, 805)]",[],[1],[0.6166666666666667],vertical,"(890.0, 762.0)",0.7,0.578,1,14967.597,2
0,811,target,"[(1035, 840)]",[],[1],[0.55],horizontal,"(390.0, 262.0)",0.6333333333333333,0.513,1,14972.841,1
0,812,target,"[(1072, 845)]",[],[1],[0.2833333333333333],vertical,"(890.0, 262.0)",1.3166666666666667,0.253,1,14977.568,1
0,813,target,"[(1068, 817)]",[],[1],[],vertical,"(390.0, 262.0)",,"('cti', 1.556)",0,14982.689,0
0,814,catch,"[(1054, 826)]",[],[1],[],vertical,"(890.0, 762.0)",1.0,nan,1,14987.024,1
0,815,target,"[(1064, 826)]",[],[1],[0.5666666666666667],horizontal,"(890.0, 762.0)",1.0666666666666667,0.527,1,14991.406,1
0,816,target,"[(1066, 811)]",[],[1],[0.5166666666666666],horizontal,"(390.0, 762.0)",0.9833333333333333,0.479,1,14996.008,1
0,817,target,"[(1043, 838)]",[],[1],[0.3833333333333333],vertical,"(890.0, 762.0)",1.0833333333333333,0.347,1,15000.94,2
0,818,target,"[(1071, 826)]",[],[1],[0.5833333333333334],vertical,"(390.0, 762.0)",0.6166666666666667,0.542,1,15006.199,1
0,819,target,"[(1068, 820)]",[],[1],[0.5166666666666666],vertical,"(890.0, 262.0)",0.8333333333333334,0.476,1,15010.512,1
0,820,target,"[(1077, 835)]",[],[1],[0.2],vertical,"(390.0, 262.0)",1.2833333333333332,0.167,1,15015.166,1
0,821,target,"[(1052, 815)]",[],[1],[],vertical,"(390.0, 762.0)",,"('cti', 1.444)",0,15020.207,0
0,822,target,"[(1052, 834)]",[],[1],[0.55],vertical,"(390.0, 762.0)",0.6833333333333333,0.508,1,15024.793,1
0,823,target,"[(1068, 828)]",[],[1],[0.5666666666666667],vertical,"(390.0, 762.0)",0.6833333333333333,0.529,1,15029.456,1
0,824,target,"[(1069, 842)]",[],[1],[0.55],vertical,"(890.0, 262.0)",0.55,0.513,1,15034.127,1
0,825,target,"[(1048, 829)]",[],[1],[0.48333333333333334],horizontal,"(890.0, 262.0)",1.25,0.448,1,15038.424,2
0,826,target,"[(1069, 825)]",[],[1],[0.55],vertical,"(890.0, 762.0)",0.85,0.512,1,15044.073,1
0,827,target,"[(1068, 829)]",[],[1],[0.75],horizontal,"(890.0, 262.0)",0.5166666666666666,0.707,1,15048.591,1
0,828,target,"[(1068, 838)]",[],[1],[0.15],vertical,"(890.0, 262.0)",1.5166666666666666,0.117,1,15053.441,1
0,829,target,"[(1062, 811)]",[],[1],[0.15],horizontal,"(890.0, 762.0)",1.55,0.12,1,15058.491,3
0,830,target,"[(1052, 836)]",[],[1],[0.55],horizontal,"(890.0, 762.0)",0.8833333333333333,0.508,1,15064.554,1
0,831,target,"[(1065, 816)]",[],[1],[],vertical,"(390.0, 762.0)",,"('cti', 1.44)",0,15069.094,0
0,832,target,"[(1031, 845)]",[],[1],[0.5166666666666666],horizontal,"(890.0, 262.0)",0.8,0.477,1,15073.715,1
0,833,target,"[(1026, 860)]",[],[1],[0.5666666666666667],horizontal,"(890.0, 762.0)",0.95,0.522,1,15081.516,1
0,834,target,"[(1065, 818)]",[],[1],[],horizontal,"(390.0, 262.0)",,"('cti', 1.259)",0,15086.492,0
0,835,target,"[(1050, 810)]",[],[1],[0.6],horizontal,"(390.0, 762.0)",1.5166666666666666,0.556,1,15090.893,1
0,836,target,"[(1070, 826)]",[],[1],[],vertical,"(390.0, 762.0)",,"('cti', 1.463)",0,15096.53,0
0,837,target,"[(1051, 851)]",[],[1],[0.5166666666666666],horizontal,"(390.0, 262.0)",1.1333333333333333,0.479,1,15101.392,1
0,838,target,"[(1047, 839)]",[],[1],[0.85],horizontal,"(390.0, 262.0)",1.65,"('cti', 1.636),nan",0,15106.398,0
0,839,target,"[(1053, 832)]",[],[1],[0.5333333333333333],vertical,"(890.0, 762.0)",1.5833333333333333,0.494,1,15112.295,1
0,840,target,"[(1065, 829)]",[],[1],[0.45],vertical,"(890.0, 262.0)",1.25,0.412,1,15117.306,1
0,841,target,"[(1065, 806)]",[],[1],[0.05],horizontal,"(890.0, 762.0)",1.6166666666666667,0.022,0,15122.309,0
0,842,target,"[(1041, 820)]",[],[1],[0.5166666666666666],vertical,"(390.0, 262.0)",1.2833333333333332,0.474,1,15127.092,1
0,843,target,"[(1041, 828)]",[],[1],[0.55],vertical,"(890.0, 262.0)",0.5666666666666667,0.509,1,15132.542,1
0,844,target,"[(1065, 821)]",[],[1],[0.5666666666666667],vertical,"(390.0, 262.0)",0.55,0.522,1,15138.029,1
0,845,target,"[(1065, 847)]",[],[1],[0.7166666666666667],vertical,"(890.0, 262.0)",0.6666666666666666,0.677,1,15142.673,2
0,846,target,"[(1037, 847)]",[],[1],[0.3333333333333333],vertical,"(390.0, 762.0)",0.8333333333333334,0.292,1,15147.636,1
0,847,target,"[(1068, 836)]",[],[1],[0.48333333333333334],vertical,"(390.0, 762.0)",0.8833333333333333,0.443,1,15229.364,1
0,848,target,"[(1061, 819)]",[],[1],[0.1],horizontal,"(890.0, 262.0)",1.5166666666666666,0.066,0,15234.325,0
0,849,catch,"[(1068, 819)]",[],[1],[],vertical,"(890.0, 262.0)",1.6666666666666667,nan,1,15238.542,1
0,850,catch,"[(1053, 837)]",[],[1],[],vertical,"(890.0, 762.0)",1.15,nan,1,15243.109,1
0,851,target,"[(1061, 817)]",[],[1],[0.5666666666666667],vertical,"(890.0, 762.0)",1.0166666666666666,0.527,1,15247.776,1
0,852,target,"[(1068, 818)]",[],[1],[0.5],vertical,"(890.0, 762.0)",1.1833333333333333,0.469,1,15252.844,2
0,853,target,"[(1065, 833)]",[],[1],[],horizontal,"(890.0, 262.0)",,"('cti', 1.593)",0,15257.942,0
0,854,target,"[(1036, 842)]",[],[1],[0.13333333333333333],horizontal,"(890.0, 262.0)",1.6166666666666667,0.104,1,15262.77,1
0,855,target,"[(1069, 813)]",[],[1],[0.5333333333333333],vertical,"(890.0, 762.0)",1.2333333333333334,0.493,1,15268.893,1
0,856,catch,"[(1061, 824)]",[],[1],[],horizontal,"(390.0, 762.0)",1.4333333333333333,nan,1,15273.909,1
0,857,catch,"[(1061, 839)]",[],[1],[],vertical,"(390.0, 762.0)",,"('cti', 1.344),nan",0,15278.591,0
0,858,target,"[(1056, 808)]",[],[1],[0.26666666666666666],horizontal,"(890.0, 762.0)",1.5166666666666666,0.228,1,15283.409,1
0,859,catch,"[(1065, 818)]",[],[1],[],vertical,"(390.0, 262.0)",1.2833333333333332,nan,1,15288.543,1
0,860,target,"[(1057, 816)]",[],[1],[0.5166666666666666],horizontal,"(890.0, 262.0)",1.2666666666666666,0.473,1,15293.109,1
0,861,target,"[(1037, 852)]",[],[1],[0.6333333333333333],horizontal,"(890.0, 262.0)",0.65,0.591,1,15298.226,2
0,862,target,"[(1068, 844)]",[],[1],[0.6],vertical,"(890.0, 762.0)",0.8666666666666667,0.559,1,15303.395,1
0,863,target,"[(1058, 799)]",[],[1],[0.6333333333333333],horizontal,"(390.0, 262.0)",0.8666666666666667,0.59,1,15308.461,1
0,864,target,"[(1061, 829)]",[],[1],[0.5333333333333333],vertical,"(890.0, 762.0)",0.9,0.488,1,15313.28,1
0,865,target,"[(1068, 830)]",[],[1],[0.5333333333333333],horizontal,"(390.0, 262.0)",1.0666666666666667,0.495,1,15318.234,3
0,866,catch,"[(1068, 840)]",[],[1],[],vertical,"(890.0, 762.0)",1.2333333333333334,nan,1,15323.785,1
0,867,target,"[(1069, 829)]",[],[1],[0.48333333333333334],vertical,"(390.0, 262.0)",1.6166666666666667,0.439,1,15328.859,1
0,868,target,"[(1067, 841)]",[],[1],[0.55],horizontal,"(390.0, 762.0)",0.6333333333333333,0.51,1,15334.087,1
0,869,target,"[(1061, 803)]",[],[1],[],horizontal,"(890.0, 762.0)",,"('cti', 1.537)",0,15338.543,0
0,870,target,"[(1052, 811)]",[],[1],[0.4666666666666667],vertical,"(390.0, 762.0)",1.2,0.427,1,15343.338,1
0,871,target,"[(1072, 832)]",[],[1],[0.65],vertical,"(890.0, 762.0)",1.2,0.602,1,15348.342,1
0,872,target,"[(1064, 802)]",[],[1],[0.5666666666666667],vertical,"(390.0, 262.0)",0.6666666666666666,0.524,1,15353.581,1
0,873,target,"[(1049, 793)]",[],[1],[0.7833333333333333],horizontal,"(890.0, 262.0)",0.6833333333333333,0.741,1,15357.86,2
0,874,target,"[(1066, 828)]",[],[1],[0.5],horizontal,"(890.0, 262.0)",0.9333333333333333,0.458,1,15362.743,1
0,875,target,"[(1068, 832)]",[],[1],[0.85],vertical,"(390.0, 762.0)",0.5166666666666666,nan,0,15367.68,0
0,876,target,"[(1037, 858)]",[],[1],[0.3333333333333333],vertical,"(890.0, 262.0)",1.3333333333333333,0.305,1,15372.212,1
0,877,target,"[(1063, 806)]",[],[1],[],horizontal,"(390.0, 262.0)",,"('cti', 1.338)",0,15376.996,0
0,878,catch,"[(1064, 835)]",[],[1],[],vertical,"(890.0, 762.0)",1.2166666666666666,nan,1,15381.67,1
0,879,target,"[(1064, 809)]",[],[1],[0.55],horizontal,"(390.0, 762.0)",0.7166666666666667,0.509,1,15387.792,1
0,880,target,"[(1069, 836)]",[],[1],[0.7666666666666666],vertical,"(890.0, 762.0)",0.7166666666666667,0.716,1,15392.726,1
0,881,target,"[(1069, 842)]",[],[1],[0.5166666666666666],vertical,"(390.0, 262.0)",1.6666666666666667,0.475,1,15397.177,2
0,882,target,"[(1065, 838)]",[],[1],[0.5833333333333334],vertical,"(890.0, 762.0)",0.85,0.542,1,15403.843,1
0,883,target,"[(1064, 824)]",[],[1],[0.55],horizontal,"(890.0, 762.0)",1.5333333333333332,0.502,1,15408.859,1
0,884,target,"[(1064, 798)]",[],[1],[0.5666666666666667],horizontal,"(390.0, 762.0)",0.5833333333333334,0.529,1,15413.842,1
0,885,target,"[(1043, 820)]",[],[1],[0.85],horizontal,"(890.0, 762.0)",0.5833333333333334,nan,0,15418.172,0
0,886,target,"[(1041, 840)]",[],[1],[0.6833333333333333],horizontal,"(890.0, 762.0)",1.3333333333333333,0.643,1,15422.588,1
0,887,target,"[(1076, 809)]",[],[1],[0.35],vertical,"(890.0, 262.0)",1.3166666666666667,0.312,1,15427.994,1
0,888,target,"[(1065, 832)]",[],[1],[0.6],horizontal,"(390.0, 762.0)",1.2666666666666666,0.57,1,15432.793,1
0,889,target,"[(1068, 813)]",[],[1],[0.5333333333333333],horizontal,"(390.0, 262.0)",0.8166666666666667,0.489,1,15437.71,2
0,890,target,"[(1038, 829)]",[],[1],[0.13333333333333333],vertical,"(890.0, 762.0)",1.4,0.099,0,15442.41,0
0,891,target,"[(821, 686), (422, 349), (784, 325), (423, 397), (424, 411), (1032, 902)]",[],"[0, 0, 0, 0, 0, 1]",[0.85],horizontal,"(890.0, 762.0)",1.1666666666666667,nan,0,15447.092,0
0,892,target,"[(1032, 859)]","[(1001, 876)]",[1],[0.85],vertical,"(890.0, 262.0)",,"('bar', 0.855)",0,18278.793,0
0,893,target,"[(849, 834), (1061, 673), (1014, 866)]",[],"[0, 0, 1]",[0.55],horizontal,"(890.0, 262.0)",0.9666666666666667,0.512,1,18281.959,1
0,894,target,"[(1072, 835)]",[],[1],[0.85],vertical,"(890.0, 262.0)",1.35,nan,0,18292.926,0
0,895,target,"[(1040, 848)]",[],[1],[0.5333333333333333],horizontal,"(390.0, 262.0)",0.7333333333333333,0.491,1,18298.009,1
