block,trial,trial_type,taps_start_loc_during_fix,taps_end_loc_during_fix,taps_on_lever_during_fix,taps_on_lever_s_during_fix,bar_orientation,target_xy,cti,rt,acc,time,pulses,fa_rate_recent100,actual_invalid_type
0,1,catch,"[(1086, 771)]",[],[1],[],vertical,"(890.0, 762.0)",1.7,nan,1,0.436,1,0.0,same
0,2,catch,"[(1080, 836)]",[],[1],[],vertical,"(390.0, 762.0)",1.7,nan,1,10.04,1,0.0,same
0,3,valid,"[(1133, 821)]",[],[1],[0.6],horizontal,"(890.0, 262.0)",0.6666666666666666,0.566,1,58.047,1,0.0,same
0,4,valid,"[(1161, 819)]",[],[1],[0.48333333333333334],horizontal,"(890.0, 762.0)",0.7333333333333333,0.447,1,62.742,2,0.0,same
0,5,valid,"[(1162, 775)]",[],[1],[0.6333333333333333],vertical,"(390.0, 762.0)",0.8666666666666667,0.589,1,149.832,2,0.0,same
0,6,valid,"[(1164, 769)]",[],[1],[0.4666666666666667],vertical,"(890.0, 262.0)",1.0666666666666667,0.428,1,155.365,2,0.0,same
0,7,valid,"[(1175, 811)]","[(1174, 817)]",[1],[0.03333333333333333],vertical,"(390.0, 762.0)",,"('bar', 0.05)",0,160.941,0,0.0,same
0,8,invalid_same_bar,"[(1101, 816)]",[],[1],[0.85],vertical,"(390.0, 262.0)",0.9,nan,0,163.183,0,0.0,same
0,9,valid,"[(1167, 777)]",[],[1],[0.5166666666666666],horizontal,"(890.0, 762.0)",0.6,0.489,1,181.6,1,0.0,same
0,10,catch,"[(1179, 785)]",[],[1],[],vertical,"(890.0, 262.0)",1.7,nan,1,191.519,1,0.0,same
0,11,valid,"[(1181, 806)]",[],[1],[0.5166666666666666],vertical,"(390.0, 262.0)",0.85,0.491,1,197.03,1,0.0,same
0,12,catch,"[(1180, 798)]",[],[1],[],horizontal,"(390.0, 262.0)",1.7,nan,1,201.908,2,0.0,same
0,13,valid,"[(1186, 798)]",[],[1],[0.7333333333333333],horizontal,"(890.0, 762.0)",0.8333333333333334,0.697,1,207.739,2,0.0,same
0,14,valid,"[(1179, 806)]",[],[1],[0.45],horizontal,"(890.0, 262.0)",0.55,0.423,1,213.119,2,0.0,same
0,15,catch,"[(1166, 787)]",[],[1],[],horizontal,"(890.0, 262.0)",,"('cti', 1.707),nan",0,218.101,0,0.06666666666666667,same
0,16,valid,"[(1088, 825)]",[],[1],[0.5333333333333333],vertical,"(390.0, 262.0)",1.25,0.506,1,223.246,1,0.0625,same
0,17,valid,"[(1171, 777)]",[],[1],[0.85],horizontal,"(890.0, 262.0)",0.4166666666666667,nan,0,323.669,0,0.058823529411764705,same
0,18,catch,"[(1141, 801)]",[],[1],[],vertical,"(890.0, 262.0)",1.7,nan,1,327.826,1,0.05555555555555555,same
0,19,valid,"[(1150, 807)]",[],[1],[],vertical,"(890.0, 262.0)",,"('fix', 0.233)",0,333.474,0,0.05263157894736842,same
0,20,valid,"[(1139, 916), (1140, 915)]",[],"[1, 1]",[],vertical,"(890.0, 762.0)",,"('fix', 0.433)",0,340.486,0,0.05,same
0,21,invalid_same_bar,"[(1137, 813)]",[],[1],[0.55],horizontal,"(890.0, 762.0)",1.2166666666666666,0.51,1,342.393,1,0.047619047619047616,same
0,22,invalid_adjacent_other_bar,"[(1179, 796)]",[],[1],[0.6166666666666667],horizontal,"(890.0, 762.0)",0.8666666666666667,0.576,1,353.108,1,0.045454545454545456,other
0,23,catch,"[(1169, 770)]",[],[1],[],vertical,"(890.0, 762.0)",1.7,nan,1,358.319,1,0.043478260869565216,same
0,24,invalid_same_bar,"[(1172, 790)]",[],[1],[0.85],horizontal,"(390.0, 762.0)",0.8666666666666667,nan,0,363.774,0,0.041666666666666664,same
0,25,valid,"[(1164, 771)]",[],[1],[0.75],horizontal,"(390.0, 262.0)",0.95,0.705,1,368.529,1,0.04,same
0,26,valid,"[(1175, 787)]",[],[1],[0.23333333333333334],horizontal,"(890.0, 762.0)",1.0333333333333332,0.201,1,373.677,1,0.038461538461538464,same
0,27,valid,"[(1180, 794)]",[],[1],[0.48333333333333334],horizontal,"(390.0, 262.0)",1.0333333333333332,0.443,1,378.357,1,0.037037037037037035,same
0,28,valid,"[(1174, 800)]",[],[1],[0.5166666666666666],horizontal,"(390.0, 762.0)",1.5,0.476,1,383.691,2,0.03571428571428571,same
0,29,invalid_same_bar,"[(1171, 794)]",[],[1],[],horizontal,"(390.0, 262.0)",,"('cti', 0.184)",0,389.541,0,0.034482758620689655,same
0,30,valid,"[(1149, 782)]",[],[1],[0.5666666666666667],horizontal,"(390.0, 762.0)",0.48333333333333334,0.524,1,392.724,1,0.03333333333333333,same
0,31,valid,"[(1170, 806)]",[],[1],[0.45],horizontal,"(890.0, 262.0)",1.5166666666666666,0.41,1,397.339,1,0.03225806451612903,same
0,32,valid,"[(1164, 784)]",[],[1],[0.85],vertical,"(390.0, 762.0)",0.43333333333333335,nan,0,402.807,0,0.03125,same
0,33,valid,"[(1171, 779)]","[(1165, 860)]",[1],[0.3833333333333333],horizontal,"(890.0, 762.0)",,"('bar', 0.396)",0,406.958,0,0.030303030303030304,same
0,34,invalid_adjacent_other_bar,"[(1101, 804)]",[],[1],[0.5],horizontal,"(890.0, 762.0)",1.1666666666666667,0.46,1,409.566,1,0.029411764705882353,other
0,35,valid,"[(1176, 805)]",[],[1],[0.6333333333333333],vertical,"(890.0, 262.0)",0.36666666666666664,0.586,1,880.877,1,0.02857142857142857,same
0,36,valid,"[(1165, 776)]",[],[1],[0.48333333333333334],vertical,"(890.0, 762.0)",0.6333333333333333,0.441,1,885.608,1,0.027777777777777776,same
0,37,catch,"[(1182, 798)]",[],[1],[],horizontal,"(890.0, 262.0)",1.7,nan,1,889.924,2,0.02702702702702703,same
0,38,catch,"[(1180, 793)]",[],[1],[],horizontal,"(890.0, 262.0)",1.7,nan,1,896.174,2,0.02631578947368421,same
0,39,valid,"[(1180, 795)]",[],[1],[0.5333333333333333],vertical,"(390.0, 762.0)",1.2333333333333334,0.493,1,901.691,2,0.02564102564102564,same
0,40,valid,"[(1185, 763)]",[],[1],[0.4666666666666667],horizontal,"(390.0, 762.0)",1.2833333333333332,0.431,1,907.458,3,0.025,same
0,41,valid,"[(1175, 789)]",[],[1],[0.5333333333333333],vertical,"(390.0, 762.0)",0.4166666666666667,0.492,1,913.725,3,0.024390243902439025,same
0,42,catch,"[(1212, 798)]",[],[1],[],vertical,"(390.0, 762.0)",1.7,nan,1,918.925,3,0.023809523809523808,same
0,43,valid,"[(1170, 790)]",[],[1],[0.85],vertical,"(390.0, 262.0)",1.0333333333333332,nan,0,924.54,0,0.023255813953488372,same
0,44,valid,"[(1182, 782)]",[],[1],[0.5833333333333334],horizontal,"(890.0, 762.0)",0.9833333333333333,0.535,1,929.092,1,0.022727272727272728,same
0,45,valid,"[(1202, 792)]","[(1105, 876)]",[1],[0.6],vertical,"(390.0, 762.0)",,"('bar', 0.602)",0,934.074,0,0.022222222222222223,same
0,46,valid,"[(1122, 818)]",[],[1],[0.43333333333333335],vertical,"(390.0, 762.0)",1.5,0.391,1,936.976,1,0.021739130434782608,same
0,47,valid,"[(1165, 782)]",[],[1],[0.6833333333333333],vertical,"(890.0, 762.0)",0.43333333333333335,0.64,1,947.534,1,0.02127659574468085,same
0,48,valid,"[(1165, 786)]",[],[1],[0.5666666666666667],horizontal,"(390.0, 762.0)",1.45,0.52,1,951.807,1,0.020833333333333332,same
0,49,catch,"[(1177, 779)]",[],[1],[],vertical,"(890.0, 762.0)",1.7,nan,1,957.24,2,0.02040816326530612,same
0,50,invalid_adjacent_other_bar,"[(1180, 785)]",[],[1],[0.6166666666666667],horizontal,"(890.0, 762.0)",1.2833333333333332,0.572,1,962.808,2,0.02,other
0,51,catch,"[(1176, 785)]",[],[1],[],vertical,"(890.0, 762.0)",,"('cti', 1.008),nan",0,969.018,0,0.04,same
0,52,invalid_adjacent_other_bar,"[(1182, 772)]",[],[1],[0.5833333333333334],horizontal,"(890.0, 762.0)",1.4166666666666667,0.536,1,972.708,1,0.04,other
0,53,valid,"[(1180, 791)]",[],[1],[0.6],horizontal,"(390.0, 762.0)",0.8,0.551,1,978.181,1,0.04,same
0,54,valid,"[(1205, 785)]","[(1112, 859)]",[1],[0.45],horizontal,"(390.0, 262.0)",,"('bar', 0.456)",0,983.175,0,0.04,same
0,55,valid,"[(1159, 826)]",[],[1],[0.4666666666666667],horizontal,"(890.0, 262.0)",0.43333333333333335,0.427,1,985.907,1,0.04,same
0,56,valid,"[(1209, 784)]",[],[1],[0.45],vertical,"(890.0, 262.0)",0.8833333333333333,0.417,1,990.274,1,0.04,same
0,57,valid,"[(1184, 796)]",[],[1],[0.5333333333333333],horizontal,"(390.0, 762.0)",0.95,0.49,1,994.689,1,0.04,same
0,58,catch,"[(1170, 811)]",[],[1],[],horizontal,"(390.0, 262.0)",1.7,nan,1,999.589,2,0.04,same
0,59,catch,"[(1189, 777)]",[],[1],[],vertical,"(390.0, 762.0)",1.7,nan,1,1005.21,2,0.04,same
0,60,catch,"[(1207, 797)]",[],[1],[],vertical,"(390.0, 262.0)",1.7,nan,1,1010.99,2,0.04,same
0,61,catch,"[(1125, 811)]",[],[1],[],vertical,"(890.0, 262.0)",1.7,nan,1,1016.874,3,0.04,same
0,62,valid,"[(1146, 799)]",[],[1],[0.85],vertical,"(390.0, 762.0)",0.45,nan,0,1023.775,0,0.04,same
0,63,valid,"[(1159, 779)]",[],[1],[0.6],vertical,"(390.0, 262.0)",0.9166666666666666,0.556,1,1027.909,1,0.04,same
0,64,catch,"[(1178, 791)]",[],[1],[],horizontal,"(390.0, 262.0)",,"('cti', 1.206),nan",0,1033.053,0,0.06,same
0,65,valid,"[(1136, 772)]",[],[1],[0.65],horizontal,"(890.0, 262.0)",0.36666666666666664,0.608,1,1037.115,1,0.04,same
0,66,valid,"[(1184, 772)]",[],[1],[0.4666666666666667],horizontal,"(390.0, 262.0)",1.45,0.432,1,1041.369,1,0.04,same
0,67,catch,"[(1188, 784)]",[],[1],[],horizontal,"(390.0, 762.0)",1.7,nan,1,1046.509,1,0.04,same
0,68,catch,"[(1200, 793)]",[],[1],[],vertical,"(390.0, 762.0)",1.7,nan,1,1052.019,2,0.04,same
0,69,valid,"[(1186, 769)]",[],[1],[0.6333333333333333],vertical,"(390.0, 762.0)",0.4,0.601,1,1057.709,2,0.04,same
0,70,valid,"[(1165, 785)]",[],[1],[0.5166666666666666],vertical,"(890.0, 262.0)",1.05,0.472,1,1062.785,2,0.04,same
0,71,valid,"[(1193, 786)]",[],[1],[0.5666666666666667],horizontal,"(390.0, 262.0)",1.4166666666666667,0.521,1,1068.253,3,0.04,same
0,72,valid,"[(1174, 795)]",[],[1],[0.5333333333333333],vertical,"(890.0, 262.0)",0.4166666666666667,0.492,1,1074.577,3,0.04,same
0,73,invalid_adjacent_other_bar,"[(1190, 800)]",[],[1],[0.65],horizontal,"(890.0, 262.0)",0.75,0.606,1,1079.83,3,0.04,other
0,74,catch,"[(1185, 776)]",[],[1],[],horizontal,"(390.0, 262.0)",1.7,nan,1,1085.574,3,0.04,same
0,75,catch,"[(1162, 782)]",[],[1],[],vertical,"(890.0, 762.0)",1.7,nan,1,1091.223,3,0.04,same
0,76,catch,"[(1179, 786)]",[],[1],[],vertical,"(890.0, 262.0)",1.7,nan,1,1096.974,3,0.04,same
0,77,invalid_adjacent_other_bar,"[(1179, 800)]",[],[1],[0.55],vertical,"(390.0, 262.0)",1.4166666666666667,0.511,1,1103.008,3,0.04,other
0,78,invalid_same_bar,"[(1179, 785)]",[],[1],[0.4666666666666667],vertical,"(390.0, 762.0)",1.2,0.427,1,1109.024,3,0.04,same
0,79,valid,"[(1170, 785)]",[],[1],[0.6166666666666667],horizontal,"(890.0, 762.0)",0.75,0.577,1,1114.844,3,0.04,same
0,80,valid,"[(1200, 791)]",[],[1],[0.5],vertical,"(390.0, 262.0)",1.0333333333333332,0.465,1,1120.38,3,0.04,same
0,81,catch,"[(1177, 763)]",[],[1],[],vertical,"(390.0, 262.0)",1.7,nan,1,1126.291,3,0.04,same
0,82,valid,"[(1177, 793)]",[],[1],[0.5],horizontal,"(890.0, 262.0)",1.1666666666666667,0.459,1,1132.356,3,0.04,same
0,83,valid,"[(1180, 785)]",[],[1],[0.2833333333333333],horizontal,"(890.0, 762.0)",1.5166666666666666,0.245,1,1138.008,3,0.04,same
0,84,valid,"[(1183, 779)]",[],[1],[0.4666666666666667],vertical,"(890.0, 762.0)",0.36666666666666664,0.427,1,1144.225,3,0.04,same
0,85,valid,"[(1185, 776)]",[],[1],[0.48333333333333334],horizontal,"(390.0, 262.0)",0.7166666666666667,0.449,1,1149.258,3,0.04,same
0,86,valid,"[(1174, 782)]",[],[1],[0.5],horizontal,"(390.0, 262.0)",0.7833333333333333,0.461,1,1154.495,3,0.04,same
0,87,valid,"[(1183, 789)]",[],[1],[0.4],vertical,"(890.0, 262.0)",1.5,0.363,1,1160.296,3,0.04,same
0,88,invalid_adjacent_other_bar,"[(1175, 797)]",[],[1],[0.5166666666666666],vertical,"(890.0, 762.0)",0.9833333333333333,0.476,1,1166.732,3,0.04,other
0,89,valid,"[(1181, 776)]",[],[1],[0.5166666666666666],horizontal,"(390.0, 262.0)",0.95,0.48,1,1172.311,3,0.04,same
0,90,valid,"[(1176, 786)]",[],[1],[0.5166666666666666],horizontal,"(390.0, 762.0)",1.15,0.476,1,1178.108,3,0.04,same
0,91,valid,"[(1180, 801)]",[],[1],[0.48333333333333334],horizontal,"(390.0, 262.0)",1.4166666666666667,0.437,1,1184.076,3,0.04,same
0,92,valid,"[(1149, 836)]",[],[1],[0.4666666666666667],vertical,"(890.0, 262.0)",0.55,0.432,1,1190.459,3,0.04,same
0,93,catch,"[(1176, 787)]",[],[1],[],vertical,"(390.0, 762.0)",1.7,nan,1,1196.225,3,0.04,same
0,94,catch,"[(1175, 787)]",[],[1],[],horizontal,"(390.0, 762.0)",1.7,nan,1,1202.192,3,0.04,same
0,95,catch,"[(1176, 786)]",[],[1],[],horizontal,"(890.0, 262.0)",1.7,nan,1,1207.987,3,0.04,same
0,96,catch,"[(1194, 790)]",[],[1],[],horizontal,"(390.0, 262.0)",1.7,nan,1,1213.758,3,0.04,same
0,97,invalid_adjacent_other_bar,"[(1175, 773)]",[],[1],[0.55],vertical,"(390.0, 262.0)",1.0,0.511,1,1219.674,3,0.04,other
0,98,valid,"[(1204, 786)]",[],[1],[0.5],horizontal,"(390.0, 262.0)",1.0333333333333332,0.458,1,1225.064,3,0.04,same
0,99,invalid_same_bar,"[(1173, 776)]",[],[1],[0.5166666666666666],horizontal,"(890.0, 762.0)",0.45,0.48,1,1230.774,3,0.04,same
0,100,valid,"[(1177, 794)]",[],[1],[0.6166666666666667],horizontal,"(890.0, 262.0)",0.45,0.572,1,1236.241,3,0.04,same
0,101,invalid_same_bar,"[(1118, 788)]",[],[1],[0.6166666666666667],horizontal,"(390.0, 762.0)",0.6833333333333333,0.575,1,1241.275,3,0.02,same
0,102,valid,"[(1202, 797)]",[],[1],[],horizontal,"(390.0, 762.0)",,"('cti', 0.611)",0,1281.625,0,0.02,same
0,103,valid,"[(1210, 772)]",[],[1],[0.5666666666666667],horizontal,"(890.0, 262.0)",1.15,0.523,1,1285.747,1,0.02,same
0,104,valid,"[(1213, 789)]",[],[1],[0.7333333333333333],vertical,"(890.0, 762.0)",0.5166666666666666,0.69,1,1290.923,1,0.02,same
0,105,valid,"[(1198, 775)]",[],[1],[0.8166666666666667],horizontal,"(390.0, 762.0)",1.25,0.775,1,1295.924,1,0.02,same
0,106,valid,"[(1184, 792)]",[],[1],[0.85],vertical,"(390.0, 762.0)",1.4833333333333334,nan,0,1301.024,0,0.02,same
0,107,valid,"[(1177, 776)]",[],[1],[0.85],vertical,"(890.0, 262.0)",1.3833333333333333,nan,0,1306.524,0,0.02,same
0,108,valid,"[(1160, 811)]",[],[1],[0.85],vertical,"(390.0, 262.0)",0.48333333333333334,nan,0,1311.609,0,0.02,same
0,109,valid,"[(1144, 800)]",[],[1],[0.85],horizontal,"(390.0, 262.0)",0.9,nan,0,2987.181,0,0.02,same
0,110,valid,"[(1143, 798)]",[],[1],[0.6166666666666667],horizontal,"(390.0, 262.0)",1.0,0.573,1,2992.102,1,0.02,same
0,111,catch,"[(1170, 814)]",[],[1],[],vertical,"(890.0, 262.0)",1.7,"('cti', 1.689),nan",0,2997.136,0,0.04,same
0,112,catch,"[(1160, 811)]",[],[1],[],horizontal,"(890.0, 262.0)",1.7,nan,1,3001.759,1,0.04,same
0,113,catch,"[(1162, 791)]",[],[1],[],horizontal,"(390.0, 762.0)",1.7,nan,1,3007.727,1,0.04,same
0,114,valid,"[(1175, 773)]",[],[1],[0.6833333333333333],horizontal,"(390.0, 262.0)",0.65,0.639,1,3012.956,1,0.02,same
0,115,valid,"[(1165, 787)]",[],[1],[0.5666666666666667],vertical,"(890.0, 762.0)",0.5833333333333334,0.531,1,3017.772,2,0.02,same
0,116,valid,"[(1165, 784)]",[],[1],[0.6666666666666666],horizontal,"(890.0, 762.0)",0.6666666666666666,0.626,1,3022.436,2,0.02,same
0,117,valid,"[(1160, 783)]",[],[1],[0.5666666666666667],vertical,"(390.0, 262.0)",0.9166666666666666,0.526,1,3027.631,2,0.02,same
0,118,catch,"[(1146, 781)]",[],[1],[],horizontal,"(890.0, 762.0)",1.7,nan,1,3033.295,3,0.02,same
0,119,valid,"[(1165, 799)]",[],[1],[0.5666666666666667],vertical,"(890.0, 262.0)",1.4166666666666667,0.522,1,3039.331,3,0.02,same
0,120,valid,"[(1171, 795)]",[],[1],[0.65],vertical,"(890.0, 762.0)",0.4,0.609,1,3045.32,3,0.02,same
0,121,valid,"[(1160, 782)]",[],[1],[0.2833333333333333],horizontal,"(390.0, 262.0)",1.0833333333333333,0.246,1,3050.228,3,0.02,same
0,122,valid,"[(1135, 781)]",[],[1],[0.5333333333333333],horizontal,"(890.0, 262.0)",1.4,0.489,1,3055.928,3,0.02,same
0,123,valid,"[(1149, 788)]",[],[1],[0.7833333333333333],horizontal,"(890.0, 762.0)",0.6166666666666667,0.745,1,3061.927,3,0.02,same
0,124,valid,"[(1164, 804)]",[],[1],[0.5666666666666667],horizontal,"(390.0, 762.0)",1.35,0.526,1,3067.512,3,0.02,same
0,125,valid,"[(1134, 779)]",[],[1],[0.5333333333333333],horizontal,"(890.0, 262.0)",0.5166666666666666,0.493,1,3073.91,3,0.02,same
0,126,catch,"[(1162, 777)]",[],[1],[],horizontal,"(390.0, 762.0)",1.7,nan,1,3079.133,3,0.02,same
0,127,valid,"[(1170, 787)]",[],[1],[0.85],vertical,"(390.0, 262.0)",0.7833333333333333,nan,0,3085.226,0,0.02,same
0,128,valid,"[(1157, 806)]",[],[1],[0.85],horizontal,"(390.0, 762.0)",1.1833333333333333,nan,0,3089.789,0,0.02,same
0,129,catch,"[(1130, 808)]",[],[1],[],vertical,"(890.0, 262.0)",1.7,nan,1,3094.827,1,0.02,same
0,130,valid,"[(1162, 786)]",[],[1],[0.5833333333333334],horizontal,"(390.0, 762.0)",1.3666666666666667,0.544,1,3100.298,1,0.02,same
0,131,invalid_same_bar,"[(1165, 806)]",[],[1],[0.65],horizontal,"(890.0, 262.0)",0.7333333333333333,0.607,1,3105.895,1,0.02,same
0,132,valid,"[(1161, 763)]",[],[1],[0.15],horizontal,"(390.0, 262.0)",1.2666666666666666,0.12,0,3110.628,0,0.02,same
0,133,valid,"[(1137, 804)]",[],[1],[0.85],vertical,"(890.0, 262.0)",1.3166666666666667,nan,0,3114.974,0,0.02,same
0,134,valid,"[(1150, 808)]",[],[1],[0.85],vertical,"(890.0, 762.0)",0.85,nan,0,3120.711,0,0.02,same
0,135,valid,"[(1120, 818)]",[],[1],[0.85],horizontal,"(390.0, 262.0)",0.9,nan,0,3296.124,0,0.02,same
0,136,valid,"[(1142, 910)]",[],[1],[0.85],horizontal,"(390.0, 762.0)",0.6166666666666667,nan,0,3301.128,0,0.02,same
0,137,valid,"[(1140, 913)]",[],[1],[0.85],vertical,"(390.0, 262.0)",0.6833333333333333,nan,0,3308.895,0,0.02,same
0,138,invalid_adjacent_other_bar,"[(1137, 915)]",[],[1],[0.85],vertical,"(890.0, 262.0)",1.05,nan,0,3313.394,0,0.02,other
0,139,catch,"[(1100, 791)]",[],[1],[],horizontal,"(890.0, 762.0)",1.7,nan,1,3319.208,1,0.02,same
0,140,invalid_same_bar,"[(1188, 778)]",[],[1],[0.55],horizontal,"(890.0, 762.0)",0.6333333333333333,0.513,1,3325.698,1,0.02,same
0,141,catch,"[(1185, 791)]",[],[1],[],vertical,"(890.0, 262.0)",,"('cti', 1.078),nan",0,3330.211,0,0.04,same
0,142,valid,"[(1165, 798)]",[],[1],[0.65],horizontal,"(390.0, 762.0)",1.1166666666666667,0.603,1,3334.419,1,0.04,same
0,143,invalid_adjacent_other_bar,"[(1180, 766)]",[],[1],[0.65],vertical,"(390.0, 762.0)",1.45,0.609,1,3339.861,1,0.04,other
0,144,valid,"[(1179, 795)]",[],[1],[0.5],horizontal,"(890.0, 762.0)",0.4666666666666667,0.458,1,3345.483,1,0.04,same
0,145,valid,"[(1180, 798)]",[],[1],[0.65],horizontal,"(390.0, 762.0)",0.35,0.605,1,3350.028,2,0.04,same
0,146,catch,"[(1180, 781)]",[],[1],[],horizontal,"(890.0, 262.0)",1.7,nan,1,3355.124,2,0.04,same
0,147,valid,"[(1182, 782)]",[],[1],[0.5333333333333333],vertical,"(390.0, 262.0)",0.36666666666666664,0.487,1,3361.116,2,0.04,same
0,148,catch,"[(1163, 768)]",[],[1],[],vertical,"(890.0, 762.0)",1.7,nan,1,3365.873,3,0.04,same
0,149,valid,"[(1178, 797)]",[],[1],[0.6666666666666666],horizontal,"(390.0, 262.0)",0.4,0.623,1,3372.229,3,0.04,same
0,150,valid,"[(1200, 787)]",[],[1],[0.6166666666666667],horizontal,"(890.0, 762.0)",1.45,0.575,1,3377.464,3,0.04,same
0,151,valid,"[(1187, 801)]",[],[1],[],vertical,"(890.0, 762.0)",,"('cti', 1.342)",0,3383.361,0,0.04,same
0,152,catch,"[(1140, 781)]",[],[1],[],vertical,"(390.0, 262.0)",1.7,nan,1,3387.895,1,0.04,same
0,153,invalid_same_bar,"[(1180, 770)]",[],[1],[0.85],horizontal,"(390.0, 762.0)",1.45,"('cti', 1.446),nan",0,3392.963,0,0.04,same
0,154,invalid_same_bar,"[(1160, 823)]",[],[1],[0.45],vertical,"(390.0, 762.0)",1.3166666666666667,0.418,1,3397.844,1,0.04,same
0,155,valid,"[(1178, 805)]",[],[1],[0.7833333333333333],vertical,"(390.0, 762.0)",0.35,0.737,1,3403.379,1,0.04,same
0,156,valid,"[(1182, 799)]",[],[1],[0.7],vertical,"(890.0, 262.0)",1.05,0.658,1,3407.911,1,0.04,same
0,157,valid,"[(1170, 801)]",[],[1],[0.55],horizontal,"(390.0, 262.0)",0.8833333333333333,0.509,1,3412.895,2,0.04,same
0,158,valid,"[(1182, 780)]",[],[1],[0.85],horizontal,"(890.0, 762.0)",0.7,nan,0,3418.411,0,0.04,same
0,159,valid,"[(1176, 795)]",[],[1],[0.85],horizontal,"(390.0, 762.0)",0.4166666666666667,nan,0,3422.925,0,0.04,same
0,160,catch,"[(1140, 783)]",[],[1],[],vertical,"(390.0, 762.0)",1.7,nan,1,3427.158,1,0.04,same
0,161,valid,"[(1206, 780)]",[],[1],[0.65],horizontal,"(390.0, 262.0)",0.95,0.608,1,3432.527,1,0.02,same
0,162,invalid_adjacent_other_bar,"[(1185, 776)]",[],[1],[0.85],horizontal,"(390.0, 262.0)",1.1333333333333333,nan,0,3437.673,0,0.02,other
0,163,valid,"[(1160, 791)]",[],[1],[0.5166666666666666],vertical,"(390.0, 262.0)",1.05,0.477,1,3442.716,1,0.02,same
0,164,catch,"[(1180, 765)]",[],[1],[],horizontal,"(890.0, 762.0)",1.7,nan,1,3447.461,1,0.02,same
0,165,valid,"[(1160, 752), (1130, 842)]",[],"[0, 1]",[0.6666666666666666],horizontal,"(890.0, 262.0)",1.0666666666666667,0.628,1,3452.481,1,0.02,same
0,166,catch,"[(1191, 761)]",[],[1],[],vertical,"(390.0, 762.0)",1.7,nan,1,3458.928,2,0.02,same
0,167,catch,"[(1180, 777)]",[],[1],[],vertical,"(390.0, 762.0)",1.7,nan,1,3464.706,2,0.02,same
0,168,valid,"[(1206, 775)]",[],[1],[0.5833333333333334],vertical,"(890.0, 762.0)",0.8666666666666667,0.538,1,3470.278,2,0.02,same
0,169,valid,"[(1197, 772)]",[],[1],[0.55],vertical,"(890.0, 762.0)",0.85,0.514,1,3475.705,3,0.02,same
0,170,catch,"[(1204, 786)]",[],[1],[],vertical,"(390.0, 762.0)",1.7,nan,1,3481.63,3,0.02,same
0,171,catch,"[(1136, 809)]",[],[1],[],horizontal,"(390.0, 762.0)",1.7,nan,1,3487.661,3,0.02,same
0,172,catch,"[(1161, 766)]",[],[1],[],horizontal,"(890.0, 762.0)",1.7,nan,1,3494.229,3,0.02,same
0,173,invalid_adjacent_other_bar,"[(1192, 805)]",[],[1],[0.55],horizontal,"(390.0, 762.0)",0.65,0.507,1,3499.995,3,0.02,other
0,174,valid,"[(1178, 778)]",[],[1],[0.85],vertical,"(390.0, 262.0)",1.0166666666666666,nan,0,3505.796,0,0.02,same
0,175,valid,"[(1152, 774)]",[],[1],[0.4666666666666667],vertical,"(890.0, 762.0)",0.95,0.436,1,3510.378,1,0.02,same
0,176,valid,"[(1190, 781)]",[],[1],[0.5],horizontal,"(890.0, 262.0)",0.85,0.462,1,3515.295,1,0.02,same
0,177,catch,"[(1170, 789)]",[],[1],[],vertical,"(890.0, 762.0)",1.7,nan,1,3520.485,1,0.02,same
0,178,catch,"[(1179, 784)]",[],[1],[],vertical,"(890.0, 762.0)",1.7,nan,1,3525.695,2,0.02,same
0,179,invalid_adjacent_other_bar,"[(1189, 783)]",[],[1],[0.85],horizontal,"(890.0, 262.0)",0.5166666666666666,nan,0,3530.945,0,0.02,other
0,180,valid,"[(1176, 768)]",[],[1],[0.5166666666666666],horizontal,"(890.0, 262.0)",0.4166666666666667,0.489,1,3535.113,1,0.02,same
0,181,valid,"[(1184, 775)]",[],[1],[0.6],horizontal,"(890.0, 262.0)",0.9,0.561,1,3539.862,1,0.02,same
0,182,valid,"[(1176, 788)]",[],[1],[0.5666666666666667],horizontal,"(890.0, 762.0)",0.4166666666666667,0.531,1,3544.829,1,0.02,same
0,183,valid,"[(1210, 773)]",[],[1],[0.5333333333333333],vertical,"(390.0, 762.0)",1.2,0.497,1,3549.133,2,0.02,same
0,184,catch,"[(1209, 773)]",[],[1],[],horizontal,"(890.0, 262.0)",1.7,nan,1,3554.979,2,0.02,same
0,185,valid,"[(1163, 775)]",[],[1],[0.6666666666666666],horizontal,"(390.0, 262.0)",0.6166666666666667,0.622,1,3561.011,2,0.02,same
0,186,valid,"[(1165, 795)]",[],[1],[0.5833333333333334],horizontal,"(890.0, 762.0)",1.05,0.54,1,3566.411,3,0.02,same
0,187,valid,"[(1178, 773)]",[],[1],[0.5666666666666667],horizontal,"(390.0, 262.0)",0.8,0.524,1,3572.245,3,0.02,same
0,188,valid,"[(1197, 796)]",[],[1],[0.5333333333333333],horizontal,"(890.0, 762.0)",1.35,0.498,1,3577.558,3,0.02,same
0,189,valid,"[(1175, 771)]",[],[1],[0.6],horizontal,"(390.0, 762.0)",1.4666666666666666,0.557,1,3583.529,3,0.02,same
0,190,valid,"[(1209, 789)]",[],[1],[0.5666666666666667],horizontal,"(390.0, 262.0)",1.3,0.528,1,3589.613,3,0.02,same
0,191,catch,"[(1156, 776)]",[],[1],[],horizontal,"(890.0, 762.0)",1.7,nan,1,3595.877,3,0.0,same
0,192,valid,"[(1205, 774)]",[],[1],[0.5333333333333333],vertical,"(890.0, 262.0)",1.45,0.488,1,3601.978,3,0.0,same
0,193,valid,"[(1153, 764)]",[],[1],[0.5833333333333334],vertical,"(890.0, 262.0)",0.43333333333333335,0.545,1,3608.598,3,0.0,same
0,194,valid,"[(1179, 760)]",[],[1],[0.5833333333333334],vertical,"(890.0, 762.0)",0.36666666666666664,0.541,1,3614.328,3,0.0,same
0,195,valid,"[(1195, 787)]",[],[1],[0.5833333333333334],vertical,"(390.0, 262.0)",1.0666666666666667,0.537,1,3619.357,3,0.0,same
0,196,valid,"[(1191, 779)]",[],[1],[0.55],horizontal,"(390.0, 762.0)",0.9166666666666666,0.506,1,3625.191,3,0.0,same
0,197,valid,"[(1179, 781)]",[],[1],[0.65],horizontal,"(390.0, 262.0)",0.8333333333333334,0.604,1,3630.762,3,0.0,same
0,198,valid,"[(1180, 783)]",[],[1],[0.85],horizontal,"(390.0, 762.0)",0.43333333333333335,nan,0,3636.173,0,0.0,same
0,199,invalid_adjacent_other_bar,"[(1140, 758)]",[],[1],[0.6666666666666666],horizontal,"(890.0, 262.0)",0.4166666666666667,0.624,1,3640.432,1,0.0,other
0,200,valid,"[(1175, 790)]",[],[1],[0.65],horizontal,"(890.0, 762.0)",0.95,0.602,1,3645.053,1,0.0,same
0,201,catch,"[(1204, 791)]",[],[1],[],horizontal,"(390.0, 262.0)",1.7,nan,1,3649.994,1,0.0,same
0,202,valid,"[(1211, 763)]",[],[1],[0.7166666666666667],vertical,"(890.0, 262.0)",1.2166666666666666,0.67,1,3655.301,2,0.0,same
0,203,valid,"[(1185, 763)]",[],[1],[0.6666666666666666],vertical,"(890.0, 762.0)",0.7333333333333333,0.627,1,3661.205,2,0.0,same
0,204,valid,"[(1179, 786)]",[],[1],[0.5166666666666666],vertical,"(890.0, 762.0)",0.8166666666666667,0.473,1,3666.633,2,0.0,same
0,205,valid,"[(1184, 776)]",[],[1],[0.65],vertical,"(390.0, 262.0)",1.5166666666666666,0.606,1,3672.306,3,0.0,same
0,206,catch,"[(1208, 800)]",[],[1],[],vertical,"(390.0, 262.0)",1.7,nan,1,3679.248,3,0.0,same
0,207,valid,"[(1180, 748), (1122, 817)]",[],"[0, 1]",[0.5833333333333334],horizontal,"(390.0, 762.0)",1.0333333333333332,0.541,1,3685.513,3,0.0,same
0,208,valid,"[(1170, 760)]",[],[1],[0.5666666666666667],vertical,"(390.0, 762.0)",0.5166666666666666,0.522,1,3692.356,3,0.0,same
0,209,valid,"[(1176, 776)]",[],[1],[0.5833333333333334],horizontal,"(890.0, 762.0)",0.5,0.536,1,3697.579,3,0.0,same
0,210,valid,"[(1175, 777)]",[],[1],[0.6166666666666667],vertical,"(390.0, 762.0)",0.65,0.568,1,3702.839,3,0.0,same
0,211,valid,"[(1182, 755)]",[],[1],[0.5833333333333334],horizontal,"(890.0, 262.0)",1.5333333333333332,0.54,1,3708.329,3,0.0,same
0,212,valid,"[(1190, 764)]",[],[1],[0.55],vertical,"(890.0, 262.0)",1.2166666666666666,0.509,1,3714.514,3,0.0,same
0,213,valid,"[(1181, 766)]",[],[1],[0.6833333333333333],horizontal,"(890.0, 262.0)",1.15,0.641,1,3720.079,3,0.0,same
0,214,valid,"[(1177, 772)]",[],[1],[0.6166666666666667],vertical,"(890.0, 762.0)",0.4,0.572,1,3726.223,3,0.0,same
0,215,catch,"[(1175, 772)]",[],[1],[],vertical,"(890.0, 262.0)",1.7,nan,1,3731.546,3,0.0,same
0,216,valid,"[(1177, 764)]",[],[1],[0.7166666666666667],vertical,"(390.0, 762.0)",1.5,0.669,1,3737.928,3,0.0,same
0,217,catch,"[(1185, 778)]",[],[1],[],horizontal,"(890.0, 262.0)",1.7,nan,1,3744.079,3,0.0,same
0,218,valid,"[(1203, 770)]",[],[1],[0.6166666666666667],vertical,"(890.0, 262.0)",0.7166666666666667,0.569,1,3750.028,3,0.0,same
0,219,valid,"[(1177, 786)]",[],[1],[0.5333333333333333],vertical,"(390.0, 762.0)",0.7833333333333333,0.49,1,3755.375,3,0.0,same
0,220,valid,"[(1170, 786)]",[],[1],[0.55],horizontal,"(390.0, 762.0)",1.0,0.507,1,3761.329,3,0.0,same
0,221,catch,"[(1193, 796)]",[],[1],[],vertical,"(890.0, 762.0)",1.7,nan,1,3767.095,3,0.0,same
0,222,catch,"[(1185, 770)]",[],[1],[],horizontal,"(390.0, 762.0)",1.7,nan,1,3773.312,3,0.0,same
0,223,valid,"[(1170, 774)]",[],[1],[0.85],horizontal,"(390.0, 762.0)",0.95,nan,0,3779.512,0,0.0,same
0,224,valid,"[(1143, 769)]",[],[1],[0.6333333333333333],horizontal,"(890.0, 762.0)",1.2166666666666666,0.595,1,3783.928,1,0.0,same
0,225,valid,"[(1200, 776)]",[],[1],[0.8],horizontal,"(390.0, 762.0)",0.7,0.761,1,3789.362,1,0.0,same
0,226,valid,"[(1184, 766)]",[],[1],[0.6666666666666666],horizontal,"(390.0, 262.0)",0.9166666666666666,0.618,1,3794.128,1,0.0,same
0,227,invalid_adjacent_other_bar,"[(1186, 773)]",[],[1],[0.65],horizontal,"(890.0, 262.0)",0.7666666666666666,0.606,1,3799.195,2,0.0,other
0,228,valid,"[(1183, 767)]",[],[1],[0.7333333333333333],vertical,"(890.0, 262.0)",0.4166666666666667,0.689,1,3804.478,2,0.0,same
0,229,valid,"[(1176, 786)]",[],[1],[0.7166666666666667],horizontal,"(890.0, 262.0)",1.1333333333333333,0.674,1,3809.553,2,0.0,same
0,230,valid,"[(1175, 769)]",[],[1],[0.6666666666666666],horizontal,"(390.0, 762.0)",1.0666666666666667,0.626,1,3815.362,3,0.0,same
0,231,catch,"[(1200, 774)]",[],[1],[],vertical,"(890.0, 262.0)",1.7,nan,1,3821.961,3,0.0,same
0,232,invalid_adjacent_other_bar,"[(1175, 786)]",[],[1],[0.5166666666666666],horizontal,"(390.0, 262.0)",0.5833333333333334,0.48,1,3828.194,3,0.0,other
0,233,invalid_adjacent_other_bar,"[(1189, 776)]",[],[1],[0.5166666666666666],horizontal,"(890.0, 262.0)",1.2166666666666666,0.474,1,3833.686,3,0.0,other
0,234,invalid_same_bar,"[(1180, 778)]",[],[1],[0.5833333333333334],vertical,"(890.0, 762.0)",1.2666666666666666,0.543,1,3839.481,3,0.0,same
0,235,valid,"[(1203, 792)]",[],[1],"[0.85, 0.85]",vertical,"(390.0, 762.0)",1.15,"0.815,nan",0,3845.954,0,0.0,same
0,236,valid,"[(1136, 782)]",[],[1],[0.5333333333333333],vertical,"(890.0, 262.0)",0.8666666666666667,0.488,1,3851.18,1,0.0,same
0,237,valid,"[(1177, 789)]",[],[1],[0.7],vertical,"(390.0, 262.0)",1.3833333333333333,0.657,1,3855.945,1,0.0,same
0,238,valid,"[(1169, 769)]",[],[1],[0.85],horizontal,"(890.0, 762.0)",0.7333333333333333,nan,0,3861.113,0,0.0,same
0,239,valid,"[(1138, 824)]",[],[1],[0.5666666666666667],horizontal,"(390.0, 262.0)",0.6333333333333333,0.53,1,3865.646,1,0.0,same
0,240,valid,"[(1179, 776)]",[],[1],[0.7166666666666667],vertical,"(390.0, 262.0)",1.0,0.681,1,3871.284,1,0.0,same
0,241,valid,"[(1177, 782)]",[],[1],[0.55],horizontal,"(890.0, 762.0)",0.5333333333333333,0.511,1,3876.629,1,0.0,same
0,242,catch,"[(1168, 751), (1125, 806)]",[],"[0, 1]",[],vertical,"(390.0, 262.0)",1.7,nan,1,3881.112,2,0.0,same
0,243,invalid_adjacent_other_bar,"[(1176, 778)]",[],[1],[0.85],vertical,"(890.0, 762.0)",0.9833333333333333,nan,0,3888.448,0,0.0,other
0,244,invalid_same_bar,"[(1129, 792)]",[],[1],[0.85],horizontal,"(390.0, 762.0)",0.6,nan,0,3893.092,0,0.0,same
0,245,invalid_same_bar,"[(1138, 802)]",[],[1],[0.85],vertical,"(390.0, 262.0)",0.8666666666666667,nan,0,4130.346,0,0.0,same
0,246,valid,"[(1130, 816)]",[],[1],[0.6166666666666667],vertical,"(390.0, 762.0)",0.7666666666666666,0.57,1,4135.001,1,0.0,same
0,247,catch,"[(1173, 781)]",[],[1],[],horizontal,"(890.0, 262.0)",1.7,nan,1,4141.242,1,0.0,same
0,248,valid,"[(1170, 760)]",[],[1],[0.5666666666666667],horizontal,"(390.0, 262.0)",0.7166666666666667,0.521,1,4146.311,1,0.0,same
0,249,catch,"[(1163, 772)]",[],[1],[],vertical,"(890.0, 762.0)",1.7,nan,1,4150.88,2,0.0,same
0,250,valid,"[(1166, 773)]",[],[1],[0.85],horizontal,"(890.0, 762.0)",0.8,nan,0,4156.553,0,0.0,same
0,251,valid,"[(1163, 776)]",[],[1],[0.55],horizontal,"(390.0, 262.0)",0.9166666666666666,0.505,1,4161.23,1,0.0,same
0,252,valid,"[(1177, 773)]",[],[1],[0.6166666666666667],horizontal,"(390.0, 262.0)",1.0,0.572,1,4166.233,1,0.0,same
0,253,valid,"[(1183, 766)]",[],[1],[0.5],horizontal,"(390.0, 262.0)",0.9166666666666666,0.46,1,4171.646,1,0.0,same
0,254,valid,"[(1180, 751), (1115, 825)]",[],"[0, 1]",[0.65],horizontal,"(890.0, 262.0)",0.75,0.603,1,4176.541,2,0.0,same
0,255,catch,"[(1188, 775)]",[],[1],[],vertical,"(890.0, 262.0)",1.7,nan,1,4183.097,2,0.0,same
0,256,catch,"[(1164, 764)]",[],[1],[],vertical,"(890.0, 762.0)",1.7,nan,1,4188.411,2,0.0,same
0,257,valid,"[(1187, 739), (1135, 816)]",[],"[0, 1]",[0.5833333333333334],horizontal,"(890.0, 262.0)",1.0666666666666667,0.554,1,4194.346,3,0.0,same
0,258,valid,"[(1180, 796)]",[],[1],[0.5666666666666667],vertical,"(390.0, 762.0)",1.05,0.533,1,4200.895,3,0.0,same
0,259,valid,"[(1190, 760)]",[],[1],[0.6],vertical,"(390.0, 262.0)",1.05,0.56,1,4206.513,3,0.0,same
0,260,catch,"[(1163, 782)]",[],[1],[],vertical,"(890.0, 262.0)",1.7,nan,1,4211.88,3,0.0,same
0,261,valid,"[(1160, 791)]",[],[1],[0.6],horizontal,"(390.0, 762.0)",1.5166666666666666,0.563,1,4217.378,3,0.0,same
0,262,valid,"[(1185, 804)]",[],[1],[0.5833333333333334],vertical,"(890.0, 762.0)",0.5,0.536,1,4223.953,3,0.0,same
0,263,catch,"[(1135, 811)]",[],[1],[],horizontal,"(890.0, 262.0)",1.7,nan,1,4229.43,3,0.0,same
0,264,valid,"[(1175, 788)]",[],[1],[0.5],vertical,"(390.0, 262.0)",1.4,0.459,1,4236.221,3,0.0,same
0,265,invalid_adjacent_other_bar,"[(1175, 807)]",[],[1],[0.6333333333333333],vertical,"(890.0, 762.0)",0.85,0.591,1,4242.565,3,0.0,other
0,266,valid,"[(1175, 783)]",[],[1],[0.6],vertical,"(890.0, 262.0)",0.6333333333333333,0.557,1,4248.212,3,0.0,same
0,267,valid,"[(1179, 777)]",[],[1],[0.5333333333333333],horizontal,"(390.0, 262.0)",0.95,0.499,1,4253.61,3,0.0,same
0,268,catch,"[(1178, 778)]",[],[1],[],horizontal,"(890.0, 762.0)",1.7,nan,1,4259.624,3,0.0,same
0,269,invalid_adjacent_other_bar,"[(1178, 793)]",[],[1],[0.6],horizontal,"(390.0, 762.0)",0.7666666666666666,0.558,1,4265.573,3,0.0,other
0,270,invalid_same_bar,"[(1180, 773)]",[],[1],[0.5333333333333333],vertical,"(390.0, 262.0)",0.55,0.49,1,4271.33,3,0.0,same
0,271,valid,"[(1180, 776)]",[],[1],[0.6333333333333333],horizontal,"(890.0, 262.0)",1.3166666666666667,0.595,1,4276.333,3,0.0,same
0,272,catch,"[(1194, 793)]",[],[1],[],horizontal,"(390.0, 762.0)",1.7,nan,1,4282.531,3,0.0,same
0,273,catch,"[(1161, 778)]",[],[1],[],vertical,"(390.0, 762.0)",1.7,nan,1,4288.304,3,0.0,same
0,274,invalid_same_bar,"[(1180, 800)]",[],[1],[0.65],vertical,"(890.0, 762.0)",0.4,0.606,1,4294.292,3,0.0,same
0,275,valid,"[(1207, 769)]",[],[1],[0.6833333333333333],horizontal,"(390.0, 762.0)",0.5333333333333333,0.644,1,4299.444,3,0.0,same
0,276,catch,"[(1206, 786)]",[],[1],[],horizontal,"(390.0, 262.0)",1.7,nan,1,4304.797,3,0.0,same
0,277,valid,"[(1190, 764)]",[],[1],[0.65],horizontal,"(390.0, 762.0)",1.2333333333333334,0.611,1,4310.93,3,0.0,same
0,278,valid,"[(1165, 769)]",[],[1],[0.6833333333333333],horizontal,"(390.0, 262.0)",1.1666666666666667,0.641,1,4316.98,3,0.0,same
0,279,valid,"[(1175, 774)]",[],[1],[0.7],vertical,"(890.0, 262.0)",1.2666666666666666,0.658,1,4323.23,3,0.0,same
0,280,catch,"[(1179, 782)]",[],[1],[],vertical,"(890.0, 762.0)",1.7,nan,1,4329.382,3,0.0,same
0,281,valid,"[(1181, 761)]",[],[1],[0.6333333333333333],vertical,"(390.0, 762.0)",0.65,0.591,1,4335.712,3,0.0,same
0,282,valid,"[(1185, 761)]",[],[1],[0.5166666666666666],horizontal,"(890.0, 262.0)",0.4,0.472,1,4341.514,3,0.0,same
0,283,valid,"[(1140, 800)]",[],[1],[0.6333333333333333],horizontal,"(890.0, 762.0)",0.35,0.593,1,4346.329,3,0.0,same
0,284,valid,"[(1178, 777)]",[],[1],[0.5666666666666667],vertical,"(390.0, 262.0)",1.3333333333333333,0.53,1,4353.879,3,0.0,same
0,285,valid,"[(1178, 775)]",[],[1],[0.55],vertical,"(890.0, 762.0)",1.45,0.507,1,4359.696,3,0.0,same
0,286,valid,"[(1181, 782)]",[],[1],[0.5666666666666667],horizontal,"(390.0, 762.0)",0.9,0.526,1,4366.148,3,0.0,same
0,287,invalid_same_bar,"[(1180, 767)]",[],[1],[0.6166666666666667],horizontal,"(890.0, 762.0)",0.36666666666666664,0.577,1,4371.93,3,0.0,same
0,288,valid,"[(1175, 772)]",[],[1],[0.5333333333333333],vertical,"(890.0, 262.0)",0.9833333333333333,0.497,1,4376.779,3,0.0,same
0,289,invalid_same_bar,"[(1198, 773)]",[],[1],[0.5833333333333334],horizontal,"(890.0, 262.0)",1.45,0.549,1,4382.547,3,0.0,same
0,290,invalid_adjacent_other_bar,"[(1185, 765)]",[],[1],[0.5833333333333334],horizontal,"(390.0, 262.0)",1.5333333333333332,0.537,1,4388.881,3,0.0,other
0,291,invalid_same_bar,"[(1178, 792)]",[],[1],[0.6],vertical,"(390.0, 262.0)",1.2333333333333334,0.561,1,4395.097,3,0.0,same
0,292,catch,"[(1179, 761)]",[],[1],[],horizontal,"(890.0, 762.0)",1.7,nan,1,4401.529,3,0.0,same
0,293,valid,"[(1183, 764)]",[],[1],[0.5833333333333334],horizontal,"(390.0, 262.0)",1.0166666666666666,0.541,1,4407.63,3,0.0,same
0,294,valid,"[(1178, 782)]",[],[1],[0.3],horizontal,"(390.0, 262.0)",1.5,0.265,1,4413.418,3,0.0,same
0,295,valid,"[(1155, 747), (1131, 803)]",[],"[0, 1]",[0.45],horizontal,"(390.0, 262.0)",1.5333333333333332,0.411,1,4419.731,3,0.0,same
0,296,valid,"[(1188, 791)]",[],[1],[0.5833333333333334],horizontal,"(390.0, 762.0)",0.3833333333333333,0.54,1,4426.982,3,0.0,same
0,297,valid,"[(1178, 759)]",[],[1],[0.5166666666666666],horizontal,"(890.0, 762.0)",0.85,0.481,1,4432.198,3,0.0,same
0,298,valid,"[(1186, 775)]",[],[1],[0.6166666666666667],vertical,"(390.0, 262.0)",1.5333333333333332,0.572,1,4437.932,3,0.0,same
0,299,catch,"[(1175, 778)]",[],[1],[],vertical,"(390.0, 262.0)",1.7,nan,1,4444.271,3,0.0,same
0,300,catch,"[(1176, 762)]",[],[1],[],horizontal,"(390.0, 762.0)",1.7,nan,1,4450.614,3,0.0,same
0,301,valid,"[(1204, 778)]",[],[1],[0.5333333333333333],vertical,"(890.0, 762.0)",1.0833333333333333,0.49,1,4456.214,3,0.0,same
0,302,invalid_adjacent_other_bar,"[(1162, 766)]",[],[1],[0.7833333333333333],horizontal,"(890.0, 262.0)",1.2833333333333332,0.743,1,4462.681,3,0.0,other
0,303,catch,"[(1174, 760)]",[],[1],[],vertical,"(390.0, 262.0)",1.7,nan,1,4469.097,3,0.0,same
0,304,valid,"[(1177, 771)]",[],[1],[0.7333333333333333],vertical,"(390.0, 262.0)",1.4666666666666666,0.684,1,4475.273,3,0.0,same
0,305,valid,"[(1175, 783)]",[],[1],[0.6833333333333333],horizontal,"(390.0, 262.0)",1.2,0.636,1,4482.264,3,0.0,same
0,306,valid,"[(1175, 777)]",[],[1],[0.7666666666666666],horizontal,"(890.0, 262.0)",0.3833333333333333,0.716,1,4488.614,3,0.0,same
0,307,valid,"[(1186, 768)]",[],[1],[0.85],vertical,"(390.0, 762.0)",0.55,nan,0,4493.914,0,0.0,same
0,308,invalid_same_bar,"[(1155, 747), (1120, 793)]",[],"[0, 1]",[0.6],vertical,"(890.0, 262.0)",0.8666666666666667,0.555,1,4498.263,1,0.0,same
0,309,valid,"[(1200, 775)]",[],[1],[0.85],vertical,"(390.0, 262.0)",0.8833333333333333,nan,0,4505.118,0,0.0,same
0,310,catch,"[(1173, 769)]",[],[1],[],horizontal,"(390.0, 762.0)",1.7,nan,1,4510.171,1,0.0,same
0,311,valid,"[(1180, 791)]",[],[1],[0.5833333333333334],horizontal,"(390.0, 262.0)",0.6666666666666666,0.544,1,4515.912,1,0.0,same
0,312,valid,"[(1175, 774)]",[],[1],[0.6],horizontal,"(890.0, 262.0)",0.7166666666666667,0.56,1,4520.636,1,0.0,same
0,313,valid,"[(1200, 800)]",[],[1],[0.6833333333333333],horizontal,"(890.0, 762.0)",0.9666666666666667,0.635,1,4525.141,2,0.0,same
0,314,valid,"[(1180, 779)]",[],[1],[0.5833333333333334],vertical,"(890.0, 262.0)",1.1166666666666667,0.542,1,4530.804,2,0.0,same
0,315,invalid_same_bar,"[(1208, 771)]",[],[1],[0.55],vertical,"(890.0, 262.0)",0.48333333333333334,0.505,1,4536.347,2,0.0,same
0,316,valid,"[(1191, 771)]",[],[1],[0.5666666666666667],horizontal,"(390.0, 262.0)",0.3833333333333333,0.526,1,4541.006,3,0.0,same
0,317,valid,"[(1178, 755)]",[],[1],[0.5666666666666667],vertical,"(890.0, 762.0)",0.9666666666666667,0.521,1,4546.512,3,0.0,same
0,318,catch,"[(1208, 793)]",[],[1],[],horizontal,"(390.0, 262.0)",1.7,nan,1,4552.397,3,0.0,same
0,319,valid,"[(1180, 804)]",[],[1],[0.55],horizontal,"(890.0, 762.0)",0.9833333333333333,0.507,1,4558.68,3,0.0,same
0,320,valid,"[(1183, 772)]",[],[1],[0.55],vertical,"(390.0, 262.0)",0.55,0.509,1,4564.614,3,0.0,same
0,321,valid,"[(1199, 779)]",[],[1],[0.55],vertical,"(390.0, 762.0)",0.9,0.507,1,4569.953,3,0.0,same
0,322,valid,"[(1174, 774)]",[],[1],[0.5833333333333334],vertical,"(890.0, 262.0)",1.0833333333333333,0.541,1,4575.457,3,0.0,same
0,323,invalid_adjacent_other_bar,"[(1208, 783)]",[],[1],[0.5333333333333333],horizontal,"(890.0, 762.0)",0.85,0.492,1,4581.264,3,0.0,other
0,324,valid,"[(1168, 798)]",[],[1],[0.65],horizontal,"(890.0, 262.0)",1.2,0.602,1,4586.791,3,0.0,same
0,325,valid,"[(1207, 787)]",[],[1],[0.5333333333333333],vertical,"(890.0, 762.0)",0.8333333333333334,0.487,1,4592.781,3,0.0,same
0,326,valid,"[(1178, 771)]",[],[1],[0.6166666666666667],horizontal,"(390.0, 262.0)",1.2,0.573,1,4598.399,3,0.0,same
0,327,valid,"[(1170, 784)]",[],[1],[0.5666666666666667],vertical,"(390.0, 262.0)",1.2,0.526,1,4604.446,3,0.0,same
0,328,invalid_adjacent_other_bar,"[(1176, 755)]",[],[1],[0.85],horizontal,"(390.0, 262.0)",1.2833333333333332,nan,0,4610.379,0,0.0,other
0,329,valid,"[(1165, 775)]",[],[1],[0.5333333333333333],horizontal,"(890.0, 762.0)",0.8333333333333334,0.506,1,4615.389,1,0.0,same
0,330,valid,"[(1188, 782)]",[],[1],[0.5166666666666666],horizontal,"(890.0, 262.0)",1.1166666666666667,0.477,1,4620.202,1,0.0,same
0,331,valid,"[(1204, 776)]",[],[1],[0.5333333333333333],vertical,"(390.0, 762.0)",0.8833333333333333,0.492,1,4625.033,1,0.0,same
0,332,valid,"[(1185, 781)]",[],[1],[0.5833333333333334],horizontal,"(390.0, 762.0)",1.5166666666666666,0.54,1,4629.83,2,0.0,same
0,333,valid,"[(1200, 763)]",[],[1],[0.6],horizontal,"(390.0, 762.0)",1.2166666666666666,0.561,1,4636.247,2,0.0,same
0,334,valid,"[(1190, 761)]",[],[1],[0.65],horizontal,"(890.0, 762.0)",0.7166666666666667,0.601,1,4641.946,2,0.0,same
0,335,catch,"[(1133, 803)]",[],[1],[],vertical,"(890.0, 262.0)",1.7,nan,1,4647.013,3,0.0,same
0,336,catch,"[(1177, 760)]",[],[1],[],vertical,"(390.0, 762.0)",1.7,nan,1,4653.546,3,0.0,same
0,337,catch,"[(1209, 769)]",[],[1],[],horizontal,"(890.0, 262.0)",1.7,nan,1,4659.107,3,0.0,same
0,338,catch,"[(1180, 774)]",[],[1],[],vertical,"(890.0, 262.0)",1.7,nan,1,4665.38,3,0.0,same
0,339,valid,"[(1180, 766)]",[],[1],[0.55],horizontal,"(390.0, 262.0)",0.8833333333333333,0.51,1,4671.168,3,0.0,same
0,340,valid,"[(1185, 776)]",[],[1],[0.6833333333333333],vertical,"(390.0, 762.0)",0.6166666666666667,0.64,1,4676.997,3,0.0,same
0,341,catch,"[(1190, 761)]",[],[1],[],vertical,"(890.0, 262.0)",1.7,nan,1,4682.848,3,0.0,same
0,342,valid,"[(1187, 757)]",[],[1],[0.5166666666666666],horizontal,"(890.0, 262.0)",0.5666666666666667,0.475,1,4688.897,3,0.0,same
0,343,catch,"[(1185, 760)]",[],[1],[],horizontal,"(890.0, 762.0)",1.7,nan,1,4694.013,3,0.0,same
0,344,valid,"[(1176, 775)]",[],[1],[0.8],horizontal,"(390.0, 762.0)",0.6833333333333333,0.758,1,4700.337,3,0.0,same
0,345,valid,"[(1180, 772)]",[],[1],[0.7666666666666666],vertical,"(890.0, 262.0)",1.1333333333333333,0.722,1,4706.281,3,0.0,same
0,346,valid,"[(1175, 768)]",[],[1],[0.55],vertical,"(890.0, 762.0)",1.25,0.511,1,4712.564,3,0.0,same
0,347,invalid_adjacent_other_bar,"[(1174, 766)]",[],[1],[0.85],vertical,"(390.0, 262.0)",0.7333333333333333,nan,0,4718.548,0,0.0,other
0,348,valid,"[(1169, 755)]",[],[1],[0.6],vertical,"(390.0, 762.0)",0.5166666666666666,0.557,1,4723.079,1,0.0,same
0,349,catch,"[(1195, 773)]",[],[1],[],horizontal,"(390.0, 762.0)",,"('cti', 1.561),nan",0,4728.064,0,0.02,same
0,350,valid,"[(1165, 815)]",[],[1],[0.5666666666666667],vertical,"(890.0, 262.0)",1.15,0.522,1,4732.838,1,0.02,same
0,351,invalid_same_bar,"[(1192, 811)]",[],[1],[0.85],horizontal,"(890.0, 262.0)",0.3833333333333333,nan,0,4738.247,0,0.02,same
0,352,valid,"[(1165, 779)]",[],[1],[0.6333333333333333],vertical,"(390.0, 762.0)",1.4,0.589,1,4742.614,1,0.02,same
0,353,valid,"[(1176, 752), (1116, 801)]",[],"[0, 1]",[0.5833333333333334],vertical,"(390.0, 762.0)",0.7333333333333333,0.54,1,4747.712,1,0.02,same
0,354,valid,"[(1163, 799)]",[],[1],[0.6],horizontal,"(390.0, 262.0)",0.55,0.553,1,4753.703,1,0.02,same
0,355,valid,"[(1203, 788)]",[],[1],[0.6166666666666667],horizontal,"(390.0, 262.0)",0.8,0.58,1,4758.707,2,0.02,same
0,356,valid,"[(1194, 773)]",[],[1],[0.85],vertical,"(390.0, 762.0)",0.5166666666666666,nan,0,4764.145,0,0.02,same
0,357,valid,"[(1126, 772)]",[],[1],[0.7166666666666667],vertical,"(390.0, 762.0)",0.9666666666666667,0.677,1,4768.248,1,0.02,same
0,358,invalid_adjacent_other_bar,"[(1175, 776)]",[],[1],[0.6166666666666667],vertical,"(390.0, 262.0)",0.7166666666666667,0.571,1,4773.63,1,0.02,other
0,359,valid,"[(1186, 794)]",[],[1],[0.6333333333333333],vertical,"(390.0, 262.0)",0.7333333333333333,0.594,1,4778.282,1,0.02,same
0,360,valid,"[(1168, 783)]",[],[1],[0.5],horizontal,"(890.0, 762.0)",1.5333333333333332,0.457,1,4782.997,2,0.02,same
0,361,valid,"[(1160, 760)]",[],[1],[0.85],horizontal,"(890.0, 762.0)",0.6333333333333333,nan,0,4789.183,0,0.02,same
0,362,invalid_same_bar,"[(1158, 796)]",[],[1],[0.48333333333333334],vertical,"(890.0, 262.0)",1.4333333333333333,0.442,1,4793.93,1,0.02,same
0,363,catch,"[(1175, 802)]",[],[1],[],vertical,"(390.0, 262.0)",1.7,nan,1,4799.363,1,0.02,same
0,364,invalid_same_bar,"[(1155, 789)]",[],[1],[0.6666666666666666],horizontal,"(890.0, 762.0)",1.3333333333333333,0.625,1,4804.512,1,0.02,same
0,365,catch,"[(1177, 781)]",[],[1],[],horizontal,"(390.0, 762.0)",1.7,nan,1,4810.095,2,0.02,same
0,366,valid,"[(1208, 763)]",[],[1],[0.6],vertical,"(890.0, 262.0)",0.36666666666666664,0.565,1,4815.747,2,0.02,same
0,367,catch,"[(1180, 765)]",[],[1],[],horizontal,"(890.0, 762.0)",1.7,nan,1,4820.867,2,0.02,same
0,368,valid,"[(1180, 781)]",[],[1],[0.65],horizontal,"(390.0, 262.0)",0.6666666666666666,0.609,1,4826.252,3,0.02,same
0,369,valid,"[(1184, 785)]",[],[1],[0.6],horizontal,"(390.0, 762.0)",1.25,0.555,1,4832.131,3,0.02,same
0,370,valid,"[(1190, 773)]",[],[1],[0.6166666666666667],horizontal,"(890.0, 762.0)",0.95,0.575,1,4838.148,3,0.02,same
0,371,catch,"[(1185, 767)]",[],[1],[],vertical,"(390.0, 762.0)",1.7,nan,1,4843.965,3,0.02,same
0,372,catch,"[(1160, 755)]",[],[1],[],vertical,"(890.0, 762.0)",1.7,nan,1,4849.813,3,0.02,same
0,373,valid,"[(1172, 782)]",[],[1],[0.85],vertical,"(390.0, 262.0)",0.6,nan,0,4856.097,0,0.02,same
0,374,valid,"[(1121, 786)]",[],[1],[0.6],vertical,"(390.0, 762.0)",1.3833333333333333,0.555,1,4860.84,1,0.02,same
0,375,valid,"[(1178, 764)]",[],[1],[0.6666666666666666],vertical,"(390.0, 762.0)",0.36666666666666664,0.62,1,4866.731,1,0.02,same
0,376,valid,"[(1175, 776)]",[],[1],[0.6166666666666667],horizontal,"(390.0, 762.0)",1.1166666666666667,0.575,1,4871.236,1,0.02,same
0,377,valid,"[(1175, 774)]",[],[1],[0.5666666666666667],vertical,"(390.0, 762.0)",0.4,0.534,1,4876.198,2,0.02,same
0,378,invalid_same_bar,"[(1193, 773)]",[],[1],[0.5],vertical,"(890.0, 262.0)",1.5333333333333332,0.459,1,4881.151,2,0.02,same
0,379,valid,"[(1179, 773)]",[],[1],[0.6333333333333333],vertical,"(390.0, 762.0)",1.1833333333333333,0.592,1,4886.944,2,0.02,same
0,380,invalid_adjacent_other_bar,"[(1191, 763)]",[],[1],[0.5666666666666667],horizontal,"(890.0, 762.0)",0.4666666666666667,0.523,1,4892.581,3,0.02,other
0,381,valid,"[(1183, 759)]",[],[1],[0.6833333333333333],vertical,"(390.0, 262.0)",1.2333333333333334,0.643,1,4897.955,3,0.02,same
0,382,catch,"[(1160, 753), (1133, 802)]",[],"[0, 1]",[],horizontal,"(890.0, 762.0)",1.7,nan,1,4903.602,3,0.02,same
0,383,valid,"[(1176, 791)]",[],[1],[0.5166666666666666],vertical,"(890.0, 262.0)",0.9166666666666666,0.473,1,4911.429,3,0.02,same
0,384,catch,"[(1190, 781)]",[],[1],[],vertical,"(390.0, 762.0)",1.7,nan,1,4917.43,3,0.02,same
0,385,valid,"[(1175, 787)]",[],[1],[0.05],horizontal,"(390.0, 762.0)",1.1333333333333333,0.018,0,4923.464,0,0.02,same
0,386,catch,"[(1146, 769)]",[],[1],[],vertical,"(890.0, 762.0)",1.7,nan,1,4927.647,1,0.02,same
0,387,catch,"[(1179, 787)]",[],[1],[],vertical,"(890.0, 262.0)",1.7,nan,1,4933.182,1,0.02,same
0,388,valid,"[(1162, 779)]",[],[1],[0.55],horizontal,"(390.0, 262.0)",1.2166666666666666,0.511,1,4938.664,1,0.02,same
0,389,catch,"[(1191, 785)]",[],[1],[],horizontal,"(390.0, 762.0)",,"('cti', 1.537),nan",0,4944.114,0,0.04,same
0,390,invalid_same_bar,"[(1155, 787)]",[],[1],[0.85],horizontal,"(390.0, 262.0)",1.4,nan,0,4948.915,0,0.04,same
0,391,valid,"[(1155, 777)]",[],[1],[0.5333333333333333],horizontal,"(390.0, 262.0)",0.7166666666666667,0.491,1,4953.698,1,0.04,same
0,392,catch,"[(1161, 774)]",[],[1],[],vertical,"(390.0, 262.0)",1.7,nan,1,4958.714,1,0.04,same
0,393,valid,"[(1179, 760)]",[],[1],[0.85],vertical,"(890.0, 762.0)",1.1666666666666667,nan,0,4963.78,0,0.04,same
0,394,catch,"[(1136, 756)]",[],[1],[],vertical,"(390.0, 262.0)",1.7,nan,1,4968.793,1,0.04,same
0,395,invalid_adjacent_other_bar,"[(1177, 775)]",[],[1],[0.65],vertical,"(390.0, 762.0)",1.3666666666666667,0.621,1,4974.159,1,0.04,other
0,396,valid,"[(1185, 772)]",[],[1],[0.6833333333333333],horizontal,"(890.0, 762.0)",0.8833333333333333,0.637,1,4979.553,1,0.04,same
0,397,valid,"[(1175, 777)]",[],[1],[0.7],horizontal,"(890.0, 262.0)",0.7166666666666667,0.654,1,4984.431,2,0.04,same
0,398,catch,"[(1165, 781)]",[],[1],[],horizontal,"(390.0, 262.0)",1.7,nan,1,4989.665,2,0.04,same
0,399,valid,"[(1176, 776)]",[],[1],[0.55],vertical,"(890.0, 762.0)",0.8166666666666667,0.508,1,4995.119,2,0.02,same
0,400,invalid_same_bar,"[(1176, 776)]",[],[1],[0.5333333333333333],horizontal,"(890.0, 762.0)",1.4,0.49,1,5000.712,3,0.02,same
0,401,valid,"[(1190, 786)]",[],[1],[0.85],vertical,"(890.0, 262.0)",0.5,nan,0,5006.765,0,0.02,same
0,402,valid,"[(1141, 756)]",[],[1],[0.6666666666666666],vertical,"(390.0, 762.0)",0.6833333333333333,0.62,1,5011.235,1,0.02,same
0,403,catch,"[(1204, 792)]",[],[1],[],horizontal,"(390.0, 762.0)",1.7,nan,1,5016.363,1,0.02,same
0,404,invalid_adjacent_other_bar,"[(1170, 761)]",[],[1],[0.5666666666666667],vertical,"(890.0, 262.0)",0.5833333333333334,0.524,1,5021.088,1,0.02,other
0,405,valid,"[(1181, 787)]",[],[1],[0.5166666666666666],horizontal,"(390.0, 262.0)",0.5666666666666667,0.476,1,5025.699,2,0.02,same
0,406,invalid_adjacent_other_bar,"[(1175, 781)]",[],[1],[0.5833333333333334],vertical,"(390.0, 762.0)",1.1166666666666667,0.54,1,5030.6,2,0.02,other
0,407,invalid_adjacent_other_bar,"[(1180, 762)]",[],[1],[0.6],vertical,"(890.0, 762.0)",1.5,0.561,1,5036.165,2,0.02,other
0,408,valid,"[(1180, 778)]",[],[1],[0.6166666666666667],vertical,"(890.0, 262.0)",1.2166666666666666,0.576,1,5041.874,3,0.02,same
0,409,valid,"[(1163, 782)]",[],[1],[0.5666666666666667],horizontal,"(890.0, 762.0)",1.0333333333333332,0.522,1,5048.074,3,0.02,same
0,410,invalid_same_bar,"[(1162, 783)]",[],[1],[0.43333333333333335],vertical,"(890.0, 762.0)",1.5,0.393,1,5053.647,3,0.02,same
0,411,catch,"[(1204, 771)]",[],[1],[],vertical,"(890.0, 762.0)",1.7,nan,1,5060.148,3,0.02,same
0,412,valid,"[(1170, 776)]",[],[1],[0.5333333333333333],vertical,"(390.0, 762.0)",0.45,0.489,1,5065.732,3,0.02,same
0,413,valid,"[(1165, 779)]",[],[1],[0.6166666666666667],horizontal,"(890.0, 762.0)",1.4166666666666667,0.571,1,5071.172,3,0.02,same
0,414,valid,"[(1178, 770)]",[],[1],[0.5166666666666666],horizontal,"(890.0, 262.0)",0.8333333333333334,0.473,1,5077.064,3,0.02,same
0,415,valid,"[(1178, 780)]",[],[1],[0.48333333333333334],horizontal,"(890.0, 262.0)",1.35,0.442,1,5082.191,3,0.02,same
0,416,valid,"[(1096, 822)]",[],[1],[0.85],vertical,"(890.0, 262.0)",1.0666666666666667,nan,0,5088.514,0,0.02,same
0,417,invalid_same_bar,"[(1086, 840)]",[],[1],[],vertical,"(890.0, 262.0)",,"('cti', 0.081)",0,5208.717,0,0.02,same
0,418,valid,"[(1135, 825)]",[],[1],[0.85],horizontal,"(890.0, 762.0)",1.35,nan,0,5215.461,0,0.02,same
0,419,valid,"[(1085, 870)]",[],[1],[0.7166666666666667],vertical,"(390.0, 762.0)",0.35,0.667,1,5221.321,1,0.02,same
0,420,catch,"[(1150, 826)]",[],[1],[],horizontal,"(890.0, 762.0)",1.7,nan,1,5227.231,1,0.02,same
0,421,valid,"[(1085, 839)]",[],[1],[0.85],horizontal,"(390.0, 762.0)",1.25,nan,0,5232.964,0,0.02,same
0,422,valid,"[(1082, 855)]",[],[1],[0.85],horizontal,"(390.0, 262.0)",0.5166666666666666,nan,0,5240.798,0,0.02,same
0,423,valid,"[(1124, 783)]",[],[1],[0.85],vertical,"(890.0, 262.0)",1.0666666666666667,nan,0,5246.381,0,0.02,same
0,424,valid,"[(1084, 758)]",[],[1],[0.85],horizontal,"(890.0, 262.0)",0.8166666666666667,nan,0,5251.281,0,0.02,same
0,425,catch,"[(1104, 807)]",[],[1],[],vertical,"(390.0, 262.0)",1.7,nan,1,5256.43,1,0.02,same
0,426,valid,"[(1150, 794)]",[],[1],[0.85],vertical,"(390.0, 762.0)",0.5,nan,0,5262.25,0,0.02,same
0,427,valid,"[(1138, 812)]",[],[1],[0.6333333333333333],vertical,"(390.0, 762.0)",0.75,0.592,1,5266.781,1,0.02,same
0,428,valid,"[(1148, 811)]",[],[1],[0.85],vertical,"(890.0, 762.0)",0.43333333333333335,nan,0,5272.631,0,0.02,same
0,429,valid,"[(1146, 815)]",[],[1],[0.85],horizontal,"(390.0, 762.0)",1.0,nan,0,5276.998,0,0.02,same
0,430,catch,"[(1124, 800)]",[],[1],[],horizontal,"(390.0, 762.0)",1.7,nan,1,5282.091,1,0.02,same
0,431,valid,"[(1177, 823)]",[],[1],[0.6166666666666667],vertical,"(890.0, 762.0)",0.3833333333333333,0.575,1,5287.165,1,0.02,same
0,432,valid,"[(1162, 815)]",[],[1],[0.8],vertical,"(390.0, 262.0)",1.2666666666666666,0.753,1,5291.731,1,0.02,same
0,433,invalid_adjacent_other_bar,"[(1167, 797)]",[],[1],[0.6333333333333333],vertical,"(390.0, 762.0)",0.4,0.593,1,5297.331,2,0.02,other
0,434,invalid_adjacent_other_bar,"[(1158, 791)]",[],[1],[0.85],vertical,"(390.0, 762.0)",0.95,nan,0,5302.297,0,0.02,other
0,435,catch,"[(1133, 796)]",[],[1],[],horizontal,"(390.0, 262.0)",1.7,nan,1,5307.287,1,0.02,same
0,436,catch,"[(1162, 808)]",[],[1],[],vertical,"(390.0, 262.0)",1.7,nan,1,5312.716,1,0.02,same
0,437,valid,"[(1096, 819)]",[],[1],[0.5833333333333334],vertical,"(390.0, 762.0)",1.45,0.544,1,5318.291,1,0.02,same
0,438,valid,"[(1166, 795)]",[],[1],[0.75],vertical,"(890.0, 262.0)",1.4833333333333334,0.705,1,5326.314,2,0.02,same
0,439,valid,"[(1165, 797)]",[],[1],[0.85],horizontal,"(890.0, 262.0)",0.6166666666666667,nan,0,5332.798,0,0.0,same
0,440,valid,"[(1152, 772)]",[],[1],[0.85],vertical,"(390.0, 762.0)",0.36666666666666664,nan,0,5337.481,0,0.0,same
0,441,valid,"[(1149, 773)]",[],[1],[0.85],vertical,"(390.0, 262.0)",1.3333333333333333,nan,0,5342.071,0,0.0,same
0,442,valid,"[(1131, 778)]",[],[1],[0.6166666666666667],vertical,"(890.0, 762.0)",0.7666666666666666,0.571,1,5347.347,1,0.0,same
0,443,valid,"[(1175, 782)]",[],[1],[0.85],vertical,"(390.0, 262.0)",1.25,nan,0,5352.382,0,0.0,same
0,444,valid,"[(1094, 815)]",[],[1],[0.5833333333333334],vertical,"(390.0, 762.0)",0.6666666666666666,0.551,1,5357.237,1,0.0,same
0,445,catch,"[(1171, 778)]",[],[1],[],vertical,"(890.0, 262.0)",1.7,nan,1,5363.632,1,0.0,same
0,446,valid,"[(1166, 781)]",[],[1],[0.5666666666666667],horizontal,"(390.0, 762.0)",0.7,0.523,1,5368.449,1,0.0,same
0,447,catch,"[(1180, 768)]",[],[1],[],vertical,"(390.0, 762.0)",1.7,nan,1,5373.324,2,0.0,same
0,448,invalid_same_bar,"[(1173, 793)]",[],[1],[0.5333333333333333],horizontal,"(890.0, 262.0)",0.8333333333333334,0.497,1,5379.222,2,0.0,same
0,449,valid,"[(1171, 788)]",[],[1],"[0.85, 0.85]",horizontal,"(390.0, 762.0)",0.45,"0.793,nan",0,5384.385,0,0.0,same
0,450,catch,"[(1140, 791)]",[],[1],[],vertical,"(390.0, 762.0)",1.7,nan,1,5388.707,1,0.0,same
0,451,valid,"[(1178, 777)]",[],[1],[0.5333333333333333],vertical,"(890.0, 262.0)",1.1666666666666667,0.506,1,5394.163,1,0.0,same
0,452,valid,"[(1180, 801)]",[],[1],[0.5333333333333333],horizontal,"(890.0, 262.0)",0.7666666666666666,0.494,1,5399.802,1,0.0,same
0,453,valid,"[(1181, 772)]",[],[1],[0.5333333333333333],vertical,"(890.0, 262.0)",1.0166666666666666,0.489,1,5404.266,2,0.0,same
0,454,valid,"[(1159, 777)]",[],[1],[0.65],vertical,"(890.0, 262.0)",1.2,0.606,1,5409.989,2,0.0,same
0,455,valid,"[(1188, 782)]",[],[1],[0.5333333333333333],horizontal,"(390.0, 262.0)",0.9,0.493,1,5415.409,2,0.0,same
0,456,invalid_adjacent_other_bar,"[(1160, 809)]",[],[1],[0.85],horizontal,"(390.0, 762.0)",1.2833333333333332,nan,0,5420.805,0,0.0,other
0,457,invalid_same_bar,"[(1146, 765)]",[],[1],[0.5666666666666667],vertical,"(890.0, 762.0)",1.3666666666666667,0.525,1,5426.111,1,0.0,same
0,458,valid,"[(1204, 791)]",[],[1],[0.5166666666666666],horizontal,"(890.0, 762.0)",0.6,0.48,1,5431.866,1,0.0,same
0,459,valid,"[(1188, 774)]",[],[1],[0.6833333333333333],horizontal,"(890.0, 262.0)",0.8333333333333334,0.638,1,5436.215,1,0.0,same
0,460,valid,"[(1192, 759)]",[],[1],[0.7166666666666667],vertical,"(890.0, 262.0)",1.2166666666666666,0.67,1,5441.014,2,0.0,same
0,461,valid,"[(1195, 782)]",[],[1],[0.65],vertical,"(890.0, 262.0)",0.7333333333333333,0.609,1,5446.642,2,0.0,same
0,462,catch,"[(1167, 788)]",[],[1],[],vertical,"(890.0, 762.0)",1.7,nan,1,5451.474,2,0.0,same
0,463,invalid_same_bar,"[(1189, 758)]",[],[1],[0.5666666666666667],vertical,"(890.0, 762.0)",0.9333333333333333,0.528,1,5457.342,3,0.0,same
0,464,valid,"[(1195, 775)]",[],[1],[0.85],vertical,"(890.0, 762.0)",1.0833333333333333,nan,0,5463.246,0,0.0,same
0,465,valid,"[(1159, 779)]",[],[1],[0.5666666666666667],vertical,"(390.0, 262.0)",0.8333333333333334,0.525,1,5467.832,1,0.0,same
0,466,catch,"[(1200, 797)]",[],[1],[],vertical,"(890.0, 762.0)",1.7,nan,1,5472.581,1,0.0,same
0,467,valid,"[(1204, 785)]",[],[1],[0.5833333333333334],horizontal,"(390.0, 762.0)",1.2666666666666666,0.536,1,5478.034,1,0.0,same
0,468,catch,"[(1180, 786)]",[],[1],[],horizontal,"(390.0, 762.0)",1.7,nan,1,5483.248,2,0.0,same
0,469,invalid_same_bar,"[(1160, 765)]",[],[1],[0.6],vertical,"(890.0, 762.0)",0.5666666666666667,0.557,1,5489.018,2,0.0,same
0,470,valid,"[(1180, 772)]",[],[1],[0.5166666666666666],vertical,"(890.0, 262.0)",0.9333333333333333,0.479,1,5493.866,2,0.0,same
0,471,valid,"[(1205, 750), (1131, 815)]",[],"[0, 1]",[0.65],horizontal,"(390.0, 262.0)",0.4666666666666667,0.6,1,5499.025,3,0.0,same
0,472,invalid_adjacent_other_bar,"[(1180, 765)]",[],[1],[0.5833333333333334],vertical,"(390.0, 262.0)",1.5166666666666666,0.539,1,5505.798,3,0.0,other
0,473,valid,"[(1180, 779)]",[],[1],[0.45],vertical,"(890.0, 262.0)",1.4,0.406,1,5512.114,3,0.0,same
0,474,valid,"[(1200, 777)]",[],[1],[0.55],horizontal,"(390.0, 762.0)",0.5166666666666666,0.504,1,5518.683,3,0.0,same
0,475,valid,"[(1194, 789)]",[],[1],[0.6333333333333333],vertical,"(390.0, 762.0)",1.2,0.592,1,5524.099,3,0.0,same
0,476,valid,"[(1190, 770)]",[],[1],[0.5],vertical,"(390.0, 262.0)",1.35,0.463,1,5530.081,3,0.0,same
0,477,valid,"[(1160, 772)]",[],[1],[0.5166666666666666],horizontal,"(890.0, 262.0)",0.4666666666666667,0.474,1,5536.266,3,0.0,same
0,478,catch,"[(1200, 778)]",[],[1],[],vertical,"(890.0, 262.0)",1.7,nan,1,5541.499,3,0.0,same
0,479,valid,"[(1182, 785)]",[],[1],[0.5333333333333333],horizontal,"(890.0, 762.0)",0.43333333333333335,0.489,1,5547.718,3,0.0,same
0,480,valid,"[(1195, 787)]",[],[1],[0.85],vertical,"(390.0, 262.0)",1.4666666666666666,nan,0,5553.215,0,0.0,same
0,481,catch,"[(1153, 780)]",[],[1],[],horizontal,"(890.0, 262.0)",1.7,nan,1,5558.324,1,0.0,same
0,482,valid,"[(1209, 786)]",[],[1],[0.48333333333333334],vertical,"(890.0, 262.0)",0.5,0.449,1,5563.085,1,0.0,same
0,483,valid,"[(1182, 781)]",[],[1],[0.4166666666666667],vertical,"(390.0, 262.0)",1.2,0.379,1,5567.082,1,0.0,same
0,484,valid,"[(1176, 760)]",[],[1],[0.6333333333333333],vertical,"(890.0, 262.0)",0.35,0.596,1,5572.477,2,0.0,same
0,485,catch,"[(1150, 817)]",[],[1],[],vertical,"(390.0, 762.0)",1.7,nan,1,5577.447,2,0.0,same
0,486,catch,"[(1200, 774)]",[],[1],[],horizontal,"(890.0, 762.0)",1.7,nan,1,5583.177,2,0.0,same
0,487,valid,"[(1188, 779)]",[],[1],[0.5333333333333333],horizontal,"(390.0, 762.0)",0.6333333333333333,0.487,1,5589.032,3,0.0,same
0,488,valid,"[(1178, 784)]",[],[1],[0.5666666666666667],horizontal,"(390.0, 262.0)",0.5333333333333333,0.52,1,5594.249,3,0.0,same
0,489,valid,"[(1169, 783)]",[],[1],[0.6333333333333333],horizontal,"(890.0, 262.0)",0.9333333333333333,0.594,1,5599.672,3,0.0,same
0,490,valid,"[(1183, 771)]",[],[1],[0.85],vertical,"(390.0, 762.0)",0.35,nan,0,5605.531,0,0.0,same
0,491,invalid_same_bar,"[(1161, 775)]",[],[1],[0.6],vertical,"(890.0, 762.0)",0.4,0.557,1,5609.883,1,0.0,same
0,492,valid,"[(1180, 775)]",[],[1],[0.5],horizontal,"(890.0, 262.0)",0.7666666666666666,0.464,1,5614.843,1,0.0,same
0,493,invalid_adjacent_other_bar,"[(1130, 799)]",[],[1],[0.4],horizontal,"(390.0, 762.0)",1.3,0.363,1,5619.456,1,0.0,other
0,494,catch,"[(1179, 770)]",[],[1],[],horizontal,"(890.0, 262.0)",1.7,nan,1,5624.922,2,0.0,same
0,495,valid,"[(1182, 764)]",[],[1],[0.5333333333333333],horizontal,"(890.0, 762.0)",0.8166666666666667,0.496,1,5630.892,2,0.0,same
0,496,valid,"[(1181, 765)]",[],[1],[0.6],horizontal,"(890.0, 762.0)",0.35,0.571,1,5636.213,2,0.0,same
0,497,catch,"[(1192, 778)]",[],[1],[],horizontal,"(390.0, 762.0)",1.7,nan,1,5641.247,3,0.0,same
0,498,invalid_adjacent_other_bar,"[(1181, 763)]",[],[1],[0.5166666666666666],vertical,"(890.0, 762.0)",1.5,0.473,1,5647.847,3,0.0,other
0,499,valid,"[(1185, 773)]",[],[1],[0.6333333333333333],horizontal,"(390.0, 762.0)",0.7166666666666667,0.595,1,5653.987,3,0.0,same
0,500,catch,"[(1185, 778)]",[],[1],[],vertical,"(890.0, 762.0)",1.7,nan,1,5659.365,3,0.0,same
0,501,catch,"[(1193, 772)]",[],[1],[],horizontal,"(890.0, 762.0)",1.7,nan,1,5665.565,3,0.0,same
0,502,valid,"[(1186, 759)]",[],[1],[0.75],vertical,"(890.0, 762.0)",1.1833333333333333,0.704,1,5671.41,3,0.0,same
0,503,valid,"[(1214, 793)]",[],[1],[0.7166666666666667],vertical,"(890.0, 262.0)",1.1833333333333333,0.673,1,5677.783,3,0.0,same
0,504,valid,"[(1209, 779)]",[],[1],[0.5666666666666667],vertical,"(890.0, 762.0)",1.15,0.527,1,5683.782,3,0.0,same
0,505,catch,"[(1206, 765)]",[],[1],[],horizontal,"(890.0, 262.0)",1.7,nan,1,5689.957,3,0.0,same
0,506,catch,"[(1198, 769)]",[],[1],[],vertical,"(390.0, 762.0)",1.7,nan,1,5695.981,3,0.0,same
0,507,valid,"[(1200, 785)]",[],[1],[0.6333333333333333],horizontal,"(390.0, 762.0)",1.2,0.591,1,5702.219,3,0.0,same
0,508,invalid_same_bar,"[(1180, 778)]",[],[1],[0.5666666666666667],horizontal,"(390.0, 762.0)",1.4666666666666666,0.523,1,5708.368,3,0.0,same
0,509,catch,"[(1197, 776)]",[],[1],[],horizontal,"(390.0, 762.0)",1.7,nan,1,5714.865,3,0.0,same
0,510,valid,"[(1183, 749), (1128, 819)]",[],"[0, 1]",[0.6333333333333333],vertical,"(890.0, 262.0)",0.8333333333333334,0.589,1,5720.949,3,0.0,same
0,511,valid,"[(1185, 769)]",[],[1],[0.5833333333333334],vertical,"(890.0, 762.0)",1.2166666666666666,0.538,1,5727.916,3,0.0,same
0,512,valid,"[(1209, 787)]",[],[1],[0.5166666666666666],horizontal,"(390.0, 762.0)",1.4166666666666667,0.483,1,5733.871,3,0.0,same
0,513,invalid_same_bar,"[(1182, 770)]",[],[1],[0.7166666666666667],horizontal,"(890.0, 262.0)",0.3833333333333333,0.671,1,5740.483,3,0.0,same
0,514,valid,"[(1186, 767)]",[],[1],[0.7333333333333333],vertical,"(390.0, 762.0)",1.1,0.69,1,5745.433,3,0.0,same
0,515,valid,"[(1195, 773)]",[],[1],[0.5666666666666667],vertical,"(390.0, 762.0)",0.65,0.525,1,5751.287,3,0.0,same
0,516,valid,"[(1185, 750), (1136, 815)]",[],"[0, 1]",[0.6],vertical,"(390.0, 762.0)",1.4166666666666667,0.561,1,5757.19,3,0.0,same
0,517,valid,"[(1204, 776)]",[],[1],[0.5166666666666666],vertical,"(890.0, 762.0)",0.7166666666666667,0.479,1,5764.265,3,0.0,same
0,518,valid,"[(1193, 770)]",[],[1],[0.85],vertical,"(890.0, 762.0)",1.25,nan,0,5769.783,0,0.0,same
0,519,valid,"[(1175, 781)]",[],[1],[0.55],vertical,"(890.0, 762.0)",1.4166666666666667,0.509,1,5774.674,1,0.0,same
0,520,valid,"[(1207, 766)]",[],[1],[0.85],vertical,"(390.0, 262.0)",1.2,nan,0,5780.15,0,0.0,same
0,521,catch,"[(1156, 767)]",[],[1],[],vertical,"(890.0, 762.0)",1.7,nan,1,5784.732,1,0.0,same
0,522,catch,"[(1194, 779)]",[],[1],[],horizontal,"(890.0, 262.0)",1.7,nan,1,5790.065,1,0.0,same
0,523,valid,"[(1156, 757)]",[],[1],[0.5833333333333334],vertical,"(390.0, 762.0)",1.5333333333333332,0.547,1,5795.274,1,0.0,same
0,524,valid,"[(1194, 763)]",[],[1],[0.55],horizontal,"(390.0, 262.0)",0.5166666666666666,0.513,1,5800.533,2,0.0,same
0,525,valid,"[(1181, 760)]",[],[1],[0.6],vertical,"(890.0, 762.0)",1.3833333333333333,0.556,1,5805.516,2,0.0,same
0,526,catch,"[(1190, 772)]",[],[1],[],horizontal,"(390.0, 262.0)",1.7,nan,1,5811.366,2,0.0,same
0,527,valid,"[(1194, 780)]",[],[1],[0.6333333333333333],horizontal,"(890.0, 262.0)",1.2166666666666666,0.597,1,5817.083,3,0.0,same
0,528,valid,"[(1186, 786)]",[],[1],[0.6666666666666666],horizontal,"(390.0, 262.0)",0.45,0.623,1,5823.382,3,0.0,same
0,529,valid,"[(1211, 784)]",[],[1],[0.5333333333333333],vertical,"(390.0, 262.0)",0.4666666666666667,0.492,1,5828.63,3,0.0,same
0,530,catch,"[(1180, 793)]",[],[1],[],horizontal,"(390.0, 262.0)",1.7,nan,1,5833.79,3,0.0,same
0,531,catch,"[(1211, 788)]",[],[1],[],vertical,"(890.0, 262.0)",1.7,nan,1,5840.169,3,0.0,same
0,532,valid,"[(1185, 769)]",[],[1],[0.4666666666666667],horizontal,"(890.0, 262.0)",1.1333333333333333,0.43,1,5846.497,3,0.0,same
0,533,valid,"[(1187, 769)]",[],[1],[0.55],horizontal,"(390.0, 262.0)",0.8333333333333334,0.511,1,5852.582,3,0.0,same
0,534,catch,"[(1166, 766)]",[],[1],[],horizontal,"(890.0, 262.0)",1.7,nan,1,5857.848,3,0.0,same
0,535,valid,"[(1183, 756)]",[],[1],[0.8],vertical,"(390.0, 262.0)",1.0166666666666666,0.759,1,5863.774,3,0.0,same
0,536,valid,"[(1185, 782)]",[],[1],[0.6333333333333333],horizontal,"(390.0, 762.0)",1.2666666666666666,0.586,1,5869.499,3,0.0,same
0,537,valid,"[(1184, 768)]",[],[1],[0.5666666666666667],vertical,"(390.0, 762.0)",1.5333333333333332,0.525,1,5875.512,3,0.0,same
0,538,valid,"[(1185, 769)]",[],[1],[0.6166666666666667],vertical,"(890.0, 262.0)",1.2666666666666666,0.567,1,5882.099,3,0.0,same
0,539,valid,"[(1183, 765)]",[],[1],[0.5833333333333334],horizontal,"(390.0, 762.0)",0.8666666666666667,0.543,1,5888.347,3,0.0,same
0,540,valid,"[(1175, 811)]",[],[1],[0.55],vertical,"(390.0, 262.0)",1.05,0.507,1,5894.115,3,0.0,same
0,541,catch,"[(1121, 778)]",[],[1],[],vertical,"(890.0, 262.0)",1.7,nan,1,5900.149,3,0.0,same
0,542,valid,"[(1185, 801)]",[],[1],[0.5833333333333334],vertical,"(890.0, 262.0)",1.4,0.54,1,5906.349,3,0.0,same
0,543,valid,"[(1182, 771)]",[],[1],[0.55],horizontal,"(890.0, 762.0)",0.7,0.509,1,5912.415,3,0.0,same
0,544,catch,"[(1161, 787)]",[],[1],[],horizontal,"(890.0, 762.0)",1.7,nan,1,5917.766,3,0.0,same
0,545,valid,"[(1186, 766)]",[],[1],[0.5666666666666667],vertical,"(390.0, 262.0)",1.2333333333333334,0.522,1,5923.865,3,0.0,same
0,546,valid,"[(1185, 779)]",[],[1],[0.6166666666666667],vertical,"(390.0, 762.0)",0.9166666666666666,0.571,1,5930.3,3,0.0,same
0,547,catch,"[(1205, 774)]",[],[1],[],vertical,"(390.0, 762.0)",1.7,nan,1,5935.8,3,0.0,same
0,548,catch,"[(1188, 773)]",[],[1],[],vertical,"(890.0, 762.0)",1.7,nan,1,5941.817,3,0.0,same
0,549,valid,"[(1199, 771)]",[],[1],[0.5666666666666667],vertical,"(890.0, 762.0)",0.65,0.525,1,5947.768,3,0.0,same
0,550,valid,"[(1175, 773)]",[],[1],[0.5666666666666667],horizontal,"(390.0, 262.0)",1.1166666666666667,0.526,1,5952.925,3,0.0,same
0,551,valid,"[(1175, 764)]",[],[1],[0.5666666666666667],vertical,"(390.0, 262.0)",0.48333333333333334,0.526,1,5958.814,3,0.0,same
0,552,catch,"[(1168, 801)]",[],[1],[],vertical,"(390.0, 762.0)",1.7,nan,1,5963.901,3,0.0,same
0,553,catch,"[(1197, 780)]",[],[1],[],horizontal,"(390.0, 262.0)",1.7,nan,1,5970.376,3,0.0,same
0,554,valid,"[(1183, 783)]",[],[1],[0.5333333333333333],vertical,"(390.0, 762.0)",0.48333333333333334,0.487,1,5976.217,3,0.0,same
0,555,valid,"[(1184, 776)]",[],[1],[0.55],vertical,"(890.0, 762.0)",1.05,0.513,1,5981.555,3,0.0,same
0,556,valid,"[(1180, 776)]",[],[1],[0.5833333333333334],horizontal,"(390.0, 262.0)",0.85,0.542,1,5987.433,3,0.0,same
0,557,catch,"[(1175, 786)]",[],[1],[],horizontal,"(890.0, 762.0)",1.7,nan,1,5993.418,3,0.0,same
0,558,catch,"[(1192, 788)]",[],[1],[],vertical,"(890.0, 262.0)",1.7,nan,1,5999.547,3,0.0,same
0,559,catch,"[(1166, 762)]",[],[1],[],vertical,"(390.0, 262.0)",1.7,nan,1,6005.49,3,0.0,same
0,560,valid,"[(1200, 782)]",[],[1],[0.7166666666666667],horizontal,"(890.0, 262.0)",1.1666666666666667,0.673,1,6011.615,3,0.0,same
0,561,valid,"[(1180, 766)]",[],[1],[0.55],vertical,"(890.0, 762.0)",0.95,0.503,1,6017.617,3,0.0,same
0,562,valid,"[(1205, 801)]",[],[1],[0.5333333333333333],horizontal,"(890.0, 262.0)",0.9,0.488,1,6023.565,3,0.0,same
0,563,valid,"[(1202, 781)]",[],[1],[0.5833333333333334],vertical,"(890.0, 262.0)",0.7833333333333333,0.541,1,6029.124,3,0.0,same
0,564,valid,"[(1181, 772)]",[],[1],[0.65],horizontal,"(390.0, 762.0)",0.7333333333333333,0.607,1,6034.584,3,0.0,same
0,565,valid,"[(1166, 777)]",[],[1],[0.55],vertical,"(890.0, 262.0)",1.4333333333333333,0.511,1,6040.019,3,0.0,same
0,566,valid,"[(1174, 770)]",[],[1],[0.5666666666666667],horizontal,"(890.0, 762.0)",0.5666666666666667,0.52,1,6046.498,3,0.0,same
0,567,valid,"[(1205, 789)]",[],[1],[0.55],horizontal,"(890.0, 262.0)",1.4166666666666667,0.502,1,6051.949,3,0.0,same
0,568,valid,"[(1190, 770)]",[],[1],[0.5333333333333333],horizontal,"(390.0, 262.0)",0.6333333333333333,0.492,1,6057.985,3,0.0,same
0,569,valid,"[(1178, 789)]",[],[1],[0.7],horizontal,"(390.0, 762.0)",1.2166666666666666,0.654,1,6063.549,3,0.0,same
0,570,valid,"[(1185, 786)]",[],[1],[0.85],horizontal,"(890.0, 762.0)",0.9333333333333333,nan,0,6069.55,0,0.0,same
0,571,valid,"[(1165, 777)]",[],[1],[0.5833333333333334],vertical,"(390.0, 762.0)",0.6833333333333333,0.539,1,6074.352,1,0.0,same
0,572,invalid_same_bar,"[(1186, 788)]",[],[1],[0.7],horizontal,"(890.0, 762.0)",1.1,0.659,1,6079.333,1,0.0,same
0,573,valid,"[(1209, 765)]",[],[1],[0.85],vertical,"(890.0, 262.0)",0.6666666666666666,nan,0,6084.884,0,0.0,same
0,574,valid,"[(1157, 777)]",[],[1],[0.6],vertical,"(390.0, 762.0)",0.95,0.559,1,6089.282,1,0.0,same
0,575,valid,"[(1180, 759)]",[],[1],[0.6333333333333333],horizontal,"(390.0, 262.0)",1.45,0.591,1,6094.597,1,0.0,same
0,576,valid,"[(1178, 777)]",[],[1],[0.4166666666666667],vertical,"(890.0, 262.0)",1.15,0.38,1,6099.917,1,0.0,same
0,577,valid,"[(1180, 787)]",[],[1],[0.5666666666666667],vertical,"(390.0, 762.0)",0.8333333333333334,0.526,1,6105.338,2,0.0,same
0,578,valid,"[(1193, 777)]",[],[1],[0.55],vertical,"(390.0, 762.0)",0.9166666666666666,0.511,1,6110.882,2,0.0,same
0,579,catch,"[(1180, 766)]",[],[1],[],vertical,"(390.0, 262.0)",1.7,nan,1,6116.365,2,0.0,same
0,580,catch,"[(1212, 764)]",[],[1],[],vertical,"(890.0, 762.0)",1.7,nan,1,6122.099,3,0.0,same
0,581,valid,"[(1180, 782)]",[],[1],[0.5833333333333334],vertical,"(390.0, 262.0)",0.85,0.54,1,6128.156,3,0.0,same
0,582,valid,"[(1155, 820)]",[],[1],[0.6333333333333333],horizontal,"(390.0, 762.0)",0.48333333333333334,0.593,1,6134.478,3,0.0,same
0,583,valid,"[(1187, 787)]",[],[1],[0.7666666666666666],vertical,"(390.0, 762.0)",1.05,0.724,1,6140.382,3,0.0,same
0,584,valid,"[(1180, 762)]",[],[1],[0.55],horizontal,"(390.0, 262.0)",0.8,0.509,1,6146.709,3,0.0,same
0,585,valid,"[(1170, 761)]",[],[1],[0.6666666666666666],horizontal,"(890.0, 262.0)",0.9,0.622,1,6152.605,3,0.0,same
0,586,valid,"[(1175, 788)]",[],[1],[0.6166666666666667],vertical,"(890.0, 762.0)",0.7,0.573,1,6158.301,3,0.0,same
0,587,invalid_adjacent_other_bar,"[(1177, 782)]",[],[1],[0.5833333333333334],horizontal,"(390.0, 262.0)",1.1,0.548,1,6163.633,3,0.0,other
0,588,catch,"[(1208, 771)]",[],[1],[],horizontal,"(390.0, 762.0)",1.7,nan,1,6169.583,3,0.0,same
0,589,valid,"[(1189, 778)]",[],[1],[0.5333333333333333],horizontal,"(390.0, 762.0)",0.4166666666666667,0.505,1,6175.464,3,0.0,same
0,590,valid,"[(1180, 780)]",[],[1],[0.5],horizontal,"(890.0, 262.0)",0.8833333333333333,0.468,1,6180.682,3,0.0,same
0,591,valid,"[(1189, 776)]",[],[1],[0.5333333333333333],vertical,"(890.0, 262.0)",1.0166666666666666,0.494,1,6186.249,3,0.0,same
0,592,catch,"[(1199, 772)]",[],[1],[],horizontal,"(390.0, 262.0)",1.7,nan,1,6191.916,3,0.0,same
0,593,valid,"[(1214, 783)]",[],[1],[0.5333333333333333],vertical,"(390.0, 262.0)",0.8333333333333334,0.494,1,6197.816,3,0.0,same
0,594,valid,"[(1208, 772)]",[],[1],[0.5333333333333333],horizontal,"(390.0, 762.0)",0.43333333333333335,0.491,1,6203.633,3,0.0,same
0,595,valid,"[(1175, 770)]",[],[1],[],horizontal,"(390.0, 762.0)",,"('fix', 0.333)",0,6209.05,0,0.0,same
0,596,valid,"[(1147, 782)]",[],[1],[0.5333333333333333],horizontal,"(890.0, 762.0)",1.1333333333333333,0.502,1,6210.701,1,0.0,same
0,597,valid,"[(1166, 777)]",[],[1],[0.5833333333333334],horizontal,"(890.0, 262.0)",1.1833333333333333,0.546,1,6215.922,1,0.0,same
0,598,catch,"[(1172, 773)]",[],[1],[],horizontal,"(390.0, 762.0)",1.7,nan,1,6221.533,1,0.0,same
0,599,valid,"[(1180, 770)]",[],[1],[0.55],vertical,"(390.0, 762.0)",1.35,0.511,1,6227.054,2,0.0,same
0,600,catch,"[(1195, 779)]",[],[1],[],horizontal,"(390.0, 262.0)",1.7,nan,1,6233.183,2,0.0,same
0,601,valid,"[(1186, 796)]",[],[1],[0.85],vertical,"(390.0, 762.0)",1.0666666666666667,nan,0,6238.736,0,0.0,same
0,602,valid,"[(1135, 775)]",[],[1],[0.6166666666666667],vertical,"(890.0, 262.0)",1.0833333333333333,0.581,1,6243.631,1,0.0,same
0,603,valid,"[(1165, 779)]",[],[1],[0.85],vertical,"(390.0, 762.0)",0.85,nan,0,6248.988,0,0.0,same
0,604,valid,"[(1155, 798)]",[],[1],[0.6],vertical,"(890.0, 262.0)",0.95,0.569,1,6253.45,1,0.0,same
0,605,valid,"[(1189, 773)]",[],[1],[0.5666666666666667],horizontal,"(390.0, 262.0)",1.0833333333333333,0.525,1,6258.799,1,0.0,same
0,606,valid,"[(1168, 792)]",[],[1],[0.6833333333333333],vertical,"(890.0, 262.0)",0.9166666666666666,0.646,1,6264.276,1,0.0,same
0,607,valid,"[(1175, 774)]",[],[1],[0.55],horizontal,"(890.0, 262.0)",1.2333333333333334,0.513,1,6269.391,2,0.0,same
0,608,invalid_same_bar,"[(1216, 782)]",[],[1],[0.6666666666666666],horizontal,"(890.0, 762.0)",0.45,0.63,1,6275.489,2,0.0,same
0,609,valid,"[(1186, 773)]",[],[1],[0.7166666666666667],horizontal,"(390.0, 262.0)",1.4833333333333334,0.68,1,6280.722,2,0.0,same
0,610,valid,"[(1212, 781)]",[],[1],[],horizontal,"(390.0, 762.0)",,"('fix', 0.15)",0,6286.656,0,0.0,same
0,611,catch,"[(1145, 816)]",[],[1],[],vertical,"(890.0, 762.0)",1.7,nan,1,6288.562,1,0.0,same
0,612,valid,"[(1185, 778)]",[],[1],[0.5166666666666666],vertical,"(890.0, 262.0)",1.1,0.469,1,6293.79,1,0.0,same
0,613,valid,"[(1179, 782)]",[],[1],[0.5833333333333334],vertical,"(390.0, 262.0)",1.2166666666666666,0.541,1,6299.1,1,0.0,same
0,614,invalid_same_bar,"[(1180, 757)]",[],[1],[0.7166666666666667],vertical,"(390.0, 262.0)",0.3833333333333333,0.674,1,6304.642,2,0.0,same
0,615,valid,"[(1178, 781)]",[],[1],[0.5333333333333333],vertical,"(390.0, 762.0)",0.36666666666666664,0.494,1,6309.934,2,0.0,same
0,616,valid,"[(1173, 748), (1120, 788)]",[],"[0, 1]",[0.55],horizontal,"(890.0, 762.0)",1.0833333333333333,0.505,1,6314.649,2,0.0,same
0,617,catch,"[(1205, 776)]",[],[1],[],vertical,"(390.0, 262.0)",1.7,nan,1,6321.436,3,0.0,same
0,618,valid,"[(1198, 771)]",[],[1],[0.55],horizontal,"(890.0, 762.0)",1.5333333333333332,0.508,1,6327.257,3,0.0,same
0,619,invalid_adjacent_other_bar,"[(1213, 791)]",[],[1],[0.5833333333333334],vertical,"(890.0, 262.0)",0.8166666666666667,0.54,1,6333.55,3,0.0,other
0,620,valid,"[(1180, 772)]",[],[1],[0.65],horizontal,"(390.0, 762.0)",1.15,0.609,1,6338.999,3,0.0,same
0,621,catch,"[(1155, 775)]",[],[1],[],horizontal,"(390.0, 762.0)",1.7,nan,1,6345.017,3,0.0,same
0,622,catch,"[(1202, 770)]",[],[1],[],vertical,"(390.0, 262.0)",1.7,nan,1,6351.017,3,0.0,same
0,623,valid,"[(1168, 776)]",[],[1],[0.7666666666666666],vertical,"(890.0, 762.0)",0.6166666666666667,0.721,1,6356.834,3,0.0,same
0,624,valid,"[(1202, 763)]",[],[1],[0.5333333333333333],vertical,"(390.0, 762.0)",0.9666666666666667,0.499,1,6362.701,3,0.0,same
0,625,valid,"[(1180, 780)]",[],[1],[],horizontal,"(390.0, 762.0)",,"('fix', 0.574)",0,6368.284,0,0.0,same
0,626,valid,"[(1145, 784)]",[],[1],[0.7166666666666667],vertical,"(390.0, 762.0)",0.6166666666666667,0.669,1,6370.452,1,0.0,same
0,627,invalid_adjacent_other_bar,"[(1175, 784)]",[],[1],[0.5333333333333333],horizontal,"(390.0, 762.0)",1.0333333333333332,0.494,1,6375.221,1,0.0,other
0,628,valid,"[(1165, 768)]",[],[1],[0.85],horizontal,"(390.0, 262.0)",0.6666666666666666,nan,0,6380.6,0,0.0,same
0,629,valid,"[(1152, 773)]",[],[1],[0.6666666666666666],horizontal,"(890.0, 762.0)",0.7166666666666667,0.624,1,6385.267,1,0.0,same
0,630,valid,"[(1175, 785)]",[],[1],[0.7166666666666667],vertical,"(390.0, 762.0)",1.05,0.666,1,6390.167,1,0.0,same
0,631,valid,"[(1189, 790)]",[],[1],[0.5333333333333333],horizontal,"(390.0, 262.0)",0.5666666666666667,0.495,1,6395.334,1,0.0,same
0,632,invalid_adjacent_other_bar,"[(1178, 772)]",[],[1],[0.85],vertical,"(390.0, 262.0)",0.6333333333333333,nan,0,6399.737,0,0.0,other
0,633,valid,"[(1168, 791)]",[],[1],[0.5666666666666667],vertical,"(390.0, 262.0)",1.45,0.525,1,6404.283,1,0.0,same
0,634,valid,"[(1163, 800)]",[],[1],[0.85],horizontal,"(890.0, 762.0)",1.15,nan,0,6409.802,0,0.0,same
0,635,catch,"[(1080, 816)]",[],[1],[],vertical,"(390.0, 762.0)",1.7,nan,1,6415.5,1,0.0,same
0,636,catch,"[(1148, 797)]",[],[1],[],vertical,"(390.0, 762.0)",1.7,nan,1,6759.382,1,0.0,same
0,637,catch,"[(1164, 791)]",[],[1],[],vertical,"(390.0, 762.0)",1.7,nan,1,6764.484,1,0.0,same
0,638,valid,"[(1165, 781)]",[],[1],[0.5333333333333333],horizontal,"(890.0, 762.0)",1.25,0.492,1,6770.178,2,0.0,same
0,639,valid,"[(1201, 791)]",[],[1],[0.6166666666666667],vertical,"(890.0, 762.0)",1.4666666666666666,0.572,1,6775.751,2,0.0,same
0,640,valid,"[(1183, 760)]",[],[1],[0.7833333333333333],horizontal,"(390.0, 262.0)",1.2666666666666666,0.73,1,6781.599,2,0.0,same
0,641,valid,"[(1180, 778)]",[],[1],[0.5666666666666667],vertical,"(390.0, 762.0)",0.9333333333333333,0.525,1,6787.95,3,0.0,same
0,642,valid,"[(1179, 785)]",[],[1],[0.6],vertical,"(890.0, 262.0)",0.8833333333333333,0.554,1,6794.035,3,0.0,same
0,643,valid,"[(1175, 778)]",[],[1],[0.6166666666666667],horizontal,"(390.0, 262.0)",1.35,0.573,1,6800.054,3,0.0,same
0,644,valid,"[(1179, 805)]",[],[1],[0.55],horizontal,"(390.0, 762.0)",0.6166666666666667,0.506,1,6806.203,3,0.0,same
0,645,invalid_adjacent_other_bar,"[(1175, 776)]",[],[1],[0.85],vertical,"(390.0, 762.0)",0.9,nan,0,6811.846,0,0.0,other
0,646,catch,"[(1179, 793)]",[],[1],[],horizontal,"(890.0, 262.0)",1.7,nan,1,6816.385,1,0.0,same
0,647,valid,"[(1207, 787)]",[],[1],[0.5333333333333333],horizontal,"(890.0, 762.0)",1.2166666666666666,0.493,1,6822.222,1,0.0,same
0,648,catch,"[(1175, 777)]",[],[1],[],vertical,"(390.0, 262.0)",,"('cti', 1.597),nan",0,6827.206,0,0.02,same
0,649,valid,"[(1159, 785)]",[],[1],[0.85],horizontal,"(890.0, 262.0)",1.3166666666666667,nan,0,6832.017,0,0.02,same
0,650,invalid_adjacent_other_bar,"[(1156, 784)]",[],[1],[0.6],horizontal,"(890.0, 762.0)",1.2666666666666666,0.56,1,6836.801,1,0.02,other
0,651,catch,"[(1197, 787)]",[],[1],[],horizontal,"(890.0, 762.0)",1.7,nan,1,6842.002,1,0.02,same
0,652,invalid_same_bar,"[(1170, 774)]",[],[1],[0.5833333333333334],horizontal,"(890.0, 762.0)",1.5333333333333332,0.543,1,6847.088,1,0.02,same
0,653,valid,"[(1215, 799)]",[],[1],[0.5],vertical,"(390.0, 262.0)",1.0,0.458,1,6852.471,2,0.02,same
0,654,valid,"[(1206, 796)]",[],[1],[0.6666666666666666],vertical,"(890.0, 262.0)",1.0333333333333332,0.617,1,6857.7,2,0.02,same
0,655,catch,"[(1176, 776)]",[],[1],[],vertical,"(890.0, 762.0)",1.7,nan,1,6863.085,2,0.02,same
0,656,valid,"[(1175, 778)]",[],[1],[0.5666666666666667],vertical,"(390.0, 262.0)",1.4,0.525,1,6868.223,3,0.02,same
0,657,invalid_adjacent_other_bar,"[(1175, 792)]",[],[1],[0.85],horizontal,"(390.0, 762.0)",0.6166666666666667,nan,0,6874.633,0,0.02,other
0,658,valid,"[(1165, 779)]",[],[1],[0.55],horizontal,"(390.0, 762.0)",1.3833333333333333,0.509,1,6879.226,1,0.02,same
0,659,valid,"[(1165, 765)]",[],[1],[0.5333333333333333],horizontal,"(890.0, 762.0)",0.4166666666666667,0.49,1,6884.35,1,0.02,same
0,660,valid,"[(1172, 760)]",[],[1],[0.5333333333333333],vertical,"(390.0, 762.0)",0.9333333333333333,0.493,1,6888.652,1,0.02,same
0,661,catch,"[(1158, 739), (1140, 797)]",[],"[0, 1]",[],vertical,"(890.0, 262.0)",1.7,nan,1,6893.455,2,0.02,same
0,662,valid,"[(1175, 792)]",[],[1],[0.3],horizontal,"(390.0, 262.0)",1.3666666666666667,0.259,1,6900.133,2,0.02,same
0,663,valid,"[(1151, 761)]",[],[1],[0.6],horizontal,"(890.0, 762.0)",0.95,0.553,1,6905.867,2,0.02,same
0,664,catch,"[(1169, 777)]",[],[1],[],horizontal,"(890.0, 262.0)",1.7,nan,1,6911.457,3,0.02,same
0,665,catch,"[(1175, 783)]",[],[1],[],horizontal,"(390.0, 762.0)",1.7,nan,1,6917.768,3,0.02,same
0,666,valid,"[(1177, 786)]",[],[1],[0.6],vertical,"(890.0, 262.0)",1.1333333333333333,0.551,1,6923.917,3,0.02,same
0,667,catch,"[(1176, 756)]",[],[1],[],horizontal,"(890.0, 262.0)",1.7,nan,1,6930.005,3,0.02,same
0,668,valid,"[(1195, 783)]",[],[1],[0.5333333333333333],vertical,"(890.0, 262.0)",1.1,0.492,1,6936.217,3,0.02,same
0,669,valid,"[(1178, 770)]",[],[1],[0.7],horizontal,"(390.0, 262.0)",0.8,0.656,1,6942.202,3,0.02,same
0,670,catch,"[(1168, 816)]",[],[1],[],vertical,"(390.0, 762.0)",1.7,nan,1,6948.092,3,0.02,same
0,671,catch,"[(1172, 781)]",[],[1],[],vertical,"(390.0, 262.0)",1.7,nan,1,6954.154,3,0.02,same
0,672,valid,"[(1170, 783)]",[],[1],[0.55],vertical,"(390.0, 762.0)",1.1166666666666667,0.514,1,6959.941,3,0.02,same
0,673,valid,"[(1180, 797)]",[],[1],[0.6833333333333333],horizontal,"(390.0, 762.0)",0.4666666666666667,0.643,1,6966.252,3,0.02,same
0,674,valid,"[(1177, 773)]",[],[1],[0.65],horizontal,"(890.0, 262.0)",1.2333333333333334,0.605,1,6971.694,3,0.02,same
0,675,catch,"[(1178, 781)]",[],[1],[],horizontal,"(390.0, 762.0)",1.7,nan,1,6977.868,3,0.02,same
0,676,catch,"[(1175, 780)]",[],[1],[],horizontal,"(890.0, 262.0)",1.7,nan,1,6983.974,3,0.02,same
0,677,valid,"[(1176, 778)]",[],[1],[0.85],horizontal,"(890.0, 762.0)",0.5166666666666666,nan,0,6989.916,0,0.02,same
0,678,catch,"[(1145, 756)]",[],[1],[],vertical,"(390.0, 762.0)",1.7,nan,1,6994.167,1,0.02,same
0,679,valid,"[(1138, 795)]",[],[1],[0.5666666666666667],vertical,"(390.0, 762.0)",1.4666666666666666,0.529,1,6999.118,1,0.02,same
0,680,invalid_adjacent_other_bar,"[(1160, 762)]",[],[1],[0.45],horizontal,"(390.0, 262.0)",1.1666666666666667,0.408,1,7005.018,1,0.02,other
0,681,valid,"[(1180, 761)]",[],[1],[0.15],horizontal,"(890.0, 262.0)",1.4666666666666666,0.118,0,7010.476,0,0.02,same
0,682,catch,"[(1116, 821)]",[],[1],[],vertical,"(890.0, 262.0)",1.7,nan,1,7015.501,1,0.02,same
0,683,valid,"[(1160, 811)]",[],[1],[0.6],horizontal,"(390.0, 762.0)",1.0333333333333332,0.554,1,7379.129,1,0.02,same
0,684,valid,"[(1175, 772)]",[],[1],[0.85],vertical,"(390.0, 762.0)",1.0333333333333332,nan,0,7384.252,0,0.02,same
0,685,catch,"[(1140, 778)]",[],[1],[],vertical,"(390.0, 262.0)",1.7,nan,1,7389.353,1,0.02,same
0,686,valid,"[(1164, 781)]",[],[1],[0.6333333333333333],horizontal,"(890.0, 762.0)",1.5,0.592,1,7394.835,1,0.02,same
0,687,valid,"[(1207, 801)]",[],[1],[0.65],horizontal,"(390.0, 262.0)",1.0666666666666667,0.604,1,7400.118,1,0.02,same
0,688,valid,"[(1177, 795)]",[],[1],[0.6833333333333333],vertical,"(890.0, 762.0)",0.7833333333333333,0.642,1,7405.084,2,0.02,same
0,689,valid,"[(1173, 780)]",[],[1],[0.5],vertical,"(390.0, 262.0)",0.43333333333333335,0.46,1,7410.672,2,0.02,same
0,690,catch,"[(1205, 786)]",[],[1],[],horizontal,"(890.0, 762.0)",1.7,nan,1,7415.251,2,0.02,same
0,691,catch,"[(1175, 788)]",[],[1],[],vertical,"(390.0, 262.0)",1.7,nan,1,7421.118,3,0.02,same
0,692,catch,"[(1163, 775)]",[],[1],[],horizontal,"(390.0, 262.0)",1.7,nan,1,7426.952,3,0.02,same
0,693,invalid_same_bar,"[(1190, 787)]",[],[1],[0.5666666666666667],vertical,"(890.0, 262.0)",1.0,0.524,1,7433.218,3,0.02,same
0,694,valid,"[(1178, 792)]",[],[1],[0.5666666666666667],horizontal,"(390.0, 262.0)",1.0166666666666666,0.524,1,7438.794,3,0.02,same
0,695,catch,"[(1174, 771)]",[],[1],[],vertical,"(890.0, 262.0)",1.7,nan,1,7444.181,3,0.02,same
0,696,valid,"[(1178, 773)]",[],[1],[0.6333333333333333],vertical,"(890.0, 762.0)",1.5,0.593,1,7450.136,3,0.02,same
0,697,valid,"[(1183, 778)]",[],[1],[0.65],vertical,"(890.0, 262.0)",0.8833333333333333,0.613,1,7456.535,3,0.02,same
0,698,valid,"[(1177, 778)]",[],[1],[0.6],horizontal,"(390.0, 262.0)",0.65,0.557,1,7462.558,3,0.0,same
0,699,valid,"[(1193, 769)]",[],[1],[0.65],vertical,"(390.0, 762.0)",1.5,0.608,1,7468.301,3,0.0,same
0,700,valid,"[(1180, 765)]",[],[1],[0.7],horizontal,"(890.0, 262.0)",0.4,0.653,1,7474.485,3,0.0,same
0,701,valid,"[(1168, 785)]",[],[1],[0.15],horizontal,"(390.0, 762.0)",1.3833333333333333,0.118,0,7480.036,0,0.0,same
0,702,invalid_adjacent_other_bar,"[(1140, 796)]",[],[1],[0.85],vertical,"(390.0, 762.0)",0.65,nan,0,7484.803,0,0.0,other
0,703,valid,"[(1141, 773)]",[],[1],[0.6166666666666667],vertical,"(390.0, 262.0)",1.2,0.575,1,7489.186,1,0.0,same
0,704,catch,"[(1170, 792)]",[],[1],[],horizontal,"(890.0, 762.0)",1.7,nan,1,7494.8,1,0.0,same
0,705,valid,"[(1165, 779)]",[],[1],[0.65],vertical,"(390.0, 262.0)",0.5166666666666666,0.612,1,7500.09,1,0.0,same
0,706,catch,"[(1170, 761)]",[],[1],[],horizontal,"(890.0, 262.0)",1.7,nan,1,7504.985,2,0.0,same
0,707,valid,"[(1203, 766)]",[],[1],[0.6],vertical,"(890.0, 762.0)",0.8833333333333333,0.562,1,7510.886,2,0.0,same
0,708,catch,"[(1188, 773)]",[],[1],[],horizontal,"(390.0, 262.0)",1.7,nan,1,7516.087,2,0.0,same
0,709,invalid_same_bar,"[(1204, 776)]",[],[1],[0.5166666666666666],vertical,"(890.0, 262.0)",0.5166666666666666,0.477,1,7521.568,3,0.0,same
0,710,valid,"[(1161, 789)]",[],[1],[0.85],horizontal,"(890.0, 262.0)",0.43333333333333335,nan,0,7526.787,0,0.0,same
0,711,valid,"[(1162, 748), (1135, 829)]",[],"[0, 1]",[0.85],vertical,"(890.0, 762.0)",1.35,"('cti', 1.341),nan",0,7531.404,0,0.0,same
0,712,valid,"[(1166, 808)]",[],[1],[0.5666666666666667],horizontal,"(890.0, 762.0)",1.3166666666666667,0.527,1,7538.468,1,0.0,same
0,713,invalid_same_bar,"[(1168, 779)]",[],[1],[0.85],vertical,"(890.0, 262.0)",0.6333333333333333,nan,0,7544.019,0,0.0,same
0,714,valid,"[(1171, 791)]",[],[1],[0.6166666666666667],horizontal,"(890.0, 262.0)",1.1,0.578,1,7548.325,1,0.0,same
0,715,catch,"[(1185, 775)]",[],[1],[],horizontal,"(390.0, 762.0)",1.7,nan,1,7553.57,1,0.0,same
0,716,valid,"[(1176, 767)]",[],[1],[0.5333333333333333],vertical,"(390.0, 262.0)",0.3833333333333333,0.491,1,7559.161,1,0.0,same
0,717,valid,"[(1170, 786)]",[],[1],[0.55],horizontal,"(390.0, 762.0)",0.6666666666666666,0.509,1,7563.619,2,0.0,same
0,718,valid,"[(1202, 765)]",[],[1],[0.65],horizontal,"(890.0, 262.0)",0.9833333333333333,0.61,1,7568.768,2,0.0,same
0,719,valid,"[(1168, 770)]",[],[1],[0.55],horizontal,"(890.0, 762.0)",1.4333333333333333,0.506,1,7573.984,2,0.0,same
0,720,valid,"[(1191, 792)]",[],[1],[0.8],vertical,"(390.0, 262.0)",0.35,0.755,1,7579.651,3,0.0,same
0,721,catch,"[(1197, 772)]",[],[1],[],horizontal,"(890.0, 762.0)",1.7,nan,1,7585.501,3,0.0,same
0,722,valid,"[(1175, 768)]",[],[1],[0.5333333333333333],horizontal,"(390.0, 762.0)",0.3833333333333333,0.502,1,7592.019,3,0.0,same
0,723,valid,"[(1176, 776)]",[],[1],[0.85],horizontal,"(890.0, 762.0)",1.1666666666666667,nan,0,7597.269,0,0.0,same
0,724,catch,"[(1158, 806)]",[],[1],[],horizontal,"(390.0, 262.0)",1.7,nan,1,7602.418,1,0.0,same
0,725,valid,"[(1176, 778)]",[],[1],[0.6166666666666667],horizontal,"(890.0, 762.0)",0.5,0.575,1,7608.019,1,0.0,same
0,726,valid,"[(1190, 770)]",[],[1],[0.55],horizontal,"(890.0, 762.0)",1.0833333333333333,0.513,1,7612.386,1,0.0,same
0,727,valid,"[(1180, 776)]",[],[1],[0.6166666666666667],vertical,"(890.0, 262.0)",1.1166666666666667,0.581,1,7617.7,2,0.0,same
0,728,catch,"[(1176, 773)]",[],[1],[],vertical,"(390.0, 262.0)",1.7,nan,1,7623.471,2,0.0,same
0,729,valid,"[(1172, 772)]",[],[1],[0.31666666666666665],horizontal,"(890.0, 762.0)",1.4,0.281,1,7629.253,2,0.0,same
0,730,valid,"[(1191, 785)]",[],[1],[0.55],horizontal,"(390.0, 262.0)",0.65,0.51,1,7634.836,3,0.0,same
0,731,invalid_adjacent_other_bar,"[(1202, 782)]",[],[1],[0.6833333333333333],horizontal,"(390.0, 262.0)",1.5333333333333332,0.652,1,7640.64,3,0.0,other
0,732,invalid_adjacent_other_bar,"[(1177, 778)]",[],[1],[0.6],vertical,"(390.0, 262.0)",1.3333333333333333,0.561,1,7646.736,3,0.0,other
0,733,catch,"[(1180, 787)]",[],[1],[],horizontal,"(890.0, 762.0)",1.7,nan,1,7652.903,3,0.0,same
0,734,valid,"[(1174, 790)]",[],[1],[0.5833333333333334],vertical,"(390.0, 762.0)",0.6666666666666666,0.536,1,7658.885,3,0.0,same
0,735,valid,"[(1190, 769)]",[],[1],[0.85],horizontal,"(890.0, 762.0)",1.1833333333333333,nan,0,7664.248,0,0.0,same
0,736,valid,"[(1175, 787)]",[],[1],[0.6333333333333333],horizontal,"(390.0, 762.0)",0.43333333333333335,0.601,1,7668.983,1,0.0,same
0,737,valid,"[(1181, 767)]",[],[1],[0.6666666666666666],vertical,"(890.0, 762.0)",0.95,0.628,1,7673.733,1,0.0,same
0,738,invalid_adjacent_other_bar,"[(1170, 770)]",[],[1],[0.7166666666666667],horizontal,"(390.0, 762.0)",0.7666666666666666,0.673,1,7678.867,1,0.0,other
0,739,valid,"[(1175, 757)]",[],[1],[0.5333333333333333],vertical,"(390.0, 262.0)",0.6666666666666666,0.487,1,7683.763,2,0.0,same
0,740,valid,"[(1170, 772)]",[],[1],[0.6],vertical,"(390.0, 762.0)",1.4333333333333333,0.555,1,7688.601,2,0.0,same
0,741,valid,"[(1177, 770)]",[],[1],[0.6],horizontal,"(890.0, 762.0)",0.8333333333333334,0.56,1,7694.177,2,0.0,same
0,742,valid,"[(1173, 806)]",[],[1],[0.5833333333333334],horizontal,"(390.0, 262.0)",0.8666666666666667,0.547,1,7699.469,3,0.0,same
0,743,catch,"[(1165, 761)]",[],[1],[],vertical,"(390.0, 762.0)",1.7,nan,1,7705.379,3,0.0,same
0,744,invalid_adjacent_other_bar,"[(1179, 776)]",[],[1],[0.5333333333333333],horizontal,"(890.0, 262.0)",1.05,0.492,1,7710.96,3,0.0,other
0,745,valid,"[(1175, 772)]",[],[1],[0.5166666666666666],horizontal,"(890.0, 262.0)",1.1666666666666667,0.477,1,7716.903,3,0.0,same
0,746,catch,"[(1180, 782)]",[],[1],[],vertical,"(890.0, 762.0)",1.7,nan,1,7722.768,3,0.0,same
0,747,valid,"[(1178, 779)]",[],[1],[0.55],vertical,"(890.0, 762.0)",0.9166666666666666,0.512,1,7729.005,3,0.0,same
0,748,valid,"[(1160, 769)]",[],[1],[0.85],horizontal,"(890.0, 762.0)",0.6166666666666667,nan,0,7734.735,0,0.0,same
0,749,valid,"[(1161, 781)]",[],[1],[0.7166666666666667],horizontal,"(890.0, 262.0)",0.85,0.672,1,7739.362,1,0.0,same
0,750,catch,"[(1165, 751), (1139, 821)]",[],"[0, 1]",[],horizontal,"(890.0, 762.0)",1.7,nan,1,7744.335,1,0.0,same
0,751,valid,"[(1175, 775)]",[],[1],[0.6666666666666666],vertical,"(890.0, 762.0)",1.35,0.624,1,7750.459,1,0.0,same
0,752,valid,"[(1150, 761)]",[],[1],[0.55],vertical,"(390.0, 262.0)",0.7666666666666666,0.507,1,7755.936,2,0.0,same
0,753,catch,"[(1185, 774)]",[],[1],[],vertical,"(890.0, 262.0)",1.7,nan,1,7760.619,2,0.0,same
0,754,valid,"[(1197, 781)]",[],[1],[0.5666666666666667],vertical,"(390.0, 262.0)",1.1833333333333333,0.523,1,7766.318,2,0.0,same
0,755,catch,"[(1175, 777)]",[],[1],[],vertical,"(890.0, 762.0)",1.7,nan,1,7772.219,3,0.0,same
0,756,catch,"[(1175, 786)]",[],[1],[],vertical,"(890.0, 762.0)",1.7,nan,1,7778.254,3,0.0,same
0,757,catch,"[(1179, 786)]",[],[1],[],horizontal,"(390.0, 262.0)",1.7,nan,1,7784.024,3,0.0,same
0,758,valid,"[(1185, 765)]",[],[1],[0.5333333333333333],vertical,"(890.0, 262.0)",0.9333333333333333,0.492,1,7790.328,3,0.0,same
0,759,valid,"[(1172, 754)]",[],[1],[0.6333333333333333],horizontal,"(890.0, 762.0)",0.9166666666666666,0.597,1,7796.216,3,0.0,same
0,760,catch,"[(1166, 784)]",[],[1],[],horizontal,"(390.0, 762.0)",1.7,nan,1,7801.932,3,0.0,same
0,761,invalid_adjacent_other_bar,"[(1170, 767)]",[],[1],[0.5833333333333334],horizontal,"(390.0, 762.0)",0.7,0.546,1,7807.492,3,0.0,other
0,762,catch,"[(1178, 767)]",[],[1],[],vertical,"(890.0, 262.0)",1.7,nan,1,7812.702,3,0.0,same
0,763,valid,"[(1183, 766)]",[],[1],[0.5833333333333334],vertical,"(390.0, 262.0)",0.36666666666666664,0.541,1,7818.317,3,0.0,same
0,764,valid,"[(1185, 772)]",[],[1],[0.5833333333333334],vertical,"(390.0, 762.0)",1.3,0.544,1,7823.337,3,0.0,same
0,765,valid,"[(1175, 770)]",[],[1],[0.5833333333333334],vertical,"(390.0, 762.0)",1.0833333333333333,0.546,1,7829.628,3,0.0,same
0,766,valid,"[(1188, 782)]",[],[1],[0.85],vertical,"(390.0, 262.0)",0.48333333333333334,nan,0,7835.852,0,0.0,same
0,767,valid,"[(1176, 771)]",[],[1],[0.75],horizontal,"(890.0, 762.0)",1.2666666666666666,0.706,1,7839.786,1,0.0,same
0,768,valid,"[(1180, 779)]",[],[1],[0.6166666666666667],horizontal,"(390.0, 762.0)",0.5333333333333333,0.583,1,7845.103,1,0.0,same
0,769,catch,"[(1193, 796)]",[],[1],[],vertical,"(390.0, 262.0)",1.7,nan,1,7849.868,1,0.0,same
0,770,valid,"[(1214, 789)]",[],[1],[0.85],horizontal,"(890.0, 762.0)",0.8666666666666667,nan,0,7855.285,0,0.0,same
0,771,valid,"[(1167, 808)]",[],[1],[0.5333333333333333],vertical,"(890.0, 262.0)",0.7166666666666667,0.491,1,7860.268,1,0.0,same
0,772,valid,"[(1163, 770)]",[],[1],[0.55],vertical,"(890.0, 762.0)",1.1166666666666667,0.512,1,7865.318,1,0.0,same
0,773,catch,"[(1168, 772)]",[],[1],[],vertical,"(390.0, 762.0)",1.7,nan,1,7870.468,1,0.0,same
0,774,valid,"[(1210, 781)]",[],[1],[0.5333333333333333],vertical,"(890.0, 262.0)",0.45,0.497,1,7875.669,2,0.0,same
0,775,catch,"[(1181, 769)]",[],[1],[],horizontal,"(890.0, 262.0)",1.7,nan,1,7880.313,2,0.0,same
0,776,valid,"[(1178, 766)]",[],[1],[0.55],horizontal,"(390.0, 262.0)",0.75,0.511,1,7885.667,2,0.0,same
0,777,valid,"[(1160, 757)]",[],[1],[0.6166666666666667],horizontal,"(890.0, 762.0)",1.35,0.567,1,7891.018,3,0.0,same
0,778,valid,"[(1180, 769)]",[],[1],[0.85],horizontal,"(390.0, 762.0)",1.45,nan,0,7897.785,0,0.0,same
0,779,valid,"[(1160, 787)]",[],[1],[0.6833333333333333],vertical,"(890.0, 762.0)",0.5833333333333334,0.635,1,7902.552,1,0.0,same
0,780,valid,"[(1208, 789)]",[],[1],[0.5333333333333333],vertical,"(890.0, 762.0)",1.15,0.492,1,7907.852,1,0.0,same
0,781,valid,"[(1170, 789)]",[],[1],[0.65],vertical,"(390.0, 762.0)",1.0666666666666667,0.607,1,7912.826,1,0.0,same
0,782,valid,"[(1181, 776)]",[],[1],[0.6],horizontal,"(390.0, 762.0)",0.6333333333333333,0.555,1,7917.815,2,0.0,same
0,783,valid,"[(1177, 782)]",[],[1],[0.6166666666666667],horizontal,"(390.0, 762.0)",0.6,0.573,1,7923.369,2,0.0,same
0,784,invalid_same_bar,"[(1183, 806)]",[],[1],[0.6833333333333333],vertical,"(890.0, 762.0)",0.6166666666666667,0.642,1,7928.412,2,0.0,same
0,785,valid,"[(1165, 786)]",[],[1],[0.6666666666666666],vertical,"(890.0, 262.0)",0.5833333333333334,0.623,1,7934.236,3,0.0,same
0,786,valid,"[(1175, 771)]",[],[1],[0.65],horizontal,"(390.0, 762.0)",0.6333333333333333,0.605,1,7940.398,3,0.0,same
0,787,catch,"[(1187, 763)]",[],[1],[],vertical,"(890.0, 762.0)",1.7,nan,1,7946.074,3,0.0,same
0,788,catch,"[(1163, 771)]",[],[1],[],vertical,"(890.0, 762.0)",1.7,nan,1,7952.085,3,0.0,same
0,789,valid,"[(1136, 766)]",[],[1],[0.55],vertical,"(890.0, 262.0)",1.0333333333333332,0.516,1,7957.969,3,0.0,same
0,790,valid,"[(1183, 770)]",[],[1],[0.6666666666666666],horizontal,"(890.0, 762.0)",1.3,0.624,1,7963.973,3,0.0,same
0,791,valid,"[(1166, 777)]",[],[1],[0.7666666666666666],vertical,"(890.0, 262.0)",1.1833333333333333,0.719,1,7970.137,3,0.0,same
0,792,valid,"[(1170, 775)]",[],[1],[0.5833333333333334],vertical,"(390.0, 262.0)",0.9666666666666667,0.543,1,7975.952,3,0.0,same
0,793,invalid_adjacent_other_bar,"[(1186, 760)]",[],[1],[0.6],horizontal,"(890.0, 762.0)",0.55,0.561,1,7981.752,3,0.0,other
0,794,invalid_same_bar,"[(1136, 775)]",[],[1],[0.7166666666666667],vertical,"(890.0, 762.0)",0.8333333333333334,0.673,1,7987.553,3,0.0,same
0,795,valid,"[(1180, 766)]",[],[1],[0.7666666666666666],horizontal,"(890.0, 262.0)",0.5333333333333333,0.723,1,7993.417,3,0.0,same
0,796,catch,"[(1181, 772)]",[],[1],[],vertical,"(890.0, 762.0)",1.7,nan,1,7998.936,3,0.0,same
0,797,valid,"[(1181, 791)]",[],[1],[0.55],horizontal,"(890.0, 262.0)",1.0833333333333333,0.51,1,8004.895,3,0.0,same
0,798,valid,"[(1164, 778)]",[],[1],[0.55],horizontal,"(890.0, 762.0)",1.3666666666666667,0.513,1,8011.003,3,0.0,same
0,799,catch,"[(1178, 781)]",[],[1],[],vertical,"(890.0, 762.0)",1.7,nan,1,8017.399,3,0.0,same
0,800,valid,"[(1165, 744), (1174, 739), (1135, 807)]",[],"[0, 0, 1]",[0.5833333333333334],vertical,"(390.0, 762.0)",1.4166666666666667,0.55,1,8023.455,3,0.0,same
0,801,valid,"[(1178, 782)]","[(1161, 810)]",[1],[0.25],vertical,"(390.0, 762.0)",,"('bar', 0.263)",0,8030.99,0,0.0,same
0,802,valid,"[(1144, 813)]",[],[1],[0.85],horizontal,"(890.0, 262.0)",0.85,nan,0,8033.393,0,0.0,same
0,803,catch,"[(1160, 794)]",[],[1],[],vertical,"(890.0, 262.0)",,"('fix', 0.671),nan",0,8038.004,0,0.02,same
0,804,valid,"[(1155, 772)]",[],[1],[0.5166666666666666],horizontal,"(890.0, 262.0)",1.4,0.481,1,8040.253,1,0.02,same
0,805,valid,"[(1170, 769)]",[],[1],[0.5333333333333333],vertical,"(390.0, 262.0)",0.7666666666666666,0.499,1,8045.882,1,0.02,same
0,806,valid,"[(1189, 796)]",[],[1],[],vertical,"(890.0, 262.0)",,"('fix', 0.535)",0,8050.987,0,0.02,same
0,807,catch,"[(1105, 814)]",[],[1],[],horizontal,"(390.0, 262.0)",1.7,nan,1,8053.137,1,0.02,same
0,808,catch,"[(1160, 809)]",[],[1],[],vertical,"(390.0, 262.0)",1.7,nan,1,8136.137,1,0.02,same
0,809,catch,"[(1165, 811)]",[],[1],[],vertical,"(390.0, 762.0)",1.7,nan,1,8141.662,1,0.02,same
0,810,valid,"[(1165, 769)]",[],[1],[0.5666666666666667],vertical,"(890.0, 262.0)",0.3833333333333333,0.523,1,8146.561,2,0.02,same
0,811,valid,"[(1160, 810)]",[],[1],[0.5833333333333334],horizontal,"(890.0, 262.0)",0.4666666666666667,0.541,1,8151.528,2,0.02,same
0,812,valid,"[(1175, 771)]",[],[1],[0.55],horizontal,"(890.0, 762.0)",1.0166666666666666,0.506,1,8156.691,2,0.02,same
0,813,valid,"[(1184, 803)]","[(1176, 805)]",[1],[0.11666666666666667],vertical,"(390.0, 262.0)",,"('bar', 0.132)",0,8162.611,0,0.02,same
0,814,catch,"[(1140, 816)]",[],[1],[],horizontal,"(890.0, 262.0)",1.7,nan,1,8165.092,1,0.02,same
0,815,valid,"[(1204, 810)]",[],[1],[0.6166666666666667],vertical,"(890.0, 262.0)",0.5333333333333333,0.574,1,8170.551,1,0.02,same
0,816,catch,"[(1193, 800)]",[],[1],[],horizontal,"(890.0, 762.0)",1.7,nan,1,8175.315,1,0.02,same
0,817,catch,"[(1206, 790)]",[],[1],[],vertical,"(890.0, 762.0)",1.7,nan,1,8180.442,2,0.02,same
0,818,valid,"[(1201, 773)]","[(1143, 839)]",[1],[0.3833333333333333],horizontal,"(390.0, 762.0)",,"('bar', 0.393)",0,8185.968,0,0.02,same
0,819,valid,"[(1160, 797)]",[],[1],[0.55],vertical,"(390.0, 262.0)",1.2,0.513,1,8188.47,1,0.02,same
0,820,valid,"[(1178, 790)]",[],[1],[0.5166666666666666],vertical,"(890.0, 762.0)",1.35,0.474,1,8193.552,1,0.02,same
0,821,catch,"[(1184, 770)]",[],[1],[],horizontal,"(890.0, 262.0)",,"('fix', 0.694),nan",0,8199.088,0,0.04,same
0,822,catch,"[(1143, 811)]",[],[1],[],horizontal,"(390.0, 262.0)",,"('cti', 1.445),nan",0,8201.385,0,0.06,same
0,823,catch,"[(1175, 770)]",[],[1],[],horizontal,"(390.0, 262.0)",1.7,nan,1,8205.881,1,0.06,same
0,824,catch,"[(1180, 781)]",[],[1],[],vertical,"(890.0, 262.0)",1.7,nan,1,8211.352,1,0.06,same
0,825,valid,"[(1185, 772)]","[(1127, 802)]",[1],[0.08333333333333333],horizontal,"(390.0, 762.0)",,"('bar', 0.101)",0,8216.919,0,0.06,same
0,826,valid,"[(1165, 792)]",[],[1],[0.5166666666666666],horizontal,"(890.0, 762.0)",0.5333333333333333,0.476,1,8219.302,1,0.06,same
0,827,valid,"[(1178, 772)]",[],[1],[0.5833333333333334],horizontal,"(390.0, 762.0)",1.1666666666666667,0.538,1,8223.704,1,0.06,same
0,828,catch,"[(1175, 768)]","[(1175, 795)]",[1],[0.13333333333333333],vertical,"(390.0, 262.0)",,"('bar', 0.147),nan",0,8228.627,0,0.08,same
0,829,valid,"[(1152, 792)]",[],[1],[0.6833333333333333],vertical,"(890.0, 762.0)",0.95,0.636,1,8230.859,1,0.08,same
0,830,catch,"[(1175, 779)]",[],[1],[],vertical,"(890.0, 262.0)",1.7,nan,1,8236.575,1,0.08,same
0,831,catch,"[(1180, 766)]","[(1175, 823)]",[1],[0.3],vertical,"(390.0, 762.0)",,"('bar', 0.316),nan",0,8241.42,0,0.1,same
0,832,valid,"[(1141, 796)]",[],[1],[0.55],horizontal,"(390.0, 762.0)",0.5166666666666666,0.512,1,8243.902,1,0.1,same
0,833,valid,"[(1182, 781)]",[],[1],[0.5166666666666666],vertical,"(390.0, 262.0)",0.5,0.474,1,8248.335,1,0.1,same
0,834,invalid_same_bar,"[(1167, 772)]",[],[1],[0.5166666666666666],vertical,"(890.0, 262.0)",0.35,0.475,1,8252.858,1,0.1,same
0,835,catch,"[(1175, 787)]",[],[1],[],vertical,"(890.0, 762.0)",1.7,nan,1,8257.536,2,0.1,same
0,836,valid,"[(1175, 784)]","[(1178, 814)]",[1],[0.1],horizontal,"(390.0, 262.0)",,"('bar', 0.118)",0,8262.814,0,0.1,same
0,837,valid,"[(1150, 813)]",[],[1],[0.85],horizontal,"(890.0, 762.0)",0.8833333333333333,nan,0,8265.53,0,0.1,same
0,838,catch,"[(1170, 791)]","[(1176, 802)]",[1],[0.0],vertical,"(390.0, 262.0)",,"('bar', 0.017),nan",0,8270.063,0,0.12,same
0,839,catch,"[(1169, 810)]",[],[1],[],vertical,"(390.0, 262.0)",1.7,nan,1,8272.37,1,0.12,same
0,840,valid,"[(1186, 773)]",[],[1],[0.5333333333333333],vertical,"(390.0, 262.0)",0.5,0.488,1,8277.602,1,0.12,same
0,841,valid,"[(1175, 811)]",[],[1],[0.5333333333333333],vertical,"(890.0, 262.0)",0.85,0.487,1,8282.323,1,0.12,same
0,842,catch,"[(1176, 793)]","[(1173, 808)]",[1],[0.05],horizontal,"(890.0, 262.0)",,"('bar', 0.07),nan",0,8287.202,0,0.14,same
0,843,valid,"[(1165, 800)]",[],[1],[0.65],horizontal,"(890.0, 262.0)",0.4666666666666667,0.612,1,8289.603,1,0.14,same
0,844,invalid_adjacent_other_bar,"[(1175, 784)]",[],[1],[],vertical,"(890.0, 762.0)",,"('cti', 0.082)",0,8294.358,0,0.14,other
0,845,invalid_adjacent_other_bar,"[(1157, 769)]",[],[1],[0.5666666666666667],horizontal,"(390.0, 762.0)",0.95,0.525,1,8297.383,1,0.14,other
0,846,valid,"[(1167, 790)]",[],[1],[0.6],horizontal,"(890.0, 262.0)",0.9666666666666667,0.561,1,8303.534,1,0.14,same
0,847,valid,"[(1181, 766)]",[],[1],[0.7333333333333333],vertical,"(390.0, 262.0)",0.8333333333333334,0.689,1,8308.804,1,0.14,same
0,848,invalid_same_bar,"[(1178, 786)]",[],[1],[0.65],vertical,"(890.0, 262.0)",1.0333333333333332,0.608,1,8313.846,2,0.14,same
0,849,valid,"[(1180, 760)]",[],[1],[0.6166666666666667],horizontal,"(390.0, 262.0)",0.9166666666666666,0.574,1,8319.464,2,0.14,same
0,850,valid,"[(1194, 776)]","[(1178, 826)]",[1],[0.16666666666666666],horizontal,"(890.0, 762.0)",,"('bar', 0.181)",0,8325.284,0,0.14,same
0,851,catch,"[(1139, 776)]",[],[1],[],horizontal,"(390.0, 762.0)",1.7,nan,1,8327.827,1,0.14,same
0,852,valid,"[(1205, 766)]",[],[1],[0.5666666666666667],vertical,"(890.0, 262.0)",1.1166666666666667,0.532,1,8332.766,1,0.14,same
0,853,invalid_adjacent_other_bar,"[(1167, 778)]",[],[1],[0.5833333333333334],horizontal,"(390.0, 262.0)",0.6833333333333333,0.545,1,8337.951,1,0.12,other
0,854,valid,"[(1178, 767)]","[(1152, 824)]",[1],[0.21666666666666667],horizontal,"(390.0, 262.0)",,"('bar', 0.235)",0,8342.669,0,0.12,same
0,855,catch,"[(1162, 769)]",[],[1],[],vertical,"(390.0, 262.0)",1.7,nan,1,8345.269,1,0.12,same
0,856,valid,"[(1176, 806)]",[],[1],[0.55],vertical,"(390.0, 262.0)",0.48333333333333334,0.512,1,8350.553,1,0.12,same
0,857,valid,"[(1166, 778)]",[],[1],[0.6666666666666666],vertical,"(890.0, 262.0)",0.9833333333333333,0.629,1,8354.826,1,0.12,same
