block,practice,trial,change_interval_s,change_interval_frames,taps_start_time_during_fix,taps_end_time_during_fix,taps_start_loc_during_fix,taps_end_loc_during_fix,taps_on_lever_during_fix,taps_on_lever_frame_during_fix,taps_on_lever_s_during_fix,fix_xy,bar_orientation,target_xy,cti,rt,acc,time
1,True,1,1.333,79,[],[260716],"[(1203, 895)]","[(1173, 923)]",[1],[41],[0.6833333333333333],"[640.0, 512.0]",horizontal,"(390.0, 262.0)",[],[0],0,0.107
1,True,2,0.519,31,[],[281562],"[(1252, 837), (1203, 835)]","[(1193, 910)]","[0, 1]",[27],[0.45],"[640.0, 512.0]",horizontal,"(390.0, 262.0)",[],[0],0,255.235
1,True,3,1.373,82,[],[388515],"[(1185, 846)]","[(1169, 868)]",[1],[18],[0.3],"[640.0, 512.0]",vertical,"(890.0, 762.0)",[],[0],0,276.082
1,True,4,0.586,35,[],[],"[(1143, 850)]",[],[1],[],[],"[640.0, 512.0]",horizontal,"(390.0, 762.0)",[],[0],0,383.011
1,False,1,0.657,39,[],[],"[(1150, 838)]",[],[1],[68],[1.1333333333333333],"[640.0, 512.0]",vertical,"(390.0, 262.0)",[1.3333333333333333],[0.462],1,390.437
1,False,2,0.928,55,[],[],"[(1215, 867)]",[],[1],[],[],"[640.0, 512.0]",vertical,"(390.0, 762.0)",[],[0],0,397.642
1,False,3,1.039,62,[],[],"[(1201, 863)]",[],[1],[98],[1.6333333333333333],"[640.0, 512.0]",horizontal,"(890.0, 262.0)",[1.4666666666666666],[0.576],1,419.024
1,False,4,0.642,38,[],[],"[(1193, 898)]",[],[1],[88],[1.4666666666666666],"[640.0, 512.0]",horizontal,"(390.0, 262.0)",[0.6333333333333333],[0.806],0,430.677
1,False,5,1.225,73,[],[],"[(156, 79), (1124, 928)]",[],"[0, 1]",[102],[1.7],"[640.0, 512.0]",horizontal,"(890.0, 262.0)",[0.85],[0.454],1,434.537
1,False,6,1.247,74,[],[],"[(1191, 903)]",[],[1],[111],[1.8499999999999999],"[640.0, 512.0]",vertical,"(390.0, 262.0)",[1.2166666666666666],[0.588],1,442.601
1,False,7,0.966,57,[],[],"[(1193, 896)]",[],[1],[107],[1.7833333333333332],"[640.0, 512.0]",vertical,"(890.0, 262.0)",[1.1333333333333333],[0.821],0,447.16
1,False,8,1.118,67,[],[],"[(1178, 876)]",[],[1],[105],[1.75],"[640.0, 512.0]",horizontal,"(390.0, 262.0)",[0.55],[0.607],1,451.574
1,False,9,1.143,68,[],[],"[(1194, 894)]",[],[1],[101],[1.6833333333333333],"[640.0, 512.0]",vertical,"(890.0, 762.0)",[1.0333333333333332],[0.523],1,461.081
1,False,10,1.176,70,[],[],"[(1196, 904)]",[],[1],[102],[1.7],"[640.0, 512.0]",vertical,"(390.0, 262.0)",[1.5666666666666667],[0.51],1,465.321
1,False,11,0.518,31,[],[],"[(1188, 888)]",[],[1],[64],[1.0666666666666667],"[640.0, 512.0]",vertical,"(390.0, 262.0)",[0.65],[0.53],1,470.054
1,False,12,0.383,22,[],[],"[(1197, 904)]",[],[1],[57],[0.95],"[640.0, 512.0]",horizontal,"(390.0, 262.0)",[1.15],[0.558],1,475.668
1,False,13,1.4,84,[],[],"[(1197, 900)]",[],[1],[115],[1.9166666666666667],"[640.0, 512.0]",horizontal,"(890.0, 262.0)",[1.25],[0.493],1,479.253
1,False,14,1.074,64,[],[],"[(1149, 902)]",[],[1],[114],[1.9],"[640.0, 512.0]",vertical,"(890.0, 262.0)",[0.65],[0.8],0,483.9
1,False,15,0.588,35,[],[],"[(1179, 898)]",[],[1],[80],[1.3333333333333333],"[640.0, 512.0]",vertical,"(390.0, 762.0)",[0.6333333333333333],[0.724],1,487.988
1,False,16,1.312,78,[],[],"[(1180, 919)]",[],[1],[128],[2.1333333333333333],"[640.0, 512.0]",vertical,"(890.0, 762.0)",[1.6833333333333333],[0.806],0,491.613
1,False,17,0.464,27,[],[],"[(1165, 891)]",[],[1],[70],[1.1666666666666667],"[640.0, 512.0]",vertical,"(390.0, 262.0)",[0.9833333333333333],[0.685],1,496.876
1,False,18,1.39,83,[],[],"[(1203, 907)]",[],[1],[120],[2.0],"[640.0, 512.0]",vertical,"(390.0, 762.0)",[0.9166666666666666],[0.59],1,500.873
1,False,19,1.428,85,[],[],"[(1191, 900)]",[],[1],[126],[2.1],"[640.0, 512.0]",horizontal,"(390.0, 762.0)",[0.8833333333333333],[0.657],1,505.24
1,False,20,0.972,58,[],[],"[(1197, 886)]",[],[1],[99],[1.65],"[640.0, 512.0]",vertical,"(890.0, 762.0)",[1.0],[0.661],1,509.658
1,False,21,0.526,31,[],[],"[(1176, 880)]",[],[1],[66],[1.1],"[640.0, 512.0]",vertical,"(890.0, 262.0)",[1.2166666666666666],[0.56],1,513.78
1,False,22,0.344,20,[],[],"[(1203, 890)]",[],[1],[57],[0.95],"[640.0, 512.0]",vertical,"(390.0, 762.0)",[0.85],[0.594],1,518.871
1,False,23,1.128,67,[],[],"[(1196, 901)]",[],[1],[99],[1.65],"[640.0, 512.0]",vertical,"(890.0, 762.0)",[1.4833333333333334],[0.514],1,522.168
1,False,24,0.838,50,[],[],"[(1195, 904)]",[],[1],[100],[1.6666666666666667],"[640.0, 512.0]",horizontal,"(890.0, 762.0)",[0.8833333333333333],[0.799],0,526.739
1,False,25,0.62,37,[],[],"[(1174, 901)]",[],[1],[72],[1.2],"[640.0, 512.0]",vertical,"(390.0, 262.0)",[0.7166666666666667],[0.563],1,530.765
1,False,26,0.892,53,[],[],"[(1197, 899)]",[],[1],[82],[1.3666666666666667],"[640.0, 512.0]",horizontal,"(890.0, 262.0)",[1.6],[0.458],1,534.684
1,False,27,1.342,80,[],[],"[(1203, 899)]",[],[1],[130],[2.1666666666666665],"[640.0, 512.0]",horizontal,"(390.0, 262.0)",[1.1],[0.806],0,539.242
1,False,28,1.153,69,[],[],"[(1194, 879)]",[],[1],[103],[1.7166666666666666],"[640.0, 512.0]",horizontal,"(390.0, 262.0)",[0.9833333333333333],[0.543],1,543.978
1,False,29,0.3,18,[],[],"[(1216, 899)]",[],[1],[56],[0.9333333333333333],"[640.0, 512.0]",horizontal,"(890.0, 762.0)",[1.4166666666666667],[0.602],1,548.186
1,False,30,0.713,42,[],[],"[(1196, 885)]",[],[1],[92],[1.5333333333333332],"[640.0, 512.0]",horizontal,"(890.0, 762.0)",[1.5166666666666666],[0.8],0,552.037
1,False,31,0.996,59,[],[],"[(1203, 879)]",[],[1],[92],[1.5333333333333332],"[640.0, 512.0]",vertical,"(890.0, 262.0)",[0.9833333333333333],[0.522],1,556.624
1,False,32,0.764,45,[],[],"[(1203, 891)]",[],[1],[76],[1.2666666666666666],"[640.0, 512.0]",vertical,"(390.0, 262.0)",[0.85],[0.492],1,560.718
1,False,33,0.453,27,[],[],"[(1198, 880)]",[],[1],[60],[1.0],"[640.0, 512.0]",horizontal,"(390.0, 762.0)",[1.2666666666666666],[0.525],1,564.355
1,False,34,0.962,57,[],[],"[(1203, 901)]",[],[1],[107],[1.7833333333333332],"[640.0, 512.0]",horizontal,"(890.0, 762.0)",[1.6666666666666667],[0.796],0,568.125
1,False,35,1.138,68,[],[],"[(1194, 875)]",[],[1],[118],[1.9666666666666666],"[640.0, 512.0]",horizontal,"(390.0, 262.0)",[1.3333333333333333],[0.803],0,573.124
1,False,36,1.493,89,[],[],"[(1197, 901)]",[],[1],[122],[2.033333333333333],"[640.0, 512.0]",vertical,"(890.0, 762.0)",[0.8333333333333334],[0.523],1,578.559
1,False,37,0.888,53,[],[],"[(1203, 899)]",[],[1],[103],[1.7166666666666666],"[640.0, 512.0]",horizontal,"(890.0, 762.0)",[1.3666666666666667],[0.803],0,582.99
1,False,38,0.457,27,[],[],"[(1203, 890)]",[],[1],[77],[1.2833333333333332],"[640.0, 512.0]",horizontal,"(890.0, 262.0)",[0.6],[0.799],0,587.527
1,False,39,0.574,34,[],[],"[(1201, 892)]",[],[1],[68],[1.1333333333333333],"[640.0, 512.0]",vertical,"(390.0, 762.0)",[1.1166666666666667],[0.537],1,591.523
1,False,40,0.401,24,[],[],"[(1198, 902)]",[],[1],[74],[1.2333333333333334],"[640.0, 512.0]",vertical,"(890.0, 262.0)",[0.7666666666666666],[0.799],0,597.861
1,False,41,1.492,89,[],[],"[(1185, 900)]",[],[1],[134],[2.2333333333333334],"[640.0, 512.0]",horizontal,"(390.0, 762.0)",[0.5166666666666666],[0.724],1,601.39
1,False,42,0.788,47,[],[],"[(1225, 896)]",[],[1],[88],[1.4666666666666666],"[640.0, 512.0]",vertical,"(390.0, 262.0)",[0.9333333333333333],[0.652],1,605.644
1,False,43,0.377,22,[],[],"[(1179, 899)]",[],[1],[72],[1.2],"[640.0, 512.0]",vertical,"(390.0, 262.0)",[1.2666666666666666],[0.803],0,609.527
1,False,44,0.8,48,[],[],"[(1197, 885)]",[],[1],[98],[1.6333333333333333],"[640.0, 512.0]",horizontal,"(890.0, 762.0)",[1.2],[0.802],0,613.815
1,False,45,1.359,81,[],[],"[(1190, 905)]",[],[1],[114],[1.9],"[640.0, 512.0]",horizontal,"(390.0, 762.0)",[1.2833333333333332],[0.525],1,618.956
1,False,46,1.161,69,[],[],"[(1195, 899)]",[],[1],[101],[1.6833333333333333],"[640.0, 512.0]",horizontal,"(390.0, 762.0)",[1.4166666666666667],[0.513],1,623.771
1,False,47,0.694,41,[],[],"[(1191, 902)]",[],[1],[74],[1.2333333333333334],"[640.0, 512.0]",vertical,"(890.0, 762.0)",[1.6333333333333333],[0.526],1,628.387
1,False,48,1.446,86,[],[],"[(1187, 898)]",[],[1],[136],[2.2666666666666666],"[640.0, 512.0]",vertical,"(890.0, 262.0)",[1.5166666666666666],[0.801],0,633.18
1,False,49,0.379,22,[],[],"[(1185, 863)]",[],[1],[65],[1.0833333333333333],"[640.0, 512.0]",vertical,"(890.0, 262.0)",[1.1166666666666667],[0.689],1,638.41
1,False,50,0.562,33,[],[],"[(1201, 889)]",[],[1],[83],[1.3833333333333333],"[640.0, 512.0]",vertical,"(390.0, 762.0)",[1.5],[0.809],0,643.392
1,False,51,0.519,31,[],[],"[(1184, 902)]",[],[1],[64],[1.0666666666666667],"[640.0, 512.0]",vertical,"(890.0, 262.0)",[1.4166666666666667],[0.527],1,647.816
1,False,52,0.493,29,[],[],"[(1197, 898)]",[],[1],[79],[1.3166666666666667],"[640.0, 512.0]",horizontal,"(890.0, 762.0)",[0.8333333333333334],[0.802],0,652.145
1,False,53,0.477,28,[],[],"[(1182, 880)]",[],[1],[72],[1.2],"[640.0, 512.0]",horizontal,"(890.0, 762.0)",[0.8166666666666667],[0.707],1,655.807
1,False,54,0.771,46,[],[],"[(1191, 918)]",[],[1],[80],[1.3333333333333333],"[640.0, 512.0]",horizontal,"(890.0, 762.0)",[0.7],[0.544],1,660.357
1,False,55,0.541,32,[],[],"[(1203, 899)]",[],[1],[82],[1.3666666666666667],"[640.0, 512.0]",vertical,"(890.0, 762.0)",[0.6],[0.81],0,663.89
1,False,56,0.855,51,[],[],"[(1175, 889)]",[],[1],[101],[1.6833333333333333],"[640.0, 512.0]",vertical,"(390.0, 262.0)",[1.5166666666666666],[0.802],0,667.357
1,False,57,0.791,47,[],[],"[(1147, 930)]",[],[1],[84],[1.4],"[640.0, 512.0]",horizontal,"(890.0, 262.0)",[1.5],[0.591],1,673.055
1,False,58,0.326,19,[],[],"[(1203, 893)]",[],[1],[68],[1.1333333333333333],"[640.0, 512.0]",horizontal,"(390.0, 262.0)",[1.6],[0.79],1,677.63
1,False,59,1.314,78,[],[],"[(1203, 890)]",[],[1],[123],[2.05],"[640.0, 512.0]",vertical,"(390.0, 762.0)",[1.65],[0.72],1,681.834
1,False,60,0.907,54,[],[],"[(1202, 899)]",[],[1],[104],[1.7333333333333334],"[640.0, 512.0]",vertical,"(390.0, 762.0)",[0.95],[0.816],0,687.111
2,False,61,1.448,86,[],[],"[(1173, 899)]",[],[1],[125],[2.0833333333333335],"[640.0, 512.0]",vertical,"(890.0, 762.0)",[0.6833333333333333],[0.621],1,691.291
2,False,62,1.072,64,[],[],"[(1166, 894)]",[],[1],[95],[1.5833333333333333],"[640.0, 512.0]",vertical,"(390.0, 262.0)",[0.9333333333333333],[0.49],1,695.979
2,False,63,0.943,56,[],[],"[(1226, 880)]",[],[1],[],[],"[640.0, 512.0]",horizontal,"(390.0, 762.0)",[],[0],0,701.957
2,False,64,0.488,29,[],[],"[(1196, 895)]",[],[1],[78],[1.3],"[640.0, 512.0]",horizontal,"(390.0, 762.0)",[1.0333333333333332],[0.786],1,705.113
2,False,65,1.318,79,[],[],"[(1203, 889)]",[],[1],[129],[2.15],"[640.0, 512.0]",vertical,"(390.0, 762.0)",[1.25],[0.797],0,709.403
2,False,66,1.148,68,[],[],"[(1203, 892)]",[],[1],[118],[1.9666666666666666],"[640.0, 512.0]",vertical,"(390.0, 762.0)",[0.6833333333333333],[0.797],0,714.308
2,False,67,1.248,74,[],[],"[(444, 616), (436, 636), (673, 661), (1179, 896)]",[],"[0, 0, 0, 1]",[124],[2.0666666666666664],"[640.0, 512.0]",horizontal,"(890.0, 762.0)",[1.0666666666666667],[0.806],0,718.78
2,False,68,1.022,61,[],[],"[(1186, 896)]",[],[1],[94],[1.5666666666666667],"[640.0, 512.0]",horizontal,"(890.0, 262.0)",[0.8166666666666667],[0.525],1,733.488
2,False,69,1.362,81,[],[],"[(1191, 902)]",[],[1],[131],[2.183333333333333],"[640.0, 512.0]",horizontal,"(390.0, 762.0)",[0.5333333333333333],[0.808],0,737.529
2,False,70,0.843,50,[],[],"[(438, 684), (1190, 902)]",[],"[0, 1]",[100],[1.6666666666666667],"[640.0, 512.0]",vertical,"(890.0, 762.0)",[0.8166666666666667],[0.802],0,741.758
2,False,71,0.75,45,[],[],"[(436, 466), (1146, 889)]",[],"[0, 1]",[85],[1.4166666666666667],"[640.0, 512.0]",vertical,"(390.0, 762.0)",[1.0],[0.639],1,747.797
2,False,72,0.619,37,[],[],"[(1200, 910)]",[],[1],[69],[1.15],"[640.0, 512.0]",vertical,"(890.0, 262.0)",[0.7],[0.506],1,756.23
2,False,73,0.8,48,[],[],"[(1193, 905)]",[],[1],[98],[1.6333333333333333],"[640.0, 512.0]",horizontal,"(390.0, 762.0)",[1.6666666666666667],[0.806],0,760.809
2,False,74,0.877,52,[],[],"[(613, 699), (1205, 872)]",[],"[0, 1]",[102],[1.7],"[640.0, 512.0]",vertical,"(890.0, 762.0)",[0.5666666666666667],[0.803],0,765.751
2,False,75,0.95,57,[],[],"[(1203, 893)]",[],[1],[94],[1.5666666666666667],"[640.0, 512.0]",horizontal,"(390.0, 762.0)",[1.5666666666666667],[0.6],1,771.056
2,False,76,0.405,24,[],[],"[(1191, 898)]",[],[1],[74],[1.2333333333333334],"[640.0, 512.0]",vertical,"(390.0, 262.0)",[1.35],[0.802],0,776.61
2,False,77,1.392,83,[],[],"[(1209, 879)]",[],[1],[133],[2.216666666666667],"[640.0, 512.0]",horizontal,"(890.0, 762.0)",[1.1166666666666667],[0.8],0,780.692
2,False,78,1.375,82,[],[],"[(1197, 896)]",[],[1],[132],[2.2],"[640.0, 512.0]",horizontal,"(890.0, 262.0)",[1.6666666666666667],[0.805],0,785.505
2,False,79,1.278,76,[],[],"[(1194, 881)]",[],[1],[126],[2.1],"[640.0, 512.0]",horizontal,"(390.0, 762.0)",[1.6],[0.808],0,791.012
2,False,80,0.776,46,[],[],"[(1156, 898)]",[],[1],[96],[1.6],"[640.0, 512.0]",vertical,"(890.0, 762.0)",[0.95],[0.798],0,797.331
2,False,81,1.342,80,[],[],"[(1172, 896)]",[],[1],[130],[2.1666666666666665],"[640.0, 512.0]",horizontal,"(890.0, 262.0)",[1.6666666666666667],[0.802],0,802.031
2,False,82,0.736,44,[],[],"[(1174, 899)]",[],[1],[80],[1.3333333333333333],"[640.0, 512.0]",vertical,"(390.0, 762.0)",[1.5166666666666666],[0.571],1,807.482
2,False,83,0.515,30,[],[],"[(1197, 899)]",[],[1],[80],[1.3333333333333333],"[640.0, 512.0]",vertical,"(890.0, 262.0)",[0.8833333333333333],[0.805],0,812.592
2,False,84,1.304,78,[],[],"[(1176, 876)]",[],[1],[128],[2.1333333333333333],"[640.0, 512.0]",horizontal,"(890.0, 262.0)",[1.6666666666666667],[0.803],0,816.344
2,False,85,0.763,45,[],[],"[(1173, 876)]",[],[1],[81],[1.35],"[640.0, 512.0]",horizontal,"(890.0, 762.0)",[1.5666666666666667],[0.575],1,822.223
2,False,86,0.98,58,[],[],"[(1173, 875)]",[],[1],[103],[1.7166666666666666],"[640.0, 512.0]",horizontal,"(890.0, 762.0)",[1.2833333333333332],[0.717],1,827.259
2,False,87,1.186,71,[],[],"[(1188, 894)]",[],[1],[121],[2.0166666666666666],"[640.0, 512.0]",horizontal,"(390.0, 262.0)",[1.4333333333333333],[0.802],0,831.838
2,False,88,1.317,79,[],[],"[(1203, 885)]",[],[1],[129],[2.15],"[640.0, 512.0]",horizontal,"(390.0, 262.0)",[1.6],[0.802],0,836.793
2,False,89,0.769,46,[],[],"[(1191, 897)]",[],[1],[96],[1.6],"[640.0, 512.0]",vertical,"(890.0, 762.0)",[1.5833333333333333],[0.804],0,842.623
2,False,90,1.217,73,[],[],"[(1191, 874)]",[],[1],[108],[1.8],"[640.0, 512.0]",horizontal,"(390.0, 262.0)",[1.4166666666666667],[0.558],1,847.679
2,False,91,1.159,69,[],[],"[(1179, 894)]",[],[1],"[119, 119]","[1.9833333333333334, 1.9833333333333334]","[640.0, 512.0]",horizontal,"(390.0, 262.0)",[0.7333333333333333],"[0.804, 0.804]",0,863.943
2,False,92,1.336,80,[],[],"[(1203, 896)]",[],[1],[117],[1.95],"[640.0, 512.0]",horizontal,"(390.0, 262.0)",[0.65],[0.587],1,868.54
2,False,93,1.08,64,[],[],"[(1203, 890)]",[],[1],[108],[1.8],"[640.0, 512.0]",horizontal,"(890.0, 262.0)",[1.3333333333333333],[0.703],1,872.652
2,False,94,1.341,80,[],[],"[(1210, 903)]",[],[1],[130],[2.1666666666666665],"[640.0, 512.0]",horizontal,"(390.0, 762.0)",[1.15],[0.805],0,877.337
2,False,95,1.067,64,[],[],"[(1203, 898)]",[],[1],[114],[1.9],"[640.0, 512.0]",vertical,"(390.0, 262.0)",[0.8166666666666667],[0.808],0,882.164
2,False,96,0.957,57,[],[],"[(1185, 892)]",[],[1],[87],[1.45],"[640.0, 512.0]",vertical,"(390.0, 262.0)",[1.35],[0.477],1,886.406
2,False,97,0.867,52,[],[],"[(1197, 888)]",[],[1],[85],[1.4166666666666667],"[640.0, 512.0]",horizontal,"(390.0, 262.0)",[1.0333333333333332],[0.526],1,891.143
2,False,98,0.684,41,[],[],"[(1203, 889)]",[],[1],[72],[1.2],"[640.0, 512.0]",vertical,"(890.0, 262.0)",[1.5666666666666667],[0.492],1,895.092
2,False,99,0.707,42,[],[],"[(1204, 892)]",[],[1],[92],[1.5333333333333332],"[640.0, 512.0]",horizontal,"(390.0, 762.0)",[0.6333333333333333],[0.797],0,899.353
2,False,100,1.437,86,[],[],"[(1203, 901)]",[],[1],[117],[1.95],"[640.0, 512.0]",horizontal,"(390.0, 262.0)",[0.7166666666666667],[0.497],1,903.006
2,False,101,0.323,19,[],[],"[(1185, 898)]",[],[1],[58],[0.9666666666666667],"[640.0, 512.0]",vertical,"(390.0, 762.0)",[1.5],[0.626],1,915.49
2,False,102,0.714,42,[],[],"[(1197, 895)]",[],[1],[74],[1.2333333333333334],"[640.0, 512.0]",horizontal,"(390.0, 262.0)",[0.7333333333333333],[0.515],1,919.528
2,False,103,0.79,47,[],[],"[(1200, 904)]",[],[1],[88],[1.4666666666666666],"[640.0, 512.0]",vertical,"(890.0, 762.0)",[0.7166666666666667],[0.662],1,922.992
2,False,104,1.086,65,[],[],"[(1197, 880)]",[],[1],[106],[1.7666666666666666],"[640.0, 512.0]",horizontal,"(890.0, 762.0)",[0.5666666666666667],[0.655],1,926.712
2,False,105,0.986,59,[],[],"[(1193, 890)]",[],[1],[90],[1.5],"[640.0, 512.0]",vertical,"(890.0, 262.0)",[1.6333333333333333],[0.49],1,930.561
2,False,106,1.453,87,[],[],"[(1170, 883)]",[],[1],[117],[1.95],"[640.0, 512.0]",horizontal,"(890.0, 262.0)",[0.6166666666666667],[0.48],1,935.16
2,False,107,1.413,84,[],[],"[(1170, 889)]",[],[1],[120],[2.0],"[640.0, 512.0]",horizontal,"(390.0, 762.0)",[1.35],[0.579],1,939.289
2,False,108,0.805,48,[],[],"[(1173, 897)]",[],[1],[85],[1.4166666666666667],"[640.0, 512.0]",horizontal,"(390.0, 762.0)",[0.6166666666666667],[0.588],1,944.197
2,False,109,0.346,20,[],[],"[(1199, 885)]",[],[1],[70],[1.1666666666666667],"[640.0, 512.0]",vertical,"(390.0, 262.0)",[0.5833333333333334],[0.808],0,947.75
2,False,110,0.364,21,[],[],"[(1171, 889)]",[],[1],[53],[0.8833333333333333],"[640.0, 512.0]",horizontal,"(890.0, 262.0)",[0.5833333333333334],[0.506],1,951.014
2,False,111,1.407,84,[],[],"[(1203, 894)]",[],[1],[134],[2.2333333333333334],"[640.0, 512.0]",horizontal,"(390.0, 762.0)",[0.5666666666666667],[0.812],0,954.316
2,False,112,1.221,73,[],[],"[(1179, 923)]",[],[1],[112],[1.8666666666666667],"[640.0, 512.0]",horizontal,"(390.0, 762.0)",[1.5666666666666667],[0.625],1,958.642
2,False,113,0.993,59,[],[],"[(1192, 907)]",[],[1],[88],[1.4666666666666666],"[640.0, 512.0]",horizontal,"(890.0, 262.0)",[1.6166666666666667],[0.464],1,964.142
2,False,114,1.448,86,[],[],"[(1199, 907)]",[],[1],[136],[2.2666666666666666],"[640.0, 512.0]",horizontal,"(890.0, 262.0)",[1.65],[0.809],0,968.776
2,False,115,1.17,70,[],[],"[(1157, 886)]",[],[1],[117],[1.95],"[640.0, 512.0]",horizontal,"(390.0, 262.0)",[0.8666666666666667],[0.755],1,974.364
2,False,116,0.985,59,[],[],"[(1185, 898)]",[],[1],[95],[1.5833333333333333],"[640.0, 512.0]",vertical,"(890.0, 262.0)",[1.1833333333333333],[0.576],1,979.708
2,False,117,0.559,33,[],[],"[(1197, 898)]",[],[1],[69],[1.15],"[640.0, 512.0]",vertical,"(890.0, 262.0)",[0.8166666666666667],[0.58],1,984.008
2,False,118,0.486,29,[],[],"[(1197, 872)]",[],[1],[71],[1.1833333333333333],"[640.0, 512.0]",vertical,"(390.0, 762.0)",[1.1166666666666667],[0.679],1,987.501
2,False,119,0.346,20,[],[],"[(1177, 899)]",[],[1],[54],[0.9],"[640.0, 512.0]",vertical,"(890.0, 762.0)",[1.2833333333333332],[0.536],1,991.309
2,False,120,0.954,57,[],[],"[(1199, 901)]",[],[1],[90],[1.5],"[640.0, 512.0]",vertical,"(390.0, 762.0)",[1.1],[0.53],1,995.029
3,False,121,1.134,68,[],[],"[(1185, 893)]",[],[1],[99],[1.65],"[640.0, 512.0]",vertical,"(390.0, 262.0)",[0.5166666666666666],[0.502],1,999.141
3,False,122,0.986,59,[],[],"[(454, 904), (1193, 895)]",[],"[0, 1]",[97],[1.6166666666666667],"[640.0, 512.0]",horizontal,"(890.0, 262.0)",[0.9833333333333333],[0.607],1,1002.839
3,False,123,0.414,24,[],[],"[(1203, 894)]",[],[1],[74],[1.2333333333333334],"[640.0, 512.0]",vertical,"(390.0, 262.0)",[1.55],[0.799],0,1011.743
3,False,124,0.501,30,[],[],"[(1197, 913)]",[],[1],[80],[1.3333333333333333],"[640.0, 512.0]",vertical,"(390.0, 762.0)",[1.15],[0.804],0,1016.006
3,False,125,1.01,60,[],[],"[(1173, 901)]",[],[1],[],[],"[640.0, 512.0]",vertical,"(390.0, 762.0)",[],[0],0,1022.143
3,False,126,0.653,39,[],[],"[(1185, 904)]",[],[1],[71],[1.1833333333333333],"[640.0, 512.0]",vertical,"(890.0, 262.0)",[1.5166666666666666],[0.514],1,1026.611
3,False,127,1.361,81,[],[],"[(1203, 894)]",[],[1],[114],[1.9],"[640.0, 512.0]",vertical,"(890.0, 762.0)",[0.7166666666666667],[0.531],1,1044.693
3,False,128,1.337,80,[],[],"[(1203, 900)]",[],[1],[123],[2.05],"[640.0, 512.0]",vertical,"(890.0, 262.0)",[1.45],[0.687],1,1048.86
3,False,129,0.479,28,[],[],"[(1193, 901)]",[],[1],[60],[1.0],"[640.0, 512.0]",horizontal,"(890.0, 762.0)",[1.2333333333333334],[0.51],1,1053.859
3,False,130,1.32,79,[],[],"[(1173, 881)]",[],[1],[109],[1.8166666666666667],"[640.0, 512.0]",vertical,"(390.0, 762.0)",[1.5833333333333333],[0.478],1,1057.727
3,False,131,0.636,38,[],[],"[(1203, 896)]",[],[1],[76],[1.2666666666666666],"[640.0, 512.0]",vertical,"(390.0, 762.0)",[1.1333333333333333],[0.608],1,1063.291
3,False,132,0.654,39,[],[],"[(1195, 890)]",[],[1],[82],[1.3666666666666667],"[640.0, 512.0]",vertical,"(890.0, 262.0)",[1.1166666666666667],[0.69],1,1067.191
3,False,133,0.306,18,[],[],"[(1185, 891)]",[],[1],[54],[0.9],"[640.0, 512.0]",horizontal,"(390.0, 262.0)",[1.0666666666666667],[0.568],1,1071.263
3,False,134,0.618,37,[],[],"[(1182, 889)]",[],[1],[87],[1.45],"[640.0, 512.0]",horizontal,"(890.0, 762.0)",[1.1833333333333333],[0.796],0,1074.82
3,False,135,1.006,60,[],[],"[(1197, 895)]",[],[1],[88],[1.4666666666666666],"[640.0, 512.0]",vertical,"(390.0, 262.0)",[1.0666666666666667],[0.439],1,1079.0
3,False,136,1.426,85,[],[],"[(1197, 892)]",[],[1],[116],[1.9333333333333333],"[640.0, 512.0]",horizontal,"(390.0, 762.0)",[0.9],[0.495],1,1083.138
3,False,137,1.017,61,[],[],"[(1195, 899)]",[],[1],[93],[1.55],"[640.0, 512.0]",horizontal,"(890.0, 762.0)",[0.6166666666666667],[0.514],1,1087.527
3,False,138,0.773,46,[],[],"[(1175, 900)]",[],[1],[81],[1.35],"[640.0, 512.0]",horizontal,"(390.0, 762.0)",[1.1666666666666667],[0.556],1,1091.23
3,False,139,0.614,36,[],[],"[(1184, 892)]",[],[1],[82],[1.3666666666666667],"[640.0, 512.0]",vertical,"(890.0, 762.0)",[1.5833333333333333],[0.738],1,1095.354
3,False,140,1.446,86,[],[],"[(1196, 909)]",[],[1],[130],[2.1666666666666665],"[640.0, 512.0]",horizontal,"(390.0, 762.0)",[0.8833333333333333],[0.708],1,1099.87
3,False,141,0.383,22,[],[],"[(1199, 894)]",[],[1],[61],[1.0166666666666666],"[640.0, 512.0]",vertical,"(390.0, 262.0)",[1.15],[0.628],1,1104.477
3,False,142,1.413,84,[],[],"[(1179, 899)]",[],[1],[117],[1.95],"[640.0, 512.0]",horizontal,"(390.0, 262.0)",[1.6333333333333333],[0.525],1,1108.151
3,False,143,1.099,65,[],[],"[(1209, 899)]",[],[1],[100],[1.6666666666666667],"[640.0, 512.0]",horizontal,"(390.0, 262.0)",[1.3833333333333333],[0.56],1,1113.264
3,False,144,1.355,81,[],[],"[(1203, 898)]",[],[1],[119],[1.9833333333333334],"[640.0, 512.0]",horizontal,"(390.0, 762.0)",[1.6],[0.611],1,1117.926
3,False,145,1.144,68,[],[],"[(1190, 906)]",[],[1],[103],[1.7166666666666666],"[640.0, 512.0]",horizontal,"(890.0, 762.0)",[1.3166666666666667],[0.557],1,1123.021
3,False,146,1.106,66,[],[],"[(1210, 912)]",[],[1],[98],[1.6333333333333333],"[640.0, 512.0]",horizontal,"(890.0, 262.0)",[0.75],[0.509],1,1127.82
3,False,147,0.746,44,[],[],"[(1197, 895)]",[],[1],[77],[1.2833333333333332],"[640.0, 512.0]",horizontal,"(890.0, 262.0)",[1.45],[0.527],1,1131.687
3,False,148,1.244,74,[],[],"[(1190, 893)]",[],[1],[112],[1.8666666666666667],"[640.0, 512.0]",vertical,"(390.0, 762.0)",[1.25],[0.614],1,1136.008
3,False,149,0.917,55,[],[],"[(1191, 902)]",[],[1],[101],[1.6833333333333333],"[640.0, 512.0]",horizontal,"(390.0, 262.0)",[1.3833333333333333],[0.74],1,1140.748
3,False,150,1.268,76,[],[],"[(1183, 893)]",[],[1],[114],[1.9],"[640.0, 512.0]",horizontal,"(390.0, 762.0)",[1.5],[0.612],1,1145.377
3,False,151,0.756,45,[],[],"[(1167, 903)]",[],[1],[78],[1.3],"[640.0, 512.0]",horizontal,"(890.0, 762.0)",[1.0],[0.531],1,1150.356
3,False,152,0.81,48,[],[],"[(1203, 899)]",[],[1],[85],[1.4166666666666667],"[640.0, 512.0]",vertical,"(390.0, 762.0)",[1.5666666666666667],[0.594],1,1154.257
3,False,153,0.746,44,[],[],"[(1197, 899)]",[],[1],[84],[1.4],"[640.0, 512.0]",vertical,"(890.0, 762.0)",[0.6333333333333333],[0.636],1,1158.784
3,False,154,1.379,82,[],[],"[(1203, 898)]",[],[1],[112],[1.8666666666666667],"[640.0, 512.0]",horizontal,"(890.0, 262.0)",[0.85],[0.48],1,1162.357
3,False,155,0.721,43,[],[],"[(1170, 895)]",[],[1],[75],[1.25],"[640.0, 512.0]",vertical,"(390.0, 262.0)",[1.6],[0.516],1,1166.66
3,False,156,1.5,90,[],[],"[(1203, 895)]",[],[1],[125],[2.0833333333333335],"[640.0, 512.0]",horizontal,"(390.0, 762.0)",[1.05],[0.562],1,1171.074
3,False,157,0.94,56,[],[],"[(1203, 902)]",[],[1],[87],[1.45],"[640.0, 512.0]",horizontal,"(390.0, 762.0)",[1.6],[0.496],1,1175.759
3,False,158,1.125,67,[],[],"[(1150, 896)]",[],[1],[99],[1.65],"[640.0, 512.0]",horizontal,"(890.0, 262.0)",[0.85],[0.509],1,1180.621
3,False,159,1.387,83,[],[],"[(1189, 894)]",[],[1],[133],[2.216666666666667],"[640.0, 512.0]",horizontal,"(890.0, 762.0)",[0.65],[0.808],0,1184.809
3,False,160,0.806,48,[],[],"[(1203, 899)]",[],[1],[76],[1.2666666666666666],"[640.0, 512.0]",horizontal,"(890.0, 262.0)",[1.3],[0.443],1,1189.223
3,False,161,0.486,29,[],[],"[(1203, 898)]",[],[1],[61],[1.0166666666666666],"[640.0, 512.0]",vertical,"(390.0, 262.0)",[1.1333333333333333],[0.51],1,1193.326
3,False,162,0.451,27,[],[],"[(1162, 898)]",[],[1],[63],[1.05],"[640.0, 512.0]",vertical,"(390.0, 262.0)",[1.0833333333333333],[0.572],1,1197.021
3,False,163,1.311,78,[],[],"[(1207, 885)]",[],[1],[114],[1.9],"[640.0, 512.0]",horizontal,"(890.0, 262.0)",[1.1666666666666667],[0.568],1,1200.69
3,False,164,0.663,39,[],[],"[(1185, 894)]",[],[1],[69],[1.15],"[640.0, 512.0]",vertical,"(890.0, 262.0)",[1.2166666666666666],[0.479],1,1205.268
3,False,165,1.356,81,[],[],"[(1173, 908)]",[],[1],"[131, 131]","[2.183333333333333, 2.183333333333333]","[640.0, 512.0]",vertical,"(890.0, 762.0)",[1.6333333333333333],"[0.804, 0.804]",0,1209.497
3,False,166,0.733,43,[],[],"[(1160, 907)]",[],[1],[93],[1.55],"[640.0, 512.0]",vertical,"(890.0, 762.0)",[1.15],[0.808],0,1214.845
3,False,167,0.914,54,[],[],"[(1189, 920)]",[],[1],[104],[1.7333333333333334],"[640.0, 512.0]",vertical,"(390.0, 762.0)",[0.5166666666666666],[0.805],0,1239.216
3,False,168,1.017,61,[],[],"[(1192, 915)]",[],[1],[100],[1.6666666666666667],"[640.0, 512.0]",vertical,"(390.0, 262.0)",[1.6166666666666667],[0.623],1,1242.969
3,False,169,0.497,29,[],[],"[(1186, 912)]",[],[1],[67],[1.1166666666666667],"[640.0, 512.0]",vertical,"(390.0, 762.0)",[1.1],[0.606],1,1247.778
3,False,170,1.498,89,[],[],"[(1184, 917)]",[],[1],[131],[2.183333333333333],"[640.0, 512.0]",vertical,"(390.0, 262.0)",[1.5],[0.678],1,1251.523
3,False,171,0.889,53,[],[],"[(1178, 901)]",[],[1],[86],[1.4333333333333333],"[640.0, 512.0]",horizontal,"(890.0, 262.0)",[0.9333333333333333],[0.526],1,1256.775
3,False,172,0.423,25,[],[],"[(1190, 900)]",[],[1],[61],[1.0166666666666666],"[640.0, 512.0]",horizontal,"(390.0, 762.0)",[1.3833333333333333],[0.574],1,1262.128
3,False,173,0.953,57,[],[],"[(1197, 902)]",[],[1],[107],[1.7833333333333332],"[640.0, 512.0]",vertical,"(890.0, 262.0)",[0.75],[0.806],0,1266.084
3,False,174,1.419,85,[],[],"[(1227, 900)]",[],[1],[135],[2.25],"[640.0, 512.0]",vertical,"(390.0, 762.0)",[1.2166666666666666],[0.808],0,1270.182
3,False,175,0.564,33,[],[],"[(1215, 876)]",[],[1],[69],[1.15],"[640.0, 512.0]",vertical,"(890.0, 762.0)",[0.6166666666666667],[0.573],1,1337.495
3,False,176,0.989,59,[],[],"[(1187, 907)]",[],[1],[103],[1.7166666666666666],"[640.0, 512.0]",horizontal,"(390.0, 762.0)",[0.6666666666666666],[0.706],1,1701.37
3,False,177,1.363,81,[],[],"[(1204, 909)]",[],[1],[112],[1.8666666666666667],"[640.0, 512.0]",vertical,"(890.0, 762.0)",[1.4666666666666666],[0.503],1,1707.03
3,False,178,0.745,44,[],[],"[(1191, 907)]",[],[1],[86],[1.4333333333333333],"[640.0, 512.0]",vertical,"(890.0, 762.0)",[0.65],[0.67],1,1711.937
3,False,179,0.75,45,[],[],"[(1197, 904)]",[],[1],[86],[1.4333333333333333],"[640.0, 512.0]",horizontal,"(890.0, 762.0)",[0.7333333333333333],[0.658],1,1715.787
3,False,180,1.076,64,[],[],"[(1203, 906)]",[],[1],[99],[1.65],"[640.0, 512.0]",horizontal,"(390.0, 262.0)",[1.2],[0.558],1,1719.496
4,False,181,1.235,74,[],[1734327],"[(1032, 849)]","[(1032, 849)]",[1],[9],[0.15],"[640.0, 512.0]",horizontal,"(390.0, 762.0)",[],[0],0,1723.862
4,False,182,0.315,18,[],[],"[(576, 650), (734, 540), (825, 454), (490, 464), (655, 488), (664, 301), (1028, 650), (948, 473), (1189, 909)]",[],"[0, 0, 0, 0, 0, 0, 0, 0, 1]",[47],[0.7833333333333333],"[640.0, 512.0]",vertical,"(390.0, 762.0)",[1.5],[0.467],1,1728.826
4,False,183,0.901,54,[],[],"[(1171, 899)]",[],[1],[82],[1.3666666666666667],"[640.0, 512.0]",vertical,"(890.0, 762.0)",[1.3166666666666667],[0.446],1,1783.294
4,False,184,0.707,42,[],[],"[(1205, 899)]",[],[1],[74],[1.2333333333333334],"[640.0, 512.0]",vertical,"(390.0, 262.0)",[1.3666666666666667],[0.507],1,1787.545
4,False,185,0.611,36,[],[],"[(284, 285), (1154, 260), (673, 358), (436, 412), (363, 378), (466, 400), (1161, 894)]",[],"[0, 0, 0, 0, 0, 0, 1]",[69],[1.15],"[640.0, 512.0]",horizontal,"(890.0, 762.0)",[1.5666666666666667],[0.527],1,1791.662
4,False,186,0.424,25,[],[],"[(1163, 896)]",[],[1],[70],[1.1666666666666667],"[640.0, 512.0]",vertical,"(390.0, 262.0)",[0.5],[0.734],1,1881.879
4,False,187,0.74,44,[],[],"[(1172, 919)]",[],[1],[75],[1.25],"[640.0, 512.0]",vertical,"(390.0, 262.0)",[0.7333333333333333],[0.494],1,1885.146
4,False,188,0.911,54,[],[],"[(1191, 905)]",[],[1],[86],[1.4333333333333333],"[640.0, 512.0]",vertical,"(890.0, 262.0)",[0.85],[0.51],1,1888.827
4,False,189,0.691,41,[],[],"[(1173, 896)]",[],[1],[91],[1.5166666666666666],"[640.0, 512.0]",horizontal,"(890.0, 762.0)",[0.5666666666666667],[0.807],0,1892.654
4,False,190,1.362,81,[],[],"[(1193, 900)]",[],[1],[95],[1.5833333333333333],"[640.0, 512.0]",vertical,"(390.0, 262.0)",[1.05],[0.214],1,1896.834
4,False,191,0.688,41,[],[],"[(1190, 906)]",[],[1],[91],[1.5166666666666666],"[640.0, 512.0]",horizontal,"(390.0, 262.0)",[1.35],[0.803],0,1901.508
4,False,192,1.321,79,[],[],"[(1191, 897)]",[],[1],[126],[2.1],"[640.0, 512.0]",horizontal,"(890.0, 262.0)",[1.4666666666666666],[0.754],1,1906.034
4,False,193,0.686,41,[],[],"[(1191, 905)]",[],[1],[91],[1.5166666666666666],"[640.0, 512.0]",horizontal,"(390.0, 762.0)",[0.7333333333333333],[0.801],0,1912.102
4,False,194,0.497,29,[],[],"[(1191, 899)]",[],[1],[79],[1.3166666666666667],"[640.0, 512.0]",horizontal,"(390.0, 262.0)",[1.1],[0.807],0,1915.874
4,False,195,1.192,71,[],[],"[(436, 864), (1170, 915)]",[],"[0, 1]",[121],[2.0166666666666666],"[640.0, 512.0]",vertical,"(390.0, 262.0)",[0.5],[0.794],0,1919.978
4,False,196,1.338,80,[],[],"[(1144, 905)]",[],[1],[],[],"[640.0, 512.0]",vertical,"(890.0, 762.0)",[],[0],0,1935.735
4,False,197,0.511,30,[],[],"[(1230, 866)]",[],[1],[80],[1.3333333333333333],"[640.0, 512.0]",horizontal,"(890.0, 262.0)",[0.65],[0.804],0,1940.296
4,False,198,0.316,18,[],[],"[(1212, 899)]",[],[1],[],[],"[640.0, 512.0]",vertical,"(890.0, 762.0)",[],[0],0,1965.43
4,False,199,1.205,72,[],[],"[(1176, 894)]",[],[1],[104],[1.7333333333333334],"[640.0, 512.0]",horizontal,"(890.0, 262.0)",[1.5833333333333333],[0.511],1,1977.993
4,False,200,0.415,24,[],[],"[(1196, 905)]",[],[1],[74],[1.2333333333333334],"[640.0, 512.0]",horizontal,"(390.0, 762.0)",[0.55],[0.813],0,1982.928
4,False,201,0.687,41,[],[],"[(1157, 914)]",[],[1],[91],[1.5166666666666666],"[640.0, 512.0]",horizontal,"(390.0, 262.0)",[0.7333333333333333],[0.803],0,1986.222
4,False,202,0.648,38,[],[],"[(1173, 884)]",[],[1],[88],[1.4666666666666666],"[640.0, 512.0]",horizontal,"(390.0, 762.0)",[0.6833333333333333],[0.807],0,1990.499
4,False,203,1.46,87,[],[],"[(311, 199), (1169, 909)]",[],"[0, 1]",[],[],"[640.0, 512.0]",horizontal,"(890.0, 262.0)",[],[0],0,1994.674
4,False,204,0.904,54,[],[],"[(1132, 919)]",[],[1],[82],[1.3666666666666667],"[640.0, 512.0]",horizontal,"(890.0, 762.0)",[1.65],[0.445],1,3519.088
4,False,205,1.425,85,[],[],"[(1179, 890)]",[],[1],[119],[1.9833333333333334],"[640.0, 512.0]",vertical,"(390.0, 762.0)",[1.2833333333333332],[0.535],1,3523.814
4,False,206,1.251,75,[],[],"[(1167, 918)]",[],[1],[104],[1.7333333333333334],"[640.0, 512.0]",horizontal,"(390.0, 262.0)",[1.1833333333333333],[0.459],1,3528.803
4,False,207,0.526,31,[],[],"[(1137, 918)]",[],[1],[63],[1.05],"[640.0, 512.0]",vertical,"(890.0, 762.0)",[1.65],[0.506],1,3533.434
4,False,208,1.092,65,[],[],"[(1162, 914)]",[],[1],[103],[1.7166666666666666],"[640.0, 512.0]",vertical,"(890.0, 262.0)",[0.95],[0.609],1,3538.086
4,False,209,1.169,70,[],[],"[(1144, 899)]",[],[1],[106],[1.7666666666666666],"[640.0, 512.0]",vertical,"(890.0, 762.0)",[0.7166666666666667],[0.576],1,3542.598
4,False,210,1.42,85,[],[],"[(1139, 901)]",[],[1],[],[],"[640.0, 512.0]",vertical,"(890.0, 762.0)",[],[0],0,3550.937
4,False,211,1.075,64,[],[],"[(1113, 917)]",[],[1],[67],[1.1166666666666667],"[640.0, 512.0]",horizontal,"(890.0, 762.0)",[1.6],[0.037],1,3555.008
4,False,212,0.96,57,[],[],"[(1166, 903)]",[],[1],[86],[1.4333333333333333],"[640.0, 512.0]",horizontal,"(390.0, 262.0)",[1.55],[0.457],1,3562.764
4,False,213,0.56,33,[],[],"[(1171, 904)]",[],[1],[68],[1.1333333333333333],"[640.0, 512.0]",vertical,"(390.0, 262.0)",[1.3333333333333333],[0.556],1,3568.697
4,False,214,0.585,35,[],[],"[(1179, 921)]",[],[1],[67],[1.1166666666666667],"[640.0, 512.0]",horizontal,"(890.0, 762.0)",[1.0],[0.508],1,3572.703
4,False,215,0.324,19,[],[],"[(1146, 902)]",[],[1],[55],[0.9166666666666666],"[640.0, 512.0]",horizontal,"(390.0, 262.0)",[0.9],[0.576],1,3576.508
4,False,216,0.69,41,[],[],"[(1180, 913)]",[],[1],[72],[1.2],"[640.0, 512.0]",horizontal,"(890.0, 262.0)",[1.4166666666666667],[0.496],1,3579.898
4,False,217,0.358,21,[],[],"[(1122, 880)]",[],[1],[54],[0.9],"[640.0, 512.0]",vertical,"(390.0, 262.0)",[1.1666666666666667],[0.521],1,3584.215
4,False,218,1.162,69,[],[3596018],"[(1153, 900)]","[(1170, 902)]",[1],[13],[0.21666666666666667],"[640.0, 512.0]",horizontal,"(390.0, 262.0)",[],[0],0,3587.964
4,False,219,1.402,84,[],[],"[(1227, 904)]",[],[1],[116],[1.9333333333333333],"[640.0, 512.0]",horizontal,"(390.0, 262.0)",[1.3833333333333333],[0.505],1,3590.519
4,False,220,1.146,68,[],[],"[(1133, 894)]",[],[1],[100],[1.6666666666666667],"[640.0, 512.0]",vertical,"(390.0, 762.0)",[1.15],[0.51],1,3595.353
4,False,221,1.142,68,[],[],"[(1154, 899)]",[],[1],[118],[1.9666666666666666],"[640.0, 512.0]",horizontal,"(390.0, 262.0)",[1.1333333333333333],[0.804],0,3599.82
4,False,222,0.326,19,[],[],"[(1142, 903)]",[],[1],[57],[0.95],"[640.0, 512.0]",vertical,"(390.0, 762.0)",[1.5333333333333332],[0.603],1,3604.45
4,False,223,1.215,72,[],[],"[(1173, 911)]",[],[1],[106],[1.7666666666666666],"[640.0, 512.0]",vertical,"(390.0, 262.0)",[0.6333333333333333],[0.543],1,3608.988
4,False,224,1.361,81,[],[],"[(1191, 909)]",[],[1],[114],[1.9],"[640.0, 512.0]",horizontal,"(390.0, 762.0)",[1.1833333333333333],[0.525],1,3612.971
4,False,225,0.673,40,[],[],"[(1143, 918)]",[],[1],[70],[1.1666666666666667],"[640.0, 512.0]",horizontal,"(390.0, 262.0)",[1.5666666666666667],[0.476],1,3617.548
4,False,226,0.783,46,[],[],"[(1160, 899)]",[],[1],[91],[1.5166666666666666],"[640.0, 512.0]",horizontal,"(390.0, 762.0)",[1.6666666666666667],[0.716],1,3621.95
4,False,227,1.249,74,[],[],"[(1160, 904)]",[],[1],[109],[1.8166666666666667],"[640.0, 512.0]",horizontal,"(890.0, 762.0)",[1.4666666666666666],[0.559],1,3626.687
4,False,228,0.784,47,[],[],"[(1161, 909)]",[],[1],[79],[1.3166666666666667],"[640.0, 512.0]",horizontal,"(890.0, 262.0)",[1.35],[0.512],1,3631.538
4,False,229,1.096,65,[],[],"[(1173, 902)]",[],[1],[97],[1.6166666666666667],"[640.0, 512.0]",horizontal,"(890.0, 262.0)",[1.0],[0.514],1,3635.791
4,False,230,0.398,23,[],[],"[(1173, 902)]",[],[1],[73],[1.2166666666666666],"[640.0, 512.0]",horizontal,"(390.0, 262.0)",[0.6],[0.8],0,3639.934
4,False,231,0.866,51,[],[],"[(1206, 910)]",[],[1],[98],[1.6333333333333333],"[640.0, 512.0]",vertical,"(890.0, 262.0)",[0.9166666666666666],[0.757],1,3643.507
4,False,232,0.862,51,[],[],"[(1175, 896)]",[],[1],[91],[1.5166666666666666],"[640.0, 512.0]",vertical,"(390.0, 262.0)",[0.85],[0.639],1,3648.667
4,False,233,1.399,83,[],[3661137],"[(1165, 905)]","[(1135, 927)]",[1],[80],[1.3333333333333333],"[640.0, 512.0]",vertical,"(890.0, 762.0)",[],[0],0,3652.688
4,False,234,0.542,32,[],[],"[(1191, 899)]",[],[1],[63],[1.05],"[640.0, 512.0]",horizontal,"(890.0, 262.0)",[1.25],[0.491],1,3655.638
4,False,235,0.547,32,[],[],"[(1156, 902)]",[],[1],[63],[1.05],"[640.0, 512.0]",horizontal,"(390.0, 262.0)",[1.65],[0.492],1,3663.611
4,False,236,1.123,67,[],[],"[(1148, 905)]",[],[1],[99],[1.65],"[640.0, 512.0]",vertical,"(390.0, 262.0)",[0.7333333333333333],[0.505],1,3667.9
4,False,237,0.995,59,[],[],"[(1154, 901)]",[],[1],[99],[1.65],"[640.0, 512.0]",horizontal,"(890.0, 262.0)",[1.5],[0.645],1,3671.832
4,False,238,0.915,54,[],[],"[(1144, 899)]",[],[1],[87],[1.45],"[640.0, 512.0]",horizontal,"(390.0, 762.0)",[1.5333333333333332],[0.525],1,3676.619
4,False,239,0.407,24,[],[],"[(1173, 897)]",[],[1],[71],[1.1833333333333333],"[640.0, 512.0]",vertical,"(890.0, 762.0)",[1.4166666666666667],[0.752],1,3681.153
4,False,240,1.476,88,[],[],"[(1161, 919)]",[],[1],[122],[2.033333333333333],"[640.0, 512.0]",vertical,"(890.0, 762.0)",[1.3],[0.54],1,3685.666
5,False,241,0.736,44,[],[],"[(1147, 903)]",[],[1],[77],[1.2833333333333332],"[640.0, 512.0]",vertical,"(890.0, 262.0)",[0.8],[0.523],1,3690.583
5,False,242,1.025,61,[],[],"[(1149, 904)]",[],[1],[111],[1.8499999999999999],"[640.0, 512.0]",vertical,"(890.0, 762.0)",[1.4333333333333333],[0.801],0,3694.298
5,False,243,1.429,85,[],[],"[(1154, 907)]",[],[1],[115],[1.9166666666666667],"[640.0, 512.0]",horizontal,"(890.0, 262.0)",[0.55],[0.474],1,3699.082
5,False,244,0.999,59,[],[],"[(1148, 913)]",[],[1],[93],[1.55],"[640.0, 512.0]",horizontal,"(890.0, 762.0)",[0.5],[0.539],1,3703.304
5,False,245,1.282,76,[],[],"[(1150, 904)]",[],[1],[126],[2.1],"[640.0, 512.0]",vertical,"(390.0, 762.0)",[0.9333333333333333],[0.799],0,3706.955
5,False,246,0.881,52,[],[],"[(1184, 905)]",[],[1],[91],[1.5166666666666666],"[640.0, 512.0]",horizontal,"(890.0, 262.0)",[1.6666666666666667],[0.624],1,3711.585
5,False,247,0.792,47,[],[],"[(1185, 905)]",[],[1],[83],[1.3833333333333333],"[640.0, 512.0]",vertical,"(890.0, 262.0)",[0.5],[0.573],1,3717.304
5,False,248,0.691,41,[],[],"[(1192, 910)]",[],[1],[79],[1.3166666666666667],"[640.0, 512.0]",horizontal,"(390.0, 262.0)",[0.7166666666666667],[0.605],1,3727.12
5,False,249,0.846,50,[],[],"[(1155, 899)]",[],[1],[90],[1.5],"[640.0, 512.0]",horizontal,"(390.0, 762.0)",[1.1666666666666667],[0.632],1,3730.71
5,False,250,0.462,27,[],[],"[(1191, 901)]",[],[1],[63],[1.05],"[640.0, 512.0]",vertical,"(890.0, 762.0)",[1.0166666666666666],[0.572],1,3735.017
5,False,251,0.71,42,[],[],"[(1177, 912)]",[],[1],[77],[1.2833333333333332],"[640.0, 512.0]",horizontal,"(390.0, 762.0)",[1.5166666666666666],[0.556],1,3738.688
5,False,252,0.464,27,[],[],"[(1184, 908)]",[],[1],[73],[1.2166666666666666],"[640.0, 512.0]",horizontal,"(890.0, 762.0)",[0.7666666666666666],[0.739],1,3743.12
5,False,253,0.707,42,[],[],"[(1175, 902)]",[],[1],[90],[1.5],"[640.0, 512.0]",horizontal,"(390.0, 262.0)",[0.95],[0.773],1,3746.635
5,False,254,1.456,87,[],[],"[(1153, 900)]",[],[1],[102],[1.7],"[640.0, 512.0]",horizontal,"(890.0, 262.0)",[1.4166666666666667],[0.235],1,3750.672
5,False,255,1.484,89,[],[],"[(1169, 901)]",[],[1],[139],[2.3166666666666664],"[640.0, 512.0]",horizontal,"(890.0, 762.0)",[1.2666666666666666],[0.797],0,3755.483
5,False,256,1.384,83,[],[],"[(1182, 928)]",[],[1],[117],[1.95],"[640.0, 512.0]",vertical,"(390.0, 762.0)",[1.6166666666666667],[0.544],1,3760.776
5,False,257,1.483,88,[],[],"[(1182, 910)]",[],[1],[124],[2.0666666666666664],"[640.0, 512.0]",vertical,"(890.0, 762.0)",[1.5833333333333333],[0.573],1,3766.355
5,False,258,0.552,33,[],[],"[(1185, 908)]",[],[1],[73],[1.2166666666666666],"[640.0, 512.0]",horizontal,"(390.0, 262.0)",[0.6],[0.634],1,3771.516
5,False,259,1.298,77,[],[],"[(1184, 905)]",[],[1],[109],[1.8166666666666667],"[640.0, 512.0]",vertical,"(390.0, 262.0)",[1.5166666666666666],[0.514],1,3774.88
5,False,260,0.402,24,[],[],"[(1180, 910)]",[],[1],[69],[1.15],"[640.0, 512.0]",horizontal,"(390.0, 762.0)",[0.7166666666666667],[0.719],1,3779.754
5,False,261,1.423,85,[],[],"[(1152, 923)]",[],[1],[119],[1.9833333333333334],"[640.0, 512.0]",horizontal,"(390.0, 262.0)",[0.6],[0.534],1,3783.176
5,False,262,0.489,29,[],[],"[(1189, 899)]",[],[1],[70],[1.1666666666666667],"[640.0, 512.0]",horizontal,"(890.0, 762.0)",[0.75],[0.659],1,3787.321
5,False,263,1.142,68,[],[],"[(1173, 910)]",[],[1],[118],[1.9666666666666666],"[640.0, 512.0]",vertical,"(890.0, 262.0)",[0.55],[0.798],0,3790.77
5,False,264,0.499,29,[],[],"[(1172, 929)]",[],[1],[64],[1.0666666666666667],"[640.0, 512.0]",vertical,"(390.0, 762.0)",[0.7333333333333333],[0.56],1,3794.836
5,False,265,0.775,46,[],[],"[(1148, 908)]",[],[1],[96],[1.6],"[640.0, 512.0]",vertical,"(890.0, 262.0)",[1.2833333333333332],[0.808],0,3798.882
5,False,266,1.282,76,[],[],"[(1179, 909)]",[],[1],[],[],"[640.0, 512.0]",horizontal,"(890.0, 762.0)",[],[0],0,3803.401
5,False,267,0.732,43,[],[],"[(861, 888), (1055, 751), (627, 923), (870, 942), (868, 942), (1192, 883)]",[],"[0, 0, 0, 0, 0, 1]",[76],[1.2666666666666666],"[640.0, 512.0]",vertical,"(890.0, 762.0)",[1.4333333333333333],[0.53],1,3807.12
5,False,268,0.747,44,[],[],"[(1169, 918)]",[],[1],[94],[1.5666666666666667],"[640.0, 512.0]",horizontal,"(890.0, 262.0)",[0.6833333333333333],[0.798],0,3817.585
5,False,269,1.454,87,[],[],"[(1148, 990), (1209, 906)]",[],"[0, 1]",[89],[1.4833333333333334],"[640.0, 512.0]",horizontal,"(890.0, 762.0)",[0.6833333333333333],[0.018],1,3821.474
5,False,270,1.334,80,[],[],"[(906, 799), (422, 665), (1194, 890)]",[],"[0, 0, 1]",[83],[1.3833333333333333],"[640.0, 512.0]",horizontal,"(890.0, 762.0)",[0.95],[0.037],1,3825.733
5,False,271,1.155,69,[],[],"[(1203, 903)]",[],[1],[101],[1.6833333333333333],"[640.0, 512.0]",vertical,"(390.0, 762.0)",[0.8166666666666667],[0.514],1,3835.884
5,False,272,0.631,37,[],[],"[(715, 899), (1186, 897)]",[],"[0, 1]",[70],[1.1666666666666667],"[640.0, 512.0]",vertical,"(390.0, 262.0)",[1.4],[0.517],1,3840.385
5,False,273,1.057,63,[],[],"[(1161, 896)]",[],[1],[113],[1.8833333333333333],"[640.0, 512.0]",horizontal,"(390.0, 762.0)",[0.6166666666666667],[0.799],0,3845.419
5,False,274,0.62,37,[],[],"[(1195, 906)]",[],[1],[82],[1.3666666666666667],"[640.0, 512.0]",horizontal,"(890.0, 762.0)",[1.1166666666666667],[0.72],1,3849.583
5,False,275,1.36,81,[],[],"[(1167, 919)]",[],[1],[115],[1.9166666666666667],"[640.0, 512.0]",horizontal,"(390.0, 262.0)",[1.4],[0.536],1,3854.17
5,False,276,1.233,73,[],[],"[(1207, 929)]",[],[1],[110],[1.8333333333333333],"[640.0, 512.0]",horizontal,"(390.0, 262.0)",[0.7333333333333333],[0.592],1,3859.002
5,False,277,1.257,75,[],[],"[(1189, 891)]",[],[1],[125],[2.0833333333333335],"[640.0, 512.0]",vertical,"(390.0, 762.0)",[1.6],[0.794],0,3863.101
5,False,278,0.41,24,[],[],"[(753, 899), (1190, 901)]",[],"[0, 1]",[74],[1.2333333333333334],"[640.0, 512.0]",vertical,"(890.0, 262.0)",[0.9666666666666667],[0.803],0,3868.469
5,False,279,1.254,75,[],[],"[(1175, 888)]",[],[1],[108],[1.8],"[640.0, 512.0]",horizontal,"(390.0, 762.0)",[1.3],[0.525],1,3873.906
5,False,280,1.458,87,[],[],"[(1149, 890)]",[],[1],[137],[2.283333333333333],"[640.0, 512.0]",horizontal,"(890.0, 762.0)",[1.6666666666666667],[0.802],0,3878.685
5,False,281,1.16,69,[],[],"[(1173, 911)]",[],[1],[102],[1.7],"[640.0, 512.0]",horizontal,"(890.0, 762.0)",[1.1333333333333333],[0.52],1,3884.183
5,False,282,0.722,43,[],[],"[(1173, 907)]",[],[1],[93],[1.55],"[640.0, 512.0]",horizontal,"(390.0, 262.0)",[1.2],[0.804],0,3889.645
5,False,283,0.718,43,[],[],"[(1163, 905)]",[],[1],[79],[1.3166666666666667],"[640.0, 512.0]",horizontal,"(390.0, 262.0)",[0.75],[0.571],1,3893.959
5,False,284,0.66,39,[],[],"[(1173, 907)]",[],[1],[72],[1.2],"[640.0, 512.0]",vertical,"(390.0, 762.0)",[0.7833333333333333],[0.522],1,3897.695
5,False,285,0.513,30,[],[],"[(1148, 909)]",[],[1],[64],[1.0666666666666667],"[640.0, 512.0]",horizontal,"(390.0, 762.0)",[1.2833333333333332],[0.535],1,3901.227
5,False,286,0.629,37,[],[],"[(1198, 899)]",[],[1],[72],[1.2],"[640.0, 512.0]",vertical,"(890.0, 762.0)",[0.5833333333333334],[0.557],1,3905.937
5,False,287,0.502,30,[],[],"[(1149, 907)]",[],[1],[77],[1.2833333333333332],"[640.0, 512.0]",horizontal,"(390.0, 762.0)",[0.65],[0.752],1,3909.234
5,False,288,1.062,63,[],[],"[(1151, 901)]",[],[1],[113],[1.8833333333333333],"[640.0, 512.0]",horizontal,"(890.0, 262.0)",[0.55],[0.796],0,3912.756
5,False,289,0.386,23,[],[],"[(1168, 906)]",[],[1],[73],[1.2166666666666666],"[640.0, 512.0]",vertical,"(390.0, 762.0)",[0.5333333333333333],[0.808],0,3916.797
5,False,290,1.224,73,[],[],"[(1176, 891)]",[],[1],[111],[1.8499999999999999],"[640.0, 512.0]",vertical,"(390.0, 762.0)",[1.35],[0.604],1,3921.105
5,False,291,0.438,26,[],[],"[(1143, 889)]",[],[1],[56],[0.9333333333333333],"[640.0, 512.0]",horizontal,"(890.0, 762.0)",[1.6],[0.484],1,3926.546
5,False,292,0.931,55,[],[],"[(1188, 909)]",[],[1],[104],[1.7333333333333334],"[640.0, 512.0]",horizontal,"(390.0, 262.0)",[1.3333333333333333],[0.787],1,3931.536
5,False,293,0.383,22,[],[],"[(1195, 912)]",[],[1],[],[],"[640.0, 512.0]",vertical,"(390.0, 762.0)",[],[0],0,3936.112
5,False,294,0.418,25,[],[],"[(1153, 897)]",[],[1],[60],[1.0],"[640.0, 512.0]",horizontal,"(390.0, 762.0)",[1.4666666666666666],[0.556],1,3939.786
5,False,295,0.521,31,[],[],"[(1106, 905)]",[],[1],[81],[1.35],"[640.0, 512.0]",vertical,"(890.0, 262.0)",[1.6166666666666667],[0.806],0,3945.655
5,False,296,0.739,44,[],[],"[(1112, 897)]",[],[1],[94],[1.5666666666666667],"[640.0, 512.0]",horizontal,"(890.0, 262.0)",[0.8833333333333333],[0.794],0,3950.297
5,False,297,1.114,66,[],[],"[(832, 813), (1152, 913)]",[],"[0, 1]",[100],[1.6666666666666667],"[640.0, 512.0]",vertical,"(890.0, 262.0)",[1.2166666666666666],[0.543],1,3955.113
5,False,298,1.474,88,[],[],"[(1139, 915)]",[],[1],[127],[2.1166666666666667],"[640.0, 512.0]",horizontal,"(890.0, 262.0)",[0.85],[0.623],1,3960.098
5,False,299,0.881,52,[],[],"[(1111, 917)]",[],[1],[69],[1.15],"[640.0, 512.0]",horizontal,"(890.0, 762.0)",[1.5333333333333332],[0.267],1,3964.627
5,False,300,1.161,69,[],[],"[(1141, 932)]",[],[1],[99],[1.65],"[640.0, 512.0]",horizontal,"(390.0, 762.0)",[1.6666666666666667],[0.478],1,3968.877
6,False,301,1.194,71,[],[],"[(1155, 889)]",[],[1],[118],[1.9666666666666666],"[640.0, 512.0]",vertical,"(390.0, 262.0)",[0.5666666666666667],[0.752],1,3973.762
6,False,302,1.04,62,[],[],"[(1148, 910)]",[],[1],[107],[1.7833333333333332],"[640.0, 512.0]",vertical,"(390.0, 762.0)",[1.0],[0.722],1,3977.888
6,False,303,0.952,57,[],[],"[(1166, 904)]",[],[1],[92],[1.5333333333333332],"[640.0, 512.0]",horizontal,"(890.0, 262.0)",[1.4],[0.554],1,3982.239
6,False,304,1.203,72,[],[],"[(1136, 903)]",[],[1],[122],[2.033333333333333],"[640.0, 512.0]",vertical,"(890.0, 762.0)",[0.6666666666666666],[0.803],0,3987.068
6,False,305,0.933,55,[],[],"[(1191, 909)]",[],[1],[86],[1.4333333333333333],"[640.0, 512.0]",horizontal,"(890.0, 262.0)",[0.7333333333333333],[0.493],1,3991.376
6,False,306,0.977,58,[],[],"[(1141, 924)]",[],[1],[108],[1.8],"[640.0, 512.0]",vertical,"(390.0, 762.0)",[1.0833333333333333],[0.804],0,3999.474
6,False,307,0.828,49,[],[],"[(1153, 907)]",[],[1],[81],[1.35],"[640.0, 512.0]",vertical,"(390.0, 262.0)",[1.15],[0.515],1,4003.989
6,False,308,1.336,80,[],[],"[(1165, 902)]",[],[1],[130],[2.1666666666666665],"[640.0, 512.0]",vertical,"(390.0, 762.0)",[1.15],[0.8],0,4008.55
6,False,309,0.819,49,[],[],"[(1173, 913)]",[],[1],[84],[1.4],"[640.0, 512.0]",vertical,"(890.0, 762.0)",[1.1833333333333333],[0.555],1,4013.634
6,False,310,0.319,19,[],[],"[(1178, 910)]",[],[1],[69],[1.15],"[640.0, 512.0]",vertical,"(390.0, 262.0)",[1.2166666666666666],[0.8],0,4018.203
6,False,311,1.116,66,[],[],"[(1185, 881)]",[],[1],[93],[1.55],"[640.0, 512.0]",horizontal,"(390.0, 262.0)",[1.4333333333333333],[0.426],1,4022.136
6,False,312,0.844,50,[],[],"[(1140, 896)]",[],[1],[81],[1.35],"[640.0, 512.0]",vertical,"(390.0, 262.0)",[1.4666666666666666],[0.491],1,4026.738
6,False,313,1.21,72,[],[],"[(1160, 912)]",[],[1],[104],[1.7333333333333334],"[640.0, 512.0]",vertical,"(390.0, 262.0)",[0.9666666666666667],[0.51],1,4031.185
6,False,314,1.028,61,[],[],"[(1148, 892)]",[],[1],[101],[1.6833333333333333],"[640.0, 512.0]",vertical,"(890.0, 262.0)",[0.8333333333333334],[0.638],1,4035.49
6,False,315,1.239,74,[],[],"[(1178, 905)]",[],[1],[124],[2.0666666666666664],"[640.0, 512.0]",horizontal,"(390.0, 762.0)",[0.75],[0.803],0,4039.669
6,False,316,1.172,70,[],[],"[(1189, 903)]",[],[1],[92],[1.5333333333333332],"[640.0, 512.0]",horizontal,"(390.0, 262.0)",[1.4666666666666666],[0.347],1,4044.103
6,False,317,0.391,23,[],[],"[(1190, 903)]",[],[1],[56],[0.9333333333333333],"[640.0, 512.0]",vertical,"(390.0, 762.0)",[1.0666666666666667],[0.527],1,4048.685
6,False,318,1.129,67,[],[],"[(1163, 887)]",[],[1],[99],[1.65],"[640.0, 512.0]",horizontal,"(890.0, 262.0)",[1.0333333333333332],[0.506],1,4052.672
6,False,319,0.91,54,[],[],"[(1175, 882)]",[],[1],[104],[1.7333333333333334],"[640.0, 512.0]",vertical,"(890.0, 762.0)",[0.9833333333333333],[0.803],0,4056.921
6,False,320,0.428,25,[],[],"[(1118, 899)]",[],[1],[59],[0.9833333333333333],"[640.0, 512.0]",vertical,"(890.0, 762.0)",[1.1333333333333333],[0.539],1,4061.337
6,False,321,1.498,89,[],[],"[(1136, 908)]",[],[1],[122],[2.033333333333333],"[640.0, 512.0]",vertical,"(390.0, 762.0)",[1.2833333333333332],[0.523],1,4071.227
6,False,322,0.57,34,[],[],"[(1160, 904)]",[],[1],[84],[1.4],"[640.0, 512.0]",horizontal,"(390.0, 762.0)",[1.65],[0.801],0,4076.104
6,False,323,0.682,40,[],[],"[(1171, 923)]",[],[1],[80],[1.3333333333333333],"[640.0, 512.0]",vertical,"(390.0, 762.0)",[0.7166666666666667],[0.638],1,4080.738
6,False,324,0.844,50,[],[],"[(1174, 905)]",[],[1],[88],[1.4666666666666666],"[640.0, 512.0]",horizontal,"(390.0, 762.0)",[1.5333333333333332],[0.61],1,4084.634
6,False,325,1.403,84,[],[],"[(1192, 889)]",[],[1],[113],[1.8833333333333333],"[640.0, 512.0]",vertical,"(890.0, 762.0)",[1.0666666666666667],[0.462],1,4089.203
6,False,326,0.444,26,[],[],"[(1172, 904)]",[],[1],[71],[1.1833333333333333],"[640.0, 512.0]",vertical,"(890.0, 762.0)",[1.6666666666666667],[0.722],1,4093.769
6,False,327,1.367,82,[],[],"[(1161, 893)]",[],[1],[117],[1.95],"[640.0, 512.0]",vertical,"(390.0, 762.0)",[1.5833333333333333],[0.557],1,4098.168
6,False,328,0.676,40,[],[],"[(1179, 899)]",[],[1],[70],[1.1666666666666667],"[640.0, 512.0]",horizontal,"(890.0, 262.0)",[1.6833333333333333],[0.475],1,4103.272
6,False,329,0.598,35,[],[],"[(1172, 888)]",[],[1],[85],[1.4166666666666667],"[640.0, 512.0]",horizontal,"(390.0, 762.0)",[1.4833333333333334],[0.823],0,4107.672
6,False,330,1.463,87,[],[],"[(1149, 910)]",[],[1],[],[],"[640.0, 512.0]",horizontal,"(890.0, 262.0)",[],[0],0,4112.228
6,False,331,0.865,51,[],[],"[(1160, 907)]",[],[1],[84],[1.4],"[640.0, 512.0]",horizontal,"(890.0, 762.0)",[1.2166666666666666],[0.531],1,4134.953
6,False,332,1.166,69,[],[],"[(1192, 902)]",[],[1],[],[],"[640.0, 512.0]",horizontal,"(890.0, 762.0)",[],[0],0,4139.613
6,False,333,0.667,40,[],[],"[(1185, 913)]",[],[1],[90],[1.5],"[640.0, 512.0]",vertical,"(890.0, 762.0)",[1.15],[0.8],0,4142.934
6,False,334,1.443,86,[],[],"[(1197, 858)]",[],[1],[113],[1.8833333333333333],"[640.0, 512.0]",horizontal,"(890.0, 762.0)",[0.8833333333333333],[0.426],1,4147.17
6,False,335,0.637,38,[],[],"[(1200, 900)]",[],[1],[71],[1.1833333333333333],"[640.0, 512.0]",vertical,"(890.0, 262.0)",[1.0666666666666667],[0.532],1,4156.791
6,False,336,1.09,65,[],[],"[(1179, 904)]",[],[1],[97],[1.6166666666666667],"[640.0, 512.0]",horizontal,"(390.0, 262.0)",[1.0],[0.509],1,4160.635
6,False,337,0.881,52,[],[],"[(1180, 861)]",[],[1],[83],[1.3833333333333333],"[640.0, 512.0]",horizontal,"(890.0, 762.0)",[1.0666666666666667],[0.503],1,4164.884
6,False,338,0.306,18,[],[],"[(1170, 888)]",[],[1],[68],[1.1333333333333333],"[640.0, 512.0]",horizontal,"(890.0, 762.0)",[1.6666666666666667],[0.8],0,4171.949
6,False,339,0.667,40,[],[],"[(1183, 876)]",[],[1],[73],[1.2166666666666666],"[640.0, 512.0]",vertical,"(890.0, 262.0)",[1.5833333333333333],[0.525],1,4176.419
6,False,340,0.332,19,[],[],"[(1185, 902)]",[],[1],[52],[0.8666666666666667],"[640.0, 512.0]",horizontal,"(390.0, 262.0)",[1.1166666666666667],[0.521],1,4181.4
6,False,341,0.301,18,[],[],"[(1197, 899)]",[],[1],[68],[1.1333333333333333],"[640.0, 512.0]",horizontal,"(890.0, 262.0)",[0.7333333333333333],[0.8],0,4185.005
6,False,342,0.901,54,[],[],"[(1166, 907)]",[],[1],[85],[1.4166666666666667],"[640.0, 512.0]",vertical,"(390.0, 262.0)",[0.8666666666666667],[0.488],1,4188.446
6,False,343,1.134,68,[],[],"[(1168, 894)]",[],[1],[103],[1.7166666666666666],"[640.0, 512.0]",vertical,"(890.0, 762.0)",[0.65],[0.56],1,4192.414
6,False,344,1.296,77,[],[],"[(1160, 899)]",[],[1],[109],[1.8166666666666667],"[640.0, 512.0]",vertical,"(390.0, 262.0)",[1.6333333333333333],[0.508],1,4196.369
6,False,345,1.34,80,[],[],"[(1150, 901)]",[],[1],[113],[1.8833333333333333],"[640.0, 512.0]",horizontal,"(390.0, 762.0)",[1.6666666666666667],[0.523],1,4201.405
6,False,346,1.498,89,[],[],"[(1143, 908)]",[],[1],[139],[2.3166666666666664],"[640.0, 512.0]",horizontal,"(390.0, 262.0)",[1.6333333333333333],[0.799],0,4207.356
6,False,347,1.28,76,[],[],"[(1179, 904)]",[],[1],[109],[1.8166666666666667],"[640.0, 512.0]",vertical,"(390.0, 262.0)",[1.5],[0.524],1,4212.989
6,False,348,0.937,56,[],[],"[(1160, 897)]",[],[1],[103],[1.7166666666666666],"[640.0, 512.0]",vertical,"(890.0, 262.0)",[1.1666666666666667],[0.753],1,4217.939
6,False,349,1.341,80,[],[],"[(1173, 906)]",[],[1],[110],[1.8333333333333333],"[640.0, 512.0]",vertical,"(390.0, 262.0)",[1.25],[0.474],1,4222.412
6,False,350,0.497,29,[],[],"[(1187, 898)]",[],[1],[79],[1.3166666666666667],"[640.0, 512.0]",horizontal,"(890.0, 762.0)",[0.85],[0.808],0,4227.096
6,False,351,0.487,29,[],[],"[(1167, 902)]",[],[1],[71],[1.1833333333333333],"[640.0, 512.0]",horizontal,"(890.0, 262.0)",[1.1],[0.676],1,4231.238
6,False,352,0.834,50,[],[],"[(1197, 899)]",[],[1],[100],[1.6666666666666667],"[640.0, 512.0]",horizontal,"(390.0, 762.0)",[1.6833333333333333],[0.799],0,4235.087
6,False,353,1.142,68,[],[],"[(1185, 900)]",[],[1],[],[],"[640.0, 512.0]",horizontal,"(890.0, 262.0)",[],[0],0,4240.016
6,False,354,0.98,58,[],[],"[(1197, 889)]",[],[1],[],[],"[640.0, 512.0]",vertical,"(390.0, 762.0)",[],[0],0,4243.749
6,False,355,0.921,55,[],[],"[(1169, 899)]",[],[1],[],[],"[640.0, 512.0]",horizontal,"(890.0, 762.0)",[],[0],0,4246.748
6,False,356,0.448,26,[],[],"[(1171, 902)]",[],[1],[60],[1.0],"[640.0, 512.0]",horizontal,"(390.0, 262.0)",[1.1666666666666667],[0.541],1,4250.118
6,False,357,0.809,48,[],[],"[(1198, 877)]",[],[1],[98],[1.6333333333333333],"[640.0, 512.0]",vertical,"(390.0, 262.0)",[0.85],[0.797],0,4254.472
6,False,358,0.982,58,[],[],"[(771, 803), (1176, 904)]",[],"[0, 1]",[86],[1.4333333333333333],"[640.0, 512.0]",vertical,"(890.0, 262.0)",[1.6166666666666667],[0.449],1,4258.534
6,False,359,0.608,36,[],[],"[(1181, 928)]",[],[1],[73],[1.2166666666666666],"[640.0, 512.0]",vertical,"(390.0, 762.0)",[0.5333333333333333],[0.59],1,4593.091
6,False,360,0.832,49,[],[],"[(759, 999), (1148, 899)]",[],"[0, 1]",[61],[1.0166666666666666],"[640.0, 512.0]",horizontal,"(890.0, 762.0)",[0.8833333333333333],[0.184],1,4596.538
7,False,361,1.444,86,[],[],"[(1142, 922)]",[],[1],[136],[2.2666666666666666],"[640.0, 512.0]",vertical,"(890.0, 262.0)",[0.5],[0.803],0,4617.62
7,False,362,0.375,22,[],[],"[(1160, 927)]",[],[1],[72],[1.2],"[640.0, 512.0]",horizontal,"(890.0, 262.0)",[0.7333333333333333],[0.807],0,4622.038
7,False,363,1.325,79,[],[],"[(1167, 913)]",[],[1],[102],[1.7],"[640.0, 512.0]",vertical,"(390.0, 262.0)",[1.4833333333333334],[0.361],1,4628.372
7,False,364,1.167,70,[],[],"[(1167, 932)]",[],[1],[115],[1.9166666666666667],"[640.0, 512.0]",vertical,"(390.0, 762.0)",[1.0333333333333332],[0.72],1,4633.289
7,False,365,0.876,52,[],[],"[(1199, 903)]",[],[1],[102],[1.7],"[640.0, 512.0]",vertical,"(390.0, 262.0)",[1.35],[0.801],0,4638.037
7,False,366,1.497,89,[],[],"[(1192, 898)]",[],[1],[104],[1.7333333333333334],"[640.0, 512.0]",vertical,"(890.0, 262.0)",[1.2166666666666666],[0.23],1,4642.654
7,False,367,0.875,52,[],[],"[(1203, 908)]",[],[1],[84],[1.4],"[640.0, 512.0]",horizontal,"(890.0, 262.0)",[0.6],[0.507],1,4647.424
7,False,368,1.383,82,[],[],"[(1196, 892)]",[],[1],[],[],"[640.0, 512.0]",vertical,"(890.0, 262.0)",[],[0],0,4651.044
7,False,369,1.422,85,[],[],"[(1161, 902)]",[],[1],[118],[1.9666666666666666],"[640.0, 512.0]",horizontal,"(390.0, 762.0)",[0.7],[0.522],1,4654.704
7,False,370,1.029,61,[],[],"[(1192, 899)]",[],[1],[111],[1.8499999999999999],"[640.0, 512.0]",vertical,"(390.0, 762.0)",[1.3833333333333333],[0.802],0,4659.16
7,False,371,0.859,51,[],[4672206],"[(1000, 783), (1172, 914)]","[(1132, 928)]","[0, 1]",[37],[0.6166666666666667],"[640.0, 512.0]",vertical,"(890.0, 262.0)",[],[0],0,4663.896
7,False,372,0.503,30,[],[],"[(1161, 922)]",[],[1],[64],[1.0666666666666667],"[640.0, 512.0]",horizontal,"(890.0, 262.0)",[1.1666666666666667],[0.535],1,4666.709
7,False,373,0.458,27,[],[],"[(1206, 900)]",[],[1],[67],[1.1166666666666667],"[640.0, 512.0]",horizontal,"(890.0, 262.0)",[1.6666666666666667],[0.634],1,4671.401
7,False,374,1.115,66,[],[],"[(972, 851), (1171, 916)]",[],"[0, 1]",[110],[1.8333333333333333],"[640.0, 512.0]",horizontal,"(390.0, 762.0)",[0.8333333333333334],[0.701],1,4676.912
7,False,375,0.693,41,[],[],"[(1215, 904)]",[],[1],[88],[1.4666666666666666],"[640.0, 512.0]",vertical,"(390.0, 262.0)",[1.6],[0.754],1,4681.22
7,False,376,0.313,18,[],[],"[(929, 904), (977, 913), (1060, 838)]",[],"[0, 0, 1]",[],[],"[640.0, 512.0]",horizontal,"(390.0, 262.0)",[],[0],0,4685.842
7,False,377,1.026,61,[],[],"[(1161, 923)]",[],[1],[95],[1.5833333333333333],"[640.0, 512.0]",horizontal,"(390.0, 262.0)",[0.7166666666666667],[0.54],1,4688.742
7,False,378,0.612,36,[],[],"[(1148, 898)]",[],[1],[86],[1.4333333333333333],"[640.0, 512.0]",vertical,"(390.0, 262.0)",[1.4833333333333334],[0.803],0,4693.954
7,False,379,0.417,25,[],[],"[(1203, 817)]",[],[1],[73],[1.2166666666666666],"[640.0, 512.0]",horizontal,"(890.0, 762.0)",[1.1833333333333333],[0.767],1,4698.407
7,False,380,1.39,83,[],[],"[(1209, 915)]",[],[1],[122],[2.033333333333333],"[640.0, 512.0]",vertical,"(390.0, 262.0)",[0.7166666666666667],[0.623],1,4702.422
7,False,381,1.156,69,[],[],"[(1126, 899)]",[],[1],[109],[1.8166666666666667],"[640.0, 512.0]",horizontal,"(390.0, 762.0)",[1.0833333333333333],[0.638],1,4706.835
7,False,382,0.885,53,[],[],"[(1157, 912)]",[],[1],[103],[1.7166666666666666],"[640.0, 512.0]",vertical,"(890.0, 262.0)",[1.0666666666666667],[0.798],0,4711.521
7,False,383,1.152,69,[],[],"[(1197, 905)]",[],[1],[119],[1.9833333333333334],"[640.0, 512.0]",horizontal,"(890.0, 762.0)",[1.5166666666666666],[0.808],0,4716.054
7,False,384,0.581,34,[],[],"[(1200, 887)]",[],[1],[72],[1.2],"[640.0, 512.0]",vertical,"(890.0, 262.0)",[0.7],[0.604],1,4721.795
7,False,385,1.248,74,[],[],"[(1153, 894)]",[],[1],[107],[1.7833333333333332],"[640.0, 512.0]",vertical,"(390.0, 262.0)",[1.3],[0.522],1,4725.368
7,False,386,0.683,40,[],[],"[(1198, 892)]",[],[1],[78],[1.3],"[640.0, 512.0]",vertical,"(390.0, 262.0)",[0.95],[0.608],1,4730.02
7,False,387,1.144,68,[],[],"[(1163, 899)]",[],[1],[104],[1.7333333333333334],"[640.0, 512.0]",vertical,"(890.0, 762.0)",[1.2166666666666666],[0.567],1,4733.893
7,False,388,0.474,28,[],[],"[(1161, 889)]",[],[1],[65],[1.0833333333333333],"[640.0, 512.0]",vertical,"(890.0, 762.0)",[0.5833333333333334],[0.592],1,4738.421
7,False,389,0.687,41,[],[],"[(1180, 902)]",[],[1],[75],[1.25],"[640.0, 512.0]",horizontal,"(390.0, 762.0)",[1.6333333333333333],[0.541],1,4741.787
7,False,390,1.325,79,[],[],"[(1157, 901)]",[],[1],[115],[1.9166666666666667],"[640.0, 512.0]",vertical,"(390.0, 762.0)",[1.45],[0.572],1,4746.271
7,False,391,1.313,78,[],[],"[(1183, 900)]",[],[1],[111],[1.8499999999999999],"[640.0, 512.0]",vertical,"(890.0, 762.0)",[1.2833333333333332],[0.526],1,4751.176
7,False,392,1.399,83,[],[],"[(1155, 897)]",[],[1],[127],[2.1166666666666667],"[640.0, 512.0]",vertical,"(390.0, 262.0)",[1.2333333333333334],[0.699],1,4755.822
7,False,393,1.289,77,[],[],"[(1179, 904)]",[],[1],[127],[2.1166666666666667],"[640.0, 512.0]",horizontal,"(890.0, 262.0)",[0.8666666666666667],[0.799],0,4760.855
7,False,394,0.562,33,[],[],"[(1177, 900)]",[],[1],[64],[1.0666666666666667],"[640.0, 512.0]",horizontal,"(890.0, 762.0)",[1.6166666666666667],[0.491],1,4766.105
7,False,395,0.511,30,[],[],"[(1161, 899)]",[],[1],[62],[1.0333333333333332],"[640.0, 512.0]",vertical,"(890.0, 262.0)",[1.3166666666666667],[0.512],1,4770.998
7,False,396,1.112,66,[],[],"[(1151, 912)]",[],[1],[103],[1.7166666666666666],"[640.0, 512.0]",horizontal,"(890.0, 262.0)",[0.8],[0.583],1,4774.948
7,False,397,0.994,59,[],[],"[(1153, 918)]",[],[1],[92],[1.5333333333333332],"[640.0, 512.0]",vertical,"(890.0, 762.0)",[1.2833333333333332],[0.52],1,4779.076
7,False,398,0.49,29,[],[],"[(1173, 888)]",[],[1],[79],[1.3166666666666667],"[640.0, 512.0]",vertical,"(890.0, 762.0)",[1.3833333333333333],[0.801],0,4783.527
7,False,399,0.457,27,[],[],"[(1139, 890)]",[],[1],[77],[1.2833333333333332],"[640.0, 512.0]",horizontal,"(890.0, 262.0)",[1.3833333333333333],[0.799],0,4787.838
7,False,400,1.057,63,[],[],"[(1178, 889)]",[],[1],[113],[1.8833333333333333],"[640.0, 512.0]",vertical,"(890.0, 762.0)",[0.9666666666666667],[0.798],0,4793.653
7,False,401,1.359,81,[],[],"[(1174, 921)]",[],[1],[131],[2.183333333333333],"[640.0, 512.0]",vertical,"(890.0, 762.0)",[1.5333333333333332],[0.797],0,4798.024
7,False,402,1.117,67,[],[],"[(1126, 884)]",[],[1],[96],[1.6],"[640.0, 512.0]",vertical,"(890.0, 262.0)",[0.7166666666666667],[0.457],1,4803.752
7,False,403,1.462,87,[],[],"[(1198, 902)]",[],[1],[],[],"[640.0, 512.0]",horizontal,"(890.0, 262.0)",[],[0],0,4808.062
7,False,404,0.349,20,[],[],"[(1161, 893)]",[],[1],[55],[0.9166666666666666],"[640.0, 512.0]",vertical,"(890.0, 262.0)",[1.1666666666666667],[0.559],1,4811.925
7,False,405,1.321,79,[],[],"[(1189, 888)]",[],[1],[83],[1.3833333333333333],"[640.0, 512.0]",vertical,"(890.0, 262.0)",[1.5166666666666666],[0.051],1,4816.857
7,False,406,0.931,55,[],[],"[(1173, 911)]",[],[1],[94],[1.5666666666666667],"[640.0, 512.0]",vertical,"(390.0, 762.0)",[0.8666666666666667],[0.623],1,4821.253
7,False,407,0.844,50,[],[],"[(1142, 920)]",[],[1],[88],[1.4666666666666666],"[640.0, 512.0]",horizontal,"(390.0, 762.0)",[0.7],[0.605],1,4825.283
7,False,408,0.345,20,[],[],"[(1153, 900)]",[],[1],[65],[1.0833333333333333],"[640.0, 512.0]",vertical,"(390.0, 262.0)",[1.3],[0.724],1,4829.025
7,False,409,0.977,58,[],[],"[(1144, 895)]",[],[1],[97],[1.6166666666666667],"[640.0, 512.0]",vertical,"(390.0, 762.0)",[0.5666666666666667],[0.621],1,4833.02
7,False,410,1.335,80,[],[],"[(1191, 897)]",[],[1],[130],[2.1666666666666665],"[640.0, 512.0]",horizontal,"(890.0, 762.0)",[1.2333333333333334],[0.798],0,4836.834
7,False,411,0.707,42,[],[],"[(1166, 902)]",[],[1],[75],[1.25],"[640.0, 512.0]",horizontal,"(390.0, 762.0)",[1.15],[0.526],1,4841.742
7,False,412,1.028,61,[],[],"[(1193, 897)]",[],[1],[94],[1.5666666666666667],"[640.0, 512.0]",horizontal,"(390.0, 262.0)",[0.7833333333333333],[0.527],1,4845.704
7,False,413,0.772,46,[],[],"[(1141, 895)]",[],[1],[78],[1.3],"[640.0, 512.0]",horizontal,"(390.0, 262.0)",[1.2333333333333334],[0.507],1,4849.564
7,False,414,1.023,61,[],[],"[(1145, 901)]",[],[1],[111],[1.8499999999999999],"[640.0, 512.0]",horizontal,"(890.0, 262.0)",[1.6666666666666667],[0.798],0,4853.626
7,False,415,0.904,54,[],[],"[(1158, 905)]",[],[1],[104],[1.7333333333333334],"[640.0, 512.0]",horizontal,"(890.0, 262.0)",[1.3],[0.804],0,4858.698
7,False,416,0.361,21,[],[],"[(1191, 889)]",[],[1],[51],[0.85],"[640.0, 512.0]",vertical,"(390.0, 262.0)",[1.6833333333333333],[0.476],1,4868.415
7,False,417,0.917,55,[],[],"[(1152, 896)]",[],[1],[92],[1.5333333333333332],"[640.0, 512.0]",vertical,"(390.0, 762.0)",[1.15],[0.589],1,4872.485
7,False,418,0.832,49,[],[],"[(1177, 906)]",[],[1],[88],[1.4666666666666666],"[640.0, 512.0]",vertical,"(390.0, 762.0)",[0.55],[0.619],1,4876.703
7,False,419,1.021,61,[],[],"[(1165, 894)]",[],[1],[111],[1.8499999999999999],"[640.0, 512.0]",horizontal,"(390.0, 762.0)",[1.6833333333333333],[0.799],0,4880.321
7,False,420,1.061,63,[],[],"[(1183, 896)]",[],[1],[113],[1.8833333333333333],"[640.0, 512.0]",horizontal,"(890.0, 762.0)",[0.55],[0.796],0,4885.371
8,False,421,0.861,51,[],[],"[(1227, 899)]",[],[1],[92],[1.5333333333333332],"[640.0, 512.0]",vertical,"(890.0, 762.0)",[1.4666666666666666],[0.655],1,4890.781
8,False,422,0.453,27,[],[],"[(1190, 909)]",[],[1],[59],[0.9833333333333333],"[640.0, 512.0]",vertical,"(890.0, 762.0)",[1.3833333333333333],[0.505],1,4895.293
8,False,423,1.382,82,[],[],"[(1173, 894)]",[],[1],[113],[1.8833333333333333],"[640.0, 512.0]",vertical,"(390.0, 762.0)",[1.1833333333333333],[0.491],1,4899.188
8,False,424,1.388,83,[],[],"[(1173, 891)]",[],[1],[113],[1.8833333333333333],"[640.0, 512.0]",vertical,"(890.0, 262.0)",[1.65],[0.473],1,4903.777
8,False,425,0.858,51,[],[],"[(1185, 899)]",[],[1],[93],[1.55],"[640.0, 512.0]",horizontal,"(890.0, 762.0)",[1.3833333333333333],[0.667],1,4908.881
8,False,426,1.056,63,[],[],"[(1179, 889)]",[],[1],[99],[1.65],"[640.0, 512.0]",vertical,"(890.0, 262.0)",[0.6],[0.57],1,4913.425
8,False,427,1.017,61,[],[],"[(1193, 902)]",[],[1],[103],[1.7166666666666666],"[640.0, 512.0]",horizontal,"(390.0, 262.0)",[0.6666666666666666],[0.668],1,4917.258
8,False,428,0.987,59,[],[],"[(1173, 899)]",[],[1],[94],[1.5666666666666667],"[640.0, 512.0]",horizontal,"(890.0, 762.0)",[0.7],[0.558],1,4921.175
8,False,429,0.955,57,[],[],"[(1196, 884)]",[],[1],[107],[1.7833333333333332],"[640.0, 512.0]",horizontal,"(890.0, 262.0)",[0.5],[0.805],0,4925.042
8,False,430,1.061,63,[],[],"[(1163, 899)]",[],[1],[90],[1.5],"[640.0, 512.0]",horizontal,"(390.0, 262.0)",[1.25],[0.425],1,4928.868
8,False,431,1.208,72,[],[],"[(863, 999), (1190, 902)]",[],"[0, 1]",[74],[1.2333333333333334],"[640.0, 512.0]",horizontal,"(890.0, 262.0)",[1.5],[0.02],1,4933.52
8,False,432,0.591,35,[],[],"[(1161, 919)]",[],[1],[85],[1.4166666666666667],"[640.0, 512.0]",vertical,"(390.0, 762.0)",[0.6833333333333333],[0.803],0,4940.226
8,False,433,1.387,83,[],[],"[(1161, 893)]",[],[1],[133],[2.216666666666667],"[640.0, 512.0]",horizontal,"(890.0, 262.0)",[0.9],[0.8],0,4944.162
8,False,434,0.658,39,[],[],"[(1175, 835)]",[],[1],[84],[1.4],"[640.0, 512.0]",vertical,"(890.0, 262.0)",[0.6166666666666667],[0.735],1,4948.804
8,False,435,0.502,30,[],[],"[(1152, 908)]",[],[1],[80],[1.3333333333333333],"[640.0, 512.0]",vertical,"(890.0, 262.0)",[1.15],[0.803],0,4952.471
8,False,436,1.41,84,[],[],"[(1162, 904)]",[],[1],[117],[1.95],"[640.0, 512.0]",horizontal,"(390.0, 762.0)",[0.5166666666666666],[0.524],1,4956.504
8,False,437,0.302,18,[],[],"[(1168, 898)]",[],[1],[51],[0.85],"[640.0, 512.0]",horizontal,"(890.0, 262.0)",[1.2333333333333334],[0.521],1,4960.52
8,False,438,0.505,30,[],[],"[(1166, 889)]",[],[1],[76],[1.2666666666666666],"[640.0, 512.0]",horizontal,"(390.0, 762.0)",[0.7666666666666666],[0.735],1,4964.236
8,False,439,0.536,32,[],[],"[(1026, 1004), (1166, 906)]",[],"[0, 1]",[81],[1.35],"[640.0, 512.0]",vertical,"(890.0, 762.0)",[0.9],[0.778],1,4967.824
8,False,440,0.61,36,[],[],"[(1155, 904)]",[],[1],[86],[1.4333333333333333],"[640.0, 512.0]",horizontal,"(390.0, 262.0)",[0.8833333333333333],[0.799],0,4979.17
8,False,441,1.107,66,[],[],"[(1192, 894)]",[],[1],[97],[1.6166666666666667],"[640.0, 512.0]",horizontal,"(390.0, 262.0)",[0.8833333333333333],[0.491],1,4983.034
8,False,442,0.835,50,[],[],"[(1201, 908)]",[],[1],[100],[1.6666666666666667],"[640.0, 512.0]",vertical,"(390.0, 762.0)",[0.8666666666666667],[0.798],0,4987.057
8,False,443,1.434,86,[],[],"[(1203, 897)]",[],[1],[136],[2.2666666666666666],"[640.0, 512.0]",vertical,"(390.0, 262.0)",[0.95],[0.803],0,4991.108
8,False,444,1.039,62,[],[],"[(1167, 889)]",[],[1],[112],[1.8666666666666667],"[640.0, 512.0]",vertical,"(890.0, 762.0)",[1.2333333333333334],[0.799],0,4995.794
8,False,445,0.737,44,[],[],"[(1197, 902)]",[],[1],[94],[1.5666666666666667],"[640.0, 512.0]",horizontal,"(390.0, 762.0)",[1.3666666666666667],[0.799],0,5000.404
8,False,446,1.285,77,[],[],"[(1209, 875)]",[],[1],[127],[2.1166666666666667],"[640.0, 512.0]",vertical,"(390.0, 262.0)",[1.2833333333333332],[0.797],0,5004.843
8,False,447,0.591,35,[],[],"[(1203, 902)]",[],[1],[71],[1.1833333333333333],"[640.0, 512.0]",horizontal,"(890.0, 762.0)",[1.3666666666666667],[0.578],1,5009.708
8,False,448,0.611,36,[],[],"[(1185, 888)]",[],[1],[86],[1.4333333333333333],"[640.0, 512.0]",horizontal,"(390.0, 262.0)",[1.4833333333333334],[0.803],0,5013.916
8,False,449,0.644,38,[],[],"[(1170, 918)]",[],[1],[75],[1.25],"[640.0, 512.0]",horizontal,"(890.0, 762.0)",[0.6166666666666667],[0.591],1,5018.4
8,False,450,1.323,79,[],[],"[(1173, 896)]",[],[1],[111],[1.8499999999999999],"[640.0, 512.0]",horizontal,"(890.0, 262.0)",[1.1666666666666667],[0.508],1,5022.432
8,False,451,1.276,76,[],[],"[(1173, 896)]",[],[1],[110],[1.8333333333333333],"[640.0, 512.0]",vertical,"(390.0, 762.0)",[1.55],[0.543],1,5027.027
8,False,452,0.441,26,[],[],"[(1169, 891)]",[],[1],[68],[1.1333333333333333],"[640.0, 512.0]",horizontal,"(390.0, 762.0)",[0.55],[0.669],1,5031.958
8,False,453,1.156,69,[],[],"[(1150, 901)]",[],[1],[103],[1.7166666666666666],"[640.0, 512.0]",vertical,"(390.0, 762.0)",[1.0666666666666667],[0.543],1,5035.238
8,False,454,0.942,56,[],[],"[(1180, 900)]",[],[1],[92],[1.5333333333333332],"[640.0, 512.0]",horizontal,"(390.0, 262.0)",[1.05],[0.585],1,5039.631
8,False,455,1.203,72,[],[],"[(1201, 899)]",[],[1],[104],[1.7333333333333334],"[640.0, 512.0]",horizontal,"(890.0, 762.0)",[1.2166666666666666],[0.507],1,5043.887
8,False,456,0.323,19,[],[],"[(1201, 896)]",[],[1],[67],[1.1166666666666667],"[640.0, 512.0]",horizontal,"(390.0, 262.0)",[1.3],[0.764],1,5048.387
8,False,457,0.341,20,[],[],"[(1191, 917)]",[],[1],[70],[1.1666666666666667],"[640.0, 512.0]",vertical,"(390.0, 262.0)",[0.9833333333333333],[0.796],0,5052.316
8,False,458,1.317,79,[],[],"[(1173, 896)]",[],[1],[109],[1.8166666666666667],"[640.0, 512.0]",vertical,"(890.0, 762.0)",[1.1],[0.489],1,5055.976
8,False,459,1.275,76,[],[],"[(1148, 893)]",[],[1],[113],[1.8833333333333333],"[640.0, 512.0]",vertical,"(390.0, 762.0)",[1.05],[0.592],1,5062.98
8,False,460,1.366,81,[],[],"[(1177, 905)]",[],[1],[107],[1.7833333333333332],"[640.0, 512.0]",horizontal,"(390.0, 262.0)",[0.6833333333333333],[0.413],1,5067.484
8,False,461,0.734,44,[],[],"[(1166, 899)]",[],[1],[77],[1.2833333333333332],"[640.0, 512.0]",horizontal,"(390.0, 762.0)",[1.2833333333333332],[0.523],1,5071.674
8,False,462,0.577,34,[],[],"[(1161, 896)]",[],[1],[84],[1.4],"[640.0, 512.0]",vertical,"(890.0, 762.0)",[1.2],[0.809],0,5075.79
8,False,463,1.488,89,[],[],"[(1180, 889)]",[],[1],[119],[1.9833333333333334],"[640.0, 512.0]",vertical,"(890.0, 262.0)",[1.4666666666666666],[0.473],1,5080.043
8,False,464,0.698,41,[],[],"[(1183, 898)]",[],[1],[91],[1.5166666666666666],"[640.0, 512.0]",horizontal,"(890.0, 262.0)",[0.5166666666666666],[0.802],0,5085.676
8,False,465,1.318,79,[],[],"[(1168, 899)]",[],[1],[96],[1.6],"[640.0, 512.0]",vertical,"(890.0, 762.0)",[1.55],[0.266],1,5089.298
8,False,466,1.44,86,[],[],"[(1166, 903)]",[],[1],[120],[2.0],"[640.0, 512.0]",vertical,"(390.0, 762.0)",[0.75],[0.535],1,5098.538
8,False,467,1.112,66,[],[],"[(1171, 901)]",[],[1],[97],[1.6166666666666667],"[640.0, 512.0]",horizontal,"(890.0, 262.0)",[0.65],[0.495],1,5102.94
8,False,468,0.949,56,[],[],"[(1179, 897)]",[],[1],[97],[1.6166666666666667],"[640.0, 512.0]",horizontal,"(890.0, 762.0)",[1.6166666666666667],[0.657],1,5106.759
8,False,469,1.027,61,[],[],"[(1177, 898)]",[],[1],[102],[1.7],"[640.0, 512.0]",horizontal,"(390.0, 762.0)",[0.5166666666666666],[0.658],1,5111.491
8,False,470,1.24,74,[],[],"[(1156, 902)]",[],[1],[102],[1.7],"[640.0, 512.0]",horizontal,"(890.0, 262.0)",[1.0166666666666666],[0.451],1,5115.253
8,False,471,0.723,43,[],[],"[(1169, 900)]",[],[1],[75],[1.25],"[640.0, 512.0]",vertical,"(390.0, 262.0)",[1.4333333333333333],[0.507],1,5119.544
8,False,472,0.37,22,[],[],"[(1185, 895)]",[],[1],[54],[0.9],"[640.0, 512.0]",horizontal,"(890.0, 262.0)",[0.6666666666666666],[0.511],1,5123.827
8,False,473,0.995,59,[],[],"[(1167, 894)]",[],[1],[95],[1.5833333333333333],"[640.0, 512.0]",horizontal,"(390.0, 762.0)",[1.0],[0.571],1,5126.91
8,False,474,0.467,28,[],[],"[(1172, 894)]",[],[1],[59],[0.9833333333333333],"[640.0, 512.0]",vertical,"(390.0, 262.0)",[1.4166666666666667],[0.495],1,5131.076
8,False,475,1.262,75,[],[],"[(1198, 902)]",[],[1],[105],[1.75],"[640.0, 512.0]",horizontal,"(390.0, 762.0)",[1.2333333333333334],[0.48],1,5135.008
8,False,476,0.534,32,[],[],"[(1145, 899)]",[],[1],[66],[1.1],"[640.0, 512.0]",horizontal,"(390.0, 762.0)",[1.45],[0.538],1,5139.525
8,False,477,1.271,76,[],[],"[(1166, 896)]",[],[1],[106],[1.7666666666666666],"[640.0, 512.0]",vertical,"(890.0, 762.0)",[1.1833333333333333],[0.476],1,5143.714
8,False,478,1.177,70,[],[],"[(1196, 901)]",[],[1],[],[],"[640.0, 512.0]",horizontal,"(390.0, 262.0)",[],[0],0,5148.212
8,False,479,0.388,23,[],[],"[(1227, 901)]",[],[1],[],[],"[640.0, 512.0]",horizontal,"(390.0, 262.0)",[],[0],0,5152.226
8,False,480,0.83,49,[],[],"[(1183, 894)]",[],[1],[83],[1.3833333333333333],"[640.0, 512.0]",vertical,"(890.0, 762.0)",[0.9166666666666666],[0.538],1,5160.818
9,False,481,0.531,31,[],[],"[(1191, 899)]",[],[1],[66],[1.1],"[640.0, 512.0]",horizontal,"(390.0, 762.0)",[0.7166666666666667],[0.558],1,5165.239
9,False,482,0.672,40,[],[],"[(1173, 908)]",[],[1],[88],[1.4666666666666666],"[640.0, 512.0]",vertical,"(890.0, 762.0)",[1.0833333333333333],[0.775],1,5168.705
9,False,483,0.642,38,[],[],"[(1191, 905)]",[],[1],[70],[1.1666666666666667],"[640.0, 512.0]",vertical,"(890.0, 762.0)",[1.3333333333333333],[0.509],1,5172.857
9,False,484,0.552,33,[],[],"[(1186, 877)]",[],[1],[66],[1.1],"[640.0, 512.0]",horizontal,"(390.0, 762.0)",[1.5666666666666667],[0.519],1,5176.942
9,False,485,0.417,25,[],[],"[(1197, 900)]",[],[1],[57],[0.95],"[640.0, 512.0]",horizontal,"(390.0, 262.0)",[1.4166666666666667],[0.503],1,5181.161
9,False,486,0.612,36,[],[],"[(1180, 888)]",[],[1],[70],[1.1666666666666667],"[640.0, 512.0]",vertical,"(890.0, 262.0)",[1.3],[0.543],1,5185.056
9,False,487,1.076,64,[],[],"[(1195, 888)]",[],[1],[105],[1.75],"[640.0, 512.0]",horizontal,"(390.0, 762.0)",[1.55],[0.651],1,5189.127
9,False,488,1.164,69,[],[],"[(1204, 900)]",[],[1],[102],[1.7],"[640.0, 512.0]",vertical,"(390.0, 762.0)",[1.4833333333333334],[0.528],1,5194.007
9,False,489,0.923,55,[],[],"[(1189, 885)]",[],[1],[89],[1.4833333333333334],"[640.0, 512.0]",vertical,"(390.0, 762.0)",[0.85],[0.536],1,5198.757
9,False,490,1.167,70,[],[],"[(1185, 890)]",[],[1],[120],[2.0],"[640.0, 512.0]",horizontal,"(890.0, 762.0)",[1.3833333333333333],[0.8],0,5202.688
9,False,491,0.728,43,[],[],"[(1192, 909)]",[],[1],[77],[1.2833333333333332],"[640.0, 512.0]",vertical,"(890.0, 762.0)",[1.1],[0.539],1,5207.593
9,False,492,0.793,47,[],[],"[(1173, 923)]",[],[1],[84],[1.4],"[640.0, 512.0]",horizontal,"(890.0, 262.0)",[0.8333333333333334],[0.594],1,5211.571
9,False,493,1.338,80,[],[],"[(1172, 899)]",[],[1],[115],[1.9166666666666667],"[640.0, 512.0]",vertical,"(890.0, 762.0)",[0.8333333333333334],[0.553],1,5215.34
9,False,494,1.142,68,[],[],"[(1191, 899)]",[],[1],[106],[1.7666666666666666],"[640.0, 512.0]",horizontal,"(390.0, 762.0)",[1.1833333333333333],[0.608],1,5219.704
9,False,495,0.448,26,[],[],"[(1203, 904)]",[],[1],[68],[1.1333333333333333],"[640.0, 512.0]",horizontal,"(890.0, 762.0)",[0.7833333333333333],[0.675],1,5224.244
9,False,496,0.419,25,[],[],"[(1173, 898)]",[],[1],[58],[0.9666666666666667],"[640.0, 512.0]",vertical,"(390.0, 262.0)",[1.6],[0.527],1,5227.824
9,False,497,1.159,69,[],[],"[(1179, 897)]",[],[1],[101],[1.6833333333333333],"[640.0, 512.0]",horizontal,"(390.0, 262.0)",[0.8166666666666667],[0.505],1,5231.976
9,False,498,0.945,56,[],[],"[(1173, 889)]",[],[1],[89],[1.4833333333333334],"[640.0, 512.0]",horizontal,"(890.0, 262.0)",[1.4833333333333334],[0.529],1,5236.043
9,False,499,1.3,78,[],[],"[(1196, 896)]",[],[1],[111],[1.8499999999999999],"[640.0, 512.0]",horizontal,"(390.0, 262.0)",[1.1666666666666667],[0.52],1,5240.608
9,False,500,1.405,84,[],[],"[(1191, 899)]",[],[1],[116],[1.9333333333333333],"[640.0, 512.0]",horizontal,"(390.0, 262.0)",[1.5333333333333332],[0.508],1,5245.139
9,False,501,1.289,77,[],[],"[(1143, 902)]",[],[1],[120],[2.0],"[640.0, 512.0]",horizontal,"(890.0, 262.0)",[1.3],[0.687],1,5250.163
9,False,502,1.008,60,[],[],"[(1166, 895)]",[],[1],[97],[1.6166666666666667],"[640.0, 512.0]",vertical,"(390.0, 762.0)",[1.6],[0.591],1,5255.277
9,False,503,0.461,27,[],[],"[(1179, 904)]",[],[1],[72],[1.2],"[640.0, 512.0]",vertical,"(390.0, 762.0)",[1.3166666666666667],[0.718],1,5260.09
9,False,504,1.12,67,[],[],"[(1164, 897)]",[],[1],[109],[1.8166666666666667],"[640.0, 512.0]",vertical,"(390.0, 762.0)",[1.3333333333333333],[0.666],1,5264.222
9,False,505,1.067,64,[],[],"[(1184, 893)]",[],[1],[105],[1.75],"[640.0, 512.0]",vertical,"(390.0, 762.0)",[1.5666666666666667],[0.657],1,5268.932
9,False,506,0.751,45,[],[],"[(1198, 911)]",[],[1],[86],[1.4333333333333333],"[640.0, 512.0]",horizontal,"(890.0, 262.0)",[1.1666666666666667],[0.649],1,5273.815
9,False,507,0.479,28,[],[],"[(1188, 904)]",[],[1],[69],[1.15],"[640.0, 512.0]",vertical,"(890.0, 262.0)",[1.2833333333333332],[0.658],1,5277.96
9,False,508,0.919,55,[],[],"[(1195, 905)]",[],[1],[89],[1.4833333333333334],"[640.0, 512.0]",horizontal,"(390.0, 262.0)",[1.5666666666666667],[0.542],1,5282.087
9,False,509,1.14,68,[],[],"[(1179, 897)]",[],[1],[102],[1.7],"[640.0, 512.0]",horizontal,"(390.0, 262.0)",[1.35],[0.54],1,5286.621
9,False,510,1.029,61,[],[],"[(1181, 910)]",[],[1],[95],[1.5833333333333333],"[640.0, 512.0]",horizontal,"(890.0, 262.0)",[0.5],[0.538],1,5291.192
9,False,511,1.431,85,[],[],"[(1192, 880)]",[],[1],[119],[1.9833333333333334],"[640.0, 512.0]",vertical,"(890.0, 762.0)",[1.6166666666666667],[0.54],1,5294.945
9,False,512,1.057,63,[],[],"[(1158, 899)]",[],[1],"[113, 113]","[1.8833333333333333, 1.8833333333333333]","[640.0, 512.0]",vertical,"(890.0, 262.0)",[0.9666666666666667],"[0.797, 0.797]",0,5300.042
9,False,513,0.837,50,[],[],"[(1170, 904)]",[],[1],[87],[1.45],"[640.0, 512.0]",horizontal,"(390.0, 262.0)",[0.95],[0.59],1,5304.438
9,False,514,0.407,24,[],[],"[(1182, 900)]",[],[1],[63],[1.05],"[640.0, 512.0]",horizontal,"(390.0, 262.0)",[1.1],[0.627],1,5311.757
9,False,515,1.355,81,[],[],"[(1191, 889)]",[],[1],[117],[1.95],"[640.0, 512.0]",vertical,"(890.0, 762.0)",[0.5333333333333333],[0.57],1,5315.474
9,False,516,1.39,83,[],[],"[(1180, 904)]",[],[1],[118],[1.9666666666666666],"[640.0, 512.0]",vertical,"(390.0, 762.0)",[1.4833333333333334],[0.56],1,5319.514
9,False,517,0.817,49,[],[],"[(1190, 899)]",[],[1],[82],[1.3666666666666667],"[640.0, 512.0]",vertical,"(890.0, 262.0)",[1.1833333333333333],[0.525],1,5324.554
9,False,518,1.346,80,[],[],"[(1197, 898)]",[],[1],[113],[1.8833333333333333],"[640.0, 512.0]",vertical,"(390.0, 262.0)",[1.5333333333333332],[0.525],1,5328.693
9,False,519,1.234,74,[],[],"[(1194, 889)]",[],[1],[107],[1.7833333333333332],"[640.0, 512.0]",vertical,"(390.0, 262.0)",[0.85],[0.527],1,5333.65
9,False,520,1.233,73,[],[],"[(1183, 897)]",[],[1],[106],[1.7666666666666666],"[640.0, 512.0]",horizontal,"(890.0, 262.0)",[0.9833333333333333],[0.524],1,5337.878
9,False,521,1.269,76,[],[],"[(1184, 896)]",[],[1],[111],[1.8499999999999999],"[640.0, 512.0]",vertical,"(890.0, 262.0)",[1.0166666666666666],[0.558],1,5342.164
9,False,522,1.217,73,[],[],"[(1196, 900)]",[],[1],[],[],"[640.0, 512.0]",vertical,"(890.0, 262.0)",[],[0],0,5346.645
9,False,523,0.509,30,[],[],"[(1174, 907)]",[],[1],[66],[1.1],"[640.0, 512.0]",horizontal,"(890.0, 762.0)",[0.95],[0.574],1,5350.106
9,False,524,0.687,41,[],[],"[(1178, 910)]",[],[1],[77],[1.2833333333333332],"[640.0, 512.0]",horizontal,"(390.0, 762.0)",[1.1333333333333333],[0.576],1,5354.125
9,False,525,0.993,59,[],[],"[(1170, 909)]",[],[1],[95],[1.5833333333333333],"[640.0, 512.0]",vertical,"(390.0, 762.0)",[1.5333333333333332],[0.576],1,5358.127
9,False,526,0.463,27,[],[],"[(1189, 900)]",[],[1],[66],[1.1],"[640.0, 512.0]",horizontal,"(390.0, 762.0)",[1.0833333333333333],[0.625],1,5362.756
9,False,527,0.557,33,[],[],"[(1203, 876)]",[],[1],[69],[1.15],"[640.0, 512.0]",vertical,"(890.0, 262.0)",[0.8166666666666667],[0.573],1,5366.456
9,False,528,0.626,37,[],[],"[(1159, 900)]",[],[1],[72],[1.2],"[640.0, 512.0]",vertical,"(890.0, 762.0)",[1.4833333333333334],[0.561],1,5369.989
9,False,529,1.103,66,[],[],"[(1192, 884)]",[],[1],[98],[1.6333333333333333],"[640.0, 512.0]",horizontal,"(890.0, 262.0)",[1.15],[0.509],1,5374.408
9,False,530,0.748,44,[],[],"[(1148, 905)]",[],[1],[78],[1.3],"[640.0, 512.0]",horizontal,"(390.0, 262.0)",[0.5],[0.541],1,5378.755
9,False,531,0.908,54,[],[],"[(1183, 899)]",[],[1],[87],[1.45],"[640.0, 512.0]",vertical,"(890.0, 762.0)",[1.0],[0.529],1,5382.206
9,False,532,1.044,62,[],[],"[(1206, 898)]",[],[1],[110],[1.8333333333333333],"[640.0, 512.0]",vertical,"(390.0, 762.0)",[1.1166666666666667],[0.766],1,5386.205
9,False,533,1.26,75,[],[],"[(1203, 906)]",[],[1],[123],[2.05],"[640.0, 512.0]",horizontal,"(390.0, 262.0)",[0.5],[0.771],1,5390.657
9,False,534,0.418,25,[],[],"[(1197, 886)]",[],[1],[58],[0.9666666666666667],"[640.0, 512.0]",vertical,"(890.0, 262.0)",[1.3],[0.521],1,5394.772
9,False,535,0.956,57,[],[],"[(1189, 899)]",[],[1],[89],[1.4833333333333334],"[640.0, 512.0]",vertical,"(390.0, 262.0)",[1.5833333333333333],[0.517],1,5398.655
9,False,536,0.825,49,[],[],"[(1184, 897)]",[],[1],[87],[1.45],"[640.0, 512.0]",vertical,"(390.0, 262.0)",[1.4833333333333334],[0.611],1,5403.275
9,False,537,0.547,32,[],[],"[(1175, 895)]",[],[1],[68],[1.1333333333333333],"[640.0, 512.0]",vertical,"(390.0, 762.0)",[0.85],[0.577],1,5407.785
9,False,538,0.372,22,[],[],"[(1203, 903)]",[],[1],[59],[0.9833333333333333],"[640.0, 512.0]",vertical,"(890.0, 762.0)",[1.6],[0.597],1,5411.436
9,False,539,0.536,32,[],[],"[(1178, 900)]",[],[1],[81],[1.35],"[640.0, 512.0]",horizontal,"(390.0, 762.0)",[1.0],[0.797],1,5415.572
9,False,540,0.463,27,[],[],"[(1173, 900)]",[],[1],[63],[1.05],"[640.0, 512.0]",horizontal,"(890.0, 762.0)",[0.6166666666666667],[0.574],1,5419.727
10,False,541,0.481,28,[],[],"[(1203, 899)]",[],[1],[69],[1.15],"[640.0, 512.0]",vertical,"(890.0, 762.0)",[1.35],[0.657],1,5423.821
10,False,542,1.008,60,[],[],"[(1179, 902)]",[],[1],[90],[1.5],"[640.0, 512.0]",horizontal,"(890.0, 262.0)",[1.35],[0.486],1,5427.842
10,False,543,1.09,65,[],[],"[(1197, 894)]",[],[1],[95],[1.5833333333333333],"[640.0, 512.0]",horizontal,"(890.0, 262.0)",[0.9166666666666666],[0.473],1,5432.289
10,False,544,0.596,35,[],[],"[(1172, 898)]",[],[1],[69],[1.15],"[640.0, 512.0]",vertical,"(890.0, 762.0)",[0.9666666666666667],[0.538],1,5436.295
10,False,545,0.814,48,[],[],"[(1188, 894)]",[],[1],[80],[1.3333333333333333],"[640.0, 512.0]",vertical,"(890.0, 262.0)",[1.6166666666666667],[0.507],1,5440.077
10,False,546,0.757,45,[],[],"[(1197, 895)]",[],[1],[76],[1.2666666666666666],"[640.0, 512.0]",horizontal,"(390.0, 262.0)",[1.6333333333333333],[0.491],1,5444.539
10,False,547,0.491,29,[],[],"[(1183, 899)]",[],[1],[66],[1.1],"[640.0, 512.0]",horizontal,"(890.0, 762.0)",[1.55],[0.589],1,5449.093
10,False,548,0.842,50,[],[],"[(1197, 908)]",[],[1],[84],[1.4],"[640.0, 512.0]",vertical,"(890.0, 762.0)",[1.65],[0.548],1,5453.276
10,False,549,0.836,50,[],[],"[(1176, 901)]",[],[1],[82],[1.3666666666666667],"[640.0, 512.0]",horizontal,"(890.0, 262.0)",[1.6833333333333333],[0.507],1,5457.876
10,False,550,1.055,63,[],[],"[(1188, 901)]",[],[1],[99],[1.65],"[640.0, 512.0]",vertical,"(390.0, 762.0)",[1.2833333333333332],[0.576],1,5463.171
10,False,551,0.711,42,[],[],"[(1185, 879)]",[],[1],[75],[1.25],"[640.0, 512.0]",horizontal,"(890.0, 762.0)",[1.1833333333333333],[0.526],1,5467.674
10,False,552,0.591,35,[],[],"[(1174, 894)]",[],[1],[83],[1.3833333333333333],"[640.0, 512.0]",horizontal,"(390.0, 262.0)",[1.2],[0.773],1,5471.696
10,False,553,0.784,47,[],[],"[(1197, 926)]",[],[1],[93],[1.55],"[640.0, 512.0]",vertical,"(390.0, 262.0)",[1.5],[0.74],1,5475.855
10,False,554,0.585,35,[],[],"[(1179, 879)]",[],[1],[78],[1.3],"[640.0, 512.0]",horizontal,"(390.0, 762.0)",[0.55],[0.686],1,5481.716
10,False,555,0.723,43,[],[],"[(1143, 899)]",[],[1],[80],[1.3333333333333333],"[640.0, 512.0]",horizontal,"(390.0, 762.0)",[0.9],[0.593],1,5485.24
10,False,556,0.741,44,[],[],"[(1203, 902)]",[],[1],[85],[1.4166666666666667],"[640.0, 512.0]",horizontal,"(390.0, 762.0)",[0.9666666666666667],[0.658],1,5489.063
10,False,557,0.624,37,[],[],"[(1167, 870)]",[],[1],[74],[1.2333333333333334],"[640.0, 512.0]",vertical,"(390.0, 762.0)",[0.5666666666666667],[0.592],1,5493.025
10,False,558,0.454,27,[],[],"[(1155, 900)]",[],[1],[64],[1.0666666666666667],"[640.0, 512.0]",horizontal,"(390.0, 762.0)",[1.3833333333333333],[0.59],1,5496.427
10,False,559,1.205,72,[],[],"[(1186, 901)]",[],[1],[107],[1.7833333333333332],"[640.0, 512.0]",vertical,"(890.0, 762.0)",[0.6833333333333333],[0.561],1,5500.511
10,False,560,0.307,18,[],[],"[(1148, 911)]",[],[1],[68],[1.1333333333333333],"[640.0, 512.0]",horizontal,"(390.0, 262.0)",[1.05],[0.803],0,5504.555
10,False,561,0.862,51,[],[],"[(1176, 903)]",[],[1],[82],[1.3666666666666667],"[640.0, 512.0]",vertical,"(890.0, 262.0)",[1.2],[0.494],1,5508.406
10,False,562,0.669,40,[],[],"[(1191, 891)]",[],[1],[81],[1.35],"[640.0, 512.0]",horizontal,"(390.0, 762.0)",[0.5333333333333333],[0.657],1,5513.278
10,False,563,0.512,30,[],[],"[(1177, 899)]",[],[1],[66],[1.1],"[640.0, 512.0]",vertical,"(390.0, 262.0)",[0.7166666666666667],[0.573],1,5516.711
10,False,564,0.796,47,[],[],"[(1163, 909)]",[],[1],[87],[1.45],"[640.0, 512.0]",vertical,"(890.0, 262.0)",[0.6],[0.637],1,5520.931
10,False,565,1.262,75,[],[],"[(1173, 899)]",[],[1],[112],[1.8666666666666667],"[640.0, 512.0]",vertical,"(390.0, 762.0)",[1.5],[0.59],1,5524.577
10,False,566,0.545,32,[],[],"[(1181, 899)]",[],[1],[73],[1.2166666666666666],"[640.0, 512.0]",horizontal,"(390.0, 762.0)",[0.95],[0.658],1,5529.444
10,False,567,0.916,54,[],[],"[(1148, 904)]",[],[1],[89],[1.4833333333333334],"[640.0, 512.0]",horizontal,"(890.0, 762.0)",[0.5],[0.558],1,5533.29
10,False,568,0.536,32,[],[],"[(1148, 903)]",[],[1],[69],[1.15],"[640.0, 512.0]",horizontal,"(890.0, 762.0)",[1.25],[0.597],1,5536.808
10,False,569,1.403,84,[],[],"[(1166, 903)]",[],[1],[121],[2.0166666666666666],"[640.0, 512.0]",vertical,"(390.0, 262.0)",[1.55],[0.589],1,5541.024
10,False,570,1.062,63,[],[],"[(1173, 899)]",[],[1],[89],[1.4833333333333334],"[640.0, 512.0]",horizontal,"(390.0, 262.0)",[1.45],[0.414],1,5546.153
10,False,571,1.165,69,[],[],"[(1148, 892)]",[],[1],[119],[1.9833333333333334],"[640.0, 512.0]",vertical,"(890.0, 762.0)",[0.8],[0.795],0,5550.626
10,False,572,0.943,56,[],[],"[(1199, 899)]",[],[1],[89],[1.4833333333333334],"[640.0, 512.0]",horizontal,"(890.0, 762.0)",[1.0333333333333332],[0.525],1,5555.057
10,False,573,0.526,31,[],[],"[(1167, 886)]",[],[1],[75],[1.25],"[640.0, 512.0]",vertical,"(390.0, 762.0)",[0.85],[0.705],1,5559.791
10,False,574,0.465,27,[],[],"[(1181, 902)]",[],[1],[68],[1.1333333333333333],"[640.0, 512.0]",horizontal,"(890.0, 262.0)",[0.6166666666666667],[0.66],1,5563.469
10,False,575,0.837,50,[],[],"[(1180, 896)]",[],[1],[82],[1.3666666666666667],"[640.0, 512.0]",horizontal,"(890.0, 262.0)",[1.25],[0.508],1,5566.761
10,False,576,0.893,53,[],[],"[(1150, 904)]",[],[1],[91],[1.5166666666666666],"[640.0, 512.0]",horizontal,"(390.0, 262.0)",[1.4666666666666666],[0.602],1,5570.911
10,False,577,0.514,30,[],[],"[(1197, 899)]",[],[1],[72],[1.2],"[640.0, 512.0]",vertical,"(390.0, 762.0)",[0.5833333333333334],[0.671],1,5575.446
10,False,578,0.956,57,[],[],"[(1160, 889)]",[],[1],[89],[1.4833333333333334],"[640.0, 512.0]",horizontal,"(390.0, 262.0)",[1.3666666666666667],[0.508],1,5578.796
10,False,579,0.419,25,[],[],"[(1185, 894)]",[],[1],[60],[1.0],"[640.0, 512.0]",vertical,"(890.0, 762.0)",[1.5166666666666666],[0.56],1,5583.204
10,False,580,0.995,59,[],[],"[(1174, 918)]",[],[1],[93],[1.55],"[640.0, 512.0]",horizontal,"(890.0, 762.0)",[1.2833333333333332],[0.54],1,5587.211
10,False,581,0.722,43,[],[],"[(1203, 894)]",[],[1],[77],[1.2833333333333332],"[640.0, 512.0]",horizontal,"(390.0, 262.0)",[1.0833333333333333],[0.537],1,5591.644
10,False,582,0.785,47,[],[],"[(1203, 891)]",[],[1],[91],[1.5166666666666666],"[640.0, 512.0]",vertical,"(890.0, 762.0)",[0.85],[0.702],1,5595.529
10,False,583,0.325,19,[],[],"[(1191, 899)]",[],[1],[53],[0.8833333333333333],"[640.0, 512.0]",vertical,"(890.0, 262.0)",[0.6166666666666667],[0.537],1,5599.429
10,False,584,0.576,34,[],[],"[(1195, 903)]",[],[1],[68],[1.1333333333333333],"[640.0, 512.0]",vertical,"(390.0, 762.0)",[1.3666666666666667],[0.542],1,5602.442
10,False,585,0.488,29,[],[],"[(1150, 901)]",[],[1],[79],[1.3166666666666667],"[640.0, 512.0]",vertical,"(390.0, 262.0)",[1.2333333333333334],[0.798],0,5606.51
10,False,586,0.74,44,[],[],"[(1150, 894)]",[],[1],[79],[1.3166666666666667],"[640.0, 512.0]",horizontal,"(390.0, 762.0)",[0.8833333333333333],[0.561],1,5610.635
10,False,587,0.601,36,[],[],"[(1175, 899)]",[],[1],[64],[1.0666666666666667],"[640.0, 512.0]",horizontal,"(890.0, 762.0)",[1.5833333333333333],[0.444],1,5614.657
10,False,588,1.071,64,[],[],"[(1155, 900)]",[],[1],[105],[1.75],"[640.0, 512.0]",vertical,"(390.0, 762.0)",[0.75],[0.651],1,5618.836
10,False,589,0.911,54,[],[],"[(1183, 900)]",[],[1],[104],[1.7333333333333334],"[640.0, 512.0]",vertical,"(390.0, 262.0)",[1.1333333333333333],[0.795],0,5622.986
10,False,590,1.112,66,[],[],"[(1177, 899)]",[],[1],[],[],"[640.0, 512.0]",vertical,"(390.0, 262.0)",[],[0],0,5627.361
10,False,591,0.767,46,[],[],"[(1173, 908)]",[],[1],[79],[1.3166666666666667],"[640.0, 512.0]",horizontal,"(390.0, 262.0)",[1.0],[0.528],1,5654.34
10,False,592,1.28,76,[],[],"[(1170, 901)]",[],[1],[108],[1.8],"[640.0, 512.0]",horizontal,"(890.0, 262.0)",[0.7333333333333333],[0.511],1,5658.264
10,False,593,1.213,72,[],[],"[(1173, 904)]",[],[1],[],[],"[640.0, 512.0]",horizontal,"(890.0, 762.0)",[],[0],0,5662.412
10,False,594,0.471,28,[],[],"[(1181, 899)]",[],[1],[68],[1.1333333333333333],"[640.0, 512.0]",vertical,"(890.0, 262.0)",[0.7333333333333333],[0.633],1,5665.878
10,False,595,0.535,32,[],[],"[(1157, 905)]",[],[1],[63],[1.05],"[640.0, 512.0]",horizontal,"(890.0, 762.0)",[1.2166666666666666],[0.5],1,5669.336
10,False,596,1.486,89,[],[],"[(1187, 902)]",[],[1],[123],[2.05],"[640.0, 512.0]",vertical,"(390.0, 762.0)",[1.6833333333333333],[0.547],1,5673.274
10,False,597,1.486,89,[],[],"[(1167, 893)]",[],[1],[122],[2.033333333333333],"[640.0, 512.0]",vertical,"(390.0, 762.0)",[1.05],[0.522],1,5678.612
10,False,598,0.423,25,[],[],"[(1178, 918)]",[],[1],[59],[0.9833333333333333],"[640.0, 512.0]",horizontal,"(890.0, 762.0)",[1.3166666666666667],[0.538],1,5683.309
10,False,599,1.469,88,[],[],"[(1198, 896)]",[],[1],[94],[1.5666666666666667],"[640.0, 512.0]",horizontal,"(890.0, 262.0)",[1.3833333333333333],[0.086],1,5687.195
10,False,600,0.329,19,[],[],"[(1161, 899)]",[],[1],[65],[1.0833333333333333],"[640.0, 512.0]",horizontal,"(890.0, 262.0)",[1.2666666666666666],[0.747],1,5691.818
11,False,601,1.276,76,[],[],"[(1190, 915)]",[],[1],[120],[2.0],"[640.0, 512.0]",vertical,"(890.0, 262.0)",[1.3833333333333333],[0.72],1,5695.905
11,False,602,0.483,28,[],[],"[(1143, 908)]",[],[1],[77],[1.2833333333333332],"[640.0, 512.0]",horizontal,"(390.0, 262.0)",[0.5833333333333334],[0.806],1,5700.926
11,False,603,1.213,72,[],[],"[(1203, 889)]",[],[1],[110],[1.8333333333333333],"[640.0, 512.0]",horizontal,"(890.0, 762.0)",[1.3166666666666667],[0.618],1,5704.52
11,False,604,1.483,88,[],[],"[(1174, 918)]",[],[1],[121],[2.0166666666666666],"[640.0, 512.0]",vertical,"(890.0, 262.0)",[1.0666666666666667],[0.524],1,5709.387
11,False,605,0.873,52,[],[],"[(1189, 903)]",[],[1],[89],[1.4833333333333334],"[640.0, 512.0]",vertical,"(390.0, 762.0)",[0.8666666666666667],[0.595],1,5718.774
11,False,606,1.162,69,[],[],"[(1161, 906)]",[],[1],[108],[1.8],"[640.0, 512.0]",vertical,"(390.0, 762.0)",[0.6166666666666667],[0.623],1,5722.805
11,False,607,1.179,70,[],[],"[(1162, 901)]",[],[1],[102],[1.7],"[640.0, 512.0]",horizontal,"(890.0, 262.0)",[0.7],[0.506],1,5726.846
11,False,608,0.596,35,[],[],"[(1154, 895)]",[],[1],[74],[1.2333333333333334],"[640.0, 512.0]",vertical,"(890.0, 762.0)",[0.7666666666666666],[0.62],1,5730.891
11,False,609,0.388,23,[],[],"[(1186, 886)]",[],[1],[64],[1.0666666666666667],"[640.0, 512.0]",vertical,"(390.0, 762.0)",[1.65],[0.655],1,5734.662
11,False,610,1.039,62,[],[],"[(1161, 889)]",[],[1],[101],[1.6833333333333333],"[640.0, 512.0]",vertical,"(390.0, 762.0)",[0.95],[0.623],1,5738.912
11,False,611,0.429,25,[],[],"[(1160, 895)]",[],[1],[61],[1.0166666666666666],"[640.0, 512.0]",vertical,"(890.0, 762.0)",[1.6166666666666667],[0.574],1,5743.136
11,False,612,1.324,79,[],[],"[(1180, 895)]",[],[1],[115],[1.9166666666666667],"[640.0, 512.0]",vertical,"(390.0, 762.0)",[0.8666666666666667],[0.574],1,5747.354
11,False,613,1.432,85,[],[],"[(1186, 894)]",[],[1],[121],[2.0166666666666666],"[640.0, 512.0]",horizontal,"(390.0, 262.0)",[1.2333333333333334],[0.57],1,5751.711
11,False,614,1.289,77,[],[],"[(1195, 901)]",[],[1],[110],[1.8333333333333333],"[640.0, 512.0]",vertical,"(890.0, 262.0)",[1.0833333333333333],[0.524],1,5756.745
11,False,615,0.73,43,[],[],"[(1180, 888)]",[],[1],[80],[1.3333333333333333],"[640.0, 512.0]",vertical,"(390.0, 762.0)",[1.4],[0.591],1,5761.246
11,False,616,0.804,48,[],[],"[(1187, 885)]",[],[1],[79],[1.3166666666666667],"[640.0, 512.0]",horizontal,"(890.0, 262.0)",[1.3333333333333333],[0.498],1,5765.527
11,False,617,0.701,42,[],[],"[(1178, 899)]",[],[1],[77],[1.2833333333333332],"[640.0, 512.0]",vertical,"(890.0, 262.0)",[1.2166666666666666],[0.556],1,5769.798
11,False,618,1.336,80,[],[],"[(1193, 885)]",[],[1],[130],[2.1666666666666665],"[640.0, 512.0]",vertical,"(390.0, 262.0)",[0.65],"[0, 0.803]",0,5773.913
11,False,619,0.992,59,[],[],"[(1190, 893)]",[],[1],[90],[1.5],"[640.0, 512.0]",horizontal,"(390.0, 762.0)",[0.7666666666666666],[0.49],1,5856.145
11,False,620,0.492,29,[],[],"[(1155, 899)]",[],[1],[61],[1.0166666666666666],"[640.0, 512.0]",vertical,"(390.0, 262.0)",[1.4],[0.503],1,5860.119
11,False,621,0.685,41,[],[],"[(1169, 883)]",[],[1],[82],[1.3666666666666667],"[640.0, 512.0]",horizontal,"(390.0, 262.0)",[1.05],[0.66],1,5864.146
11,False,622,1.226,73,[],[],"[(1179, 906)]",[],[1],[107],[1.7833333333333332],"[640.0, 512.0]",vertical,"(390.0, 762.0)",[1.1833333333333333],[0.542],1,5868.178
11,False,623,1.244,74,[],[],"[(1179, 895)]",[],[1],[108],[1.8],"[640.0, 512.0]",vertical,"(390.0, 762.0)",[1.1],[0.541],1,5872.685
11,False,624,1.451,87,[],[],"[(1199, 902)]",[],[1],[123],[2.05],"[640.0, 512.0]",horizontal,"(390.0, 762.0)",[1.5833333333333333],[0.572],1,5877.156
11,False,625,0.336,20,[],[],"[(1148, 902)]",[],[1],[63],[1.05],"[640.0, 512.0]",vertical,"(890.0, 762.0)",[0.5166666666666666],[0.689],1,5882.355
11,False,626,0.971,58,[],[],"[(1197, 897)]",[],[1],[94],[1.5666666666666667],"[640.0, 512.0]",horizontal,"(390.0, 262.0)",[1.3333333333333333],[0.575],1,5885.524
11,False,627,0.628,37,[],[],"[(1197, 894)]",[],[1],[76],[1.2666666666666666],"[640.0, 512.0]",horizontal,"(390.0, 762.0)",[0.5666666666666667],[0.623],1,5889.98
11,False,628,0.768,46,[],[],"[(1191, 896)]",[],[1],[84],[1.4],"[640.0, 512.0]",vertical,"(890.0, 762.0)",[0.7666666666666666],[0.612],1,5893.352
11,False,629,0.438,26,[],[],"[(1195, 896)]",[],[1],[68],[1.1333333333333333],"[640.0, 512.0]",vertical,"(890.0, 762.0)",[1.0166666666666666],[0.666],1,5897.029
11,False,630,0.818,49,[],[],"[(1174, 909)]",[],[1],[82],[1.3666666666666667],"[640.0, 512.0]",vertical,"(890.0, 262.0)",[0.8666666666666667],[0.522],1,5900.78
11,False,631,1.321,79,[],[],"[(1196, 888)]",[],[1],[109],[1.8166666666666667],"[640.0, 512.0]",horizontal,"(390.0, 762.0)",[0.5166666666666666],[0.478],1,5904.565
11,False,632,1.12,67,[],[],"[(1184, 894)]",[],[1],[94],[1.5666666666666667],"[640.0, 512.0]",horizontal,"(390.0, 262.0)",[1.2333333333333334],[0.43],1,5908.48
11,False,633,0.93,55,[],[],"[(1197, 893)]",[],[1],[79],[1.3166666666666667],"[640.0, 512.0]",horizontal,"(890.0, 762.0)",[1.6833333333333333],[0.376],1,5912.869
11,False,634,0.515,30,[],[],"[(1198, 894)]",[],[1],[63],[1.05],"[640.0, 512.0]",horizontal,"(890.0, 262.0)",[1.1666666666666667],[0.526],1,5917.474
11,False,635,1.311,78,[],[],"[(1196, 878)]",[],[1],[102],[1.7],"[640.0, 512.0]",horizontal,"(390.0, 262.0)",[1.35],[0.38],1,5921.279
11,False,636,1.036,62,[],[],"[(1197, 879)]",[],[1],[95],[1.5833333333333333],"[640.0, 512.0]",horizontal,"(890.0, 262.0)",[1.6666666666666667],[0.527],1,5926.079
11,False,637,1.44,86,[],[],"[(1197, 899)]",[],[1],[121],[2.0166666666666666],"[640.0, 512.0]",vertical,"(890.0, 762.0)",[0.95],[0.552],1,5930.989
11,False,638,1.387,83,[],[],"[(1208, 881)]",[],[1],[115],[1.9166666666666667],"[640.0, 512.0]",vertical,"(890.0, 762.0)",[1.5],[0.508],1,5935.478
11,False,639,1.166,69,[],[],"[(1197, 900)]",[],[1],[101],[1.6833333333333333],"[640.0, 512.0]",horizontal,"(390.0, 262.0)",[1.1],[0.508],1,5940.362
11,False,640,0.966,57,[],[],"[(1200, 889)]",[],[1],[92],[1.5333333333333332],"[640.0, 512.0]",vertical,"(890.0, 262.0)",[1.3333333333333333],[0.56],1,5944.786
11,False,641,0.877,52,[],[],"[(1199, 899)]",[],[1],[91],[1.5166666666666666],"[640.0, 512.0]",vertical,"(890.0, 762.0)",[0.9166666666666666],[0.62],1,5949.257
11,False,642,0.721,43,[],[],"[(1174, 898)]",[],[1],[78],[1.3],"[640.0, 512.0]",horizontal,"(890.0, 262.0)",[0.8666666666666667],[0.558],1,5953.265
11,False,643,0.505,30,[],[],"[(1175, 898)]",[],[1],[66],[1.1],"[640.0, 512.0]",horizontal,"(390.0, 262.0)",[0.6833333333333333],[0.576],1,5965.843
11,False,644,0.657,39,[],[],"[(1193, 886)]",[],[1],[70],[1.1666666666666667],"[640.0, 512.0]",vertical,"(890.0, 262.0)",[1.4166666666666667],[0.493],1,5969.228
11,False,645,0.462,27,[],[],"[(1136, 898)]",[],[1],[63],[1.05],"[640.0, 512.0]",horizontal,"(390.0, 262.0)",[0.7166666666666667],[0.572],1,5973.409
11,False,646,0.7,42,[],[],"[(1197, 885)]",[],[1],[75],[1.25],"[640.0, 512.0]",horizontal,"(890.0, 762.0)",[1.0],[0.521],1,5976.855
11,False,647,0.861,51,[],[],"[(1197, 889)]",[],[1],[91],[1.5166666666666666],"[640.0, 512.0]",horizontal,"(890.0, 762.0)",[1.4833333333333334],[0.643],1,5980.635
11,False,648,0.579,34,[],[],"[(1148, 893)]",[],[1],[70],[1.1666666666666667],"[640.0, 512.0]",vertical,"(390.0, 762.0)",[0.6333333333333333],[0.578],1,5985.241
11,False,649,0.363,21,[],[],"[(1174, 922)]",[],[1],[59],[0.9833333333333333],"[640.0, 512.0]",horizontal,"(390.0, 262.0)",[1.4],[0.604],1,5988.661
11,False,650,1.45,87,[],[],"[(1194, 894)]",[],[1],[124],[2.0666666666666664],"[640.0, 512.0]",horizontal,"(390.0, 762.0)",[1.1166666666666667],[0.592],1,5992.835
11,False,651,1.339,80,[],[],"[(1199, 886)]",[],[1],[111],[1.8499999999999999],"[640.0, 512.0]",vertical,"(890.0, 262.0)",[0.8333333333333334],[0.497],1,5997.606
11,False,652,1.447,86,[],[],"[(1206, 884)]",[],[1],[131],[2.183333333333333],"[640.0, 512.0]",vertical,"(890.0, 762.0)",[1.1833333333333333],[0.724],1,6001.878
11,False,653,1.234,74,[],[],"[(1148, 889)]",[],[1],[106],[1.7666666666666666],"[640.0, 512.0]",vertical,"(890.0, 762.0)",[1.0166666666666666],[0.515],1,6006.89
11,False,654,1.418,85,[],[],"[(1197, 877)]",[],[1],[124],[2.0666666666666664],"[640.0, 512.0]",horizontal,"(890.0, 762.0)",[1.1],[0.621],1,6011.346
11,False,655,0.978,58,[],[],"[(1199, 885)]",[],[1],[100],[1.6666666666666667],"[640.0, 512.0]",vertical,"(390.0, 762.0)",[0.5666666666666667],[0.674],1,6016.081
11,False,656,0.626,37,[],[],"[(1180, 867)]",[],[1],[86],[1.4333333333333333],"[640.0, 512.0]",vertical,"(890.0, 262.0)",[1.6166666666666667],[0.78],1,6020.127
11,False,657,1.0,60,[],[],"[(1177, 895)]",[],[1],[95],[1.5833333333333333],"[640.0, 512.0]",vertical,"(390.0, 262.0)",[1.4],[0.561],1,6024.796
11,False,658,1.375,82,[],[],"[(1170, 884)]",[],[1],[113],[1.8833333333333333],"[640.0, 512.0]",vertical,"(390.0, 762.0)",[1.25],[0.495],1,6029.363
