block,practice,trial,change_interval_s,change_interval_frames,taps_start_time_during_fix,taps_end_time_during_fix,taps_start_loc_during_fix,taps_end_loc_during_fix,taps_on_lever_during_fix,taps_on_lever_frame_during_fix,taps_on_lever_s_during_fix,fix_xy,bar_orientation,target_xy,cti,rt,acc,time
1,True,1,0.935,56,[],[],"[(1117, 893)]",[],[1],[21],[0.35],"[640.0, 512.0]",vertical,"(390.0, 262.0)",[0.95],[0.319],1,0.462
1,True,2,0.696,41,[],[],"[(365, 426), (198, 907), (521, 675), (705, 906), (532, 449), (556, 468), (411, 502), (165, 509), (450, 483), (702, 972), (695, 422), (705, 521), (503, 513), (558, 530), (575, 713), (565, 727), (369, 564), (541, 580), (1081, 874)]",[],"[0, 0, 0, 0, 0, 0, 0, 0, 0, 0, 0, 0, 0, 0, 0, 0, 0, 0, 1]",[51],[0.85],"[640.0, 512.0]",vertical,"(390.0, 762.0)",[1.5166666666666666],[0.787],0,14.225
1,True,3,0.643,38,[],[],"[(1081, 906)]",[],[1],[51],[0.85],"[640.0, 512.0]",vertical,"(890.0, 262.0)",[1.2666666666666666],[0.798],0,3304.926
1,True,4,1.087,65,[],[3464378],"[(1076, 863)]","[(1034, 876)]",[1],[21],[0.35],"[640.0, 512.0]",vertical,"(890.0, 262.0)",[],[0],0,3450.843
1,False,1,0.733,43,[],[],"[(301, 138), (509, 289), (347, 594), (330, 846), (267, 911), (292, 871), (235, 772), (238, 655), (273, 739), (305, 962), (334, 356), (676, 528), (488, 163), (565, 482), (1115, 876)]",[],"[0, 0, 0, 0, 0, 0, 0, 0, 0, 0, 0, 0, 0, 0, 1]",[51],[0.85],"[640.0, 512.0]",vertical,"(890.0, 262.0)",[0.5833333333333334],[0.803],0,3454.877
1,False,2,0.549,32,[],[],"[(1074, 857)]",[],[1],[51],[0.85],"[640.0, 512.0]",horizontal,"(890.0, 762.0)",[1.55],[0.81],0,3767.784
1,False,3,1.142,68,[],[],"[(1075, 845)]",[],[1],[48],[0.8],"[640.0, 512.0]",horizontal,"(390.0, 762.0)",[1.5333333333333332],[0.759],1,3779.871
1,False,4,0.904,54,[],[],"[(1072, 867)]",[],[1],[40],[0.6666666666666666],"[640.0, 512.0]",vertical,"(390.0, 762.0)",[1.4],[0.619],1,3786.181
1,False,5,0.828,49,[],[],"[(1052, 862)]",[],[1],[38],[0.6333333333333333],"[640.0, 512.0]",horizontal,"(890.0, 262.0)",[1.4666666666666666],[0.59],1,3791.433
1,False,6,1.179,70,[],[],"[(1059, 867)]",[],[1],[31],[0.5166666666666666],"[640.0, 512.0]",vertical,"(890.0, 262.0)",[1.3333333333333333],[0.474],1,3796.405
1,False,7,0.61,36,[],[],"[(1064, 857)]",[],[1],[44],[0.7333333333333333],"[640.0, 512.0]",horizontal,"(890.0, 262.0)",[1.1166666666666667],[0.691],1,3801.711
1,False,8,0.754,45,[],[],"[(1081, 881)]",[],[1],[38],[0.6333333333333333],"[640.0, 512.0]",horizontal,"(890.0, 262.0)",[0.7166666666666667],[0.595],1,3806.405
1,False,9,0.513,30,[],[],"[(1081, 867)]",[],[1],[37],[0.6166666666666667],"[640.0, 512.0]",vertical,"(390.0, 762.0)",[1.45],[0.573],1,3810.677
1,False,10,0.946,56,[],[],"[(1081, 884)]",[],[1],[32],[0.5333333333333333],"[640.0, 512.0]",horizontal,"(390.0, 262.0)",[1.2166666666666666],[0.492],1,3815.247
1,False,11,0.579,34,[],[],"[(1058, 895)]",[],[1],[32],[0.5333333333333333],"[640.0, 512.0]",horizontal,"(390.0, 262.0)",[0.8166666666666667],[0.49],1,3826.068
1,False,12,0.841,50,[],[],"[(1072, 863)]",[],[1],[33],[0.55],"[640.0, 512.0]",horizontal,"(890.0, 262.0)",[1.2333333333333334],[0.512],1,3830.48
1,False,13,0.516,30,[],[],"[(1081, 859)]",[],[1],[42],[0.7],"[640.0, 512.0]",vertical,"(890.0, 762.0)",[1.45],[0.668],1,3835.279
1,False,14,0.542,32,[],[],"[(1080, 862)]",[],[1],[35],[0.5833333333333334],"[640.0, 512.0]",vertical,"(890.0, 762.0)",[1.4166666666666667],[0.547],1,3839.984
1,False,15,0.591,35,[],[],"[(1049, 866)]",[],[1],[38],[0.6333333333333333],"[640.0, 512.0]",vertical,"(890.0, 762.0)",[0.95],[0.595],1,3844.703
1,False,16,1.181,70,[],[],"[(1081, 854)]",[],[1],[33],[0.55],"[640.0, 512.0]",vertical,"(390.0, 262.0)",[0.9833333333333333],[0.512],1,3849.151
1,False,17,1.152,69,[],[],"[(1081, 869)]",[],[1],[32],[0.5333333333333333],"[640.0, 512.0]",horizontal,"(890.0, 262.0)",[1.5166666666666666],[0.492],1,3854.065
1,False,18,0.548,32,[],[],"[(1069, 859)]",[],[1],[31],[0.5166666666666666],"[640.0, 512.0]",vertical,"(890.0, 262.0)",[1.1666666666666667],[0.473],1,3859.363
1,False,19,0.706,42,[],[],"[(1047, 867)]",[],[1],[36],[0.6],"[640.0, 512.0]",vertical,"(890.0, 762.0)",[1.4166666666666667],[0.559],1,3863.752
1,False,20,0.533,31,[],[],"[(1042, 870)]",[],[1],[34],[0.5666666666666667],"[640.0, 512.0]",horizontal,"(390.0, 762.0)",[1.1333333333333333],[0.531],1,3868.652
1,False,21,1.078,64,[],[],"[(1081, 862)]",[],[1],[32],[0.5333333333333333],"[640.0, 512.0]",vertical,"(390.0, 762.0)",[1.5333333333333332],[0.495],1,3874.387
1,False,22,1.102,66,[],[],"[(1081, 857)]",[],[1],[33],[0.55],"[640.0, 512.0]",horizontal,"(390.0, 262.0)",[1.5666666666666667],[0.508],1,3879.818
1,False,23,1.035,62,[],[],"[(1100, 857)]",[],[1],[34],[0.5666666666666667],"[640.0, 512.0]",vertical,"(890.0, 762.0)",[0.6],[0.527],1,3885.172
1,False,24,0.938,56,[],[],"[(1076, 849)]",[],[1],[36],[0.6],"[640.0, 512.0]",vertical,"(890.0, 762.0)",[1.3],[0.555],1,3889.558
1,False,25,0.607,36,[],[],"[(1081, 871)]",[],[1],[36],[0.6],"[640.0, 512.0]",vertical,"(890.0, 262.0)",[1.3333333333333333],[0.574],1,3894.594
1,False,26,0.564,33,[],[],"[(1081, 846)]",[],[1],[35],[0.5833333333333334],"[640.0, 512.0]",vertical,"(890.0, 762.0)",[1.0],[0.549],1,3899.464
1,False,27,0.887,53,[],[],"[(1081, 852)]",[],[1],[34],[0.5666666666666667],"[640.0, 512.0]",vertical,"(890.0, 762.0)",[0.7666666666666666],[0.524],1,3903.635
1,False,28,0.507,30,[],[],"[(1097, 890)]",[],[1],[36],[0.6],"[640.0, 512.0]",horizontal,"(390.0, 262.0)",[0.5333333333333333],[0.557],1,3908.155
1,False,29,0.506,30,[],[],"[(1110, 851)]",[],[1],[41],[0.6833333333333333],"[640.0, 512.0]",horizontal,"(890.0, 762.0)",[1.3],[0.635],1,3911.993
1,False,30,1.188,71,[],[],"[(1081, 860)]",[],[1],[38],[0.6333333333333333],"[640.0, 512.0]",vertical,"(890.0, 262.0)",[1.3],[0.589],1,3916.737
1,False,31,0.602,36,[],[],"[(1101, 858)]",[],[1],[38],[0.6333333333333333],"[640.0, 512.0]",horizontal,"(890.0, 262.0)",[0.6333333333333333],[0.589],1,3922.429
1,False,32,1.14,68,[],[],"[(1081, 849)]",[],[1],[33],[0.55],"[640.0, 512.0]",horizontal,"(390.0, 762.0)",[1.0333333333333332],[0.515],1,3926.532
1,False,33,0.54,32,[],[],"[(1049, 862)]",[],[1],[32],[0.5333333333333333],"[640.0, 512.0]",vertical,"(390.0, 262.0)",[1.5],[0.49],1,3931.426
1,False,34,1.056,63,[],[],"[(1080, 845)]",[],[1],[39],[0.65],"[640.0, 512.0]",horizontal,"(390.0, 762.0)",[1.2833333333333332],[0.61],1,3936.229
1,False,35,0.827,49,[],[],"[(1043, 852)]",[],[1],[40],[0.6666666666666666],"[640.0, 512.0]",horizontal,"(890.0, 762.0)",[0.8333333333333334],[0.616],1,3941.461
1,False,36,0.792,47,[],[],"[(1081, 868)]",[],[1],[45],[0.75],"[640.0, 512.0]",vertical,"(390.0, 762.0)",[1.25],[0.702],1,3945.943
1,False,37,1.101,66,[],[],"[(1043, 854)]",[],[1],[38],[0.6333333333333333],"[640.0, 512.0]",horizontal,"(390.0, 762.0)",[1.1333333333333333],[0.592],1,3950.862
1,False,38,0.75,45,[],[],"[(1049, 869)]",[],[1],[32],[0.5333333333333333],"[640.0, 512.0]",horizontal,"(390.0, 262.0)",[1.3],[0.494],1,3956.166
1,False,39,0.588,35,[],[],"[(1110, 863)]",[],[1],[33],[0.55],"[640.0, 512.0]",vertical,"(890.0, 262.0)",[1.5666666666666667],[0.51],1,3961.016
1,False,40,1.167,70,[],[],"[(1086, 859)]",[],[1],[34],[0.5666666666666667],"[640.0, 512.0]",horizontal,"(390.0, 762.0)",[1.0666666666666667],[0.524],1,3965.878
1,False,41,1.165,69,[],[],"[(1081, 864)]",[],[1],[37],[0.6166666666666667],"[640.0, 512.0]",vertical,"(390.0, 762.0)",[1.3],[0.573],1,3970.967
1,False,42,1.174,70,[],[],"[(1062, 866)]",[],[1],[35],[0.5833333333333334],"[640.0, 512.0]",horizontal,"(390.0, 262.0)",[0.6],[0.541],1,3976.211
1,False,43,0.803,48,[],[],"[(1121, 856)]",[],[1],[33],[0.55],"[640.0, 512.0]",vertical,"(890.0, 762.0)",[1.3666666666666667],[0.506],1,3980.699
1,False,44,1.155,69,[],[],"[(1081, 856)]",[],[1],[33],[0.55],"[640.0, 512.0]",horizontal,"(890.0, 262.0)",[0.8833333333333333],[0.503],1,3985.645
1,False,45,1.198,71,[],[],"[(1115, 856)]",[],[1],[38],[0.6333333333333333],"[640.0, 512.0]",vertical,"(890.0, 262.0)",[0.9],[0.587],1,3990.459
1,False,46,0.957,57,[],[],"[(1088, 857)]",[],[1],[33],[0.55],"[640.0, 512.0]",horizontal,"(390.0, 262.0)",[1.6],[0.505],1,3995.343
1,False,47,0.7,42,[],[],"[(1095, 871)]",[],[1],[33],[0.55],"[640.0, 512.0]",vertical,"(890.0, 262.0)",[1.0],[0.503],1,4000.533
1,False,48,1.03,61,[],[],"[(1081, 851)]",[],[1],[37],[0.6166666666666667],"[640.0, 512.0]",horizontal,"(890.0, 262.0)",[1.0],[0.571],1,4005.021
1,False,49,0.888,53,[],[],"[(1082, 876)]",[],[1],[36],[0.6],"[640.0, 512.0]",vertical,"(390.0, 762.0)",[1.1666666666666667],[0.558],1,4009.936
1,False,50,0.913,54,[],[],"[(1081, 855)]",[],[1],[33],[0.55],"[640.0, 512.0]",vertical,"(390.0, 762.0)",[0.7166666666666667],[0.526],1,4014.768
1,False,51,1.076,64,[],[],"[(1058, 875)]",[],[1],[42],[0.7],"[640.0, 512.0]",vertical,"(890.0, 262.0)",[0.55],[0.658],1,4019.351
1,False,52,0.966,57,[],[],"[(1081, 871)]",[],[1],[35],[0.5833333333333334],"[640.0, 512.0]",horizontal,"(390.0, 262.0)",[0.85],[0.539],1,4023.972
1,False,53,0.726,43,[],[],"[(1081, 868)]",[],[1],[34],[0.5666666666666667],"[640.0, 512.0]",vertical,"(890.0, 762.0)",[0.85],[0.525],1,4028.632
1,False,54,0.727,43,[],[],"[(1081, 843)]",[],[1],[51],[0.85],"[640.0, 512.0]",vertical,"(390.0, 262.0)",[0.5333333333333333],[0.81],0,4034.502
1,False,55,1.06,63,[],[],"[(1081, 877)]",[],[1],[34],[0.5666666666666667],"[640.0, 512.0]",vertical,"(890.0, 762.0)",[1.35],[0.529],1,4038.796
1,False,56,0.714,42,[],[],"[(1081, 852)]",[],[1],[40],[0.6666666666666666],"[640.0, 512.0]",vertical,"(390.0, 262.0)",[0.5666666666666667],[0.62],1,4044.164
1,False,57,1.164,69,[],[],"[(1081, 858)]",[],[1],[33],[0.55],"[640.0, 512.0]",horizontal,"(890.0, 262.0)",[0.9666666666666667],[0.509],1,4048.219
1,False,58,0.805,48,[],[],"[(1081, 872)]",[],[1],[36],[0.6],"[640.0, 512.0]",horizontal,"(890.0, 262.0)",[1.4833333333333334],[0.557],1,4053.218
1,False,59,0.558,33,[],[],"[(1076, 918)]",[],[1],[38],[0.6333333333333333],"[640.0, 512.0]",vertical,"(390.0, 262.0)",[0.6833333333333333],[0.59],1,4058.326
1,False,60,1.154,69,[],[],"[(1100, 891)]",[],[1],[33],[0.55],"[640.0, 512.0]",vertical,"(390.0, 262.0)",[1.0333333333333332],[0.516],1,4113.77
2,False,61,1.033,61,[],[],"[(1043, 876)]",[],[1],[33],[0.55],"[640.0, 512.0]",vertical,"(390.0, 762.0)",[1.5833333333333333],[0.507],1,4119.613
2,False,62,1.106,66,[],[],"[(1062, 880)]",[],[1],[33],[0.55],"[640.0, 512.0]",vertical,"(890.0, 262.0)",[1.45],[0.507],1,4124.836
2,False,63,0.855,51,[],[],"[(1039, 867)]",[],[1],[34],[0.5666666666666667],"[640.0, 512.0]",vertical,"(890.0, 262.0)",[0.75],[0.528],1,4130.039
2,False,64,1.078,64,[],[],"[(1065, 865)]",[],[1],[31],[0.5166666666666666],"[640.0, 512.0]",vertical,"(890.0, 262.0)",[0.9],[0.485],1,4134.572
2,False,65,0.833,49,[],[],"[(1049, 870)]",[],[1],[35],[0.5833333333333334],"[640.0, 512.0]",vertical,"(890.0, 762.0)",[0.5166666666666666],[0.544],1,4139.085
2,False,66,0.794,47,[],[],"[(1072, 875)]",[],[1],[40],[0.6666666666666666],"[640.0, 512.0]",horizontal,"(390.0, 762.0)",[1.15],[0.624],1,4143.12
2,False,67,1.123,67,[],[],"[(1041, 885)]",[],[1],[37],[0.6166666666666667],"[640.0, 512.0]",vertical,"(890.0, 262.0)",[1.3833333333333333],[0.577],1,4147.846
2,False,68,0.706,42,[],[],"[(1101, 869)]",[],[1],[33],[0.55],"[640.0, 512.0]",horizontal,"(890.0, 262.0)",[1.3166666666666667],[0.508],1,4153.054
2,False,69,0.58,34,[],[],"[(1076, 869)]",[],[1],[36],[0.6],"[640.0, 512.0]",horizontal,"(890.0, 262.0)",[0.9],[0.557],1,4157.648
2,False,70,1.011,60,[],[],"[(1081, 868)]",[],[1],[33],[0.55],"[640.0, 512.0]",horizontal,"(390.0, 762.0)",[0.8333333333333334],[0.507],1,4161.89
2,False,71,0.571,34,[],[],"[(1081, 844)]",[],[1],[34],[0.5666666666666667],"[640.0, 512.0]",vertical,"(890.0, 762.0)",[0.9166666666666666],[0.524],1,4166.331
2,False,72,0.578,34,[],[],"[(1081, 857)]",[],[1],[39],[0.65],"[640.0, 512.0]",horizontal,"(390.0, 762.0)",[0.8],[0.603],1,4170.611
2,False,73,1.18,70,[],[],"[(1085, 869)]",[],[1],[34],[0.5666666666666667],"[640.0, 512.0]",horizontal,"(890.0, 762.0)",[0.6166666666666667],[0.523],1,4174.794
2,False,74,0.798,47,[],[],"[(1081, 845)]",[],[1],[37],[0.6166666666666667],"[640.0, 512.0]",horizontal,"(390.0, 262.0)",[1.0833333333333333],[0.572],1,4179.293
2,False,75,0.997,59,[],[],"[(1081, 860)]",[],[1],[33],[0.55],"[640.0, 512.0]",horizontal,"(890.0, 262.0)",[1.3333333333333333],[0.507],1,4183.972
2,False,76,1.059,63,[],[],"[(1109, 841)]",[],[1],[32],[0.5333333333333333],"[640.0, 512.0]",horizontal,"(390.0, 262.0)",[0.7],[0.491],1,4188.987
2,False,77,0.922,55,[],[],"[(1101, 863)]",[],[1],[33],[0.55],"[640.0, 512.0]",horizontal,"(890.0, 262.0)",[1.4166666666666667],[0.511],1,4193.294
2,False,78,1.118,67,[],[],"[(1081, 842)]",[],[1],[33],[0.55],"[640.0, 512.0]",horizontal,"(390.0, 762.0)",[1.5833333333333333],[0.512],1,4198.462
2,False,79,0.721,43,[],[],"[(1104, 856)]",[],[1],[51],[0.85],"[640.0, 512.0]",vertical,"(390.0, 262.0)",[0.5666666666666667],[0.805],0,4203.886
2,False,80,0.869,52,[],[],"[(1081, 867)]",[],[1],[35],[0.5833333333333334],"[640.0, 512.0]",vertical,"(890.0, 262.0)",[0.7333333333333333],[0.543],1,4208.218
2,False,81,1.131,67,[],[],"[(1081, 855)]",[],[1],[35],[0.5833333333333334],"[640.0, 512.0]",vertical,"(390.0, 762.0)",[0.85],[0.548],1,4212.566
2,False,82,0.561,33,[],[],"[(1111, 855)]",[],[1],[34],[0.5666666666666667],"[640.0, 512.0]",vertical,"(390.0, 262.0)",[0.8333333333333334],[0.521],1,4217.134
2,False,83,0.758,45,[],[],"[(1066, 876)]",[],[1],[33],[0.55],"[640.0, 512.0]",vertical,"(890.0, 762.0)",[1.2],[0.507],1,4221.199
2,False,84,1.056,63,[],[],"[(1047, 864)]",[],[1],[35],[0.5833333333333334],"[640.0, 512.0]",horizontal,"(890.0, 262.0)",[1.2333333333333334],[0.542],1,4226.233
2,False,85,0.567,34,[],[],"[(1060, 898)]",[],[1],[34],[0.5666666666666667],"[640.0, 512.0]",vertical,"(390.0, 262.0)",[1.5333333333333332],[0.527],1,4231.257
2,False,86,0.952,57,[],[],"[(1076, 877)]",[],[1],[33],[0.55],"[640.0, 512.0]",horizontal,"(890.0, 262.0)",[1.4666666666666666],[0.506],1,4657.088
2,False,87,1.053,63,[],[],"[(1082, 867)]",[],[1],[39],[0.65],"[640.0, 512.0]",vertical,"(890.0, 262.0)",[1.5833333333333333],[0.612],1,4666.672
2,False,88,0.592,35,[],[],"[(1081, 854)]",[],[1],[39],[0.65],"[640.0, 512.0]",vertical,"(390.0, 762.0)",[1.3833333333333333],[0.604],1,4671.99
2,False,89,0.502,30,[],[],"[(1038, 858)]",[],[1],[41],[0.6833333333333333],"[640.0, 512.0]",horizontal,"(890.0, 762.0)",[0.6166666666666667],[0.64],1,4676.878
2,False,90,0.992,59,[],[],"[(1047, 867)]",[],[1],[35],[0.5833333333333334],"[640.0, 512.0]",vertical,"(390.0, 762.0)",[0.8166666666666667],[0.537],1,4681.543
2,False,91,1.015,60,[],[],"[(1049, 888)]",[],[1],[34],[0.5666666666666667],"[640.0, 512.0]",vertical,"(890.0, 762.0)",[0.5333333333333333],[0.529],1,4685.95
2,False,92,0.697,41,[],[],"[(1049, 886)]",[],[1],[31],[0.5166666666666666],"[640.0, 512.0]",horizontal,"(890.0, 262.0)",[0.9],[0.473],1,4692.054
2,False,93,0.659,39,[],[],"[(1081, 861)]",[],[1],[36],[0.6],"[640.0, 512.0]",horizontal,"(890.0, 762.0)",[1.4333333333333333],[0.561],1,4696.475
2,False,94,0.918,55,[],[],"[(1069, 879)]",[],[1],[9],[0.15],"[640.0, 512.0]",vertical,"(890.0, 762.0)",[1.6833333333333333],[0.119],1,4701.373
2,False,95,0.944,56,[],[],"[(533, 780), (908, 655), (898, 713), (863, 711), (773, 679), (845, 585), (957, 694), (952, 660), (786, 675), (935, 598), (898, 841), (691, 747), (941, 833), (956, 751), (739, 606), (402, 358), (69, 868), (1028, 622), (676, 509), (1003, 504), (835, 396), (907, 403), (543, 444), (532, 296), (560, 644), (556, 885), (551, 622), (560, 422), (557, 636), (372, 454), (907, 459), (951, 790), (1076, 900)]",[],"[0, 0, 0, 0, 0, 0, 0, 0, 0, 0, 0, 0, 0, 0, 0, 0, 0, 0, 0, 0, 0, 0, 0, 0, 0, 0, 0, 0, 0, 0, 0, 0, 1]",[51],[0.85],"[640.0, 512.0]",vertical,"(390.0, 262.0)",[0.7],[0.804],0,4706.22
2,False,96,0.984,59,[],[],"[(1076, 884)]",[],[1],[35],[0.5833333333333334],"[640.0, 512.0]",horizontal,"(890.0, 762.0)",[0.65],[0.541],1,4963.986
2,False,97,0.953,57,[],[],"[(1085, 892)]",[],[1],[39],[0.65],"[640.0, 512.0]",horizontal,"(390.0, 262.0)",[1.1166666666666667],[0.613],1,4981.453
2,False,98,1.023,61,[],[],"[(1081, 871)]",[],[1],[38],[0.6333333333333333],"[640.0, 512.0]",vertical,"(890.0, 762.0)",[0.95],[0.588],1,4986.609
2,False,99,0.791,47,[],[],"[(1124, 871)]",[],[1],[31],[0.5166666666666666],"[640.0, 512.0]",vertical,"(390.0, 262.0)",[0.9],[0.474],1,4991.286
2,False,100,0.873,52,[],[],"[(1100, 872)]",[],[1],[35],[0.5833333333333334],"[640.0, 512.0]",horizontal,"(390.0, 262.0)",[0.7166666666666667],[0.542],1,4995.597
2,False,101,0.868,52,[],[],"[(1072, 885)]",[],[1],[31],[0.5166666666666666],"[640.0, 512.0]",horizontal,"(390.0, 262.0)",[1.2833333333333332],[0.475],1,4999.737
2,False,102,0.866,51,[],[],"[(1081, 871)]",[],[1],[33],[0.55],"[640.0, 512.0]",horizontal,"(390.0, 762.0)",[1.2],[0.507],1,5004.492
2,False,103,0.727,43,[],[],"[(1081, 858)]",[],[1],[34],[0.5666666666666667],"[640.0, 512.0]",horizontal,"(890.0, 762.0)",[1.3833333333333333],[0.527],1,5009.079
2,False,104,0.886,53,[],[],"[(1081, 862)]",[],[1],[40],[0.6666666666666666],"[640.0, 512.0]",vertical,"(890.0, 262.0)",[0.7],[0.633],1,5013.895
2,False,105,0.908,54,[],[],"[(1081, 882)]",[],[1],[33],[0.55],"[640.0, 512.0]",horizontal,"(390.0, 262.0)",[1.35],[0.511],1,5018.364
2,False,106,0.866,51,[],[],"[(1081, 849)]",[],[1],[34],[0.5666666666666667],"[640.0, 512.0]",horizontal,"(890.0, 762.0)",[1.45],[0.524],1,5023.205
2,False,107,1.06,63,[],[],"[(1081, 854)]",[],[1],[39],[0.65],"[640.0, 512.0]",horizontal,"(890.0, 262.0)",[0.6833333333333333],[0.604],1,5028.205
2,False,108,1.059,63,[],[],"[(1081, 855)]",[],[1],[31],[0.5166666666666666],"[640.0, 512.0]",horizontal,"(390.0, 762.0)",[1.0],[0.479],1,5032.741
2,False,109,1.001,60,[],[],"[(1081, 880)]",[],[1],[32],[0.5333333333333333],"[640.0, 512.0]",vertical,"(390.0, 762.0)",[1.5833333333333333],[0.496],1,5037.287
2,False,110,0.854,51,[],[],"[(1096, 885)]",[],[1],[33],[0.55],"[640.0, 512.0]",vertical,"(890.0, 762.0)",[1.55],[0.51],1,5042.475
2,False,111,1.08,64,[],[],"[(1095, 862)]",[],[1],[32],[0.5333333333333333],"[640.0, 512.0]",vertical,"(890.0, 262.0)",[0.9833333333333333],[0.502],1,5047.564
2,False,112,0.84,50,[],[],"[(1105, 867)]",[],[1],[33],[0.55],"[640.0, 512.0]",horizontal,"(890.0, 262.0)",[1.0],[0.519],1,5052.255
2,False,113,0.569,34,[],[],"[(1071, 882)]",[],[1],[35],[0.5833333333333334],"[640.0, 512.0]",vertical,"(390.0, 262.0)",[0.8],[0.54],1,5056.648
2,False,114,1.024,61,[],[],"[(1063, 867)]",[],[1],[38],[0.6333333333333333],"[640.0, 512.0]",horizontal,"(390.0, 262.0)",[1.5],[0.6],1,5060.555
2,False,115,0.716,42,[],[],"[(1080, 872)]",[],[1],[51],[0.85],"[640.0, 512.0]",vertical,"(390.0, 762.0)",[1.5666666666666667],[0.811],0,5065.679
2,False,116,1.031,61,[],[],"[(1081, 890)]",[],[1],[33],[0.55],"[640.0, 512.0]",horizontal,"(890.0, 262.0)",[1.1666666666666667],[0.51],1,5071.039
2,False,117,0.601,36,[],[],"[(1081, 889)]",[],[1],[32],[0.5333333333333333],"[640.0, 512.0]",vertical,"(390.0, 762.0)",[1.2166666666666666],[0.49],1,5113.4
2,False,118,1.093,65,[],[],"[(1081, 863)]",[],[1],[41],[0.6833333333333333],"[640.0, 512.0]",vertical,"(890.0, 762.0)",[0.5666666666666667],[0.633],1,5117.768
2,False,119,1.177,70,[],[],"[(1063, 861)]",[],[1],[33],[0.55],"[640.0, 512.0]",vertical,"(390.0, 762.0)",[0.6333333333333333],[0.503],1,5121.991
2,False,120,0.578,34,[],[],"[(1067, 863)]",[],[1],[32],[0.5333333333333333],"[640.0, 512.0]",horizontal,"(390.0, 762.0)",[1.2166666666666666],[0.494],1,5126.364
3,False,121,0.708,42,[],[],"[(1081, 868)]",[],[1],[33],[0.55],"[640.0, 512.0]",horizontal,"(890.0, 762.0)",[0.7666666666666666],[0.508],1,5130.747
3,False,122,0.81,48,[],[],"[(1124, 871)]",[],[1],[29],[0.48333333333333334],"[640.0, 512.0]",horizontal,"(390.0, 262.0)",[1.2833333333333332],[0.441],1,5134.879
3,False,123,0.653,39,[],[],"[(1067, 865)]",[],[1],[29],[0.48333333333333334],"[640.0, 512.0]",horizontal,"(390.0, 262.0)",[1.5166666666666666],[0.443],1,5139.506
3,False,124,0.532,31,[],[],"[(1085, 856)]",[],[1],[32],[0.5333333333333333],"[640.0, 512.0]",vertical,"(390.0, 762.0)",[1.3333333333333333],[0.491],1,5144.264
3,False,125,0.532,31,[],[],"[(1081, 880)]",[],[1],[35],[0.5833333333333334],"[640.0, 512.0]",vertical,"(390.0, 762.0)",[1.6666666666666667],[0.539],1,5148.833
3,False,126,0.896,53,[],[],"[(1081, 850)]",[],[1],[32],[0.5333333333333333],"[640.0, 512.0]",vertical,"(390.0, 262.0)",[1.6166666666666667],[0.493],1,5153.605
3,False,127,0.91,54,[],[],"[(1081, 880)]",[],[1],[33],[0.55],"[640.0, 512.0]",vertical,"(890.0, 762.0)",[0.8833333333333333],[0.512],1,5158.7
3,False,128,0.825,49,[],[],"[(1076, 879)]",[],[1],[39],[0.65],"[640.0, 512.0]",vertical,"(390.0, 262.0)",[1.3],[0.609],1,5163.121
3,False,129,0.511,30,[],[],"[(1038, 867)]",[],[1],[37],[0.6166666666666667],"[640.0, 512.0]",vertical,"(390.0, 762.0)",[1.3333333333333333],[0.577],1,5213.235
3,False,130,0.649,38,[],[],"[(1076, 866)]",[],[1],[33],[0.55],"[640.0, 512.0]",horizontal,"(890.0, 762.0)",[0.9833333333333333],[0.505],1,5217.684
3,False,131,1.052,63,[],[],"[(1078, 872)]",[],[1],[37],[0.6166666666666667],"[640.0, 512.0]",vertical,"(890.0, 762.0)",[0.7833333333333333],[0.57],1,5221.871
3,False,132,0.824,49,[],[],"[(1081, 862)]",[],[1],[33],[0.55],"[640.0, 512.0]",horizontal,"(890.0, 262.0)",[1.25],[0.511],1,5226.484
3,False,133,0.646,38,[],[],"[(1044, 891)]",[],[1],[35],[0.5833333333333334],"[640.0, 512.0]",horizontal,"(390.0, 762.0)",[1.0333333333333332],[0.535],1,5231.031
3,False,134,0.717,43,[],[],"[(1067, 870)]",[],[1],[34],[0.5666666666666667],"[640.0, 512.0]",vertical,"(890.0, 262.0)",[0.6833333333333333],[0.523],1,5235.583
3,False,135,0.854,51,[],[],"[(1081, 863)]",[],[1],[33],[0.55],"[640.0, 512.0]",vertical,"(390.0, 762.0)",[0.55],[0.511],1,5239.643
3,False,136,0.792,47,[],[],"[(1081, 870)]",[],[1],[35],[0.5833333333333334],"[640.0, 512.0]",horizontal,"(890.0, 762.0)",[1.3666666666666667],[0.547],1,5243.583
3,False,137,0.695,41,[],[],"[(1110, 866)]",[],[1],[34],[0.5666666666666667],"[640.0, 512.0]",vertical,"(390.0, 262.0)",[1.2333333333333334],[0.531],1,5248.545
3,False,138,0.987,59,[],[],"[(1100, 880)]",[],[1],[35],[0.5833333333333334],"[640.0, 512.0]",vertical,"(890.0, 762.0)",[1.0],[0.542],1,5253.168
3,False,139,0.903,54,[],[],"[(1081, 850)]",[],[1],[32],[0.5333333333333333],"[640.0, 512.0]",vertical,"(390.0, 262.0)",[0.6333333333333333],[0.491],1,5257.865
3,False,140,1.025,61,[],[],"[(1081, 852)]",[],[1],[18],[0.3],"[640.0, 512.0]",vertical,"(390.0, 762.0)",[1.0333333333333332],[0.27],1,5262.0
3,False,141,0.897,53,[],[],"[(1084, 860)]",[],[1],[31],[0.5166666666666666],"[640.0, 512.0]",vertical,"(890.0, 262.0)",[1.45],[0.477],1,5266.576
3,False,142,1.115,66,[],[],"[(1117, 892)]",[],[1],[31],[0.5166666666666666],"[640.0, 512.0]",vertical,"(390.0, 762.0)",[1.5666666666666667],[0.476],1,5271.594
3,False,143,0.519,31,[],[],"[(1081, 867)]",[],[1],[41],[0.6833333333333333],"[640.0, 512.0]",horizontal,"(890.0, 262.0)",[0.8666666666666667],[0.655],1,5276.903
3,False,144,1.176,70,[],[],"[(1081, 843)]",[],[1],[32],[0.5333333333333333],"[640.0, 512.0]",vertical,"(390.0, 762.0)",[0.9666666666666667],[0.491],1,5281.188
3,False,145,0.655,39,[],[],"[(1096, 861)]",[],[1],[51],[0.85],"[640.0, 512.0]",vertical,"(890.0, 762.0)",[1.6666666666666667],[0.805],0,5285.996
3,False,146,1.029,61,[],[],"[(1081, 856)]",[],[1],[32],[0.5333333333333333],"[640.0, 512.0]",vertical,"(390.0, 762.0)",[1.6666666666666667],[0.492],1,5291.224
3,False,147,0.693,41,[],[],"[(1081, 862)]",[],[1],[39],[0.65],"[640.0, 512.0]",vertical,"(390.0, 262.0)",[0.5833333333333334],[0.607],1,5296.381
3,False,148,0.977,58,[],[],"[(1081, 866)]",[],[1],[35],[0.5833333333333334],"[640.0, 512.0]",vertical,"(890.0, 762.0)",[1.2166666666666666],[0.549],1,5300.434
3,False,149,1.167,70,[],[],"[(1081, 854)]",[],[1],[36],[0.6],"[640.0, 512.0]",vertical,"(890.0, 762.0)",[0.65],[0.567],1,5305.386
3,False,150,1.086,65,[],[],"[(1079, 864)]",[],[1],[34],[0.5666666666666667],"[640.0, 512.0]",horizontal,"(890.0, 762.0)",[1.0166666666666666],[0.532],1,5309.935
3,False,151,0.727,43,[],[],"[(1067, 857)]",[],[1],[31],[0.5166666666666666],"[640.0, 512.0]",vertical,"(390.0, 262.0)",[1.1666666666666667],[0.477],1,5314.74
3,False,152,0.958,57,[],[],"[(1081, 857)]",[],[1],[32],[0.5333333333333333],"[640.0, 512.0]",vertical,"(390.0, 262.0)",[1.2666666666666666],[0.494],1,5319.39
3,False,153,0.86,51,[],[],"[(1081, 859)]",[],[1],[36],[0.6],"[640.0, 512.0]",vertical,"(390.0, 262.0)",[1.0166666666666666],[0.56],1,5324.21
3,False,154,1.042,62,[],[],"[(1076, 857)]",[],[1],[34],[0.5666666666666667],"[640.0, 512.0]",vertical,"(390.0, 262.0)",[0.5333333333333333],[0.523],1,5328.923
3,False,155,0.556,33,[],[],"[(1091, 860)]",[],[1],[31],[0.5166666666666666],"[640.0, 512.0]",vertical,"(890.0, 262.0)",[1.0833333333333333],[0.481],1,5333.285
3,False,156,0.92,55,[],[],"[(1081, 842)]",[],[1],[33],[0.55],"[640.0, 512.0]",vertical,"(890.0, 262.0)",[0.75],[0.514],1,5337.769
3,False,157,1.066,63,[],[],"[(1081, 858)]",[],[1],[32],[0.5333333333333333],"[640.0, 512.0]",horizontal,"(890.0, 762.0)",[1.3166666666666667],[0.488],1,5342.125
3,False,158,0.563,33,[],[],"[(1081, 860)]",[],[1],[35],[0.5833333333333334],"[640.0, 512.0]",horizontal,"(390.0, 762.0)",[1.2166666666666666],[0.537],1,5347.141
3,False,159,0.846,50,[],[],"[(1081, 839)]",[],[1],[33],[0.55],"[640.0, 512.0]",vertical,"(890.0, 262.0)",[0.7166666666666667],[0.506],1,5351.615
3,False,160,1.15,69,[],[],"[(1081, 863)]",[],[1],[32],[0.5333333333333333],"[640.0, 512.0]",vertical,"(390.0, 262.0)",[1.55],[0.492],1,5355.956
3,False,161,1.082,64,[],[],"[(1081, 857)]",[],[1],[33],[0.55],"[640.0, 512.0]",horizontal,"(890.0, 262.0)",[1.45],[0.513],1,5361.26
3,False,162,1.165,69,[],[],"[(1100, 852)]",[],[1],[34],[0.5666666666666667],"[640.0, 512.0]",vertical,"(390.0, 762.0)",[1.3],[0.531],1,5366.555
3,False,163,1.064,63,[],[],"[(1103, 858)]",[],[1],[35],[0.5833333333333334],"[640.0, 512.0]",vertical,"(390.0, 762.0)",[0.5166666666666666],[0.542],1,5371.773
3,False,164,0.709,42,[],[],"[(1079, 856)]",[],[1],[35],[0.5833333333333334],"[640.0, 512.0]",vertical,"(890.0, 262.0)",[1.15],[0.538],1,5376.013
3,False,165,0.769,46,[],[],"[(1071, 853)]",[],[1],[32],[0.5333333333333333],"[640.0, 512.0]",vertical,"(890.0, 262.0)",[1.2666666666666666],[0.49],1,5380.538
3,False,166,0.737,44,[],[],"[(1072, 866)]",[],[1],[33],[0.55],"[640.0, 512.0]",horizontal,"(890.0, 762.0)",[1.3333333333333333],[0.517],1,5385.195
3,False,167,0.981,58,[],[],"[(1076, 855)]",[],[1],[34],[0.5666666666666667],"[640.0, 512.0]",horizontal,"(890.0, 762.0)",[1.4],[0.528],1,5389.734
3,False,168,1.107,66,[],[],"[(1128, 851)]",[],[1],[34],[0.5666666666666667],"[640.0, 512.0]",vertical,"(890.0, 262.0)",[1.6],[0.533],1,5394.82
3,False,169,0.79,47,[],[],"[(1081, 859)]",[],[1],[34],[0.5666666666666667],"[640.0, 512.0]",vertical,"(390.0, 262.0)",[0.6833333333333333],[0.527],1,5400.274
3,False,170,1.093,65,[],[],"[(1067, 856)]",[],[1],[35],[0.5833333333333334],"[640.0, 512.0]",horizontal,"(890.0, 762.0)",[0.9333333333333333],[0.542],1,5404.626
3,False,171,1.08,64,[],[],"[(1064, 868)]",[],[1],[33],[0.55],"[640.0, 512.0]",horizontal,"(390.0, 262.0)",[1.5333333333333332],[0.503],1,5409.268
3,False,172,1.089,65,[],[],"[(1038, 865)]",[],[1],[38],[0.6333333333333333],"[640.0, 512.0]",vertical,"(390.0, 762.0)",[1.45],[0.589],1,5414.567
3,False,173,0.96,57,[],[],"[(1086, 869)]",[],[1],[36],[0.6],"[640.0, 512.0]",horizontal,"(390.0, 262.0)",[1.45],[0.557],1,5419.661
3,False,174,1.099,65,[],[],"[(1063, 863)]",[],[1],[34],[0.5666666666666667],"[640.0, 512.0]",horizontal,"(390.0, 762.0)",[1.65],[0.525],1,5424.703
3,False,175,0.764,45,[],[],"[(1079, 844)]",[],[1],[33],[0.55],"[640.0, 512.0]",horizontal,"(390.0, 762.0)",[0.6833333333333333],[0.507],1,5430.251
3,False,176,0.893,53,[],[],"[(1081, 862)]",[],[1],[34],[0.5666666666666667],"[640.0, 512.0]",vertical,"(390.0, 262.0)",[0.7333333333333333],[0.532],1,5434.208
3,False,177,1.17,70,[],[],"[(1058, 859)]",[],[1],[38],[0.6333333333333333],"[640.0, 512.0]",vertical,"(390.0, 762.0)",[1.5333333333333332],[0.592],1,5438.415
3,False,178,1.192,71,[],[],"[(1081, 838)]",[],[1],[36],[0.6],"[640.0, 512.0]",vertical,"(890.0, 762.0)",[1.4333333333333333],[0.554],1,5443.768
3,False,179,1.066,63,[],[],"[(1076, 889)]",[],[1],[46],[0.7666666666666666],"[640.0, 512.0]",vertical,"(890.0, 262.0)",[1.6833333333333333],[0.721],1,5449.103
3,False,180,0.526,31,[],[],"[(1081, 857)]",[],[1],[33],[0.55],"[640.0, 512.0]",horizontal,"(890.0, 262.0)",[0.5],[0.508],1,5454.767
4,False,181,0.524,31,[],[],"[(1081, 852)]",[],[1],[34],[0.5666666666666667],"[640.0, 512.0]",horizontal,"(390.0, 262.0)",[0.8166666666666667],[0.521],1,5458.572
4,False,182,0.769,46,[],[],"[(1057, 868)]",[],[1],[38],[0.6333333333333333],"[640.0, 512.0]",horizontal,"(890.0, 762.0)",[1.4],[0.588],1,5462.598
4,False,183,1.005,60,[],[],"[(1074, 854)]",[],[1],[40],[0.6666666666666666],"[640.0, 512.0]",vertical,"(890.0, 762.0)",[0.6],[0.618],1,5467.399
4,False,184,1.002,60,[],[],"[(1081, 859)]",[],[1],[38],[0.6333333333333333],"[640.0, 512.0]",vertical,"(390.0, 262.0)",[0.8166666666666667],[0.594],1,5471.8
4,False,185,0.541,32,[],[],"[(1081, 867)]",[],[1],[35],[0.5833333333333334],"[640.0, 512.0]",horizontal,"(390.0, 262.0)",[1.2833333333333332],[0.544],1,5476.394
4,False,186,0.971,58,[],[],"[(1081, 853)]",[],[1],[34],[0.5666666666666667],"[640.0, 512.0]",horizontal,"(390.0, 262.0)",[1.0666666666666667],[0.525],1,5480.753
4,False,187,0.992,59,[],[],"[(1081, 859)]",[],[1],[35],[0.5833333333333334],"[640.0, 512.0]",horizontal,"(390.0, 762.0)",[0.85],[0.538],1,5485.307
4,False,188,0.946,56,[],[],"[(1081, 876)]",[],[1],[38],[0.6333333333333333],"[640.0, 512.0]",vertical,"(890.0, 762.0)",[1.3],[0.59],1,5489.931
4,False,189,1.101,66,[],[],"[(1081, 867)]",[],[1],[29],[0.48333333333333334],"[640.0, 512.0]",horizontal,"(390.0, 262.0)",[1.0666666666666667],[0.449],1,5494.833
4,False,190,0.994,59,[],[],"[(1076, 852)]",[],[1],[39],[0.65],"[640.0, 512.0]",vertical,"(390.0, 762.0)",[1.2],[0.605],1,5499.744
4,False,191,0.586,35,[],[],"[(1060, 866)]",[],[1],[35],[0.5833333333333334],"[640.0, 512.0]",horizontal,"(890.0, 762.0)",[1.4666666666666666],[0.544],1,5504.69
4,False,192,0.556,33,[],[],"[(1067, 873)]",[],[1],[34],[0.5666666666666667],"[640.0, 512.0]",horizontal,"(390.0, 762.0)",[0.6666666666666666],[0.522],1,5509.44
4,False,193,0.609,36,[],[],"[(1062, 884)]",[],[1],[40],[0.6666666666666666],"[640.0, 512.0]",horizontal,"(890.0, 762.0)",[0.6833333333333333],[0.639],1,5515.381
4,False,194,1.031,61,[],[],"[(1081, 870)]",[],[1],[36],[0.6],"[640.0, 512.0]",horizontal,"(390.0, 762.0)",[1.3166666666666667],[0.554],1,5519.428
4,False,195,1.039,62,[],[],"[(1079, 897)]",[],[1],[33],[0.55],"[640.0, 512.0]",vertical,"(390.0, 762.0)",[1.0333333333333332],[0.508],1,5524.653
4,False,196,0.539,32,[],[],"[(1081, 862)]",[],[1],[35],[0.5833333333333334],"[640.0, 512.0]",vertical,"(890.0, 762.0)",[0.5166666666666666],[0.539],1,5529.429
4,False,197,1.043,62,[],[],"[(1081, 862)]",[],[1],[36],[0.6],"[640.0, 512.0]",vertical,"(390.0, 262.0)",[0.8166666666666667],[0.56],1,5533.19
4,False,198,0.831,49,[],[],"[(1081, 857)]",[],[1],[41],[0.6833333333333333],"[640.0, 512.0]",vertical,"(390.0, 762.0)",[0.55],[0.64],1,5537.762
4,False,199,0.803,48,[],[],"[(1081, 876)]",[],[1],[36],[0.6],"[640.0, 512.0]",vertical,"(390.0, 262.0)",[1.2833333333333332],[0.56],1,5541.991
4,False,200,1.085,65,[],[],"[(1080, 850)]",[],[1],[38],[0.6333333333333333],"[640.0, 512.0]",horizontal,"(390.0, 262.0)",[1.5666666666666667],[0.588],1,5546.792
4,False,201,0.907,54,[],[],"[(1081, 859)]",[],[1],[31],[0.5166666666666666],"[640.0, 512.0]",horizontal,"(390.0, 262.0)",[0.9166666666666666],[0.478],1,5552.169
4,False,202,1.063,63,[],[],"[(1079, 847)]",[],[1],[30],[0.5],"[640.0, 512.0]",vertical,"(890.0, 262.0)",[0.95],[0.462],1,5556.741
4,False,203,0.703,42,[],[],"[(1052, 856)]",[],[1],[30],[0.5],"[640.0, 512.0]",vertical,"(890.0, 262.0)",[1.4833333333333334],[0.458],1,5561.363
4,False,204,0.783,46,[],[],"[(1081, 867)]",[],[1],[31],[0.5166666666666666],"[640.0, 512.0]",vertical,"(390.0, 262.0)",[1.4833333333333334],[0.477],1,5565.951
4,False,205,0.983,58,[],[],"[(1081, 862)]",[],[1],[37],[0.6166666666666667],"[640.0, 512.0]",vertical,"(390.0, 762.0)",[0.8333333333333334],[0.57],1,5570.877
4,False,206,1.008,60,[],[],"[(1081, 847)]",[],[1],[42],[0.7],"[640.0, 512.0]",vertical,"(890.0, 762.0)",[1.0],[0.661],1,5575.253
4,False,207,1.081,64,[],[],"[(1081, 867)]",[],[1],[36],[0.6],"[640.0, 512.0]",vertical,"(390.0, 762.0)",[0.6166666666666667],[0.558],1,5579.971
4,False,208,1.14,68,[],[],"[(1081, 868)]",[],[1],[37],[0.6166666666666667],"[640.0, 512.0]",vertical,"(390.0, 762.0)",[1.1833333333333333],[0.585],1,5584.275
4,False,209,0.749,44,[],[],"[(1081, 863)]",[],[1],[38],[0.6333333333333333],"[640.0, 512.0]",horizontal,"(890.0, 262.0)",[0.7666666666666666],[0.593],1,5589.27
4,False,210,0.721,43,[],[],"[(1081, 850)]",[],[1],[31],[0.5166666666666666],"[640.0, 512.0]",horizontal,"(890.0, 262.0)",[1.1833333333333333],[0.479],1,5593.438
4,False,211,0.58,34,[],[],"[(1081, 862)]",[],[1],[34],[0.5666666666666667],"[640.0, 512.0]",horizontal,"(890.0, 262.0)",[0.9833333333333333],[0.527],1,5597.832
4,False,212,0.577,34,[],[],"[(1047, 858)]",[],[1],[33],[0.55],"[640.0, 512.0]",vertical,"(890.0, 262.0)",[1.1833333333333333],[0.514],1,5602.018
4,False,213,0.884,53,[],[],"[(1081, 847)]",[],[1],[34],[0.5666666666666667],"[640.0, 512.0]",horizontal,"(890.0, 762.0)",[0.6833333333333333],[0.525],1,5607.676
4,False,214,0.802,48,[],[],"[(1081, 852)]",[],[1],[41],[0.6833333333333333],"[640.0, 512.0]",vertical,"(390.0, 762.0)",[0.9333333333333333],[0.643],1,5611.892
4,False,215,0.98,58,[],[],"[(1081, 856)]",[],[1],[35],[0.5833333333333334],"[640.0, 512.0]",vertical,"(390.0, 762.0)",[1.0666666666666667],[0.549],1,5616.537
4,False,216,1.146,68,[],[],"[(1055, 885)]",[],[1],[33],[0.55],"[640.0, 512.0]",vertical,"(890.0, 762.0)",[1.0],[0.512],1,5621.131
4,False,217,0.606,36,[],[],"[(1081, 862)]",[],[1],[33],[0.55],"[640.0, 512.0]",horizontal,"(890.0, 262.0)",[1.0666666666666667],[0.508],1,5625.851
4,False,218,0.981,58,[],[],"[(1081, 866)]",[],[1],[37],[0.6166666666666667],"[640.0, 512.0]",horizontal,"(890.0, 762.0)",[1.5],[0.583],1,5630.119
4,False,219,0.782,46,[],[],"[(1058, 852)]",[],[1],[34],[0.5666666666666667],"[640.0, 512.0]",vertical,"(390.0, 762.0)",[1.4166666666666667],[0.541],1,5635.142
4,False,220,0.555,33,[],[],"[(1080, 865)]",[],[1],[32],[0.5333333333333333],"[640.0, 512.0]",vertical,"(890.0, 762.0)",[1.4833333333333334],[0.491],1,5639.874
4,False,221,0.913,54,[],[],"[(1110, 862)]",[],[1],[31],[0.5166666666666666],"[640.0, 512.0]",vertical,"(390.0, 262.0)",[1.3333333333333333],[0.472],1,5644.461
4,False,222,1.109,66,[],[],"[(1072, 874)]",[],[1],[39],[0.65],"[640.0, 512.0]",horizontal,"(390.0, 762.0)",[0.9666666666666667],[0.604],1,5649.159
4,False,223,0.826,49,[],[],"[(1048, 867)]",[],[1],[51],[0.85],"[640.0, 512.0]",horizontal,"(390.0, 262.0)",[0.6333333333333333],[0.806],0,5653.923
4,False,224,0.896,53,[],[],"[(1086, 860)]",[],[1],[36],[0.6],"[640.0, 512.0]",vertical,"(390.0, 762.0)",[1.1166666666666667],[0.56],1,5658.388
4,False,225,0.586,35,[],[],"[(1086, 862)]",[],[1],[34],[0.5666666666666667],"[640.0, 512.0]",horizontal,"(390.0, 262.0)",[1.1833333333333333],[0.527],1,5663.003
4,False,226,0.895,53,[],[],"[(1067, 857)]",[],[1],[38],[0.6333333333333333],"[640.0, 512.0]",horizontal,"(390.0, 762.0)",[1.2166666666666666],[0.596],1,5667.356
4,False,227,0.594,35,[],[],"[(1047, 885)]",[],[1],[34],[0.5666666666666667],"[640.0, 512.0]",vertical,"(890.0, 262.0)",[1.2666666666666666],[0.521],1,5672.112
4,False,228,0.726,43,[],[],"[(1047, 857)]",[],[1],[40],[0.6666666666666666],"[640.0, 512.0]",horizontal,"(390.0, 262.0)",[0.9666666666666667],[0.619],1,5676.767
4,False,229,0.548,32,[],[],"[(1051, 867)]",[],[1],[33],[0.55],"[640.0, 512.0]",vertical,"(390.0, 262.0)",[1.4166666666666667],[0.511],1,5681.499
4,False,230,0.718,43,[],[],"[(1095, 859)]",[],[1],[32],[0.5333333333333333],"[640.0, 512.0]",horizontal,"(390.0, 262.0)",[0.8],[0.489],1,5686.078
4,False,231,1.07,64,[],[],"[(1081, 858)]",[],[1],[32],[0.5333333333333333],"[640.0, 512.0]",horizontal,"(890.0, 762.0)",[0.85],[0.488],1,5690.214
4,False,232,0.775,46,[],[],"[(1081, 863)]",[],[1],[39],[0.65],"[640.0, 512.0]",horizontal,"(890.0, 762.0)",[1.2],[0.62],1,5694.709
4,False,233,0.594,35,[],[],"[(1081, 856)]",[],[1],[36],[0.6],"[640.0, 512.0]",horizontal,"(390.0, 762.0)",[0.9666666666666667],[0.561],1,5699.336
4,False,234,0.988,59,[],[],"[(1057, 857)]",[],[1],[30],[0.5],"[640.0, 512.0]",vertical,"(390.0, 262.0)",[0.65],[0.462],1,5703.361
4,False,235,1.19,71,[],[],"[(1079, 838)]",[],[1],[33],[0.55],"[640.0, 512.0]",horizontal,"(890.0, 262.0)",[0.5],[0.51],1,5707.599
4,False,236,0.536,32,[],[],"[(1082, 889)]",[],[1],[36],[0.6],"[640.0, 512.0]",horizontal,"(890.0, 762.0)",[1.6],[0.553],1,5711.965
4,False,237,1.065,63,[],[],"[(1081, 859)]",[],[1],[37],[0.6166666666666667],"[640.0, 512.0]",vertical,"(890.0, 262.0)",[1.35],[0.57],1,5716.768
4,False,238,0.749,44,[],[],"[(1081, 860)]",[],[1],[35],[0.5833333333333334],"[640.0, 512.0]",vertical,"(390.0, 762.0)",[1.0833333333333333],[0.543],1,5721.747
4,False,239,0.737,44,[],[],"[(1081, 855)]",[],[1],[30],[0.5],"[640.0, 512.0]",vertical,"(890.0, 262.0)",[1.55],[0.458],1,5726.079
4,False,240,0.851,51,[],[],"[(1082, 856)]",[],[1],[31],[0.5166666666666666],"[640.0, 512.0]",horizontal,"(890.0, 262.0)",[1.3333333333333333],[0.478],1,5730.904
5,False,241,0.792,47,[],[],"[(1056, 861)]",[],[1],[33],[0.55],"[640.0, 512.0]",horizontal,"(390.0, 762.0)",[0.7666666666666666],[0.509],1,5735.575
5,False,242,1.12,67,[],[],"[(1081, 861)]",[],[1],[35],[0.5833333333333334],"[640.0, 512.0]",horizontal,"(390.0, 762.0)",[0.55],[0.545],1,5739.76
5,False,243,0.772,46,[],[],"[(1058, 843)]",[],[1],[51],[0.85],"[640.0, 512.0]",vertical,"(390.0, 762.0)",[0.9333333333333333],[0.803],0,5744.284
5,False,244,1.0,60,[],[],"[(1079, 841)]",[],[1],[40],[0.6666666666666666],"[640.0, 512.0]",horizontal,"(890.0, 762.0)",[1.2333333333333334],[0.624],1,5748.886
5,False,245,0.716,42,[],[],"[(1077, 856)]",[],[1],[33],[0.55],"[640.0, 512.0]",horizontal,"(890.0, 262.0)",[1.4166666666666667],[0.508],1,5756.391
5,False,246,1.105,66,[],[],"[(1081, 856)]",[],[1],[34],[0.5666666666666667],"[640.0, 512.0]",vertical,"(390.0, 262.0)",[0.8],[0.524],1,5761.234
5,False,247,0.98,58,[],[],"[(1079, 855)]",[],[1],[35],[0.5833333333333334],"[640.0, 512.0]",horizontal,"(890.0, 762.0)",[1.2666666666666666],[0.54],1,5765.664
5,False,248,0.647,38,[],[],"[(1081, 859)]",[],[1],[32],[0.5333333333333333],"[640.0, 512.0]",horizontal,"(890.0, 762.0)",[0.8833333333333333],[0.493],1,5770.447
5,False,249,1.034,62,[],[],"[(1081, 866)]",[],[1],[31],[0.5166666666666666],"[640.0, 512.0]",vertical,"(890.0, 262.0)",[1.0166666666666666],[0.472],1,5774.69
5,False,250,0.925,55,[],[],"[(1081, 849)]",[],[1],[32],[0.5333333333333333],"[640.0, 512.0]",vertical,"(390.0, 262.0)",[1.0166666666666666],[0.489],1,5779.29
5,False,251,0.899,53,[],[],"[(1081, 866)]",[],[1],[30],[0.5],"[640.0, 512.0]",horizontal,"(890.0, 262.0)",[0.8833333333333333],[0.463],1,5783.701
5,False,252,1.105,66,[],[],"[(1063, 863)]",[],[1],[36],[0.6],"[640.0, 512.0]",vertical,"(390.0, 762.0)",[1.5],[0.559],1,5788.015
5,False,253,0.919,55,[],[],"[(1079, 873)]",[],[1],[33],[0.55],"[640.0, 512.0]",horizontal,"(390.0, 762.0)",[1.45],[0.508],1,5793.503
5,False,254,0.981,58,[],[],"[(1081, 855)]",[],[1],[34],[0.5666666666666667],"[640.0, 512.0]",vertical,"(890.0, 762.0)",[0.95],[0.521],1,5798.612
5,False,255,0.653,39,[],[],"[(1081, 862)]",[],[1],[34],[0.5666666666666667],"[640.0, 512.0]",vertical,"(390.0, 762.0)",[1.2],[0.52],1,5803.286
5,False,256,1.196,71,[],[],"[(1084, 853)]",[],[1],[39],[0.65],"[640.0, 512.0]",vertical,"(890.0, 762.0)",[1.2833333333333332],[0.602],1,5807.733
5,False,257,0.839,50,[],[],"[(1047, 852)]",[],[1],[35],[0.5833333333333334],"[640.0, 512.0]",vertical,"(390.0, 762.0)",[0.5666666666666667],[0.54],1,5812.804
5,False,258,0.717,43,[],[],"[(1081, 855)]",[],[1],[39],[0.65],"[640.0, 512.0]",vertical,"(890.0, 762.0)",[1.0833333333333333],[0.603],1,5816.69
5,False,259,1.02,61,[],[],"[(1057, 876)]",[],[1],[46],[0.7666666666666666],"[640.0, 512.0]",vertical,"(390.0, 262.0)",[0.5333333333333333],[0.715],1,5821.09
5,False,260,1.178,70,[],[],"[(1081, 848)]",[],[1],[34],[0.5666666666666667],"[640.0, 512.0]",horizontal,"(390.0, 262.0)",[1.2833333333333332],[0.522],1,5825.217
5,False,261,1.099,65,[],[],"[(1076, 853)]",[],[1],[33],[0.55],"[640.0, 512.0]",horizontal,"(890.0, 762.0)",[0.9666666666666667],[0.507],1,5830.12
5,False,262,0.888,53,[],[],"[(1081, 853)]",[],[1],[33],[0.55],"[640.0, 512.0]",vertical,"(390.0, 762.0)",[1.35],[0.507],1,5834.76
5,False,263,0.825,49,[],[],"[(1081, 843)]",[],[1],[31],[0.5166666666666666],"[640.0, 512.0]",vertical,"(390.0, 262.0)",[1.4666666666666666],[0.474],1,5839.726
5,False,264,1.055,63,[],[],"[(1081, 844)]",[],[1],[42],[0.7],"[640.0, 512.0]",horizontal,"(390.0, 762.0)",[0.6666666666666666],[0.652],1,5844.493
5,False,265,1.11,66,[],[],"[(1081, 853)]",[],[1],[41],[0.6833333333333333],"[640.0, 512.0]",horizontal,"(890.0, 762.0)",[1.6333333333333333],[0.635],1,5848.792
5,False,266,1.086,65,[],[],"[(1076, 856)]",[],[1],[35],[0.5833333333333334],"[640.0, 512.0]",horizontal,"(890.0, 262.0)",[0.6666666666666666],[0.541],1,5854.121
5,False,267,0.887,53,[],[],"[(1076, 874)]",[],[1],[35],[0.5833333333333334],"[640.0, 512.0]",vertical,"(890.0, 262.0)",[0.6333333333333333],[0.541],1,5858.594
5,False,268,0.947,56,[],[],"[(1048, 874)]",[],[1],[33],[0.55],"[640.0, 512.0]",horizontal,"(390.0, 262.0)",[1.4333333333333333],[0.507],1,5862.789
5,False,269,0.555,33,[],[],"[(1081, 853)]",[],[1],[36],[0.6],"[640.0, 512.0]",horizontal,"(390.0, 762.0)",[1.5833333333333333],[0.554],1,5867.733
5,False,270,0.673,40,[],[],"[(1058, 870)]",[],[1],[34],[0.5666666666666667],"[640.0, 512.0]",horizontal,"(390.0, 762.0)",[1.35],[0.521],1,5872.418
5,False,271,0.878,52,[],[],"[(1053, 858)]",[],[1],[34],[0.5666666666666667],"[640.0, 512.0]",vertical,"(890.0, 762.0)",[1.3666666666666667],[0.527],1,5877.072
5,False,272,0.819,49,[],[],"[(1081, 848)]",[],[1],[44],[0.7333333333333333],"[640.0, 512.0]",vertical,"(390.0, 262.0)",[1.3333333333333333],[0.682],1,5881.734
5,False,273,0.901,54,[],[],"[(1081, 840)]",[],[1],[35],[0.5833333333333334],"[640.0, 512.0]",vertical,"(390.0, 762.0)",[0.8166666666666667],[0.539],1,5886.74
5,False,274,1.017,61,[],[],"[(1058, 856)]",[],[1],[39],[0.65],"[640.0, 512.0]",vertical,"(890.0, 762.0)",[1.3666666666666667],[0.603],1,5891.105
5,False,275,1.058,63,[],[],"[(1075, 836)]",[],[1],[35],[0.5833333333333334],"[640.0, 512.0]",horizontal,"(390.0, 762.0)",[1.65],[0.534],1,5896.182
5,False,276,0.566,33,[],[],"[(1072, 859)]",[],[1],[41],[0.6833333333333333],"[640.0, 512.0]",horizontal,"(890.0, 262.0)",[0.8833333333333333],[0.64],1,5901.453
5,False,277,0.859,51,[],[],"[(1058, 842)]",[],[1],[34],[0.5666666666666667],"[640.0, 512.0]",horizontal,"(390.0, 262.0)",[1.15],[0.526],1,5905.561
5,False,278,0.811,48,[],[],"[(1049, 874)]",[],[1],[34],[0.5666666666666667],"[640.0, 512.0]",vertical,"(890.0, 762.0)",[0.9333333333333333],[0.525],1,5910.167
5,False,279,0.697,41,[],[],"[(1081, 842)]",[],[1],[37],[0.6166666666666667],"[640.0, 512.0]",vertical,"(390.0, 762.0)",[1.05],[0.569],1,5914.575
5,False,280,0.548,32,[],[],"[(1052, 866)]",[],[1],[34],[0.5666666666666667],"[640.0, 512.0]",horizontal,"(390.0, 262.0)",[1.3333333333333333],[0.526],1,5919.115
5,False,281,1.184,71,[],[],"[(1062, 871)]",[],[1],[35],[0.5833333333333334],"[640.0, 512.0]",vertical,"(890.0, 762.0)",[1.5833333333333333],[0.543],1,5923.715
5,False,282,1.068,64,[],[],"[(1072, 852)]",[],[1],[35],[0.5833333333333334],"[640.0, 512.0]",horizontal,"(890.0, 262.0)",[0.7166666666666667],[0.542],1,5928.949
5,False,283,1.131,67,[],[],"[(1072, 877)]",[],[1],[51],[0.85],"[640.0, 512.0]",vertical,"(390.0, 262.0)",[1.5666666666666667],[0.805],0,5933.368
5,False,284,0.952,57,[],[],"[(1047, 865)]",[],[1],[33],[0.55],"[640.0, 512.0]",horizontal,"(890.0, 762.0)",[1.0333333333333332],[0.507],1,5938.822
5,False,285,0.651,39,[],[],"[(1042, 870)]",[],[1],[32],[0.5333333333333333],"[640.0, 512.0]",vertical,"(390.0, 762.0)",[1.1],[0.494],1,5969.008
5,False,286,0.686,41,[],[],"[(1076, 857)]",[],[1],[38],[0.6333333333333333],"[640.0, 512.0]",vertical,"(890.0, 762.0)",[1.4833333333333334],[0.587],1,5973.374
5,False,287,0.778,46,[],[],"[(1058, 856)]",[],[1],[34],[0.5666666666666667],"[640.0, 512.0]",vertical,"(390.0, 762.0)",[1.25],[0.52],1,5978.1
5,False,288,0.854,51,[],[],"[(1081, 859)]",[],[1],[32],[0.5333333333333333],"[640.0, 512.0]",horizontal,"(390.0, 262.0)",[1.4],[0.488],1,5982.556
5,False,289,0.863,51,[],[],"[(1081, 838)]",[],[1],[32],[0.5333333333333333],"[640.0, 512.0]",vertical,"(890.0, 262.0)",[1.1166666666666667],[0.495],1,5987.181
5,False,290,1.006,60,[],[],"[(1078, 866)]",[],[1],[34],[0.5666666666666667],"[640.0, 512.0]",vertical,"(890.0, 262.0)",[1.3],[0.529],1,5991.688
5,False,291,0.971,58,[],[],"[(1086, 852)]",[],[1],[33],[0.55],"[640.0, 512.0]",vertical,"(890.0, 762.0)",[1.6833333333333333],[0.507],1,5996.526
5,False,292,1.011,60,[],[],"[(1086, 848)]",[],[1],[42],[0.7],"[640.0, 512.0]",horizontal,"(390.0, 262.0)",[0.8666666666666667],[0.654],1,6001.853
5,False,293,1.145,68,[],[],"[(1066, 842)]",[],[1],[38],[0.6333333333333333],"[640.0, 512.0]",vertical,"(890.0, 262.0)",[0.7833333333333333],[0.587],1,6006.504
5,False,294,0.636,38,[],[],"[(1096, 854)]",[],[1],[36],[0.6],"[640.0, 512.0]",horizontal,"(390.0, 262.0)",[1.25],[0.555],1,6011.201
5,False,295,1.052,63,[],[],"[(1081, 851)]",[],[1],[34],[0.5666666666666667],"[640.0, 512.0]",horizontal,"(890.0, 762.0)",[1.45],[0.526],1,6015.538
5,False,296,1.001,60,[],[],"[(1056, 850)]",[],[1],[33],[0.55],"[640.0, 512.0]",horizontal,"(390.0, 762.0)",[1.3833333333333333],[0.505],1,6020.553
5,False,297,1.053,63,[],[],"[(1072, 837)]",[],[1],[38],[0.6333333333333333],"[640.0, 512.0]",vertical,"(890.0, 262.0)",[0.7],[0.593],1,6025.536
5,False,298,0.72,43,[],[],"[(1071, 860)]",[],[1],[34],[0.5666666666666667],"[640.0, 512.0]",vertical,"(390.0, 262.0)",[1.2166666666666666],[0.526],1,6029.954
5,False,299,0.798,47,[],[],"[(1078, 846)]",[],[1],[33],[0.55],"[640.0, 512.0]",vertical,"(890.0, 262.0)",[1.45],[0.507],1,6034.556
5,False,300,1.07,64,[],[],"[(1072, 847)]",[],[1],[34],[0.5666666666666667],"[640.0, 512.0]",horizontal,"(390.0, 262.0)",[0.7666666666666666],[0.523],1,6039.308
6,False,301,1.09,65,[],[],"[(1081, 861)]",[],[1],[35],[0.5833333333333334],"[640.0, 512.0]",horizontal,"(890.0, 762.0)",[1.3666666666666667],[0.541],1,6043.754
6,False,302,1.155,69,[],[],"[(1081, 871)]",[],[1],[34],[0.5666666666666667],"[640.0, 512.0]",vertical,"(390.0, 762.0)",[0.85],[0.524],1,6048.708
6,False,303,0.867,52,[],[],"[(1078, 849)]",[],[1],[35],[0.5833333333333334],"[640.0, 512.0]",vertical,"(890.0, 762.0)",[0.5166666666666666],[0.54],1,6053.326
6,False,304,1.093,65,[],[],"[(1081, 844)]",[],[1],[35],[0.5833333333333334],"[640.0, 512.0]",vertical,"(890.0, 262.0)",[0.55],[0.542],1,6057.31
6,False,305,0.849,50,[],[],"[(1081, 853)]",[],[1],[38],[0.6333333333333333],"[640.0, 512.0]",vertical,"(890.0, 762.0)",[0.7],[0.587],1,6061.538
6,False,306,1.047,62,[],[],"[(1079, 860)]",[],[1],[33],[0.55],"[640.0, 512.0]",horizontal,"(390.0, 762.0)",[0.5833333333333334],[0.509],1,6065.855
6,False,307,0.643,38,[],[],"[(1102, 849)]",[],[1],[34],[0.5666666666666667],"[640.0, 512.0]",horizontal,"(890.0, 262.0)",[1.1666666666666667],[0.517],1,6070.067
6,False,308,1.166,69,[],[],"[(1081, 844)]",[],[1],[36],[0.6],"[640.0, 512.0]",vertical,"(390.0, 762.0)",[1.25],[0.554],1,6074.443
6,False,309,1.118,67,[],[],"[(1072, 865)]",[],[1],[36],[0.6],"[640.0, 512.0]",horizontal,"(890.0, 762.0)",[1.6333333333333333],[0.556],1,6079.442
6,False,310,1.083,64,[],[],"[(1055, 885)]",[],[1],[33],[0.55],"[640.0, 512.0]",horizontal,"(890.0, 762.0)",[0.6833333333333333],[0.507],1,6084.873
6,False,311,0.671,40,[],[],"[(1057, 858)]",[],[1],[38],[0.6333333333333333],"[640.0, 512.0]",vertical,"(890.0, 762.0)",[0.7333333333333333],[0.588],1,6092.305
6,False,312,1.055,63,[],[],"[(1072, 876)]",[],[1],[31],[0.5166666666666666],"[640.0, 512.0]",horizontal,"(890.0, 262.0)",[0.7],[0.474],1,6096.554
6,False,313,1.085,65,[],[],"[(1081, 858)]",[],[1],[37],[0.6166666666666667],"[640.0, 512.0]",vertical,"(890.0, 762.0)",[1.1833333333333333],[0.574],1,6100.701
6,False,314,0.67,40,[],[],"[(1081, 868)]",[],[1],[],[],"[640.0, 512.0]",horizontal,"(890.0, 262.0)",[],[0],0,6105.484
6,False,315,0.877,52,[],[],"[(1081, 843)]",[],[1],[41],[0.6833333333333333],"[640.0, 512.0]",vertical,"(390.0, 262.0)",[0.75],[0.634],1,6109.809
6,False,316,1.042,62,[],[],"[(1081, 830)]",[],[1],[33],[0.55],"[640.0, 512.0]",horizontal,"(390.0, 762.0)",[1.1166666666666667],[0.507],1,6114.145
6,False,317,1.052,63,[],[],"[(1072, 855)]",[],[1],[],[],"[640.0, 512.0]",horizontal,"(390.0, 762.0)",[],[0],0,6118.964
6,False,318,0.859,51,[],[],"[(1081, 853)]",[],[1],[],[],"[640.0, 512.0]",vertical,"(890.0, 262.0)",[],[0],0,6123.166
6,False,319,1.101,66,[],[],"[(1082, 852)]",[],[1],[30],[0.5],"[640.0, 512.0]",vertical,"(390.0, 262.0)",[1.3333333333333333],[0.453],1,6127.302
6,False,320,0.776,46,[],[],"[(1081, 840)]",[],[1],[31],[0.5166666666666666],"[640.0, 512.0]",horizontal,"(390.0, 262.0)",[1.2333333333333334],[0.473],1,6132.238
6,False,321,0.738,44,[],[],"[(1067, 856)]",[],[1],[37],[0.6166666666666667],"[640.0, 512.0]",vertical,"(390.0, 262.0)",[1.1166666666666667],[0.577],1,6136.864
6,False,322,0.608,36,[],[],"[(1105, 847)]",[],[1],[25],[0.4166666666666667],"[640.0, 512.0]",vertical,"(890.0, 262.0)",[0.8666666666666667],[0.371],1,6141.443
6,False,323,0.897,53,[],[],"[(1072, 867)]",[],[1],[38],[0.6333333333333333],"[640.0, 512.0]",vertical,"(890.0, 762.0)",[0.8333333333333334],[0.593],1,6145.279
6,False,324,1.128,67,[],[],"[(1076, 856)]",[],[1],[34],[0.5666666666666667],"[640.0, 512.0]",vertical,"(390.0, 762.0)",[1.4166666666666667],[0.523],1,6149.575
6,False,325,0.907,54,[],[],"[(1081, 852)]",[],[1],[34],[0.5666666666666667],"[640.0, 512.0]",vertical,"(390.0, 262.0)",[1.1333333333333333],[0.523],1,6154.651
6,False,326,0.752,45,[],[],"[(1056, 881)]",[],[1],[32],[0.5333333333333333],"[640.0, 512.0]",horizontal,"(890.0, 262.0)",[1.6],[0.49],1,6159.2
6,False,327,1.11,66,[],[],"[(1091, 858)]",[],[1],[29],[0.48333333333333334],"[640.0, 512.0]",vertical,"(390.0, 262.0)",[0.6833333333333333],[0.449],1,6164.295
6,False,328,0.6,36,[],[],"[(1081, 860)]",[],[1],[39],[0.65],"[640.0, 512.0]",vertical,"(890.0, 262.0)",[1.0666666666666667],[0.605],1,6168.574
6,False,329,0.641,38,[],[],"[(1088, 877)]",[],[1],[44],[0.7333333333333333],"[640.0, 512.0]",vertical,"(890.0, 262.0)",[1.1166666666666667],[0.687],1,6173.047
6,False,330,0.878,52,[],[],"[(1081, 853)]",[],[1],[38],[0.6333333333333333],"[640.0, 512.0]",horizontal,"(890.0, 262.0)",[0.6666666666666666],[0.586],1,6177.521
6,False,331,0.891,53,[],[],"[(1088, 852)]",[],[1],[20],[0.3333333333333333],"[640.0, 512.0]",horizontal,"(890.0, 262.0)",[1.5],[0.297],1,6181.773
6,False,332,0.73,43,[],[],"[(1081, 851)]",[],[1],[31],[0.5166666666666666],"[640.0, 512.0]",vertical,"(390.0, 762.0)",[1.4666666666666666],[0.471],1,6186.585
6,False,333,0.886,53,[],[],"[(1079, 870)]",[],[1],[25],[0.4166666666666667],"[640.0, 512.0]",vertical,"(390.0, 762.0)",[0.8333333333333334],[0.375],1,6191.507
6,False,334,0.704,42,[],[],"[(1082, 840)]",[],[1],[30],[0.5],"[640.0, 512.0]",horizontal,"(390.0, 262.0)",[1.25],[0.459],1,6195.636
6,False,335,0.86,51,[],[],"[(1087, 843)]",[],[1],[34],[0.5666666666666667],"[640.0, 512.0]",horizontal,"(890.0, 762.0)",[0.55],[0.521],1,6200.19
6,False,336,0.568,34,[],[],"[(1081, 847)]",[],[1],[30],[0.5],"[640.0, 512.0]",horizontal,"(890.0, 262.0)",[1.1],[0.458],1,6204.287
6,False,337,0.94,56,[],[],"[(1086, 858)]",[],[1],[33],[0.55],"[640.0, 512.0]",horizontal,"(390.0, 762.0)",[0.6833333333333333],[0.509],1,6208.427
6,False,338,1.159,69,[],[],"[(1069, 852)]",[],[1],[31],[0.5166666666666666],"[640.0, 512.0]",horizontal,"(390.0, 262.0)",[1.0666666666666667],[0.474],1,6212.735
6,False,339,0.667,40,[],[],"[(1081, 865)]",[],[1],[36],[0.6],"[640.0, 512.0]",vertical,"(890.0, 262.0)",[1.2166666666666666],[0.568],1,6217.472
6,False,340,1.16,69,[],[],"[(1082, 849)]",[],[1],[38],[0.6333333333333333],"[640.0, 512.0]",horizontal,"(390.0, 762.0)",[1.4333333333333333],[0.587],1,6222.203
6,False,341,0.973,58,[],[],"[(1081, 844)]",[],[1],[32],[0.5333333333333333],"[640.0, 512.0]",horizontal,"(390.0, 262.0)",[0.7166666666666667],[0.493],1,6227.36
6,False,342,0.699,41,[],[],"[(1043, 849)]",[],[1],[25],[0.4166666666666667],"[640.0, 512.0]",vertical,"(890.0, 262.0)",[0.8833333333333333],[0.379],1,6231.737
6,False,343,0.827,49,[],[],"[(1058, 875)]",[],[1],[],[],"[640.0, 512.0]",vertical,"(390.0, 262.0)",[],[0],0,6235.684
6,False,344,0.549,32,[],[],"[(1072, 842)]",[],[1],[31],[0.5166666666666666],"[640.0, 512.0]",vertical,"(890.0, 762.0)",[0.6833333333333333],[0.475],1,6241.692
6,False,345,0.811,48,[],[],"[(1091, 849)]",[],[1],[38],[0.6333333333333333],"[640.0, 512.0]",vertical,"(890.0, 762.0)",[0.8833333333333333],[0.591],1,6249.568
6,False,346,0.71,42,[],[],"[(1081, 857)]",[],[1],[32],[0.5333333333333333],"[640.0, 512.0]",horizontal,"(390.0, 762.0)",[0.6833333333333333],[0.486],1,6253.853
6,False,347,0.992,59,[],[],"[(1052, 853)]",[],[1],[34],[0.5666666666666667],"[640.0, 512.0]",horizontal,"(890.0, 262.0)",[0.8166666666666667],[0.524],1,6257.888
6,False,348,0.56,33,[],[],"[(1067, 852)]",[],[1],[20],[0.3333333333333333],"[640.0, 512.0]",horizontal,"(390.0, 762.0)",[1.6666666666666667],[0.294],1,6262.212
6,False,349,1.081,64,[],[],"[(1072, 855)]",[],[1],[32],[0.5333333333333333],"[640.0, 512.0]",vertical,"(890.0, 262.0)",[1.3166666666666667],[0.488],1,6267.201
6,False,350,0.661,39,[],[],"[(1081, 877)]",[],[1],[31],[0.5166666666666666],"[640.0, 512.0]",vertical,"(390.0, 762.0)",[1.0166666666666666],[0.478],1,6272.092
6,False,351,0.832,49,[],[],"[(1072, 846)]",[],[1],[21],[0.35],"[640.0, 512.0]",horizontal,"(390.0, 762.0)",[1.1],[0.312],1,6276.561
6,False,352,0.714,42,[],[],"[(1081, 857)]",[],[1],[29],[0.48333333333333334],"[640.0, 512.0]",horizontal,"(390.0, 262.0)",[1.15],[0.443],1,6280.919
6,False,353,0.518,31,[],[],"[(1081, 862)]",[],[1],[34],[0.5666666666666667],"[640.0, 512.0]",horizontal,"(390.0, 762.0)",[0.75],[0.531],1,6285.473
6,False,354,0.504,30,[],[],"[(1052, 867)]",[],[1],[32],[0.5333333333333333],"[640.0, 512.0]",vertical,"(390.0, 262.0)",[0.7],[0.489],1,6289.394
6,False,355,0.993,59,[],[],"[(1064, 848)]",[],[1],[35],[0.5833333333333334],"[640.0, 512.0]",vertical,"(390.0, 262.0)",[0.5166666666666666],[0.534],1,6293.161
6,False,356,1.074,64,[],[],"[(1072, 852)]",[],[1],[49],[0.8166666666666667],"[640.0, 512.0]",horizontal,"(390.0, 262.0)",[1.2833333333333332],[0.764],1,6297.405
6,False,357,0.755,45,[],[],"[(1076, 843)]",[],[1],[37],[0.6166666666666667],"[640.0, 512.0]",vertical,"(890.0, 762.0)",[1.55],[0.57],1,6302.825
6,False,358,0.991,59,[],[],"[(1081, 863)]",[],[1],[33],[0.55],"[640.0, 512.0]",vertical,"(390.0, 762.0)",[1.0333333333333332],[0.504],1,6307.874
6,False,359,0.95,57,[],[],"[(1081, 852)]",[],[1],[33],[0.55],"[640.0, 512.0]",horizontal,"(890.0, 762.0)",[0.6166666666666667],[0.509],1,6312.791
6,False,360,0.596,35,[],[],"[(1081, 857)]",[],[1],[43],[0.7166666666666667],"[640.0, 512.0]",horizontal,"(390.0, 762.0)",[1.5166666666666666],[0.67],1,6316.876
7,False,361,0.541,32,[],[],"[(1047, 854)]",[],[1],[32],[0.5333333333333333],"[640.0, 512.0]",horizontal,"(390.0, 262.0)",[1.45],[0.495],1,6321.709
7,False,362,0.868,52,[],[],"[(1082, 842)]",[],[1],[34],[0.5666666666666667],"[640.0, 512.0]",vertical,"(390.0, 262.0)",[0.8],[0.528],1,6326.406
7,False,363,1.054,63,[],[],"[(1081, 860)]",[],[1],[37],[0.6166666666666667],"[640.0, 512.0]",vertical,"(390.0, 762.0)",[1.0666666666666667],[0.57],1,6330.659
7,False,364,0.808,48,[],[],"[(1065, 849)]",[],[1],[16],[0.26666666666666666],"[640.0, 512.0]",vertical,"(390.0, 762.0)",[1.4166666666666667],[0.234],1,6335.43
7,False,365,1.035,62,[],[],"[(1074, 867)]",[],[1],[27],[0.45],"[640.0, 512.0]",vertical,"(890.0, 262.0)",[1.5],[0.408],1,6340.154
7,False,366,0.704,42,[],[],"[(1081, 857)]",[],[1],[35],[0.5833333333333334],"[640.0, 512.0]",horizontal,"(890.0, 262.0)",[0.9],[0.538],1,6345.059
7,False,367,0.674,40,[],[],"[(1076, 854)]",[],[1],[39],[0.65],"[640.0, 512.0]",horizontal,"(890.0, 262.0)",[1.4833333333333334],[0.608],1,6349.182
7,False,368,1.177,70,[],[],"[(1076, 856)]",[],[1],[38],[0.6333333333333333],"[640.0, 512.0]",horizontal,"(890.0, 762.0)",[0.5333333333333333],[0.588],1,6353.951
7,False,369,0.602,36,[],[],"[(1073, 846)]",[],[1],[36],[0.6],"[640.0, 512.0]",vertical,"(390.0, 262.0)",[1.1833333333333333],[0.555],1,6358.208
7,False,370,1.064,63,[],[],"[(1064, 846)]",[],[1],[33],[0.55],"[640.0, 512.0]",vertical,"(390.0, 262.0)",[1.1166666666666667],[0.509],1,6362.56
7,False,371,0.804,48,[],[],"[(1069, 852)]",[],[1],[35],[0.5833333333333334],"[640.0, 512.0]",horizontal,"(890.0, 762.0)",[0.5333333333333333],[0.545],1,6367.338
7,False,372,1.194,71,[],[],"[(1038, 864)]",[],[1],[34],[0.5666666666666667],"[640.0, 512.0]",vertical,"(390.0, 762.0)",[0.95],[0.522],1,6371.554
7,False,373,1.177,70,[],[],"[(1072, 852)]",[],[1],[32],[0.5333333333333333],"[640.0, 512.0]",horizontal,"(390.0, 262.0)",[1.4166666666666667],[0.488],1,6376.288
7,False,374,0.992,59,[],[],"[(1067, 860)]",[],[1],[31],[0.5166666666666666],"[640.0, 512.0]",vertical,"(390.0, 262.0)",[1.3666666666666667],[0.478],1,6381.411
7,False,375,0.905,54,[],[],"[(1067, 858)]",[],[1],[33],[0.55],"[640.0, 512.0]",horizontal,"(890.0, 262.0)",[0.5666666666666667],[0.507],1,6386.264
7,False,376,0.521,31,[],[],"[(1072, 849)]",[],[1],[33],[0.55],"[640.0, 512.0]",horizontal,"(390.0, 262.0)",[1.0166666666666666],[0.508],1,6390.076
7,False,377,1.057,63,[],[],"[(1042, 847)]",[],[1],[51],[0.85],"[640.0, 512.0]",horizontal,"(390.0, 762.0)",[0.8833333333333333],[0.8],0,6394.15
7,False,378,0.5,30,[],[],"[(1055, 846)]",[],[1],[31],[0.5166666666666666],"[640.0, 512.0]",horizontal,"(390.0, 262.0)",[0.8166666666666667],[0.478],1,6399.009
7,False,379,0.714,42,[],[],"[(1075, 837)]",[],[1],[33],[0.55],"[640.0, 512.0]",vertical,"(390.0, 762.0)",[1.65],[0.509],1,6403.104
7,False,380,0.542,32,[],[],"[(1047, 851)]",[],[1],[32],[0.5333333333333333],"[640.0, 512.0]",vertical,"(390.0, 262.0)",[1.3],[0.489],1,6407.996
7,False,381,0.534,32,[],[],"[(1081, 864)]",[],[1],[34],[0.5666666666666667],"[640.0, 512.0]",vertical,"(890.0, 262.0)",[1.1833333333333333],[0.526],1,6412.36
7,False,382,0.573,34,[],[],"[(1041, 857)]",[],[1],[36],[0.6],"[640.0, 512.0]",horizontal,"(890.0, 262.0)",[1.3666666666666667],[0.556],1,6416.796
7,False,383,0.97,58,[],[],"[(1054, 881)]",[],[1],[40],[0.6666666666666666],"[640.0, 512.0]",horizontal,"(390.0, 762.0)",[1.3166666666666667],[0.616],1,6421.457
7,False,384,1.009,60,[],[],"[(1071, 875)]",[],[1],[39],[0.65],"[640.0, 512.0]",vertical,"(390.0, 262.0)",[1.25],[0.608],1,6426.5
7,False,385,0.906,54,[],[],"[(1088, 857)]",[],[1],[40],[0.6666666666666666],"[640.0, 512.0]",vertical,"(390.0, 262.0)",[1.2833333333333332],[0.618],1,6431.407
7,False,386,1.174,70,[],[],"[(1072, 866)]",[],[1],[30],[0.5],"[640.0, 512.0]",vertical,"(390.0, 262.0)",[1.65],[0.461],1,6436.58
7,False,387,0.656,39,[],[],"[(1072, 844)]",[],[1],[33],[0.55],"[640.0, 512.0]",vertical,"(390.0, 762.0)",[1.2],[0.507],1,6441.869
7,False,388,0.767,46,[],[],"[(1066, 846)]",[],[1],[33],[0.55],"[640.0, 512.0]",vertical,"(390.0, 762.0)",[0.9333333333333333],[0.509],1,6446.198
7,False,389,1.011,60,[],[],"[(1038, 861)]",[],[1],[32],[0.5333333333333333],"[640.0, 512.0]",vertical,"(890.0, 262.0)",[1.35],[0.491],1,6450.605
7,False,390,0.576,34,[],[],"[(1073, 882)]",[],[1],[32],[0.5333333333333333],"[640.0, 512.0]",horizontal,"(390.0, 762.0)",[1.6666666666666667],[0.491],1,6455.479
7,False,391,0.79,47,[],[],"[(1076, 857)]",[],[1],[33],[0.55],"[640.0, 512.0]",vertical,"(390.0, 762.0)",[1.4],[0.509],1,6460.46
7,False,392,0.504,30,[],[],"[(1072, 861)]",[],[1],[32],[0.5333333333333333],"[640.0, 512.0]",vertical,"(890.0, 262.0)",[1.0333333333333332],[0.492],1,6465.268
7,False,393,1.109,66,[],[],"[(1088, 838)]",[],[1],[38],[0.6333333333333333],"[640.0, 512.0]",horizontal,"(390.0, 262.0)",[0.65],[0.588],1,6469.166
7,False,394,0.871,52,[],[],"[(1047, 867)]",[],[1],[42],[0.7],"[640.0, 512.0]",vertical,"(890.0, 262.0)",[0.5166666666666666],[0.65],1,6473.537
7,False,395,1.001,60,[],[],"[(1046, 854)]",[],[1],[33],[0.55],"[640.0, 512.0]",vertical,"(390.0, 762.0)",[1.6666666666666667],[0.514],1,6477.562
7,False,396,1.144,68,[],[],"[(1058, 848)]",[],[1],[24],[0.4],"[640.0, 512.0]",vertical,"(390.0, 262.0)",[1.1666666666666667],[0.36],1,6482.749
7,False,397,0.789,47,[],[],"[(1076, 842)]",[],[1],[32],[0.5333333333333333],"[640.0, 512.0]",vertical,"(890.0, 262.0)",[1.5666666666666667],[0.487],1,6487.615
7,False,398,1.013,60,[],[],"[(1076, 852)]",[],[1],[39],[0.65],"[640.0, 512.0]",vertical,"(390.0, 762.0)",[0.7333333333333333],[0.612],1,6492.694
7,False,399,0.508,30,[],[],"[(1047, 843)]",[],[1],[34],[0.5666666666666667],"[640.0, 512.0]",horizontal,"(890.0, 262.0)",[0.8833333333333333],[0.526],1,6497.018
7,False,400,0.887,53,[],[],"[(1067, 863)]",[],[1],[34],[0.5666666666666667],"[640.0, 512.0]",vertical,"(390.0, 762.0)",[1.1333333333333333],[0.521],1,6501.026
7,False,401,0.537,32,[],[],"[(1072, 844)]",[],[1],[38],[0.6333333333333333],"[640.0, 512.0]",vertical,"(390.0, 762.0)",[0.5833333333333334],[0.586],1,6505.746
7,False,402,1.094,65,[],[],"[(1067, 857)]",[],[1],[38],[0.6333333333333333],"[640.0, 512.0]",horizontal,"(390.0, 762.0)",[0.65],[0.587],1,6509.675
7,False,403,0.747,44,[],[],"[(1067, 875)]",[],[1],[36],[0.6],"[640.0, 512.0]",horizontal,"(890.0, 762.0)",[1.45],[0.56],1,6514.377
7,False,404,1.073,64,[],[],"[(1040, 871)]",[],[1],[34],[0.5666666666666667],"[640.0, 512.0]",horizontal,"(890.0, 262.0)",[1.5833333333333333],[0.527],1,6519.311
7,False,405,0.569,34,[],[],"[(1034, 866)]",[],[1],[51],[0.85],"[640.0, 512.0]",horizontal,"(390.0, 262.0)",[0.5166666666666666],[0.804],0,6524.532
7,False,406,0.645,38,[],[6642965],"[(1247, 32), (1218, 74), (678, 323), (616, 537), (604, 578), (1211, 75), (1201, 454), (1183, 460), (1155, 76), (1234, 118), (1245, 95), (1192, 176), (1056, 871)]","[(1010, 879)]","[0, 0, 0, 0, 0, 0, 0, 0, 0, 0, 0, 0, 1]",[9],[0.15],"[640.0, 512.0]",vertical,"(890.0, 262.0)",[],[0],0,6528.626
7,False,407,0.54,32,[],[],"[(1170, 163), (1070, 871)]",[],"[0, 1]",[51],[0.85],"[640.0, 512.0]",vertical,"(390.0, 262.0)",[0.5833333333333334],[0.798],0,6633.456
7,False,408,0.909,54,[],[],"[(1076, 857)]",[],[1],[],[],"[640.0, 512.0]",vertical,"(390.0, 762.0)",[],[0],0,6638.84
7,False,409,0.818,49,[],[],"[(1008, 898), (1052, 856)]",[],"[0, 1]",[34],[0.5666666666666667],"[640.0, 512.0]",vertical,"(890.0, 762.0)",[1.5666666666666667],[0.525],1,6642.326
7,False,410,0.694,41,[],[],"[(1081, 856)]",[],[1],[51],[0.85],"[640.0, 512.0]",vertical,"(890.0, 262.0)",[1.35],[0.803],0,6648.847
7,False,411,0.899,53,[],[],"[(1269, 255), (1106, 851)]",[],"[0, 1]",[],[],"[640.0, 512.0]",horizontal,"(390.0, 762.0)",[],[0],0,6653.743
7,False,412,1.042,62,[],[],"[(1091, 856)]",[],[1],[51],[0.85],"[640.0, 512.0]",vertical,"(890.0, 262.0)",[1.45],[0.796],0,6655.79
7,False,413,0.595,35,[],[6672930],"[(1080, 848)]","[(1053, 858)]",[1],[8],[0.13333333333333333],"[640.0, 512.0]",vertical,"(890.0, 762.0)",[],[0],0,6661.177
7,False,414,0.775,46,[],[],"[(1129, 855)]",[],[1],[51],[0.85],"[640.0, 512.0]",horizontal,"(390.0, 262.0)",[0.8166666666666667],[0.792],0,6663.426
7,False,415,0.757,45,[],[],"[(1076, 265), (1050, 864)]",[],"[0, 1]",[35],[0.5833333333333334],"[640.0, 512.0]",horizontal,"(890.0, 762.0)",[1.1],[0.541],1,6667.693
7,False,416,0.711,42,[],[6684947],"[(1078, 873)]","[(1062, 877)]",[1],[3],[0.05],"[640.0, 512.0]",horizontal,"(890.0, 762.0)",[],[0],0,6673.143
7,False,417,0.775,46,[],[],"[(1042, 868)]",[],[1],[38],[0.6333333333333333],"[640.0, 512.0]",horizontal,"(390.0, 262.0)",[1.2166666666666666],[0.589],1,6675.434
7,False,418,0.528,31,[],[6696232],"[(1100, 832)]","[(1033, 843)]",[1],[3],[0.05],"[640.0, 512.0]",vertical,"(390.0, 262.0)",[],[0],0,6684.128
7,False,419,0.84,50,[],[],"[(1067, 859)]",[],[1],[51],[0.85],"[640.0, 512.0]",horizontal,"(890.0, 262.0)",[0.8833333333333333],[0.802],0,6686.723
7,False,420,0.825,49,[],[],"[(1067, 863)]",[],[1],[51],[0.85],"[640.0, 512.0]",vertical,"(890.0, 762.0)",[1.55],[0.799],0,6691.322
8,False,421,0.744,44,[],[],"[(1070, 857)]",[],[1],[51],[0.85],"[640.0, 512.0]",horizontal,"(390.0, 762.0)",[0.75],[0.801],0,6698.061
8,False,422,0.768,46,[],[],"[(1067, 852)]",[],[1],[51],[0.85],"[640.0, 512.0]",vertical,"(890.0, 762.0)",[0.6833333333333333],[0.802],0,6702.439
8,False,423,0.845,50,[],[],"[(1077, 854)]",[],[1],[51],[0.85],"[640.0, 512.0]",horizontal,"(890.0, 262.0)",[0.8333333333333334],[0.805],0,6706.827
8,False,424,1.109,66,[],[],"[(1067, 870)]",[],[1],[41],[0.6833333333333333],"[640.0, 512.0]",vertical,"(390.0, 762.0)",[1.65],[0.636],1,6711.62
8,False,425,0.811,48,[],[],"[(1067, 870)]",[],[1],[35],[0.5833333333333334],"[640.0, 512.0]",vertical,"(890.0, 762.0)",[0.65],[0.539],1,6721.237
8,False,426,0.54,32,[],[],"[(1063, 860)]",[],[1],[34],[0.5666666666666667],"[640.0, 512.0]",vertical,"(890.0, 762.0)",[0.55],[0.52],1,6725.409
8,False,427,0.839,50,[],[],"[(1083, 882)]",[],[1],[32],[0.5333333333333333],"[640.0, 512.0]",horizontal,"(890.0, 262.0)",[1.1666666666666667],[0.495],1,6729.268
8,False,428,1.192,71,[],[],"[(1084, 857)]",[],[1],[],[],"[640.0, 512.0]",vertical,"(390.0, 762.0)",[],[0],0,6733.846
8,False,429,0.732,43,[],[],"[(1089, 842)]",[],[1],[35],[0.5833333333333334],"[640.0, 512.0]",horizontal,"(890.0, 762.0)",[1.1333333333333333],[0.538],1,6738.088
8,False,430,1.022,61,[],[],"[(1072, 862)]",[],[1],[37],[0.6166666666666667],"[640.0, 512.0]",horizontal,"(390.0, 762.0)",[0.6],[0.574],1,6742.502
8,False,431,1.123,67,[],[],"[(1072, 863)]",[],[1],[19],[0.31666666666666665],"[640.0, 512.0]",vertical,"(390.0, 262.0)",[1.0166666666666666],[0.277],1,6746.744
8,False,432,0.73,43,[],[],"[(1073, 862)]",[],[1],[33],[0.55],"[640.0, 512.0]",horizontal,"(390.0, 762.0)",[0.6666666666666666],[0.508],1,6751.263
8,False,433,1.148,68,[],[],"[(1081, 867)]",[],[1],[],[],"[640.0, 512.0]",horizontal,"(890.0, 762.0)",[],[0],0,6755.407
8,False,434,0.86,51,[],[],"[(1075, 843)]",[],[1],[32],[0.5333333333333333],"[640.0, 512.0]",vertical,"(390.0, 762.0)",[0.85],[0.491],1,6759.385
8,False,435,1.098,65,[],[],"[(1082, 857)]",[],[1],[],[],"[640.0, 512.0]",horizontal,"(390.0, 262.0)",[],[0],0,6763.612
8,False,436,0.651,39,[],[],"[(1072, 845)]",[],[1],[37],[0.6166666666666667],"[640.0, 512.0]",vertical,"(390.0, 762.0)",[1.2666666666666666],[0.575],1,6767.886
8,False,437,0.508,30,[],[],"[(1105, 864)]",[],[1],[3],[0.05],"[640.0, 512.0]",horizontal,"(390.0, 762.0)",[0.5166666666666666],[0.019],1,6774.146
8,False,438,0.821,49,[],[],"[(1077, 893)]",[],[1],[33],[0.55],"[640.0, 512.0]",horizontal,"(890.0, 262.0)",[0.7833333333333333],[0.504],1,6777.352
8,False,439,0.75,45,[],[],"[(1072, 863)]",[],[1],[],[],"[640.0, 512.0]",vertical,"(890.0, 762.0)",[],[0],0,6795.652
8,False,440,1.007,60,[],[],"[(1072, 843)]",[],[1],[5],[0.08333333333333333],"[640.0, 512.0]",horizontal,"(890.0, 762.0)",[0.7833333333333333],[0.054],1,6799.15
8,False,441,0.685,41,[],[6817714],"[(420, 560), (1084, 841)]","[(1063, 870)]","[0, 1]",[40],[0.6666666666666666],"[640.0, 512.0]",vertical,"(390.0, 762.0)",[],[0],0,6803.397
8,False,442,0.892,53,[],[],"[(850, 977), (480, 623), (604, 430), (517, 579), (367, 570), (494, 650), (589, 639), (397, 774), (729, 795), (528, 535), (459, 818), (434, 703), (517, 842), (714, 718), (1100, 905)]",[],"[0, 0, 0, 0, 0, 0, 0, 0, 0, 0, 0, 0, 0, 0, 1]",[],[],"[640.0, 512.0]",vertical,"(890.0, 262.0)",[],[0],0,6808.204
8,False,443,0.684,41,[],[],"[(657, 908), (267, 905), (1139, 641), (1163, 487), (1149, 651), (697, 708), (474, 660), (1062, 742), (1047, 742), (458, 655), (527, 655), (1052, 993), (485, 642), (503, 636), (494, 601), (459, 784), (789, 670), (723, 627), (806, 617), (295, 852), (72, 569), (737, 573), (1128, 910)]",[],"[0, 0, 0, 0, 0, 0, 0, 0, 0, 0, 0, 0, 0, 0, 0, 0, 0, 0, 0, 0, 0, 0, 1]",[32],[0.5333333333333333],"[640.0, 512.0]",horizontal,"(890.0, 762.0)",[0.6833333333333333],[0.486],1,6825.22
8,False,444,0.891,53,[],[6865630],"[(1056, 877)]","[(1000, 893)]",[1],[46],[0.7666666666666666],"[640.0, 512.0]",horizontal,"(890.0, 762.0)",[],[0],0,6853.262
8,False,445,1.124,67,[],[],"[(609, 483), (722, 502), (1080, 874)]",[],"[0, 0, 1]",[32],[0.5333333333333333],"[640.0, 512.0]",vertical,"(390.0, 762.0)",[0.8333333333333334],[0.501],1,6856.123
8,False,446,1.07,64,[],[],"[(1056, 852)]",[],[1],[18],[0.3],"[640.0, 512.0]",horizontal,"(390.0, 762.0)",[0.7166666666666667],[0.27],1,6861.812
8,False,447,1.124,67,[],[],"[(1081, 852)]",[],[1],[],[],"[640.0, 512.0]",vertical,"(390.0, 762.0)",[],[0],0,6865.965
8,False,448,0.559,33,[],[],"[(923, 862), (1091, 842)]",[],"[0, 1]",[41],[0.6833333333333333],"[640.0, 512.0]",vertical,"(390.0, 762.0)",[1.4833333333333334],[0.635],1,6869.874
8,False,449,1.073,64,[],[],"[(1068, 886)]",[],[1],[35],[0.5833333333333334],"[640.0, 512.0]",horizontal,"(390.0, 262.0)",[0.7666666666666666],[0.543],1,6875.944
8,False,450,0.552,33,[],[],"[(1082, 862)]",[],[1],[35],[0.5833333333333334],"[640.0, 512.0]",horizontal,"(390.0, 762.0)",[0.5666666666666667],[0.54],1,6880.434
8,False,451,0.813,48,[],[],"[(1065, 874)]",[],[1],[51],[0.85],"[640.0, 512.0]",vertical,"(890.0, 762.0)",[1.3],[0.794],0,6884.328
8,False,452,0.575,34,[],[6970170],"[(821, 747), (657, 885), (1057, 770), (676, 632), (935, 468), (787, 780), (459, 895), (657, 535), (474, 828), (589, 540), (792, 838), (652, 588), (661, 588), (546, 735), (874, 905), (790, 919), (1058, 813)]","[(1058, 813)]","[0, 0, 0, 0, 0, 0, 0, 0, 0, 0, 0, 0, 0, 0, 0, 0, 1]",[9],[0.15],"[640.0, 512.0]",vertical,"(890.0, 262.0)",[],[0],0,6889.509
8,False,453,1.131,67,[],[],"[(816, 799), (1072, 868)]",[],"[0, 1]",[41],[0.6833333333333333],"[640.0, 512.0]",vertical,"(890.0, 262.0)",[1.0],[0.642],1,6960.677
8,False,454,0.846,50,[],[],"[(1076, 857)]",[],[1],[33],[0.55],"[640.0, 512.0]",vertical,"(390.0, 762.0)",[1.0833333333333333],[0.509],1,6971.12
8,False,455,0.795,47,[],[],"[(1042, 858)]",[],[1],[33],[0.55],"[640.0, 512.0]",vertical,"(390.0, 262.0)",[0.8333333333333334],[0.51],1,6975.623
8,False,456,1.102,66,[],[],"[(1026, 868), (1091, 852)]",[],"[0, 1]",[51],[0.85],"[640.0, 512.0]",vertical,"(390.0, 762.0)",[1.3666666666666667],[0.801],0,6980.182
8,False,457,0.742,44,[],[],"[(1052, 829)]",[],[1],[33],[0.55],"[640.0, 512.0]",horizontal,"(890.0, 762.0)",[0.75],[0.501],1,6987.183
8,False,458,0.871,52,[],[],"[(1079, 838)]",[],[1],[33],[0.55],"[640.0, 512.0]",horizontal,"(890.0, 762.0)",[0.5],[0.508],1,6991.499
8,False,459,0.612,36,[],[],"[(868, 865), (893, 679), (556, 713), (794, 699), (1078, 874)]",[],"[0, 0, 0, 0, 1]",[51],[0.85],"[640.0, 512.0]",horizontal,"(390.0, 262.0)",[1.5833333333333333],[0.805],0,6995.59
8,False,460,0.562,33,[],[],"[(1047, 862)]",[],[1],[32],[0.5333333333333333],"[640.0, 512.0]",horizontal,"(890.0, 262.0)",[1.5333333333333332],[0.492],1,7018.04
8,False,461,0.719,43,[],[],"[(901, 858), (1115, 857)]",[],"[0, 1]",[32],[0.5333333333333333],"[640.0, 512.0]",horizontal,"(890.0, 262.0)",[1.3333333333333333],[0.49],1,7024.258
8,False,462,0.808,48,[],[],"[(1071, 866)]",[],[1],[31],[0.5166666666666666],"[640.0, 512.0]",horizontal,"(890.0, 262.0)",[0.9166666666666666],[0.474],1,7031.578
8,False,463,0.761,45,[],[],"[(1100, 865)]",[],[1],[32],[0.5333333333333333],"[640.0, 512.0]",horizontal,"(890.0, 762.0)",[1.5666666666666667],[0.488],1,7035.917
8,False,464,0.545,32,[],[],"[(1067, 876)]",[],[1],[34],[0.5666666666666667],"[640.0, 512.0]",vertical,"(390.0, 762.0)",[1.1833333333333333],[0.521],1,7040.662
8,False,465,1.077,64,[],[],"[(1072, 868)]",[],[1],[],[],"[640.0, 512.0]",horizontal,"(890.0, 262.0)",[],[0],0,7044.989
8,False,466,1.002,60,[],[],"[(1081, 866)]",[],[1],[34],[0.5666666666666667],"[640.0, 512.0]",vertical,"(390.0, 262.0)",[1.5],[0.522],1,7049.245
8,False,467,0.66,39,[],[],"[(1075, 855)]",[],[1],[51],[0.85],"[640.0, 512.0]",horizontal,"(390.0, 262.0)",[0.7333333333333333],[0.802],0,7054.284
8,False,468,1.109,66,[],[],"[(1067, 871)]",[],[1],[],[],"[640.0, 512.0]",horizontal,"(890.0, 262.0)",[],[0],0,7058.629
8,False,469,1.133,67,[],[],"[(1113, 847)]",[],[1],[32],[0.5333333333333333],"[640.0, 512.0]",horizontal,"(890.0, 762.0)",[1.1666666666666667],[0.493],1,7062.195
8,False,470,0.539,32,[],[],"[(1112, 867)]",[],[1],[51],[0.85],"[640.0, 512.0]",horizontal,"(890.0, 262.0)",[0.5166666666666666],[0.799],0,7068.225
8,False,471,0.549,32,[],[],"[(1081, 846)]",[],[1],[28],[0.4666666666666667],"[640.0, 512.0]",vertical,"(890.0, 262.0)",[1.4666666666666666],[0.426],1,7072.153
8,False,472,0.883,52,[],[],"[(1038, 871)]",[],[1],[32],[0.5333333333333333],"[640.0, 512.0]",vertical,"(390.0, 762.0)",[1.5],[0.493],1,7076.735
8,False,473,0.626,37,[],[],"[(1072, 867)]",[],[1],[51],[0.85],"[640.0, 512.0]",horizontal,"(390.0, 762.0)",[0.9666666666666667],[0.804],0,7081.933
8,False,474,0.636,38,[],[],"[(1081, 862)]",[],[1],[],[],"[640.0, 512.0]",vertical,"(390.0, 762.0)",[],[0],0,7086.308
8,False,475,0.77,46,[],[],"[(1050, 856)]",[],[1],[51],[0.85],"[640.0, 512.0]",horizontal,"(390.0, 762.0)",[1.6333333333333333],[0.803],0,7090.737
8,False,476,0.611,36,[],[],"[(1071, 867)]",[],[1],[31],[0.5166666666666666],"[640.0, 512.0]",horizontal,"(890.0, 762.0)",[0.9],[0.481],1,7096.167
8,False,477,1.058,63,[],[],"[(1084, 849)]",[],[1],[51],[0.85],"[640.0, 512.0]",vertical,"(390.0, 262.0)",[1.4666666666666666],[0.804],0,7104.01
8,False,478,1.136,68,[],[],"[(1024, 902), (1128, 846)]",[],"[0, 1]",[34],[0.5666666666666667],"[640.0, 512.0]",horizontal,"(390.0, 762.0)",[0.8333333333333334],[0.523],1,7109.904
8,False,479,1.091,65,[],[],"[(1066, 876)]",[],[1],[34],[0.5666666666666667],"[640.0, 512.0]",horizontal,"(890.0, 262.0)",[1.45],[0.521],1,7130.798
8,False,480,1.032,61,[],[],"[(1081, 870)]",[],[1],[31],[0.5166666666666666],"[640.0, 512.0]",vertical,"(390.0, 762.0)",[1.55],[0.476],1,7135.811
9,False,481,0.833,49,[],[],"[(1081, 856)]",[],[1],[50],[0.8333333333333334],"[640.0, 512.0]",vertical,"(890.0, 762.0)",[1.5833333333333333],[0.787],1,7140.908
9,False,482,0.791,47,[],[],"[(1076, 863)]",[],[1],[34],[0.5666666666666667],"[640.0, 512.0]",vertical,"(390.0, 762.0)",[0.7],[0.525],1,7146.296
9,False,483,0.955,57,[],[],"[(1081, 860)]",[],[1],[32],[0.5333333333333333],"[640.0, 512.0]",vertical,"(890.0, 762.0)",[1.6166666666666667],[0.493],1,7150.609
9,False,484,0.887,53,[],[],"[(1050, 868)]",[],[1],[34],[0.5666666666666667],"[640.0, 512.0]",horizontal,"(390.0, 762.0)",[1.6333333333333333],[0.526],1,7155.874
9,False,485,0.807,48,[],[],"[(1067, 867)]",[],[1],[23],[0.3833333333333333],"[640.0, 512.0]",horizontal,"(890.0, 762.0)",[1.4666666666666666],[0.344],1,7161.024
9,False,486,0.923,55,[],[],"[(1081, 871)]",[],[1],[32],[0.5333333333333333],"[640.0, 512.0]",vertical,"(890.0, 762.0)",[1.2666666666666666],[0.492],1,7165.797
9,False,487,0.656,39,[],[],"[(1072, 866)]",[],[1],[36],[0.6],"[640.0, 512.0]",vertical,"(890.0, 262.0)",[1.0333333333333332],[0.56],1,7170.513
9,False,488,0.779,46,[],[],"[(1074, 875)]",[],[1],[33],[0.55],"[640.0, 512.0]",horizontal,"(390.0, 762.0)",[0.85],[0.515],1,7174.859
9,False,489,1.126,67,[],[],"[(1073, 867)]",[],[1],[34],[0.5666666666666667],"[640.0, 512.0]",horizontal,"(890.0, 762.0)",[1.4],[0.525],1,7179.042
9,False,490,1.175,70,[],[],"[(1078, 866)]",[],[1],[33],[0.55],"[640.0, 512.0]",horizontal,"(890.0, 762.0)",[1.1833333333333333],[0.505],1,7184.059
9,False,491,0.923,55,[],[],"[(1081, 868)]",[],[1],[6],[0.1],"[640.0, 512.0]",horizontal,"(390.0, 262.0)",[1.55],[0.068],1,7189.044
9,False,492,0.538,32,[],[],"[(1047, 862)]",[],[1],[29],[0.48333333333333334],"[640.0, 512.0]",horizontal,"(890.0, 262.0)",[1.4833333333333334],[0.441],1,7193.679
9,False,493,0.568,34,[],[],"[(1077, 871)]",[],[1],[27],[0.45],"[640.0, 512.0]",vertical,"(390.0, 262.0)",[1.6],[0.41],1,7198.311
9,False,494,0.624,37,[],[],"[(1078, 869)]",[],[1],[39],[0.65],"[640.0, 512.0]",horizontal,"(390.0, 762.0)",[0.5],[0.611],1,7202.977
9,False,495,1.142,68,[],[],"[(1052, 864)]",[],[1],[33],[0.55],"[640.0, 512.0]",vertical,"(390.0, 262.0)",[0.6166666666666667],[0.51],1,7206.969
9,False,496,0.882,52,[],[],"[(1078, 863)]",[],[1],[35],[0.5833333333333334],"[640.0, 512.0]",horizontal,"(890.0, 762.0)",[1.3833333333333333],[0.546],1,7211.324
9,False,497,0.679,40,[],[],"[(1033, 871)]",[],[1],[42],[0.7],"[640.0, 512.0]",vertical,"(890.0, 762.0)",[0.7],[0.657],1,7216.245
9,False,498,1.191,71,[],[],"[(1028, 876), (1074, 853)]",[],"[0, 1]",[34],[0.5666666666666667],"[640.0, 512.0]",horizontal,"(390.0, 762.0)",[0.5666666666666667],[0.522],1,7220.488
9,False,499,0.562,33,[],[],"[(1029, 871), (1081, 835)]",[],"[0, 1]",[35],[0.5833333333333334],"[640.0, 512.0]",horizontal,"(390.0, 762.0)",[0.5833333333333334],[0.541],1,7226.98
9,False,500,1.101,66,[],[],"[(1028, 865), (1086, 855)]",[],"[0, 1]",[32],[0.5333333333333333],"[640.0, 512.0]",vertical,"(890.0, 262.0)",[1.3666666666666667],[0.491],1,7232.936
9,False,501,0.625,37,[],[],"[(1081, 862)]",[],[1],[16],[0.26666666666666666],"[640.0, 512.0]",horizontal,"(390.0, 262.0)",[1.65],[0.231],1,7239.317
9,False,502,0.675,40,[],[],"[(1081, 861)]",[],[1],[32],[0.5333333333333333],"[640.0, 512.0]",horizontal,"(390.0, 262.0)",[0.55],[0.49],1,7243.997
9,False,503,0.848,50,[],[],"[(1076, 870)]",[],[1],[32],[0.5333333333333333],"[640.0, 512.0]",horizontal,"(390.0, 262.0)",[1.05],[0.488],1,7247.912
9,False,504,0.562,33,[],[],"[(1053, 865)]",[],[1],[32],[0.5333333333333333],"[640.0, 512.0]",vertical,"(890.0, 262.0)",[1.6166666666666667],[0.492],1,7252.364
9,False,505,1.184,71,[],[],"[(1058, 835)]",[],[1],[35],[0.5833333333333334],"[640.0, 512.0]",vertical,"(890.0, 262.0)",[1.0166666666666666],[0.538],1,7257.027
9,False,506,0.769,46,[],[],"[(1081, 881)]",[],[1],[31],[0.5166666666666666],"[640.0, 512.0]",horizontal,"(890.0, 262.0)",[1.1166666666666667],[0.479],1,7261.91
9,False,507,0.583,34,[],[],"[(1079, 860)]",[],[1],[36],[0.6],"[640.0, 512.0]",horizontal,"(890.0, 262.0)",[1.15],[0.564],1,7266.358
9,False,508,0.836,50,[],[],"[(1081, 858)]",[],[1],[40],[0.6666666666666666],"[640.0, 512.0]",horizontal,"(890.0, 762.0)",[1.0166666666666666],[0.628],1,7270.725
9,False,509,0.842,50,[],[],"[(1072, 862)]",[],[1],[33],[0.55],"[640.0, 512.0]",horizontal,"(890.0, 262.0)",[1.3333333333333333],[0.518],1,7275.521
9,False,510,0.535,32,[],[],"[(1079, 855)]",[],[1],[40],[0.6666666666666666],"[640.0, 512.0]",vertical,"(390.0, 762.0)",[0.9666666666666667],[0.627],1,7280.386
9,False,511,0.93,55,[],[],"[(1076, 857)]",[],[1],[41],[0.6833333333333333],"[640.0, 512.0]",horizontal,"(890.0, 762.0)",[1.5166666666666666],[0.635],1,7284.688
9,False,512,1.2,72,[],[],"[(1080, 860)]",[],[1],[31],[0.5166666666666666],"[640.0, 512.0]",horizontal,"(890.0, 262.0)",[1.4666666666666666],[0.476],1,7289.981
9,False,513,1.174,70,[],[],"[(1053, 854)]",[],[1],[31],[0.5166666666666666],"[640.0, 512.0]",vertical,"(390.0, 262.0)",[1.0],[0.479],1,7295.128
9,False,514,0.924,55,[],[],"[(1081, 860)]",[],[1],[32],[0.5333333333333333],"[640.0, 512.0]",horizontal,"(390.0, 262.0)",[1.5],[0.489],1,7299.88
9,False,515,0.969,58,[],[],"[(1081, 858)]",[],[1],[34],[0.5666666666666667],"[640.0, 512.0]",horizontal,"(890.0, 762.0)",[1.35],[0.529],1,7304.865
9,False,516,0.517,31,[],[],"[(1052, 860)]",[],[1],[22],[0.36666666666666664],"[640.0, 512.0]",horizontal,"(890.0, 262.0)",[1.4333333333333333],[0.331],1,7309.768
9,False,517,1.141,68,[],[],"[(1058, 861)]",[],[1],[34],[0.5666666666666667],"[640.0, 512.0]",horizontal,"(890.0, 262.0)",[1.0],[0.533],1,7314.197
9,False,518,0.555,33,[],[],"[(1037, 873)]",[],[1],[33],[0.55],"[640.0, 512.0]",horizontal,"(890.0, 262.0)",[1.65],[0.509],1,7319.024
9,False,519,1.082,64,[],[],"[(1077, 850)]",[],[1],[34],[0.5666666666666667],"[640.0, 512.0]",horizontal,"(390.0, 762.0)",[1.5333333333333332],[0.535],1,7323.696
9,False,520,0.662,39,[],[],"[(1047, 869)]",[],[1],[34],[0.5666666666666667],"[640.0, 512.0]",vertical,"(890.0, 762.0)",[0.6],[0.528],1,7328.85
9,False,521,0.593,35,[],[],"[(1050, 876)]",[],[1],[32],[0.5333333333333333],"[640.0, 512.0]",horizontal,"(390.0, 262.0)",[0.5333333333333333],[0.499],1,7332.707
9,False,522,0.756,45,[],[],"[(1076, 857)]",[],[1],[30],[0.5],"[640.0, 512.0]",horizontal,"(890.0, 262.0)",[1.2],[0.464],1,7336.557
9,False,523,0.91,54,[],[],"[(1045, 882)]",[],[1],[32],[0.5333333333333333],"[640.0, 512.0]",horizontal,"(390.0, 262.0)",[1.3],[0.494],1,7341.177
9,False,524,0.662,39,[],[],"[(1080, 865)]",[],[1],[32],[0.5333333333333333],"[640.0, 512.0]",horizontal,"(890.0, 262.0)",[1.65],[0.501],1,7346.08
9,False,525,0.653,39,[],[],"[(1081, 866)]",[],[1],[32],[0.5333333333333333],"[640.0, 512.0]",horizontal,"(390.0, 262.0)",[0.85],[0.503],1,7351.928
9,False,526,1.16,69,[],[],"[(1076, 859)]",[],[1],[34],[0.5666666666666667],"[640.0, 512.0]",horizontal,"(890.0, 762.0)",[1.1],[0.544],1,7355.995
9,False,527,0.754,45,[],[],"[(1052, 890)]",[],[1],[39],[0.65],"[640.0, 512.0]",vertical,"(390.0, 762.0)",[1.15],[0.608],1,7360.981
9,False,528,0.835,50,[],[],"[(1049, 881)]",[],[1],[34],[0.5666666666666667],"[640.0, 512.0]",vertical,"(890.0, 262.0)",[0.7333333333333333],[0.527],1,7365.498
9,False,529,0.673,40,[],[],"[(1081, 855)]",[],[1],[33],[0.55],"[640.0, 512.0]",horizontal,"(890.0, 262.0)",[1.3],[0.509],1,7369.743
9,False,530,0.824,49,[],[],"[(1055, 856)]",[],[1],[35],[0.5833333333333334],"[640.0, 512.0]",horizontal,"(390.0, 262.0)",[0.5],[0.544],1,7374.324
9,False,531,1.162,69,[],[],"[(1049, 857)]",[],[1],[30],[0.5],"[640.0, 512.0]",vertical,"(390.0, 762.0)",[1.2333333333333334],[0.46],1,7378.308
9,False,532,1.154,69,[],[],"[(1081, 861)]",[],[1],[33],[0.55],"[640.0, 512.0]",vertical,"(390.0, 762.0)",[1.6166666666666667],[0.509],1,7383.334
9,False,533,1.112,66,[],[],"[(1072, 858)]",[],[1],[42],[0.7],"[640.0, 512.0]",horizontal,"(390.0, 262.0)",[0.95],[0.658],1,7388.947
9,False,534,0.901,54,[],[],"[(1053, 844)]",[],[1],[33],[0.55],"[640.0, 512.0]",horizontal,"(890.0, 262.0)",[0.5666666666666667],[0.502],1,7393.829
9,False,535,1.058,63,[],[],"[(1071, 862)]",[],[1],[37],[0.6166666666666667],"[640.0, 512.0]",vertical,"(390.0, 762.0)",[0.75],[0.575],1,7398.113
9,False,536,0.94,56,[],[],"[(1047, 848)]",[],[1],[34],[0.5666666666666667],"[640.0, 512.0]",horizontal,"(890.0, 762.0)",[1.3],[0.52],1,7402.741
9,False,537,0.943,56,[],[],"[(1081, 855)]",[],[1],[38],[0.6333333333333333],"[640.0, 512.0]",horizontal,"(390.0, 262.0)",[1.4833333333333334],[0.587],1,7407.641
9,False,538,1.005,60,[],[],"[(1043, 864)]",[],[1],[34],[0.5666666666666667],"[640.0, 512.0]",vertical,"(890.0, 762.0)",[0.65],[0.528],1,7412.627
9,False,539,0.698,41,[],[],"[(1070, 872)]",[],[1],[34],[0.5666666666666667],"[640.0, 512.0]",vertical,"(390.0, 262.0)",[1.0833333333333333],[0.528],1,7416.939
9,False,540,1.175,70,[],[],"[(1058, 865)]",[],[1],[35],[0.5833333333333334],"[640.0, 512.0]",horizontal,"(890.0, 762.0)",[1.6833333333333333],[0.543],1,7421.515
10,False,541,0.655,39,[],[],"[(1033, 857)]",[],[1],[37],[0.6166666666666667],"[640.0, 512.0]",vertical,"(390.0, 762.0)",[1.3666666666666667],[0.573],1,7427.059
10,False,542,0.825,49,[],[],"[(1081, 858)]",[],[1],[35],[0.5833333333333334],"[640.0, 512.0]",horizontal,"(890.0, 762.0)",[1.5666666666666667],[0.543],1,7431.764
10,False,543,0.86,51,[],[],"[(1100, 862)]",[],[1],[37],[0.6166666666666667],"[640.0, 512.0]",horizontal,"(890.0, 762.0)",[0.6],[0.583],1,7436.773
10,False,544,0.858,51,[],[],"[(1077, 856)]",[],[1],[35],[0.5833333333333334],"[640.0, 512.0]",horizontal,"(390.0, 762.0)",[1.3666666666666667],[0.547],1,7441.178
10,False,545,0.552,33,[],[],"[(1076, 876)]",[],[1],[28],[0.4666666666666667],"[640.0, 512.0]",horizontal,"(390.0, 262.0)",[1.5166666666666666],[0.431],1,7446.048
10,False,546,0.891,53,[],[],"[(1009, 814), (1081, 847)]",[],"[0, 1]",[31],[0.5166666666666666],"[640.0, 512.0]",horizontal,"(390.0, 262.0)",[1.5833333333333333],[0.478],1,7450.697
10,False,547,0.773,46,[],[],"[(1077, 857)]",[],[1],[33],[0.55],"[640.0, 512.0]",horizontal,"(890.0, 262.0)",[1.3166666666666667],[0.506],1,7465.407
10,False,548,0.886,53,[],[],"[(1047, 869)]",[],[1],[32],[0.5333333333333333],"[640.0, 512.0]",horizontal,"(390.0, 262.0)",[1.2],[0.495],1,7470.144
10,False,549,0.663,39,[],[],"[(1077, 876)]",[],[1],[38],[0.6333333333333333],"[640.0, 512.0]",horizontal,"(890.0, 762.0)",[1.3666666666666667],[0.59],1,7474.883
10,False,550,0.977,58,[],[],"[(1081, 874)]",[],[1],[34],[0.5666666666666667],"[640.0, 512.0]",vertical,"(890.0, 762.0)",[1.55],[0.526],1,7479.609
10,False,551,0.818,49,[],[],"[(1047, 853)]",[],[1],[34],[0.5666666666666667],"[640.0, 512.0]",horizontal,"(390.0, 262.0)",[0.75],[0.532],1,7484.632
10,False,552,1.187,71,[],[],"[(1046, 864)]",[],[1],[31],[0.5166666666666666],"[640.0, 512.0]",vertical,"(890.0, 262.0)",[1.0833333333333333],[0.475],1,7488.891
10,False,553,1.128,67,[],[],"[(1081, 852)]",[],[1],[32],[0.5333333333333333],"[640.0, 512.0]",horizontal,"(890.0, 262.0)",[1.3166666666666667],[0.492],1,7493.762
10,False,554,0.507,30,[],[],"[(1088, 859)]",[],[1],[8],[0.13333333333333333],"[640.0, 512.0]",horizontal,"(390.0, 762.0)",[1.4833333333333334],[0.102],1,7498.957
10,False,555,0.603,36,[],[],"[(927, 592), (1048, 908)]",[],"[0, 1]",[51],[0.85],"[640.0, 512.0]",vertical,"(390.0, 262.0)",[0.5166666666666666],[0.803],0,7503.18
10,False,556,0.962,57,[],[],"[(1064, 883)]",[],[1],[51],[0.85],"[640.0, 512.0]",vertical,"(890.0, 262.0)",[1.0833333333333333],[0.805],0,7585.207
10,False,557,0.746,44,[],[],"[(1116, 861)]",[],[1],[37],[0.6166666666666667],"[640.0, 512.0]",vertical,"(390.0, 262.0)",[0.5333333333333333],[0.576],1,7590.995
10,False,558,0.516,30,[],[],"[(1039, 890)]",[],[1],[31],[0.5166666666666666],"[640.0, 512.0]",horizontal,"(390.0, 262.0)",[1.2666666666666666],[0.477],1,7594.781
10,False,559,0.731,43,[],[],"[(1023, 872), (1076, 841)]",[],"[0, 1]",[33],[0.55],"[640.0, 512.0]",horizontal,"(390.0, 762.0)",[0.85],[0.513],1,7599.131
10,False,560,0.863,51,[],[],"[(1071, 872)]",[],[1],[30],[0.5],"[640.0, 512.0]",horizontal,"(390.0, 762.0)",[0.7333333333333333],[0.463],1,7604.265
10,False,561,0.765,45,[],[],"[(1039, 876)]",[],[1],[37],[0.6166666666666667],"[640.0, 512.0]",vertical,"(390.0, 262.0)",[0.6666666666666666],[0.574],1,7608.436
10,False,562,1.02,61,[],[],"[(1076, 874)]",[],[1],[32],[0.5333333333333333],"[640.0, 512.0]",vertical,"(390.0, 262.0)",[1.2833333333333332],[0.489],1,7612.499
10,False,563,0.768,46,[],[],"[(1076, 868)]",[],[1],[40],[0.6666666666666666],"[640.0, 512.0]",vertical,"(390.0, 762.0)",[0.5166666666666666],[0.622],1,7617.436
10,False,564,0.644,38,[],[],"[(1052, 857)]",[],[1],[40],[0.6666666666666666],"[640.0, 512.0]",vertical,"(890.0, 262.0)",[1.1666666666666667],[0.622],1,7621.431
10,False,565,0.813,48,[],[],"[(1083, 874)]",[],[1],[36],[0.6],"[640.0, 512.0]",horizontal,"(390.0, 262.0)",[0.9833333333333333],[0.556],1,7625.924
10,False,566,1.195,71,[],[],"[(1076, 885)]",[],[1],[34],[0.5666666666666667],"[640.0, 512.0]",horizontal,"(390.0, 762.0)",[0.8833333333333333],[0.526],1,7630.37
10,False,567,1.092,65,[],[],"[(1076, 889)]",[],[1],[38],[0.6333333333333333],"[640.0, 512.0]",horizontal,"(890.0, 262.0)",[0.7833333333333333],[0.59],1,7635.105
10,False,568,0.863,51,[],[],"[(1076, 858)]",[],[1],[33],[0.55],"[640.0, 512.0]",horizontal,"(390.0, 262.0)",[0.5833333333333334],[0.504],1,7639.797
10,False,569,0.51,30,[],[],"[(1100, 872)]",[],[1],[],[],"[640.0, 512.0]",vertical,"(890.0, 762.0)",[],[0],0,7643.808
10,False,570,1.006,60,[],[],"[(1083, 849)]",[],[1],[41],[0.6833333333333333],"[640.0, 512.0]",vertical,"(390.0, 762.0)",[0.5],[0.647],1,7647.867
10,False,571,1.175,70,[],[],"[(1076, 836)]",[],[1],[22],[0.36666666666666664],"[640.0, 512.0]",horizontal,"(890.0, 262.0)",[0.7833333333333333],[0.334],1,7652.407
10,False,572,1.162,69,[],[],"[(1081, 866)]",[],[1],[34],[0.5666666666666667],"[640.0, 512.0]",vertical,"(390.0, 262.0)",[1.4],[0.533],1,7656.769
10,False,573,0.926,55,[],[],"[(1081, 880)]",[],[1],[32],[0.5333333333333333],"[640.0, 512.0]",vertical,"(390.0, 762.0)",[1.45],[0.495],1,7661.916
10,False,574,1.106,66,[],[],"[(1081, 876)]",[],[1],[32],[0.5333333333333333],"[640.0, 512.0]",horizontal,"(390.0, 762.0)",[1.5833333333333333],[0.495],1,7666.844
10,False,575,1.023,61,[],[],"[(1067, 878)]",[],[1],[28],[0.4666666666666667],"[640.0, 512.0]",vertical,"(390.0, 762.0)",[1.5666666666666667],[0.429],1,7672.178
10,False,576,1.055,63,[],[],"[(1081, 876)]",[],[1],[31],[0.5166666666666666],"[640.0, 512.0]",vertical,"(890.0, 262.0)",[0.8166666666666667],[0.479],1,7677.425
10,False,577,0.943,56,[],[],"[(1081, 857)]",[],[1],[33],[0.55],"[640.0, 512.0]",vertical,"(890.0, 762.0)",[1.5666666666666667],[0.511],1,7682.103
10,False,578,1.187,71,[],[],"[(1070, 867)]",[],[1],[33],[0.55],"[640.0, 512.0]",horizontal,"(390.0, 262.0)",[0.6833333333333333],[0.509],1,7687.129
10,False,579,0.501,30,[],[],"[(1081, 880)]",[],[1],[35],[0.5833333333333334],"[640.0, 512.0]",horizontal,"(890.0, 762.0)",[1.3333333333333333],[0.547],1,7691.532
10,False,580,0.83,49,[],[],"[(1083, 876)]",[],[1],[40],[0.6666666666666666],"[640.0, 512.0]",vertical,"(390.0, 762.0)",[1.5833333333333333],[0.623],1,7695.932
10,False,581,1.095,65,[],[],"[(1086, 877)]",[],[1],[],[],"[640.0, 512.0]",vertical,"(890.0, 262.0)",[],[0],0,7701.162
10,False,582,0.973,58,[],[],"[(1038, 876)]",[],[1],[24],[0.4],"[640.0, 512.0]",vertical,"(890.0, 262.0)",[0.9166666666666666],[0.36],1,7705.906
10,False,583,0.848,50,[],[],"[(1081, 863)]",[],[1],[39],[0.65],"[640.0, 512.0]",vertical,"(390.0, 762.0)",[0.8833333333333333],[0.618],1,7710.464
10,False,584,0.854,51,[],[],"[(1081, 874)]",[],[1],[7],[0.11666666666666667],"[640.0, 512.0]",horizontal,"(390.0, 262.0)",[1.6666666666666667],[0.084],1,7714.892
10,False,585,0.561,33,[],[],"[(1083, 872)]",[],[1],[32],[0.5333333333333333],"[640.0, 512.0]",vertical,"(890.0, 262.0)",[1.45],[0.494],1,7719.417
10,False,586,0.725,43,[],[],"[(1082, 873)]",[],[1],[],[],"[640.0, 512.0]",vertical,"(390.0, 762.0)",[],[0],0,7723.935
10,False,587,0.834,50,[],[],"[(1079, 850)]",[],[1],[33],[0.55],"[640.0, 512.0]",horizontal,"(890.0, 262.0)",[0.8833333333333333],[0.512],1,7727.825
10,False,588,0.546,32,[],[],"[(1087, 857)]",[],[1],[26],[0.43333333333333335],"[640.0, 512.0]",horizontal,"(390.0, 762.0)",[0.8833333333333333],[0.393],1,7732.6
10,False,589,0.705,42,[],[],"[(1084, 873)]",[],[1],[34],[0.5666666666666667],"[640.0, 512.0]",vertical,"(890.0, 262.0)",[1.2666666666666666],[0.53],1,7736.455
10,False,590,1.152,69,[],[],"[(1081, 859)]",[],[1],[36],[0.6],"[640.0, 512.0]",horizontal,"(890.0, 762.0)",[1.5333333333333332],[0.555],1,7741.059
10,False,591,0.946,56,[],[],"[(1046, 856)]",[],[1],[33],[0.55],"[640.0, 512.0]",horizontal,"(390.0, 762.0)",[1.5333333333333332],[0.51],1,7746.463
10,False,592,0.752,45,[],[],"[(1081, 871)]",[],[1],[44],[0.7333333333333333],"[640.0, 512.0]",horizontal,"(890.0, 262.0)",[0.8166666666666667],[0.686],1,7751.642
10,False,593,0.554,33,[],[],"[(1081, 859)]",[],[1],[32],[0.5333333333333333],"[640.0, 512.0]",vertical,"(390.0, 262.0)",[1.2833333333333332],[0.491],1,7755.95
10,False,594,1.199,71,[],[],"[(1051, 865)]",[],[1],[26],[0.43333333333333335],"[640.0, 512.0]",vertical,"(390.0, 262.0)",[1.6],[0.392],1,7760.467
10,False,595,1.076,64,[],[],"[(1081, 849)]",[],[1],[33],[0.55],"[640.0, 512.0]",horizontal,"(390.0, 262.0)",[0.8],[0.505],1,7765.999
10,False,596,1.104,66,[],[],"[(1073, 869)]",[],[1],[37],[0.6166666666666667],"[640.0, 512.0]",vertical,"(890.0, 762.0)",[0.6666666666666666],[0.575],1,7770.63
10,False,597,0.84,50,[],[],"[(1081, 861)]",[],[1],[34],[0.5666666666666667],"[640.0, 512.0]",vertical,"(890.0, 762.0)",[0.7333333333333333],[0.524],1,7775.178
10,False,598,0.828,49,[],[],"[(1054, 860)]",[],[1],[],[],"[640.0, 512.0]",horizontal,"(890.0, 762.0)",[],[0],0,7779.18
10,False,599,0.541,32,[],[],"[(1075, 869)]",[],[1],[32],[0.5333333333333333],"[640.0, 512.0]",horizontal,"(390.0, 762.0)",[1.1333333333333333],[0.492],1,7782.948
10,False,600,0.816,48,[],[],"[(1056, 851)]",[],[1],[33],[0.55],"[640.0, 512.0]",vertical,"(390.0, 762.0)",[1.3333333333333333],[0.51],1,7848.026
11,False,601,0.517,31,[],[],"[(1074, 867)]",[],[1],[33],[0.55],"[640.0, 512.0]",vertical,"(390.0, 762.0)",[0.55],[0.508],1,7852.797
11,False,602,0.719,43,[],[],"[(1048, 880)]",[],[1],[34],[0.5666666666666667],"[640.0, 512.0]",horizontal,"(890.0, 762.0)",[1.0666666666666667],[0.529],1,7856.395
11,False,603,1.132,67,[],[],"[(1082, 853)]",[],[1],[34],[0.5666666666666667],"[640.0, 512.0]",horizontal,"(890.0, 762.0)",[1.25],[0.525],1,7860.718
11,False,604,1.031,61,[],[],"[(1058, 885)]",[],[1],[40],[0.6666666666666666],"[640.0, 512.0]",vertical,"(890.0, 262.0)",[1.0166666666666666],[0.619],1,7865.675
11,False,605,0.737,44,[],[],"[(1018, 886), (1083, 854)]",[],"[0, 1]",[36],[0.6],"[640.0, 512.0]",horizontal,"(390.0, 762.0)",[1.1333333333333333],[0.555],1,7870.427
11,False,606,0.668,40,[],[],"[(1076, 902)]",[],[1],[36],[0.6],"[640.0, 512.0]",vertical,"(390.0, 262.0)",[1.4666666666666666],[0.56],1,7877.065
11,False,607,0.911,54,[],[],"[(1042, 876)]",[],[1],[],[],"[640.0, 512.0]",horizontal,"(390.0, 762.0)",[],[0],0,7881.775
11,False,608,0.871,52,[],[],"[(1079, 839)]",[],[1],[15],[0.25],"[640.0, 512.0]",vertical,"(390.0, 262.0)",[1.1666666666666667],[0.215],1,7886.226
11,False,609,0.917,55,[],[],"[(1096, 855)]",[],[1],[34],[0.5666666666666667],"[640.0, 512.0]",vertical,"(890.0, 762.0)",[0.9666666666666667],[0.526],1,7891.06
11,False,610,1.114,66,[],[],"[(1042, 856)]",[],[1],[32],[0.5333333333333333],"[640.0, 512.0]",vertical,"(890.0, 762.0)",[1.6333333333333333],[0.496],1,7895.45
11,False,611,1.103,66,[],[],"[(1092, 859)]",[],[1],[18],[0.3],"[640.0, 512.0]",vertical,"(890.0, 262.0)",[1.4833333333333334],[0.267],1,7901.208
11,False,612,0.827,49,[],[],"[(1086, 876)]",[],[1],[39],[0.65],"[640.0, 512.0]",horizontal,"(390.0, 762.0)",[0.6666666666666666],[0.608],1,7906.201
11,False,613,0.972,58,[],[],"[(1071, 894)]",[],[1],[36],[0.6],"[640.0, 512.0]",vertical,"(390.0, 762.0)",[0.65],[0.553],1,7910.398
11,False,614,1.131,67,[],[],"[(1042, 867)]",[],[1],[37],[0.6166666666666667],"[640.0, 512.0]",vertical,"(890.0, 762.0)",[1.5333333333333332],[0.589],1,7914.595
11,False,615,0.851,51,[],[],"[(1078, 875)]",[],[1],[],[],"[640.0, 512.0]",vertical,"(890.0, 262.0)",[],[0],0,7919.743
11,False,616,0.793,47,[],[],"[(1077, 897)]",[],[1],[51],[0.85],"[640.0, 512.0]",vertical,"(390.0, 262.0)",[0.55],[0.8],0,7923.932
11,False,617,0.571,34,[],[],"[(1053, 872)]",[],[1],[35],[0.5833333333333334],"[640.0, 512.0]",horizontal,"(390.0, 262.0)",[1.4666666666666666],[0.542],1,7954.304
11,False,618,1.076,64,[],[],"[(1082, 875)]",[],[1],[14],[0.23333333333333334],"[640.0, 512.0]",vertical,"(890.0, 762.0)",[0.5333333333333333],[0.201],1,7958.945
11,False,619,0.753,45,[],[],"[(1076, 853)]",[],[1],[33],[0.55],"[640.0, 512.0]",vertical,"(390.0, 762.0)",[1.15],[0.512],1,7962.877
11,False,620,0.928,55,[],[],"[(1076, 867)]",[],[1],[35],[0.5833333333333334],"[640.0, 512.0]",horizontal,"(890.0, 762.0)",[1.1],[0.548],1,7967.377
11,False,621,0.777,46,[],[],"[(1067, 872)]",[],[1],[33],[0.55],"[640.0, 512.0]",horizontal,"(890.0, 262.0)",[0.8833333333333333],[0.515],1,7971.908
11,False,622,0.892,53,[],[],"[(1076, 868)]",[],[1],[35],[0.5833333333333334],"[640.0, 512.0]",vertical,"(890.0, 762.0)",[0.8333333333333334],[0.54],1,7976.094
11,False,623,1.102,66,[],[],"[(1013, 462), (1058, 891)]",[],"[0, 1]",[51],[0.85],"[640.0, 512.0]",vertical,"(890.0, 762.0)",[0.55],[0.802],0,7980.552
11,False,624,1.041,62,[],[],"[(460, 661), (425, 951), (1063, 847)]",[],"[0, 0, 1]",[51],[0.85],"[640.0, 512.0]",horizontal,"(390.0, 262.0)",[0.7],[0.799],0,8152.131
11,False,625,1.04,62,[],[],"[(245, 31), (588, 334), (580, 344), (579, 349), (218, 349), (274, 41), (256, 27), (1067, 916)]",[],"[0, 0, 0, 0, 0, 0, 0, 1]",[33],[0.55],"[640.0, 512.0]",vertical,"(890.0, 262.0)",[1.0333333333333332],[0.509],1,8681.956
11,False,626,0.526,31,[],[],"[(1040, 888)]",[],[1],[19],[0.31666666666666665],"[640.0, 512.0]",horizontal,"(390.0, 262.0)",[1.5],[0.28],1,9674.976
11,False,627,1.107,66,[],[],"[(1048, 908)]",[],[1],[32],[0.5333333333333333],"[640.0, 512.0]",vertical,"(890.0, 762.0)",[0.8666666666666667],[0.495],1,9679.249
11,False,628,0.508,30,[],[],"[(1070, 886)]",[],[1],[51],[0.85],"[640.0, 512.0]",horizontal,"(390.0, 762.0)",[0.8166666666666667],[0.797],0,9684.301
11,False,629,0.654,39,[],[],"[(1076, 873)]",[],[1],[36],[0.6],"[640.0, 512.0]",horizontal,"(890.0, 262.0)",[1.4666666666666666],[0.559],1,9688.43
11,False,630,0.519,31,[],[],"[(1077, 893)]",[],[1],[35],[0.5833333333333334],"[640.0, 512.0]",vertical,"(390.0, 762.0)",[0.7333333333333333],[0.54],1,9708.763
11,False,631,0.615,36,[],[],"[(1081, 881)]",[],[1],[32],[0.5333333333333333],"[640.0, 512.0]",vertical,"(890.0, 762.0)",[1.4833333333333334],[0.489],1,9712.585
11,False,632,0.822,49,[],[],"[(1065, 861)]",[],[1],[33],[0.55],"[640.0, 512.0]",horizontal,"(390.0, 762.0)",[0.85],[0.51],1,9717.1
11,False,633,0.523,31,[],[],"[(1092, 890)]",[],[1],[35],[0.5833333333333334],"[640.0, 512.0]",horizontal,"(390.0, 762.0)",[0.9],[0.54],1,9721.333
11,False,634,0.8,48,[],[],"[(1063, 904)]",[],[1],[39],[0.65],"[640.0, 512.0]",vertical,"(890.0, 262.0)",[0.8166666666666667],[0.607],1,9725.355
11,False,635,1.095,65,[],[],"[(1064, 878)]",[],[1],[45],[0.75],"[640.0, 512.0]",horizontal,"(390.0, 262.0)",[1.1166666666666667],[0.7],1,9729.516
11,False,636,1.012,60,[],[],"[(1058, 883)]",[],[1],[29],[0.48333333333333334],"[640.0, 512.0]",horizontal,"(390.0, 262.0)",[0.9166666666666666],[0.442],1,9734.715
11,False,637,0.575,34,[],[],"[(1130, 875)]",[],[1],[18],[0.3],"[640.0, 512.0]",vertical,"(890.0, 762.0)",[0.8],[0.266],1,9740.217
11,False,638,1.025,61,[],[],"[(1079, 883)]",[],[1],[30],[0.5],"[640.0, 512.0]",vertical,"(390.0, 262.0)",[1.4],[0.458],1,9743.953
11,False,639,0.692,41,[],[],"[(1075, 877)]",[],[1],[34],[0.5666666666666667],"[640.0, 512.0]",vertical,"(390.0, 762.0)",[0.65],[0.528],1,9748.993
11,False,640,0.529,31,[],[],"[(1068, 881)]",[],[1],[34],[0.5666666666666667],"[640.0, 512.0]",vertical,"(890.0, 762.0)",[0.7166666666666667],[0.521],1,9753.03
11,False,641,0.98,58,[],[],"[(1079, 893)]",[],[1],[36],[0.6],"[640.0, 512.0]",vertical,"(390.0, 762.0)",[0.9333333333333333],[0.556],1,9756.864
11,False,642,0.707,42,[],[],"[(1057, 860)]",[],[1],[],[],"[640.0, 512.0]",horizontal,"(390.0, 262.0)",[],[0],0,9761.318
11,False,643,0.593,35,[],[],"[(1082, 892)]",[],[1],[32],[0.5333333333333333],"[640.0, 512.0]",vertical,"(890.0, 262.0)",[1.05],[0.488],1,9765.309
11,False,644,0.955,57,[],[],"[(1066, 871)]",[],[1],[39],[0.65],"[640.0, 512.0]",vertical,"(390.0, 762.0)",[0.5333333333333333],[0.605],1,9769.837
11,False,645,0.589,35,[],[],"[(1096, 883)]",[],[1],[32],[0.5333333333333333],"[640.0, 512.0]",horizontal,"(390.0, 262.0)",[0.9166666666666666],[0.498],1,9774.035
11,False,646,1.027,61,[],[],"[(1065, 876)]",[],[1],[32],[0.5333333333333333],"[640.0, 512.0]",vertical,"(890.0, 762.0)",[1.3666666666666667],[0.49],1,9778.017
11,False,647,0.767,46,[],[],"[(1067, 868)]",[],[1],[30],[0.5],"[640.0, 512.0]",horizontal,"(890.0, 262.0)",[1.2666666666666666],[0.462],1,9782.923
11,False,648,0.886,53,[],[],"[(1081, 870)]",[],[1],[30],[0.5],"[640.0, 512.0]",horizontal,"(890.0, 262.0)",[0.7],[0.462],1,9787.552
11,False,649,1.178,70,[],[],"[(1124, 890)]",[],[1],[32],[0.5333333333333333],"[640.0, 512.0]",horizontal,"(390.0, 762.0)",[0.95],[0.496],1,9791.566
11,False,650,0.819,49,[],[],"[(1086, 889)]",[],[1],[31],[0.5166666666666666],"[640.0, 512.0]",horizontal,"(890.0, 262.0)",[1.0],[0.475],1,9796.152
11,False,651,0.706,42,[],[],"[(1080, 890)]",[],[1],[31],[0.5166666666666666],"[640.0, 512.0]",vertical,"(390.0, 262.0)",[0.6833333333333333],[0.472],1,9800.553
