block,trial,trial_type,taps_start_loc_during_fix,taps_end_loc_during_fix,taps_on_lever_during_fix,taps_on_lever_s_during_fix,bar_orientation,target_xy,cti,rt,acc,time,pulses,fa_rate_recent100,p_catch
0,1,catch,"[(991, 862), (977, 843), (969, 931), (1016, 821)]",[],"[0, 0, 0, 1]",[],horizontal,"(890.0, 762.0)",1.6,nan,1,0.586,1,0.0,0.1
0,2,target,"[(998, 711), (999, 824), (1014, 821)]",[],"[0, 0, 1]",[0.7],vertical,"(390.0, 762.0)",0.65,0.668,1,103.712,1,0.0,0.1
0,3,target,"[(1021, 849)]",[],[1],[0.85],horizontal,"(890.0, 262.0)",0.55,nan,0,113.525,0,0.0,0.1
0,4,target,"[(1008, 825)]",[],[1],"[0.85, 0.85]",horizontal,"(390.0, 762.0)",0.6,"0.818,nan",0,118.149,0,0.0,0.1
0,5,target,"[(953, 959), (1001, 964), (1036, 840)]",[],"[0, 0, 1]",[0.5833333333333334],horizontal,"(890.0, 262.0)",1.0833333333333333,0.548,1,123.004,1,0.0,0.1
0,6,target,"[(1017, 807)]",[],[1],[0.6666666666666666],vertical,"(890.0, 762.0)",1.1333333333333333,0.629,1,143.029,1,0.0,0.1
0,7,target,"[(1025, 851)]",[],[1],[0.6166666666666667],horizontal,"(390.0, 762.0)",0.8666666666666667,0.585,1,147.925,2,0.0,0.1
0,8,target,"[(1030, 815)]",[],[1],[0.5166666666666666],horizontal,"(890.0, 262.0)",0.9666666666666667,0.49,1,153.169,2,0.0,0.1
0,9,target,"[(1033, 798)]",[],[1],[0.5333333333333333],horizontal,"(890.0, 262.0)",1.15,0.501,1,158.582,2,0.0,0.1
0,10,target,"[(1058, 816)]",[],[1],[0.85],horizontal,"(890.0, 762.0)",0.5833333333333334,nan,0,163.922,0,0.0,0.1
0,11,target,"[(1037, 826)]",[],[1],[0.5166666666666666],horizontal,"(390.0, 262.0)",1.1833333333333333,0.488,1,168.643,1,0.0,0.1
0,12,target,"[(1049, 806)]",[],[1],[0.11666666666666667],horizontal,"(390.0, 262.0)",1.5166666666666666,0.084,0,173.879,0,0.0,0.1
0,13,catch,"[(1050, 809)]",[],[1],[],vertical,"(390.0, 262.0)",1.6,nan,1,178.926,1,0.0,0.1
0,14,target,"[(1046, 787)]",[],[1],[0.85],horizontal,"(890.0, 762.0)",0.9666666666666667,nan,0,184.409,0,0.0,0.1
0,15,target,"[(1044, 816)]",[],[1],[0.16666666666666666],horizontal,"(390.0, 762.0)",1.35,0.134,0,189.373,0,0.0,0.1
0,16,target,"[(1039, 782)]",[],[1],[0.55],vertical,"(890.0, 262.0)",1.3,0.519,1,193.967,1,0.0,0.1
0,17,target,"[(1057, 789)]",[],[1],[0.6333333333333333],horizontal,"(890.0, 762.0)",0.65,0.598,1,199.068,1,0.0,0.1
0,18,catch,"[(1056, 784)]",[],[1],[0.03333333333333333],horizontal,"(390.0, 262.0)",1.6,"0.018,nan",0,203.541,0,0.05555555555555555,0.1
0,19,target,"[(1040, 806)]",[],[1],[0.6166666666666667],horizontal,"(390.0, 762.0)",1.0333333333333332,0.589,1,208.281,1,0.05263157894736842,0.1
0,20,target,"[(1056, 787)]",[],[1],[0.8],horizontal,"(390.0, 762.0)",1.1833333333333333,0.758,1,213.085,1,0.05,0.1
0,21,target,"[(1057, 796)]",[],[1],[0.6],vertical,"(890.0, 762.0)",1.2333333333333334,0.569,1,218.054,2,0.047619047619047616,0.1
0,22,target,"[(1056, 783)]",[],[1],[0.5],vertical,"(390.0, 262.0)",0.9666666666666667,0.465,1,223.68,2,0.045454545454545456,0.1
0,23,target,"[(1056, 779)]",[],[1],[0.6166666666666667],horizontal,"(390.0, 762.0)",1.1166666666666667,0.591,1,228.605,2,0.043478260869565216,0.1
0,24,target,"[(1049, 790)]",[],[1],[0.5166666666666666],horizontal,"(890.0, 762.0)",1.3833333333333333,0.483,1,233.862,2,0.041666666666666664,0.1
0,25,target,"[(1040, 782)]",[],[1],[0.55],horizontal,"(890.0, 762.0)",1.1166666666666667,0.515,1,239.842,3,0.04,0.1
0,26,target,"[(1033, 777)]",[],[1],[0.85],horizontal,"(890.0, 762.0)",0.5333333333333333,nan,0,245.835,0,0.038461538461538464,0.1
0,27,target,"[(1027, 807)]",[],[1],[0.6166666666666667],vertical,"(890.0, 262.0)",0.5833333333333334,0.586,1,250.516,1,0.037037037037037035,0.1
0,28,target,"[(1056, 791)]",[],[1],[0.6666666666666666],horizontal,"(890.0, 262.0)",0.5166666666666666,0.641,1,255.383,1,0.03571428571428571,0.1
0,29,catch,"[(1033, 787)]",[],[1],[],horizontal,"(890.0, 262.0)",1.6,nan,1,259.926,2,0.034482758620689655,0.1
0,30,catch,"[(1056, 791)]",[],[1],[],horizontal,"(390.0, 762.0)",1.6,nan,1,265.057,2,0.03333333333333333,0.1
0,31,target,"[(1057, 774)]",[],[1],[],horizontal,"(890.0, 762.0)",,"('fix', 0.201)",0,270.471,0,0.03225806451612903,0.1
0,32,target,"[(1025, 837)]",[],[1],[0.48333333333333334],horizontal,"(890.0, 262.0)",1.3833333333333333,0.451,1,272.059,1,0.03125,0.1
0,33,target,"[(1041, 809)]",[],[1],[0.5666666666666667],horizontal,"(390.0, 262.0)",0.85,0.535,1,277.613,1,0.030303030303030304,0.1
0,34,target,"[(1048, 777)]",[],[1],[0.5],vertical,"(890.0, 262.0)",0.7833333333333333,0.475,1,282.42,2,0.029411764705882353,0.1
0,35,target,"[(1045, 786)]",[],[1],[0.43333333333333335],vertical,"(390.0, 262.0)",1.1166666666666667,0.403,1,287.325,2,0.02857142857142857,0.1
0,36,target,"[(1035, 789)]",[],[1],[0.08333333333333333],vertical,"(890.0, 262.0)",1.4166666666666667,0.052,0,292.722,0,0.027777777777777776,0.1
0,37,target,"[(1029, 806)]",[],[1],[0.85],horizontal,"(890.0, 762.0)",0.55,nan,0,297.338,0,0.02702702702702703,0.1
0,38,catch,"[(1018, 806)]",[],[1],[],horizontal,"(390.0, 262.0)",,"('cti', 1.57),nan",0,301.8,0,0.05263157894736842,0.1
0,39,catch,"[(1034, 783)]",[],[1],[],vertical,"(890.0, 262.0)",1.6,nan,1,306.729,1,0.05128205128205128,0.1
0,40,target,"[(1029, 779)]",[],[1],[0.6333333333333333],vertical,"(390.0, 262.0)",1.0333333333333332,0.611,1,311.84,1,0.05,0.1
0,41,target,"[(1034, 782)]",[],[1],[0.48333333333333334],vertical,"(890.0, 262.0)",0.9666666666666667,0.452,1,316.84,2,0.04878048780487805,0.1
0,42,target,"[(1033, 779)]",[],[1],[0.3],horizontal,"(890.0, 262.0)",1.4166666666666667,0.267,1,321.709,2,0.047619047619047616,0.1
0,43,target,"[(1033, 779)]",[],[1],[0.4666666666666667],vertical,"(890.0, 262.0)",1.35,0.433,1,327.22,2,0.046511627906976744,0.1
0,44,catch,"[(1053, 796)]",[],[1],[],vertical,"(890.0, 762.0)",1.6,nan,1,332.452,2,0.045454545454545456,0.1
0,45,target,"[(1052, 806)]",[],[1],[0.23333333333333334],horizontal,"(390.0, 262.0)",1.5833333333333333,0.198,0,337.846,0,0.044444444444444446,0.1
0,46,target,"[(1025, 801)]",[],[1],[0.36666666666666664],horizontal,"(390.0, 262.0)",1.0666666666666667,0.335,1,342.456,1,0.043478260869565216,0.1
0,47,catch,"[(1034, 801)]",[],[1],[],horizontal,"(890.0, 262.0)",1.6,nan,1,347.272,1,0.0425531914893617,0.1
0,48,target,"[(1042, 790)]",[],[1],[0.48333333333333334],vertical,"(390.0, 262.0)",0.7333333333333333,0.446,1,352.314,2,0.041666666666666664,0.1
0,49,target,"[(1049, 783)]",[],[1],[0.45],vertical,"(390.0, 262.0)",0.9333333333333333,0.42,1,357.454,2,0.04081632653061224,0.1
0,50,target,"[(1053, 803)]",[],[1],[0.5333333333333333],vertical,"(390.0, 262.0)",1.1166666666666667,0.505,1,362.936,2,0.04,0.1
0,51,target,"[(1040, 805)]",[],[1],[0.85],vertical,"(890.0, 762.0)",0.5833333333333334,nan,0,368.287,0,0.04,0.1
0,52,target,"[(1036, 804)]",[],[1],[0.5666666666666667],vertical,"(890.0, 262.0)",0.95,0.535,1,372.585,1,0.04,0.1
0,53,target,"[(1036, 785)]",[],[1],[0.5166666666666666],vertical,"(890.0, 262.0)",0.6,0.487,1,377.694,1,0.04,0.1
0,54,target,"[(1036, 765)]",[],[1],[0.5333333333333333],vertical,"(890.0, 262.0)",0.6166666666666667,0.497,1,382.488,2,0.04,0.1
0,55,target,"[(1029, 786)]",[],[1],[0.5166666666666666],vertical,"(890.0, 762.0)",1.3,0.485,1,387.264,2,0.04,0.1
0,56,target,"[(1028, 778)]",[],[1],[0.45],vertical,"(890.0, 262.0)",0.6666666666666666,0.419,1,392.404,2,0.04,0.1
0,57,catch,"[(1021, 778)]",[],[1],[],horizontal,"(390.0, 762.0)",1.6,nan,1,397.24,2,0.04,0.1
0,58,target,"[(1019, 822)]",[],[1],[0.55],horizontal,"(390.0, 762.0)",0.7166666666666667,0.523,1,402.381,3,0.04,0.1
0,59,target,"[(1043, 806)]",[],[1],[0.21666666666666667],horizontal,"(890.0, 762.0)",1.55,0.183,0,413.272,0,0.04,0.1
0,60,target,"[(1033, 813)]",[],[1],[0.5],horizontal,"(890.0, 262.0)",0.7166666666666667,0.474,1,418.193,1,0.04,0.1
0,61,target,"[(1041, 790)]",[],[1],[0.36666666666666664],vertical,"(390.0, 762.0)",1.3666666666666667,0.336,1,423.586,1,0.04,0.1
0,62,target,"[(1019, 772)]",[],[1],[0.45],vertical,"(890.0, 262.0)",1.1166666666666667,0.421,1,428.581,2,0.04,0.1
0,63,target,"[(1038, 786)]",[],[1],[0.15],vertical,"(390.0, 762.0)",1.45,0.118,0,433.722,0,0.04,0.1
0,64,target,"[(1025, 861)]",[],[1],[0.6],horizontal,"(390.0, 262.0)",0.7833333333333333,0.571,1,438.089,1,0.04,0.1
0,65,target,"[(1040, 779)]",[],[1],[0.6333333333333333],horizontal,"(390.0, 762.0)",1.05,0.596,1,443.567,1,0.04,0.1
0,66,catch,"[(1041, 806)]",[],[1],[],horizontal,"(890.0, 262.0)",1.6,nan,1,448.472,2,0.04,0.1
0,67,target,"[(1058, 807)]",[],[1],[0.85],horizontal,"(390.0, 762.0)",0.9666666666666667,nan,0,454.046,0,0.04,0.1
0,68,catch,"[(1048, 845)]",[],[1],[],vertical,"(890.0, 262.0)",1.6,nan,1,458.892,1,0.02,0.1
0,69,catch,"[(1057, 814)]",[],[1],[0.03333333333333333],horizontal,"(390.0, 262.0)",1.6,"0.018,nan",0,472.784,0,0.04,0.1
0,70,target,"[(1060, 807)]",[],[1],[0.5],horizontal,"(390.0, 262.0)",0.6666666666666666,0.469,1,477.816,1,0.04,0.1
0,71,target,"[(1046, 778)]",[],[1],[0.5],horizontal,"(890.0, 262.0)",1.3166666666666667,0.472,1,482.408,1,0.04,0.1
0,72,target,"[(1042, 770)]",[],[1],[0.6833333333333333],vertical,"(890.0, 262.0)",0.6333333333333333,0.653,1,487.424,2,0.04,0.1
0,73,target,"[(1055, 772)]",[],[1],[0.55],horizontal,"(390.0, 262.0)",0.85,0.512,1,492.341,2,0.04,0.1
0,74,target,"[(1058, 790)]",[],[1],[0.4166666666666667],horizontal,"(390.0, 762.0)",1.4166666666666667,0.387,1,497.67,2,0.04,0.1
0,75,target,"[(1057, 803)]",[],[1],[],horizontal,"(390.0, 762.0)",,"('cti', 1.264)",0,503.299,0,0.06,0.1
0,76,target,"[(1057, 815)]",[],[1],[0.85],horizontal,"(390.0, 262.0)",0.6833333333333333,nan,0,507.728,0,0.06,0.1
0,77,target,"[(1052, 797)]",[],[1],[0.5],vertical,"(390.0, 262.0)",0.8166666666666667,0.473,1,512.033,1,0.06,0.1
0,78,target,"[(1057, 770)]",[],[1],[0.35],vertical,"(890.0, 262.0)",1.45,0.318,1,516.939,1,0.06,0.1
0,79,target,"[(1040, 776)]",[],[1],[0.5166666666666666],vertical,"(890.0, 762.0)",0.8,0.489,1,522.108,2,0.06,0.1
0,80,target,"[(1039, 785)]",[],[1],[0.5166666666666666],horizontal,"(390.0, 262.0)",0.6333333333333333,0.485,1,526.978,2,0.06,0.1
0,81,target,"[(1038, 785)]",[],[1],[0.5166666666666666],vertical,"(390.0, 762.0)",0.9,0.473,1,531.932,2,0.06,0.1
0,82,target,"[(1044, 783)]",[],[1],[0.5333333333333333],vertical,"(890.0, 762.0)",0.7,0.489,1,537.049,2,0.06,0.1
0,83,target,"[(1056, 806)]",[],[1],[0.3],vertical,"(890.0, 762.0)",1.4833333333333334,0.262,1,541.71,3,0.06,0.1
0,84,target,"[(1043, 783)]",[],[1],[0.06666666666666667],vertical,"(890.0, 262.0)",1.5333333333333332,0.036,0,547.438,0,0.06,0.1
0,85,target,"[(1041, 806)]",[],[1],[0.85],horizontal,"(890.0, 262.0)",1.5,nan,0,552.387,0,0.06,0.1
0,86,target,"[(1033, 824)]",[],[1],[0.5833333333333334],vertical,"(890.0, 762.0)",1.1666666666666667,0.538,1,557.597,1,0.06,0.1
0,87,target,"[(1038, 791)]",[],[1],[0.65],horizontal,"(890.0, 262.0)",0.9333333333333333,0.609,1,562.737,1,0.06,0.1
0,88,target,"[(1033, 787)]",[],[1],[0.43333333333333335],vertical,"(890.0, 262.0)",1.2833333333333332,0.393,1,567.647,2,0.04,0.1
0,89,catch,"[(1052, 794)]",[],[1],[],vertical,"(390.0, 262.0)",1.6,nan,1,573.384,2,0.04,0.1
0,90,target,"[(1042, 776)]",[],[1],[0.55],horizontal,"(390.0, 262.0)",1.2166666666666666,0.508,1,578.81,2,0.04,0.1
0,91,target,"[(1055, 782)]",[],[1],[0.6666666666666666],horizontal,"(390.0, 262.0)",0.9166666666666666,0.62,1,584.401,2,0.04,0.1
0,92,catch,"[(1050, 786)]",[],[1],[],horizontal,"(890.0, 762.0)",1.6,nan,1,589.878,3,0.04,0.1
0,93,target,"[(1055, 783)]",[],[1],[0.5],vertical,"(890.0, 762.0)",1.0666666666666667,0.458,1,596.009,3,0.04,0.1
0,94,target,"[(1030, 786)]",[],[1],[0.5166666666666666],horizontal,"(390.0, 262.0)",0.5833333333333334,0.472,1,601.736,3,0.04,0.1
0,95,target,"[(1058, 782)]",[],[1],[0.85],horizontal,"(390.0, 762.0)",0.65,nan,0,606.967,0,0.04,0.1
0,96,target,"[(1024, 800)]",[],[1],[0.48333333333333334],vertical,"(890.0, 762.0)",1.5166666666666666,0.441,1,611.216,1,0.04,0.1
0,97,target,"[(1027, 781)]",[],[1],[0.6166666666666667],horizontal,"(390.0, 262.0)",0.8666666666666667,0.571,1,616.547,1,0.04,0.1
0,98,target,"[(1030, 786)]",[],[1],[0.6833333333333333],horizontal,"(890.0, 262.0)",0.55,0.636,1,621.098,2,0.04,0.1
0,99,target,"[(1030, 785)]",[],[1],[0.48333333333333334],horizontal,"(890.0, 262.0)",1.0,0.444,1,626.061,2,0.04,0.1
0,100,target,"[(1054, 779)]",[],[1],[0.5833333333333334],horizontal,"(890.0, 262.0)",1.2166666666666666,0.543,1,631.645,2,0.04,0.1
0,101,target,"[(1027, 780)]",[],[1],[0.5166666666666666],horizontal,"(390.0, 262.0)",1.0833333333333333,0.482,1,637.079,2,0.04,0.1
0,102,target,"[(1033, 783)]",[],[1],[0.75],horizontal,"(390.0, 762.0)",1.05,0.701,1,642.067,3,0.04,0.1
0,103,target,"[(1056, 778)]",[],[1],[0.6333333333333333],horizontal,"(390.0, 762.0)",1.1333333333333333,0.591,1,647.736,3,0.04,0.1
0,104,target,"[(1056, 785)]",[],[1],[0.5166666666666666],vertical,"(890.0, 762.0)",1.2333333333333334,0.477,1,653.444,3,0.04,0.1
0,105,target,"[(1055, 801)]",[],[1],[0.7],vertical,"(390.0, 762.0)",1.1666666666666667,0.652,1,659.179,3,0.04,0.1
0,106,target,"[(1033, 782)]",[],[1],[0.7666666666666666],vertical,"(390.0, 762.0)",1.0833333333333333,0.726,1,665.195,3,0.04,0.1
0,107,target,"[(1044, 787)]",[],[1],[0.7666666666666666],horizontal,"(390.0, 762.0)",1.0666666666666667,0.718,1,671.094,3,0.04,0.1
0,108,target,"[(1029, 776)]",[],[1],[0.6166666666666667],vertical,"(390.0, 762.0)",0.7833333333333333,0.576,1,677.144,3,0.04,0.1
0,109,target,"[(1033, 789)]",[],[1],[0.5],horizontal,"(390.0, 262.0)",0.55,0.46,1,682.777,3,0.04,0.1
0,110,target,"[(1042, 764)]",[],[1],[0.5166666666666666],horizontal,"(890.0, 262.0)",1.4666666666666666,0.477,1,688.326,3,0.04,0.1
0,111,target,"[(1057, 776)]",[],[1],[0.5333333333333333],horizontal,"(890.0, 262.0)",1.2666666666666666,0.491,1,694.378,3,0.04,0.1
0,112,target,"[(1046, 781)]",[],[1],[0.5666666666666667],horizontal,"(390.0, 762.0)",0.75,0.532,1,700.151,3,0.04,0.1
0,113,target,"[(1052, 779)]",[],[1],[0.6666666666666666],vertical,"(390.0, 762.0)",1.15,0.624,1,705.829,3,0.04,0.1
0,114,target,"[(1056, 779)]",[],[1],[0.6166666666666667],vertical,"(390.0, 762.0)",0.5833333333333334,0.571,1,711.568,3,0.04,0.1
0,115,target,"[(1034, 772)]",[],[1],[0.5166666666666666],vertical,"(890.0, 762.0)",1.1166666666666667,0.474,1,716.747,3,0.04,0.1
0,116,target,"[(1033, 773)]",[],[1],[0.6333333333333333],horizontal,"(890.0, 762.0)",1.15,0.591,1,722.044,3,0.04,0.1
0,117,target,"[(1055, 778)]",[],[1],[0.5],vertical,"(890.0, 262.0)",0.95,0.458,1,727.985,3,0.04,0.1
0,118,target,"[(1056, 786)]",[],[1],[0.36666666666666664],vertical,"(890.0, 762.0)",1.3833333333333333,0.33,1,733.632,3,0.04,0.1
0,119,catch,"[(1057, 776)]",[],[1],[],vertical,"(890.0, 262.0)",1.6,"('cti', 1.569),nan",0,739.677,0,0.04,0.1
0,120,target,"[(1052, 776)]",[],[1],[0.85],vertical,"(390.0, 262.0)",1.1,nan,0,744.329,0,0.04,0.1
0,121,target,"[(1054, 781)]",[],[1],[0.5333333333333333],vertical,"(890.0, 262.0)",1.2,0.493,1,748.929,1,0.04,0.1
0,122,target,"[(1045, 774)]",[],[1],[0.5666666666666667],horizontal,"(390.0, 762.0)",0.7833333333333333,0.524,1,754.062,1,0.04,0.1
0,123,target,"[(1047, 776)]",[],[1],[],horizontal,"(390.0, 262.0)",,"('cti', 1.481)",0,758.528,0,0.06,0.1
0,124,target,"[(1053, 807)]",[],[1],[0.7166666666666667],horizontal,"(390.0, 762.0)",1.4166666666666667,0.677,1,762.876,1,0.06,0.1
0,125,target,"[(1055, 802)]",[],[1],[0.7],vertical,"(390.0, 262.0)",1.1,0.654,1,768.752,1,0.04,0.1
0,126,target,"[(1056, 780)]",[],[1],[0.6833333333333333],horizontal,"(890.0, 262.0)",0.75,0.632,1,773.945,2,0.04,0.1
0,127,target,"[(1054, 786)]",[],[1],[0.43333333333333335],vertical,"(890.0, 262.0)",1.45,0.39,1,778.744,2,0.04,0.1
0,128,target,"[(1045, 783)]",[],[1],[0.3333333333333333],horizontal,"(890.0, 262.0)",1.55,0.296,1,784.095,2,0.04,0.1
0,129,target,"[(1045, 785)]",[],[1],[0.5333333333333333],vertical,"(390.0, 262.0)",1.2,0.483,1,789.296,2,0.04,0.1
0,130,target,"[(1045, 789)]",[],[1],[0.4666666666666667],vertical,"(890.0, 262.0)",0.8333333333333334,0.429,1,794.694,3,0.04,0.1
0,131,target,"[(1052, 806)]",[],[1],[0.4],horizontal,"(890.0, 762.0)",1.4166666666666667,0.362,1,800.128,3,0.04,0.1
0,132,target,"[(1041, 779)]",[],[1],[0.5],vertical,"(390.0, 262.0)",1.0666666666666667,0.456,1,806.144,3,0.04,0.1
0,133,target,"[(1053, 780)]",[],[1],[0.85],horizontal,"(890.0, 762.0)",0.6166666666666667,nan,0,811.819,0,0.04,0.1
0,134,target,"[(1041, 795)]",[],[1],[0.6833333333333333],horizontal,"(390.0, 762.0)",0.95,0.65,1,816.32,1,0.04,0.1
0,135,target,"[(1041, 773)]",[],[1],[0.7],horizontal,"(390.0, 262.0)",1.05,0.654,1,821.777,1,0.04,0.1
0,136,target,"[(1047, 790)]",[],[1],[0.36666666666666664],vertical,"(890.0, 262.0)",1.45,0.326,1,826.803,2,0.04,0.1
0,137,target,"[(1048, 786)]",[],[1],[0.55],vertical,"(890.0, 262.0)",0.7333333333333333,0.504,1,832.609,2,0.04,0.1
0,138,target,"[(1053, 796)]",[],[1],[0.55],horizontal,"(390.0, 762.0)",1.2333333333333334,0.512,1,837.25,2,0.04,0.1
0,139,target,"[(1056, 783)]",[],[1],[0.5833333333333334],vertical,"(890.0, 762.0)",0.5666666666666667,0.537,1,842.397,2,0.04,0.1
0,140,target,"[(1055, 792)]",[],[1],[0.55],vertical,"(890.0, 762.0)",1.2,0.511,1,846.957,3,0.04,0.1
0,141,target,"[(1055, 799)]",[],[1],[0.45],horizontal,"(890.0, 762.0)",1.3166666666666667,0.411,1,853.028,3,0.04,0.1
0,142,target,"[(1057, 796)]",[],[1],[0.5166666666666666],vertical,"(390.0, 262.0)",0.8166666666666667,0.473,1,859.146,3,0.04,0.1
0,143,target,"[(1041, 798)]",[],[1],[0.85],vertical,"(390.0, 762.0)",0.5666666666666667,nan,0,864.963,0,0.04,0.1
0,144,target,"[(1054, 799)]",[],[1],[],horizontal,"(890.0, 762.0)",,"('cti', 0.132)",0,869.985,0,0.06,0.1
0,145,catch,"[(1036, 797)]",[],[1],[],vertical,"(890.0, 762.0)",,"('cti', 1.541),nan",0,873.178,0,0.08,0.1
0,146,target,"[(1043, 797)]",[],[1],[0.5333333333333333],vertical,"(890.0, 762.0)",1.1166666666666667,0.491,1,877.778,1,0.08,0.1
0,147,target,"[(1048, 773)]",[],[1],[0.5833333333333334],horizontal,"(390.0, 762.0)",1.0833333333333333,0.539,1,882.579,1,0.08,0.1
0,148,target,"[(1042, 770)]",[],[1],[0.3833333333333333],horizontal,"(890.0, 762.0)",1.1833333333333333,0.346,1,887.351,2,0.08,0.1
0,149,target,"[(1058, 806)]",[],[1],[0.5166666666666666],horizontal,"(890.0, 762.0)",1.0166666666666666,0.473,1,893.063,2,0.08,0.1
0,150,target,"[(1053, 788)]",[],[1],[0.5333333333333333],horizontal,"(890.0, 262.0)",0.5166666666666666,0.488,1,898.223,2,0.08,0.1
0,151,target,"[(1037, 774)]",[],[1],[0.6],horizontal,"(890.0, 762.0)",0.7833333333333333,0.556,1,903.116,2,0.08,0.1
0,152,target,"[(1071, 795)]",[],[1],[0.48333333333333334],horizontal,"(890.0, 762.0)",0.8,0.444,1,908.263,3,0.08,0.1
0,153,target,"[(1056, 790)]",[],[1],[0.3],vertical,"(890.0, 262.0)",1.35,0.262,1,913.639,3,0.08,0.1
0,154,target,"[(1058, 773)]",[],[1],[0.85],vertical,"(390.0, 762.0)",0.6166666666666667,nan,0,919.691,0,0.08,0.1
0,155,target,"[(1025, 812)]",[],[1],[0.23333333333333334],horizontal,"(890.0, 762.0)",1.5166666666666666,0.201,1,923.712,1,0.08,0.1
0,156,target,"[(1033, 788)]",[],[1],[0.6],horizontal,"(890.0, 262.0)",1.1333333333333333,0.555,1,928.685,1,0.08,0.1
0,157,target,"[(1037, 770)]",[],[1],[0.4166666666666667],horizontal,"(390.0, 262.0)",1.2666666666666666,0.378,1,933.748,2,0.08,0.1
0,158,catch,"[(1039, 807)]",[],[1],[],horizontal,"(890.0, 762.0)",,"('cti', 1.582),nan",0,938.752,0,0.1,0.1
0,159,target,"[(1029, 790)]",[],[1],[0.5166666666666666],vertical,"(890.0, 762.0)",1.0333333333333332,0.473,1,943.328,1,0.1,0.1
0,160,target,"[(1045, 778)]",[],[1],[0.4666666666666667],horizontal,"(890.0, 262.0)",1.4833333333333334,0.434,1,948.165,1,0.1,0.1
0,161,target,"[(1034, 786)]",[],[1],[0.3833333333333333],horizontal,"(390.0, 262.0)",1.3833333333333333,0.343,1,953.419,2,0.1,0.1
0,162,target,"[(1057, 791)]",[],[1],[0.48333333333333334],vertical,"(890.0, 262.0)",1.05,0.443,1,958.71,2,0.1,0.1
0,163,target,"[(1057, 779)]",[],[1],[0.5833333333333334],vertical,"(890.0, 762.0)",0.8333333333333334,0.532,1,963.664,2,0.1,0.1
0,164,target,"[(1066, 790)]",[],[1],[0.4166666666666667],horizontal,"(890.0, 262.0)",1.3666666666666667,0.382,1,968.562,2,0.1,0.1
0,165,target,"[(1037, 766)]",[],[1],[0.31666666666666665],horizontal,"(390.0, 262.0)",1.4333333333333333,0.282,1,973.746,3,0.1,0.1
0,166,target,"[(1040, 768)]",[],[1],[0.5333333333333333],horizontal,"(890.0, 262.0)",1.2166666666666666,0.488,1,979.796,3,0.1,0.1
0,167,target,"[(1037, 787)]",[],[1],[0.65],vertical,"(390.0, 262.0)",1.2333333333333334,0.609,1,985.681,3,0.1,0.1
0,168,target,"[(1034, 783)]",[],[1],[0.6],horizontal,"(890.0, 262.0)",0.95,0.558,1,991.563,3,0.1,0.1
0,169,catch,"[(1040, 776)]",[],[1],[],horizontal,"(890.0, 762.0)",1.6,nan,1,997.062,3,0.08,0.1
0,170,target,"[(1057, 789)]",[],[1],[0.11666666666666667],horizontal,"(890.0, 762.0)",1.5833333333333333,0.085,0,1003.113,0,0.08,0.1
0,171,target,"[(1057, 786)]",[],[1],[0.16666666666666666],horizontal,"(390.0, 762.0)",1.55,0.137,0,1007.764,0,0.08,0.1
0,172,target,"[(1022, 787)]",[],[1],[0.55],vertical,"(390.0, 262.0)",1.2833333333333332,0.507,1,1012.463,1,0.08,0.1
0,173,target,"[(1057, 786)]",[],[1],[0.26666666666666666],vertical,"(390.0, 762.0)",1.0333333333333332,0.229,1,1017.625,1,0.06,0.1
0,174,target,"[(1034, 778)]",[],[1],[0.6166666666666667],vertical,"(890.0, 762.0)",0.5666666666666667,0.572,1,1022.38,2,0.06,0.1
0,175,target,"[(1040, 781)]",[],[1],[0.5333333333333333],vertical,"(890.0, 762.0)",0.8,0.488,1,1027.462,2,0.06,0.1
0,176,target,"[(1044, 783)]",[],[1],[0.48333333333333334],horizontal,"(890.0, 262.0)",1.05,0.439,1,1032.307,2,0.06,0.1
0,177,target,"[(1038, 805)]",[],[1],[0.5333333333333333],horizontal,"(890.0, 762.0)",1.1833333333333333,0.489,1,1037.279,2,0.06,0.1
0,178,target,"[(1033, 786)]",[],[1],[0.5],horizontal,"(890.0, 262.0)",0.7666666666666666,0.464,1,1042.879,3,0.06,0.1
0,179,target,"[(1056, 777)]",[],[1],[0.48333333333333334],vertical,"(890.0, 262.0)",1.1,0.446,1,1048.012,3,0.06,0.1
0,180,target,"[(1046, 782)]",[],[1],[0.36666666666666664],vertical,"(390.0, 262.0)",0.9333333333333333,0.332,1,1054.121,3,0.06,0.1
0,181,target,"[(1061, 783)]",[],[1],[0.43333333333333335],horizontal,"(390.0, 262.0)",1.0333333333333332,0.396,1,1059.886,3,0.06,0.1
0,182,catch,"[(1047, 784)]",[],[1],[],horizontal,"(390.0, 262.0)",,"('cti', 1.228),nan",0,1065.545,0,0.08,0.1
0,183,target,"[(1038, 788)]",[],[1],[0.5333333333333333],vertical,"(390.0, 262.0)",0.65,0.489,1,1070.097,1,0.08,0.1
0,184,target,"[(1052, 790)]",[],[1],[0.5833333333333334],vertical,"(390.0, 262.0)",1.1666666666666667,0.537,1,1074.763,1,0.08,0.1
0,185,target,"[(1055, 772)]",[],[1],[0.5666666666666667],horizontal,"(390.0, 262.0)",1.1333333333333333,0.529,1,1080.075,2,0.08,0.1
0,186,catch,"[(1035, 765)]",[],[1],[],horizontal,"(390.0, 262.0)",1.6,nan,1,1085.621,2,0.08,0.1
0,187,target,"[(1049, 782)]",[],[1],[0.55],horizontal,"(390.0, 262.0)",0.9666666666666667,0.508,1,1090.953,2,0.08,0.1
0,188,target,"[(1057, 779)]",[],[1],[0.5],horizontal,"(390.0, 262.0)",1.0,0.466,1,1096.196,2,0.08,0.1
0,189,catch,"[(1058, 788)]",[],[1],[],horizontal,"(890.0, 262.0)",1.6,nan,1,1101.564,3,0.08,0.1
0,190,target,"[(1033, 789)]",[],[1],[0.48333333333333334],horizontal,"(890.0, 762.0)",1.2166666666666666,0.448,1,1107.579,3,0.08,0.1
0,191,target,"[(1056, 785)]",[],[1],[0.5833333333333334],vertical,"(890.0, 262.0)",0.6166666666666667,0.55,1,1113.508,3,0.08,0.1
0,192,target,"[(1058, 781)]",[],[1],[0.5166666666666666],horizontal,"(890.0, 262.0)",1.0666666666666667,0.479,1,1118.613,3,0.08,0.1
0,193,target,"[(1033, 791)]",[],[1],[0.55],horizontal,"(890.0, 762.0)",1.25,0.513,1,1124.525,3,0.08,0.1
0,194,target,"[(1058, 779)]",[],[1],[0.5333333333333333],horizontal,"(390.0, 762.0)",0.9333333333333333,0.496,1,1130.397,3,0.06,0.1
0,195,target,"[(1026, 772)]",[],[1],[0.55],vertical,"(890.0, 262.0)",1.1333333333333333,0.513,1,1135.697,3,0.04,0.1
0,196,target,"[(1060, 781)]",[],[1],[0.4666666666666667],vertical,"(890.0, 762.0)",1.35,0.427,1,1141.758,3,0.04,0.1
0,197,target,"[(1053, 788)]",[],[1],[0.48333333333333334],vertical,"(390.0, 262.0)",0.65,0.443,1,1147.464,3,0.04,0.1
0,198,target,"[(1057, 774)]",[],[1],[0.6],horizontal,"(890.0, 262.0)",0.8333333333333334,0.556,1,1152.983,3,0.04,0.1
0,199,target,"[(1059, 782)]",[],[1],[0.5],vertical,"(390.0, 262.0)",1.05,0.459,1,1158.434,3,0.04,0.1
0,200,catch,"[(1056, 796)]",[],[1],[],horizontal,"(390.0, 762.0)",1.6,nan,1,1163.866,3,0.04,0.1
0,201,target,"[(1057, 774)]",[],[1],[0.6166666666666667],vertical,"(390.0, 262.0)",1.0166666666666666,0.575,1,1169.48,3,0.04,0.1
0,202,target,"[(1069, 798)]",[],[1],[0.85],vertical,"(890.0, 762.0)",0.7666666666666666,nan,0,1175.064,0,0.04,0.1
0,203,target,"[(1025, 799)]",[],[1],[0.5],vertical,"(890.0, 262.0)",1.0666666666666667,0.459,1,1179.478,1,0.04,0.1
0,204,target,"[(1049, 776)]",[],[1],[0.6],vertical,"(890.0, 762.0)",0.7,0.559,1,1184.18,1,0.04,0.1
0,205,target,"[(1052, 793)]",[],[1],[0.85],horizontal,"(890.0, 762.0)",0.5166666666666666,nan,0,1189.063,0,0.04,0.1
0,206,target,"[(1033, 811)]",[],[1],[0.5166666666666666],horizontal,"(390.0, 262.0)",1.0833333333333333,0.475,1,1193.555,1,0.04,0.1
0,207,target,"[(1056, 783)]",[],[1],[],horizontal,"(890.0, 262.0)",,"('cti', 0.578)",0,1198.273,0,0.06,0.1
0,208,target,"[(1050, 806)]",[],[1],[0.4],horizontal,"(890.0, 762.0)",1.45,0.364,1,1202.247,1,0.04,0.1
0,209,target,"[(1036, 773)]",[],[1],[0.5],vertical,"(890.0, 262.0)",0.7,0.464,1,1207.313,1,0.04,0.1
0,210,catch,"[(1046, 806)]",[],[1],[],vertical,"(390.0, 262.0)",,"('cti', 1.586),nan",0,1212.191,0,0.06,0.1
0,211,target,"[(1034, 806)]",[],[1],[0.7333333333333333],horizontal,"(390.0, 762.0)",0.85,0.687,1,1216.747,1,0.06,0.1
0,212,target,"[(1037, 797)]",[],[1],[0.5333333333333333],horizontal,"(890.0, 762.0)",0.6666666666666666,0.496,1,1221.763,1,0.06,0.1
0,213,target,"[(1065, 800)]",[],[1],[0.6166666666666667],vertical,"(890.0, 262.0)",0.7,0.579,1,1226.114,2,0.06,0.1
0,214,target,"[(1066, 796)]",[],[1],[0.4166666666666667],vertical,"(890.0, 762.0)",1.5166666666666666,0.374,1,1231.043,2,0.06,0.1
0,215,target,"[(1035, 789)]",[],[1],[0.5166666666666666],vertical,"(890.0, 762.0)",1.2166666666666666,0.478,1,1236.761,2,0.06,0.1
0,216,target,"[(1047, 768)]",[],[1],[0.6666666666666666],vertical,"(890.0, 262.0)",0.6,0.629,1,1242.245,2,0.06,0.1
0,217,target,"[(1050, 801)]",[],[1],[0.85],vertical,"(890.0, 762.0)",0.5666666666666667,nan,0,1247.413,0,0.06,0.1
0,218,target,"[(1041, 779)]",[],[1],[0.5666666666666667],horizontal,"(890.0, 262.0)",0.6,0.526,1,1251.883,1,0.06,0.1
0,219,target,"[(1033, 791)]",[],[1],[0.5166666666666666],horizontal,"(890.0, 262.0)",0.8833333333333333,0.479,1,1256.612,1,0.06,0.1
0,220,target,"[(1029, 765)]",[],[1],[],vertical,"(390.0, 762.0)",,"('cti', 1.114)",0,1261.233,0,0.08,0.1
0,221,target,"[(1031, 828)]",[],[1],[0.43333333333333335],vertical,"(890.0, 262.0)",1.55,0.398,1,1265.577,1,0.08,0.1
0,222,target,"[(1037, 797)]",[],[1],[0.5333333333333333],horizontal,"(390.0, 262.0)",1.1333333333333333,0.497,1,1271.183,1,0.08,0.1
0,223,target,"[(1057, 782)]",[],[1],[0.13333333333333333],horizontal,"(890.0, 762.0)",1.5833333333333333,0.103,0,1275.765,0,0.08,0.1
0,224,target,"[(1049, 816)]",[],[1],[0.7166666666666667],horizontal,"(890.0, 262.0)",1.2833333333333332,0.671,1,1280.781,1,0.08,0.1
0,225,target,"[(1033, 781)]",[],[1],[0.18333333333333332],vertical,"(390.0, 762.0)",1.5333333333333332,0.15,0,1286.237,0,0.08,0.1
0,226,target,"[(1037, 786)]",[],[1],[0.11666666666666667],vertical,"(390.0, 262.0)",1.55,0.086,0,1291.247,0,0.08,0.1
0,227,catch,"[(1040, 781)]",[],[1],[],vertical,"(890.0, 762.0)",1.6,nan,1,1296.181,1,0.08,0.1
0,228,target,"[(1047, 790)]",[],[1],[0.85],horizontal,"(890.0, 762.0)",0.6166666666666667,nan,0,1301.431,0,0.08,0.1
0,229,target,"[(1045, 791)]",[],[1],[0.6833333333333333],vertical,"(390.0, 262.0)",0.65,0.641,1,1305.563,1,0.08,0.1
0,230,target,"[(1037, 772)]",[],[1],[0.5333333333333333],horizontal,"(890.0, 762.0)",1.3,0.492,1,1309.872,1,0.08,0.1
0,231,target,"[(1056, 787)]",[],[1],[0.26666666666666666],vertical,"(890.0, 262.0)",1.4,0.234,1,1315.029,2,0.08,0.1
0,232,target,"[(1053, 786)]",[],[1],[0.5],horizontal,"(390.0, 262.0)",1.3166666666666667,0.461,1,1320.398,2,0.06,0.1
0,233,target,"[(1036, 783)]",[],[1],[0.4],vertical,"(390.0, 262.0)",0.7333333333333333,0.363,1,1325.848,2,0.06,0.1
0,234,target,"[(1055, 796)]",[],[1],[0.6],vertical,"(390.0, 762.0)",1.2,0.559,1,1330.948,2,0.06,0.1
0,235,target,"[(1033, 785)]",[],[1],[0.5833333333333334],horizontal,"(890.0, 262.0)",0.6,0.544,1,1336.264,3,0.06,0.1
0,236,target,"[(1043, 800)]",[],[1],[0.5],horizontal,"(390.0, 762.0)",1.1833333333333333,0.461,1,1341.888,3,0.06,0.1
0,237,target,"[(1061, 796)]",[],[1],[0.5],vertical,"(890.0, 762.0)",0.85,0.459,1,1347.731,3,0.06,0.1
0,238,target,"[(1053, 791)]",[],[1],[0.45],vertical,"(390.0, 762.0)",1.0333333333333332,0.41,1,1353.151,3,0.06,0.1
0,239,target,"[(1052, 766)]",[],[1],[0.5833333333333334],horizontal,"(890.0, 262.0)",1.1,0.542,1,1358.348,3,0.06,0.1
0,240,target,"[(1053, 791)]",[],[1],[0.6],vertical,"(890.0, 262.0)",1.0333333333333332,0.556,1,1363.866,3,0.06,0.1
0,241,target,"[(1046, 790)]",[],[1],[0.5],vertical,"(390.0, 262.0)",0.8833333333333333,0.457,1,1369.915,3,0.06,0.1
0,242,target,"[(1037, 795)]",[],[1],[0.36666666666666664],vertical,"(890.0, 262.0)",1.3333333333333333,0.33,1,1375.714,3,0.06,0.1
0,243,target,"[(1052, 791)]",[],[1],[0.7166666666666667],vertical,"(390.0, 762.0)",0.6833333333333333,0.672,1,1381.646,3,0.06,0.1
0,244,target,"[(1052, 795)]",[],[1],[0.45],vertical,"(390.0, 262.0)",1.3333333333333333,0.41,1,1386.82,3,0.06,0.1
0,245,target,"[(1055, 790)]",[],[1],[0.5166666666666666],vertical,"(390.0, 762.0)",1.15,0.485,1,1392.681,3,0.06,0.1
0,246,target,"[(1045, 771)]",[],[1],[0.5666666666666667],vertical,"(390.0, 762.0)",1.1166666666666667,0.532,1,1398.3,3,0.06,0.1
0,247,target,"[(1055, 764)]",[],[1],[0.35],vertical,"(890.0, 762.0)",1.25,0.315,1,1404.199,3,0.06,0.1
0,248,target,"[(1055, 792)]",[],[1],[0.3833333333333333],vertical,"(390.0, 262.0)",1.4166666666666667,0.345,1,1410.236,3,0.06,0.1
0,249,catch,"[(1037, 775)]",[],[1],[],vertical,"(890.0, 262.0)",1.6,nan,1,1416.215,3,0.06,0.1
0,250,target,"[(1049, 800)]",[],[1],[0.55],vertical,"(890.0, 762.0)",0.8333333333333334,0.503,1,1421.899,3,0.06,0.1
0,251,target,"[(1033, 810)]",[],[1],[0.48333333333333334],horizontal,"(890.0, 762.0)",1.2666666666666666,0.442,1,1427.434,3,0.06,0.1
0,252,target,"[(1035, 792)]",[],[1],[0.5666666666666667],vertical,"(390.0, 262.0)",0.5333333333333333,0.528,1,1435.317,3,0.06,0.1
0,253,target,"[(1052, 776)]",[],[1],[0.85],horizontal,"(890.0, 762.0)",0.7166666666666667,nan,0,1440.582,0,0.06,0.1
0,254,target,"[(1022, 795)]",[],[1],[0.5833333333333334],horizontal,"(390.0, 762.0)",1.0833333333333333,0.545,1,1445.062,1,0.06,0.1
0,255,target,"[(1047, 772)]",[],[1],[0.35],horizontal,"(890.0, 762.0)",1.4666666666666666,0.314,1,1450.089,1,0.06,0.1
0,256,target,"[(1054, 779)]",[],[1],[0.5],horizontal,"(890.0, 262.0)",0.8666666666666667,0.46,1,1455.074,2,0.06,0.1
0,257,target,"[(1042, 797)]",[],[1],[0.16666666666666666],vertical,"(890.0, 262.0)",1.45,0.134,0,1460.022,0,0.04,0.1
0,258,target,"[(1061, 801)]",[],[1],[0.5166666666666666],horizontal,"(890.0, 262.0)",1.0166666666666666,0.476,1,1464.935,1,0.04,0.1
0,259,target,"[(1033, 773)]",[],[1],[0.5833333333333334],vertical,"(890.0, 762.0)",0.8333333333333334,0.544,1,1469.696,1,0.04,0.1
0,260,target,"[(1035, 807)]",[],[1],[0.85],vertical,"(390.0, 762.0)",0.7666666666666666,nan,0,1473.997,0,0.02,0.1
0,261,target,"[(1050, 774)]",[],[1],[0.48333333333333334],vertical,"(890.0, 762.0)",1.1833333333333333,0.443,1,1478.448,1,0.02,0.1
0,262,target,"[(1055, 799)]",[],[1],[0.5833333333333334],vertical,"(390.0, 762.0)",0.9333333333333333,0.544,1,1483.17,1,0.02,0.1
0,263,target,"[(1044, 776)]",[],[1],[0.85],vertical,"(390.0, 762.0)",0.7333333333333333,nan,0,1487.827,0,0.02,0.1
0,264,target,"[(1037, 808)]",[],[1],[0.5],vertical,"(390.0, 262.0)",1.2833333333333332,0.462,1,1492.342,1,0.02,0.1
0,265,target,"[(1041, 796)]",[],[1],[0.55],vertical,"(890.0, 762.0)",1.1333333333333333,0.507,1,1497.483,1,0.02,0.1
0,266,target,"[(1055, 775)]",[],[1],[0.4166666666666667],horizontal,"(890.0, 262.0)",0.8,0.382,1,1502.332,2,0.02,0.1
0,267,target,"[(1034, 821)]",[],[1],[0.5],horizontal,"(390.0, 262.0)",1.0166666666666666,0.46,1,1507.727,2,0.02,0.1
0,268,target,"[(1053, 807)]",[],[1],[0.13333333333333333],vertical,"(390.0, 762.0)",1.5,0.102,0,1537.211,0,0.02,0.1
0,269,target,"[(1037, 796)]",[],[1],[0.6166666666666667],vertical,"(390.0, 262.0)",0.9333333333333333,0.584,1,1542.135,1,0.02,0.1
0,270,target,"[(1032, 772)]",[],[1],[0.5333333333333333],horizontal,"(390.0, 262.0)",0.95,0.492,1,1546.999,1,0.0,0.1
0,271,target,"[(1036, 782)]",[],[1],[0.5166666666666666],vertical,"(890.0, 762.0)",1.0333333333333332,0.478,1,1551.899,2,0.0,0.1
0,272,target,"[(1063, 802)]",[],[1],[0.6166666666666667],vertical,"(390.0, 762.0)",1.2666666666666666,0.569,1,1556.873,2,0.0,0.1
0,273,target,"[(1058, 796)]",[],[1],[0.55],vertical,"(890.0, 262.0)",0.6666666666666666,0.505,1,1562.065,2,0.0,0.1
0,274,catch,"[(1056, 782)]",[],[1],[],horizontal,"(890.0, 762.0)",1.6,nan,1,1566.965,2,0.0,0.1
0,275,target,"[(1053, 772)]",[],[1],[0.6166666666666667],vertical,"(890.0, 262.0)",0.7666666666666666,0.575,1,1572.524,3,0.0,0.1
0,276,target,"[(1062, 800)]",[],[1],[0.6333333333333333],vertical,"(890.0, 762.0)",1.3833333333333333,0.584,1,1577.782,3,0.0,0.1
0,277,target,"[(1035, 769)]",[],[1],[0.4166666666666667],vertical,"(890.0, 762.0)",1.4,0.385,1,1583.359,3,0.0,0.1
0,278,target,"[(1058, 790)]",[],[1],[0.5333333333333333],horizontal,"(890.0, 762.0)",1.2166666666666666,0.502,1,1588.998,3,0.0,0.1
0,279,target,"[(1054, 763)]",[],[1],[0.26666666666666666],horizontal,"(390.0, 762.0)",1.55,0.232,1,1594.634,3,0.0,0.1
0,280,target,"[(1041, 772)]",[],[1],[0.48333333333333334],vertical,"(890.0, 262.0)",0.8166666666666667,0.444,1,1600.631,3,0.0,0.1
0,281,target,"[(1055, 791)]",[],[1],[0.5166666666666666],horizontal,"(390.0, 262.0)",0.6666666666666666,0.48,1,1606.415,3,0.0,0.1
0,282,target,"[(1035, 778)]",[],[1],[0.6],horizontal,"(390.0, 762.0)",0.65,0.559,1,1612.065,3,0.0,0.1
0,283,target,"[(1057, 787)]",[],[1],[0.5],horizontal,"(890.0, 262.0)",1.4666666666666666,0.461,1,1617.433,3,0.0,0.1
0,284,target,"[(1033, 779)]",[],[1],[0.5166666666666666],vertical,"(390.0, 762.0)",1.0,0.476,1,1623.23,3,0.0,0.1
0,285,target,"[(1040, 769)]",[],[1],[0.5333333333333333],vertical,"(390.0, 262.0)",1.2833333333333332,0.498,1,1628.832,3,0.0,0.1
0,286,target,"[(1054, 781)]",[],[1],[0.5333333333333333],vertical,"(390.0, 262.0)",1.0,0.49,1,1634.291,3,0.0,0.1
0,287,catch,"[(1050, 781)]",[],[1],[],vertical,"(890.0, 762.0)",1.6,nan,1,1640.082,3,0.0,0.1
0,288,target,"[(1050, 787)]",[],[1],[0.5833333333333334],horizontal,"(890.0, 762.0)",1.0,0.537,1,1645.731,3,0.0,0.1
0,289,catch,"[(1056, 796)]",[],[1],[],vertical,"(890.0, 762.0)",1.6,nan,1,1651.489,3,0.0,0.1
0,290,catch,"[(1055, 791)]",[],[1],[],horizontal,"(390.0, 762.0)",1.6,nan,1,1657.049,3,0.0,0.1
0,291,target,"[(1056, 784)]",[],[1],[0.4666666666666667],vertical,"(390.0, 762.0)",1.4,0.427,1,1662.533,3,0.0,0.1
0,292,target,"[(1061, 787)]",[],[1],[0.23333333333333334],vertical,"(890.0, 262.0)",1.45,0.198,0,1668.332,0,0.0,0.1
0,293,catch,"[(1033, 803)]",[],[1],[],horizontal,"(890.0, 762.0)",1.6,nan,1,1673.089,1,0.0,0.1
0,294,target,"[(1049, 778)]",[],[1],[0.5333333333333333],vertical,"(390.0, 762.0)",0.5166666666666666,0.494,1,1677.966,1,0.0,0.1
0,295,target,"[(1033, 778)]",[],[1],[0.4166666666666667],horizontal,"(890.0, 262.0)",1.4333333333333333,0.386,1,1682.165,2,0.0,0.1
0,296,target,"[(1033, 774)]",[],[1],[0.4166666666666667],horizontal,"(890.0, 262.0)",1.5333333333333332,0.381,1,1687.699,2,0.0,0.1
0,297,target,"[(1043, 784)]",[],[1],[0.5833333333333334],horizontal,"(390.0, 262.0)",1.05,0.541,1,1693.095,2,0.0,0.1
0,298,target,"[(1052, 797)]",[],[1],[0.7333333333333333],vertical,"(390.0, 762.0)",0.9833333333333333,0.686,1,1698.209,2,0.0,0.1
0,299,target,"[(1045, 784)]",[],[1],[0.5333333333333333],vertical,"(390.0, 262.0)",1.1333333333333333,0.496,1,1703.405,3,0.0,0.1
0,300,target,"[(1036, 769)]",[],[1],[0.85],vertical,"(390.0, 762.0)",0.7333333333333333,nan,0,1709.179,0,0.0,0.1
0,301,target,"[(1033, 795)]",[],[1],[0.5333333333333333],horizontal,"(390.0, 262.0)",0.7666666666666666,0.493,1,1713.898,1,0.0,0.1
0,302,target,"[(1033, 796)]",[],[1],[0.5833333333333334],horizontal,"(390.0, 762.0)",0.5333333333333333,0.543,1,1718.765,1,0.0,0.1
0,303,target,"[(1060, 772)]",[],[1],[0.6166666666666667],horizontal,"(390.0, 262.0)",1.2666666666666666,0.579,1,1723.148,2,0.0,0.1
0,304,target,"[(1053, 798)]",[],[1],[0.65],vertical,"(390.0, 262.0)",0.8,0.607,1,1728.699,2,0.0,0.1
0,305,target,"[(1045, 790)]",[],[1],[0.5666666666666667],horizontal,"(390.0, 262.0)",1.25,0.527,1,1733.766,2,0.0,0.1
0,306,catch,"[(1054, 792)]",[],[1],[],vertical,"(890.0, 262.0)",1.6,nan,1,1738.974,2,0.0,0.1
0,307,target,"[(1065, 784)]",[],[1],[0.6666666666666666],horizontal,"(390.0, 762.0)",0.55,0.629,1,1744.242,3,0.0,0.1
0,308,catch,"[(1052, 773)]",[],[1],[],horizontal,"(390.0, 262.0)",1.6,nan,1,1749.732,3,0.0,0.1
0,309,target,"[(1033, 790)]",[],[1],[0.11666666666666667],horizontal,"(390.0, 762.0)",1.5166666666666666,0.083,0,1755.606,0,0.0,0.1
0,310,target,"[(1054, 820)]",[],[1],[0.21666666666666667],vertical,"(890.0, 262.0)",1.5166666666666666,0.185,0,1760.705,0,0.0,0.1
0,311,target,"[(1057, 802)]",[],[1],[0.5333333333333333],horizontal,"(890.0, 262.0)",0.7166666666666667,0.489,1,1765.328,1,0.0,0.1
0,312,target,"[(1058, 777)]",[],[1],[0.16666666666666666],horizontal,"(890.0, 762.0)",1.5,0.133,0,1769.974,0,0.0,0.1
0,313,target,"[(1057, 800)]",[],[1],[0.5],horizontal,"(890.0, 262.0)",0.8833333333333333,0.458,1,1774.864,1,0.0,0.1
0,314,catch,"[(1034, 791)]",[],[1],[],horizontal,"(890.0, 262.0)",1.6,nan,1,1779.641,1,0.0,0.1
0,315,catch,"[(1060, 802)]",[],[1],[],vertical,"(890.0, 762.0)",1.6,nan,1,1784.415,2,0.0,0.1
0,316,target,"[(1057, 789)]",[],[1],[0.7166666666666667],horizontal,"(390.0, 762.0)",0.7833333333333333,0.672,1,1789.708,2,0.0,0.1
0,317,target,"[(1056, 788)]",[],[1],[0.08333333333333333],vertical,"(390.0, 762.0)",1.5833333333333333,0.05,0,1794.944,0,0.0,0.1
0,318,target,"[(1055, 804)]",[],[1],[0.85],horizontal,"(390.0, 762.0)",0.7333333333333333,nan,0,1800.132,0,0.0,0.1
0,319,target,"[(1033, 799)]",[],[1],[0.5333333333333333],vertical,"(390.0, 262.0)",0.5333333333333333,0.489,1,1804.431,1,0.0,0.1
0,320,target,"[(1065, 786)]",[],[1],[0.85],vertical,"(390.0, 762.0)",0.7166666666666667,nan,0,1808.817,0,0.0,0.1
0,321,target,"[(1051, 798)]",[],[1],[0.5333333333333333],horizontal,"(890.0, 262.0)",0.9666666666666667,0.497,1,1813.114,1,0.0,0.1
0,322,target,"[(1054, 782)]",[],[1],[0.43333333333333335],vertical,"(390.0, 762.0)",1.4,0.391,1,1818.116,1,0.0,0.1
0,323,target,"[(1057, 762)]",[],[1],[0.55],vertical,"(390.0, 762.0)",1.3,0.509,1,1823.44,2,0.0,0.1
0,324,catch,"[(1033, 776)]",[],[1],[],horizontal,"(890.0, 762.0)",1.6,nan,1,1829.227,2,0.0,0.1
0,325,target,"[(1037, 799)]",[],[1],[0.6666666666666666],horizontal,"(890.0, 762.0)",1.2666666666666666,0.619,1,1835.15,2,0.0,0.1
0,326,target,"[(1052, 786)]",[],[1],[0.85],vertical,"(390.0, 762.0)",0.75,nan,0,1840.676,0,0.0,0.1
0,327,target,"[(1034, 794)]",[],[1],[0.85],vertical,"(890.0, 762.0)",0.55,nan,0,1845.141,0,0.0,0.1
0,328,catch,"[(1040, 798)]",[],[1],[],horizontal,"(390.0, 262.0)",1.6,nan,1,1849.633,1,0.0,0.1
0,329,catch,"[(1034, 786)]",[],[1],[],vertical,"(890.0, 762.0)",1.6,nan,1,1855.0,1,0.0,0.1
0,330,target,"[(1062, 787)]",[],[1],[0.6],vertical,"(390.0, 262.0)",1.1333333333333333,0.562,1,1860.605,2,0.0,0.1
0,331,catch,"[(1060, 785)]",[],[1],[],vertical,"(390.0, 762.0)",1.6,nan,1,1865.654,2,0.0,0.1
0,332,target,"[(1047, 786)]",[],[1],[0.2],horizontal,"(890.0, 262.0)",1.4166666666666667,0.17,0,1871.333,0,0.0,0.1
0,333,catch,"[(1058, 798)]",[],[1],[],vertical,"(390.0, 762.0)",1.6,nan,1,1876.267,1,0.0,0.1
0,334,target,"[(1037, 798)]",[],[1],[0.6166666666666667],vertical,"(890.0, 262.0)",1.1166666666666667,0.574,1,1880.949,1,0.0,0.1
0,335,target,"[(1053, 768)]",[],[1],[0.6],horizontal,"(890.0, 762.0)",1.0666666666666667,0.558,1,1885.633,2,0.0,0.1
0,336,target,"[(1052, 801)]",[],[1],[0.5166666666666666],horizontal,"(390.0, 762.0)",1.2666666666666666,0.48,1,1890.966,2,0.0,0.1
0,337,target,"[(1062, 784)]",[],[1],[0.21666666666666667],vertical,"(390.0, 262.0)",1.4833333333333334,0.185,0,1896.078,0,0.0,0.1
0,338,target,"[(1037, 812)]",[],[1],[0.48333333333333334],horizontal,"(890.0, 762.0)",0.7,0.442,1,1900.727,1,0.0,0.1
0,339,target,"[(1057, 785)]",[],[1],[0.26666666666666666],vertical,"(890.0, 762.0)",1.5,0.232,1,1905.638,1,0.0,0.1
0,340,target,"[(1048, 782)]",[],[1],[0.6166666666666667],horizontal,"(390.0, 762.0)",0.7333333333333333,0.574,1,1910.883,2,0.0,0.1
0,341,target,"[(1056, 776)]",[],[1],[0.23333333333333334],horizontal,"(890.0, 262.0)",1.5833333333333333,0.2,1,1915.916,2,0.0,0.1
0,342,target,"[(1057, 766)]",[],[1],[0.31666666666666665],vertical,"(390.0, 262.0)",1.3,0.281,1,1921.515,2,0.0,0.1
0,343,target,"[(1056, 772)]",[],[1],[0.05],vertical,"(390.0, 262.0)",1.4833333333333334,0.02,0,1926.583,0,0.0,0.1
0,344,target,"[(1057, 792)]",[],[1],[0.5333333333333333],horizontal,"(890.0, 762.0)",1.25,0.488,1,1931.183,1,0.0,0.1
0,345,target,"[(1059, 777)]",[],[1],[0.6],horizontal,"(890.0, 762.0)",1.1666666666666667,0.555,1,1936.421,1,0.0,0.1
0,346,target,"[(1057, 778)]",[],[1],[0.6833333333333333],horizontal,"(390.0, 762.0)",1.1,0.638,1,1940.983,2,0.0,0.1
0,347,target,"[(1054, 795)]",[],[1],[0.85],horizontal,"(390.0, 762.0)",0.5833333333333334,nan,0,1946.158,0,0.0,0.1
0,348,target,"[(1033, 802)]",[],[1],[0.6833333333333333],horizontal,"(390.0, 262.0)",0.9666666666666667,0.639,1,1950.455,1,0.0,0.1
0,349,target,"[(1054, 766)]",[],[1],[0.6333333333333333],vertical,"(890.0, 262.0)",1.2,0.592,1,1955.16,1,0.0,0.1
0,350,target,"[(1053, 755)]",[],[1],[0.5333333333333333],horizontal,"(390.0, 262.0)",1.25,0.49,1,1960.233,2,0.0,0.1
0,351,target,"[(1056, 791)]",[],[1],[0.5166666666666666],horizontal,"(390.0, 762.0)",0.6333333333333333,0.474,1,1965.471,2,0.0,0.1
0,352,target,"[(1037, 781)]",[],[1],[0.5666666666666667],vertical,"(890.0, 262.0)",1.0333333333333332,0.521,1,1970.103,2,0.0,0.1
0,353,target,"[(1033, 799)]",[],[1],[0.5],vertical,"(390.0, 762.0)",0.9666666666666667,0.459,1,1975.666,2,0.0,0.1
0,354,target,"[(1056, 794)]",[],[1],[],vertical,"(390.0, 262.0)",,"('cti', 1.162)",0,1981.362,0,0.02,0.1
0,355,target,"[(1034, 802)]",[],[1],[0.5333333333333333],horizontal,"(890.0, 262.0)",0.55,0.492,1,1986.058,1,0.02,0.1
0,356,target,"[(1058, 769)]",[],[1],[0.5],horizontal,"(890.0, 262.0)",1.2833333333333332,0.46,1,1990.46,1,0.02,0.1
0,357,target,"[(1049, 803)]",[],[1],[0.5333333333333333],vertical,"(890.0, 262.0)",0.95,0.49,1,1995.441,2,0.02,0.1
0,358,target,"[(1059, 796)]",[],[1],[0.6333333333333333],vertical,"(390.0, 262.0)",0.5833333333333334,0.593,1,2000.633,2,0.02,0.1
0,359,target,"[(1050, 783)]",[],[1],[0.5833333333333334],horizontal,"(390.0, 262.0)",1.2833333333333332,0.54,1,2005.309,2,0.02,0.1
0,360,target,"[(1054, 790)]",[],[1],[0.5333333333333333],horizontal,"(890.0, 762.0)",0.8666666666666667,0.489,1,2010.516,2,0.02,0.1
0,361,target,"[(1052, 797)]",[],[1],[0.5],horizontal,"(890.0, 262.0)",1.25,0.471,1,2015.85,3,0.02,0.1
0,362,target,"[(1057, 767)]",[],[1],[0.55],horizontal,"(890.0, 762.0)",0.8,0.508,1,2022.183,3,0.02,0.1
0,363,target,"[(1033, 802)]",[],[1],[0.3],vertical,"(890.0, 762.0)",1.4333333333333333,0.263,1,2027.742,3,0.02,0.1
0,364,catch,"[(1037, 783)]",[],[1],[],horizontal,"(390.0, 762.0)",1.6,nan,1,2033.745,3,0.02,0.1
0,365,target,"[(1052, 774)]",[],[1],[0.5833333333333334],horizontal,"(390.0, 262.0)",0.5333333333333333,0.54,1,2039.649,3,0.02,0.1
0,366,target,"[(1055, 798)]",[],[1],[0.48333333333333334],vertical,"(390.0, 762.0)",1.35,0.448,1,2044.567,3,0.02,0.1
0,367,target,"[(1038, 770)]",[],[1],[0.5333333333333333],horizontal,"(390.0, 762.0)",0.6166666666666667,0.49,1,2050.612,3,0.02,0.1
0,368,target,"[(1035, 770)]",[],[1],[],vertical,"(390.0, 262.0)",,"('cti', 1.381)",0,2055.901,0,0.04,0.1
0,369,target,"[(1041, 785)]",[],[1],[0.5333333333333333],horizontal,"(890.0, 762.0)",0.5666666666666667,0.491,1,2060.633,1,0.04,0.1
0,370,target,"[(1041, 785)]",[],[1],[0.48333333333333334],vertical,"(390.0, 262.0)",0.65,0.44,1,2064.815,1,0.04,0.1
0,371,target,"[(1057, 755)]",[],[1],[0.6666666666666666],horizontal,"(890.0, 262.0)",1.0333333333333332,0.628,1,2069.45,2,0.04,0.1
0,372,target,"[(1065, 776)]",[],[1],[0.5666666666666667],vertical,"(890.0, 762.0)",1.0333333333333332,0.521,1,2075.166,2,0.04,0.1
0,373,target,"[(1054, 795)]",[],[1],[0.6166666666666667],horizontal,"(390.0, 762.0)",0.55,0.568,1,2080.273,2,0.04,0.1
0,374,target,"[(1035, 786)]",[],[1],[0.4],vertical,"(390.0, 262.0)",1.4166666666666667,0.357,1,2085.117,2,0.04,0.1
0,375,target,"[(1054, 770)]",[],[1],[0.6166666666666667],vertical,"(390.0, 262.0)",1.0,0.578,1,2090.517,3,0.04,0.1
0,376,catch,"[(1055, 782)]",[],[1],[],vertical,"(890.0, 262.0)",1.6,nan,1,2096.384,3,0.04,0.1
0,377,target,"[(1033, 775)]",[],[1],[0.4166666666666667],vertical,"(890.0, 262.0)",1.45,0.379,1,2102.253,3,0.04,0.1
0,378,target,"[(1056, 782)]",[],[1],[0.48333333333333334],vertical,"(890.0, 762.0)",1.3666666666666667,0.443,1,2107.985,3,0.04,0.1
0,379,target,"[(1054, 795)]",[],[1],[0.5333333333333333],vertical,"(390.0, 262.0)",1.2333333333333334,0.495,1,2113.66,3,0.04,0.1
0,380,target,"[(1034, 772)]",[],[1],[0.55],vertical,"(390.0, 762.0)",1.15,0.506,1,2119.836,3,0.04,0.1
0,381,target,"[(1056, 779)]",[],[1],[0.6333333333333333],horizontal,"(390.0, 762.0)",0.5666666666666667,0.586,1,2125.289,3,0.04,0.1
0,382,target,"[(1037, 798)]",[],[1],[0.85],horizontal,"(390.0, 762.0)",0.8,nan,0,2130.853,0,0.04,0.1
0,383,target,"[(1039, 797)]",[],[1],[0.16666666666666666],vertical,"(390.0, 262.0)",1.5666666666666667,0.133,0,2135.351,0,0.04,0.1
0,384,target,"[(1054, 801)]",[],[1],[0.5166666666666666],horizontal,"(390.0, 762.0)",1.4833333333333334,0.47,1,2140.244,1,0.04,0.1
0,385,target,"[(1054, 796)]",[],[1],[0.6333333333333333],vertical,"(390.0, 762.0)",1.2,0.584,1,2145.851,1,0.04,0.1
0,386,target,"[(1039, 765)]",[],[1],[0.5],vertical,"(390.0, 262.0)",1.35,0.456,1,2150.868,2,0.04,0.1
0,387,target,"[(1057, 773)]",[],[1],[0.5833333333333334],vertical,"(890.0, 762.0)",0.7833333333333333,0.542,1,2156.135,2,0.04,0.1
0,388,catch,"[(1037, 796)]",[],[1],[],vertical,"(390.0, 762.0)",1.6,nan,1,2161.235,2,0.04,0.1
0,389,catch,"[(1057, 786)]",[],[1],[],vertical,"(390.0, 262.0)",,"('cti', 1.437),nan",0,2167.25,0,0.06,0.1
0,390,target,"[(1034, 800)]",[],[1],[0.6666666666666666],horizontal,"(390.0, 762.0)",1.4166666666666667,0.624,1,2171.932,1,0.06,0.1
0,391,target,"[(1058, 779)]",[],[1],[0.6],vertical,"(390.0, 762.0)",0.5,0.56,1,2176.967,1,0.06,0.1
0,392,target,"[(1037, 776)]",[],[1],[0.5166666666666666],vertical,"(890.0, 262.0)",1.0,0.477,1,2181.191,2,0.06,0.1
0,393,target,"[(1054, 772)]",[],[1],[0.6833333333333333],vertical,"(890.0, 262.0)",1.1,0.643,1,2186.193,2,0.06,0.1
0,394,target,"[(1051, 776)]",[],[1],[0.4666666666666667],horizontal,"(390.0, 262.0)",1.4,0.428,1,2191.651,2,0.06,0.1
0,395,target,"[(1056, 777)]",[],[1],[0.5666666666666667],horizontal,"(890.0, 762.0)",1.1333333333333333,0.523,1,2197.285,2,0.06,0.1
0,396,catch,"[(1055, 795)]",[],[1],[],vertical,"(890.0, 762.0)",1.6,nan,1,2202.585,3,0.06,0.1
0,397,target,"[(1055, 797)]",[],[1],[0.6166666666666667],vertical,"(390.0, 762.0)",1.2333333333333334,0.569,1,2208.237,3,0.06,0.1
0,398,catch,"[(1046, 783)]",[],[1],[],vertical,"(390.0, 762.0)",1.6,nan,1,2214.065,3,0.06,0.1
0,399,target,"[(1055, 782)]",[],[1],[0.7],vertical,"(890.0, 762.0)",1.5666666666666667,0.654,1,2219.847,3,0.06,0.1
0,400,target,"[(1037, 783)]",[],[1],[0.5666666666666667],horizontal,"(390.0, 762.0)",0.9,0.53,1,2226.026,3,0.06,0.1
0,401,target,"[(1033, 773)]",[],[1],[0.6],vertical,"(390.0, 762.0)",0.7833333333333333,0.554,1,2231.278,3,0.06,0.1
0,402,target,"[(1037, 772)]",[],[1],[0.65],horizontal,"(390.0, 262.0)",1.0833333333333333,0.606,1,2236.947,3,0.06,0.1
0,403,target,"[(1033, 774)]",[],[1],[0.6166666666666667],vertical,"(890.0, 262.0)",0.7,0.572,1,2242.902,3,0.06,0.1
0,404,target,"[(1058, 786)]",[],[1],[0.45],horizontal,"(390.0, 762.0)",1.35,0.415,1,2248.334,3,0.04,0.1
0,405,target,"[(1038, 768)]",[],[1],[0.48333333333333334],horizontal,"(890.0, 262.0)",1.4,0.442,1,2253.994,3,0.04,0.1
0,406,target,"[(1033, 776)]",[],[1],[0.85],vertical,"(390.0, 762.0)",0.6166666666666667,nan,0,2260.152,0,0.04,0.1
0,407,target,"[(1037, 807)]",[],[1],[0.4],vertical,"(890.0, 762.0)",1.3666666666666667,0.361,1,2264.646,1,0.04,0.1
0,408,target,"[(1054, 774)]",[],[1],[0.5833333333333334],vertical,"(390.0, 762.0)",0.9166666666666666,0.54,1,2269.941,1,0.04,0.1
0,409,target,"[(1047, 775)]",[],[1],[0.16666666666666666],vertical,"(890.0, 262.0)",1.5333333333333332,0.134,0,2274.848,0,0.04,0.1
0,410,target,"[(1037, 799)]",[],[1],[],horizontal,"(890.0, 762.0)",,"('cti', 1.311)",0,2279.618,0,0.06,0.1
0,411,target,"[(1037, 797)]",[],[1],[0.4666666666666667],horizontal,"(390.0, 262.0)",1.4166666666666667,0.427,1,2284.314,1,0.06,0.1
0,412,target,"[(1044, 785)]",[],[1],[0.5833333333333334],vertical,"(390.0, 762.0)",1.25,0.546,1,2289.296,1,0.06,0.1
0,413,target,"[(1055, 772)]",[],[1],[0.43333333333333335],vertical,"(390.0, 762.0)",1.3666666666666667,0.397,1,2294.717,2,0.06,0.1
0,414,target,"[(1036, 787)]",[],[1],[0.65],vertical,"(890.0, 262.0)",0.95,0.603,1,2300.451,2,0.06,0.1
0,415,catch,"[(1046, 785)]",[],[1],[],vertical,"(390.0, 262.0)",1.6,nan,1,2305.433,2,0.06,0.1
0,416,target,"[(1044, 790)]",[],[1],[0.8166666666666667],horizontal,"(390.0, 762.0)",0.9833333333333333,0.774,1,2311.219,2,0.06,0.1
0,417,target,"[(1037, 796)]",[],[1],[0.6666666666666666],horizontal,"(390.0, 762.0)",0.7833333333333333,0.63,1,2316.868,3,0.06,0.1
0,418,target,"[(1055, 775)]",[],[1],[0.5],horizontal,"(890.0, 762.0)",1.0166666666666666,0.458,1,2322.318,3,0.04,0.1
0,419,target,"[(1036, 770)]",[],[1],[0.6166666666666667],vertical,"(390.0, 262.0)",1.2666666666666666,0.579,1,2327.844,3,0.04,0.1
0,420,catch,"[(1059, 781)]",[],[1],[],horizontal,"(390.0, 262.0)",1.6,nan,1,2333.802,3,0.04,0.1
0,421,catch,"[(1041, 781)]",[],[1],[],horizontal,"(890.0, 262.0)",1.6,nan,1,2339.72,3,0.04,0.1
0,422,target,"[(1046, 789)]",[],[1],[0.6166666666666667],vertical,"(890.0, 762.0)",1.05,0.576,1,2345.78,3,0.04,0.1
0,423,target,"[(1056, 786)]",[],[1],[0.11666666666666667],vertical,"(390.0, 762.0)",1.5666666666666667,0.085,0,2351.606,0,0.04,0.1
0,424,target,"[(1057, 789)]",[],[1],[0.5166666666666666],vertical,"(390.0, 262.0)",0.8666666666666667,0.471,1,2356.476,1,0.04,0.1
0,425,target,"[(1058, 776)]",[],[1],[0.85],vertical,"(390.0, 262.0)",0.85,nan,0,2361.044,0,0.04,0.1
0,426,target,"[(1029, 806)]",[],[1],[0.6166666666666667],horizontal,"(390.0, 262.0)",1.1,0.58,1,2365.897,1,0.04,0.1
0,427,target,"[(1068, 791)]",[],[1],[0.55],vertical,"(890.0, 762.0)",0.9,0.508,1,2370.742,1,0.04,0.1
0,428,target,"[(1060, 763)]",[],[1],[0.85],horizontal,"(890.0, 762.0)",0.6833333333333333,nan,0,2375.368,0,0.04,0.1
0,429,target,"[(1033, 774)]",[],[1],[0.6666666666666666],horizontal,"(890.0, 262.0)",0.85,0.63,1,2379.586,1,0.04,0.1
0,430,target,"[(1061, 796)]",[],[1],[0.55],vertical,"(390.0, 262.0)",0.8333333333333334,0.512,1,2384.388,1,0.04,0.1
0,431,target,"[(1054, 764)]",[],[1],[0.55],horizontal,"(390.0, 262.0)",0.7666666666666666,0.509,1,2389.308,2,0.04,0.1
0,432,target,"[(1052, 781)]",[],[1],[0.5666666666666667],horizontal,"(390.0, 762.0)",1.1,0.533,1,2394.592,2,0.04,0.1
0,433,target,"[(1066, 796)]",[],[1],[0.5666666666666667],vertical,"(390.0, 262.0)",0.7333333333333333,0.529,1,2399.985,2,0.04,0.1
0,434,target,"[(1037, 772)]",[],[1],[0.5166666666666666],horizontal,"(890.0, 262.0)",0.9833333333333333,0.474,1,2404.733,2,0.04,0.1
0,435,target,"[(1057, 786)]",[],[1],[0.85],horizontal,"(890.0, 262.0)",0.9333333333333333,nan,0,2409.569,0,0.04,0.1
0,436,catch,"[(1037, 802)]",[],[1],[],vertical,"(890.0, 262.0)",1.6,nan,1,2414.462,1,0.04,0.1
0,437,target,"[(1027, 790)]",[],[1],[0.55],vertical,"(390.0, 262.0)",0.8166666666666667,0.511,1,2419.541,1,0.04,0.1
0,438,target,"[(1038, 771)]",[],[1],[0.85],horizontal,"(390.0, 262.0)",0.8,nan,0,2424.171,0,0.04,0.1
0,439,target,"[(1038, 803)]",[],[1],[0.15],horizontal,"(890.0, 262.0)",1.5,0.116,0,2429.051,0,0.02,0.1
0,440,target,"[(1035, 830)]",[],[1],[0.5333333333333333],vertical,"(890.0, 762.0)",1.4166666666666667,0.499,1,2433.696,1,0.02,0.1
0,441,target,"[(1035, 794)]",[],[1],[0.6166666666666667],vertical,"(390.0, 262.0)",0.75,0.572,1,2497.886,1,0.02,0.1
0,442,target,"[(1049, 791)]",[],[1],[],vertical,"(890.0, 262.0)",,"('cti', 1.36)",0,2502.754,0,0.04,0.1
0,443,target,"[(1058, 815)]",[],[1],[0.5833333333333334],horizontal,"(890.0, 762.0)",1.2,0.542,1,2507.434,1,0.04,0.1
0,444,target,"[(1060, 786)]",[],[1],[0.55],vertical,"(890.0, 762.0)",1.2666666666666666,0.507,1,2512.22,1,0.04,0.1
0,445,target,"[(1068, 806)]",[],[1],[0.43333333333333335],horizontal,"(390.0, 262.0)",1.3333333333333333,0.397,1,2517.136,2,0.04,0.1
0,446,target,"[(1038, 799)]",[],[1],[0.5],horizontal,"(390.0, 262.0)",1.3166666666666667,0.46,1,2522.852,2,0.04,0.1
0,447,target,"[(1042, 799)]",[],[1],[0.5166666666666666],vertical,"(390.0, 762.0)",1.2666666666666666,0.479,1,2528.586,2,0.04,0.1
0,448,target,"[(1069, 799)]",[],[1],[0.3833333333333333],horizontal,"(390.0, 762.0)",1.3166666666666667,0.346,1,2534.019,2,0.04,0.1
0,449,target,"[(1057, 786)]",[],[1],[0.5833333333333334],vertical,"(390.0, 762.0)",1.3833333333333333,0.539,1,2539.31,3,0.04,0.1
0,450,target,"[(1055, 790)]",[],[1],[0.48333333333333334],horizontal,"(390.0, 262.0)",1.2833333333333332,0.444,1,2545.542,3,0.04,0.1
0,451,target,"[(1067, 794)]",[],[1],[],vertical,"(890.0, 262.0)",,"('fix', 0.251)",0,2552.003,0,0.04,0.1
0,452,target,"[(1052, 808)]",[],[1],[0.5166666666666666],vertical,"(390.0, 262.0)",0.75,0.477,1,2553.652,1,0.04,0.1
0,453,target,"[(1065, 799)]",[],[1],[0.6666666666666666],vertical,"(390.0, 262.0)",0.9833333333333333,0.624,1,2558.308,1,0.04,0.1
0,454,target,"[(1066, 769)]",[],[1],[0.5833333333333334],horizontal,"(390.0, 762.0)",0.65,0.539,1,2563.784,2,0.04,0.1
0,455,target,"[(1057, 791)]",[],[1],[0.5],horizontal,"(890.0, 262.0)",1.0333333333333332,0.465,1,2569.092,2,0.04,0.1
0,456,target,"[(1056, 795)]",[],[1],[0.85],horizontal,"(390.0, 262.0)",1.0833333333333333,nan,0,2574.744,0,0.04,0.1
0,457,target,"[(1038, 800)]",[],[1],[0.5833333333333334],horizontal,"(890.0, 762.0)",0.9666666666666667,0.536,1,2579.753,1,0.04,0.1
0,458,target,"[(1067, 786)]",[],[1],[0.45],vertical,"(890.0, 262.0)",1.4666666666666666,0.416,1,2584.769,1,0.04,0.1
0,459,target,"[(1044, 785)]",[],[1],[0.5833333333333334],vertical,"(890.0, 762.0)",0.6666666666666666,0.548,1,2590.008,2,0.04,0.1
0,460,target,"[(1059, 779)]",[],[1],[0.6],vertical,"(890.0, 762.0)",0.55,0.564,1,2594.869,2,0.02,0.1
0,461,target,"[(1036, 815)]",[],[1],[0.6],vertical,"(390.0, 762.0)",1.3,0.565,1,2600.22,2,0.02,0.1
0,462,target,"[(1037, 770)]",[],[1],[0.55],horizontal,"(890.0, 762.0)",1.4,0.514,1,2605.848,2,0.02,0.1
0,463,target,"[(1057, 765)]",[],[1],[0.85],vertical,"(390.0, 762.0)",0.7,nan,0,2611.136,0,0.02,0.1
0,464,target,"[(1035, 803)]",[],[1],[0.13333333333333333],horizontal,"(890.0, 262.0)",1.55,0.103,0,2615.654,0,0.02,0.1
0,465,catch,"[(1029, 797)]",[],[1],[],vertical,"(890.0, 762.0)",1.6,nan,1,2620.771,1,0.02,0.1
0,466,target,"[(1033, 802)]",[],[1],[0.6666666666666666],horizontal,"(390.0, 262.0)",1.1666666666666667,0.625,1,2625.554,1,0.02,0.1
0,467,catch,"[(1054, 791)]",[],[1],[],vertical,"(390.0, 762.0)",,"('cti', 1.116),nan",0,2630.654,0,0.04,0.1
0,468,catch,"[(1029, 799)]",[],[1],[],vertical,"(890.0, 262.0)",1.6,nan,1,2635.019,1,0.04,0.1
0,469,target,"[(1062, 792)]",[],[1],[0.5666666666666667],horizontal,"(390.0, 762.0)",0.55,0.525,1,2639.791,1,0.04,0.1
0,470,target,"[(1052, 794)]",[],[1],[0.36666666666666664],horizontal,"(390.0, 262.0)",1.3666666666666667,0.328,1,2644.236,2,0.04,0.1
0,471,target,"[(1036, 791)]",[],[1],[0.6666666666666666],horizontal,"(890.0, 262.0)",0.55,0.627,1,2649.787,2,0.04,0.1
0,472,target,"[(1057, 785)]",[],[1],[0.5333333333333333],horizontal,"(390.0, 262.0)",1.3666666666666667,0.495,1,2655.096,2,0.04,0.1
0,473,target,"[(1044, 782)]",[],[1],[0.5166666666666666],horizontal,"(390.0, 262.0)",0.5833333333333334,0.479,1,2660.47,2,0.04,0.1
0,474,catch,"[(1038, 769)]",[],[1],[],vertical,"(390.0, 262.0)",1.6,nan,1,2665.252,3,0.04,0.1
0,475,target,"[(1037, 796)]",[],[1],[0.6166666666666667],vertical,"(890.0, 762.0)",1.0833333333333333,0.576,1,2671.18,3,0.04,0.1
0,476,target,"[(1054, 766)]",[],[1],[0.18333333333333332],vertical,"(890.0, 262.0)",1.6,0.152,0,2677.286,0,0.04,0.1
0,477,target,"[(1037, 801)]",[],[1],[0.45],horizontal,"(390.0, 762.0)",1.25,0.42,1,2682.187,1,0.04,0.1
0,478,target,"[(1056, 796)]",[],[1],[0.55],vertical,"(890.0, 262.0)",0.55,0.516,1,2687.482,1,0.04,0.1
0,479,target,"[(1035, 768)]",[],[1],[0.6166666666666667],horizontal,"(390.0, 762.0)",0.9333333333333333,0.579,1,2691.931,2,0.04,0.1
0,480,target,"[(1061, 761)]",[],[1],[0.06666666666666667],horizontal,"(890.0, 762.0)",1.5333333333333332,0.037,0,2697.097,0,0.04,0.1
0,481,target,"[(1056, 795)]",[],[1],[0.5333333333333333],vertical,"(890.0, 762.0)",0.5166666666666666,0.504,1,2701.955,1,0.04,0.1
0,482,target,"[(1041, 773)]",[],[1],[],horizontal,"(390.0, 762.0)",,"('cti', 1.084)",0,2706.174,0,0.06,0.1
0,483,catch,"[(1030, 795)]",[],[1],[],vertical,"(390.0, 762.0)",,"('cti', 1.201),nan",0,2710.688,0,0.08,0.1
0,484,target,"[(1042, 791)]",[],[1],[0.6333333333333333],vertical,"(390.0, 762.0)",1.2,0.591,1,2715.282,1,0.08,0.1
0,485,catch,"[(1035, 790)]",[],[1],[],horizontal,"(390.0, 762.0)",1.6,nan,1,2720.194,1,0.08,0.1
0,486,catch,"[(1056, 782)]",[],[1],[],vertical,"(390.0, 262.0)",1.6,nan,1,2725.635,2,0.08,0.1
0,487,target,"[(1056, 795)]",[],[1],[0.55],vertical,"(890.0, 762.0)",0.7166666666666667,0.511,1,2731.124,2,0.08,0.1
0,488,target,"[(1038, 781)]",[],[1],[0.5333333333333333],vertical,"(890.0, 762.0)",0.9333333333333333,0.505,1,2736.178,2,0.08,0.1
0,489,target,"[(1055, 789)]",[],[1],[0.5666666666666667],vertical,"(390.0, 262.0)",0.6333333333333333,0.529,1,2741.428,2,0.08,0.1
0,490,target,"[(1042, 772)]",[],[1],[0.6],horizontal,"(890.0, 262.0)",0.9166666666666666,0.563,1,2746.314,3,0.08,0.1
0,491,target,"[(1033, 768)]",[],[1],[0.35],vertical,"(390.0, 262.0)",1.25,0.311,1,2751.82,3,0.08,0.1
0,492,catch,"[(1036, 751), (1021, 797)]",[],"[0, 1]",[],vertical,"(390.0, 762.0)",,"('cti', 1.264),nan",0,2757.753,0,0.08,0.1
0,493,target,"[(1020, 795)]",[],[1],[0.7166666666666667],horizontal,"(390.0, 762.0)",1.0666666666666667,0.677,1,2763.578,1,0.08,0.1
0,494,target,"[(1055, 766)]",[],[1],[0.6],vertical,"(390.0, 262.0)",1.2333333333333334,0.56,1,2768.97,1,0.08,0.1
0,495,target,"[(1035, 803)]",[],[1],[0.36666666666666664],vertical,"(890.0, 262.0)",1.5833333333333333,0.33,1,2774.32,2,0.08,0.1
0,496,target,"[(1055, 791)]",[],[1],[0.5],vertical,"(890.0, 262.0)",1.3666666666666667,0.458,1,2780.32,2,0.08,0.1
0,497,target,"[(1037, 797)]",[],[1],"[0.85, 0.85]",horizontal,"(390.0, 762.0)",0.7833333333333333,"0.807,nan",0,2786.276,0,0.08,0.1
0,498,target,"[(1041, 802)]",[],[1],[0.6166666666666667],vertical,"(390.0, 262.0)",1.3833333333333333,0.572,1,2791.107,1,0.08,0.1
0,499,target,"[(1053, 776)]",[],[1],[0.55],vertical,"(390.0, 762.0)",1.2666666666666666,0.52,1,2796.104,1,0.08,0.1
0,500,target,"[(1021, 760)]",[],[1],[0.5833333333333334],horizontal,"(890.0, 262.0)",0.85,0.542,1,2801.105,2,0.08,0.1
0,501,target,"[(1061, 765)]",[],[1],[0.5666666666666667],vertical,"(890.0, 262.0)",1.1666666666666667,0.526,1,2806.12,2,0.08,0.1
0,502,target,"[(1052, 777)]",[],[1],[0.3333333333333333],horizontal,"(890.0, 262.0)",1.5666666666666667,0.294,1,2811.871,2,0.08,0.1
0,503,catch,"[(1056, 769)]",[],[1],[],vertical,"(890.0, 762.0)",1.6,nan,1,2817.018,2,0.08,0.1
0,504,target,"[(1051, 782)]",[],[1],[0.5333333333333333],horizontal,"(390.0, 262.0)",1.3166666666666667,0.497,1,2822.304,3,0.08,0.1
0,505,target,"[(1037, 766)]",[],[1],[0.5333333333333333],vertical,"(390.0, 762.0)",0.9333333333333333,0.5,1,2828.392,3,0.08,0.1
0,506,target,"[(1037, 766)]",[],[1],[0.5166666666666666],vertical,"(390.0, 262.0)",1.2666666666666666,0.477,1,2834.093,3,0.08,0.1
0,507,target,"[(1053, 789)]",[],[1],[0.65],vertical,"(390.0, 762.0)",0.85,0.607,1,2839.604,3,0.08,0.1
0,508,target,"[(1044, 788)]",[],[1],[0.5833333333333334],horizontal,"(890.0, 262.0)",1.0666666666666667,0.54,1,2845.121,3,0.08,0.1
0,509,target,"[(1057, 799)]",[],[1],[0.65],horizontal,"(890.0, 262.0)",0.8666666666666667,0.609,1,2850.903,3,0.08,0.1
0,510,catch,"[(1038, 786)]",[],[1],[],horizontal,"(890.0, 762.0)",1.6,nan,1,2856.898,3,0.08,0.1
0,511,target,"[(1053, 785)]",[],[1],[0.5333333333333333],vertical,"(890.0, 762.0)",0.65,0.496,1,2862.272,3,0.08,0.1
0,512,target,"[(1041, 786)]",[],[1],[0.6666666666666666],horizontal,"(390.0, 262.0)",1.1666666666666667,0.627,1,2867.504,3,0.08,0.1
0,513,target,"[(1052, 774)]",[],[1],[0.5333333333333333],vertical,"(390.0, 262.0)",1.0666666666666667,0.496,1,2873.192,3,0.08,0.1
0,514,target,"[(1058, 788)]",[],[1],[0.5166666666666666],vertical,"(890.0, 762.0)",0.5833333333333334,0.475,1,2878.907,3,0.08,0.1
0,515,target,"[(1058, 799)]",[],[1],[0.23333333333333334],horizontal,"(890.0, 762.0)",1.4666666666666666,0.2,1,2884.288,3,0.08,0.1
0,516,target,"[(1038, 773)]",[],[1],[0.1],horizontal,"(890.0, 262.0)",1.55,0.067,0,2890.296,0,0.08,0.1
0,517,target,"[(1061, 768)]",[],[1],[0.43333333333333335],horizontal,"(390.0, 262.0)",1.5666666666666667,0.391,1,2895.088,1,0.06,0.1
0,518,target,"[(1057, 775)]",[],[1],[0.5],vertical,"(890.0, 262.0)",1.45,0.463,1,2900.555,1,0.06,0.1
0,519,target,"[(1069, 774)]",[],[1],[0.48333333333333334],horizontal,"(390.0, 262.0)",1.2166666666666666,0.445,1,2905.423,2,0.06,0.1
0,520,target,"[(1061, 766)]",[],[1],[0.5333333333333333],vertical,"(890.0, 262.0)",0.8833333333333333,0.49,1,2910.821,2,0.06,0.1
0,521,target,"[(1053, 776)]",[],[1],[],horizontal,"(390.0, 762.0)",,"('cti', 1.01)",0,2916.352,0,0.08,0.1
0,522,target,"[(1033, 779)]",[],[1],[0.5166666666666666],vertical,"(890.0, 762.0)",1.1333333333333333,0.474,1,2920.617,1,0.08,0.1
0,523,target,"[(1054, 771)]",[],[1],[0.5666666666666667],horizontal,"(890.0, 762.0)",0.9,0.522,1,2925.771,1,0.08,0.1
0,524,target,"[(1052, 773)]",[],[1],[0.65],vertical,"(390.0, 762.0)",0.7833333333333333,0.61,1,2930.73,2,0.08,0.1
0,525,target,"[(1038, 776)]",[],[1],[0.5166666666666666],vertical,"(390.0, 762.0)",1.25,0.477,1,2935.87,2,0.08,0.1
0,526,target,"[(1059, 783)]",[],[1],[0.5833333333333334],horizontal,"(390.0, 762.0)",0.8,0.546,1,2941.053,2,0.08,0.1
0,527,target,"[(1052, 773)]",[],[1],[0.5166666666666666],vertical,"(890.0, 262.0)",1.4333333333333333,0.476,1,2946.448,2,0.08,0.1
0,528,catch,"[(1044, 787)]",[],[1],[],vertical,"(890.0, 262.0)",1.6,nan,1,2952.315,3,0.08,0.1
0,529,target,"[(1034, 771)]",[],[1],[0.6],horizontal,"(890.0, 762.0)",1.0333333333333332,0.56,1,2958.382,3,0.08,0.1
0,530,target,"[(1051, 771)]",[],[1],[0.35],horizontal,"(890.0, 762.0)",1.5166666666666666,0.312,1,2964.457,3,0.08,0.1
0,531,target,"[(1058, 774)]",[],[1],[0.3],vertical,"(890.0, 762.0)",1.5666666666666667,0.265,1,2970.588,3,0.08,0.1
0,532,target,"[(1033, 770)]",[],[1],[0.16666666666666666],horizontal,"(390.0, 262.0)",1.5333333333333332,0.137,0,2976.788,0,0.06,0.1
0,533,target,"[(1033, 791)]",[],[1],[0.6],vertical,"(390.0, 262.0)",0.9,0.558,1,2981.288,1,0.04,0.1
0,534,target,"[(1047, 777)]",[],[1],[0.23333333333333334],vertical,"(890.0, 762.0)",1.5333333333333332,0.195,0,2986.289,0,0.04,0.1
0,535,target,"[(1038, 777)]",[],[1],[0.7],horizontal,"(390.0, 262.0)",1.2,0.653,1,2990.904,1,0.04,0.1
0,536,target,"[(1035, 796)]",[],[1],[0.5166666666666666],horizontal,"(890.0, 262.0)",0.7166666666666667,0.474,1,2996.005,1,0.04,0.1
0,537,target,"[(1037, 793)]",[],[1],[0.4666666666666667],horizontal,"(390.0, 262.0)",1.3333333333333333,0.425,1,3001.05,2,0.04,0.1
0,538,target,"[(1037, 788)]",[],[1],[0.35],vertical,"(890.0, 762.0)",1.4333333333333333,0.317,1,3006.778,2,0.04,0.1
0,539,target,"[(1065, 794)]",[],[1],[0.85],vertical,"(890.0, 762.0)",0.5833333333333334,nan,0,3012.167,0,0.04,0.1
0,540,catch,"[(1029, 795)]",[],[1],[],vertical,"(890.0, 762.0)",1.6,nan,1,3016.738,1,0.04,0.1
0,541,target,"[(1054, 776)]",[],[1],[0.6833333333333333],vertical,"(390.0, 762.0)",0.6166666666666667,0.638,1,3022.08,1,0.04,0.1
0,542,target,"[(1052, 769)]",[],[1],[0.5],vertical,"(890.0, 262.0)",0.9666666666666667,0.462,1,3026.586,2,0.02,0.1
0,543,target,"[(1037, 792)]",[],[1],[0.18333333333333332],horizontal,"(390.0, 762.0)",1.45,0.15,0,3031.704,0,0.02,0.1
0,544,target,"[(1026, 808)]",[],[1],[0.7166666666666667],vertical,"(390.0, 762.0)",0.7333333333333333,0.679,1,3036.844,1,0.02,0.1
0,545,target,"[(1037, 761)]",[],[1],[0.3833333333333333],horizontal,"(890.0, 762.0)",1.5833333333333333,0.342,1,3041.618,1,0.02,0.1
0,546,target,"[(1055, 782)]",[],[1],[0.7166666666666667],vertical,"(390.0, 762.0)",1.05,0.677,1,3046.962,2,0.02,0.1
0,547,target,"[(1035, 789)]",[],[1],[0.5333333333333333],vertical,"(890.0, 262.0)",1.3333333333333333,0.491,1,3052.71,2,0.02,0.1
0,548,catch,"[(1053, 777)]",[],[1],[],horizontal,"(390.0, 262.0)",1.6,nan,1,3058.023,2,0.02,0.1
0,549,target,"[(1055, 776)]",[],[1],[0.5166666666666666],vertical,"(390.0, 262.0)",0.5166666666666666,0.479,1,3063.495,2,0.02,0.1
0,550,catch,"[(1036, 766)]",[],[1],[],horizontal,"(890.0, 762.0)",1.6,nan,1,3068.116,3,0.02,0.1
0,551,target,"[(1034, 790)]",[],[1],[0.6],horizontal,"(390.0, 262.0)",0.8,0.559,1,3074.022,3,0.02,0.1
0,552,target,"[(1052, 781)]",[],[1],[0.5333333333333333],vertical,"(890.0, 762.0)",1.3333333333333333,0.494,1,3079.97,3,0.02,0.1
0,553,target,"[(1040, 747), (1033, 825)]",[],"[0, 1]",[0.6333333333333333],horizontal,"(890.0, 262.0)",1.0,0.59,1,3086.051,3,0.02,0.1
0,554,target,"[(1033, 792)]",[],[1],[0.4166666666666667],vertical,"(390.0, 262.0)",1.4833333333333334,0.378,1,3092.588,3,0.02,0.1
0,555,target,"[(1057, 792)]",[],[1],[0.48333333333333334],horizontal,"(390.0, 262.0)",1.05,0.441,1,3098.573,3,0.02,0.1
0,556,target,"[(1044, 781)]",[],[1],"[0.85, 0.85]",vertical,"(390.0, 762.0)",1.5833333333333333,"0.799,nan",0,3103.884,0,0.02,0.1
0,557,target,"[(1041, 799)]",[],[1],[0.4166666666666667],vertical,"(390.0, 762.0)",1.4666666666666666,0.375,1,3108.97,1,0.02,0.1
0,558,target,"[(1056, 795)]",[],[1],[0.6666666666666666],horizontal,"(390.0, 262.0)",0.5666666666666667,0.623,1,3114.304,1,0.02,0.1
0,559,target,"[(1041, 782)]",[],[1],[0.55],vertical,"(390.0, 262.0)",0.65,0.516,1,3118.572,2,0.02,0.1
0,560,target,"[(1041, 775)]",[],[1],[0.5166666666666666],vertical,"(390.0, 262.0)",0.95,0.48,1,3123.231,2,0.02,0.1
0,561,target,"[(1041, 794)]",[],[1],[0.4666666666666667],vertical,"(390.0, 262.0)",0.5166666666666666,0.424,1,3128.18,2,0.02,0.1
0,562,target,"[(1034, 770)]",[],[1],[0.21666666666666667],horizontal,"(390.0, 262.0)",1.55,0.183,0,3132.974,0,0.02,0.1
0,563,target,"[(1037, 803)]",[],[1],[0.4166666666666667],horizontal,"(890.0, 262.0)",1.5833333333333333,0.377,1,3137.663,1,0.02,0.1
0,564,target,"[(1040, 776)]",[],[1],[0.5166666666666666],vertical,"(390.0, 762.0)",1.0333333333333332,0.475,1,3143.02,1,0.02,0.1
0,565,target,"[(1057, 773)]",[],[1],[0.45],vertical,"(890.0, 262.0)",1.3666666666666667,0.41,1,3147.782,2,0.02,0.1
0,566,target,"[(1032, 793)]",[],[1],[0.5],horizontal,"(390.0, 762.0)",1.3,0.458,1,3153.598,2,0.02,0.1
0,567,target,"[(1017, 775)]",[],[1],[0.55],vertical,"(890.0, 762.0)",1.0333333333333332,0.507,1,3159.131,2,0.02,0.1
0,568,target,"[(1054, 796)]",[],[1],[0.85],horizontal,"(390.0, 262.0)",0.5833333333333334,nan,0,3164.302,0,0.02,0.1
0,569,target,"[(1033, 795)]",[],[1],[0.31666666666666665],horizontal,"(890.0, 262.0)",1.5166666666666666,0.278,1,3168.614,1,0.02,0.1
0,570,target,"[(1044, 781)]",[],[1],[0.35],vertical,"(890.0, 262.0)",1.4833333333333334,0.313,1,3174.217,1,0.02,0.1
0,571,catch,"[(1037, 791)]",[],[1],[],horizontal,"(890.0, 262.0)",1.6,nan,1,3179.785,2,0.0,0.1
0,572,catch,"[(1038, 784)]",[],[1],[],horizontal,"(890.0, 262.0)",1.6,nan,1,3185.402,2,0.0,0.1
0,573,catch,"[(1040, 776)]",[],[1],[],horizontal,"(390.0, 262.0)",1.6,nan,1,3191.022,2,0.0,0.1
0,574,target,"[(1054, 769)]",[],[1],[0.5666666666666667],horizontal,"(390.0, 262.0)",1.1833333333333333,0.526,1,3196.61,2,0.0,0.1
0,575,catch,"[(1056, 789)]",[],[1],[],vertical,"(890.0, 262.0)",1.6,nan,1,3202.072,3,0.0,0.1
0,576,target,"[(1037, 780)]",[],[1],[0.5166666666666666],horizontal,"(390.0, 262.0)",1.2,0.475,1,3207.331,3,0.0,0.1
0,577,target,"[(1034, 775)]",[],[1],[0.4666666666666667],horizontal,"(890.0, 262.0)",1.25,0.426,1,3212.993,3,0.0,0.1
0,578,target,"[(1040, 773)]",[],[1],[0.6],vertical,"(890.0, 762.0)",1.2833333333333332,0.553,1,3218.966,3,0.0,0.1
0,579,target,"[(1053, 776)]",[],[1],[0.6833333333333333],vertical,"(890.0, 762.0)",0.5333333333333333,0.634,1,3224.515,3,0.0,0.1
0,580,target,"[(1034, 773)]",[],[1],[0.13333333333333333],horizontal,"(890.0, 262.0)",1.5166666666666666,0.1,0,3229.923,0,0.0,0.1
0,581,catch,"[(1036, 800)]",[],[1],[],vertical,"(390.0, 262.0)",1.6,nan,1,3234.504,1,0.0,0.1
0,582,target,"[(1043, 796)]",[],[1],[0.6],horizontal,"(890.0, 762.0)",1.0833333333333333,0.56,1,3239.655,1,0.0,0.1
0,583,target,"[(1071, 772)]",[],[1],[0.6666666666666666],horizontal,"(890.0, 262.0)",0.5,0.623,1,3245.323,2,0.0,0.1
0,584,target,"[(1037, 806)]",[],[1],[0.43333333333333335],horizontal,"(890.0, 262.0)",1.2333333333333334,0.392,1,3249.908,2,0.0,0.1
0,585,target,"[(1056, 803)]",[],[1],[0.5333333333333333],vertical,"(890.0, 262.0)",1.15,0.493,1,3255.121,2,0.0,0.1
0,586,target,"[(1050, 784)]",[],[1],[0.3333333333333333],horizontal,"(890.0, 262.0)",1.5833333333333333,0.29,1,3260.272,2,0.0,0.1
0,587,target,"[(1053, 780)]",[],[1],[0.6166666666666667],horizontal,"(390.0, 762.0)",0.8833333333333333,0.575,1,3266.188,3,0.0,0.1
0,588,target,"[(1045, 774)]",[],[1],[0.6333333333333333],horizontal,"(890.0, 262.0)",0.5166666666666666,0.591,1,3271.869,3,0.0,0.1
0,589,target,"[(1030, 776)]",[],[1],[0.6833333333333333],horizontal,"(890.0, 762.0)",0.6166666666666667,0.648,1,3277.096,3,0.0,0.1
0,590,target,"[(1049, 792)]",[],[1],[0.5833333333333334],vertical,"(890.0, 262.0)",1.0666666666666667,0.541,1,3282.394,3,0.0,0.1
0,591,target,"[(1041, 774)]",[],[1],[0.5166666666666666],horizontal,"(390.0, 762.0)",0.7666666666666666,0.48,1,3287.972,3,0.0,0.1
0,592,target,"[(1057, 782)]",[],[1],[0.5833333333333334],horizontal,"(890.0, 262.0)",1.15,0.543,1,3293.456,3,0.0,0.1
0,593,target,"[(1054, 766)]",[],[1],[0.6833333333333333],vertical,"(890.0, 762.0)",0.65,0.638,1,3298.953,3,0.0,0.1
0,594,catch,"[(1035, 787)]",[],[1],[],horizontal,"(890.0, 762.0)",1.6,nan,1,3304.522,3,0.0,0.1
0,595,target,"[(1033, 781)]",[],[1],[0.6666666666666666],horizontal,"(390.0, 762.0)",0.6666666666666666,0.621,1,3310.157,3,0.0,0.1
0,596,target,"[(1029, 782)]",[],[1],[0.85],vertical,"(390.0, 762.0)",1.1666666666666667,"('cti', 1.167),nan",0,3315.545,0,0.02,0.1
0,597,target,"[(1017, 851)]",[],[1],[0.5666666666666667],vertical,"(390.0, 262.0)",1.05,0.519,1,3320.851,1,0.02,0.1
0,598,target,"[(1038, 832)]",[],[1],[0.45],horizontal,"(390.0, 262.0)",1.3166666666666667,0.413,1,3368.189,1,0.02,0.1
0,599,target,"[(1020, 771)]",[],[1],[0.48333333333333334],vertical,"(390.0, 262.0)",0.7833333333333333,0.441,1,3373.094,2,0.02,0.1
0,600,target,"[(1049, 790)]",[],[1],[0.5166666666666666],vertical,"(390.0, 262.0)",0.65,0.473,1,3378.227,2,0.02,0.1
0,601,target,"[(1034, 791)]",[],[1],[0.6666666666666666],horizontal,"(390.0, 262.0)",0.5,0.62,1,3383.14,2,0.02,0.1
0,602,target,"[(1036, 800)]",[],[1],[0.5333333333333333],horizontal,"(890.0, 262.0)",0.9833333333333333,0.488,1,3388.323,2,0.02,0.1
0,603,target,"[(1026, 781)]",[],[1],[0.8333333333333334],horizontal,"(390.0, 762.0)",0.85,0.788,1,3393.657,3,0.02,0.1
0,604,target,"[(1045, 791)]",[],[1],[0.6],vertical,"(390.0, 762.0)",0.95,0.557,1,3399.462,3,0.02,0.1
0,605,target,"[(1033, 801)]",[],[1],[0.6],horizontal,"(390.0, 762.0)",1.2,0.552,1,3404.757,3,0.02,0.1
0,606,target,"[(1033, 795)]",[],[1],[0.85],horizontal,"(390.0, 262.0)",0.5166666666666666,nan,0,3410.939,0,0.02,0.1
0,607,target,"[(1021, 800)]",[],[1],[0.5833333333333334],vertical,"(390.0, 262.0)",1.45,0.54,1,3415.325,1,0.02,0.1
0,608,target,"[(1042, 773)]",[],[1],[0.43333333333333335],vertical,"(390.0, 762.0)",0.9833333333333333,0.39,1,3420.506,1,0.02,0.1
0,609,catch,"[(1033, 786)]",[],[1],[],horizontal,"(390.0, 262.0)",1.6,nan,1,3425.807,2,0.02,0.1
0,610,target,"[(1049, 795)]",[],[1],[0.5833333333333334],vertical,"(890.0, 262.0)",0.8833333333333333,0.533,1,3431.289,2,0.02,0.1
0,611,target,"[(1038, 796)]",[],[1],[0.85],vertical,"(890.0, 262.0)",0.7333333333333333,nan,0,3436.39,0,0.02,0.1
0,612,target,"[(1018, 808)]",[],[1],[0.6666666666666666],horizontal,"(390.0, 762.0)",1.2,0.621,1,3441.031,1,0.02,0.1
0,613,target,"[(1017, 822)]",[],[1],[],vertical,"(390.0, 762.0)",,"('cti', 1.284)",0,3446.135,0,0.04,0.1
0,614,target,"[(1033, 852)]",[],[1],[0.5333333333333333],vertical,"(890.0, 762.0)",0.6166666666666667,0.49,1,3450.85,1,0.04,0.1
0,615,catch,"[(1052, 806)]",[],[1],[],vertical,"(390.0, 262.0)",1.6,"('cti', 1.606),nan",0,3515.765,0,0.06,0.1
0,616,target,"[(1043, 802)]",[],[1],[0.3833333333333333],horizontal,"(390.0, 762.0)",1.5333333333333332,0.341,1,3520.667,1,0.06,0.1
0,617,catch,"[(1044, 796)]",[],[1],[],vertical,"(890.0, 762.0)",1.6,nan,1,3525.417,1,0.06,0.1
0,618,target,"[(1040, 799)]",[],[1],[0.35],horizontal,"(390.0, 762.0)",1.45,0.314,1,3530.58,2,0.06,0.1
0,619,target,"[(1045, 771)]",[],[1],[0.48333333333333334],horizontal,"(390.0, 762.0)",1.2333333333333334,0.441,1,3535.945,2,0.06,0.1
0,620,target,"[(1052, 806)]",[],[1],[0.5666666666666667],vertical,"(890.0, 262.0)",0.7833333333333333,0.522,1,3541.355,2,0.06,0.1
0,621,target,"[(1054, 779)]",[],[1],[0.5666666666666667],horizontal,"(390.0, 762.0)",0.6833333333333333,0.528,1,3546.278,2,0.06,0.1
0,622,target,"[(1055, 798)]",[],[1],[0.85],vertical,"(390.0, 762.0)",1.2166666666666666,nan,0,3551.375,0,0.06,0.1
0,623,target,"[(1037, 806)]",[],[1],[0.5333333333333333],horizontal,"(890.0, 262.0)",1.1166666666666667,0.486,1,3556.767,1,0.06,0.1
0,624,target,"[(1052, 786)]",[],[1],[0.6666666666666666],vertical,"(390.0, 262.0)",1.3333333333333333,0.617,1,3562.447,1,0.06,0.1
0,625,target,"[(1054, 791)]",[],[1],[0.45],vertical,"(390.0, 262.0)",1.5,0.404,1,3567.74,2,0.06,0.1
0,626,target,"[(1052, 795)]",[],[1],[0.6],vertical,"(390.0, 762.0)",0.8166666666666667,0.556,1,3573.358,2,0.06,0.1
0,627,target,"[(1041, 787)]",[],[1],[0.35],vertical,"(890.0, 262.0)",1.55,0.315,1,3578.457,2,0.06,0.1
0,628,target,"[(1035, 782)]",[],[1],[0.5166666666666666],vertical,"(890.0, 762.0)",1.45,0.476,1,3583.942,2,0.06,0.1
0,629,target,"[(1053, 792)]",[],[1],[0.6333333333333333],horizontal,"(390.0, 262.0)",0.9166666666666666,0.588,1,3589.203,3,0.06,0.1
0,630,target,"[(1035, 801)]",[],[1],[0.2],horizontal,"(890.0, 762.0)",1.5166666666666666,0.166,0,3595.033,0,0.06,0.1
0,631,target,"[(1037, 773)]",[],[1],[0.5166666666666666],horizontal,"(390.0, 262.0)",1.0833333333333333,0.476,1,3600.509,1,0.06,0.1
0,632,target,"[(1055, 783)]",[],[1],[0.6],horizontal,"(890.0, 762.0)",1.2666666666666666,0.56,1,3605.537,1,0.06,0.1
0,633,target,"[(1063, 778)]",[],[1],[0.6166666666666667],vertical,"(390.0, 762.0)",1.1833333333333333,0.571,1,3610.824,2,0.06,0.1
0,634,target,"[(1048, 799)]",[],[1],[0.13333333333333333],horizontal,"(390.0, 762.0)",1.5833333333333333,0.102,0,3615.95,0,0.06,0.1
0,635,target,"[(1049, 801)]",[],[1],[0.6333333333333333],vertical,"(890.0, 262.0)",0.8,0.584,1,3620.877,1,0.06,0.1
0,636,target,"[(1017, 753), (1042, 825)]",[],"[0, 1]",[0.55],horizontal,"(390.0, 762.0)",0.95,0.514,1,3625.212,1,0.06,0.1
0,637,target,"[(1044, 806)]",[],[1],[],horizontal,"(390.0, 762.0)",,"('cti', 0.572)",0,3638.056,0,0.08,0.1
0,638,target,"[(1040, 814)]",[],[1],[0.55],vertical,"(890.0, 262.0)",0.8,0.513,1,3642.359,1,0.08,0.1
0,639,catch,"[(1052, 756)]",[],[1],[],horizontal,"(390.0, 262.0)",1.6,nan,1,3647.023,1,0.08,0.1
0,640,target,"[(1050, 759)]",[],[1],[0.5333333333333333],horizontal,"(890.0, 262.0)",1.45,0.487,1,3652.203,2,0.08,0.1
0,641,target,"[(1045, 803)]",[],[1],[0.5333333333333333],horizontal,"(890.0, 262.0)",1.25,0.489,1,3657.457,2,0.08,0.1
0,642,target,"[(1045, 788)]",[],[1],[0.6],horizontal,"(390.0, 262.0)",1.35,0.556,1,3662.809,2,0.08,0.1
0,643,target,"[(1035, 775)]",[],[1],[0.85],horizontal,"(390.0, 762.0)",0.8166666666666667,nan,0,3668.444,0,0.08,0.1
0,644,target,"[(1006, 830)]",[],[1],[0.5666666666666667],horizontal,"(890.0, 762.0)",1.3166666666666667,0.522,1,3672.873,1,0.08,0.1
0,645,target,"[(1034, 752), (1036, 806)]",[],"[0, 1]",[0.6166666666666667],horizontal,"(890.0, 262.0)",1.1666666666666667,0.574,1,3685.537,1,0.08,0.1
0,646,target,"[(1032, 771)]",[],[1],[0.48333333333333334],horizontal,"(390.0, 762.0)",1.4,0.442,1,3691.619,2,0.06,0.1
0,647,target,"[(1052, 798)]",[],[1],[0.13333333333333333],vertical,"(390.0, 262.0)",1.3666666666666667,0.1,0,3696.98,0,0.06,0.1
0,648,target,"[(1017, 820)]",[],[1],[0.6],horizontal,"(890.0, 262.0)",0.5833333333333334,0.554,1,3701.9,1,0.06,0.1
0,649,target,"[(1057, 793)]",[],[1],[0.5833333333333334],vertical,"(890.0, 262.0)",0.5,0.539,1,3708.624,1,0.06,0.1
0,650,catch,"[(1036, 799)]",[],[1],[],vertical,"(890.0, 762.0)",1.6,"('cti', 1.585),nan",0,3712.896,0,0.08,0.1
0,651,target,"[(1035, 806)]",[],[1],[0.55],vertical,"(390.0, 262.0)",0.9833333333333333,0.506,1,3717.721,1,0.08,0.1
0,652,catch,"[(1039, 786)]",[],[1],[],vertical,"(390.0, 762.0)",1.6,nan,1,3724.908,1,0.08,0.1
0,653,target,"[(1038, 780)]",[],[1],[0.4166666666666667],horizontal,"(890.0, 262.0)",1.4666666666666666,0.371,1,3730.076,2,0.08,0.1
0,654,target,"[(1056, 776)]",[],[1],[0.18333333333333332],vertical,"(390.0, 762.0)",1.0333333333333332,0.149,0,3735.401,0,0.08,0.1
0,655,target,"[(1052, 798)]",[],[1],[0.25],vertical,"(390.0, 262.0)",1.4666666666666666,0.212,1,3739.675,1,0.08,0.1
0,656,target,"[(1047, 770)]",[],[1],[0.55],vertical,"(390.0, 762.0)",1.5166666666666666,0.504,1,3749.161,1,0.08,0.1
0,657,target,"[(1039, 778)]",[],[1],[],vertical,"(390.0, 762.0)",,"('cti', 0.651)",0,3754.263,0,0.1,0.1
0,658,target,"[(1025, 789)]",[],[1],[0.85],horizontal,"(390.0, 762.0)",0.65,nan,0,3758.409,0,0.1,0.1
0,659,target,"[(1046, 796)]",[],[1],[0.6],horizontal,"(890.0, 262.0)",1.3166666666666667,0.56,1,3763.891,1,0.1,0.1
0,660,target,"[(1037, 786)]",[],[1],[0.85],horizontal,"(890.0, 762.0)",0.7166666666666667,nan,0,3769.476,0,0.1,0.1
0,661,target,"[(1022, 787)]",[],[1],[0.4166666666666667],horizontal,"(890.0, 762.0)",1.4666666666666666,0.384,1,3774.188,1,0.1,0.1
0,662,catch,"[(1047, 767)]",[],[1],[],vertical,"(390.0, 762.0)",1.6,nan,1,3779.377,1,0.1,0.1
0,663,target,"[(1040, 800)]",[],[1],[0.48333333333333334],horizontal,"(890.0, 762.0)",1.3333333333333333,0.445,1,3784.538,2,0.08,0.1
0,664,target,"[(1050, 759)]",[],[1],[0.5666666666666667],vertical,"(390.0, 762.0)",1.2833333333333332,0.525,1,3789.691,2,0.08,0.1
0,665,target,"[(1054, 799)]",[],[1],[0.55],vertical,"(890.0, 262.0)",1.0166666666666666,0.508,1,3795.143,2,0.06,0.1
0,666,catch,"[(1056, 791)]",[],[1],[],horizontal,"(390.0, 762.0)",1.6,nan,1,3800.126,2,0.06,0.1
0,667,target,"[(1053, 770)]",[],[1],[0.5166666666666666],vertical,"(890.0, 762.0)",1.5,0.476,1,3805.129,3,0.06,0.1
0,668,target,"[(1066, 794)]",[],[1],[0.65],horizontal,"(390.0, 762.0)",0.7333333333333333,0.602,1,3811.108,3,0.06,0.1
0,669,target,"[(1034, 791)]",[],[1],[0.55],horizontal,"(390.0, 262.0)",1.2833333333333332,0.515,1,3816.337,3,0.06,0.1
0,670,target,"[(1054, 772)]",[],[1],[0.5166666666666666],vertical,"(390.0, 262.0)",1.0833333333333333,0.474,1,3822.159,3,0.06,0.1
0,671,target,"[(1034, 780)]",[],[1],[0.6166666666666667],horizontal,"(890.0, 762.0)",0.7,0.573,1,3827.491,3,0.06,0.1
0,672,target,"[(1052, 767)]",[],[1],[0.4166666666666667],vertical,"(390.0, 262.0)",1.5,0.377,1,3833.117,3,0.06,0.1
0,673,catch,"[(1056, 775)]",[],[1],[],horizontal,"(390.0, 262.0)",1.6,nan,1,3839.259,3,0.06,0.1
0,674,catch,"[(1032, 772)]",[],[1],[],vertical,"(890.0, 262.0)",1.6,nan,1,3845.225,3,0.06,0.1
0,675,target,"[(1041, 774)]",[],[1],[0.4666666666666667],horizontal,"(890.0, 262.0)",1.3333333333333333,0.426,1,3850.985,3,0.06,0.1
0,676,target,"[(1053, 775)]",[],[1],[0.6333333333333333],vertical,"(390.0, 262.0)",0.5166666666666666,0.592,1,3856.573,3,0.06,0.1
0,677,target,"[(1051, 773)]",[],[1],[0.35],vertical,"(390.0, 262.0)",1.4666666666666666,0.311,1,3861.993,3,0.06,0.1
0,678,target,"[(1049, 773)]",[],[1],[0.48333333333333334],vertical,"(390.0, 262.0)",1.05,0.447,1,3867.992,3,0.06,0.1
0,679,target,"[(1055, 770)]",[],[1],[0.5166666666666666],vertical,"(890.0, 762.0)",0.85,0.476,1,3873.714,3,0.06,0.1
0,680,target,"[(1055, 772)]",[],[1],[],vertical,"(390.0, 762.0)",,"('cti', 1.303)",0,3878.97,0,0.08,0.1
0,681,target,"[(1023, 803)]",[],[1],[0.5833333333333334],vertical,"(890.0, 762.0)",1.1,0.538,1,3883.375,1,0.08,0.1
0,682,target,"[(1039, 766)]",[],[1],[0.5833333333333334],vertical,"(390.0, 762.0)",1.3666666666666667,0.537,1,3888.058,1,0.08,0.1
0,683,target,"[(1052, 773)]",[],[1],[0.8333333333333334],vertical,"(390.0, 762.0)",0.9333333333333333,0.785,1,3893.084,2,0.08,0.1
0,684,target,"[(1064, 794)]",[],[1],[0.5333333333333333],vertical,"(390.0, 262.0)",1.1333333333333333,0.497,1,3898.604,2,0.08,0.1
0,685,target,"[(1044, 803)]",[],[1],[0.85],horizontal,"(390.0, 262.0)",0.65,nan,0,3904.015,0,0.08,0.1
0,686,target,"[(1045, 793)]",[],[1],[0.5666666666666667],horizontal,"(890.0, 262.0)",0.8333333333333334,0.524,1,3908.988,1,0.08,0.1
0,687,target,"[(1037, 778)]",[],[1],[0.6833333333333333],horizontal,"(390.0, 262.0)",0.5666666666666667,0.634,1,3913.358,1,0.06,0.1
0,688,target,"[(1044, 761)]",[],[1],[0.65],horizontal,"(390.0, 762.0)",0.8833333333333333,0.607,1,3917.659,2,0.06,0.1
0,689,target,"[(1052, 798)]",[],[1],[0.5166666666666666],horizontal,"(890.0, 762.0)",0.6166666666666667,0.481,1,3922.618,2,0.06,0.1
0,690,target,"[(1054, 791)]",[],[1],[0.5166666666666666],horizontal,"(890.0, 762.0)",0.8666666666666667,0.474,1,3927.916,2,0.06,0.1
0,691,target,"[(1059, 786)]",[],[1],[0.55],horizontal,"(890.0, 762.0)",0.5666666666666667,0.508,1,3932.776,2,0.06,0.1
0,692,target,"[(1057, 854)]",[],[1],[0.85],vertical,"(890.0, 262.0)",0.8333333333333334,nan,0,3937.777,0,0.06,0.1
0,693,target,"[(1013, 831)]",[],[1],[0.85],vertical,"(890.0, 762.0)",0.5666666666666667,nan,0,4435.578,0,0.06,0.1
0,694,target,"[(1017, 830)]",[],[1],[0.55],horizontal,"(890.0, 762.0)",1.2833333333333332,0.507,1,4442.063,1,0.06,0.1
0,695,target,"[(1036, 805)]",[],[1],[0.3833333333333333],vertical,"(890.0, 762.0)",1.3,0.346,1,4452.207,1,0.06,0.1
0,696,target,"[(1030, 795)]",[],[1],[0.85],vertical,"(390.0, 262.0)",1.0833333333333333,nan,0,4457.544,0,0.06,0.1
0,697,target,"[(1050, 809)]",[],[1],[0.55],vertical,"(890.0, 262.0)",0.8833333333333333,0.517,1,4462.323,1,0.06,0.1
0,698,catch,"[(1052, 881)]",[],[1],[],vertical,"(390.0, 262.0)",1.6,nan,1,4467.078,1,0.06,0.1
0,699,target,"[(1048, 812)]",[],[1],[0.6],horizontal,"(390.0, 262.0)",0.8,0.559,1,4635.864,2,0.06,0.1
0,700,catch,"[(1057, 804)]",[],[1],[],horizontal,"(390.0, 762.0)",1.6,nan,1,4640.879,2,0.04,0.1
0,701,target,"[(1033, 790)]",[],[1],[0.5],horizontal,"(890.0, 262.0)",0.6333333333333333,0.457,1,4646.195,2,0.04,0.1
0,702,target,"[(1044, 801)]",[],[1],[0.5833333333333334],vertical,"(390.0, 262.0)",0.9,0.541,1,4650.679,2,0.04,0.1
0,703,catch,"[(1041, 804)]",[],[1],[],horizontal,"(390.0, 262.0)",1.6,nan,1,4655.816,3,0.04,0.1
0,704,target,"[(1059, 781)]",[],[1],[0.21666666666666667],vertical,"(890.0, 762.0)",1.5333333333333332,0.182,0,4661.575,0,0.04,0.1
0,705,target,"[(1049, 791)]",[],[1],[0.6],horizontal,"(890.0, 262.0)",0.6,0.553,1,4666.148,1,0.04,0.1
0,706,target,"[(1070, 777)]",[],[1],[0.6333333333333333],vertical,"(890.0, 762.0)",1.2333333333333334,0.586,1,4670.967,1,0.04,0.1
0,707,target,"[(1062, 782)]",[],[1],[0.85],horizontal,"(390.0, 762.0)",0.65,nan,0,4675.867,0,0.02,0.1
0,708,target,"[(1036, 803)]",[],[1],[0.5833333333333334],vertical,"(890.0, 262.0)",1.2666666666666666,0.542,1,4680.353,1,0.02,0.1
0,709,catch,"[(1057, 779)]",[],[1],[],vertical,"(390.0, 262.0)",1.6,nan,1,4685.497,1,0.02,0.1
0,710,target,"[(1059, 782)]",[],[1],[],vertical,"(890.0, 262.0)",,"('cti', 1.297)",0,4690.546,0,0.04,0.1
0,711,target,"[(1033, 810)]",[],[1],[0.48333333333333334],vertical,"(390.0, 262.0)",1.3833333333333333,0.444,1,4695.313,1,0.04,0.1
0,712,target,"[(1052, 793)]",[],[1],[0.18333333333333332],horizontal,"(890.0, 762.0)",1.5166666666666666,0.15,0,4700.527,0,0.04,0.1
0,713,target,"[(1039, 786)]",[],[1],[0.6166666666666667],vertical,"(390.0, 762.0)",1.5,0.581,1,4705.1,1,0.04,0.1
0,714,target,"[(1058, 775)]",[],[1],[0.55],horizontal,"(390.0, 262.0)",0.65,0.503,1,4710.529,1,0.04,0.1
0,715,target,"[(1057, 792)]",[],[1],[0.5],vertical,"(890.0, 762.0)",1.1333333333333333,0.462,1,4715.163,2,0.04,0.1
0,716,catch,"[(1049, 782)]",[],[1],[],horizontal,"(890.0, 762.0)",1.6,nan,1,4720.195,2,0.04,0.1
0,717,target,"[(1057, 768)]",[],[1],[0.55],horizontal,"(390.0, 262.0)",0.9333333333333333,0.51,1,4725.471,2,0.04,0.1
0,718,target,"[(1057, 803)]",[],[1],[0.5],horizontal,"(890.0, 262.0)",0.8833333333333333,0.459,1,4730.182,2,0.04,0.1
0,719,catch,"[(1062, 791)]",[],[1],[],vertical,"(390.0, 762.0)",1.6,nan,1,4735.234,3,0.04,0.1
0,720,target,"[(1059, 784)]",[],[1],[0.4],horizontal,"(390.0, 762.0)",1.3666666666666667,0.36,1,4740.862,3,0.04,0.1
0,721,target,"[(1059, 765)]",[],[1],[0.6333333333333333],horizontal,"(890.0, 262.0)",1.05,0.59,1,4746.641,3,0.04,0.1
0,722,target,"[(1052, 787)]",[],[1],[0.6],vertical,"(890.0, 262.0)",0.9666666666666667,0.558,1,4752.68,3,0.04,0.1
0,723,target,"[(1059, 796)]",[],[1],[0.43333333333333335],horizontal,"(390.0, 762.0)",1.3,0.394,1,4758.312,3,0.04,0.1
0,724,target,"[(1038, 769)]",[],[1],[0.65],vertical,"(390.0, 762.0)",0.5666666666666667,0.607,1,4764.251,3,0.04,0.1
0,725,target,"[(1037, 760)]",[],[1],[0.48333333333333334],horizontal,"(890.0, 262.0)",1.15,0.442,1,4769.331,3,0.04,0.1
0,726,target,"[(1005, 801)]",[],[1],[0.85],horizontal,"(890.0, 762.0)",0.55,nan,0,4775.263,0,0.04,0.1
0,727,target,"[(1041, 816)]",[],[1],[0.85],horizontal,"(890.0, 262.0)",0.6833333333333333,nan,0,4786.662,0,0.04,0.1
0,728,target,"[(1040, 801)]",[],[1],[0.5166666666666666],horizontal,"(890.0, 762.0)",1.5,0.476,1,4790.98,1,0.04,0.1
0,729,target,"[(1047, 791)]",[],[1],[0.6166666666666667],vertical,"(890.0, 762.0)",1.0833333333333333,0.572,1,4796.296,1,0.04,0.1
0,730,catch,"[(1043, 802)]",[],[1],[],vertical,"(390.0, 262.0)",1.6,nan,1,4801.564,2,0.02,0.1
0,731,target,"[(1067, 781)]",[],[1],[0.65],vertical,"(390.0, 762.0)",0.5,0.607,1,4806.68,2,0.02,0.1
0,732,target,"[(1053, 794)]",[],[1],[0.43333333333333335],horizontal,"(390.0, 762.0)",1.1833333333333333,0.394,1,4811.313,2,0.02,0.1
0,733,target,"[(1040, 786)]",[],[1],[0.5],horizontal,"(390.0, 262.0)",1.1166666666666667,0.458,1,4816.653,2,0.02,0.1
0,734,target,"[(1052, 770)]",[],[1],[0.43333333333333335],vertical,"(390.0, 262.0)",1.1833333333333333,0.4,1,4822.181,3,0.02,0.1
0,735,target,"[(1059, 770)]",[],[1],[0.5166666666666666],horizontal,"(890.0, 262.0)",1.3,0.476,1,4828.013,3,0.02,0.1
0,736,target,"[(1035, 783)]",[],[1],[0.5166666666666666],horizontal,"(390.0, 262.0)",1.05,0.471,1,4833.613,3,0.02,0.1
0,737,catch,"[(1056, 786)]",[],[1],[],horizontal,"(390.0, 762.0)",1.6,nan,1,4839.135,3,0.02,0.1
0,738,target,"[(1033, 794)]",[],[1],[0.23333333333333334],horizontal,"(390.0, 762.0)",1.4833333333333334,0.199,0,4844.826,0,0.02,0.1
0,739,target,"[(1033, 800)]",[],[1],[0.5166666666666666],horizontal,"(390.0, 762.0)",1.25,0.475,1,4849.696,1,0.02,0.1
0,740,catch,"[(1045, 798)]",[],[1],[],horizontal,"(890.0, 762.0)",1.6,nan,1,4854.823,1,0.02,0.1
0,741,target,"[(1054, 777)]",[],[1],[0.06666666666666667],horizontal,"(890.0, 262.0)",1.5,0.036,0,4859.564,0,0.02,0.1
0,742,target,"[(1033, 799)]",[],[1],[0.43333333333333335],horizontal,"(390.0, 262.0)",1.3166666666666667,0.392,1,4864.214,1,0.02,0.1
0,743,target,"[(1053, 787)]",[],[1],[0.55],vertical,"(890.0, 762.0)",1.0666666666666667,0.504,1,4869.548,1,0.02,0.1
0,744,catch,"[(1068, 801)]",[],[1],[],vertical,"(390.0, 262.0)",1.6,nan,1,4874.359,2,0.02,0.1
0,745,catch,"[(1053, 782)]",[],[1],[],vertical,"(390.0, 262.0)",1.6,nan,1,4879.67,2,0.02,0.1
0,746,target,"[(1053, 791)]",[],[1],[0.2833333333333333],horizontal,"(890.0, 262.0)",1.5333333333333332,0.25,1,4885.131,2,0.02,0.1
0,747,target,"[(1049, 803)]",[],[1],[0.35],horizontal,"(890.0, 762.0)",1.4333333333333333,0.313,1,4890.763,2,0.02,0.1
0,748,catch,"[(1069, 781)]",[],[1],[],vertical,"(390.0, 762.0)",1.6,nan,1,4896.413,3,0.02,0.1
0,749,target,"[(1055, 799)]",[],[1],[0.08333333333333333],horizontal,"(890.0, 762.0)",1.5666666666666667,0.052,0,4901.949,0,0.02,0.1
0,750,target,"[(1052, 798)]",[],[1],[0.85],vertical,"(390.0, 762.0)",0.7166666666666667,nan,0,4906.736,0,0.02,0.1
0,751,catch,"[(1044, 781)]",[],[1],[],horizontal,"(390.0, 762.0)",1.6,nan,1,4911.096,1,0.02,0.1
0,752,target,"[(1046, 807)]",[],[1],[0.35],vertical,"(890.0, 762.0)",1.4666666666666666,0.312,1,4915.946,1,0.02,0.1
0,753,target,"[(1041, 807)]",[],[1],[0.5833333333333334],horizontal,"(890.0, 762.0)",0.8833333333333333,0.537,1,4921.098,2,0.02,0.1
0,754,target,"[(1066, 799)]",[],[1],[0.5833333333333334],vertical,"(890.0, 762.0)",0.95,0.536,1,4927.029,2,0.02,0.1
0,755,target,"[(1063, 778)]",[],[1],[0.5833333333333334],vertical,"(390.0, 262.0)",1.0833333333333333,0.543,1,4932.286,2,0.02,0.1
0,756,catch,"[(1056, 778)]",[],[1],[],vertical,"(390.0, 262.0)",1.6,nan,1,4937.767,2,0.02,0.1
0,757,target,"[(1037, 781)]",[],[1],[0.5166666666666666],horizontal,"(390.0, 262.0)",0.8166666666666667,0.474,1,4943.071,3,0.02,0.1
0,758,target,"[(1055, 777)]",[],[1],[0.4666666666666667],vertical,"(390.0, 262.0)",0.8,0.432,1,4948.928,3,0.02,0.1
0,759,target,"[(1057, 802)]",[],[1],[0.85],vertical,"(890.0, 262.0)",0.8333333333333334,nan,0,4954.998,0,0.02,0.1
0,760,target,"[(1034, 798)]",[],[1],[0.85],vertical,"(390.0, 262.0)",1.2333333333333334,nan,0,4959.542,0,0.0,0.1
0,761,catch,"[(1038, 773)]",[],[1],[],vertical,"(390.0, 262.0)",1.6,nan,1,4964.49,1,0.0,0.1
0,762,catch,"[(1065, 802)]",[],[1],[],horizontal,"(390.0, 262.0)",1.6,nan,1,4969.393,1,0.0,0.1
0,763,target,"[(1052, 789)]",[],[1],[0.5333333333333333],vertical,"(890.0, 262.0)",1.0833333333333333,0.495,1,4974.485,2,0.0,0.1
0,764,target,"[(1053, 796)]",[],[1],[0.26666666666666666],horizontal,"(890.0, 262.0)",1.35,0.228,1,4979.908,2,0.0,0.1
0,765,target,"[(1047, 769)]",[],[1],[0.3833333333333333],vertical,"(390.0, 262.0)",1.35,0.349,1,4985.335,2,0.0,0.1
0,766,target,"[(1057, 796)]",[],[1],[0.2],vertical,"(890.0, 262.0)",1.5666666666666667,0.169,0,4990.854,0,0.0,0.1
0,767,target,"[(1040, 790)]",[],[1],[0.6333333333333333],horizontal,"(890.0, 262.0)",1.3166666666666667,0.588,1,4995.616,1,0.0,0.1
0,768,catch,"[(1033, 766)]",[],[1],[],vertical,"(890.0, 262.0)",1.6,nan,1,5000.897,1,0.0,0.1
0,769,target,"[(1052, 790)]",[],[1],[0.5],vertical,"(390.0, 262.0)",0.9,0.457,1,5005.48,2,0.0,0.1
0,770,target,"[(1063, 806)]",[],[1],[0.85],horizontal,"(890.0, 762.0)",0.7,nan,0,5010.447,0,0.0,0.1
0,771,target,"[(1038, 800)]",[],[1],[0.5],vertical,"(890.0, 262.0)",1.15,0.459,1,5015.205,1,0.0,0.1
0,772,target,"[(1037, 802)]",[],[1],[0.5333333333333333],vertical,"(890.0, 262.0)",0.85,0.492,1,5020.256,1,0.0,0.1
0,773,target,"[(1060, 794)]",[],[1],[0.6666666666666666],vertical,"(390.0, 262.0)",0.5166666666666666,0.619,1,5024.863,2,0.0,0.1
0,774,target,"[(1049, 801)]",[],[1],[0.5333333333333333],vertical,"(390.0, 262.0)",0.7,0.488,1,5029.548,2,0.0,0.1
0,775,target,"[(1057, 796)]",[],[1],[0.85],horizontal,"(390.0, 762.0)",0.5833333333333334,nan,0,5034.13,0,0.0,0.1
0,776,target,"[(1042, 800)]",[],[1],[0.5333333333333333],horizontal,"(890.0, 262.0)",0.9333333333333333,0.489,1,5038.398,1,0.0,0.1
0,777,target,"[(1053, 773)]",[],[1],[0.3333333333333333],vertical,"(890.0, 262.0)",1.5666666666666667,0.3,1,5043.141,1,0.0,0.1
0,778,target,"[(1037, 762)]",[],[1],[0.4],vertical,"(890.0, 262.0)",1.35,0.36,1,5048.584,2,0.0,0.1
0,779,target,"[(1050, 766)]",[],[1],[0.5166666666666666],vertical,"(890.0, 262.0)",0.5833333333333334,0.474,1,5053.927,2,0.0,0.1
0,780,target,"[(1053, 799)]",[],[1],[0.6666666666666666],vertical,"(890.0, 762.0)",1.0166666666666666,0.622,1,5058.386,2,0.0,0.1
0,781,target,"[(1053, 786)]",[],[1],[0.5333333333333333],horizontal,"(390.0, 262.0)",1.1666666666666667,0.484,1,5064.09,2,0.0,0.1
0,782,target,"[(1057, 792)]",[],[1],[0.6],horizontal,"(890.0, 762.0)",0.9166666666666666,0.554,1,5069.198,3,0.0,0.1
0,783,target,"[(1066, 822)]",[],[1],[0.3],vertical,"(890.0, 762.0)",1.3,0.27,1,5075.16,3,0.0,0.1
0,784,target,"[(1051, 776)]",[],[1],[0.5166666666666666],horizontal,"(890.0, 262.0)",0.8166666666666667,0.478,1,5081.482,3,0.0,0.1
0,785,target,"[(1047, 786)]",[],[1],[0.3333333333333333],vertical,"(390.0, 762.0)",1.5,0.294,1,5086.865,3,0.0,0.1
0,786,target,"[(1057, 785)]",[],[1],[0.2833333333333333],horizontal,"(390.0, 262.0)",1.35,0.252,1,5092.599,3,0.0,0.1
0,787,target,"[(1041, 791)]",[],[1],[0.5833333333333334],horizontal,"(890.0, 762.0)",0.8,0.54,1,5098.514,3,0.0,0.1
0,788,target,"[(1055, 811)]",[],[1],[0.85],vertical,"(890.0, 762.0)",0.5666666666666667,nan,0,5103.854,0,0.0,0.1
0,789,target,"[(1032, 776)]",[],[1],[0.55],vertical,"(890.0, 762.0)",0.9666666666666667,0.511,1,5108.264,1,0.0,0.1
0,790,target,"[(1040, 779)]",[],[1],[0.3833333333333333],vertical,"(890.0, 262.0)",1.3166666666666667,0.347,1,5113.583,1,0.0,0.1
0,791,target,"[(1021, 799)]",[],[1],[0.55],horizontal,"(890.0, 262.0)",0.6833333333333333,0.511,1,5118.732,2,0.0,0.1
0,792,target,"[(1049, 791)]",[],[1],[0.5],vertical,"(390.0, 262.0)",0.5666666666666667,0.46,1,5125.68,2,0.0,0.1
0,793,target,"[(1037, 798)]",[],[1],[0.48333333333333334],horizontal,"(890.0, 262.0)",1.3166666666666667,0.44,1,5130.814,2,0.0,0.1
0,794,target,"[(1040, 792)]",[],[1],[0.7666666666666666],vertical,"(390.0, 762.0)",0.5666666666666667,0.724,1,5136.082,2,0.0,0.1
0,795,target,"[(1036, 769)]",[],[1],[0.4166666666666667],horizontal,"(390.0, 262.0)",1.3166666666666667,0.379,1,5140.931,3,0.0,0.1
0,796,target,"[(1052, 793)]",[],[1],[0.4166666666666667],vertical,"(890.0, 762.0)",1.1666666666666667,0.378,1,5146.59,3,0.0,0.1
0,797,catch,"[(1049, 773)]",[],[1],[],vertical,"(390.0, 762.0)",1.6,nan,1,5152.691,3,0.0,0.1
0,798,target,"[(1040, 791)]",[],[1],[0.5333333333333333],vertical,"(890.0, 762.0)",1.0333333333333332,0.49,1,5158.224,3,0.0,0.1
0,799,catch,"[(1052, 782)]",[],[1],[],horizontal,"(390.0, 262.0)",1.6,nan,1,5164.099,3,0.0,0.1
0,800,target,"[(1037, 804)]",[],[1],[0.5833333333333334],horizontal,"(890.0, 262.0)",0.5666666666666667,0.536,1,5170.064,3,0.0,0.1
0,801,target,"[(1049, 801)]",[],[1],[0.85],horizontal,"(390.0, 262.0)",0.6666666666666666,nan,0,5174.949,0,0.0,0.1
0,802,target,"[(1058, 816)]",[],[1],[0.48333333333333334],horizontal,"(390.0, 762.0)",1.2333333333333334,0.444,1,5180.244,1,0.0,0.1
0,803,target,"[(1055, 814)]",[],[1],[0.65],vertical,"(390.0, 762.0)",0.8833333333333333,0.6,1,7672.809,1,0.0,0.1
0,804,target,"[(1047, 794)]",[],[1],[0.85],vertical,"(390.0, 762.0)",0.7666666666666666,nan,0,7677.747,0,0.0,0.1
0,805,catch,"[(1021, 815)]",[],[1],[],vertical,"(390.0, 262.0)",1.6,nan,1,7682.437,1,0.0,0.1
0,806,target,"[(1058, 803)]",[],[1],[0.85],horizontal,"(390.0, 762.0)",0.6,nan,0,7687.035,0,0.0,0.1
0,807,target,"[(1050, 806)]",[],[1],[0.5166666666666666],horizontal,"(390.0, 762.0)",1.5,0.475,1,7691.526,1,0.0,0.1
0,808,target,"[(1057, 805)]",[],[1],[0.6166666666666667],horizontal,"(390.0, 262.0)",0.9,0.575,1,7696.593,1,0.0,0.1
0,809,catch,"[(1061, 807)]",[],[1],[],horizontal,"(390.0, 262.0)",1.6,nan,1,7701.285,2,0.0,0.1
0,810,target,"[(1059, 820)]",[],[1],[0.11666666666666667],vertical,"(390.0, 762.0)",1.4,0.087,0,7706.302,0,0.0,0.1
0,811,target,"[(1033, 835)]",[],[1],[0.6333333333333333],horizontal,"(390.0, 262.0)",1.3833333333333333,0.59,1,7711.366,1,0.0,0.1
0,812,target,"[(1047, 811)]",[],[1],[0.55],horizontal,"(890.0, 262.0)",0.9833333333333333,0.506,1,7716.927,1,0.0,0.1
0,813,target,"[(1056, 795)]",[],[1],[],horizontal,"(390.0, 762.0)",,"('cti', 1.024)",0,7721.96,0,0.02,0.1
0,814,target,"[(1068, 796)]",[],[1],[0.85],vertical,"(890.0, 262.0)",0.7833333333333333,nan,0,7726.526,0,0.02,0.1
0,815,target,"[(1040, 842)]",[],[1],[],vertical,"(890.0, 262.0)",,"('cti', 1.384)",0,7730.994,0,0.04,0.1
0,816,target,"[(1029, 811)]",[],[1],[0.4166666666666667],vertical,"(390.0, 762.0)",1.2666666666666666,0.379,1,7736.202,1,0.04,0.1
0,817,target,"[(1052, 786)]",[],[1],[0.6666666666666666],vertical,"(890.0, 762.0)",0.6333333333333333,0.62,1,7741.36,1,0.04,0.1
0,818,target,"[(1054, 819)]",[],[1],[0.5166666666666666],vertical,"(390.0, 262.0)",1.0166666666666666,0.474,1,7746.26,2,0.04,0.1
0,819,catch,"[(1058, 792)]",[],[1],[],horizontal,"(890.0, 262.0)",1.6,nan,1,7751.559,2,0.04,0.1
0,820,target,"[(1051, 812)]",[],[1],[0.2833333333333333],horizontal,"(390.0, 262.0)",1.05,0.247,1,7756.75,2,0.04,0.1
0,821,target,"[(1055, 802)]",[],[1],[0.6],vertical,"(890.0, 762.0)",0.9166666666666666,0.555,1,7762.258,2,0.04,0.1
0,822,target,"[(1056, 802)]",[],[1],[0.5],horizontal,"(890.0, 262.0)",1.5166666666666666,0.458,1,7767.617,3,0.04,0.1
0,823,target,"[(1057, 778)]",[],[1],[0.7166666666666667],vertical,"(890.0, 762.0)",0.5833333333333334,0.671,1,7773.375,3,0.04,0.1
0,824,target,"[(1038, 796)]",[],[1],[0.7833333333333333],vertical,"(390.0, 262.0)",0.65,0.729,1,7778.494,3,0.04,0.1
0,825,target,"[(1043, 790)]",[],[1],[0.55],horizontal,"(890.0, 762.0)",1.15,0.505,1,7783.876,3,0.04,0.1
0,826,target,"[(1037, 799)]",[],[1],[0.5833333333333334],horizontal,"(890.0, 762.0)",0.9,0.535,1,7789.244,3,0.04,0.1
0,827,target,"[(1060, 795)]",[],[1],[0.48333333333333334],vertical,"(390.0, 762.0)",1.0,0.44,1,7794.559,3,0.04,0.1
0,828,target,"[(1037, 783)]",[],[1],[0.5666666666666667],vertical,"(890.0, 762.0)",1.0,0.521,1,7800.059,3,0.04,0.1
0,829,target,"[(1055, 788)]",[],[1],[0.85],vertical,"(390.0, 762.0)",0.5833333333333334,nan,0,7805.811,0,0.04,0.1
0,830,target,"[(1040, 796)]",[],[1],[0.85],horizontal,"(890.0, 262.0)",1.4666666666666666,nan,0,7809.909,0,0.04,0.1
0,831,target,"[(1052, 851)]",[],[1],[0.2833333333333333],vertical,"(390.0, 762.0)",1.45,0.249,1,7815.453,1,0.04,0.1
0,832,target,"[(1052, 790)]",[],[1],[0.5166666666666666],horizontal,"(890.0, 762.0)",1.05,0.473,1,7820.859,1,0.04,0.1
0,833,target,"[(1037, 786)]",[],[1],[0.85],horizontal,"(890.0, 762.0)",0.65,nan,0,7825.859,0,0.04,0.1
0,834,target,"[(1040, 813)]",[],[1],[0.4166666666666667],vertical,"(390.0, 262.0)",1.3833333333333333,0.372,1,7830.082,1,0.04,0.1
0,835,target,"[(1063, 781)]",[],[1],[0.55],vertical,"(890.0, 762.0)",0.6666666666666666,0.507,1,7834.894,1,0.04,0.1
0,836,catch,"[(1041, 778)]",[],[1],[],horizontal,"(890.0, 262.0)",,"('cti', 1.464),nan",0,7838.959,0,0.06,0.1
0,837,target,"[(1060, 800)]",[],[1],[0.55],horizontal,"(890.0, 262.0)",0.9666666666666667,0.501,1,7843.795,1,0.06,0.1
0,838,target,"[(1055, 781)]",[],[1],[0.4666666666666667],vertical,"(390.0, 762.0)",1.3666666666666667,0.428,1,7848.567,1,0.06,0.1
0,839,target,"[(1039, 787)]",[],[1],[0.6],horizontal,"(890.0, 262.0)",0.7666666666666666,0.555,1,7853.527,2,0.06,0.1
0,840,target,"[(1055, 786)]",[],[1],[0.6333333333333333],vertical,"(390.0, 262.0)",0.5666666666666667,0.581,1,7858.727,2,0.06,0.1
0,841,target,"[(1041, 802)]",[],[1],[0.48333333333333334],vertical,"(390.0, 762.0)",1.2666666666666666,0.438,1,7863.722,2,0.06,0.1
0,842,target,"[(1057, 807)]",[],[1],[0.55],horizontal,"(390.0, 262.0)",0.9333333333333333,0.51,1,7868.805,2,0.06,0.1
0,843,target,"[(1057, 809)]",[],[1],[0.6166666666666667],horizontal,"(890.0, 262.0)",0.9666666666666667,0.568,1,7874.431,3,0.06,0.1
0,844,target,"[(1040, 782)]",[],[1],[],vertical,"(390.0, 762.0)",,"('cti', 1.483)",0,7880.24,0,0.08,0.1
0,845,target,"[(1058, 781)]",[],[1],[0.3],horizontal,"(890.0, 262.0)",1.2666666666666666,0.261,1,7884.781,1,0.08,0.1
0,846,target,"[(1034, 788)]",[],[1],[0.6333333333333333],vertical,"(890.0, 762.0)",0.7833333333333333,0.587,1,7890.127,1,0.08,0.1
0,847,catch,"[(1057, 781)]",[],[1],[],horizontal,"(890.0, 262.0)",1.6,nan,1,7894.998,2,0.08,0.1
0,848,target,"[(1055, 799)]",[],[1],[0.5166666666666666],horizontal,"(890.0, 762.0)",0.9333333333333333,0.476,1,7900.039,2,0.08,0.1
