block,trial,trial_type,taps_start_loc_during_fix,taps_end_loc_during_fix,taps_on_lever_during_fix,taps_on_lever_s_during_fix,bar_orientation,target_xy,cti,rt,acc,time,pulses,fa_rate_recent100,actual_invalid_type
0,1,valid,"[(1130, 823)]",[],[1],[0.5166666666666666],vertical,"(890.0, 262.0)",1.1,0.482,1,0.578,1,0.0,same
0,2,valid,"[(1122, 797)]",[],[1],[0.5166666666666666],horizontal,"(890.0, 762.0)",0.7666666666666666,0.477,1,1039.068,1,0.0,same
0,3,valid,"[(1106, 793)]","[(1086, 889)]",[1],[0.2833333333333333],horizontal,"(890.0, 262.0)",,"('bar', 0.3)",0,1047.162,0,0.0,same
0,4,valid,"[(1127, 830)]",[],[1],[0.85],horizontal,"(890.0, 262.0)",0.8,nan,0,1062.357,0,0.0,same
0,5,catch,"[(1133, 848)]",[],[1],[],vertical,"(390.0, 762.0)",1.7,nan,1,1974.888,1,0.0,same
0,6,valid,"[(1157, 820)]",[],[1],[0.65],vertical,"(390.0, 262.0)",0.36666666666666664,0.606,1,1980.465,1,0.0,same
0,7,valid,"[(1127, 846)]",[],[1],[0.6833333333333333],horizontal,"(390.0, 262.0)",0.48333333333333334,0.637,1,1985.004,1,0.0,same
0,8,valid,"[(1139, 826)]",[],[1],[0.85],horizontal,"(890.0, 262.0)",0.65,nan,0,1989.455,0,0.0,same
0,9,valid,"[(1127, 834)]",[],[1],[0.6666666666666666],horizontal,"(890.0, 262.0)",1.35,0.625,1,1994.348,1,0.0,same
0,10,catch,"[(1168, 814)]",[],[1],[],horizontal,"(390.0, 262.0)",1.7,nan,1,2016.144,1,0.0,same
0,11,catch,"[(1145, 823)]",[],[1],[],horizontal,"(890.0, 262.0)",1.7,nan,1,2021.514,1,0.0,same
0,12,catch,"[(1142, 830)]",[],[1],[],vertical,"(890.0, 262.0)",1.7,nan,1,2027.142,2,0.0,same
0,13,valid,"[(1183, 843)]",[],[1],[0.85],vertical,"(390.0, 262.0)",0.8833333333333333,nan,0,2033.009,0,0.0,same
0,14,valid,"[(1177, 842)]",[],[1],[0.85],horizontal,"(390.0, 762.0)",1.4833333333333334,nan,0,2037.382,0,0.0,same
0,15,catch,"[(1138, 855)]",[],[1],[],vertical,"(390.0, 762.0)",1.7,nan,1,2045.313,1,0.0,same
0,16,valid,"[(1163, 831)]",[],[1],[0.5333333333333333],vertical,"(890.0, 262.0)",0.7166666666666667,0.492,1,4206.531,1,0.0,same
0,17,invalid_adjacent_other_bar,"[(1170, 830)]",[],[1],[0.85],vertical,"(890.0, 762.0)",1.15,nan,0,4211.645,0,0.0,other
0,18,valid,"[(1078, 854)]",[],[1],[0.36666666666666664],horizontal,"(390.0, 262.0)",1.2833333333333332,0.326,1,4216.417,1,0.0,same
0,19,valid,"[(1085, 902)]",[],[1],[0.4],horizontal,"(390.0, 262.0)",1.4333333333333333,0.358,1,10023.612,1,0.0,same
0,20,catch,"[(1104, 851)]",[],[1],[],vertical,"(890.0, 262.0)",1.7,nan,1,10029.739,1,0.0,same
0,21,valid,"[(1145, 817)]",[],[1],[0.85],horizontal,"(890.0, 762.0)",0.3833333333333333,nan,0,10426.155,0,0.0,same
0,22,valid,"[(1091, 842)]",[],[1],[0.6166666666666667],horizontal,"(890.0, 262.0)",0.3833333333333333,0.585,1,10430.991,1,0.0,same
0,23,valid,"[(1125, 823)]",[],[1],[0.7333333333333333],horizontal,"(890.0, 762.0)",0.95,0.688,1,10435.846,1,0.0,same
0,24,valid,"[(1166, 823)]",[],[1],[0.85],vertical,"(390.0, 262.0)",0.4666666666666667,nan,0,10441.287,0,0.0,same
0,25,valid,"[(1086, 842)]",[],[1],[0.5666666666666667],horizontal,"(890.0, 262.0)",1.5166666666666666,0.52,1,10445.991,1,0.0,same
0,26,valid,"[(1155, 816)]",[],[1],[0.65],horizontal,"(890.0, 262.0)",0.43333333333333335,0.612,1,10453.987,1,0.0,same
0,27,catch,"[(1165, 789)]",[],[1],[],horizontal,"(890.0, 262.0)",1.7,nan,1,10458.773,1,0.0,same
0,28,valid,"[(1167, 823)]",[],[1],[0.85],vertical,"(390.0, 262.0)",1.4833333333333334,nan,0,10464.46,0,0.0,same
0,29,valid,"[(1129, 827)]",[],[1],[0.85],horizontal,"(890.0, 262.0)",0.48333333333333334,nan,0,10470.125,0,0.0,same
0,30,invalid_adjacent_other_bar,"[(1160, 797)]",[],[1],[0.85],horizontal,"(890.0, 762.0)",0.4166666666666667,nan,0,10474.474,0,0.0,other
0,31,valid,"[(1160, 785)]",[],[1],[0.55],horizontal,"(890.0, 262.0)",0.8,0.51,1,10479.448,1,0.0,same
0,32,valid,"[(1170, 809)]",[],[1],[0.6166666666666667],vertical,"(890.0, 262.0)",1.3333333333333333,0.584,1,10485.391,1,0.0,same
0,33,valid,"[(1158, 832)]",[],[1],[0.5666666666666667],horizontal,"(890.0, 762.0)",1.15,0.527,1,10490.723,1,0.0,same
0,34,valid,"[(1197, 820)]",[],[1],[0.85],horizontal,"(890.0, 762.0)",0.36666666666666664,nan,0,10496.384,0,0.0,same
0,35,valid,"[(1156, 812)]",[],[1],[0.85],vertical,"(890.0, 262.0)",0.7333333333333333,nan,0,10500.507,0,0.0,same
0,36,invalid_adjacent_other_bar,"[(1127, 799)]",[],[1],[0.85],vertical,"(390.0, 762.0)",0.8833333333333333,nan,0,10504.889,0,0.0,other
0,37,valid,"[(1157, 813)]",[],[1],[0.85],vertical,"(390.0, 262.0)",1.3333333333333333,nan,0,10509.956,0,0.0,same
0,38,valid,"[(1150, 806)]",[],[1],[0.5166666666666666],vertical,"(890.0, 762.0)",0.8166666666666667,0.479,1,10515.192,1,0.0,same
0,39,invalid_adjacent_other_bar,"[(1179, 815)]",[],[1],[0.85],vertical,"(390.0, 762.0)",1.25,nan,0,10520.032,0,0.0,other
0,40,valid,"[(1178, 819)]",[],[1],[0.5],horizontal,"(890.0, 262.0)",0.4666666666666667,0.466,1,10524.873,1,0.0,same
0,41,invalid_same_bar,"[(1165, 809)]",[],[1],[0.85],vertical,"(890.0, 262.0)",0.9833333333333333,nan,0,10529.589,0,0.0,same
0,42,valid,"[(1122, 833)]",[],[1],[0.55],horizontal,"(890.0, 262.0)",0.7,0.509,1,10534.641,1,0.0,same
0,43,catch,"[(1150, 837)]",[],[1],[],horizontal,"(890.0, 762.0)",1.7,nan,1,11108.696,1,0.0,same
0,44,valid,"[(1162, 802)]",[],[1],[0.7333333333333333],horizontal,"(890.0, 762.0)",0.8666666666666667,0.686,1,11114.125,1,0.0,same
0,45,valid,"[(1162, 803)]",[],[1],[0.85],vertical,"(390.0, 262.0)",0.8166666666666667,nan,0,11119.443,0,0.0,same
0,46,catch,"[(1169, 826)]",[],[1],[],vertical,"(890.0, 262.0)",1.7,nan,1,11124.676,1,0.0,same
0,47,valid,"[(1170, 799)]",[],[1],[0.7833333333333333],vertical,"(890.0, 762.0)",0.6833333333333333,0.734,1,11130.731,1,0.0,same
0,48,valid,"[(1169, 812)]",[],[1],[0.65],vertical,"(390.0, 262.0)",1.2333333333333334,0.609,1,11135.942,1,0.0,same
0,49,catch,"[(1167, 771)]",[],[1],[],vertical,"(890.0, 262.0)",1.7,nan,1,11141.261,2,0.0,same
0,50,valid,"[(1180, 789)]",[],[1],[0.6],horizontal,"(890.0, 762.0)",0.7,0.556,1,11147.13,2,0.0,same
0,51,catch,"[(1160, 803)]",[],[1],[],vertical,"(890.0, 262.0)",1.7,nan,1,11151.76,2,0.0,same
0,52,catch,"[(1166, 796)]",[],[1],[],horizontal,"(890.0, 762.0)",1.7,nan,1,11157.843,3,0.0,same
0,53,catch,"[(1165, 794)]",[],[1],[],vertical,"(890.0, 262.0)",1.7,nan,1,11164.295,3,0.0,same
0,54,valid,"[(1181, 829)]",[],[1],[0.6],vertical,"(890.0, 762.0)",0.6,0.557,1,11170.061,3,0.0,same
0,55,catch,"[(1165, 789)]",[],[1],[],horizontal,"(390.0, 762.0)",1.7,nan,1,11175.731,3,0.0,same
0,56,valid,"[(1163, 792)]",[],[1],[0.6666666666666666],horizontal,"(890.0, 762.0)",1.0166666666666666,0.626,1,11181.525,3,0.0,same
0,57,valid,"[(1165, 809)]",[],[1],[0.48333333333333334],horizontal,"(890.0, 262.0)",0.8666666666666667,0.441,1,11187.443,3,0.0,same
0,58,valid,"[(1165, 795)]",[],[1],[0.55],vertical,"(890.0, 762.0)",0.6666666666666666,0.514,1,11193.119,3,0.0,same
0,59,valid,"[(1208, 833)]",[],[1],[0.5166666666666666],horizontal,"(890.0, 262.0)",1.3833333333333333,0.472,1,11198.967,3,0.0,same
0,60,valid,"[(1173, 806)]",[],[1],[0.5333333333333333],horizontal,"(390.0, 762.0)",0.7333333333333333,0.489,1,11204.858,3,0.0,same
0,61,catch,"[(1145, 811)]",[],[1],[],horizontal,"(390.0, 262.0)",1.7,nan,1,11210.542,3,0.0,same
0,62,valid,"[(1173, 795)]",[],[1],[0.5],vertical,"(390.0, 262.0)",0.5,0.462,1,11216.571,3,0.0,same
0,63,valid,"[(1172, 797)]",[],[1],"[0.85, 0.85]",vertical,"(890.0, 762.0)",1.35,"0.795,nan",0,11221.609,0,0.0,same
0,64,valid,"[(1131, 848)]",[],[1],[0.55],horizontal,"(390.0, 262.0)",1.3833333333333333,0.504,1,11226.585,1,0.0,same
0,65,invalid_same_bar,"[(1166, 808)]",[],[1],[0.48333333333333334],horizontal,"(890.0, 262.0)",0.36666666666666664,0.442,1,11232.283,1,0.0,same
0,66,valid,"[(1161, 793)]",[],[1],[0.5333333333333333],horizontal,"(890.0, 762.0)",1.5166666666666666,0.491,1,11236.508,1,0.0,same
0,67,catch,"[(1190, 804)]",[],[1],[],vertical,"(390.0, 262.0)",1.7,nan,1,11242.292,2,0.0,same
0,68,valid,"[(1179, 788)]",[],[1],[0.85],vertical,"(390.0, 262.0)",0.36666666666666664,nan,0,11247.908,0,0.0,same
0,69,catch,"[(1149, 813)]",[],[1],[],vertical,"(890.0, 762.0)",1.7,nan,1,11252.143,1,0.0,same
0,70,invalid_adjacent_other_bar,"[(1180, 805)]",[],[1],[0.85],horizontal,"(890.0, 262.0)",1.15,nan,0,11257.426,0,0.0,other
0,71,valid,"[(1180, 804)]",[],[1],[0.48333333333333334],vertical,"(390.0, 762.0)",1.4833333333333334,0.438,1,11262.642,1,0.0,same
0,72,invalid_same_bar,"[(1168, 793)]",[],[1],[0.5333333333333333],horizontal,"(890.0, 762.0)",1.2666666666666666,0.491,1,11268.175,1,0.0,same
0,73,valid,"[(1179, 799)]",[],[1],[0.5],vertical,"(890.0, 262.0)",0.6833333333333333,0.457,1,11273.093,1,0.0,same
0,74,valid,"[(1160, 787)]",[],[1],[0.7833333333333333],horizontal,"(890.0, 762.0)",1.2833333333333332,0.737,1,11278.059,2,0.0,same
0,75,valid,"[(1180, 799)]",[],[1],[0.5],horizontal,"(890.0, 762.0)",0.9666666666666667,0.459,1,11284.575,2,0.0,same
0,76,valid,"[(1169, 802)]",[],[1],[0.6166666666666667],vertical,"(390.0, 262.0)",1.1666666666666667,0.565,1,11289.609,2,0.0,same
0,77,valid,"[(1175, 799)]",[],[1],[0.5166666666666666],vertical,"(890.0, 762.0)",0.5666666666666667,0.474,1,11294.921,3,0.0,same
0,78,valid,"[(1170, 787)]",[],[1],[0.6166666666666667],vertical,"(390.0, 762.0)",1.1666666666666667,0.574,1,11300.663,3,0.0,same
0,79,valid,"[(1173, 790)]",[],[1],[0.6833333333333333],vertical,"(390.0, 262.0)",1.1833333333333333,0.637,1,11306.309,3,0.0,same
0,80,valid,"[(1172, 802)]",[],[1],[0.5333333333333333],vertical,"(890.0, 762.0)",0.9833333333333333,0.489,1,11312.492,3,0.0,same
0,81,valid,"[(1165, 809)]",[],[1],[0.5166666666666666],horizontal,"(390.0, 262.0)",0.5166666666666666,0.476,1,11318.107,3,0.0,same
0,82,valid,"[(1180, 806)]",[],[1],[0.5166666666666666],horizontal,"(890.0, 762.0)",1.1333333333333333,0.477,1,11323.125,3,0.0,same
0,83,catch,"[(1180, 789)]",[],[1],[],horizontal,"(890.0, 762.0)",1.7,nan,1,11328.893,3,0.0,same
0,84,catch,"[(1177, 817)]",[],[1],[],horizontal,"(890.0, 762.0)",1.7,nan,1,11334.643,3,0.0,same
0,85,catch,"[(1178, 792)]",[],[1],[],horizontal,"(890.0, 762.0)",1.7,nan,1,11341.019,3,0.0,same
0,86,valid,"[(1178, 785)]",[],[1],[0.5833333333333334],horizontal,"(890.0, 762.0)",0.85,0.542,1,11346.692,3,0.0,same
0,87,valid,"[(1175, 800)]",[],[1],[0.5333333333333333],horizontal,"(890.0, 762.0)",1.2166666666666666,0.495,1,11352.025,3,0.0,same
0,88,catch,"[(1204, 802)]",[],[1],[],horizontal,"(890.0, 262.0)",1.7,nan,1,11357.875,3,0.0,same
0,89,catch,"[(1140, 809)]",[],[1],[],vertical,"(390.0, 262.0)",1.7,nan,1,11363.892,3,0.0,same
0,90,valid,"[(1166, 794)]",[],[1],[0.5833333333333334],horizontal,"(390.0, 262.0)",0.95,0.541,1,11370.145,3,0.0,same
0,91,valid,"[(1169, 799)]",[],[1],[0.5166666666666666],vertical,"(390.0, 262.0)",1.15,0.481,1,11376.076,3,0.0,same
0,92,valid,"[(1180, 802)]",[],[1],[0.48333333333333334],vertical,"(890.0, 262.0)",0.7333333333333333,0.44,1,11381.792,3,0.0,same
0,93,valid,"[(1180, 789)]",[],[1],[0.48333333333333334],vertical,"(390.0, 762.0)",0.65,0.44,1,11387.464,3,0.0,same
0,94,catch,"[(1175, 801)]",[],[1],[],vertical,"(390.0, 762.0)",1.7,nan,1,11392.927,3,0.0,same
0,95,valid,"[(1181, 806)]",[],[1],[0.55],horizontal,"(390.0, 262.0)",0.95,0.511,1,11398.842,3,0.0,same
0,96,valid,"[(1170, 805)]",[],[1],[0.55],vertical,"(390.0, 762.0)",0.35,0.508,1,11405.149,3,0.0,same
0,97,valid,"[(1175, 789)]",[],[1],[0.5],horizontal,"(390.0, 762.0)",1.1666666666666667,0.461,1,11410.047,3,0.0,same
0,98,valid,"[(1116, 811)]",[],[1],[0.7666666666666666],horizontal,"(890.0, 762.0)",0.75,0.721,1,11415.682,3,0.0,same
0,99,valid,"[(1163, 787)]",[],[1],[0.7166666666666667],vertical,"(390.0, 762.0)",0.9666666666666667,0.681,1,11423.127,3,0.0,same
0,100,valid,"[(1180, 802)]",[],[1],[0.48333333333333334],horizontal,"(890.0, 262.0)",1.1166666666666667,0.444,1,11429.193,3,0.0,same
0,101,valid,"[(1165, 792)]",[],[1],[0.55],vertical,"(890.0, 762.0)",0.36666666666666664,0.508,1,11434.777,3,0.0,same
0,102,invalid_adjacent_other_bar,"[(1185, 808)]",[],[1],[0.48333333333333334],horizontal,"(390.0, 262.0)",0.8833333333333333,0.444,1,11439.662,3,0.0,other
0,103,catch,"[(1146, 794)]",[],[1],[],vertical,"(890.0, 762.0)",1.7,nan,1,11445.078,3,0.0,same
0,104,valid,"[(1175, 796)]",[],[1],[0.65],vertical,"(890.0, 762.0)",1.5,0.606,1,11451.127,3,0.0,same
0,105,valid,"[(1180, 805)]",[],[1],[0.5166666666666666],vertical,"(390.0, 262.0)",1.1166666666666667,0.487,1,11457.232,3,0.0,same
0,106,catch,"[(1167, 787)]",[],[1],[],vertical,"(890.0, 762.0)",1.7,nan,1,11463.028,3,0.0,same
0,107,valid,"[(1185, 811)]",[],[1],[0.65],horizontal,"(890.0, 762.0)",1.1833333333333333,0.604,1,11469.292,3,0.0,same
0,108,catch,"[(1175, 803)]",[],[1],[],vertical,"(890.0, 262.0)",1.7,nan,1,11475.627,3,0.0,same
0,109,invalid_same_bar,"[(1169, 812)]",[],[1],[0.55],vertical,"(390.0, 762.0)",1.1166666666666667,0.506,1,11481.431,3,0.0,same
0,110,valid,"[(1189, 801)]",[],[1],[0.5166666666666666],horizontal,"(390.0, 762.0)",0.8333333333333334,0.474,1,11489.433,3,0.0,same
0,111,valid,"[(1176, 814)]",[],[1],[0.6],horizontal,"(390.0, 762.0)",1.3666666666666667,0.562,1,11495.08,3,0.0,same
0,112,catch,"[(1176, 808)]",[],[1],[],horizontal,"(390.0, 262.0)",1.7,nan,1,11501.043,3,0.0,same
0,113,catch,"[(1183, 790)]",[],[1],[],horizontal,"(390.0, 762.0)",1.7,nan,1,11506.923,3,0.0,same
0,114,invalid_adjacent_other_bar,"[(1177, 795)]",[],[1],[0.5],vertical,"(890.0, 762.0)",0.48333333333333334,0.462,1,11512.988,3,0.0,other
0,115,valid,"[(1170, 795)]",[],[1],[0.43333333333333335],horizontal,"(390.0, 762.0)",1.5,0.394,1,11518.296,3,0.0,same
0,116,invalid_adjacent_other_bar,"[(1158, 795)]",[],[1],[0.45],vertical,"(390.0, 762.0)",1.45,0.413,1,11524.853,3,0.0,other
0,117,catch,"[(1180, 791)]",[],[1],[],horizontal,"(390.0, 262.0)",1.7,nan,1,11531.085,3,0.0,same
0,118,catch,"[(1182, 788)]",[],[1],[],vertical,"(890.0, 762.0)",1.7,nan,1,11536.949,3,0.0,same
0,119,valid,"[(1179, 816)]",[],[1],[0.6833333333333333],vertical,"(390.0, 262.0)",1.1,0.645,1,11542.482,3,0.0,same
0,120,valid,"[(1210, 819)]",[],[1],[0.6333333333333333],horizontal,"(890.0, 262.0)",0.3833333333333333,0.594,1,11548.71,3,0.0,same
0,121,valid,"[(1180, 789)]",[],[1],[0.5],vertical,"(890.0, 262.0)",1.0166666666666666,0.466,1,11554.258,3,0.0,same
0,122,valid,"[(1184, 777)]",[],[1],[0.6166666666666667],horizontal,"(890.0, 262.0)",1.4833333333333334,0.579,1,11560.005,3,0.0,same
0,123,valid,"[(1172, 789)]",[],[1],[0.48333333333333334],horizontal,"(890.0, 262.0)",1.4333333333333333,0.443,1,11566.418,3,0.0,same
0,124,valid,"[(1184, 789)]",[],[1],[0.6833333333333333],horizontal,"(390.0, 262.0)",1.4833333333333334,0.643,1,11572.327,3,0.0,same
0,125,valid,"[(1176, 802)]",[],[1],[0.85],horizontal,"(390.0, 762.0)",0.4666666666666667,nan,0,11578.748,0,0.0,same
0,126,valid,"[(1135, 790)]",[],[1],[0.48333333333333334],horizontal,"(390.0, 262.0)",0.4666666666666667,0.443,1,11583.225,1,0.0,same
0,127,invalid_same_bar,"[(1169, 782)]",[],[1],[0.6333333333333333],horizontal,"(890.0, 762.0)",1.4,0.593,1,11588.814,1,0.0,same
0,128,valid,"[(1175, 795)]",[],[1],[0.43333333333333335],horizontal,"(390.0, 262.0)",1.5,0.402,1,11594.243,1,0.0,same
0,129,valid,"[(1175, 782)]",[],[1],[0.85],horizontal,"(390.0, 762.0)",0.4,nan,0,11599.823,0,0.0,same
0,130,valid,"[(1170, 800)]",[],[1],[0.6166666666666667],vertical,"(390.0, 262.0)",0.7,0.576,1,11603.493,1,0.0,same
0,131,invalid_same_bar,"[(1120, 857)]",[],[1],[],vertical,"(390.0, 762.0)",,"('cti', 0.76)",0,11608.326,0,0.0,same
0,132,valid,"[(1139, 848)]",[],[1],[0.48333333333333334],vertical,"(890.0, 762.0)",0.5333333333333333,0.444,1,11613.426,1,0.0,same
0,133,valid,"[(1158, 810)]",[],[1],[0.5],vertical,"(890.0, 762.0)",0.5333333333333333,0.458,1,12056.502,1,0.0,same
0,134,catch,"[(1157, 824)]",[],[1],[],vertical,"(390.0, 762.0)",1.7,nan,1,12061.315,1,0.0,same
0,135,valid,"[(1174, 814)]",[],[1],[0.48333333333333334],vertical,"(890.0, 762.0)",0.65,0.445,1,12066.509,2,0.0,same
0,136,invalid_adjacent_other_bar,"[(1162, 813)]",[],[1],[0.5833333333333334],vertical,"(890.0, 762.0)",1.3166666666666667,0.54,1,12071.293,2,0.0,other
0,137,valid,"[(1170, 790)]",[],[1],[0.45],horizontal,"(890.0, 762.0)",0.4666666666666667,0.407,1,12077.293,2,0.0,same
0,138,catch,"[(1163, 797)]",[],[1],[],horizontal,"(890.0, 262.0)",1.7,nan,1,12082.261,3,0.0,same
0,139,catch,"[(1187, 790)]",[],[1],[],horizontal,"(390.0, 762.0)",1.7,nan,1,12088.476,3,0.0,same
0,140,catch,"[(1181, 789)]",[],[1],[],vertical,"(390.0, 262.0)",1.7,nan,1,12094.161,3,0.0,same
0,141,invalid_adjacent_other_bar,"[(1181, 804)]",[],[1],[0.7],horizontal,"(890.0, 262.0)",1.1833333333333333,0.654,1,12100.261,3,0.0,other
0,142,valid,"[(1201, 799)]",[],[1],[0.55],vertical,"(390.0, 762.0)",0.65,0.506,1,12106.578,3,0.0,same
0,143,valid,"[(1167, 791)]",[],[1],[0.85],horizontal,"(890.0, 762.0)",0.4,nan,0,12112.132,0,0.0,same
0,144,valid,"[(1164, 788)]",[],[1],[0.5666666666666667],vertical,"(890.0, 262.0)",1.5333333333333332,0.528,1,12116.411,1,0.0,same
0,145,valid,"[(1181, 808)]",[],[1],[0.75],vertical,"(890.0, 262.0)",1.2666666666666666,0.71,1,12122.045,1,0.0,same
0,146,valid,"[(1170, 796)]",[],[1],[0.65],horizontal,"(890.0, 262.0)",0.6833333333333333,0.602,1,12127.511,1,0.0,same
0,147,valid,"[(1178, 789)]",[],[1],[0.48333333333333334],vertical,"(890.0, 262.0)",1.3,0.448,1,12132.385,2,0.0,same
0,148,valid,"[(1169, 774)]",[],[1],[],vertical,"(390.0, 762.0)",,"('fix', 0.477)",0,12138.262,0,0.0,same
0,149,valid,"[(1144, 837)]",[],[1],[0.7166666666666667],vertical,"(390.0, 262.0)",1.4,0.674,1,12140.106,1,0.0,same
0,150,valid,"[(1165, 803)]",[],[1],[0.5333333333333333],horizontal,"(890.0, 262.0)",0.6666666666666666,0.492,1,12145.674,1,0.0,same
0,151,valid,"[(1155, 817)]",[],[1],[0.1],vertical,"(890.0, 762.0)",0.5333333333333333,0.067,0,12150.428,0,0.0,same
0,152,valid,"[(1153, 818)]",[],[1],[0.6166666666666667],horizontal,"(890.0, 262.0)",0.5166666666666666,0.578,1,12154.335,1,0.0,same
0,153,valid,"[(1169, 781)]",[],[1],[0.31666666666666665],vertical,"(890.0, 262.0)",1.45,0.278,1,12165.596,1,0.0,same
0,154,valid,"[(1163, 803)]",[],[1],[0.5],horizontal,"(390.0, 762.0)",0.9333333333333333,0.455,1,12170.777,1,0.0,same
0,155,catch,"[(1163, 789)]",[],[1],[],horizontal,"(390.0, 762.0)",1.7,nan,1,12175.562,2,0.0,same
0,156,valid,"[(1165, 795)]",[],[1],[0.55],vertical,"(890.0, 262.0)",0.55,0.509,1,12181.178,2,0.0,same
0,157,valid,"[(1180, 795)]",[],[1],[0.85],vertical,"(390.0, 262.0)",0.95,nan,0,12185.862,0,0.0,same
0,158,invalid_adjacent_other_bar,"[(1149, 781)]",[],[1],[0.48333333333333334],vertical,"(890.0, 262.0)",1.4166666666666667,0.442,1,12190.945,1,0.0,other
0,159,valid,"[(1179, 791)]",[],[1],[0.6166666666666667],vertical,"(890.0, 762.0)",0.6666666666666666,0.58,1,12196.378,1,0.0,same
0,160,catch,"[(1163, 799)]",[],[1],[],horizontal,"(890.0, 762.0)",1.7,nan,1,12201.044,1,0.0,same
0,161,valid,"[(1179, 784)]",[],[1],[0.5],horizontal,"(390.0, 262.0)",1.3,0.46,1,12205.845,2,0.0,same
0,162,valid,"[(1167, 779)]",[],[1],[0.5],vertical,"(390.0, 762.0)",1.5333333333333332,0.459,1,12211.879,2,0.0,same
0,163,catch,"[(1175, 794)]",[],[1],[],vertical,"(890.0, 262.0)",1.7,nan,1,12217.574,2,0.0,same
0,164,valid,"[(1185, 783)]",[],[1],[0.4666666666666667],vertical,"(890.0, 762.0)",1.3166666666666667,0.43,1,12223.154,3,0.0,same
0,165,valid,"[(1185, 803)]",[],[1],[0.6166666666666667],vertical,"(390.0, 762.0)",1.1333333333333333,0.572,1,12229.532,3,0.0,same
0,166,valid,"[(1175, 812)]",[],[1],[0.7166666666666667],horizontal,"(890.0, 762.0)",1.3833333333333333,0.669,1,12235.411,3,0.0,same
0,167,valid,"[(1185, 808)]",[],[1],[0.5166666666666666],horizontal,"(890.0, 262.0)",1.4333333333333333,0.476,1,12241.702,3,0.0,same
0,168,valid,"[(1179, 791)]",[],[1],[0.5833333333333334],horizontal,"(390.0, 762.0)",1.0,0.543,1,12247.673,3,0.0,same
0,169,valid,"[(1184, 795)]",[],[1],[0.5],horizontal,"(890.0, 262.0)",0.9,0.462,1,12253.054,3,0.0,same
0,170,valid,"[(1154, 799)]",[],[1],[0.5666666666666667],horizontal,"(390.0, 262.0)",1.0833333333333333,0.523,1,12259.078,3,0.0,same
0,171,catch,"[(1165, 788)]",[],[1],[],horizontal,"(890.0, 762.0)",1.7,nan,1,12264.904,3,0.0,same
0,172,valid,"[(1155, 774)]",[],[1],[0.4666666666666667],horizontal,"(890.0, 262.0)",0.43333333333333335,0.43,1,12270.862,3,0.0,same
0,173,valid,"[(1180, 801)]",[],[1],[0.48333333333333334],horizontal,"(390.0, 762.0)",0.4166666666666667,0.455,1,12275.79,3,0.0,same
0,174,valid,"[(1165, 789)]",[],[1],[0.4666666666666667],vertical,"(890.0, 262.0)",0.5,0.427,1,12280.858,3,0.0,same
0,175,valid,"[(1147, 790)]",[],[1],[0.5166666666666666],vertical,"(890.0, 762.0)",0.9666666666666667,0.472,1,12286.162,3,0.0,same
0,176,valid,"[(1180, 782)]",[],[1],[0.4666666666666667],vertical,"(890.0, 262.0)",1.45,0.422,1,12291.728,3,0.0,same
0,177,valid,"[(1168, 776)]",[],[1],[0.5333333333333333],horizontal,"(390.0, 762.0)",0.45,0.49,1,12298.328,3,0.0,same
0,178,catch,"[(1165, 781)]",[],[1],[],vertical,"(390.0, 262.0)",1.7,nan,1,12303.878,3,0.0,same
0,179,valid,"[(1182, 777)]",[],[1],[0.7],horizontal,"(890.0, 262.0)",0.9666666666666667,0.654,1,12310.11,3,0.0,same
0,180,valid,"[(1178, 802)]",[],[1],[0.5166666666666666],horizontal,"(890.0, 262.0)",1.1166666666666667,0.474,1,12316.168,3,0.0,same
0,181,valid,"[(1165, 787)]",[],[1],[0.5333333333333333],horizontal,"(390.0, 262.0)",1.1666666666666667,0.484,1,12321.571,3,0.0,same
0,182,valid,"[(1182, 776)]",[],[1],[0.48333333333333334],horizontal,"(390.0, 262.0)",0.7333333333333333,0.439,1,12327.548,3,0.0,same
0,183,valid,"[(1177, 799)]",[],[1],[0.85],horizontal,"(390.0, 262.0)",0.5833333333333334,nan,0,12333.011,0,0.0,same
0,184,valid,"[(1126, 789)]",[],[1],[0.48333333333333334],vertical,"(390.0, 262.0)",0.48333333333333334,0.441,1,12337.327,1,0.0,same
0,185,invalid_same_bar,"[(1179, 802)]",[],[1],[0.5166666666666666],horizontal,"(390.0, 762.0)",0.5333333333333333,0.473,1,12341.796,1,0.0,same
0,186,invalid_adjacent_other_bar,"[(1175, 779)]",[],[1],[0.85],horizontal,"(390.0, 762.0)",0.7666666666666666,nan,0,12345.704,0,0.0,other
0,187,invalid_adjacent_other_bar,"[(1164, 802)]",[],[1],[0.6333333333333333],vertical,"(390.0, 262.0)",1.0666666666666667,0.592,1,12349.908,1,0.0,other
0,188,valid,"[(1169, 810)]",[],[1],[0.5833333333333334],horizontal,"(390.0, 262.0)",0.7166666666666667,0.54,1,12354.94,1,0.0,same
0,189,valid,"[(1175, 782)]",[],[1],[0.4666666666666667],vertical,"(890.0, 262.0)",1.1166666666666667,0.432,1,12359.99,1,0.0,same
0,190,valid,"[(1178, 782)]",[],[1],[0.5],horizontal,"(390.0, 262.0)",0.5166666666666666,0.456,1,12365.073,2,0.0,same
0,191,valid,"[(1184, 791)]",[],[1],[0.55],vertical,"(390.0, 262.0)",0.85,0.507,1,12370.182,2,0.0,same
0,192,valid,"[(1179, 797)]",[],[1],[0.5],horizontal,"(890.0, 262.0)",1.3,0.458,1,12375.23,2,0.0,same
0,193,valid,"[(1182, 783)]",[],[1],[0.55],vertical,"(390.0, 262.0)",0.36666666666666664,0.508,1,12381.196,3,0.0,same
0,194,valid,"[(1180, 781)]",[],[1],[0.5666666666666667],vertical,"(890.0, 262.0)",0.65,0.516,1,12386.606,3,0.0,same
0,195,catch,"[(1166, 797)]",[],[1],[],vertical,"(890.0, 262.0)",1.7,nan,1,12391.903,3,0.0,same
0,196,valid,"[(1185, 781)]",[],[1],[0.75],vertical,"(390.0, 762.0)",1.0,0.702,1,12397.86,3,0.0,same
0,197,valid,"[(1162, 773)]",[],[1],[0.8333333333333334],horizontal,"(890.0, 262.0)",1.0,0.779,1,12403.992,3,0.0,same
0,198,catch,"[(1183, 792)]",[],[1],[],horizontal,"(890.0, 262.0)",1.7,nan,1,12409.719,3,0.0,same
0,199,catch,"[(1185, 779)]",[],[1],[],vertical,"(390.0, 762.0)",1.7,nan,1,12415.929,3,0.0,same
0,200,catch,"[(1160, 800)]",[],[1],[],vertical,"(890.0, 762.0)",1.7,nan,1,12421.595,3,0.0,same
0,201,catch,"[(1135, 784)]",[],[1],[],vertical,"(890.0, 762.0)",1.7,nan,1,12427.445,3,0.0,same
0,202,catch,"[(1184, 791)]",[],[1],[],horizontal,"(390.0, 262.0)",1.7,nan,1,12433.189,3,0.0,same
0,203,catch,"[(1175, 794)]",[],[1],[],vertical,"(890.0, 262.0)",1.7,nan,1,12439.26,3,0.0,same
0,204,valid,"[(1163, 787)]",[],[1],[0.4666666666666667],vertical,"(390.0, 762.0)",0.7333333333333333,0.423,1,12445.012,3,0.0,same
0,205,valid,"[(1165, 799)]",[],[1],[0.6333333333333333],horizontal,"(890.0, 262.0)",1.0333333333333332,0.585,1,12450.522,3,0.0,same
0,206,invalid_same_bar,"[(1165, 769)]",[],[1],[0.5333333333333333],vertical,"(390.0, 762.0)",0.6666666666666666,0.492,1,12456.363,3,0.0,same
0,207,valid,"[(1165, 778)]",[],[1],[0.6833333333333333],vertical,"(390.0, 762.0)",1.35,0.635,1,12462.051,3,0.0,same
0,208,valid,"[(1160, 774)]",[],[1],[0.5],horizontal,"(390.0, 762.0)",0.75,0.458,1,12468.046,3,0.0,same
0,209,valid,"[(1180, 782)]",[],[1],[0.5166666666666666],horizontal,"(390.0, 762.0)",1.3833333333333333,0.477,1,12473.413,3,0.0,same
0,210,valid,"[(1192, 770)]",[],[1],[0.6],horizontal,"(890.0, 762.0)",0.9333333333333333,0.565,1,12479.814,3,0.0,same
0,211,valid,"[(1180, 786)]",[],[1],[0.5666666666666667],vertical,"(390.0, 262.0)",1.0,0.533,1,12485.829,3,0.0,same
0,212,valid,"[(1181, 789)]",[],[1],[0.5333333333333333],horizontal,"(390.0, 262.0)",1.4166666666666667,0.486,1,12491.48,3,0.0,same
0,213,valid,"[(1180, 799)]",[],[1],[0.4666666666666667],horizontal,"(890.0, 262.0)",1.1,0.424,1,12497.697,3,0.0,same
0,214,valid,"[(1160, 774)]",[],[1],[0.5166666666666666],vertical,"(890.0, 262.0)",0.7666666666666666,0.473,1,12503.811,3,0.0,same
0,215,invalid_same_bar,"[(1181, 781)]",[],[1],[0.65],horizontal,"(390.0, 762.0)",1.2166666666666666,0.606,1,12509.182,3,0.0,same
0,216,valid,"[(1171, 799)]",[],[1],[0.5],horizontal,"(890.0, 762.0)",0.6666666666666666,0.463,1,12515.246,3,0.0,same
0,217,valid,"[(1165, 787)]",[],[1],[0.48333333333333334],vertical,"(890.0, 262.0)",0.8166666666666667,0.446,1,12521.113,3,0.0,same
0,218,valid,"[(1178, 790)]",[],[1],[0.5],horizontal,"(390.0, 762.0)",0.7,0.464,1,12526.359,3,0.0,same
0,219,catch,"[(1165, 779)]",[],[1],[],horizontal,"(890.0, 262.0)",1.7,nan,1,12531.741,3,0.0,same
0,220,valid,"[(1187, 796)]",[],[1],[0.4],horizontal,"(390.0, 762.0)",1.5,0.364,1,12537.613,3,0.0,same
0,221,valid,"[(1164, 778)]",[],[1],[0.5],vertical,"(890.0, 762.0)",1.1,0.459,1,12544.434,3,0.0,same
0,222,catch,"[(1182, 789)]",[],[1],[],horizontal,"(390.0, 762.0)",1.7,nan,1,12550.024,3,0.0,same
0,223,valid,"[(1165, 784)]",[],[1],[0.5166666666666666],vertical,"(390.0, 262.0)",0.35,0.478,1,12556.062,3,0.0,same
0,224,invalid_same_bar,"[(1175, 779)]",[],[1],[0.48333333333333334],horizontal,"(390.0, 262.0)",0.5166666666666666,0.443,1,12561.327,3,0.0,same
0,225,valid,"[(1185, 798)]",[],[1],[0.5333333333333333],horizontal,"(390.0, 262.0)",0.3833333333333333,0.496,1,12566.616,3,0.0,same
0,226,catch,"[(1164, 802)]",[],[1],[],vertical,"(390.0, 762.0)",1.7,nan,1,12571.873,3,0.0,same
0,227,invalid_adjacent_other_bar,"[(1180, 799)]",[],[1],[0.5],vertical,"(390.0, 262.0)",0.8,0.454,1,12578.256,3,0.0,other
0,228,valid,"[(1162, 788)]",[],[1],[0.5],vertical,"(890.0, 762.0)",0.65,0.458,1,12583.363,3,0.0,same
0,229,invalid_same_bar,"[(1160, 788)]",[],[1],[0.85],vertical,"(390.0, 762.0)",1.1833333333333333,nan,0,12589.237,0,0.0,same
0,230,valid,"[(1165, 804)]",[],[1],[0.6333333333333333],vertical,"(890.0, 762.0)",1.05,0.595,1,12594.101,1,0.0,same
0,231,valid,"[(1165, 769)]",[],[1],[0.5],vertical,"(890.0, 762.0)",1.2,0.459,1,12599.512,1,0.0,same
0,232,valid,"[(1174, 783)]",[],[1],[0.5],horizontal,"(390.0, 262.0)",1.4666666666666666,0.462,1,12604.929,1,0.0,same
0,233,valid,"[(1166, 789)]",[],[1],[0.5833333333333334],horizontal,"(890.0, 762.0)",0.48333333333333334,0.54,1,12610.085,2,0.0,same
0,234,catch,"[(1160, 799)]",[],[1],[],horizontal,"(390.0, 262.0)",,"('cti', 1.648),nan",0,12614.913,0,0.02,same
0,235,catch,"[(1111, 807)]",[],[1],[],vertical,"(890.0, 262.0)",1.7,nan,1,12619.614,1,0.02,same
0,236,valid,"[(1176, 809)]",[],[1],[0.6333333333333333],vertical,"(890.0, 262.0)",0.9333333333333333,0.593,1,12626.637,1,0.02,same
0,237,catch,"[(1185, 787)]",[],[1],[],horizontal,"(390.0, 262.0)",1.7,nan,1,12631.779,1,0.02,same
0,238,invalid_same_bar,"[(1180, 796)]",[],[1],[0.5],horizontal,"(890.0, 762.0)",0.9,0.462,1,12636.624,2,0.02,same
0,239,catch,"[(1174, 795)]",[],[1],[],vertical,"(390.0, 262.0)",1.7,nan,1,12641.88,2,0.02,same
0,240,valid,"[(1183, 804)]",[],[1],[0.5],horizontal,"(390.0, 262.0)",0.4166666666666667,0.459,1,12647.731,2,0.02,same
0,241,catch,"[(1165, 798)]",[],[1],[],vertical,"(890.0, 262.0)",1.7,nan,1,12652.614,3,0.02,same
0,242,valid,"[(1164, 771)]",[],[1],[0.85],horizontal,"(390.0, 262.0)",0.7,nan,0,12658.513,0,0.02,same
0,243,catch,"[(1141, 786)]",[],[1],[],vertical,"(890.0, 262.0)",1.7,nan,1,12662.847,1,0.02,same
0,244,valid,"[(1178, 785)]",[],[1],[0.85],vertical,"(890.0, 762.0)",0.4666666666666667,nan,0,12667.935,0,0.02,same
0,245,valid,"[(1138, 787)]",[],[1],[0.5166666666666666],horizontal,"(390.0, 262.0)",0.9833333333333333,0.47,1,12671.893,1,0.02,same
0,246,valid,"[(1165, 824)]",[],[1],[0.6166666666666667],horizontal,"(390.0, 762.0)",0.43333333333333335,0.579,1,12677.024,1,0.02,same
0,247,catch,"[(1165, 779)]",[],[1],[],vertical,"(890.0, 762.0)",1.7,nan,1,12681.307,1,0.02,same
0,248,valid,"[(1170, 789)]",[],[1],[0.85],horizontal,"(390.0, 262.0)",1.2166666666666666,nan,0,12686.507,0,0.02,same
0,249,valid,"[(1136, 780)]",[],[1],[0.5666666666666667],vertical,"(890.0, 262.0)",0.8833333333333333,0.521,1,12691.437,1,0.02,same
0,250,valid,"[(1162, 779)]",[],[1],[0.65],horizontal,"(390.0, 262.0)",0.8333333333333334,0.606,1,12696.78,1,0.02,same
0,251,valid,"[(1161, 798)]",[],[1],[0.43333333333333335],horizontal,"(390.0, 762.0)",1.5333333333333332,0.395,1,12701.736,1,0.02,same
0,252,valid,"[(1177, 789)]",[],[1],[0.5166666666666666],vertical,"(890.0, 262.0)",1.1333333333333333,0.478,1,12707.29,2,0.02,same
0,253,valid,"[(1175, 777)]",[],[1],[0.5166666666666666],vertical,"(890.0, 262.0)",0.65,0.477,1,12712.522,2,0.02,same
0,254,valid,"[(1167, 774)]",[],[1],[0.6166666666666667],vertical,"(890.0, 262.0)",0.6,0.576,1,12717.846,2,0.02,same
0,255,valid,"[(1170, 795)]",[],[1],[0.5333333333333333],horizontal,"(390.0, 762.0)",1.1333333333333333,0.495,1,12723.263,3,0.02,same
0,256,valid,"[(1165, 766)]",[],[1],[0.5],horizontal,"(890.0, 262.0)",1.0333333333333332,0.463,1,12729.447,3,0.02,same
0,257,valid,"[(1162, 799)]",[],[1],[0.5],horizontal,"(890.0, 262.0)",1.5166666666666666,0.457,1,12735.107,3,0.02,same
0,258,valid,"[(1166, 783)]",[],[1],[0.6166666666666667],vertical,"(890.0, 262.0)",0.6,0.581,1,12741.463,3,0.02,same
0,259,valid,"[(1183, 775)]",[],[1],[0.48333333333333334],horizontal,"(390.0, 762.0)",0.6,0.442,1,12746.739,3,0.02,same
0,260,valid,"[(1178, 785)]",[],[1],[0.6166666666666667],horizontal,"(390.0, 762.0)",0.8333333333333334,0.571,1,12752.146,3,0.02,same
0,261,valid,"[(1150, 768)]",[],[1],[0.5333333333333333],vertical,"(890.0, 762.0)",0.6333333333333333,0.493,1,12757.999,3,0.02,same
0,262,catch,"[(1170, 781)]",[],[1],[],horizontal,"(890.0, 262.0)",1.7,nan,1,12763.246,3,0.02,same
0,263,valid,"[(1165, 798)]",[],[1],[0.5166666666666666],vertical,"(890.0, 762.0)",0.8333333333333334,0.477,1,12768.974,3,0.02,same
0,264,catch,"[(1179, 809)]",[],[1],[],horizontal,"(390.0, 262.0)",1.7,nan,1,12774.713,3,0.02,same
0,265,catch,"[(1162, 799)]",[],[1],[],horizontal,"(390.0, 762.0)",1.7,nan,1,12781.013,3,0.02,same
0,266,catch,"[(1170, 782)]",[],[1],[],horizontal,"(390.0, 262.0)",1.7,nan,1,12786.927,3,0.02,same
0,267,valid,"[(1165, 762)]",[],[1],[0.7],horizontal,"(890.0, 762.0)",1.3833333333333333,0.653,1,12792.764,3,0.02,same
0,268,valid,"[(1170, 787)]",[],[1],[0.5833333333333334],horizontal,"(890.0, 262.0)",0.7,0.547,1,12799.14,3,0.02,same
0,269,valid,"[(1165, 764)]",[],[1],[0.5],horizontal,"(890.0, 762.0)",1.4666666666666666,0.463,1,12804.789,3,0.02,same
0,270,valid,"[(1165, 785)]",[],[1],[0.7],vertical,"(890.0, 762.0)",1.3333333333333333,0.66,1,12810.951,3,0.02,same
0,271,valid,"[(1165, 791)]",[],[1],[0.5166666666666666],horizontal,"(890.0, 762.0)",0.9166666666666666,0.476,1,12817.311,3,0.02,same
0,272,valid,"[(1171, 799)]",[],[1],[0.6166666666666667],vertical,"(390.0, 262.0)",1.05,0.576,1,12823.197,3,0.02,same
0,273,valid,"[(1160, 783)]",[],[1],[0.6833333333333333],horizontal,"(890.0, 762.0)",1.45,0.637,1,12829.28,3,0.02,same
0,274,invalid_adjacent_other_bar,"[(1169, 791)]",[],[1],[0.5],horizontal,"(890.0, 262.0)",1.0333333333333332,0.464,1,12835.692,3,0.02,other
0,275,valid,"[(1165, 765)]",[],[1],[0.55],horizontal,"(890.0, 762.0)",0.5666666666666667,0.511,1,12841.448,3,0.02,same
0,276,valid,"[(1165, 766)]",[],[1],[0.85],horizontal,"(390.0, 762.0)",0.4,nan,0,12847.18,0,0.02,same
0,277,invalid_adjacent_other_bar,"[(1118, 789)]",[],[1],[0.5],horizontal,"(890.0, 262.0)",1.4333333333333333,0.467,1,12851.267,1,0.02,other
0,278,valid,"[(1165, 776)]",[],[1],[0.4666666666666667],horizontal,"(390.0, 262.0)",1.3666666666666667,0.431,1,12856.514,1,0.02,same
0,279,valid,"[(1180, 792)]",[],[1],[0.5],vertical,"(390.0, 262.0)",0.6166666666666667,0.463,1,12861.884,1,0.02,same
0,280,catch,"[(1165, 808)]",[],[1],[],vertical,"(390.0, 762.0)",1.7,nan,1,12866.465,2,0.02,same
0,281,valid,"[(1170, 800)]",[],[1],[0.6333333333333333],horizontal,"(890.0, 262.0)",1.3166666666666667,0.593,1,12872.247,2,0.02,same
0,282,valid,"[(1165, 797)]",[],[1],[0.8166666666666667],vertical,"(890.0, 262.0)",0.65,0.77,1,12877.781,2,0.02,same
0,283,valid,"[(1160, 799)]",[],[1],[0.8333333333333334],vertical,"(890.0, 762.0)",1.3,0.787,1,12883.062,3,0.02,same
0,284,valid,"[(1165, 779)]",[],[1],[0.4666666666666667],horizontal,"(890.0, 262.0)",1.1833333333333333,0.427,1,12889.703,3,0.0,same
0,285,valid,"[(1165, 783)]",[],[1],[0.5166666666666666],vertical,"(890.0, 762.0)",0.5,0.477,1,12895.613,3,0.0,same
0,286,valid,"[(1175, 773)]",[],[1],[0.6833333333333333],vertical,"(890.0, 262.0)",0.4,0.641,1,12901.264,3,0.0,same
0,287,valid,"[(1171, 786)]",[],[1],[0.5],vertical,"(390.0, 762.0)",0.75,0.458,1,12906.281,3,0.0,same
0,288,valid,"[(1170, 776)]",[],[1],[0.65],horizontal,"(890.0, 762.0)",1.3666666666666667,0.61,1,12911.987,3,0.0,same
0,289,valid,"[(1160, 786)]",[],[1],[0.85],vertical,"(390.0, 262.0)",0.9666666666666667,nan,0,12918.402,0,0.0,same
0,290,valid,"[(1141, 797)]",[],[1],[0.55],horizontal,"(390.0, 262.0)",0.3833333333333333,0.516,1,12923.519,1,0.0,same
0,291,valid,"[(1161, 823)]",[],[1],[0.5],horizontal,"(390.0, 762.0)",1.0,0.462,1,12927.943,1,0.0,same
0,292,catch,"[(1125, 818)]",[],[1],[],vertical,"(890.0, 262.0)",,"('cti', 1.353),nan",0,12933.191,0,0.02,same
0,293,invalid_same_bar,"[(1111, 828)]",[],[1],[0.6333333333333333],vertical,"(390.0, 762.0)",0.75,0.589,1,12938.398,1,0.02,same
0,294,valid,"[(1163, 791)]",[],[1],[0.5166666666666666],vertical,"(890.0, 262.0)",0.35,0.475,1,12947.184,1,0.02,same
0,295,valid,"[(1174, 799)]",[],[1],[0.48333333333333334],horizontal,"(390.0, 262.0)",1.4333333333333333,0.444,1,12951.362,1,0.02,same
0,296,valid,"[(1172, 808)]",[],[1],[0.6333333333333333],vertical,"(390.0, 762.0)",0.7333333333333333,0.595,1,12956.665,2,0.02,same
0,297,catch,"[(1160, 779)]",[],[1],[],vertical,"(390.0, 762.0)",1.7,nan,1,12962.114,2,0.02,same
0,298,catch,"[(1175, 799)]",[],[1],[],vertical,"(390.0, 262.0)",1.7,nan,1,12967.514,2,0.02,same
0,299,valid,"[(1168, 785)]",[],[1],[0.65],vertical,"(390.0, 262.0)",1.2,0.605,1,12973.477,3,0.02,same
0,300,invalid_same_bar,"[(1175, 787)]",[],[1],[0.85],vertical,"(390.0, 762.0)",1.3166666666666667,nan,0,12979.968,0,0.02,same
0,301,catch,"[(1136, 797)]",[],[1],[],horizontal,"(390.0, 262.0)",1.7,nan,1,12985.219,1,0.02,same
0,302,catch,"[(1170, 789)]",[],[1],[],horizontal,"(390.0, 262.0)",1.7,nan,1,12990.32,1,0.02,same
0,303,invalid_adjacent_other_bar,"[(1159, 779)]",[],[1],[0.4666666666666667],vertical,"(390.0, 262.0)",0.6666666666666666,0.432,1,12995.61,1,0.02,other
0,304,catch,"[(1140, 773)]",[],[1],[],vertical,"(890.0, 262.0)",1.7,nan,1,13000.315,2,0.02,same
0,305,valid,"[(1161, 804)]",[],[1],[0.35],horizontal,"(890.0, 762.0)",1.5166666666666666,0.316,1,13005.468,2,0.02,same
0,306,valid,"[(1175, 801)]",[],[1],[0.5833333333333334],horizontal,"(390.0, 262.0)",1.5166666666666666,0.541,1,13011.303,2,0.02,same
0,307,valid,"[(1165, 780)]",[],[1],[0.6166666666666667],vertical,"(390.0, 262.0)",0.5,0.573,1,13017.223,3,0.02,same
0,308,valid,"[(1181, 796)]",[],[1],[0.5166666666666666],vertical,"(890.0, 262.0)",0.4666666666666667,0.481,1,13023.148,3,0.02,same
0,309,valid,"[(1175, 806)]",[],[1],[0.6],horizontal,"(390.0, 262.0)",0.5333333333333333,0.562,1,13028.682,3,0.02,same
0,310,invalid_adjacent_other_bar,"[(1175, 803)]",[],[1],[0.6],horizontal,"(390.0, 762.0)",1.2,0.555,1,13034.18,3,0.02,other
0,311,valid,"[(1165, 795)]",[],[1],[0.6],vertical,"(890.0, 762.0)",0.75,0.56,1,13040.314,3,0.02,same
0,312,catch,"[(1170, 783)]",[],[1],[],vertical,"(390.0, 762.0)",1.7,nan,1,13045.781,3,0.02,same
0,313,invalid_same_bar,"[(1178, 800)]",[],[1],[0.65],vertical,"(890.0, 762.0)",1.5333333333333332,0.611,1,13052.232,3,0.02,same
0,314,catch,"[(1169, 798)]",[],[1],[],vertical,"(390.0, 262.0)",1.7,nan,1,13058.432,3,0.02,same
0,315,invalid_same_bar,"[(1140, 776)]",[],[1],[0.5166666666666666],vertical,"(390.0, 262.0)",0.95,0.473,1,13064.453,3,0.02,same
0,316,invalid_same_bar,"[(1175, 789)]",[],[1],[0.48333333333333334],vertical,"(890.0, 262.0)",0.6666666666666666,0.449,1,13070.099,3,0.02,same
0,317,valid,"[(1165, 804)]",[],[1],[0.85],horizontal,"(890.0, 762.0)",0.75,nan,0,13075.515,0,0.02,same
0,318,valid,"[(1131, 799)]",[],[1],[0.5],vertical,"(890.0, 762.0)",0.65,0.459,1,13080.281,1,0.02,same
0,319,valid,"[(1160, 774)]",[],[1],[0.5],horizontal,"(390.0, 262.0)",0.6166666666666667,0.458,1,13085.079,1,0.02,same
0,320,valid,"[(1184, 778)]",[],[1],[0.5166666666666666],vertical,"(890.0, 762.0)",0.55,0.474,1,13089.731,1,0.02,same
0,321,valid,"[(1168, 790)]",[],[1],[0.5833333333333334],vertical,"(390.0, 762.0)",0.55,0.536,1,13094.365,2,0.02,same
0,322,invalid_same_bar,"[(1179, 796)]",[],[1],[0.5166666666666666],horizontal,"(390.0, 762.0)",1.2666666666666666,0.476,1,13099.213,2,0.02,same
0,323,catch,"[(1165, 802)]",[],[1],[],horizontal,"(390.0, 262.0)",1.7,nan,1,13105.431,2,0.02,same
0,324,catch,"[(1170, 789)]",[],[1],[],vertical,"(390.0, 262.0)",1.7,nan,1,13111.365,3,0.02,same
0,325,catch,"[(1171, 798)]",[],[1],[],horizontal,"(390.0, 262.0)",1.7,nan,1,13117.579,3,0.02,same
0,326,valid,"[(1175, 783)]",[],[1],[0.5333333333333333],horizontal,"(390.0, 262.0)",0.6333333333333333,0.491,1,13123.662,3,0.02,same
0,327,invalid_same_bar,"[(1163, 777)]",[],[1],[0.85],vertical,"(890.0, 262.0)",0.5333333333333333,nan,0,13128.916,0,0.02,same
0,328,valid,"[(1140, 774)]",[],[1],[0.6166666666666667],horizontal,"(890.0, 762.0)",0.7666666666666666,0.58,1,13132.899,1,0.02,same
0,329,catch,"[(1180, 782)]",[],[1],[],horizontal,"(890.0, 262.0)",1.7,nan,1,13137.982,1,0.02,same
0,330,valid,"[(1160, 779)]",[],[1],[0.5333333333333333],horizontal,"(390.0, 262.0)",1.1166666666666667,0.492,1,13143.477,1,0.02,same
0,331,invalid_adjacent_other_bar,"[(1147, 768)]",[],[1],[0.85],vertical,"(390.0, 262.0)",1.05,nan,0,13148.564,0,0.02,other
0,332,catch,"[(1140, 800)]",[],[1],[],vertical,"(390.0, 762.0)",1.7,nan,1,13153.31,1,0.02,same
0,333,catch,"[(1161, 793)]",[],[1],[],horizontal,"(890.0, 762.0)",1.7,nan,1,13158.756,1,0.02,same
0,334,valid,"[(1153, 804)]",[],[1],[0.48333333333333334],horizontal,"(390.0, 262.0)",0.9333333333333333,0.448,1,13163.732,1,0.02,same
0,335,valid,"[(1161, 787)]",[],[1],[0.55],horizontal,"(890.0, 262.0)",0.7833333333333333,0.517,1,13168.647,2,0.02,same
0,336,catch,"[(1166, 788)]",[],[1],[],horizontal,"(890.0, 762.0)",1.7,nan,1,13173.968,2,0.02,same
0,337,invalid_adjacent_other_bar,"[(1160, 774)]",[],[1],[0.5666666666666667],horizontal,"(390.0, 762.0)",0.8333333333333334,0.531,1,13179.549,2,0.02,other
0,338,catch,"[(1181, 774)]",[],[1],[],horizontal,"(890.0, 262.0)",1.7,nan,1,13184.565,3,0.02,same
0,339,valid,"[(1146, 802)]",[],[1],[0.5833333333333334],horizontal,"(890.0, 262.0)",1.1166666666666667,0.542,1,13190.732,3,0.02,same
0,340,valid,"[(1141, 785)]",[],[1],[0.6833333333333333],horizontal,"(890.0, 262.0)",1.2,0.651,1,13196.718,3,0.02,same
0,341,valid,"[(1163, 767)]",[],[1],[0.6166666666666667],vertical,"(890.0, 262.0)",1.3,0.575,1,13203.015,3,0.02,same
0,342,catch,"[(1165, 775)]",[],[1],[],horizontal,"(890.0, 762.0)",1.7,nan,1,13208.938,3,0.0,same
0,343,valid,"[(1161, 799)]",[],[1],[0.6166666666666667],horizontal,"(390.0, 762.0)",0.6,0.579,1,13215.399,3,0.0,same
0,344,valid,"[(1160, 775)]",[],[1],[0.5333333333333333],horizontal,"(390.0, 262.0)",1.4666666666666666,0.492,1,13220.83,3,0.0,same
0,345,valid,"[(1161, 769)]",[],[1],[0.5833333333333334],horizontal,"(890.0, 262.0)",1.3,0.544,1,13227.197,3,0.0,same
0,346,valid,"[(1183, 786)]",[],[1],[0.7],horizontal,"(890.0, 262.0)",1.3666666666666667,0.654,1,13233.566,3,0.0,same
0,347,valid,"[(1163, 786)]",[],[1],[0.7166666666666667],horizontal,"(390.0, 762.0)",0.9666666666666667,0.676,1,13239.514,3,0.0,same
0,348,valid,"[(1170, 784)]",[],[1],[0.5666666666666667],horizontal,"(390.0, 262.0)",1.2,0.531,1,13245.699,3,0.0,same
0,349,valid,"[(1165, 775)]",[],[1],[0.85],vertical,"(890.0, 762.0)",0.4,nan,0,13251.668,0,0.0,same
0,350,valid,"[(1135, 766)]",[],[1],[],horizontal,"(890.0, 262.0)",,"('cti', 0.951)",0,13255.481,0,0.0,same
0,351,catch,"[(1135, 819)]",[],[1],[],vertical,"(390.0, 762.0)",1.7,nan,1,13259.254,1,0.0,same
0,352,valid,"[(1163, 808)]",[],[1],[0.48333333333333334],vertical,"(390.0, 262.0)",1.4666666666666666,0.448,1,13269.181,1,0.0,same
0,353,valid,"[(1179, 799)]",[],[1],[0.48333333333333334],vertical,"(890.0, 262.0)",1.0333333333333332,0.443,1,13274.482,1,0.0,same
0,354,valid,"[(1173, 784)]",[],[1],[0.31666666666666665],horizontal,"(390.0, 762.0)",1.55,0.284,1,13279.633,2,0.0,same
0,355,catch,"[(1154, 766)]",[],[1],[],horizontal,"(890.0, 262.0)",1.7,nan,1,13285.315,2,0.0,same
0,356,valid,"[(1165, 788)]",[],[1],[0.55],horizontal,"(390.0, 762.0)",1.45,0.512,1,13290.773,2,0.0,same
0,357,valid,"[(1162, 787)]",[],[1],[0.6166666666666667],vertical,"(890.0, 262.0)",0.7166666666666667,0.572,1,13297.202,3,0.0,same
0,358,catch,"[(1183, 776)]",[],[1],[],vertical,"(890.0, 762.0)",1.7,nan,1,13302.933,3,0.0,same
0,359,valid,"[(1180, 796)]",[],[1],[0.85],vertical,"(390.0, 762.0)",1.0,nan,0,13308.849,0,0.0,same
0,360,valid,"[(1125, 799)]",[],[1],[0.5333333333333333],horizontal,"(390.0, 762.0)",1.3,0.493,1,13314.013,1,0.0,same
0,361,valid,"[(1160, 775)]",[],[1],[0.48333333333333334],vertical,"(390.0, 262.0)",0.5666666666666667,0.445,1,13319.508,1,0.0,same
0,362,valid,"[(1136, 805)]",[],[1],[0.5666666666666667],horizontal,"(890.0, 262.0)",0.4166666666666667,0.524,1,13323.911,1,0.0,same
0,363,valid,"[(1160, 799)]",[],[1],[0.48333333333333334],horizontal,"(890.0, 262.0)",0.5833333333333334,0.443,1,13328.534,2,0.0,same
0,364,catch,"[(1160, 772)]",[],[1],[],vertical,"(390.0, 762.0)",1.7,nan,1,13333.432,2,0.0,same
0,365,invalid_adjacent_other_bar,"[(1178, 789)]",[],[1],[0.6],horizontal,"(890.0, 762.0)",0.6333333333333333,0.558,1,13338.949,2,0.0,other
0,366,valid,"[(1158, 823)]",[],[1],[0.5166666666666666],horizontal,"(390.0, 262.0)",1.5,0.474,1,13344.099,3,0.0,same
0,367,valid,"[(1193, 804)]",[],[1],[0.6166666666666667],horizontal,"(890.0, 262.0)",0.8166666666666667,0.574,1,13350.561,3,0.0,same
0,368,valid,"[(1160, 769)]",[],[1],[0.5166666666666666],horizontal,"(390.0, 262.0)",0.8666666666666667,0.469,1,13355.898,3,0.0,same
0,369,catch,"[(1160, 772)]",[],[1],[],vertical,"(890.0, 262.0)",1.7,nan,1,13361.861,3,0.0,same
0,370,catch,"[(1165, 761)]",[],[1],[],vertical,"(390.0, 262.0)",1.7,nan,1,13367.849,3,0.0,same
0,371,valid,"[(1170, 794)]",[],[1],[0.48333333333333334],vertical,"(890.0, 262.0)",1.4666666666666666,0.444,1,13373.649,3,0.0,same
0,372,valid,"[(1160, 813)]",[],[1],[0.4666666666666667],horizontal,"(890.0, 762.0)",0.8833333333333333,0.424,1,13379.932,3,0.0,same
0,373,valid,"[(1140, 803)]",[],[1],[0.7166666666666667],horizontal,"(390.0, 262.0)",0.6,0.673,1,13385.401,3,0.0,same
0,374,valid,"[(1190, 792)]",[],[1],[0.5],vertical,"(890.0, 762.0)",0.95,0.458,1,13391.308,3,0.0,same
0,375,valid,"[(1160, 798)]",[],[1],[0.5333333333333333],horizontal,"(390.0, 262.0)",1.0,0.488,1,13396.763,3,0.0,same
0,376,valid,"[(1118, 813)]",[],[1],[0.5833333333333334],vertical,"(390.0, 262.0)",0.9166666666666666,0.539,1,13402.635,3,0.0,same
0,377,valid,"[(1163, 773)]",[],[1],[0.5333333333333333],horizontal,"(890.0, 762.0)",1.4166666666666667,0.493,1,13410.226,3,0.0,same
0,378,invalid_adjacent_other_bar,"[(1161, 788)]",[],[1],[0.85],vertical,"(390.0, 762.0)",0.7333333333333333,nan,0,13416.173,0,0.0,other
0,379,catch,"[(1116, 798)]",[],[1],[],vertical,"(390.0, 262.0)",,"('cti', 1.656),nan",0,13421.056,0,0.02,same
0,380,invalid_same_bar,"[(1165, 798)]",[],[1],[0.25],vertical,"(890.0, 762.0)",1.0666666666666667,0.212,1,13425.866,1,0.02,same
0,381,catch,"[(1165, 795)]",[],[1],[],horizontal,"(890.0, 762.0)",1.7,nan,1,13431.066,1,0.02,same
0,382,invalid_adjacent_other_bar,"[(1165, 776)]",[],[1],[0.5],horizontal,"(890.0, 262.0)",0.7,0.459,1,13436.093,1,0.02,other
0,383,valid,"[(1175, 781)]",[],[1],[0.85],vertical,"(390.0, 762.0)",1.1666666666666667,nan,0,13440.554,0,0.02,same
0,384,valid,"[(1132, 785)]",[],[1],[0.5166666666666666],horizontal,"(390.0, 262.0)",0.45,0.483,1,13445.468,1,0.02,same
0,385,valid,"[(1137, 788)]",[],[1],[0.5166666666666666],vertical,"(390.0, 762.0)",1.1166666666666667,0.475,1,13450.854,1,0.02,same
0,386,valid,"[(1171, 804)]",[],[1],[0.65],horizontal,"(890.0, 262.0)",1.1666666666666667,0.609,1,13456.177,1,0.02,same
0,387,invalid_adjacent_other_bar,"[(1180, 805)]",[],[1],[0.5],horizontal,"(390.0, 262.0)",0.6,0.462,1,13461.649,2,0.02,other
0,388,valid,"[(1160, 789)]",[],[1],[0.85],horizontal,"(890.0, 762.0)",1.2166666666666666,nan,0,13466.749,0,0.02,same
0,389,valid,"[(1155, 794)]",[],[1],[0.6333333333333333],horizontal,"(390.0, 262.0)",0.7166666666666667,0.589,1,13471.799,1,0.02,same
0,390,valid,"[(1166, 795)]",[],[1],[0.5166666666666666],vertical,"(890.0, 762.0)",1.4833333333333334,0.476,1,13476.461,1,0.02,same
0,391,valid,"[(1177, 788)]",[],[1],[0.5],horizontal,"(390.0, 262.0)",1.2666666666666666,0.46,1,13481.718,1,0.02,same
0,392,catch,"[(1189, 813)]",[],[1],[],vertical,"(890.0, 262.0)",1.7,nan,1,13486.881,2,0.02,same
0,393,valid,"[(1160, 790)]",[],[1],[0.43333333333333335],horizontal,"(390.0, 762.0)",0.75,0.396,1,13492.564,2,0.02,same
0,394,valid,"[(1165, 781)]",[],[1],[0.55],horizontal,"(890.0, 762.0)",0.65,0.513,1,13497.804,2,0.02,same
0,395,valid,"[(1171, 790)]",[],[1],[0.6333333333333333],vertical,"(890.0, 762.0)",0.7666666666666666,0.589,1,13502.944,3,0.02,same
0,396,catch,"[(1161, 774)]",[],[1],[],vertical,"(390.0, 762.0)",1.7,nan,1,13509.133,3,0.02,same
0,397,valid,"[(1184, 795)]",[],[1],[0.6166666666666667],vertical,"(390.0, 762.0)",1.3333333333333333,0.571,1,13514.816,3,0.02,same
0,398,invalid_adjacent_other_bar,"[(1173, 802)]",[],[1],[0.5333333333333333],horizontal,"(390.0, 262.0)",1.0,0.494,1,13521.268,3,0.02,other
0,399,valid,"[(1164, 773)]",[],[1],[0.5166666666666666],horizontal,"(390.0, 762.0)",0.55,0.477,1,13527.012,3,0.02,same
0,400,valid,"[(1169, 774)]",[],[1],[0.85],horizontal,"(890.0, 262.0)",0.55,nan,0,13531.987,0,0.02,same
0,401,valid,"[(1135, 797)]",[],[1],[0.5333333333333333],horizontal,"(890.0, 762.0)",0.9333333333333333,0.49,1,13536.642,1,0.02,same
0,402,catch,"[(1161, 787)]",[],[1],[],horizontal,"(390.0, 262.0)",1.7,nan,1,13542.015,1,0.02,same
0,403,valid,"[(1184, 785)]",[],[1],[0.5666666666666667],vertical,"(390.0, 762.0)",1.5,0.525,1,13547.15,1,0.02,same
0,404,valid,"[(1168, 769)]",[],[1],[0.5833333333333334],vertical,"(390.0, 262.0)",1.45,0.548,1,13552.55,2,0.02,same
0,405,valid,"[(1185, 773)]",[],[1],[0.5],horizontal,"(890.0, 762.0)",0.6333333333333333,0.455,1,13558.215,2,0.02,same
0,406,invalid_same_bar,"[(1179, 758)]",[],[1],[0.6333333333333333],vertical,"(890.0, 262.0)",1.1333333333333333,0.589,1,13563.082,2,0.02,same
0,407,valid,"[(1158, 799)]",[],[1],[0.48333333333333334],horizontal,"(890.0, 262.0)",0.9833333333333333,0.445,1,13568.693,3,0.02,same
0,408,valid,"[(1160, 797)]",[],[1],[0.6],vertical,"(890.0, 762.0)",0.9166666666666666,0.56,1,13574.521,3,0.02,same
0,409,valid,"[(1162, 783)]",[],[1],[0.5],horizontal,"(890.0, 762.0)",1.0166666666666666,0.462,1,13580.139,3,0.02,same
0,410,valid,"[(1183, 789)]",[],[1],[0.6333333333333333],vertical,"(390.0, 262.0)",0.5,0.588,1,13586.066,3,0.02,same
0,411,catch,"[(1185, 788)]",[],[1],[],vertical,"(390.0, 762.0)",1.7,nan,1,13591.415,3,0.02,same
0,412,valid,"[(1160, 777)]",[],[1],[0.5333333333333333],horizontal,"(890.0, 762.0)",1.4333333333333333,0.495,1,13597.583,3,0.02,same
0,413,valid,"[(1175, 784)]",[],[1],[0.5166666666666666],horizontal,"(890.0, 262.0)",0.8333333333333334,0.477,1,13603.965,3,0.02,same
0,414,catch,"[(1165, 762)]",[],[1],[],horizontal,"(890.0, 762.0)",1.7,nan,1,13609.582,3,0.02,same
0,415,valid,"[(1185, 799)]",[],[1],[0.5666666666666667],vertical,"(390.0, 262.0)",0.8,0.523,1,13615.65,3,0.02,same
0,416,catch,"[(1160, 793)]",[],[1],[],horizontal,"(390.0, 262.0)",1.7,nan,1,13621.617,3,0.02,same
0,417,catch,"[(1181, 775)]",[],[1],[],horizontal,"(390.0, 262.0)",1.7,nan,1,13627.592,3,0.02,same
0,418,valid,"[(1160, 798)]",[],[1],[0.6166666666666667],horizontal,"(890.0, 762.0)",1.1666666666666667,0.579,1,13633.218,3,0.02,same
0,419,catch,"[(1179, 779)]",[],[1],[],vertical,"(390.0, 262.0)",1.7,nan,1,13639.3,3,0.02,same
0,420,valid,"[(1162, 795)]",[],[1],[0.48333333333333334],vertical,"(390.0, 762.0)",0.8666666666666667,0.443,1,13645.288,3,0.02,same
0,421,catch,"[(1161, 772)]",[],[1],[],vertical,"(390.0, 262.0)",1.7,nan,1,13650.963,3,0.02,same
0,422,valid,"[(1161, 789)]",[],[1],[0.5333333333333333],horizontal,"(390.0, 262.0)",0.75,0.493,1,13656.804,3,0.02,same
0,423,catch,"[(1179, 793)]",[],[1],[],horizontal,"(890.0, 262.0)",1.7,nan,1,13662.782,3,0.02,same
0,424,valid,"[(1167, 769)]",[],[1],[0.55],vertical,"(390.0, 262.0)",0.3833333333333333,0.509,1,13669.07,3,0.02,same
0,425,valid,"[(1160, 797)]",[],[1],[0.85],horizontal,"(890.0, 762.0)",0.8833333333333333,nan,0,13674.469,0,0.02,same
0,426,valid,"[(1114, 783)]",[],[1],[0.5333333333333333],vertical,"(890.0, 762.0)",0.6,0.488,1,13679.148,1,0.02,same
0,427,valid,"[(1181, 791)]",[],[1],[0.5333333333333333],horizontal,"(390.0, 762.0)",0.5666666666666667,0.491,1,13683.731,1,0.02,same
0,428,valid,"[(1166, 782)]",[],[1],[0.65],horizontal,"(390.0, 762.0)",1.5,0.61,1,13688.182,1,0.02,same
0,429,valid,"[(1162, 769)]",[],[1],[0.6],vertical,"(390.0, 262.0)",1.1,0.556,1,13693.629,2,0.0,same
0,430,valid,"[(1160, 780)]",[],[1],[0.6166666666666667],horizontal,"(890.0, 262.0)",0.45,0.573,1,13699.173,2,0.0,same
0,431,valid,"[(1160, 792)]",[],[1],[0.5],horizontal,"(890.0, 262.0)",1.2833333333333332,0.457,1,13704.442,2,0.0,same
0,432,valid,"[(1160, 784)]",[],[1],[0.5833333333333334],vertical,"(890.0, 762.0)",0.8,0.537,1,13710.308,3,0.0,same
0,433,valid,"[(1165, 778)]",[],[1],[0.85],horizontal,"(890.0, 762.0)",1.3166666666666667,nan,0,13715.979,0,0.0,same
0,434,valid,"[(1160, 806)]",[],[1],[0.5333333333333333],vertical,"(390.0, 262.0)",0.95,0.495,1,13721.249,1,0.0,same
0,435,valid,"[(1160, 795)]",[],[1],[0.6],vertical,"(390.0, 762.0)",0.6833333333333333,0.557,1,13726.443,1,0.0,same
0,436,valid,"[(1165, 794)]",[],[1],[0.5],horizontal,"(390.0, 262.0)",0.7,0.46,1,13731.233,1,0.0,same
0,437,catch,"[(1160, 800)]",[],[1],[],horizontal,"(390.0, 262.0)",1.7,nan,1,13735.466,2,0.0,same
0,438,catch,"[(1161, 813)]",[],[1],[],horizontal,"(890.0, 262.0)",1.7,nan,1,13740.599,2,0.0,same
0,439,valid,"[(1179, 777)]",[],[1],[0.55],vertical,"(390.0, 262.0)",1.4666666666666666,0.505,1,13746.613,2,0.0,same
0,440,invalid_adjacent_other_bar,"[(1156, 795)]",[],[1],[0.5],horizontal,"(390.0, 262.0)",0.95,0.462,1,13752.49,3,0.0,other
0,441,valid,"[(1180, 798)]",[],[1],[0.85],horizontal,"(390.0, 262.0)",1.2,nan,0,13757.707,0,0.0,same
0,442,invalid_same_bar,"[(1122, 788)]",[],[1],[0.5166666666666666],vertical,"(390.0, 262.0)",1.0833333333333333,0.475,1,13762.933,1,0.0,same
0,443,valid,"[(1160, 792)]",[],[1],[0.5333333333333333],vertical,"(890.0, 762.0)",0.4666666666666667,0.492,1,13768.129,1,0.0,same
0,444,catch,"[(1160, 780)]",[],[1],[],vertical,"(390.0, 762.0)",1.7,nan,1,13772.55,1,0.0,same
0,445,valid,"[(1158, 799)]",[],[1],[0.5666666666666667],horizontal,"(390.0, 762.0)",1.15,0.527,1,13777.701,2,0.0,same
0,446,catch,"[(1161, 799)]",[],[1],[],horizontal,"(390.0, 762.0)",1.7,nan,1,13783.85,2,0.0,same
0,447,valid,"[(1162, 808)]",[],[1],[0.55],horizontal,"(390.0, 762.0)",0.6333333333333333,0.505,1,13789.361,2,0.0,same
0,448,catch,"[(1162, 799)]",[],[1],[],vertical,"(890.0, 262.0)",1.7,nan,1,13794.361,3,0.0,same
0,449,valid,"[(1160, 781)]",[],[1],[0.65],horizontal,"(390.0, 762.0)",1.4666666666666666,0.608,1,13800.982,3,0.0,same
0,450,invalid_adjacent_other_bar,"[(1157, 794)]",[],[1],[0.85],horizontal,"(890.0, 762.0)",1.1666666666666667,nan,0,13807.042,0,0.0,other
0,451,invalid_adjacent_other_bar,"[(1156, 839)]",[],[1],[0.85],vertical,"(890.0, 762.0)",1.1166666666666667,nan,0,13811.833,0,0.0,other
0,452,valid,"[(1165, 808)]",[],[1],[0.55],horizontal,"(890.0, 762.0)",1.3333333333333333,0.511,1,14351.119,1,0.0,same
0,453,catch,"[(1184, 799)]",[],[1],[],vertical,"(890.0, 262.0)",,"('cti', 1.134),nan",0,14358.052,0,0.02,same
0,454,valid,"[(1165, 809)]",[],[1],[0.6],vertical,"(390.0, 262.0)",0.7666666666666666,0.56,1,14362.588,1,0.02,same
0,455,invalid_same_bar,"[(1141, 775)]",[],[1],[0.85],horizontal,"(390.0, 762.0)",0.45,nan,0,14367.334,0,0.02,same
0,456,invalid_adjacent_other_bar,"[(1170, 790)]",[],[1],[0.55],vertical,"(890.0, 262.0)",1.2333333333333334,0.511,1,14371.975,1,0.02,other
0,457,valid,"[(1175, 806)]",[],[1],[0.48333333333333334],horizontal,"(890.0, 262.0)",0.65,0.447,1,14377.705,1,0.02,same
0,458,catch,"[(1170, 756)]",[],[1],[],vertical,"(390.0, 262.0)",1.7,nan,1,14382.647,1,0.02,same
0,459,valid,"[(1171, 772)]",[],[1],[0.7333333333333333],vertical,"(890.0, 262.0)",1.2666666666666666,0.685,1,14387.868,2,0.02,same
0,460,valid,"[(1170, 763)]",[],[1],[0.6666666666666666],horizontal,"(890.0, 262.0)",0.9166666666666666,0.623,1,14394.043,2,0.02,same
0,461,catch,"[(1164, 779)]",[],[1],[],vertical,"(390.0, 762.0)",1.7,nan,1,14399.286,2,0.02,same
0,462,catch,"[(1165, 771)]",[],[1],[],vertical,"(890.0, 762.0)",1.7,nan,1,14405.401,3,0.02,same
0,463,catch,"[(1185, 752), (1136, 801)]",[],"[0, 1]",[],vertical,"(390.0, 262.0)",1.7,nan,1,14411.753,3,0.02,same
0,464,catch,"[(1194, 772)]",[],[1],[],horizontal,"(890.0, 262.0)",1.7,nan,1,14419.286,3,0.02,same
0,465,valid,"[(1163, 766)]",[],[1],[0.6833333333333333],vertical,"(390.0, 262.0)",0.75,0.642,1,14424.928,3,0.02,same
0,466,valid,"[(1163, 769)]",[],[1],[0.5],horizontal,"(390.0, 762.0)",1.3666666666666667,0.456,1,14430.534,3,0.02,same
0,467,valid,"[(1170, 765)]",[],[1],[0.65],vertical,"(890.0, 262.0)",1.2166666666666666,0.605,1,14436.352,3,0.02,same
0,468,catch,"[(1135, 789)]",[],[1],[],vertical,"(890.0, 762.0)",1.7,nan,1,14442.452,3,0.02,same
0,469,valid,"[(1161, 783)]",[],[1],[0.6833333333333333],horizontal,"(390.0, 762.0)",1.2,0.644,1,14449.203,3,0.02,same
0,470,valid,"[(1175, 779)]",[],[1],[0.5666666666666667],horizontal,"(390.0, 762.0)",0.4,0.528,1,14455.735,3,0.02,same
0,471,valid,"[(1172, 780)]",[],[1],[0.4666666666666667],vertical,"(390.0, 762.0)",0.8166666666666667,0.428,1,14460.912,3,0.02,same
0,472,valid,"[(1165, 774)]",[],[1],[0.6],vertical,"(390.0, 262.0)",1.5166666666666666,0.559,1,14466.019,3,0.02,same
0,473,valid,"[(1146, 749), (1140, 818)]",[],"[0, 1]",[0.5666666666666667],vertical,"(890.0, 262.0)",1.05,0.527,1,14472.218,3,0.02,same
0,474,valid,"[(1160, 768)]",[],[1],[0.48333333333333334],horizontal,"(390.0, 762.0)",0.9,0.441,1,14478.785,3,0.02,same
0,475,catch,"[(1160, 764)]",[],[1],[],vertical,"(390.0, 762.0)",1.7,nan,1,14484.636,3,0.02,same
0,476,valid,"[(1170, 781)]",[],[1],[0.5333333333333333],vertical,"(890.0, 762.0)",1.3,0.494,1,14490.985,3,0.02,same
0,477,invalid_adjacent_other_bar,"[(1166, 792)]","[(1128, 871)]",[1],[0.5166666666666666],vertical,"(890.0, 262.0)",,"('bar', 0.524)",0,14497.105,0,0.02,other
0,478,valid,"[(1138, 779)]",[],[1],[0.5333333333333333],vertical,"(890.0, 262.0)",1.4,0.493,1,14500.219,1,0.02,same
0,479,valid,"[(1138, 761)]",[],[1],[0.5333333333333333],horizontal,"(890.0, 262.0)",1.0166666666666666,0.493,1,14505.701,1,0.02,same
0,480,valid,"[(1165, 779)]",[],[1],[0.55],horizontal,"(390.0, 262.0)",1.45,0.506,1,14510.131,1,0.02,same
0,481,catch,"[(1135, 769)]",[],[1],[],vertical,"(390.0, 262.0)",1.7,nan,1,14515.632,2,0.02,same
0,482,valid,"[(1166, 763)]",[],[1],[0.65],horizontal,"(890.0, 762.0)",0.65,0.605,1,14521.034,2,0.02,same
0,483,catch,"[(1166, 794)]",[],[1],[],vertical,"(890.0, 762.0)",1.7,nan,1,14526.692,2,0.02,same
0,484,catch,"[(1176, 780)]",[],[1],[],horizontal,"(390.0, 762.0)",1.7,nan,1,14532.703,3,0.02,same
0,485,valid,"[(1166, 769)]",[],[1],[0.5333333333333333],horizontal,"(890.0, 762.0)",0.8,0.491,1,14539.17,3,0.02,same
0,486,valid,"[(1165, 757)]",[],[1],[0.55],horizontal,"(890.0, 262.0)",0.7,0.506,1,14544.833,3,0.02,same
0,487,valid,"[(1165, 779)]",[],[1],[0.5],horizontal,"(390.0, 262.0)",0.7666666666666666,0.459,1,14550.037,3,0.02,same
0,488,valid,"[(1135, 806)]",[],[1],[0.5666666666666667],horizontal,"(390.0, 262.0)",1.2,0.525,1,14555.407,3,0.02,same
0,489,catch,"[(1136, 756)]",[],[1],[],vertical,"(890.0, 762.0)",1.7,nan,1,14561.669,3,0.02,same
0,490,valid,"[(1178, 766)]",[],[1],[0.6666666666666666],horizontal,"(390.0, 762.0)",1.5,0.623,1,14567.52,3,0.02,same
0,491,invalid_same_bar,"[(1163, 774)]",[],[1],[0.55],vertical,"(390.0, 262.0)",0.8666666666666667,0.507,1,14573.686,3,0.02,same
0,492,valid,"[(1165, 748), (1165, 783)]",[],"[0, 1]",[0.5],horizontal,"(890.0, 262.0)",0.5166666666666666,0.457,1,14579.126,3,0.02,same
0,493,valid,"[(1169, 778)]",[],[1],[0.6],horizontal,"(390.0, 262.0)",1.4666666666666666,0.558,1,14585.67,3,0.02,same
0,494,invalid_same_bar,"[(1170, 786)]",[],[1],[0.5],vertical,"(890.0, 262.0)",0.85,0.459,1,14592.036,3,0.02,same
0,495,invalid_adjacent_other_bar,"[(1156, 782)]",[],[1],[0.5666666666666667],horizontal,"(390.0, 262.0)",0.4166666666666667,0.524,1,14597.319,3,0.02,other
0,496,valid,"[(1160, 779)]",[],[1],[0.85],vertical,"(390.0, 762.0)",1.3833333333333333,nan,0,14602.769,0,0.02,same
0,497,valid,"[(1140, 763)]",[],[1],[0.6166666666666667],vertical,"(390.0, 762.0)",0.4,0.577,1,14607.636,1,0.02,same
0,498,invalid_same_bar,"[(1165, 779)]",[],[1],[0.85],vertical,"(390.0, 762.0)",1.3,nan,0,14612.126,0,0.02,same
0,499,valid,"[(1163, 779)]",[],[1],[0.5166666666666666],horizontal,"(390.0, 762.0)",0.7666666666666666,0.479,1,14617.644,1,0.02,same
0,500,catch,"[(1161, 811)]",[],[1],[],vertical,"(890.0, 762.0)",1.7,nan,1,14622.386,1,0.02,same
0,501,catch,"[(1176, 779)]",[],[1],[],vertical,"(890.0, 262.0)",1.7,nan,1,14627.403,1,0.02,same
0,502,valid,"[(1140, 779)]",[],[1],[0.5],vertical,"(390.0, 762.0)",0.8833333333333333,0.457,1,14632.6,2,0.02,same
0,503,valid,"[(1132, 780)]",[],[1],[0.5333333333333333],horizontal,"(390.0, 262.0)",1.2333333333333334,0.49,1,14637.435,2,0.0,same
0,504,catch,"[(1170, 782)]",[],[1],[],horizontal,"(390.0, 262.0)",1.7,nan,1,14642.854,2,0.0,same
0,505,catch,"[(1176, 765)]",[],[1],[],horizontal,"(390.0, 262.0)",1.7,nan,1,14649.213,3,0.0,same
0,506,valid,"[(1168, 760)]",[],[1],[0.5166666666666666],vertical,"(890.0, 262.0)",0.45,0.473,1,14655.587,3,0.0,same
0,507,catch,"[(1161, 761)]",[],[1],[],horizontal,"(890.0, 262.0)",1.7,nan,1,14660.503,3,0.0,same
0,508,valid,"[(1171, 769)]",[],[1],[0.5166666666666666],horizontal,"(390.0, 262.0)",0.5833333333333334,0.474,1,14666.719,3,0.0,same
0,509,valid,"[(1172, 766)]",[],[1],[0.85],horizontal,"(890.0, 762.0)",0.8666666666666667,nan,0,14672.136,0,0.0,same
0,510,valid,"[(1141, 779)]",[],[1],[0.55],vertical,"(890.0, 762.0)",0.9,0.504,1,14676.673,1,0.0,same
0,511,catch,"[(1161, 774)]",[],[1],[],horizontal,"(890.0, 262.0)",1.7,nan,1,14681.452,1,0.0,same
0,512,catch,"[(1175, 779)]",[],[1],[],horizontal,"(390.0, 262.0)",1.7,nan,1,14686.169,1,0.0,same
0,513,valid,"[(1141, 774)]",[],[1],[0.48333333333333334],horizontal,"(390.0, 262.0)",0.9333333333333333,0.444,1,14691.719,2,0.0,same
0,514,valid,"[(1164, 757)]",[],[1],[0.5],vertical,"(890.0, 762.0)",1.3666666666666667,0.46,1,14696.701,2,0.0,same
0,515,valid,"[(1141, 783)]",[],[1],[0.4666666666666667],horizontal,"(890.0, 262.0)",0.4,0.425,1,14702.153,2,0.0,same
0,516,valid,"[(1163, 795)]",[],[1],[0.5166666666666666],horizontal,"(890.0, 762.0)",0.7333333333333333,0.475,1,14707.204,3,0.0,same
0,517,invalid_adjacent_other_bar,"[(1141, 774)]",[],[1],[0.55],vertical,"(890.0, 762.0)",0.6333333333333333,0.506,1,14713.102,3,0.0,other
0,518,valid,"[(1175, 782)]",[],[1],[0.65],vertical,"(890.0, 262.0)",1.5,0.603,1,14718.67,3,0.0,same
0,519,valid,"[(1170, 774)]",[],[1],[0.85],vertical,"(890.0, 762.0)",1.4166666666666667,nan,0,14725.27,0,0.0,same
0,520,catch,"[(1140, 776)]",[],[1],[],horizontal,"(390.0, 762.0)",1.7,nan,1,14730.336,1,0.0,same
0,521,valid,"[(1165, 777)]",[],[1],[0.5],horizontal,"(890.0, 762.0)",1.2166666666666666,0.457,1,14735.771,1,0.0,same
0,522,catch,"[(1174, 771)]",[],[1],[],horizontal,"(390.0, 262.0)",1.7,nan,1,14741.009,1,0.0,same
0,523,valid,"[(1141, 774)]",[],[1],[0.5166666666666666],vertical,"(390.0, 762.0)",1.5,0.47,1,14746.252,2,0.0,same
0,524,valid,"[(1153, 808)]",[],[1],[0.5],horizontal,"(390.0, 762.0)",0.75,0.459,1,14751.984,2,0.0,same
0,525,valid,"[(1163, 785)]",[],[1],[0.5333333333333333],vertical,"(390.0, 262.0)",1.3333333333333333,0.495,1,14757.235,2,0.0,same
0,526,valid,"[(1165, 774)]",[],[1],[0.48333333333333334],horizontal,"(390.0, 262.0)",1.0666666666666667,0.443,1,14763.385,3,0.0,same
0,527,catch,"[(1180, 774)]",[],[1],[],horizontal,"(390.0, 762.0)",1.7,nan,1,14769.202,3,0.0,same
0,528,valid,"[(1174, 774)]",[],[1],[0.6333333333333333],vertical,"(390.0, 262.0)",1.4333333333333333,0.586,1,14775.456,3,0.0,same
0,529,valid,"[(1164, 786)]",[],[1],[0.5],vertical,"(890.0, 262.0)",0.9833333333333333,0.46,1,14782.019,3,0.0,same
0,530,valid,"[(1162, 773)]",[],[1],[0.5],vertical,"(390.0, 262.0)",1.0666666666666667,0.458,1,14787.953,3,0.0,same
0,531,valid,"[(1140, 780)]",[],[1],[0.4666666666666667],horizontal,"(890.0, 262.0)",0.8833333333333333,0.43,1,14793.612,3,0.0,same
0,532,valid,"[(1163, 770)]",[],[1],[0.48333333333333334],vertical,"(390.0, 262.0)",1.1666666666666667,0.443,1,14798.796,3,0.0,same
0,533,valid,"[(1164, 771)]",[],[1],[0.5],vertical,"(890.0, 762.0)",0.7166666666666667,0.462,1,14804.869,3,0.0,same
0,534,valid,"[(1165, 757)]",[],[1],[0.5],vertical,"(390.0, 262.0)",0.6666666666666666,0.459,1,14810.278,3,0.0,same
0,535,invalid_same_bar,"[(1167, 774)]",[],[1],[0.5],horizontal,"(390.0, 762.0)",1.4833333333333334,0.462,1,14815.746,3,0.0,same
0,536,invalid_same_bar,"[(1165, 768)]",[],[1],[0.5666666666666667],vertical,"(890.0, 262.0)",1.1333333333333333,0.529,1,14822.148,3,0.0,same
0,537,invalid_adjacent_other_bar,"[(1164, 763)]",[],[1],[0.85],vertical,"(390.0, 762.0)",1.3666666666666667,nan,0,14828.303,0,0.0,other
0,538,invalid_adjacent_other_bar,"[(1118, 779)]",[],[1],[0.5],horizontal,"(390.0, 762.0)",1.1,0.459,1,14833.671,1,0.0,other
0,539,valid,"[(1163, 769)]",[],[1],[0.5666666666666667],vertical,"(390.0, 762.0)",0.7,0.524,1,14838.67,1,0.0,same
0,540,catch,"[(1141, 770)]",[],[1],[],vertical,"(890.0, 762.0)",1.7,nan,1,14843.477,1,0.0,same
0,541,valid,"[(1160, 803)]",[],[1],[0.6],vertical,"(390.0, 762.0)",1.35,0.56,1,14848.303,2,0.0,same
0,542,valid,"[(1140, 782)]",[],[1],[0.5166666666666666],vertical,"(890.0, 762.0)",1.1,0.486,1,14854.387,2,0.0,same
0,543,catch,"[(1160, 777)]",[],[1],[],horizontal,"(390.0, 762.0)",,"('cti', 1.658),nan",0,14860.062,0,0.02,same
0,544,valid,"[(1140, 794)]",[],[1],[0.5333333333333333],horizontal,"(890.0, 262.0)",0.5,0.495,1,14865.446,1,0.02,same
0,545,valid,"[(1167, 769)]",[],[1],[0.6166666666666667],horizontal,"(890.0, 762.0)",1.2166666666666666,0.579,1,14869.812,1,0.02,same
0,546,catch,"[(1165, 775)]",[],[1],[],vertical,"(890.0, 262.0)",1.7,nan,1,14875.37,1,0.02,same
0,547,valid,"[(1166, 773)]",[],[1],[0.5],horizontal,"(390.0, 762.0)",0.5166666666666666,0.461,1,14880.231,2,0.02,same
0,548,valid,"[(1165, 789)]",[],[1],[0.6666666666666666],horizontal,"(890.0, 762.0)",1.3333333333333333,0.63,1,14885.41,2,0.02,same
0,549,valid,"[(1165, 764)]",[],[1],[0.5833333333333334],vertical,"(390.0, 262.0)",1.2666666666666666,0.546,1,14891.169,2,0.02,same
0,550,valid,"[(1170, 779)]",[],[1],[0.7166666666666667],vertical,"(890.0, 262.0)",0.6666666666666666,0.677,1,14896.937,3,0.02,same
0,551,valid,"[(1165, 779)]",[],[1],[0.48333333333333334],horizontal,"(390.0, 262.0)",0.7666666666666666,0.439,1,14903.092,3,0.02,same
0,552,valid,"[(1166, 772)]",[],[1],[0.5],vertical,"(390.0, 762.0)",0.3833333333333333,0.463,1,14908.442,3,0.02,same
0,553,valid,"[(1165, 764)]",[],[1],[0.5666666666666667],horizontal,"(890.0, 762.0)",0.3833333333333333,0.517,1,14913.618,3,0.02,same
0,554,valid,"[(1163, 772)]",[],[1],[0.6166666666666667],horizontal,"(890.0, 262.0)",1.0833333333333333,0.578,1,14919.032,3,0.02,same
0,555,catch,"[(1165, 776)]",[],[1],[],vertical,"(890.0, 762.0)",1.7,nan,1,14925.283,3,0.02,same
0,556,catch,"[(1175, 807)]",[],[1],[],horizontal,"(890.0, 762.0)",1.7,nan,1,14931.499,3,0.02,same
0,557,catch,"[(1174, 776)]",[],[1],[],horizontal,"(390.0, 762.0)",1.7,nan,1,14937.696,3,0.02,same
0,558,valid,"[(1162, 808)]",[],[1],[0.5166666666666666],horizontal,"(390.0, 262.0)",1.1666666666666667,0.476,1,14943.562,3,0.02,same
0,559,invalid_adjacent_other_bar,"[(1172, 764)]",[],[1],[0.5],vertical,"(390.0, 262.0)",0.9,0.459,1,14949.778,3,0.02,other
0,560,valid,"[(1165, 772)]",[],[1],[0.85],horizontal,"(890.0, 262.0)",1.0833333333333333,nan,0,14955.637,0,0.02,same
0,561,valid,"[(1143, 778)]",[],[1],[0.85],horizontal,"(390.0, 762.0)",0.7,nan,0,14960.544,0,0.02,same
0,562,valid,"[(1165, 775)]",[],[1],[0.55],vertical,"(390.0, 762.0)",1.2166666666666666,0.508,1,14964.867,1,0.02,same
0,563,catch,"[(1165, 771)]",[],[1],[],horizontal,"(890.0, 762.0)",1.7,nan,1,14969.838,1,0.02,same
0,564,valid,"[(1166, 756)]",[],[1],[0.6333333333333333],horizontal,"(390.0, 262.0)",0.7833333333333333,0.598,1,14975.336,1,0.02,same
0,565,valid,"[(1140, 767)]",[],[1],[0.7],horizontal,"(890.0, 762.0)",1.4666666666666666,0.658,1,14980.212,2,0.02,same
0,566,catch,"[(1180, 771)]",[],[1],[],horizontal,"(890.0, 762.0)",1.7,nan,1,14985.964,2,0.02,same
0,567,valid,"[(1187, 774)]",[],[1],[0.5166666666666666],horizontal,"(390.0, 762.0)",1.35,0.477,1,14991.688,2,0.02,same
0,568,valid,"[(1183, 766)]",[],[1],[0.5666666666666667],horizontal,"(390.0, 762.0)",1.35,0.52,1,14997.422,3,0.02,same
0,569,invalid_same_bar,"[(1165, 756)]",[],[1],[0.5],horizontal,"(390.0, 262.0)",0.48333333333333334,0.463,1,15003.221,3,0.02,same
0,570,valid,"[(1165, 781)]",[],[1],[0.6166666666666667],horizontal,"(890.0, 262.0)",0.6166666666666667,0.567,1,15008.548,3,0.02,same
0,571,valid,"[(1163, 803)]",[],[1],[0.5],horizontal,"(890.0, 262.0)",0.9166666666666666,0.467,1,15013.794,3,0.02,same
0,572,valid,"[(1171, 764)]",[],[1],[0.48333333333333334],horizontal,"(890.0, 762.0)",0.65,0.446,1,15019.499,3,0.02,same
0,573,valid,"[(1165, 772)]",[],[1],[0.6666666666666666],vertical,"(890.0, 762.0)",1.5166666666666666,0.626,1,15024.575,3,0.02,same
0,574,valid,"[(1162, 774)]",[],[1],[0.5666666666666667],vertical,"(390.0, 762.0)",1.4666666666666666,0.527,1,15031.276,3,0.02,same
0,575,catch,"[(1162, 761)]",[],[1],[],horizontal,"(390.0, 262.0)",1.7,nan,1,15038.218,3,0.02,same
0,576,catch,"[(1165, 769)]",[],[1],[],vertical,"(890.0, 762.0)",1.7,nan,1,15044.235,3,0.02,same
0,577,invalid_adjacent_other_bar,"[(1137, 770)]",[],[1],[0.6333333333333333],vertical,"(390.0, 762.0)",0.7166666666666667,0.588,1,15050.037,3,0.02,other
0,578,valid,"[(1166, 782)]",[],[1],[0.85],vertical,"(890.0, 762.0)",0.7,nan,0,15055.477,0,0.02,same
0,579,valid,"[(1137, 773)]",[],[1],[0.5333333333333333],vertical,"(390.0, 762.0)",0.9333333333333333,0.488,1,15059.935,1,0.02,same
0,580,catch,"[(1141, 765)]",[],[1],[],horizontal,"(890.0, 262.0)",1.7,nan,1,15065.138,1,0.02,same
0,581,valid,"[(1162, 739), (1115, 803)]",[],"[0, 1]",[0.6333333333333333],horizontal,"(390.0, 762.0)",1.1666666666666667,0.586,1,15070.414,1,0.02,same
0,582,valid,"[(1165, 784)]",[],[1],[0.5],vertical,"(390.0, 262.0)",0.45,0.456,1,15076.374,2,0.02,same
0,583,invalid_adjacent_other_bar,"[(1165, 774)]",[],[1],[0.85],horizontal,"(390.0, 262.0)",1.1333333333333333,nan,0,15081.147,0,0.02,other
0,584,valid,"[(1160, 783)]",[],[1],[0.6],vertical,"(390.0, 262.0)",0.36666666666666664,0.561,1,15086.418,1,0.02,same
0,585,catch,"[(1109, 829)]",[],[1],[],horizontal,"(390.0, 762.0)",1.7,nan,1,15090.676,1,0.02,same
0,586,catch,"[(1135, 779)]",[],[1],[],vertical,"(890.0, 762.0)",1.7,nan,1,15096.164,1,0.02,same
0,587,catch,"[(1127, 772)]",[],[1],[],horizontal,"(890.0, 262.0)",1.7,nan,1,15101.453,2,0.02,same
0,588,valid,"[(1160, 790)]",[],[1],[0.5166666666666666],horizontal,"(890.0, 262.0)",0.8666666666666667,0.483,1,15106.865,2,0.02,same
0,589,valid,"[(1141, 803)]",[],[1],[0.55],horizontal,"(390.0, 762.0)",0.5,0.514,1,15111.949,2,0.02,same
0,590,valid,"[(1160, 778)]",[],[1],[0.5666666666666667],vertical,"(890.0, 262.0)",1.5,0.528,1,15117.503,3,0.02,same
0,591,valid,"[(1162, 808)]",[],[1],[0.5166666666666666],horizontal,"(890.0, 762.0)",1.15,0.475,1,15124.119,3,0.02,same
0,592,valid,"[(1161, 808)]",[],[1],[0.6666666666666666],horizontal,"(890.0, 262.0)",1.2,0.623,1,15130.18,3,0.02,same
0,593,valid,"[(1166, 774)]",[],[1],[0.5166666666666666],horizontal,"(390.0, 762.0)",1.2166666666666666,0.475,1,15136.469,3,0.0,same
0,594,invalid_adjacent_other_bar,"[(1135, 762)]",[],[1],[0.55],vertical,"(390.0, 262.0)",0.7833333333333333,0.512,1,15142.67,3,0.0,other
0,595,valid,"[(1161, 787)]",[],[1],[0.48333333333333334],vertical,"(390.0, 762.0)",0.95,0.441,1,15148.476,3,0.0,same
0,596,valid,"[(1165, 770)]",[],[1],[0.31666666666666665],horizontal,"(890.0, 262.0)",1.5,0.288,1,15154.41,3,0.0,same
0,597,valid,"[(1160, 776)]",[],[1],[0.65],vertical,"(890.0, 262.0)",1.35,0.608,1,15160.225,3,0.0,same
0,598,valid,"[(1161, 794)]",[],[1],[0.5166666666666666],horizontal,"(890.0, 762.0)",1.2166666666666666,0.478,1,15166.371,3,0.0,same
0,599,valid,"[(1160, 764)]",[],[1],[0.5333333333333333],horizontal,"(390.0, 762.0)",0.7166666666666667,0.493,1,15172.571,3,0.0,same
0,600,valid,"[(1165, 804)]",[],[1],[0.5],horizontal,"(890.0, 762.0)",0.85,0.468,1,15178.184,3,0.0,same
0,601,valid,"[(1136, 775)]",[],[1],[0.48333333333333334],horizontal,"(390.0, 762.0)",0.95,0.444,1,15183.694,3,0.0,same
0,602,catch,"[(1160, 762)]",[],[1],[],horizontal,"(390.0, 762.0)",1.7,nan,1,15189.104,3,0.0,same
0,603,valid,"[(1162, 760)]",[],[1],[0.5166666666666666],horizontal,"(890.0, 762.0)",0.8166666666666667,0.479,1,15195.237,3,0.0,same
0,604,valid,"[(1183, 772)]",[],[1],[0.5333333333333333],horizontal,"(890.0, 262.0)",1.4833333333333334,0.499,1,15200.586,3,0.0,same
0,605,valid,"[(1164, 772)]",[],[1],[0.5],vertical,"(390.0, 262.0)",0.8833333333333333,0.461,1,15207.337,3,0.0,same
0,606,valid,"[(1167, 774)]",[],[1],[0.5666666666666667],horizontal,"(390.0, 762.0)",0.6666666666666666,0.526,1,15213.279,3,0.0,same
0,607,invalid_same_bar,"[(1165, 764)]",[],[1],[0.6333333333333333],vertical,"(890.0, 762.0)",1.1166666666666667,0.593,1,15218.749,3,0.0,same
0,608,valid,"[(1162, 754)]",[],[1],[0.7],horizontal,"(890.0, 262.0)",0.65,0.654,1,15224.738,3,0.0,same
0,609,valid,"[(1170, 794)]",[],[1],[0.85],vertical,"(890.0, 762.0)",1.2166666666666666,nan,0,15230.588,0,0.0,same
0,610,invalid_same_bar,"[(1158, 788)]",[],[1],[0.48333333333333334],vertical,"(890.0, 262.0)",0.48333333333333334,0.45,1,15235.752,1,0.0,same
0,611,valid,"[(1171, 774)]",[],[1],[0.6166666666666667],vertical,"(390.0, 762.0)",1.15,0.575,1,15240.207,1,0.0,same
0,612,valid,"[(1175, 803)]",[],[1],[0.5333333333333333],vertical,"(390.0, 262.0)",1.4333333333333333,0.494,1,15245.814,1,0.0,same
0,613,valid,"[(1162, 772)]",[],[1],[0.48333333333333334],vertical,"(390.0, 762.0)",1.4333333333333333,0.442,1,15251.317,2,0.0,same
0,614,valid,"[(1165, 807)]",[],[1],"[0.85, 0.85]",vertical,"(390.0, 262.0)",1.1,"0.81,nan",0,15256.969,0,0.0,same
0,615,catch,"[(1161, 786)]",[],[1],[],horizontal,"(390.0, 262.0)",1.7,nan,1,15262.271,1,0.0,same
0,616,valid,"[(1181, 808)]",[],[1],[0.6666666666666666],vertical,"(390.0, 762.0)",1.2333333333333334,0.621,1,15267.664,1,0.0,same
0,617,catch,"[(1165, 774)]",[],[1],[],horizontal,"(890.0, 762.0)",1.7,nan,1,15272.712,1,0.0,same
0,618,invalid_same_bar,"[(1161, 759)]",[],[1],[0.5833333333333334],horizontal,"(390.0, 262.0)",1.2666666666666666,0.543,1,15277.935,2,0.0,same
0,619,valid,"[(1165, 760)]",[],[1],[0.5333333333333333],vertical,"(390.0, 262.0)",1.1666666666666667,0.498,1,15283.637,2,0.0,same
0,620,valid,"[(1167, 770)]",[],[1],[0.6166666666666667],horizontal,"(890.0, 262.0)",1.35,0.576,1,15289.187,2,0.0,same
0,621,invalid_same_bar,"[(1165, 771)]",[],[1],[0.85],horizontal,"(390.0, 762.0)",1.3,nan,0,15294.988,0,0.0,same
0,622,catch,"[(1118, 787)]",[],[1],[],horizontal,"(390.0, 262.0)",1.7,nan,1,15300.405,1,0.0,same
0,623,invalid_same_bar,"[(1165, 773)]",[],[1],[0.43333333333333335],horizontal,"(890.0, 262.0)",1.0166666666666666,0.398,1,15305.813,1,0.0,same
0,624,valid,"[(1179, 781)]",[],[1],[0.5],horizontal,"(890.0, 262.0)",0.8833333333333333,0.462,1,15310.822,1,0.0,same
0,625,valid,"[(1176, 771)]",[],[1],[0.7833333333333333],vertical,"(890.0, 762.0)",1.45,0.737,1,15315.923,2,0.0,same
0,626,catch,"[(1166, 769)]",[],[1],[],horizontal,"(890.0, 262.0)",1.7,nan,1,15321.905,2,0.0,same
0,627,catch,"[(1165, 778)]",[],[1],[],horizontal,"(390.0, 262.0)",1.7,nan,1,15327.455,2,0.0,same
0,628,valid,"[(1168, 770)]",[],[1],[0.6],horizontal,"(390.0, 262.0)",1.4833333333333334,0.572,1,15333.354,3,0.0,same
0,629,valid,"[(1178, 806)]",[],[1],[0.5833333333333334],horizontal,"(390.0, 762.0)",1.45,0.541,1,15340.189,3,0.0,same
0,630,valid,"[(1165, 766)]",[],[1],[0.6],horizontal,"(890.0, 762.0)",1.0333333333333332,0.558,1,15346.434,3,0.0,same
0,631,valid,"[(1179, 776)]",[],[1],[0.55],vertical,"(890.0, 762.0)",1.3833333333333333,0.513,1,15352.755,3,0.0,same
0,632,valid,"[(1166, 782)]",[],[1],[0.5166666666666666],horizontal,"(390.0, 262.0)",0.5166666666666666,0.474,1,15359.255,3,0.0,same
0,633,valid,"[(1164, 775)]",[],[1],[0.6833333333333333],horizontal,"(390.0, 762.0)",0.6666666666666666,0.648,1,15364.621,3,0.0,same
0,634,valid,"[(1155, 766)]",[],[1],[0.5166666666666666],horizontal,"(390.0, 762.0)",1.3166666666666667,0.477,1,15370.533,3,0.0,same
0,635,valid,"[(1175, 765)]",[],[1],[0.5],vertical,"(890.0, 262.0)",1.0333333333333332,0.46,1,15376.289,3,0.0,same
0,636,valid,"[(1176, 783)]",[],[1],[0.6166666666666667],horizontal,"(890.0, 762.0)",1.2833333333333332,0.582,1,15381.972,3,0.0,same
0,637,valid,"[(1175, 773)]",[],[1],[0.6166666666666667],horizontal,"(890.0, 762.0)",0.35,0.581,1,15388.089,3,0.0,same
0,638,valid,"[(1165, 784)]",[],[1],[0.5],horizontal,"(390.0, 262.0)",0.7833333333333333,0.459,1,15393.187,3,0.0,same
0,639,invalid_adjacent_other_bar,"[(1160, 782)]",[],[1],[0.48333333333333334],vertical,"(890.0, 762.0)",1.3666666666666667,0.454,1,15398.888,3,0.0,other
0,640,valid,"[(1168, 772)]",[],[1],[0.5166666666666666],horizontal,"(390.0, 762.0)",0.8666666666666667,0.485,1,15405.289,3,0.0,same
0,641,valid,"[(1165, 761)]",[],[1],[0.5166666666666666],horizontal,"(890.0, 262.0)",0.7666666666666666,0.48,1,15411.155,3,0.0,same
0,642,valid,"[(1169, 769)]",[],[1],[0.5833333333333334],vertical,"(390.0, 762.0)",0.5,0.549,1,15416.536,3,0.0,same
0,643,invalid_same_bar,"[(1165, 759)]",[],[1],[0.1],horizontal,"(890.0, 262.0)",1.2833333333333332,0.066,0,15422.286,0,0.0,same
0,644,valid,"[(1116, 788)]",[],[1],[0.55],vertical,"(890.0, 762.0)",1.35,0.517,1,15426.838,1,0.0,same
0,645,catch,"[(1180, 779)]",[],[1],[],horizontal,"(890.0, 762.0)",1.7,nan,1,15443.844,1,0.0,same
0,646,valid,"[(1177, 799)]",[],[1],[0.55],horizontal,"(390.0, 262.0)",0.7166666666666667,0.515,1,15449.034,1,0.0,same
0,647,valid,"[(1181, 788)]",[],[1],[0.48333333333333334],vertical,"(890.0, 262.0)",1.3,0.456,1,15453.788,2,0.0,same
0,648,valid,"[(1168, 777)]",[],[1],[0.85],vertical,"(390.0, 762.0)",1.2333333333333334,nan,0,15459.635,0,0.0,same
0,649,catch,"[(1158, 813)]",[],[1],[],horizontal,"(390.0, 762.0)",,"('cti', 1.063),nan",0,15464.272,0,0.02,same
0,650,valid,"[(1177, 799)]",[],[1],[0.5833333333333334],horizontal,"(890.0, 262.0)",1.1,0.55,1,15468.57,1,0.02,same
0,651,valid,"[(1190, 774)]",[],[1],[0.5666666666666667],horizontal,"(890.0, 762.0)",1.35,0.523,1,15473.804,1,0.02,same
0,652,valid,"[(1170, 789)]",[],[1],[0.5],vertical,"(890.0, 762.0)",1.0166666666666666,0.462,1,15478.944,1,0.02,same
0,653,catch,"[(1160, 778)]",[],[1],[],horizontal,"(890.0, 262.0)",1.7,nan,1,15483.92,2,0.02,same
0,654,catch,"[(1172, 779)]",[],[1],[],vertical,"(390.0, 262.0)",1.7,nan,1,15489.972,2,0.02,same
0,655,valid,"[(1160, 772)]",[],[1],[0.7166666666666667],vertical,"(890.0, 762.0)",0.6833333333333333,0.676,1,15495.222,2,0.02,same
0,656,valid,"[(1161, 807)]",[],[1],[0.5166666666666666],horizontal,"(890.0, 762.0)",1.1833333333333333,0.475,1,15500.678,3,0.02,same
0,657,catch,"[(1163, 779)]",[],[1],[],vertical,"(390.0, 762.0)",1.7,nan,1,15507.09,3,0.02,same
0,658,catch,"[(1175, 795)]",[],[1],[],horizontal,"(390.0, 762.0)",1.7,nan,1,15513.106,3,0.02,same
0,659,valid,"[(1165, 775)]",[],[1],[0.6166666666666667],vertical,"(390.0, 762.0)",0.43333333333333335,0.574,1,15519.334,3,0.02,same
0,660,catch,"[(1178, 779)]",[],[1],[],horizontal,"(390.0, 262.0)",1.7,nan,1,15524.559,3,0.02,same
0,661,valid,"[(1165, 765)]",[],[1],[0.65],horizontal,"(890.0, 262.0)",0.8666666666666667,0.612,1,15530.855,3,0.02,same
0,662,invalid_same_bar,"[(1138, 777)]",[],[1],[0.5666666666666667],horizontal,"(890.0, 262.0)",1.4166666666666667,0.524,1,15536.743,3,0.02,same
0,663,catch,"[(1180, 773)]",[],[1],[],vertical,"(890.0, 762.0)",1.7,nan,1,15543.093,3,0.02,same
0,664,invalid_adjacent_other_bar,"[(1163, 769)]",[],[1],[0.5666666666666667],horizontal,"(390.0, 762.0)",1.4333333333333333,0.522,1,15548.82,3,0.02,other
0,665,catch,"[(1180, 770)]",[],[1],[],vertical,"(390.0, 262.0)",1.7,nan,1,15554.927,3,0.02,same
0,666,valid,"[(1170, 776)]",[],[1],[0.48333333333333334],vertical,"(390.0, 762.0)",0.7333333333333333,0.445,1,15560.842,3,0.02,same
0,667,valid,"[(1137, 763)]",[],[1],[0.5333333333333333],horizontal,"(390.0, 762.0)",1.4833333333333334,0.498,1,15566.417,3,0.02,same
0,668,catch,"[(1165, 772)]",[],[1],[],horizontal,"(390.0, 762.0)",1.7,nan,1,15572.908,3,0.02,same
0,669,valid,"[(1180, 776)]",[],[1],[0.5166666666666666],vertical,"(390.0, 762.0)",0.75,0.48,1,15579.124,3,0.02,same
0,670,invalid_adjacent_other_bar,"[(1135, 782)]",[],[1],[0.55],vertical,"(890.0, 762.0)",1.2166666666666666,0.51,1,15584.755,3,0.02,other
0,671,valid,"[(1161, 766)]",[],[1],[0.85],horizontal,"(890.0, 762.0)",0.4,nan,0,15591.355,0,0.02,same
0,672,valid,"[(1121, 799)]",[],[1],[0.7333333333333333],horizontal,"(890.0, 762.0)",0.5666666666666667,0.69,1,15595.643,1,0.02,same
0,673,catch,"[(1137, 767)]",[],[1],[],horizontal,"(390.0, 762.0)",1.7,nan,1,15600.597,1,0.02,same
0,674,catch,"[(1180, 754)]",[],[1],[],horizontal,"(890.0, 762.0)",1.7,nan,1,15605.836,1,0.02,same
0,675,valid,"[(1169, 769)]",[],[1],[0.5333333333333333],vertical,"(390.0, 262.0)",0.5333333333333333,0.49,1,15611.288,2,0.02,same
0,676,valid,"[(1167, 771)]",[],[1],[0.55],horizontal,"(890.0, 762.0)",0.35,0.505,1,15616.089,2,0.02,same
0,677,valid,"[(1184, 778)]",[],[1],[0.6],horizontal,"(890.0, 762.0)",0.6166666666666667,0.558,1,15620.905,2,0.02,same
0,678,valid,"[(1169, 786)]",[],[1],[0.7],horizontal,"(890.0, 762.0)",1.4666666666666666,0.661,1,15626.406,3,0.02,same
0,679,catch,"[(1179, 759)]",[],[1],[],horizontal,"(890.0, 262.0)",1.7,nan,1,15633.356,3,0.02,same
0,680,valid,"[(1162, 772)]",[],[1],[0.5],vertical,"(390.0, 262.0)",1.3666666666666667,0.465,1,15639.005,3,0.02,same
0,681,catch,"[(1164, 781)]",[],[1],[],horizontal,"(890.0, 762.0)",1.7,nan,1,15645.356,3,0.02,same
0,682,catch,"[(1180, 775)]",[],[1],[],vertical,"(890.0, 262.0)",1.7,nan,1,15652.172,3,0.02,same
0,683,valid,"[(1146, 761)]",[],[1],[0.48333333333333334],vertical,"(890.0, 262.0)",0.7333333333333333,0.447,1,15658.313,3,0.02,same
0,684,valid,"[(1165, 783)]",[],[1],[0.48333333333333334],vertical,"(890.0, 262.0)",1.05,0.44,1,15663.455,3,0.02,same
0,685,catch,"[(1165, 763)]",[],[1],[],horizontal,"(890.0, 762.0)",1.7,nan,1,15669.205,3,0.02,same
0,686,valid,"[(1155, 775)]",[],[1],[0.5666666666666667],horizontal,"(890.0, 262.0)",0.3833333333333333,0.528,1,15675.492,3,0.02,same
0,687,catch,"[(1156, 769)]",[],[1],[],vertical,"(890.0, 762.0)",1.7,nan,1,15680.316,3,0.02,same
0,688,catch,"[(1143, 773)]",[],[1],[],horizontal,"(390.0, 262.0)",1.7,nan,1,15686.225,3,0.02,same
0,689,valid,"[(1178, 785)]",[],[1],[0.6166666666666667],vertical,"(390.0, 262.0)",0.9333333333333333,0.574,1,15692.206,3,0.02,same
0,690,valid,"[(1179, 786)]",[],[1],[0.5666666666666667],vertical,"(390.0, 262.0)",0.55,0.528,1,15697.859,3,0.02,same
0,691,valid,"[(1175, 772)]",[],[1],[0.5],vertical,"(890.0, 262.0)",1.5,0.456,1,15703.055,3,0.02,same
0,692,valid,"[(1181, 776)]",[],[1],[0.6],horizontal,"(890.0, 262.0)",0.6666666666666666,0.565,1,15709.673,3,0.02,same
0,693,valid,"[(1135, 783)]",[],[1],[0.5666666666666667],horizontal,"(390.0, 262.0)",1.4833333333333334,0.525,1,15714.973,3,0.02,same
0,694,valid,"[(1157, 760)]",[],[1],[0.5666666666666667],vertical,"(890.0, 762.0)",1.1166666666666667,0.524,1,15721.557,3,0.02,same
0,695,invalid_same_bar,"[(1163, 777)]",[],[1],[0.5666666666666667],horizontal,"(890.0, 262.0)",1.5333333333333332,0.523,1,15727.355,3,0.02,same
0,696,catch,"[(1180, 774)]",[],[1],[],horizontal,"(890.0, 262.0)",,"('fix', 0.349),nan",0,15733.822,0,0.04,same
0,697,valid,"[(1164, 785)]",[],[1],[0.48333333333333334],vertical,"(890.0, 262.0)",1.2833333333333332,0.448,1,15735.984,1,0.04,same
0,698,valid,"[(1170, 773)]",[],[1],[0.6833333333333333],horizontal,"(890.0, 762.0)",0.35,0.633,1,15741.09,1,0.04,same
0,699,valid,"[(1165, 783)]",[],[1],[0.55],vertical,"(890.0, 762.0)",1.3166666666666667,0.504,1,15745.641,1,0.02,same
0,700,valid,"[(1184, 789)]",[],[1],[0.6166666666666667],horizontal,"(890.0, 262.0)",0.8166666666666667,0.572,1,15751.222,2,0.02,same
0,701,valid,"[(1162, 808)]",[],[1],[0.5166666666666666],vertical,"(390.0, 262.0)",0.5,0.473,1,15756.165,2,0.02,same
0,702,valid,"[(1138, 794)]",[],[1],[0.5333333333333333],horizontal,"(390.0, 762.0)",0.5833333333333334,0.49,1,15761.088,2,0.02,same
0,703,valid,"[(1162, 779)]",[],[1],[0.7],horizontal,"(390.0, 762.0)",0.95,0.652,1,15766.026,3,0.02,same
0,704,valid,"[(1167, 784)]",[],[1],[0.85],vertical,"(890.0, 762.0)",0.7666666666666666,nan,0,15772.225,0,0.02,same
0,705,catch,"[(1162, 847)]",[],[1],[],vertical,"(390.0, 762.0)",1.7,nan,1,15776.889,1,0.02,same
0,706,valid,"[(1153, 810)]",[],[1],[0.85],vertical,"(390.0, 762.0)",0.6166666666666667,nan,0,16865.242,0,0.02,same
0,707,valid,"[(1166, 815)]",[],[1],[0.4666666666666667],vertical,"(390.0, 262.0)",0.7833333333333333,0.429,1,16870.01,1,0.02,same
0,708,valid,"[(1182, 812)]",[],[1],[0.6833333333333333],vertical,"(890.0, 762.0)",1.1166666666666667,0.64,1,16874.893,1,0.02,same
0,709,catch,"[(1181, 786)]",[],[1],[],horizontal,"(890.0, 762.0)",1.7,nan,1,16879.741,1,0.02,same
0,710,valid,"[(1203, 783)]",[],[1],[],horizontal,"(390.0, 762.0)",,"('fix', 0.441)",0,16884.838,0,0.02,same
0,711,invalid_adjacent_other_bar,"[(1170, 802)]",[],[1],[0.6166666666666667],vertical,"(890.0, 762.0)",0.5833333333333334,0.578,1,16887.058,1,0.02,other
0,712,valid,"[(1175, 772)]",[],[1],[0.6],horizontal,"(890.0, 762.0)",1.1333333333333333,0.557,1,16892.104,1,0.02,same
0,713,valid,"[(1180, 808)]",[],[1],[],vertical,"(390.0, 262.0)",,"('fix', 0.485)",0,16897.657,0,0.02,same
0,714,valid,"[(1162, 789)]",[],[1],[0.5666666666666667],horizontal,"(890.0, 762.0)",0.9833333333333333,0.526,1,16899.969,1,0.02,same
0,715,valid,"[(1171, 771)]",[],[1],[0.5833333333333334],vertical,"(390.0, 762.0)",1.3166666666666667,0.545,1,16905.084,1,0.02,same
0,716,valid,"[(1180, 794)]",[],[1],[],vertical,"(390.0, 262.0)",,"('fix', 0.639)",0,16910.658,0,0.02,same
0,717,valid,"[(1180, 803)]","[(1173, 811)]",[1],[0.1],horizontal,"(390.0, 762.0)",,"('bar', 0.118)",0,16913.258,0,0.02,same
0,718,valid,"[(1170, 791)]","[(1169, 804)]",[1],[0.18333333333333332],horizontal,"(390.0, 762.0)",,"('bar', 0.196)",0,16915.61,0,0.02,same
0,719,invalid_adjacent_other_bar,"[(1165, 812)]",[],[1],[0.65],horizontal,"(390.0, 262.0)",0.9666666666666667,0.612,1,16918.028,1,0.02,other
0,720,valid,"[(1190, 795)]",[],[1],[0.55],vertical,"(890.0, 762.0)",0.9,0.505,1,16923.025,1,0.02,same
0,721,catch,"[(1187, 770)]",[],[1],[],horizontal,"(390.0, 762.0)",1.7,nan,1,16928.353,1,0.02,same
0,722,catch,"[(1181, 792)]",[],[1],[],vertical,"(390.0, 262.0)",1.7,nan,1,16933.46,2,0.02,same
0,723,catch,"[(1179, 783)]",[],[1],[],horizontal,"(890.0, 762.0)",1.7,nan,1,16938.925,2,0.02,same
0,724,catch,"[(1164, 777)]",[],[1],[],horizontal,"(890.0, 262.0)",1.7,nan,1,16944.771,2,0.02,same
0,725,valid,"[(1170, 768)]",[],[1],[0.5333333333333333],horizontal,"(890.0, 762.0)",1.3,0.498,1,16950.294,3,0.02,same
0,726,catch,"[(1171, 771)]",[],[1],[],vertical,"(390.0, 262.0)",1.7,nan,1,16956.907,3,0.02,same
0,727,valid,"[(1185, 793)]",[],[1],[0.6833333333333333],horizontal,"(890.0, 762.0)",0.65,0.643,1,16962.448,3,0.02,same
0,728,valid,"[(1172, 768)]",[],[1],[0.5],vertical,"(890.0, 262.0)",0.9333333333333333,0.458,1,16967.636,3,0.02,same
0,729,catch,"[(1178, 785)]",[],[1],[],horizontal,"(390.0, 262.0)",1.7,nan,1,16972.98,3,0.02,same
0,730,invalid_adjacent_other_bar,"[(1165, 772)]",[],[1],[0.7666666666666666],vertical,"(890.0, 762.0)",0.5666666666666667,0.716,1,16979.06,3,0.02,other
0,731,valid,"[(1162, 774)]",[],[1],[0.85],horizontal,"(390.0, 262.0)",0.48333333333333334,nan,0,16984.476,0,0.02,same
0,732,valid,"[(1146, 791)]",[],[1],[],horizontal,"(890.0, 762.0)",,"('cti', 1.165)",0,16989.093,0,0.02,same
0,733,valid,"[(1175, 818)]",[],[1],[0.5833333333333334],vertical,"(890.0, 762.0)",1.3666666666666667,0.539,1,16993.695,1,0.02,same
0,734,valid,"[(1170, 785)]","[(1143, 821)]",[1],[0.16666666666666666],vertical,"(390.0, 762.0)",,"('bar', 0.178)",0,16999.426,0,0.02,same
0,735,invalid_same_bar,"[(1173, 798)]","[(1170, 822)]",[1],[0.15],vertical,"(890.0, 262.0)",,"('bar', 0.163)",0,17001.676,0,0.02,same
0,736,catch,"[(1180, 813)]","[(1173, 820)]",[1],[0.23333333333333334],horizontal,"(890.0, 762.0)",,"('bar', 0.244),nan",0,17004.201,0,0.04,same
0,737,valid,"[(1160, 773)]",[],[1],[0.7666666666666666],vertical,"(390.0, 762.0)",1.3333333333333333,0.723,1,17006.793,1,0.04,same
0,738,valid,"[(1170, 780)]",[],[1],[0.6166666666666667],vertical,"(390.0, 262.0)",0.6166666666666667,0.58,1,17012.51,1,0.04,same
0,739,catch,"[(1166, 771)]",[],[1],[],vertical,"(390.0, 262.0)",1.7,nan,1,17017.059,1,0.04,same
0,740,valid,"[(1166, 772)]",[],[1],[0.5166666666666666],vertical,"(390.0, 262.0)",1.15,0.477,1,17022.009,2,0.04,same
0,741,valid,"[(1180, 774)]",[],[1],[0.5666666666666667],horizontal,"(390.0, 762.0)",1.4,0.523,1,17027.298,2,0.04,same
0,742,valid,"[(1180, 778)]",[],[1],[0.6166666666666667],horizontal,"(390.0, 762.0)",1.0,0.578,1,17033.031,2,0.04,same
0,743,valid,"[(1181, 776)]",[],[1],[0.5166666666666666],horizontal,"(890.0, 762.0)",1.1666666666666667,0.479,1,17038.244,3,0.04,same
0,744,catch,"[(1181, 782)]",[],[1],[],horizontal,"(890.0, 262.0)",,"('fix', 0.36),nan",0,17044.21,0,0.06,same
0,745,valid,"[(1165, 789)]",[],[1],[0.48333333333333334],vertical,"(890.0, 262.0)",0.85,0.44,1,17046.094,1,0.06,same
0,746,catch,"[(1180, 772)]",[],[1],[],horizontal,"(890.0, 262.0)",1.7,nan,1,17051.168,1,0.04,same
0,747,valid,"[(1179, 781)]",[],[1],[0.5166666666666666],horizontal,"(890.0, 762.0)",0.7833333333333333,0.476,1,17056.318,1,0.04,same
0,748,valid,"[(1180, 779)]",[],[1],[0.85],vertical,"(390.0, 762.0)",1.1166666666666667,nan,0,17060.76,0,0.04,same
0,749,valid,"[(1157, 791)]",[],[1],[0.5333333333333333],horizontal,"(890.0, 262.0)",0.7833333333333333,0.487,1,17065.844,1,0.04,same
0,750,invalid_adjacent_other_bar,"[(1163, 785)]",[],[1],[0.5833333333333334],vertical,"(390.0, 262.0)",1.0666666666666667,0.544,1,17070.576,1,0.04,other
0,751,valid,"[(1145, 782)]",[],[1],[0.7166666666666667],horizontal,"(390.0, 762.0)",1.25,0.667,1,17075.877,1,0.04,same
0,752,catch,"[(1170, 779)]",[],[1],[],horizontal,"(390.0, 762.0)",1.7,nan,1,17081.543,2,0.04,same
0,753,valid,"[(1169, 767)]",[],[1],[0.85],horizontal,"(890.0, 762.0)",0.6333333333333333,nan,0,17086.796,0,0.04,same
0,754,valid,"[(1165, 836)]",[],[1],[0.7],horizontal,"(390.0, 262.0)",0.7,0.648,1,17090.934,1,0.04,same
0,755,valid,"[(1170, 806)]",[],[1],[0.5166666666666666],vertical,"(390.0, 262.0)",0.7666666666666666,0.474,1,17390.211,1,0.04,same
0,756,valid,"[(1162, 808)]",[],[1],[0.7],vertical,"(890.0, 762.0)",0.9333333333333333,0.655,1,17394.862,1,0.04,same
0,757,catch,"[(1180, 802)]",[],[1],[],horizontal,"(890.0, 762.0)",1.7,nan,1,17400.269,2,0.04,same
0,758,valid,"[(1163, 798)]",[],[1],[0.7166666666666667],horizontal,"(890.0, 762.0)",0.7666666666666666,0.669,1,17405.794,2,0.04,same
0,759,valid,"[(1174, 784)]",[],[1],[0.6],horizontal,"(390.0, 762.0)",1.1666666666666667,0.56,1,17411.51,2,0.04,same
0,760,valid,"[(1145, 799)]",[],[1],[0.85],vertical,"(390.0, 262.0)",0.8,nan,0,17417.595,0,0.04,same
0,761,invalid_adjacent_other_bar,"[(1157, 804)]",[],[1],[0.5],horizontal,"(390.0, 262.0)",1.0,0.462,1,17422.66,1,0.04,other
0,762,valid,"[(1167, 777)]",[],[1],[0.6666666666666666],vertical,"(890.0, 262.0)",1.2833333333333332,0.621,1,17427.393,1,0.04,same
0,763,valid,"[(1185, 798)]",[],[1],[0.55],vertical,"(390.0, 262.0)",1.45,0.512,1,17432.738,1,0.04,same
0,764,catch,"[(1165, 799)]",[],[1],[],vertical,"(890.0, 262.0)",1.7,nan,1,17438.111,2,0.04,same
0,765,valid,"[(1168, 764)]",[],[1],[0.6],vertical,"(390.0, 262.0)",1.0166666666666666,0.561,1,17443.594,2,0.04,same
0,766,valid,"[(1160, 785)]",[],[1],[0.5666666666666667],horizontal,"(390.0, 262.0)",1.1166666666666667,0.527,1,17448.994,2,0.04,same
0,767,catch,"[(1160, 782)]",[],[1],[],vertical,"(890.0, 762.0)",1.7,nan,1,17454.727,3,0.04,same
0,768,valid,"[(1186, 780)]",[],[1],[0.6333333333333333],vertical,"(890.0, 762.0)",0.9833333333333333,0.595,1,17460.627,3,0.04,same
0,769,valid,"[(1160, 765)]",[],[1],[0.6333333333333333],horizontal,"(890.0, 262.0)",0.8333333333333334,0.599,1,17466.461,3,0.04,same
0,770,catch,"[(1165, 764)]",[],[1],[],vertical,"(390.0, 762.0)",1.7,nan,1,17472.278,3,0.04,same
0,771,invalid_same_bar,"[(1178, 786)]",[],[1],[0.55],horizontal,"(890.0, 262.0)",0.5666666666666667,0.511,1,17478.563,3,0.04,same
0,772,valid,"[(1160, 755)]",[],[1],[0.5333333333333333],vertical,"(890.0, 762.0)",1.2,0.488,1,17484.035,3,0.04,same
0,773,valid,"[(1171, 772)]",[],[1],[0.5],horizontal,"(390.0, 262.0)",0.5833333333333334,0.466,1,17489.944,3,0.04,same
0,774,valid,"[(1161, 794)]",[],[1],[0.5],vertical,"(890.0, 762.0)",0.8166666666666667,0.458,1,17495.627,3,0.04,same
0,775,valid,"[(1165, 795)]",[],[1],[0.6833333333333333],horizontal,"(390.0, 762.0)",0.8666666666666667,0.644,1,17501.418,3,0.04,same
0,776,valid,"[(1165, 773)]",[],[1],[0.6833333333333333],vertical,"(890.0, 762.0)",1.1166666666666667,0.642,1,17507.549,3,0.04,same
0,777,valid,"[(1160, 754)]",[],[1],[0.4666666666666667],vertical,"(390.0, 262.0)",0.4166666666666667,0.429,1,17513.668,3,0.04,same
0,778,catch,"[(1171, 777)]",[],[1],[],horizontal,"(890.0, 762.0)",1.7,nan,1,17519.087,3,0.04,same
0,779,valid,"[(1165, 777)]",[],[1],[0.5166666666666666],vertical,"(390.0, 262.0)",1.25,0.479,1,17524.81,3,0.04,same
0,780,valid,"[(1160, 808)]",[],[1],[0.5],vertical,"(890.0, 262.0)",0.9833333333333333,0.461,1,17530.587,3,0.04,same
0,781,catch,"[(1166, 776)]",[],[1],[],vertical,"(890.0, 762.0)",1.7,nan,1,17536.084,3,0.04,same
0,782,invalid_same_bar,"[(1165, 780)]",[],[1],[0.55],horizontal,"(890.0, 262.0)",1.1666666666666667,0.511,1,17541.798,3,0.04,same
0,783,valid,"[(1194, 787)]",[],[1],[0.85],horizontal,"(390.0, 762.0)",0.5166666666666666,nan,0,17547.845,0,0.04,same
0,784,valid,"[(1143, 800)]",[],[1],[0.5333333333333333],horizontal,"(390.0, 762.0)",1.1666666666666667,0.495,1,17551.839,1,0.04,same
0,785,valid,"[(1170, 793)]",[],[1],[0.5166666666666666],horizontal,"(390.0, 262.0)",0.5833333333333334,0.483,1,17557.476,1,0.04,same
0,786,catch,"[(1160, 779)]",[],[1],[],horizontal,"(390.0, 762.0)",1.7,nan,1,17561.826,1,0.02,same
0,787,valid,"[(1160, 757)]",[],[1],[0.5833333333333334],horizontal,"(390.0, 762.0)",0.6166666666666667,0.545,1,17567.063,2,0.02,same
0,788,valid,"[(1190, 793)]",[],[1],[],vertical,"(890.0, 762.0)",,"('fix', 0.368)",0,17571.784,0,0.02,same
0,789,catch,"[(1135, 801)]",[],[1],[],horizontal,"(390.0, 262.0)",1.7,nan,1,17573.677,1,0.02,same
0,790,invalid_same_bar,"[(1165, 788)]",[],[1],[0.7166666666666667],vertical,"(390.0, 262.0)",1.0,0.684,1,17579.169,1,0.02,same
0,791,valid,"[(1165, 787)]",[],[1],[0.5666666666666667],vertical,"(390.0, 262.0)",1.5,0.53,1,17584.711,1,0.02,same
0,792,valid,"[(1142, 765)]",[],[1],[0.5666666666666667],vertical,"(890.0, 762.0)",0.9833333333333333,0.521,1,17590.369,2,0.02,same
0,793,valid,"[(1161, 798)]",[],[1],[0.5166666666666666],vertical,"(890.0, 262.0)",1.0333333333333332,0.477,1,17595.474,2,0.02,same
0,794,valid,"[(1167, 786)]",[],[1],[0.7],horizontal,"(890.0, 262.0)",0.7166666666666667,0.665,1,17601.261,2,0.0,same
0,795,catch,"[(1167, 776)]",[],[1],[],horizontal,"(890.0, 762.0)",1.7,nan,1,17606.581,3,0.0,same
0,796,invalid_adjacent_other_bar,"[(1165, 761)]",[],[1],[0.85],horizontal,"(390.0, 762.0)",0.3833333333333333,nan,0,17612.728,0,0.0,other
0,797,valid,"[(1143, 791)]",[],[1],[0.55],vertical,"(390.0, 262.0)",0.5166666666666666,0.515,1,17616.593,1,0.0,same
0,798,valid,"[(1168, 768)]",[],[1],[0.5666666666666667],vertical,"(890.0, 262.0)",0.9166666666666666,0.529,1,17621.479,1,0.0,same
0,799,invalid_same_bar,"[(1167, 769)]",[],[1],[0.5166666666666666],vertical,"(890.0, 762.0)",0.36666666666666664,0.479,1,17626.555,1,0.0,same
0,800,valid,"[(1172, 787)]",[],[1],[0.55],horizontal,"(890.0, 762.0)",1.5166666666666666,0.508,1,17630.701,2,0.0,same
0,801,invalid_adjacent_other_bar,"[(1165, 778)]",[],[1],[0.7833333333333333],horizontal,"(890.0, 762.0)",1.0833333333333333,0.744,1,17636.795,2,0.0,other
0,802,valid,"[(1175, 768)]",[],[1],[0.5],vertical,"(890.0, 262.0)",0.5166666666666666,0.464,1,17642.369,2,0.0,same
0,803,valid,"[(1175, 790)]",[],[1],[0.6666666666666666],vertical,"(390.0, 262.0)",1.2666666666666666,0.623,1,17647.126,3,0.0,same
0,804,valid,"[(1178, 769)]",[],[1],[0.5166666666666666],vertical,"(390.0, 762.0)",0.55,0.478,1,17653.262,3,0.0,same
0,805,catch,"[(1173, 773)]",[],[1],[],vertical,"(390.0, 762.0)",1.7,nan,1,17658.467,3,0.0,same
0,806,catch,"[(1178, 778)]",[],[1],[],horizontal,"(890.0, 762.0)",1.7,nan,1,17664.135,3,0.0,same
0,807,invalid_adjacent_other_bar,"[(1177, 779)]",[],[1],[0.6],vertical,"(390.0, 262.0)",0.8333333333333334,0.56,1,17670.328,3,0.0,other
0,808,valid,"[(1175, 789)]",[],[1],[0.5333333333333333],horizontal,"(390.0, 262.0)",0.9,0.495,1,17676.453,3,0.0,same
0,809,valid,"[(1170, 779)]",[],[1],[0.6],vertical,"(390.0, 762.0)",1.35,0.563,1,17682.111,3,0.0,same
0,810,valid,"[(1165, 778)]",[],[1],[0.5833333333333334],horizontal,"(890.0, 762.0)",0.8,0.546,1,17688.528,3,0.0,same
0,811,invalid_same_bar,"[(1165, 782)]",[],[1],[0.6333333333333333],vertical,"(390.0, 762.0)",0.6166666666666667,0.594,1,17693.795,3,0.0,same
0,812,valid,"[(1173, 761)]",[],[1],[0.85],vertical,"(390.0, 762.0)",0.3833333333333333,nan,0,17699.577,0,0.0,same
0,813,catch,"[(1135, 773)]",[],[1],[],horizontal,"(390.0, 762.0)",1.7,nan,1,17703.911,1,0.0,same
0,814,catch,"[(1165, 774)]",[],[1],[],horizontal,"(890.0, 762.0)",1.7,nan,1,17709.3,1,0.0,same
0,815,valid,"[(1165, 760)]",[],[1],[0.5],vertical,"(890.0, 762.0)",1.3333333333333333,0.451,1,17714.777,1,0.0,same
0,816,catch,"[(1182, 774)]",[],[1],[],vertical,"(390.0, 262.0)",1.7,nan,1,17720.087,2,0.0,same
0,817,valid,"[(1156, 782)]",[],[1],[0.6166666666666667],vertical,"(390.0, 262.0)",1.3833333333333333,0.577,1,17725.296,2,0.0,same
0,818,valid,"[(1161, 777)]",[],[1],[0.5666666666666667],vertical,"(890.0, 762.0)",1.1833333333333333,0.525,1,17731.211,2,0.0,same
0,819,valid,"[(1184, 774)]",[],[1],[0.85],horizontal,"(890.0, 762.0)",0.75,nan,0,17737.06,0,0.0,same
0,820,valid,"[(1137, 769)]",[],[1],[0.5],vertical,"(890.0, 262.0)",0.9666666666666667,0.466,1,17741.798,1,0.0,same
0,821,catch,"[(1175, 759)]",[],[1],[],horizontal,"(890.0, 262.0)",1.7,nan,1,17746.687,1,0.0,same
0,822,invalid_adjacent_other_bar,"[(1135, 766)]",[],[1],[0.5333333333333333],horizontal,"(390.0, 262.0)",1.2,0.5,1,17752.077,1,0.0,other
0,823,catch,"[(1161, 779)]",[],[1],[],vertical,"(890.0, 262.0)",1.7,nan,1,17757.398,2,0.0,same
0,824,valid,"[(1140, 775)]",[],[1],[0.5166666666666666],horizontal,"(390.0, 262.0)",1.1333333333333333,0.484,1,17762.812,2,0.0,same
0,825,valid,"[(1172, 781)]",[],[1],[0.5],horizontal,"(890.0, 262.0)",1.05,0.46,1,17768.478,2,0.0,same
0,826,catch,"[(1168, 772)]",[],[1],[],horizontal,"(890.0, 762.0)",1.7,nan,1,17774.145,3,0.0,same
0,827,catch,"[(1165, 769)]",[],[1],[],horizontal,"(390.0, 762.0)",1.7,nan,1,17780.428,3,0.0,same
0,828,valid,"[(1166, 779)]",[],[1],[0.65],horizontal,"(890.0, 262.0)",1.3,0.611,1,17786.543,3,0.0,same
0,829,invalid_same_bar,"[(1174, 766)]",[],[1],[0.5166666666666666],vertical,"(890.0, 262.0)",1.0833333333333333,0.477,1,17792.799,3,0.0,same
0,830,valid,"[(1170, 776)]",[],[1],[0.6],horizontal,"(890.0, 762.0)",1.0166666666666666,0.563,1,17798.801,3,0.0,same
0,831,invalid_adjacent_other_bar,"[(1170, 774)]",[],[1],[0.85],vertical,"(890.0, 762.0)",0.5333333333333333,nan,0,17804.695,0,0.0,other
0,832,valid,"[(1141, 805)]",[],[1],[0.85],horizontal,"(390.0, 762.0)",0.8666666666666667,nan,0,17809.365,0,0.0,same
0,833,valid,"[(1165, 778)]",[],[1],[0.6666666666666666],vertical,"(890.0, 762.0)",1.0833333333333333,0.622,1,17814.113,1,0.0,same
0,834,catch,"[(1165, 783)]",[],[1],[],vertical,"(390.0, 262.0)",1.7,nan,1,17819.763,1,0.0,same
0,835,catch,"[(1164, 789)]",[],[1],[],horizontal,"(890.0, 262.0)",1.7,nan,1,17825.017,1,0.0,same
0,836,catch,"[(1192, 787)]",[],[1],[],vertical,"(890.0, 262.0)",1.7,nan,1,17829.979,2,0.0,same
0,837,valid,"[(1175, 772)]",[],[1],[0.5166666666666666],horizontal,"(390.0, 262.0)",1.4166666666666667,0.478,1,17835.307,2,0.0,same
0,838,invalid_same_bar,"[(1182, 774)]",[],[1],[0.6333333333333333],vertical,"(890.0, 762.0)",1.4166666666666667,0.594,1,17841.263,2,0.0,same
0,839,catch,"[(1160, 762)]",[],[1],[],horizontal,"(390.0, 262.0)",1.7,nan,1,17846.694,3,0.0,same
0,840,valid,"[(1193, 776)]",[],[1],[0.7],vertical,"(390.0, 262.0)",0.7166666666666667,0.657,1,17852.845,3,0.0,same
0,841,catch,"[(1189, 807)]",[],[1],[],vertical,"(390.0, 262.0)",1.7,nan,1,17858.805,3,0.0,same
0,842,invalid_adjacent_other_bar,"[(1159, 782)]",[],[1],[0.6],horizontal,"(890.0, 262.0)",0.7,0.564,1,17864.978,3,0.0,other
0,843,catch,"[(1161, 785)]",[],[1],[],vertical,"(890.0, 762.0)",1.7,nan,1,17870.646,3,0.0,same
0,844,valid,"[(1145, 772)]",[],[1],[0.5166666666666666],horizontal,"(890.0, 762.0)",1.4,0.471,1,17876.568,3,0.0,same
0,845,valid,"[(1147, 773)]",[],[1],[0.5333333333333333],horizontal,"(390.0, 762.0)",0.7333333333333333,0.496,1,17882.662,3,0.0,same
0,846,valid,"[(1165, 765)]",[],[1],[0.5],vertical,"(890.0, 262.0)",1.35,0.463,1,17888.078,3,0.0,same
0,847,catch,"[(1160, 764)]",[],[1],[],horizontal,"(390.0, 762.0)",1.7,nan,1,17894.08,3,0.0,same
0,848,valid,"[(1168, 785)]",[],[1],[0.48333333333333334],horizontal,"(890.0, 762.0)",1.3666666666666667,0.443,1,17899.986,3,0.0,same
0,849,catch,"[(1165, 783)]",[],[1],[],horizontal,"(390.0, 762.0)",1.7,nan,1,17906.213,3,0.0,same
0,850,valid,"[(1179, 783)]",[],[1],[0.5166666666666666],horizontal,"(890.0, 762.0)",1.2333333333333334,0.484,1,17912.535,3,0.0,same
0,851,valid,"[(1178, 770)]",[],[1],[0.5166666666666666],vertical,"(390.0, 762.0)",0.43333333333333335,0.48,1,17918.767,3,0.0,same
0,852,valid,"[(1180, 770)]",[],[1],[0.5833333333333334],vertical,"(890.0, 762.0)",0.7,0.545,1,17924.145,3,0.0,same
0,853,valid,"[(1165, 771)]",[],[1],[0.5166666666666666],vertical,"(890.0, 762.0)",0.6,0.479,1,17929.329,3,0.0,same
0,854,catch,"[(1162, 788)]",[],[1],[],horizontal,"(390.0, 762.0)",1.7,nan,1,17934.73,3,0.0,same
0,855,invalid_adjacent_other_bar,"[(1165, 772)]",[],[1],[0.5],horizontal,"(890.0, 262.0)",1.3,0.46,1,17940.47,3,0.0,other
