block,practice,trial,change_interval_s,change_interval_frames,taps_start_time_during_fix,taps_end_time_during_fix,taps_start_loc_during_fix,taps_end_loc_during_fix,taps_on_lever_during_fix,taps_on_lever_frame_during_fix,taps_on_lever_s_during_fix,fix_xy,bar_orientation,target_xy,cti,rt,acc,time
1,True,1,1.326,79,[],[],"[(1215, 899)]",[],[1],[],[],"[640.0, 512.0]",vertical,"(390.0, 262.0)",[],[0],0,0.045
1,True,2,0.712,42,[],[],"[(1240, 882), (1215, 867)]",[],"[0, 1]",[92],[1.5333333333333332],"[640.0, 512.0]",horizontal,"(890.0, 262.0)",[0.6166666666666667],[0.807],0,4.44
1,True,3,0.567,34,[],[],"[(1154, 917)]",[],[1],[61],[1.0166666666666666],"[640.0, 512.0]",vertical,"(890.0, 262.0)",[0.5],[0.429],1,17.21
1,True,4,0.808,48,[],[],"[(558, 559), (1197, 927)]",[],"[0, 1]",[79],[1.3166666666666667],"[640.0, 512.0]",vertical,"(390.0, 262.0)",[0.7666666666666666],[0.497],1,96.128
1,False,1,1.38,82,[],[],"[(523, 511), (1190, 885)]",[],"[0, 1]",[],[],"[640.0, 512.0]",vertical,"(390.0, 262.0)",[],[0],0,116.168
1,False,2,0.6,36,[],[],"[(1144, 880)]",[],[1],[86],[1.4333333333333333],"[640.0, 512.0]",vertical,"(890.0, 262.0)",[0.95],[0.804],0,123.831
1,False,3,0.5,30,[],[],"[(1166, 881)]",[],[1],[73],[1.2166666666666666],"[640.0, 512.0]",vertical,"(890.0, 762.0)",[0.6666666666666666],[0.69],1,130.628
1,False,4,0.499,29,[],[],"[(1170, 899)]",[],[1],[61],[1.0166666666666666],"[640.0, 512.0]",horizontal,"(390.0, 262.0)",[1.6666666666666667],[0.513],1,163.113
1,False,5,0.909,54,[],[],"[(1194, 889)]",[],[1],[86],[1.4333333333333333],"[640.0, 512.0]",horizontal,"(890.0, 762.0)",[1.3333333333333333],[0.509],1,167.678
1,False,6,0.505,30,[],[],"[(1192, 904)]",[],[1],[57],[0.95],"[640.0, 512.0]",horizontal,"(890.0, 262.0)",[1.4333333333333333],[0.431],1,180.265
1,False,7,0.994,59,[],[],"[(1170, 899)]",[],[1],[87],[1.45],"[640.0, 512.0]",vertical,"(890.0, 762.0)",[1.45],[0.445],1,184.429
1,False,8,1.008,60,[],[],"[(1197, 899)]",[],[1],[91],[1.5166666666666666],"[640.0, 512.0]",vertical,"(890.0, 262.0)",[0.5166666666666666],[0.491],1,188.874
1,False,9,1.352,81,[],[],"[(1173, 901)]",[],[1],[123],[2.05],"[640.0, 512.0]",vertical,"(890.0, 762.0)",[0.6333333333333333],[0.673],1,192.632
1,False,10,1.147,68,[],[],"[(1197, 905)]",[],[1],[104],[1.7333333333333334],"[640.0, 512.0]",vertical,"(890.0, 762.0)",[1.55],[0.575],1,196.868
1,False,11,0.309,18,[],[],"[(1178, 905)]",[],[1],[54],[0.9],"[640.0, 512.0]",vertical,"(390.0, 762.0)",[0.5],[0.578],1,202.166
1,False,12,0.967,58,[],[],"[(1171, 904)]",[],[1],[87],[1.45],"[640.0, 512.0]",vertical,"(390.0, 262.0)",[1.1],[0.464],1,205.234
1,False,13,1.301,78,[],[],"[(1175, 904)]",[],[1],[112],[1.8666666666666667],"[640.0, 512.0]",vertical,"(390.0, 762.0)",[1.6666666666666667],[0.545],1,209.383
1,False,14,0.632,37,[],[],"[(1178, 904)]",[],[1],[71],[1.1833333333333333],"[640.0, 512.0]",vertical,"(890.0, 762.0)",[0.7166666666666667],[0.535],1,214.417
1,False,15,0.751,45,[],[],"[(1203, 911)]",[],[1],[70],[1.1666666666666667],"[640.0, 512.0]",vertical,"(890.0, 262.0)",[1.1166666666666667],[0.389],1,218.534
1,False,16,1.459,87,[],[],"[(1191, 909)]",[],[1],[115],[1.9166666666666667],"[640.0, 512.0]",vertical,"(890.0, 262.0)",[0.9333333333333333],[0.441],1,222.31
1,False,17,0.372,22,[],[],"[(1203, 902)]",[],[1],[51],[0.85],"[640.0, 512.0]",horizontal,"(890.0, 262.0)",[1.6],[0.456],1,229.167
1,False,18,0.498,29,[],[],"[(1209, 905)]",[],[1],[60],[1.0],"[640.0, 512.0]",vertical,"(390.0, 762.0)",[1.45],[0.495],1,233.078
1,False,19,0.42,25,[],[],"[(1197, 919)]",[],[1],[70],[1.1666666666666667],"[640.0, 512.0]",horizontal,"(890.0, 762.0)",[0.9],[0.727],1,237.05
1,False,20,0.436,26,[],[],"[(1197, 901)]",[],[1],[69],[1.15],"[640.0, 512.0]",horizontal,"(390.0, 762.0)",[1.05],[0.688],1,240.634
1,False,21,1.39,83,[],[],"[(1193, 904)]",[],[1],[106],[1.7666666666666666],"[640.0, 512.0]",vertical,"(390.0, 262.0)",[0.95],[0.364],1,244.316
1,False,22,0.328,19,[],[],"[(1170, 899)]",[],[1],[51],[0.85],"[640.0, 512.0]",vertical,"(890.0, 262.0)",[1.0],[0.512],1,248.518
1,False,23,1.048,62,[],[],"[(1203, 899)]",[],[1],[91],[1.5166666666666666],"[640.0, 512.0]",vertical,"(390.0, 262.0)",[0.5666666666666667],[0.463],1,251.901
1,False,24,0.954,57,[],[],"[(1197, 896)]",[],[1],[102],[1.7],"[640.0, 512.0]",horizontal,"(890.0, 762.0)",[1.05],[0.729],1,255.489
1,False,25,1.408,84,[],[],"[(1185, 913)]",[],[1],[113],[1.8833333333333333],"[640.0, 512.0]",vertical,"(390.0, 262.0)",[1.4833333333333334],[0.461],1,259.746
1,False,26,0.443,26,[],[],"[(1191, 894)]",[],[1],[76],[1.2666666666666666],"[640.0, 512.0]",vertical,"(890.0, 262.0)",[0.5666666666666667],[0.805],0,264.598
1,False,27,0.698,41,[],[],"[(1240, 933), (1203, 899)]",[],"[0, 1]",[71],[1.1833333333333333],"[640.0, 512.0]",vertical,"(390.0, 762.0)",[0.5666666666666667],[0.476],1,267.945
1,False,28,0.385,23,[],[],"[(1168, 902)]",[],[1],[54],[0.9],"[640.0, 512.0]",horizontal,"(390.0, 762.0)",[1.15],[0.489],1,278.018
1,False,29,1.316,78,[],[],"[(1194, 899)]",[],[1],[111],[1.8499999999999999],"[640.0, 512.0]",vertical,"(890.0, 762.0)",[1.4333333333333333],[0.525],1,281.566
1,False,30,1.366,81,[],[],"[(1197, 938)]",[],[1],[123],[2.05],"[640.0, 512.0]",vertical,"(890.0, 262.0)",[1.0166666666666666],[0.676],1,286.301
1,False,31,1.359,81,[],[],"[(1227, 881)]",[],[1],[115],[1.9166666666666667],"[640.0, 512.0]",vertical,"(390.0, 762.0)",[0.95],[0.554],1,291.042
1,False,32,0.435,26,[],[],"[(365, 461), (1206, 914)]",[],"[0, 1]",[76],[1.2666666666666666],"[640.0, 512.0]",vertical,"(890.0, 262.0)",[0.8],[0.801],0,295.468
1,False,33,0.808,48,[],[],"[(1252, 903), (1119, 674), (1190, 903)]",[],"[0, 0, 1]",[79],[1.3166666666666667],"[640.0, 512.0]",vertical,"(890.0, 262.0)",[1.2333333333333334],[0.492],1,301.552
1,False,34,1.334,80,[],[],"[(1210, 899)]",[],[1],[120],[2.0],"[640.0, 512.0]",horizontal,"(890.0, 762.0)",[1.15],[0.637],1,315.431
1,False,35,0.637,38,[],[],"[(1194, 898)]",[],[1],[71],[1.1833333333333333],"[640.0, 512.0]",vertical,"(390.0, 762.0)",[0.85],[0.526],1,320.084
1,False,36,0.642,38,[],[],"[(1198, 899)]",[],[1],[67],[1.1166666666666667],"[640.0, 512.0]",horizontal,"(890.0, 762.0)",[1.25],[0.464],1,323.736
1,False,37,0.929,55,[],[],"[(1197, 901)]",[],[1],[85],[1.4166666666666667],"[640.0, 512.0]",horizontal,"(890.0, 762.0)",[1.4833333333333334],[0.479],1,327.611
1,False,38,0.676,40,[],[],"[(1197, 899)]",[],[1],[62],[1.0333333333333332],"[640.0, 512.0]",horizontal,"(890.0, 762.0)",[1.25],[0.344],1,332.003
1,False,39,1.478,88,[],[],"[(1204, 904)]",[],[1],[119],[1.9833333333333334],"[640.0, 512.0]",horizontal,"(890.0, 262.0)",[1.0],[0.495],1,335.8
1,False,40,1.214,72,[],[],"[(1185, 896)]",[],[1],[],[],"[640.0, 512.0]",horizontal,"(890.0, 262.0)",[],[0],0,340.368
1,False,41,1.215,72,[],[],"[(1179, 901)]",[],[1],[122],[2.033333333333333],"[640.0, 512.0]",horizontal,"(890.0, 262.0)",[1.35],[0.801],0,343.702
1,False,42,1.283,76,[],[],"[(1197, 919)]",[],[1],[105],[1.75],"[640.0, 512.0]",horizontal,"(390.0, 262.0)",[1.4166666666666667],[0.46],1,349.12
1,False,43,0.92,55,[],[],"[(1227, 904)]",[],[1],[86],[1.4333333333333333],"[640.0, 512.0]",horizontal,"(890.0, 262.0)",[0.9333333333333333],[0.49],1,356.901
1,False,44,1.408,84,[],[],"[(1215, 907)]",[],[1],[123],[2.05],"[640.0, 512.0]",vertical,"(390.0, 762.0)",[1.5833333333333333],[0.625],1,360.765
1,False,45,0.491,29,[],[],"[(1191, 892)]",[],[1],[63],[1.05],"[640.0, 512.0]",horizontal,"(890.0, 762.0)",[0.7],[0.544],1,365.885
1,False,46,1.325,79,[],[],"[(1198, 899)]",[],[1],[119],[1.9833333333333334],"[640.0, 512.0]",horizontal,"(390.0, 762.0)",[0.65],[0.639],1,369.386
1,False,47,0.552,33,[],[],"[(1221, 907)]",[],[1],[38],[0.6333333333333333],"[640.0, 512.0]",vertical,"(390.0, 762.0)",[0.5833333333333334],[0.066],1,373.551
1,False,48,0.523,31,[],[387633],"[(229, 431), (162, 765), (342, 774), (221, 794), (1166, 929)]","[(1166, 929)]","[0, 0, 0, 0, 1]",[13],[0.21666666666666667],"[640.0, 512.0]",horizontal,"(390.0, 762.0)",[],[0],0,376.312
1,False,49,1.341,80,[],[],"[(1197, 920)]",[],[1],[],[],"[640.0, 512.0]",horizontal,"(890.0, 262.0)",[],[0],0,381.131
1,False,50,0.949,56,[],[],"[(1197, 865)]",[],[1],[],[],"[640.0, 512.0]",vertical,"(390.0, 762.0)",[],[0],0,384.634
1,False,51,0.439,26,[],[],"[(1176, 890)]",[],[1],[76],[1.2666666666666666],"[640.0, 512.0]",horizontal,"(390.0, 262.0)",[0.6666666666666666],[0.8],0,387.642
1,False,52,0.81,48,[],[],"[(244, 894), (333, 516), (1197, 895)]",[],"[0, 0, 1]",[77],[1.2833333333333332],"[640.0, 512.0]",horizontal,"(390.0, 762.0)",[0.9333333333333333],[0.462],1,391.352
1,False,53,0.414,24,[],[],"[(1203, 529), (1213, 913)]",[],"[0, 1]",[74],[1.2333333333333334],"[640.0, 512.0]",vertical,"(390.0, 762.0)",[1.5333333333333332],[0.804],0,395.478
1,False,54,0.75,45,[],[],"[(473, 880), (1197, 875)]",[],"[0, 1]",[76],[1.2666666666666666],"[640.0, 512.0]",vertical,"(390.0, 762.0)",[1.4],[0.494],1,400.583
1,False,55,1.219,73,[],[],"[(1197, 890)]",[],[1],[103],[1.7166666666666666],"[640.0, 512.0]",horizontal,"(890.0, 762.0)",[1.2833333333333332],[0.484],1,410.879
1,False,56,1.072,64,[],[],"[(1200, 901)]",[],[1],[114],[1.9],"[640.0, 512.0]",vertical,"(890.0, 762.0)",[0.55],[0.81],0,415.413
1,False,57,1.188,71,[],[427985],"[(1221, 899)]","[(1177, 913)]",[1],[32],[0.5333333333333333],"[640.0, 512.0]",vertical,"(390.0, 762.0)",[],[0],0,419.38
1,False,58,0.727,43,[],[429986],"[(1204, 898)]","[(1199, 906)]",[1],[26],[0.43333333333333335],"[640.0, 512.0]",vertical,"(890.0, 762.0)",[],[0],0,421.501
1,False,59,1.043,62,[],[],"[(1197, 879)]",[],[1],[93],[1.55],"[640.0, 512.0]",vertical,"(890.0, 262.0)",[0.5333333333333333],[0.492],1,423.487
1,False,60,0.536,32,[],[],"[(1211, 906)]",[],[1],[66],[1.1],"[640.0, 512.0]",horizontal,"(390.0, 762.0)",[0.8333333333333334],[0.544],1,427.149
2,False,61,1.075,64,[],[],"[(1197, 899)]",[],[1],[102],[1.7],"[640.0, 512.0]",vertical,"(890.0, 262.0)",[0.8],[0.615],1,430.586
2,False,62,0.613,36,[],[],"[(1206, 897)]",[],[1],[],[],"[640.0, 512.0]",vertical,"(390.0, 262.0)",[],[0],0,434.67
2,False,63,0.657,39,[],[],"[(1203, 867)]",[],[1],[89],[1.4833333333333334],"[640.0, 512.0]",vertical,"(390.0, 762.0)",[0.9],[0.798],0,437.398
2,False,64,1.136,68,[],[],"[(1191, 905)]",[],[1],[],[],"[640.0, 512.0]",vertical,"(390.0, 262.0)",[],[0],0,441.602
2,False,65,1.48,88,[],[454227],"[(1221, 900)]","[(1168, 920)]",[1],[68],[1.1333333333333333],"[640.0, 512.0]",vertical,"(390.0, 262.0)",[],[0],0,445.046
2,False,66,0.758,45,[],[],"[(1252, 901), (1191, 899)]",[],"[0, 1]",[73],[1.2166666666666666],"[640.0, 512.0]",horizontal,"(390.0, 262.0)",[0.9166666666666666],[0.45],1,447.723
2,False,67,0.867,52,[],[],"[(1192, 894)]",[],[1],[83],[1.3833333333333333],"[640.0, 512.0]",horizontal,"(890.0, 262.0)",[0.5166666666666666],[0.491],1,453.612
2,False,68,1.187,71,[],[],"[(1200, 889)]",[],[1],[104],[1.7333333333333334],"[640.0, 512.0]",vertical,"(390.0, 762.0)",[1.1],[0.527],1,457.032
2,False,69,0.833,49,[],[],"[(1203, 890)]",[],[1],[91],[1.5166666666666666],"[640.0, 512.0]",horizontal,"(890.0, 762.0)",[1.3],[0.672],1,461.383
2,False,70,1.111,66,[],[],"[(1203, 897)]",[],[1],[],[],"[640.0, 512.0]",horizontal,"(390.0, 262.0)",[],[0],0,465.743
2,False,71,1.096,65,[],[],"[(1203, 889)]",[],[1],[99],[1.65],"[640.0, 512.0]",vertical,"(890.0, 262.0)",[0.9333333333333333],[0.552],1,468.973
2,False,72,0.936,56,[],[],"[(1195, 880)]",[],[1],[100],[1.6666666666666667],"[640.0, 512.0]",vertical,"(890.0, 262.0)",[1.15],[0.704],1,475.416
2,False,73,0.652,39,[],[],"[(1179, 909)]",[],[1],[71],[1.1833333333333333],"[640.0, 512.0]",horizontal,"(890.0, 262.0)",[0.7833333333333333],[0.506],1,479.786
2,False,74,0.659,39,[],[],"[(1203, 904)]",[],[1],[69],[1.15],"[640.0, 512.0]",horizontal,"(390.0, 262.0)",[0.75],[0.48],1,483.484
2,False,75,0.973,58,[],[],"[(1203, 923)]",[],[1],[93],[1.55],"[640.0, 512.0]",vertical,"(390.0, 762.0)",[1.5166666666666666],[0.558],1,486.922
2,False,76,1.38,82,[],[],"[(1191, 921)]",[],[1],[],[],"[640.0, 512.0]",vertical,"(390.0, 762.0)",[],[0],0,491.695
2,False,77,0.458,27,[],[],"[(1203, 920)]",[],[1],[77],[1.2833333333333332],"[640.0, 512.0]",horizontal,"(890.0, 262.0)",[1.25],[0.803],0,495.799
2,False,78,0.951,57,[],[],"[(1156, 894)]",[],[1],[87],[1.45],"[640.0, 512.0]",vertical,"(890.0, 262.0)",[0.65],[0.473],1,500.098
2,False,79,0.342,20,[],[],"[(1206, 896)]",[],[1],[57],[0.95],"[640.0, 512.0]",horizontal,"(890.0, 762.0)",[1.2],[0.601],1,503.816
2,False,80,0.567,34,[],[],"[(1203, 872)]",[],[1],[84],[1.4],"[640.0, 512.0]",horizontal,"(390.0, 262.0)",[1.3833333333333333],[0.803],0,507.522
2,False,81,0.906,54,[],[],"[(1178, 894)]",[],[1],[86],[1.4333333333333333],"[640.0, 512.0]",horizontal,"(390.0, 762.0)",[1.3833333333333333],[0.511],1,512.65
2,False,82,1.337,80,[],[],"[(1193, 907)]",[],[1],[130],[2.1666666666666665],"[640.0, 512.0]",vertical,"(390.0, 262.0)",[0.6666666666666666],[0.81],0,517.584
2,False,83,1.287,77,[],[],"[(1203, 890)]",[],[1],[86],[1.4333333333333333],"[640.0, 512.0]",horizontal,"(390.0, 262.0)",[1.2666666666666666],[0.133],1,521.921
2,False,84,0.526,31,[],[],"[(1177, 899)]",[],[1],[62],[1.0333333333333332],"[640.0, 512.0]",horizontal,"(890.0, 262.0)",[0.7333333333333333],[0.499],1,535.148
2,False,85,1.105,66,[],[],"[(1179, 894)]",[],[1],[101],[1.6833333333333333],"[640.0, 512.0]",vertical,"(890.0, 262.0)",[1.1833333333333333],[0.559],1,538.548
2,False,86,1.04,62,[],[],"[(1173, 899)]",[],[1],[93],[1.55],"[640.0, 512.0]",vertical,"(890.0, 262.0)",[0.9666666666666667],[0.494],1,542.982
2,False,87,0.444,26,[],[],"[(1203, 896)]",[],[1],[56],[0.9333333333333333],"[640.0, 512.0]",horizontal,"(390.0, 262.0)",[1.1833333333333333],[0.484],1,547.026
2,False,88,0.717,43,[],[],"[(1196, 910)]",[],[1],[72],[1.2],"[640.0, 512.0]",vertical,"(890.0, 262.0)",[1.0],[0.46],1,550.633
2,False,89,0.496,29,[],[],"[(1173, 914)]",[],[1],[79],[1.3166666666666667],"[640.0, 512.0]",vertical,"(390.0, 262.0)",[1.1],[0.801],0,554.363
2,False,90,0.33,19,[],[],"[(1170, 887)]",[],[1],[],[],"[640.0, 512.0]",horizontal,"(890.0, 262.0)",[],[0],0,558.336
2,False,91,0.981,58,[],[],"[(1242, 885), (1203, 874)]",[],"[0, 1]",[91],[1.5166666666666666],"[640.0, 512.0]",horizontal,"(390.0, 262.0)",[0.5666666666666667],[0.525],1,572.554
2,False,92,1.129,67,[],[],"[(1180, 904)]",[],[1],[97],[1.6166666666666667],"[640.0, 512.0]",vertical,"(390.0, 762.0)",[1.2333333333333334],[0.483],1,576.968
2,False,93,0.445,26,[],[],"[(1203, 894)]",[],[1],[59],[0.9833333333333333],"[640.0, 512.0]",horizontal,"(890.0, 762.0)",[0.6166666666666667],[0.532],1,581.464
2,False,94,0.779,46,[],[],"[(1203, 910)]",[],[1],[73],[1.2166666666666666],"[640.0, 512.0]",vertical,"(390.0, 262.0)",[1.55],[0.43],1,584.587
2,False,95,0.791,47,[],[],"[(1207, 892)]",[],[1],[79],[1.3166666666666667],"[640.0, 512.0]",vertical,"(890.0, 262.0)",[1.6333333333333333],[0.509],1,588.859
2,False,96,0.713,42,[],[],"[(1200, 882)]",[],[1],[91],[1.5166666666666666],"[640.0, 512.0]",horizontal,"(890.0, 762.0)",[0.5333333333333333],[0.782],1,593.346
2,False,97,1.359,81,[],[],"[(1203, 900)]",[],[1],[111],[1.8499999999999999],"[640.0, 512.0]",horizontal,"(890.0, 262.0)",[0.7333333333333333],[0.48],1,596.952
2,False,98,1.196,71,[],[],"[(1185, 898)]",[],[1],[],[],"[640.0, 512.0]",horizontal,"(890.0, 762.0)",[],[0],0,601.105
2,False,99,0.593,35,[],[],"[(1196, 890)]",[],[1],[85],[1.4166666666666667],"[640.0, 512.0]",vertical,"(890.0, 762.0)",[1.55],[0.798],0,604.422
2,False,100,1.273,76,[],[],"[(1115, 921)]",[],[1],[],[],"[640.0, 512.0]",horizontal,"(890.0, 762.0)",[],[0],0,608.986
2,False,101,1.143,68,[],[],"[(1209, 886)]",[],[1],[99],[1.65],"[640.0, 512.0]",vertical,"(390.0, 262.0)",[0.5833333333333334],[0.493],1,615.52
2,False,102,1.107,66,[],[],"[(1180, 899)]",[],[1],[116],[1.9333333333333333],"[640.0, 512.0]",horizontal,"(890.0, 762.0)",[1.4666666666666666],[0.807],0,619.304
2,False,103,0.534,32,[],[],"[(1209, 899)]",[],[1],[66],[1.1],"[640.0, 512.0]",horizontal,"(390.0, 262.0)",[0.95],[0.542],1,624.259
2,False,104,0.839,50,[],[],"[(1199, 917)]",[],[1],[100],[1.6666666666666667],"[640.0, 512.0]",vertical,"(390.0, 762.0)",[1.4],[0.802],0,627.786
2,False,105,0.811,48,[],[],"[(1173, 892)]",[],[1],[80],[1.3333333333333333],"[640.0, 512.0]",vertical,"(890.0, 762.0)",[0.7666666666666666],[0.509],1,632.353
2,False,106,0.543,32,[],[],"[(1180, 893)]",[],[1],[66],[1.1],"[640.0, 512.0]",horizontal,"(390.0, 762.0)",[1.5666666666666667],[0.538],1,635.966
2,False,107,0.542,32,[],[],"[(1203, 892)]",[],[1],[66],[1.1],"[640.0, 512.0]",horizontal,"(390.0, 762.0)",[1.1166666666666667],[0.543],1,640.198
2,False,108,1.328,79,[],[],"[(1179, 901)]",[],[1],[117],[1.95],"[640.0, 512.0]",horizontal,"(390.0, 762.0)",[1.6833333333333333],[0.609],1,643.918
2,False,109,0.868,52,[],[],"[(1186, 899)]",[],[1],[82],[1.3666666666666667],"[640.0, 512.0]",horizontal,"(890.0, 762.0)",[0.7],[0.479],1,649.088
2,False,110,1.027,61,[],[],"[(1173, 925)]",[],[1],[99],[1.65],"[640.0, 512.0]",horizontal,"(390.0, 762.0)",[1.5],[0.612],1,652.696
2,False,111,0.312,18,[],[],"[(1203, 889)]",[],[1],[56],[0.9333333333333333],"[640.0, 512.0]",horizontal,"(390.0, 762.0)",[1.2833333333333332],[0.609],1,657.452
2,False,112,0.761,45,[],[],"[(1193, 904)]",[],[1],[78],[1.3],"[640.0, 512.0]",horizontal,"(890.0, 262.0)",[1.1],[0.527],1,661.187
2,False,113,1.334,80,[],[],"[(1156, 903)]",[],[1],[111],[1.8499999999999999],"[640.0, 512.0]",horizontal,"(890.0, 262.0)",[0.8666666666666667],[0.49],1,665.114
2,False,114,0.4,24,[],[],"[(1207, 897)]",[],[1],[69],[1.15],"[640.0, 512.0]",vertical,"(890.0, 262.0)",[1.0333333333333332],[0.722],1,669.468
2,False,115,1.262,75,[],[],"[(1203, 894)]",[],[1],[114],[1.9],"[640.0, 512.0]",horizontal,"(890.0, 762.0)",[0.6166666666666667],[0.624],1,673.167
2,False,116,1.392,83,[],[],"[(1198, 906)]",[],[1],[133],[2.216666666666667],"[640.0, 512.0]",vertical,"(390.0, 762.0)",[0.8],[0.807],0,677.244
2,False,117,0.574,34,[],[],"[(1184, 899)]",[],[1],[77],[1.2833333333333332],"[640.0, 512.0]",vertical,"(390.0, 762.0)",[0.5333333333333333],[0.691],1,681.767
2,False,118,1.024,61,[],[],"[(1198, 910)]",[],[1],[111],[1.8499999999999999],"[640.0, 512.0]",vertical,"(390.0, 262.0)",[0.5333333333333333],[0.795],0,685.403
2,False,119,0.883,52,[],[],"[(1177, 894)]",[],[1],[95],[1.5833333333333333],"[640.0, 512.0]",horizontal,"(390.0, 762.0)",[0.7333333333333333],[0.686],1,689.281
2,False,120,0.904,54,[],[],"[(1203, 899)]",[],[1],[93],[1.55],"[640.0, 512.0]",horizontal,"(390.0, 262.0)",[1.65],[0.626],1,693.601
3,False,121,1.372,82,[],[],"[(1203, 896)]",[],[1],[126],[2.1],"[640.0, 512.0]",horizontal,"(390.0, 262.0)",[1.5666666666666667],[0.703],1,698.386
3,False,122,1.364,81,[],[],"[(1186, 893)]",[],[1],[118],[1.9666666666666666],"[640.0, 512.0]",vertical,"(390.0, 762.0)",[0.8166666666666667],[0.589],1,703.535
3,False,123,0.515,30,[],[],"[(1203, 897)]",[],[1],[80],[1.3333333333333333],"[640.0, 512.0]",horizontal,"(890.0, 762.0)",[1.35],[0.798],0,707.87
3,False,124,1.23,73,[],[],"[(1227, 904)]",[],[1],[109],[1.8166666666666667],"[640.0, 512.0]",vertical,"(390.0, 262.0)",[1.2333333333333334],[0.584],1,712.121
3,False,125,1.016,60,[],[],"[(1206, 885)]",[],[1],[100],[1.6666666666666667],"[640.0, 512.0]",vertical,"(390.0, 762.0)",[1.2833333333333332],[0.643],1,716.698
3,False,126,0.31,18,[],[],"[(1176, 897)]",[],[1],[54],[0.9],"[640.0, 512.0]",horizontal,"(390.0, 762.0)",[0.85],[0.582],1,721.236
3,False,127,0.706,42,[],[],"[(1191, 899)]",[],[1],[71],[1.1833333333333333],"[640.0, 512.0]",horizontal,"(890.0, 762.0)",[1.3666666666666667],[0.467],1,724.549
3,False,128,0.716,42,[],[],"[(1204, 889)]",[],[1],[71],[1.1833333333333333],"[640.0, 512.0]",vertical,"(390.0, 262.0)",[1.5],[0.458],1,728.602
3,False,129,1.223,73,[],[],"[(1203, 890)]",[],[1],[123],[2.05],"[640.0, 512.0]",vertical,"(890.0, 262.0)",[1.6],[0.802],0,732.752
3,False,130,1.233,73,[],[],"[(1195, 894)]",[],[1],[107],[1.7833333333333332],"[640.0, 512.0]",vertical,"(390.0, 762.0)",[0.8333333333333334],[0.538],1,737.87
3,False,131,0.303,18,[],[],"[(1203, 902)]",[],[1],[52],[0.8666666666666667],"[640.0, 512.0]",vertical,"(390.0, 762.0)",[1.6166666666666667],[0.538],1,742.083
3,False,132,0.687,41,[],[],"[(1205, 898)]",[],[1],[75],[1.25],"[640.0, 512.0]",horizontal,"(390.0, 762.0)",[0.8],[0.542],1,746.051
3,False,133,0.526,31,[],[],"[(1197, 905)]",[],[1],[64],[1.0666666666666667],"[640.0, 512.0]",horizontal,"(890.0, 762.0)",[1.2833333333333332],[0.527],1,749.598
3,False,134,1.052,63,[],[],"[(1206, 903)]",[],[1],[101],[1.6833333333333333],"[640.0, 512.0]",horizontal,"(390.0, 762.0)",[1.4666666666666666],[0.601],1,753.434
3,False,135,0.51,30,[],[],"[(1227, 886)]",[],[1],[62],[1.0333333333333332],"[640.0, 512.0]",horizontal,"(390.0, 762.0)",[0.5833333333333334],[0.513],1,758.041
3,False,136,1.428,85,[],[],"[(1171, 913)]",[],[1],[115],[1.9166666666666667],"[640.0, 512.0]",horizontal,"(390.0, 262.0)",[0.9666666666666667],[0.481],1,761.211
3,False,137,1.372,82,[],[],"[(1203, 902)]",[],[1],[118],[1.9666666666666666],"[640.0, 512.0]",horizontal,"(890.0, 762.0)",[1.4166666666666667],[0.571],1,765.65
3,False,138,0.454,27,[],[],"[(1205, 896)]",[],[1],[67],[1.1166666666666667],"[640.0, 512.0]",horizontal,"(390.0, 262.0)",[1.15],[0.642],1,770.537
3,False,139,1.294,77,[],[],"[(1203, 897)]",[],[1],[108],[1.8],"[640.0, 512.0]",vertical,"(390.0, 262.0)",[1.3833333333333333],[0.5],1,774.374
3,False,140,0.961,57,[],[],"[(1203, 880)]",[],[1],[107],[1.7833333333333332],"[640.0, 512.0]",horizontal,"(890.0, 762.0)",[1.6833333333333333],[0.808],0,779.07
3,False,141,0.525,31,[],[],"[(1206, 903)]",[],[1],[67],[1.1166666666666667],"[640.0, 512.0]",horizontal,"(890.0, 762.0)",[0.8],[0.577],1,784.072
3,False,142,1.103,66,[],[],"[(1203, 918)]",[],[1],[101],[1.6833333333333333],"[640.0, 512.0]",horizontal,"(390.0, 762.0)",[1.3333333333333333],[0.561],1,787.538
3,False,143,0.565,33,[],[],"[(1191, 899)]",[],[1],[74],[1.2333333333333334],"[640.0, 512.0]",horizontal,"(890.0, 762.0)",[0.9666666666666667],[0.66],1,792.064
3,False,144,0.358,21,[],[],"[(1167, 898)]",[],[1],[52],[0.8666666666666667],"[640.0, 512.0]",horizontal,"(390.0, 262.0)",[1.2833333333333332],[0.49],1,795.759
3,False,145,0.532,31,[],[],"[(1222, 893)]",[],[1],[62],[1.0333333333333332],"[640.0, 512.0]",vertical,"(390.0, 262.0)",[1.6833333333333333],[0.492],1,799.432
3,False,146,0.541,32,[],[],"[(1203, 894)]",[],[1],[67],[1.1166666666666667],"[640.0, 512.0]",vertical,"(390.0, 762.0)",[1.6666666666666667],[0.555],1,803.664
3,False,147,0.441,26,[],[],"[(1184, 900)]",[],[1],[59],[0.9833333333333333],"[640.0, 512.0]",vertical,"(390.0, 262.0)",[0.5333333333333333],[0.527],1,807.946
3,False,148,0.458,27,[],[],"[(1185, 901)]",[],[1],[60],[1.0],"[640.0, 512.0]",horizontal,"(890.0, 762.0)",[0.6166666666666667],[0.529],1,811.003
3,False,149,0.364,21,[],[],"[(1201, 894)]",[],[1],[56],[0.9333333333333333],"[640.0, 512.0]",vertical,"(890.0, 762.0)",[0.65],[0.553],1,814.149
3,False,150,0.521,31,[],[],"[(1171, 906)]",[],[1],[63],[1.05],"[640.0, 512.0]",horizontal,"(890.0, 762.0)",[0.95],[0.511],1,817.306
3,False,151,1.307,78,[],[],"[(1203, 903)]",[],[1],[113],[1.8833333333333333],"[640.0, 512.0]",vertical,"(390.0, 762.0)",[0.9166666666666666],[0.557],1,823.022
3,False,152,0.695,41,[],[],"[(1178, 909)]",[],[1],[71],[1.1833333333333333],"[640.0, 512.0]",vertical,"(390.0, 262.0)",[1.5666666666666667],[0.476],1,827.314
3,False,153,0.957,57,[],[],"[(1199, 901)]",[],[1],[91],[1.5166666666666666],"[640.0, 512.0]",vertical,"(390.0, 762.0)",[1.2666666666666666],[0.543],1,831.592
3,False,154,0.471,28,[],[],"[(1173, 903)]",[],[1],[58],[0.9666666666666667],"[640.0, 512.0]",vertical,"(890.0, 262.0)",[1.6],[0.471],1,835.902
3,False,155,1.17,70,[],[],"[(1203, 903)]",[],[1],[116],[1.9333333333333333],"[640.0, 512.0]",horizontal,"(390.0, 762.0)",[0.6833333333333333],[0.736],1,840.003
3,False,156,1.106,66,[],[],"[(1184, 898)]",[],[1],[96],[1.6],"[640.0, 512.0]",vertical,"(890.0, 262.0)",[1.3833333333333333],[0.475],1,844.165
3,False,157,1.191,71,[],[],"[(1173, 903)]",[],[1],[112],[1.8666666666666667],"[640.0, 512.0]",vertical,"(890.0, 762.0)",[1.1333333333333333],[0.657],1,848.72
3,False,158,0.858,51,[],[],"[(1203, 884)]",[],[1],[84],[1.4],"[640.0, 512.0]",vertical,"(890.0, 762.0)",[1.45],[0.525],1,853.255
3,False,159,0.772,46,[],[],"[(1173, 895)]",[],[1],[77],[1.2833333333333332],"[640.0, 512.0]",horizontal,"(890.0, 262.0)",[1.5833333333333333],[0.493],1,857.566
3,False,160,0.607,36,[],[],"[(1186, 902)]",[],[1],[70],[1.1666666666666667],"[640.0, 512.0]",vertical,"(890.0, 762.0)",[1.1333333333333333],[0.542],1,861.951
3,False,161,1.363,81,[],[],"[(1203, 901)]",[],[1],[117],[1.95],"[640.0, 512.0]",vertical,"(890.0, 762.0)",[1.25],[0.579],1,865.838
3,False,162,0.84,50,[],[],"[(1203, 901)]",[],[1],[83],[1.3833333333333333],"[640.0, 512.0]",vertical,"(390.0, 262.0)",[1.4333333333333333],[0.522],1,870.571
3,False,163,1.397,83,[],[],"[(1167, 894)]",[],[1],[114],[1.9],"[640.0, 512.0]",vertical,"(890.0, 262.0)",[1.4833333333333334],[0.498],1,874.87
3,False,164,0.521,31,[],[],"[(1209, 890)]",[],[1],[65],[1.0833333333333333],"[640.0, 512.0]",horizontal,"(390.0, 762.0)",[1.3666666666666667],[0.551],1,882.776
3,False,165,0.821,49,[],[],"[(1167, 895)]",[],[1],[85],[1.4166666666666667],"[640.0, 512.0]",horizontal,"(890.0, 762.0)",[1.6],[0.567],1,886.721
3,False,166,0.358,21,[],[],"[(1203, 902)]",[],[1],[65],[1.0833333333333333],"[640.0, 512.0]",horizontal,"(390.0, 762.0)",[1.2833333333333332],[0.715],1,891.271
3,False,167,1.192,71,[],[],"[(1179, 904)]",[],[1],[104],[1.7333333333333334],"[640.0, 512.0]",vertical,"(390.0, 762.0)",[1.6],[0.529],1,895.184
3,False,168,0.348,20,[],[],"[(1186, 902)]",[],[1],[54],[0.9],"[640.0, 512.0]",horizontal,"(390.0, 262.0)",[0.7833333333333333],[0.541],1,900.012
3,False,169,1.047,62,[],[],"[(1197, 902)]",[],[1],[101],[1.6833333333333333],"[640.0, 512.0]",vertical,"(890.0, 762.0)",[0.9333333333333333],[0.623],1,909.371
3,False,170,1.458,87,[],[],"[(1203, 901)]",[],[1],[119],[1.9833333333333334],"[640.0, 512.0]",vertical,"(890.0, 762.0)",[1.5166666666666666],[0.51],1,913.554
3,False,171,0.357,21,[],[],"[(1179, 903)]",[],[1],[53],[0.8833333333333333],"[640.0, 512.0]",horizontal,"(890.0, 262.0)",[1.3666666666666667],[0.504],1,918.565
3,False,172,0.586,35,[],[],"[(1191, 902)]",[],[1],[69],[1.15],"[640.0, 512.0]",horizontal,"(890.0, 762.0)",[0.7333333333333333],[0.546],1,922.304
3,False,173,0.927,55,[],[],"[(1179, 908)]",[],[1],[87],[1.45],"[640.0, 512.0]",horizontal,"(890.0, 262.0)",[1.5],[0.513],1,925.699
3,False,174,0.563,33,[],[],"[(1197, 899)]",[],[1],[70],[1.1666666666666667],"[640.0, 512.0]",vertical,"(390.0, 762.0)",[1.1666666666666667],[0.59],1,930.19
3,False,175,0.935,56,[],[],"[(1179, 915)]",[],[1],[90],[1.5],"[640.0, 512.0]",horizontal,"(890.0, 262.0)",[0.5166666666666666],[0.541],1,933.988
3,False,176,1.06,63,[],[],"[(1183, 923)]",[],[1],[105],[1.75],"[640.0, 512.0]",vertical,"(890.0, 262.0)",[0.5666666666666667],[0.677],1,937.522
3,False,177,1.013,60,[],[],"[(1191, 887)]",[],[1],[90],[1.5],"[640.0, 512.0]",horizontal,"(390.0, 262.0)",[1.4333333333333333],[0.479],1,941.355
3,False,178,0.725,43,[],[],"[(1180, 889)]",[],[1],[76],[1.2666666666666666],"[640.0, 512.0]",horizontal,"(390.0, 762.0)",[1.3166666666666667],[0.522],1,945.833
3,False,179,1.346,80,[],[],"[(1203, 899)]",[],[1],[130],[2.1666666666666665],"[640.0, 512.0]",horizontal,"(890.0, 262.0)",[1.5833333333333333],[0.825],0,950.021
3,False,180,1.414,84,[],[],"[(1180, 902)]",[],[1],[126],[2.1],"[640.0, 512.0]",vertical,"(390.0, 762.0)",[1.45],[0.673],1,955.298
4,False,181,0.95,57,[],[],"[(1176, 889)]",[],[1],[90],[1.5],"[640.0, 512.0]",horizontal,"(390.0, 262.0)",[1.55],[0.527],1,960.691
4,False,182,1.223,73,[],[],"[(1180, 894)]",[],[1],[109],[1.8166666666666667],"[640.0, 512.0]",horizontal,"(390.0, 762.0)",[1.4],[0.572],1,965.288
4,False,183,0.94,56,[],[],"[(1197, 899)]",[],[1],[92],[1.5333333333333332],"[640.0, 512.0]",horizontal,"(390.0, 762.0)",[1.4166666666666667],[0.577],1,970.016
4,False,184,1.493,89,[],[],"[(1203, 894)]",[],[1],[122],[2.033333333333333],"[640.0, 512.0]",vertical,"(890.0, 762.0)",[1.1166666666666667],[0.532],1,974.467
4,False,185,1.462,87,[],[],"[(1179, 904)]",[],[1],[],[],"[640.0, 512.0]",horizontal,"(390.0, 762.0)",[],[0],0,979.139
4,False,186,1.066,63,[],[],"[(1153, 898)]",[],[1],[101],[1.6833333333333333],"[640.0, 512.0]",horizontal,"(890.0, 262.0)",[1.1],[0.604],1,982.738
4,False,187,0.619,37,[],[],"[(1191, 902)]",[],[1],[68],[1.1333333333333333],"[640.0, 512.0]",horizontal,"(390.0, 262.0)",[0.6833333333333333],[0.497],1,987.522
4,False,188,0.372,22,[],[],"[(1197, 894)]",[],[1],[72],[1.2],"[640.0, 512.0]",horizontal,"(890.0, 762.0)",[1.5666666666666667],[0.802],0,990.876
4,False,189,0.914,54,[],[],"[(1190, 900)]",[],[1],[87],[1.45],"[640.0, 512.0]",vertical,"(890.0, 262.0)",[1.1333333333333333],[0.522],1,995.122
4,False,190,0.541,32,[],[],"[(1203, 899)]",[],[1],[65],[1.0833333333333333],"[640.0, 512.0]",horizontal,"(390.0, 262.0)",[1.5166666666666666],[0.526],1,999.436
4,False,191,0.924,55,[],[],"[(1201, 888)]",[],[1],[105],[1.75],"[640.0, 512.0]",horizontal,"(390.0, 262.0)",[0.55],[0.802],0,1003.536
4,False,192,1.313,78,[],[],"[(1215, 902)]",[],[1],[116],[1.9333333333333333],"[640.0, 512.0]",vertical,"(390.0, 762.0)",[0.75],[0.606],1,1008.734
4,False,193,0.521,31,[],[],"[(1147, 894)]",[],[1],[81],[1.35],"[640.0, 512.0]",horizontal,"(390.0, 262.0)",[0.5833333333333334],[0.804],0,1012.923
4,False,194,0.39,23,[],[],"[(1186, 904)]",[],[1],[69],[1.15],"[640.0, 512.0]",horizontal,"(390.0, 262.0)",[1.4333333333333333],[0.749],1,1016.688
4,False,195,0.442,26,[],[],"[(1206, 901)]",[],[1],[56],[0.9333333333333333],"[640.0, 512.0]",horizontal,"(890.0, 262.0)",[1.5166666666666666],[0.476],1,1021.079
4,False,196,1.114,66,[],[],"[(1203, 898)]",[],[1],[100],[1.6666666666666667],"[640.0, 512.0]",horizontal,"(890.0, 262.0)",[0.9166666666666666],[0.55],1,1025.102
4,False,197,1.491,89,[],[],"[(1174, 904)]",[],[1],[122],[2.033333333333333],"[640.0, 512.0]",horizontal,"(390.0, 762.0)",[1.5666666666666667],[0.521],1,1029.204
4,False,198,0.782,46,[],[],"[(1203, 898)]",[],[1],[78],[1.3],"[640.0, 512.0]",horizontal,"(390.0, 262.0)",[0.95],[0.507],1,1034.298
4,False,199,1.008,60,[],[],"[(1203, 916)]",[],[1],[93],[1.55],"[640.0, 512.0]",horizontal,"(390.0, 762.0)",[0.75],[0.529],1,1038.036
4,False,200,0.612,36,[],[],"[(1180, 897)]",[],[1],[68],[1.1333333333333333],"[640.0, 512.0]",horizontal,"(390.0, 262.0)",[1.3],[0.514],1,1041.936
4,False,201,0.881,52,[],[],"[(1203, 914)]",[],[1],[83],[1.3833333333333333],"[640.0, 512.0]",horizontal,"(890.0, 762.0)",[1.3166666666666667],[0.497],1,1045.905
4,False,202,1.101,66,[],[],"[(1197, 899)]",[],[1],[98],[1.6333333333333333],"[640.0, 512.0]",vertical,"(890.0, 262.0)",[1.1833333333333333],[0.511],1,1050.132
4,False,203,0.426,25,[],[],"[(1203, 893)]",[],[1],[74],[1.2333333333333334],"[640.0, 512.0]",horizontal,"(390.0, 762.0)",[0.8333333333333334],[0.791],1,1054.404
4,False,204,1.439,86,[],[],"[(1203, 885)]",[],[1],[120],[2.0],"[640.0, 512.0]",horizontal,"(390.0, 262.0)",[0.5333333333333333],[0.549],1,1057.986
4,False,205,0.625,37,[],[],"[(1186, 889)]",[],[1],[72],[1.2],"[640.0, 512.0]",horizontal,"(390.0, 762.0)",[1.6833333333333333],[0.557],1,1062.108
4,False,206,0.458,27,[],[],"[(1169, 899)]",[],[1],[59],[0.9833333333333333],"[640.0, 512.0]",vertical,"(890.0, 262.0)",[1.35],[0.507],1,1066.537
4,False,207,1.12,67,[],[],"[(1179, 903)]",[],[1],[109],[1.8166666666666667],"[640.0, 512.0]",horizontal,"(890.0, 762.0)",[0.5666666666666667],[0.67],1,1070.398
4,False,208,0.896,53,[],[],"[(1203, 899)]",[],[1],[88],[1.4666666666666666],"[640.0, 512.0]",horizontal,"(390.0, 262.0)",[1.6666666666666667],[0.564],1,1074.462
4,False,209,1.047,62,[],[],"[(1203, 894)]",[],[1],[94],[1.5666666666666667],"[640.0, 512.0]",horizontal,"(890.0, 262.0)",[0.9166666666666666],[0.506],1,1079.096
4,False,210,0.313,18,[],[],"[(1197, 899)]",[],[1],[51],[0.85],"[640.0, 512.0]",vertical,"(390.0, 762.0)",[1.05],[0.531],1,1083.087
4,False,211,0.322,19,[],[],"[(1188, 903)]",[],[1],[55],[0.9166666666666666],"[640.0, 512.0]",vertical,"(390.0, 262.0)",[1.2333333333333334],[0.575],1,1089.059
4,False,212,0.856,51,[],[],"[(1148, 913)]",[],[1],[96],[1.6],"[640.0, 512.0]",vertical,"(390.0, 262.0)",[1.05],[0.723],1,1092.77
4,False,213,0.645,38,[],[],"[(1148, 906)]",[],[1],[72],[1.2],"[640.0, 512.0]",horizontal,"(390.0, 762.0)",[1.2333333333333334],[0.539],1,1096.98
4,False,214,0.701,42,[],[],"[(1173, 928)]",[],[1],[75],[1.25],"[640.0, 512.0]",vertical,"(390.0, 262.0)",[0.5166666666666666],[0.527],1,1100.948
4,False,215,0.409,24,[],[],"[(1160, 889)]",[],[1],[58],[0.9666666666666667],"[640.0, 512.0]",vertical,"(890.0, 262.0)",[0.5833333333333334],[0.547],1,1104.24
4,False,216,1.313,78,[],[],"[(1203, 896)]",[],[1],[112],[1.8666666666666667],"[640.0, 512.0]",horizontal,"(890.0, 262.0)",[0.6666666666666666],[0.537],1,1107.843
4,False,217,0.422,25,[],[],"[(1179, 904)]",[],[1],[61],[1.0166666666666666],"[640.0, 512.0]",horizontal,"(390.0, 762.0)",[1.2166666666666666],[0.574],1,1111.875
4,False,218,0.644,38,[],[],"[(1179, 903)]",[],[1],[75],[1.25],"[640.0, 512.0]",vertical,"(390.0, 762.0)",[1.5166666666666666],[0.591],1,1115.605
4,False,219,1.106,66,[],[],"[(1185, 895)]",[],[1],[99],[1.65],"[640.0, 512.0]",vertical,"(390.0, 762.0)",[1.25],[0.527],1,1119.914
4,False,220,1.004,60,[],[],"[(1179, 899)]",[],[1],[92],[1.5333333333333332],"[640.0, 512.0]",horizontal,"(890.0, 262.0)",[0.95],[0.514],1,1124.388
4,False,221,1.25,75,[],[],"[(1201, 899)]",[],[1],[107],[1.7833333333333332],"[640.0, 512.0]",vertical,"(890.0, 262.0)",[0.75],[0.509],1,1128.433
4,False,222,0.375,22,[],[],"[(1196, 894)]",[],[1],[58],[0.9666666666666667],"[640.0, 512.0]",vertical,"(390.0, 762.0)",[1.1333333333333333],[0.58],1,1132.505
4,False,223,0.812,48,[],[],"[(1203, 903)]",[],[1],[95],[1.5833333333333333],"[640.0, 512.0]",vertical,"(390.0, 762.0)",[1.6666666666666667],[0.757],1,1136.22
4,False,224,0.957,57,[],[],"[(1215, 899)]",[],[1],"[107, 107]","[1.7833333333333332, 1.7833333333333332]","[640.0, 512.0]",vertical,"(390.0, 762.0)",[0.8166666666666667],"[0.8, 0.8]",0,1140.997
4,False,225,1.168,70,[],[],"[(1154, 899)]",[],[1],[116],[1.9333333333333333],"[640.0, 512.0]",vertical,"(390.0, 762.0)",[0.5],[0.738],1,1145.069
4,False,226,0.301,18,[],[],"[(1187, 920)]",[],[1],[68],[1.1333333333333333],"[640.0, 512.0]",vertical,"(890.0, 262.0)",[0.9333333333333333],[0.796],0,1149.252
4,False,227,1.397,83,[],[],"[(1233, 899), (1203, 885)]",[],"[0, 1]",[115],[1.9166666666666667],"[640.0, 512.0]",vertical,"(390.0, 262.0)",[0.65],[0.509],1,1152.897
4,False,228,1.309,78,[],[],"[(1206, 890)]",[],[1],[128],[2.1333333333333333],"[640.0, 512.0]",vertical,"(890.0, 262.0)",[1.0666666666666667],[0.799],0,1157.84
4,False,229,0.899,53,[],[],"[(1203, 889)]",[],[1],[86],[1.4333333333333333],"[640.0, 512.0]",vertical,"(390.0, 762.0)",[1.7],[0.522],1,1162.551
4,False,230,0.912,54,[],[],"[(1204, 884)]",[],[1],[102],[1.7],"[640.0, 512.0]",vertical,"(390.0, 762.0)",[0.95],[0.769],1,1167.5
4,False,231,1.093,65,[],[],"[(1190, 895)]",[],[1],[97],[1.6166666666666667],"[640.0, 512.0]",horizontal,"(890.0, 262.0)",[0.55],[0.509],1,1171.671
4,False,232,0.562,33,[],[],"[(1220, 888)]",[],[1],[66],[1.1],"[640.0, 512.0]",vertical,"(890.0, 262.0)",[1.3333333333333333],[0.523],1,1175.343
4,False,233,0.448,26,[],[],"[(1201, 894)]",[],[1],[65],[1.0833333333333333],"[640.0, 512.0]",vertical,"(890.0, 262.0)",[0.7333333333333333],[0.625],1,1179.286
4,False,234,1.322,79,[],[],"[(1203, 899)]",[],[1],[113],[1.8833333333333333],"[640.0, 512.0]",horizontal,"(390.0, 262.0)",[1.1833333333333333],[0.549],1,1182.629
4,False,235,0.869,52,[],[],"[(1207, 897)]",[],[1],[79],[1.3166666666666667],"[640.0, 512.0]",vertical,"(890.0, 262.0)",[1.2166666666666666],[0.431],1,1187.206
4,False,236,0.776,46,[],[],"[(1203, 887)]",[],[1],[78],[1.3],"[640.0, 512.0]",vertical,"(390.0, 262.0)",[1.3833333333333333],[0.509],1,1191.8
4,False,237,0.301,18,[],[],"[(1203, 896)]",[],[1],[66],[1.1],"[640.0, 512.0]",vertical,"(890.0, 262.0)",[1.15],[0.773],1,1196.005
4,False,238,1.361,81,[],[],"[(1203, 897)]",[],[1],[],[],"[640.0, 512.0]",vertical,"(890.0, 762.0)",[],[0],0,1199.821
4,False,239,1.148,68,[],[],"[(1173, 892)]",[],[1],[100],[1.6666666666666667],"[640.0, 512.0]",horizontal,"(890.0, 262.0)",[1.5833333333333333],[0.514],1,1203.335
4,False,240,0.753,45,[],[],"[(1180, 910)]",[],[1],[80],[1.3333333333333333],"[640.0, 512.0]",vertical,"(890.0, 262.0)",[1.0166666666666666],[0.561],1,1208.457
5,False,241,0.807,48,[],[],"[(1149, 893)]",[],[1],[85],[1.4166666666666667],"[640.0, 512.0]",horizontal,"(390.0, 762.0)",[1.4666666666666666],[0.588],1,1212.366
5,False,242,0.613,36,[],[],"[(1203, 896)]",[],[1],[70],[1.1666666666666667],"[640.0, 512.0]",vertical,"(890.0, 762.0)",[1.0166666666666666],[0.542],1,1216.798
5,False,243,0.444,26,[],[],"[(1203, 892)]",[],[1],[59],[0.9833333333333333],"[640.0, 512.0]",vertical,"(890.0, 762.0)",[1.3166666666666667],[0.525],1,1220.484
5,False,244,0.794,47,[],[],"[(1195, 895)]",[],[1],[97],[1.6166666666666667],"[640.0, 512.0]",horizontal,"(390.0, 262.0)",[0.7166666666666667],[0.804],0,1224.305
5,False,245,0.38,22,[],[],"[(1162, 899)]",[],[1],[53],[0.8833333333333333],"[640.0, 512.0]",vertical,"(390.0, 262.0)",[1.5666666666666667],[0.496],1,1228.162
5,False,246,1.359,81,[],[],"[(1210, 897)]",[],[1],[115],[1.9166666666666667],"[640.0, 512.0]",vertical,"(890.0, 762.0)",[1.25],[0.539],1,1232.489
5,False,247,0.345,20,[],[],"[(1203, 917)]",[],[1],[51],[0.85],"[640.0, 512.0]",horizontal,"(890.0, 262.0)",[1.05],[0.493],1,1237.177
5,False,248,1.056,63,[],[],"[(1196, 900)]",[],[1],[92],[1.5333333333333332],"[640.0, 512.0]",horizontal,"(890.0, 262.0)",[1.1166666666666667],[0.455],1,1240.602
5,False,249,0.408,24,[],[],"[(1203, 896)]",[],[1],[56],[0.9333333333333333],"[640.0, 512.0]",horizontal,"(890.0, 762.0)",[1.2666666666666666],[0.507],1,1244.798
5,False,250,0.553,33,[],[],"[(1203, 894)]",[],[1],[70],[1.1666666666666667],"[640.0, 512.0]",horizontal,"(890.0, 762.0)",[0.65],[0.591],1,1248.519
5,False,251,1.102,66,[],[],"[(1161, 907)]",[],[1],[96],[1.6],"[640.0, 512.0]",horizontal,"(390.0, 262.0)",[0.8166666666666667],[0.478],1,1251.859
5,False,252,1.027,61,[],[],"[(1173, 904)]",[],[1],[88],[1.4666666666666666],"[640.0, 512.0]",horizontal,"(890.0, 762.0)",[1.2666666666666666],[0.424],1,1258.337
5,False,253,0.576,34,[],[],"[(1179, 904)]",[],[1],[71],[1.1833333333333333],"[640.0, 512.0]",horizontal,"(390.0, 762.0)",[0.9],[0.59],1,1262.732
5,False,254,0.935,56,[],[],"[(1167, 904)]",[],[1],[102],[1.7],"[640.0, 512.0]",vertical,"(890.0, 262.0)",[1.25],[0.743],1,1266.339
5,False,255,1.167,70,[],[],"[(1191, 897)]",[],[1],[106],[1.7666666666666666],"[640.0, 512.0]",horizontal,"(890.0, 762.0)",[1.15],[0.576],1,1271.006
5,False,256,0.638,38,[],[],"[(1203, 896)]",[],[1],[69],[1.15],"[640.0, 512.0]",horizontal,"(890.0, 762.0)",[0.9666666666666667],[0.497],1,1275.557
5,False,257,1.122,67,[],[],"[(1200, 908)]",[],[1],[98],[1.6333333333333333],"[640.0, 512.0]",vertical,"(390.0, 262.0)",[0.85],[0.495],1,1279.264
5,False,258,1.158,69,[],[],"[(1176, 899)]",[],[1],[102],[1.7],"[640.0, 512.0]",vertical,"(890.0, 762.0)",[0.7666666666666666],[0.523],1,1283.272
5,False,259,0.552,33,[],[],"[(1203, 898)]",[],[1],[68],[1.1333333333333333],"[640.0, 512.0]",vertical,"(390.0, 762.0)",[1.1333333333333333],[0.56],1,1287.218
5,False,260,0.616,36,[],[],"[(1160, 903)]",[],[1],[65],[1.0833333333333333],"[640.0, 512.0]",horizontal,"(890.0, 262.0)",[1.1666666666666667],[0.461],1,1290.962
5,False,261,0.978,58,[],[],"[(1179, 894)]",[],[1],[89],[1.4833333333333334],"[640.0, 512.0]",vertical,"(890.0, 262.0)",[1.3],[0.49],1,1294.749
5,False,262,0.892,53,[],[],"[(1136, 894)]",[],[1],[89],[1.4833333333333334],"[640.0, 512.0]",horizontal,"(390.0, 762.0)",[0.7666666666666666],[0.575],1,1300.683
5,False,263,0.803,48,[],[],"[(1180, 893)]",[],[1],[88],[1.4666666666666666],"[640.0, 512.0]",vertical,"(890.0, 762.0)",[1.5833333333333333],[0.642],1,1304.517
5,False,264,0.796,47,[],[],"[(1200, 904)]",[],[1],[79],[1.3166666666666667],"[640.0, 512.0]",vertical,"(890.0, 262.0)",[1.1833333333333333],[0.511],1,1309.105
5,False,265,0.339,20,[],[],"[(1201, 904)]",[],[1],[54],[0.9],"[640.0, 512.0]",vertical,"(390.0, 762.0)",[1.4666666666666666],[0.539],1,1313.167
5,False,266,0.448,26,[],[],"[(1203, 899)]",[],[1],[66],[1.1],"[640.0, 512.0]",vertical,"(890.0, 262.0)",[1.5166666666666666],[0.639],1,1317.037
5,False,267,0.514,30,[],[],"[(1181, 894)]",[],[1],[70],[1.1666666666666667],"[640.0, 512.0]",horizontal,"(890.0, 262.0)",[1.6666666666666667],[0.638],1,1321.136
5,False,268,0.811,48,[],[],"[(1179, 896)]",[],[1],[82],[1.3666666666666667],"[640.0, 512.0]",horizontal,"(390.0, 762.0)",[0.9166666666666666],[0.548],1,1325.488
5,False,269,0.815,48,[],[],"[(1191, 899)]",[],[1],[80],[1.3333333333333333],"[640.0, 512.0]",horizontal,"(390.0, 262.0)",[0.9166666666666666],[0.512],1,1329.267
5,False,270,0.859,51,[],[],"[(1198, 896)]",[],[1],[88],[1.4666666666666666],"[640.0, 512.0]",horizontal,"(390.0, 762.0)",[0.7666666666666666],[0.589],1,1333.016
5,False,271,0.366,21,[],[],"[(1188, 914)]",[],[1],[68],[1.1333333333333333],"[640.0, 512.0]",vertical,"(890.0, 762.0)",[0.9666666666666667],[0.753],1,1336.783
5,False,272,0.697,41,[],[],"[(1203, 895)]",[],[1],[81],[1.35],"[640.0, 512.0]",horizontal,"(890.0, 762.0)",[1.25],[0.643],1,1340.406
5,False,273,1.364,81,[],[],"[(1184, 899)]",[],[1],[130],[2.1666666666666665],"[640.0, 512.0]",vertical,"(390.0, 262.0)",[0.7333333333333333],[0.784],1,1344.55
5,False,274,1.178,70,[],[],"[(1173, 890)]",[],[1],[101],[1.6833333333333333],"[640.0, 512.0]",horizontal,"(390.0, 262.0)",[1.4666666666666666],[0.487],1,1348.953
5,False,275,0.315,18,[],[],"[(1200, 861)]",[],[1],[52],[0.8666666666666667],"[640.0, 512.0]",horizontal,"(390.0, 262.0)",[1.1166666666666667],[0.542],1,1353.666
5,False,276,0.646,38,[],[],"[(1173, 898)]",[],[1],[71],[1.1833333333333333],"[640.0, 512.0]",horizontal,"(890.0, 762.0)",[1.6333333333333333],[0.533],1,1357.686
5,False,277,0.419,25,[],[],"[(1174, 890)]",[],[1],[75],[1.25],"[640.0, 512.0]",horizontal,"(890.0, 762.0)",[0.6833333333333333],[0.804],0,1362.05
5,False,278,0.719,43,[],[],"[(1170, 899)]",[],[1],[73],[1.2166666666666666],"[640.0, 512.0]",vertical,"(890.0, 762.0)",[1.5666666666666667],[0.479],1,1365.459
5,False,279,0.475,28,[],[],"[(1186, 873)]",[],[1],[63],[1.05],"[640.0, 512.0]",horizontal,"(890.0, 262.0)",[0.5666666666666667],[0.557],1,1370.266
5,False,280,1.427,85,[],[],"[(1179, 899)]",[],[1],[117],[1.95],"[640.0, 512.0]",vertical,"(390.0, 762.0)",[1.4],[0.511],1,1373.388
5,False,281,1.478,88,[],[],"[(1203, 871)]",[],[1],[120],[2.0],"[640.0, 512.0]",vertical,"(890.0, 762.0)",[0.8166666666666667],[0.509],1,1378.267
5,False,282,1.365,81,[],[],"[(1203, 889)]",[],[1],[98],[1.6333333333333333],"[640.0, 512.0]",horizontal,"(890.0, 262.0)",[1.3],[0.266],1,1382.605
5,False,283,0.646,38,[],[],"[(1180, 898)]",[],[1],[72],[1.2],"[640.0, 512.0]",vertical,"(890.0, 262.0)",[1.35],[0.541],1,1387.034
5,False,284,1.028,61,[],[],"[(1203, 902)]",[],[1],[103],[1.7166666666666666],"[640.0, 512.0]",vertical,"(390.0, 762.0)",[0.8],[0.671],1,1391.084
5,False,285,1.223,73,[],[],"[(1203, 891)]",[],[1],[106],[1.7666666666666666],"[640.0, 512.0]",vertical,"(890.0, 262.0)",[1.05],[0.532],1,1395.103
5,False,286,1.283,76,[],[],"[(1203, 899)]",[],[1],[108],[1.8],"[640.0, 512.0]",vertical,"(390.0, 762.0)",[1.3333333333333333],[0.508],1,1399.456
5,False,287,0.565,33,[],[],"[(1191, 903)]",[],[1],[75],[1.25],"[640.0, 512.0]",horizontal,"(390.0, 762.0)",[1.1],[0.67],1,1404.103
5,False,288,0.619,37,[],[],"[(1161, 909)]",[],[1],[74],[1.2333333333333334],"[640.0, 512.0]",horizontal,"(390.0, 762.0)",[0.7166666666666667],[0.595],1,1408.003
5,False,289,0.8,48,[],[],"[(1179, 912)]",[],[1],[78],[1.3],"[640.0, 512.0]",horizontal,"(890.0, 762.0)",[1.65],[0.479],1,1411.505
5,False,290,0.761,45,[],[],"[(1151, 916)]",[],[1],[76],[1.2666666666666666],"[640.0, 512.0]",horizontal,"(890.0, 262.0)",[0.9166666666666666],[0.491],1,1417.406
5,False,291,1.3,78,[],[],"[(1167, 905)]",[],[1],[111],[1.8499999999999999],"[640.0, 512.0]",vertical,"(890.0, 762.0)",[0.85],[0.527],1,1421.153
5,False,292,0.322,19,[],[],"[(1178, 898)]",[],[1],[58],[0.9666666666666667],"[640.0, 512.0]",vertical,"(390.0, 262.0)",[0.7],[0.619],1,1425.378
5,False,293,0.703,42,[],[],"[(1166, 902)]",[],[1],[74],[1.2333333333333334],"[640.0, 512.0]",horizontal,"(890.0, 262.0)",[1.1166666666666667],[0.509],1,1430.022
5,False,294,1.04,62,[],[],"[(1167, 896)]",[],[1],[97],[1.6166666666666667],"[640.0, 512.0]",horizontal,"(390.0, 262.0)",[1.0166666666666666],[0.558],1,1433.912
5,False,295,1.211,72,[],[],"[(1167, 897)]",[],[1],[],[],"[640.0, 512.0]",horizontal,"(890.0, 762.0)",[],[0],0,1438.082
5,False,296,1.153,69,[],[],"[(1203, 883)]",[],[1],[102],[1.7],"[640.0, 512.0]",horizontal,"(390.0, 762.0)",[0.5333333333333333],[0.526],1,1441.387
5,False,297,1.016,60,[],[],"[(1155, 889)]",[],[1],[90],[1.5],"[640.0, 512.0]",horizontal,"(890.0, 762.0)",[0.6333333333333333],[0.477],1,1445.219
5,False,298,0.718,43,[],[],"[(1203, 887)]",[],[1],[74],[1.2333333333333334],"[640.0, 512.0]",vertical,"(390.0, 262.0)",[1.4166666666666667],[0.485],1,1449.481
5,False,299,0.999,59,[],[],"[(1179, 889)]",[],[1],[95],[1.5833333333333333],"[640.0, 512.0]",horizontal,"(390.0, 262.0)",[1.25],[0.567],1,1453.596
5,False,300,1.196,71,[],[],"[(1203, 893)]",[],[1],[102],[1.7],"[640.0, 512.0]",vertical,"(890.0, 262.0)",[1.55],[0.492],1,1457.958
6,False,301,0.478,28,[],[],"[(1179, 885)]",[],[1],[63],[1.05],"[640.0, 512.0]",horizontal,"(890.0, 762.0)",[0.75],[0.558],1,1462.748
6,False,302,1.063,63,[],[],"[(1179, 896)]",[],[1],[92],[1.5333333333333332],"[640.0, 512.0]",horizontal,"(890.0, 262.0)",[1.1833333333333333],[0.462],1,1467.088
6,False,303,0.8,48,[],[],"[(1180, 895)]",[],[1],[75],[1.25],"[640.0, 512.0]",horizontal,"(890.0, 262.0)",[1.4166666666666667],[0.434],1,1471.32
6,False,304,1.09,65,[],[],"[(1186, 891)]",[],[1],[98],[1.6333333333333333],"[640.0, 512.0]",vertical,"(890.0, 762.0)",[0.6333333333333333],[0.529],1,1475.556
6,False,305,0.565,33,[],[],"[(1167, 899)]",[],[1],[65],[1.0833333333333333],"[640.0, 512.0]",horizontal,"(390.0, 762.0)",[1.6],[0.514],1,1479.393
6,False,306,1.345,80,[],[],"[(1167, 899)]",[],[1],[113],[1.8833333333333333],"[640.0, 512.0]",horizontal,"(390.0, 762.0)",[1.55],[0.524],1,1483.624
6,False,307,1.257,75,[],[],"[(1179, 903)]",[],[1],[113],[1.8833333333333333],"[640.0, 512.0]",horizontal,"(890.0, 762.0)",[0.6166666666666667],[0.61],1,1488.587
6,False,308,0.879,52,[],[],"[(1191, 877)]",[],[1],[86],[1.4333333333333333],"[640.0, 512.0]",vertical,"(390.0, 762.0)",[1.25],[0.539],1,1493.299
6,False,309,0.928,55,[],[],"[(1161, 892)]",[],[1],[89],[1.4833333333333334],"[640.0, 512.0]",vertical,"(890.0, 762.0)",[1.15],[0.544],1,1497.501
6,False,310,1.078,64,[],[],"[(1177, 892)]",[],[1],[92],[1.5333333333333332],"[640.0, 512.0]",vertical,"(390.0, 262.0)",[1.6833333333333333],[0.442],1,1501.668
6,False,311,1.3,78,[],[],"[(1203, 887)]",[],[1],[113],[1.8833333333333333],"[640.0, 512.0]",vertical,"(390.0, 262.0)",[1.0166666666666666],[0.562],1,1506.405
6,False,312,1.106,66,[],[],"[(1203, 894)]",[],[1],[99],[1.65],"[640.0, 512.0]",horizontal,"(890.0, 262.0)",[1.6333333333333333],[0.528],1,1510.83
6,False,313,0.607,36,[],[],"[(1177, 905)]",[],[1],[73],[1.2166666666666666],"[640.0, 512.0]",vertical,"(890.0, 762.0)",[1.55],[0.591],1,1515.629
6,False,314,0.898,53,[],[],"[(1203, 897)]",[],[1],[85],[1.4166666666666667],"[640.0, 512.0]",vertical,"(890.0, 262.0)",[0.7833333333333333],[0.506],1,1519.993
6,False,315,0.883,52,[],[],"[(1203, 885)]",[],[1],[95],[1.5833333333333333],"[640.0, 512.0]",horizontal,"(890.0, 762.0)",[0.7666666666666666],[0.69],1,1523.702
6,False,316,0.783,46,[],[],"[(1216, 889)]",[],[1],[79],[1.3166666666666667],"[640.0, 512.0]",vertical,"(890.0, 262.0)",[0.55],[0.524],1,1527.589
6,False,317,1.444,86,[],[],"[(1184, 888)]",[],[1],[118],[1.9666666666666666],"[640.0, 512.0]",horizontal,"(890.0, 762.0)",[0.85],[0.509],1,1530.954
6,False,318,0.612,36,[],[],"[(1187, 904)]",[],[1],[69],[1.15],"[640.0, 512.0]",vertical,"(890.0, 262.0)",[1.3166666666666667],[0.525],1,1535.579
6,False,319,0.653,39,[],[],"[(1191, 891)]",[],[1],[79],[1.3166666666666667],"[640.0, 512.0]",vertical,"(390.0, 762.0)",[1.4333333333333333],[0.641],1,1539.589
6,False,320,1.38,82,[],[],"[(1179, 896)]",[],[1],[114],[1.9],"[640.0, 512.0]",horizontal,"(890.0, 762.0)",[0.5],[0.507],1,1543.862
6,False,321,1.01,60,[],[],"[(1163, 894)]",[],[1],[93],[1.55],"[640.0, 512.0]",horizontal,"(890.0, 762.0)",[0.55],[0.535],1,1547.769
6,False,322,1.438,86,[],[],"[(1160, 898)]",[],[1],[121],[2.0166666666666666],"[640.0, 512.0]",vertical,"(890.0, 262.0)",[1.35],[0.561],1,1555.788
6,False,323,0.573,34,[],[],"[(1173, 900)]",[],[1],[68],[1.1333333333333333],"[640.0, 512.0]",horizontal,"(390.0, 262.0)",[0.6],[0.544],1,1560.689
6,False,324,0.333,19,[],[],"[(1172, 885)]",[],[1],[58],[0.9666666666666667],"[640.0, 512.0]",vertical,"(390.0, 762.0)",[1.0],[0.627],1,1564.06
6,False,325,1.396,83,[],[],"[(1175, 889)]",[],[1],[113],[1.8833333333333333],"[640.0, 512.0]",horizontal,"(890.0, 262.0)",[1.6],[0.476],1,1568.933
6,False,326,0.364,21,[],[],"[(1173, 885)]",[],[1],[53],[0.8833333333333333],"[640.0, 512.0]",vertical,"(390.0, 262.0)",[0.85],[0.507],1,1573.939
6,False,327,0.466,27,[],[],"[(1191, 881)]",[],[1],[77],[1.2833333333333332],"[640.0, 512.0]",vertical,"(890.0, 262.0)",[1.2833333333333332],[0.815],0,1577.201
6,False,328,0.81,48,[],[],"[(1203, 887)]",[],[1],[82],[1.3666666666666667],"[640.0, 512.0]",horizontal,"(390.0, 762.0)",[1.2166666666666666],[0.549],1,1581.344
6,False,329,0.874,52,[],[],"[(1186, 897)]",[],[1],[89],[1.4833333333333334],"[640.0, 512.0]",vertical,"(890.0, 262.0)",[1.2833333333333332],[0.597],1,1585.717
6,False,330,1.456,87,[],[],"[(1184, 894)]",[],[1],[137],[2.283333333333333],"[640.0, 512.0]",horizontal,"(390.0, 262.0)",[1.1666666666666667],[0.817],0,1590.08
6,False,331,1.412,84,[],[],"[(1178, 889)]",[],[1],[112],[1.8666666666666667],"[640.0, 512.0]",horizontal,"(890.0, 262.0)",[0.8833333333333333],[0.449],1,1597.845
6,False,332,1.033,61,[],[],"[(1178, 893)]",[],[1],[81],[1.35],"[640.0, 512.0]",horizontal,"(890.0, 262.0)",[1.4166666666666667],[0.32],1,1603.038
6,False,333,0.726,43,[],[],"[(1203, 888)]",[],[1],[73],[1.2166666666666666],"[640.0, 512.0]",vertical,"(890.0, 262.0)",[1.35],[0.478],1,1607.368
6,False,334,1.034,62,[],[],"[(1183, 889)]",[],[1],[104],[1.7333333333333334],"[640.0, 512.0]",vertical,"(390.0, 762.0)",[0.9],[0.688],1,1611.422
6,False,335,0.65,39,[],[],"[(1191, 901)]",[],[1],[72],[1.2],"[640.0, 512.0]",horizontal,"(890.0, 262.0)",[0.7],[0.524],1,1615.722
6,False,336,1.293,77,[],[],"[(1203, 899)]",[],[1],[113],[1.8833333333333333],"[640.0, 512.0]",vertical,"(390.0, 762.0)",[0.5333333333333333],[0.575],1,1619.165
6,False,337,1.19,71,[],[],"[(1162, 909)]",[],[1],[111],[1.8499999999999999],"[640.0, 512.0]",horizontal,"(390.0, 762.0)",[0.6833333333333333],[0.643],1,1623.087
6,False,338,0.899,53,[],[],"[(1170, 891)]",[],[1],[93],[1.55],"[640.0, 512.0]",horizontal,"(390.0, 262.0)",[1.55],[0.641],1,1627.162
6,False,339,0.891,53,[],[],"[(1185, 912)]",[],[1],[103],[1.7166666666666666],"[640.0, 512.0]",vertical,"(890.0, 762.0)",[0.6333333333333333],[0.803],0,1632.022
6,False,340,0.405,24,[],[],"[(1142, 889)]",[],[1],[65],[1.0833333333333333],"[640.0, 512.0]",vertical,"(890.0, 762.0)",[1.0333333333333332],[0.658],1,1636.982
6,False,341,0.438,26,[],[],"[(1171, 887)]",[],[1],[61],[1.0166666666666666],"[640.0, 512.0]",vertical,"(390.0, 762.0)",[0.5166666666666666],[0.563],1,1667.502
6,False,342,0.732,43,[],[],"[(1203, 875)]",[],[1],[74],[1.2333333333333334],"[640.0, 512.0]",vertical,"(890.0, 262.0)",[0.65],[0.493],1,1670.601
6,False,343,0.594,35,[],[],"[(1184, 873)]",[],[1],[75],[1.25],"[640.0, 512.0]",horizontal,"(390.0, 762.0)",[1.2666666666666666],[0.639],1,1673.99
6,False,344,0.488,29,[],[],"[(1203, 898)]",[],[1],[60],[1.0],"[640.0, 512.0]",vertical,"(390.0, 262.0)",[0.9],[0.495],1,1678.029
6,False,345,1.465,87,[],[],"[(1154, 893)]",[],[1],[116],[1.9333333333333333],"[640.0, 512.0]",horizontal,"(890.0, 262.0)",[0.7],[0.457],1,1681.451
6,False,346,1.49,89,[],[],"[(1161, 907)]",[],[1],[],[],"[640.0, 512.0]",horizontal,"(890.0, 762.0)",[],[0],0,1685.774
6,False,347,0.36,21,[],[],"[(1196, 885)]",[],[1],[57],[0.95],"[640.0, 512.0]",vertical,"(390.0, 762.0)",[0.7],[0.582],1,1689.471
6,False,348,0.766,45,[],[],"[(1191, 892)]",[],[1],[76],[1.2666666666666666],"[640.0, 512.0]",horizontal,"(890.0, 262.0)",[1.2333333333333334],[0.493],1,1692.674
6,False,349,1.102,66,[],[],"[(1170, 889)]",[],[1],[95],[1.5833333333333333],"[640.0, 512.0]",horizontal,"(390.0, 262.0)",[1.55],[0.453],1,1696.708
6,False,350,0.522,31,[],[],"[(1154, 889)]",[],[1],[70],[1.1666666666666667],"[640.0, 512.0]",vertical,"(390.0, 762.0)",[0.7],[0.627],1,1701.441
6,False,351,1.129,67,[],[],"[(1191, 894)]",[],[1],[107],[1.7833333333333332],"[640.0, 512.0]",horizontal,"(890.0, 762.0)",[1.3333333333333333],[0.639],1,1712.128
6,False,352,0.765,45,[],[],"[(1164, 894)]",[],[1],[78],[1.3],"[640.0, 512.0]",vertical,"(890.0, 262.0)",[1.3666666666666667],[0.522],1,1716.755
6,False,353,1.047,62,[],[],"[(1179, 888)]",[],[1],[97],[1.6166666666666667],"[640.0, 512.0]",vertical,"(890.0, 262.0)",[1.3166666666666667],[0.558],1,1720.957
6,False,354,0.365,21,[],[],"[(1238, 881), (1215, 878)]",[],"[0, 1]",[57],[0.95],"[640.0, 512.0]",vertical,"(390.0, 262.0)",[0.55],[0.577],1,1725.361
6,False,355,1.337,80,[],[],"[(1202, 898)]",[],[1],[116],[1.9333333333333333],"[640.0, 512.0]",horizontal,"(390.0, 262.0)",[1.6],[0.572],1,1729.586
6,False,356,0.498,29,[],[],"[(1203, 883)]",[],[1],[69],[1.15],"[640.0, 512.0]",vertical,"(390.0, 762.0)",[0.5666666666666667],[0.642],1,1734.616
6,False,357,1.006,60,[],[],"[(1197, 899)]",[],[1],[104],[1.7333333333333334],"[640.0, 512.0]",vertical,"(890.0, 762.0)",[0.8166666666666667],[0.709],1,1737.856
6,False,358,0.429,25,[],[],"[(1206, 889)]",[],[1],[61],[1.0166666666666666],"[640.0, 512.0]",vertical,"(890.0, 262.0)",[0.6666666666666666],[0.574],1,1741.92
6,False,359,1.372,82,[],[],"[(1203, 893)]",[],[1],[117],[1.95],"[640.0, 512.0]",vertical,"(890.0, 762.0)",[0.6333333333333333],[0.553],1,1745.135
6,False,360,0.797,47,[],[],"[(1180, 880)]",[],[1],[77],[1.2833333333333332],"[640.0, 512.0]",horizontal,"(890.0, 262.0)",[0.6333333333333333],[0.483],1,1749.391
7,False,361,0.701,42,[],[],"[(1180, 889)]",[],[1],[69],[1.15],"[640.0, 512.0]",horizontal,"(890.0, 262.0)",[1.6166666666666667],[0.427],1,1752.864
7,False,362,0.752,45,[],[],"[(1215, 891)]",[],[1],[78],[1.3],"[640.0, 512.0]",vertical,"(890.0, 762.0)",[0.8166666666666667],[0.523],1,1757.171
7,False,363,0.67,40,[],[],"[(1197, 904)]",[],[1],[80],[1.3333333333333333],"[640.0, 512.0]",vertical,"(890.0, 762.0)",[0.8],[0.639],1,1760.788
7,False,364,0.819,49,[],[],"[(1221, 899)]",[],[1],[79],[1.3166666666666667],"[640.0, 512.0]",horizontal,"(890.0, 262.0)",[1.2333333333333334],[0.475],1,1764.452
7,False,365,1.284,77,[],[],"[(1174, 894)]",[],[1],[111],[1.8499999999999999],"[640.0, 512.0]",horizontal,"(390.0, 262.0)",[0.7],[0.544],1,1773.922
7,False,366,1.165,69,[],[],"[(1180, 889)]",[],[1],[103],[1.7166666666666666],"[640.0, 512.0]",horizontal,"(890.0, 262.0)",[0.85],[0.536],1,1777.989
7,False,367,0.746,44,[],[],"[(1203, 875)]",[],[1],[78],[1.3],"[640.0, 512.0]",vertical,"(890.0, 262.0)",[1.5833333333333333],[0.542],1,1782.077
7,False,368,0.782,46,[],[],"[(1173, 894)]",[],[1],[96],[1.6],"[640.0, 512.0]",horizontal,"(890.0, 762.0)",[0.6666666666666666],[0.805],0,1786.488
7,False,369,0.641,38,[],[],"[(1148, 938)]",[],[1],[67],[1.1166666666666667],"[640.0, 512.0]",horizontal,"(890.0, 762.0)",[1.0],[0.457],1,1797.523
7,False,370,0.483,28,[],[],"[(1180, 914)]",[],[1],[58],[0.9666666666666667],"[640.0, 512.0]",vertical,"(390.0, 262.0)",[1.5666666666666667],[0.475],1,1803.251
7,False,371,0.492,29,[],[],"[(1178, 907)]",[],[1],[61],[1.0166666666666666],"[640.0, 512.0]",vertical,"(890.0, 262.0)",[1.05],[0.507],1,1807.408
7,False,372,1.218,73,[],[],"[(1191, 899)]",[],[1],[123],[2.05],"[640.0, 512.0]",horizontal,"(390.0, 762.0)",[0.6833333333333333],[0.802],0,1811.22
7,False,373,1.447,86,[],[],"[(1180, 872)]",[],[1],[116],[1.9333333333333333],"[640.0, 512.0]",horizontal,"(890.0, 262.0)",[1.1666666666666667],[0.472],1,1815.552
7,False,374,1.13,67,[],[],"[(1209, 898)]",[],[1],[99],[1.65],"[640.0, 512.0]",horizontal,"(390.0, 262.0)",[0.8833333333333333],[0.507],1,1820.29
7,False,375,0.957,57,[],[],"[(1226, 889)]",[],[1],[93],[1.55],"[640.0, 512.0]",vertical,"(390.0, 762.0)",[1.3666666666666667],[0.573],1,1824.336
7,False,376,1.254,75,[],[],"[(1203, 891)]",[],[1],[107],[1.7833333333333332],"[640.0, 512.0]",horizontal,"(890.0, 262.0)",[0.8833333333333333],[0.505],1,1828.743
7,False,377,0.762,45,[],[],"[(1186, 899)]",[],[1],[81],[1.35],"[640.0, 512.0]",horizontal,"(390.0, 762.0)",[0.6833333333333333],[0.575],1,1832.892
7,False,378,1.215,72,[],[],"[(1185, 891)]",[],[1],[101],[1.6833333333333333],"[640.0, 512.0]",horizontal,"(890.0, 762.0)",[1.4833333333333334],[0.459],1,1836.418
7,False,379,1.071,64,[],[],"[(1215, 889)]",[],[1],[97],[1.6166666666666667],"[640.0, 512.0]",horizontal,"(890.0, 762.0)",[1.3666666666666667],[0.531],1,1841.074
7,False,380,0.515,30,[],[],"[(1203, 885)]",[],[1],[66],[1.1],"[640.0, 512.0]",vertical,"(890.0, 262.0)",[0.5666666666666667],[0.575],1,1845.573
7,False,381,1.347,80,[],[],"[(1177, 880)]",[],[1],[130],[2.1666666666666665],"[640.0, 512.0]",vertical,"(890.0, 762.0)",[1.0666666666666667],[0.801],0,1848.724
7,False,382,1.032,61,[],[],"[(1175, 898)]",[],[1],[88],[1.4666666666666666],"[640.0, 512.0]",horizontal,"(890.0, 262.0)",[1.4833333333333334],[0.429],1,1853.635
7,False,383,0.783,46,[],[],"[(1177, 888)]",[],[1],[82],[1.3666666666666667],"[640.0, 512.0]",vertical,"(890.0, 262.0)",[1.35],[0.573],1,1869.354
7,False,384,1.475,88,[],[],"[(1203, 881)]",[],[1],[121],[2.0166666666666666],"[640.0, 512.0]",vertical,"(390.0, 762.0)",[1.6666666666666667],[0.526],1,1873.602
7,False,385,0.849,50,[],[],"[(1203, 888)]",[],[1],[84],[1.4],"[640.0, 512.0]",horizontal,"(890.0, 762.0)",[0.6833333333333333],[0.547],1,1878.774
7,False,386,1.301,78,[],[],"[(1156, 885)]",[],[1],[110],[1.8333333333333333],"[640.0, 512.0]",vertical,"(890.0, 762.0)",[0.8833333333333333],[0.512],1,1882.395
7,False,387,1.02,61,[],[],"[(1203, 901)]",[],[1],[111],[1.8499999999999999],"[640.0, 512.0]",horizontal,"(890.0, 762.0)",[1.0166666666666666],[0.801],0,1886.632
7,False,388,0.955,57,[],[],"[(1173, 889)]",[],[1],[86],[1.4333333333333333],"[640.0, 512.0]",vertical,"(390.0, 262.0)",[1.4666666666666666],[0.456],1,1890.998
7,False,389,0.873,52,[],[],"[(1203, 880)]",[],[1],[85],[1.4166666666666667],"[640.0, 512.0]",vertical,"(390.0, 262.0)",[1.4],[0.524],1,1897.51
7,False,390,0.617,37,[],[],"[(1206, 894)]",[],[1],[73],[1.2166666666666666],"[640.0, 512.0]",horizontal,"(890.0, 762.0)",[0.6166666666666667],[0.574],1,1901.818
7,False,391,0.925,55,[],[],"[(1223, 899)]",[],[1],[89],[1.4833333333333334],"[640.0, 512.0]",vertical,"(390.0, 762.0)",[1.6166666666666667],[0.541],1,1905.158
7,False,392,0.52,31,[],[],"[(1178, 900)]",[],[1],[65],[1.0833333333333333],"[640.0, 512.0]",vertical,"(390.0, 762.0)",[1.5333333333333332],[0.548],1,1909.772
7,False,393,0.905,54,[],[],"[(1179, 898)]",[],[1],[95],[1.5833333333333333],"[640.0, 512.0]",horizontal,"(890.0, 762.0)",[1.4166666666666667],[0.66],1,1913.926
7,False,394,1.336,80,[],[],"[(1175, 908)]",[],[1],[112],[1.8666666666666667],"[640.0, 512.0]",horizontal,"(390.0, 262.0)",[0.9333333333333333],[0.51],1,1918.48
7,False,395,1.058,63,[],[],"[(1183, 893)]",[],[1],[95],[1.5833333333333333],"[640.0, 512.0]",vertical,"(890.0, 262.0)",[1.5166666666666666],[0.513],1,1928.873
7,False,396,1.386,83,[],[],"[(1177, 889)]",[],[1],[133],[2.216666666666667],"[640.0, 512.0]",horizontal,"(390.0, 762.0)",[1.4],[0.803],0,1933.475
7,False,397,0.793,47,[],[],"[(1176, 873)]",[],[1],[78],[1.3],"[640.0, 512.0]",vertical,"(390.0, 262.0)",[0.9],[0.497],1,1938.76
7,False,398,1.135,68,[],[],"[(1181, 871)]",[],[1],[99],[1.65],"[640.0, 512.0]",horizontal,"(390.0, 762.0)",[1.35],[0.494],1,1954.067
7,False,399,1.082,64,[],[],"[(1203, 886)]",[],[1],[94],[1.5666666666666667],"[640.0, 512.0]",horizontal,"(890.0, 262.0)",[1.3833333333333333],[0.476],1,1958.527
7,False,400,0.94,56,[],[],"[(1179, 908)]",[],[1],[88],[1.4666666666666666],"[640.0, 512.0]",horizontal,"(890.0, 762.0)",[1.45],[0.5],1,1962.969
7,False,401,0.4,24,[],[],"[(1179, 899)]",[],[1],[54],[0.9],"[640.0, 512.0]",horizontal,"(890.0, 762.0)",[1.6166666666666667],[0.475],1,1968.592
7,False,402,0.534,32,[],[],"[(1203, 885)]",[],[1],[69],[1.15],"[640.0, 512.0]",vertical,"(890.0, 762.0)",[0.7166666666666667],[0.6],1,1972.707
7,False,403,0.9,54,[],[],"[(1203, 879)]",[],[1],[104],[1.7333333333333334],"[640.0, 512.0]",horizontal,"(890.0, 762.0)",[0.5333333333333333],[0.804],0,1976.147
7,False,404,0.421,25,[],[],"[(1197, 876)]",[],[1],[55],[0.9166666666666666],"[640.0, 512.0]",horizontal,"(890.0, 262.0)",[0.85],[0.474],1,1979.92
7,False,405,0.498,29,[],[],"[(1203, 890)]",[],[1],[63],[1.05],"[640.0, 512.0]",vertical,"(890.0, 762.0)",[0.8166666666666667],[0.541],1,1987.811
7,False,406,1.281,76,[],[],"[(1203, 885)]",[],[1],[114],[1.9],"[640.0, 512.0]",horizontal,"(390.0, 762.0)",[0.9333333333333333],[0.609],1,1991.274
7,False,407,0.572,34,[],[],"[(1210, 867)]",[],[1],[68],[1.1333333333333333],"[640.0, 512.0]",vertical,"(390.0, 762.0)",[0.95],[0.541],1,1995.591
7,False,408,0.997,59,[],[],"[(1203, 896)]",[],[1],[92],[1.5333333333333332],"[640.0, 512.0]",vertical,"(390.0, 762.0)",[1.0333333333333332],[0.521],1,1999.131
7,False,409,0.633,37,[],[],"[(1179, 902)]",[],[1],[76],[1.2666666666666666],"[640.0, 512.0]",vertical,"(890.0, 262.0)",[0.95],[0.627],1,2003.203
7,False,410,0.786,47,[],[],"[(1184, 890)]",[],[1],[80],[1.3333333333333333],"[640.0, 512.0]",vertical,"(390.0, 762.0)",[1.3666666666666667],[0.523],1,2011.108
7,False,411,0.421,25,[],[],"[(1196, 893)]",[],[1],[55],[0.9166666666666666],"[640.0, 512.0]",horizontal,"(390.0, 262.0)",[1.4666666666666666],[0.472],1,2015.313
7,False,412,1.141,68,[],[],"[(1178, 901)]",[],[1],[114],[1.9],"[640.0, 512.0]",horizontal,"(890.0, 762.0)",[0.85],[0.737],1,2019.203
7,False,413,0.392,23,[],[],"[(1179, 887)]",[],[1],[66],[1.1],"[640.0, 512.0]",vertical,"(890.0, 262.0)",[0.6666666666666666],[0.693],1,2023.469
7,False,414,0.961,57,[],[],"[(1170, 891)]",[],[1],[89],[1.4833333333333334],"[640.0, 512.0]",vertical,"(390.0, 262.0)",[0.8166666666666667],[0.507],1,2026.741
7,False,415,1.432,85,[],[],"[(1198, 865)]",[],[1],[112],[1.8666666666666667],"[640.0, 512.0]",horizontal,"(390.0, 262.0)",[1.2666666666666666],[0.435],1,2030.628
7,False,416,1.306,78,[],[],"[(1204, 875)]",[],[1],[115],[1.9166666666666667],"[640.0, 512.0]",horizontal,"(390.0, 262.0)",[1.2166666666666666],[0.593],1,2035.292
7,False,417,0.553,33,[],[],"[(1203, 880)]",[],[1],[70],[1.1666666666666667],"[640.0, 512.0]",horizontal,"(890.0, 262.0)",[1.6],[0.588],1,2039.938
7,False,418,0.727,43,[],[],"[(1191, 896)]",[],[1],[80],[1.3333333333333333],"[640.0, 512.0]",horizontal,"(890.0, 262.0)",[0.9333333333333333],[0.595],1,2044.147
7,False,419,1.38,82,[],[],"[(1204, 886)]",[],[1],[113],[1.8833333333333333],"[640.0, 512.0]",horizontal,"(390.0, 262.0)",[1.0833333333333333],[0.494],1,2047.902
7,False,420,0.689,41,[],[],"[(1203, 889)]",[],[1],[73],[1.2166666666666666],"[640.0, 512.0]",horizontal,"(390.0, 762.0)",[0.7666666666666666],[0.505],1,2052.382
8,False,421,0.651,39,[],[],"[(1203, 898)]",[],[1],[70],[1.1666666666666667],"[640.0, 512.0]",vertical,"(390.0, 262.0)",[1.2333333333333334],[0.487],1,2055.872
8,False,422,0.869,52,[],[],"[(1179, 874)]",[],[1],[102],[1.7],"[640.0, 512.0]",horizontal,"(390.0, 262.0)",[0.9],[0.806],0,2059.748
8,False,423,0.859,51,[],[],"[(1179, 893)]",[],[1],[83],[1.3833333333333333],"[640.0, 512.0]",horizontal,"(890.0, 262.0)",[1.2],[0.518],1,2063.879
8,False,424,0.384,23,[],[],"[(1206, 883)]",[],[1],[59],[0.9833333333333333],"[640.0, 512.0]",vertical,"(390.0, 762.0)",[0.9666666666666667],[0.578],1,2068.756
8,False,425,1.307,78,[],[],"[(1154, 902)]",[],[1],[107],[1.7833333333333332],"[640.0, 512.0]",vertical,"(390.0, 762.0)",[1.6666666666666667],[0.458],1,2072.227
8,False,426,1.466,87,[],[],"[(1186, 894)]",[],[1],[91],[1.5166666666666666],"[640.0, 512.0]",vertical,"(890.0, 762.0)",[1.3833333333333333],[0.051],1,2077.203
8,False,427,0.386,23,[],[],"[(1185, 896)]",[],[1],[60],[1.0],"[640.0, 512.0]",vertical,"(390.0, 762.0)",[0.9166666666666666],[0.591],1,2081.604
8,False,428,0.474,28,[],[],"[(1203, 904)]",[],[1],[56],[0.9333333333333333],"[640.0, 512.0]",horizontal,"(390.0, 262.0)",[1.35],[0.437],1,2085.127
8,False,429,0.909,54,[],[],"[(1173, 910)]",[],[1],[85],[1.4166666666666667],"[640.0, 512.0]",vertical,"(890.0, 262.0)",[1.15],[0.492],1,2088.992
8,False,430,1.413,84,[],[],"[(1203, 870)]",[],[1],[114],[1.9],"[640.0, 512.0]",horizontal,"(890.0, 262.0)",[0.8833333333333333],[0.473],1,2093.254
8,False,431,0.744,44,[],[],"[(1203, 898)]",[],[1],[75],[1.25],"[640.0, 512.0]",vertical,"(890.0, 262.0)",[1.1],[0.486],1,2097.557
8,False,432,0.894,53,[],[],"[(1203, 875)]",[],[1],[85],[1.4166666666666667],"[640.0, 512.0]",vertical,"(390.0, 762.0)",[1.2166666666666666],[0.506],1,2101.475
8,False,433,0.6,36,[],[],"[(1179, 894)]",[],[1],[67],[1.1166666666666667],"[640.0, 512.0]",vertical,"(890.0, 762.0)",[0.9833333333333333],[0.492],1,2105.609
8,False,434,1.032,61,[],[],"[(1228, 880)]",[],[1],[91],[1.5166666666666666],"[640.0, 512.0]",horizontal,"(890.0, 262.0)",[0.7833333333333333],[0.478],1,2109.227
8,False,435,0.76,45,[],[],"[(1203, 882)]",[],[1],[81],[1.35],"[640.0, 512.0]",horizontal,"(390.0, 762.0)",[0.6666666666666666],[0.576],1,2113.009
8,False,436,1.033,61,[],[],"[(1191, 899)]",[],[1],[111],[1.8499999999999999],"[640.0, 512.0]",horizontal,"(390.0, 262.0)",[1.45],[0.805],0,2116.537
8,False,437,1.187,71,[],[],"[(1158, 897)]",[],[1],[88],[1.4666666666666666],"[640.0, 512.0]",horizontal,"(390.0, 262.0)",[1.6333333333333333],[0.27],1,2121.393
8,False,438,0.944,56,[],[],"[(1148, 891)]",[],[1],[90],[1.5],"[640.0, 512.0]",vertical,"(890.0, 762.0)",[0.7333333333333333],[0.545],1,2128.16
8,False,439,0.6,36,[],[],"[(1180, 900)]",[],[1],[79],[1.3166666666666667],"[640.0, 512.0]",horizontal,"(390.0, 262.0)",[0.5833333333333334],[0.688],1,2131.954
8,False,440,0.394,23,[],[],"[(1173, 900)]",[],[1],[73],[1.2166666666666666],"[640.0, 512.0]",horizontal,"(390.0, 262.0)",[0.7166666666666667],[0.801],0,2135.361
8,False,441,0.738,44,[],[],"[(1177, 898)]",[],[1],[83],[1.3833333333333333],"[640.0, 512.0]",vertical,"(390.0, 762.0)",[0.55],[0.626],1,2138.82
8,False,442,0.443,26,[],[],"[(1187, 892)]",[],[1],[76],[1.2666666666666666],"[640.0, 512.0]",vertical,"(390.0, 262.0)",[1.2833333333333332],[0.806],0,2144.564
8,False,443,1.205,72,[],[],"[(1252, 875), (1227, 878)]",[],"[0, 1]",[],[],"[640.0, 512.0]",vertical,"(890.0, 262.0)",[],[0],0,2148.654
8,False,444,0.453,27,[],[],"[(1185, 896)]",[],[1],[60],[1.0],"[640.0, 512.0]",horizontal,"(890.0, 762.0)",[0.5833333333333334],[0.521],1,2154.279
8,False,445,1.246,74,[],[],"[(1212, 885)]",[],[1],[108],[1.8],"[640.0, 512.0]",horizontal,"(390.0, 762.0)",[0.75],[0.54],1,2157.62
8,False,446,0.32,19,[],[],"[(1167, 904)]",[],[1],[51],[0.85],"[640.0, 512.0]",horizontal,"(390.0, 762.0)",[1.6],[0.513],1,2161.653
8,False,447,1.047,62,[],[],"[(1170, 895)]",[],[1],[94],[1.5666666666666667],"[640.0, 512.0]",vertical,"(890.0, 262.0)",[1.4333333333333333],[0.507],1,2165.857
8,False,448,1.378,82,[],[],"[(1180, 902)]",[],[1],[115],[1.9166666666666667],"[640.0, 512.0]",vertical,"(390.0, 762.0)",[0.8833333333333333],[0.524],1,2170.376
8,False,449,0.382,22,[],[],"[(1167, 898)]",[],[1],[56],[0.9333333333333333],"[640.0, 512.0]",vertical,"(890.0, 762.0)",[1.2333333333333334],[0.539],1,2174.759
8,False,450,0.88,52,[],[],"[(1203, 887)]",[],[1],[84],[1.4],"[640.0, 512.0]",vertical,"(890.0, 762.0)",[1.0166666666666666],[0.512],1,2178.619
8,False,451,0.409,24,[],[],"[(1203, 893)]",[],[1],[58],[0.9666666666666667],"[640.0, 512.0]",vertical,"(890.0, 762.0)",[0.7666666666666666],[0.544],1,2182.519
8,False,452,1.315,78,[],[],"[(1203, 900)]",[],[1],[110],[1.8333333333333333],"[640.0, 512.0]",vertical,"(390.0, 262.0)",[0.9333333333333333],[0.514],1,2185.82
8,False,453,1.266,75,[],[],"[(1168, 902)]",[],[1],[95],[1.5833333333333333],"[640.0, 512.0]",horizontal,"(390.0, 262.0)",[1.3333333333333333],[0.314],1,2190.174
8,False,454,0.519,31,[],[],"[(1179, 902)]",[],[1],[61],[1.0166666666666666],"[640.0, 512.0]",vertical,"(890.0, 262.0)",[1.6166666666666667],[0.474],1,2245.187
8,False,455,0.42,25,[],[],"[(1173, 899)]",[],[1],[57],[0.95],"[640.0, 512.0]",horizontal,"(390.0, 762.0)",[1.15],[0.509],1,2249.321
8,False,456,0.989,59,[],[],"[(1166, 885)]",[],[1],[89],[1.4833333333333334],"[640.0, 512.0]",vertical,"(390.0, 262.0)",[0.7833333333333333],[0.48],1,2252.961
8,False,457,1.14,68,[],[],"[(1155, 900)]",[],[1],[97],[1.6166666666666667],"[640.0, 512.0]",horizontal,"(390.0, 262.0)",[1.0166666666666666],[0.46],1,2256.992
8,False,458,1.317,79,[],[],"[(1232, 879), (1206, 880)]",[],"[0, 1]",[112],[1.8666666666666667],"[640.0, 512.0]",horizontal,"(390.0, 262.0)",[1.1666666666666667],[0.527],1,2261.126
8,False,459,1.22,73,[],[],"[(1158, 904)]",[],[1],[107],[1.7833333333333332],"[640.0, 512.0]",horizontal,"(390.0, 262.0)",[1.1666666666666667],[0.54],1,2266.64
8,False,460,0.347,20,[],[],"[(1204, 871)]",[],[1],[51],[0.85],"[640.0, 512.0]",horizontal,"(890.0, 762.0)",[1.0],[0.493],1,2271.109
8,False,461,1.398,83,[],[],"[(1203, 894)]",[],[1],[114],[1.9],"[640.0, 512.0]",horizontal,"(890.0, 762.0)",[1.1333333333333333],[0.494],1,2274.495
8,False,462,0.938,56,[],[],"[(1215, 875)]",[],[1],[89],[1.4833333333333334],"[640.0, 512.0]",vertical,"(890.0, 762.0)",[1.3],[0.523],1,2279.053
8,False,463,0.518,31,[],[],"[(1197, 893)]",[],[1],[66],[1.1],"[640.0, 512.0]",horizontal,"(890.0, 762.0)",[0.7333333333333333],[0.553],1,2283.311
8,False,464,0.869,52,[],[],"[(1203, 870)]",[],[1],[81],[1.35],"[640.0, 512.0]",vertical,"(890.0, 762.0)",[1.6166666666666667],[0.46],1,2286.684
8,False,465,0.495,29,[],[],"[(1203, 884)]",[],[1],[79],[1.3166666666666667],"[640.0, 512.0]",vertical,"(890.0, 262.0)",[0.6166666666666667],[0.802],0,2291.127
8,False,466,0.535,32,[],[],"[(1206, 889)]",[],[1],[71],[1.1833333333333333],"[640.0, 512.0]",vertical,"(390.0, 262.0)",[1.35],[0.624],1,2294.618
8,False,467,0.455,27,[],[],"[(1178, 899)]",[],[1],[60],[1.0],"[640.0, 512.0]",horizontal,"(890.0, 762.0)",[0.9166666666666666],[0.534],1,2309.359
8,False,468,1.441,86,[],[],"[(1203, 896)]",[],[1],[119],[1.9833333333333334],"[640.0, 512.0]",vertical,"(890.0, 762.0)",[0.7333333333333333],[0.522],1,2312.787
8,False,469,1.121,67,[],[],"[(1197, 899)]",[],[1],[107],[1.7833333333333332],"[640.0, 512.0]",horizontal,"(390.0, 762.0)",[1.1166666666666667],[0.635],1,2317.025
8,False,470,0.954,57,[],[],"[(1188, 896)]",[],[1],[94],[1.5666666666666667],"[640.0, 512.0]",horizontal,"(890.0, 762.0)",[0.8333333333333334],[0.588],1,2321.384
8,False,471,0.375,22,[],[],"[(1204, 894)]",[],[1],[54],[0.9],"[640.0, 512.0]",horizontal,"(890.0, 762.0)",[1.3833333333333333],[0.509],1,2326.897
8,False,472,1.367,82,[],[],"[(1197, 899)]",[],[1],[113],[1.8833333333333333],"[640.0, 512.0]",vertical,"(390.0, 262.0)",[1.4666666666666666],[0.506],1,2330.79
8,False,473,1.28,76,[],[],"[(1183, 896)]",[],[1],[109],[1.8166666666666667],"[640.0, 512.0]",horizontal,"(890.0, 262.0)",[0.5166666666666666],[0.523],1,2335.926
8,False,474,0.936,56,[],[],"[(1203, 905)]",[],[1],[89],[1.4833333333333334],"[640.0, 512.0]",vertical,"(390.0, 262.0)",[1.1333333333333333],[0.524],1,2339.788
8,False,475,0.423,25,[],[],"[(1209, 892)]",[],[1],[58],[0.9666666666666667],"[640.0, 512.0]",horizontal,"(390.0, 262.0)",[1.6333333333333333],[0.522],1,2343.994
8,False,476,0.707,42,[],[],"[(1173, 889)]",[],[1],[73],[1.2166666666666666],"[640.0, 512.0]",vertical,"(390.0, 262.0)",[1.3166666666666667],[0.493],1,2348.12
8,False,477,1.155,69,[],[],"[(1203, 870)]",[],[1],[101],[1.6833333333333333],"[640.0, 512.0]",vertical,"(390.0, 762.0)",[1.5],[0.515],1,2352.207
8,False,478,1.082,64,[],[],"[(1201, 876)]",[],[1],[98],[1.6333333333333333],"[640.0, 512.0]",horizontal,"(890.0, 762.0)",[0.9333333333333333],[0.546],1,2356.873
8,False,479,0.611,36,[],[],"[(1203, 888)]",[],[1],[81],[1.35],"[640.0, 512.0]",vertical,"(890.0, 262.0)",[0.7833333333333333],[0.72],1,2360.958
8,False,480,1.289,77,[],[],"[(1203, 896)]",[],[1],[111],[1.8499999999999999],"[640.0, 512.0]",vertical,"(390.0, 262.0)",[0.8333333333333334],[0.536],1,2364.602
9,False,481,0.407,24,[],[],"[(1150, 894)]",[],[1],[64],[1.0666666666666667],"[640.0, 512.0]",vertical,"(390.0, 762.0)",[0.55],[0.639],1,2369.027
9,False,482,0.875,52,[],[],"[(1196, 886)]",[],[1],[83],[1.3833333333333333],"[640.0, 512.0]",horizontal,"(890.0, 762.0)",[0.9833333333333333],[0.502],1,2372.243
9,False,483,0.416,24,[],[],"[(1203, 890)]",[],[1],[56],[0.9333333333333333],"[640.0, 512.0]",horizontal,"(390.0, 762.0)",[1.5],[0.501],1,2376.134
9,False,484,1.006,60,[],[],"[(1203, 893)]",[],[1],[93],[1.55],"[640.0, 512.0]",vertical,"(890.0, 262.0)",[1.1333333333333333],[0.525],1,2380.143
9,False,485,0.613,36,[],[],"[(1203, 893)]",[],[1],[70],[1.1666666666666667],"[640.0, 512.0]",vertical,"(390.0, 762.0)",[1.5333333333333332],[0.543],1,2384.338
9,False,486,1.304,78,[],[],"[(1198, 902)]",[],[1],[111],[1.8499999999999999],"[640.0, 512.0]",horizontal,"(890.0, 262.0)",[0.7833333333333333],[0.53],1,2388.678
9,False,487,0.773,46,[],[],"[(1198, 885)]",[],[1],[71],[1.1833333333333333],"[640.0, 512.0]",horizontal,"(390.0, 262.0)",[1.6166666666666667],[0.391],1,2393.017
9,False,488,1.313,78,[],[],"[(1197, 885)]",[],[1],[111],[1.8499999999999999],"[640.0, 512.0]",vertical,"(390.0, 762.0)",[0.6666666666666666],[0.529],1,2397.343
9,False,489,0.341,20,[],[],"[(1190, 896)]",[],[1],[68],[1.1333333333333333],"[640.0, 512.0]",horizontal,"(890.0, 762.0)",[0.7],[0.775],1,2401.371
9,False,490,0.523,31,[],[],"[(1203, 894)]",[],[1],[64],[1.0666666666666667],"[640.0, 512.0]",vertical,"(390.0, 262.0)",[1.2],[0.528],1,2404.759
9,False,491,1.36,81,[],[],"[(1219, 896)]",[],[1],[],[],"[640.0, 512.0]",vertical,"(390.0, 762.0)",[],[0],0,2408.54
9,False,492,0.897,53,[],[],"[(1203, 889)]",[],[1],[83],[1.3833333333333333],"[640.0, 512.0]",horizontal,"(890.0, 262.0)",[1.1166666666666667],[0.477],1,2412.009
9,False,493,0.724,43,[],[],"[(1197, 882)]",[],[1],[84],[1.4],"[640.0, 512.0]",vertical,"(890.0, 762.0)",[0.6666666666666666],[0.655],1,2416.355
9,False,494,1.43,85,[],[],"[(1197, 893)]",[],[1],[118],[1.9666666666666666],"[640.0, 512.0]",horizontal,"(390.0, 762.0)",[1.4333333333333333],[0.523],1,2419.926
9,False,495,0.448,26,[],[],"[(1203, 889)]",[],[1],[60],[1.0],"[640.0, 512.0]",horizontal,"(890.0, 762.0)",[0.9166666666666666],[0.545],1,2424.83
9,False,496,1.399,83,[],[],"[(1203, 890)]",[],[1],[114],[1.9],"[640.0, 512.0]",vertical,"(890.0, 762.0)",[1.2833333333333332],[0.492],1,2428.272
9,False,497,1.212,72,[],[],"[(1216, 875)]",[],[1],[106],[1.7666666666666666],"[640.0, 512.0]",vertical,"(390.0, 762.0)",[1.5666666666666667],[0.545],1,2432.978
9,False,498,0.432,25,[],[],"[(1171, 891)]",[],[1],[58],[0.9666666666666667],"[640.0, 512.0]",vertical,"(890.0, 762.0)",[1.45],[0.522],1,2437.751
9,False,499,1.472,88,[],[],"[(1215, 891)]",[],[1],[117],[1.95],"[640.0, 512.0]",horizontal,"(890.0, 262.0)",[1.0666666666666667],[0.46],1,2441.731
9,False,500,0.772,46,[],[],"[(1204, 868)]",[],[1],[83],[1.3833333333333333],"[640.0, 512.0]",horizontal,"(890.0, 262.0)",[0.5333333333333333],[0.588],1,2446.258
9,False,501,0.554,33,[],[],"[(1203, 893)]",[],[1],[67],[1.1166666666666667],"[640.0, 512.0]",horizontal,"(890.0, 262.0)",[0.9166666666666666],[0.538],1,2449.673
9,False,502,0.524,31,[],[],"[(1203, 899)]",[],[1],[75],[1.25],"[640.0, 512.0]",vertical,"(390.0, 262.0)",[0.9666666666666667],[0.701],1,2453.221
9,False,503,0.335,20,[],[],"[(1197, 899)]",[],[1],[51],[0.85],"[640.0, 512.0]",horizontal,"(390.0, 262.0)",[0.5833333333333334],[0.494],1,2461.286
9,False,504,0.57,34,[],[],"[(1227, 895)]",[],[1],[84],[1.4],"[640.0, 512.0]",vertical,"(890.0, 762.0)",[0.5],[0.799],0,2464.316
9,False,505,1.093,65,[],[],"[(1173, 892)]",[],[1],[75],[1.25],"[640.0, 512.0]",horizontal,"(390.0, 262.0)",[1.2833333333333332],[0.149],1,2467.738
9,False,506,1.042,62,[],[],"[(1183, 896)]",[],[1],[93],[1.55],"[640.0, 512.0]",vertical,"(890.0, 762.0)",[1.4166666666666667],[0.495],1,2489.583
9,False,507,0.507,30,[],[],"[(1203, 896)]",[],[1],[66],[1.1],"[640.0, 512.0]",horizontal,"(890.0, 762.0)",[0.5],[0.573],1,2494.086
9,False,508,0.446,26,[],[],"[(1216, 875)]",[],[1],[58],[0.9666666666666667],"[640.0, 512.0]",vertical,"(390.0, 262.0)",[0.8],[0.512],1,2497.228
9,False,509,0.76,45,[],[],"[(1210, 890)]",[],[1],[77],[1.2833333333333332],"[640.0, 512.0]",vertical,"(890.0, 762.0)",[0.65],[0.515],1,2500.52
9,False,510,1.229,73,[],[],"[(1207, 875)]",[],[1],[100],[1.6666666666666667],"[640.0, 512.0]",vertical,"(890.0, 262.0)",[1.5666666666666667],[0.425],1,2503.952
9,False,511,1.271,76,[],[],"[(1148, 904)]",[],[1],[92],[1.5333333333333332],"[640.0, 512.0]",vertical,"(390.0, 262.0)",[1.6666666666666667],[0.25],1,2541.177
9,False,512,0.873,52,[],[],"[(1175, 899)]",[],[1],[93],[1.55],"[640.0, 512.0]",vertical,"(390.0, 762.0)",[1.5],[0.655],1,2545.908
9,False,513,0.831,49,[],[],"[(1166, 899)]",[],[1],[82],[1.3666666666666667],"[640.0, 512.0]",horizontal,"(890.0, 262.0)",[0.8666666666666667],[0.525],1,2550.474
9,False,514,1.413,84,[],[],"[(1203, 882)]",[],[1],[116],[1.9333333333333333],"[640.0, 512.0]",horizontal,"(890.0, 762.0)",[0.6333333333333333],[0.51],1,2554.261
9,False,515,1.296,77,[],[],"[(1203, 891)]",[],[1],[110],[1.8333333333333333],"[640.0, 512.0]",vertical,"(890.0, 262.0)",[1.25],[0.525],1,2558.316
9,False,516,1.379,82,[],[],"[(1200, 904)]",[],[1],[111],[1.8499999999999999],"[640.0, 512.0]",horizontal,"(890.0, 262.0)",[1.3666666666666667],[0.456],1,2562.871
9,False,517,0.31,18,[],[],"[(1188, 885)]",[],[1],[56],[0.9333333333333333],"[640.0, 512.0]",horizontal,"(390.0, 762.0)",[0.5666666666666667],[0.603],1,2567.58
9,False,518,0.839,50,[],[],"[(1197, 885)]",[],[1],[88],[1.4666666666666666],"[640.0, 512.0]",horizontal,"(390.0, 762.0)",[1.4833333333333334],[0.602],1,2570.626
9,False,519,1.026,61,[],[],"[(1189, 901)]",[],[1],[102],[1.7],"[640.0, 512.0]",horizontal,"(390.0, 762.0)",[0.8],[0.672],1,2575.08
9,False,520,0.856,51,[],[],"[(1188, 889)]",[],[1],[86],[1.4333333333333333],"[640.0, 512.0]",vertical,"(390.0, 762.0)",[0.7166666666666667],[0.559],1,2579.544
9,False,521,0.49,29,[],[],"[(1179, 899)]",[],[1],[67],[1.1166666666666667],"[640.0, 512.0]",horizontal,"(390.0, 762.0)",[0.6],[0.606],1,2583.856
9,False,522,1.214,72,[],[],"[(1168, 894)]",[],[1],[102],[1.7],"[640.0, 512.0]",horizontal,"(390.0, 262.0)",[1.1333333333333333],[0.471],1,2587.307
9,False,523,0.602,36,[],[],"[(1199, 894)]",[],[1],[69],[1.15],"[640.0, 512.0]",horizontal,"(890.0, 262.0)",[0.6],[0.533],1,2591.738
9,False,524,0.694,41,[],[],"[(1199, 882)]",[],[1],[72],[1.2],"[640.0, 512.0]",horizontal,"(890.0, 762.0)",[1.5],[0.487],1,2595.096
9,False,525,1.201,72,[],[],"[(1188, 891)]",[],[1],[103],[1.7166666666666666],"[640.0, 512.0]",vertical,"(390.0, 262.0)",[0.6666666666666666],[0.494],1,2599.288
9,False,526,1.028,61,[],[],"[(1194, 896)]",[],[1],[94],[1.5666666666666667],"[640.0, 512.0]",horizontal,"(890.0, 262.0)",[0.7333333333333333],[0.527],1,2603.225
9,False,527,0.508,30,[],[],"[(1173, 898)]",[],[1],[64],[1.0666666666666667],"[640.0, 512.0]",vertical,"(390.0, 262.0)",[1.6666666666666667],[0.542],1,2607.071
9,False,528,0.665,39,[],[],"[(1203, 889)]",[],[1],[74],[1.2333333333333334],"[640.0, 512.0]",vertical,"(890.0, 262.0)",[1.0333333333333332],[0.557],1,2611.326
9,False,529,0.885,53,[],[],"[(1203, 905)]",[],[1],[87],[1.45],"[640.0, 512.0]",horizontal,"(890.0, 762.0)",[0.9],[0.543],1,2615.122
9,False,530,0.798,47,[],[],"[(1197, 902)]",[],[1],[80],[1.3333333333333333],"[640.0, 512.0]",vertical,"(890.0, 262.0)",[1.2666666666666666],[0.524],1,2619.064
9,False,531,1.032,61,[],[],"[(1158, 894)]",[],[1],[94],[1.5666666666666667],"[640.0, 512.0]",vertical,"(890.0, 762.0)",[1.3],[0.531],1,2623.184
9,False,532,1.129,67,[],[],"[(1197, 897)]",[],[1],[101],[1.6833333333333333],"[640.0, 512.0]",horizontal,"(390.0, 762.0)",[1.2666666666666666],[0.541],1,2627.707
9,False,533,1.365,81,[],[],"[(1203, 897)]",[],[1],[113],[1.8833333333333333],"[640.0, 512.0]",vertical,"(390.0, 262.0)",[1.2333333333333334],[0.507],1,2632.162
9,False,534,0.967,58,[],[],"[(1203, 891)]",[],[1],[91],[1.5166666666666666],"[640.0, 512.0]",horizontal,"(390.0, 262.0)",[0.7],[0.53],1,2636.771
9,False,535,0.637,38,[],[],"[(1177, 880)]",[],[1],[88],[1.4666666666666666],"[640.0, 512.0]",vertical,"(890.0, 262.0)",[1.3666666666666667],[0.805],0,2640.877
9,False,536,0.683,40,[],[],"[(1172, 888)]",[],[1],[72],[1.2],"[640.0, 512.0]",horizontal,"(890.0, 262.0)",[0.5666666666666667],[0.505],1,2645.208
9,False,537,0.328,19,[],[],"[(1197, 884)]",[],[1],[51],[0.85],"[640.0, 512.0]",vertical,"(890.0, 762.0)",[1.5666666666666667],[0.506],1,2649.023
9,False,538,1.188,71,[],[],"[(1203, 872)]",[],[1],[103],[1.7166666666666666],"[640.0, 512.0]",vertical,"(390.0, 762.0)",[1.55],[0.513],1,2653.012
9,False,539,1.359,81,[],[],"[(1190, 869)]",[],[1],[115],[1.9166666666666667],"[640.0, 512.0]",vertical,"(390.0, 762.0)",[1.4833333333333334],[0.541],1,2657.81
9,False,540,0.51,30,[],[],"[(1197, 877)]",[],[1],[74],[1.2333333333333334],"[640.0, 512.0]",vertical,"(890.0, 262.0)",[0.55],[0.704],1,2662.738
10,False,541,0.731,43,[],[],"[(1203, 872)]",[],[1],[76],[1.2666666666666666],"[640.0, 512.0]",horizontal,"(890.0, 762.0)",[0.8666666666666667],[0.532],1,2666.127
10,False,542,0.461,27,[],[],"[(1203, 898)]",[],[1],[73],[1.2166666666666666],"[640.0, 512.0]",horizontal,"(390.0, 262.0)",[1.4],[0.74],1,2669.759
10,False,543,0.548,32,[],[],"[(1197, 901)]",[],[1],[74],[1.2333333333333334],"[640.0, 512.0]",horizontal,"(890.0, 762.0)",[0.9333333333333333],[0.669],1,2673.873
10,False,544,1.282,76,[],[],"[(1197, 889)]",[],[1],[116],[1.9333333333333333],"[640.0, 512.0]",vertical,"(390.0, 262.0)",[1.1],[0.64],1,2677.591
10,False,545,0.307,18,[],[],"[(1203, 872)]",[],[1],[54],[0.9],"[640.0, 512.0]",vertical,"(890.0, 762.0)",[0.7166666666666667],[0.577],1,2682.162
10,False,546,0.479,28,[],[],"[(1197, 898)]",[],[1],[73],[1.2166666666666666],"[640.0, 512.0]",vertical,"(390.0, 262.0)",[0.8333333333333334],[0.722],1,2685.326
10,False,547,1.014,60,[],[],"[(1203, 893)]",[],[1],[97],[1.6166666666666667],"[640.0, 512.0]",vertical,"(390.0, 762.0)",[0.5],[0.596],1,2689.229
10,False,548,0.696,41,[],[],"[(1163, 872)]",[],[1],[75],[1.25],"[640.0, 512.0]",horizontal,"(390.0, 762.0)",[0.6],[0.541],1,2692.856
10,False,549,1.269,76,[],[],"[(1178, 856)]",[],[1],[106],[1.7666666666666666],"[640.0, 512.0]",vertical,"(890.0, 262.0)",[1.3],[0.483],1,2697.187
10,False,550,0.933,55,[],[],"[(1197, 884)]",[],[1],[88],[1.4666666666666666],"[640.0, 512.0]",vertical,"(890.0, 762.0)",[1.2333333333333334],[0.524],1,2701.912
10,False,551,0.323,19,[],[],"[(1184, 888)]",[],[1],[56],[0.9333333333333333],"[640.0, 512.0]",vertical,"(390.0, 762.0)",[1.5333333333333332],[0.593],1,2706.124
10,False,552,1.091,65,[],[],"[(1180, 894)]",[],[1],[113],[1.8833333333333333],"[640.0, 512.0]",vertical,"(890.0, 262.0)",[1.0166666666666666],[0.766],1,2710.108
10,False,553,1.146,68,[],[],"[(1173, 889)]",[],[1],[99],[1.65],"[640.0, 512.0]",vertical,"(390.0, 262.0)",[1.05],[0.488],1,2714.477
10,False,554,1.231,73,[],[],"[(1203, 876)]",[],[1],[97],[1.6166666666666667],"[640.0, 512.0]",horizontal,"(890.0, 262.0)",[1.6166666666666667],[0.378],1,2718.725
10,False,555,1.486,89,[],[],"[(1168, 889)]",[],[1],[],[],"[640.0, 512.0]",vertical,"(890.0, 762.0)",[],[0],0,2726.776
10,False,556,1.343,80,[],[],"[(1179, 902)]",[],[1],[],[],"[640.0, 512.0]",horizontal,"(890.0, 762.0)",[],[0],0,2742.409
10,False,557,0.812,48,[],[],"[(1185, 866)]",[],[1],[65],[1.0833333333333333],"[640.0, 512.0]",vertical,"(890.0, 762.0)",[1.3666666666666667],[0.266],1,2745.955
10,False,558,0.931,55,[],[],"[(1180, 867)]",[],[1],[84],[1.4],"[640.0, 512.0]",vertical,"(390.0, 762.0)",[1.6666666666666667],[0.465],1,2750.27
10,False,559,0.512,30,[],[],"[(1190, 875)]",[],[1],[65],[1.0833333333333333],"[640.0, 512.0]",vertical,"(890.0, 762.0)",[1.3833333333333333],[0.559],1,2754.844
10,False,560,1.416,84,[],[],"[(1203, 893)]",[],[1],[],[],"[640.0, 512.0]",vertical,"(890.0, 762.0)",[],[0],0,2758.845
10,False,561,0.731,43,[],[],"[(1197, 894)]",[],[1],[80],[1.3333333333333333],"[640.0, 512.0]",horizontal,"(890.0, 762.0)",[0.55],[0.589],1,2762.295
10,False,562,0.373,22,[],[],"[(1195, 898)]",[],[1],[59],[0.9833333333333333],"[640.0, 512.0]",horizontal,"(890.0, 762.0)",[1.4833333333333334],[0.594],1,2765.746
10,False,563,1.232,73,[],[],"[(1197, 880)]",[],[1],[106],[1.7666666666666666],"[640.0, 512.0]",vertical,"(890.0, 762.0)",[0.8166666666666667],[0.528],1,2769.712
10,False,564,0.315,18,[],[],"[(1179, 879)]",[],[1],[53],[0.8833333333333333],"[640.0, 512.0]",horizontal,"(890.0, 262.0)",[0.9],[0.558],1,2773.807
10,False,565,1.477,88,[],[],"[(1197, 892)]",[],[1],[119],[1.9833333333333334],"[640.0, 512.0]",vertical,"(390.0, 762.0)",[1.6333333333333333],[0.5],1,2777.126
10,False,566,0.834,50,[],[],"[(1179, 877)]",[],[1],[88],[1.4666666666666666],"[640.0, 512.0]",vertical,"(390.0, 762.0)",[0.65],[0.605],1,2782.242
10,False,567,1.239,74,[],[],"[(1176, 909)]",[],[1],[109],[1.8166666666666667],"[640.0, 512.0]",horizontal,"(390.0, 262.0)",[0.6333333333333333],[0.557],1,2785.938
10,False,568,0.755,45,[],[],"[(1196, 893)]",[],[1],[77],[1.2833333333333332],"[640.0, 512.0]",horizontal,"(890.0, 262.0)",[1.3],[0.515],1,2789.971
10,False,569,0.964,57,[],[],"[(1198, 907)]",[],[1],[93],[1.55],"[640.0, 512.0]",vertical,"(390.0, 262.0)",[0.9833333333333333],[0.569],1,2794.216
10,False,570,0.703,42,[],[],"[(1196, 871)]",[],[1],[92],[1.5333333333333332],"[640.0, 512.0]",vertical,"(390.0, 262.0)",[0.7166666666666667],[0.795],0,2798.366
10,False,571,1.467,88,[],[],"[(1197, 850)]",[],[1],[119],[1.9833333333333334],"[640.0, 512.0]",horizontal,"(390.0, 762.0)",[1.6666666666666667],[0.487],1,2802.189
10,False,572,1.382,82,[],[],"[(1198, 895)]",[],[1],[108],[1.8],"[640.0, 512.0]",horizontal,"(890.0, 762.0)",[1.15],[0.411],1,2808.811
10,False,573,0.785,47,[],[],"[(1197, 880)]",[],[1],[89],[1.4833333333333334],"[640.0, 512.0]",vertical,"(390.0, 762.0)",[0.5333333333333333],[0.673],1,2813.273
10,False,574,1.071,64,[],[],"[(1203, 874)]",[],[1],[99],[1.65],"[640.0, 512.0]",vertical,"(390.0, 262.0)",[1.1],[0.558],1,2816.81
10,False,575,0.527,31,[],[],"[(1197, 895)]",[],[1],[72],[1.2],"[640.0, 512.0]",vertical,"(390.0, 762.0)",[0.5166666666666666],[0.654],1,2821.054
10,False,576,0.379,22,[],[],"[(1195, 901)]",[],[1],[55],[0.9166666666666666],"[640.0, 512.0]",vertical,"(390.0, 262.0)",[1.3333333333333333],[0.526],1,2824.278
10,False,577,1.449,86,[],[],"[(1203, 870)]",[],[1],[125],[2.0833333333333335],"[640.0, 512.0]",horizontal,"(890.0, 762.0)",[1.6833333333333333],[0.622],1,2828.04
10,False,578,0.47,28,[],[],"[(1191, 896)]",[],[1],[66],[1.1],"[640.0, 512.0]",vertical,"(890.0, 262.0)",[1.1333333333333333],[0.603],1,2833.297
10,False,579,0.678,40,[],[],"[(1206, 889)]",[],[1],[74],[1.2333333333333334],"[640.0, 512.0]",horizontal,"(890.0, 262.0)",[1.35],[0.541],1,2837.064
10,False,580,0.978,58,[],[],"[(1203, 875)]",[],[1],[97],[1.6166666666666667],"[640.0, 512.0]",horizontal,"(390.0, 762.0)",[0.5166666666666666],[0.617],1,2841.178
10,False,581,0.886,53,[],[],"[(1195, 909)]",[],[1],[87],[1.45],"[640.0, 512.0]",horizontal,"(390.0, 762.0)",[1.35],[0.536],1,2844.806
10,False,582,1.012,60,[],[],"[(1185, 882)]",[],[1],[95],[1.5833333333333333],"[640.0, 512.0]",vertical,"(890.0, 762.0)",[0.7833333333333333],[0.556],1,2849.104
10,False,583,0.968,58,[],[],"[(1203, 902)]",[],[1],[96],[1.6],"[640.0, 512.0]",vertical,"(390.0, 762.0)",[0.8],[0.604],1,2852.995
10,False,584,0.677,40,[],[],"[(1196, 885)]",[],[1],[71],[1.1833333333333333],"[640.0, 512.0]",vertical,"(890.0, 262.0)",[1.0166666666666666],[0.494],1,2856.86
10,False,585,0.471,28,[],[],"[(1203, 897)]",[],[1],[62],[1.0333333333333332],"[640.0, 512.0]",horizontal,"(390.0, 262.0)",[1.2166666666666666],[0.539],1,2860.636
10,False,586,0.72,43,[],[],"[(1170, 872)]",[],[1],[79],[1.3166666666666667],"[640.0, 512.0]",vertical,"(390.0, 262.0)",[0.6166666666666667],[0.573],1,2864.376
10,False,587,1.015,60,[],[],"[(1148, 894)]",[],[1],[89],[1.4833333333333334],"[640.0, 512.0]",vertical,"(890.0, 262.0)",[1.5333333333333332],[0.463],1,2867.878
10,False,588,0.408,24,[],[],"[(1203, 891)]",[],[1],[74],[1.2333333333333334],"[640.0, 512.0]",horizontal,"(390.0, 262.0)",[1.0],[0.812],0,2872.436
10,False,589,1.451,87,[],[],"[(1184, 893)]",[],[1],[117],[1.95],"[640.0, 512.0]",vertical,"(890.0, 262.0)",[1.6833333333333333],[0.473],1,2876.208
10,False,590,1.282,76,[],[],"[(1148, 900)]",[],[1],[106],[1.7666666666666666],"[640.0, 512.0]",horizontal,"(390.0, 262.0)",[0.55],[0.48],1,2883.0
10,False,591,0.789,47,[],[],"[(1161, 899)]",[],[1],[80],[1.3333333333333333],"[640.0, 512.0]",horizontal,"(390.0, 762.0)",[1.3666666666666667],[0.524],1,2889.188
10,False,592,0.658,39,[],[],"[(1173, 889)]",[],[1],[69],[1.15],"[640.0, 512.0]",horizontal,"(890.0, 262.0)",[0.95],[0.479],1,2893.463
10,False,593,0.945,56,[],[],"[(1173, 874)]",[],[1],[88],[1.4666666666666666],"[640.0, 512.0]",horizontal,"(390.0, 762.0)",[0.9833333333333333],[0.506],1,2897.111
10,False,594,0.397,23,[],[],"[(1203, 874)]",[],[1],[56],[0.9333333333333333],"[640.0, 512.0]",vertical,"(390.0, 262.0)",[1.5166666666666666],[0.538],1,2901.062
10,False,595,1.341,80,[],[],"[(1206, 875)]",[],[1],[119],[1.9833333333333334],"[640.0, 512.0]",horizontal,"(390.0, 762.0)",[0.5166666666666666],[0.618],1,2905.055
10,False,596,1.009,60,[],[],"[(1203, 888)]",[],[1],[96],[1.6],"[640.0, 512.0]",vertical,"(390.0, 262.0)",[1.1],[0.575],1,2909.063
10,False,597,0.58,34,[],[],"[(1180, 866)]",[],[1],[67],[1.1166666666666667],"[640.0, 512.0]",horizontal,"(390.0, 262.0)",[1.3],[0.526],1,2913.278
10,False,598,1.488,89,[],[],"[(1198, 872)]",[],[1],[130],[2.1666666666666665],"[640.0, 512.0]",horizontal,"(390.0, 262.0)",[1.5],[0.654],1,2917.283
10,False,599,0.398,23,[],[],"[(1203, 871)]",[],[1],[67],[1.1166666666666667],"[640.0, 512.0]",horizontal,"(890.0, 762.0)",[1.6833333333333333],[0.706],1,2922.468
10,False,600,0.928,55,[],[],"[(1203, 899)]",[],[1],[76],[1.2666666666666666],"[640.0, 512.0]",horizontal,"(890.0, 262.0)",[1.3833333333333333],[0.331],1,2926.808
11,False,601,1.35,81,[],[],"[(1204, 882)]",[],[1],[112],[1.8666666666666667],"[640.0, 512.0]",horizontal,"(390.0, 262.0)",[1.5833333333333333],[0.504],1,2931.045
11,False,602,0.824,49,[],[],"[(1173, 899)]",[],[1],[84],[1.4],"[640.0, 512.0]",horizontal,"(390.0, 762.0)",[0.6333333333333333],[0.555],1,2936.039
11,False,603,1.39,83,[],[],"[(1173, 873)]",[],[1],[120],[2.0],"[640.0, 512.0]",vertical,"(390.0, 762.0)",[1.4833333333333334],[0.593],1,2939.695
11,False,604,0.482,28,[],[],"[(1170, 891)]",[],[1],[72],[1.2],"[640.0, 512.0]",horizontal,"(890.0, 262.0)",[1.2666666666666666],[0.707],1,2944.816
11,False,605,0.973,58,[],[],"[(1199, 894)]",[],[1],[89],[1.4833333333333334],"[640.0, 512.0]",vertical,"(890.0, 762.0)",[1.05],[0.491],1,2948.892
11,False,606,1.497,89,[],[],"[(1175, 870)]",[],[1],[122],[2.033333333333333],"[640.0, 512.0]",vertical,"(390.0, 762.0)",[0.6833333333333333],[0.529],1,2980.919
11,False,607,0.723,43,[],[],"[(1198, 885)]",[],[1],[81],[1.35],"[640.0, 512.0]",vertical,"(890.0, 262.0)",[0.5833333333333334],[0.604],1,2985.179
11,False,608,1.052,63,[],[],"[(1203, 856)]",[],[1],[99],[1.65],"[640.0, 512.0]",vertical,"(390.0, 762.0)",[0.8333333333333334],[0.582],1,2988.641
11,False,609,0.698,41,[],[],"[(1182, 879)]",[],[1],[71],[1.1833333333333333],"[640.0, 512.0]",horizontal,"(890.0, 262.0)",[1.3333333333333333],[0.471],1,2992.626
11,False,610,0.913,54,[],[],"[(1173, 860)]",[],[1],[83],[1.3833333333333333],"[640.0, 512.0]",horizontal,"(390.0, 262.0)",[1.6166666666666667],[0.462],1,2996.812
11,False,611,0.472,28,[],[],"[(1203, 875)]",[],[1],[59],[0.9833333333333333],"[640.0, 512.0]",vertical,"(390.0, 262.0)",[1.4666666666666666],[0.492],1,3003.126
11,False,612,0.89,53,[],[],"[(1173, 889)]",[],[1],[85],[1.4166666666666667],"[640.0, 512.0]",vertical,"(390.0, 262.0)",[0.8666666666666667],[0.506],1,3007.142
11,False,613,1.42,85,[],[],"[(1203, 868)]",[],[1],[119],[1.9833333333333334],"[640.0, 512.0]",horizontal,"(890.0, 762.0)",[0.5333333333333333],[0.539],1,3011.441
11,False,614,0.591,35,[],[],"[(1203, 891)]",[],[1],[67],[1.1166666666666667],"[640.0, 512.0]",vertical,"(390.0, 262.0)",[1.1833333333333333],[0.509],1,3015.829
11,False,615,0.301,18,[],[],"[(1197, 885)]",[],[1],[65],[1.0833333333333333],"[640.0, 512.0]",vertical,"(890.0, 262.0)",[0.95],[0.755],1,3020.019
11,False,616,1.165,69,[],[],"[(1179, 882)]",[],[1],[106],[1.7666666666666666],"[640.0, 512.0]",vertical,"(890.0, 762.0)",[0.8666666666666667],[0.59],1,3023.646
11,False,617,1.207,72,[],[],"[(1173, 912)]",[],[1],[99],[1.65],"[640.0, 512.0]",vertical,"(390.0, 262.0)",[1.35],[0.426],1,3027.946
11,False,618,1.295,77,[],[],"[(1195, 894)]",[],[1],[109],[1.8166666666666667],"[640.0, 512.0]",vertical,"(390.0, 762.0)",[0.7166666666666667],[0.511],1,3032.762
11,False,619,0.989,59,[],[],"[(1191, 899)]",[],[1],[89],[1.4833333333333334],"[640.0, 512.0]",vertical,"(390.0, 262.0)",[1.5333333333333332],[0.477],1,3036.894
11,False,620,0.516,30,[],[],"[(1203, 875)]",[],[1],[49],[0.8166666666666667],"[640.0, 512.0]",horizontal,"(890.0, 262.0)",[0.8166666666666667],[0.295],1,3041.458
11,False,621,1.177,70,[],[],"[(1168, 894)]",[],[1],[101],[1.6833333333333333],"[640.0, 512.0]",vertical,"(390.0, 262.0)",[0.8],[0.496],1,3044.78
11,False,622,1.426,85,[],[],"[(1203, 893)]",[],[1],[],[],"[640.0, 512.0]",vertical,"(890.0, 262.0)",[],[0],0,3048.928
11,False,623,0.689,41,[],[],"[(1203, 888)]",[],[1],[47],[0.7833333333333333],"[640.0, 512.0]",horizontal,"(890.0, 262.0)",[1.3666666666666667],[0.085],1,3052.737
11,False,624,0.488,29,[],[],"[(1203, 869)]",[],[1],[61],[1.0166666666666666],"[640.0, 512.0]",horizontal,"(890.0, 762.0)",[0.6],[0.504],1,3056.459
11,False,625,0.358,21,[],[],"[(1175, 897)]",[],[1],[54],[0.9],"[640.0, 512.0]",vertical,"(890.0, 762.0)",[0.5333333333333333],[0.526],1,3059.779
11,False,626,0.384,23,[],[],"[(1204, 892)]",[],[1],[62],[1.0333333333333332],"[640.0, 512.0]",horizontal,"(390.0, 262.0)",[0.8666666666666667],[0.624],1,3062.807
11,False,627,0.802,48,[],[],"[(1153, 894)]",[],[1],[81],[1.35],"[640.0, 512.0]",vertical,"(890.0, 762.0)",[1.4666666666666666],[0.526],1,3066.173
11,False,628,1.393,83,[],[],"[(1174, 874)]",[],[1],[],[],"[640.0, 512.0]",vertical,"(390.0, 762.0)",[],[0],0,3070.543
11,False,629,1.035,62,[],[],"[(1197, 891)]",[],[1],[95],[1.5833333333333333],"[640.0, 512.0]",vertical,"(390.0, 762.0)",[1.0333333333333332],[0.522],1,3073.964
11,False,630,1.145,68,[],[],"[(1197, 875)]",[],[1],[],[],"[640.0, 512.0]",horizontal,"(890.0, 262.0)",[],[0],0,3078.113
11,False,631,0.56,33,[],[],"[(1196, 897)]",[],[1],[62],[1.0333333333333332],"[640.0, 512.0]",horizontal,"(390.0, 262.0)",[1.0166666666666666],[0.458],1,3081.441
11,False,632,0.693,41,[],[],"[(1191, 897)]",[],[1],[61],[1.0166666666666666],"[640.0, 512.0]",horizontal,"(390.0, 262.0)",[1.2833333333333332],[0.318],1,3085.262
11,False,633,1.371,82,[],[],"[(1186, 883)]",[],[1],[],[],"[640.0, 512.0]",vertical,"(890.0, 762.0)",[],[0],0,3089.043
11,False,634,0.834,50,[],[],"[(1203, 905)]",[],[1],[],[],"[640.0, 512.0]",horizontal,"(390.0, 762.0)",[],[0],0,3093.563
11,False,635,0.886,53,[],[],"[(1245, 858), (1200, 870)]",[],"[0, 1]",[91],[1.5166666666666666],"[640.0, 512.0]",vertical,"(890.0, 762.0)",[1.3666666666666667],[0.605],1,3101.044
11,False,636,1.158,69,[],[],"[(1191, 872)]",[],[1],[108],[1.8],"[640.0, 512.0]",horizontal,"(890.0, 762.0)",[1.3833333333333333],[0.623],1,3106.62
11,False,637,0.32,19,[],[],"[(1196, 884)]",[],[1],[50],[0.8333333333333334],"[640.0, 512.0]",horizontal,"(890.0, 762.0)",[1.5833333333333333],[0.491],1,3113.147
11,False,638,1.194,71,[],[],"[(1252, 875), (1203, 871)]",[],"[0, 1]",[100],[1.6666666666666667],"[640.0, 512.0]",horizontal,"(390.0, 262.0)",[0.9333333333333333],[0.464],1,3117.093
11,False,639,0.922,55,[],[],"[(1196, 881)]",[],[1],[95],[1.5833333333333333],"[640.0, 512.0]",vertical,"(390.0, 762.0)",[0.9666666666666667],[0.639],1,3122.156
11,False,640,1.488,89,[],[],"[(1203, 889)]",[],[1],[124],[2.0666666666666664],"[640.0, 512.0]",vertical,"(890.0, 762.0)",[1.1666666666666667],[0.554],1,3126.26
11,False,641,0.355,21,[],[],"[(1203, 889)]",[],[1],[56],[0.9333333333333333],"[640.0, 512.0]",horizontal,"(890.0, 762.0)",[1.45],[0.554],1,3131.074
11,False,642,1.385,83,[],[],"[(1201, 897)]",[],[1],[120],[2.0],"[640.0, 512.0]",vertical,"(390.0, 762.0)",[1.0833333333333333],[0.585],1,3134.973
11,False,643,0.347,20,[],[],"[(1190, 870)]",[],[1],[54],[0.9],"[640.0, 512.0]",horizontal,"(890.0, 762.0)",[1.35],[0.547],1,3139.521
11,False,644,1.429,85,[],[],"[(1210, 862)]",[],[1],[120],[2.0],"[640.0, 512.0]",vertical,"(890.0, 762.0)",[0.5],[0.554],1,3143.343
11,False,645,0.847,50,[],[],"[(1203, 873)]",[],[1],[100],[1.6666666666666667],"[640.0, 512.0]",vertical,"(890.0, 262.0)",[1.3666666666666667],[0.799],0,3147.33
11,False,646,0.869,52,[],[],"[(1170, 871)]",[],[1],[85],[1.4166666666666667],"[640.0, 512.0]",horizontal,"(890.0, 762.0)",[0.85],[0.528],1,3151.862
11,False,647,1.362,81,[],[],"[(1176, 899)]",[],[1],[115],[1.9166666666666667],"[640.0, 512.0]",vertical,"(390.0, 762.0)",[1.4],[0.543],1,3156.923
11,False,648,1.104,66,[],[],"[(1180, 892)]",[],[1],[99],[1.65],"[640.0, 512.0]",horizontal,"(390.0, 762.0)",[1.15],[0.523],1,3161.749
11,False,649,1.484,89,[],[],"[(1241, 875), (1241, 892), (1174, 894)]",[],"[0, 0, 1]",[115],[1.9166666666666667],"[640.0, 512.0]",horizontal,"(890.0, 262.0)",[1.0166666666666666],[0.408],1,3166.055
11,False,650,0.545,32,[],[],"[(1200, 894)]",[],[1],[82],[1.3666666666666667],"[640.0, 512.0]",horizontal,"(890.0, 262.0)",[0.55],[0.811],0,3174.056
11,False,651,0.399,23,[],[],"[(1203, 896)]",[],[1],[55],[0.9166666666666666],"[640.0, 512.0]",horizontal,"(890.0, 762.0)",[1.4],[0.506],1,3177.564
11,False,652,1.142,68,[],[],"[(1173, 885)]",[],[1],[100],[1.6666666666666667],"[640.0, 512.0]",vertical,"(390.0, 262.0)",[0.5166666666666666],[0.507],1,3187.559
11,False,653,1.253,75,[],[],"[(1173, 900)]",[],[1],[],[],"[640.0, 512.0]",horizontal,"(390.0, 762.0)",[],[0],0,3191.305
11,False,654,0.526,31,[],[],"[(1179, 894)]",[],[1],[63],[1.05],"[640.0, 512.0]",vertical,"(390.0, 762.0)",[1.5666666666666667],[0.514],1,3194.736
11,False,655,1.325,79,[],[],"[(1203, 891)]",[],[1],[],[],"[640.0, 512.0]",horizontal,"(890.0, 762.0)",[],[0],0,3198.903
11,False,656,1.399,83,[],[],"[(1206, 867)]",[],[1],[123],[2.05],"[640.0, 512.0]",vertical,"(890.0, 762.0)",[1.0166666666666666],[0.639],1,3202.397
11,False,657,1.031,61,[],[],"[(1203, 886)]",[],[1],[90],[1.5],"[640.0, 512.0]",vertical,"(390.0, 262.0)",[1.55],[0.458],1,3206.933
11,False,658,0.387,23,[],[],"[(1190, 893)]",[],[1],[55],[0.9166666666666666],"[640.0, 512.0]",horizontal,"(890.0, 262.0)",[0.7333333333333333],[0.51],1,3211.487
11,False,659,1.406,84,[],[],"[(1197, 893)]",[],[1],[112],[1.8666666666666667],"[640.0, 512.0]",vertical,"(890.0, 262.0)",[0.6833333333333333],[0.443],1,3214.66
11,False,660,0.617,37,[],[],"[(1190, 891)]",[],[1],[72],[1.2],"[640.0, 512.0]",vertical,"(390.0, 762.0)",[1.4833333333333334],[0.554],1,3218.73
12,False,661,0.646,38,[],[],"[(1203, 871)]",[],[1],[70],[1.1666666666666667],"[640.0, 512.0]",horizontal,"(390.0, 262.0)",[1.0833333333333333],[0.507],1,3223.046
12,False,662,0.33,19,[],[],"[(1201, 889)]",[],[1],[61],[1.0166666666666666],"[640.0, 512.0]",horizontal,"(890.0, 262.0)",[1.2333333333333334],[0.669],1,3226.837
