block,trial,trial_type,taps_start_loc_during_fix,taps_end_loc_during_fix,taps_on_lever_during_fix,taps_on_lever_s_during_fix,bar_orientation,target_xy,cti,rt,acc,time,pulses
0,1,target,"[(1051, 835)]",[],[1],[0.5666666666666667],horizontal,"(390.0, 762.0)",1.1166666666666667,0.529,1,0.394,1
0,2,catch,"[(1055, 791)]",[],[1],[],vertical,"(390.0, 262.0)",,"('cti', 1.051),nan",0,1641.121,0
0,3,catch,"[(1069, 806)]",[],[1],[],horizontal,"(390.0, 262.0)",1.2666666666666666,nan,1,1645.556,1
0,4,target,"[(1051, 800)]",[],[1],[0.5],horizontal,"(890.0, 762.0)",1.2166666666666666,0.457,1,1652.585,1
0,5,target,"[(1050, 787)]",[],[1],[0.6666666666666666],horizontal,"(890.0, 762.0)",1.2333333333333334,0.625,1,1657.603,1
0,6,target,"[(1071, 810)]",[],[1],[0.6166666666666667],horizontal,"(890.0, 262.0)",0.7833333333333333,0.569,1,1662.484,2
0,7,target,"[(1059, 809)]",[],[1],[0.26666666666666666],vertical,"(390.0, 262.0)",0.6833333333333333,0.233,1,1667.786,2
0,8,target,"[(1058, 800)]",[],[1],[0.5166666666666666],vertical,"(890.0, 762.0)",1.3,0.473,1,1675.759,2
0,9,target,"[(1061, 795)]",[],[1],[0.3333333333333333],horizontal,"(390.0, 262.0)",0.85,0.299,1,1681.439,2
0,10,catch,"[(1066, 805)]",[],[1],[],horizontal,"(390.0, 762.0)",,"('fix', 0.351),nan",0,1686.217,0
0,11,target,"[(1047, 828)]",[],[1],[0.85],horizontal,"(890.0, 262.0)",1.0333333333333332,nan,0,1688.188,0
0,12,target,"[(1071, 816)]",[],[1],[0.85],vertical,"(390.0, 262.0)",1.0,nan,0,3547.062,0
0,13,target,"[(1064, 833)]",[],[1],[0.85],horizontal,"(390.0, 762.0)",0.5166666666666666,nan,0,3552.675,0
0,14,target,"[(1090, 806)]",[],[1],[0.36666666666666664],horizontal,"(390.0, 262.0)",1.1333333333333333,0.33,1,3557.019,1
0,15,target,"[(1095, 842)]",[],[1],[0.85],vertical,"(890.0, 262.0)",0.9333333333333333,nan,0,3562.284,0
0,16,target,"[(1069, 837)]",[],[1],[0.31666666666666665],horizontal,"(390.0, 262.0)",1.5,0.285,1,3566.935,1
0,17,target,"[(1103, 816)]",[],[1],[0.6],horizontal,"(390.0, 262.0)",0.55,0.559,1,3572.713,1
0,18,target,"[(1095, 816)]",[],[1],[0.7333333333333333],vertical,"(390.0, 762.0)",0.65,0.685,1,3577.649,1
0,19,target,"[(1070, 804)]",[],[1],[],horizontal,"(890.0, 262.0)",,"('cti', 1.137)",0,3582.634,0
0,20,target,"[(1048, 786)]",[],[1],[0.6833333333333333],vertical,"(890.0, 762.0)",0.7,0.639,1,3587.367,1
0,21,target,"[(1072, 780)]",[],[1],[0.6166666666666667],horizontal,"(390.0, 262.0)",0.7166666666666667,0.578,1,3592.49,1
0,22,target,"[(1082, 796)]",[],[1],[],vertical,"(890.0, 262.0)",,"('cti', 1.29)",0,3596.934,0
0,23,catch,"[(1104, 811)]",[],[1],[],horizontal,"(390.0, 262.0)",1.5,nan,1,3601.534,1
0,24,target,"[(1035, 809)]",[],[1],[0.85],vertical,"(390.0, 762.0)",0.55,nan,0,3606.181,0
0,25,catch,"[(1099, 798)]",[],[1],[],vertical,"(390.0, 262.0)",,"('cti', 1.364),nan",0,3610.601,0
0,26,target,"[(1109, 813)]",[],[1],[0.5666666666666667],vertical,"(390.0, 262.0)",0.6166666666666667,0.524,1,3615.118,1
0,27,target,"[(1080, 809)]",[],[1],[0.08333333333333333],horizontal,"(890.0, 262.0)",1.5166666666666666,0.05,0,3619.385,0
0,28,target,"[(1109, 812)]",[],[1],[0.5],horizontal,"(390.0, 262.0)",1.5,0.461,1,3623.934,1
0,29,target,"[(1083, 807)]",[],[1],[0.1],horizontal,"(390.0, 262.0)",1.3166666666666667,0.065,0,3629.012,0
0,30,target,"[(1090, 808)]",[],[1],[0.5833333333333334],vertical,"(890.0, 262.0)",0.6166666666666667,0.547,1,3633.985,1
0,31,catch,"[(1085, 794)]",[],[1],[],vertical,"(390.0, 262.0)",1.6,nan,1,3638.367,1
0,32,target,"[(1085, 806)]",[],[1],[0.26666666666666666],horizontal,"(390.0, 762.0)",1.4,0.23,1,3643.701,1
0,33,target,"[(1102, 809)]",[],[1],[0.5833333333333334],vertical,"(390.0, 762.0)",0.5166666666666666,0.546,1,3649.024,2
0,34,target,"[(1085, 785)]",[],[1],[0.85],vertical,"(390.0, 762.0)",1.05,nan,0,3654.35,0
0,35,target,"[(1089, 806)]",[],[1],[0.6333333333333333],vertical,"(890.0, 262.0)",0.7333333333333333,0.597,1,3659.081,1
0,36,target,"[(1100, 783)]",[],[1],[0.5666666666666667],vertical,"(390.0, 262.0)",0.65,0.524,1,3664.039,1
0,37,target,"[(1064, 790)]",[],[1],[0.26666666666666666],vertical,"(890.0, 262.0)",0.9166666666666666,0.231,1,3668.564,1
0,38,target,"[(1098, 790)]",[],[1],[0.15],vertical,"(390.0, 262.0)",1.55,0.118,0,3673.113,0
0,39,catch,"[(1089, 792)]",[],[1],[],vertical,"(390.0, 762.0)",1.45,nan,1,3677.551,1
0,40,target,"[(1064, 787)]",[],[1],[0.5666666666666667],horizontal,"(890.0, 262.0)",0.7,0.525,1,3682.534,1
0,41,target,"[(1086, 798)]",[],[1],[0.6833333333333333],horizontal,"(890.0, 262.0)",0.9,0.637,1,3687.343,1
0,42,target,"[(1085, 813)]",[],[1],[0.5166666666666666],vertical,"(390.0, 262.0)",1.2166666666666666,0.476,1,3692.651,2
0,43,target,"[(1090, 798)]",[],[1],[0.5833333333333334],vertical,"(890.0, 762.0)",0.8833333333333333,0.541,1,3698.194,2
0,44,target,"[(1090, 787)]",[],[1],[0.2833333333333333],horizontal,"(890.0, 762.0)",0.9333333333333333,0.246,1,3703.404,2
0,45,target,"[(1104, 802)]",[],[1],[0.6666666666666666],horizontal,"(890.0, 762.0)",0.9666666666666667,0.621,1,3708.435,2
0,46,target,"[(1090, 783)]",[],[1],[0.55],vertical,"(390.0, 262.0)",0.6666666666666666,0.51,1,3713.536,2
0,47,target,"[(1094, 812)]",[],[1],[0.1],horizontal,"(890.0, 762.0)",1.6166666666666667,0.065,0,3718.186,0
0,48,target,"[(198, 791), (188, 968), (416, 712), (1049, 806)]",[],"[0, 0, 0, 1]",[0.55],vertical,"(890.0, 262.0)",1.3666666666666667,0.507,1,3723.244,1
0,49,target,"[(1090, 791)]",[],[1],[],vertical,"(390.0, 762.0)",,"('cti', 1.353)",0,4652.696,0
0,50,target,"[(1097, 811)]",[],[1],[0.85],vertical,"(890.0, 762.0)",0.5666666666666667,nan,0,4657.542,0
0,51,target,"[(1102, 805)]",[],[1],[0.55],horizontal,"(890.0, 262.0)",0.7166666666666667,0.51,1,4662.163,1
0,52,target,"[(1060, 791)]",[],[1],[],horizontal,"(890.0, 262.0)",,"('cti', 1.539)",0,4667.093,0
0,53,target,"[(1059, 800)]",[],[1],[0.6333333333333333],vertical,"(390.0, 762.0)",0.9333333333333333,0.596,1,4672.242,1
0,54,target,"[(1072, 811)]",[],[1],[0.5166666666666666],horizontal,"(890.0, 762.0)",0.7,0.481,1,4680.209,1
0,55,target,"[(1080, 807)]",[],[1],[0.5],vertical,"(390.0, 262.0)",1.6166666666666667,0.457,1,4685.342,1
0,56,target,"[(1056, 785)]",[],[1],[0.85],horizontal,"(890.0, 762.0)",0.7333333333333333,nan,0,4690.771,0
0,57,target,"[(615, 62), (747, 633), (624, 910), (290, 54), (1124, 672), (731, 657), (1119, 301), (1119, 220), (755, 469), (881, 215), (1085, 482), (1065, 232), (1004, 637), (1063, 836)]",[],"[0, 0, 0, 0, 0, 0, 0, 0, 0, 0, 0, 0, 0, 1]",[0.45],vertical,"(890.0, 762.0)",1.7,0.412,1,4695.793,1
0,58,target,"[(1104, 808)]",[],[1],[0.85],horizontal,"(390.0, 762.0)",1.0666666666666667,nan,0,7566.183,0
0,59,target,"[(1110, 799)]",[],[1],[0.6833333333333333],vertical,"(390.0, 762.0)",1.05,0.641,1,7570.732,1
0,60,target,"[(1104, 811)]",[],[1],[0.7333333333333333],horizontal,"(890.0, 762.0)",1.1166666666666667,0.684,1,7575.725,1
0,61,target,"[(1101, 793)]",[],[1],[0.85],horizontal,"(390.0, 762.0)",0.5666666666666667,nan,0,7580.732,0
0,62,catch,"[(1075, 802)]",[],[1],[],horizontal,"(890.0, 762.0)",1.2666666666666666,nan,1,7585.104,1
0,63,target,"[(1088, 796)]",[],[1],[0.4666666666666667],horizontal,"(890.0, 262.0)",1.2166666666666666,0.425,1,7590.565,1
0,64,target,"[(1073, 796)]",[],[1],[0.5333333333333333],horizontal,"(390.0, 762.0)",0.5333333333333333,0.502,1,7595.113,1
0,65,target,"[(1059, 800)]",[],[1],[0.48333333333333334],vertical,"(890.0, 262.0)",1.05,0.443,1,7599.492,2
0,66,target,"[(1085, 782)]",[],[1],[0.35],horizontal,"(890.0, 762.0)",1.45,0.311,1,7605.651,2
0,67,target,"[(1058, 776)]",[],[1],[],vertical,"(890.0, 262.0)",,"('cti', 1.482)",0,7610.867,0
0,68,target,"[(1095, 796)]",[],[1],[0.5166666666666666],vertical,"(890.0, 762.0)",1.0,0.476,1,7615.456,1
0,69,target,"[(1094, 810)]",[],[1],[0.6],vertical,"(890.0, 762.0)",1.05,0.557,1,7619.948,1
0,70,target,"[(1085, 793)]",[],[1],[0.4166666666666667],vertical,"(390.0, 262.0)",1.25,0.383,1,7624.831,1
0,71,target,"[(1102, 812)]",[],[1],[0.05],vertical,"(390.0, 262.0)",1.45,0.019,0,7629.782,0
0,72,target,"[(1085, 813)]",[],[1],[0.5333333333333333],vertical,"(890.0, 262.0)",1.0,0.494,1,7634.583,1
0,73,catch,"[(1071, 810)]",[],[1],[],vertical,"(390.0, 262.0)",,"('cti', 1.611),nan",0,7639.753,0
0,74,target,"[(1107, 790)]",[],[1],[0.48333333333333334],horizontal,"(390.0, 762.0)",1.1166666666666667,0.446,1,7644.183,1
0,75,target,"[(1075, 765)]",[],[1],[0.25],vertical,"(890.0, 262.0)",1.4,0.212,1,7649.177,1
0,76,target,"[(1070, 809)]",[],[1],[0.48333333333333334],vertical,"(390.0, 762.0)",1.0333333333333332,0.444,1,7654.132,1
0,77,target,"[(1062, 786)]",[],[1],[0.4666666666666667],horizontal,"(390.0, 762.0)",1.2333333333333334,0.425,1,7659.233,2
0,78,target,"[(1082, 811)]",[],[1],[0.6],horizontal,"(890.0, 762.0)",1.1333333333333333,0.557,1,7664.635,2
0,79,target,"[(1058, 792)]",[],[1],[0.7],vertical,"(890.0, 762.0)",0.8,0.659,1,7669.867,2
0,80,target,"[(1073, 816)]",[],[1],[0.6666666666666666],horizontal,"(890.0, 762.0)",1.0666666666666667,0.624,1,7675.266,2
0,81,target,"[(1092, 800)]",[],[1],[0.21666666666666667],vertical,"(390.0, 762.0)",1.45,0.181,1,7680.487,2
0,82,target,"[(1076, 813)]",[],[1],[0.85],horizontal,"(890.0, 762.0)",0.6166666666666667,nan,0,7685.736,0
0,83,target,"[(1065, 793)]",[],[1],[0.23333333333333334],vertical,"(890.0, 762.0)",1.5,0.196,1,7690.01,1
0,84,target,"[(1078, 796)]",[],[1],[0.5833333333333334],vertical,"(890.0, 762.0)",0.9666666666666667,0.543,1,7695.148,1
0,85,target,"[(1060, 801)]",[],[1],[0.6],vertical,"(390.0, 262.0)",0.65,0.56,1,7700.066,1
0,86,target,"[(1065, 777)]",[],[1],[0.5666666666666667],horizontal,"(890.0, 762.0)",0.9833333333333333,0.524,1,7705.099,2
0,87,target,"[(1077, 775)]",[],[1],[0.43333333333333335],vertical,"(390.0, 262.0)",1.0833333333333333,0.399,1,7709.95,2
0,88,target,"[(1061, 762)]",[],[1],[],horizontal,"(890.0, 762.0)",,"('cti', 1.606)",0,7714.832,0
0,89,target,"[(1092, 788)]",[],[1],[0.5],vertical,"(890.0, 762.0)",1.1333333333333333,0.458,1,7719.201,1
0,90,target,"[(1095, 787)]",[],[1],[0.85],vertical,"(390.0, 762.0)",1.6833333333333333,"('cti', 1.673),nan",0,7723.818,0
0,91,target,"[(1108, 794)]",[],[1],[0.5166666666666666],vertical,"(890.0, 762.0)",1.4166666666666667,0.478,1,7729.768,1
0,92,catch,"[(1095, 804)]",[],[1],[],vertical,"(890.0, 262.0)",,"('cti', 1.494),nan",0,7734.918,0
0,93,target,"[(1099, 781)]",[],[1],[0.5666666666666667],vertical,"(390.0, 762.0)",0.8666666666666667,0.527,1,7739.909,1
0,94,target,"[(1088, 795)]",[],[1],[0.85],horizontal,"(390.0, 262.0)",0.55,nan,0,7745.05,0
0,95,catch,"[(1084, 758)]",[],[1],[],vertical,"(890.0, 262.0)",1.3,nan,1,7749.829,1
0,96,target,"[(1104, 785)]",[],[1],[0.15],vertical,"(890.0, 262.0)",1.3333333333333333,0.117,0,7754.516,0
0,97,target,"[(1085, 785)]",[],[1],[0.23333333333333334],vertical,"(890.0, 762.0)",1.4833333333333334,0.196,1,7759.133,1
0,98,target,"[(1104, 784)]",[],[1],[0.6],horizontal,"(890.0, 262.0)",0.75,0.564,1,7764.351,1
0,99,catch,"[(1081, 787)]",[],[1],[],vertical,"(890.0, 762.0)",1.6666666666666667,nan,1,7769.182,1
0,100,target,"[(1061, 799)]",[],[1],[0.5166666666666666],horizontal,"(390.0, 262.0)",0.75,0.479,1,7774.018,2
0,101,target,"[(1078, 781)]",[],[1],[0.5666666666666667],horizontal,"(390.0, 762.0)",0.7,0.525,1,7779.639,2
0,102,target,"[(1075, 756)]",[],[1],[0.5333333333333333],vertical,"(390.0, 262.0)",1.2333333333333334,0.497,1,7784.678,2
0,103,target,"[(1098, 786)]",[],[1],[0.23333333333333334],horizontal,"(390.0, 262.0)",1.05,0.195,1,7789.893,2
0,104,target,"[(1061, 785)]",[],[1],[0.6666666666666666],horizontal,"(390.0, 262.0)",0.5166666666666666,0.633,1,7795.384,2
0,105,target,"[(1081, 781)]",[],[1],[0.16666666666666666],horizontal,"(390.0, 762.0)",1.3666666666666667,0.135,0,7800.339,0
0,106,target,"[(1085, 786)]",[],[1],[0.5166666666666666],vertical,"(890.0, 762.0)",1.2666666666666666,0.481,1,7804.818,1
0,107,target,"[(1079, 803)]",[],[1],[0.18333333333333332],horizontal,"(890.0, 262.0)",1.3333333333333333,0.151,1,7809.835,1
0,108,target,"[(1073, 800)]",[],[1],[],vertical,"(890.0, 262.0)",,"('cti', 1.068)",0,7830.964,0
0,109,target,"[(1082, 775)]",[],[1],[0.26666666666666666],horizontal,"(890.0, 762.0)",1.25,0.231,1,7835.432,1
0,110,target,"[(1054, 831)]",[],[1],[0.6333333333333333],vertical,"(390.0, 262.0)",1.5333333333333332,0.594,1,7840.294,1
0,111,target,"[(1075, 786)]",[],[1],[0.6],vertical,"(890.0, 762.0)",0.5833333333333334,0.559,1,7854.318,1
0,112,target,"[(1020, 769)]",[],[1],[0.5166666666666666],vertical,"(390.0, 762.0)",0.8166666666666667,0.473,1,7859.369,2
0,113,target,"[(1102, 796)]",[],[1],[],horizontal,"(390.0, 262.0)",,"('cti', 1.525)",0,7865.068,0
0,114,target,"[(1099, 790)]",[],[1],[],horizontal,"(390.0, 262.0)",,"('cti', 1.344)",0,7869.347,0
0,115,target,"[(1105, 786)]",[],[1],[0.3833333333333333],horizontal,"(890.0, 262.0)",1.3833333333333333,0.352,1,7873.901,1
0,116,target,"[(1075, 793)]",[],[1],[0.18333333333333332],horizontal,"(390.0, 762.0)",1.0833333333333333,0.148,0,7879.152,0
0,117,target,"[(1104, 788)]",[],[1],[0.5166666666666666],vertical,"(890.0, 262.0)",0.7,0.476,1,7883.64,1
0,118,target,"[(1090, 799)]",[],[1],[0.65],vertical,"(390.0, 762.0)",1.0833333333333333,0.608,1,7888.542,1
0,119,target,"[(1080, 791)]",[],[1],[0.48333333333333334],horizontal,"(890.0, 262.0)",0.9666666666666667,0.449,1,7893.844,1
0,120,catch,"[(1059, 764)]",[],[1],[],horizontal,"(390.0, 762.0)",,"('cti', 1.146),nan",0,7898.935,0
0,121,target,"[(1104, 789)]",[],[1],[0.85],horizontal,"(390.0, 762.0)",0.75,nan,0,7903.086,0
0,122,target,"[(1094, 768)]",[],[1],[0.45],horizontal,"(890.0, 762.0)",1.35,0.41,1,7907.752,1
0,123,target,"[(1119, 779)]",[],[1],[0.5666666666666667],vertical,"(890.0, 262.0)",1.1166666666666667,0.527,1,7912.579,1
0,124,target,"[(1063, 786)]",[],[1],[0.5],vertical,"(890.0, 762.0)",1.5666666666666667,0.46,1,7917.89,1
0,125,target,"[(1065, 790)]",[],[1],[0.15],horizontal,"(390.0, 762.0)",1.4166666666666667,0.118,0,7923.262,0
0,126,target,"[(1082, 760)]",[],[1],[0.5333333333333333],horizontal,"(390.0, 262.0)",0.7666666666666666,0.495,1,7928.351,1
0,127,target,"[(1077, 777)]",[],[1],[0.5333333333333333],horizontal,"(890.0, 262.0)",0.6333333333333333,0.494,1,7933.252,1
0,128,target,"[(1079, 765)]",[],[1],[0.55],horizontal,"(890.0, 762.0)",0.8166666666666667,0.513,1,7937.885,1
0,129,target,"[(1082, 777)]",[],[1],[0.6333333333333333],horizontal,"(390.0, 262.0)",0.6833333333333333,0.595,1,7942.517,2
0,130,catch,"[(1069, 778)]",[],[1],[],vertical,"(390.0, 262.0)",1.5,nan,1,7947.562,2
0,131,target,"[(1075, 796)]",[],[1],[0.5333333333333333],vertical,"(890.0, 762.0)",0.7,0.494,1,7953.001,2
0,132,target,"[(1075, 778)]",[],[1],[0.5166666666666666],vertical,"(390.0, 762.0)",1.0,0.477,1,7958.433,2
0,133,target,"[(1081, 773)]",[],[1],[0.5833333333333334],horizontal,"(890.0, 262.0)",0.7333333333333333,0.549,1,7963.685,2
0,134,target,"[(1103, 771)]",[],[1],[],vertical,"(390.0, 262.0)",,"('cti', 1.282)",0,7968.735,0
0,135,target,"[(1081, 781)]",[],[1],[0.48333333333333334],vertical,"(890.0, 262.0)",1.2,0.444,1,7973.294,1
0,136,target,"[(1085, 796)]",[],[1],[],horizontal,"(890.0, 262.0)",,"('cti', 1.437)",0,7978.326,0
0,137,target,"[(1122, 780)]",[],[1],[0.6],horizontal,"(390.0, 762.0)",0.7666666666666666,0.56,1,7983.139,1
0,138,target,"[(1074, 789)]",[],[1],[0.2],vertical,"(890.0, 762.0)",1.6166666666666667,0.17,1,7987.875,1
0,139,target,"[(1075, 772)]",[],[1],[0.5166666666666666],horizontal,"(390.0, 262.0)",0.6166666666666667,0.477,1,7993.619,1
0,140,target,"[(1083, 795)]",[],[1],[0.6333333333333333],horizontal,"(390.0, 262.0)",1.0333333333333332,0.593,1,7998.459,2
0,141,target,"[(1101, 790)]",[],[1],[0.6666666666666666],vertical,"(390.0, 262.0)",0.7333333333333333,0.627,1,8003.717,2
0,142,target,"[(1083, 788)]",[],[1],[0.16666666666666666],vertical,"(390.0, 762.0)",1.4166666666666667,0.135,0,8009.14,0
0,143,target,"[(1094, 784)]",[],[1],[0.43333333333333335],vertical,"(390.0, 762.0)",1.3666666666666667,0.392,1,8013.354,1
0,144,target,"[(1100, 793)]",[],[1],[0.5333333333333333],vertical,"(390.0, 262.0)",0.7166666666666667,0.494,1,8018.661,1
0,145,target,"[(1099, 783)]",[],[1],[0.4],vertical,"(890.0, 762.0)",1.0833333333333333,0.364,1,8023.02,1
0,146,target,"[(1056, 802)]",[],[1],[0.6],vertical,"(390.0, 762.0)",0.9666666666666667,0.558,1,8028.202,2
0,147,target,"[(1095, 791)]",[],[1],[0.6166666666666667],horizontal,"(390.0, 762.0)",0.6833333333333333,0.575,1,8033.439,2
0,148,target,"[(1120, 795)]",[],[1],[0.23333333333333334],vertical,"(390.0, 762.0)",0.9,0.194,1,8038.234,2
0,149,target,"[(1067, 786)]",[],[1],[0.5333333333333333],vertical,"(890.0, 262.0)",0.9833333333333333,0.49,1,8042.669,2
0,150,target,"[(1097, 795)]",[],[1],[0.4666666666666667],vertical,"(390.0, 262.0)",1.0166666666666666,0.428,1,8047.952,2
0,151,target,"[(1096, 778)]",[],[1],[0.5833333333333334],vertical,"(390.0, 762.0)",0.8166666666666667,0.541,1,8053.169,3
0,152,target,"[(1085, 785)]",[],[1],[0.15],vertical,"(890.0, 262.0)",0.9666666666666667,0.118,0,8058.685,0
0,153,catch,"[(1102, 800)]",[],[1],[],vertical,"(390.0, 262.0)",1.25,nan,1,8063.233,1
0,154,target,"[(1101, 778)]",[],[1],[0.65],horizontal,"(390.0, 262.0)",0.6333333333333333,0.605,1,8068.023,1
0,155,target,"[(1075, 785)]",[],[1],[0.55],vertical,"(390.0, 762.0)",0.9166666666666666,0.507,1,8073.037,1
0,156,catch,"[(1098, 786)]",[],[1],[],vertical,"(890.0, 262.0)",,"('cti', 1.077),nan",0,8077.919,0
0,157,target,"[(1085, 786)]",[],[1],[0.35],horizontal,"(890.0, 262.0)",0.7833333333333333,0.312,1,8081.752,1
0,158,target,"[(1076, 786)]",[],[1],[],vertical,"(390.0, 762.0)",,"('cti', 1.483)",0,8086.548,0
0,159,target,"[(1110, 784)]",[],[1],[0.65],vertical,"(890.0, 762.0)",0.5166666666666666,0.6,1,8090.969,1
0,160,target,"[(1089, 795)]",[],[1],[0.6333333333333333],horizontal,"(390.0, 262.0)",0.7,0.587,1,8095.29,1
0,161,target,"[(1075, 796)]",[],[1],[0.85],horizontal,"(390.0, 762.0)",0.55,nan,0,8100.24,0
0,162,target,"[(1082, 766)]",[],[1],[0.4666666666666667],horizontal,"(890.0, 262.0)",0.6333333333333333,0.43,1,8104.692,1
0,163,target,"[(1080, 785)]",[],[1],[],horizontal,"(890.0, 262.0)",,"('cti', 1.349)",0,8109.433,0
0,164,catch,"[(1080, 796)]",[],[1],[],vertical,"(890.0, 762.0)",,"('cti', 1.58),nan",0,8114.253,0
0,165,catch,"[(1111, 783)]",[],[1],[],horizontal,"(390.0, 262.0)",1.4833333333333334,nan,1,8119.185,1
0,166,target,"[(1067, 801)]",[],[1],[0.55],horizontal,"(890.0, 262.0)",0.5833333333333334,0.506,1,8124.17,1
0,167,target,"[(1093, 802)]",[],[1],[0.4166666666666667],vertical,"(390.0, 762.0)",1.0166666666666666,0.377,1,8129.175,1
0,168,target,"[(1071, 806)]",[],[1],[0.55],vertical,"(390.0, 762.0)",0.75,0.516,1,8134.527,2
0,169,target,"[(1079, 798)]",[],[1],[0.65],vertical,"(890.0, 762.0)",0.5333333333333333,0.604,1,8139.488,2
0,170,target,"[(1080, 785)]",[],[1],[],horizontal,"(890.0, 762.0)",,"('cti', 1.569)",0,8144.704,0
0,171,catch,"[(1091, 794)]",[],[1],[],vertical,"(390.0, 262.0)",1.45,nan,1,8149.311,1
0,172,target,"[(1070, 774)]",[],[1],[0.5833333333333334],vertical,"(890.0, 262.0)",1.55,0.539,1,8154.37,1
0,173,catch,"[(1081, 793)]",[],[1],[],horizontal,"(890.0, 762.0)",1.4666666666666666,nan,1,8159.737,1
0,174,target,"[(1079, 797)]",[],[1],[0.6],vertical,"(890.0, 262.0)",0.6666666666666666,0.553,1,8164.57,2
0,175,target,"[(1094, 781)]",[],[1],[0.85],horizontal,"(890.0, 262.0)",1.6666666666666667,"('cti', 1.651),nan",0,8169.501,0
0,176,target,"[(1065, 794)]",[],[1],[0.55],vertical,"(890.0, 262.0)",0.7166666666666667,0.511,1,8174.787,1
0,177,target,"[(1085, 777)]",[],[1],[0.5166666666666666],vertical,"(390.0, 262.0)",1.1666666666666667,0.479,1,8182.388,1
0,178,target,"[(1077, 785)]",[],[1],[0.5833333333333334],horizontal,"(390.0, 762.0)",0.8666666666666667,0.543,1,8187.817,1
0,179,target,"[(1073, 801)]",[],[1],[0.31666666666666665],vertical,"(890.0, 262.0)",1.4666666666666666,0.282,1,8192.986,2
0,180,catch,"[(1081, 781)]",[],[1],[],vertical,"(390.0, 262.0)",1.6,nan,1,8198.26,2
0,181,target,"[(1080, 777)]",[],[1],[],horizontal,"(390.0, 262.0)",,"('cti', 1.256)",0,8203.262,0
0,182,target,"[(1085, 771)]",[],[1],[0.5166666666666666],vertical,"(390.0, 262.0)",0.75,0.471,1,8207.66,1
0,183,target,"[(1080, 796)]",[],[1],[0.5833333333333334],vertical,"(390.0, 262.0)",0.9166666666666666,0.54,1,8212.337,1
0,184,target,"[(1080, 779)]",[],[1],[0.15],vertical,"(390.0, 262.0)",1.2333333333333334,0.116,0,8217.164,0
0,185,target,"[(1089, 776)]",[],[1],[0.85],horizontal,"(390.0, 262.0)",1.2833333333333332,nan,0,8221.626,0
0,186,target,"[(1041, 771)]",[],[1],[],horizontal,"(890.0, 762.0)",,"('cti', 1.136)",0,8226.47,0
0,187,catch,"[(1056, 776)]",[],[1],[],vertical,"(390.0, 762.0)",1.6166666666666667,nan,1,8237.871,1
0,188,target,"[(1063, 811)]",[],[1],[0.5],vertical,"(890.0, 262.0)",0.7333333333333333,0.458,1,8243.971,1
0,189,target,"[(1075, 799)]",[],[1],[0.5166666666666666],horizontal,"(390.0, 262.0)",0.75,0.473,1,8249.287,1
0,190,target,"[(1087, 787)]",[],[1],[0.6],vertical,"(390.0, 262.0)",0.75,0.569,1,8254.072,2
0,191,target,"[(1080, 791)]",[],[1],[0.3],vertical,"(890.0, 262.0)",1.15,0.262,1,8258.981,2
0,192,target,"[(1082, 783)]",[],[1],[0.2],vertical,"(390.0, 762.0)",1.4166666666666667,0.169,1,8263.998,2
0,193,target,"[(1085, 784)]",[],[1],[0.2],horizontal,"(390.0, 762.0)",0.8833333333333333,0.171,1,8269.264,2
0,194,target,"[(1080, 782)]",[],[1],[0.5333333333333333],horizontal,"(390.0, 762.0)",1.15,0.49,1,8274.237,2
0,195,target,"[(1085, 791)]",[],[1],[0.65],vertical,"(890.0, 762.0)",0.5166666666666666,0.603,1,8279.587,3
0,196,target,"[(1098, 778)]",[],[1],[],horizontal,"(890.0, 762.0)",,"('cti', 1.368)",0,8285.304,0
0,197,target,"[(1093, 785)]",[],[1],[0.7166666666666667],vertical,"(890.0, 762.0)",0.6833333333333333,0.667,1,8289.706,1
0,198,target,"[(1085, 805)]",[],[1],[0.16666666666666666],horizontal,"(390.0, 262.0)",1.35,0.131,0,8294.336,0
0,199,target,"[(1098, 783)]",[],[1],[0.55],horizontal,"(890.0, 762.0)",1.1833333333333333,0.51,1,8299.155,1
0,200,target,"[(1061, 800)]","[(1066, 807)]",[1],[0.16666666666666666],horizontal,"(890.0, 262.0)",,"('bar', 0.18)",0,8304.222,0
0,201,target,"[(1080, 825)]",[],[1],[0.85],horizontal,"(890.0, 762.0)",0.7166666666666667,nan,0,8306.989,0
0,202,target,"[(1085, 801)]",[],[1],[0.48333333333333334],vertical,"(890.0, 762.0)",1.3333333333333333,0.441,1,9949.095,1
0,203,target,"[(1101, 796)]",[],[1],[0.65],vertical,"(390.0, 762.0)",1.5333333333333332,0.617,1,9953.903,1
0,204,target,"[(1100, 781)]",[],[1],[0.4],horizontal,"(390.0, 762.0)",0.8166666666666667,0.364,1,9959.403,1
0,205,target,"[(1078, 786)]",[],[1],[0.85],vertical,"(390.0, 262.0)",1.4333333333333333,"('cti', 1.443),nan",0,9963.726,0
0,206,target,"[(1075, 801)]",[],[1],[0.6],horizontal,"(390.0, 262.0)",0.5333333333333333,0.561,1,9969.409,1
0,207,target,"[(1073, 802)]",[],[1],[0.15],vertical,"(890.0, 762.0)",1.6333333333333333,0.121,0,9973.751,0
0,208,target,"[(1037, 795)]",[],[1],[0.6666666666666666],horizontal,"(890.0, 762.0)",0.7166666666666667,0.634,1,9978.885,1
0,209,catch,"[(1060, 766)]",[],[1],[],vertical,"(890.0, 762.0)",1.55,nan,1,9986.787,1
0,210,target,"[(1090, 781)]",[],[1],[0.6],horizontal,"(390.0, 262.0)",1.0,0.562,1,9991.643,1
0,211,target,"[(1040, 781)]",[],[1],[],horizontal,"(390.0, 762.0)",,"('cti', 1.223)",0,9996.464,0
0,212,target,"[(1104, 772)]",[],[1],[0.85],horizontal,"(890.0, 262.0)",1.6166666666666667,"('cti', 1.632),nan",0,10000.985,0
0,213,target,"[(1056, 789)]",[],[1],[0.5833333333333334],horizontal,"(890.0, 762.0)",1.25,0.544,1,10006.618,1
0,214,target,"[(1082, 784)]",[],[1],[0.11666666666666667],horizontal,"(390.0, 762.0)",1.6666666666666667,0.084,0,10012.401,0
0,215,target,"[(1104, 800)]",[],[1],[0.5666666666666667],vertical,"(390.0, 762.0)",0.6166666666666667,0.526,1,10017.132,1
0,216,target,"[(1093, 777)]",[],[1],[0.5166666666666666],horizontal,"(890.0, 762.0)",1.05,0.478,1,10021.518,1
0,217,target,"[(1075, 784)]",[],[1],[0.55],vertical,"(390.0, 262.0)",0.7166666666666667,0.511,1,10026.813,1
0,218,target,"[(1076, 762)]",[],[1],[0.65],vertical,"(390.0, 762.0)",0.7166666666666667,0.608,1,10031.125,2
0,219,target,"[(1065, 777)]",[],[1],[],horizontal,"(890.0, 762.0)",,"('cti', 1.568)",0,10036.118,0
0,220,catch,"[(1081, 762)]",[],[1],[],vertical,"(890.0, 762.0)",1.6,nan,1,10040.819,1
0,221,target,"[(1104, 786)]",[],[1],[0.5333333333333333],horizontal,"(390.0, 762.0)",1.15,0.493,1,10045.762,1
0,222,target,"[(1078, 798)]",[],[1],[0.5333333333333333],horizontal,"(890.0, 762.0)",0.85,0.492,1,10050.919,1
0,223,target,"[(1077, 795)]",[],[1],[0.5833333333333334],horizontal,"(390.0, 262.0)",0.6333333333333333,0.547,1,10055.477,2
0,224,target,"[(1077, 781)]",[],[1],[0.55],vertical,"(390.0, 262.0)",0.6166666666666667,0.512,1,10060.553,2
0,225,target,"[(1080, 770)]",[],[1],[0.85],vertical,"(390.0, 762.0)",0.65,nan,0,10065.276,0
0,226,target,"[(1104, 778)]",[],[1],[0.5],vertical,"(390.0, 262.0)",1.1666666666666667,0.458,1,10069.868,1
0,227,target,"[(1087, 758)]",[],[1],[0.5666666666666667],vertical,"(390.0, 262.0)",0.8166666666666667,0.527,1,10074.969,1
0,228,target,"[(1079, 777)]",[],[1],[0.31666666666666665],horizontal,"(390.0, 762.0)",0.7166666666666667,0.277,1,10079.286,1
0,229,target,"[(1104, 783)]",[],[1],[0.5666666666666667],horizontal,"(390.0, 762.0)",1.1333333333333333,0.527,1,10083.834,2
0,230,target,"[(1075, 779)]",[],[1],[],vertical,"(890.0, 262.0)",,"('cti', 1.486)",0,10089.085,0
0,231,catch,"[(1081, 768)]",[],[1],[],vertical,"(890.0, 762.0)",1.6,nan,1,10094.033,1
0,232,target,"[(1107, 776)]",[],[1],[0.43333333333333335],horizontal,"(390.0, 762.0)",1.55,0.392,1,10098.634,1
0,233,target,"[(1087, 786)]",[],[1],[0.5166666666666666],vertical,"(890.0, 762.0)",1.1166666666666667,0.478,1,10103.968,1
0,234,target,"[(1090, 796)]",[],[1],[0.5333333333333333],vertical,"(890.0, 262.0)",0.8833333333333333,0.491,1,10108.566,2
0,235,target,"[(1087, 759)]",[],[1],[0.65],horizontal,"(890.0, 262.0)",0.8666666666666667,0.623,1,10113.935,2
0,236,target,"[(1080, 771)]",[],[1],[0.1],vertical,"(890.0, 762.0)",1.5333333333333332,0.067,0,10119.102,0
0,237,target,"[(1083, 775)]",[],[1],[0.4],vertical,"(390.0, 262.0)",1.3333333333333333,0.366,1,10124.068,1
0,238,target,"[(1068, 770)]",[],[1],[0.6666666666666666],vertical,"(390.0, 762.0)",0.75,0.621,1,10129.453,1
0,239,target,"[(1070, 790)]",[],[1],[],vertical,"(890.0, 262.0)",,"('cti', 1.055)",0,10134.036,0
0,240,target,"[(1079, 771)]",[],[1],[0.5666666666666667],horizontal,"(390.0, 762.0)",0.85,0.527,1,10138.184,1
0,241,target,"[(1075, 766)]",[],[1],[0.5166666666666666],vertical,"(890.0, 762.0)",1.2,0.477,1,10142.763,1
0,242,target,"[(1075, 786)]",[],[1],[0.5666666666666667],horizontal,"(390.0, 762.0)",0.7833333333333333,0.525,1,10147.631,1
0,243,target,"[(1074, 766)]",[],[1],[0.21666666666666667],horizontal,"(390.0, 762.0)",1.4,0.182,1,10152.018,2
0,244,target,"[(1104, 772)]",[],[1],[0.5833333333333334],horizontal,"(390.0, 762.0)",1.15,0.544,1,10157.419,2
0,245,target,"[(1099, 781)]",[],[1],[0.55],horizontal,"(890.0, 262.0)",0.6833333333333333,0.51,1,10162.535,2
0,246,catch,"[(1103, 771)]",[],[1],[],horizontal,"(390.0, 262.0)",1.5,nan,1,10167.865,2
0,247,target,"[(1101, 778)]",[],[1],[0.6166666666666667],vertical,"(390.0, 262.0)",0.75,0.583,1,10172.666,2
0,248,target,"[(1080, 793)]",[],[1],[0.4666666666666667],horizontal,"(890.0, 262.0)",1.25,0.426,1,10177.627,3
0,249,catch,"[(1109, 795)]",[],[1],[],vertical,"(890.0, 762.0)",1.25,nan,1,10183.252,3
0,250,target,"[(1070, 795)]",[],[1],[0.5833333333333334],vertical,"(390.0, 262.0)",0.8166666666666667,0.543,1,10188.714,3
0,251,target,"[(1095, 793)]",[],[1],[0.5666666666666667],horizontal,"(890.0, 762.0)",0.6,0.528,1,10194.337,3
0,252,target,"[(1071, 796)]",[],[1],[0.7333333333333333],vertical,"(390.0, 262.0)",0.5,0.684,1,10199.714,3
0,253,target,"[(1074, 779)]",[],[1],[0.6666666666666666],vertical,"(390.0, 762.0)",1.05,0.623,1,10205.169,3
0,254,target,"[(1089, 785)]",[],[1],[0.16666666666666666],horizontal,"(890.0, 762.0)",1.6333333333333333,0.137,0,10210.82,0
0,255,target,"[(1065, 784)]",[],[1],[],horizontal,"(390.0, 262.0)",,"('cti', 1.176)",0,10215.869,0
0,256,target,"[(1074, 762)]",[],[1],[0.5333333333333333],horizontal,"(890.0, 762.0)",1.4333333333333333,0.495,1,10220.509,1
0,257,target,"[(1096, 763)]",[],[1],[0.65],vertical,"(890.0, 762.0)",0.5833333333333334,0.617,1,10225.552,1
0,258,target,"[(1099, 786)]",[],[1],[0.5666666666666667],vertical,"(390.0, 762.0)",1.1666666666666667,0.522,1,10229.986,1
0,259,target,"[(1061, 762)]",[],[1],[0.6],horizontal,"(390.0, 762.0)",0.9333333333333333,0.561,1,10234.781,2
0,260,target,"[(1090, 779)]",[],[1],[0.6166666666666667],horizontal,"(890.0, 262.0)",0.75,0.575,1,10240.362,2
0,261,target,"[(1097, 765)]",[],[1],[0.5],horizontal,"(890.0, 262.0)",0.95,0.46,1,10245.09,2
0,262,target,"[(1079, 771)]",[],[1],[0.75],horizontal,"(890.0, 262.0)",0.7833333333333333,0.698,1,10250.175,2
0,263,target,"[(1080, 771)]",[],[1],[0.55],vertical,"(890.0, 762.0)",1.1833333333333333,0.512,1,10255.474,2
0,264,target,"[(1101, 778)]",[],[1],[0.5166666666666666],horizontal,"(390.0, 762.0)",1.1833333333333333,0.475,1,10261.07,3
0,265,target,"[(1075, 762)]",[],[1],[0.4666666666666667],vertical,"(390.0, 762.0)",1.25,0.423,1,10266.537,3
0,266,target,"[(1076, 764)]",[],[1],[],horizontal,"(890.0, 262.0)",,"('cti', 1.281)",0,10272.586,0
0,267,target,"[(1073, 783)]",[],[1],[0.3],horizontal,"(390.0, 262.0)",1.4666666666666666,0.264,1,10276.804,1
0,268,target,"[(1074, 766)]",[],[1],[0.5166666666666666],vertical,"(390.0, 762.0)",1.1833333333333333,0.474,1,10282.12,1
0,269,target,"[(1079, 763)]",[],[1],[0.55],horizontal,"(890.0, 262.0)",0.95,0.505,1,10286.703,1
0,270,target,"[(1076, 801)]",[],[1],[0.5],vertical,"(390.0, 762.0)",1.1666666666666667,0.464,1,10291.387,2
0,271,target,"[(1066, 764)]",[],[1],[0.23333333333333334],horizontal,"(390.0, 762.0)",1.4333333333333333,0.198,1,10297.002,2
0,272,target,"[(1078, 769)]",[],[1],[0.7],vertical,"(890.0, 762.0)",1.0166666666666666,0.653,1,10302.092,2
0,273,catch,"[(1078, 781)]",[],[1],[],vertical,"(390.0, 262.0)",,"('cti', 1.31),nan",0,10307.779,0
0,274,catch,"[(1068, 803)]",[],[1],[],horizontal,"(390.0, 262.0)",1.4833333333333334,nan,1,10312.369,1
0,275,target,"[(1075, 802)]",[],[1],[0.15],horizontal,"(390.0, 762.0)",1.2333333333333334,0.118,0,11283.796,0
0,276,target,"[(1070, 786)]",[],[1],[0.3],vertical,"(890.0, 762.0)",1.4833333333333334,0.264,1,11288.647,1
0,277,target,"[(1107, 798)]",[],[1],[0.4666666666666667],horizontal,"(390.0, 762.0)",1.0,0.422,1,11294.078,1
0,278,target,"[(1103, 780)]",[],[1],[0.5],horizontal,"(890.0, 262.0)",0.6833333333333333,0.459,1,11298.862,1
0,279,target,"[(1100, 811)]",[],[1],[0.16666666666666666],vertical,"(890.0, 262.0)",1.5666666666666667,0.138,0,11303.529,0
0,280,target,"[(1077, 805)]",[],[1],[0.25],horizontal,"(390.0, 762.0)",1.2,0.213,1,11308.491,1
0,281,target,"[(1056, 781)]",[],[1],[0.65],vertical,"(390.0, 262.0)",1.05,0.622,1,11313.783,1
0,282,target,"[(1071, 770)]",[],[1],[0.85],vertical,"(890.0, 762.0)",0.5833333333333334,nan,0,11319.395,0
0,283,catch,"[(1066, 781)]",[],[1],[],vertical,"(390.0, 762.0)",,"('cti', 1.36),nan",0,11324.029,0
0,284,target,"[(1077, 817)]","[(1068, 830)]",[1],[0.16666666666666666],vertical,"(890.0, 762.0)",,"('bar', 0.182)",0,11339.26,0
0,285,target,"[(1071, 796)]",[],[1],[0.2833333333333333],vertical,"(890.0, 762.0)",1.45,0.246,1,11342.046,1
0,286,target,"[(1075, 780)]",[],[1],[0.35],vertical,"(890.0, 262.0)",1.6333333333333333,0.314,1,11347.113,1
0,287,catch,"[(1082, 795)]",[],[1],[],vertical,"(390.0, 762.0)",,"('cti', 1.082),nan",0,11352.363,0
0,288,target,"[(468, 924), (1045, 786)]",[],"[0, 1]",[0.55],horizontal,"(890.0, 262.0)",0.8666666666666667,0.507,1,11356.495,1
0,289,catch,"[(1083, 779)]",[],[1],[],vertical,"(390.0, 262.0)",,"('cti', 1.175),nan",0,12138.368,0
0,290,target,"[(1059, 767)]",[],[1],[0.5833333333333334],vertical,"(390.0, 262.0)",1.4666666666666666,0.545,1,12142.535,1
0,291,target,"[(1079, 794)]",[],[1],[0.55],horizontal,"(890.0, 262.0)",1.4166666666666667,0.519,1,12148.052,1
0,292,catch,"[(1070, 783)]",[],[1],[],horizontal,"(390.0, 262.0)",1.35,nan,1,12153.183,1
0,293,target,"[(1095, 779)]",[],[1],[0.05],horizontal,"(390.0, 762.0)",1.3666666666666667,0.019,0,12157.992,0
0,294,catch,"[(1082, 768)]",[],[1],[],horizontal,"(890.0, 262.0)",1.55,nan,1,12162.633,1
0,295,target,"[(1095, 793)]",[],[1],[],vertical,"(390.0, 762.0)",,"('cti', 1.103)",0,12167.334,0
0,296,target,"[(1022, 801)]",[],[1],[0.6333333333333333],vertical,"(890.0, 762.0)",0.95,0.598,1,12171.952,1
0,297,target,"[(1076, 775)]",[],[1],[],horizontal,"(890.0, 262.0)",,"('cti', 1.29)",0,12176.76,0
0,298,target,"[(1102, 791)]",[],[1],[0.55],horizontal,"(390.0, 762.0)",0.9333333333333333,0.513,1,12181.819,1
0,299,target,"[(1066, 796)]",[],[1],[0.5666666666666667],vertical,"(390.0, 262.0)",0.9833333333333333,0.525,1,12186.769,1
0,300,target,"[(1088, 780)]",[],[1],[0.65],vertical,"(390.0, 762.0)",0.95,0.608,1,12191.545,1
0,301,catch,"[(1063, 791)]",[],[1],[],vertical,"(890.0, 262.0)",1.5666666666666667,nan,1,12196.636,2
0,302,target,"[(1093, 788)]",[],[1],[0.48333333333333334],horizontal,"(890.0, 262.0)",1.0,0.444,1,12202.169,2
0,303,target,"[(1066, 771)]",[],[1],[],horizontal,"(890.0, 262.0)",,"('cti', 1.212)",0,12207.752,0
0,304,target,"[(1080, 785)]",[],[1],[0.45],horizontal,"(390.0, 762.0)",0.7333333333333333,0.409,1,12211.946,1
0,305,target,"[(1073, 774)]",[],[1],[0.55],vertical,"(890.0, 762.0)",0.6833333333333333,0.514,1,12216.736,1
0,306,target,"[(1081, 787)]",[],[1],[],vertical,"(890.0, 262.0)",,"('cti', 1.362)",0,12221.188,0
0,307,target,"[(1077, 779)]",[],[1],[0.36666666666666664],horizontal,"(390.0, 762.0)",1.35,0.329,1,12225.715,1
0,308,target,"[(1097, 794)]",[],[1],[0.5666666666666667],vertical,"(890.0, 762.0)",1.3666666666666667,0.529,1,12230.701,1
0,309,target,"[(1070, 771)]",[],[1],[0.5166666666666666],horizontal,"(890.0, 762.0)",0.9,0.484,1,12235.836,1
0,310,target,"[(1072, 770)]",[],[1],[0.45],vertical,"(890.0, 262.0)",1.0833333333333333,0.412,1,12240.218,2
0,311,target,"[(1071, 761)]",[],[1],[],horizontal,"(890.0, 762.0)",,"('cti', 1.549)",0,12245.57,0
0,312,target,"[(1081, 770)]",[],[1],[0.4166666666666667],horizontal,"(390.0, 762.0)",1.2,0.377,1,12250.281,1
0,313,target,"[(1072, 797)]",[],[1],[0.5666666666666667],horizontal,"(390.0, 262.0)",0.8166666666666667,0.537,1,12255.375,1
0,314,target,"[(1085, 772)]",[],[1],[0.35],vertical,"(390.0, 262.0)",1.0666666666666667,0.313,1,12259.92,1
0,315,catch,"[(1076, 773)]",[],[1],[],horizontal,"(890.0, 262.0)",1.4666666666666666,nan,1,12264.921,2
0,316,target,"[(1090, 783)]",[],[1],[0.6333333333333333],horizontal,"(890.0, 262.0)",0.75,0.594,1,12270.201,2
0,317,target,"[(1090, 774)]",[],[1],[0.85],horizontal,"(390.0, 762.0)",0.8333333333333334,nan,0,12275.019,0
0,318,target,"[(1066, 772)]",[],[1],[0.85],vertical,"(390.0, 262.0)",1.4,nan,0,12279.502,0
0,319,target,"[(1076, 781)]",[],[1],[0.6],horizontal,"(390.0, 262.0)",0.8,0.561,1,12284.527,1
0,320,catch,"[(1053, 776)]",[],[1],[],horizontal,"(390.0, 262.0)",,"('cti', 1.5),nan",0,12289.343,0
0,321,target,"[(1090, 795)]",[],[1],[0.5166666666666666],vertical,"(390.0, 262.0)",1.0333333333333332,0.486,1,12294.243,1
0,322,target,"[(1095, 776)]",[],[1],[0.3],horizontal,"(890.0, 762.0)",1.4,0.266,1,12300.32,1
0,323,target,"[(1079, 773)]",[],[1],[0.5833333333333334],vertical,"(890.0, 262.0)",0.6666666666666666,0.541,1,12305.169,1
0,324,target,"[(1056, 795)]",[],[1],[0.4166666666666667],horizontal,"(390.0, 762.0)",0.6166666666666667,0.382,1,12309.494,2
0,325,target,"[(1075, 768)]",[],[1],[0.5666666666666667],horizontal,"(390.0, 262.0)",0.85,0.529,1,12314.786,2
0,326,target,"[(1079, 764)]",[],[1],[0.5833333333333334],horizontal,"(390.0, 762.0)",0.95,0.544,1,12319.569,2
0,327,target,"[(1078, 770)]",[],[1],[0.1],horizontal,"(890.0, 262.0)",1.6666666666666667,0.069,0,12324.805,0
0,328,target,"[(1079, 784)]",[],[1],[0.5166666666666666],horizontal,"(890.0, 762.0)",0.8666666666666667,0.476,1,12329.419,1
0,329,target,"[(1074, 773)]",[],[1],[0.3],vertical,"(390.0, 762.0)",1.3333333333333333,0.266,1,12334.493,1
0,330,target,"[(1071, 762)]",[],[1],[0.6],horizontal,"(390.0, 262.0)",0.8166666666666667,0.558,1,12339.235,1
0,331,target,"[(1074, 781)]",[],[1],[0.85],vertical,"(390.0, 762.0)",0.6833333333333333,nan,0,12343.647,0
0,332,target,"[(1061, 766)]",[],[1],[0.45],vertical,"(890.0, 762.0)",1.5,0.414,1,12348.702,1
0,333,target,"[(1085, 777)]",[],[1],[0.2833333333333333],vertical,"(390.0, 762.0)",1.35,0.251,1,12354.354,1
0,334,target,"[(1070, 791)]",[],[1],[0.6166666666666667],vertical,"(390.0, 262.0)",0.6833333333333333,0.579,1,12359.304,1
0,335,target,"[(1104, 761)]",[],[1],[0.2],horizontal,"(890.0, 262.0)",1.4,0.167,1,12363.753,2
0,336,target,"[(1083, 773)]",[],[1],[0.5333333333333333],vertical,"(890.0, 762.0)",0.9333333333333333,0.492,1,12368.846,2
0,337,target,"[(1080, 793)]",[],[1],[0.21666666666666667],horizontal,"(390.0, 762.0)",1.2666666666666666,0.185,1,12373.983,2
0,338,target,"[(1085, 773)]",[],[1],[0.6333333333333333],horizontal,"(390.0, 262.0)",0.7833333333333333,0.592,1,12379.353,2
0,339,target,"[(1073, 764)]",[],[1],[0.7666666666666666],vertical,"(390.0, 762.0)",0.55,0.724,1,12384.636,2
0,340,target,"[(1075, 799)]",[],[1],[0.65],horizontal,"(890.0, 762.0)",0.55,0.615,1,12390.021,3
0,341,target,"[(1082, 778)]",[],[1],[0.6],vertical,"(390.0, 762.0)",0.7166666666666667,0.564,1,12395.169,3
0,342,target,"[(1076, 773)]",[],[1],[0.85],vertical,"(390.0, 262.0)",0.65,nan,0,12400.863,0
0,343,target,"[(1086, 798)]",[],[1],[],vertical,"(890.0, 762.0)",,"('cti', 1.303)",0,12405.485,0
0,344,target,"[(1041, 780)]",[],[1],[0.1],horizontal,"(390.0, 762.0)",1.3,0.067,0,12410.071,0
0,345,target,"[(1074, 780)]",[],[1],[0.55],horizontal,"(890.0, 762.0)",0.85,0.509,1,12414.268,1
0,346,catch,"[(1094, 786)]",[],[1],[],vertical,"(890.0, 262.0)",1.25,nan,1,12419.256,1
0,347,target,"[(1104, 770)]",[],[1],[0.6166666666666667],horizontal,"(390.0, 762.0)",0.6166666666666667,0.575,1,12424.011,1
0,348,target,"[(1085, 781)]",[],[1],[0.2833333333333333],horizontal,"(890.0, 262.0)",1.2333333333333334,0.25,1,12428.47,2
0,349,target,"[(1110, 783)]",[],[1],[],horizontal,"(390.0, 262.0)",,"('cti', 1.535)",0,12433.967,0
0,350,target,"[(1081, 770)]",[],[1],[0.5333333333333333],vertical,"(890.0, 762.0)",0.7,0.492,1,12438.68,1
0,351,target,"[(1104, 781)]",[],[1],[0.65],horizontal,"(390.0, 262.0)",1.1333333333333333,0.611,1,12443.302,1
0,352,target,"[(1080, 774)]",[],[1],[0.48333333333333334],horizontal,"(390.0, 762.0)",0.6666666666666666,0.441,1,12448.576,1
0,353,target,"[(1081, 784)]",[],[1],[0.5333333333333333],horizontal,"(890.0, 262.0)",1.1666666666666667,0.494,1,12453.265,2
0,354,target,"[(1101, 788)]",[],[1],[0.08333333333333333],vertical,"(390.0, 762.0)",1.5166666666666666,0.051,0,12458.921,0
0,355,target,"[(1123, 782)]",[],[1],[0.6666666666666666],vertical,"(390.0, 762.0)",0.85,0.624,1,12463.42,1
0,356,target,"[(1104, 772)]",[],[1],[0.6333333333333333],horizontal,"(390.0, 762.0)",0.7833333333333333,0.59,1,12467.995,1
0,357,target,"[(1102, 778)]",[],[1],[0.05],horizontal,"(390.0, 762.0)",1.6666666666666667,0.02,0,12472.871,0
0,358,catch,"[(1104, 765)]",[],[1],[],vertical,"(890.0, 262.0)",1.3833333333333333,nan,1,12477.605,1
0,359,target,"[(1099, 796)]",[],[1],[0.6166666666666667],horizontal,"(390.0, 262.0)",0.9166666666666666,0.578,1,12482.538,1
0,360,target,"[(1097, 778)]",[],[1],[0.5333333333333333],horizontal,"(390.0, 262.0)",1.35,0.497,1,12487.121,1
0,361,target,"[(1090, 779)]",[],[1],[0.6166666666666667],horizontal,"(890.0, 262.0)",0.9166666666666666,0.578,1,12492.187,2
0,362,target,"[(1087, 782)]",[],[1],[0.1],vertical,"(890.0, 762.0)",1.5,0.068,0,12497.437,0
0,363,target,"[(1081, 792)]",[],[1],[0.15],horizontal,"(390.0, 262.0)",1.55,0.116,0,12502.089,0
0,364,target,"[(1121, 766)]",[],[1],[],horizontal,"(390.0, 262.0)",,"('cti', 1.155)",0,12506.742,0
0,365,target,"[(1061, 777)]",[],[1],[0.31666666666666665],vertical,"(890.0, 262.0)",1.55,0.278,1,12510.937,1
0,366,target,"[(1103, 773)]",[],[1],[0.5333333333333333],vertical,"(390.0, 262.0)",1.2,0.493,1,12516.155,1
0,367,target,"[(1080, 794)]",[],[1],[0.25],vertical,"(390.0, 762.0)",1.5,0.217,1,12520.888,1
0,368,target,"[(1057, 771)]",[],[1],[0.25],horizontal,"(390.0, 762.0)",1.3166666666666667,0.211,1,12525.637,2
0,369,target,"[(1081, 774)]",[],[1],[0.11666666666666667],horizontal,"(390.0, 762.0)",1.4,0.087,0,12531.237,0
0,370,target,"[(1080, 790)]",[],[1],[0.65],vertical,"(890.0, 262.0)",0.55,0.607,1,12535.574,1
0,371,target,"[(1085, 762)]",[],[1],[0.7666666666666666],vertical,"(390.0, 762.0)",0.6,0.721,1,12540.203,1
0,372,target,"[(1083, 782)]",[],[1],[0.6],vertical,"(890.0, 762.0)",1.65,0.562,1,12544.904,1
0,373,target,"[(1080, 778)]",[],[1],[0.35],horizontal,"(390.0, 262.0)",1.4166666666666667,0.312,1,12550.358,2
0,374,target,"[(1105, 783)]",[],[1],[0.18333333333333332],horizontal,"(390.0, 262.0)",1.1833333333333333,0.15,1,12555.854,2
0,375,target,"[(1096, 784)]",[],[1],[0.3833333333333333],horizontal,"(390.0, 262.0)",1.3,0.346,1,12561.194,2
0,376,catch,"[(1106, 780)]",[],[1],[],vertical,"(390.0, 762.0)",1.6,nan,1,12566.72,2
0,377,catch,"[(1095, 789)]",[],[1],[],horizontal,"(890.0, 762.0)",1.2666666666666666,nan,1,12572.196,2
0,378,target,"[(1095, 782)]",[],[1],[0.6333333333333333],horizontal,"(890.0, 762.0)",0.5666666666666667,0.596,1,12577.28,3
0,379,target,"[(1083, 778)]",[],[1],[0.6],horizontal,"(890.0, 262.0)",0.75,0.561,1,12582.496,3
0,380,target,"[(1087, 766)]",[],[1],[0.55],horizontal,"(390.0, 262.0)",0.65,0.509,1,12587.983,3
0,381,target,"[(1090, 776)]",[],[1],[0.85],horizontal,"(390.0, 762.0)",1.5166666666666666,"('cti', 1.497),nan",0,12593.272,0
0,382,target,"[(1080, 794)]",[],[1],[0.08333333333333333],vertical,"(890.0, 262.0)",1.0,0.051,0,12598.393,0
0,383,target,"[(1077, 761)]",[],[1],[0.5666666666666667],vertical,"(390.0, 762.0)",1.0666666666666667,0.523,1,12602.85,1
0,384,target,"[(1075, 765)]",[],[1],[0.6833333333333333],vertical,"(390.0, 762.0)",0.5,0.641,1,12607.721,1
0,385,target,"[(1090, 780)]",[],[1],[0.55],vertical,"(890.0, 762.0)",0.6833333333333333,0.511,1,12612.116,1
0,386,catch,"[(1100, 795)]",[],[1],[],vertical,"(390.0, 262.0)",1.5,nan,1,12617.106,2
0,387,target,"[(1103, 755)]",[],[1],[0.2833333333333333],vertical,"(890.0, 762.0)",1.4,0.248,1,12622.449,2
0,388,target,"[(1091, 776)]",[],[1],[0.55],vertical,"(390.0, 262.0)",0.6833333333333333,0.511,1,12627.739,2
0,389,target,"[(1098, 779)]",[],[1],[0.5666666666666667],horizontal,"(390.0, 262.0)",0.55,0.524,1,12632.473,2
0,390,target,"[(1097, 779)]",[],[1],[0.6],vertical,"(390.0, 762.0)",0.55,0.556,1,12637.294,2
0,391,target,"[(1073, 764)]",[],[1],[0.15],horizontal,"(890.0, 262.0)",1.5166666666666666,0.12,0,12642.428,0
0,392,target,"[(1085, 779)]",[],[1],[0.6166666666666667],vertical,"(390.0, 762.0)",0.75,0.577,1,12647.428,1
0,393,target,"[(1069, 740), (1089, 778)]",[],"[0, 1]",[0.85],horizontal,"(890.0, 262.0)",0.5833333333333334,nan,0,12651.871,0
0,394,target,"[(1072, 785)]",[],[1],[0.5833333333333334],horizontal,"(390.0, 262.0)",0.7833333333333333,0.539,1,12657.974,1
0,395,target,"[(1071, 780)]",[],[1],[0.65],horizontal,"(890.0, 262.0)",1.15,0.611,1,12662.823,1
0,396,target,"[(1070, 784)]",[],[1],[0.6333333333333333],horizontal,"(890.0, 262.0)",0.6666666666666666,0.588,1,12667.835,1
0,397,target,"[(1080, 791)]",[],[1],[0.55],vertical,"(390.0, 762.0)",1.5666666666666667,0.505,1,12672.587,2
0,398,target,"[(1114, 784)]",[],[1],[0.55],vertical,"(890.0, 262.0)",1.5,0.505,1,12678.156,2
0,399,target,"[(1095, 786)]",[],[1],[0.55],vertical,"(890.0, 262.0)",0.6833333333333333,0.512,1,12683.572,2
0,400,target,"[(1103, 789)]",[],[1],[0.45],vertical,"(890.0, 762.0)",1.2833333333333332,0.409,1,12688.438,2
0,401,target,"[(1074, 766)]",[],[1],[0.6333333333333333],vertical,"(890.0, 262.0)",0.8,0.608,1,12693.689,2
0,402,target,"[(1090, 779)]",[],[1],[0.48333333333333334],vertical,"(890.0, 762.0)",1.05,0.439,1,12698.657,3
0,403,target,"[(1098, 783)]",[],[1],[0.6166666666666667],horizontal,"(390.0, 262.0)",0.8333333333333334,0.573,1,12704.116,3
0,404,catch,"[(1075, 766)]",[],[1],[],horizontal,"(890.0, 762.0)",1.45,nan,1,12709.339,3
0,405,target,"[(1104, 776)]",[],[1],[0.5],horizontal,"(890.0, 762.0)",1.05,0.457,1,12714.655,3
0,406,target,"[(1099, 786)]",[],[1],[0.5],horizontal,"(390.0, 262.0)",1.3166666666666667,0.458,1,12719.972,3
0,407,target,"[(1075, 783)]",[],[1],[0.2],horizontal,"(390.0, 762.0)",1.5833333333333333,0.168,1,12725.59,3
0,408,target,"[(1090, 789)]",[],[1],[0.6666666666666666],vertical,"(390.0, 762.0)",0.6166666666666667,0.619,1,12731.511,3
0,409,target,"[(1107, 776)]",[],[1],[0.3833333333333333],vertical,"(890.0, 262.0)",1.3833333333333333,0.341,1,12737.004,3
0,410,target,"[(1086, 766)]",[],[1],[0.5166666666666666],vertical,"(890.0, 262.0)",1.15,0.474,1,12742.457,3
0,411,target,"[(1097, 786)]",[],[1],[0.5333333333333333],vertical,"(890.0, 262.0)",0.8166666666666667,0.488,1,12748.114,3
0,412,target,"[(1096, 781)]",[],[1],[0.5166666666666666],horizontal,"(390.0, 762.0)",1.1666666666666667,0.489,1,12753.775,3
0,413,target,"[(1110, 786)]",[],[1],[],vertical,"(890.0, 262.0)",,"('cti', 1.351)",0,12759.424,0
0,414,target,"[(1100, 795)]",[],[1],[0.48333333333333334],horizontal,"(390.0, 762.0)",1.1666666666666667,0.441,1,12763.99,1
0,415,target,"[(1095, 785)]",[],[1],[0.15],vertical,"(390.0, 762.0)",1.5166666666666666,0.117,0,12768.804,0
0,416,target,"[(1103, 786)]",[],[1],[0.5333333333333333],vertical,"(390.0, 262.0)",0.8166666666666667,0.493,1,12773.627,1
0,417,target,"[(1121, 795)]",[],[1],[0.5333333333333333],horizontal,"(890.0, 262.0)",1.0833333333333333,0.491,1,12778.208,1
0,418,target,"[(1111, 770)]",[],[1],[0.2833333333333333],horizontal,"(890.0, 262.0)",1.3833333333333333,0.252,1,12782.874,1
0,419,target,"[(1086, 794)]",[],[1],[],horizontal,"(890.0, 262.0)",,"('cti', 1.295)",0,12787.98,0
0,420,target,"[(1087, 785)]",[],[1],[0.21666666666666667],vertical,"(390.0, 762.0)",1.6166666666666667,0.185,1,12792.46,1
0,421,target,"[(1061, 781)]",[],[1],[0.6166666666666667],vertical,"(890.0, 762.0)",1.05,0.573,1,12797.716,1
0,422,target,"[(1099, 811)]",[],[1],[],horizontal,"(890.0, 262.0)",,"('cti', 1.284)",0,12810.973,0
0,423,target,"[(1094, 785)]",[],[1],[0.6333333333333333],horizontal,"(890.0, 762.0)",0.7,0.592,1,12815.991,1
0,424,target,"[(1095, 781)]",[],[1],[],horizontal,"(390.0, 262.0)",,"('cti', 1.151)",0,12820.926,0
0,425,catch,"[(1104, 781)]",[],[1],[],horizontal,"(390.0, 762.0)",,"('cti', 1.169),nan",0,12825.591,0
0,426,target,"[(1083, 783)]",[],[1],[0.5],horizontal,"(390.0, 762.0)",1.45,0.459,1,12829.67,1
0,427,target,"[(1104, 770)]",[],[1],[0.6333333333333333],horizontal,"(390.0, 762.0)",0.5333333333333333,0.592,1,12835.291,1
0,428,target,"[(1085, 774)]",[],[1],[0.6],vertical,"(390.0, 262.0)",1.3,0.559,1,12839.72,1
0,429,target,"[(1104, 780)]",[],[1],[0.5],vertical,"(890.0, 262.0)",1.1666666666666667,0.458,1,12844.641,2
0,430,target,"[(1108, 778)]",[],[1],[0.25],horizontal,"(390.0, 762.0)",1.3333333333333333,0.216,1,12850.351,2
0,431,target,"[(1081, 776)]",[],[1],[],vertical,"(890.0, 762.0)",,"('cti', 1.553)",0,12855.506,0
0,432,target,"[(1085, 784)]",[],[1],[0.5833333333333334],vertical,"(890.0, 762.0)",1.1333333333333333,0.544,1,12860.213,1
0,433,target,"[(1075, 755)]",[],[1],[0.5666666666666667],vertical,"(890.0, 762.0)",1.4333333333333333,0.527,1,12865.357,1
0,434,target,"[(1095, 776)]",[],[1],[0.6333333333333333],vertical,"(890.0, 262.0)",0.5,0.599,1,12870.325,1
0,435,target,"[(1104, 795)]",[],[1],[0.5666666666666667],vertical,"(890.0, 762.0)",1.0166666666666666,0.531,1,12874.877,2
0,436,target,"[(1088, 774)]",[],[1],[0.5333333333333333],horizontal,"(890.0, 262.0)",0.7833333333333333,0.498,1,12880.708,2
0,437,target,"[(1082, 778)]",[],[1],[0.6],horizontal,"(890.0, 262.0)",0.6333333333333333,0.563,1,12885.723,2
0,438,target,"[(1063, 806)]",[],[1],[0.5333333333333333],horizontal,"(890.0, 762.0)",1.3166666666666667,0.495,1,12890.431,2
0,439,target,"[(1044, 769)]",[],[1],[0.16666666666666666],vertical,"(390.0, 762.0)",1.5833333333333333,0.137,0,12897.292,0
0,440,target,"[(1104, 806)]",[],[1],[0.36666666666666664],vertical,"(390.0, 262.0)",1.1833333333333333,0.332,1,12928.574,1
0,441,target,"[(1104, 778)]",[],[1],[],vertical,"(390.0, 262.0)",,"('cti', 1.585)",0,12933.639,0
0,442,target,"[(1104, 804)]",[],[1],[0.5666666666666667],horizontal,"(390.0, 762.0)",1.05,0.528,1,12938.258,1
0,443,target,"[(1104, 794)]",[],[1],[0.5166666666666666],horizontal,"(390.0, 762.0)",0.8666666666666667,0.486,1,12943.065,1
0,444,target,"[(1122, 801)]",[],[1],[0.7166666666666667],horizontal,"(890.0, 762.0)",0.8,0.676,1,12947.862,1
0,445,target,"[(1104, 792)]",[],[1],[0.75],vertical,"(890.0, 262.0)",1.45,0.709,1,12953.074,2
0,446,target,"[(1119, 784)]",[],[1],[],horizontal,"(390.0, 262.0)",,"('cti', 0.931)",0,12958.996,0
0,447,target,"[(1110, 770)]",[],[1],[0.5833333333333334],horizontal,"(390.0, 762.0)",0.8666666666666667,0.544,1,12963.407,1
0,448,target,"[(1061, 755)]",[],[1],[0.5166666666666666],vertical,"(390.0, 262.0)",0.5333333333333333,0.474,1,12968.364,1
0,449,catch,"[(1071, 769)]",[],[1],[],vertical,"(890.0, 762.0)",1.5,nan,1,12973.341,1
0,450,target,"[(1075, 785)]",[],[1],[],horizontal,"(390.0, 762.0)",,"('cti', 1.386)",0,12978.608,0
0,451,target,"[(1103, 748), (1075, 786)]",[],"[0, 1]",[0.48333333333333334],vertical,"(890.0, 762.0)",1.1833333333333333,0.443,1,12983.391,1
0,452,target,"[(1096, 794)]",[],[1],[0.23333333333333334],horizontal,"(890.0, 262.0)",1.4666666666666666,0.198,1,12989.686,1
0,453,catch,"[(1072, 786)]",[],[1],[],vertical,"(390.0, 762.0)",,"('cti', 1.075),nan",0,12994.692,0
0,454,target,"[(1095, 768)]",[],[1],[0.6333333333333333],horizontal,"(890.0, 262.0)",1.2333333333333334,0.588,1,12999.059,1
0,455,target,"[(1078, 795)]",[],[1],[0.6666666666666666],horizontal,"(390.0, 762.0)",0.7833333333333333,0.624,1,13004.476,1
0,456,catch,"[(1081, 801)]",[],[1],[],vertical,"(890.0, 762.0)",1.25,nan,1,13010.001,1
0,457,target,"[(1083, 776)]",[],[1],[0.5833333333333334],horizontal,"(390.0, 262.0)",0.6666666666666666,0.548,1,13014.342,2
0,458,target,"[(1088, 791)]",[],[1],[0.16666666666666666],horizontal,"(890.0, 262.0)",1.3833333333333333,0.135,0,13018.942,0
0,459,target,"[(1109, 778)]",[],[1],[0.11666666666666667],vertical,"(390.0, 262.0)",1.3833333333333333,0.084,0,13023.698,0
0,460,target,"[(1086, 766)]",[],[1],[0.85],horizontal,"(390.0, 262.0)",1.0,nan,0,13028.506,0
0,461,catch,"[(1060, 841)]",[],[1],[],horizontal,"(890.0, 762.0)",1.65,nan,1,13033.267,1
0,462,target,"[(1064, 809)]",[],[1],[0.5666666666666667],vertical,"(890.0, 262.0)",0.9333333333333333,0.526,1,14549.938,1
0,463,target,"[(1072, 766)]",[],[1],[0.55],vertical,"(390.0, 262.0)",1.0166666666666666,0.522,1,14554.636,1
0,464,target,"[(1075, 770)]",[],[1],[0.3],horizontal,"(890.0, 762.0)",1.3333333333333333,0.265,1,14559.439,2
0,465,target,"[(1085, 775)]",[],[1],[0.2833333333333333],horizontal,"(890.0, 262.0)",1.1666666666666667,0.244,1,14566.03,2
0,466,catch,"[(1107, 779)]",[],[1],[],vertical,"(890.0, 762.0)",1.5,nan,1,14571.564,2
0,467,target,"[(1109, 762)]",[],[1],[0.5666666666666667],vertical,"(890.0, 262.0)",0.5333333333333333,0.525,1,14576.588,2
0,468,target,"[(1080, 796)]",[],[1],[0.5166666666666666],horizontal,"(890.0, 262.0)",0.7333333333333333,0.478,1,14581.321,2
0,469,target,"[(1081, 756)]",[],[1],[0.5166666666666666],vertical,"(390.0, 262.0)",0.8166666666666667,0.473,1,14586.67,3
0,470,target,"[(1074, 773)]",[],[1],[0.48333333333333334],horizontal,"(390.0, 762.0)",0.8166666666666667,0.451,1,14592.319,3
0,471,target,"[(1124, 784)]",[],[1],[0.45],vertical,"(890.0, 262.0)",0.7833333333333333,0.411,1,14598.054,3
0,472,target,"[(1102, 781)]",[],[1],[0.5833333333333334],horizontal,"(390.0, 762.0)",0.6,0.542,1,14603.547,3
0,473,target,"[(1080, 768)]",[],[1],[0.18333333333333332],vertical,"(890.0, 762.0)",1.4666666666666666,0.152,1,14608.82,3
0,474,target,"[(1099, 782)]",[],[1],[0.15],vertical,"(390.0, 262.0)",1.5333333333333332,0.116,0,14614.442,0
0,475,target,"[(1126, 801)]",[],[1],[0.35],vertical,"(390.0, 262.0)",1.4166666666666667,0.314,1,14619.338,1
0,476,catch,"[(1095, 779)]",[],[1],[],vertical,"(390.0, 762.0)",1.45,nan,1,14624.484,1
0,477,catch,"[(1081, 791)]",[],[1],[],horizontal,"(890.0, 262.0)",1.3666666666666667,nan,1,14629.02,1
0,478,target,"[(1098, 770)]",[],[1],[0.11666666666666667],vertical,"(890.0, 762.0)",1.65,0.083,0,14633.788,0
0,479,target,"[(1109, 772)]",[],[1],[],horizontal,"(390.0, 262.0)",,"('cti', 1.557)",0,14638.574,0
0,480,target,"[(1057, 806)]",[],[1],[0.6166666666666667],horizontal,"(390.0, 762.0)",0.8166666666666667,0.573,1,14642.84,1
0,481,target,"[(1085, 797)]",[],[1],[0.55],horizontal,"(390.0, 262.0)",0.8666666666666667,0.506,1,14648.205,1
0,482,target,"[(1104, 795)]",[],[1],[0.55],horizontal,"(390.0, 262.0)",0.75,0.511,1,14652.663,1
0,483,target,"[(1099, 795)]",[],[1],[0.1],horizontal,"(890.0, 762.0)",1.4166666666666667,0.071,0,14657.448,0
0,484,target,"[(1104, 790)]",[],[1],[0.55],horizontal,"(890.0, 762.0)",1.2833333333333332,0.506,1,14661.971,1
0,485,target,"[(1090, 786)]",[],[1],[0.6166666666666667],horizontal,"(390.0, 262.0)",0.7833333333333333,0.572,1,14667.272,1
0,486,target,"[(1055, 781)]",[],[1],[0.5166666666666666],horizontal,"(890.0, 762.0)",1.1666666666666667,0.477,1,14672.147,1
0,487,target,"[(1075, 795)]",[],[1],[0.5166666666666666],horizontal,"(890.0, 262.0)",0.85,0.473,1,14677.409,2
0,488,target,"[(1105, 793)]",[],[1],[0.3333333333333333],horizontal,"(390.0, 262.0)",1.1833333333333333,0.296,1,14682.486,2
0,489,target,"[(1100, 776)]",[],[1],[0.48333333333333334],horizontal,"(890.0, 762.0)",1.2833333333333332,0.45,1,14687.821,2
0,490,target,"[(1113, 780)]",[],[1],[0.5],horizontal,"(390.0, 262.0)",0.9,0.461,1,14693.441,2
0,491,target,"[(1103, 761)]",[],[1],[0.36666666666666664],vertical,"(390.0, 262.0)",1.2666666666666666,0.334,1,14698.423,2
0,492,target,"[(1087, 773)]",[],[1],[0.5166666666666666],vertical,"(890.0, 262.0)",0.6333333333333333,0.492,1,14703.679,3
0,493,target,"[(1077, 778)]",[],[1],[0.5833333333333334],horizontal,"(390.0, 262.0)",0.6,0.543,1,14708.854,3
0,494,target,"[(1059, 778)]",[],[1],[0.23333333333333334],horizontal,"(390.0, 262.0)",1.2666666666666666,0.201,1,14714.107,3
0,495,catch,"[(1041, 781)]",[],[1],[],horizontal,"(390.0, 762.0)",,"('cti', 0.542),nan",0,14720.315,0
0,496,target,"[(1071, 800)]",[],[1],[0.5166666666666666],horizontal,"(890.0, 262.0)",0.7333333333333333,0.477,1,14724.476,1
0,497,target,"[(1060, 771)]",[],[1],[0.5333333333333333],horizontal,"(890.0, 262.0)",0.5833333333333334,0.492,1,14731.385,1
0,498,target,"[(1057, 773)]",[],[1],[0.05],horizontal,"(890.0, 262.0)",1.6833333333333333,0.018,0,14735.754,0
0,499,target,"[(1085, 780)]",[],[1],[0.5833333333333334],vertical,"(890.0, 262.0)",0.7,0.545,1,14740.555,1
0,500,target,"[(1085, 792)]",[],[1],[0.25],vertical,"(390.0, 762.0)",1.0333333333333332,0.215,1,14745.139,1
0,501,target,"[(1098, 798)]",[],[1],[0.06666666666666667],vertical,"(890.0, 762.0)",1.5666666666666667,0.035,0,14750.128,0
0,502,target,"[(1081, 769)]",[],[1],[0.5333333333333333],vertical,"(390.0, 762.0)",0.7166666666666667,0.492,1,14755.147,1
0,503,catch,"[(1081, 781)]",[],[1],[],horizontal,"(890.0, 262.0)",1.3333333333333333,nan,1,14759.555,1
0,504,target,"[(1085, 779)]",[],[1],[0.7],horizontal,"(390.0, 762.0)",1.05,0.656,1,14764.092,1
0,505,target,"[(1119, 769)]",[],[1],[0.6166666666666667],horizontal,"(890.0, 262.0)",0.95,0.574,1,14769.056,2
0,506,target,"[(1123, 754)]",[],[1],[],horizontal,"(390.0, 762.0)",,"('cti', 1.508)",0,14773.987,0
0,507,target,"[(1124, 788)]",[],[1],[0.43333333333333335],vertical,"(390.0, 262.0)",1.3833333333333333,0.393,1,14778.422,1
0,508,target,"[(1100, 765)]",[],[1],[0.5333333333333333],horizontal,"(890.0, 262.0)",0.9333333333333333,0.493,1,14783.572,1
0,509,target,"[(1092, 762)]",[],[1],[0.45],vertical,"(390.0, 262.0)",1.15,0.413,1,14788.139,1
0,510,target,"[(1077, 791)]",[],[1],[],horizontal,"(890.0, 762.0)",,"('cti', 1.507)",0,14793.305,0
0,511,catch,"[(1119, 801)]",[],[1],[],horizontal,"(390.0, 262.0)",1.45,nan,1,14797.907,1
0,512,target,"[(1104, 780)]",[],[1],[0.3],vertical,"(890.0, 762.0)",1.4833333333333334,0.265,1,14802.644,1
0,513,target,"[(1099, 776)]",[],[1],[0.5166666666666666],horizontal,"(890.0, 262.0)",0.5666666666666667,0.478,1,14807.917,1
0,514,target,"[(1104, 770)]",[],[1],[0.21666666666666667],horizontal,"(890.0, 762.0)",1.65,0.181,1,14812.356,2
0,515,target,"[(1105, 796)]",[],[1],[0.5833333333333334],vertical,"(890.0, 762.0)",0.7333333333333333,0.543,1,14817.787,2
0,516,target,"[(1100, 796)]",[],[1],[0.43333333333333335],horizontal,"(890.0, 762.0)",1.25,0.398,1,14823.082,2
0,517,target,"[(1104, 790)]",[],[1],[0.85],vertical,"(890.0, 762.0)",1.65,"('cti', 1.629),nan",0,14828.621,0
0,518,target,"[(1075, 779)]",[],[1],[0.16666666666666666],horizontal,"(390.0, 262.0)",1.4166666666666667,0.133,0,14834.375,0
0,519,target,"[(1133, 779)]",[],[1],[0.65],horizontal,"(390.0, 762.0)",1.0833333333333333,0.605,1,14839.391,1
0,520,target,"[(1067, 770)]",[],[1],[0.5666666666666667],horizontal,"(890.0, 262.0)",0.8666666666666667,0.521,1,14844.226,1
0,521,target,"[(1085, 775)]",[],[1],[0.6],horizontal,"(890.0, 762.0)",0.5666666666666667,0.555,1,14849.301,1
0,522,target,"[(1095, 795)]",[],[1],[0.43333333333333335],horizontal,"(890.0, 262.0)",1.2666666666666666,0.395,1,14854.245,2
0,523,target,"[(1090, 786)]",[],[1],[0.3833333333333333],horizontal,"(890.0, 762.0)",1.1,0.344,1,14859.789,2
0,524,target,"[(1082, 795)]",[],[1],[],vertical,"(390.0, 762.0)",,"('cti', 1.112)",0,14864.907,0
0,525,target,"[(1095, 791)]",[],[1],[0.65],horizontal,"(890.0, 262.0)",0.8,0.606,1,14869.34,1
0,526,target,"[(1110, 782)]",[],[1],[0.55],horizontal,"(890.0, 262.0)",0.5333333333333333,0.503,1,14874.365,1
0,527,target,"[(1098, 786)]",[],[1],[0.45],horizontal,"(390.0, 762.0)",1.2833333333333332,0.411,1,14878.589,1
0,528,target,"[(1085, 774)]",[],[1],[0.85],vertical,"(390.0, 762.0)",0.8166666666666667,nan,0,14883.528,0
0,529,target,"[(1107, 759)]",[],[1],[0.6166666666666667],horizontal,"(390.0, 262.0)",0.7666666666666666,0.572,1,14888.373,1
0,530,target,"[(1084, 780)]",[],[1],[0.6333333333333333],vertical,"(390.0, 762.0)",0.5166666666666666,0.584,1,14892.688,1
0,531,catch,"[(1099, 761)]",[],[1],[],horizontal,"(390.0, 262.0)",,"('cti', 1.495),nan",0,14897.257,0
0,532,target,"[(1095, 774)]",[],[1],[0.5333333333333333],vertical,"(890.0, 262.0)",0.8166666666666667,0.487,1,14902.138,1
0,533,catch,"[(1104, 800)]",[],[1],[],horizontal,"(390.0, 262.0)",1.3666666666666667,nan,1,14906.673,1
0,534,catch,"[(1101, 790)]",[],[1],[],vertical,"(890.0, 262.0)",1.3833333333333333,nan,1,14911.438,1
0,535,target,"[(1078, 789)]",[],[1],[0.18333333333333332],vertical,"(890.0, 262.0)",1.4833333333333334,0.148,0,14915.907,0
0,536,target,"[(1113, 776)]",[],[1],[0.5166666666666666],horizontal,"(890.0, 262.0)",0.9166666666666666,0.474,1,14920.89,1
0,537,target,"[(1079, 777)]",[],[1],[0.5166666666666666],horizontal,"(890.0, 262.0)",1.0166666666666666,0.475,1,14925.222,1
0,538,target,"[(1075, 760)]",[],[1],[0.5333333333333333],vertical,"(390.0, 262.0)",1.1,0.495,1,14930.255,1
0,539,catch,"[(1084, 771)]",[],[1],[],vertical,"(890.0, 262.0)",1.35,nan,1,14935.277,2
0,540,target,"[(1104, 796)]",[],[1],[0.26666666666666666],horizontal,"(390.0, 262.0)",1.0333333333333332,0.231,1,14940.325,2
0,541,target,"[(1094, 768)]",[],[1],[0.35],vertical,"(390.0, 762.0)",1.2833333333333332,0.315,1,14945.506,2
0,542,target,"[(1080, 790)]",[],[1],[0.7333333333333333],horizontal,"(390.0, 262.0)",0.5,0.681,1,14951.157,2
0,543,catch,"[(1096, 784)]",[],[1],[],horizontal,"(890.0, 762.0)",1.25,nan,1,14956.059,2
0,544,target,"[(1089, 799)]",[],[1],[0.35],horizontal,"(390.0, 262.0)",1.3666666666666667,0.315,1,14960.909,3
0,545,target,"[(1102, 779)]",[],[1],[0.5333333333333333],vertical,"(890.0, 762.0)",1.2,0.489,1,14966.651,3
0,546,target,"[(1094, 773)]",[],[1],[0.55],horizontal,"(890.0, 762.0)",0.9166666666666666,0.508,1,14972.479,3
0,547,target,"[(1098, 761)]",[],[1],[],horizontal,"(890.0, 262.0)",,"('cti', 1.251)",0,14977.874,0
0,548,target,"[(1077, 811)]",[],[1],[0.25],horizontal,"(890.0, 262.0)",1.4166666666666667,0.216,1,14982.215,1
0,549,target,"[(1094, 785)]",[],[1],[0.13333333333333333],horizontal,"(390.0, 262.0)",1.5666666666666667,0.101,0,14997.427,0
0,550,target,"[(1101, 780)]",[],[1],[0.5666666666666667],vertical,"(890.0, 762.0)",1.0333333333333332,0.522,1,15002.275,1
0,551,catch,"[(1091, 785)]",[],[1],[],vertical,"(390.0, 762.0)",1.3666666666666667,nan,1,15007.239,1
0,552,target,"[(1062, 781)]",[],[1],[0.48333333333333334],horizontal,"(390.0, 262.0)",1.3166666666666667,0.439,1,15011.645,1
0,553,target,"[(1095, 809)]",[],[1],[0.5666666666666667],vertical,"(890.0, 262.0)",0.75,0.52,1,15016.955,2
0,554,target,"[(1104, 796)]",[],[1],[0.35],horizontal,"(390.0, 762.0)",1.1333333333333333,0.311,1,15022.041,2
0,555,target,"[(1100, 792)]",[],[1],[0.5333333333333333],horizontal,"(390.0, 262.0)",0.7666666666666666,0.494,1,15027.574,2
0,556,catch,"[(1075, 784)]",[],[1],[],vertical,"(390.0, 762.0)",,"('cti', 1.15),nan",0,15032.891,0
0,557,target,"[(1090, 775)]",[],[1],[0.26666666666666666],vertical,"(390.0, 262.0)",1.5833333333333333,0.227,1,15036.78,1
0,558,target,"[(1080, 796)]",[],[1],[0.6],horizontal,"(890.0, 762.0)",0.9,0.561,1,15041.808,1
0,559,target,"[(1090, 778)]",[],[1],[0.85],horizontal,"(390.0, 262.0)",1.0,nan,0,15046.725,0
0,560,target,"[(1058, 782)]",[],[1],[0.55],horizontal,"(390.0, 262.0)",0.5833333333333334,0.508,1,15051.39,1
0,561,target,"[(1061, 753), (1066, 797)]",[],"[0, 1]",[0.5833333333333334],horizontal,"(890.0, 762.0)",0.8333333333333334,0.543,1,15056.525,1
0,562,target,"[(1089, 784)]",[],[1],[0.48333333333333334],horizontal,"(390.0, 762.0)",0.9833333333333333,0.444,1,15063.142,1
0,563,target,"[(1061, 771)]",[],[1],[0.5666666666666667],vertical,"(890.0, 762.0)",1.45,0.525,1,15068.074,2
0,564,target,"[(1077, 761)]",[],[1],[0.85],horizontal,"(890.0, 262.0)",1.6333333333333333,"('cti', 1.62),nan",0,15073.59,0
0,565,target,"[(1105, 781)]",[],[1],[0.4166666666666667],vertical,"(890.0, 762.0)",1.3833333333333333,0.378,1,15079.142,1
0,566,target,"[(1117, 773)]",[],[1],[0.36666666666666664],horizontal,"(890.0, 762.0)",1.2333333333333334,0.33,1,15084.191,1
0,567,target,"[(1084, 797)]",[],[1],[],vertical,"(390.0, 262.0)",,"('cti', 1.184)",0,15089.075,0
0,568,target,"[(1061, 768)]",[],[1],[0.6833333333333333],horizontal,"(390.0, 262.0)",0.5666666666666667,0.646,1,15093.776,1
0,569,target,"[(1120, 790)]",[],[1],[0.5666666666666667],vertical,"(890.0, 762.0)",0.8666666666666667,0.528,1,15099.144,1
0,570,target,"[(1066, 779)]",[],[1],[0.5333333333333333],horizontal,"(390.0, 262.0)",1.0333333333333332,0.494,1,15104.491,1
0,571,target,"[(1104, 757)]",[],[1],[0.26666666666666666],vertical,"(890.0, 762.0)",1.4166666666666667,0.235,1,15109.559,2
0,572,target,"[(1105, 786)]",[],[1],[0.23333333333333334],horizontal,"(390.0, 762.0)",1.45,0.199,1,15115.315,2
0,573,target,"[(1094, 784)]",[],[1],[0.5666666666666667],vertical,"(890.0, 262.0)",0.8666666666666667,0.526,1,15120.701,2
0,574,target,"[(1081, 760)]",[],[1],[0.6],vertical,"(890.0, 262.0)",0.7833333333333333,0.559,1,15125.892,2
0,575,target,"[(1106, 781)]",[],[1],[0.31666666666666665],horizontal,"(390.0, 762.0)",1.2333333333333334,0.285,1,15130.907,2
0,576,target,"[(1107, 780)]",[],[1],[0.5666666666666667],horizontal,"(390.0, 762.0)",0.75,0.531,1,15136.308,3
0,577,target,"[(1085, 784)]",[],[1],[0.5333333333333333],horizontal,"(890.0, 762.0)",0.6166666666666667,0.501,1,15141.842,3
0,578,target,"[(1076, 759)]",[],[1],[0.6],horizontal,"(890.0, 762.0)",1.2333333333333334,0.553,1,15147.501,3
0,579,target,"[(1074, 767)]",[],[1],[0.26666666666666666],horizontal,"(390.0, 262.0)",1.0333333333333332,0.233,1,15153.526,3
0,580,target,"[(1082, 761)]",[],[1],[0.5],vertical,"(890.0, 262.0)",1.1833333333333333,0.458,1,15159.292,3
0,581,target,"[(1082, 775)]",[],[1],[0.45],horizontal,"(390.0, 762.0)",1.5666666666666667,0.407,1,15164.93,3
0,582,catch,"[(1076, 765)]",[],[1],[],horizontal,"(890.0, 762.0)",1.55,nan,1,15171.026,3
0,583,target,"[(1084, 784)]",[],[1],[0.5833333333333334],horizontal,"(390.0, 262.0)",0.5833333333333334,0.543,1,15177.191,3
0,584,target,"[(1105, 756)]",[],[1],[0.5666666666666667],vertical,"(890.0, 762.0)",1.1166666666666667,0.525,1,15182.658,3
0,585,target,"[(1080, 766)]",[],[1],[0.5833333333333334],horizontal,"(390.0, 262.0)",1.0,0.544,1,15188.391,3
0,586,target,"[(1084, 767)]",[],[1],[0.55],horizontal,"(390.0, 262.0)",1.2,0.507,1,15193.601,3
0,587,target,"[(1102, 796)]",[],[1],[0.85],horizontal,"(390.0, 762.0)",0.7166666666666667,nan,0,15198.976,0
0,588,target,"[(1085, 767)]",[],[1],[0.5166666666666666],horizontal,"(890.0, 762.0)",1.2833333333333332,0.482,1,15203.507,1
0,589,target,"[(1100, 764)]",[],[1],[0.5],horizontal,"(890.0, 262.0)",1.2,0.467,1,15208.26,1
0,590,target,"[(1058, 758)]",[],[1],[0.15],vertical,"(390.0, 762.0)",1.6333333333333333,0.115,0,15213.624,0
0,591,target,"[(1075, 786)]",[],[1],[0.5],vertical,"(390.0, 262.0)",1.4166666666666667,0.462,1,15218.667,1
0,592,target,"[(1104, 769)]",[],[1],[0.36666666666666664],horizontal,"(390.0, 262.0)",1.4166666666666667,0.33,1,15223.827,1
0,593,target,"[(1085, 761)]",[],[1],[0.5166666666666666],horizontal,"(890.0, 762.0)",1.4333333333333333,0.473,1,15229.092,1
0,594,target,"[(1080, 780)]",[],[1],[0.7833333333333333],horizontal,"(890.0, 762.0)",0.5333333333333333,0.744,1,15233.926,2
0,595,target,"[(1104, 772)]",[],[1],[0.55],vertical,"(890.0, 762.0)",1.15,0.515,1,15239.409,2
0,596,target,"[(1097, 766)]",[],[1],[0.6333333333333333],vertical,"(890.0, 262.0)",0.85,0.591,1,15244.893,2
0,597,target,"[(1077, 773)]",[],[1],[0.6],horizontal,"(890.0, 762.0)",0.6833333333333333,0.563,1,15250.075,2
0,598,target,"[(1090, 743), (1085, 783)]",[],"[0, 1]",[0.85],horizontal,"(390.0, 762.0)",0.7333333333333333,nan,0,15255.16,0
0,599,target,"[(1082, 774)]",[],[1],[0.5166666666666666],horizontal,"(390.0, 262.0)",1.55,0.481,1,15260.62,1
0,600,target,"[(1080, 768)]",[],[1],[0.55],horizontal,"(890.0, 262.0)",0.5,0.512,1,15265.959,1
0,601,target,"[(1066, 768)]",[],[1],[0.4166666666666667],vertical,"(890.0, 762.0)",1.4833333333333334,0.376,1,15270.377,1
0,602,catch,"[(1075, 766)]",[],[1],[],vertical,"(890.0, 762.0)",1.4833333333333334,nan,1,15275.774,2
0,603,target,"[(1086, 752), (1065, 791)]",[],"[0, 1]",[0.4666666666666667],vertical,"(390.0, 762.0)",0.8166666666666667,0.427,1,15281.125,2
0,604,target,"[(1068, 791)]",[],[1],[0.5666666666666667],vertical,"(890.0, 262.0)",0.5,0.527,1,15287.66,2
0,605,target,"[(1065, 774)]",[],[1],[0.6],horizontal,"(390.0, 762.0)",1.25,0.558,1,15292.742,2
0,606,target,"[(1104, 787)]",[],[1],[0.6833333333333333],vertical,"(890.0, 762.0)",0.75,0.637,1,15298.26,2
0,607,target,"[(1098, 770)]",[],[1],[0.6],vertical,"(390.0, 262.0)",1.1,0.562,1,15303.843,3
0,608,target,"[(1081, 769)]",[],[1],[0.5],vertical,"(890.0, 262.0)",0.9,0.463,1,15309.542,3
0,609,target,"[(1100, 766)]",[],[1],[0.6333333333333333],vertical,"(890.0, 262.0)",0.9333333333333333,0.593,1,15315.27,3
0,610,target,"[(1114, 791)]",[],[1],[0.05],vertical,"(390.0, 262.0)",1.6333333333333333,0.019,0,15321.259,0
0,611,catch,"[(1084, 788)]",[],[1],[],horizontal,"(390.0, 262.0)",1.5166666666666666,nan,1,15326.529,1
0,612,target,"[(1074, 756)]",[],[1],[0.6666666666666666],vertical,"(390.0, 262.0)",0.9833333333333333,0.624,1,15331.294,1
0,613,target,"[(1074, 779)]",[],[1],[0.5],vertical,"(890.0, 262.0)",1.2833333333333332,0.462,1,15336.16,1
0,614,target,"[(1100, 796)]",[],[1],[0.23333333333333334],horizontal,"(390.0, 262.0)",1.2666666666666666,0.2,1,15341.576,2
0,615,target,"[(1083, 798)]",[],[1],[0.85],vertical,"(390.0, 762.0)",0.5166666666666666,nan,0,15347.027,0
0,616,target,"[(1082, 763)]",[],[1],[0.5666666666666667],horizontal,"(390.0, 262.0)",0.6833333333333333,0.533,1,15351.729,1
0,617,target,"[(1079, 744), (1079, 745), (1095, 791)]",[],"[0, 0, 1]",[],horizontal,"(390.0, 262.0)",,"('cti', 1.409)",0,15356.694,0
0,618,target,"[(1096, 786)]",[],[1],[0.5666666666666667],horizontal,"(390.0, 262.0)",0.9,0.529,1,15363.719,1
0,619,target,"[(1080, 791)]",[],[1],[0.5833333333333334],vertical,"(890.0, 262.0)",0.65,0.542,1,15368.448,1
0,620,target,"[(1067, 763)]",[],[1],[0.6166666666666667],horizontal,"(890.0, 762.0)",1.5333333333333332,0.578,1,15373.072,1
0,621,catch,"[(1077, 782)]",[],[1],[],vertical,"(390.0, 762.0)",1.5,nan,1,15378.61,2
0,622,target,"[(1076, 783)]",[],[1],[0.6333333333333333],vertical,"(390.0, 262.0)",0.85,0.593,1,15383.943,2
0,623,catch,"[(1086, 766)]",[],[1],[],vertical,"(890.0, 762.0)",1.55,nan,1,15389.362,2
0,624,target,"[(1085, 768)]",[],[1],[0.55],vertical,"(390.0, 762.0)",1.4666666666666666,0.512,1,15394.927,2
0,625,target,"[(1061, 779)]",[],[1],[0.6],horizontal,"(890.0, 262.0)",0.9166666666666666,0.565,1,15400.71,2
0,626,target,"[(1062, 789)]",[],[1],[0.15],horizontal,"(890.0, 262.0)",1.5166666666666666,0.115,0,15406.211,0
0,627,target,"[(1073, 769)]",[],[1],[0.6166666666666667],horizontal,"(390.0, 262.0)",0.9166666666666666,0.581,1,15410.927,1
0,628,target,"[(1073, 761)]",[],[1],[0.43333333333333335],vertical,"(890.0, 262.0)",1.55,0.397,1,15416.21,1
0,629,catch,"[(1081, 779)]",[],[1],[],vertical,"(890.0, 262.0)",1.25,nan,1,15421.56,1
0,630,target,"[(1090, 756)]",[],[1],[0.5666666666666667],vertical,"(890.0, 262.0)",0.95,0.521,1,15426.386,2
0,631,target,"[(1062, 783)]",[],[1],[0.05],vertical,"(890.0, 262.0)",1.5833333333333333,0.02,0,15431.96,0
0,632,target,"[(1114, 771)]",[],[1],[0.7833333333333333],vertical,"(890.0, 762.0)",0.5166666666666666,0.735,1,15437.71,1
0,633,target,"[(1068, 786)]",[],[1],[0.85],horizontal,"(390.0, 762.0)",0.8,nan,0,15442.219,0
0,634,target,"[(1099, 836)]",[],[1],[0.65],horizontal,"(390.0, 262.0)",0.9,0.607,1,15447.062,1
0,635,target,"[(1070, 825)]",[],[1],[0.75],vertical,"(390.0, 762.0)",1.0833333333333333,0.706,1,17994.532,1
0,636,target,"[(1086, 796)]",[],[1],[0.35],horizontal,"(390.0, 262.0)",1.5833333333333333,0.31,1,17999.586,1
0,637,target,"[(1075, 803)]",[],[1],[0.5666666666666667],vertical,"(390.0, 762.0)",1.1833333333333333,0.528,1,18005.151,2
0,638,catch,"[(1079, 785)]",[],[1],[],horizontal,"(390.0, 262.0)",1.65,nan,1,18011.014,2
0,639,target,"[(1066, 805)]",[],[1],[0.5333333333333333],vertical,"(390.0, 762.0)",1.1333333333333333,0.493,1,18016.816,2
0,640,target,"[(1077, 798)]",[],[1],[0.45],horizontal,"(890.0, 762.0)",1.1833333333333333,0.414,1,18022.593,2
0,641,target,"[(1086, 778)]",[],[1],[0.7],vertical,"(890.0, 762.0)",0.5,0.65,1,18027.766,2
0,642,target,"[(1097, 799)]",[],[1],[0.26666666666666666],horizontal,"(890.0, 262.0)",1.4333333333333333,0.23,1,18032.632,3
0,643,target,"[(1075, 774)]",[],[1],[0.5166666666666666],vertical,"(390.0, 762.0)",1.4166666666666667,0.478,1,18039.015,3
0,644,catch,"[(1081, 787)]",[],[1],[],vertical,"(390.0, 762.0)",1.3333333333333333,nan,1,18044.731,3
0,645,catch,"[(1100, 791)]",[],[1],[],horizontal,"(890.0, 262.0)",1.6,nan,1,18050.298,3
0,646,target,"[(1102, 796)]",[],[1],[0.5],vertical,"(390.0, 262.0)",1.1,0.458,1,18056.548,3
0,647,target,"[(1095, 798)]",[],[1],[0.23333333333333334],vertical,"(390.0, 262.0)",1.45,0.198,1,18062.337,3
0,648,target,"[(1091, 785)]",[],[1],[0.6166666666666667],horizontal,"(890.0, 762.0)",0.75,0.572,1,18068.205,3
0,649,catch,"[(1063, 798)]",[],[1],[],horizontal,"(390.0, 262.0)",1.3166666666666667,nan,1,18073.632,3
0,650,target,"[(1075, 757)]",[],[1],[0.3],vertical,"(890.0, 762.0)",1.6666666666666667,0.264,1,18078.892,3
0,651,target,"[(1087, 790)]",[],[1],[0.55],vertical,"(890.0, 262.0)",0.6166666666666667,0.508,1,18084.981,3
0,652,target,"[(1076, 774)]",[],[1],[0.5333333333333333],horizontal,"(890.0, 262.0)",0.9833333333333333,0.501,1,18090.259,3
0,653,target,"[(1104, 804)]",[],[1],[0.55],vertical,"(890.0, 262.0)",0.8166666666666667,0.512,1,18096.063,3
0,654,target,"[(1095, 790)]",[],[1],[0.6166666666666667],horizontal,"(890.0, 262.0)",0.8,0.572,1,18101.78,3
0,655,target,"[(1090, 791)]",[],[1],[0.5666666666666667],horizontal,"(890.0, 762.0)",0.7666666666666666,0.524,1,18107.221,3
0,656,target,"[(1078, 787)]",[],[1],[0.11666666666666667],horizontal,"(390.0, 762.0)",1.0666666666666667,0.086,0,18112.499,0
0,657,target,"[(1091, 791)]",[],[1],[0.55],horizontal,"(890.0, 262.0)",0.6833333333333333,0.507,1,18116.732,1
0,658,target,"[(1079, 777)]",[],[1],[0.5],vertical,"(890.0, 262.0)",1.0333333333333332,0.464,1,18121.414,1
0,659,target,"[(1100, 786)]",[],[1],[0.4666666666666667],vertical,"(390.0, 762.0)",1.2,0.428,1,18126.682,1
0,660,target,"[(1076, 782)]",[],[1],[0.5666666666666667],horizontal,"(390.0, 262.0)",0.5333333333333333,0.525,1,18131.649,2
0,661,target,"[(1097, 797)]",[],[1],[0.65],vertical,"(890.0, 262.0)",0.5666666666666667,0.61,1,18136.669,2
0,662,target,"[(1101, 778)]",[],[1],[0.5166666666666666],horizontal,"(890.0, 262.0)",0.6333333333333333,0.48,1,18141.332,2
0,663,target,"[(1082, 774)]",[],[1],[],vertical,"(390.0, 762.0)",,"('cti', 1.243)",0,18146.58,0
0,664,target,"[(1082, 801)]",[],[1],[0.4166666666666667],vertical,"(890.0, 262.0)",1.4666666666666666,0.377,1,18151.415,1
0,665,target,"[(1086, 790)]",[],[1],[0.55],horizontal,"(890.0, 262.0)",0.8333333333333334,0.514,1,18156.583,1
0,666,target,"[(1080, 787)]",[],[1],[0.5833333333333334],horizontal,"(390.0, 262.0)",1.0,0.542,1,18161.248,1
0,667,target,"[(1076, 775)]",[],[1],[],horizontal,"(390.0, 762.0)",,"('cti', 1.271)",0,18166.443,0
0,668,target,"[(1080, 787)]",[],[1],[0.85],horizontal,"(390.0, 262.0)",0.65,nan,0,18171.133,0
0,669,target,"[(1102, 808)]",[],[1],[0.2833333333333333],vertical,"(390.0, 262.0)",1.3666666666666667,0.247,1,18175.823,1
0,670,target,"[(1078, 768)]",[],[1],[0.5166666666666666],horizontal,"(390.0, 762.0)",1.2333333333333334,0.481,1,18180.992,1
0,671,target,"[(1099, 786)]",[],[1],[0.4166666666666667],vertical,"(890.0, 762.0)",1.3,0.38,1,18186.108,1
0,672,target,"[(1095, 787)]",[],[1],[0.3],vertical,"(390.0, 262.0)",1.3333333333333333,0.265,1,18191.216,2
0,673,target,"[(1079, 781)]",[],[1],[0.5333333333333333],vertical,"(890.0, 762.0)",1.15,0.501,1,18196.834,2
0,674,target,"[(1098, 787)]",[],[1],[0.6666666666666666],horizontal,"(390.0, 262.0)",1.0666666666666667,0.628,1,18202.316,2
0,675,target,"[(1085, 786)]",[],[1],[0.6166666666666667],horizontal,"(890.0, 262.0)",1.3333333333333333,0.573,1,18207.588,2
0,676,target,"[(1098, 784)]",[],[1],[0.6666666666666666],vertical,"(390.0, 262.0)",1.0666666666666667,0.642,1,18213.083,2
0,677,target,"[(1091, 775)]",[],[1],[0.5666666666666667],vertical,"(890.0, 262.0)",0.75,0.523,1,18218.854,3
0,678,target,"[(1096, 775)]",[],[1],[0.31666666666666665],horizontal,"(890.0, 262.0)",1.3,0.279,1,18224.039,3
0,679,target,"[(1092, 784)]",[],[1],[0.55],vertical,"(390.0, 762.0)",0.6166666666666667,0.512,1,18229.926,3
0,680,target,"[(1086, 786)]",[],[1],[0.5],vertical,"(890.0, 262.0)",0.9333333333333333,0.458,1,18234.94,3
0,681,target,"[(1108, 782)]",[],[1],[0.6333333333333333],horizontal,"(890.0, 762.0)",0.5833333333333334,0.603,1,18240.633,3
0,682,target,"[(1119, 776)]",[],[1],[0.1],horizontal,"(890.0, 262.0)",1.6,0.066,0,18246.151,0
0,683,catch,"[(1081, 796)]",[],[1],[],horizontal,"(390.0, 262.0)",1.5333333333333332,nan,1,18250.46,1
0,684,target,"[(1075, 781)]",[],[1],[0.3],horizontal,"(890.0, 262.0)",1.55,0.263,1,18255.518,1
0,685,target,"[(1085, 794)]",[],[1],[0.26666666666666666],horizontal,"(890.0, 262.0)",1.2833333333333332,0.23,1,18261.015,1
0,686,target,"[(1099, 771)]",[],[1],[0.5333333333333333],vertical,"(390.0, 262.0)",0.7166666666666667,0.491,1,18266.567,2
0,687,target,"[(1076, 772)]",[],[1],[0.5666666666666667],horizontal,"(890.0, 762.0)",0.9166666666666666,0.525,1,18271.359,2
0,688,target,"[(1107, 780)]",[],[1],[],horizontal,"(390.0, 262.0)",,"('cti', 1.169)",0,18276.716,0
0,689,target,"[(1103, 791)]",[],[1],[0.6833333333333333],horizontal,"(890.0, 262.0)",0.8166666666666667,0.641,1,18281.284,1
0,690,target,"[(1077, 777)]",[],[1],[0.7],horizontal,"(390.0, 762.0)",0.6333333333333333,0.658,1,18286.467,1
0,691,target,"[(1077, 782)]",[],[1],[0.23333333333333334],horizontal,"(390.0, 762.0)",1.5333333333333332,0.202,1,18291.233,1
0,692,catch,"[(1077, 779)]",[],[1],[],vertical,"(390.0, 262.0)",1.6,nan,1,18296.25,2
0,693,target,"[(1081, 774)]",[],[1],[0.6833333333333333],horizontal,"(390.0, 762.0)",0.5666666666666667,0.644,1,18301.857,2
0,694,target,"[(1073, 776)]",[],[1],[0.5166666666666666],horizontal,"(890.0, 262.0)",0.7833333333333333,0.478,1,18306.95,2
0,695,target,"[(1090, 786)]",[],[1],[0.6166666666666667],vertical,"(390.0, 762.0)",0.8666666666666667,0.575,1,18312.351,2
0,696,target,"[(1069, 779)]",[],[1],[0.15],vertical,"(890.0, 262.0)",1.6,0.118,0,18317.715,0
0,697,target,"[(1077, 784)]",[],[1],[0.23333333333333334],horizontal,"(890.0, 762.0)",1.4833333333333334,0.2,1,18322.493,1
0,698,target,"[(1099, 802)]",[],[1],[0.6833333333333333],vertical,"(390.0, 762.0)",1.35,0.643,1,18327.583,1
0,699,target,"[(1080, 786)]",[],[1],[0.65],vertical,"(890.0, 762.0)",1.0833333333333333,0.611,1,18332.784,1
0,700,target,"[(1093, 771)]",[],[1],[0.6],vertical,"(890.0, 262.0)",0.6166666666666667,0.565,1,18337.749,2
0,701,target,"[(1108, 798)]",[],[1],[0.5166666666666666],vertical,"(890.0, 262.0)",0.75,0.483,1,18342.524,2
0,702,target,"[(1104, 780)]",[],[1],[0.85],horizontal,"(390.0, 762.0)",0.6666666666666666,nan,0,18347.528,0
0,703,target,"[(1081, 775)]",[],[1],[0.6333333333333333],horizontal,"(390.0, 762.0)",0.7333333333333333,0.589,1,18352.383,1
0,704,target,"[(1085, 786)]",[],[1],[0.6666666666666666],vertical,"(390.0, 762.0)",1.1166666666666667,0.628,1,18356.801,1
0,705,target,"[(1075, 781)]",[],[1],[0.5666666666666667],vertical,"(890.0, 262.0)",0.8166666666666667,0.533,1,18362.059,1
0,706,target,"[(1080, 768)]",[],[1],[0.5333333333333333],horizontal,"(890.0, 262.0)",1.5333333333333332,0.493,1,18366.716,2
0,707,target,"[(1098, 781)]",[],[1],[0.6166666666666667],vertical,"(890.0, 262.0)",1.3,0.576,1,18372.401,2
0,708,target,"[(1103, 771)]",[],[1],[0.43333333333333335],vertical,"(390.0, 262.0)",1.1166666666666667,0.394,1,18378.017,2
0,709,target,"[(1081, 777)]",[],[1],[0.4666666666666667],horizontal,"(890.0, 762.0)",1.25,0.43,1,18383.701,2
0,710,target,"[(1112, 771)]",[],[1],[0.5833333333333334],horizontal,"(390.0, 762.0)",1.1,0.545,1,18388.951,2
0,711,catch,"[(1104, 786)]",[],[1],[],vertical,"(390.0, 762.0)",1.55,nan,1,18394.25,3
0,712,target,"[(1109, 789)]",[],[1],[0.6],vertical,"(390.0, 262.0)",0.8333333333333334,0.569,1,18400.217,3
0,713,target,"[(1078, 769)]",[],[1],[0.5666666666666667],vertical,"(890.0, 762.0)",1.0666666666666667,0.531,1,18405.768,3
0,714,target,"[(1106, 774)]",[],[1],[0.55],vertical,"(390.0, 262.0)",0.7833333333333333,0.512,1,18411.09,3
0,715,catch,"[(1076, 777)]",[],[1],[0.03333333333333333],horizontal,"(390.0, 262.0)",1.6166666666666667,"0.019,nan",0,18416.65,0
0,716,catch,"[(1075, 792)]",[],[1],[],vertical,"(890.0, 262.0)",1.6333333333333333,nan,1,18421.585,1
0,717,target,"[(1069, 748), (1082, 769)]",[],"[0, 1]",[0.7],vertical,"(390.0, 262.0)",0.8,0.653,1,18426.724,1
0,718,catch,"[(1080, 780)]",[],[1],[],horizontal,"(390.0, 762.0)",1.5,nan,1,18432.55,1
0,719,target,"[(1075, 778)]",[],[1],[0.6666666666666666],vertical,"(390.0, 762.0)",0.95,0.626,1,18437.401,2
0,720,target,"[(1119, 783)]",[],[1],[],horizontal,"(390.0, 762.0)",,"('cti', 1.502)",0,18443.174,0
0,721,target,"[(1099, 811)]",[],[1],[0.5333333333333333],vertical,"(390.0, 262.0)",1.6,0.495,1,18448.318,1
0,722,target,"[(1100, 786)]",[],[1],[0.7],vertical,"(390.0, 262.0)",0.65,0.66,1,18517.718,1
0,723,target,"[(1068, 809)]",[],[1],[0.55],horizontal,"(890.0, 262.0)",1.4333333333333333,0.513,1,18522.743,1
0,724,target,"[(1099, 805)]",[],[1],[0.5666666666666667],horizontal,"(890.0, 262.0)",1.15,0.523,1,18527.985,2
0,725,target,"[(1104, 796)]",[],[1],[0.55],horizontal,"(390.0, 262.0)",0.8,0.511,1,18533.644,2
0,726,target,"[(1077, 798)]",[],[1],[0.18333333333333332],horizontal,"(390.0, 262.0)",1.3833333333333333,0.151,1,18539.018,2
0,727,target,"[(1086, 791)]",[],[1],[0.65],vertical,"(390.0, 762.0)",0.6333333333333333,0.612,1,18544.644,2
0,728,target,"[(1083, 782)]",[],[1],[0.7166666666666667],vertical,"(890.0, 762.0)",1.1166666666666667,0.673,1,18549.768,2
0,729,target,"[(1082, 787)]",[],[1],[0.36666666666666664],horizontal,"(390.0, 262.0)",1.3666666666666667,0.331,1,18555.152,3
0,730,target,"[(1102, 779)]",[],[1],[0.85],vertical,"(390.0, 262.0)",0.6333333333333333,nan,0,18560.881,0
0,731,target,"[(1082, 781)]",[],[1],[0.5333333333333333],horizontal,"(390.0, 262.0)",0.5833333333333334,0.488,1,18565.201,1
0,732,target,"[(1104, 761)]",[],[1],[0.5833333333333334],vertical,"(390.0, 762.0)",1.15,0.54,1,18570.093,1
0,733,target,"[(1083, 769)]",[],[1],[0.4],vertical,"(890.0, 262.0)",1.15,0.363,1,18575.735,1
0,734,target,"[(1109, 771)]",[],[1],[0.18333333333333332],horizontal,"(390.0, 762.0)",1.6166666666666667,0.15,1,18580.988,2
0,735,target,"[(1068, 765)]",[],[1],[0.2],horizontal,"(390.0, 762.0)",1.3833333333333333,0.169,1,18586.823,2
0,736,target,"[(1100, 790)]",[],[1],[0.25],vertical,"(390.0, 262.0)",1.4166666666666667,0.213,1,18592.468,2
0,737,target,"[(1077, 780)]",[],[1],[0.55],horizontal,"(890.0, 762.0)",1.5,0.509,1,18598.196,2
0,738,target,"[(1107, 773)]",[],[1],[0.5833333333333334],horizontal,"(390.0, 262.0)",0.9166666666666666,0.542,1,18604.252,2
0,739,target,"[(1094, 765)]",[],[1],[0.7333333333333333],horizontal,"(890.0, 762.0)",1.0,0.686,1,18609.37,3
0,740,target,"[(1081, 780)]",[],[1],[0.06666666666666667],horizontal,"(890.0, 762.0)",1.6833333333333333,0.034,0,18614.909,0
0,741,target,"[(1105, 799)]",[],[1],[0.6333333333333333],vertical,"(890.0, 762.0)",1.05,0.588,1,18620.02,1
0,742,target,"[(1043, 768)]",[],[1],[0.23333333333333334],vertical,"(890.0, 262.0)",1.55,0.2,1,18624.766,1
0,743,target,"[(1098, 789)]",[],[1],[0.36666666666666664],vertical,"(890.0, 762.0)",1.4,0.334,1,18630.144,1
0,744,target,"[(1086, 771)]",[],[1],[0.48333333333333334],vertical,"(390.0, 262.0)",1.2,0.443,1,18635.329,2
0,745,target,"[(1111, 790)]",[],[1],[0.65],horizontal,"(890.0, 762.0)",0.6666666666666666,0.607,1,18640.547,2
0,746,target,"[(1104, 781)]",[],[1],[0.5166666666666666],horizontal,"(890.0, 262.0)",1.3166666666666667,0.483,1,18645.753,2
0,747,target,"[(1086, 776)]",[],[1],[0.5833333333333334],horizontal,"(390.0, 762.0)",0.6333333333333333,0.537,1,18651.036,2
0,748,target,"[(1077, 769)]",[],[1],[0.5833333333333334],vertical,"(890.0, 262.0)",0.6,0.544,1,18655.816,2
0,749,catch,"[(1081, 788)]",[],[1],[],vertical,"(390.0, 262.0)",1.2833333333333332,nan,1,18660.671,3
0,750,target,"[(1105, 796)]",[],[1],[0.65],horizontal,"(890.0, 762.0)",0.8833333333333333,0.604,1,18666.637,3
0,751,target,"[(1104, 775)]",[],[1],[0.26666666666666666],horizontal,"(390.0, 762.0)",1.5,0.232,1,18672.219,3
0,752,target,"[(1108, 778)]",[],[1],[0.18333333333333332],vertical,"(890.0, 762.0)",1.6,0.15,1,18677.769,3
0,753,target,"[(1082, 774)]",[],[1],[0.85],vertical,"(390.0, 762.0)",0.7,nan,0,18683.974,0
0,754,target,"[(1097, 778)]",[],[1],[0.5166666666666666],horizontal,"(390.0, 262.0)",1.3166666666666667,0.475,1,18688.537,1
0,755,target,"[(1079, 782)]",[],[1],[0.35],vertical,"(390.0, 762.0)",1.3166666666666667,0.312,1,18693.696,1
0,756,target,"[(1080, 784)]",[],[1],[0.7166666666666667],horizontal,"(890.0, 762.0)",0.5833333333333334,0.673,1,18699.17,1
0,757,target,"[(1104, 796)]",[],[1],[0.6333333333333333],horizontal,"(390.0, 262.0)",0.7333333333333333,0.59,1,18703.969,2
0,758,target,"[(1063, 761)]",[],[1],[0.36666666666666664],vertical,"(390.0, 262.0)",1.2666666666666666,0.328,1,18709.057,2
0,759,target,"[(1080, 773)]",[],[1],[0.6],vertical,"(890.0, 762.0)",0.7166666666666667,0.554,1,18714.499,2
0,760,target,"[(1082, 786)]",[],[1],[0.5666666666666667],horizontal,"(390.0, 762.0)",0.6166666666666667,0.529,1,18719.57,2
0,761,target,"[(1071, 778)]",[],[1],[],vertical,"(390.0, 262.0)",,"('cti', 1.374)",0,18724.97,0
0,762,catch,"[(1080, 776)]",[],[1],[],horizontal,"(890.0, 262.0)",1.5666666666666667,nan,1,18729.576,1
0,763,target,"[(1077, 799)]",[],[1],[0.7166666666666667],vertical,"(390.0, 762.0)",0.6,0.672,1,18734.833,1
0,764,catch,"[(1049, 797)]",[],[1],[],vertical,"(390.0, 262.0)",1.25,nan,1,18739.749,1
0,765,target,"[(1075, 774)]",[],[1],[0.5],horizontal,"(390.0, 262.0)",1.2833333333333332,0.459,1,18744.48,2
0,766,target,"[(1111, 762)]",[],[1],[0.5333333333333333],horizontal,"(390.0, 262.0)",0.9333333333333333,0.497,1,18750.137,2
0,767,catch,"[(1083, 756)]",[],[1],[],vertical,"(390.0, 762.0)",1.4833333333333334,nan,1,18754.996,2
0,768,target,"[(1119, 789)]",[],[1],[0.35],horizontal,"(390.0, 762.0)",1.2333333333333334,0.315,1,18760.436,2
0,769,target,"[(1076, 758)]",[],[1],[0.2],horizontal,"(390.0, 762.0)",1.4666666666666666,0.166,1,18766.17,2
0,770,target,"[(1080, 766)]",[],[1],[0.6],vertical,"(390.0, 262.0)",0.55,0.56,1,18771.507,3
0,771,target,"[(1103, 796)]",[],[1],[0.5166666666666666],vertical,"(390.0, 262.0)",0.7,0.476,1,18776.757,3
0,772,target,"[(1072, 790)]",[],[1],[0.43333333333333335],horizontal,"(890.0, 262.0)",1.0666666666666667,0.394,1,18781.928,3
0,773,target,"[(1116, 778)]",[],[1],[0.6833333333333333],vertical,"(890.0, 262.0)",0.5,0.639,1,18787.871,3
0,774,target,"[(1083, 781)]",[],[1],[0.43333333333333335],vertical,"(890.0, 262.0)",1.0166666666666666,0.394,1,18793.115,3
0,775,target,"[(1094, 783)]",[],[1],[0.6666666666666666],vertical,"(390.0, 762.0)",0.6833333333333333,0.623,1,18798.788,3
0,776,target,"[(1103, 766)]",[],[1],[],horizontal,"(890.0, 762.0)",,"('cti', 1.618)",0,18804.021,0
0,777,catch,"[(1103, 796)]",[],[1],[],horizontal,"(890.0, 762.0)",1.25,nan,1,18808.721,1
0,778,target,"[(1073, 828)]",[],[1],[],vertical,"(890.0, 262.0)",,"('cti', 1.301)",0,18813.605,0
0,779,target,"[(1114, 800)]",[],[1],[0.85],horizontal,"(890.0, 762.0)",0.6333333333333333,nan,0,18892.621,0
0,780,target,"[(1056, 801)]",[],[1],[0.5666666666666667],horizontal,"(390.0, 262.0)",1.1,0.53,1,18896.98,1
0,781,target,"[(1099, 796)]",[],[1],[0.5666666666666667],vertical,"(390.0, 762.0)",0.7666666666666666,0.528,1,18902.521,1
0,782,target,"[(1073, 798)]",[],[1],[0.65],horizontal,"(890.0, 262.0)",0.6833333333333333,0.616,1,18907.172,1
0,783,target,"[(1071, 796)]",[],[1],[0.5333333333333333],vertical,"(390.0, 262.0)",0.8666666666666667,0.498,1,18911.762,2
0,784,target,"[(1088, 784)]",[],[1],[],vertical,"(890.0, 262.0)",,"('cti', 0.679)",0,18917.0,0
0,785,target,"[(1086, 771)]",[],[1],[0.35],vertical,"(390.0, 262.0)",1.3,0.317,1,18920.871,1
0,786,target,"[(1059, 779)]",[],[1],[0.11666666666666667],vertical,"(890.0, 262.0)",1.0,0.085,0,18926.007,0
0,787,catch,"[(1112, 769)]",[],[1],[],vertical,"(890.0, 762.0)",1.4666666666666666,nan,1,18930.933,1
0,788,target,"[(1067, 781)]",[],[1],[0.65],vertical,"(390.0, 762.0)",1.0166666666666666,0.619,1,18935.449,1
0,789,target,"[(1086, 749), (1071, 779)]",[],"[0, 1]",[0.8],horizontal,"(390.0, 762.0)",0.5166666666666666,0.767,1,18940.58,1
0,790,target,"[(1077, 775)]",[],[1],[0.5333333333333333],vertical,"(890.0, 262.0)",0.9833333333333333,0.5,1,18946.337,2
0,791,target,"[(1076, 783)]",[],[1],[0.55],vertical,"(890.0, 762.0)",0.7666666666666666,0.505,1,18951.271,2
0,792,target,"[(1104, 795)]",[],[1],[],horizontal,"(890.0, 262.0)",,"('cti', 1.232)",0,18956.521,0
0,793,target,"[(1081, 796)]",[],[1],[0.5166666666666666],vertical,"(890.0, 262.0)",1.0666666666666667,0.479,1,18961.194,1
0,794,target,"[(1081, 783)]",[],[1],[0.6666666666666666],vertical,"(390.0, 262.0)",0.9333333333333333,0.625,1,18965.666,1
0,795,target,"[(1074, 779)]",[],[1],[0.5333333333333333],horizontal,"(390.0, 762.0)",1.1833333333333333,0.491,1,18970.98,1
0,796,target,"[(1085, 791)]",[],[1],[0.5166666666666666],vertical,"(890.0, 262.0)",0.9333333333333333,0.479,1,18976.555,2
0,797,target,"[(1101, 791)]",[],[1],[0.36666666666666664],vertical,"(390.0, 262.0)",0.9166666666666666,0.328,1,18982.039,2
0,798,target,"[(1061, 781)]",[],[1],[0.06666666666666667],horizontal,"(390.0, 762.0)",1.45,0.035,0,18987.038,0
0,799,target,"[(1040, 784)]",[],[1],[0.65],horizontal,"(390.0, 262.0)",0.7166666666666667,0.617,1,18991.688,1
0,800,catch,"[(1065, 779)]",[],[1],[],horizontal,"(890.0, 262.0)",,"('cti', 1.529),nan",0,18999.222,0
0,801,target,"[(1108, 799)]",[],[1],[0.45],vertical,"(390.0, 762.0)",1.2333333333333334,0.409,1,19004.055,1
0,802,target,"[(1076, 775)]",[],[1],[0.48333333333333334],horizontal,"(890.0, 262.0)",1.2166666666666666,0.445,1,19009.252,1
0,803,target,"[(1086, 790)]",[],[1],[0.65],vertical,"(890.0, 262.0)",1.0833333333333333,0.611,1,19014.744,1
0,804,target,"[(1114, 778)]",[],[1],[0.55],vertical,"(890.0, 762.0)",0.7,0.509,1,19019.839,2
0,805,target,"[(1072, 786)]",[],[1],[0.85],horizontal,"(390.0, 262.0)",1.5166666666666666,"('cti', 1.522),nan",0,19025.029,0
0,806,target,"[(1074, 776)]",[],[1],[0.3],horizontal,"(390.0, 762.0)",0.9666666666666667,0.269,1,19030.755,1
0,807,target,"[(1071, 798)]",[],[1],[0.7166666666666667],vertical,"(390.0, 762.0)",0.7833333333333333,0.671,1,19035.106,1
0,808,target,"[(1063, 785)]",[],[1],[0.6],vertical,"(390.0, 262.0)",0.7166666666666667,0.558,1,19040.272,1
0,809,catch,"[(1114, 773)]",[],[1],[],vertical,"(890.0, 262.0)",,"('cti', 1.493),nan",0,19045.315,0
0,810,target,"[(1094, 796)]",[],[1],[0.85],vertical,"(390.0, 262.0)",0.8666666666666667,nan,0,19049.973,0
0,811,target,"[(1069, 747), (1075, 795)]",[],"[0, 1]",[0.6],horizontal,"(890.0, 762.0)",1.3166666666666667,0.561,1,19055.294,1
0,812,target,"[(1057, 797)]",[],[1],[],vertical,"(390.0, 762.0)",,"('cti', 1.225)",0,19062.264,0
