block,practice,trial,taps_start_loc_during_fix,taps_end_loc_during_fix,taps_on_lever_during_fix,taps_on_lever_s_during_fix,bar_orientation,target_xy,cti,rt,acc,time
1,TRUE,1,"[(1104, 842)]",[],[1],[0.4166666666666667],vertical,"(390.0, 762.0)",1.483333333,0.383,1,0.472
1,TRUE,2,"[(1103, 829)]",[],[1],[0.35],horizontal,"(390.0, 762.0)",1.4,0.308,1,5.978
1,TRUE,3,"[(1119, 886)]",[],[1],[0.5666666666666667],horizontal,"(390.0, 762.0)",1.6,0.521,1,35.492
1,TRUE,4,"[(1119, 878)]",[],[1],[0.4166666666666667],horizontal,"(390.0, 762.0)",1.316666667,0.385,1,44.676
1,FALSE,1,"[(1119, 877)]",[],[1],[0.4166666666666667],vertical,"(390.0, 762.0)",0.683333333,0.376,1,54.945
1,FALSE,2,"[(1119, 878)]",[],[1],[0.3833333333333333],horizontal,"(890.0, 262.0)",1.616666667,0.343,1,58.879
1,FALSE,3,"[(143, 713), (252, 790), (141, 709), (117, 833), (127, 842), (1067, 857)]",[],"[0, 0, 0, 0, 0, 1]",[0.6166666666666667],horizontal,"(390.0, 762.0)",1.6,0.578,1,63.766
1,FALSE,4,"[(1038, 857)]",[],[1],[0.5666666666666667],horizontal,"(890.0, 762.0)",1.483333333,0.526,1,1245.915
1,FALSE,5,"[(1047, 917)]",[],[1],[0.5833333333333334],horizontal,"(890.0, 762.0)",0.966666667,0.545,1,1251.084
1,FALSE,6,"[(1040, 898)]",[],[1],[0.55],horizontal,"(390.0, 262.0)",0.983333333,0.51,1,1255.828
1,FALSE,7,"[(1042, 896)]",[],[1],[0.7333333333333333],vertical,"(890.0, 262.0)",0.8,0.691,1,1260.254
1,FALSE,8,"[(1066, 895)]",[],[1],[0.5666666666666667],horizontal,"(390.0, 762.0)",1.466666667,0.525,1,1265.287
1,FALSE,9,"[(1045, 894)]",[],[1],[0.5833333333333334],horizontal,"(390.0, 762.0)",0.516666667,0.541,1,1270.309
1,FALSE,10,"[(1053, 883)]",[],[1],[0.5666666666666667],horizontal,"(390.0, 262.0)",0.866666667,0.526,1,1274.657
1,FALSE,11,"[(1052, 890)]",[],[1],[0.25],horizontal,"(390.0, 262.0)",1,0.215,1,1279.361
1,FALSE,12,"[(1071, 891)]",[],[1],[0.6166666666666667],horizontal,"(390.0, 762.0)",1.066666667,0.573,1,1283.842
1,FALSE,13,"[(1047, 882)]",[],[1],[],horizontal,"(890.0, 762.0)",,cti_phase,0,1288.669
1,FALSE,14,"[(1071, 857)]",[],[1],[0.5833333333333334],horizontal,"(890.0, 762.0)",1.316666667,0.542,1,1293.406
1,FALSE,15,"[(1038, 877)]",[],[1],[0.5333333333333333],horizontal,"(390.0, 262.0)",1.633333333,0.494,1,1298.586
1,FALSE,16,"[(1047, 879)]",[],[1],[0.7],horizontal,"(890.0, 262.0)",1.383333333,0.654,1,1303.792
1,FALSE,17,"[(1044, 881)]",[],[1],[0.6],horizontal,"(390.0, 762.0)",0.733333333,0.558,1,1308.719
1,FALSE,18,"[(1068, 862)]",[],[1],[0.48333333333333334],horizontal,"(390.0, 262.0)",1.466666667,0.443,1,1313.251
1,FALSE,19,"[(1050, 888)]",[],[1],[0.5333333333333333],horizontal,"(390.0, 262.0)",0.65,0.491,1,1318.697
1,FALSE,20,"[(1065, 869)]",[],[1],[0.55],vertical,"(390.0, 762.0)",1.333333333,0.511,1,1323.392
1,FALSE,21,"[(1058, 863)]",[],[1],[0.5166666666666666],vertical,"(390.0, 262.0)",0.616666667,0.477,1,1328.032
1,FALSE,22,"[(1038, 895)]",[],[1],[0.5833333333333334],horizontal,"(390.0, 762.0)",0.55,0.546,1,1332.268
1,FALSE,23,"[(1017, 888)]",[],[1],[0.5833333333333334],vertical,"(390.0, 262.0)",1.45,0.542,1,1336.478
1,FALSE,24,"[(1039, 874)]",[],[1],[0.5333333333333333],vertical,"(390.0, 762.0)",1.483333333,0.496,1,1341.432
1,FALSE,25,"[(1028, 874)]",[],[1],[0.55],horizontal,"(890.0, 262.0)",1.266666667,0.51,1,1346.642
1,FALSE,26,"[(1071, 892)]",[],[1],[0.55],horizontal,"(390.0, 762.0)",1.316666667,0.511,1,1351.621
1,FALSE,27,"[(1038, 873)]",[],[1],[0.65],horizontal,"(390.0, 762.0)",1.55,0.608,1,1356.536
1,FALSE,28,"[(1071, 902)]",[],[1],[0.55],vertical,"(390.0, 762.0)",0.783333333,0.505,1,1361.906
1,FALSE,29,"[(1018, 866)]",[],[1],[0.55],vertical,"(390.0, 762.0)",1.15,0.505,1,1366.426
1,FALSE,30,"[(1038, 868)]",[],[1],[0.55],vertical,"(890.0, 262.0)",0.516666667,0.513,1,1371.548
1,FALSE,31,"[(1043, 871)]",[],[1],[0.85],vertical,"(390.0, 262.0)",0.583333333,0.804,0,1375.672
1,FALSE,32,"[(1047, 869)]",[],[1],[0.5166666666666666],horizontal,"(890.0, 262.0)",0.533333333,0.477,1,1380.389
1,FALSE,33,"[(1015, 882)]",[],[1],[0.5833333333333334],horizontal,"(890.0, 762.0)",0.5,0.54,1,1384.419
1,FALSE,34,"[(1062, 873)]",[],[1],[0.5833333333333334],vertical,"(390.0, 262.0)",0.616666667,0.539,1,1388.914
1,FALSE,35,"[(1038, 884)]",[],[1],[0.55],horizontal,"(890.0, 762.0)",0.816666667,0.508,1,1393.468
1,FALSE,36,"[(1067, 890)]",[],[1],[0.5833333333333334],horizontal,"(890.0, 262.0)",1.55,0.541,1,1397.58
1,FALSE,37,"[(1038, 865)]",[],[1],[0.5166666666666666],horizontal,"(890.0, 262.0)",1,0.48,1,1402.791
1,FALSE,38,"[(1047, 880)]",[],[1],[0.5333333333333333],vertical,"(890.0, 262.0)",1.266666667,0.494,1,1407.44
1,FALSE,39,"[(1072, 896)]",[],[1],[0.5666666666666667],vertical,"(890.0, 762.0)",1.433333333,0.522,1,1412.265
1,FALSE,40,"[(1052, 882)]",[],[1],[0.5666666666666667],vertical,"(390.0, 762.0)",1.066666667,0.527,1,1417.287
1,FALSE,41,"[(1005, 885)]",[],[1],[0.6166666666666667],horizontal,"(890.0, 762.0)",1.65,0.574,1,1422.141
1,FALSE,42,"[(1068, 858)]",[],[1],[0.5666666666666667],horizontal,"(390.0, 762.0)",0.716666667,0.521,1,1427.141
1,FALSE,43,"[(1052, 875)]",[],[1],[0.55],vertical,"(890.0, 262.0)",1.116666667,0.506,1,1431.453
1,FALSE,44,"[(1072, 895)]",[],[1],[0.5333333333333333],horizontal,"(890.0, 262.0)",0.916666667,0.494,1,1436.197
1,FALSE,45,"[(1062, 898)]",[],[1],[0.5333333333333333],horizontal,"(390.0, 262.0)",1.566666667,0.496,1,1441.101
1,FALSE,46,"[(1070, 903)]",[],[1],[0.5666666666666667],vertical,"(890.0, 262.0)",0.566666667,0.525,1,1446.691
1,FALSE,47,"[(1076, 900)]",[],[1],[0.5166666666666666],vertical,"(390.0, 262.0)",1.566666667,0.475,1,1450.987
1,FALSE,48,"[(1067, 882)]",[],[1],[0.5666666666666667],horizontal,"(390.0, 762.0)",1.133333333,0.526,1,1456.281
1,FALSE,49,"[(1071, 898)]",[],[1],[0.6],horizontal,"(890.0, 762.0)",0.883333333,0.568,1,1460.654
1,FALSE,50,"[(1047, 889)]",[],[1],[0.5833333333333334],vertical,"(390.0, 762.0)",1.666666667,0.54,1,1465.171
1,FALSE,51,"[(1044, 870)]",[],[1],[0.6833333333333333],horizontal,"(390.0, 762.0)",1.666666667,0.649,1,1470.771
1,FALSE,52,"[(1073, 890)]",[],[1],[0.5333333333333333],vertical,"(890.0, 262.0)",0.883333333,0.489,1,1476.234
1,FALSE,53,"[(1048, 880)]",[],[1],[0.6166666666666667],vertical,"(390.0, 762.0)",0.7,0.573,1,1480.573
1,FALSE,54,"[(1016, 875)]",[],[1],[0.55],vertical,"(890.0, 262.0)",0.816666667,0.511,1,1485.034
1,FALSE,55,"[(1071, 903)]",[],[1],[0.55],horizontal,"(390.0, 262.0)",1.6,0.508,1,1489.626
1,FALSE,56,"[(1062, 887)]",[],[1],[0.5833333333333334],vertical,"(390.0, 262.0)",0.683333333,0.538,1,1494.865
1,FALSE,57,"[(1067, 889)]",[],[1],[0.55],vertical,"(890.0, 262.0)",1.183333333,0.513,1,1499.022
1,FALSE,58,"[(1071, 897)]",[],[1],[0.5833333333333334],vertical,"(390.0, 762.0)",0.616666667,0.54,1,1503.33
1,FALSE,59,"[(1071, 895)]",[],[1],[0.5666666666666667],horizontal,"(890.0, 762.0)",1.616666667,0.518,1,1507.455
1,FALSE,60,"[(1065, 879)]",[],[1],[0.6833333333333333],horizontal,"(390.0, 262.0)",0.95,0.632,1,1512.463
2,FALSE,61,"[(1071, 885)]",[],[1],[0.5833333333333334],horizontal,"(390.0, 762.0)",0.716666667,0.54,1,1517.657
2,FALSE,62,"[(1062, 889)]",[],[1],[0.5833333333333334],vertical,"(890.0, 762.0)",0.816666667,0.541,1,1521.634
2,FALSE,63,"[(1071, 894)]",[],[1],[0.65],vertical,"(890.0, 762.0)",1.083333333,0.607,1,1525.825
2,FALSE,64,"[(1068, 894)]",[],[1],[0.7],horizontal,"(390.0, 762.0)",1.4,0.656,1,1530.472
2,FALSE,65,"[(1047, 881)]",[],[1],[0.5166666666666666],horizontal,"(890.0, 262.0)",1.083333333,0.474,1,1536.024
2,FALSE,66,"[(1050, 887)]",[],[1],[0.5666666666666667],vertical,"(890.0, 762.0)",0.8,0.522,1,1540.675
2,FALSE,67,"[(1048, 882)]",[],[1],[0.55],vertical,"(890.0, 262.0)",0.5,0.511,1,1545.187
2,FALSE,68,"[(1061, 885)]",[],[1],[0.5666666666666667],horizontal,"(890.0, 762.0)",0.783333333,0.52,1,1549.723
2,FALSE,69,"[(1033, 888)]",[],[1],[0.5833333333333334],horizontal,"(890.0, 762.0)",1.25,0.547,1,1554.125
2,FALSE,70,"[(1059, 889)]",[],[1],[0.5833333333333334],vertical,"(390.0, 762.0)",1.583333333,0.54,1,1558.657
2,FALSE,71,"[(1048, 879)]",[],[1],[0.6333333333333333],horizontal,"(890.0, 262.0)",0.55,0.586,1,1564.075
2,FALSE,72,"[(1072, 876)]",[],[1],[0.55],vertical,"(390.0, 262.0)",0.983333333,0.515,1,1568.018
2,FALSE,73,"[(1057, 881)]",[],[1],[0.5666666666666667],horizontal,"(890.0, 262.0)",0.65,0.523,1,1572.327
2,FALSE,74,"[(1066, 873)]",[],[1],[0.6166666666666667],vertical,"(890.0, 762.0)",0.966666667,0.573,1,1576.604
2,FALSE,75,"[(1072, 900)]",[],[1],[0.6],horizontal,"(390.0, 762.0)",1.333333333,0.564,1,1580.98
2,FALSE,76,"[(1060, 895)]",[],[1],[0.5333333333333333],vertical,"(390.0, 262.0)",1.166666667,0.488,1,1585.754
2,FALSE,77,"[(1071, 893)]",[],[1],[0.55],horizontal,"(890.0, 262.0)",0.583333333,0.505,1,1590.529
2,FALSE,78,"[(1067, 889)]",[],[1],[0.6],horizontal,"(890.0, 762.0)",1.1,0.554,1,1594.919
2,FALSE,79,"[(1072, 889)]",[],[1],[0.55],vertical,"(390.0, 262.0)",1.6,0.509,1,1599.697
2,FALSE,80,"[(1071, 882)]",[],[1],[0.6333333333333333],vertical,"(890.0, 762.0)",1.183333333,0.588,1,1605.135
2,FALSE,81,"[(1056, 885)]",[],[1],[0.6],horizontal,"(890.0, 262.0)",0.633333333,0.56,1,1609.931
2,FALSE,82,"[(1071, 893)]",[],[1],[0.55],vertical,"(890.0, 262.0)",0.85,0.508,1,1614.036
2,FALSE,83,"[(1062, 886)]",[],[1],[0.5666666666666667],horizontal,"(890.0, 262.0)",0.866666667,0.527,1,1618.174
2,FALSE,84,"[(1072, 890)]",[],[1],[0.5666666666666667],vertical,"(890.0, 762.0)",0.833333333,0.521,1,1622.76
2,FALSE,85,"[(1070, 896)]",[],[1],[0.5666666666666667],vertical,"(390.0, 762.0)",0.533333333,0.525,1,1626.804
2,FALSE,86,"[(1072, 905)]",[],[1],[0.5666666666666667],horizontal,"(390.0, 262.0)",1.25,0.522,1,1631.309
2,FALSE,87,"[(1061, 885)]",[],[1],[0.5833333333333334],horizontal,"(890.0, 262.0)",1.266666667,0.541,1,1635.992
2,FALSE,88,"[(1071, 889)]",[],[1],[0.5333333333333333],vertical,"(890.0, 262.0)",0.833333333,0.491,1,1640.595
2,FALSE,89,"[(1053, 876)]",[],[1],[0.55],horizontal,"(890.0, 762.0)",1.55,0.509,1,1644.957
2,FALSE,90,"[(1033, 872)]",[],[1],[0.5333333333333333],horizontal,"(890.0, 262.0)",1.633333333,0.492,1,1650.086
2,FALSE,91,"[(1072, 907)]",[],[1],[0.7333333333333333],horizontal,"(890.0, 762.0)",1.633333333,0.687,1,1655.371
2,FALSE,92,"[(1071, 889)]",[],[1],[0.6166666666666667],vertical,"(890.0, 262.0)",0.683333333,0.573,1,1660.387
2,FALSE,93,"[(1073, 912)]",[],[1],[0.6166666666666667],vertical,"(890.0, 262.0)",0.85,0.568,1,1664.909
2,FALSE,94,"[(1058, 900)]",[],[1],[0.5666666666666667],vertical,"(890.0, 762.0)",1.6,0.525,1,1669.578
2,FALSE,95,"[(1053, 888)]",[],[1],[0.5833333333333334],vertical,"(390.0, 262.0)",1.4,0.549,1,1674.533
2,FALSE,96,"[(1069, 875)]",[],[1],[0.65],vertical,"(390.0, 262.0)",1.283333333,0.608,1,1679.5
2,FALSE,97,"[(1083, 890)]",[],[1],[0.5166666666666666],horizontal,"(390.0, 262.0)",1.083333333,0.471,1,1684.302
2,FALSE,98,"[(1072, 897)]",[],[1],[0.5166666666666666],vertical,"(890.0, 262.0)",1.05,0.476,1,1689.285
2,FALSE,99,"[(1072, 884)]",[],[1],[0.5833333333333334],vertical,"(390.0, 262.0)",1.283333333,0.54,1,1693.641
2,FALSE,100,"[(1066, 887)]",[],[1],[0.5333333333333333],horizontal,"(390.0, 262.0)",0.633333333,0.487,1,1698.592
2,FALSE,101,"[(1071, 889)]",[],[1],[0.5666666666666667],vertical,"(390.0, 762.0)",1.133333333,0.523,1,1702.839
2,FALSE,102,"[(1066, 881)]",[],[1],[0.75],vertical,"(890.0, 262.0)",1.183333333,0.705,1,1707.559
2,FALSE,103,"[(1042, 885)]",[],[1],[0.5666666666666667],horizontal,"(890.0, 262.0)",1.6,0.527,1,1712.456
2,FALSE,104,"[(1071, 899)]",[],[1],[0.5166666666666666],horizontal,"(890.0, 262.0)",0.75,0.484,1,1717.724
2,FALSE,105,"[(1023, 897)]",[],[1],[0.5833333333333334],vertical,"(390.0, 262.0)",0.966666667,0.54,1,1722.157
2,FALSE,106,"[(1046, 887)]",[],[1],[0.6],horizontal,"(890.0, 762.0)",1.266666667,0.558,1,1726.599
2,FALSE,107,"[(1068, 878)]",[],[1],[0.5666666666666667],horizontal,"(890.0, 762.0)",1.016666667,0.524,1,1731.103
2,FALSE,108,"[(1049, 869)]",[],[1],[0.5166666666666666],vertical,"(890.0, 762.0)",1.016666667,0.472,1,1736.053
2,FALSE,109,"[(1062, 881)]",[],[1],[0.65],horizontal,"(890.0, 762.0)",1,0.613,1,1740.722
2,FALSE,110,"[(1071, 899)]",[],[1],[0.5833333333333334],horizontal,"(390.0, 762.0)",0.783333333,0.544,1,1745.416
2,FALSE,111,"[(1058, 873)]",[],[1],[0.5333333333333333],horizontal,"(390.0, 262.0)",1.383333333,0.49,1,1750.03
2,FALSE,112,"[(1062, 879)]",[],[1],[0.6],horizontal,"(890.0, 262.0)",1.316666667,0.558,1,1754.928
2,FALSE,113,"[(1059, 878)]",[],[1],[0.6166666666666667],horizontal,"(890.0, 762.0)",1.433333333,0.572,1,1759.732
2,FALSE,114,"[(1070, 890)]",[],[1],[0.5833333333333334],horizontal,"(890.0, 762.0)",0.583333333,0.54,1,1764.592
2,FALSE,115,"[(1043, 885)]",[],[1],[0.65],horizontal,"(890.0, 262.0)",0.55,0.604,1,1768.991
2,FALSE,116,"[(1029, 885)]",[],[1],[0.55],vertical,"(390.0, 262.0)",1.266666667,0.508,1,1773.485
2,FALSE,117,"[(1009, 889)]",[],[1],[0.55],vertical,"(390.0, 262.0)",1.05,0.507,1,1778.74
2,FALSE,118,"[(1009, 908)]",[],[1],[0.5666666666666667],horizontal,"(390.0, 262.0)",1.166666667,0.525,1,1784.401
2,FALSE,119,"[(1033, 872)]",[],[1],[0.5333333333333333],vertical,"(890.0, 762.0)",1.35,0.485,1,1789.602
2,FALSE,120,"[(1012, 890)]",[],[1],[0.5666666666666667],vertical,"(890.0, 762.0)",0.783333333,0.523,1,1797.601
3,FALSE,121,"[(1038, 901)]",[],[1],[0.6],vertical,"(390.0, 762.0)",1.333333333,0.562,1,1802.142
3,FALSE,122,"[(1064, 896)]",[],[1],[0.65],horizontal,"(890.0, 762.0)",0.65,0.611,1,1807.141
3,FALSE,123,"[(1059, 882)]",[],[1],[0.65],horizontal,"(390.0, 262.0)",1.45,0.603,1,1811.536
3,FALSE,124,"[(1042, 895)]",[],[1],[0.5666666666666667],horizontal,"(390.0, 762.0)",0.7,0.526,1,1816.627
3,FALSE,125,"[(1033, 871)]",[],[1],[0.6],horizontal,"(890.0, 762.0)",1.266666667,0.559,1,1826.435
3,FALSE,126,"[(1050, 894)]",[],[1],[0.5666666666666667],vertical,"(890.0, 762.0)",0.516666667,0.518,1,1831.458
3,FALSE,127,"[(1068, 887)]",[],[1],[0.5833333333333334],vertical,"(390.0, 262.0)",0.7,0.536,1,1835.871
3,FALSE,128,"[(1071, 883)]",[],[1],[0.6666666666666666],vertical,"(390.0, 762.0)",1.333333333,0.622,1,1840.474
3,FALSE,129,"[(1071, 905)]",[],[1],[0.85],vertical,"(390.0, 262.0)",0.883333333,0.807,0,1845.583
3,FALSE,130,"[(1049, 872)]",[],[1],[0.6],horizontal,"(890.0, 262.0)",1.6,0.555,1,1850.067
3,FALSE,131,"[(1072, 886)]",[],[1],[0.85],vertical,"(390.0, 262.0)",0.866666667,0.803,0,1855.686
3,FALSE,132,"[(1062, 867)]",[],[1],[0.5333333333333333],vertical,"(890.0, 262.0)",1.283333333,0.489,1,1860.235
3,FALSE,133,"[(1071, 885)]",[],[1],[0.5666666666666667],vertical,"(890.0, 762.0)",1.616666667,0.527,1,1865.302
3,FALSE,134,"[(1071, 883)]",[],[1],[0.5166666666666666],horizontal,"(890.0, 262.0)",1.233333333,0.476,1,1870.498
3,FALSE,135,"[(1071, 890)]",[],[1],[0.5333333333333333],horizontal,"(390.0, 262.0)",0.683333333,0.487,1,1875.603
3,FALSE,136,"[(1072, 890)]",[],[1],[0.6],horizontal,"(890.0, 762.0)",1.683333333,0.555,1,1879.903
3,FALSE,137,"[(1071, 891)]",[],[1],[0.5666666666666667],horizontal,"(390.0, 762.0)",1.166666667,0.519,1,1885.375
3,FALSE,138,"[(1071, 879)]",[],[1],[0.55],horizontal,"(390.0, 762.0)",0.75,0.517,1,1890.13
3,FALSE,139,"[(1038, 896)]",[],[1],[0.5666666666666667],horizontal,"(890.0, 762.0)",1.166666667,0.527,1,1894.523
3,FALSE,140,"[(1070, 894)]",[],[1],[0.6],vertical,"(890.0, 762.0)",1.5,0.557,1,1899.258
3,FALSE,141,"[(1066, 871)]",[],[1],[0.5666666666666667],horizontal,"(390.0, 262.0)",1.15,0.526,1,1904.628
3,FALSE,142,"[(1062, 896)]",[],[1],[0.5666666666666667],vertical,"(390.0, 762.0)",1.416666667,0.52,1,1909.427
3,FALSE,143,"[(1076, 888)]",[],[1],[0.85],horizontal,"(390.0, 262.0)",1.6,0.796,0,1914.559
3,FALSE,144,"[(1042, 892)]",[],[1],[0.55],vertical,"(390.0, 262.0)",1.65,0.508,1,1919.812
3,FALSE,145,"[(1071, 872)]",[],[1],[0.6666666666666666],horizontal,"(890.0, 762.0)",0.583333333,0.625,1,1926.36
3,FALSE,146,"[(1070, 868)]",[],[1],[0.55],horizontal,"(890.0, 762.0)",1.316666667,0.507,1,1931.042
3,FALSE,147,"[(1051, 880)]",[],[1],[0.48333333333333334],horizontal,"(890.0, 262.0)",1,0.445,1,1935.476
3,FALSE,148,"[(1042, 898)]",[],[1],[0.5833333333333334],vertical,"(890.0, 762.0)",0.75,0.541,1,1939.775
3,FALSE,149,"[(1067, 879)]",[],[1],[0.55],vertical,"(890.0, 762.0)",0.866666667,0.516,1,1944.458
3,FALSE,150,"[(1047, 880)]",[],[1],[0.5666666666666667],vertical,"(390.0, 262.0)",1.116666667,0.532,1,1949.079
3,FALSE,151,"[(1069, 866)]",[],[1],[0.5833333333333334],horizontal,"(890.0, 262.0)",1.633333333,0.539,1,1953.911
3,FALSE,152,"[(1071, 884)]",[],[1],[0.5666666666666667],horizontal,"(390.0, 762.0)",0.983333333,0.525,1,1959.067
3,FALSE,153,"[(1062, 878)]",[],[1],[0.55],vertical,"(890.0, 762.0)",0.95,0.51,1,1963.301
3,FALSE,154,"[(1063, 889)]",[],[1],[0.5666666666666667],vertical,"(890.0, 762.0)",0.666666667,0.532,1,1967.859
3,FALSE,155,"[(1047, 889)]",[],[1],[0.6666666666666666],vertical,"(390.0, 762.0)",0.583333333,0.627,1,1972.17
3,FALSE,156,"[(1071, 880)]",[],[1],[0.5666666666666667],vertical,"(390.0, 262.0)",0.916666667,0.53,1,1976.433
3,FALSE,157,"[(1042, 888)]",[],[1],[0.6166666666666667],vertical,"(890.0, 762.0)",0.933333333,0.571,1,1981.14
3,FALSE,158,"[(1046, 899)]",[],[1],[0.55],vertical,"(390.0, 262.0)",1.033333333,0.508,1,1985.875
3,FALSE,159,"[(1073, 880)]",[],[1],[0.5666666666666667],vertical,"(890.0, 262.0)",0.966666667,0.526,1,1990.562
3,FALSE,160,"[(1047, 880)]",[],[1],[0.5666666666666667],vertical,"(890.0, 262.0)",0.816666667,0.529,1,1995.187
3,FALSE,161,"[(1047, 862)]",[],[1],[0.5666666666666667],vertical,"(890.0, 762.0)",1.666666667,0.523,1,1999.781
3,FALSE,162,"[(1042, 880)]",[],[1],[0.6166666666666667],vertical,"(890.0, 262.0)",1.333333333,0.571,1,2004.708
3,FALSE,163,"[(1043, 890)]",[],[1],[0.55],horizontal,"(390.0, 262.0)",1.683333333,0.511,1,2009.541
3,FALSE,164,"[(1041, 888)]",[],[1],[0.6666666666666666],horizontal,"(890.0, 262.0)",1.633333333,0.622,1,2014.495
3,FALSE,165,"[(1062, 888)]",[],[1],[0.5166666666666666],horizontal,"(390.0, 262.0)",1.4,0.473,1,2019.792
3,FALSE,166,"[(1044, 876)]",[],[1],[0.6166666666666667],vertical,"(390.0, 762.0)",0.85,0.573,1,2024.642
3,FALSE,167,"[(1058, 879)]",[],[1],[0.5666666666666667],vertical,"(890.0, 762.0)",1.2,0.529,1,2029.333
3,FALSE,168,"[(1026, 893)]",[],[1],[0.55],vertical,"(390.0, 762.0)",0.8,0.511,1,2034.345
3,FALSE,169,"[(1014, 887)]",[],[1],[0.65],vertical,"(390.0, 762.0)",0.733333333,0.613,1,2065.939
3,FALSE,170,"[(1058, 870)]",[],[1],[0.85],vertical,"(890.0, 262.0)",1.033333333,0.806,0,2071.174
3,FALSE,171,"[(1075, 875)]",[],[1],[0.5166666666666666],horizontal,"(390.0, 262.0)",1.233333333,0.483,1,2076.088
3,FALSE,172,"[(1067, 877)]",[],[1],[0.55],horizontal,"(390.0, 762.0)",1.466666667,0.508,1,2081.239
3,FALSE,173,"[(1056, 888)]",[],[1],[0.55],horizontal,"(390.0, 762.0)",1.666666667,0.51,1,2086.389
3,FALSE,174,"[(1019, 880)]",[],[1],[0.5833333333333334],vertical,"(890.0, 762.0)",1.433333333,0.547,1,2091.955
3,FALSE,175,"[(1044, 885)]",[],[1],[0.55],vertical,"(390.0, 262.0)",1.266666667,0.509,1,2097.002
3,FALSE,176,"[(1014, 868)]",[],[1],[0.6833333333333333],vertical,"(390.0, 262.0)",1.416666667,0.642,1,2101.552
3,FALSE,177,"[(1011, 887)]",[],[1],[0.5666666666666667],horizontal,"(390.0, 762.0)",0.7,0.523,1,2106.62
3,FALSE,178,"[(1053, 895)]",[],[1],[0.55],vertical,"(890.0, 762.0)",0.85,0.507,1,2110.925
3,FALSE,179,"[(1028, 885)]",[],[1],[0.55],vertical,"(890.0, 762.0)",1.466666667,0.514,1,2115.374
3,FALSE,180,"[(1040, 881)]",[],[1],[0.7],vertical,"(390.0, 262.0)",1.666666667,0.66,1,2120.865
4,FALSE,181,"[(1042, 860)]",[],[1],[0.5],horizontal,"(390.0, 262.0)",0.8,0.459,1,2126.526
4,FALSE,182,"[(1076, 884)]",[],[1],[0.65],vertical,"(890.0, 262.0)",1.416666667,0.615,1,2131.107
4,FALSE,183,"[(1075, 872)]",[],[1],[0.5666666666666667],vertical,"(890.0, 262.0)",0.666666667,0.531,1,2136.504
4,FALSE,184,"[(1048, 890)]",[],[1],[0.6],vertical,"(890.0, 262.0)",0.616666667,0.557,1,2140.872
4,FALSE,185,"[(1073, 872)]",[],[1],[0.5333333333333333],horizontal,"(890.0, 262.0)",1.45,0.498,1,2145.452
4,FALSE,186,"[(1072, 871)]",[],[1],[0.5333333333333333],horizontal,"(390.0, 262.0)",0.533333333,0.496,1,2150.415
4,FALSE,187,"[(1047, 900)]",[],[1],[0.55],vertical,"(390.0, 262.0)",1.216666667,0.506,1,2154.524
4,FALSE,188,"[(1034, 890)]",[],[1],[0.6333333333333333],horizontal,"(390.0, 262.0)",0.75,0.593,1,2159.825
4,FALSE,189,"[(1037, 899)]",[],[1],[0.55],vertical,"(890.0, 762.0)",1.35,0.51,1,2164.282
4,FALSE,190,"[(1058, 880)]",[],[1],[0.5666666666666667],vertical,"(890.0, 762.0)",1.283333333,0.526,1,2169.086
4,FALSE,191,"[(1076, 879)]",[],[1],[0.5],horizontal,"(390.0, 262.0)",1.55,0.457,1,2173.646
4,FALSE,192,"[(1042, 882)]",[],[1],[0.3833333333333333],vertical,"(890.0, 262.0)",1.416666667,0.348,1,2179.141
4,FALSE,193,"[(1033, 899)]",[],[1],[0.5833333333333334],vertical,"(890.0, 262.0)",1.65,0.538,1,2184.411
4,FALSE,194,"[(1033, 900)]",[],[1],[0.5666666666666667],horizontal,"(390.0, 762.0)",1.183333333,0.539,1,2191.51
4,FALSE,195,"[(1036, 902)]",[],[1],[0.6166666666666667],vertical,"(890.0, 262.0)",0.55,0.573,1,2196.79
4,FALSE,196,"[(1009, 900)]",[],[1],[0.5333333333333333],horizontal,"(390.0, 262.0)",1.216666667,0.498,1,2201.192
4,FALSE,197,"[(1017, 877)]",[],[1],[0.5833333333333334],vertical,"(890.0, 762.0)",1.45,0.539,1,2206.425
4,FALSE,198,"[(1038, 899)]",[],[1],[0.5333333333333333],horizontal,"(390.0, 262.0)",1.25,0.494,1,2211.965
4,FALSE,199,"[(1028, 894)]",[],[1],[0.7333333333333333],vertical,"(890.0, 762.0)",1.133333333,0.687,1,2248.17
4,FALSE,200,"[(1035, 876)]",[],[1],[0.6166666666666667],vertical,"(390.0, 262.0)",0.616666667,0.579,1,2253.574
4,FALSE,201,"[(1017, 890)]",[],[1],[0.75],vertical,"(390.0, 262.0)",1.333333333,0.697,1,2257.77
4,FALSE,202,"[(1044, 866)]",[],[1],[0.6166666666666667],horizontal,"(890.0, 762.0)",1.333333333,0.573,1,2264.373
4,FALSE,203,"[(1041, 865)]",[],[1],[0.5833333333333334],horizontal,"(890.0, 262.0)",0.516666667,0.542,1,2269.009
4,FALSE,204,"[(1041, 878)]",[],[1],[0.65],horizontal,"(890.0, 262.0)",1,0.615,1,2273.087
4,FALSE,205,"[(1039, 873)]",[],[1],[0.5666666666666667],horizontal,"(890.0, 262.0)",1.383333333,0.52,1,2277.688
4,FALSE,206,"[(1047, 873)]",[],[1],[0.55],vertical,"(890.0, 762.0)",0.666666667,0.512,1,2282.533
4,FALSE,207,"[(1029, 877)]",[],[1],[0.6666666666666666],horizontal,"(390.0, 762.0)",1.35,0.62,1,2286.786
4,FALSE,208,"[(1023, 875)]",[],[1],[0.7],vertical,"(390.0, 262.0)",1.55,0.655,1,2291.621
4,FALSE,209,"[(1038, 883)]",[],[1],[0.5833333333333334],vertical,"(890.0, 762.0)",0.95,0.537,1,2297.092
4,FALSE,210,"[(1047, 884)]",[],[1],[0.5833333333333334],vertical,"(890.0, 762.0)",1.5,0.536,1,2302.029
4,FALSE,211,"[(1047, 882)]",[],[1],[0.65],horizontal,"(890.0, 762.0)",0.933333333,0.61,1,2307.175
4,FALSE,212,"[(1044, 880)]",[],[1],[0.5333333333333333],horizontal,"(390.0, 762.0)",1.683333333,0.499,1,2312.102
4,FALSE,213,"[(1076, 905)]",[],[1],[0.5],horizontal,"(890.0, 262.0)",0.683333333,0.458,1,2317.221
4,FALSE,214,"[(1038, 880)]",[],[1],[0.5333333333333333],horizontal,"(390.0, 762.0)",1.083333333,0.49,1,2321.473
4,FALSE,215,"[(1021, 878)]",[],[1],[0.6],horizontal,"(390.0, 262.0)",0.983333333,0.556,1,2326.393
4,FALSE,216,"[(1009, 869)]",[],[1],[0.55],horizontal,"(890.0, 762.0)",0.916666667,0.51,1,2331.873
4,FALSE,217,"[(1016, 869)]",[],[1],[0.5666666666666667],horizontal,"(390.0, 762.0)",1.3,0.526,1,2336.256
4,FALSE,218,"[(1028, 863)]",[],[1],[0.6166666666666667],horizontal,"(390.0, 262.0)",1.066666667,0.577,1,2341.401
4,FALSE,219,"[(1049, 902)]",[],[1],[0.5666666666666667],horizontal,"(890.0, 262.0)",0.533333333,0.527,1,2346.255
4,FALSE,220,"[(1018, 862)]",[],[1],[0.5833333333333334],vertical,"(390.0, 262.0)",0.616666667,0.541,1,2350.756
4,FALSE,221,"[(1028, 892)]",[],[1],[0.5833333333333334],vertical,"(890.0, 762.0)",0.65,0.538,1,2356.405
4,FALSE,222,"[(1067, 905)]",[],[1],[0.5833333333333334],vertical,"(390.0, 762.0)",0.933333333,0.542,1,2360.612
4,FALSE,223,"[(1025, 885)]",[],[1],[0.55],horizontal,"(890.0, 762.0)",0.5,0.51,1,2365.213
4,FALSE,224,"[(1028, 887)]",[],[1],[0.6166666666666667],vertical,"(890.0, 262.0)",1.2,0.568,1,2369.446
4,FALSE,225,"[(1072, 876)]",[],[1],[0.5833333333333334],vertical,"(890.0, 762.0)",1.55,0.546,1,2374.672
4,FALSE,226,"[(1062, 889)]",[],[1],[0.65],horizontal,"(390.0, 762.0)",1.45,0.605,1,2380.611
4,FALSE,227,"[(1037, 862)]",[],[1],[0.5833333333333334],horizontal,"(390.0, 762.0)",0.533333333,0.546,1,2385.51
4,FALSE,228,"[(1062, 876)]",[],[1],[0.5666666666666667],vertical,"(390.0, 762.0)",1.083333333,0.524,1,2389.738
4,FALSE,229,"[(1072, 900)]",[],[1],[0.5833333333333334],horizontal,"(390.0, 262.0)",0.866666667,0.543,1,2394.237
4,FALSE,230,"[(1051, 869)]",[],[1],[0.6166666666666667],vertical,"(390.0, 762.0)",1.4,0.574,1,2398.588
4,FALSE,231,"[(1029, 886)]",[],[1],[0.5333333333333333],horizontal,"(890.0, 262.0)",0.833333333,0.496,1,2403.744
4,FALSE,232,"[(1022, 887)]",[],[1],[0.6],horizontal,"(890.0, 262.0)",1.166666667,0.553,1,2408.206
4,FALSE,233,"[(1056, 898)]",[],[1],[0.5666666666666667],horizontal,"(890.0, 262.0)",1.033333333,0.529,1,2413.098
4,FALSE,234,"[(1058, 876)]",[],[1],[0.5166666666666666],horizontal,"(390.0, 262.0)",1.266666667,0.481,1,2417.755
4,FALSE,235,"[(1047, 885)]",[],[1],[0.55],vertical,"(390.0, 762.0)",1.533333333,0.507,1,2422.51
4,FALSE,236,"[(1045, 872)]",[],[1],[0.5166666666666666],vertical,"(390.0, 262.0)",1.016666667,0.473,1,2427.325
4,FALSE,237,"[(1066, 886)]",[],[1],[0.65],vertical,"(890.0, 262.0)",0.733333333,0.609,1,2431.912
4,FALSE,238,"[(1042, 892)]",[],[1],[0.5666666666666667],horizontal,"(890.0, 262.0)",1.433333333,0.535,1,2436.447
4,FALSE,239,"[(1042, 879)]",[],[1],[0.65],vertical,"(390.0, 762.0)",0.85,0.613,1,2441.159
4,FALSE,240,"[(1055, 872)]",[],[1],[0.5666666666666667],horizontal,"(890.0, 762.0)",1.333333333,0.527,1,2445.686
5,FALSE,241,"[(1071, 882)]",[],[1],[0.6333333333333333],horizontal,"(890.0, 262.0)",1.133333333,0.591,1,2450.547
5,FALSE,242,"[(1072, 879)]",[],[1],[0.6],horizontal,"(390.0, 762.0)",0.816666667,0.559,1,2455.26
5,FALSE,243,"[(1024, 902)]",[],[1],[0.6166666666666667],vertical,"(890.0, 262.0)",0.833333333,0.576,1,2459.476
5,FALSE,244,"[(1041, 894)]",[],[1],[0.55],vertical,"(890.0, 762.0)",0.783333333,0.521,1,2463.942
5,FALSE,245,"[(1044, 896)]",[],[1],[0.7166666666666667],vertical,"(390.0, 262.0)",0.65,0.675,1,2468.315
5,FALSE,246,"[(1049, 877)]",[],[1],[0.6833333333333333],horizontal,"(390.0, 262.0)",1.133333333,0.642,1,2472.906
5,FALSE,247,"[(1045, 868)]",[],[1],[0.6333333333333333],horizontal,"(390.0, 262.0)",1.133333333,0.588,1,2477.828
5,FALSE,248,"[(1051, 890)]",[],[1],[0.6],vertical,"(390.0, 262.0)",1.633333333,0.56,1,2482.574
5,FALSE,249,"[(1048, 904)]",[],[1],[0.5833333333333334],horizontal,"(890.0, 262.0)",0.966666667,0.543,1,2487.723
5,FALSE,250,"[(1022, 864)]",[],[1],[0.6166666666666667],horizontal,"(390.0, 762.0)",0.6,0.584,1,2492.622
5,FALSE,251,"[(1035, 882)]",[],[1],[0.55],horizontal,"(390.0, 262.0)",1.1,0.522,1,2497.34
5,FALSE,252,"[(1005, 908)]",[],[1],[0.5833333333333334],vertical,"(890.0, 762.0)",1.2,0.535,1,2501.873
5,FALSE,253,"[(1052, 884)]",[],[1],[0.6],vertical,"(390.0, 262.0)",1.183333333,0.557,1,2508.194
5,FALSE,254,"[(1047, 889)]",[],[1],[0.55],vertical,"(890.0, 762.0)",0.75,0.509,1,2512.909
5,FALSE,255,"[(995, 914), (1073, 865)]",[],"[0, 1]",[0.7],horizontal,"(390.0, 262.0)",0.533333333,0.656,1,2516.908
5,FALSE,256,"[(1023, 871)]",[],[1],[0.5],horizontal,"(890.0, 262.0)",1.016666667,0.464,1,2524.029
5,FALSE,257,"[(1023, 880)]",[],[1],[0.5666666666666667],vertical,"(390.0, 262.0)",0.816666667,0.52,1,2528.789
5,FALSE,258,"[(1055, 898)]",[],[1],[0.55],vertical,"(890.0, 762.0)",0.683333333,0.511,1,2533.139
5,FALSE,259,"[(1047, 895)]",[],[1],[0.6333333333333333],horizontal,"(390.0, 262.0)",0.85,0.589,1,2537.154
5,FALSE,260,"[(1052, 876)]",[],[1],[0.5833333333333334],horizontal,"(390.0, 262.0)",1.033333333,0.538,1,2541.894
5,FALSE,261,"[(1047, 873)]",[],[1],[0.6],vertical,"(890.0, 262.0)",0.9,0.554,1,2546.204
5,FALSE,262,"[(1042, 898)]",[],[1],[0.5833333333333334],horizontal,"(890.0, 762.0)",0.65,0.543,1,2550.522
5,FALSE,263,"[(1060, 872)]",[],[1],[0.5666666666666667],vertical,"(890.0, 762.0)",1.5,0.525,1,2554.477
5,FALSE,264,"[(1071, 895)]",[],[1],[0.6333333333333333],horizontal,"(890.0, 262.0)",1.366666667,0.591,1,2559.475
5,FALSE,265,"[(1047, 871)]",[],[1],[0.5666666666666667],horizontal,"(390.0, 762.0)",0.616666667,0.521,1,2564.425
5,FALSE,266,"[(1052, 878)]",[],[1],[0.5833333333333334],vertical,"(890.0, 762.0)",1.05,0.537,1,2568.804
5,FALSE,267,"[(1045, 867)]",[],[1],[0.6166666666666667],vertical,"(890.0, 762.0)",1.45,0.572,1,2573.26
5,FALSE,268,"[(1057, 867)]",[],[1],[0.55],vertical,"(390.0, 262.0)",1.466666667,0.515,1,2578.32
5,FALSE,269,"[(1071, 897)]",[],[1],[0.55],horizontal,"(890.0, 762.0)",0.65,0.506,1,2583.432
5,FALSE,270,"[(1043, 885)]",[],[1],[0.55],horizontal,"(890.0, 262.0)",1.2,0.503,1,2587.462
5,FALSE,271,"[(1042, 879)]",[],[1],[0.55],vertical,"(390.0, 762.0)",0.683333333,0.506,1,2591.876
5,FALSE,272,"[(1042, 876)]",[],[1],[0.5166666666666666],horizontal,"(890.0, 262.0)",1.1,0.48,1,2596.245
5,FALSE,273,"[(1038, 862)]",[],[1],[0.5833333333333334],horizontal,"(390.0, 762.0)",0.516666667,0.547,1,2600.759
5,FALSE,274,"[(1023, 897)]",[],[1],[0.5666666666666667],vertical,"(390.0, 762.0)",1.066666667,0.519,1,2604.664
5,FALSE,275,"[(1022, 882)]",[],[1],[0.6666666666666666],vertical,"(390.0, 762.0)",0.733333333,0.621,1,2609.461
5,FALSE,276,"[(1047, 895)]",[],[1],[0.5166666666666666],horizontal,"(890.0, 262.0)",1.45,0.475,1,2613.531
5,FALSE,277,"[(1054, 863)]",[],[1],[0.6],horizontal,"(390.0, 762.0)",1.083333333,0.557,1,2618.472
5,FALSE,278,"[(1038, 876)]",[],[1],[0.6333333333333333],vertical,"(890.0, 262.0)",1.433333333,0.594,1,2622.938
5,FALSE,279,"[(1038, 888)]",[],[1],[0.6],vertical,"(890.0, 762.0)",0.5,0.554,1,2627.865
5,FALSE,280,"[(1042, 867)]",[],[1],[0.5833333333333334],vertical,"(890.0, 262.0)",0.95,0.535,1,2632.387
5,FALSE,281,"[(1067, 895)]",[],[1],[0.5833333333333334],horizontal,"(890.0, 762.0)",1.1,0.541,1,2636.872
5,FALSE,282,"[(1030, 863)]",[],[1],[0.65],vertical,"(890.0, 762.0)",1.35,0.621,1,2641.339
5,FALSE,283,"[(1052, 866)]",[],[1],[0.5666666666666667],horizontal,"(890.0, 262.0)",0.516666667,0.536,1,2646.464
5,FALSE,284,"[(1042, 881)]",[],[1],[0.7],vertical,"(390.0, 262.0)",0.983333333,0.662,1,2650.391
5,FALSE,285,"[(1006, 889)]",[],[1],[0.5666666666666667],vertical,"(890.0, 262.0)",1.516666667,0.526,1,2655.265
5,FALSE,286,"[(1050, 893)]",[],[1],[0.5333333333333333],vertical,"(390.0, 262.0)",0.6,0.504,1,2660.462
5,FALSE,287,"[(1047, 880)]",[],[1],[0.5333333333333333],horizontal,"(890.0, 762.0)",1.2,0.5,1,2664.649
5,FALSE,288,"[(1052, 868)]",[],[1],[0.6],vertical,"(390.0, 762.0)",1.183333333,0.564,1,2669.395
5,FALSE,289,"[(1025, 902)]",[],[1],[0.5666666666666667],vertical,"(390.0, 762.0)",0.7,0.534,1,2673.924
5,FALSE,290,"[(1043, 877)]",[],[1],[0.65],vertical,"(890.0, 262.0)",1.616666667,0.618,1,2678.778
5,FALSE,291,"[(1044, 876)]",[],[1],[0.5666666666666667],horizontal,"(890.0, 262.0)",1.566666667,0.529,1,2684.139
5,FALSE,292,"[(1055, 866)]",[],[1],[0.55],vertical,"(890.0, 262.0)",0.533333333,0.512,1,2688.964
5,FALSE,293,"[(1042, 883)]",[],[1],[0.5833333333333334],vertical,"(890.0, 262.0)",0.766666667,0.55,1,2693.255
5,FALSE,294,"[(1039, 876)]",[],[1],[0.5833333333333334],horizontal,"(890.0, 762.0)",0.5,0.544,1,2697.291
5,FALSE,295,"[(1058, 871)]",[],[1],[0.65],horizontal,"(890.0, 762.0)",0.9,0.606,1,2701.564
5,FALSE,296,"[(1042, 884)]",[],[1],[0.6],vertical,"(390.0, 262.0)",0.516666667,0.563,1,2706.444
5,FALSE,297,"[(1021, 895)]",[],[1],[0.7166666666666667],horizontal,"(890.0, 262.0)",0.583333333,0.671,1,2710.242
5,FALSE,298,"[(1042, 892)]",[],[1],[0.6],horizontal,"(390.0, 762.0)",0.75,0.555,1,2714.544
5,FALSE,299,"[(1017, 907)]",[],[1],[0.6],horizontal,"(390.0, 762.0)",1.45,0.553,1,2718.894
5,FALSE,300,"[(1038, 870)]",[],[1],[0.6666666666666666],vertical,"(890.0, 262.0)",0.583333333,0.619,1,2724.276
6,FALSE,301,"[(1043, 877)]",[],[1],[0.5833333333333334],horizontal,"(390.0, 262.0)",1.2,0.54,1,2728.738
6,FALSE,302,"[(1023, 874)]",[],[1],[0.7],horizontal,"(890.0, 762.0)",1.45,0.666,1,2733.676
6,FALSE,303,"[(1056, 866)]",[],[1],[0.5333333333333333],vertical,"(390.0, 762.0)",0.866666667,0.492,1,2739.23
6,FALSE,304,"[(1009, 881)]",[],[1],[0.5666666666666667],vertical,"(390.0, 762.0)",0.65,0.522,1,2743.541
6,FALSE,305,"[(1047, 894)]",[],[1],[0.5666666666666667],horizontal,"(890.0, 262.0)",1.183333333,0.522,1,2748.181
6,FALSE,306,"[(1073, 875)]",[],[1],[0.85],vertical,"(390.0, 262.0)",1.45,0.799,0,2753.11
6,FALSE,307,"[(1075, 856)]",[],[1],[0.5166666666666666],horizontal,"(390.0, 262.0)",1.416666667,0.474,1,2757.947
6,FALSE,308,"[(1053, 868)]",[],[1],[0.7666666666666666],vertical,"(890.0, 262.0)",0.583333333,0.716,1,2762.93
6,FALSE,309,"[(1076, 872)]",[],[1],[0.5333333333333333],vertical,"(390.0, 762.0)",0.616666667,0.495,1,2767.244
6,FALSE,310,"[(1042, 889)]",[],[1],[0.6],horizontal,"(390.0, 762.0)",0.816666667,0.553,1,2771.38
6,FALSE,311,"[(1026, 881)]",[],[1],[0.5333333333333333],horizontal,"(390.0, 262.0)",1.65,0.492,1,2776.357
6,FALSE,312,"[(1051, 876)]",[],[1],[0.5333333333333333],vertical,"(390.0, 262.0)",0.533333333,0.494,1,2781.594
6,FALSE,313,"[(1062, 859)]",[],[1],[0.5666666666666667],horizontal,"(890.0, 762.0)",1.366666667,0.529,1,2785.977
6,FALSE,314,"[(1028, 871)]",[],[1],[0.55],horizontal,"(390.0, 262.0)",0.916666667,0.507,1,2790.52
6,FALSE,315,"[(1051, 878)]",[],[1],[0.6333333333333333],horizontal,"(390.0, 262.0)",0.933333333,0.588,1,2794.666
6,FALSE,316,"[(1036, 878)]",[],[1],[0.5666666666666667],vertical,"(390.0, 262.0)",1.65,0.521,1,2799.643
6,FALSE,317,"[(1047, 907)]",[],[1],[0.6],vertical,"(390.0, 262.0)",0.55,0.555,1,2804.766
6,FALSE,318,"[(1015, 876)]",[],[1],[0.5666666666666667],horizontal,"(390.0, 762.0)",0.916666667,0.518,1,2808.794
6,FALSE,319,"[(1041, 872)]",[],[1],[0.5666666666666667],vertical,"(890.0, 762.0)",0.9,0.522,1,2813.178
6,FALSE,320,"[(1047, 889)]",[],[1],[0.6],horizontal,"(890.0, 762.0)",1.583333333,0.553,1,2817.945
6,FALSE,321,"[(1052, 876)]",[],[1],[0.5666666666666667],horizontal,"(390.0, 262.0)",0.733333333,0.521,1,2823.227
6,FALSE,322,"[(1053, 885)]",[],[1],[0.6166666666666667],horizontal,"(890.0, 262.0)",1.016666667,0.572,1,2827.872
6,FALSE,323,"[(1052, 879)]",[],[1],[0.55],vertical,"(890.0, 262.0)",0.966666667,0.506,1,2832.37
6,FALSE,324,"[(1048, 880)]",[],[1],[0.55],horizontal,"(390.0, 262.0)",1.283333333,0.505,1,2836.889
6,FALSE,325,"[(1014, 888)]",[],[1],[0.5666666666666667],horizontal,"(390.0, 762.0)",1.683333333,0.527,1,2841.682
6,FALSE,326,"[(1056, 894)]",[],[1],[0.6833333333333333],vertical,"(390.0, 762.0)",0.55,0.642,1,2846.999
6,FALSE,327,"[(1057, 881)]",[],[1],[0.5666666666666667],vertical,"(890.0, 262.0)",1.2,0.525,1,2851.019
6,FALSE,328,"[(1050, 885)]",[],[1],[0.5333333333333333],horizontal,"(890.0, 262.0)",0.683333333,0.496,1,2855.739
6,FALSE,329,"[(1057, 884)]",[],[1],[0.6],vertical,"(390.0, 762.0)",1.45,0.555,1,2860.139
6,FALSE,330,"[(1028, 868)]",[],[1],[0.5833333333333334],horizontal,"(890.0, 262.0)",0.683333333,0.541,1,2864.946
6,FALSE,331,"[(1076, 869)]",[],[1],[0.6666666666666666],horizontal,"(890.0, 762.0)",1.6,0.621,1,2869.244
6,FALSE,332,"[(1071, 848)]",[],[1],[0.5166666666666666],vertical,"(390.0, 762.0)",1.383333333,0.478,1,2874.214
6,FALSE,333,"[(1047, 880)]",[],[1],[0.5833333333333334],vertical,"(890.0, 262.0)",1.316666667,0.54,1,2879.338
6,FALSE,334,"[(1070, 898)]",[],[1],[0.55],vertical,"(890.0, 262.0)",0.85,0.505,1,2884.006
6,FALSE,335,"[(1037, 874)]",[],[1],[0.5833333333333334],vertical,"(390.0, 762.0)",1.083333333,0.543,1,2888.029
6,FALSE,336,"[(1043, 878)]",[],[1],[0.5833333333333334],horizontal,"(390.0, 762.0)",0.633333333,0.543,1,2892.679
6,FALSE,337,"[(1043, 886)]",[],[1],[0.5333333333333333],horizontal,"(890.0, 762.0)",1.416666667,0.497,1,2897.162
6,FALSE,338,"[(1047, 870)]",[],[1],[0.5166666666666666],vertical,"(890.0, 262.0)",1.3,0.479,1,2902.446
6,FALSE,339,"[(1044, 863)]",[],[1],[0.5666666666666667],vertical,"(890.0, 262.0)",1.5,0.528,1,2907.506
6,FALSE,340,"[(1022, 885)]",[],[1],[0.5666666666666667],horizontal,"(390.0, 762.0)",1.666666667,0.527,1,2912.807
6,FALSE,341,"[(1035, 873)]",[],[1],[0.5666666666666667],vertical,"(390.0, 262.0)",0.616666667,0.525,1,2918.128
6,FALSE,342,"[(1067, 869)]",[],[1],[0.5333333333333333],horizontal,"(390.0, 262.0)",0.616666667,0.497,1,2921.858
6,FALSE,343,"[(1042, 894)]",[],[1],[0.6166666666666667],vertical,"(890.0, 762.0)",1.433333333,0.57,1,2926.077
6,FALSE,344,"[(1070, 891)]",[],[1],[0.5666666666666667],horizontal,"(390.0, 262.0)",0.55,0.523,1,2930.972
6,FALSE,345,"[(1036, 883)]",[],[1],[0.5666666666666667],vertical,"(390.0, 762.0)",1.35,0.525,1,2935.144
6,FALSE,346,"[(1073, 867)]",[],[1],[0.65],horizontal,"(890.0, 762.0)",0.966666667,0.605,1,2939.899
6,FALSE,347,"[(1047, 871)]",[],[1],[0.5333333333333333],vertical,"(390.0, 262.0)",1.466666667,0.496,1,2944.569
6,FALSE,348,"[(1076, 876)]",[],[1],[0.55],vertical,"(890.0, 262.0)",1.35,0.509,1,2949.828
6,FALSE,349,"[(1035, 875)]",[],[1],[0.7666666666666666],vertical,"(890.0, 262.0)",0.866666667,0.715,1,2954.579
6,FALSE,350,"[(1044, 884)]",[],[1],[0.5833333333333334],vertical,"(890.0, 262.0)",0.633333333,0.543,1,2959.586
6,FALSE,351,"[(1052, 885)]",[],[1],[0.5833333333333334],horizontal,"(890.0, 762.0)",1.033333333,0.544,1,2963.84
6,FALSE,352,"[(1076, 882)]",[],[1],[0.6666666666666666],vertical,"(390.0, 262.0)",1.033333333,0.623,1,2968.112
6,FALSE,353,"[(1047, 876)]",[],[1],[0.85],vertical,"(390.0, 262.0)",0.666666667,0.819,0,2972.841
6,FALSE,354,"[(1066, 855)]",[],[1],[0.55],vertical,"(390.0, 762.0)",0.55,0.513,1,2977.162
6,FALSE,355,"[(1054, 869)]",[],[1],[0.5333333333333333],horizontal,"(390.0, 262.0)",1.216666667,0.492,1,2981.539
6,FALSE,356,"[(1041, 881)]",[],[1],[0.55],horizontal,"(890.0, 262.0)",0.616666667,0.504,1,2986.412
6,FALSE,357,"[(1047, 875)]",[],[1],[0.5333333333333333],vertical,"(890.0, 762.0)",1.416666667,0.497,1,2990.41
6,FALSE,358,"[(1070, 874)]",[],[1],[0.55],horizontal,"(390.0, 762.0)",1.383333333,0.507,1,2995.346
6,FALSE,359,"[(1047, 863)]",[],[1],[0.6666666666666666],vertical,"(890.0, 262.0)",1.15,0.621,1,3000.478
6,FALSE,360,"[(1057, 868)]",[],[1],[0.6166666666666667],horizontal,"(390.0, 762.0)",1.1,0.576,1,3005.21
7,FALSE,361,"[(1037, 881)]",[],[1],[0.6666666666666666],vertical,"(890.0, 262.0)",1,0.627,1,3009.49
7,FALSE,362,"[(1071, 872)]",[],[1],[0.5666666666666667],horizontal,"(390.0, 762.0)",1.216666667,0.523,1,3014.544
7,FALSE,363,"[(1044, 873)]",[],[1],[0.6166666666666667],horizontal,"(390.0, 762.0)",0.9,0.572,1,3019.528
7,FALSE,364,"[(1064, 867)]",[],[1],[0.5333333333333333],horizontal,"(890.0, 262.0)",0.8,0.491,1,3024.379
7,FALSE,365,"[(1067, 865)]",[],[1],[0.5333333333333333],horizontal,"(390.0, 762.0)",1.333333333,0.494,1,3028.414
7,FALSE,366,"[(1038, 866)]",[],[1],[0.5833333333333334],horizontal,"(890.0, 262.0)",0.7,0.547,1,3033.678
7,FALSE,367,"[(1023, 870)]",[],[1],[0.5166666666666666],vertical,"(890.0, 262.0)",1.316666667,0.478,1,3038.252
7,FALSE,368,"[(1021, 885)]",[],[1],[0.5833333333333334],horizontal,"(890.0, 762.0)",0.966666667,0.544,1,3043.604
7,FALSE,369,"[(1047, 879)]",[],[1],[0.7833333333333333],vertical,"(390.0, 262.0)",1.1,0.748,1,3048.055
7,FALSE,370,"[(1028, 865)]",[],[1],[0.5166666666666666],vertical,"(890.0, 262.0)",1.5,0.476,1,3052.794
7,FALSE,371,"[(1052, 880)]",[],[1],[0.6333333333333333],horizontal,"(390.0, 262.0)",0.666666667,0.591,1,3058.381
7,FALSE,372,"[(1049, 890)]",[],[1],[0.5333333333333333],vertical,"(390.0, 262.0)",1.4,0.488,1,3063.257
7,FALSE,373,"[(1044, 885)]",[],[1],[0.6166666666666667],vertical,"(890.0, 762.0)",0.816666667,0.576,1,3067.961
7,FALSE,374,"[(1044, 885)]",[],[1],[0.5166666666666666],vertical,"(890.0, 262.0)",1.45,0.476,1,3072.528
7,FALSE,375,"[(1070, 863)]",[],[1],[0.5333333333333333],vertical,"(390.0, 762.0)",1.183333333,0.488,1,3077.694
7,FALSE,376,"[(1047, 885)]",[],[1],[0.5666666666666667],horizontal,"(890.0, 762.0)",0.75,0.525,1,3082.437
7,FALSE,377,"[(1018, 879)]",[],[1],[0.6],horizontal,"(890.0, 762.0)",1.516666667,0.56,1,3087.011
7,FALSE,378,"[(514, 659), (469, 972), (1079, 881)]",[],"[0, 0, 1]",[0.55],horizontal,"(390.0, 262.0)",0.95,0.508,1,3092.251
7,FALSE,379,"[(1046, 901)]",[],[1],[0.5666666666666667],horizontal,"(890.0, 262.0)",1.25,0.524,1,3180.341
7,FALSE,380,"[(1062, 885)]",[],[1],[0.5166666666666666],vertical,"(890.0, 262.0)",1.416666667,0.476,1,3185.299
7,FALSE,381,"[(1076, 890)]",[],[1],[0.5333333333333333],vertical,"(890.0, 262.0)",0.683333333,0.495,1,3190.429
7,FALSE,382,"[(1056, 884)]",[],[1],[0.5833333333333334],vertical,"(390.0, 762.0)",0.75,0.539,1,3194.396
7,FALSE,383,"[(1062, 894)]",[],[1],[0.48333333333333334],horizontal,"(890.0, 262.0)",1.55,0.445,1,3198.616
7,FALSE,384,"[(1058, 872)]",[],[1],[0.6],horizontal,"(890.0, 762.0)",1.316666667,0.555,1,3203.845
7,FALSE,385,"[(1074, 895)]",[],[1],[0.5833333333333334],vertical,"(890.0, 762.0)",1.25,0.544,1,3208.428
7,FALSE,386,"[(1032, 882)]",[],[1],[0.5666666666666667],vertical,"(890.0, 262.0)",1.566666667,0.519,1,3212.995
7,FALSE,387,"[(1076, 877)]",[],[1],[0.5166666666666666],vertical,"(390.0, 762.0)",1.266666667,0.472,1,3218.379
7,FALSE,388,"[(1043, 885)]",[],[1],[0.5333333333333333],vertical,"(890.0, 262.0)",0.7,0.494,1,3223.356
7,FALSE,389,"[(1076, 862)]",[],[1],[0.6],vertical,"(890.0, 762.0)",1.283333333,0.555,1,3227.529
7,FALSE,390,"[(1030, 895)]",[],[1],[0.6],vertical,"(390.0, 762.0)",0.85,0.559,1,3232.237
7,FALSE,391,"[(1062, 885)]",[],[1],[0.5333333333333333],horizontal,"(890.0, 762.0)",0.533333333,0.492,1,3236.235
7,FALSE,392,"[(1052, 887)]",[],[1],[0.5166666666666666],horizontal,"(890.0, 262.0)",1.416666667,0.476,1,3240.542
7,FALSE,393,"[(1052, 883)]",[],[1],[0.5666666666666667],horizontal,"(890.0, 762.0)",0.666666667,0.52,1,3245.58
7,FALSE,394,"[(1070, 894)]",[],[1],[0.6333333333333333],vertical,"(890.0, 762.0)",0.8,0.59,1,3250.506
7,FALSE,395,"[(1044, 876)]",[],[1],[0.5833333333333334],horizontal,"(890.0, 262.0)",1.116666667,0.539,1,3254.88
7,FALSE,396,"[(1049, 895)]",[],[1],[0.5333333333333333],vertical,"(390.0, 262.0)",1.683333333,0.497,1,3259.945
7,FALSE,397,"[(1071, 885)]",[],[1],[0.55],horizontal,"(390.0, 762.0)",0.85,0.513,1,3265.295
7,FALSE,398,"[(1033, 885)]",[],[1],[0.5666666666666667],horizontal,"(390.0, 262.0)",1.116666667,0.519,1,3270.141
7,FALSE,399,"[(1057, 867)]",[],[1],[0.5666666666666667],vertical,"(390.0, 262.0)",0.716666667,0.528,1,3275.154
7,FALSE,400,"[(1042, 885)]",[],[1],[0.6],horizontal,"(390.0, 262.0)",1.616666667,0.558,1,3279.89
7,FALSE,401,"[(1045, 887)]",[],[1],[0.5166666666666666],vertical,"(390.0, 262.0)",0.983333333,0.477,1,3284.943
7,FALSE,402,"[(1047, 903)]",[],[1],[0.65],horizontal,"(890.0, 262.0)",0.65,0.609,1,3290.246
7,FALSE,403,"[(1076, 897)]",[],[1],[0.5833333333333334],vertical,"(390.0, 762.0)",0.8,0.538,1,3294.788
7,FALSE,404,"[(1070, 880)]",[],[1],[0.5666666666666667],vertical,"(890.0, 762.0)",1.683333333,0.527,1,3298.876
7,FALSE,405,"[(1014, 889)]",[],[1],[0.65],vertical,"(390.0, 762.0)",0.8,0.604,1,3304.213
7,FALSE,406,"[(1045, 904)]",[],[1],[0.6166666666666667],vertical,"(890.0, 262.0)",1.616666667,0.575,1,3308.377
7,FALSE,407,"[(1055, 893)]",[],[1],[0.5333333333333333],vertical,"(390.0, 262.0)",0.8,0.494,1,3313.66
7,FALSE,408,"[(1057, 871)]",[],[1],[0.6166666666666667],horizontal,"(890.0, 762.0)",0.566666667,0.571,1,3317.729
7,FALSE,409,"[(1042, 874)]",[],[1],[0.6333333333333333],vertical,"(390.0, 762.0)",1.066666667,0.588,1,3322.392
7,FALSE,410,"[(1044, 889)]",[],[1],[0.48333333333333334],horizontal,"(390.0, 262.0)",1.6,0.44,1,3327.097
7,FALSE,411,"[(1052, 882)]",[],[1],[0.6166666666666667],vertical,"(390.0, 262.0)",1.483333333,0.578,1,3332.456
7,FALSE,412,"[(1052, 883)]",[],[1],[0.65],horizontal,"(890.0, 262.0)",1.15,0.607,1,3337.372
7,FALSE,413,"[(1038, 885)]",[],[1],[0.5666666666666667],vertical,"(890.0, 762.0)",0.566666667,0.528,1,3342.161
7,FALSE,414,"[(1062, 877)]",[],[1],[0.55],horizontal,"(890.0, 762.0)",1.3,0.507,1,3346.298
7,FALSE,415,"[(1047, 883)]",[],[1],[0.6166666666666667],horizontal,"(390.0, 762.0)",1.466666667,0.575,1,3350.912
7,FALSE,416,"[(1044, 884)]",[],[1],[0.55],horizontal,"(390.0, 262.0)",0.733333333,0.506,1,3355.996
7,FALSE,417,"[(1051, 893)]",[],[1],[0.55],horizontal,"(390.0, 262.0)",0.9,0.518,1,3360.299
7,FALSE,418,"[(1057, 874)]",[],[1],[],horizontal,"(390.0, 262.0)",,cti_phase,0,3365.125
7,FALSE,419,"[(1034, 862)]",[],[1],[0.5833333333333334],horizontal,"(890.0, 762.0)",0.533333333,0.544,1,3368.991
7,FALSE,420,"[(1004, 904), (1081, 846)]",[],"[0, 1]",[0.6333333333333333],horizontal,"(890.0, 762.0)",0.7,0.591,1,3374.001
8,FALSE,421,"[(1064, 892)]",[],[1],[0.5666666666666667],vertical,"(390.0, 262.0)",0.85,0.525,1,3379.796
8,FALSE,422,"[(1071, 867)]",[],[1],[0.5333333333333333],vertical,"(890.0, 262.0)",1.116666667,0.492,1,3384.246
8,FALSE,423,"[(1047, 874)]",[],[1],[0.5666666666666667],horizontal,"(890.0, 262.0)",0.833333333,0.53,1,3389.406
8,FALSE,424,"[(1052, 856)]",[],[1],[0.7166666666666667],vertical,"(390.0, 262.0)",0.816666667,0.67,1,3394.587
8,FALSE,425,"[(1076, 884)]",[],[1],[0.3],horizontal,"(890.0, 262.0)",1.683333333,0.266,1,3399.079
8,FALSE,426,"[(1065, 875)]",[],[1],[0.6],horizontal,"(890.0, 762.0)",1,0.555,1,3404.078
8,FALSE,427,"[(1058, 892)]",[],[1],[0.6],vertical,"(890.0, 762.0)",1.483333333,0.558,1,3408.593
8,FALSE,428,"[(1059, 892)]",[],[1],[0.65],horizontal,"(390.0, 762.0)",1.366666667,0.607,1,3414.004
8,FALSE,429,"[(1075, 865)]",[],[1],[0.5333333333333333],vertical,"(890.0, 762.0)",1.466666667,0.486,1,3419.38
8,FALSE,430,"[(1048, 867)]",[],[1],[0.5333333333333333],vertical,"(890.0, 262.0)",0.883333333,0.494,1,3424.363
8,FALSE,431,"[(1047, 890)]",[],[1],[0.5333333333333333],vertical,"(890.0, 262.0)",0.55,0.496,1,3429.03
8,FALSE,432,"[(1057, 888)]",[],[1],[0.5666666666666667],vertical,"(890.0, 762.0)",0.9,0.529,1,3433.375
8,FALSE,433,"[(1012, 876)]",[],[1],[0.55],horizontal,"(890.0, 762.0)",1.05,0.507,1,3437.757
8,FALSE,434,"[(1048, 884)]",[],[1],[0.5333333333333333],horizontal,"(890.0, 262.0)",1.65,0.492,1,3442.441
8,FALSE,435,"[(1062, 860)]",[],[1],[0.5333333333333333],horizontal,"(390.0, 762.0)",1.583333333,0.494,1,3447.396
8,FALSE,436,"[(1046, 893)]",[],[1],[0.5],horizontal,"(390.0, 262.0)",0.583333333,0.469,1,3452.596
8,FALSE,437,"[(1062, 898)]",[],[1],[0.55],horizontal,"(390.0, 762.0)",1.433333333,0.511,1,3457.076
8,FALSE,438,"[(1064, 890)]",[],[1],[0.5833333333333334],vertical,"(390.0, 762.0)",1.666666667,0.541,1,3462.344
8,FALSE,439,"[(1017, 877)]",[],[1],[0.5833333333333334],horizontal,"(890.0, 762.0)",1.05,0.538,1,3467.579
8,FALSE,440,"[(1065, 877)]",[],[1],[0.6],vertical,"(390.0, 762.0)",0.85,0.552,1,3472.558
8,FALSE,441,"[(1042, 885)]",[],[1],[0.5666666666666667],horizontal,"(390.0, 762.0)",0.75,0.524,1,3477.092
8,FALSE,442,"[(1038, 905)]",[],[1],[0.5333333333333333],vertical,"(890.0, 262.0)",1.366666667,0.494,1,3481.641
8,FALSE,443,"[(1018, 885)]",[],[1],[0.85],vertical,"(390.0, 262.0)",1.55,0.801,0,3486.606
8,FALSE,444,"[(1078, 867)]",[],[1],[0.6],horizontal,"(390.0, 762.0)",1.433333333,0.556,1,3492.196
8,FALSE,445,"[(1052, 895)]",[],[1],[0.55],horizontal,"(890.0, 762.0)",0.616666667,0.503,1,3497.027
8,FALSE,446,"[(1050, 873)]",[],[1],[0.55],vertical,"(390.0, 262.0)",0.866666667,0.512,1,3500.987
8,FALSE,447,"[(1065, 877)]",[],[1],[0.5833333333333334],horizontal,"(390.0, 262.0)",1.033333333,0.541,1,3505.262
8,FALSE,448,"[(1046, 889)]",[],[1],[0.5333333333333333],vertical,"(890.0, 262.0)",0.883333333,0.493,1,3510.046
8,FALSE,449,"[(1056, 866)]",[],[1],[0.6333333333333333],horizontal,"(390.0, 262.0)",0.616666667,0.586,1,3514.923
8,FALSE,450,"[(1022, 894)]",[],[1],[0.11666666666666667],horizontal,"(390.0, 262.0)",1.35,0.085,1,3518.857
8,FALSE,451,"[(1042, 893)]",[],[1],[0.3833333333333333],horizontal,"(390.0, 262.0)",1.25,0.342,1,3523.679
8,FALSE,452,"[(1044, 876)]",[],[1],[0.55],horizontal,"(890.0, 262.0)",0.783333333,0.508,1,3528.511
8,FALSE,453,"[(1047, 869)]",[],[1],[0.5833333333333334],horizontal,"(390.0, 762.0)",1.383333333,0.537,1,3532.573
8,FALSE,454,"[(1039, 884)]",[],[1],[0.6333333333333333],horizontal,"(390.0, 762.0)",0.733333333,0.586,1,3537.44
8,FALSE,455,"[(1015, 857)]",[],[1],[0.55],horizontal,"(390.0, 762.0)",0.766666667,0.507,1,3541.98
8,FALSE,456,"[(1023, 867)]",[],[1],[0.5666666666666667],horizontal,"(390.0, 762.0)",0.65,0.521,1,3557.326
8,FALSE,457,"[(1044, 885)]",[],[1],[0.5666666666666667],vertical,"(390.0, 262.0)",1.116666667,0.523,1,3561.196
8,FALSE,458,"[(1025, 899)]",[],[1],[0.6333333333333333],horizontal,"(390.0, 762.0)",1,0.588,1,3565.459
8,FALSE,459,"[(997, 880), (1062, 852)]",[],"[0, 1]",[0.55],horizontal,"(390.0, 762.0)",1.5,0.521,1,3570.014
8,FALSE,460,"[(1052, 895)]",[],[1],[0.6333333333333333],horizontal,"(390.0, 762.0)",0.766666667,0.592,1,3576.649
8,FALSE,461,"[(1042, 877)]",[],[1],[0.5],horizontal,"(890.0, 262.0)",1.516666667,0.464,1,3581.421
8,FALSE,462,"[(1046, 897)]",[],[1],[0.5833333333333334],horizontal,"(390.0, 762.0)",1.383333333,0.538,1,3586.597
8,FALSE,463,"[(1042, 875)]",[],[1],[0.55],vertical,"(390.0, 262.0)",1.183333333,0.51,1,3591.618
8,FALSE,464,"[(1049, 872)]",[],[1],[0.6333333333333333],horizontal,"(890.0, 762.0)",1.216666667,0.59,1,3596.707
8,FALSE,465,"[(1052, 861)]",[],[1],[0.65],horizontal,"(890.0, 762.0)",1.283333333,0.605,1,3601.923
8,FALSE,466,"[(1047, 895)]",[],[1],[0.55],vertical,"(890.0, 762.0)",1.666666667,0.508,1,3606.702
8,FALSE,467,"[(1064, 880)]",[],[1],[0.7],horizontal,"(890.0, 262.0)",0.666666667,0.652,1,3611.908
8,FALSE,468,"[(1072, 885)]",[],[1],[0.4666666666666667],horizontal,"(390.0, 262.0)",1.533333333,0.424,1,3616.297
8,FALSE,469,"[(1047, 888)]",[],[1],[0.5833333333333334],vertical,"(890.0, 262.0)",1.3,0.537,1,3621.361
8,FALSE,470,"[(1050, 875)]",[],[1],[0.5166666666666666],horizontal,"(390.0, 262.0)",1.316666667,0.47,1,3625.902
8,FALSE,471,"[(1028, 885)]",[],[1],[0.55],vertical,"(890.0, 262.0)",0.716666667,0.509,1,3630.3
8,FALSE,472,"[(1032, 888)]",[],[1],[0.5666666666666667],vertical,"(890.0, 262.0)",1.2,0.522,1,3634.577
8,FALSE,473,"[(1049, 893)]",[],[1],[0.55],horizontal,"(890.0, 762.0)",0.883333333,0.508,1,3639.421
8,FALSE,474,"[(1062, 889)]",[],[1],[0.6],vertical,"(390.0, 762.0)",1.1,0.565,1,3643.962
8,FALSE,475,"[(1055, 872)]",[],[1],[0.5166666666666666],vertical,"(890.0, 262.0)",0.5,0.478,1,3648.56
8,FALSE,476,"[(1047, 885)]",[],[1],[0.6],horizontal,"(890.0, 262.0)",1.566666667,0.559,1,3652.863
8,FALSE,477,"[(1052, 893)]",[],[1],[0.4],vertical,"(390.0, 762.0)",1.633333333,0.362,1,3658.028
8,FALSE,478,"[(1044, 890)]",[],[1],[0.55],vertical,"(890.0, 762.0)",1.5,0.509,1,3662.88
8,FALSE,479,"[(1054, 880)]",[],[1],[0.7333333333333333],horizontal,"(390.0, 262.0)",0.666666667,0.686,1,3668.404
8,FALSE,480,"[(1016, 886)]",[],[1],[0.5833333333333334],vertical,"(890.0, 762.0)",1.3,0.541,1,3672.419
9,FALSE,481,"[(1047, 890)]",[],[1],[0.5833333333333334],horizontal,"(390.0, 262.0)",0.65,0.541,1,3677.36
9,FALSE,482,"[(1042, 890)]",[],[1],[0.55],vertical,"(390.0, 762.0)",1.45,0.515,1,3681.834
9,FALSE,483,"[(1049, 895)]",[],[1],[0.5333333333333333],vertical,"(390.0, 262.0)",0.533333333,0.494,1,3686.653
9,FALSE,484,"[(1033, 865)]",[],[1],[0.6333333333333333],vertical,"(890.0, 762.0)",1.216666667,0.589,1,3690.868
9,FALSE,485,"[(1052, 888)]",[],[1],[0.5333333333333333],horizontal,"(890.0, 762.0)",1.416666667,0.491,1,3696.073
9,FALSE,486,"[(1042, 867)]",[],[1],[0.5833333333333334],vertical,"(890.0, 762.0)",0.833333333,0.535,1,3701.063
9,FALSE,487,"[(1052, 860)]",[],[1],[0.5666666666666667],horizontal,"(390.0, 762.0)",0.8,0.522,1,3705.464
9,FALSE,488,"[(1076, 890)]",[],[1],[0.6],vertical,"(390.0, 262.0)",1.333333333,0.55,1,3709.524
9,FALSE,489,"[(1023, 881)]",[],[1],[0.5833333333333334],vertical,"(890.0, 262.0)",0.85,0.541,1,3714.258
9,FALSE,490,"[(1052, 868)]",[],[1],[0.5833333333333334],horizontal,"(890.0, 762.0)",0.9,0.542,1,3718.402
9,FALSE,491,"[(1050, 868)]",[],[1],[0.6166666666666667],horizontal,"(390.0, 762.0)",1.15,0.573,1,3722.726
9,FALSE,492,"[(1047, 895)]",[],[1],[0.5666666666666667],horizontal,"(390.0, 762.0)",1.6,0.525,1,3727.569
9,FALSE,493,"[(1052, 872)]",[],[1],[0.5],horizontal,"(390.0, 262.0)",1.483333333,0.458,1,3734.098
9,FALSE,494,"[(1079, 867)]",[],[1],[0.5333333333333333],horizontal,"(890.0, 262.0)",0.733333333,0.496,1,3739.022
9,FALSE,495,"[(1048, 862)]",[],[1],[0.5333333333333333],vertical,"(390.0, 762.0)",0.716666667,0.497,1,3743.547
9,FALSE,496,"[(1049, 876)]",[],[1],[0.6333333333333333],vertical,"(890.0, 762.0)",1.1,0.585,1,3747.81
9,FALSE,497,"[(1047, 888)]",[],[1],[0.5833333333333334],horizontal,"(890.0, 762.0)",0.6,0.541,1,3752.153
9,FALSE,498,"[(1058, 898)]",[],[1],[0.6666666666666666],horizontal,"(890.0, 762.0)",0.716666667,0.618,1,3756.126
9,FALSE,499,"[(1042, 869)]",[],[1],[0.5666666666666667],horizontal,"(390.0, 262.0)",0.883333333,0.524,1,3760.857
9,FALSE,500,"[(1063, 875)]",[],[1],[0.5833333333333334],vertical,"(890.0, 762.0)",0.983333333,0.539,1,3764.925
9,FALSE,501,"[(1033, 874)]",[],[1],[0.55],vertical,"(390.0, 762.0)",1.6,0.509,1,3769.163
9,FALSE,502,"[(1043, 866)]",[],[1],[0.5333333333333333],horizontal,"(890.0, 262.0)",1.216666667,0.491,1,3773.913
9,FALSE,503,"[(1058, 888)]",[],[1],[0.55],horizontal,"(390.0, 262.0)",1.6,0.51,1,3778.657
9,FALSE,504,"[(1042, 871)]",[],[1],[0.7],vertical,"(390.0, 762.0)",1.116666667,0.654,1,3784.019
9,FALSE,505,"[(1057, 884)]",[],[1],[0.7],vertical,"(390.0, 262.0)",1.55,0.657,1,3789.027
9,FALSE,506,"[(1045, 887)]",[],[1],[0.6],horizontal,"(390.0, 762.0)",1.666666667,0.558,1,3794.531
9,FALSE,507,"[(1053, 863)]",[],[1],[0.55],vertical,"(390.0, 762.0)",1,0.507,1,3799.794
9,FALSE,508,"[(1040, 886)]",[],[1],[0.6666666666666666],vertical,"(390.0, 262.0)",1.166666667,0.62,1,3804.176
9,FALSE,509,"[(991, 854), (1048, 850)]",[],"[0, 1]",[0.5833333333333334],vertical,"(390.0, 762.0)",1.266666667,0.538,1,3809.124
9,FALSE,510,"[(1068, 895)]",[],[1],[0.55],vertical,"(390.0, 762.0)",1.6,0.506,1,3819.636
9,FALSE,511,"[(1011, 881)]",[],[1],[0.6333333333333333],vertical,"(390.0, 762.0)",0.516666667,0.592,1,3824.977
9,FALSE,512,"[(1042, 898)]",[],[1],[0.5666666666666667],vertical,"(890.0, 762.0)",1.116666667,0.522,1,3829.318
9,FALSE,513,"[(1045, 887)]",[],[1],[0.2833333333333333],horizontal,"(390.0, 262.0)",1.416666667,0.25,1,3834.181
9,FALSE,514,"[(1011, 901)]",[],[1],[0.5333333333333333],horizontal,"(890.0, 262.0)",1.116666667,0.49,1,3839.188
9,FALSE,515,"[(1042, 863)]",[],[1],[0.55],vertical,"(890.0, 262.0)",1.166666667,0.515,1,3844.462
9,FALSE,516,"[(1042, 882)]",[],[1],[0.65],horizontal,"(890.0, 762.0)",0.633333333,0.611,1,3908.675
9,FALSE,517,"[(1041, 883)]",[],[1],[0.5166666666666666],horizontal,"(390.0, 262.0)",1.183333333,0.47,1,3913.251
9,FALSE,518,"[(1019, 892)]",[],[1],[0.55],vertical,"(390.0, 762.0)",1.616666667,0.507,1,3918.295
9,FALSE,519,"[(1050, 890)]",[],[1],[0.5166666666666666],vertical,"(890.0, 262.0)",0.933333333,0.474,1,3923.87
9,FALSE,520,"[(1059, 885)]",[],[1],[0.5833333333333334],vertical,"(890.0, 762.0)",0.766666667,0.541,1,3928.628
9,FALSE,521,"[(1047, 877)]",[],[1],[0.6333333333333333],horizontal,"(390.0, 762.0)",0.583333333,0.595,1,3933.114
9,FALSE,522,"[(1062, 889)]",[],[1],[0.5],horizontal,"(890.0, 262.0)",1.666666667,0.458,1,3937.447
9,FALSE,523,"[(1047, 895)]",[],[1],[0.55],vertical,"(890.0, 762.0)",1.666666667,0.51,1,3942.896
9,FALSE,524,"[(1045, 885)]",[],[1],[0.6166666666666667],horizontal,"(890.0, 762.0)",0.783333333,0.573,1,3948.36
9,FALSE,525,"[(1081, 900)]",[],[1],[0.5666666666666667],horizontal,"(390.0, 762.0)",1.066666667,0.521,1,3953.005
9,FALSE,526,"[(1061, 878)]",[],[1],[0.48333333333333334],vertical,"(890.0, 262.0)",1.25,0.442,1,3958.025
9,FALSE,527,"[(1054, 869)]",[],[1],[0.48333333333333334],horizontal,"(390.0, 262.0)",1.566666667,0.442,1,3963.18
9,FALSE,528,"[(1038, 888)]",[],[1],[0.6],vertical,"(890.0, 762.0)",1.183333333,0.559,1,3968.208
9,FALSE,529,"[(1052, 888)]",[],[1],[0.5666666666666667],vertical,"(390.0, 262.0)",1.216666667,0.521,1,3973.635
9,FALSE,530,"[(1057, 894)]",[],[1],[0.65],horizontal,"(390.0, 762.0)",0.783333333,0.606,1,3978.439
9,FALSE,531,"[(1039, 872)]",[],[1],[0.6],vertical,"(390.0, 762.0)",0.833333333,0.559,1,3982.724
9,FALSE,532,"[(1012, 905)]",[],[1],[0.55],horizontal,"(390.0, 262.0)",0.8,0.508,1,3986.893
9,FALSE,533,"[(1031, 893)]",[],[1],[0.6666666666666666],horizontal,"(890.0, 262.0)",0.85,0.626,1,3991.611
9,FALSE,534,"[(1066, 876)]",[],[1],[0.6166666666666667],horizontal,"(390.0, 262.0)",0.666666667,0.574,1,3995.981
9,FALSE,535,"[(1067, 887)]",[],[1],[0.23333333333333334],vertical,"(890.0, 262.0)",0.966666667,0.2,1,4000.508
9,FALSE,536,"[(1047, 886)]",[],[1],[0.5833333333333334],horizontal,"(890.0, 762.0)",1.366666667,0.539,1,4004.273
9,FALSE,537,"[(1047, 885)]",[],[1],[0.6833333333333333],horizontal,"(390.0, 262.0)",1.483333333,0.643,1,4009.476
9,FALSE,538,"[(1047, 891)]",[],[1],[0.85],vertical,"(390.0, 262.0)",1.266666667,0.795,0,4014.802
9,FALSE,539,"[(1069, 869)]",[],[1],[0.5166666666666666],horizontal,"(390.0, 262.0)",1.216666667,0.475,1,4020.045
9,FALSE,540,"[(1052, 880)]",[],[1],[0.5666666666666667],vertical,"(890.0, 762.0)",0.666666667,0.526,1,4025.147
10,FALSE,541,"[(1042, 889)]",[],[1],[0.5666666666666667],horizontal,"(390.0, 762.0)",1.5,0.527,1,4029.676
10,FALSE,542,"[(1052, 862)]",[],[1],[],vertical,"(890.0, 262.0)",,cti_phase,0,4035.026
10,FALSE,543,"[(1043, 871)]",[],[1],[0.55],horizontal,"(390.0, 262.0)",1.116666667,0.508,1,4040.409
10,FALSE,544,"[(1040, 870)]",[],[1],[0.7],horizontal,"(890.0, 262.0)",0.533333333,0.651,1,4045.215
10,FALSE,545,"[(1028, 896)]",[],[1],[0.7166666666666667],vertical,"(890.0, 262.0)",1.05,0.666,1,4049.377
10,FALSE,546,"[(1041, 874)]",[],[1],[0.6],horizontal,"(390.0, 762.0)",1.05,0.556,1,4054.176
10,FALSE,547,"[(1060, 903)]",[],[1],[0.55],vertical,"(390.0, 262.0)",0.583333333,0.51,1,4059.027
10,FALSE,548,"[(1019, 888)]",[],[1],[0.6],horizontal,"(890.0, 262.0)",0.783333333,0.553,1,4063.007
10,FALSE,549,"[(1071, 885)]",[],[1],[0.55],vertical,"(390.0, 262.0)",1.666666667,0.502,1,4067.612
10,FALSE,550,"[(1038, 895)]",[],[1],[0.5333333333333333],horizontal,"(890.0, 262.0)",1.433333333,0.495,1,4072.583
10,FALSE,551,"[(1040, 875)]",[],[1],[0.55],horizontal,"(890.0, 262.0)",1.566666667,0.51,1,4077.497
10,FALSE,552,"[(1040, 884)]",[],[1],[0.5],vertical,"(890.0, 262.0)",1.033333333,0.458,1,4082.308
10,FALSE,553,"[(1048, 873)]",[],[1],[0.55],vertical,"(890.0, 762.0)",0.933333333,0.507,1,4087.199
10,FALSE,554,"[(1072, 865)]",[],[1],[0.5666666666666667],vertical,"(390.0, 762.0)",0.833333333,0.524,1,4091.926
10,FALSE,555,"[(1035, 879)]",[],[1],[0.5666666666666667],horizontal,"(890.0, 762.0)",0.716666667,0.525,1,4096.639
10,FALSE,556,"[(1042, 900)]",[],[1],[0.6],horizontal,"(390.0, 762.0)",0.5,0.561,1,4101.396
10,FALSE,557,"[(1015, 864)]",[],[1],[0.5666666666666667],horizontal,"(390.0, 762.0)",0.983333333,0.519,1,4105.877
10,FALSE,558,"[(1055, 877)]",[],[1],[0.5333333333333333],horizontal,"(390.0, 762.0)",0.55,0.498,1,4176.178
10,FALSE,559,"[(1023, 875)]",[],[1],[0.5833333333333334],vertical,"(890.0, 762.0)",1.35,0.543,1,4179.969
10,FALSE,560,"[(1032, 898)]",[],[1],[0.6833333333333333],vertical,"(390.0, 762.0)",1.416666667,0.635,1,4184.875
10,FALSE,561,"[(1065, 893)]",[],[1],[0.55],horizontal,"(890.0, 262.0)",1.266666667,0.506,1,4190.06
10,FALSE,562,"[(1059, 884)]",[],[1],[0.6833333333333333],vertical,"(890.0, 762.0)",1.1,0.645,1,4195.127
10,FALSE,563,"[(1071, 885)]",[],[1],[0.5666666666666667],vertical,"(890.0, 762.0)",1.316666667,0.524,1,4244.2
10,FALSE,564,"[(1058, 881)]",[],[1],[0.55],horizontal,"(890.0, 262.0)",1.433333333,0.504,1,4248.96
10,FALSE,565,"[(1052, 906)]",[],[1],[0.6],vertical,"(390.0, 262.0)",0.516666667,0.566,1,4253.949
10,FALSE,566,"[(1043, 885)]",[],[1],[0.55],vertical,"(890.0, 762.0)",1.05,0.508,1,4257.919
10,FALSE,567,"[(1070, 900)]",[],[1],[0.55],horizontal,"(890.0, 262.0)",0.75,0.509,1,4262.174
10,FALSE,568,"[(1057, 890)]",[],[1],[0.5666666666666667],vertical,"(390.0, 262.0)",0.85,0.531,1,4266.283
10,FALSE,569,"[(1071, 916)]",[],[1],[0.5333333333333333],horizontal,"(390.0, 262.0)",1.683333333,0.491,1,4270.647
10,FALSE,570,"[(1068, 877)]",[],[1],[0.48333333333333334],horizontal,"(390.0, 262.0)",1.6,0.441,1,4275.858
10,FALSE,571,"[(1066, 876)]",[],[1],[0.5666666666666667],horizontal,"(390.0, 262.0)",1.05,0.526,1,4280.949
10,FALSE,572,"[(1051, 878)]",[],[1],[0.75],vertical,"(390.0, 762.0)",1.05,0.7,1,4285.398
10,FALSE,573,"[(1053, 876)]",[],[1],[0.4666666666666667],horizontal,"(390.0, 262.0)",1.6,0.428,1,4290.235
10,FALSE,574,"[(1052, 871)]",[],[1],[0.5166666666666666],horizontal,"(390.0, 262.0)",1.433333333,0.472,1,4295.515
10,FALSE,575,"[(1052, 860)]",[],[1],[0.6333333333333333],horizontal,"(890.0, 762.0)",1.466666667,0.588,1,4300.48
10,FALSE,576,"[(1073, 911)]",[],[1],[0.5833333333333334],vertical,"(890.0, 762.0)",0.8,0.544,1,4305.865
10,FALSE,577,"[(1021, 892)]",[],[1],[0.6],horizontal,"(390.0, 262.0)",1.583333333,0.567,1,4310.194
10,FALSE,578,"[(1051, 860)]",[],[1],[0.7333333333333333],vertical,"(890.0, 262.0)",1.166666667,0.694,1,4315.277
10,FALSE,579,"[(1047, 869)]",[],[1],[0.6],horizontal,"(890.0, 762.0)",0.783333333,0.555,1,4320.235
10,FALSE,580,"[(1071, 890)]",[],[1],[0.6666666666666666],vertical,"(390.0, 762.0)",1.05,0.622,1,4324.361
10,FALSE,581,"[(1047, 905)]",[],[1],[0.5833333333333334],vertical,"(390.0, 262.0)",1.366666667,0.539,1,4329.512
10,FALSE,582,"[(1020, 876)]",[],[1],[0.55],horizontal,"(890.0, 262.0)",0.55,0.506,1,4334.293
10,FALSE,583,"[(1019, 876)]",[],[1],[0.6166666666666667],vertical,"(890.0, 762.0)",0.8,0.572,1,4338.384
10,FALSE,584,"[(1062, 869)]",[],[1],[0.6],vertical,"(390.0, 762.0)",0.716666667,0.562,1,4343.034
10,FALSE,585,"[(1037, 884)]",[],[1],[0.5833333333333334],vertical,"(890.0, 262.0)",0.85,0.538,1,4347.467
10,FALSE,586,"[(1050, 875)]",[],[1],[0.5666666666666667],vertical,"(890.0, 762.0)",0.583333333,0.525,1,4352.064
10,FALSE,587,"[(1070, 866)]",[],[1],[0.6333333333333333],horizontal,"(390.0, 762.0)",0.666666667,0.586,1,4356.561
10,FALSE,588,"[(1072, 906)]",[],[1],[0.6],vertical,"(890.0, 762.0)",0.683333333,0.555,1,4360.896
10,FALSE,589,"[(1046, 866)]",[],[1],[0.7],vertical,"(890.0, 762.0)",0.733333333,0.649,1,4365.11
10,FALSE,590,"[(1066, 890)]",[],[1],[0.6333333333333333],vertical,"(390.0, 762.0)",1.633333333,0.588,1,4369.924
10,FALSE,591,"[(1071, 880)]",[],[1],[0.5833333333333334],vertical,"(890.0, 762.0)",0.983333333,0.537,1,4375.558
10,FALSE,592,"[(1042, 866)]",[],[1],[0.7833333333333333],horizontal,"(390.0, 262.0)",0.666666667,0.736,1,4380.38
10,FALSE,593,"[(1063, 892)]",[],[1],[0.55],horizontal,"(890.0, 262.0)",0.516666667,0.511,1,4385.064
10,FALSE,594,"[(1062, 867)]",[],[1],[0.6666666666666666],vertical,"(390.0, 262.0)",0.8,0.62,1,4389.265
10,FALSE,595,"[(1047, 887)]",[],[1],[0.6],vertical,"(390.0, 762.0)",1.583333333,0.563,1,4393.744
10,FALSE,596,"[(1055, 865)]",[],[1],[0.48333333333333334],horizontal,"(890.0, 262.0)",1.45,0.443,1,4399.58
10,FALSE,597,"[(1046, 890)]",[],[1],[0.5166666666666666],horizontal,"(890.0, 262.0)",0.866666667,0.48,1,4404.259
10,FALSE,598,"[(1033, 862)]",[],[1],[0.5666666666666667],horizontal,"(890.0, 262.0)",1.166666667,0.522,1,4408.773
10,FALSE,599,"[(1073, 876)]",[],[1],[0.55],vertical,"(390.0, 762.0)",0.566666667,0.515,1,4413.655
10,FALSE,600,"[(1039, 879)]",[],[1],[0.6333333333333333],horizontal,"(890.0, 262.0)",1.65,0.589,1,4417.579
11,FALSE,601,"[(1040, 871)]",[],[1],[0.6833333333333333],horizontal,"(390.0, 762.0)",1.383333333,0.636,1,4422.893
11,FALSE,602,"[(1021, 877)]",[],[1],[0.55],vertical,"(390.0, 262.0)",1.65,0.508,1,4428.696
11,FALSE,603,"[(1032, 856)]",[],[1],[0.8],horizontal,"(390.0, 262.0)",1.216666667,0.752,1,4433.679
11,FALSE,604,"[(1041, 863)]",[],[1],[0.55],vertical,"(890.0, 762.0)",1.5,0.511,1,4438.48
11,FALSE,605,"[(1040, 868)]",[],[1],[0.6],vertical,"(890.0, 762.0)",0.583333333,0.556,1,4444.414
11,FALSE,606,"[(1041, 873)]",[],[1],[0.5166666666666666],horizontal,"(890.0, 262.0)",1.65,0.476,1,4448.866
11,FALSE,607,"[(1042, 866)]",[],[1],[0.5666666666666667],horizontal,"(390.0, 762.0)",0.533333333,0.526,1,4453.913
11,FALSE,608,"[(1018, 885)]",[],[1],[0.55],vertical,"(890.0, 762.0)",1.116666667,0.507,1,4457.599
11,FALSE,609,"[(1043, 896)]",[],[1],[0.5],vertical,"(890.0, 262.0)",0.983333333,0.466,1,4462.206
11,FALSE,610,"[(1053, 887)]",[],[1],[0.5666666666666667],vertical,"(890.0, 762.0)",0.866666667,0.522,1,4466.668
11,FALSE,611,"[(1023, 882)]",[],[1],[0.5333333333333333],vertical,"(890.0, 262.0)",1.266666667,0.488,1,4471.346
11,FALSE,612,"[(1042, 882)]",[],[1],[0.55],vertical,"(390.0, 262.0)",1.55,0.505,1,4476.539
11,FALSE,613,"[(1051, 880)]",[],[1],[0.5833333333333334],vertical,"(390.0, 262.0)",0.85,0.536,1,4481.772
11,FALSE,614,"[(1043, 871)]",[],[1],[0.6],vertical,"(890.0, 262.0)",1.133333333,0.552,1,4486.221
11,FALSE,615,"[(1033, 885)]",[],[1],[0.55],horizontal,"(890.0, 762.0)",0.966666667,0.504,1,4490.594
11,FALSE,616,"[(1046, 889)]",[],[1],[0.5166666666666666],vertical,"(890.0, 262.0)",1.383333333,0.474,1,4495.311
11,FALSE,617,"[(1028, 876)]",[],[1],[0.5],horizontal,"(890.0, 262.0)",1.416666667,0.458,1,4499.966
11,FALSE,618,"[(1044, 887)]",[],[1],[0.5333333333333333],horizontal,"(390.0, 262.0)",1.466666667,0.491,1,4504.719
11,FALSE,619,"[(1047, 877)]",[],[1],[0.6333333333333333],horizontal,"(390.0, 762.0)",1.033333333,0.585,1,4509.989
11,FALSE,620,"[(1031, 886)]",[],[1],[0.6166666666666667],horizontal,"(390.0, 762.0)",1.066666667,0.577,1,4514.585
11,FALSE,621,"[(1025, 905)]",[],[1],[0.5666666666666667],horizontal,"(890.0, 762.0)",1.583333333,0.525,1,4518.981
11,FALSE,622,"[(1042, 876)]",[],[1],[0.6],vertical,"(890.0, 762.0)",1.4,0.554,1,4524.217
11,FALSE,623,"[(1028, 863)]",[],[1],[0.7166666666666667],vertical,"(890.0, 262.0)",0.5,0.682,1,4529.098
11,FALSE,624,"[(1033, 880)]",[],[1],[0.6],vertical,"(890.0, 262.0)",1.033333333,0.555,1,4533.392
11,FALSE,625,"[(1038, 876)]",[],[1],[0.55],vertical,"(390.0, 762.0)",1.583333333,0.51,1,4538.248
11,FALSE,626,"[(1042, 880)]",[],[1],[0.6],vertical,"(390.0, 262.0)",1.433333333,0.56,1,4543.093
11,FALSE,627,"[(1047, 876)]",[],[1],[0.5333333333333333],vertical,"(890.0, 262.0)",0.616666667,0.489,1,4547.947
11,FALSE,628,"[(1050, 860)]",[],[1],[0.5],horizontal,"(390.0, 262.0)",1.133333333,0.457,1,4551.781
11,FALSE,629,"[(1064, 871)]",[],[1],[0.5666666666666667],horizontal,"(390.0, 762.0)",0.716666667,0.524,1,4556.502
11,FALSE,630,"[(1049, 873)]",[],[1],[0.5333333333333333],horizontal,"(890.0, 262.0)",0.9,0.492,1,4560.783
11,FALSE,631,"[(1062, 871)]",[],[1],[0.5333333333333333],horizontal,"(390.0, 262.0)",0.766666667,0.494,1,4565.356
11,FALSE,632,"[(1047, 909)]",[],[1],[0.6166666666666667],horizontal,"(390.0, 762.0)",1.333333333,0.573,1,4569.462
11,FALSE,633,"[(1042, 871)]",[],[1],[0.4666666666666667],horizontal,"(390.0, 262.0)",1.516666667,0.422,1,4574.247
11,FALSE,634,"[(1066, 861)]",[],[1],[0.5666666666666667],vertical,"(390.0, 762.0)",0.766666667,0.523,1,4579.336
11,FALSE,635,"[(1048, 875)]",[],[1],[0.6666666666666666],horizontal,"(390.0, 262.0)",0.583333333,0.621,1,4583.544
11,FALSE,636,"[(1031, 864)]",[],[1],[0.85],vertical,"(890.0, 762.0)",1.4,0.793,0,4588.185
11,FALSE,637,"[(491, 618), (449, 894), (260, 679), (361, 715), (390, 663), (1109, 939)]",[],"[0, 0, 0, 0, 0, 1]",[0.85],vertical,"(890.0, 262.0)",1.266666667,0.801,0,5462.519
11,FALSE,638,"[(1114, 944)]","[(1114, 944)]",[1],[0.06666666666666667],horizontal,"(890.0, 262.0)",,bar_phase,0,5829.181
11,FALSE,639,"[(1039, 901)]",[],[1],[0.85],horizontal,"(390.0, 762.0)",1.083333333,0.805,0,5838.294
11,FALSE,640,"[(146, 989), (386, 688), (59, 651), (425, 658), (1250, 665), (438, 737), (387, 655), (132, 473), (125, 665), (412, 541), (1218, 248), (160, 704), (1014, 882)]",[],"[0, 0, 0, 0, 0, 0, 0, 0, 0, 0, 0, 0, 1]",[0.6],vertical,"(890.0, 762.0)",0.916666667,0.551,1,6356.567
11,FALSE,641,"[(1038, 899)]",[],[1],[0.5666666666666667],horizontal,"(390.0, 262.0)",0.65,0.527,1,10198.815
11,FALSE,642,"[(1055, 902)]",[],[1],[0.5666666666666667],vertical,"(890.0, 262.0)",1.583333333,0.527,1,10203.56
11,FALSE,643,"[(1038, 874)]",[],[1],[0.6166666666666667],vertical,"(390.0, 262.0)",0.966666667,0.571,1,10208.495
11,FALSE,644,"[(1038, 901)]",[],[1],[0.5],horizontal,"(890.0, 262.0)",1.45,0.458,1,10212.724
11,FALSE,645,"[(1035, 882)]",[],[1],[0.5],horizontal,"(890.0, 262.0)",1.333333333,0.461,1,10217.66
11,FALSE,646,"[(1039, 905)]",[],[1],[0.48333333333333334],vertical,"(890.0, 262.0)",1.616666667,0.449,1,10222.787
11,FALSE,647,"[(1042, 863)]",[],[1],[0.6],vertical,"(390.0, 262.0)",0.533333333,0.564,1,10228.123
11,FALSE,648,"[(1078, 887)]",[],[1],[0.5333333333333333],vertical,"(890.0, 762.0)",1.166666667,0.492,1,10232.615
11,FALSE,649,"[(1052, 880)]",[],[1],[0.5833333333333334],vertical,"(890.0, 762.0)",1.583333333,0.544,1,10237.247
11,FALSE,650,"[(1054, 854)]",[],[1],[0.55],vertical,"(890.0, 762.0)",1.266666667,0.515,1,10242.398
11,FALSE,651,"[(1018, 866)]",[],[1],[0.6333333333333333],vertical,"(890.0, 762.0)",1.45,0.592,1,10246.839
11,FALSE,652,"[(1052, 883)]",[],[1],[0.5166666666666666],horizontal,"(890.0, 262.0)",1.15,0.475,1,10252.482
11,FALSE,653,"[(1053, 902)]",[],[1],[0.6],vertical,"(390.0, 262.0)",1.466666667,0.554,1,10256.938
11,FALSE,654,"[(1063, 868)]",[],[1],[0.6],vertical,"(890.0, 262.0)",0.5,0.559,1,10262.131
11,FALSE,655,"[(1047, 874)]",[],[1],[0.55],horizontal,"(890.0, 262.0)",1.666666667,0.517,1,10266.076
11,FALSE,656,"[(1032, 867)]",[],[1],[0.5666666666666667],vertical,"(390.0, 262.0)",0.766666667,0.521,1,10271.139
11,FALSE,657,"[(1039, 901)]",[],[1],[0.5333333333333333],horizontal,"(390.0, 262.0)",0.766666667,0.496,1,10275.653
11,FALSE,658,"[(1033, 869)]",[],[1],[0.5666666666666667],horizontal,"(890.0, 762.0)",0.55,0.529,1,10280.12
11,FALSE,659,"[(1017, 876)]",[],[1],[0.5833333333333334],horizontal,"(390.0, 762.0)",0.533333333,0.544,1,10283.856
11,FALSE,660,"[(1050, 874)]",[],[1],[0.5666666666666667],vertical,"(390.0, 762.0)",0.633333333,0.522,1,10287.842
12,FALSE,661,"[(1047, 880)]",[],[1],[0.85],horizontal,"(390.0, 262.0)",0.583333333,0.803,0,10291.761
12,FALSE,662,"[(1042, 845)]",[],[1],[0.5666666666666667],vertical,"(890.0, 762.0)",1.483333333,0.523,1,10296.544
12,FALSE,663,"[(1050, 886)]",[],[1],[0.5166666666666666],horizontal,"(890.0, 262.0)",0.95,0.475,1,10302.738
12,FALSE,664,"[(1090, 898)]",[],[1],[0.5333333333333333],vertical,"(890.0, 762.0)",1.25,0.49,1,10307.339
12,FALSE,665,"[(1056, 894)]",[],[1],[0.5166666666666666],vertical,"(390.0, 262.0)",1.533333333,0.47,1,10312.165
12,FALSE,666,"[(1064, 859)]",[],[1],[0.5666666666666667],vertical,"(890.0, 762.0)",1.316666667,0.522,1,10317.483
12,FALSE,667,"[(1045, 889)]",[],[1],[0.5833333333333334],vertical,"(890.0, 762.0)",0.666666667,0.537,1,10322.093
12,FALSE,668,"[(1090, 897)]",[],[1],[0.55],horizontal,"(890.0, 262.0)",1.583333333,0.511,1,10326.686
12,FALSE,669,"[(1057, 872)]",[],[1],[0.45],vertical,"(890.0, 262.0)",1.283333333,0.409,1,10331.85
12,FALSE,670,"[(1052, 870)]",[],[1],[0.6],vertical,"(390.0, 262.0)",0.85,0.56,1,10336.881
12,FALSE,671,"[(1058, 882)]",[],[1],[0.5],horizontal,"(390.0, 262.0)",1.1,0.466,1,10341.054
12,FALSE,672,"[(1042, 876)]",[],[1],[0.5333333333333333],vertical,"(890.0, 262.0)",0.85,0.491,1,10345.552
12,FALSE,673,"[(1086, 855)]",[],[1],[0.6166666666666667],vertical,"(890.0, 762.0)",1.45,0.577,1,10350.126
12,FALSE,674,"[(1026, 857)]",[],[1],[0.5666666666666667],vertical,"(890.0, 262.0)",0.85,0.525,1,10355.332
12,FALSE,675,"[(1068, 893)]",[],[1],[0.5666666666666667],vertical,"(890.0, 762.0)",1.616666667,0.523,1,10359.714
12,FALSE,676,"[(1068, 871)]",[],[1],[0.5333333333333333],vertical,"(390.0, 762.0)",0.683333333,0.5,1,10364.74
12,FALSE,677,"[(1044, 868)]",[],[1],[0.5666666666666667],vertical,"(390.0, 762.0)",1,0.529,1,10369.196
12,FALSE,678,"[(1047, 856)]",[],[1],[0.5333333333333333],vertical,"(890.0, 262.0)",0.9,0.497,1,10374.31
12,FALSE,679,"[(1044, 881)]",[],[1],[0.5666666666666667],vertical,"(890.0, 762.0)",0.85,0.526,1,10378.914
12,FALSE,680,"[(1041, 880)]",[],[1],[0.6],vertical,"(890.0, 762.0)",1.55,0.561,1,10383.143
12,FALSE,681,"[(1066, 885)]",[],[1],[0.5833333333333334],horizontal,"(890.0, 762.0)",1.116666667,0.54,1,10388.328
12,FALSE,682,"[(1036, 885)]",[],[1],[0.65],vertical,"(890.0, 762.0)",0.566666667,0.61,1,10393.195
12,FALSE,683,"[(1067, 847)]",[],[1],[0.5666666666666667],horizontal,"(890.0, 762.0)",0.916666667,0.521,1,10397.778
12,FALSE,684,"[(1052, 875)]",[],[1],[0.55],horizontal,"(390.0, 762.0)",0.65,0.511,1,10402.376
12,FALSE,685,"[(1044, 887)]",[],[1],[0.5166666666666666],horizontal,"(890.0, 262.0)",1.366666667,0.474,1,10406.443
12,FALSE,686,"[(1058, 880)]",[],[1],[0.65],horizontal,"(390.0, 762.0)",1.016666667,0.607,1,10410.978
12,FALSE,687,"[(1047, 889)]",[],[1],[0.55],horizontal,"(890.0, 762.0)",0.666666667,0.507,1,10415.744
12,FALSE,688,"[(1033, 862)]",[],[1],[0.75],vertical,"(390.0, 262.0)",0.583333333,0.712,1,10420.345
12,FALSE,689,"[(1045, 871)]",[],[1],[0.55],vertical,"(890.0, 262.0)",0.7,0.507,1,10425.36
12,FALSE,690,"[(1048, 876)]",[],[1],[0.85],horizontal,"(390.0, 762.0)",0.933333333,0.816,0,10429.317
12,FALSE,691,"[(1057, 859)]",[],[1],[0.6166666666666667],vertical,"(390.0, 762.0)",1.233333333,0.573,1,10434.165
12,FALSE,692,"[(1072, 883)]",[],[1],[0.6166666666666667],vertical,"(390.0, 762.0)",0.633333333,0.572,1,10438.937
12,FALSE,693,"[(1039, 880)]",[],[1],[0.55],vertical,"(890.0, 262.0)",0.666666667,0.51,1,10442.913
12,FALSE,694,"[(1058, 876)]",[],[1],[0.55],vertical,"(890.0, 762.0)",1.416666667,0.508,1,10446.996
12,FALSE,695,"[(1052, 854)]",[],[1],[0.5333333333333333],horizontal,"(890.0, 262.0)",0.783333333,0.488,1,10452.299
12,FALSE,696,"[(1056, 885)]",[],[1],[0.5333333333333333],vertical,"(390.0, 262.0)",1.083333333,0.493,1,10456.576
12,FALSE,697,"[(1070, 883)]",[],[1],[0.5666666666666667],horizontal,"(890.0, 762.0)",1.05,0.526,1,10461.098
12,FALSE,698,"[(1077, 902)]",[],[1],[0.5],horizontal,"(390.0, 262.0)",1.316666667,0.459,1,10466.011
12,FALSE,699,"[(1047, 880)]",[],[1],[0.85],horizontal,"(390.0, 262.0)",0.6,0.799,0,10471.195
12,FALSE,700,"[(1057, 852)]",[],[1],[0.5833333333333334],horizontal,"(890.0, 762.0)",0.85,0.546,1,10475.727
12,FALSE,701,"[(1052, 886)]",[],[1],[0.5833333333333334],vertical,"(390.0, 262.0)",1.433333333,0.547,1,10479.896
12,FALSE,702,"[(1053, 856)]",[],[1],[0.5333333333333333],horizontal,"(390.0, 262.0)",0.633333333,0.499,1,10484.779
12,FALSE,703,"[(1043, 896)]",[],[1],[0.5666666666666667],vertical,"(390.0, 762.0)",0.55,0.522,1,10488.782
12,FALSE,704,"[(1042, 896)]",[],[1],[0.65],vertical,"(390.0, 762.0)",0.65,0.611,1,10492.983
12,FALSE,705,"[(1039, 890)]",[],[1],[0.6],vertical,"(390.0, 262.0)",1.35,0.561,1,10497.873
12,FALSE,706,"[(1049, 871)]",[],[1],[0.5333333333333333],vertical,"(890.0, 262.0)",1.15,0.495,1,10502.546
12,FALSE,707,"[(1058, 879)]",[],[1],[0.7333333333333333],vertical,"(390.0, 262.0)",1.25,0.69,1,10507.53
12,FALSE,708,"[(1052, 861)]",[],[1],[0.6166666666666667],horizontal,"(390.0, 762.0)",1.633333333,0.578,1,10512.51
12,FALSE,709,"[(1051, 890)]",[],[1],[0.5166666666666666],horizontal,"(890.0, 262.0)",1.566666667,0.478,1,10517.677
12,FALSE,710,"[(1046, 876)]",[],[1],[0.55],vertical,"(890.0, 262.0)",1.116666667,0.505,1,10523.207
12,FALSE,711,"[(1049, 871)]",[],[1],[0.5],horizontal,"(890.0, 262.0)",1.016666667,0.461,1,10528.009
12,FALSE,712,"[(1085, 870)]",[],[1],[0.65],horizontal,"(390.0, 762.0)",1.466666667,0.619,1,10532.814
12,FALSE,713,"[(1052, 879)]",[],[1],[0.65],vertical,"(890.0, 762.0)",0.85,0.611,1,10537.899
12,FALSE,714,"[(1039, 877)]",[],[1],[0.6333333333333333],horizontal,"(890.0, 762.0)",0.566666667,0.594,1,10542.656
12,FALSE,715,"[(1052, 885)]",[],[1],[0.6166666666666667],vertical,"(390.0, 762.0)",1.616666667,0.574,1,10547.744
12,FALSE,716,"[(1052, 893)]",[],[1],[0.5166666666666666],vertical,"(390.0, 762.0)",0.866666667,0.472,1,10552.879
12,FALSE,717,"[(1033, 867)]",[],[1],[0.6666666666666666],vertical,"(390.0, 762.0)",1.55,0.619,1,10556.901
12,FALSE,718,"[(1067, 873)]",[],[1],[0.5333333333333333],vertical,"(890.0, 262.0)",0.816666667,0.492,1,10562.339
12,FALSE,719,"[(1044, 863)]",[],[1],[0.6166666666666667],horizontal,"(890.0, 262.0)",0.633333333,0.578,1,10566.569
12,FALSE,720,"[(1067, 861)]",[],[1],[0.55],vertical,"(890.0, 762.0)",1.616666667,0.513,1,10570.637
13,FALSE,721,"[(1095, 858)]",[],[1],[0.5166666666666666],horizontal,"(390.0, 762.0)",0.616666667,0.479,1,10575.415
13,FALSE,722,"[(1058, 881)]",[],[1],[],horizontal,"(390.0, 262.0)",,cti_phase,0,10579.486
13,FALSE,723,"[(1062, 856)]",[],[1],[0.7],horizontal,"(890.0, 762.0)",1.133333333,0.657,1,10584.144
13,FALSE,724,"[(1046, 884)]",[],[1],[0.48333333333333334],horizontal,"(390.0, 262.0)",1.466666667,0.44,1,10589.011
13,FALSE,725,"[(1076, 900)]",[],[1],[0.6333333333333333],horizontal,"(390.0, 762.0)",0.733333333,0.594,1,10593.782
13,FALSE,726,"[(1054, 867)]",[],[1],[0.5833333333333334],horizontal,"(390.0, 262.0)",1.616666667,0.542,1,10598.46
13,FALSE,727,"[(1052, 847)]",[],[1],[0.55],horizontal,"(390.0, 762.0)",1.2,0.511,1,10603.478
13,FALSE,728,"[(1056, 880)]",[],[1],[0.5333333333333333],horizontal,"(390.0, 262.0)",0.633333333,0.49,1,10608.498
13,FALSE,729,"[(1051, 873)]",[],[1],[0.55],vertical,"(390.0, 262.0)",1.316666667,0.501,1,10612.716
13,FALSE,730,"[(1041, 867)]",[],[1],[0.6333333333333333],horizontal,"(890.0, 262.0)",1.083333333,0.591,1,10617.794
13,FALSE,731,"[(1052, 867)]",[],[1],[0.5333333333333333],horizontal,"(890.0, 262.0)",1.266666667,0.492,1,10622.651
13,FALSE,732,"[(1024, 869)]",[],[1],[0.55],horizontal,"(390.0, 762.0)",1,0.507,1,10626.958
13,FALSE,733,"[(1067, 858)]",[],[1],[0.55],vertical,"(890.0, 262.0)",0.683333333,0.511,1,10631.189
13,FALSE,734,"[(1052, 891)]",[],[1],[0.6833333333333333],vertical,"(890.0, 762.0)",1.35,0.637,1,10635.223
13,FALSE,735,"[(1051, 880)]",[],[1],[0.6],vertical,"(890.0, 262.0)",1.333333333,0.562,1,10639.761
13,FALSE,736,"[(1067, 859)]",[],[1],[0.6666666666666666],horizontal,"(890.0, 262.0)",0.5,0.616,1,10644.988
13,FALSE,737,"[(1046, 859)]",[],[1],[0.55],vertical,"(890.0, 762.0)",0.583333333,0.523,1,10649.079
13,FALSE,738,"[(1051, 860)]",[],[1],[0.5833333333333334],horizontal,"(890.0, 762.0)",1.6,0.536,1,10653.567
13,FALSE,739,"[(1091, 899)]",[],[1],[0.5],horizontal,"(890.0, 262.0)",0.9,0.461,1,10658.861
13,FALSE,740,"[(1057, 895)]",[],[1],[0.5],horizontal,"(890.0, 262.0)",1.283333333,0.463,1,10663.345
13,FALSE,741,"[(1052, 858)]",[],[1],[0.5333333333333333],vertical,"(890.0, 262.0)",1.033333333,0.489,1,10668.533
13,FALSE,742,"[(1052, 863)]",[],[1],[0.45],horizontal,"(890.0, 262.0)",1.533333333,0.406,1,10673.46
13,FALSE,743,"[(1057, 862)]",[],[1],[0.6833333333333333],horizontal,"(390.0, 762.0)",1.666666667,0.634,1,10678.213
13,FALSE,744,"[(1068, 867)]",[],[1],[0.48333333333333334],horizontal,"(390.0, 762.0)",0.566666667,0.444,1,10683.744
13,FALSE,745,"[(1064, 871)]",[],[1],[0.5166666666666666],vertical,"(390.0, 262.0)",1.283333333,0.473,1,10687.913
13,FALSE,746,"[(1044, 866)]",[],[1],[0.65],horizontal,"(390.0, 762.0)",0.983333333,0.611,1,10693.191
13,FALSE,747,"[(1044, 857)]",[],[1],[0.7],vertical,"(390.0, 262.0)",0.5,0.656,1,10698.013
13,FALSE,748,"[(1033, 895)]",[],[1],[0.65],horizontal,"(890.0, 762.0)",1.166666667,0.609,1,10701.811
13,FALSE,749,"[(1050, 863)]",[],[1],[0.6],horizontal,"(390.0, 762.0)",0.916666667,0.549,1,10706.347
13,FALSE,750,"[(1039, 875)]",[],[1],[0.6],vertical,"(890.0, 262.0)",0.6,0.557,1,10710.832
13,FALSE,751,"[(1058, 857)]",[],[1],[0.05],horizontal,"(890.0, 262.0)",1.683333333,0.018,1,10715.117
13,FALSE,752,"[(1037, 863)]",[],[1],[0.6166666666666667],horizontal,"(390.0, 762.0)",0.716666667,0.573,1,10720.065
13,FALSE,753,"[(1081, 852)]",[],[1],[0.5333333333333333],vertical,"(890.0, 262.0)",0.916666667,0.493,1,10724.6
13,FALSE,754,"[(1086, 867)]",[],[1],[0.5666666666666667],horizontal,"(890.0, 762.0)",0.6,0.53,1,10729.132
13,FALSE,755,"[(1047, 905)]",[],[1],[0.5666666666666667],vertical,"(890.0, 262.0)",1.65,0.524,1,10733.622
13,FALSE,756,"[(1057, 867)]",[],[1],[0.6],vertical,"(390.0, 762.0)",1,0.555,1,10738.761
13,FALSE,757,"[(1042, 874)]",[],[1],[0.7166666666666667],horizontal,"(390.0, 762.0)",1.183333333,0.677,1,10743.448
13,FALSE,758,"[(1024, 880)]",[],[1],[0.5666666666666667],vertical,"(890.0, 262.0)",0.616666667,0.52,1,10748.546
13,FALSE,759,"[(1050, 893)]",[],[1],[0.6166666666666667],vertical,"(390.0, 762.0)",1.116666667,0.572,1,10753.285
13,FALSE,760,"[(1057, 880)]",[],[1],[0.6],horizontal,"(890.0, 762.0)",1.083333333,0.555,1,10758.182
13,FALSE,761,"[(1077, 880)]",[],[1],[0.55],horizontal,"(890.0, 762.0)",1.566666667,0.506,1,10762.699
13,FALSE,762,"[(1047, 866)]",[],[1],[0.5666666666666667],vertical,"(390.0, 762.0)",0.7,0.523,1,10768.194
13,FALSE,763,"[(1070, 866)]",[],[1],[0.5666666666666667],horizontal,"(390.0, 762.0)",1.05,0.534,1,10772.549
13,FALSE,764,"[(1042, 877)]",[],[1],[0.5666666666666667],vertical,"(890.0, 262.0)",0.883333333,0.519,1,10777.129
13,FALSE,765,"[(1054, 876)]",[],[1],[0.7],vertical,"(890.0, 762.0)",1.333333333,0.653,1,10781.928
13,FALSE,766,"[(1044, 867)]",[],[1],[0.5666666666666667],horizontal,"(390.0, 262.0)",0.583333333,0.523,1,10787.432
13,FALSE,767,"[(1043, 861)]",[],[1],[0.5666666666666667],horizontal,"(390.0, 762.0)",1.533333333,0.526,1,10791.795
13,FALSE,768,"[(1019, 874)]",[],[1],[0.5666666666666667],vertical,"(890.0, 762.0)",0.75,0.523,1,10796.565
13,FALSE,769,"[(1067, 890)]",[],[1],[0.5],vertical,"(890.0, 262.0)",0.633333333,0.461,1,10800.866
13,FALSE,770,"[(1036, 884)]",[],[1],[0.5666666666666667],vertical,"(890.0, 262.0)",1.1,0.527,1,10804.775
13,FALSE,771,"[(1038, 891)]",[],[1],[0.5166666666666666],horizontal,"(890.0, 262.0)",1.333333333,0.475,1,10814.109
13,FALSE,772,"[(1072, 868)]",[],[1],[0.6166666666666667],vertical,"(390.0, 262.0)",1.25,0.571,1,10819.067
13,FALSE,773,"[(1047, 880)]",[],[1],[0.5666666666666667],vertical,"(390.0, 762.0)",0.583333333,0.524,1,10823.642
13,FALSE,774,"[(1073, 865)]",[],[1],[0.6166666666666667],horizontal,"(390.0, 762.0)",1.15,0.574,1,10827.916
13,FALSE,775,"[(1047, 914)]",[],[1],[0.5666666666666667],horizontal,"(390.0, 762.0)",1.466666667,0.54,1,10832.748
13,FALSE,776,"[(1061, 877)]",[],[1],[0.7],vertical,"(390.0, 262.0)",1.216666667,0.652,1,10837.817
13,FALSE,777,"[(1062, 885)]",[],[1],[0.6166666666666667],horizontal,"(390.0, 262.0)",0.916666667,0.575,1,10842.466
13,FALSE,778,"[(1057, 895)]",[],[1],[0.2],horizontal,"(390.0, 262.0)",1.183333333,0.168,1,10847.293
13,FALSE,779,"[(1047, 884)]",[],[1],[0.5166666666666666],vertical,"(890.0, 262.0)",1.233333333,0.473,1,10851.822
13,FALSE,780,"[(1060, 885)]",[],[1],[0.5333333333333333],horizontal,"(890.0, 262.0)",1.383333333,0.493,1,10856.799
14,FALSE,781,"[(1051, 875)]",[],[1],[0.48333333333333334],horizontal,"(890.0, 262.0)",1.6,0.446,1,10861.617
14,FALSE,782,"[(1072, 891)]",[],[1],[0.5166666666666666],horizontal,"(890.0, 262.0)",1.5,0.481,1,10866.955
14,FALSE,783,"[(1053, 872)]",[],[1],[0.6166666666666667],vertical,"(390.0, 762.0)",1.016666667,0.57,1,10895.168
14,FALSE,784,"[(1038, 879)]",[],[1],[0.6333333333333333],vertical,"(890.0, 262.0)",0.9,0.59,1,10899.704
14,FALSE,785,"[(1027, 876)]",[],[1],[0.7],horizontal,"(890.0, 762.0)",0.733333333,0.656,1,10903.966
14,FALSE,786,"[(1069, 874)]",[],[1],[0.6],vertical,"(890.0, 762.0)",0.916666667,0.553,1,10908.248
14,FALSE,787,"[(1049, 881)]",[],[1],[0.6],vertical,"(390.0, 262.0)",0.783333333,0.556,1,10912.651
14,FALSE,788,"[(1055, 878)]",[],[1],[0.6333333333333333],vertical,"(890.0, 262.0)",1.183333333,0.586,1,10917.182
14,FALSE,789,"[(1041, 878)]",[],[1],[0.5833333333333334],horizontal,"(890.0, 262.0)",0.983333333,0.539,1,10921.853
14,FALSE,790,"[(1039, 890)]",[],[1],[0.65],vertical,"(890.0, 262.0)",0.966666667,0.606,1,10926.145
14,FALSE,791,"[(1052, 877)]",[],[1],[0.5666666666666667],horizontal,"(890.0, 262.0)",1.4,0.524,1,10931.059
14,FALSE,792,"[(1061, 885)]",[],[1],[0.6],horizontal,"(390.0, 762.0)",1.133333333,0.558,1,10935.591
14,FALSE,793,"[(1055, 887)]",[],[1],[0.55],vertical,"(390.0, 262.0)",0.75,0.512,1,10940.211
14,FALSE,794,"[(1063, 878)]",[],[1],[0.55],vertical,"(390.0, 262.0)",1.333333333,0.507,1,10944.221
14,FALSE,795,"[(1028, 890)]",[],[1],[0.6],vertical,"(890.0, 262.0)",0.683333333,0.559,1,10948.976
14,FALSE,796,"[(1042, 899)]",[],[1],[0.55],vertical,"(890.0, 762.0)",0.816666667,0.518,1,10953.695
14,FALSE,797,"[(1057, 880)]",[],[1],[0.6],horizontal,"(890.0, 762.0)",1.616666667,0.558,1,10957.962
14,FALSE,798,"[(1023, 885)]",[],[1],[0.5166666666666666],horizontal,"(390.0, 262.0)",1.316666667,0.473,1,10963.148
14,FALSE,799,"[(1094, 900)]",[],[1],[0.85],vertical,"(390.0, 262.0)",1.416666667,0.798,0,10967.846
14,FALSE,800,"[(1071, 867)]",[],[1],[0.5333333333333333],horizontal,"(890.0, 762.0)",1.35,0.493,1,11253.403
14,FALSE,801,"[(1038, 886)]",[],[1],[0.5666666666666667],vertical,"(890.0, 262.0)",0.816666667,0.529,1,11351.729
14,FALSE,802,"[(1054, 884)]",[],[1],[0.6666666666666666],horizontal,"(890.0, 762.0)",1.433333333,0.622,1,11356.474
14,FALSE,803,"[(1040, 898)]",[],[1],[0.6166666666666667],horizontal,"(890.0, 762.0)",1.2,0.572,1,11362.062
14,FALSE,804,"[(1042, 900)]",[],[1],[0.5333333333333333],horizontal,"(390.0, 762.0)",0.816666667,0.493,1,11367.047
14,FALSE,805,"[(1070, 877)]",[],[1],[0.6],horizontal,"(890.0, 762.0)",0.966666667,0.561,1,11371.014
14,FALSE,806,"[(1052, 900)]",[],[1],[0.55],horizontal,"(390.0, 762.0)",0.633333333,0.507,1,11375.311
14,FALSE,807,"[(1038, 890)]",[],[1],[0.5333333333333333],vertical,"(890.0, 762.0)",0.85,0.495,1,11379.345
14,FALSE,808,"[(1051, 886)]",[],[1],[0.5333333333333333],horizontal,"(890.0, 262.0)",0.883333333,0.488,1,11384.444
14,FALSE,809,"[(1057, 886)]",[],[1],[0.5],vertical,"(390.0, 762.0)",1.466666667,0.459,1,11389.129
14,FALSE,810,"[(1033, 867)]",[],[1],[0.7333333333333333],vertical,"(890.0, 262.0)",0.833333333,0.692,1,11394.786
14,FALSE,811,"[(1064, 893)]",[],[1],[0.5833333333333334],horizontal,"(390.0, 762.0)",1.433333333,0.541,1,11402.583
14,FALSE,812,"[(1038, 874)]",[],[1],[0.75],vertical,"(390.0, 762.0)",1.533333333,0.71,1,11408.181
14,FALSE,813,"[(343, 245), (382, 346), (415, 382), (425, 401), (416, 406), (1066, 902)]",[],"[0, 0, 0, 0, 0, 1]",[0.6],vertical,"(890.0, 262.0)",1.133333333,0.561,1,11413.725
14,FALSE,814,"[(1040, 876)]",[],[1],[0.6666666666666666],vertical,"(390.0, 762.0)",0.633333333,0.627,1,11451.62
14,FALSE,815,"[(1056, 866)]",[],[1],[0.5833333333333334],vertical,"(890.0, 762.0)",0.716666667,0.539,1,11456.122
14,FALSE,816,"[(1058, 868)]",[],[1],[0.55],vertical,"(390.0, 262.0)",0.666666667,0.506,1,11460.643
14,FALSE,817,"[(1057, 881)]",[],[1],[0.5166666666666666],horizontal,"(890.0, 262.0)",0.6,0.485,1,11465.195
14,FALSE,818,"[(1062, 862)]",[],[1],[0.5333333333333333],horizontal,"(890.0, 262.0)",1.05,0.487,1,11469.525
14,FALSE,819,"[(1042, 876)]",[],[1],[0.4666666666666667],vertical,"(890.0, 262.0)",0.966666667,0.435,1,11473.917
14,FALSE,820,"[(1038, 854)]",[],[1],[0.6333333333333333],horizontal,"(890.0, 762.0)",1.55,0.593,1,11478.806
14,FALSE,821,"[(1063, 875)]",[],[1],[0.5],horizontal,"(890.0, 262.0)",0.533333333,0.458,1,11483.599
14,FALSE,822,"[(1054, 850)]",[],[1],[0.43333333333333335],vertical,"(390.0, 262.0)",1.283333333,0.392,1,11487.686
14,FALSE,823,"[(1041, 878)]",[],[1],[0.5666666666666667],vertical,"(890.0, 762.0)",0.633333333,0.526,1,11492.001
14,FALSE,824,"[(1067, 873)]",[],[1],[0.6],vertical,"(390.0, 762.0)",1.4,0.564,1,11496.305
14,FALSE,825,"[(1067, 852)]",[],[1],[0.6166666666666667],vertical,"(890.0, 762.0)",1.133333333,0.576,1,11501.169
14,FALSE,826,"[(989, 898), (1073, 852)]",[],"[0, 1]",[0.5],horizontal,"(390.0, 262.0)",1.15,0.459,1,11505.617
14,FALSE,827,"[(1066, 884)]",[],[1],[0.5833333333333334],vertical,"(890.0, 762.0)",1.683333333,0.544,1,11516.419
14,FALSE,828,"[(1068, 874)]",[],[1],[0.5833333333333334],vertical,"(390.0, 762.0)",1.416666667,0.542,1,11522.092
14,FALSE,829,"[(1057, 881)]",[],[1],[0.5166666666666666],horizontal,"(390.0, 262.0)",0.783333333,0.476,1,11527.031
14,FALSE,830,"[(1062, 870)]",[],[1],[0.5166666666666666],vertical,"(890.0, 262.0)",0.883333333,0.474,1,11531.295
14,FALSE,831,"[(1072, 875)]",[],[1],[0.6166666666666667],horizontal,"(390.0, 762.0)",1.183333333,0.586,1,11535.894
14,FALSE,832,"[(1074, 896)]",[],[1],[0.5166666666666666],vertical,"(890.0, 262.0)",1.6,0.479,1,11540.873
14,FALSE,833,"[(1042, 880)]",[],[1],[0.5333333333333333],vertical,"(890.0, 262.0)",0.716666667,0.489,1,11545.939
14,FALSE,834,"[(1061, 854)]",[],[1],[0.5],horizontal,"(890.0, 262.0)",1.416666667,0.464,1,11550.099
14,FALSE,835,"[(1065, 886)]",[],[1],[0.5666666666666667],horizontal,"(390.0, 262.0)",1.033333333,0.523,1,11555.001
14,FALSE,836,"[(1072, 885)]",[],[1],[0.5166666666666666],horizontal,"(890.0, 262.0)",1.35,0.476,1,11559.513
14,FALSE,837,"[(1076, 876)]",[],[1],[0.5333333333333333],vertical,"(390.0, 262.0)",1.366666667,0.496,1,11564.695
14,FALSE,838,"[(1072, 876)]",[],[1],[0.6666666666666666],horizontal,"(890.0, 762.0)",1.05,0.623,1,11569.776
14,FALSE,839,"[(1063, 879)]",[],[1],[0.6],horizontal,"(390.0, 762.0)",1.316666667,0.554,1,11574.266
14,FALSE,840,"[(1038, 885)]",[],[1],[0.5],vertical,"(390.0, 262.0)",1.483333333,0.463,1,11579.034
15,FALSE,841,"[(1037, 879)]",[],[1],[0.6],vertical,"(390.0, 762.0)",0.8,0.558,1,11584.796
15,FALSE,842,"[(1061, 855)]",[],[1],[0.5666666666666667],horizontal,"(890.0, 762.0)",0.75,0.523,1,11589.183
15,FALSE,843,"[(1064, 875)]",[],[1],[0.5333333333333333],vertical,"(890.0, 262.0)",0.983333333,0.494,1,11593.8
15,FALSE,844,"[(1067, 879)]",[],[1],[0.6333333333333333],vertical,"(890.0, 762.0)",0.683333333,0.593,1,11597.98
15,FALSE,845,"[(1071, 858)]",[],[1],[0.5833333333333334],horizontal,"(390.0, 262.0)",1.6,0.536,1,11602.028
15,FALSE,846,"[(1063, 882)]",[],[1],[0.6],horizontal,"(390.0, 262.0)",1.45,0.558,1,11607.132
15,FALSE,847,"[(1018, 867)]",[],[1],[0.85],horizontal,"(390.0, 262.0)",0.966666667,0.803,0,11611.968
15,FALSE,848,"[(1068, 859)]",[],[1],[0.55],vertical,"(890.0, 762.0)",0.883333333,0.506,1,11616.793
15,FALSE,849,"[(1081, 883)]",[],[1],[0.55],vertical,"(390.0, 262.0)",0.95,0.504,1,11621.233
15,FALSE,850,"[(1069, 868)]",[],[1],[0.5333333333333333],horizontal,"(890.0, 762.0)",0.85,0.49,1,11626.056
15,FALSE,851,"[(1067, 891)]",[],[1],[0.6333333333333333],vertical,"(890.0, 762.0)",0.883333333,0.592,1,11631.995
15,FALSE,852,"[(1066, 885)]",[],[1],[0.5833333333333334],vertical,"(890.0, 262.0)",1.133333333,0.54,1,11636.42
15,FALSE,853,"[(1052, 873)]",[],[1],[0.5333333333333333],vertical,"(890.0, 762.0)",1.25,0.491,1,11641.364
15,FALSE,854,"[(1044, 872)]",[],[1],[0.6833333333333333],horizontal,"(390.0, 762.0)",0.516666667,0.636,1,11645.965
15,FALSE,855,"[(1062, 869)]",[],[1],[0.55],horizontal,"(390.0, 762.0)",1.116666667,0.504,1,11649.89
15,FALSE,856,"[(1073, 883)]",[],[1],[0.5],horizontal,"(390.0, 262.0)",1.4,0.454,1,11654.944
15,FALSE,857,"[(1043, 876)]",[],[1],[0.5166666666666666],vertical,"(390.0, 762.0)",1.683333333,0.473,1,11660.167
15,FALSE,858,"[(1072, 871)]",[],[1],[0.5333333333333333],horizontal,"(390.0, 262.0)",0.9,0.491,1,11665.833
15,FALSE,859,"[(1067, 871)]",[],[1],[0.5333333333333333],vertical,"(390.0, 762.0)",1.433333333,0.488,1,11670.532
15,FALSE,860,"[(1033, 876)]",[],[1],[0.5166666666666666],vertical,"(390.0, 762.0)",1.3,0.472,1,11676.464
15,FALSE,861,"[(1072, 871)]",[],[1],[0.6333333333333333],vertical,"(390.0, 262.0)",0.916666667,0.595,1,11681.673
15,FALSE,862,"[(1076, 880)]",[],[1],[0.5833333333333334],horizontal,"(390.0, 762.0)",0.983333333,0.538,1,11686.391
15,FALSE,863,"[(1065, 865)]",[],[1],[0.5666666666666667],vertical,"(890.0, 762.0)",1.566666667,0.521,1,11690.866
15,FALSE,864,"[(1064, 879)]",[],[1],[0.5833333333333334],horizontal,"(890.0, 762.0)",1.666666667,0.532,1,11695.6
15,FALSE,865,"[(1072, 863)]",[],[1],[0.55],vertical,"(890.0, 762.0)",1.033333333,0.504,1,11700.633
15,FALSE,866,"[(1075, 852)]",[],[1],[0.5333333333333333],horizontal,"(890.0, 262.0)",1.4,0.494,1,11705.092
15,FALSE,867,"[(1035, 878)]",[],[1],[0.5],horizontal,"(890.0, 262.0)",1.266666667,0.458,1,11709.967
15,FALSE,868,"[(1062, 911)]",[],[1],[0.5],vertical,"(890.0, 262.0)",0.883333333,0.46,1,11715.061
15,FALSE,869,"[(1066, 857)]",[],[1],[0.6],vertical,"(890.0, 762.0)",0.783333333,0.559,1,11719.479
15,FALSE,870,"[(1066, 871)]",[],[1],[0.6],vertical,"(890.0, 262.0)",0.65,0.556,1,11724.012
15,FALSE,871,"[(1072, 850)]",[],[1],[0.5666666666666667],vertical,"(390.0, 262.0)",0.733333333,0.521,1,11727.802
15,FALSE,872,"[(1081, 875)]",[],[1],[0.6833333333333333],vertical,"(390.0, 262.0)",0.566666667,0.639,1,11731.871
15,FALSE,873,"[(1039, 868)]",[],[1],[0.5333333333333333],horizontal,"(890.0, 762.0)",0.95,0.493,1,11735.996
15,FALSE,874,"[(1052, 856)]",[],[1],[0.45],horizontal,"(390.0, 262.0)",1.05,0.408,1,11740.688
15,FALSE,875,"[(1076, 874)]",[],[1],[0.55],vertical,"(390.0, 762.0)",0.916666667,0.504,1,11745.257
15,FALSE,876,"[(1071, 851)]",[],[1],[0.55],horizontal,"(390.0, 262.0)",0.833333333,0.505,1,11749.778
15,FALSE,877,"[(1062, 871)]",[],[1],[0.5666666666666667],vertical,"(890.0, 262.0)",1.516666667,0.519,1,11754.287
15,FALSE,878,"[(1081, 871)]",[],[1],[0.6166666666666667],horizontal,"(390.0, 762.0)",0.516666667,0.572,1,11759.632
15,FALSE,879,"[(1038, 855)]",[],[1],[0.5666666666666667],vertical,"(390.0, 262.0)",1.333333333,0.522,1,11763.615
15,FALSE,880,"[(1081, 867)]",[],[1],[0.55],horizontal,"(890.0, 262.0)",1.35,0.508,1,11768.609
15,FALSE,881,"[(1062, 864)]",[],[1],[0.36666666666666664],horizontal,"(390.0, 262.0)",1.45,0.328,1,11773.55
15,FALSE,882,"[(1043, 880)]",[],[1],[0.5666666666666667],horizontal,"(390.0, 262.0)",0.733333333,0.526,1,11778.59
15,FALSE,883,"[(1063, 861)]",[],[1],[0.5833333333333334],vertical,"(890.0, 262.0)",1.316666667,0.545,1,11782.887
15,FALSE,884,"[(1038, 885)]",[],[1],[0.6],horizontal,"(890.0, 762.0)",0.866666667,0.554,1,11788.053
15,FALSE,885,"[(1036, 859)]",[],[1],[0.11666666666666667],horizontal,"(890.0, 262.0)",1.6,0.086,1,11792.312
15,FALSE,886,"[(1033, 871)]",[],[1],[0.7],horizontal,"(890.0, 262.0)",0.883333333,0.652,1,11797.25
15,FALSE,887,"[(1042, 867)]",[],[1],[0.5333333333333333],vertical,"(390.0, 762.0)",1.366666667,0.49,1,11801.942
15,FALSE,888,"[(1068, 875)]",[],[1],[],horizontal,"(390.0, 262.0)",,cti_phase,0,11806.801
15,FALSE,889,"[(1066, 859)]",[],[1],[0.36666666666666664],vertical,"(890.0, 262.0)",1.516666667,0.333,1,11811.097
15,FALSE,890,"[(1074, 881)]",[],[1],[0.48333333333333334],horizontal,"(890.0, 262.0)",1.483333333,0.437,1,11816.748
15,FALSE,891,"[(1070, 868)]",[],[1],[],horizontal,"(890.0, 262.0)",,cti_phase,0,11821.514
15,FALSE,892,"[(1067, 863)]",[],[1],[0.55],vertical,"(890.0, 762.0)",1.25,0.514,1,11826.02
15,FALSE,893,"[(1071, 881)]",[],[1],[0.5166666666666666],vertical,"(390.0, 262.0)",1.35,0.472,1,11831.514
15,FALSE,894,"[(1060, 890)]",[],[1],[0.65],horizontal,"(890.0, 262.0)",0.616666667,0.606,1,11836.372
15,FALSE,895,"[(1072, 865)]",[],[1],[0.6666666666666666],vertical,"(890.0, 262.0)",1.25,0.628,1,11840.451
15,FALSE,896,"[(1059, 846)]",[],[1],[0.5166666666666666],horizontal,"(890.0, 262.0)",1.616666667,0.474,1,11845.335
15,FALSE,897,"[(1023, 861)]",[],[1],[0.4666666666666667],horizontal,"(390.0, 262.0)",1.633333333,0.427,1,11850.423
15,FALSE,898,"[(1076, 878)]",[],[1],[0.4666666666666667],horizontal,"(390.0, 262.0)",1.633333333,0.425,1,11855.796
15,FALSE,899,"[(1066, 879)]",[],[1],[0.6166666666666667],vertical,"(390.0, 262.0)",1.333333333,0.584,1,11860.868
15,FALSE,900,"[(1050, 865)]",[],[1],[0.5166666666666666],vertical,"(890.0, 262.0)",0.6,0.479,1,11865.818
16,FALSE,901,"[(1086, 857)]",[],[1],[0.5666666666666667],vertical,"(390.0, 762.0)",1.666666667,0.524,1,11869.983
16,FALSE,902,"[(1069, 857)]",[],[1],[0.5333333333333333],vertical,"(890.0, 262.0)",0.816666667,0.492,1,11875.536
16,FALSE,903,"[(1067, 854)]",[],[1],[0.6],vertical,"(390.0, 262.0)",1.6,0.555,1,11880.005
16,FALSE,904,"[(1037, 899)]",[],[1],[0.5666666666666667],horizontal,"(390.0, 762.0)",1.366666667,0.527,1,11884.777
16,FALSE,905,"[(1042, 855)]",[],[1],[0.5666666666666667],horizontal,"(890.0, 262.0)",0.8,0.52,1,11889.68
16,FALSE,906,"[(1091, 860)]",[],[1],[0.55],vertical,"(390.0, 262.0)",0.766666667,0.507,1,11894.262
16,FALSE,907,"[(1043, 876)]",[],[1],[0.5333333333333333],horizontal,"(390.0, 262.0)",1.4,0.494,1,11898.517
16,FALSE,908,"[(1035, 871)]",[],[1],[0.5666666666666667],vertical,"(890.0, 262.0)",0.9,0.522,1,11903.032
16,FALSE,909,"[(1061, 865)]",[],[1],[0.5666666666666667],vertical,"(890.0, 762.0)",1.15,0.522,1,11908.781
16,FALSE,910,"[(1057, 863)]",[],[1],[0.55],vertical,"(390.0, 262.0)",1.383333333,0.508,1,11913.818
16,FALSE,911,"[(1057, 853)]",[],[1],[0.6],vertical,"(890.0, 762.0)",0.6,0.559,1,11918.736
16,FALSE,912,"[(1067, 855)]",[],[1],[0.6333333333333333],horizontal,"(390.0, 762.0)",0.716666667,0.589,1,11923.032
16,FALSE,913,"[(1062, 872)]",[],[1],[0.5333333333333333],horizontal,"(390.0, 762.0)",1.316666667,0.5,1,11927.166
16,FALSE,914,"[(1048, 888)]",[],[1],[0.55],vertical,"(390.0, 762.0)",0.833333333,0.511,1,11931.594
16,FALSE,915,"[(1038, 882)]",[],[1],[0.6333333333333333],vertical,"(390.0, 762.0)",0.6,0.588,1,11936.278
16,FALSE,916,"[(1075, 852)]",[],[1],[0.6],vertical,"(390.0, 762.0)",1.233333333,0.556,1,11940.588
16,FALSE,917,"[(1067, 876)]",[],[1],[0.5666666666666667],vertical,"(890.0, 262.0)",0.733333333,0.53,1,11945.564
16,FALSE,918,"[(1088, 870)]",[],[1],[0.48333333333333334],vertical,"(890.0, 262.0)",1.216666667,0.447,1,11950.02
16,FALSE,919,"[(1085, 900)]",[],[1],[0.55],horizontal,"(390.0, 762.0)",1.516666667,0.506,1,11954.869
16,FALSE,920,"[(1043, 862)]",[],[1],[0.65],vertical,"(890.0, 762.0)",1.6,0.606,1,11959.756
16,FALSE,921,"[(1039, 876)]",[],[1],[0.5333333333333333],vertical,"(890.0, 762.0)",0.8,0.49,1,11965.535
16,FALSE,922,"[(1075, 867)]",[],[1],[0.5333333333333333],vertical,"(390.0, 762.0)",1.483333333,0.489,1,11969.78
16,FALSE,923,"[(1048, 861)]",[],[1],[0.6333333333333333],horizontal,"(390.0, 762.0)",1.533333333,0.585,1,11974.975
16,FALSE,924,"[(1040, 898)]",[],[1],[0.55],vertical,"(390.0, 762.0)",0.6,0.511,1,11980.073
16,FALSE,925,"[(1058, 894)]",[],[1],[0.5666666666666667],vertical,"(890.0, 262.0)",1.316666667,0.526,1,11984.577
16,FALSE,926,"[(1052, 860)]",[],[1],[0.6666666666666666],horizontal,"(890.0, 762.0)",1.016666667,0.629,1,11989.745
16,FALSE,927,"[(1040, 895)]",[],[1],[0.55],horizontal,"(390.0, 762.0)",0.683333333,0.508,1,11993.97
16,FALSE,928,"[(1052, 860)]",[],[1],[0.7],horizontal,"(890.0, 262.0)",0.9,0.655,1,11998.834
16,FALSE,929,"[(1043, 895)]",[],[1],[0.5833333333333334],vertical,"(390.0, 262.0)",0.616666667,0.548,1,12003.124
16,FALSE,930,"[(1059, 873)]",[],[1],[0.5666666666666667],vertical,"(390.0, 762.0)",0.5,0.526,1,12007.407
16,FALSE,931,"[(1057, 872)]",[],[1],[0.65],vertical,"(390.0, 262.0)",0.966666667,0.611,1,12011.647
16,FALSE,932,"[(1047, 900)]",[],[1],[0.55],vertical,"(390.0, 762.0)",0.583333333,0.516,1,12016.162
16,FALSE,933,"[(1083, 852)]",[],[1],[0.2],vertical,"(390.0, 262.0)",1.516666667,0.165,1,12020.36
16,FALSE,934,"[(1052, 879)]",[],[1],[0.5333333333333333],vertical,"(390.0, 762.0)",0.966666667,0.5,1,12024.861
16,FALSE,935,"[(1062, 880)]",[],[1],[0.5166666666666666],horizontal,"(890.0, 262.0)",0.866666667,0.479,1,12029.142
16,FALSE,936,"[(1062, 862)]",[],[1],[0.31666666666666665],vertical,"(390.0, 262.0)",1.616666667,0.279,1,12053.613
16,FALSE,937,"[(1048, 873)]",[],[1],[0.5166666666666666],horizontal,"(390.0, 262.0)",0.55,0.479,1,12058.66
16,FALSE,938,"[(1052, 854)]",[],[1],[0.5333333333333333],vertical,"(390.0, 762.0)",0.766666667,0.489,1,12062.815
16,FALSE,939,"[(1062, 893)]",[],[1],[0.5333333333333333],horizontal,"(390.0, 762.0)",1.15,0.497,1,12066.993
16,FALSE,940,"[(1067, 879)]",[],[1],[0.36666666666666664],vertical,"(390.0, 262.0)",1.05,0.326,1,12071.494
16,FALSE,941,"[(1072, 852)]",[],[1],[0.45],horizontal,"(390.0, 262.0)",0.983333333,0.41,1,12075.952
16,FALSE,942,"[(1039, 889)]",[],[1],[0.5666666666666667],horizontal,"(390.0, 762.0)",1.616666667,0.527,1,12080.286
16,FALSE,943,"[(1047, 873)]",[],[1],[0.5666666666666667],vertical,"(390.0, 762.0)",1.083333333,0.526,1,12085.381
16,FALSE,944,"[(1063, 876)]",[],[1],[0.85],vertical,"(890.0, 262.0)",0.733333333,0.797,0,12090.028
16,FALSE,945,"[(1046, 871)]",[],[1],[0.6166666666666667],horizontal,"(390.0, 762.0)",0.866666667,0.576,1,12094.367
