block,trial,trial_type,taps_start_loc_during_fix,taps_end_loc_during_fix,taps_on_lever_during_fix,taps_on_lever_s_during_fix,bar_orientation,target_xy,cti,rt,acc,time,pulses
0,1,target,"[(1096, 852)]",[],[1],[0.36666666666666664],vertical,"(890.0, 762.0)",1.05,0.329,1,0.362,1
0,2,target,"[(1067, 847)]",[],[1],[0.6],vertical,"(390.0, 762.0)",0.95,0.56,1,5.462,1
0,3,catch,"[(1076, 806)]",[],[1],[],horizontal,"(890.0, 262.0)",1.6,nan,1,11.981,2
0,4,target,"[(1098, 836)]",[],[1],[0.31666666666666665],vertical,"(390.0, 262.0)",1.3,0.281,1,17.906,2
0,5,target,"[(1136, 812)]",[],[1],[0.85],vertical,"(890.0, 262.0)",0.65,nan,0,26.255,0
0,6,target,"[(1095, 810)]",[],[1],[0.6833333333333333],horizontal,"(390.0, 262.0)",1.0,0.647,1,30.694,1
0,7,target,"[(1150, 807)]",[],[1],[0.6666666666666666],horizontal,"(390.0, 762.0)",0.95,0.632,1,35.971,1
0,8,catch,"[(1105, 800)]",[],[1],[],vertical,"(390.0, 762.0)",1.6,nan,1,40.687,2
0,9,target,"[(1103, 841)]",[],[1],[0.6],horizontal,"(890.0, 262.0)",0.75,0.565,1,46.33,2
0,10,target,"[(1119, 820)]",[],[1],[0.6833333333333333],horizontal,"(890.0, 262.0)",0.9666666666666667,0.645,1,52.2,2
0,11,target,"[(1101, 790)]",[],[1],[0.85],horizontal,"(890.0, 262.0)",1.1666666666666667,nan,0,57.237,0
0,12,catch,"[(1107, 807)]",[],[1],[],horizontal,"(890.0, 262.0)",1.6,nan,1,62.24,1
0,13,target,"[(1103, 815)]",[],[1],[0.48333333333333334],vertical,"(890.0, 262.0)",1.4,0.446,1,67.058,1
0,14,target,"[(1110, 804)]",[],[1],[0.6],horizontal,"(390.0, 262.0)",1.2833333333333332,0.563,1,72.358,2
0,15,target,"[(1164, 841)]",[],[1],[0.18333333333333332],vertical,"(390.0, 762.0)",1.3333333333333333,0.147,0,77.958,0
0,16,target,"[(1128, 820)]",[],[1],[0.5666666666666667],horizontal,"(890.0, 262.0)",0.6666666666666666,0.523,1,84.093,1
0,17,target,"[(1097, 798)]",[],[1],[0.55],vertical,"(390.0, 762.0)",0.5666666666666667,0.517,1,88.361,1
0,18,target,"[(1100, 812)]",[],[1],[0.8333333333333334],horizontal,"(890.0, 762.0)",1.5333333333333332,0.791,1,93.089,2
0,19,target,"[(1112, 811)]",[],[1],[0.85],horizontal,"(890.0, 262.0)",0.5833333333333334,nan,0,99.211,0
0,20,target,"[(1095, 841)]",[],[1],[0.85],vertical,"(890.0, 262.0)",1.3166666666666667,nan,0,103.863,0
0,21,target,"[(1107, 808)]",[],[1],[0.85],vertical,"(390.0, 262.0)",1.0166666666666666,nan,0,110.989,0
0,22,catch,"[(1096, 802)]",[],[1],[],vertical,"(390.0, 262.0)",1.6,nan,1,116.093,1
0,23,target,"[(1107, 808)]",[],[1],[0.21666666666666667],vertical,"(390.0, 762.0)",1.5333333333333332,0.182,0,121.312,0
0,24,target,"[(1117, 801)]",[],[1],[0.55],vertical,"(390.0, 262.0)",1.3833333333333333,0.513,1,125.946,1
0,25,target,"[(1117, 796)]",[],[1],[0.2],horizontal,"(390.0, 762.0)",1.05,0.164,0,131.145,0
0,26,catch,"[(1102, 812)]",[],[1],[],vertical,"(890.0, 762.0)",1.6,nan,1,135.118,1
0,27,target,"[(1100, 809)]",[],[1],[0.85],vertical,"(390.0, 762.0)",1.3166666666666667,nan,0,140.301,0
0,28,catch,"[(1148, 812)]",[],[1],[],vertical,"(390.0, 762.0)",1.6,nan,1,145.596,1
0,29,target,"[(1102, 814)]",[],[1],[0.5333333333333333],vertical,"(390.0, 762.0)",0.55,0.495,1,150.608,1
0,30,catch,"[(1101, 809)]",[],[1],[],horizontal,"(390.0, 262.0)",1.6,nan,1,155.233,2
0,31,target,"[(1121, 812)]",[],[1],[0.5333333333333333],vertical,"(890.0, 762.0)",0.95,0.488,1,160.507,2
0,32,target,"[(1104, 800)]",[],[1],[0.85],vertical,"(390.0, 762.0)",1.4,nan,0,165.995,0
0,33,target,"[(1099, 797)]",[],[1],[0.85],vertical,"(890.0, 262.0)",1.2333333333333334,nan,0,171.162,0
0,34,target,"[(1127, 804)]",[],[1],[0.5333333333333333],vertical,"(390.0, 262.0)",1.2666666666666666,0.494,1,176.206,1
0,35,target,"[(1112, 794)]",[],[1],[0.5],horizontal,"(890.0, 762.0)",1.3333333333333333,0.456,1,181.475,1
0,36,target,"[(1122, 790)]",[],[1],[0.35],vertical,"(390.0, 762.0)",1.4666666666666666,0.315,1,186.374,2
0,37,target,"[(1116, 804)]",[],[1],[0.5833333333333334],horizontal,"(890.0, 762.0)",1.1,0.541,1,191.695,2
0,38,catch,"[(1112, 796)]",[],[1],[],vertical,"(390.0, 762.0)",1.6,nan,1,197.112,2
0,39,target,"[(1122, 806)]",[],[1],[0.6833333333333333],horizontal,"(390.0, 262.0)",0.5666666666666667,0.647,1,202.217,2
0,40,target,"[(1085, 792)]",[],[1],[0.5333333333333333],horizontal,"(890.0, 262.0)",0.9666666666666667,0.496,1,206.821,3
0,41,target,"[(1123, 798)]",[],[1],[0.7333333333333333],vertical,"(390.0, 762.0)",1.25,0.696,1,212.389,3
0,42,target,"[(1123, 802)]",[],[1],[0.5333333333333333],horizontal,"(390.0, 762.0)",0.85,0.496,1,218.127,3
0,43,target,"[(1101, 792)]",[],[1],[0.6],horizontal,"(390.0, 762.0)",0.6166666666666667,0.557,1,223.423,3
0,44,target,"[(1122, 804)]",[],[1],[0.6],horizontal,"(390.0, 262.0)",0.5833333333333334,0.564,1,228.862,3
0,45,target,"[(1097, 802)]",[],[1],[0.85],horizontal,"(390.0, 762.0)",0.75,nan,0,234.436,0
0,46,target,"[(1100, 812)]",[],[1],[0.6166666666666667],horizontal,"(390.0, 262.0)",0.8666666666666667,0.578,1,239.126,1
0,47,target,"[(1096, 802)]",[],[1],[0.65],vertical,"(390.0, 262.0)",0.5833333333333334,0.609,1,243.894,1
0,48,target,"[(1112, 782)]",[],[1],[0.6],horizontal,"(390.0, 762.0)",1.15,0.555,1,248.367,2
0,49,target,"[(1099, 777)]",[],[1],[0.85],vertical,"(890.0, 762.0)",0.5666666666666667,nan,0,253.524,0
0,50,target,"[(1101, 794)]",[],[1],[0.5333333333333333],vertical,"(890.0, 762.0)",0.65,0.495,1,257.712,1
0,51,target,"[(1099, 796)]",[],[1],[0.55],vertical,"(890.0, 262.0)",1.05,0.513,1,262.293,1
0,52,target,"[(1098, 792)]",[],[1],[0.5833333333333334],horizontal,"(890.0, 262.0)",0.7833333333333333,0.547,1,267.128,2
0,53,target,"[(1120, 796)]",[],[1],[0.5],vertical,"(890.0, 262.0)",1.0,0.46,1,271.831,2
0,54,target,"[(1129, 785)]",[],[1],[0.21666666666666667],horizontal,"(390.0, 262.0)",1.45,0.181,0,276.643,0
0,55,catch,"[(1102, 797)]",[],[1],[0.03333333333333333],vertical,"(890.0, 762.0)",1.6,"0.018,nan",0,281.291,0
0,56,target,"[(1104, 803)]",[],[1],[0.6333333333333333],vertical,"(890.0, 762.0)",1.0666666666666667,0.591,1,286.063,1
0,57,target,"[(1131, 802)]",[],[1],[0.55],horizontal,"(390.0, 762.0)",1.1666666666666667,0.509,1,290.958,1
0,58,target,"[(1100, 802)]",[],[1],[0.4666666666666667],horizontal,"(390.0, 762.0)",1.25,0.427,1,296.147,2
0,59,target,"[(1131, 779)]",[],[1],[0.2],horizontal,"(890.0, 262.0)",1.4333333333333333,0.17,0,301.729,0
0,60,target,"[(1119, 798)]",[],[1],[0.6333333333333333],horizontal,"(890.0, 262.0)",0.9666666666666667,0.596,1,306.677,1
0,61,catch,"[(1126, 802)]",[],[1],[],vertical,"(890.0, 262.0)",1.6,nan,1,311.532,1
0,62,catch,"[(1122, 805)]",[],[1],[],vertical,"(890.0, 762.0)",1.6,nan,1,316.15,2
0,63,catch,"[(1121, 802)]",[],[1],[],horizontal,"(390.0, 262.0)",1.6,nan,1,321.644,2
0,64,target,"[(1105, 798)]",[],[1],[0.16666666666666666],vertical,"(390.0, 762.0)",1.5833333333333333,0.131,0,326.775,0
0,65,target,"[(1087, 782)]",[],[1],[0.6166666666666667],vertical,"(890.0, 762.0)",1.0833333333333333,0.58,1,331.294,1
0,66,target,"[(1104, 792)]",[],[1],[0.85],horizontal,"(890.0, 262.0)",0.6,nan,0,336.343,0
0,67,target,"[(1100, 804)]",[],[1],[0.5],horizontal,"(390.0, 262.0)",1.2,0.459,1,340.808,1
0,68,target,"[(1128, 774)]",[],[1],[0.6666666666666666],horizontal,"(390.0, 262.0)",0.8166666666666667,0.625,1,346.142,1
0,69,target,"[(1127, 802)]",[],[1],[0.6833333333333333],vertical,"(890.0, 262.0)",1.0333333333333332,0.647,1,350.764,2
0,70,target,"[(1127, 792)]",[],[1],[0.31666666666666665],vertical,"(890.0, 262.0)",1.3,0.278,1,355.863,2
0,71,target,"[(1133, 802)]",[],[1],[0.06666666666666667],horizontal,"(390.0, 262.0)",1.55,0.036,0,360.923,0
0,72,target,"[(1112, 795)]",[],[1],[0.5833333333333334],horizontal,"(390.0, 762.0)",0.8833333333333333,0.541,1,365.846,1
0,73,target,"[(1113, 791)]",[],[1],[0.5666666666666667],horizontal,"(890.0, 262.0)",1.0166666666666666,0.526,1,370.789,1
0,74,target,"[(1148, 799)]",[],[1],[0.5],vertical,"(390.0, 262.0)",1.2666666666666666,0.46,1,375.657,2
0,75,target,"[(1132, 801)]",[],[1],[0.5166666666666666],horizontal,"(390.0, 262.0)",1.2166666666666666,0.478,1,381.277,2
0,76,target,"[(1117, 792)]",[],[1],[0.5833333333333334],vertical,"(390.0, 762.0)",0.8,0.545,1,386.813,2
0,77,target,"[(1117, 802)]",[],[1],[0.65],vertical,"(390.0, 762.0)",0.8166666666666667,0.61,1,391.719,2
0,78,target,"[(1102, 786)]",[],[1],[0.55],vertical,"(890.0, 762.0)",1.0,0.514,1,397.059,3
0,79,target,"[(1127, 802)]",[],[1],[0.5666666666666667],vertical,"(890.0, 762.0)",1.45,0.531,1,402.95,3
0,80,target,"[(1096, 799)]",[],[1],[0.6333333333333333],horizontal,"(890.0, 762.0)",0.5,0.594,1,408.679,3
0,81,target,"[(1112, 801)]",[],[1],[0.5166666666666666],vertical,"(890.0, 762.0)",0.9333333333333333,0.48,1,413.89,3
0,82,catch,"[(1126, 785)]",[],[1],[],horizontal,"(890.0, 762.0)",1.6,nan,1,419.279,3
0,83,target,"[(1125, 800)]",[],[1],[0.6166666666666667],vertical,"(390.0, 262.0)",0.9333333333333333,0.571,1,425.063,3
0,84,target,"[(1112, 803)]",[],[1],[0.48333333333333334],horizontal,"(390.0, 762.0)",1.3166666666666667,0.444,1,430.383,3
0,85,target,"[(1131, 799)]",[],[1],[0.6],horizontal,"(890.0, 762.0)",0.9333333333333333,0.559,1,436.485,3
0,86,catch,"[(1127, 773)]",[],[1],[],vertical,"(890.0, 262.0)",1.6,nan,1,442.051,3
0,87,target,"[(1122, 814)]",[],[1],[0.3],vertical,"(890.0, 762.0)",1.3,0.259,1,447.829,3
0,88,target,"[(1121, 793)]",[],[1],[0.6833333333333333],vertical,"(390.0, 762.0)",0.9333333333333333,0.646,1,454.004,3
0,89,target,"[(1122, 792)]",[],[1],[0.5],horizontal,"(390.0, 262.0)",1.3833333333333333,0.466,1,460.033,3
0,90,target,"[(1129, 787)]",[],[1],[0.5166666666666666],horizontal,"(390.0, 762.0)",1.4666666666666666,0.475,1,466.025,3
0,91,target,"[(1101, 782)]",[],[1],[],vertical,"(390.0, 262.0)",,"('cti', 1.036)",0,471.763,0
0,92,target,"[(1112, 802)]",[],[1],[0.4666666666666667],vertical,"(890.0, 262.0)",0.9166666666666666,0.429,1,475.866,1
0,93,target,"[(1109, 787)]",[],[1],[0.6666666666666666],vertical,"(390.0, 762.0)",0.8666666666666667,0.626,1,480.953,1
0,94,target,"[(1102, 792)]",[],[1],[0.6],vertical,"(390.0, 762.0)",1.0333333333333332,0.564,1,485.481,2
0,95,target,"[(1106, 795)]",[],[1],[0.3],horizontal,"(890.0, 762.0)",1.5,0.26,1,490.78,2
0,96,target,"[(1114, 800)]",[],[1],[0.5833333333333334],horizontal,"(390.0, 762.0)",0.9166666666666666,0.538,1,496.094,2
0,97,target,"[(1127, 791)]",[],[1],[0.55],horizontal,"(890.0, 262.0)",1.3166666666666667,0.517,1,500.98,2
0,98,catch,"[(1111, 799)]",[],[1],[],horizontal,"(890.0, 262.0)",1.6,nan,1,506.446,3
0,99,target,"[(1122, 802)]",[],[1],[0.5],horizontal,"(890.0, 762.0)",1.5833333333333333,0.462,1,512.365,3
0,100,target,"[(1131, 792)]",[],[1],[0.55],vertical,"(890.0, 762.0)",0.6166666666666667,0.506,1,518.438,3
0,101,target,"[(1117, 794)]",[],[1],[0.6333333333333333],vertical,"(390.0, 262.0)",1.0333333333333332,0.592,1,523.631,3
0,102,target,"[(1114, 802)]",[],[1],[0.2],vertical,"(390.0, 762.0)",1.5,0.168,0,529.345,0
0,103,target,"[(1098, 807)]",[],[1],[0.5833333333333334],horizontal,"(390.0, 262.0)",0.5,0.541,1,534.244,1
0,104,target,"[(1129, 782)]",[],[1],[0.7333333333333333],horizontal,"(890.0, 762.0)",0.95,0.688,1,538.914,1
0,105,target,"[(1127, 792)]",[],[1],[0.5333333333333333],vertical,"(390.0, 262.0)",1.0666666666666667,0.49,1,543.563,2
0,106,target,"[(1128, 781)]",[],[1],[0.05],vertical,"(390.0, 262.0)",1.5166666666666666,0.019,0,548.927,0
0,107,target,"[(1102, 794)]",[],[1],[0.55],vertical,"(890.0, 262.0)",0.6166666666666667,0.507,1,553.561,1
0,108,target,"[(1127, 795)]",[],[1],[0.85],vertical,"(390.0, 762.0)",0.85,nan,0,558.081,0
0,109,target,"[(1126, 796)]",[],[1],[0.6666666666666666],vertical,"(390.0, 762.0)",1.0,0.621,1,562.981,1
0,110,target,"[(1102, 781)]",[],[1],[0.5],horizontal,"(890.0, 262.0)",1.3,0.459,1,567.681,1
0,111,target,"[(1127, 798)]",[],[1],[0.5666666666666667],horizontal,"(890.0, 262.0)",1.25,0.528,1,572.479,2
0,112,target,"[(1112, 792)]",[],[1],[0.31666666666666665],horizontal,"(390.0, 762.0)",1.5833333333333333,0.281,1,577.964,2
0,113,target,"[(1112, 783)]",[],[1],[0.7166666666666667],horizontal,"(890.0, 262.0)",1.2333333333333334,0.671,1,583.71,2
0,114,target,"[(1123, 792)]",[],[1],[0.5666666666666667],horizontal,"(890.0, 262.0)",0.7666666666666666,0.526,1,588.868,2
0,115,target,"[(1114, 799)]",[],[1],[0.43333333333333335],vertical,"(390.0, 762.0)",1.4,0.396,1,593.744,3
0,116,target,"[(1134, 792)]",[],[1],[0.7166666666666667],vertical,"(390.0, 762.0)",0.6,0.679,1,599.59,3
0,117,target,"[(1146, 782)]",[],[1],[0.5166666666666666],horizontal,"(890.0, 762.0)",0.8,0.481,1,604.928,3
0,118,target,"[(1131, 786)]",[],[1],[0.6833333333333333],vertical,"(890.0, 762.0)",0.55,0.642,1,610.417,3
0,119,target,"[(1133, 788)]",[],[1],[0.5],vertical,"(890.0, 762.0)",1.4166666666666667,0.457,1,615.626,3
0,120,target,"[(1118, 792)]",[],[1],[0.85],vertical,"(890.0, 762.0)",1.0333333333333332,nan,0,621.332,0
0,121,target,"[(1133, 782)]",[],[1],[0.5666666666666667],vertical,"(890.0, 762.0)",0.8833333333333333,0.532,1,625.965,1
0,122,target,"[(1132, 773)]",[],[1],[0.4666666666666667],vertical,"(390.0, 262.0)",1.2333333333333334,0.428,1,631.047,1
0,123,catch,"[(1130, 780)]",[],[1],[],vertical,"(890.0, 762.0)",1.6,nan,1,636.225,2
0,124,target,"[(1102, 781)]",[],[1],[0.5666666666666667],horizontal,"(390.0, 262.0)",1.2,0.526,1,641.634,2
0,125,target,"[(1133, 796)]",[],[1],[0.31666666666666665],horizontal,"(390.0, 262.0)",1.2333333333333334,0.278,1,647.098,2
0,126,target,"[(1130, 782)]",[],[1],[0.6166666666666667],vertical,"(890.0, 262.0)",1.1666666666666667,0.581,1,652.685,2
0,127,target,"[(1137, 794)]",[],[1],[0.85],horizontal,"(890.0, 762.0)",0.9166666666666666,nan,0,658.243,0
0,128,target,"[(1102, 794)]",[],[1],[0.35],vertical,"(890.0, 262.0)",1.4166666666666667,0.315,1,662.732,1
0,129,target,"[(1127, 786)]",[],[1],[0.48333333333333334],vertical,"(890.0, 762.0)",0.7166666666666667,0.445,1,667.996,1
0,130,catch,"[(1127, 782)]",[],[1],[],vertical,"(390.0, 262.0)",1.6,nan,1,672.809,2
0,131,target,"[(1133, 795)]",[],[1],[0.5333333333333333],vertical,"(890.0, 262.0)",0.5666666666666667,0.499,1,678.029,2
0,132,catch,"[(1102, 779)]",[],[1],[],horizontal,"(390.0, 762.0)",,"('cti', 1.138),nan",0,682.775,0
0,133,target,"[(1111, 797)]",[],[1],[0.6833333333333333],vertical,"(890.0, 262.0)",0.55,0.64,1,686.961,1
0,134,catch,"[(1096, 777)]",[],[1],[],vertical,"(890.0, 762.0)",1.6,nan,1,691.472,1
0,135,catch,"[(1122, 786)]",[],[1],[],vertical,"(890.0, 762.0)",1.6,nan,1,696.026,2
0,136,target,"[(1127, 801)]",[],[1],[0.4666666666666667],vertical,"(890.0, 762.0)",1.3,0.431,1,701.298,2
0,137,target,"[(1122, 792)]",[],[1],[0.5833333333333334],horizontal,"(390.0, 262.0)",0.5833333333333334,0.546,1,706.909,2
0,138,catch,"[(1113, 790)]",[],[1],[],horizontal,"(890.0, 762.0)",1.6,nan,1,712.129,2
0,139,target,"[(1103, 799)]",[],[1],[0.85],horizontal,"(390.0, 762.0)",0.6666666666666666,nan,0,717.619,0
0,140,target,"[(1102, 799)]",[],[1],[0.3],horizontal,"(390.0, 262.0)",1.4333333333333333,0.265,1,721.712,1
0,141,target,"[(1133, 792)]",[],[1],[0.16666666666666666],vertical,"(390.0, 262.0)",1.4833333333333334,0.13,0,726.407,0
0,142,target,"[(1106, 809)]",[],[1],[0.31666666666666665],horizontal,"(390.0, 262.0)",1.2666666666666666,0.283,1,731.443,1
0,143,target,"[(1116, 783)]",[],[1],[0.6333333333333333],vertical,"(390.0, 762.0)",1.15,0.594,1,736.47,1
0,144,target,"[(1101, 785)]",[],[1],[0.5166666666666666],vertical,"(890.0, 762.0)",1.2666666666666666,0.481,1,741.423,2
0,145,target,"[(1120, 788)]",[],[1],[0.65],vertical,"(890.0, 762.0)",0.7666666666666666,0.606,1,747.06,2
0,146,target,"[(1117, 779)]",[],[1],[0.5166666666666666],vertical,"(890.0, 762.0)",1.0333333333333332,0.478,1,752.37,2
0,147,target,"[(1127, 779)]",[],[1],[0.6333333333333333],horizontal,"(390.0, 262.0)",0.9166666666666666,0.593,1,757.563,2
0,148,target,"[(1105, 790)]",[],[1],[0.65],horizontal,"(890.0, 762.0)",1.25,0.611,1,762.616,3
0,149,target,"[(1144, 806)]",[],[1],[0.55],horizontal,"(890.0, 762.0)",1.25,0.511,1,768.132,3
0,150,target,"[(1108, 787)]",[],[1],[],horizontal,"(390.0, 762.0)",,"('cti', 1.365)",0,774.12,0
0,151,target,"[(1123, 792)]",[],[1],[0.5],horizontal,"(890.0, 262.0)",0.8333333333333334,0.46,1,778.866,1
0,152,target,"[(1127, 787)]",[],[1],[0.36666666666666664],vertical,"(890.0, 262.0)",1.3666666666666667,0.327,1,783.279,1
0,153,target,"[(1127, 777)]",[],[1],[0.5666666666666667],vertical,"(390.0, 762.0)",0.8,0.531,1,788.083,2
0,154,target,"[(1092, 786)]",[],[1],[0.5333333333333333],vertical,"(390.0, 262.0)",0.85,0.491,1,793.274,2
0,155,target,"[(1117, 790)]",[],[1],[0.45],horizontal,"(890.0, 262.0)",1.3166666666666667,0.408,1,798.442,2
0,156,target,"[(1107, 767)]",[],[1],[0.85],horizontal,"(890.0, 762.0)",0.5,nan,0,803.914,0
0,157,target,"[(1102, 787)]",[],[1],[0.5],horizontal,"(390.0, 762.0)",1.15,0.463,1,808.303,1
0,158,catch,"[(1103, 789)]",[],[1],[],horizontal,"(890.0, 262.0)",1.6,nan,1,813.196,1
0,159,target,"[(1127, 787)]",[],[1],[0.36666666666666664],horizontal,"(890.0, 762.0)",1.3666666666666667,0.336,1,817.935,2
0,160,target,"[(1129, 792)]",[],[1],[0.48333333333333334],vertical,"(890.0, 762.0)",1.0333333333333332,0.448,1,823.503,2
0,161,target,"[(1119, 802)]",[],[1],[0.48333333333333334],horizontal,"(390.0, 762.0)",1.2166666666666666,0.443,1,828.295,2
0,162,catch,"[(1119, 787)]",[],[1],[],vertical,"(390.0, 262.0)",1.6,nan,1,833.988,2
0,163,target,"[(1127, 787)]",[],[1],[0.5166666666666666],horizontal,"(390.0, 262.0)",0.8333333333333334,0.479,1,839.144,3
0,164,target,"[(1124, 796)]",[],[1],[0.45],vertical,"(890.0, 262.0)",1.2666666666666666,0.41,1,844.782,3
0,165,target,"[(1102, 789)]",[],[1],[0.5333333333333333],vertical,"(890.0, 762.0)",1.1666666666666667,0.49,1,850.597,3
0,166,target,"[(1127, 795)]",[],[1],[0.5166666666666666],horizontal,"(390.0, 762.0)",1.2166666666666666,0.479,1,856.495,3
0,167,target,"[(1117, 793)]",[],[1],[0.31666666666666665],vertical,"(890.0, 262.0)",1.3666666666666667,0.28,1,862.016,3
0,168,target,"[(1111, 792)]",[],[1],[0.5166666666666666],horizontal,"(890.0, 262.0)",1.0166666666666666,0.484,1,868.205,3
0,169,target,"[(1106, 788)]",[],[1],[0.21666666666666667],horizontal,"(390.0, 762.0)",1.45,0.183,0,873.832,0
0,170,target,"[(1100, 787)]",[],[1],[0.6666666666666666],horizontal,"(390.0, 262.0)",1.05,0.626,1,878.725,1
0,171,catch,"[(1099, 792)]",[],[1],[],vertical,"(890.0, 262.0)",1.6,nan,1,884.065,1
0,172,target,"[(1117, 779)]",[],[1],[0.65],horizontal,"(890.0, 762.0)",0.7666666666666666,0.615,1,888.958,2
0,173,target,"[(1127, 782)]",[],[1],[0.26666666666666666],vertical,"(390.0, 762.0)",1.4666666666666666,0.23,1,894.142,2
0,174,target,"[(1130, 779)]",[],[1],[0.85],vertical,"(390.0, 262.0)",0.5666666666666667,nan,0,899.147,0
0,175,target,"[(1101, 790)]",[],[1],[0.15],vertical,"(890.0, 262.0)",1.5,0.117,0,903.186,0
0,176,target,"[(1100, 786)]",[],[1],[0.3],horizontal,"(890.0, 262.0)",1.5666666666666667,0.262,1,907.998,1
0,177,target,"[(1110, 783)]",[],[1],[0.5166666666666666],vertical,"(890.0, 262.0)",1.1166666666666667,0.479,1,913.268,1
0,178,catch,"[(1127, 782)]",[],[1],[],vertical,"(390.0, 762.0)",1.6,nan,1,918.209,2
0,179,target,"[(1120, 774)]",[],[1],[0.5166666666666666],vertical,"(890.0, 762.0)",0.7833333333333333,0.472,1,923.302,2
0,180,target,"[(1127, 775)]",[],[1],[0.2],vertical,"(890.0, 262.0)",1.3833333333333333,0.168,0,928.534,0
0,181,target,"[(1116, 792)]",[],[1],[0.23333333333333334],horizontal,"(890.0, 762.0)",1.5166666666666666,0.2,1,933.231,1
0,182,target,"[(1122, 777)]",[],[1],[0.6666666666666666],vertical,"(890.0, 262.0)",0.5166666666666666,0.624,1,938.495,1
0,183,target,"[(1102, 806)]",[],[1],[0.85],vertical,"(390.0, 762.0)",0.6666666666666666,nan,0,942.967,0
0,184,target,"[(1099, 783)]",[],[1],[0.3333333333333333],vertical,"(890.0, 762.0)",1.4,0.298,1,947.44,1
0,185,target,"[(1128, 789)]",[],[1],[0.3333333333333333],vertical,"(890.0, 762.0)",1.5,0.296,1,952.363,1
0,186,target,"[(1097, 767)]",[],[1],[0.26666666666666666],vertical,"(890.0, 262.0)",1.45,0.232,1,957.118,2
0,187,target,"[(1099, 782)]",[],[1],[0.5333333333333333],horizontal,"(890.0, 762.0)",1.35,0.493,1,962.595,2
0,188,target,"[(1127, 801)]",[],[1],[0.5833333333333334],vertical,"(890.0, 762.0)",0.65,0.54,1,968.113,2
0,189,target,"[(1127, 804)]",[],[1],[0.5],vertical,"(890.0, 262.0)",1.1833333333333333,0.465,1,972.86,2
0,190,target,"[(1130, 803)]",[],[1],[0.4],horizontal,"(390.0, 762.0)",1.3833333333333333,0.367,1,978.439,3
0,191,target,"[(1106, 803)]",[],[1],[0.5166666666666666],horizontal,"(890.0, 262.0)",0.7166666666666667,0.478,1,984.311,3
0,192,catch,"[(1125, 787)]",[],[1],[],vertical,"(390.0, 762.0)",1.6,nan,1,989.315,3
0,193,catch,"[(1120, 798)]",[],[1],[],horizontal,"(390.0, 262.0)",1.6,nan,1,994.782,3
0,194,target,"[(1099, 813)]",[],[1],[0.21666666666666667],vertical,"(390.0, 262.0)",1.5333333333333332,0.186,0,1000.704,0
0,195,target,"[(1102, 789)]",[],[1],[0.4666666666666667],horizontal,"(890.0, 762.0)",1.1833333333333333,0.426,1,1005.771,1
0,196,catch,"[(1106, 792)]",[],[1],[],vertical,"(390.0, 262.0)",1.6,nan,1,1010.581,1
0,197,target,"[(1133, 781)]",[],[1],[0.85],horizontal,"(890.0, 262.0)",0.7333333333333333,nan,0,1015.741,0
0,198,target,"[(1093, 791)]",[],[1],[0.16666666666666666],horizontal,"(890.0, 762.0)",1.55,0.136,0,1020.368,0
0,199,target,"[(1107, 802)]",[],[1],[0.5333333333333333],vertical,"(390.0, 262.0)",1.15,0.498,1,1025.231,1
0,200,target,"[(1099, 782)]",[],[1],[0.5166666666666666],horizontal,"(890.0, 262.0)",1.3833333333333333,0.486,1,1030.205,1
0,201,target,"[(1123, 798)]",[],[1],[0.85],vertical,"(390.0, 262.0)",0.55,nan,0,1035.296,0
0,202,target,"[(1102, 806)]",[],[1],[0.55],horizontal,"(390.0, 762.0)",1.1166666666666667,0.508,1,1039.665,1
0,203,target,"[(1146, 797)]",[],[1],[0.85],vertical,"(390.0, 262.0)",0.55,nan,0,1044.95,0
0,204,catch,"[(1105, 786)]",[],[1],[],vertical,"(890.0, 762.0)",1.6,nan,1,1049.543,1
0,205,catch,"[(1142, 787)]",[],[1],[],vertical,"(890.0, 262.0)",1.6,nan,1,1054.898,1
0,206,target,"[(1096, 792)]",[],[1],[0.85],vertical,"(390.0, 762.0)",0.5,nan,0,1059.652,0
0,207,target,"[(1102, 783)]",[],[1],[0.5833333333333334],horizontal,"(390.0, 262.0)",1.1166666666666667,0.542,1,1064.18,1
0,208,target,"[(1133, 804)]",[],[1],[0.5333333333333333],vertical,"(890.0, 262.0)",0.6333333333333333,0.498,1,1069.231,1
0,209,target,"[(1131, 800)]",[],[1],[0.45],vertical,"(890.0, 762.0)",1.2333333333333334,0.413,1,1073.626,2
0,210,target,"[(1117, 805)]",[],[1],[0.5333333333333333],vertical,"(890.0, 762.0)",1.25,0.498,1,1079.08,2
0,211,target,"[(1127, 793)]",[],[1],[0.3333333333333333],horizontal,"(390.0, 762.0)",1.5166666666666666,0.301,1,1084.728,2
0,212,catch,"[(1112, 784)]",[],[1],[],vertical,"(390.0, 262.0)",1.6,nan,1,1090.081,2
0,213,target,"[(1107, 812)]",[],[1],[0.5333333333333333],vertical,"(890.0, 262.0)",1.2833333333333332,0.503,1,1095.526,3
0,214,target,"[(1132, 796)]",[],[1],[0.5833333333333334],horizontal,"(890.0, 762.0)",1.0,0.55,1,1101.681,3
0,215,target,"[(1127, 788)]",[],[1],[0.55],vertical,"(390.0, 762.0)",0.8833333333333333,0.513,1,1107.457,3
0,216,target,"[(1096, 804)]",[],[1],[0.35],vertical,"(890.0, 762.0)",1.4333333333333333,0.315,1,1112.868,3
0,217,target,"[(1096, 795)]",[],[1],[0.4],horizontal,"(390.0, 762.0)",1.55,0.361,1,1119.031,3
0,218,target,"[(1102, 799)]",[],[1],[0.16666666666666666],vertical,"(390.0, 262.0)",1.5,0.134,0,1124.993,0
0,219,target,"[(1092, 799)]",[],[1],[0.5333333333333333],vertical,"(890.0, 262.0)",0.8,0.494,1,1129.565,1
0,220,target,"[(1122, 780)]",[],[1],[0.4666666666666667],horizontal,"(390.0, 762.0)",1.25,0.436,1,1134.131,1
0,221,catch,"[(1129, 779)]",[],[1],[],horizontal,"(390.0, 762.0)",1.6,nan,1,1139.187,2
0,222,target,"[(1127, 807)]",[],[1],[0.4666666666666667],horizontal,"(890.0, 262.0)",1.25,0.431,1,1144.401,2
0,223,target,"[(1126, 802)]",[],[1],[0.6833333333333333],horizontal,"(890.0, 262.0)",0.8166666666666667,0.643,1,1150.351,2
0,224,catch,"[(1107, 791)]",[],[1],[],horizontal,"(890.0, 762.0)",1.6,nan,1,1155.817,2
0,225,catch,"[(1128, 792)]",[],[1],[],horizontal,"(890.0, 762.0)",1.6,nan,1,1161.019,3
0,226,catch,"[(1097, 807)]",[],[1],[],vertical,"(890.0, 762.0)",1.6,nan,1,1167.107,3
0,227,target,"[(1117, 811)]",[],[1],[0.7],vertical,"(390.0, 762.0)",1.0833333333333333,0.664,1,1172.997,3
0,228,target,"[(1097, 778)]",[],[1],[0.43333333333333335],horizontal,"(890.0, 262.0)",1.0333333333333332,0.399,1,1179.009,3
0,229,target,"[(1104, 792)]",[],[1],[0.6],vertical,"(890.0, 762.0)",1.1833333333333333,0.566,1,1184.977,3
0,230,target,"[(1096, 794)]",[],[1],[0.55],vertical,"(890.0, 762.0)",0.7166666666666667,0.51,1,1190.771,3
0,231,target,"[(1089, 797)]",[],[1],[0.85],horizontal,"(390.0, 762.0)",0.8,nan,0,1195.972,0
0,232,catch,"[(1096, 792)]",[],[1],[],vertical,"(390.0, 762.0)",1.6,nan,1,1200.63,1
0,233,target,"[(1102, 787)]",[],[1],[0.85],horizontal,"(890.0, 762.0)",0.6,nan,0,1206.061,0
0,234,target,"[(1096, 799)]",[],[1],[0.6],vertical,"(390.0, 762.0)",0.8,0.564,1,1210.182,1
0,235,target,"[(1127, 802)]",[],[1],[0.48333333333333334],horizontal,"(390.0, 262.0)",1.3166666666666667,0.448,1,1215.252,1
0,236,target,"[(1099, 786)]",[],[1],[0.5333333333333333],vertical,"(390.0, 262.0)",1.35,0.498,1,1220.595,2
0,237,catch,"[(1090, 782)]",[],[1],[],horizontal,"(890.0, 762.0)",1.6,nan,1,1226.034,2
0,238,target,"[(1107, 790)]",[],[1],[0.55],horizontal,"(890.0, 762.0)",1.1166666666666667,0.513,1,1231.182,2
0,239,target,"[(1100, 791)]",[],[1],[0.85],vertical,"(890.0, 762.0)",0.5333333333333333,nan,0,1236.47,0
0,240,target,"[(1089, 775)]",[],[1],[0.65],horizontal,"(890.0, 262.0)",0.75,0.612,1,1241.233,1
0,241,target,"[(1137, 777)]",[],[1],[0.23333333333333334],horizontal,"(890.0, 762.0)",1.4833333333333334,0.198,0,1246.332,0
0,242,target,"[(1117, 787)]",[],[1],[0.85],vertical,"(390.0, 762.0)",0.6333333333333333,nan,0,1251.527,0
0,243,catch,"[(1102, 799)]",[],[1],[],horizontal,"(390.0, 262.0)",1.6,nan,1,1256.152,1
0,244,target,"[(1127, 760)]",[],[1],[0.6166666666666667],vertical,"(890.0, 262.0)",0.6333333333333333,0.577,1,1261.038,1
0,245,target,"[(1122, 795)]",[],[1],[0.5166666666666666],vertical,"(390.0, 762.0)",1.0,0.489,1,1265.366,2
0,246,target,"[(1123, 795)]",[],[1],[0.4666666666666667],horizontal,"(390.0, 262.0)",1.3833333333333333,0.429,1,1270.277,2
0,247,target,"[(1096, 796)]",[],[1],[0.5333333333333333],vertical,"(890.0, 762.0)",1.2666666666666666,0.494,1,1275.515,2
0,248,target,"[(1123, 816)]",[],[1],[0.6166666666666667],horizontal,"(890.0, 762.0)",0.7666666666666666,0.586,1,1280.933,2
0,249,target,"[(1132, 791)]",[],[1],[0.6],vertical,"(390.0, 762.0)",0.8333333333333334,0.561,1,1286.07,3
0,250,catch,"[(1130, 798)]",[],[1],[],horizontal,"(390.0, 262.0)",1.6,nan,1,1291.716,3
0,251,catch,"[(1104, 808)]",[],[1],[],vertical,"(890.0, 762.0)",1.6,nan,1,1297.615,3
0,252,catch,"[(1083, 797)]",[],[1],[],horizontal,"(890.0, 762.0)",1.6,nan,1,1303.264,3
0,253,target,"[(1101, 799)]",[],[1],[0.5],vertical,"(890.0, 262.0)",1.0833333333333333,0.462,1,1308.877,3
0,254,catch,"[(1096, 802)]",[],[1],[],horizontal,"(390.0, 262.0)",,"('cti', 1.59),nan",0,1314.865,0
0,255,catch,"[(994, 881), (998, 880), (1099, 821)]",[],"[0, 0, 1]",[],vertical,"(390.0, 262.0)",,"('cti', 1.409),nan",0,1319.978,0
0,256,target,"[(1122, 838)]",[],[1],[0.5],vertical,"(890.0, 762.0)",1.2666666666666666,0.467,1,1442.401,1
0,257,target,"[(1124, 821)]",[],[1],[0.13333333333333333],vertical,"(390.0, 762.0)",1.5666666666666667,0.103,0,1448.048,0
0,258,catch,"[(1087, 800)]",[],[1],[],horizontal,"(890.0, 762.0)",1.6,nan,1,1452.751,1
0,259,target,"[(1100, 804)]",[],[1],[0.85],vertical,"(390.0, 762.0)",0.9833333333333333,nan,0,1459.577,0
0,260,target,"[(1136, 765)]",[],[1],[0.3333333333333333],vertical,"(890.0, 262.0)",1.4666666666666666,0.296,1,1464.482,1
0,261,target,"[(1100, 804)]",[],[1],[0.85],horizontal,"(890.0, 762.0)",0.9,nan,0,1469.717,0
0,262,target,"[(1094, 807)]",[],[1],[0.43333333333333335],horizontal,"(390.0, 262.0)",1.3166666666666667,0.401,1,1474.883,1
0,263,target,"[(1103, 786)]",[],[1],[0.5833333333333334],horizontal,"(390.0, 762.0)",1.2333333333333334,0.546,1,1480.701,1
0,264,target,"[(1101, 802)]",[],[1],[0.35],horizontal,"(890.0, 762.0)",1.3833333333333333,0.319,1,1485.809,2
0,265,target,"[(1117, 800)]",[],[1],[0.7333333333333333],horizontal,"(890.0, 262.0)",0.55,0.699,1,1491.216,2
0,266,target,"[(1133, 797)]",[],[1],[0.65],vertical,"(390.0, 762.0)",0.8833333333333333,0.617,1,1496.404,2
0,267,target,"[(1132, 800)]",[],[1],[0.5333333333333333],vertical,"(890.0, 762.0)",0.6833333333333333,0.494,1,1501.949,2
0,268,target,"[(1096, 809)]",[],[1],[0.85],horizontal,"(890.0, 262.0)",1.55,"('cti', 1.555),nan",0,1506.483,0
0,269,target,"[(1102, 804)]",[],[1],[0.5166666666666666],vertical,"(390.0, 762.0)",0.8,0.483,1,1512.035,1
0,270,target,"[(1129, 812)]",[],[1],[0.16666666666666666],horizontal,"(390.0, 262.0)",1.5666666666666667,0.135,0,1516.513,0
0,271,target,"[(1076, 797)]",[],[1],[0.48333333333333334],vertical,"(390.0, 262.0)",1.05,0.449,1,1521.376,1
0,272,catch,"[(1113, 796)]",[],[1],[],vertical,"(890.0, 762.0)",1.6,nan,1,1529.451,1
0,273,target,"[(1099, 805)]",[],[1],[0.5333333333333333],horizontal,"(890.0, 762.0)",0.65,0.502,1,1534.201,2
0,274,target,"[(1129, 795)]",[],[1],[0.6],vertical,"(890.0, 762.0)",0.6333333333333333,0.562,1,1538.804,2
0,275,target,"[(1133, 801)]",[],[1],[0.5333333333333333],vertical,"(890.0, 762.0)",0.8666666666666667,0.495,1,1543.532,2
0,276,catch,"[(1128, 795)]",[],[1],[0.03333333333333333],vertical,"(890.0, 262.0)",1.6,"0.02,nan",0,1548.646,0
0,277,target,"[(1061, 807)]",[],[1],[0.11666666666666667],vertical,"(390.0, 762.0)",1.5666666666666667,0.087,0,1553.062,0
0,278,target,"[(1090, 799)]",[],[1],[0.85],horizontal,"(390.0, 762.0)",0.7666666666666666,nan,0,1561.78,0
0,279,target,"[(1088, 805)]",[],[1],[0.4666666666666667],horizontal,"(890.0, 262.0)",1.4166666666666667,0.434,1,1566.153,1
0,280,catch,"[(1132, 792)]",[],[1],[],vertical,"(890.0, 762.0)",1.6,nan,1,1571.396,1
0,281,target,"[(1096, 808)]",[],[1],[0.3333333333333333],horizontal,"(890.0, 262.0)",1.2833333333333332,0.299,1,1576.301,2
0,282,target,"[(1107, 798)]",[],[1],[0.55],vertical,"(890.0, 762.0)",0.6,0.521,1,1582.598,2
0,283,target,"[(1103, 797)]",[],[1],[0.6833333333333333],horizontal,"(890.0, 762.0)",0.9666666666666667,0.643,1,1587.664,2
0,284,catch,"[(1121, 796)]",[],[1],[],vertical,"(390.0, 262.0)",1.6,nan,1,1592.649,2
0,285,catch,"[(1102, 798)]",[],[1],[],horizontal,"(390.0, 762.0)",1.6,nan,1,1597.614,3
0,286,target,"[(1116, 811)]",[],[1],[0.5166666666666666],horizontal,"(890.0, 762.0)",1.1833333333333333,0.483,1,1603.373,3
0,287,target,"[(1153, 792)]",[],[1],[0.5166666666666666],vertical,"(390.0, 262.0)",0.6833333333333333,0.481,1,1609.348,3
0,288,target,"[(1116, 797)]",[],[1],[0.7166666666666667],vertical,"(390.0, 762.0)",1.0833333333333333,0.682,1,1614.634,3
0,289,target,"[(1108, 792)]",[],[1],[0.5666666666666667],horizontal,"(390.0, 762.0)",1.2666666666666666,0.531,1,1620.787,3
0,290,catch,"[(1124, 812)]",[],[1],[],vertical,"(390.0, 762.0)",1.6,nan,1,1626.769,3
0,291,target,"[(1130, 799)]",[],[1],[0.8],horizontal,"(390.0, 762.0)",1.5,0.765,1,1632.881,3
0,292,target,"[(1094, 778)]",[],[1],[0.36666666666666664],vertical,"(390.0, 762.0)",1.4166666666666667,0.331,1,1638.963,3
0,293,catch,"[(1102, 796)]",[],[1],[],horizontal,"(890.0, 262.0)",1.6,nan,1,1644.391,3
0,294,target,"[(1109, 799)]",[],[1],[0.5],horizontal,"(890.0, 262.0)",1.0333333333333332,0.458,1,1650.05,3
0,295,catch,"[(1085, 817)]",[],[1],[],horizontal,"(390.0, 262.0)",1.6,nan,1,1655.864,3
0,296,target,"[(1121, 817)]",[],[1],[0.5166666666666666],vertical,"(890.0, 762.0)",0.8166666666666667,0.48,1,1670.052,3
0,297,target,"[(1131, 792)]",[],[1],[0.6333333333333333],horizontal,"(890.0, 262.0)",0.8166666666666667,0.592,1,1675.731,3
0,298,catch,"[(1122, 795)]",[],[1],[0.03333333333333333],vertical,"(390.0, 762.0)",1.6,"0.019,nan",0,1681.251,0
0,299,target,"[(1130, 805)]",[],[1],[0.3333333333333333],vertical,"(390.0, 762.0)",1.3166666666666667,0.299,1,1686.317,1
0,300,target,"[(1120, 792)]",[],[1],[0.5166666666666666],vertical,"(390.0, 262.0)",0.9833333333333333,0.478,1,1691.231,1
0,301,target,"[(1129, 796)]",[],[1],[0.3],vertical,"(890.0, 262.0)",1.3833333333333333,0.269,1,1696.334,2
0,302,target,"[(1132, 797)]",[],[1],[0.25],horizontal,"(390.0, 262.0)",1.5666666666666667,0.217,1,1701.862,2
0,303,target,"[(1119, 802)]",[],[1],[0.7],horizontal,"(390.0, 762.0)",1.1,0.65,1,1707.534,2
0,304,target,"[(1098, 795)]",[],[1],[0.6333333333333333],horizontal,"(890.0, 762.0)",1.1,0.599,1,1713.104,2
0,305,target,"[(1122, 800)]",[],[1],[0.43333333333333335],vertical,"(390.0, 762.0)",1.3833333333333333,0.399,1,1718.669,3
0,306,target,"[(1109, 791)]",[],[1],[0.5833333333333334],horizontal,"(890.0, 262.0)",0.6,0.547,1,1724.808,3
0,307,target,"[(1127, 802)]",[],[1],[0.5833333333333334],horizontal,"(390.0, 262.0)",0.55,0.549,1,1730.079,3
0,308,catch,"[(1103, 792)]",[],[1],[],horizontal,"(890.0, 262.0)",1.6,nan,1,1735.033,3
0,309,target,"[(1123, 816)]",[],[1],[0.4666666666666667],vertical,"(890.0, 262.0)",1.2666666666666666,0.429,1,1740.981,3
0,310,target,"[(1118, 792)]",[],[1],[0.6],horizontal,"(390.0, 262.0)",0.9666666666666667,0.563,1,1747.2,3
0,311,catch,"[(1107, 770)]",[],[1],[],horizontal,"(890.0, 762.0)",1.6,nan,1,1753.166,3
0,312,target,"[(1132, 802)]",[],[1],[0.5833333333333334],horizontal,"(390.0, 762.0)",1.0833333333333333,0.545,1,1758.584,3
0,313,target,"[(1096, 776)]",[],[1],[0.3833333333333333],horizontal,"(890.0, 262.0)",1.3166666666666667,0.35,1,1764.663,3
0,314,target,"[(1113, 800)]",[],[1],[0.85],horizontal,"(390.0, 262.0)",0.5333333333333333,nan,0,1770.736,0
0,315,catch,"[(1100, 799)]",[],[1],[],vertical,"(390.0, 762.0)",1.6,nan,1,1775.079,1
0,316,target,"[(1127, 773)]",[],[1],[0.3333333333333333],horizontal,"(390.0, 262.0)",1.4333333333333333,0.3,1,1780.05,1
0,317,catch,"[(1108, 802)]",[],[1],[],horizontal,"(390.0, 262.0)",1.6,nan,1,1785.035,2
0,318,target,"[(1109, 799)]",[],[1],[0.55],vertical,"(390.0, 262.0)",0.7166666666666667,0.516,1,1790.338,2
0,319,target,"[(1131, 808)]",[],[1],[0.4],vertical,"(390.0, 262.0)",1.2666666666666666,0.365,1,1795.618,2
0,320,target,"[(1120, 794)]",[],[1],[0.6],vertical,"(890.0, 262.0)",0.8166666666666667,0.563,1,1800.931,2
0,321,target,"[(1123, 796)]",[],[1],[0.16666666666666666],vertical,"(890.0, 262.0)",1.55,0.135,0,1806.04,0
0,322,catch,"[(1125, 807)]",[],[1],[],vertical,"(390.0, 262.0)",,"('cti', 1.447),nan",0,1810.936,0
0,323,target,"[(1107, 814)]",[],[1],[0.43333333333333335],vertical,"(390.0, 262.0)",1.2833333333333332,0.402,1,1815.831,1
0,324,target,"[(1097, 792)]",[],[1],[0.3],horizontal,"(890.0, 762.0)",1.4666666666666666,0.268,1,1820.936,1
0,325,target,"[(1131, 778)]",[],[1],[0.5666666666666667],horizontal,"(890.0, 762.0)",0.6666666666666666,0.53,1,1826.048,2
0,326,target,"[(1133, 796)]",[],[1],[0.2],vertical,"(390.0, 762.0)",1.4166666666666667,0.17,0,1830.998,0
0,327,target,"[(1094, 779)]",[],[1],[0.6166666666666667],vertical,"(390.0, 762.0)",0.5333333333333333,0.582,1,1836.075,1
0,328,target,"[(1102, 779)]",[],[1],[0.85],vertical,"(890.0, 262.0)",1.55,"('cti', 1.556),nan",0,1840.808,0
0,329,target,"[(1096, 829)]",[],[1],[0.5333333333333333],horizontal,"(890.0, 262.0)",1.4833333333333334,0.497,1,1846.335,1
0,330,catch,"[(1107, 806)]",[],[1],[],horizontal,"(890.0, 762.0)",1.6,nan,1,1860.606,1
0,331,target,"[(1100, 818)]",[],[1],[0.6],horizontal,"(890.0, 262.0)",0.9,0.562,1,1865.442,2
0,332,catch,"[(1102, 793)]",[],[1],[],horizontal,"(890.0, 262.0)",1.6,nan,1,1870.858,2
0,333,target,"[(1099, 798)]",[],[1],[0.5],vertical,"(390.0, 262.0)",1.0333333333333332,0.468,1,1876.272,2
0,334,target,"[(1096, 802)]",[],[1],[0.23333333333333334],vertical,"(390.0, 262.0)",1.4833333333333334,0.2,1,1881.299,2
0,335,target,"[(1111, 792)]",[],[1],[0.4],vertical,"(890.0, 262.0)",1.4166666666666667,0.362,1,1886.96,3
0,336,target,"[(1113, 782)]",[],[1],[0.3],horizontal,"(890.0, 262.0)",1.55,0.265,1,1892.77,3
0,337,target,"[(1107, 802)]",[],[1],[0.5],vertical,"(890.0, 262.0)",1.1833333333333333,0.467,1,1898.486,3
0,338,target,"[(1107, 798)]",[],[1],[0.5333333333333333],vertical,"(890.0, 262.0)",0.8666666666666667,0.495,1,1903.898,3
0,339,target,"[(1096, 803)]",[],[1],[0.4666666666666667],vertical,"(390.0, 262.0)",1.3833333333333333,0.428,1,1909.239,3
0,340,catch,"[(1101, 799)]",[],[1],[],vertical,"(890.0, 762.0)",1.6,nan,1,1914.83,3
0,341,target,"[(1132, 802)]",[],[1],[0.5666666666666667],horizontal,"(390.0, 262.0)",1.25,0.528,1,1920.508,3
0,342,target,"[(1100, 796)]",[],[1],[0.4],horizontal,"(390.0, 262.0)",1.3333333333333333,0.36,1,1925.997,3
0,343,target,"[(1133, 784)]",[],[1],[0.5333333333333333],vertical,"(890.0, 762.0)",0.75,0.492,1,1931.427,3
0,344,target,"[(1109, 806)]",[],[1],[0.6166666666666667],horizontal,"(890.0, 262.0)",0.6833333333333333,0.58,1,1936.918,3
0,345,catch,"[(1096, 786)]",[],[1],[],vertical,"(890.0, 262.0)",1.6,nan,1,1942.544,3
0,346,target,"[(1117, 797)]",[],[1],[0.6],vertical,"(890.0, 762.0)",0.85,0.561,1,1948.234,3
0,347,target,"[(1096, 768)]",[],[1],[0.7],vertical,"(390.0, 762.0)",0.9833333333333333,0.656,1,1954.056,3
0,348,target,"[(1109, 788)]",[],[1],[0.48333333333333334],vertical,"(890.0, 262.0)",1.3166666666666667,0.45,1,1959.836,3
0,349,target,"[(1102, 799)]",[],[1],[0.5166666666666666],vertical,"(890.0, 262.0)",1.0333333333333332,0.48,1,1965.365,3
0,350,catch,"[(1128, 785)]",[],[1],[],horizontal,"(890.0, 762.0)",1.6,nan,1,1971.058,3
0,351,target,"[(1101, 801)]",[],[1],[0.5333333333333333],horizontal,"(890.0, 762.0)",0.8833333333333333,0.499,1,1976.58,3
0,352,target,"[(1107, 802)]",[],[1],[0.6833333333333333],horizontal,"(390.0, 762.0)",0.7166666666666667,0.637,1,1982.22,3
0,353,target,"[(1107, 786)]",[],[1],[0.48333333333333334],vertical,"(890.0, 262.0)",1.3,0.445,1,1988.082,3
0,354,target,"[(1096, 801)]",[],[1],[0.6833333333333333],horizontal,"(390.0, 762.0)",0.6666666666666666,0.645,1,1994.046,3
0,355,catch,"[(1107, 794)]",[],[1],[],horizontal,"(390.0, 762.0)",1.6,nan,1,1999.925,3
0,356,target,"[(1101, 801)]",[],[1],[0.6],vertical,"(390.0, 262.0)",0.6,0.563,1,2005.522,3
0,357,catch,"[(1102, 794)]",[],[1],[],horizontal,"(890.0, 262.0)",1.6,nan,1,2011.231,3
0,358,catch,"[(1102, 791)]",[],[1],[],horizontal,"(890.0, 262.0)",,"('cti', 1.577),nan",0,2017.272,0
0,359,target,"[(1109, 792)]",[],[1],[0.43333333333333335],vertical,"(390.0, 762.0)",1.5166666666666666,0.397,1,2021.95,1
0,360,target,"[(1131, 794)]",[],[1],[0.31666666666666665],horizontal,"(390.0, 762.0)",1.3,0.283,1,2026.855,1
0,361,target,"[(1101, 768)]",[],[1],[0.18333333333333332],vertical,"(390.0, 762.0)",1.4166666666666667,0.148,0,2032.129,0
0,362,target,"[(1081, 803)]",[],[1],[0.5833333333333334],vertical,"(390.0, 762.0)",0.7166666666666667,0.552,1,2036.727,1
0,363,target,"[(1098, 797)]",[],[1],[0.85],horizontal,"(390.0, 262.0)",1.3666666666666667,nan,0,2041.03,0
0,364,target,"[(1103, 798)]",[],[1],[0.4166666666666667],vertical,"(390.0, 262.0)",1.2666666666666666,0.378,1,2046.481,1
0,365,target,"[(1119, 791)]",[],[1],[0.21666666666666667],vertical,"(390.0, 762.0)",1.4666666666666666,0.183,0,2051.639,0
0,366,catch,"[(1098, 800)]",[],[1],[],horizontal,"(390.0, 262.0)",,"('cti', 1.304),nan",0,2056.365,0
0,367,target,"[(1096, 796)]",[],[1],[0.5166666666666666],vertical,"(890.0, 262.0)",1.1833333333333333,0.485,1,2061.05,1
0,368,target,"[(1127, 793)]",[],[1],[0.18333333333333332],horizontal,"(390.0, 762.0)",1.5833333333333333,0.153,0,2065.75,0
0,369,target,"[(1100, 802)]",[],[1],[0.85],horizontal,"(890.0, 762.0)",0.7166666666666667,nan,0,2070.789,0
0,370,target,"[(1095, 800)]",[],[1],[0.5833333333333334],horizontal,"(890.0, 762.0)",0.9,0.546,1,2075.088,1
0,371,target,"[(1080, 792)]",[],[1],[0.3],horizontal,"(890.0, 762.0)",1.55,0.267,1,2079.957,1
0,372,catch,"[(1100, 772)]",[],[1],[],vertical,"(390.0, 262.0)",1.6,nan,1,2085.349,2
0,373,target,"[(1101, 776)]",[],[1],[0.65],vertical,"(890.0, 262.0)",1.0,0.61,1,2090.633,2
0,374,target,"[(1100, 793)]",[],[1],[0.21666666666666667],horizontal,"(390.0, 262.0)",1.4833333333333334,0.182,0,2096.119,0
0,375,catch,"[(1127, 798)]",[],[1],[],horizontal,"(890.0, 262.0)",1.6,nan,1,2100.684,1
0,376,target,"[(1098, 782)]",[],[1],[0.75],horizontal,"(390.0, 262.0)",0.7166666666666667,0.716,1,2105.349,1
0,377,target,"[(1133, 793)]",[],[1],[0.65],horizontal,"(890.0, 262.0)",0.9333333333333333,0.609,1,2110.199,2
0,378,target,"[(1129, 791)]",[],[1],[0.1],vertical,"(890.0, 762.0)",1.5,0.067,0,2115.472,0
0,379,target,"[(1130, 784)]",[],[1],[0.85],vertical,"(390.0, 762.0)",0.6,nan,0,2120.4,0
0,380,target,"[(1099, 788)]",[],[1],[0.21666666666666667],horizontal,"(390.0, 762.0)",1.4333333333333333,0.18,0,2124.605,0
0,381,target,"[(1100, 793)]",[],[1],[0.65],vertical,"(890.0, 762.0)",0.9166666666666666,0.614,1,2129.301,1
0,382,catch,"[(1101, 763)]",[],[1],[],vertical,"(890.0, 762.0)",1.6,nan,1,2134.243,1
0,383,target,"[(1097, 798)]",[],[1],[0.65],vertical,"(390.0, 262.0)",0.5166666666666666,0.616,1,2139.294,2
0,384,target,"[(1097, 800)]",[],[1],[],vertical,"(390.0, 762.0)",,"('cti', 1.382)",0,2144.321,0
0,385,target,"[(1096, 797)]",[],[1],[0.6166666666666667],horizontal,"(890.0, 262.0)",1.15,0.579,1,2149.138,1
0,386,target,"[(1106, 787)]",[],[1],[0.36666666666666664],horizontal,"(390.0, 762.0)",1.4,0.323,1,2154.082,1
0,387,target,"[(1103, 785)]",[],[1],[0.3833333333333333],horizontal,"(890.0, 762.0)",1.3333333333333333,0.351,1,2158.864,2
0,388,catch,"[(1128, 794)]",[],[1],[],vertical,"(890.0, 762.0)",1.6,nan,1,2164.405,2
0,389,catch,"[(1095, 802)]",[],[1],[],vertical,"(890.0, 262.0)",1.6,nan,1,2169.616,2
0,390,target,"[(1100, 799)]",[],[1],[0.5333333333333333],horizontal,"(890.0, 262.0)",0.8666666666666667,0.493,1,2174.649,2
0,391,target,"[(1111, 809)]",[],[1],[0.35],vertical,"(390.0, 262.0)",1.3166666666666667,0.312,1,2179.836,3
0,392,target,"[(1094, 792)]",[],[1],[0.26666666666666666],horizontal,"(890.0, 262.0)",1.5166666666666666,0.236,1,2185.723,3
0,393,target,"[(1101, 786)]",[],[1],[0.4],vertical,"(390.0, 262.0)",1.5333333333333332,0.362,1,2191.694,3
0,394,catch,"[(1097, 801)]",[],[1],[],vertical,"(390.0, 762.0)",,"('cti', 1.527),nan",0,2197.571,0
0,395,catch,"[(1131, 793)]",[],[1],[],horizontal,"(390.0, 262.0)",1.6,nan,1,2202.321,1
0,396,target,"[(1099, 785)]",[],[1],[],horizontal,"(890.0, 262.0)",,"('cti', 1.559)",0,2207.193,0
0,397,catch,"[(1108, 791)]",[],[1],[],vertical,"(390.0, 262.0)",1.6,nan,1,2211.92,1
0,398,catch,"[(1126, 799)]",[],[1],[],horizontal,"(890.0, 262.0)",1.6,nan,1,2216.848,1
0,399,catch,"[(1103, 796)]",[],[1],[],horizontal,"(890.0, 762.0)",1.6,nan,1,2221.789,2
0,400,target,"[(1146, 792)]",[],[1],[0.55],horizontal,"(890.0, 762.0)",0.9,0.507,1,2227.054,2
0,401,target,"[(1133, 800)]",[],[1],[0.4666666666666667],vertical,"(890.0, 262.0)",1.3833333333333333,0.429,1,2232.409,2
0,402,target,"[(1140, 799)]",[],[1],[0.1],horizontal,"(390.0, 762.0)",1.5,0.07,0,2237.77,0
0,403,target,"[(1134, 805)]",[],[1],[0.2833333333333333],horizontal,"(390.0, 762.0)",1.55,0.247,1,2242.549,1
0,404,target,"[(1102, 792)]",[],[1],[0.5333333333333333],horizontal,"(890.0, 262.0)",1.0333333333333332,0.492,1,2247.685,1
0,405,target,"[(1096, 794)]",[],[1],[0.6333333333333333],vertical,"(890.0, 762.0)",0.6833333333333333,0.594,1,2252.514,2
0,406,target,"[(1108, 809)]",[],[1],[0.55],horizontal,"(890.0, 762.0)",1.0,0.504,1,2257.389,2
0,407,target,"[(1125, 792)]",[],[1],[0.5333333333333333],horizontal,"(390.0, 762.0)",1.3,0.498,1,2262.49,2
0,408,target,"[(1096, 800)]",[],[1],[0.6],horizontal,"(890.0, 762.0)",1.0666666666666667,0.561,1,2268.057,2
0,409,target,"[(1111, 792)]",[],[1],[0.6],vertical,"(390.0, 762.0)",0.8166666666666667,0.564,1,2273.659,3
0,410,target,"[(1101, 806)]",[],[1],[0.6166666666666667],horizontal,"(390.0, 762.0)",1.0833333333333333,0.572,1,2279.405,3
0,411,target,"[(1097, 787)]",[],[1],[0.5666666666666667],vertical,"(890.0, 262.0)",0.65,0.525,1,2285.253,3
0,412,catch,"[(1101, 804)]",[],[1],[],vertical,"(390.0, 762.0)",1.6,nan,1,2290.566,3
0,413,target,"[(1102, 801)]",[],[1],[0.5833333333333334],vertical,"(890.0, 262.0)",1.1333333333333333,0.542,1,2296.237,3
0,414,catch,"[(1102, 796)]",[],[1],[],vertical,"(390.0, 762.0)",1.6,nan,1,2302.406,3
0,415,target,"[(1097, 792)]",[],[1],[0.31666666666666665],vertical,"(390.0, 762.0)",1.35,0.283,1,2308.373,3
0,416,target,"[(1102, 791)]",[],[1],[0.6833333333333333],horizontal,"(390.0, 762.0)",0.7666666666666666,0.638,1,2314.287,3
0,417,target,"[(1127, 792)]",[],[1],[0.3333333333333333],horizontal,"(890.0, 762.0)",1.1666666666666667,0.297,1,2320.106,3
0,418,target,"[(1128, 794)]",[],[1],[0.6333333333333333],vertical,"(890.0, 262.0)",1.1166666666666667,0.6,1,2326.01,3
0,419,target,"[(1102, 786)]",[],[1],[0.5333333333333333],vertical,"(890.0, 262.0)",0.85,0.499,1,2331.987,3
0,420,target,"[(1117, 795)]",[],[1],[0.5166666666666666],horizontal,"(890.0, 762.0)",0.8166666666666667,0.476,1,2337.301,3
0,421,target,"[(1102, 794)]",[],[1],[0.6666666666666666],vertical,"(890.0, 262.0)",1.1166666666666667,0.628,1,2342.59,3
0,422,target,"[(1111, 773)]",[],[1],[0.45],vertical,"(890.0, 262.0)",1.2666666666666666,0.411,1,2348.315,3
0,423,target,"[(1119, 797)]",[],[1],[0.6],horizontal,"(390.0, 762.0)",1.2666666666666666,0.561,1,2354.001,3
0,424,target,"[(1096, 792)]",[],[1],[0.85],vertical,"(890.0, 762.0)",0.7333333333333333,nan,0,2359.884,0
0,425,catch,"[(1095, 792)]",[],[1],[],horizontal,"(390.0, 762.0)",1.6,nan,1,2364.22,1
0,426,target,"[(1097, 783)]",[],[1],[0.5833333333333334],horizontal,"(390.0, 262.0)",0.7166666666666667,0.542,1,2368.972,1
0,427,target,"[(1099, 761)]",[],[1],[0.7166666666666667],horizontal,"(390.0, 262.0)",0.9,0.668,1,2373.771,2
0,428,target,"[(1101, 792)]",[],[1],[0.7],horizontal,"(390.0, 762.0)",0.9333333333333333,0.67,1,2379.031,2
0,429,target,"[(1137, 791)]",[],[1],[0.85],vertical,"(390.0, 762.0)",0.65,nan,0,2384.289,0
0,430,target,"[(1074, 791)]",[],[1],[0.85],horizontal,"(390.0, 762.0)",0.5666666666666667,nan,0,2388.954,0
0,431,target,"[(1101, 794)]",[],[1],[0.55],horizontal,"(890.0, 762.0)",0.6833333333333333,0.514,1,2393.554,1
0,432,target,"[(1101, 796)]",[],[1],[0.2833333333333333],vertical,"(890.0, 262.0)",1.5333333333333332,0.254,1,2398.373,1
0,433,target,"[(1117, 791)]",[],[1],[0.5333333333333333],vertical,"(890.0, 262.0)",1.1,0.497,1,2403.566,2
0,434,target,"[(1097, 792)]",[],[1],[0.7333333333333333],horizontal,"(890.0, 262.0)",0.6833333333333333,0.698,1,2409.121,2
0,435,target,"[(1102, 797)]",[],[1],[0.6333333333333333],vertical,"(890.0, 762.0)",1.0166666666666666,0.598,1,2414.31,2
0,436,target,"[(1097, 797)]",[],[1],[0.6],horizontal,"(890.0, 262.0)",0.6666666666666666,0.561,1,2420.106,2
0,437,target,"[(1140, 773)]",[],[1],[0.85],vertical,"(390.0, 762.0)",0.6,nan,0,2425.368,0
0,438,catch,"[(1077, 797)]",[],[1],[],vertical,"(890.0, 262.0)",1.6,nan,1,2429.879,1
0,439,target,"[(1080, 772)]",[],[1],[0.75],vertical,"(890.0, 262.0)",1.15,0.716,1,2434.523,1
0,440,target,"[(1097, 768)]",[],[1],[0.25],horizontal,"(390.0, 762.0)",1.55,0.215,1,2439.541,2
0,441,target,"[(1107, 797)]",[],[1],[0.45],horizontal,"(890.0, 262.0)",1.4,0.41,1,2445.194,2
0,442,target,"[(1097, 795)]",[],[1],[0.75],horizontal,"(890.0, 762.0)",1.1,0.705,1,2450.716,2
0,443,target,"[(1133, 800)]",[],[1],[0.6833333333333333],horizontal,"(890.0, 762.0)",0.6833333333333333,0.644,1,2455.964,2
0,444,catch,"[(1095, 792)]",[],[1],[],horizontal,"(390.0, 262.0)",1.6,nan,1,2460.767,3
0,445,target,"[(1079, 806)]",[],[1],[0.43333333333333335],vertical,"(390.0, 762.0)",1.3166666666666667,0.402,1,2466.322,3
0,446,target,"[(1117, 779)]",[],[1],[0.45],vertical,"(890.0, 762.0)",1.2,0.412,1,2472.641,3
0,447,target,"[(1100, 792)]",[],[1],[0.6166666666666667],vertical,"(390.0, 762.0)",1.2833333333333332,0.57,1,2478.591,3
0,448,target,"[(1122, 792)]",[],[1],[0.85],vertical,"(390.0, 262.0)",0.5,nan,0,2484.656,0
0,449,target,"[(1078, 783)]",[],[1],[0.6333333333333333],vertical,"(390.0, 762.0)",1.0666666666666667,0.587,1,2488.608,1
0,450,target,"[(1098, 779)]",[],[1],[0.55],vertical,"(390.0, 262.0)",0.75,0.514,1,2493.22,1
0,451,target,"[(1098, 795)]",[],[1],[0.55],horizontal,"(390.0, 262.0)",0.6,0.514,1,2497.672,2
0,452,target,"[(1113, 783)]",[],[1],[0.5666666666666667],vertical,"(390.0, 762.0)",0.6666666666666666,0.531,1,2502.225,2
0,453,catch,"[(1108, 795)]",[],[1],[],horizontal,"(390.0, 762.0)",1.6,nan,1,2507.408,2
0,454,target,"[(1099, 784)]",[],[1],[0.48333333333333334],horizontal,"(390.0, 262.0)",1.3833333333333333,0.442,1,2512.521,2
0,455,target,"[(1098, 794)]",[],[1],[0.5833333333333334],horizontal,"(890.0, 262.0)",0.8333333333333334,0.542,1,2517.996,3
0,456,target,"[(1103, 780)]",[],[1],[0.6],vertical,"(390.0, 762.0)",0.7833333333333333,0.565,1,2523.57,3
0,457,catch,"[(1100, 792)]",[],[1],[],horizontal,"(390.0, 762.0)",1.6,nan,1,2529.372,3
0,458,target,"[(1102, 795)]",[],[1],[0.6166666666666667],horizontal,"(390.0, 762.0)",0.6833333333333333,0.583,1,2534.899,3
0,459,target,"[(1083, 792)]",[],[1],[0.6666666666666666],horizontal,"(390.0, 762.0)",0.6333333333333333,0.628,1,2540.471,3
0,460,target,"[(1097, 792)]",[],[1],[0.6],vertical,"(390.0, 262.0)",0.95,0.562,1,2546.088,3
0,461,target,"[(1104, 786)]",[],[1],[0.26666666666666666],vertical,"(390.0, 762.0)",1.3833333333333333,0.238,1,2552.04,3
0,462,target,"[(1107, 797)]",[],[1],[0.6333333333333333],vertical,"(390.0, 262.0)",0.9666666666666667,0.593,1,2558.065,3
0,463,target,"[(1081, 807)]",[],[1],[0.8166666666666667],horizontal,"(890.0, 762.0)",0.85,0.775,1,2563.573,3
0,464,target,"[(1098, 808)]",[],[1],[0.6666666666666666],vertical,"(390.0, 762.0)",0.7,0.626,1,2572.304,3
0,465,target,"[(1101, 776)]",[],[1],[0.45],horizontal,"(390.0, 762.0)",1.2666666666666666,0.412,1,2577.866,3
0,466,target,"[(1094, 787)]",[],[1],[0.25],vertical,"(890.0, 262.0)",1.5,0.214,1,2583.593,3
0,467,target,"[(1087, 787)]",[],[1],[0.55],horizontal,"(890.0, 262.0)",1.1333333333333333,0.51,1,2589.619,3
0,468,target,"[(1096, 797)]",[],[1],[0.55],vertical,"(390.0, 762.0)",0.9,0.509,1,2595.605,3
0,469,target,"[(1105, 777)]",[],[1],[0.5333333333333333],horizontal,"(890.0, 762.0)",1.3333333333333333,0.494,1,2601.237,3
0,470,target,"[(1098, 792)]",[],[1],[0.85],vertical,"(890.0, 262.0)",0.6333333333333333,nan,0,2606.921,0
0,471,catch,"[(1083, 796)]",[],[1],[],vertical,"(890.0, 262.0)",1.6,nan,1,2611.447,1
0,472,target,"[(1101, 777)]",[],[1],[0.21666666666666667],horizontal,"(890.0, 762.0)",1.5,0.185,0,2616.253,0
0,473,target,"[(1102, 797)]",[],[1],[0.6166666666666667],horizontal,"(390.0, 262.0)",0.8666666666666667,0.569,1,2620.773,1
0,474,target,"[(1098, 778)]",[],[1],[0.3],vertical,"(390.0, 762.0)",1.5,0.265,1,2625.915,1
0,475,target,"[(1127, 800)]",[],[1],[0.5666666666666667],vertical,"(390.0, 762.0)",1.2166666666666666,0.528,1,2631.082,2
0,476,catch,"[(1125, 794)]",[],[1],[],vertical,"(390.0, 762.0)",1.6,nan,1,2636.451,2
0,477,target,"[(1096, 795)]",[],[1],[0.5666666666666667],vertical,"(890.0, 262.0)",0.5833333333333334,0.529,1,2641.596,2
0,478,target,"[(1107, 802)]",[],[1],[0.5333333333333333],horizontal,"(890.0, 762.0)",1.3,0.498,1,2646.338,2
0,479,target,"[(1104, 797)]",[],[1],[],horizontal,"(890.0, 762.0)",,"('cti', 1.397)",0,2651.846,0
0,480,target,"[(1107, 785)]",[],[1],[0.85],vertical,"(390.0, 762.0)",0.5333333333333333,nan,0,2656.753,0
0,481,target,"[(1078, 798)]",[],[1],[0.8],horizontal,"(390.0, 262.0)",0.7166666666666667,0.757,1,2661.295,1
0,482,target,"[(1097, 774)]",[],[1],[0.55],horizontal,"(390.0, 262.0)",1.2666666666666666,0.511,1,2666.706,1
0,483,target,"[(1118, 790)]",[],[1],[0.85],horizontal,"(390.0, 762.0)",0.5,nan,0,2671.717,0
0,484,catch,"[(1079, 819)]",[],[1],[],vertical,"(890.0, 762.0)",1.6,nan,1,2676.035,1
0,485,target,"[(1094, 783)]",[],[1],[0.6],horizontal,"(890.0, 262.0)",1.1833333333333333,0.557,1,2686.829,1
0,486,target,"[(1100, 792)]",[],[1],[0.6666666666666666],vertical,"(890.0, 262.0)",0.9833333333333333,0.626,1,2691.866,2
0,487,target,"[(1102, 790)]",[],[1],[0.5166666666666666],vertical,"(390.0, 262.0)",0.9833333333333333,0.477,1,2697.158,2
0,488,target,"[(1125, 776)]",[],[1],[0.3833333333333333],horizontal,"(890.0, 762.0)",1.4333333333333333,0.345,1,2702.4,2
0,489,target,"[(1108, 786)]",[],[1],[0.5833333333333334],horizontal,"(890.0, 262.0)",1.2333333333333334,0.549,1,2707.654,2
0,490,target,"[(1118, 795)]",[],[1],[0.23333333333333334],horizontal,"(390.0, 762.0)",1.45,0.197,0,2713.208,0
0,491,target,"[(1101, 817)]",[],[1],[0.8166666666666667],vertical,"(890.0, 262.0)",0.8833333333333333,0.772,1,2718.11,1
0,492,target,"[(1094, 792)]",[],[1],[0.7],horizontal,"(390.0, 262.0)",0.9,0.655,1,2738.051,1
0,493,target,"[(1103, 788)]",[],[1],[0.45],horizontal,"(390.0, 762.0)",1.2166666666666666,0.408,1,2742.928,2
0,494,target,"[(1103, 802)]",[],[1],[0.5833333333333334],vertical,"(390.0, 762.0)",0.9,0.543,1,2748.205,2
0,495,catch,"[(1102, 785)]",[],[1],[],horizontal,"(390.0, 762.0)",1.6,nan,1,2753.512,2
0,496,target,"[(1133, 795)]",[],[1],[0.6333333333333333],vertical,"(390.0, 762.0)",0.7,0.599,1,2758.913,2
0,497,target,"[(1102, 795)]",[],[1],[0.6666666666666666],vertical,"(890.0, 262.0)",1.0666666666666667,0.621,1,2764.503,3
0,498,target,"[(1127, 784)]",[],[1],[0.6],horizontal,"(390.0, 762.0)",1.05,0.558,1,2770.057,3
0,499,target,"[(1132, 806)]",[],[1],[0.43333333333333335],vertical,"(390.0, 262.0)",1.4166666666666667,0.402,1,2775.891,3
0,500,target,"[(1130, 791)]",[],[1],[],vertical,"(390.0, 262.0)",,"('cti', 1.485)",0,2781.833,0
0,501,target,"[(1102, 792)]",[],[1],[0.36666666666666664],horizontal,"(890.0, 762.0)",1.4333333333333333,0.331,1,2786.742,1
0,502,catch,"[(1116, 775)]",[],[1],[],horizontal,"(890.0, 762.0)",1.6,nan,1,2792.061,1
0,503,target,"[(1102, 771)]",[],[1],[0.5666666666666667],vertical,"(390.0, 762.0)",0.7166666666666667,0.537,1,2796.689,2
0,504,target,"[(1142, 787)]",[],[1],[0.48333333333333334],horizontal,"(390.0, 762.0)",1.3,0.452,1,2801.386,2
0,505,catch,"[(1102, 792)]",[],[1],[],vertical,"(890.0, 762.0)",1.6,nan,1,2806.789,2
0,506,catch,"[(1102, 802)]",[],[1],[],vertical,"(390.0, 262.0)",1.6,nan,1,2812.209,2
0,507,target,"[(1108, 782)]",[],[1],[0.5666666666666667],vertical,"(390.0, 262.0)",0.6166666666666667,0.529,1,2817.59,3
0,508,catch,"[(1105, 772)]",[],[1],[],horizontal,"(390.0, 262.0)",1.6,nan,1,2823.024,3
0,509,target,"[(1117, 792)]",[],[1],[0.5333333333333333],horizontal,"(390.0, 762.0)",0.7833333333333333,0.492,1,2828.954,3
0,510,target,"[(1100, 795)]",[],[1],[0.6833333333333333],vertical,"(390.0, 262.0)",1.1,0.638,1,2834.733,3
0,511,target,"[(1134, 778)]",[],[1],[0.5833333333333334],vertical,"(390.0, 762.0)",0.8666666666666667,0.551,1,2840.793,3
0,512,target,"[(1097, 794)]",[],[1],[0.6666666666666666],vertical,"(390.0, 262.0)",0.7666666666666666,0.623,1,2846.285,3
0,513,target,"[(1102, 792)]",[],[1],[0.4666666666666667],vertical,"(390.0, 762.0)",1.2666666666666666,0.427,1,2851.929,3
0,514,target,"[(1126, 803)]",[],[1],[0.5833333333333334],vertical,"(890.0, 262.0)",0.5666666666666667,0.545,1,2857.753,3
0,515,target,"[(1105, 791)]",[],[1],[0.6333333333333333],horizontal,"(390.0, 262.0)",0.9,0.597,1,2863.23,3
0,516,target,"[(1093, 798)]",[],[1],[0.6666666666666666],vertical,"(390.0, 762.0)",0.65,0.626,1,2868.814,3
0,517,target,"[(1095, 774)]",[],[1],[0.6666666666666666],vertical,"(390.0, 262.0)",1.05,0.625,1,2874.42,3
0,518,target,"[(1105, 791)]",[],[1],[0.7166666666666667],horizontal,"(890.0, 762.0)",0.9666666666666667,0.683,1,2880.206,3
0,519,target,"[(1125, 792)]",[],[1],[0.7],horizontal,"(890.0, 762.0)",1.1166666666666667,0.658,1,2886.304,3
0,520,target,"[(1103, 792)]",[],[1],[0.85],vertical,"(890.0, 762.0)",0.6666666666666666,nan,0,2892.308,0
0,521,target,"[(1098, 794)]",[],[1],[0.5666666666666667],horizontal,"(890.0, 262.0)",0.75,0.526,1,2897.041,1
0,522,target,"[(1122, 802)]",[],[1],[0.55],horizontal,"(390.0, 262.0)",0.9,0.512,1,2901.823,1
0,523,target,"[(1078, 774)]",[],[1],[0.4666666666666667],vertical,"(390.0, 762.0)",1.2833333333333332,0.427,1,2906.502,2
0,524,target,"[(1107, 779)]",[],[1],[0.4],horizontal,"(390.0, 262.0)",1.25,0.36,1,2911.878,2
0,525,catch,"[(1143, 792)]",[],[1],[],vertical,"(890.0, 762.0)",1.6,nan,1,2917.554,2
0,526,target,"[(1086, 794)]",[],[1],[0.55],horizontal,"(390.0, 262.0)",0.9833333333333333,0.507,1,2922.757,2
0,527,catch,"[(1107, 807)]",[],[1],[],vertical,"(890.0, 262.0)",1.6,nan,1,2927.94,3
0,528,target,"[(1123, 800)]",[],[1],[0.5166666666666666],vertical,"(390.0, 762.0)",1.1666666666666667,0.474,1,2933.796,3
0,529,target,"[(1099, 766)]",[],[1],[0.55],horizontal,"(890.0, 262.0)",0.65,0.507,1,2939.666,3
0,530,target,"[(1118, 798)]",[],[1],[0.26666666666666666],vertical,"(390.0, 762.0)",1.3166666666666667,0.231,1,2945.014,3
0,531,target,"[(1081, 802)]",[],[1],[0.4666666666666667],vertical,"(390.0, 762.0)",1.0,0.427,1,2950.642,3
0,532,target,"[(1103, 802)]",[],[1],[0.2],vertical,"(390.0, 762.0)",1.2,0.169,0,2956.659,0
0,533,target,"[(1098, 802)]",[],[1],[0.65],horizontal,"(890.0, 262.0)",0.9666666666666667,0.606,1,2961.275,1
0,534,target,"[(1097, 782)]",[],[1],[0.7],horizontal,"(390.0, 262.0)",0.7666666666666666,0.662,1,2966.024,1
0,535,target,"[(1095, 792)]",[],[1],[0.5833333333333334],vertical,"(890.0, 762.0)",1.1,0.542,1,2970.923,2
0,536,target,"[(1127, 773)]",[],[1],[0.3],vertical,"(890.0, 262.0)",1.4333333333333333,0.267,1,2976.246,2
0,537,catch,"[(1130, 795)]",[],[1],[],horizontal,"(890.0, 762.0)",1.6,nan,1,2981.465,2
0,538,target,"[(1093, 795)]",[],[1],[0.6833333333333333],vertical,"(890.0, 262.0)",0.6833333333333333,0.642,1,2986.575,2
0,539,target,"[(1102, 800)]",[],[1],[0.85],vertical,"(890.0, 262.0)",0.5,nan,0,2991.676,0
0,540,catch,"[(1081, 795)]",[],[1],[],vertical,"(890.0, 262.0)",1.6,nan,1,2995.875,1
0,541,target,"[(1098, 799)]",[],[1],[0.36666666666666664],vertical,"(390.0, 762.0)",1.3833333333333333,0.33,1,3001.189,1
0,542,target,"[(1101, 794)]",[],[1],[0.5333333333333333],vertical,"(890.0, 262.0)",1.05,0.488,1,3006.277,2
0,543,target,"[(1113, 777)]",[],[1],[0.8],vertical,"(390.0, 762.0)",0.9,0.752,1,3011.194,2
0,544,target,"[(1102, 787)]",[],[1],[0.5],horizontal,"(390.0, 262.0)",0.75,0.463,1,3016.468,2
0,545,catch,"[(1102, 802)]",[],[1],[],horizontal,"(890.0, 262.0)",,"('cti', 1.517),nan",0,3021.44,0
0,546,target,"[(1102, 792)]",[],[1],[0.85],vertical,"(390.0, 762.0)",0.7166666666666667,nan,0,3026.201,0
0,547,target,"[(1070, 816)]",[],[1],[0.5833333333333334],horizontal,"(390.0, 762.0)",1.1333333333333333,0.548,1,3030.723,1
0,548,target,"[(1095, 804)]",[],[1],[0.5],horizontal,"(890.0, 262.0)",1.1333333333333333,0.465,1,3067.703,1
0,549,target,"[(1086, 789)]",[],[1],[0.85],horizontal,"(890.0, 262.0)",0.65,nan,0,3072.353,0
0,550,target,"[(1099, 797)]",[],[1],[0.6166666666666667],vertical,"(890.0, 262.0)",1.0166666666666666,0.582,1,3076.713,1
0,551,catch,"[(1117, 793)]",[],[1],[],horizontal,"(890.0, 762.0)",1.6,nan,1,3081.357,1
0,552,target,"[(1096, 802)]",[],[1],[0.36666666666666664],vertical,"(390.0, 762.0)",1.3666666666666667,0.329,1,3086.012,2
0,553,target,"[(1105, 800)]",[],[1],[0.3833333333333333],vertical,"(890.0, 262.0)",1.3666666666666667,0.349,1,3091.55,2
0,554,target,"[(1118, 798)]",[],[1],[0.5666666666666667],vertical,"(390.0, 762.0)",1.15,0.527,1,3096.74,2
0,555,target,"[(1105, 785)]",[],[1],[0.5333333333333333],horizontal,"(390.0, 762.0)",0.65,0.493,1,3102.494,2
0,556,target,"[(1103, 776)]",[],[1],[0.5166666666666666],vertical,"(390.0, 262.0)",0.95,0.484,1,3107.674,3
0,557,target,"[(1123, 798)]",[],[1],[0.6],horizontal,"(890.0, 762.0)",0.6,0.56,1,3113.094,3
0,558,target,"[(1125, 792)]",[],[1],[0.5333333333333333],horizontal,"(390.0, 262.0)",1.05,0.491,1,3118.543,3
0,559,target,"[(1112, 796)]",[],[1],[0.25],vertical,"(390.0, 262.0)",1.55,0.213,1,3123.765,3
0,560,target,"[(1091, 793)]",[],[1],[0.55],vertical,"(390.0, 762.0)",0.9666666666666667,0.506,1,3129.489,3
0,561,catch,"[(1123, 802)]",[],[1],[],horizontal,"(890.0, 262.0)",1.6,nan,1,3135.094,3
0,562,target,"[(1102, 782)]",[],[1],[0.6833333333333333],vertical,"(390.0, 762.0)",0.65,0.646,1,3140.784,3
0,563,catch,"[(1081, 790)]",[],[1],[],vertical,"(890.0, 262.0)",,"('cti', 1.537),nan",0,3146.243,0
0,564,target,"[(1097, 802)]",[],[1],[0.5833333333333334],vertical,"(390.0, 262.0)",0.5166666666666666,0.544,1,3151.177,1
0,565,target,"[(1123, 765)]",[],[1],[0.65],vertical,"(890.0, 762.0)",1.2,0.614,1,3155.974,1
0,566,target,"[(1111, 789)]",[],[1],[0.6666666666666666],horizontal,"(390.0, 262.0)",0.7833333333333333,0.634,1,3161.374,2
0,567,target,"[(1098, 792)]",[],[1],[0.85],vertical,"(890.0, 262.0)",0.55,nan,0,3166.555,0
0,568,catch,"[(1082, 792)]",[],[1],[],vertical,"(890.0, 262.0)",1.6,nan,1,3171.106,1
0,569,target,"[(1125, 784)]",[],[1],[0.5666666666666667],horizontal,"(390.0, 762.0)",0.75,0.531,1,3176.25,1
0,570,target,"[(1126, 795)]",[],[1],[0.5166666666666666],horizontal,"(390.0, 262.0)",1.1833333333333333,0.478,1,3180.845,2
0,571,target,"[(1143, 782)]",[],[1],[0.18333333333333332],horizontal,"(890.0, 262.0)",1.4833333333333334,0.149,0,3186.003,0
0,572,target,"[(1117, 789)]",[],[1],[0.7166666666666667],vertical,"(390.0, 762.0)",0.55,0.677,1,3190.447,1
0,573,target,"[(1125, 772)]",[],[1],[0.5666666666666667],horizontal,"(890.0, 262.0)",0.7,0.528,1,3195.029,1
0,574,catch,"[(1132, 803)]",[],[1],[],vertical,"(390.0, 762.0)",1.6,nan,1,3199.519,2
0,575,target,"[(1102, 788)]",[],[1],[0.5666666666666667],horizontal,"(890.0, 762.0)",0.7166666666666667,0.53,1,3205.219,2
0,576,target,"[(1097, 800)]",[],[1],[0.36666666666666664],vertical,"(890.0, 762.0)",1.3333333333333333,0.332,1,3209.808,2
0,577,target,"[(1107, 790)]",[],[1],[],vertical,"(890.0, 262.0)",,"('cti', 0.492)",0,3215.44,0
0,578,target,"[(1093, 799)]",[],[1],[0.5833333333333334],vertical,"(890.0, 262.0)",0.6666666666666666,0.545,1,3219.165,1
0,579,target,"[(1099, 782)]",[],[1],[0.2833333333333333],horizontal,"(390.0, 262.0)",1.4666666666666666,0.249,1,3223.329,1
0,580,target,"[(1107, 780)]",[],[1],[0.85],horizontal,"(390.0, 762.0)",0.6166666666666667,nan,0,3228.235,0
0,581,target,"[(1098, 786)]",[],[1],[0.4166666666666667],vertical,"(890.0, 262.0)",1.35,0.383,1,3232.811,1
0,582,target,"[(1097, 777)]",[],[1],[0.6666666666666666],vertical,"(390.0, 262.0)",1.0,0.631,1,3238.304,1
0,583,target,"[(1107, 802)]",[],[1],[0.5666666666666667],vertical,"(390.0, 762.0)",0.8166666666666667,0.532,1,3243.015,2
0,584,catch,"[(1097, 798)]",[],[1],[],horizontal,"(390.0, 762.0)",,"('cti', 1.581),nan",0,3248.21,0
0,585,target,"[(1100, 796)]",[],[1],[0.85],horizontal,"(390.0, 762.0)",0.8333333333333334,nan,0,3252.75,0
0,586,catch,"[(1081, 805)]",[],[1],[],vertical,"(890.0, 762.0)",1.6,nan,1,3257.357,1
0,587,target,"[(1097, 778)]",[],[1],[0.06666666666666667],horizontal,"(890.0, 262.0)",1.55,0.033,0,3262.591,0
0,588,target,"[(1097, 797)]",[],[1],[0.4666666666666667],horizontal,"(390.0, 262.0)",1.2333333333333334,0.435,1,3267.261,1
0,589,target,"[(1117, 806)]",[],[1],[0.6],vertical,"(390.0, 262.0)",0.6333333333333333,0.564,1,3272.209,1
0,590,target,"[(1141, 786)]",[],[1],[0.45],horizontal,"(890.0, 262.0)",0.6666666666666666,0.419,1,3276.524,2
0,591,target,"[(1132, 794)]",[],[1],[0.5833333333333334],vertical,"(890.0, 762.0)",0.7,0.549,1,3281.76,2
0,592,target,"[(1102, 796)]",[],[1],[0.43333333333333335],horizontal,"(390.0, 762.0)",1.3,0.395,1,3286.788,2
0,593,target,"[(1100, 806)]",[],[1],[0.7],vertical,"(390.0, 262.0)",0.8833333333333333,0.657,1,3292.361,2
0,594,target,"[(1107, 795)]",[],[1],[0.7166666666666667],vertical,"(390.0, 762.0)",0.85,0.67,1,3297.944,3
0,595,target,"[(1115, 801)]",[],[1],[0.85],vertical,"(390.0, 262.0)",0.7,nan,0,3304.077,0
0,596,target,"[(1081, 786)]",[],[1],[0.2],horizontal,"(890.0, 262.0)",1.45,0.167,0,3308.456,0
0,597,target,"[(1102, 807)]",[],[1],[0.13333333333333333],horizontal,"(890.0, 762.0)",1.5833333333333333,0.101,0,3313.058,0
0,598,target,"[(1091, 827)]",[],[1],[0.5166666666666666],horizontal,"(390.0, 262.0)",1.3,0.473,1,3318.98,1
0,599,target,"[(1081, 787)]",[],[1],[0.6],vertical,"(390.0, 762.0)",0.9166666666666666,0.562,1,3323.944,1
0,600,target,"[(1093, 768)]",[],[1],[0.4666666666666667],horizontal,"(890.0, 262.0)",1.2333333333333334,0.43,1,3329.022,2
0,601,target,"[(1081, 783)]",[],[1],[0.55],vertical,"(890.0, 262.0)",0.6166666666666667,0.517,1,3334.807,2
0,602,target,"[(1097, 784)]",[],[1],[0.85],horizontal,"(390.0, 762.0)",0.8166666666666667,nan,0,3339.613,0
0,603,target,"[(1086, 804)]",[],[1],[0.5833333333333334],vertical,"(390.0, 262.0)",0.6666666666666666,0.544,1,3344.116,1
0,604,target,"[(1102, 782)]",[],[1],[0.6333333333333333],horizontal,"(390.0, 262.0)",1.45,0.596,1,3349.102,1
0,605,target,"[(1097, 785)]",[],[1],[0.3],vertical,"(390.0, 762.0)",1.5,0.265,1,3354.258,2
0,606,target,"[(1102, 790)]",[],[1],[0.3833333333333333],vertical,"(890.0, 762.0)",1.25,0.349,1,3359.726,2
0,607,target,"[(1107, 794)]",[],[1],[0.7166666666666667],horizontal,"(390.0, 262.0)",0.9,0.68,1,3365.359,2
0,608,target,"[(1103, 793)]",[],[1],[0.5166666666666666],horizontal,"(890.0, 262.0)",1.15,0.486,1,3370.944,2
0,609,target,"[(1131, 805)]",[],[1],[0.6],horizontal,"(390.0, 262.0)",0.7833333333333333,0.564,1,3376.358,3
0,610,target,"[(1127, 799)]",[],[1],[0.85],horizontal,"(390.0, 262.0)",0.5,nan,0,3382.223,0
0,611,target,"[(1081, 802)]",[],[1],[0.6],horizontal,"(390.0, 262.0)",1.1833333333333333,0.567,1,3386.539,1
0,612,target,"[(1100, 775)]",[],[1],[0.6166666666666667],vertical,"(890.0, 762.0)",0.9333333333333333,0.576,1,3391.979,1
0,613,target,"[(1096, 773)]",[],[1],[0.6166666666666667],vertical,"(890.0, 762.0)",0.55,0.591,1,3396.806,2
0,614,target,"[(1117, 795)]",[],[1],[0.85],vertical,"(390.0, 262.0)",0.6666666666666666,nan,0,3402.146,0
0,615,target,"[(1084, 819)]",[],[1],[0.4166666666666667],horizontal,"(390.0, 762.0)",1.2833333333333332,0.385,1,3406.625,1
0,616,target,"[(1116, 791)]",[],[1],[0.6333333333333333],horizontal,"(890.0, 262.0)",1.1,0.603,1,3411.774,1
0,617,target,"[(1133, 782)]",[],[1],[0.4166666666666667],horizontal,"(890.0, 262.0)",1.5833333333333333,0.381,1,3416.491,2
0,618,target,"[(1113, 794)]",[],[1],[0.6166666666666667],vertical,"(390.0, 262.0)",0.8666666666666667,0.574,1,3421.988,2
0,619,target,"[(1101, 795)]",[],[1],[0.23333333333333334],vertical,"(390.0, 762.0)",1.5333333333333332,0.197,0,3427.25,0
0,620,target,"[(1123, 781)]",[],[1],[0.45],horizontal,"(390.0, 762.0)",1.5166666666666666,0.417,1,3432.37,1
0,621,target,"[(1127, 796)]",[],[1],[0.5166666666666666],horizontal,"(390.0, 762.0)",1.1666666666666667,0.485,1,3437.912,1
0,622,target,"[(1133, 796)]",[],[1],[0.85],vertical,"(890.0, 762.0)",0.5166666666666666,nan,0,3442.643,0
0,623,target,"[(1065, 792)]",[],[1],[0.31666666666666665],horizontal,"(890.0, 262.0)",1.2,0.283,1,3446.912,1
0,624,target,"[(1083, 799)]",[],[1],[0.7166666666666667],horizontal,"(390.0, 762.0)",0.5833333333333334,0.68,1,3459.108,1
0,625,target,"[(1081, 789)]",[],[1],[0.7166666666666667],vertical,"(390.0, 262.0)",1.1166666666666667,0.68,1,3463.599,2
0,626,target,"[(1117, 798)]",[],[1],[0.85],vertical,"(390.0, 762.0)",0.6666666666666666,nan,0,3469.856,0
0,627,target,"[(1098, 798)]",[],[1],[0.85],horizontal,"(890.0, 762.0)",0.65,nan,0,3474.358,0
0,628,catch,"[(1091, 802)]",[],[1],[],vertical,"(390.0, 262.0)",1.6,nan,1,3480.143,1
0,629,catch,"[(1096, 792)]",[],[1],[],horizontal,"(390.0, 262.0)",1.6,nan,1,3485.225,1
0,630,catch,"[(1097, 808)]",[],[1],[],horizontal,"(390.0, 762.0)",1.6,nan,1,3490.252,2
0,631,target,"[(1097, 781)]",[],[1],[0.48333333333333334],horizontal,"(890.0, 262.0)",1.15,0.448,1,3495.694,2
0,632,target,"[(1102, 797)]",[],[1],[0.3833333333333333],vertical,"(890.0, 762.0)",1.3833333333333333,0.345,1,3500.94,2
0,633,target,"[(1102, 776)]",[],[1],[0.5666666666666667],horizontal,"(890.0, 762.0)",1.4,0.533,1,3506.421,2
0,634,target,"[(1142, 789)]",[],[1],[0.5333333333333333],horizontal,"(390.0, 762.0)",1.2333333333333334,0.499,1,3511.911,3
0,635,target,"[(1142, 788)]",[],[1],[0.18333333333333332],horizontal,"(890.0, 762.0)",1.5333333333333332,0.15,0,3517.608,0
0,636,catch,"[(1098, 792)]",[],[1],[],horizontal,"(390.0, 262.0)",1.6,nan,1,3522.67,1
0,637,target,"[(1103, 783)]",[],[1],[0.55],vertical,"(390.0, 762.0)",0.9,0.513,1,3527.225,1
0,638,target,"[(1137, 769)]",[],[1],[0.6666666666666666],vertical,"(390.0, 762.0)",0.75,0.627,1,3532.322,2
0,639,target,"[(1100, 792)]",[],[1],[0.65],vertical,"(390.0, 262.0)",0.5166666666666666,0.614,1,3537.499,2
0,640,catch,"[(1133, 788)]",[],[1],[],horizontal,"(890.0, 262.0)",,"('cti', 1.522),nan",0,3542.845,0
0,641,catch,"[(1129, 797)]",[],[1],[],horizontal,"(390.0, 762.0)",1.6,"('cti', 1.605),nan",0,3547.767,0
0,642,target,"[(1119, 813)]",[],[1],[0.5333333333333333],horizontal,"(890.0, 262.0)",1.1333333333333333,0.499,1,3552.726,1
0,643,catch,"[(1113, 794)]",[],[1],[],vertical,"(390.0, 262.0)",1.6,nan,1,3558.945,1
0,644,target,"[(1102, 762)]",[],[1],[0.7666666666666666],vertical,"(390.0, 762.0)",0.75,0.723,1,3563.639,2
0,645,catch,"[(1131, 791)]",[],[1],[0.03333333333333333],vertical,"(390.0, 762.0)",1.6,"0.019,nan",0,3569.224,0
0,646,target,"[(1115, 795)]",[],[1],[0.85],horizontal,"(390.0, 762.0)",1.4,"('cti', 1.403),nan",0,3573.787,0
0,647,catch,"[(1086, 808)]",[],[1],[],vertical,"(890.0, 262.0)",,"('cti', 1.459),nan",0,3579.349,0
0,648,target,"[(1086, 798)]",[],[1],[0.55],vertical,"(890.0, 762.0)",0.8166666666666667,0.512,1,3615.545,1
0,649,catch,"[(1100, 788)]",[],[1],[],vertical,"(390.0, 262.0)",1.6,nan,1,3620.705,1
0,650,target,"[(1117, 791)]",[],[1],[0.55],vertical,"(390.0, 762.0)",1.0833333333333333,0.514,1,3625.795,2
0,651,target,"[(1120, 799)]",[],[1],[0.4666666666666667],vertical,"(890.0, 262.0)",0.9,0.43,1,3631.463,2
0,652,catch,"[(1133, 765)]",[],[1],[],horizontal,"(390.0, 262.0)",1.6,nan,1,3636.561,2
0,653,target,"[(1097, 798)]",[],[1],[0.65],horizontal,"(890.0, 762.0)",0.9,0.614,1,3642.011,2
0,654,target,"[(1099, 826)]",[],[1],[0.5166666666666666],horizontal,"(890.0, 262.0)",0.95,0.486,1,3646.986,3
0,655,target,"[(1122, 783)]",[],[1],[0.5333333333333333],vertical,"(890.0, 262.0)",1.2333333333333334,0.493,1,3652.554,3
0,656,target,"[(1106, 794)]",[],[1],[0.5],horizontal,"(890.0, 762.0)",1.1833333333333333,0.462,1,3658.21,3
0,657,target,"[(1127, 798)]",[],[1],[0.55],vertical,"(890.0, 262.0)",0.5166666666666666,0.515,1,3663.865,3
0,658,target,"[(1105, 782)]",[],[1],[0.55],vertical,"(890.0, 762.0)",1.25,0.509,1,3669.028,3
0,659,target,"[(1102, 770)]",[],[1],[0.5333333333333333],vertical,"(390.0, 262.0)",0.8833333333333333,0.499,1,3675.112,3
0,660,catch,"[(1096, 795)]",[],[1],[],horizontal,"(890.0, 262.0)",1.6,"('cti', 1.608),nan",0,3680.275,0
0,661,target,"[(1102, 794)]",[],[1],[0.5166666666666666],horizontal,"(390.0, 262.0)",1.3333333333333333,0.479,1,3685.294,1
0,662,target,"[(1089, 799)]",[],[1],[0.3833333333333333],horizontal,"(890.0, 262.0)",0.75,0.347,1,3690.526,1
0,663,target,"[(1097, 792)]",[],[1],[0.85],horizontal,"(390.0, 262.0)",0.5333333333333333,nan,0,3696.162,0
0,664,target,"[(1102, 795)]",[],[1],[0.6],horizontal,"(390.0, 262.0)",0.5333333333333333,0.564,1,3700.699,1
0,665,target,"[(1123, 794)]",[],[1],[0.5666666666666667],horizontal,"(890.0, 762.0)",0.5,0.537,1,3705.536,1
0,666,target,"[(1143, 802)]",[],[1],[0.85],vertical,"(390.0, 762.0)",0.6833333333333333,nan,0,3709.961,0
0,667,target,"[(1098, 799)]",[],[1],[0.6833333333333333],vertical,"(890.0, 762.0)",0.5833333333333334,0.649,1,3714.925,1
0,668,target,"[(1143, 791)]",[],[1],[0.4166666666666667],horizontal,"(390.0, 762.0)",1.3166666666666667,0.381,1,3719.227,1
0,669,catch,"[(1098, 810)]",[],[1],[],vertical,"(390.0, 762.0)",1.6,nan,1,3724.065,2
0,670,target,"[(1126, 794)]",[],[1],[0.55],vertical,"(890.0, 262.0)",0.6333333333333333,0.512,1,3729.505,2
0,671,target,"[(1132, 792)]",[],[1],[0.2833333333333333],horizontal,"(890.0, 262.0)",1.55,0.248,1,3734.22,2
0,672,target,"[(1138, 802)]",[],[1],[0.5666666666666667],horizontal,"(390.0, 262.0)",0.7666666666666666,0.535,1,3739.538,2
0,673,target,"[(1146, 787)]",[],[1],[0.85],horizontal,"(890.0, 262.0)",0.6,nan,0,3744.639,0
0,674,target,"[(1100, 792)]",[],[1],[0.2],horizontal,"(390.0, 262.0)",1.4833333333333334,0.167,0,3748.668,0
0,675,target,"[(1126, 807)]",[],[1],[0.15],vertical,"(390.0, 262.0)",1.5666666666666667,0.12,0,3753.528,0
0,676,target,"[(1093, 792)]",[],[1],[0.85],vertical,"(390.0, 762.0)",0.7666666666666666,nan,0,3758.172,0
0,677,target,"[(1097, 796)]",[],[1],[0.5333333333333333],vertical,"(390.0, 762.0)",1.2333333333333334,0.495,1,3763.06,1
0,678,target,"[(1108, 795)]",[],[1],[0.5166666666666666],vertical,"(390.0, 262.0)",1.3333333333333333,0.486,1,3769.998,1
0,679,target,"[(1119, 774)]",[],[1],[0.1],horizontal,"(890.0, 262.0)",1.4166666666666667,0.066,0,3774.98,0
0,680,catch,"[(1093, 796)]",[],[1],[0.03333333333333333],vertical,"(390.0, 262.0)",1.6,"0.018,nan",0,3780.021,0
0,681,catch,"[(1078, 807)]",[],[1],[],vertical,"(890.0, 762.0)",1.6,nan,1,3785.357,1
0,682,catch,"[(1113, 792)]",[],[1],[],vertical,"(390.0, 262.0)",1.6,nan,1,3790.532,1
0,683,target,"[(1118, 773)]",[],[1],[0.5],horizontal,"(890.0, 762.0)",1.25,0.468,1,3795.487,2
0,684,target,"[(1134, 777)]",[],[1],[0.5],vertical,"(890.0, 262.0)",1.1,0.464,1,3801.028,2
0,685,target,"[(1143, 797)]",[],[1],[0.6666666666666666],vertical,"(890.0, 762.0)",0.9,0.631,1,3806.508,2
0,686,target,"[(1131, 782)]",[],[1],[0.5666666666666667],horizontal,"(390.0, 762.0)",1.1166666666666667,0.527,1,3812.076,2
0,687,target,"[(1092, 787)]",[],[1],[0.7666666666666666],vertical,"(390.0, 262.0)",0.75,0.735,1,3817.172,3
0,688,target,"[(1128, 787)]",[],[1],[0.85],horizontal,"(890.0, 262.0)",0.6,nan,0,3822.493,0
0,689,target,"[(1090, 790)]",[],[1],[0.55],horizontal,"(390.0, 262.0)",1.0,0.511,1,3826.706,1
0,690,target,"[(1106, 812)]",[],[1],[0.55],horizontal,"(890.0, 762.0)",0.8333333333333334,0.514,1,3831.793,1
0,691,catch,"[(1128, 794)]",[],[1],[],vertical,"(890.0, 762.0)",1.6,"('cti', 1.612),nan",0,3836.742,0
0,692,catch,"[(1112, 798)]",[],[1],[],vertical,"(390.0, 262.0)",1.6,nan,1,3841.677,1
0,693,target,"[(1113, 792)]",[],[1],[0.2],vertical,"(390.0, 762.0)",1.5833333333333333,0.169,0,3846.641,0
0,694,target,"[(1039, 800)]",[],[1],[0.6166666666666667],vertical,"(890.0, 762.0)",1.1666666666666667,0.581,1,3851.71,1
0,695,target,"[(1097, 787)]",[],[1],[0.48333333333333334],horizontal,"(890.0, 262.0)",1.35,0.447,1,3856.761,1
0,696,target,"[(1081, 784)]",[],[1],[0.6],horizontal,"(890.0, 762.0)",0.7,0.565,1,3861.961,2
0,697,target,"[(1145, 787)]",[],[1],[0.48333333333333334],horizontal,"(390.0, 762.0)",1.2666666666666666,0.451,1,3867.35,2
0,698,target,"[(1113, 787)]",[],[1],[0.5166666666666666],horizontal,"(390.0, 262.0)",0.9166666666666666,0.481,1,3873.129,2
0,699,target,"[(1126, 799)]",[],[1],[0.5],vertical,"(390.0, 762.0)",1.1666666666666667,0.464,1,3878.447,2
0,700,catch,"[(1107, 784)]",[],[1],[],vertical,"(890.0, 262.0)",1.6,nan,1,3883.863,3
0,701,target,"[(1128, 785)]",[],[1],[0.48333333333333334],horizontal,"(890.0, 262.0)",1.0333333333333332,0.445,1,3889.841,3
0,702,target,"[(1123, 798)]",[],[1],[0.5666666666666667],vertical,"(890.0, 762.0)",0.5833333333333334,0.526,1,3895.093,3
0,703,target,"[(1096, 797)]",[],[1],[0.31666666666666665],horizontal,"(890.0, 762.0)",1.3833333333333333,0.283,1,3900.307,3
0,704,catch,"[(1098, 789)]",[],[1],[],horizontal,"(890.0, 262.0)",1.6,nan,1,3905.891,3
0,705,target,"[(1096, 802)]",[],[1],[0.6666666666666666],vertical,"(890.0, 762.0)",0.9833333333333333,0.624,1,3912.025,3
0,706,target,"[(1126, 792)]",[],[1],[0.5833333333333334],horizontal,"(890.0, 762.0)",0.9666666666666667,0.543,1,3917.86,3
0,707,target,"[(1113, 777)]",[],[1],[0.36666666666666664],horizontal,"(890.0, 762.0)",1.3166666666666667,0.328,1,3923.389,3
0,708,catch,"[(1095, 793)]",[],[1],[],vertical,"(890.0, 762.0)",1.6,nan,1,3929.251,3
0,709,target,"[(1101, 787)]",[],[1],[0.85],vertical,"(390.0, 262.0)",0.7166666666666667,nan,0,3935.029,0
0,710,target,"[(1091, 775)]",[],[1],[0.85],horizontal,"(890.0, 262.0)",0.7833333333333333,nan,0,3939.569,0
0,711,target,"[(1102, 799)]",[],[1],[0.3],horizontal,"(390.0, 762.0)",1.5,0.267,1,3944.542,1
0,712,target,"[(1113, 762)]",[],[1],[0.5166666666666666],vertical,"(390.0, 262.0)",1.0666666666666667,0.482,1,3949.592,1
0,713,catch,"[(1095, 799)]",[],[1],[],vertical,"(390.0, 262.0)",,"('cti', 1.597),nan",0,3954.051,0
0,714,target,"[(1099, 797)]",[],[1],[0.65],horizontal,"(390.0, 762.0)",0.8,0.618,1,3958.921,1
0,715,target,"[(1098, 792)]",[],[1],[0.7333333333333333],horizontal,"(390.0, 762.0)",0.8333333333333334,0.696,1,3963.482,1
0,716,target,"[(1093, 791)]",[],[1],[0.5833333333333334],vertical,"(390.0, 762.0)",0.6666666666666666,0.552,1,3968.559,2
0,717,target,"[(1136, 781)]",[],[1],[0.5833333333333334],vertical,"(890.0, 762.0)",0.5833333333333334,0.543,1,3973.527,2
0,718,target,"[(1113, 779)]",[],[1],[0.5666666666666667],vertical,"(390.0, 262.0)",0.5,0.534,1,3978.146,2
0,719,target,"[(1102, 778)]",[],[1],[0.2833333333333333],vertical,"(390.0, 262.0)",1.4666666666666666,0.253,1,3982.679,2
0,720,target,"[(1135, 797)]",[],[1],[0.6166666666666667],vertical,"(890.0, 762.0)",0.5833333333333334,0.572,1,3987.819,3
0,721,target,"[(1089, 798)]",[],[1],[0.5833333333333334],horizontal,"(890.0, 762.0)",1.0333333333333332,0.548,1,3992.694,3
0,722,target,"[(1095, 792)]",[],[1],[0.23333333333333334],horizontal,"(390.0, 762.0)",1.4166666666666667,0.2,1,3998.695,3
0,723,target,"[(1111, 794)]",[],[1],[0.5166666666666666],horizontal,"(890.0, 762.0)",0.7,0.477,1,4004.626,3
0,724,target,"[(1102, 794)]",[],[1],[0.18333333333333332],horizontal,"(890.0, 262.0)",1.4833333333333334,0.15,0,4010.395,0
0,725,target,"[(1106, 793)]",[],[1],[0.7],vertical,"(890.0, 262.0)",0.6833333333333333,0.667,1,4015.027,1
0,726,target,"[(1131, 791)]",[],[1],[0.3833333333333333],horizontal,"(390.0, 262.0)",1.2666666666666666,0.345,1,4019.812,1
0,727,target,"[(1127, 796)]",[],[1],[0.85],vertical,"(390.0, 762.0)",0.5333333333333333,nan,0,4024.981,0
0,728,target,"[(1113, 807)]",[],[1],[0.5],horizontal,"(890.0, 262.0)",1.3666666666666667,0.46,1,4029.562,1
0,729,target,"[(1077, 838)]",[],[1],[0.85],horizontal,"(390.0, 262.0)",0.55,nan,0,4034.963,0
0,730,catch,"[(1098, 813)]",[],[1],[],vertical,"(390.0, 262.0)",1.6,nan,1,4089.829,1
0,731,target,"[(1132, 796)]",[],[1],[0.65],vertical,"(390.0, 262.0)",0.95,0.61,1,4094.912,1
0,732,target,"[(1115, 798)]",[],[1],[0.3833333333333333],vertical,"(390.0, 762.0)",1.4833333333333334,0.348,1,4099.863,2
0,733,target,"[(1132, 786)]",[],[1],[0.65],vertical,"(890.0, 762.0)",0.65,0.606,1,4105.163,2
0,734,target,"[(1128, 785)]",[],[1],[0.26666666666666666],vertical,"(390.0, 262.0)",1.4833333333333334,0.234,1,4110.408,2
0,735,catch,"[(1113, 782)]",[],[1],[],horizontal,"(890.0, 262.0)",1.6,nan,1,4115.978,2
0,736,target,"[(1115, 807)]",[],[1],[0.6666666666666666],horizontal,"(390.0, 762.0)",0.8833333333333333,0.63,1,4121.198,3
0,737,target,"[(1111, 779)]",[],[1],[0.5833333333333334],vertical,"(890.0, 762.0)",1.1666666666666667,0.544,1,4126.792,3
0,738,target,"[(1116, 787)]",[],[1],[0.5833333333333334],vertical,"(890.0, 262.0)",0.6666666666666666,0.542,1,4132.817,3
0,739,target,"[(1137, 794)]",[],[1],[0.85],horizontal,"(390.0, 762.0)",0.6833333333333333,nan,0,4138.379,0
0,740,target,"[(1100, 802)]",[],[1],[0.85],horizontal,"(390.0, 762.0)",0.65,nan,0,4143.017,0
0,741,target,"[(1122, 799)]",[],[1],[0.6333333333333333],horizontal,"(390.0, 762.0)",1.1,0.597,1,4148.112,1
0,742,target,"[(1135, 799)]",[],[1],[0.6166666666666667],vertical,"(890.0, 762.0)",0.9166666666666666,0.574,1,4153.11,1
0,743,catch,"[(1094, 781)]",[],[1],[],horizontal,"(890.0, 762.0)",1.6,nan,1,4157.795,2
0,744,target,"[(1150, 798)]",[],[1],[0.4],horizontal,"(390.0, 262.0)",1.45,0.367,1,4163.127,2
0,745,target,"[(1095, 807)]",[],[1],[0.31666666666666665],vertical,"(890.0, 262.0)",1.4333333333333333,0.283,1,4168.413,2
0,746,target,"[(1129, 783)]",[],[1],[],horizontal,"(890.0, 762.0)",,"('cti', 1.31)",0,4174.042,0
0,747,target,"[(1106, 777)]",[],[1],[0.6166666666666667],vertical,"(890.0, 262.0)",0.8833333333333333,0.583,1,4178.679,1
0,748,target,"[(1122, 786)]",[],[1],[0.5333333333333333],vertical,"(390.0, 762.0)",1.4166666666666667,0.5,1,4183.264,1
0,749,catch,"[(1115, 794)]",[],[1],[0.03333333333333333],horizontal,"(890.0, 262.0)",1.6,"0.019,nan",0,4188.561,0
0,750,target,"[(1112, 782)]",[],[1],[0.85],vertical,"(390.0, 762.0)",1.0666666666666667,nan,0,4193.445,0
0,751,target,"[(1086, 807)]",[],[1],[0.65],vertical,"(390.0, 262.0)",0.95,0.612,1,4198.098,1
0,752,target,"[(1096, 792)]",[],[1],[0.43333333333333335],vertical,"(390.0, 762.0)",1.55,0.401,1,4203.027,1
0,753,target,"[(1117, 778)]",[],[1],[0.6166666666666667],horizontal,"(890.0, 262.0)",0.9666666666666667,0.579,1,4208.474,2
0,754,target,"[(1133, 797)]",[],[1],[0.5833333333333334],horizontal,"(390.0, 262.0)",1.2333333333333334,0.549,1,4213.66,2
0,755,catch,"[(1133, 802)]",[],[1],[],horizontal,"(890.0, 762.0)",1.6,nan,1,4219.196,2
0,756,target,"[(1133, 791)]",[],[1],[0.6833333333333333],vertical,"(390.0, 762.0)",0.8333333333333334,0.649,1,4224.759,2
0,757,target,"[(1099, 792)]",[],[1],[0.6666666666666666],vertical,"(890.0, 262.0)",0.55,0.633,1,4229.691,3
0,758,target,"[(1101, 787)]",[],[1],[0.7],vertical,"(890.0, 262.0)",1.1833333333333333,0.66,1,4235.216,3
0,759,target,"[(1093, 792)]",[],[1],[0.55],horizontal,"(390.0, 262.0)",0.7166666666666667,0.513,1,4241.24,3
0,760,target,"[(1102, 785)]",[],[1],[0.48333333333333334],vertical,"(390.0, 762.0)",1.2,0.448,1,4246.857,3
0,761,target,"[(1102, 806)]",[],[1],[0.5333333333333333],horizontal,"(390.0, 262.0)",0.5666666666666667,0.5,1,4252.896,3
0,762,target,"[(1105, 764)]",[],[1],[0.31666666666666665],horizontal,"(390.0, 262.0)",1.3666666666666667,0.285,1,4258.129,3
0,763,target,"[(1129, 787)]",[],[1],[0.48333333333333334],vertical,"(890.0, 262.0)",1.25,0.448,1,4263.932,3
0,764,target,"[(1105, 791)]",[],[1],[0.5],vertical,"(390.0, 762.0)",1.5666666666666667,0.466,1,4269.531,3
0,765,target,"[(1102, 768)]",[],[1],[0.6],vertical,"(890.0, 762.0)",0.8666666666666667,0.571,1,4275.448,3
0,766,target,"[(1130, 775)]",[],[1],[0.5666666666666667],vertical,"(890.0, 262.0)",0.6333333333333333,0.524,1,4281.296,3
0,767,target,"[(1127, 792)]",[],[1],[0.5333333333333333],horizontal,"(390.0, 762.0)",1.0833333333333333,0.498,1,4286.498,3
0,768,target,"[(1118, 803)]",[],[1],[0.3],vertical,"(390.0, 762.0)",1.45,0.265,1,4292.547,3
0,769,target,"[(1105, 779)]",[],[1],[0.2833333333333333],vertical,"(890.0, 762.0)",1.45,0.25,1,4298.394,3
0,770,target,"[(1098, 781)]",[],[1],[0.6166666666666667],vertical,"(890.0, 762.0)",0.75,0.583,1,4304.013,3
0,771,target,"[(1086, 767)]",[],[1],[0.5666666666666667],horizontal,"(890.0, 262.0)",0.7,0.528,1,4309.716,3
0,772,catch,"[(1140, 802)]",[],[1],[0.03333333333333333],horizontal,"(890.0, 762.0)",1.6,"0.019,nan",0,4315.376,0
0,773,target,"[(1117, 794)]",[],[1],[0.13333333333333333],vertical,"(890.0, 762.0)",1.6,0.102,0,4320.048,0
0,774,target,"[(1106, 784)]",[],[1],[0.4166666666666667],horizontal,"(890.0, 262.0)",1.3333333333333333,0.377,1,4325.102,1
0,775,target,"[(1096, 789)]",[],[1],[0.45],vertical,"(890.0, 762.0)",1.0666666666666667,0.418,1,4331.447,1
0,776,target,"[(1095, 787)]",[],[1],[0.65],vertical,"(390.0, 762.0)",0.9166666666666666,0.614,1,4336.093,2
0,777,target,"[(1106, 805)]",[],[1],[0.5833333333333334],horizontal,"(890.0, 762.0)",0.8333333333333334,0.54,1,4341.364,2
0,778,catch,"[(1095, 783)]",[],[1],[],horizontal,"(390.0, 762.0)",1.6,nan,1,4346.828,2
0,779,target,"[(1106, 770)]",[],[1],[0.6833333333333333],vertical,"(390.0, 262.0)",0.5333333333333333,0.642,1,4352.181,2
0,780,target,"[(1107, 786)]",[],[1],[0.55],vertical,"(390.0, 262.0)",0.8166666666666667,0.517,1,4356.912,3
0,781,target,"[(1122, 792)]",[],[1],[0.2],vertical,"(890.0, 262.0)",0.8,0.163,0,4362.661,0
0,782,target,"[(1088, 792)]",[],[1],[0.5],vertical,"(390.0, 762.0)",1.3166666666666667,0.462,1,4367.075,1
0,783,target,"[(1107, 792)]",[],[1],[0.85],horizontal,"(390.0, 262.0)",0.55,nan,0,4372.568,0
0,784,target,"[(1082, 792)]",[],[1],[0.6666666666666666],horizontal,"(390.0, 262.0)",1.3166666666666667,0.631,1,4376.944,1
0,785,target,"[(1128, 794)]",[],[1],[0.5333333333333333],vertical,"(390.0, 262.0)",0.8333333333333334,0.496,1,4382.532,1
0,786,target,"[(1113, 777)]",[],[1],[0.6333333333333333],horizontal,"(890.0, 762.0)",1.0166666666666666,0.595,1,4387.245,2
0,787,target,"[(1130, 763)]",[],[1],[0.85],vertical,"(390.0, 762.0)",0.6833333333333333,nan,0,4392.412,0
0,788,target,"[(1099, 792)]",[],[1],[0.5833333333333334],vertical,"(890.0, 262.0)",1.3,0.549,1,4397.431,1
0,789,target,"[(1123, 782)]",[],[1],[0.85],horizontal,"(390.0, 762.0)",1.15,nan,0,4402.39,0
0,790,target,"[(1097, 794)]",[],[1],[0.75],vertical,"(390.0, 262.0)",0.85,0.706,1,4407.488,1
0,791,target,"[(1122, 782)]",[],[1],[0.5],vertical,"(390.0, 262.0)",1.2666666666666666,0.461,1,4413.196,1
0,792,target,"[(1101, 793)]",[],[1],[0.7166666666666667],horizontal,"(890.0, 262.0)",0.5333333333333333,0.687,1,4418.476,2
0,793,catch,"[(1131, 773)]",[],[1],[],horizontal,"(890.0, 762.0)",1.6,nan,1,4423.346,2
0,794,target,"[(1129, 789)]",[],[1],[0.5166666666666666],horizontal,"(890.0, 262.0)",1.0166666666666666,0.475,1,4428.364,2
0,795,target,"[(1143, 795)]",[],[1],[0.31666666666666665],vertical,"(390.0, 762.0)",1.4,0.282,1,4433.566,2
0,796,target,"[(1097, 803)]",[],[1],[0.65],vertical,"(390.0, 762.0)",1.0666666666666667,0.607,1,4438.964,3
0,797,target,"[(1106, 770)]",[],[1],[0.85],vertical,"(390.0, 762.0)",0.75,nan,0,4445.098,0
0,798,target,"[(1082, 795)]",[],[1],[0.7],horizontal,"(390.0, 262.0)",1.2833333333333332,0.656,1,4449.389,1
0,799,target,"[(1128, 790)]",[],[1],[0.3833333333333333],vertical,"(390.0, 262.0)",1.4666666666666666,0.348,1,4454.538,1
0,800,target,"[(1105, 757)]",[],[1],[0.6],vertical,"(890.0, 762.0)",0.8,0.564,1,4459.963,2
0,801,target,"[(1128, 773)]",[],[1],[0.43333333333333335],horizontal,"(890.0, 262.0)",1.4833333333333334,0.395,1,4465.142,2
0,802,target,"[(1125, 780)]",[],[1],[0.2833333333333333],horizontal,"(390.0, 262.0)",1.4666666666666666,0.246,1,4471.138,2
0,803,target,"[(1107, 807)]",[],[1],[0.6],horizontal,"(890.0, 262.0)",0.8,0.573,1,4476.746,2
0,804,catch,"[(1128, 782)]",[],[1],[],horizontal,"(390.0, 762.0)",1.6,nan,1,4481.92,3
0,805,target,"[(1128, 783)]",[],[1],"[0.85, 0.85]",horizontal,"(390.0, 262.0)",1.0333333333333332,"0.812,nan",0,4487.765,0
