block,trial,trial_type,taps_start_loc_during_fix,taps_end_loc_during_fix,taps_on_lever_during_fix,taps_on_lever_s_during_fix,bar_orientation,target_xy,cti,rt,acc,time,pulses,fa_rate_recent100,actual_invalid_type
0,1,valid,"[(1109, 880)]",[],[1],[0.4],vertical,"(890.0, 762.0)",1.0833333333333333,0.36,1,0.913,1,0.0,same
0,2,valid,"[(1127, 822)]",[],[1],[0.4166666666666667],horizontal,"(890.0, 762.0)",0.9,0.374,1,11.226,1,0.0,same
0,3,invalid_same_bar,"[(1151, 881)]",[],[1],[0.45],horizontal,"(890.0, 262.0)",1.4333333333333333,0.412,1,16.732,1,0.0,same
0,4,valid,"[(1114, 842)]",[],[1],[0.6],vertical,"(890.0, 262.0)",0.35,0.565,1,22.545,2,0.0,same
0,5,catch,"[(1160, 800)]",[],[1],[],horizontal,"(890.0, 762.0)",1.7,nan,1,455.016,2,0.0,same
0,6,invalid_adjacent_other_bar,"[(1156, 794)]",[],[1],[0.85],vertical,"(890.0, 762.0)",0.6666666666666666,nan,0,461.114,0,0.0,other
0,7,valid,"[(1102, 842)]",[],[1],[0.48333333333333334],horizontal,"(390.0, 762.0)",0.9333333333333333,0.439,1,465.416,1,0.0,same
0,8,invalid_same_bar,"[(1140, 805)]",[],[1],[0.6166666666666667],vertical,"(890.0, 762.0)",1.2,0.577,1,869.857,1,0.0,same
0,9,invalid_same_bar,"[(1136, 816)]",[],[1],[0.85],horizontal,"(890.0, 762.0)",0.8666666666666667,nan,0,875.164,0,0.0,same
0,10,valid,"[(1131, 860)]",[],[1],[0.6],horizontal,"(890.0, 262.0)",0.6,0.556,1,880.02,1,0.0,same
0,11,catch,"[(1138, 793)]",[],[1],[],horizontal,"(890.0, 262.0)",1.7,nan,1,1017.535,1,0.0,same
0,12,valid,"[(1160, 794)]",[],[1],[0.6833333333333333],horizontal,"(390.0, 762.0)",0.95,0.641,1,1022.859,1,0.0,same
0,13,valid,"[(1164, 779)]",[],[1],[0.85],vertical,"(390.0, 262.0)",1.4666666666666666,nan,0,1028.27,0,0.0,same
0,14,catch,"[(1173, 811)]",[],[1],[],horizontal,"(390.0, 762.0)",1.7,nan,1,1033.714,1,0.0,same
0,15,valid,"[(1170, 776)]",[],[1],[0.48333333333333334],vertical,"(890.0, 262.0)",1.2666666666666666,0.443,1,1039.017,1,0.0,same
0,16,valid,"[(1156, 789)]",[],[1],[0.85],horizontal,"(890.0, 762.0)",0.3833333333333333,nan,0,1044.068,0,0.0,same
0,17,valid,"[(1146, 821)]",[],[1],[0.5166666666666666],horizontal,"(890.0, 262.0)",1.2166666666666666,0.473,1,1048.636,1,0.0,same
0,18,invalid_adjacent_other_bar,"[(1159, 782)]",[],[1],[0.18333333333333332],vertical,"(390.0, 262.0)",1.4166666666666667,0.149,0,1054.374,0,0.0,other
0,19,valid,"[(1157, 806)]",[],[1],[0.6333333333333333],horizontal,"(890.0, 762.0)",0.9166666666666666,0.587,1,1058.769,1,0.0,same
0,20,valid,"[(1155, 779)]",[],[1],[0.6666666666666666],vertical,"(890.0, 262.0)",0.9166666666666666,0.627,1,1064.152,1,0.0,same
0,21,catch,"[(1162, 766)]",[],[1],[],horizontal,"(890.0, 762.0)",1.7,nan,1,1069.502,1,0.0,same
0,22,valid,"[(1156, 774)]",[],[1],[0.5833333333333334],vertical,"(890.0, 262.0)",1.4666666666666666,0.541,1,1074.653,2,0.0,same
0,23,valid,"[(1167, 800)]",[],[1],[0.5833333333333334],horizontal,"(890.0, 762.0)",0.4166666666666667,0.541,1,1080.935,2,0.0,same
0,24,valid,"[(1166, 773)]",[],[1],[0.85],horizontal,"(890.0, 262.0)",1.0,nan,0,1086.164,0,0.0,same
0,25,catch,"[(1162, 799)]",[],[1],[],horizontal,"(890.0, 262.0)",1.7,nan,1,1091.119,1,0.0,same
0,26,valid,"[(1160, 799)]",[],[1],[0.48333333333333334],horizontal,"(890.0, 762.0)",1.5333333333333332,0.45,1,1096.72,1,0.0,same
0,27,catch,"[(1161, 784)]",[],[1],[],vertical,"(890.0, 762.0)",1.7,nan,1,1102.288,1,0.0,same
0,28,valid,"[(1162, 779)]",[],[1],[0.5166666666666666],horizontal,"(390.0, 762.0)",0.5833333333333334,0.474,1,1107.624,2,0.0,same
0,29,valid,"[(1161, 782)]",[],[1],[0.5833333333333334],horizontal,"(890.0, 762.0)",0.9166666666666666,0.541,1,1112.77,2,0.0,same
0,30,catch,"[(1155, 789)]",[],[1],[],vertical,"(890.0, 262.0)",1.7,nan,1,1117.896,2,0.0,same
0,31,valid,"[(1174, 804)]",[],[1],[0.4],vertical,"(890.0, 262.0)",1.5166666666666666,0.364,1,1123.486,3,0.0,same
0,32,valid,"[(1178, 782)]",[],[1],[0.55],vertical,"(390.0, 262.0)",0.95,0.51,1,1130.119,3,0.0,same
0,33,valid,"[(1171, 798)]",[],[1],[0.5666666666666667],vertical,"(390.0, 762.0)",1.45,0.529,1,1136.203,3,0.0,same
0,34,catch,"[(1166, 779)]",[],[1],[],horizontal,"(890.0, 262.0)",1.7,nan,1,1142.406,3,0.0,same
0,35,valid,"[(1170, 815)]",[],[1],[0.6333333333333333],horizontal,"(390.0, 262.0)",0.48333333333333334,0.593,1,1148.354,3,0.0,same
0,36,catch,"[(1174, 812)]",[],[1],[],horizontal,"(890.0, 762.0)",1.7,nan,1,1154.019,3,0.0,same
0,37,invalid_same_bar,"[(1170, 793)]",[],[1],[0.5166666666666666],vertical,"(890.0, 762.0)",0.8,0.48,1,1159.87,3,0.0,same
0,38,valid,"[(1154, 778)]",[],[1],[0.5166666666666666],vertical,"(890.0, 762.0)",0.5166666666666666,0.477,1,1165.836,3,0.0,same
0,39,valid,"[(1175, 794)]",[],[1],[0.43333333333333335],vertical,"(890.0, 262.0)",1.0166666666666666,0.399,1,1171.269,3,0.0,same
0,40,valid,"[(1166, 778)]",[],[1],[0.5],vertical,"(890.0, 262.0)",0.4666666666666667,0.467,1,1176.804,3,0.0,same
0,41,catch,"[(1185, 787)]",[],[1],[],vertical,"(390.0, 762.0)",1.7,nan,1,1182.136,3,0.0,same
0,42,valid,"[(1171, 779)]",[],[1],[0.48333333333333334],horizontal,"(390.0, 762.0)",1.3333333333333333,0.454,1,1188.387,3,0.0,same
0,43,catch,"[(1155, 775)]",[],[1],[],horizontal,"(890.0, 762.0)",1.7,nan,1,1194.836,3,0.0,same
0,44,valid,"[(1166, 789)]",[],[1],[0.65],horizontal,"(890.0, 262.0)",0.8666666666666667,0.616,1,1201.253,3,0.0,same
0,45,valid,"[(1176, 799)]",[],[1],[0.85],horizontal,"(390.0, 762.0)",0.6666666666666666,nan,0,1207.119,0,0.0,same
0,46,valid,"[(1125, 801)]",[],[1],[0.6166666666666667],horizontal,"(390.0, 262.0)",0.95,0.577,1,1211.556,1,0.0,same
0,47,catch,"[(1085, 852)]",[],[1],[],vertical,"(890.0, 762.0)",,"('cti', 0.443),nan",0,1216.671,0,0.02127659574468085,same
0,48,valid,"[(1090, 837)]",[],[1],[0.6833333333333333],horizontal,"(390.0, 262.0)",0.95,0.652,1,1220.424,1,0.020833333333333332,same
0,49,valid,"[(1135, 819)]",[],[1],[0.5666666666666667],horizontal,"(890.0, 262.0)",0.85,0.534,1,1225.888,1,0.02040816326530612,same
0,50,valid,"[(1137, 780)]",[],[1],[0.55],vertical,"(890.0, 262.0)",1.3666666666666667,0.512,1,1231.062,1,0.02,same
0,51,valid,"[(1154, 792)]",[],[1],[0.5166666666666666],vertical,"(890.0, 762.0)",1.3666666666666667,0.473,1,1236.527,2,0.02,same
0,52,valid,"[(1153, 789)]",[],[1],[0.5166666666666666],horizontal,"(390.0, 262.0)",0.5833333333333334,0.476,1,1242.603,2,0.02,same
0,53,valid,"[(1136, 784)]",[],[1],[0.55],vertical,"(890.0, 262.0)",0.4,0.511,1,1247.153,2,0.02,same
0,54,valid,"[(1137, 815)]",[],[1],[0.48333333333333334],horizontal,"(890.0, 262.0)",1.4833333333333334,0.445,1,1251.851,3,0.02,same
0,55,valid,"[(1162, 791)]",[],[1],[0.5833333333333334],horizontal,"(890.0, 262.0)",0.4,0.55,1,1258.305,3,0.02,same
0,56,valid,"[(1136, 785)]",[],[1],[0.4666666666666667],horizontal,"(890.0, 262.0)",1.3666666666666667,0.425,1,1263.77,3,0.02,same
0,57,catch,"[(1151, 789)]",[],[1],[],vertical,"(890.0, 762.0)",1.7,nan,1,1270.82,3,0.02,same
0,58,catch,"[(1173, 791)]",[],[1],[],horizontal,"(390.0, 262.0)",1.7,nan,1,1276.986,3,0.02,same
0,59,valid,"[(1170, 809)]",[],[1],[0.85],vertical,"(890.0, 262.0)",0.7166666666666667,nan,0,1282.713,0,0.02,same
0,60,invalid_adjacent_other_bar,"[(1137, 799)]",[],[1],[0.55],horizontal,"(890.0, 262.0)",1.3166666666666667,0.519,1,1287.47,1,0.02,other
0,61,catch,"[(1171, 807)]",[],[1],[],horizontal,"(890.0, 262.0)",,"('cti', 1.475),nan",0,1292.918,0,0.04,same
0,62,valid,"[(1156, 808)]",[],[1],[0.3833333333333333],horizontal,"(890.0, 762.0)",0.9,0.35,1,1297.594,1,0.04,same
0,63,catch,"[(1116, 843)]",[],[1],[],vertical,"(390.0, 762.0)",,"('cti', 1.526),nan",0,1302.736,0,0.06,same
0,64,invalid_adjacent_other_bar,"[(1148, 841)]",[],[1],[],horizontal,"(890.0, 262.0)",,"('cti', 0.95)",0,1361.738,0,0.06,other
0,65,valid,"[(1116, 830)]",[],[1],[],horizontal,"(390.0, 762.0)",,"('cti', 0.759)",0,1365.717,0,0.06,same
0,66,valid,"[(1076, 801)]",[],[1],[0.85],vertical,"(890.0, 762.0)",0.3833333333333333,nan,0,2464.819,0,0.06,same
0,67,valid,"[(1130, 794)]",[],[1],[0.7833333333333333],vertical,"(390.0, 262.0)",1.5,0.748,1,2678.274,1,0.06,same
0,68,valid,"[(1148, 823)]",[],[1],[0.6],vertical,"(390.0, 262.0)",1.0833333333333333,0.56,1,2684.005,1,0.06,same
0,69,catch,"[(1177, 799)]",[],[1],[],vertical,"(890.0, 762.0)",1.7,nan,1,2689.457,1,0.06,same
0,70,catch,"[(1068, 828)]",[],[1],[],vertical,"(890.0, 262.0)",1.7,nan,1,2694.299,2,0.06,same
0,71,valid,"[(1194, 794)]",[],[1],[0.55],horizontal,"(390.0, 762.0)",1.0666666666666667,0.508,1,2703.949,2,0.06,same
0,72,valid,"[(1166, 798)]","[(1160, 830)]",[1],[0.31666666666666665],horizontal,"(390.0, 762.0)",,"('bar', 0.329)",0,2709.584,0,0.06,same
0,73,catch,"[(1129, 822)]",[],[1],[],vertical,"(890.0, 762.0)",1.7,nan,1,2711.908,1,0.06,same
0,74,valid,"[(1161, 781)]",[],[1],[0.48333333333333334],horizontal,"(390.0, 762.0)",0.75,0.442,1,2717.52,1,0.06,same
0,75,valid,"[(1165, 778)]",[],[1],[0.55],horizontal,"(390.0, 262.0)",0.7166666666666667,0.513,1,2722.457,1,0.06,same
0,76,valid,"[(1159, 783)]",[],[1],[0.85],vertical,"(390.0, 262.0)",0.5166666666666666,nan,0,2727.274,0,0.06,same
0,77,valid,"[(1165, 790)]",[],[1],[0.85],vertical,"(890.0, 762.0)",0.75,nan,0,2731.8,0,0.06,same
0,78,valid,"[(1137, 796)]",[],[1],[0.85],horizontal,"(390.0, 262.0)",0.48333333333333334,nan,0,2736.148,0,0.06,same
0,79,catch,"[(1156, 779)]",[],[1],[],vertical,"(890.0, 262.0)",1.7,nan,1,2740.357,1,0.06,same
0,80,valid,"[(1169, 794)]",[],[1],[0.65],vertical,"(390.0, 262.0)",0.5,0.609,1,2745.874,1,0.06,same
0,81,valid,"[(1161, 782)]",[],[1],[0.85],horizontal,"(390.0, 762.0)",0.75,nan,0,2750.441,0,0.06,same
0,82,valid,"[(1165, 804)]",[],[1],[0.85],horizontal,"(890.0, 762.0)",0.7833333333333333,nan,0,2755.34,0,0.06,same
0,83,valid,"[(1155, 794)]",[],[1],[0.85],horizontal,"(390.0, 262.0)",0.5666666666666667,nan,0,2759.643,0,0.06,same
0,84,catch,"[(1121, 771)]",[],[1],[],horizontal,"(390.0, 762.0)",1.7,nan,1,2764.042,1,0.06,same
0,85,valid,"[(1168, 816)]",[],[1],[0.5],vertical,"(390.0, 262.0)",0.8166666666666667,0.467,1,2781.107,1,0.06,same
0,86,catch,"[(1151, 801)]",[],[1],[],vertical,"(890.0, 762.0)",1.7,nan,1,2785.471,1,0.06,same
0,87,valid,"[(1172, 806)]",[],[1],[0.23333333333333334],horizontal,"(890.0, 762.0)",0.35,0.195,0,2790.788,0,0.06,same
0,88,catch,"[(1160, 811)]",[],[1],[],vertical,"(390.0, 262.0)",1.7,nan,1,2794.874,1,0.06,same
0,89,catch,"[(1160, 799)]","[(1151, 840)]",[1],[0.11666666666666667],horizontal,"(390.0, 762.0)",,"('bar', 0.13),nan",0,2799.938,0,0.08,same
0,90,valid,"[(1132, 801)]",[],[1],[0.4],vertical,"(890.0, 262.0)",1.1833333333333333,0.361,1,2802.341,1,0.08,same
0,91,catch,"[(1148, 779)]",[],[1],[],horizontal,"(390.0, 262.0)",,"('cti', 1.563),nan",0,2807.824,0,0.1,same
0,92,valid,"[(1142, 808)]",[],[1],[0.5333333333333333],horizontal,"(390.0, 262.0)",0.36666666666666664,0.494,1,2812.594,1,0.1,same
0,93,catch,"[(1162, 793)]",[],[1],[],horizontal,"(390.0, 262.0)",1.7,nan,1,2816.883,1,0.1,same
0,94,valid,"[(1162, 796)]",[],[1],[0.85],horizontal,"(390.0, 262.0)",1.35,nan,0,2821.808,0,0.1,same
0,95,catch,"[(1138, 773)]",[],[1],[],vertical,"(390.0, 762.0)",1.7,nan,1,2826.89,1,0.1,same
0,96,valid,"[(1170, 802)]",[],[1],[0.5666666666666667],horizontal,"(390.0, 762.0)",0.5666666666666667,0.528,1,2832.423,1,0.1,same
0,97,valid,"[(1195, 788)]",[],[1],[0.5833333333333334],horizontal,"(890.0, 262.0)",0.6166666666666667,0.541,1,2837.004,1,0.08,same
0,98,valid,"[(1172, 816)]",[],[1],[0.55],horizontal,"(390.0, 762.0)",1.35,0.507,1,2841.577,2,0.08,same
0,99,valid,"[(1174, 818)]",[],[1],[0.85],horizontal,"(390.0, 262.0)",1.1166666666666667,nan,0,2847.475,0,0.08,same
0,100,valid,"[(1163, 802)]",[],[1],[0.7166666666666667],horizontal,"(890.0, 762.0)",1.4166666666666667,0.666,1,2852.691,1,0.08,same
0,101,valid,"[(1162, 808)]",[],[1],[0.85],horizontal,"(390.0, 762.0)",0.4166666666666667,nan,0,2857.912,0,0.08,same
0,102,catch,"[(1142, 808)]",[],[1],[],vertical,"(890.0, 762.0)",1.7,nan,1,2861.842,1,0.08,same
0,103,valid,"[(1157, 803)]",[],[1],[0.5333333333333333],vertical,"(390.0, 262.0)",0.43333333333333335,0.495,1,2866.924,1,0.08,same
0,104,invalid_adjacent_other_bar,"[(1160, 803)]",[],[1],[0.5166666666666666],vertical,"(890.0, 762.0)",0.75,0.476,1,2871.511,1,0.08,other
0,105,valid,"[(1170, 808)]",[],[1],[0.5],horizontal,"(890.0, 262.0)",1.2833333333333332,0.458,1,2876.071,2,0.08,same
0,106,catch,"[(1157, 796)]",[],[1],[],horizontal,"(890.0, 262.0)",1.7,nan,1,2881.924,2,0.08,same
0,107,valid,"[(1164, 798)]",[],[1],[0.55],vertical,"(390.0, 262.0)",1.4666666666666666,0.511,1,2887.424,2,0.08,same
0,108,valid,"[(1152, 777)]",[],[1],[0.6333333333333333],horizontal,"(390.0, 262.0)",0.8833333333333333,0.593,1,2893.275,3,0.08,same
0,109,catch,"[(1144, 797)]",[],[1],[],horizontal,"(390.0, 262.0)",1.7,nan,1,2898.771,3,0.08,same
0,110,valid,"[(1160, 800)]",[],[1],[0.8333333333333334],vertical,"(390.0, 262.0)",0.7,0.791,1,2904.864,3,0.08,same
0,111,invalid_same_bar,"[(1170, 803)]",[],[1],[0.5],horizontal,"(890.0, 762.0)",0.48333333333333334,0.455,1,2910.659,3,0.06,same
0,112,valid,"[(1171, 780)]",[],[1],[0.5],vertical,"(890.0, 262.0)",1.25,0.457,1,2916.144,3,0.06,same
0,113,catch,"[(1175, 799)]",[],[1],[],horizontal,"(390.0, 762.0)",1.7,nan,1,2922.441,3,0.04,same
0,114,invalid_same_bar,"[(1160, 794)]",[],[1],[0.5666666666666667],horizontal,"(890.0, 762.0)",0.4166666666666667,0.537,1,2928.656,3,0.04,same
0,115,catch,"[(1166, 801)]",[],[1],[],vertical,"(390.0, 262.0)",1.7,nan,1,2933.991,3,0.04,same
0,116,valid,"[(1161, 796)]",[],[1],[0.85],horizontal,"(890.0, 262.0)",1.3666666666666667,nan,0,2939.874,0,0.04,same
0,117,valid,"[(1159, 797)]",[],[1],[0.48333333333333334],vertical,"(890.0, 762.0)",0.9333333333333333,0.443,1,2944.808,1,0.04,same
0,118,catch,"[(1175, 808)]",[],[1],[],horizontal,"(890.0, 262.0)",1.7,nan,1,2949.541,1,0.04,same
0,119,valid,"[(1170, 794)]",[],[1],[0.5],vertical,"(890.0, 762.0)",0.9333333333333333,0.453,1,2954.741,1,0.04,same
0,120,catch,"[(1159, 800)]",[],[1],[],vertical,"(390.0, 262.0)",1.7,nan,1,2959.394,2,0.04,same
0,121,valid,"[(1132, 807)]",[],[1],[],vertical,"(890.0, 762.0)",,"('cti', 0.57)",0,2964.707,0,0.04,same
0,122,valid,"[(1160, 799)]",[],[1],[0.5333333333333333],horizontal,"(890.0, 262.0)",0.6666666666666666,0.493,1,2972.892,1,0.04,same
0,123,valid,"[(1141, 781)]",[],[1],[0.48333333333333334],horizontal,"(890.0, 762.0)",0.9166666666666666,0.442,1,2977.627,1,0.04,same
0,124,valid,"[(1120, 850)]",[],[1],[0.8166666666666667],horizontal,"(890.0, 762.0)",1.5333333333333332,0.77,1,2982.198,1,0.04,same
0,125,valid,"[(1166, 856)]",[],[1],[0.65],vertical,"(390.0, 262.0)",0.8333333333333334,0.614,1,3405.418,2,0.04,same
0,126,valid,"[(1178, 813)]",[],[1],[],vertical,"(390.0, 262.0)",,"('fix', 0.605)",0,3410.343,0,0.04,same
0,127,valid,"[(1134, 796)]",[],[1],[0.5333333333333333],horizontal,"(390.0, 762.0)",1.3833333333333333,0.496,1,3412.524,1,0.04,same
0,128,catch,"[(1167, 806)]",[],[1],[],vertical,"(890.0, 762.0)",1.7,nan,1,3417.767,1,0.04,same
0,129,invalid_same_bar,"[(1157, 776)]",[],[1],[0.65],horizontal,"(890.0, 262.0)",1.4666666666666666,0.607,1,3422.977,1,0.04,same
0,130,valid,"[(1159, 781)]",[],[1],[0.85],horizontal,"(390.0, 262.0)",0.8166666666666667,nan,0,3428.188,0,0.04,same
0,131,valid,"[(1149, 819)]",[],[1],[0.85],vertical,"(890.0, 262.0)",0.8666666666666667,nan,0,3432.917,0,0.04,same
0,132,valid,"[(1130, 805)]",[],[1],[0.5333333333333333],vertical,"(390.0, 262.0)",0.95,0.487,1,3437.529,1,0.04,same
0,133,valid,"[(1165, 803)]",[],[1],[0.5833333333333334],vertical,"(890.0, 262.0)",1.4166666666666667,0.547,1,3445.216,1,0.04,same
0,134,invalid_adjacent_other_bar,"[(1171, 796)]",[],[1],[0.85],horizontal,"(390.0, 762.0)",0.35,nan,0,3450.442,0,0.04,other
0,135,valid,"[(1130, 798)]",[],[1],[0.6166666666666667],horizontal,"(890.0, 262.0)",0.9666666666666667,0.576,1,3454.389,1,0.04,same
0,136,catch,"[(1176, 800)]",[],[1],[],vertical,"(890.0, 762.0)",1.7,nan,1,3460.617,1,0.04,same
0,137,valid,"[(1161, 786)]",[],[1],[0.6833333333333333],horizontal,"(890.0, 762.0)",0.43333333333333335,0.636,1,3465.911,1,0.04,same
0,138,valid,"[(1176, 798)]",[],[1],[0.6333333333333333],horizontal,"(890.0, 262.0)",1.0166666666666666,0.588,1,3470.597,2,0.04,same
0,139,valid,"[(1158, 789)]",[],[1],[0.5166666666666666],vertical,"(390.0, 762.0)",0.9833333333333333,0.485,1,3476.153,2,0.02,same
0,140,invalid_adjacent_other_bar,"[(1171, 799)]",[],[1],[0.48333333333333334],horizontal,"(890.0, 762.0)",0.6,0.445,1,3481.508,2,0.02,other
0,141,valid,"[(1175, 808)]",[],[1],[],vertical,"(390.0, 262.0)",,"('fix', 0.701)",0,3486.716,0,0.0,same
0,142,valid,"[(1122, 779)]",[],[1],[0.6666666666666666],vertical,"(390.0, 262.0)",0.5166666666666666,0.621,1,3489.277,1,0.0,same
0,143,invalid_same_bar,"[(1170, 800)]",[],[1],[0.48333333333333334],vertical,"(890.0, 262.0)",0.7166666666666667,0.441,1,3494.26,1,0.0,same
0,144,invalid_same_bar,"[(1160, 811)]",[],[1],[0.6333333333333333],horizontal,"(890.0, 262.0)",1.0666666666666667,0.59,1,3498.649,1,0.0,same
0,145,invalid_adjacent_other_bar,"[(1159, 779)]",[],[1],[0.48333333333333334],horizontal,"(890.0, 762.0)",0.8166666666666667,0.441,1,3504.043,2,0.0,other
0,146,valid,"[(1108, 858)]",[],[1],[0.5666666666666667],horizontal,"(390.0, 262.0)",0.43333333333333335,0.523,1,3508.973,2,0.0,same
0,147,catch,"[(1157, 786)]",[],[1],[],horizontal,"(390.0, 262.0)",1.7,nan,1,3514.537,2,0.0,same
0,148,valid,"[(1175, 799)]",[],[1],[0.7666666666666666],horizontal,"(390.0, 262.0)",1.3333333333333333,0.721,1,3520.262,3,0.0,same
0,149,catch,"[(1164, 799)]",[],[1],[],horizontal,"(890.0, 762.0)",1.7,nan,1,3526.661,3,0.0,same
0,150,catch,"[(1167, 808)]",[],[1],[],vertical,"(390.0, 262.0)",1.7,nan,1,3532.427,3,0.0,same
0,151,valid,"[(1166, 804)]",[],[1],[0.5166666666666666],vertical,"(390.0, 762.0)",1.1833333333333333,0.477,1,3538.043,3,0.0,same
0,152,valid,"[(1160, 780)]",[],[1],[0.85],horizontal,"(890.0, 262.0)",1.35,nan,0,3543.949,0,0.0,same
0,153,catch,"[(1131, 799)]",[],[1],[],horizontal,"(890.0, 262.0)",1.7,nan,1,3549.06,1,0.0,same
0,154,valid,"[(1108, 796)]",[],[1],[0.6166666666666667],vertical,"(390.0, 262.0)",0.6166666666666667,0.577,1,3554.575,1,0.0,same
0,155,invalid_same_bar,"[(1159, 800)]",[],[1],[0.5166666666666666],vertical,"(390.0, 262.0)",1.4333333333333333,0.477,1,3559.977,1,0.0,same
0,156,catch,"[(1155, 799)]",[],[1],[],horizontal,"(390.0, 262.0)",,"('fix', 0.414),nan",0,3565.41,0,0.02,same
0,157,valid,"[(1116, 804)]",[],[1],[0.65],vertical,"(390.0, 762.0)",0.6,0.611,1,3567.176,1,0.02,same
0,158,catch,"[(1159, 803)]",[],[1],[],horizontal,"(890.0, 262.0)",1.7,nan,1,3572.345,1,0.02,same
0,159,valid,"[(1160, 806)]",[],[1],[0.6166666666666667],vertical,"(890.0, 262.0)",0.8666666666666667,0.576,1,3577.31,1,0.02,same
0,160,invalid_same_bar,"[(1130, 829)]",[],[1],[0.5333333333333333],vertical,"(890.0, 762.0)",1.2833333333333332,0.49,1,3581.944,2,0.02,same
0,161,valid,"[(1157, 776)]",[],[1],[0.48333333333333334],vertical,"(390.0, 262.0)",0.6166666666666667,0.443,1,3587.894,2,0.02,same
0,162,valid,"[(1172, 802)]",[],[1],[0.85],vertical,"(390.0, 762.0)",1.2166666666666666,nan,0,3592.659,0,0.02,same
0,163,invalid_same_bar,"[(1175, 808)]",[],[1],[0.5333333333333333],vertical,"(890.0, 762.0)",1.1666666666666667,0.493,1,3597.477,1,0.02,same
0,164,valid,"[(1164, 802)]",[],[1],[0.4666666666666667],horizontal,"(890.0, 762.0)",0.48333333333333334,0.435,1,3602.355,1,0.02,same
0,165,valid,"[(1170, 811)]",[],[1],[0.5],vertical,"(390.0, 262.0)",0.7,0.458,1,3606.936,1,0.02,same
0,166,valid,"[(1162, 794)]",[],[1],[0.48333333333333334],horizontal,"(890.0, 762.0)",1.15,0.445,1,3611.36,2,0.02,same
0,167,valid,"[(1160, 789)]",[],[1],[0.85],vertical,"(390.0, 262.0)",0.3833333333333333,nan,0,3616.955,0,0.02,same
0,168,valid,"[(1137, 781)]",[],[1],[0.85],horizontal,"(390.0, 262.0)",0.8333333333333334,nan,0,3621.459,0,0.02,same
0,169,valid,"[(1123, 812)]",[],[1],[0.23333333333333334],vertical,"(390.0, 262.0)",1.3666666666666667,0.197,0,3625.977,0,0.02,same
0,170,valid,"[(1123, 838)]",[],[1],[0.5666666666666667],horizontal,"(890.0, 262.0)",1.0333333333333332,0.531,1,3630.717,1,0.02,same
0,171,catch,"[(1175, 814)]",[],[1],[],vertical,"(890.0, 262.0)",1.7,nan,1,3636.687,1,0.02,same
0,172,valid,"[(1151, 778)]",[],[1],[0.5],vertical,"(390.0, 762.0)",1.2666666666666666,0.465,1,3641.46,1,0.02,same
0,173,valid,"[(1161, 822)]",[],[1],[0.5166666666666666],horizontal,"(390.0, 762.0)",1.2666666666666666,0.484,1,3646.781,2,0.02,same
0,174,valid,"[(1163, 789)]",[],[1],[0.5166666666666666],vertical,"(390.0, 262.0)",0.6666666666666666,0.474,1,3652.761,2,0.02,same
0,175,catch,"[(1175, 819)]",[],[1],[],horizontal,"(390.0, 262.0)",1.7,nan,1,3657.56,2,0.02,same
0,176,valid,"[(1164, 777)]",[],[1],[0.5333333333333333],vertical,"(390.0, 762.0)",0.6666666666666666,0.493,1,3662.844,3,0.02,same
0,177,catch,"[(1180, 794)]",[],[1],[],vertical,"(890.0, 762.0)",,"('cti', 1.604),nan",0,3668.794,0,0.04,same
0,178,valid,"[(1146, 804)]",[],[1],[0.5333333333333333],horizontal,"(890.0, 762.0)",1.1833333333333333,0.492,1,3673.363,1,0.04,same
0,179,catch,"[(1170, 800)]",[],[1],[],vertical,"(890.0, 762.0)",1.7,nan,1,3678.737,1,0.04,same
0,180,catch,"[(1160, 794)]",[],[1],[],horizontal,"(890.0, 762.0)",1.7,nan,1,3683.546,1,0.04,same
0,181,catch,"[(1175, 799)]",[],[1],[],horizontal,"(390.0, 262.0)",,"('fix', 0.681),nan",0,3688.542,0,0.06,same
0,182,valid,"[(1136, 799)]",[],[1],[0.6333333333333333],vertical,"(390.0, 262.0)",1.0,0.592,1,3690.794,1,0.06,same
0,183,catch,"[(1167, 784)]",[],[1],[],vertical,"(390.0, 762.0)",1.7,nan,1,3695.895,1,0.06,same
0,184,valid,"[(1167, 794)]",[],[1],[0.6333333333333333],horizontal,"(890.0, 762.0)",1.1666666666666667,0.593,1,3700.978,1,0.06,same
0,185,catch,"[(1180, 789)]",[],[1],[],horizontal,"(390.0, 262.0)",1.7,nan,1,3706.16,2,0.06,same
0,186,valid,"[(1160, 804)]",[],[1],[0.6],horizontal,"(890.0, 762.0)",0.8333333333333334,0.558,1,3711.71,2,0.06,same
0,187,valid,"[(1164, 795)]",[],[1],[0.85],vertical,"(390.0, 262.0)",1.1166666666666667,nan,0,3716.727,0,0.06,same
0,188,valid,"[(1132, 787)]",[],[1],[0.5],horizontal,"(890.0, 262.0)",1.0833333333333333,0.464,1,3721.83,1,0.06,same
0,189,valid,"[(1175, 805)]",[],[1],[0.85],horizontal,"(390.0, 262.0)",1.4,nan,0,3726.961,0,0.06,same
0,190,catch,"[(1111, 804)]",[],[1],[],vertical,"(890.0, 762.0)",1.7,nan,1,3732.358,1,0.06,same
0,191,valid,"[(1165, 792)]",[],[1],[0.5166666666666666],vertical,"(890.0, 762.0)",0.5333333333333333,0.478,1,3745.344,1,0.06,same
0,192,catch,"[(1161, 791)]",[],[1],[],horizontal,"(890.0, 762.0)",1.7,nan,1,3750.026,1,0.06,same
0,193,valid,"[(1158, 802)]",[],[1],[0.85],vertical,"(390.0, 262.0)",1.0666666666666667,nan,0,3755.06,0,0.06,same
0,194,catch,"[(1155, 783)]",[],[1],[],vertical,"(890.0, 762.0)",,"('cti', 1.369),nan",0,3760.31,0,0.08,same
0,195,valid,"[(1164, 798)]",[],[1],[0.48333333333333334],horizontal,"(890.0, 762.0)",0.8666666666666667,0.443,1,3764.71,1,0.08,same
0,196,valid,"[(1157, 793)]",[],[1],[0.65],vertical,"(390.0, 262.0)",1.2333333333333334,0.609,1,3769.31,1,0.08,same
0,197,valid,"[(1169, 783)]",[],[1],[0.5],vertical,"(890.0, 262.0)",1.4,0.461,1,3774.345,1,0.08,same
0,198,catch,"[(1136, 803)]",[],[1],[],horizontal,"(890.0, 262.0)",1.7,nan,1,3779.961,2,0.08,same
0,199,catch,"[(1155, 799)]",[],[1],[],vertical,"(390.0, 762.0)",1.7,nan,1,3785.71,2,0.08,same
0,200,valid,"[(1159, 815)]",[],[1],[0.85],horizontal,"(390.0, 262.0)",1.2166666666666666,nan,0,3791.578,0,0.08,same
0,201,invalid_same_bar,"[(1138, 792)]",[],[1],[0.5333333333333333],vertical,"(890.0, 762.0)",1.4,0.497,1,3796.553,1,0.08,same
0,202,valid,"[(1176, 799)]",[],[1],[0.5],vertical,"(890.0, 762.0)",0.95,0.466,1,3802.245,1,0.08,same
0,203,invalid_adjacent_other_bar,"[(1170, 807)]",[],[1],[0.85],vertical,"(390.0, 762.0)",0.9833333333333333,nan,0,3807.159,0,0.08,other
0,204,valid,"[(1153, 796)]",[],[1],[0.5166666666666666],vertical,"(390.0, 262.0)",1.3333333333333333,0.478,1,3811.91,1,0.08,same
0,205,catch,"[(1157, 803)]",[],[1],[],horizontal,"(890.0, 262.0)",1.7,nan,1,3817.427,1,0.08,same
0,206,valid,"[(1180, 787)]",[],[1],[0.6166666666666667],horizontal,"(890.0, 762.0)",0.6666666666666666,0.576,1,3822.69,1,0.06,same
0,207,valid,"[(1175, 785)]",[],[1],[0.85],horizontal,"(390.0, 262.0)",0.6666666666666666,nan,0,3827.611,0,0.06,same
0,208,valid,"[(1116, 825)]",[],[1],[0.5],vertical,"(890.0, 262.0)",0.6666666666666666,0.457,1,3832.126,1,0.06,same
0,209,valid,"[(1175, 804)]",[],[1],[0.4666666666666667],vertical,"(390.0, 762.0)",0.5333333333333333,0.436,1,3836.977,1,0.06,same
0,210,catch,"[(1175, 763)]",[],[1],[],vertical,"(390.0, 762.0)",1.7,nan,1,3841.582,1,0.06,same
0,211,valid,"[(1175, 810)]",[],[1],[0.5],vertical,"(390.0, 262.0)",1.4666666666666666,0.462,1,3847.138,2,0.06,same
0,212,catch,"[(1176, 777)]",[],[1],[],vertical,"(390.0, 262.0)",,"('cti', 0.673),nan",0,3853.161,0,0.08,same
0,213,valid,"[(1156, 808)]",[],[1],[0.85],horizontal,"(390.0, 762.0)",0.35,nan,0,3856.978,0,0.08,same
0,214,valid,"[(1152, 802)]",[],[1],[0.5166666666666666],vertical,"(390.0, 262.0)",1.25,0.476,1,3861.228,1,0.08,same
0,215,invalid_adjacent_other_bar,"[(1155, 796)]",[],[1],[0.6],horizontal,"(390.0, 262.0)",1.0166666666666666,0.564,1,3866.86,1,0.08,other
0,216,valid,"[(1180, 783)]",[],[1],[0.5333333333333333],horizontal,"(390.0, 762.0)",1.05,0.492,1,3872.162,1,0.08,same
0,217,catch,"[(1175, 796)]",[],[1],[],vertical,"(390.0, 762.0)",1.7,nan,1,3877.309,2,0.08,same
0,218,catch,"[(1157, 788)]",[],[1],[],horizontal,"(390.0, 262.0)",1.7,nan,1,3882.71,2,0.08,same
0,219,valid,"[(1170, 779)]",[],[1],[0.5666666666666667],horizontal,"(890.0, 762.0)",1.1166666666666667,0.532,1,3888.286,2,0.08,same
0,220,valid,"[(1190, 778)]",[],[1],[0.5],horizontal,"(890.0, 762.0)",1.3,0.455,1,3894.079,3,0.08,same
0,221,invalid_adjacent_other_bar,"[(1175, 789)]",[],[1],[0.5],vertical,"(390.0, 762.0)",0.5833333333333334,0.461,1,3900.06,3,0.08,other
0,222,invalid_same_bar,"[(1171, 787)]",[],[1],[0.85],vertical,"(890.0, 262.0)",0.7333333333333333,nan,0,3905.336,0,0.08,same
0,223,catch,"[(1116, 783)]",[],[1],[],horizontal,"(890.0, 262.0)",1.7,nan,1,3909.511,1,0.08,same
0,224,catch,"[(1165, 797)]",[],[1],[],vertical,"(390.0, 762.0)",,"('fix', 0.232),nan",0,3914.862,0,0.1,same
0,225,catch,"[(1135, 832)]",[],[1],[],horizontal,"(390.0, 262.0)",1.7,nan,1,3916.411,1,0.1,same
0,226,valid,"[(1174, 779)]",[],[1],[0.5666666666666667],horizontal,"(390.0, 762.0)",0.9,0.535,1,3921.417,1,0.1,same
0,227,valid,"[(1175, 782)]",[],[1],[0.4666666666666667],vertical,"(890.0, 262.0)",1.1666666666666667,0.429,1,3926.395,1,0.08,same
0,228,invalid_same_bar,"[(1162, 799)]",[],[1],[0.5333333333333333],horizontal,"(890.0, 762.0)",1.1166666666666667,0.494,1,3931.409,2,0.08,same
0,229,invalid_same_bar,"[(1167, 807)]",[],[1],[0.55],vertical,"(890.0, 262.0)",0.4166666666666667,0.516,1,3937.111,2,0.08,same
0,230,catch,"[(1160, 796)]",[],[1],[],vertical,"(390.0, 262.0)",1.7,nan,1,3942.244,2,0.08,same
0,231,catch,"[(1165, 802)]",[],[1],[],vertical,"(390.0, 762.0)",1.7,nan,1,3948.162,3,0.06,same
0,232,valid,"[(1195, 801)]","[(1167, 843)]",[1],[0.31666666666666665],horizontal,"(390.0, 762.0)",,"('bar', 0.336)",0,3954.293,0,0.06,same
0,233,catch,"[(1122, 798)]",[],[1],[],vertical,"(390.0, 262.0)",1.7,nan,1,3956.811,1,0.06,same
0,234,valid,"[(1179, 784)]",[],[1],[0.5166666666666666],horizontal,"(390.0, 762.0)",0.65,0.475,1,3962.145,1,0.06,same
0,235,valid,"[(1178, 787)]",[],[1],[0.55],vertical,"(390.0, 762.0)",1.0833333333333333,0.508,1,3967.094,1,0.06,same
0,236,valid,"[(1180, 795)]",[],[1],[0.5666666666666667],vertical,"(390.0, 762.0)",1.25,0.524,1,3972.395,2,0.06,same
0,237,valid,"[(1166, 776)]",[],[1],[0.5],horizontal,"(890.0, 762.0)",1.0666666666666667,0.463,1,3977.781,2,0.06,same
0,238,valid,"[(1161, 785)]",[],[1],[0.4666666666666667],horizontal,"(390.0, 762.0)",0.4,0.426,1,3983.428,2,0.06,same
0,239,invalid_same_bar,"[(1167, 794)]",[],[1],[0.65],vertical,"(390.0, 762.0)",1.5,0.599,1,3988.127,3,0.06,same
0,240,valid,"[(1170, 810)]",[],[1],[0.5166666666666666],vertical,"(390.0, 262.0)",1.55,0.473,1,3995.191,3,0.06,same
0,241,valid,"[(1175, 802)]",[],[1],[0.55],vertical,"(890.0, 262.0)",1.1,0.509,1,4002.113,3,0.06,same
0,242,valid,"[(1175, 779)]",[],[1],[0.5666666666666667],vertical,"(890.0, 762.0)",0.6666666666666666,0.534,1,4008.427,3,0.06,same
0,243,invalid_adjacent_other_bar,"[(1179, 793)]",[],[1],[0.48333333333333334],horizontal,"(890.0, 762.0)",0.5333333333333333,0.441,1,4013.911,3,0.06,other
0,244,valid,"[(1159, 823)]",[],[1],[0.4666666666666667],horizontal,"(890.0, 262.0)",1.4333333333333333,0.423,1,4019.095,3,0.04,same
0,245,catch,"[(1158, 812)]",[],[1],[],horizontal,"(890.0, 262.0)",1.7,nan,1,4025.378,3,0.04,same
0,246,valid,"[(1159, 794)]",[],[1],[0.55],vertical,"(390.0, 262.0)",1.3333333333333333,0.508,1,4031.661,3,0.04,same
0,247,valid,"[(1118, 818)]",[],[1],[0.48333333333333334],horizontal,"(890.0, 262.0)",0.8166666666666667,0.447,1,4037.578,3,0.04,same
0,248,valid,"[(1172, 806)]",[],[1],[],vertical,"(390.0, 262.0)",,"('cti', 0.524)",0,4323.613,0,0.04,same
0,249,catch,"[(1114, 785)]",[],[1],[],horizontal,"(890.0, 762.0)",1.7,nan,1,4327.095,1,0.04,same
0,250,catch,"[(1123, 816)]",[],[1],[],vertical,"(390.0, 762.0)",1.7,nan,1,4332.557,1,0.04,same
0,251,valid,"[(1157, 792)]",[],[1],[0.85],horizontal,"(390.0, 762.0)",1.0833333333333333,nan,0,4337.779,0,0.04,same
0,252,valid,"[(1135, 800)]",[],[1],[],vertical,"(390.0, 762.0)",,"('cti', 0.653)",0,4342.455,0,0.04,same
0,253,valid,"[(1136, 793)]",[],[1],[0.5833333333333334],horizontal,"(390.0, 262.0)",0.4166666666666667,0.538,1,4346.412,1,0.04,same
0,254,valid,"[(1088, 843)]",[],[1],[0.5333333333333333],vertical,"(390.0, 762.0)",0.4666666666666667,0.49,1,4350.8,1,0.04,same
0,255,catch,"[(1160, 793)]",[],[1],[],vertical,"(390.0, 762.0)",1.7,nan,1,4356.769,1,0.04,same
0,256,valid,"[(1166, 799)]",[],[1],[0.5],vertical,"(890.0, 762.0)",1.5333333333333332,0.463,1,4362.307,2,0.04,same
0,257,catch,"[(1165, 780)]",[],[1],[0.03333333333333333],horizontal,"(390.0, 762.0)",1.7,"0.019,nan",0,4368.112,0,0.06,same
0,258,valid,"[(1165, 791)]",[],[1],[0.6],horizontal,"(890.0, 262.0)",1.4166666666666667,0.56,1,4372.795,1,0.06,same
0,259,valid,"[(1192, 797)]",[],[1],[],horizontal,"(890.0, 762.0)",,"('cti', 0.555)",0,4378.236,0,0.06,same
0,260,catch,"[(1159, 795)]",[],[1],[],horizontal,"(390.0, 262.0)",1.7,nan,1,4381.777,1,0.06,same
0,261,valid,"[(1178, 823)]",[],[1],[0.48333333333333334],vertical,"(890.0, 762.0)",1.5,0.443,1,4386.664,1,0.06,same
0,262,valid,"[(1159, 776)]",[],[1],[0.48333333333333334],vertical,"(390.0, 762.0)",0.6666666666666666,0.444,1,4392.246,1,0.04,same
0,263,catch,"[(1156, 789)]",[],[1],[],horizontal,"(890.0, 762.0)",1.7,nan,1,4396.713,2,0.04,same
0,264,valid,"[(1171, 772)]",[],[1],[0.43333333333333335],vertical,"(890.0, 762.0)",0.5833333333333334,0.394,1,4402.631,2,0.04,same
0,265,valid,"[(1136, 828)]",[],[1],[0.48333333333333334],horizontal,"(390.0, 762.0)",0.6833333333333333,0.441,1,4407.392,2,0.04,same
0,266,invalid_same_bar,"[(1172, 791)]",[],[1],[0.5],vertical,"(390.0, 262.0)",0.65,0.46,1,4412.513,3,0.04,same
0,267,invalid_adjacent_other_bar,"[(1159, 800)]",[],[1],[0.55],vertical,"(890.0, 762.0)",0.85,0.514,1,4418.296,3,0.04,other
0,268,valid,"[(1170, 799)]",[],[1],[0.43333333333333335],vertical,"(890.0, 262.0)",0.65,0.393,1,4423.665,3,0.04,same
0,269,valid,"[(1160, 795)]",[],[1],[0.45],vertical,"(890.0, 262.0)",1.1666666666666667,0.41,1,4429.196,3,0.04,same
0,270,catch,"[(1173, 797)]",[],[1],[],horizontal,"(890.0, 262.0)",1.7,nan,1,4435.296,3,0.04,same
0,271,catch,"[(1160, 789)]",[],[1],[],horizontal,"(890.0, 762.0)",1.7,nan,1,4441.461,3,0.04,same
0,272,valid,"[(1171, 802)]",[],[1],[0.6833333333333333],horizontal,"(390.0, 762.0)",1.0833333333333333,0.642,1,4447.377,3,0.04,same
0,273,valid,"[(1160, 778)]",[],[1],[0.5],vertical,"(390.0, 262.0)",0.9166666666666666,0.464,1,4453.379,3,0.04,same
0,274,valid,"[(1175, 801)]",[],[1],[0.43333333333333335],horizontal,"(390.0, 262.0)",0.55,0.4,1,4458.877,3,0.02,same
0,275,valid,"[(1161, 777)]",[],[1],[0.5666666666666667],vertical,"(390.0, 262.0)",1.2666666666666666,0.518,1,4464.097,3,0.02,same
0,276,valid,"[(1174, 782)]",[],[1],[0.85],vertical,"(390.0, 262.0)",1.3333333333333333,nan,0,4469.945,0,0.02,same
0,277,invalid_adjacent_other_bar,"[(1154, 792)]",[],[1],[0.85],vertical,"(390.0, 762.0)",0.8833333333333333,nan,0,4474.98,0,0.02,other
0,278,valid,"[(1160, 783)]",[],[1],[0.5333333333333333],horizontal,"(390.0, 762.0)",1.3833333333333333,0.489,1,4479.679,1,0.02,same
0,279,catch,"[(1165, 786)]",[],[1],[],horizontal,"(890.0, 262.0)",1.7,nan,1,4484.801,1,0.02,same
0,280,valid,"[(1175, 806)]",[],[1],[0.4666666666666667],vertical,"(890.0, 762.0)",0.6333333333333333,0.426,1,4490.142,1,0.02,same
0,281,catch,"[(1175, 799)]",[],[1],[],vertical,"(390.0, 262.0)",1.7,nan,1,4494.993,2,0.02,same
0,282,valid,"[(1156, 774)]",[],[1],[0.55],vertical,"(390.0, 262.0)",0.7666666666666666,0.518,1,4500.84,2,0.02,same
0,283,valid,"[(1177, 784)]",[],[1],[0.48333333333333334],horizontal,"(890.0, 262.0)",1.5333333333333332,0.447,1,4506.333,2,0.02,same
0,284,valid,"[(1146, 790)]",[],[1],[0.48333333333333334],vertical,"(890.0, 262.0)",0.8333333333333334,0.456,1,4512.36,3,0.02,same
0,285,catch,"[(1172, 777)]",[],[1],[],horizontal,"(890.0, 262.0)",1.7,nan,1,4517.777,3,0.02,same
0,286,valid,"[(1180, 781)]",[],[1],[0.45],horizontal,"(390.0, 262.0)",0.7166666666666667,0.422,1,4523.927,3,0.02,same
0,287,catch,"[(1161, 794)]",[],[1],[],horizontal,"(890.0, 262.0)",,"('cti', 0.747),nan",0,4529.118,0,0.04,same
0,288,invalid_adjacent_other_bar,"[(1137, 802)]",[],[1],[0.4666666666666667],horizontal,"(390.0, 262.0)",0.6833333333333333,0.428,1,4533.213,1,0.04,other
0,289,valid,"[(1175, 777)]",[],[1],[],vertical,"(390.0, 262.0)",,"('cti', 0.277)",0,4537.488,0,0.04,same
0,290,valid,"[(1161, 787)]",[],[1],[0.5166666666666666],vertical,"(890.0, 762.0)",1.0333333333333332,0.478,1,4540.709,1,0.04,same
0,291,catch,"[(1175, 819)]",[],[1],[],horizontal,"(390.0, 262.0)",1.7,nan,1,4545.879,1,0.04,same
0,292,valid,"[(1160, 777)]",[],[1],[0.5],vertical,"(390.0, 262.0)",0.5166666666666666,0.467,1,4551.645,1,0.04,same
0,293,valid,"[(1175, 794)]",[],[1],[0.5166666666666666],horizontal,"(890.0, 262.0)",0.6,0.478,1,4556.065,2,0.04,same
0,294,valid,"[(1161, 775)]",[],[1],[0.4666666666666667],vertical,"(890.0, 762.0)",0.35,0.425,1,4560.65,2,0.04,same
0,295,catch,"[(1133, 802)]",[],[1],[],vertical,"(890.0, 262.0)",1.7,nan,1,4565.263,2,0.04,same
0,296,invalid_adjacent_other_bar,"[(1170, 808)]",[],[1],[0.5166666666666666],horizontal,"(890.0, 762.0)",1.0833333333333333,0.487,1,4571.493,3,0.04,other
0,297,valid,"[(1159, 790)]",[],[1],[0.5666666666666667],horizontal,"(890.0, 262.0)",0.85,0.535,1,4577.395,3,0.04,same
0,298,catch,"[(1177, 784)]",[],[1],[],vertical,"(390.0, 762.0)",1.7,nan,1,4583.197,3,0.04,same
0,299,valid,"[(1175, 792)]",[],[1],[0.45],vertical,"(890.0, 262.0)",0.4666666666666667,0.416,1,4589.153,3,0.04,same
0,300,catch,"[(1174, 783)]",[],[1],[],horizontal,"(890.0, 262.0)",,"('cti', 1.288),nan",0,4594.3,0,0.06,same
0,301,valid,"[(1132, 790)]",[],[1],[0.65],horizontal,"(890.0, 262.0)",0.43333333333333335,0.609,1,4598.633,1,0.06,same
0,302,valid,"[(1137, 797)]",[],[1],[0.5],vertical,"(890.0, 762.0)",1.3666666666666667,0.46,1,4603.48,1,0.06,same
0,303,invalid_same_bar,"[(1159, 808)]",[],[1],[0.5333333333333333],horizontal,"(390.0, 762.0)",1.0166666666666666,0.508,1,4609.02,1,0.06,same
0,304,valid,"[(1160, 808)]",[],[1],[0.85],horizontal,"(890.0, 762.0)",1.05,nan,0,4613.866,0,0.06,same
0,305,catch,"[(1143, 786)]",[],[1],[],horizontal,"(390.0, 262.0)",1.7,nan,1,4618.611,1,0.06,same
0,306,catch,"[(1173, 803)]",[],[1],[],vertical,"(890.0, 762.0)",1.7,nan,1,4624.03,1,0.06,same
0,307,valid,"[(1160, 820)]",[],[1],[0.45],horizontal,"(390.0, 262.0)",0.6,0.408,1,4629.246,1,0.04,same
0,308,valid,"[(1170, 813)]",[],[1],[0.5666666666666667],vertical,"(390.0, 762.0)",1.2833333333333332,0.524,1,4634.214,2,0.04,same
0,309,invalid_same_bar,"[(1167, 791)]",[],[1],[0.6333333333333333],horizontal,"(890.0, 262.0)",0.5333333333333333,0.59,1,4640.079,2,0.04,same
0,310,catch,"[(1167, 774)]",[],[1],[],horizontal,"(890.0, 762.0)",,"('cti', 0.98),nan",0,4644.62,0,0.06,same
0,311,catch,"[(1160, 798)]",[],[1],[],vertical,"(890.0, 262.0)",1.7,nan,1,4649.063,1,0.06,same
0,312,catch,"[(1176, 784)]",[],[1],[],vertical,"(890.0, 262.0)",1.7,nan,1,4654.496,1,0.06,same
0,313,catch,"[(1158, 774)]",[],[1],[],vertical,"(390.0, 262.0)",1.7,nan,1,4659.314,1,0.06,same
0,314,catch,"[(1177, 804)]",[],[1],[],horizontal,"(390.0, 262.0)",1.7,nan,1,4664.448,2,0.06,same
0,315,valid,"[(1165, 810)]",[],[1],[0.5666666666666667],vertical,"(390.0, 762.0)",1.3666666666666667,0.525,1,4670.446,2,0.06,same
0,316,valid,"[(1175, 783)]",[],[1],[0.45],vertical,"(390.0, 262.0)",0.36666666666666664,0.408,1,4676.347,2,0.06,same
0,317,valid,"[(1158, 813)]",[],[1],[0.6333333333333333],horizontal,"(390.0, 262.0)",1.4666666666666666,0.59,1,4681.402,3,0.06,same
0,318,valid,"[(1170, 802)]",[],[1],[0.48333333333333334],horizontal,"(890.0, 762.0)",1.1166666666666667,0.445,1,4687.815,3,0.06,same
0,319,catch,"[(1158, 817)]",[],[1],[],vertical,"(890.0, 262.0)",1.7,nan,1,4693.829,3,0.06,same
0,320,valid,"[(1170, 786)]",[],[1],[0.5166666666666666],horizontal,"(890.0, 762.0)",0.4,0.477,1,4700.074,3,0.06,same
0,321,valid,"[(1158, 804)]",[],[1],[0.6833333333333333],vertical,"(390.0, 762.0)",0.5666666666666667,0.645,1,4705.481,3,0.06,same
0,322,valid,"[(1175, 786)]",[],[1],[0.6833333333333333],vertical,"(890.0, 762.0)",1.5166666666666666,0.636,1,4711.23,3,0.06,same
0,323,valid,"[(1178, 771)]",[],[1],[0.85],horizontal,"(390.0, 762.0)",0.36666666666666664,nan,0,4717.612,0,0.06,same
0,324,valid,"[(1158, 794)]",[],[1],[0.5166666666666666],vertical,"(890.0, 762.0)",1.0166666666666666,0.474,1,4721.497,1,0.06,same
0,325,valid,"[(1175, 802)]",[],[1],[0.5],vertical,"(390.0, 762.0)",1.05,0.461,1,4726.82,1,0.06,same
0,326,invalid_same_bar,"[(1159, 779)]",[],[1],[0.5166666666666666],horizontal,"(390.0, 762.0)",0.85,0.482,1,4732.162,1,0.06,same
0,327,catch,"[(1138, 789)]",[],[1],[],vertical,"(890.0, 762.0)",1.7,nan,1,4737.278,2,0.06,same
0,328,valid,"[(1170, 783)]",[],[1],[0.85],vertical,"(390.0, 762.0)",0.36666666666666664,nan,0,4742.697,0,0.06,same
0,329,valid,"[(1134, 781)]",[],[1],[0.6666666666666666],vertical,"(890.0, 762.0)",0.7166666666666667,0.625,1,4746.728,1,0.06,same
0,330,valid,"[(1160, 788)]",[],[1],[0.5166666666666666],vertical,"(390.0, 762.0)",1.5166666666666666,0.476,1,4751.729,1,0.06,same
0,331,valid,"[(1160, 791)]",[],[1],[0.7],vertical,"(390.0, 262.0)",1.4333333333333333,0.655,1,4757.297,1,0.06,same
0,332,catch,"[(1175, 778)]",[],[1],[],vertical,"(890.0, 762.0)",1.7,nan,1,4762.947,2,0.06,same
0,333,catch,"[(1180, 788)]",[],[1],[],horizontal,"(390.0, 762.0)",1.7,nan,1,4768.346,2,0.06,same
0,334,catch,"[(1161, 813)]",[],[1],[],vertical,"(890.0, 762.0)",,"('fix', 0.427),nan",0,4774.199,0,0.08,same
0,335,valid,"[(1117, 799)]",[],[1],[0.85],vertical,"(390.0, 262.0)",0.9333333333333333,nan,0,4776.513,0,0.08,same
0,336,valid,"[(1136, 798)]",[],[1],[0.55],horizontal,"(390.0, 262.0)",1.1,0.508,1,4781.079,1,0.08,same
0,337,valid,"[(1155, 782)]",[],[1],[0.5666666666666667],horizontal,"(390.0, 762.0)",0.4,0.531,1,4785.783,1,0.06,same
0,338,valid,"[(1180, 796)]",[],[1],[0.5333333333333333],horizontal,"(390.0, 262.0)",1.3833333333333333,0.496,1,4790.114,1,0.06,same
0,339,valid,"[(1155, 806)]",[],[1],[0.48333333333333334],horizontal,"(890.0, 762.0)",1.0166666666666666,0.443,1,4795.645,2,0.06,same
0,340,valid,"[(1158, 771)]",[],[1],[0.5333333333333333],horizontal,"(390.0, 262.0)",1.05,0.494,1,4800.881,2,0.06,same
0,341,valid,"[(1177, 777)]",[],[1],[0.5333333333333333],vertical,"(890.0, 262.0)",1.5166666666666666,0.493,1,4806.48,2,0.06,same
0,342,valid,"[(1134, 822)]",[],[1],[0.5666666666666667],vertical,"(890.0, 262.0)",0.45,0.524,1,4812.3,3,0.06,same
0,343,valid,"[(1130, 799)]",[],[1],[0.85],vertical,"(890.0, 262.0)",0.7166666666666667,nan,0,4817.668,0,0.06,same
0,344,valid,"[(1155, 838)]",[],[1],[0.7333333333333333],vertical,"(390.0, 762.0)",0.5166666666666666,0.692,1,4822.09,1,0.06,same
0,345,valid,"[(1165, 803)]",[],[1],[0.45],horizontal,"(890.0, 262.0)",1.4166666666666667,0.414,1,4876.713,1,0.06,same
0,346,valid,"[(1155, 782)]",[],[1],[0.7333333333333333],vertical,"(390.0, 262.0)",0.95,0.681,1,4882.098,1,0.06,same
0,347,invalid_adjacent_other_bar,"[(1158, 809)]",[],[1],[0.5166666666666666],horizontal,"(390.0, 762.0)",0.8833333333333333,0.481,1,4887.347,2,0.06,other
0,348,catch,"[(1127, 830)]",[],[1],[],horizontal,"(390.0, 762.0)",1.7,nan,1,4892.431,2,0.06,same
0,349,invalid_same_bar,"[(1168, 782)]",[],[1],[0.85],vertical,"(390.0, 762.0)",0.3833333333333333,nan,0,4897.965,0,0.06,same
0,350,valid,"[(1160, 805)]",[],[1],[0.5833333333333334],horizontal,"(390.0, 262.0)",1.0166666666666666,0.537,1,4902.331,1,0.04,same
0,351,catch,"[(1177, 790)]",[],[1],[],horizontal,"(890.0, 762.0)",1.7,nan,1,4907.481,1,0.04,same
0,352,valid,"[(1178, 767)]",[],[1],[0.5666666666666667],horizontal,"(390.0, 762.0)",1.0166666666666666,0.526,1,4912.775,1,0.04,same
0,353,valid,"[(1175, 808)]",[],[1],[0.48333333333333334],vertical,"(890.0, 262.0)",1.3666666666666667,0.445,1,4917.864,2,0.04,same
0,354,valid,"[(1152, 765)]",[],[1],[0.48333333333333334],horizontal,"(390.0, 262.0)",0.9166666666666666,0.443,1,4923.764,2,0.04,same
0,355,catch,"[(1177, 791)]",[],[1],[],vertical,"(390.0, 762.0)",,"('cti', 1.404),nan",0,4929.057,0,0.06,same
0,356,valid,"[(1155, 799)]",[],[1],[0.5],horizontal,"(390.0, 762.0)",0.5166666666666666,0.462,1,4933.398,1,0.06,same
0,357,catch,"[(1155, 769)]",[],[1],[],vertical,"(890.0, 762.0)",1.7,nan,1,4937.981,1,0.06,same
0,358,valid,"[(1132, 821)]",[],[1],[0.5833333333333334],horizontal,"(390.0, 762.0)",0.5833333333333334,0.544,1,4942.919,1,0.06,same
0,359,valid,"[(1169, 782)]",[],[1],[0.48333333333333334],vertical,"(890.0, 762.0)",1.55,0.439,1,4948.327,2,0.06,same
0,360,valid,"[(1155, 813)]",[],[1],[0.85],horizontal,"(390.0, 762.0)",0.7166666666666667,nan,0,4954.48,0,0.04,same
0,361,valid,"[(1139, 811)]",[],[1],[0.45],horizontal,"(890.0, 762.0)",1.15,0.415,1,4958.84,1,0.04,same
0,362,valid,"[(1157, 779)]",[],[1],[0.5],horizontal,"(890.0, 762.0)",0.5333333333333333,0.454,1,4964.231,1,0.04,same
0,363,catch,"[(1156, 829)]",[],[1],[],horizontal,"(890.0, 262.0)",1.7,nan,1,4968.763,1,0.04,same
0,364,catch,"[(1131, 818)]",[],[1],[],vertical,"(390.0, 262.0)",1.7,nan,1,4974.224,2,0.04,same
0,365,catch,"[(1173, 800)]",[],[1],[],horizontal,"(390.0, 762.0)",1.7,nan,1,4987.004,2,0.04,same
0,366,catch,"[(1176, 801)]",[],[1],[],vertical,"(890.0, 262.0)",1.7,nan,1,4992.647,2,0.04,same
0,367,valid,"[(1158, 792)]",[],[1],[0.5],vertical,"(890.0, 262.0)",1.3,0.46,1,4998.648,3,0.04,same
0,368,valid,"[(1176, 797)]",[],[1],[0.5333333333333333],horizontal,"(890.0, 262.0)",1.0333333333333332,0.493,1,5004.808,3,0.04,same
0,369,valid,"[(1171, 763)]",[],[1],[0.85],vertical,"(390.0, 262.0)",0.6333333333333333,nan,0,5010.465,0,0.04,same
0,370,valid,"[(1131, 784)]",[],[1],[0.5666666666666667],horizontal,"(890.0, 262.0)",0.45,0.53,1,5014.732,1,0.04,same
0,371,invalid_adjacent_other_bar,"[(1175, 771)]",[],[1],[0.5166666666666666],horizontal,"(890.0, 262.0)",1.0166666666666666,0.471,1,5018.998,1,0.04,other
0,372,valid,"[(1103, 783)]",[],[1],[0.55],horizontal,"(390.0, 762.0)",1.0333333333333332,0.51,1,5023.637,1,0.04,same
0,373,valid,"[(1166, 792)]",[],[1],[0.65],horizontal,"(890.0, 762.0)",0.6666666666666666,0.605,1,5036.548,2,0.04,same
0,374,valid,"[(1180, 802)]",[],[1],[0.5],horizontal,"(890.0, 262.0)",1.4833333333333334,0.458,1,5041.525,2,0.04,same
0,375,valid,"[(1176, 786)]",[],[1],[0.5],vertical,"(890.0, 262.0)",1.0833333333333333,0.465,1,5047.648,2,0.04,same
0,376,catch,"[(1155, 808)]",[],[1],[],vertical,"(390.0, 762.0)",1.7,nan,1,5053.365,3,0.04,same
0,377,catch,"[(1157, 828)]",[],[1],[],vertical,"(390.0, 262.0)",1.7,nan,1,5059.698,3,0.04,same
0,378,valid,"[(1121, 794)]",[],[1],[0.5],vertical,"(390.0, 762.0)",1.5166666666666666,0.465,1,5066.331,3,0.04,same
0,379,valid,"[(1182, 782)]","[(1066, 859)]",[1],[0.26666666666666666],vertical,"(890.0, 262.0)",,"('bar', 0.28)",0,5072.905,0,0.04,same
0,380,valid,"[(1136, 809)]",[],[1],[0.45],vertical,"(890.0, 762.0)",1.2666666666666666,0.41,1,5075.382,1,0.04,same
0,381,valid,"[(1174, 789)]",[],[1],[0.5],vertical,"(890.0, 762.0)",0.5166666666666666,0.461,1,5081.058,1,0.04,same
0,382,invalid_adjacent_other_bar,"[(1175, 791)]",[],[1],[0.4],vertical,"(890.0, 262.0)",0.95,0.36,1,5085.448,1,0.04,other
0,383,valid,"[(1160, 781)]",[],[1],[0.5],vertical,"(390.0, 262.0)",1.5,0.465,1,5090.198,2,0.04,same
0,384,valid,"[(1159, 785)]",[],[1],[0.55],horizontal,"(390.0, 762.0)",0.9333333333333333,0.51,1,5096.298,2,0.02,same
0,385,catch,"[(1175, 774)]",[],[1],[],vertical,"(890.0, 762.0)",1.7,nan,1,5101.851,2,0.02,same
0,386,catch,"[(1170, 803)]","[(1080, 869)]",[1],[0.6833333333333333],vertical,"(890.0, 262.0)",,"('bar', 0.687),nan",0,5107.439,0,0.04,same
0,387,valid,"[(1101, 794)]",[],[1],[0.5],horizontal,"(890.0, 762.0)",1.3166666666666667,0.459,1,5110.415,1,0.04,same
0,388,catch,"[(1175, 761)]",[],[1],[],vertical,"(390.0, 762.0)",1.7,nan,1,5125.7,1,0.04,same
0,389,catch,"[(1181, 789)]",[],[1],[],vertical,"(890.0, 262.0)",,"('cti', 1.674),nan",0,5130.941,0,0.06,same
0,390,catch,"[(1134, 803)]",[],[1],[],vertical,"(890.0, 762.0)",1.7,nan,1,5135.554,1,0.06,same
0,391,valid,"[(1204, 809)]",[],[1],[0.4666666666666667],vertical,"(890.0, 762.0)",1.45,0.425,1,5141.005,1,0.06,same
0,392,valid,"[(1192, 781)]",[],[1],[0.48333333333333334],horizontal,"(890.0, 262.0)",0.8,0.443,1,5146.284,1,0.06,same
0,393,valid,"[(1171, 817)]",[],[1],[0.55],vertical,"(390.0, 762.0)",0.9833333333333333,0.507,1,5150.844,2,0.06,same
0,394,valid,"[(1158, 782)]",[],[1],[0.48333333333333334],vertical,"(890.0, 762.0)",1.3333333333333333,0.443,1,5156.716,2,0.06,same
0,395,catch,"[(1128, 781)]",[],[1],[],vertical,"(890.0, 262.0)",1.7,nan,1,5162.109,2,0.06,same
0,396,valid,"[(1158, 789)]",[],[1],[0.55],horizontal,"(390.0, 762.0)",0.5,0.507,1,5167.484,3,0.06,same
0,397,valid,"[(1160, 799)]",[],[1],[0.85],vertical,"(390.0, 762.0)",0.5666666666666667,nan,0,5173.198,0,0.06,same
0,398,valid,"[(1125, 792)]",[],[1],[0.5166666666666666],horizontal,"(890.0, 262.0)",0.95,0.478,1,5177.601,1,0.06,same
0,399,valid,"[(1141, 819)]",[],[1],[0.4666666666666667],horizontal,"(390.0, 262.0)",1.1,0.43,1,5182.682,1,0.06,same
0,400,valid,"[(1171, 795)]",[],[1],[0.6333333333333333],vertical,"(890.0, 762.0)",1.5166666666666666,0.589,1,5187.632,1,0.06,same
0,401,valid,"[(1107, 846)]",[],[1],[0.85],horizontal,"(390.0, 762.0)",0.8166666666666667,nan,0,5192.925,0,0.06,same
0,402,invalid_same_bar,"[(1157, 779)]",[],[1],[0.55],vertical,"(890.0, 262.0)",0.5833333333333334,0.503,1,5197.424,1,0.06,same
0,403,invalid_same_bar,"[(1173, 793)]",[],[1],[0.65],horizontal,"(390.0, 262.0)",0.5666666666666667,0.602,1,5201.618,1,0.06,same
0,404,valid,"[(1169, 800)]",[],[1],[0.85],vertical,"(890.0, 762.0)",0.5833333333333334,nan,0,5206.082,0,0.06,same
0,405,valid,"[(1135, 813)]",[],[1],[0.5833333333333334],vertical,"(390.0, 262.0)",1.1833333333333333,0.538,1,5210.812,1,0.04,same
0,406,valid,"[(1178, 781)]",[],[1],[0.6333333333333333],vertical,"(890.0, 262.0)",0.5833333333333334,0.593,1,5215.948,1,0.04,same
0,407,valid,"[(1173, 819)]",[],[1],[0.5666666666666667],horizontal,"(390.0, 262.0)",1.4333333333333333,0.526,1,5220.802,1,0.04,same
0,408,invalid_same_bar,"[(1180, 776)]",[],[1],[0.5333333333333333],vertical,"(890.0, 262.0)",0.5666666666666667,0.488,1,5225.882,2,0.04,same
0,409,catch,"[(1194, 800)]",[],[1],[],horizontal,"(390.0, 762.0)",1.7,nan,1,5231.008,2,0.04,same
0,410,valid,"[(1159, 823)]",[],[1],[0.4666666666666667],horizontal,"(890.0, 762.0)",0.6,0.427,1,5236.731,2,0.04,same
0,411,valid,"[(1171, 786)]",[],[1],[0.5666666666666667],horizontal,"(390.0, 262.0)",0.4166666666666667,0.524,1,5241.965,3,0.04,same
0,412,catch,"[(1169, 779)]",[],[1],[],vertical,"(890.0, 262.0)",1.7,nan,1,5247.365,3,0.04,same
0,413,catch,"[(1165, 770)]",[],[1],[],vertical,"(890.0, 762.0)",1.7,nan,1,5253.117,3,0.04,same
0,414,catch,"[(1183, 789)]",[],[1],[],vertical,"(390.0, 262.0)",1.7,nan,1,5259.124,3,0.04,same
0,415,valid,"[(1160, 776)]",[],[1],[0.6333333333333333],horizontal,"(890.0, 762.0)",0.65,0.59,1,5265.063,3,0.04,same
0,416,catch,"[(1194, 783)]",[],[1],[],horizontal,"(890.0, 262.0)",1.7,nan,1,5270.715,3,0.04,same
0,417,valid,"[(1175, 795)]",[],[1],[0.4666666666666667],vertical,"(890.0, 262.0)",0.9166666666666666,0.421,1,5276.722,3,0.04,same
0,418,valid,"[(1175, 795)]",[],[1],[0.5833333333333334],horizontal,"(390.0, 262.0)",1.45,0.543,1,5282.266,3,0.04,same
0,419,valid,"[(1171, 789)]",[],[1],[0.48333333333333334],horizontal,"(890.0, 762.0)",0.5833333333333334,0.443,1,5288.414,3,0.04,same
0,420,valid,"[(1170, 802)]",[],[1],[0.65],horizontal,"(390.0, 262.0)",1.5166666666666666,0.61,1,5294.124,3,0.04,same
0,421,valid,"[(1173, 774)]",[],[1],[0.4666666666666667],horizontal,"(890.0, 262.0)",0.9166666666666666,0.433,1,5300.349,3,0.04,same
0,422,valid,"[(1176, 787)]",[],[1],[0.48333333333333334],horizontal,"(390.0, 262.0)",0.35,0.442,1,5306.05,3,0.04,same
0,423,valid,"[(1159, 775)]",[],[1],[0.6],vertical,"(890.0, 262.0)",1.4333333333333333,0.553,1,5310.765,3,0.04,same
0,424,valid,"[(1162, 773)]",[],[1],[0.85],horizontal,"(390.0, 762.0)",0.8,nan,0,5316.75,0,0.04,same
0,425,catch,"[(1121, 781)]",[],[1],[],horizontal,"(890.0, 762.0)",1.7,nan,1,5321.282,1,0.04,same
0,426,valid,"[(1176, 783)]",[],[1],[0.55],horizontal,"(890.0, 262.0)",1.15,0.511,1,5326.549,1,0.04,same
0,427,valid,"[(1173, 804)]",[],[1],[0.5166666666666666],vertical,"(890.0, 762.0)",1.35,0.473,1,5331.846,1,0.04,same
0,428,valid,"[(1160, 785)]",[],[1],[0.48333333333333334],horizontal,"(890.0, 762.0)",1.2,0.439,1,5337.064,2,0.04,same
0,429,valid,"[(1165, 814)]",[],[1],[0.85],horizontal,"(390.0, 262.0)",1.4666666666666666,nan,0,5342.752,0,0.04,same
0,430,catch,"[(1146, 794)]",[],[1],[],horizontal,"(390.0, 262.0)",1.7,nan,1,5347.765,1,0.04,same
0,431,catch,"[(1141, 779)]",[],[1],[],vertical,"(890.0, 762.0)",1.7,nan,1,5353.132,1,0.04,same
0,432,catch,"[(1183, 763)]",[],[1],[],horizontal,"(890.0, 762.0)",1.7,nan,1,5358.524,1,0.04,same
0,433,valid,"[(1160, 787)]",[],[1],[0.6333333333333333],horizontal,"(890.0, 762.0)",1.45,0.591,1,5363.766,2,0.04,same
0,434,valid,"[(1165, 798)]",[],[1],[0.5833333333333334],vertical,"(390.0, 762.0)",1.0166666666666666,0.541,1,5369.481,2,0.04,same
0,435,valid,"[(1165, 813)]",[],[1],[0.4666666666666667],vertical,"(890.0, 262.0)",1.2,0.427,1,5374.969,2,0.04,same
0,436,catch,"[(1170, 794)]",[],[1],[],vertical,"(390.0, 762.0)",1.7,nan,1,5380.284,3,0.02,same
0,437,catch,"[(1180, 783)]",[],[1],[],horizontal,"(890.0, 262.0)",,"('fix', 0.3),nan",0,5386.593,0,0.04,same
0,438,valid,"[(1150, 779)]",[],[1],[0.45],horizontal,"(890.0, 262.0)",0.5833333333333334,0.411,1,5388.452,1,0.04,same
0,439,catch,"[(1160, 805)]",[],[1],[],vertical,"(890.0, 262.0)",1.7,nan,1,5393.178,1,0.02,same
0,440,valid,"[(1131, 789)]",[],[1],[0.4166666666666667],horizontal,"(390.0, 762.0)",1.2333333333333334,0.378,1,5398.598,1,0.02,same
0,441,valid,"[(1137, 794)]",[],[1],[0.5833333333333334],horizontal,"(390.0, 262.0)",1.2166666666666666,0.541,1,5403.871,2,0.02,same
0,442,valid,"[(1173, 803)]",[],[1],[0.5],vertical,"(890.0, 762.0)",0.48333333333333334,0.458,1,5409.615,2,0.02,same
0,443,valid,"[(1195, 781)]",[],[1],[0.7],vertical,"(890.0, 762.0)",0.9833333333333333,0.652,1,5414.781,2,0.02,same
0,444,valid,"[(1161, 790)]",[],[1],[0.5166666666666666],vertical,"(890.0, 762.0)",1.4333333333333333,0.474,1,5420.266,3,0.02,same
0,445,catch,"[(1159, 782)]",[],[1],[],vertical,"(390.0, 762.0)",1.7,nan,1,5427.098,3,0.02,same
0,446,invalid_adjacent_other_bar,"[(1182, 799)]",[],[1],[],vertical,"(890.0, 262.0)",,"('fix', 0.401)",0,5432.942,0,0.02,other
0,447,invalid_same_bar,"[(1136, 816)]",[],[1],[0.6],horizontal,"(390.0, 762.0)",1.45,0.558,1,5434.915,1,0.02,same
0,448,valid,"[(1172, 788), (1082, 849)]",[],"[1, 1]",[0.5166666666666666],horizontal,"(390.0, 262.0)",0.4166666666666667,"('fix', 0.496),0.472",1,5440.195,1,0.02,same
0,449,valid,"[(1156, 803)]",[],[1],[0.6166666666666667],horizontal,"(890.0, 262.0)",0.9833333333333333,0.569,1,5444.504,1,0.02,same
0,450,catch,"[(1157, 802)]",[],[1],[],horizontal,"(390.0, 262.0)",1.7,nan,1,5449.649,2,0.02,same
0,451,valid,"[(1158, 787)]",[],[1],[0.5166666666666666],vertical,"(890.0, 262.0)",1.5166666666666666,0.478,1,5455.881,2,0.02,same
0,452,catch,"[(1175, 780)]",[],[1],[],horizontal,"(890.0, 762.0)",1.7,nan,1,5461.766,2,0.02,same
0,453,valid,"[(1160, 794)]",[],[1],[0.5333333333333333],horizontal,"(390.0, 262.0)",1.2166666666666666,0.495,1,5467.938,3,0.02,same
0,454,valid,"[(1177, 779)]",[],[1],[0.85],vertical,"(390.0, 262.0)",0.8,nan,0,5474.337,0,0.02,same
0,455,invalid_adjacent_other_bar,"[(1136, 779)]",[],[1],[0.5333333333333333],vertical,"(890.0, 762.0)",0.7166666666666667,0.489,1,5479.032,1,0.02,other
0,456,valid,"[(1198, 797)]",[],[1],[],horizontal,"(890.0, 262.0)",,"('fix', 0.368)",0,5484.088,0,0.02,same
0,457,valid,"[(1151, 793)]",[],[1],[0.5],horizontal,"(890.0, 762.0)",0.6333333333333333,0.459,1,5486.116,1,0.02,same
0,458,valid,"[(1177, 787)]",[],[1],[0.6],horizontal,"(890.0, 262.0)",0.65,0.559,1,5491.178,1,0.02,same
0,459,valid,"[(1160, 816)]",[],[1],[0.5166666666666666],vertical,"(890.0, 762.0)",1.45,0.482,1,5496.2,1,0.02,same
0,460,valid,"[(1165, 816)]",[],[1],[0.6666666666666666],vertical,"(390.0, 262.0)",1.3666666666666667,0.626,1,5501.608,2,0.02,same
0,461,valid,"[(1172, 796)]",[],[1],[0.45],vertical,"(890.0, 262.0)",0.6666666666666666,0.409,1,5508.064,2,0.02,same
0,462,valid,"[(1156, 788)]",[],[1],[0.6666666666666666],vertical,"(390.0, 262.0)",1.5,0.62,1,5513.283,2,0.02,same
0,463,valid,"[(1155, 833)]",[],[1],[0.6166666666666667],horizontal,"(890.0, 262.0)",0.6833333333333333,0.575,1,5519.146,3,0.02,same
0,464,valid,"[(1173, 816)]",[],[1],[0.5166666666666666],vertical,"(890.0, 262.0)",0.6166666666666667,0.478,1,5525.016,3,0.02,same
0,465,valid,"[(1121, 820)]",[],[1],[0.6333333333333333],vertical,"(390.0, 762.0)",0.6666666666666666,0.594,1,5530.35,3,0.02,same
0,466,valid,"[(1095, 898)]","[(1088, 896)]",[1],[0.2833333333333333],vertical,"(890.0, 262.0)",,"('bar', 0.301)",0,5535.716,0,0.02,same
0,467,valid,"[(1136, 818)]","[(1077, 874)]",[1],[0.5333333333333333],vertical,"(390.0, 262.0)",,"('bar', 0.544)",0,6685.036,0,0.02,same
0,468,catch,"[(1123, 773)]",[],[1],[],horizontal,"(890.0, 762.0)",,"('cti', 1.567),nan",0,6687.862,0,0.04,same
0,469,valid,"[(1136, 815)]",[],[1],[],horizontal,"(890.0, 262.0)",,"('fix', 0.169)",0,6700.278,0,0.04,same
0,470,valid,"[(1142, 821)]",[],[1],[0.48333333333333334],vertical,"(390.0, 762.0)",0.35,0.442,1,6704.621,1,0.04,same
0,471,valid,"[(1163, 797)]","[(1156, 865)]",[1],[0.6333333333333333],vertical,"(890.0, 762.0)",,"('bar', 0.643)",0,6709.301,0,0.04,same
0,472,valid,"[(1119, 835)]",[],[1],[0.45],vertical,"(890.0, 262.0)",0.55,0.412,1,6712.067,1,0.04,same
0,473,valid,"[(1171, 808)]",[],[1],[0.4666666666666667],vertical,"(890.0, 762.0)",0.95,0.428,1,6717.769,1,0.04,same
0,474,valid,"[(1165, 795)]",[],[1],[0.5333333333333333],horizontal,"(890.0, 762.0)",0.7666666666666666,0.492,1,6722.886,1,0.04,same
0,475,valid,"[(1167, 814)]",[],[1],[0.43333333333333335],vertical,"(890.0, 262.0)",0.8333333333333334,0.392,1,6727.753,2,0.04,same
0,476,valid,"[(1118, 875)]",[],[1],[0.5],horizontal,"(390.0, 762.0)",0.6,0.458,1,6732.802,2,0.04,same
0,477,catch,"[(1160, 815)]",[],[1],[],vertical,"(390.0, 762.0)",1.7,nan,1,6738.035,2,0.04,same
0,478,valid,"[(1171, 804)]",[],[1],[0.48333333333333334],horizontal,"(390.0, 762.0)",1.4833333333333334,0.442,1,6743.72,3,0.04,same
0,479,invalid_same_bar,"[(1172, 791)]",[],[1],[0.55],horizontal,"(390.0, 762.0)",0.9666666666666667,0.506,1,6750.22,3,0.04,same
0,480,valid,"[(1170, 778)]",[],[1],[0.6333333333333333],horizontal,"(890.0, 762.0)",1.0666666666666667,0.59,1,6755.606,3,0.04,same
0,481,valid,"[(1184, 806)]","[(1169, 820)]",[1],[0.03333333333333333],vertical,"(390.0, 762.0)",,"('bar', 0.05)",0,6761.169,0,0.04,same
0,482,catch,"[(1126, 787)]",[],[1],[],vertical,"(390.0, 762.0)",1.7,nan,1,6763.284,1,0.04,same
0,483,valid,"[(1193, 792)]",[],[1],[0.4666666666666667],horizontal,"(890.0, 762.0)",0.7833333333333333,0.431,1,6768.854,1,0.04,same
0,484,valid,"[(1155, 824)]",[],[1],[0.5],horizontal,"(390.0, 762.0)",1.1333333333333333,0.457,1,6773.902,1,0.04,same
0,485,valid,"[(1180, 808)]",[],[1],[0.45],horizontal,"(390.0, 762.0)",0.6666666666666666,0.407,1,6779.202,2,0.04,same
0,486,catch,"[(1204, 795)]",[],[1],[],vertical,"(390.0, 262.0)",1.7,nan,1,6784.186,2,0.04,same
0,487,valid,"[(1169, 806)]",[],[1],[0.5166666666666666],horizontal,"(390.0, 262.0)",0.8,0.479,1,6789.337,2,0.02,same
0,488,catch,"[(1156, 807)]",[],[1],[],vertical,"(390.0, 262.0)",1.7,nan,1,6794.237,3,0.02,same
0,489,catch,"[(1200, 812)]",[],[1],[],horizontal,"(890.0, 762.0)",,"('fix', 0.54),nan",0,6800.237,0,0.04,same
0,490,valid,"[(1169, 818)]",[],[1],[0.5333333333333333],vertical,"(390.0, 262.0)",0.7166666666666667,0.487,1,6802.263,1,0.04,same
0,491,valid,"[(1176, 789)]",[],[1],[0.48333333333333334],horizontal,"(390.0, 262.0)",1.4666666666666666,0.444,1,6807.002,1,0.04,same
0,492,valid,"[(1176, 818)]",[],[1],[0.6166666666666667],horizontal,"(390.0, 262.0)",0.75,0.572,1,6812.37,1,0.04,same
0,493,valid,"[(1175, 789)]",[],[1],[0.4666666666666667],vertical,"(390.0, 762.0)",0.48333333333333334,0.426,1,6817.133,2,0.04,same
0,494,valid,"[(1192, 796)]",[],[1],[],vertical,"(390.0, 762.0)",,"('fix', 0.479)",0,6821.887,0,0.04,same
0,495,valid,"[(1139, 817)]",[],[1],[0.6],horizontal,"(390.0, 262.0)",1.0333333333333332,0.556,1,6823.87,1,0.04,same
0,496,valid,"[(1166, 799)]",[],[1],[0.45],horizontal,"(390.0, 762.0)",0.35,0.421,1,6829.085,1,0.04,same
0,497,valid,"[(1165, 785)]",[],[1],[0.4666666666666667],vertical,"(890.0, 262.0)",0.5166666666666666,0.426,1,6833.465,1,0.04,same
0,498,valid,"[(1174, 769)]",[],[1],[0.5333333333333333],vertical,"(890.0, 262.0)",1.2666666666666666,0.491,1,6838.428,2,0.04,same
0,499,valid,"[(1172, 784)]",[],[1],[0.5],vertical,"(890.0, 762.0)",0.6333333333333333,0.459,1,6843.72,2,0.04,same
0,500,invalid_same_bar,"[(1180, 782)]",[],[1],[0.5666666666666667],horizontal,"(890.0, 262.0)",1.5333333333333332,0.528,1,6848.919,2,0.04,same
0,501,catch,"[(1170, 808)]",[],[1],[],horizontal,"(390.0, 762.0)",1.7,nan,1,6854.448,3,0.04,same
0,502,valid,"[(1167, 808)]",[],[1],[0.4666666666666667],vertical,"(890.0, 262.0)",0.8,0.425,1,6860.936,3,0.04,same
0,503,valid,"[(1158, 815)]",[],[1],[0.8333333333333334],vertical,"(390.0, 762.0)",1.5333333333333332,0.783,1,6866.424,3,0.04,same
0,504,invalid_adjacent_other_bar,"[(1175, 794)]",[],[1],[0.48333333333333334],vertical,"(890.0, 262.0)",0.75,0.451,1,6872.745,3,0.04,other
0,505,valid,"[(1155, 794)]",[],[1],[0.5666666666666667],vertical,"(390.0, 262.0)",1.3166666666666667,0.532,1,6878.065,3,0.04,same
0,506,valid,"[(1175, 800)]",[],[1],[0.7],horizontal,"(890.0, 762.0)",1.05,0.659,1,6884.404,3,0.04,same
0,507,valid,"[(1185, 802)]",[],[1],[0.5],horizontal,"(890.0, 762.0)",0.5666666666666667,0.46,1,6890.32,3,0.04,same
0,508,invalid_adjacent_other_bar,"[(1156, 784)]",[],[1],[0.6833333333333333],horizontal,"(390.0, 762.0)",0.8833333333333333,0.64,1,6895.469,3,0.04,other
0,509,invalid_adjacent_other_bar,"[(1157, 802)]",[],[1],[0.43333333333333335],horizontal,"(890.0, 762.0)",0.7833333333333333,0.396,1,6901.42,3,0.04,other
0,510,catch,"[(1165, 789)]",[],[1],[],horizontal,"(890.0, 762.0)",1.7,nan,1,6906.552,3,0.04,same
0,511,valid,"[(1170, 783)]",[],[1],[0.5166666666666666],vertical,"(890.0, 762.0)",1.5333333333333332,0.472,1,6912.47,3,0.04,same
0,512,valid,"[(1176, 790)]",[],[1],[0.48333333333333334],horizontal,"(390.0, 262.0)",0.6666666666666666,0.44,1,6918.643,3,0.04,same
0,513,valid,"[(1176, 812)]",[],[1],[0.48333333333333334],vertical,"(890.0, 262.0)",1.2833333333333332,0.449,1,6923.766,3,0.04,same
0,514,invalid_same_bar,"[(1191, 788)]",[],[1],[0.45],vertical,"(890.0, 262.0)",0.9166666666666666,0.411,1,6930.072,3,0.04,same
0,515,catch,"[(1169, 800)]",[],[1],[],horizontal,"(890.0, 762.0)",1.7,nan,1,6935.42,3,0.04,same
0,516,valid,"[(1173, 797)]",[],[1],[0.48333333333333334],vertical,"(890.0, 762.0)",0.45,0.442,1,6941.518,3,0.04,same
0,517,valid,"[(1160, 802)]",[],[1],[0.6833333333333333],vertical,"(390.0, 762.0)",0.9,0.645,1,6946.504,3,0.04,same
0,518,invalid_adjacent_other_bar,"[(1177, 806)]",[],[1],[0.85],horizontal,"(390.0, 262.0)",0.95,nan,0,6952.337,0,0.02,other
0,519,valid,"[(1135, 793)]",[],[1],[0.5166666666666666],vertical,"(390.0, 262.0)",1.0666666666666667,0.475,1,6957.321,1,0.02,same
0,520,valid,"[(1159, 779)]",[],[1],[0.4666666666666667],horizontal,"(390.0, 262.0)",0.9166666666666666,0.43,1,6962.747,1,0.02,same
0,521,invalid_same_bar,"[(1171, 803)]",[],[1],[0.85],horizontal,"(890.0, 762.0)",0.4,nan,0,6967.953,0,0.02,same
0,522,valid,"[(1107, 822)]",[],[1],[0.5],horizontal,"(390.0, 762.0)",1.4666666666666666,0.455,1,6972.254,1,0.02,same
0,523,valid,"[(1172, 789)]",[],[1],[0.85],vertical,"(390.0, 762.0)",0.8,nan,0,6983.299,0,0.02,same
0,524,valid,"[(1146, 811)]",[],[1],[0.4666666666666667],horizontal,"(890.0, 762.0)",1.4833333333333334,0.425,1,6987.994,1,0.02,same
0,525,valid,"[(1167, 810)]",[],[1],[0.6],horizontal,"(390.0, 262.0)",1.45,0.557,1,6993.585,1,0.02,same
0,526,catch,"[(1170, 813)]",[],[1],[],horizontal,"(390.0, 762.0)",1.7,nan,1,6998.595,1,0.02,same
0,527,invalid_same_bar,"[(1172, 794)]",[],[1],[0.6],vertical,"(890.0, 762.0)",0.7333333333333333,0.557,1,7003.47,2,0.02,same
0,528,valid,"[(1155, 772)]",[],[1],[0.5333333333333333],horizontal,"(390.0, 762.0)",1.15,0.498,1,7008.87,2,0.02,same
0,529,catch,"[(1157, 770)]",[],[1],[],vertical,"(390.0, 762.0)",1.7,nan,1,7014.34,2,0.02,same
0,530,valid,"[(1176, 809)]",[],[1],[0.5],vertical,"(890.0, 762.0)",0.6666666666666666,0.457,1,7020.207,3,0.02,same
0,531,valid,"[(1170, 780)]",[],[1],[0.4666666666666667],horizontal,"(890.0, 762.0)",0.6,0.424,1,7025.654,3,0.02,same
0,532,valid,"[(1166, 808)]",[],[1],[0.45],horizontal,"(890.0, 262.0)",0.6833333333333333,0.414,1,7031.387,3,0.02,same
0,533,catch,"[(1170, 779)]",[],[1],[],horizontal,"(890.0, 762.0)",1.7,nan,1,7036.753,3,0.02,same
0,534,valid,"[(1166, 810)]",[],[1],[],vertical,"(390.0, 262.0)",,"('fix', 0.379)",0,7042.581,0,0.02,same
0,535,valid,"[(1129, 808)]",[],[1],[0.5833333333333334],horizontal,"(890.0, 762.0)",1.2,0.551,1,7044.503,1,0.02,same
0,536,catch,"[(1155, 803)]",[],[1],[],vertical,"(890.0, 262.0)",1.7,nan,1,7050.187,1,0.02,same
0,537,valid,"[(1160, 804)]",[],[1],[0.7],horizontal,"(390.0, 262.0)",1.25,0.658,1,7055.653,1,0.02,same
0,538,valid,"[(1171, 806)]",[],[1],[0.5333333333333333],horizontal,"(390.0, 762.0)",0.45,0.494,1,7061.087,2,0.02,same
0,539,valid,"[(1171, 807)]",[],[1],[0.55],vertical,"(890.0, 762.0)",0.4166666666666667,0.518,1,7066.22,2,0.0,same
0,540,valid,"[(1176, 792)]",[],[1],[0.85],vertical,"(390.0, 762.0)",0.7666666666666666,nan,0,7070.717,0,0.0,same
0,541,valid,"[(1122, 783)]",[],[1],[0.5333333333333333],horizontal,"(390.0, 762.0)",0.5333333333333333,0.497,1,7075.22,1,0.0,same
0,542,valid,"[(1160, 769)]",[],[1],[0.5],vertical,"(890.0, 762.0)",0.6333333333333333,0.461,1,7080.135,1,0.0,same
0,543,valid,"[(1156, 781)]",[],[1],[0.45],vertical,"(890.0, 762.0)",0.5666666666666667,0.41,1,7085.004,1,0.0,same
0,544,valid,"[(1171, 808)]",[],[1],[0.5833333333333334],horizontal,"(890.0, 762.0)",1.2,0.544,1,7089.442,2,0.0,same
0,545,valid,"[(1173, 779)]",[],[1],[0.5166666666666666],vertical,"(390.0, 262.0)",0.7833333333333333,0.482,1,7095.066,2,0.0,same
0,546,valid,"[(1174, 808)]",[],[1],[],vertical,"(890.0, 762.0)",,"('cti', 0.43)",0,7100.426,0,0.0,same
0,547,valid,"[(1174, 791)]",[],[1],[0.5166666666666666],horizontal,"(890.0, 262.0)",1.1,0.475,1,7104.08,1,0.0,same
0,548,valid,"[(1174, 816)]",[],[1],[0.48333333333333334],vertical,"(890.0, 262.0)",0.36666666666666664,0.448,1,7109.07,1,0.0,same
0,549,catch,"[(1165, 781)]",[],[1],[],vertical,"(390.0, 262.0)",1.7,nan,1,7112.998,1,0.0,same
0,550,valid,"[(1160, 808)]",[],[1],[0.5333333333333333],vertical,"(390.0, 262.0)",0.6166666666666667,0.488,1,7118.435,2,0.0,same
0,551,valid,"[(1156, 808)]",[],[1],[0.6],horizontal,"(890.0, 262.0)",0.8166666666666667,0.554,1,7123.94,2,0.0,same
0,552,valid,"[(1124, 811)]",[],[1],[0.65],horizontal,"(390.0, 262.0)",1.3833333333333333,0.604,1,7129.493,2,0.0,same
0,553,valid,"[(1156, 793)]",[],[1],[0.5],vertical,"(390.0, 262.0)",1.5166666666666666,0.462,1,7135.303,3,0.0,same
0,554,invalid_adjacent_other_bar,"[(1160, 788)]",[],[1],[0.5],vertical,"(890.0, 262.0)",1.45,0.46,1,7141.291,3,0.0,other
0,555,invalid_same_bar,"[(1175, 798)]",[],[1],[0.5166666666666666],vertical,"(390.0, 762.0)",0.8833333333333333,0.482,1,7147.307,3,0.0,same
0,556,catch,"[(1175, 798)]",[],[1],[],horizontal,"(890.0, 262.0)",1.7,nan,1,7152.627,3,0.0,same
0,557,valid,"[(1118, 834)]",[],[1],[0.5166666666666666],vertical,"(390.0, 762.0)",1.5166666666666666,0.477,1,7158.384,3,0.0,same
0,558,valid,"[(1155, 812)]",[],[1],[0.5],vertical,"(390.0, 262.0)",1.4333333333333333,0.461,1,7164.77,3,0.0,same
0,559,valid,"[(1170, 808)]",[],[1],[0.4666666666666667],horizontal,"(390.0, 762.0)",1.0666666666666667,0.423,1,7171.137,3,0.0,same
0,560,catch,"[(1141, 823)]",[],[1],[],vertical,"(390.0, 762.0)",,"('cti', 0.839),nan",0,7176.459,0,0.02,same
0,561,valid,"[(1143, 799)]",[],[1],[0.48333333333333334],vertical,"(390.0, 762.0)",1.3166666666666667,0.442,1,7180.487,1,0.02,same
0,562,valid,"[(1165, 775)]",[],[1],[0.5333333333333333],horizontal,"(390.0, 762.0)",1.1833333333333333,0.499,1,7185.966,1,0.02,same
0,563,valid,"[(1196, 810)]",[],[1],[0.48333333333333334],vertical,"(890.0, 762.0)",1.0666666666666667,0.443,1,7191.14,1,0.02,same
0,564,valid,"[(1160, 796)]",[],[1],[0.48333333333333334],horizontal,"(890.0, 762.0)",1.1333333333333333,0.445,1,7196.004,2,0.02,same
0,565,valid,"[(1175, 789)]",[],[1],[0.85],vertical,"(890.0, 762.0)",0.6666666666666666,nan,0,7201.288,0,0.02,same
0,566,valid,"[(1140, 790)]",[],[1],[0.6333333333333333],vertical,"(390.0, 762.0)",1.0666666666666667,0.59,1,7205.654,1,0.02,same
0,567,valid,"[(1156, 818)]",[],[1],[0.5333333333333333],horizontal,"(890.0, 262.0)",0.5833333333333334,0.49,1,7210.888,1,0.02,same
0,568,catch,"[(1165, 812)]",[],[1],[],horizontal,"(890.0, 262.0)",1.7,nan,1,7215.154,1,0.02,same
0,569,valid,"[(1170, 830)]",[],[1],[0.5166666666666666],horizontal,"(390.0, 262.0)",1.05,0.479,1,7220.137,2,0.02,same
0,570,valid,"[(1175, 776)]",[],[1],[0.48333333333333334],vertical,"(390.0, 762.0)",0.8666666666666667,0.447,1,7225.06,2,0.02,same
0,571,invalid_adjacent_other_bar,"[(1171, 789)]",[],[1],[0.55],horizontal,"(390.0, 762.0)",0.36666666666666664,0.511,1,7230.094,2,0.02,other
0,572,catch,"[(1169, 797)]",[],[1],[],vertical,"(890.0, 262.0)",,"('cti', 1.536),nan",0,7234.555,0,0.04,same
0,573,invalid_adjacent_other_bar,"[(1136, 780)]",[],[1],[0.6],vertical,"(390.0, 762.0)",1.4,0.561,1,7239.166,1,0.04,other
0,574,invalid_same_bar,"[(1156, 773)]",[],[1],[0.85],horizontal,"(890.0, 762.0)",0.8,nan,0,7244.454,0,0.04,same
0,575,valid,"[(1122, 766)]",[],[1],[0.48333333333333334],vertical,"(890.0, 762.0)",0.9666666666666667,0.457,1,7249.323,1,0.04,same
0,576,valid,"[(1156, 769)]",[],[1],[0.45],vertical,"(890.0, 262.0)",1.4833333333333334,0.411,1,7253.871,1,0.04,same
0,577,catch,"[(1166, 798)]",[],[1],[],horizontal,"(390.0, 762.0)",1.7,nan,1,7259.48,1,0.04,same
0,578,valid,"[(1167, 804)]",[],[1],[0.5333333333333333],vertical,"(890.0, 762.0)",0.5,0.49,1,7264.821,2,0.04,same
0,579,valid,"[(1171, 809)]",[],[1],[0.48333333333333334],horizontal,"(890.0, 262.0)",0.9,0.445,1,7269.923,2,0.04,same
0,580,catch,"[(1163, 804)]",[],[1],[],vertical,"(390.0, 762.0)",1.7,nan,1,7274.922,2,0.04,same
0,581,catch,"[(1166, 808)]",[],[1],[],horizontal,"(890.0, 262.0)",1.7,nan,1,7280.888,3,0.04,same
0,582,valid,"[(1165, 808)]",[],[1],[0.45],vertical,"(890.0, 262.0)",0.5666666666666667,0.414,1,7286.57,3,0.04,same
0,583,catch,"[(1161, 812)]",[],[1],[],horizontal,"(390.0, 762.0)",,"('fix', 0.417),nan",0,7291.587,0,0.06,same
0,584,catch,"[(1136, 813)]",[],[1],[],vertical,"(390.0, 762.0)",1.7,nan,1,7293.564,1,0.06,same
0,585,catch,"[(1175, 782)]",[],[1],[],vertical,"(890.0, 262.0)",1.7,nan,1,7298.762,1,0.06,same
0,586,valid,"[(1175, 796)]",[],[1],[0.6333333333333333],horizontal,"(890.0, 762.0)",0.6166666666666667,0.591,1,7304.287,1,0.06,same
0,587,valid,"[(1174, 793)]",[],[1],[0.65],horizontal,"(390.0, 262.0)",1.3,0.614,1,7309.19,2,0.06,same
0,588,valid,"[(1151, 764)]",[],[1],[0.6666666666666666],horizontal,"(890.0, 262.0)",0.55,0.623,1,7315.172,2,0.06,same
0,589,valid,"[(1180, 799)]",[],[1],[0.85],vertical,"(390.0, 762.0)",0.9333333333333333,nan,0,7319.956,0,0.06,same
0,590,valid,"[(1119, 808)]",[],[1],[0.48333333333333334],vertical,"(390.0, 262.0)",1.5,0.442,1,7324.522,1,0.06,same
0,591,valid,"[(1169, 804)]",[],[1],[0.4666666666666667],horizontal,"(390.0, 262.0)",0.5333333333333333,0.434,1,7333.955,1,0.06,same
0,592,invalid_adjacent_other_bar,"[(1171, 810)]",[],[1],[0.43333333333333335],horizontal,"(890.0, 262.0)",1.3,0.397,1,7338.872,1,0.06,other
0,593,catch,"[(1190, 809)]",[],[1],[],vertical,"(890.0, 262.0)",,"('cti', 0.868),nan",0,7344.333,0,0.08,same
0,594,valid,"[(1190, 823)]","[(1141, 864)]",[1],[0.3333333333333333],horizontal,"(390.0, 262.0)",,"('bar', 0.349)",0,7348.47,0,0.08,same
0,595,valid,"[(1131, 829)]",[],[1],[0.5166666666666666],vertical,"(890.0, 262.0)",1.2833333333333332,0.475,1,7350.837,1,0.08,same
0,596,catch,"[(1175, 813)]",[],[1],[],vertical,"(390.0, 262.0)",1.7,nan,1,7356.722,1,0.08,same
0,597,invalid_adjacent_other_bar,"[(1161, 813)]",[],[1],[0.5333333333333333],vertical,"(890.0, 262.0)",0.8833333333333333,0.495,1,7361.955,1,0.08,other
0,598,invalid_adjacent_other_bar,"[(1170, 823)]",[],[1],[0.45],vertical,"(890.0, 262.0)",0.9666666666666667,0.413,1,7367.02,2,0.08,other
0,599,valid,"[(1136, 838)]",[],[1],[0.5166666666666666],horizontal,"(390.0, 762.0)",0.5833333333333334,0.474,1,7372.522,2,0.08,same
0,600,valid,"[(1187, 812)]",[],[1],[0.5333333333333333],vertical,"(390.0, 762.0)",1.3,0.49,1,7487.165,2,0.08,same
0,601,catch,"[(1170, 811)]",[],[1],[],horizontal,"(390.0, 262.0)",1.7,nan,1,7492.647,3,0.08,same
0,602,catch,"[(1168, 808)]",[],[1],[],vertical,"(390.0, 762.0)",1.7,nan,1,7498.771,3,0.08,same
0,603,valid,"[(1196, 814)]",[],[1],[],vertical,"(390.0, 262.0)",,"('fix', 0.183)",0,7504.855,0,0.08,same
0,604,invalid_adjacent_other_bar,"[(1141, 808)]",[],[1],[0.85],horizontal,"(390.0, 762.0)",0.7333333333333333,nan,0,7506.475,0,0.08,other
0,605,invalid_adjacent_other_bar,"[(1148, 851)]",[],[1],[0.85],horizontal,"(390.0, 762.0)",1.1333333333333333,nan,0,7510.99,0,0.08,other
0,606,catch,"[(1121, 825)]",[],[1],[],horizontal,"(890.0, 262.0)",,"('cti', 1.325),nan",0,7518.572,0,0.1,same
0,607,invalid_same_bar,"[(1130, 820)]",[],[1],[0.85],horizontal,"(390.0, 262.0)",0.3833333333333333,nan,0,7522.736,0,0.1,same
0,608,invalid_adjacent_other_bar,"[(1136, 818)]",[],[1],[0.7],horizontal,"(390.0, 262.0)",0.7666666666666666,0.655,1,8706.304,1,0.1,other
0,609,valid,"[(1175, 781)]",[],[1],[0.7],horizontal,"(390.0, 762.0)",0.36666666666666664,0.656,1,8711.642,1,0.1,same
0,610,valid,"[(1141, 853)]",[],[1],[0.6333333333333333],horizontal,"(890.0, 262.0)",0.43333333333333335,0.587,1,8715.792,1,0.08,same
0,611,valid,"[(1165, 823)]",[],[1],[0.5166666666666666],vertical,"(890.0, 262.0)",1.25,0.474,1,8720.608,2,0.08,same
0,612,valid,"[(1176, 789)]",[],[1],[],vertical,"(890.0, 762.0)",,"('cti', 0.573)",0,8726.203,0,0.08,same
0,613,catch,"[(1155, 805)]",[],[1],[],horizontal,"(890.0, 262.0)",,"('cti', 1.191),nan",0,8729.681,0,0.1,same
0,614,valid,"[(1131, 794)]",[],[1],[0.85],horizontal,"(390.0, 262.0)",0.8166666666666667,nan,0,8733.577,0,0.1,same
0,615,catch,"[(1131, 836)]",[],[1],[],horizontal,"(390.0, 262.0)",1.7,nan,1,8739.271,1,0.1,same
0,616,catch,"[(1176, 803)]",[],[1],[],horizontal,"(390.0, 262.0)",1.7,nan,1,8744.957,1,0.1,same
0,617,catch,"[(1170, 808)]",[],[1],[],horizontal,"(390.0, 762.0)",1.7,nan,1,8749.881,1,0.1,same
0,618,valid,"[(1158, 780)]",[],[1],[0.7166666666666667],horizontal,"(890.0, 762.0)",0.55,0.671,1,8755.253,2,0.1,same
0,619,catch,"[(1170, 794)]",[],[1],[],horizontal,"(890.0, 762.0)",1.7,nan,1,8760.276,2,0.1,same
0,620,valid,"[(1153, 812)]",[],[1],[0.5],vertical,"(390.0, 762.0)",0.6666666666666666,0.457,1,8765.808,2,0.1,same
0,621,catch,"[(1159, 754)]",[],[1],[],horizontal,"(390.0, 762.0)",1.7,nan,1,8770.479,3,0.1,same
0,622,catch,"[(1174, 796)]",[],[1],[],horizontal,"(390.0, 262.0)",1.7,nan,1,8776.344,3,0.08,same
0,623,invalid_adjacent_other_bar,"[(1165, 780)]",[],[1],[0.6166666666666667],horizontal,"(390.0, 262.0)",1.3666666666666667,0.566,1,8782.248,3,0.08,other
0,624,valid,"[(1195, 791)]",[],[1],[0.48333333333333334],vertical,"(890.0, 762.0)",0.5666666666666667,0.441,1,8788.249,3,0.08,same
0,625,invalid_adjacent_other_bar,"[(1199, 821)]",[],[1],[],horizontal,"(390.0, 762.0)",,"('fix', 0.527)",0,8793.374,0,0.08,other
0,626,catch,"[(1170, 778)]",[],[1],[],horizontal,"(390.0, 762.0)",1.7,nan,1,8795.459,1,0.08,same
0,627,valid,"[(1174, 785)]",[],[1],[0.85],horizontal,"(390.0, 762.0)",1.2666666666666666,nan,0,8800.709,0,0.08,same
0,628,valid,"[(1110, 815)]",[],[1],[0.5666666666666667],vertical,"(390.0, 762.0)",0.9666666666666667,0.527,1,8805.709,1,0.08,same
0,629,valid,"[(1170, 780)]",[],[1],[0.5166666666666666],vertical,"(890.0, 762.0)",0.95,0.471,1,8812.09,1,0.08,same
0,630,valid,"[(1202, 807)]",[],[1],[],vertical,"(390.0, 262.0)",,"('fix', 0.424)",0,8817.093,0,0.08,same
0,631,valid,"[(1137, 799)]",[],[1],[0.5166666666666666],horizontal,"(890.0, 262.0)",1.5166666666666666,0.478,1,8818.955,1,0.08,same
0,632,catch,"[(1175, 791)]",[],[1],[],vertical,"(390.0, 762.0)",1.7,nan,1,8824.727,1,0.08,same
0,633,valid,"[(1183, 787)]",[],[1],[0.55],horizontal,"(890.0, 762.0)",1.0166666666666666,0.509,1,8830.134,1,0.06,same
0,634,valid,"[(1175, 784)]",[],[1],[0.5],vertical,"(890.0, 262.0)",1.3333333333333333,0.457,1,8835.525,2,0.06,same
0,635,valid,"[(1169, 788)]",[],[1],[0.6333333333333333],vertical,"(390.0, 262.0)",0.5166666666666666,0.592,1,8841.409,2,0.06,same
0,636,catch,"[(1160, 809)]",[],[1],[],vertical,"(890.0, 762.0)",1.7,nan,1,8846.393,2,0.06,same
0,637,catch,"[(1155, 786)]",[],[1],[],vertical,"(390.0, 262.0)",1.7,nan,1,8852.193,3,0.06,same
0,638,catch,"[(1191, 800)]",[],[1],[],horizontal,"(890.0, 262.0)",1.7,nan,1,8858.459,3,0.06,same
0,639,valid,"[(1192, 817)]",[],[1],[0.5333333333333333],vertical,"(890.0, 762.0)",0.9,0.499,1,8864.664,3,0.06,same
0,640,valid,"[(1180, 792)]",[],[1],[0.6],vertical,"(890.0, 762.0)",1.2666666666666666,0.561,1,8870.613,3,0.06,same
0,641,catch,"[(1116, 846)]",[],[1],[],horizontal,"(390.0, 262.0)",1.7,nan,1,8876.792,3,0.06,same
0,642,valid,"[(1199, 783)]",[],[1],[0.6166666666666667],vertical,"(390.0, 262.0)",0.48333333333333334,0.577,1,8882.725,3,0.06,same
0,643,valid,"[(1170, 819)]",[],[1],[0.5],horizontal,"(890.0, 762.0)",1.25,0.461,1,8887.826,3,0.04,same
0,644,catch,"[(1200, 791)]",[],[1],[],horizontal,"(890.0, 262.0)",1.7,nan,1,8893.89,3,0.04,same
0,645,valid,"[(1200, 783)]",[],[1],[],horizontal,"(890.0, 262.0)",,"('fix', 0.424)",0,8899.524,0,0.04,same
0,646,invalid_same_bar,"[(1176, 796)]",[],[1],[0.5666666666666667],horizontal,"(890.0, 262.0)",0.4666666666666667,0.528,1,8901.459,1,0.04,same
0,647,valid,"[(1175, 795)]",[],[1],[0.5666666666666667],vertical,"(890.0, 762.0)",1.1833333333333333,0.525,1,8906.031,1,0.04,same
0,648,invalid_same_bar,"[(1181, 783)]",[],[1],[0.4666666666666667],horizontal,"(890.0, 262.0)",1.0833333333333333,0.425,1,8911.453,1,0.04,same
0,649,valid,"[(1178, 802)]",[],[1],[0.55],vertical,"(890.0, 762.0)",0.9333333333333333,0.504,1,8916.179,2,0.04,same
0,650,invalid_adjacent_other_bar,"[(1179, 797)]",[],[1],[0.85],vertical,"(890.0, 762.0)",1.0166666666666666,nan,0,8921.333,0,0.04,other
0,651,catch,"[(1165, 803)]",[],[1],[],vertical,"(890.0, 262.0)",1.7,nan,1,8925.909,1,0.04,same
0,652,valid,"[(1126, 848)]",[],[1],[0.65],horizontal,"(890.0, 762.0)",0.8833333333333333,0.608,1,8931.058,1,0.04,same
0,653,invalid_adjacent_other_bar,"[(1202, 804)]",[],[1],[],vertical,"(890.0, 262.0)",,"('fix', 0.442)",0,8937.232,0,0.04,other
0,654,valid,"[(1159, 798)]",[],[1],[0.85],vertical,"(390.0, 762.0)",0.35,nan,0,8939.235,0,0.04,same
0,655,catch,"[(1158, 806)]",[],[1],[],vertical,"(890.0, 762.0)",1.7,nan,1,8943.657,1,0.04,same
0,656,valid,"[(1171, 783)]",[],[1],[],horizontal,"(890.0, 262.0)",,"('cti', 1.301)",0,8948.842,0,0.02,same
0,657,valid,"[(1129, 806)]",[],[1],[0.45],horizontal,"(890.0, 762.0)",1.3666666666666667,0.409,1,8952.992,1,0.02,same
0,658,valid,"[(1195, 775)]",[],[1],[0.4666666666666667],horizontal,"(890.0, 762.0)",1.1833333333333333,0.425,1,8958.642,1,0.02,same
0,659,catch,"[(1178, 803)]",[],[1],[],vertical,"(890.0, 262.0)",1.7,nan,1,8963.331,1,0.02,same
0,660,invalid_adjacent_other_bar,"[(1176, 782)]",[],[1],[0.85],horizontal,"(390.0, 762.0)",1.0666666666666667,nan,0,8968.147,0,0.02,other
0,661,valid,"[(1121, 786)]",[],[1],[0.5833333333333334],vertical,"(890.0, 762.0)",0.36666666666666664,0.538,1,8973.021,1,0.02,same
0,662,catch,"[(1121, 835)]",[],[1],[],vertical,"(390.0, 762.0)",1.7,nan,1,8978.943,1,0.02,same
0,663,valid,"[(1165, 803)]",[],[1],[0.85],horizontal,"(390.0, 762.0)",0.8166666666666667,nan,0,8984.71,0,0.0,same
0,664,valid,"[(1160, 798)]",[],[1],[0.7333333333333333],vertical,"(890.0, 762.0)",1.0166666666666666,0.711,1,8989.144,1,0.0,same
0,665,valid,"[(1204, 807)]",[],[1],[0.55],vertical,"(890.0, 762.0)",1.0333333333333332,0.508,1,8994.092,1,0.0,same
0,666,invalid_same_bar,"[(1166, 782)]",[],[1],[0.6166666666666667],vertical,"(890.0, 762.0)",1.3333333333333333,0.576,1,8999.31,1,0.0,same
0,667,catch,"[(1157, 803)]",[],[1],[],horizontal,"(390.0, 262.0)",1.7,nan,1,9004.709,2,0.0,same
0,668,valid,"[(1159, 813)]",[],[1],[0.4666666666666667],vertical,"(390.0, 762.0)",0.4666666666666667,0.428,1,9009.891,2,0.0,same
0,669,catch,"[(1160, 794)]",[],[1],[],vertical,"(890.0, 762.0)",1.7,nan,1,9014.96,2,0.0,same
0,670,valid,"[(1204, 789)]",[],[1],[0.43333333333333335],vertical,"(390.0, 262.0)",1.15,0.404,1,9020.456,3,0.0,same
0,671,valid,"[(1209, 804)]",[],[1],[],vertical,"(390.0, 762.0)",,"('fix', 0.45)",0,9026.879,0,0.0,same
0,672,valid,"[(1155, 820)]",[],[1],[0.5],vertical,"(890.0, 262.0)",1.35,0.455,1,9028.909,1,0.0,same
0,673,valid,"[(1172, 797)]",[],[1],[0.4666666666666667],vertical,"(890.0, 262.0)",1.4166666666666667,0.425,1,9034.463,1,0.0,same
0,674,invalid_same_bar,"[(1170, 790)]",[],[1],[0.6166666666666667],horizontal,"(890.0, 762.0)",0.7666666666666666,0.572,1,9040.263,1,0.0,same
0,675,valid,"[(1166, 804)]",[],[1],[0.4666666666666667],vertical,"(390.0, 262.0)",0.6333333333333333,0.424,1,9045.242,2,0.0,same
0,676,valid,"[(1179, 801)]",[],[1],[0.6333333333333333],horizontal,"(390.0, 762.0)",0.8666666666666667,0.587,1,9050.426,2,0.0,same
0,677,valid,"[(1165, 798)]",[],[1],[0.5833333333333334],vertical,"(890.0, 762.0)",0.8,0.543,1,9056.059,2,0.0,same
0,678,invalid_same_bar,"[(1156, 789)]",[],[1],[0.85],horizontal,"(390.0, 762.0)",0.4166666666666667,nan,0,9061.642,0,0.0,same
0,679,valid,"[(1132, 799)]",[],[1],[0.48333333333333334],vertical,"(890.0, 762.0)",1.4333333333333333,0.441,1,9066.109,1,0.0,same
0,680,invalid_same_bar,"[(1185, 800)]",[],[1],[0.4666666666666667],vertical,"(390.0, 262.0)",1.15,0.425,1,9071.847,1,0.0,same
0,681,catch,"[(1181, 810)]",[],[1],[],vertical,"(390.0, 762.0)",1.7,nan,1,9076.909,1,0.0,same
0,682,invalid_adjacent_other_bar,"[(1202, 819)]",[],[1],[0.85],horizontal,"(890.0, 262.0)",0.5166666666666666,"('cti', 0.522),nan",0,9081.969,0,0.0,other
0,683,catch,"[(1156, 794)]",[],[1],[],vertical,"(390.0, 762.0)",1.7,nan,1,9086.661,1,0.0,same
0,684,valid,"[(1182, 800)]",[],[1],[0.5],horizontal,"(390.0, 762.0)",1.35,0.459,1,9092.093,1,0.0,same
0,685,valid,"[(1170, 797)]",[],[1],[0.75],horizontal,"(890.0, 762.0)",0.3833333333333333,0.698,1,9097.131,1,0.0,same
0,686,valid,"[(1127, 825)]",[],[1],[0.55],vertical,"(890.0, 262.0)",0.36666666666666664,0.506,1,9102.093,2,0.0,same
0,687,valid,"[(1165, 796)]",[],[1],[0.5166666666666666],vertical,"(390.0, 262.0)",0.9333333333333333,0.481,1,9107.387,2,0.0,same
0,688,valid,"[(1170, 795)]",[],[1],[0.5666666666666667],vertical,"(890.0, 262.0)",1.3833333333333333,0.525,1,9112.893,2,0.0,same
0,689,valid,"[(1109, 806)]",[],[1],[0.6666666666666666],horizontal,"(890.0, 262.0)",0.85,0.621,1,9118.395,3,0.0,same
0,690,valid,"[(1167, 799)]",[],[1],[0.5333333333333333],horizontal,"(390.0, 762.0)",0.7333333333333333,0.493,1,9126.11,3,0.0,same
0,691,valid,"[(1170, 769)]",[],[1],[0.48333333333333334],vertical,"(890.0, 762.0)",1.0833333333333333,0.444,1,9131.277,3,0.0,same
0,692,catch,"[(1194, 799)]",[],[1],[],horizontal,"(390.0, 762.0)",1.7,nan,1,9137.433,3,0.0,same
0,693,valid,"[(1180, 800)]",[],[1],[0.4666666666666667],vertical,"(390.0, 762.0)",0.4166666666666667,0.427,1,9143.259,3,0.0,same
0,694,valid,"[(1171, 795)]",[],[1],[0.13333333333333333],horizontal,"(890.0, 762.0)",0.7666666666666666,0.1,0,9148.619,0,0.0,same
0,695,catch,"[(1151, 804)]",[],[1],[],horizontal,"(390.0, 762.0)",1.7,nan,1,9152.21,1,0.0,same
0,696,catch,"[(1171, 799)]",[],[1],[],horizontal,"(890.0, 262.0)",1.7,nan,1,9157.775,1,0.0,same
0,697,valid,"[(1167, 784)]",[],[1],[0.48333333333333334],vertical,"(390.0, 762.0)",0.6666666666666666,0.445,1,9162.66,1,0.0,same
0,698,valid,"[(1170, 807)]",[],[1],[0.85],vertical,"(890.0, 262.0)",0.43333333333333335,nan,0,9167.144,0,0.0,same
0,699,valid,"[(1157, 801)]",[],[1],[0.6166666666666667],vertical,"(890.0, 762.0)",1.3666666666666667,0.575,1,9171.708,1,0.0,same
0,700,valid,"[(1203, 804)]","[(1090, 885)]",[1],[0.35],horizontal,"(890.0, 262.0)",,"('bar', 0.36)",0,9177.325,0,0.0,same
0,701,catch,"[(1155, 780)]",[],[1],[],horizontal,"(390.0, 762.0)",1.7,nan,1,9180.0,1,0.0,same
0,702,valid,"[(1175, 813)]",[],[1],[0.6166666666666667],vertical,"(390.0, 762.0)",0.95,0.575,1,9185.185,1,0.0,same
0,703,valid,"[(1169, 794)]",[],[1],[0.6333333333333333],horizontal,"(890.0, 262.0)",0.7666666666666666,0.587,1,9190.205,1,0.0,same
0,704,catch,"[(1172, 806)]",[],[1],[],horizontal,"(890.0, 762.0)",1.7,nan,1,9195.436,2,0.0,same
0,705,valid,"[(1175, 796)]",[],[1],[0.5],vertical,"(890.0, 262.0)",0.7666666666666666,0.461,1,9201.371,2,0.0,same
0,706,valid,"[(1160, 794)]",[],[1],[0.7333333333333333],horizontal,"(890.0, 262.0)",1.1833333333333333,0.69,1,9206.142,2,0.0,same
0,707,valid,"[(1164, 798)]",[],[1],[0.65],vertical,"(390.0, 762.0)",1.1166666666666667,0.604,1,9212.218,3,0.0,same
0,708,catch,"[(1175, 794)]",[],[1],[],vertical,"(390.0, 762.0)",1.7,nan,1,9218.659,3,0.0,same
0,709,valid,"[(1176, 790)]",[],[1],[0.6333333333333333],vertical,"(390.0, 762.0)",1.3833333333333333,0.586,1,9224.793,3,0.0,same
0,710,catch,"[(1170, 791)]",[],[1],[],vertical,"(890.0, 262.0)",1.7,nan,1,9230.96,3,0.0,same
0,711,valid,"[(1171, 783)]",[],[1],[0.5333333333333333],vertical,"(890.0, 762.0)",0.65,0.489,1,9236.877,3,0.0,same
0,712,valid,"[(1173, 799)]",[],[1],[0.55],horizontal,"(390.0, 262.0)",0.5166666666666666,0.51,1,9242.529,3,0.0,same
0,713,valid,"[(1175, 789)]",[],[1],[0.48333333333333334],vertical,"(890.0, 762.0)",0.75,0.446,1,9248.227,3,0.0,same
0,714,valid,"[(1175, 802)]",[],[1],[0.5333333333333333],vertical,"(390.0, 762.0)",0.8333333333333334,0.488,1,9254.089,3,0.0,same
0,715,valid,"[(1175, 794)]",[],[1],[0.6833333333333333],vertical,"(890.0, 262.0)",0.95,0.633,1,9259.643,3,0.0,same
0,716,invalid_same_bar,"[(1192, 795)]",[],[1],[0.55],vertical,"(890.0, 262.0)",1.1166666666666667,0.509,1,9265.384,3,0.0,same
0,717,valid,"[(1170, 791)]",[],[1],[0.48333333333333334],horizontal,"(390.0, 262.0)",0.6,0.446,1,9271.526,3,0.0,same
0,718,valid,"[(1169, 783)]",[],[1],[0.4666666666666667],horizontal,"(890.0, 762.0)",1.5333333333333332,0.428,1,9277.082,3,0.0,same
0,719,valid,"[(1172, 796)]",[],[1],[0.85],horizontal,"(890.0, 762.0)",1.2,nan,0,9283.193,0,0.0,same
0,720,valid,"[(1157, 795)]",[],[1],[0.55],vertical,"(390.0, 762.0)",1.2166666666666666,0.516,1,9288.077,1,0.0,same
0,721,valid,"[(1170, 806)]",[],[1],[0.85],horizontal,"(390.0, 262.0)",0.9166666666666666,nan,0,9293.328,0,0.0,same
0,722,valid,"[(1161, 793)]",[],[1],[0.75],vertical,"(390.0, 762.0)",1.2166666666666666,0.7,1,9297.892,1,0.0,same
0,723,valid,"[(1170, 799)]",[],[1],[0.48333333333333334],horizontal,"(890.0, 762.0)",0.5,0.442,1,9303.31,1,0.0,same
0,724,valid,"[(1175, 829)]",[],[1],[0.5166666666666666],horizontal,"(390.0, 762.0)",0.4166666666666667,0.475,1,9307.415,1,0.0,same
0,725,valid,"[(1144, 817)]",[],[1],[0.5166666666666666],vertical,"(390.0, 262.0)",0.6333333333333333,0.475,1,9311.467,2,0.0,same
0,726,valid,"[(1160, 787)]",[],[1],[0.85],vertical,"(390.0, 262.0)",0.4666666666666667,nan,0,9316.693,0,0.0,same
0,727,valid,"[(1134, 793)]",[],[1],[0.6],horizontal,"(390.0, 262.0)",1.0333333333333332,0.561,1,9320.693,1,0.0,same
0,728,catch,"[(1170, 794)]",[],[1],[],vertical,"(890.0, 762.0)",1.7,nan,1,9325.93,1,0.0,same
0,729,catch,"[(1154, 773)]",[],[1],[],horizontal,"(390.0, 262.0)",1.7,nan,1,9331.11,1,0.0,same
0,730,valid,"[(1170, 797)]",[],[1],[0.5],vertical,"(390.0, 762.0)",0.6333333333333333,0.462,1,9336.26,2,0.0,same
0,731,valid,"[(1154, 787)]",[],[1],[0.5833333333333334],vertical,"(390.0, 262.0)",0.5,0.539,1,9341.274,2,0.0,same
0,732,catch,"[(1174, 782)]",[],[1],[],vertical,"(390.0, 762.0)",1.7,nan,1,9346.094,2,0.0,same
0,733,valid,"[(1170, 795)]",[],[1],[0.6],horizontal,"(890.0, 762.0)",0.5166666666666666,0.563,1,9351.694,3,0.0,same
0,734,catch,"[(1163, 789)]",[],[1],[],horizontal,"(890.0, 762.0)",1.7,nan,1,9357.341,3,0.0,same
0,735,catch,"[(1175, 802)]",[],[1],[],vertical,"(390.0, 262.0)",1.7,nan,1,9363.11,3,0.0,same
0,736,valid,"[(1169, 804)]",[],[1],[0.85],horizontal,"(390.0, 262.0)",0.8,nan,0,9369.244,0,0.0,same
0,737,catch,"[(1096, 793)]",[],[1],[],horizontal,"(390.0, 762.0)",1.7,nan,1,9373.76,1,0.0,same
0,738,valid,"[(1175, 799)]",[],[1],[0.5166666666666666],horizontal,"(890.0, 762.0)",1.4666666666666666,0.479,1,9388.411,1,0.0,same
0,739,valid,"[(1170, 799)]",[],[1],[0.5166666666666666],horizontal,"(890.0, 762.0)",0.45,0.478,1,9394.078,1,0.0,same
0,740,catch,"[(1167, 804)]",[],[1],[],horizontal,"(390.0, 762.0)",1.7,nan,1,9398.611,2,0.0,same
0,741,valid,"[(1165, 794)]",[],[1],[0.5666666666666667],horizontal,"(890.0, 262.0)",1.3,0.523,1,9404.274,2,0.0,same
0,742,valid,"[(1170, 792)]",[],[1],[0.5833333333333334],vertical,"(890.0, 262.0)",1.0166666666666666,0.541,1,9410.228,2,0.0,same
0,743,valid,"[(1204, 794)]",[],[1],[0.4666666666666667],horizontal,"(390.0, 762.0)",1.4333333333333333,0.428,1,9415.846,3,0.0,same
0,744,valid,"[(1174, 799)]",[],[1],[0.48333333333333334],horizontal,"(890.0, 262.0)",1.2833333333333332,0.445,1,9422.561,3,0.0,same
0,745,valid,"[(1175, 789)]",[],[1],[0.85],vertical,"(390.0, 262.0)",0.36666666666666664,nan,0,9428.34,0,0.0,same
0,746,valid,"[(1140, 809)]",[],[1],[0.6333333333333333],horizontal,"(890.0, 762.0)",0.7833333333333333,0.596,1,9432.428,1,0.0,same
0,747,valid,"[(1170, 778)]",[],[1],[0.7],horizontal,"(890.0, 262.0)",1.1333333333333333,0.668,1,9437.477,1,0.0,same
0,748,valid,"[(1162, 806)]",[],[1],[0.55],vertical,"(390.0, 762.0)",1.1666666666666667,0.506,1,9442.413,1,0.0,same
0,749,valid,"[(1170, 800)]",[],[1],[0.85],vertical,"(890.0, 762.0)",1.3666666666666667,nan,0,9447.823,0,0.0,same
0,750,catch,"[(1141, 795)]",[],[1],[],horizontal,"(890.0, 262.0)",1.7,nan,1,9453.121,1,0.0,same
0,751,catch,"[(1159, 792)]",[],[1],[],vertical,"(390.0, 762.0)",1.7,nan,1,9458.678,1,0.0,same
0,752,catch,"[(1175, 799)]",[],[1],[],vertical,"(390.0, 262.0)",1.7,nan,1,9464.143,1,0.0,same
0,753,valid,"[(1151, 774)]",[],[1],[0.6666666666666666],vertical,"(890.0, 762.0)",0.9666666666666667,0.627,1,9469.566,2,0.0,same
0,754,invalid_same_bar,"[(1157, 808)]",[],[1],[0.55],vertical,"(890.0, 762.0)",1.0666666666666667,0.517,1,9474.84,2,0.0,same
0,755,valid,"[(1159, 804)]",[],[1],[0.6166666666666667],horizontal,"(890.0, 262.0)",0.7666666666666666,0.573,1,9480.377,2,0.0,same
0,756,valid,"[(1170, 789)]",[],[1],[0.6],vertical,"(390.0, 762.0)",0.5166666666666666,0.557,1,9485.945,3,0.0,same
0,757,valid,"[(1160, 784)]",[],[1],[0.85],horizontal,"(890.0, 762.0)",1.25,nan,0,9491.856,0,0.0,same
0,758,valid,"[(1118, 784)]",[],[1],[0.4666666666666667],vertical,"(390.0, 262.0)",0.95,0.426,1,9496.723,1,0.0,same
0,759,catch,"[(1176, 783)]",[],[1],[],horizontal,"(890.0, 762.0)",1.7,nan,1,9505.095,1,0.0,same
0,760,valid,"[(1169, 787)]",[],[1],[0.5333333333333333],horizontal,"(890.0, 262.0)",0.6333333333333333,0.494,1,9510.226,1,0.0,same
0,761,valid,"[(1206, 797)]",[],[1],[0.55],vertical,"(390.0, 762.0)",0.35,0.511,1,9514.977,2,0.0,same
0,762,valid,"[(1160, 814)]",[],[1],[0.5166666666666666],vertical,"(890.0, 262.0)",0.6,0.474,1,9522.277,2,0.0,same
0,763,valid,"[(1175, 808)]",[],[1],[0.48333333333333334],horizontal,"(890.0, 262.0)",1.5333333333333332,0.453,1,9527.768,2,0.0,same
0,764,catch,"[(1188, 800)]",[],[1],[],vertical,"(890.0, 262.0)",1.7,nan,1,9533.994,3,0.0,same
0,765,valid,"[(1172, 816)]",[],[1],[0.6333333333333333],horizontal,"(390.0, 262.0)",1.1333333333333333,0.588,1,9539.866,3,0.0,same
0,766,valid,"[(1195, 799)]",[],[1],[0.5166666666666666],horizontal,"(890.0, 762.0)",1.0,0.476,1,9546.124,3,0.0,same
0,767,invalid_adjacent_other_bar,"[(1167, 789)]",[],[1],[0.5166666666666666],vertical,"(890.0, 262.0)",1.45,0.476,1,9552.222,3,0.0,other
0,768,catch,"[(1175, 803)]",[],[1],[],vertical,"(890.0, 262.0)",1.7,nan,1,9558.994,3,0.0,same
0,769,catch,"[(1170, 803)]",[],[1],[],vertical,"(890.0, 262.0)",1.7,nan,1,9565.23,3,0.0,same
0,770,catch,"[(1178, 790)]",[],[1],[],horizontal,"(390.0, 762.0)",1.7,nan,1,9571.228,3,0.0,same
0,771,catch,"[(1174, 804)]",[],[1],[],vertical,"(390.0, 262.0)",1.7,nan,1,9577.05,3,0.0,same
0,772,valid,"[(1181, 799)]",[],[1],[],horizontal,"(390.0, 762.0)",,"('fix', 0.464)",0,9583.167,0,0.0,same
0,773,valid,"[(1140, 803)]",[],[1],[0.5666666666666667],horizontal,"(890.0, 262.0)",1.3833333333333333,0.526,1,9585.212,1,0.0,same
0,774,invalid_same_bar,"[(1158, 789)]",[],[1],[0.85],horizontal,"(390.0, 762.0)",0.9833333333333333,nan,0,9591.087,0,0.0,same
0,775,valid,"[(1137, 795)]",[],[1],[0.5833333333333334],horizontal,"(890.0, 262.0)",0.85,0.54,1,9595.973,1,0.0,same
0,776,valid,"[(1177, 807)]",[],[1],[0.65],horizontal,"(890.0, 762.0)",0.9833333333333333,0.613,1,9601.282,1,0.0,same
0,777,valid,"[(1175, 776)]",[],[1],[0.6166666666666667],vertical,"(390.0, 262.0)",0.6166666666666667,0.575,1,9606.618,1,0.0,same
0,778,valid,"[(1121, 855)]",[],[1],[0.65],vertical,"(890.0, 262.0)",1.3833333333333333,0.608,1,9611.471,2,0.0,same
0,779,catch,"[(1151, 848)]",[],[1],[],vertical,"(390.0, 262.0)",1.7,nan,1,9617.99,2,0.0,same
0,780,valid,"[(1155, 810)]",[],[1],[0.85],horizontal,"(890.0, 762.0)",0.5166666666666666,nan,0,9960.429,0,0.0,same
0,781,catch,"[(1158, 823)]",[],[1],[],vertical,"(390.0, 262.0)",1.7,nan,1,9964.781,1,0.0,same
0,782,valid,"[(1192, 810)]",[],[1],[0.5166666666666666],vertical,"(890.0, 262.0)",1.1666666666666667,0.475,1,9970.496,1,0.0,same
0,783,catch,"[(1187, 803)]",[],[1],[],horizontal,"(890.0, 762.0)",1.7,nan,1,9975.814,1,0.0,same
0,784,valid,"[(1162, 829)]",[],[1],[0.55],horizontal,"(390.0, 262.0)",0.55,0.509,1,9981.196,2,0.0,same
0,785,catch,"[(1183, 807)]",[],[1],[],vertical,"(390.0, 262.0)",1.7,nan,1,9986.583,2,0.0,same
0,786,valid,"[(1155, 818)]",[],[1],[0.85],horizontal,"(890.0, 762.0)",0.6833333333333333,nan,0,9992.397,0,0.0,same
0,787,valid,"[(1133, 832)]",[],[1],[0.6],horizontal,"(390.0, 762.0)",0.6833333333333333,0.557,1,9997.446,1,0.0,same
0,788,valid,"[(1179, 794)]",[],[1],[0.5166666666666666],horizontal,"(390.0, 762.0)",0.75,0.473,1,10004.163,1,0.0,same
0,789,catch,"[(1180, 816)]",[],[1],[],horizontal,"(890.0, 762.0)",,"('fix', 0.413),nan",0,10009.046,0,0.02,same
0,790,valid,"[(1156, 787)]",[],[1],[0.48333333333333334],horizontal,"(890.0, 262.0)",0.5,0.442,1,10010.97,1,0.02,same
0,791,catch,"[(1193, 783)]",[],[1],[],horizontal,"(890.0, 762.0)",1.7,nan,1,10015.833,1,0.02,same
0,792,valid,"[(1181, 791)]",[],[1],[0.6333333333333333],horizontal,"(890.0, 762.0)",0.65,0.588,1,10020.861,1,0.02,same
0,793,catch,"[(1183, 800)]",[],[1],[],vertical,"(390.0, 262.0)",,"('fix', 0.444),nan",0,10025.713,0,0.04,same
0,794,valid,"[(1180, 804)]",[],[1],[0.43333333333333335],horizontal,"(390.0, 762.0)",1.3166666666666667,0.402,1,10027.73,1,0.04,same
0,795,valid,"[(1174, 803)]",[],[1],[0.5833333333333334],vertical,"(890.0, 262.0)",0.8333333333333334,0.54,1,10033.036,1,0.04,same
0,796,valid,"[(1185, 807)]",[],[1],[0.5],horizontal,"(890.0, 762.0)",1.2,0.458,1,10037.745,1,0.04,same
0,797,valid,"[(1177, 772)]",[],[1],[0.5],horizontal,"(390.0, 762.0)",1.3166666666666667,0.457,1,10043.044,2,0.04,same
0,798,valid,"[(1177, 808)]",[],[1],[0.4666666666666667],vertical,"(890.0, 262.0)",0.5666666666666667,0.429,1,10048.879,2,0.04,same
0,799,catch,"[(1180, 795)]",[],[1],[],horizontal,"(390.0, 262.0)",1.7,nan,1,10053.553,2,0.04,same
0,800,valid,"[(1185, 812)]",[],[1],[],vertical,"(890.0, 762.0)",,"('fix', 0.386)",0,10059.179,0,0.04,same
0,801,valid,"[(1152, 788)]",[],[1],[0.5],horizontal,"(890.0, 762.0)",1.1,0.461,1,10061.396,1,0.04,same
0,802,catch,"[(1171, 799)]",[],[1],[],horizontal,"(390.0, 262.0)",1.7,nan,1,10066.173,1,0.04,same
0,803,valid,"[(1180, 820)]",[],[1],[0.48333333333333334],vertical,"(390.0, 262.0)",1.3333333333333333,0.445,1,10071.345,1,0.04,same
0,804,valid,"[(1186, 802)]",[],[1],[0.13333333333333333],vertical,"(390.0, 262.0)",1.5333333333333332,0.103,0,10076.67,0,0.04,same
0,805,valid,"[(1129, 807)]",[],[1],[0.5333333333333333],vertical,"(390.0, 262.0)",0.55,0.488,1,10081.498,1,0.04,same
0,806,valid,"[(1169, 804)]",[],[1],[0.5],vertical,"(390.0, 262.0)",0.8166666666666667,0.453,1,10088.513,1,0.04,same
0,807,catch,"[(1180, 801)]",[],[1],[],vertical,"(890.0, 262.0)",1.7,nan,1,10093.096,1,0.04,same
0,808,catch,"[(1170, 808)]",[],[1],[],horizontal,"(890.0, 762.0)",1.7,nan,1,10098.036,2,0.04,same
0,809,catch,"[(1176, 795)]",[],[1],[],vertical,"(890.0, 762.0)",,"('fix', 0.343),nan",0,10103.924,0,0.06,same
0,810,catch,"[(1177, 774)]",[],[1],[],vertical,"(390.0, 762.0)",1.7,nan,1,10105.826,1,0.06,same
0,811,catch,"[(1180, 798)]",[],[1],[],horizontal,"(890.0, 762.0)",1.7,nan,1,10111.079,1,0.06,same
0,812,catch,"[(1173, 804)]",[],[1],[],vertical,"(890.0, 762.0)",1.7,nan,1,10116.34,1,0.06,same
0,813,valid,"[(1179, 784)]",[],[1],[0.48333333333333334],horizontal,"(390.0, 262.0)",1.3,0.443,1,10121.128,2,0.06,same
0,814,valid,"[(1179, 786)]",[],[1],[0.5666666666666667],horizontal,"(390.0, 762.0)",0.75,0.521,1,10127.044,2,0.06,same
0,815,valid,"[(1160, 777)]",[],[1],[0.5833333333333334],horizontal,"(890.0, 762.0)",1.2666666666666666,0.538,1,10132.635,2,0.06,same
0,816,valid,"[(1170, 810)]",[],[1],[],horizontal,"(890.0, 762.0)",,"('fix', 0.414)",0,10138.679,0,0.06,same
0,817,valid,"[(1167, 822)]",[],[1],[0.48333333333333334],horizontal,"(890.0, 762.0)",0.45,0.437,1,10141.045,1,0.06,same
0,818,invalid_adjacent_other_bar,"[(1176, 795)]",[],[1],[0.5166666666666666],vertical,"(390.0, 262.0)",0.8666666666666667,0.475,1,10145.104,1,0.06,other
0,819,valid,"[(1180, 771)]",[],[1],[0.5833333333333334],vertical,"(890.0, 262.0)",1.5,0.533,1,10150.049,1,0.06,same
0,820,valid,"[(1175, 810)]",[],[1],[0.5666666666666667],horizontal,"(890.0, 762.0)",0.8166666666666667,0.524,1,10156.083,2,0.06,same
0,821,catch,"[(1165, 777)]",[],[1],[],horizontal,"(890.0, 262.0)",1.7,nan,1,10161.314,2,0.06,same
0,822,catch,"[(1175, 808)]",[],[1],[],vertical,"(390.0, 262.0)",1.7,nan,1,10166.979,2,0.06,same
0,823,catch,"[(1174, 799)]",[],[1],[],horizontal,"(890.0, 262.0)",1.7,nan,1,10172.814,3,0.06,same
0,824,catch,"[(1180, 779)]",[],[1],[],vertical,"(890.0, 262.0)",1.7,nan,1,10178.88,3,0.06,same
0,825,valid,"[(1189, 803)]",[],[1],[0.5333333333333333],horizontal,"(890.0, 762.0)",0.65,0.49,1,10184.53,3,0.06,same
0,826,valid,"[(1180, 779)]",[],[1],[0.5666666666666667],vertical,"(390.0, 262.0)",1.3333333333333333,0.524,1,10190.33,3,0.06,same
0,827,valid,"[(1180, 802)]",[],[1],[0.5],vertical,"(390.0, 262.0)",1.2333333333333334,0.463,1,10195.98,3,0.06,same
0,828,valid,"[(1173, 775)]",[],[1],[0.65],vertical,"(390.0, 762.0)",0.85,0.604,1,10201.857,3,0.06,same
0,829,valid,"[(1175, 793)]",[],[1],[0.48333333333333334],vertical,"(390.0, 762.0)",0.6666666666666666,0.445,1,10207.779,3,0.06,same
0,830,invalid_adjacent_other_bar,"[(1207, 820)]",[],[1],[0.7],horizontal,"(890.0, 762.0)",0.85,0.658,1,10212.829,3,0.06,other
0,831,valid,"[(1180, 803)]",[],[1],[],vertical,"(390.0, 762.0)",,"('fix', 0.446)",0,10218.579,0,0.06,same
0,832,valid,"[(1136, 778)]",[],[1],[0.5333333333333333],horizontal,"(390.0, 262.0)",0.35,0.488,1,10220.562,1,0.06,same
0,833,catch,"[(1180, 794)]",[],[1],[],horizontal,"(890.0, 762.0)",1.7,nan,1,10224.98,1,0.06,same
0,834,invalid_adjacent_other_bar,"[(1180, 798)]",[],[1],[0.8],vertical,"(390.0, 262.0)",1.5166666666666666,0.748,1,10230.199,1,0.06,other
0,835,valid,"[(1186, 802)]",[],[1],[0.5666666666666667],horizontal,"(390.0, 262.0)",1.1666666666666667,0.527,1,10235.63,2,0.06,same
0,836,catch,"[(1175, 795)]",[],[1],[],vertical,"(390.0, 762.0)",,"('fix', 0.487),nan",0,10241.296,0,0.08,same
0,837,invalid_same_bar,"[(1146, 820)]",[],[1],[0.5333333333333333],horizontal,"(890.0, 262.0)",0.5666666666666667,0.495,1,10243.379,1,0.08,same
0,838,catch,"[(1195, 794)]",[],[1],[],vertical,"(390.0, 262.0)",1.7,nan,1,10248.379,1,0.08,same
0,839,catch,"[(1166, 796)]",[],[1],[],vertical,"(390.0, 262.0)",1.7,nan,1,10253.714,1,0.06,same
0,840,valid,"[(1175, 791)]",[],[1],[0.6833333333333333],horizontal,"(890.0, 262.0)",0.5666666666666667,0.643,1,10258.979,2,0.06,same
0,841,valid,"[(1182, 794)]",[],[1],[0.55],vertical,"(890.0, 262.0)",0.6833333333333333,0.512,1,10264.037,2,0.06,same
0,842,valid,"[(1180, 794)]",[],[1],[0.5],vertical,"(890.0, 262.0)",0.7833333333333333,0.468,1,10269.179,2,0.06,same
0,843,valid,"[(1186, 782)]",[],[1],[0.7666666666666666],horizontal,"(390.0, 262.0)",0.8833333333333333,0.716,1,10274.44,3,0.04,same
0,844,valid,"[(1173, 792)]",[],[1],[0.48333333333333334],horizontal,"(390.0, 762.0)",0.8166666666666667,0.447,1,10280.346,3,0.04,same
0,845,valid,"[(1180, 793)]",[],[1],[0.5166666666666666],vertical,"(890.0, 262.0)",0.9833333333333333,0.47,1,10286.982,3,0.04,same
0,846,invalid_same_bar,"[(1178, 784)]",[],[1],[0.5],vertical,"(890.0, 262.0)",1.15,0.455,1,10292.713,3,0.04,same
0,847,valid,"[(1176, 794)]",[],[1],[0.55],horizontal,"(390.0, 762.0)",1.2833333333333332,0.511,1,10298.408,3,0.04,same
0,848,valid,"[(1168, 780)]",[],[1],[0.55],horizontal,"(890.0, 262.0)",0.5833333333333334,0.507,1,10304.358,3,0.04,same
0,849,valid,"[(1178, 804)]",[],[1],[],horizontal,"(890.0, 262.0)",,"('fix', 0.479)",0,10309.76,0,0.04,same
0,850,valid,"[(1158, 794)]",[],[1],[0.5666666666666667],vertical,"(890.0, 262.0)",0.9833333333333333,0.52,1,10311.795,1,0.04,same
0,851,invalid_same_bar,"[(1175, 774)]",[],[1],[0.5],vertical,"(390.0, 762.0)",1.4333333333333333,0.455,1,10317.276,1,0.04,same
0,852,catch,"[(1180, 794)]",[],[1],[],vertical,"(390.0, 262.0)",1.7,nan,1,10322.938,1,0.04,same
0,853,valid,"[(1186, 794)]",[],[1],[0.6],horizontal,"(390.0, 262.0)",0.36666666666666664,0.553,1,10328.245,2,0.04,same
0,854,catch,"[(1182, 799)]",[],[1],[],horizontal,"(390.0, 762.0)",1.7,nan,1,10332.956,2,0.04,same
0,855,catch,"[(1176, 794)]",[],[1],[],vertical,"(390.0, 762.0)",1.7,nan,1,10338.192,2,0.04,same
0,856,valid,"[(1177, 803)]",[],[1],[0.5166666666666666],horizontal,"(390.0, 262.0)",0.55,0.475,1,10343.718,3,0.04,same
0,857,valid,"[(1175, 794)]",[],[1],[0.5],vertical,"(390.0, 262.0)",0.5,0.456,1,10349.442,3,0.04,same
0,858,invalid_same_bar,"[(1201, 793)]",[],[1],[0.5166666666666666],horizontal,"(390.0, 762.0)",0.9333333333333333,0.478,1,10354.965,3,0.04,same
0,859,valid,"[(1201, 785)]",[],[1],[0.6166666666666667],horizontal,"(890.0, 762.0)",1.5,0.573,1,10360.946,3,0.02,same
0,860,valid,"[(1182, 779)]",[],[1],[0.55],horizontal,"(890.0, 262.0)",1.5,0.507,1,10367.217,3,0.02,same
0,861,valid,"[(1183, 801)]",[],[1],[0.6333333333333333],vertical,"(390.0, 262.0)",0.4,0.591,1,10373.597,3,0.02,same
0,862,valid,"[(1186, 808)]",[],[1],[0.5],vertical,"(390.0, 762.0)",0.8,0.462,1,10379.278,3,0.02,same
