block,trial,trial_type,taps_start_loc_during_fix,taps_end_loc_during_fix,taps_on_lever_during_fix,taps_on_lever_s_during_fix,bar_orientation,target_xy,cti,rt,acc,time,pulses,fa_rate_recent100,p_catch
0,1,target,"[(1093, 861)]",[],[1],[0.4],horizontal,"(390.0, 762.0)",1.05,0.365,1,0.071,1,0.0,0.25
0,2,target,"[(1137, 830)]",[],[1],[0.55],vertical,"(890.0, 762.0)",0.6666666666666666,0.51,1,13.113,1,0.0,0.25
0,3,target,"[(1136, 788)]",[],[1],[0.25],vertical,"(890.0, 262.0)",1.1833333333333333,0.21,1,27.651,1,0.0,0.25
0,4,target,"[(1138, 801)]",[],[1],[0.43333333333333335],vertical,"(390.0, 762.0)",1.3666666666666667,0.393,1,32.713,2,0.0,0.25
0,5,target,"[(1184, 782)]",[],[1],[0.55],horizontal,"(890.0, 262.0)",0.5,0.507,1,38.734,2,0.0,0.25
0,6,catch,"[(1184, 778)]",[],[1],[],horizontal,"(890.0, 262.0)",1.65,nan,1,43.642,2,0.0,0.25
0,7,target,"[(434, 482), (1194, 843)]",[],"[0, 1]",[0.65],horizontal,"(390.0, 762.0)",0.7,0.608,1,49.663,2,0.0,0.25
0,8,target,"[(1123, 789)]",[],[1],[0.4666666666666667],vertical,"(890.0, 262.0)",1.45,0.425,1,59.062,3,0.0,0.25
0,9,target,"[(1185, 779)]",[],[1],[0.6833333333333333],vertical,"(390.0, 762.0)",1.0666666666666667,0.64,1,65.307,3,0.0,0.25
0,10,target,"[(1184, 781)]",[],[1],[0.48333333333333334],horizontal,"(890.0, 262.0)",0.5833333333333334,0.444,1,71.474,3,0.0,0.25
0,11,catch,"[(1157, 772)]",[],[1],[],vertical,"(890.0, 262.0)",1.65,nan,1,76.794,3,0.0,0.25
0,12,catch,"[(1179, 769)]",[],[1],[],vertical,"(890.0, 762.0)",1.65,nan,1,83.023,3,0.0,0.25
0,13,catch,"[(1165, 771)]",[],[1],[],vertical,"(890.0, 262.0)",1.65,nan,1,88.81,3,0.0,0.25
0,14,target,"[(1149, 798)]",[],[1],[0.4666666666666667],horizontal,"(390.0, 762.0)",0.7833333333333333,0.429,1,94.774,3,0.0,0.25
0,15,target,"[(1209, 759)]",[],[1],[0.5333333333333333],vertical,"(390.0, 262.0)",0.65,0.494,1,100.442,3,0.0,0.25
0,16,target,"[(1169, 764)]",[],[1],[0.5833333333333334],vertical,"(390.0, 262.0)",0.9166666666666666,0.542,1,105.607,3,0.0,0.25
0,17,target,"[(1169, 765)]",[],[1],[0.6833333333333333],horizontal,"(890.0, 762.0)",1.0333333333333332,0.636,1,111.689,3,0.0,0.25
0,18,target,"[(1219, 773)]",[],[1],[0.5166666666666666],horizontal,"(390.0, 762.0)",0.7333333333333333,0.477,1,117.742,3,0.0,0.25
0,19,target,"[(1140, 748), (1185, 792)]",[],"[0, 1]",[0.4666666666666667],vertical,"(890.0, 262.0)",1.2666666666666666,0.429,1,123.241,3,0.0,0.25
0,20,target,"[(1166, 774)]",[],[1],[0.75],horizontal,"(890.0, 262.0)",0.43333333333333335,0.701,1,129.994,3,0.0,0.25
0,21,target,"[(1179, 765)]",[],[1],[0.5666666666666667],horizontal,"(890.0, 762.0)",0.6833333333333333,0.531,1,135.925,3,0.0,0.25
0,22,target,"[(1194, 779)]",[],[1],[0.5],horizontal,"(890.0, 762.0)",1.1833333333333333,0.46,1,141.692,3,0.0,0.25
0,23,catch,"[(1186, 769)]",[],[1],[],horizontal,"(890.0, 262.0)",1.65,nan,1,147.542,3,0.0,0.25
0,24,catch,"[(1184, 777)]",[],[1],[],horizontal,"(390.0, 762.0)",1.65,nan,1,153.057,3,0.0,0.25
0,25,target,"[(1184, 774)]",[],[1],[0.3833333333333333],horizontal,"(890.0, 762.0)",1.5166666666666666,0.345,1,158.859,3,0.0,0.25
0,26,target,"[(1175, 762)]",[],[1],[0.55],horizontal,"(390.0, 262.0)",0.4666666666666667,0.508,1,164.861,3,0.0,0.25
0,27,target,"[(1181, 786)]",[],[1],[0.7666666666666666],vertical,"(390.0, 262.0)",1.1,0.727,1,169.839,3,0.0,0.25
0,28,target,"[(1179, 766)]",[],[1],[0.7],horizontal,"(890.0, 762.0)",0.65,0.658,1,175.724,3,0.0,0.25
0,29,target,"[(1187, 769)]",[],[1],[0.5666666666666667],vertical,"(890.0, 262.0)",0.8833333333333333,0.523,1,181.342,3,0.0,0.25
0,30,catch,"[(1179, 774)]",[],[1],[],vertical,"(890.0, 262.0)",1.65,nan,1,187.392,3,0.0,0.25
0,31,catch,"[(1189, 750), (1164, 784)]",[],"[0, 1]",[],vertical,"(890.0, 762.0)",,"('cti', 1.549),nan",0,193.325,0,0.03225806451612903,0.25
0,32,target,"[(1160, 780)]",[],[1],[0.85],vertical,"(390.0, 262.0)",0.4666666666666667,nan,0,199.285,0,0.03125,0.25
0,33,target,"[(1159, 773)]",[],[1],[0.5833333333333334],vertical,"(890.0, 762.0)",0.9833333333333333,0.542,1,203.623,1,0.030303030303030304,0.25
0,34,target,"[(1165, 784)]",[],[1],[0.85],vertical,"(890.0, 762.0)",0.35,nan,0,208.292,0,0.029411764705882353,0.25
0,35,catch,"[(1158, 782)]",[],[1],[],horizontal,"(390.0, 762.0)",1.65,nan,1,212.142,1,0.02857142857142857,0.25
0,36,catch,"[(1199, 769)]",[],[1],[],vertical,"(390.0, 762.0)",1.65,nan,1,217.158,1,0.027777777777777776,0.25
0,37,catch,"[(1188, 755)]",[],[1],[],vertical,"(890.0, 262.0)",1.65,nan,1,222.481,1,0.02702702702702703,0.25
0,38,target,"[(1189, 769)]",[],[1],[0.6666666666666666],vertical,"(890.0, 262.0)",0.9166666666666666,0.641,1,227.559,2,0.02631578947368421,0.25
0,39,catch,"[(1169, 765)]",[],[1],[],vertical,"(890.0, 262.0)",1.65,nan,1,232.712,2,0.02564102564102564,0.25
0,40,target,"[(1183, 770)]",[],[1],[0.55],vertical,"(390.0, 262.0)",1.3166666666666667,0.512,1,238.247,2,0.025,0.25
0,41,target,"[(1189, 767)]",[],[1],[0.48333333333333334],horizontal,"(890.0, 262.0)",0.9333333333333333,0.444,1,244.193,2,0.024390243902439025,0.25
0,42,target,"[(1164, 769)]",[],[1],[0.5666666666666667],vertical,"(390.0, 762.0)",0.43333333333333335,0.531,1,249.558,3,0.023809523809523808,0.25
0,43,target,"[(1155, 743), (1158, 792)]",[],"[0, 1]",[0.48333333333333334],horizontal,"(890.0, 762.0)",1.3166666666666667,0.444,1,254.973,3,0.023255813953488372,0.25
0,44,target,"[(1164, 765)]",[],[1],[0.55],vertical,"(390.0, 262.0)",0.48333333333333334,0.51,1,261.656,3,0.022727272727272728,0.25
0,45,target,"[(1169, 768)]",[],[1],[0.43333333333333335],vertical,"(390.0, 762.0)",1.4,0.403,1,267.12,3,0.022222222222222223,0.25
0,46,catch,"[(1159, 765)]",[],[1],[],vertical,"(390.0, 762.0)",1.65,nan,1,273.512,3,0.021739130434782608,0.25
0,47,catch,"[(1162, 751), (1159, 781)]",[],"[0, 1]",[],horizontal,"(390.0, 262.0)",1.65,nan,1,279.485,3,0.02127659574468085,0.25
0,48,target,"[(1165, 773)]",[],[1],[0.6],vertical,"(890.0, 262.0)",0.5666666666666667,0.574,1,286.425,3,0.020833333333333332,0.25
0,49,target,"[(1190, 755)]",[],[1],[0.5666666666666667],vertical,"(390.0, 762.0)",0.7,0.522,1,292.028,3,0.02040816326530612,0.25
0,50,target,"[(1172, 755)]",[],[1],[0.5666666666666667],horizontal,"(890.0, 762.0)",1.2666666666666666,0.519,1,297.737,3,0.02,0.25
0,51,catch,"[(1164, 784)]",[],[1],[],horizontal,"(890.0, 262.0)",1.65,nan,1,303.437,3,0.02,0.25
0,52,catch,"[(1184, 766)]",[],[1],[],horizontal,"(890.0, 762.0)",1.65,nan,1,309.342,3,0.02,0.25
0,53,target,"[(1169, 771)]",[],[1],[0.4],vertical,"(890.0, 762.0)",1.5,0.363,1,315.038,3,0.02,0.25
0,54,catch,"[(1176, 765)]",[],[1],[],vertical,"(390.0, 262.0)",1.65,nan,1,321.234,3,0.02,0.25
0,55,catch,"[(1184, 756)]",[],[1],[],horizontal,"(890.0, 762.0)",1.65,nan,1,327.017,3,0.02,0.25
0,56,target,"[(1183, 753), (1127, 789)]",[],"[0, 1]",[0.5333333333333333],vertical,"(890.0, 762.0)",0.8166666666666667,0.49,1,333.185,3,0.02,0.25
0,57,target,"[(1164, 760)]",[],[1],[0.8],horizontal,"(890.0, 762.0)",0.9666666666666667,0.752,1,340.724,3,0.02,0.25
0,58,target,"[(1184, 773)]",[],[1],[0.5166666666666666],vertical,"(890.0, 262.0)",0.45,0.478,1,346.353,3,0.02,0.25
0,59,target,"[(1179, 740), (1152, 768)]",[],"[0, 1]",[0.85],horizontal,"(890.0, 762.0)",0.6166666666666667,nan,0,351.632,0,0.02,0.25
0,60,catch,"[(1162, 772)]",[],[1],[],horizontal,"(390.0, 762.0)",1.65,nan,1,356.744,1,0.02,0.25
0,61,target,"[(1160, 751), (1167, 754)]",[],"[0, 1]",[0.6166666666666667],horizontal,"(890.0, 762.0)",0.36666666666666664,0.575,1,361.758,1,0.02,0.25
0,62,target,"[(1174, 758)]",[],[1],[],vertical,"(890.0, 762.0)",,"('cti', 1.132)",0,366.875,0,0.04,0.25
0,63,target,"[(1185, 774)]",[],[1],[0.75],horizontal,"(390.0, 262.0)",1.1833333333333333,0.701,1,370.759,1,0.04,0.25
0,64,target,"[(1181, 754)]",[],[1],[0.6],horizontal,"(890.0, 762.0)",1.35,0.563,1,376.21,1,0.04,0.25
0,65,catch,"[(1164, 768)]",[],[1],[],vertical,"(390.0, 762.0)",1.65,nan,1,381.39,1,0.04,0.25
0,66,target,"[(1164, 789)]",[],[1],[0.5],vertical,"(390.0, 262.0)",0.8,0.463,1,386.291,2,0.04,0.25
0,67,target,"[(1178, 777)]",[],[1],[0.5],vertical,"(890.0, 762.0)",1.1,0.462,1,394.319,2,0.04,0.25
0,68,target,"[(1169, 769)]",[],[1],[0.85],horizontal,"(890.0, 762.0)",1.45,nan,0,400.459,0,0.04,0.25
0,69,catch,"[(1164, 797)]",[],[1],[],horizontal,"(390.0, 762.0)",1.65,nan,1,405.475,1,0.04,0.25
0,70,target,"[(1166, 760)]",[],[1],[0.5666666666666667],vertical,"(390.0, 262.0)",0.8166666666666667,0.531,1,414.764,1,0.04,0.25
0,71,target,"[(1184, 773)]",[],[1],[0.55],vertical,"(390.0, 262.0)",0.6666666666666666,0.509,1,419.621,1,0.04,0.25
0,72,target,"[(1167, 774)]",[],[1],[0.48333333333333334],vertical,"(890.0, 262.0)",1.05,0.444,1,424.324,2,0.04,0.25
0,73,target,"[(1168, 803)]",[],[1],[0.5],horizontal,"(390.0, 262.0)",1.4666666666666666,0.467,1,430.058,2,0.04,0.25
0,74,catch,"[(1194, 808)]",[],[1],[],vertical,"(890.0, 762.0)",,"('cti', 1.247),nan",0,454.641,0,0.06,0.25
0,75,target,"[(1159, 776)]",[],[1],[0.5833333333333334],vertical,"(890.0, 762.0)",0.6833333333333333,0.54,1,459.392,1,0.06,0.25
0,76,catch,"[(1164, 774)]",[],[1],[],vertical,"(890.0, 762.0)",1.65,"('cti', 1.682),nan",0,463.942,0,0.08,0.25
0,77,catch,"[(1162, 797)]",[],[1],[],horizontal,"(390.0, 262.0)",1.65,nan,1,468.773,1,0.08,0.25
0,78,target,"[(1185, 772)]",[],[1],[0.6],horizontal,"(390.0, 762.0)",0.5166666666666666,0.57,1,474.336,1,0.08,0.25
0,79,target,"[(1161, 795)]",[],[1],[0.35],horizontal,"(390.0, 762.0)",0.43333333333333335,0.314,1,479.106,1,0.08,0.25
0,80,target,"[(1144, 803)]",[],[1],[0.48333333333333334],horizontal,"(890.0, 762.0)",1.3833333333333333,0.443,1,483.512,2,0.08,0.25
0,81,target,"[(1159, 803)]",[],[1],[0.55],horizontal,"(390.0, 762.0)",0.36666666666666664,0.51,1,492.837,2,0.06,0.25
0,82,target,"[(1147, 782)]",[],[1],[0.4666666666666667],horizontal,"(390.0, 262.0)",1.2,0.425,1,498.093,2,0.06,0.25
0,83,target,"[(1041, 860)]",[],[1],[],horizontal,"(890.0, 762.0)",,"('fix', 0.033)",0,506.242,0,0.06,0.25
0,84,target,"[(1174, 807)]",[],[1],[0.48333333333333334],vertical,"(390.0, 262.0)",1.3333333333333333,0.447,1,508.293,1,0.06,0.25
0,85,target,"[(1159, 781)]",[],[1],[0.65],vertical,"(390.0, 262.0)",0.7,0.616,1,527.409,1,0.06,0.25
0,86,catch,"[(1159, 755)]",[],[1],[],vertical,"(890.0, 762.0)",1.65,nan,1,532.11,1,0.06,0.25
0,87,target,"[(1137, 782)]",[],[1],[0.43333333333333335],vertical,"(390.0, 262.0)",1.4333333333333333,0.396,1,537.608,2,0.06,0.25
0,88,target,"[(1155, 777)]",[],[1],[0.6833333333333333],vertical,"(390.0, 762.0)",0.4666666666666667,0.644,1,543.809,2,0.06,0.25
0,89,target,"[(1159, 769)]",[],[1],[0.5],horizontal,"(890.0, 762.0)",0.43333333333333335,0.458,1,549.344,2,0.06,0.25
0,90,target,"[(1181, 768)]",[],[1],[0.85],horizontal,"(890.0, 762.0)",0.45,nan,0,554.058,0,0.06,0.25
0,91,catch,"[(1153, 770)]",[],[1],[],vertical,"(890.0, 762.0)",1.65,nan,1,558.426,1,0.06,0.25
0,92,target,"[(1159, 798)]",[],[1],[],horizontal,"(390.0, 262.0)",,"('cti', 0.949)",0,564.06,0,0.08,0.25
0,93,target,"[(1149, 802)]",[],[1],[0.85],vertical,"(390.0, 262.0)",0.5166666666666666,nan,0,567.91,0,0.08,0.25
0,94,target,"[(1158, 808)]",[],[1],[0.48333333333333334],horizontal,"(890.0, 762.0)",1.5166666666666666,0.443,1,573.793,1,0.08,0.25
0,95,target,"[(1184, 783)]",[],[1],[0.6],horizontal,"(890.0, 262.0)",0.6666666666666666,0.559,1,579.625,1,0.08,0.25
0,96,target,"[(1181, 758)]",[],[1],[0.85],vertical,"(390.0, 262.0)",1.1166666666666667,nan,0,584.4,0,0.08,0.25
0,97,target,"[(1154, 773)]",[],[1],[0.4666666666666667],vertical,"(390.0, 262.0)",1.5333333333333332,0.426,1,589.231,1,0.08,0.25
0,98,catch,"[(1184, 747), (1158, 808)]",[],"[0, 1]",[],vertical,"(890.0, 762.0)",1.65,nan,1,594.652,1,0.08,0.25
0,99,catch,"[(1187, 766)]",[],[1],[],vertical,"(390.0, 262.0)",1.65,nan,1,600.942,1,0.08,0.25
0,100,target,"[(1184, 761)]",[],[1],[0.6333333333333333],vertical,"(390.0, 262.0)",1.3,0.591,1,605.97,2,0.08,0.25
0,101,target,"[(1170, 764)]",[],[1],[0.6666666666666666],vertical,"(390.0, 262.0)",1.0666666666666667,0.618,1,611.45,2,0.08,0.25
0,102,target,"[(1151, 760)]",[],[1],[0.65],vertical,"(890.0, 262.0)",0.8166666666666667,0.604,1,617.165,2,0.08,0.25
0,103,target,"[(1157, 778)]",[],[1],[0.4166666666666667],horizontal,"(890.0, 762.0)",1.5333333333333332,0.374,1,623.425,2,0.08,0.25
0,104,catch,"[(1154, 774)]",[],[1],[],vertical,"(890.0, 262.0)",1.65,nan,1,629.155,3,0.08,0.25
0,105,target,"[(1152, 784)]",[],[1],[0.6166666666666667],vertical,"(390.0, 262.0)",1.2166666666666666,0.569,1,637.695,3,0.08,0.25
0,106,catch,"[(1164, 770)]",[],[1],[],horizontal,"(390.0, 262.0)",1.65,nan,1,645.143,3,0.08,0.25
0,107,target,"[(1162, 774)]",[],[1],[0.65],vertical,"(390.0, 762.0)",0.6833333333333333,0.604,1,651.088,3,0.08,0.25
0,108,target,"[(1184, 775)]",[],[1],[0.55],vertical,"(390.0, 262.0)",0.65,0.509,1,656.51,3,0.08,0.25
0,109,target,"[(1181, 753), (1134, 799)]",[],"[0, 1]",[0.11666666666666667],horizontal,"(390.0, 762.0)",1.3333333333333333,0.084,0,661.877,0,0.08,0.25
0,110,target,"[(1199, 817)]",[],[1],[0.3333333333333333],vertical,"(390.0, 762.0)",1.4333333333333333,0.298,1,668.12,1,0.08,0.25
0,111,target,"[(1184, 810)]",[],[1],[0.4666666666666667],vertical,"(890.0, 262.0)",0.8666666666666667,0.427,1,698.51,1,0.08,0.25
0,112,target,"[(1194, 789)]","[(1186, 826)]",[1],[0.6333333333333333],horizontal,"(390.0, 762.0)",,"('bar', 0.639)",0,703.36,0,0.06,0.25
0,113,target,"[(1158, 779)]",[],[1],[0.5666666666666667],vertical,"(890.0, 262.0)",1.3166666666666667,0.538,1,706.309,1,0.06,0.25
0,114,target,"[(1189, 772)]",[],[1],[0.5333333333333333],horizontal,"(390.0, 762.0)",1.15,0.49,1,711.796,1,0.06,0.25
0,115,target,"[(1174, 765)]",[],[1],[0.5166666666666666],horizontal,"(890.0, 262.0)",1.3833333333333333,0.473,1,716.944,1,0.06,0.25
0,116,target,"[(1188, 777)]",[],[1],[0.5166666666666666],horizontal,"(390.0, 262.0)",1.1833333333333333,0.479,1,721.877,2,0.06,0.25
0,117,target,"[(1185, 765)]",[],[1],[0.6],horizontal,"(890.0, 262.0)",0.4666666666666667,0.55,1,727.859,2,0.06,0.25
0,118,target,"[(1179, 765)]",[],[1],[0.48333333333333334],horizontal,"(890.0, 262.0)",0.8166666666666667,0.443,1,732.642,2,0.06,0.25
0,119,target,"[(1174, 765)]",[],[1],[0.45],horizontal,"(890.0, 262.0)",1.3166666666666667,0.413,1,738.126,2,0.06,0.25
0,120,catch,"[(1184, 760)]",[],[1],[],vertical,"(390.0, 762.0)",1.65,nan,1,744.022,3,0.06,0.25
0,121,target,"[(1162, 791)]",[],[1],[0.5666666666666667],vertical,"(890.0, 262.0)",1.5333333333333332,0.52,1,750.043,3,0.06,0.25
0,122,target,"[(1147, 775)]",[],[1],[0.4666666666666667],horizontal,"(390.0, 762.0)",1.0333333333333332,0.431,1,756.727,3,0.06,0.25
0,123,catch,"[(1185, 794)]",[],[1],[],vertical,"(890.0, 762.0)",1.65,nan,1,764.226,3,0.06,0.25
0,124,target,"[(1164, 768)]",[],[1],[0.3833333333333333],horizontal,"(390.0, 762.0)",0.8,0.349,1,770.61,3,0.04,0.25
0,125,target,"[(1164, 789)]",[],[1],[0.85],horizontal,"(390.0, 762.0)",0.4666666666666667,nan,0,775.936,0,0.04,0.25
0,126,target,"[(1154, 776)]",[],[1],[0.6],vertical,"(390.0, 762.0)",0.4,0.561,1,780.709,1,0.02,0.25
0,127,catch,"[(1164, 760)]",[],[1],[],horizontal,"(890.0, 762.0)",1.65,nan,1,785.46,1,0.02,0.25
0,128,target,"[(1174, 770)]",[],[1],[0.7333333333333333],vertical,"(390.0, 262.0)",0.5333333333333333,0.684,1,791.011,1,0.02,0.25
0,129,target,"[(1184, 762)]",[],[1],[0.3333333333333333],horizontal,"(390.0, 762.0)",1.5,0.294,1,795.592,2,0.02,0.25
0,130,target,"[(1187, 760)]",[],[1],[0.4166666666666667],vertical,"(890.0, 262.0)",1.4333333333333333,0.375,1,801.542,2,0.02,0.25
0,131,catch,"[(1160, 784)]",[],[1],[],vertical,"(390.0, 262.0)",1.65,nan,1,807.274,2,0.02,0.25
0,132,catch,"[(1158, 769)]",[],[1],[],vertical,"(890.0, 262.0)",1.65,nan,1,815.149,2,0.02,0.25
0,133,target,"[(1184, 772)]",[],[1],[0.6],horizontal,"(890.0, 262.0)",0.6666666666666666,0.557,1,822.244,3,0.02,0.25
0,134,target,"[(1181, 778)]",[],[1],[0.5],horizontal,"(890.0, 262.0)",0.7333333333333333,0.459,1,828.075,3,0.02,0.25
0,135,target,"[(1164, 753), (1164, 784)]",[],"[0, 1]",[0.5666666666666667],horizontal,"(390.0, 762.0)",0.45,0.523,1,833.718,3,0.02,0.25
0,136,target,"[(1151, 779)]",[],[1],[0.5],horizontal,"(890.0, 762.0)",0.9666666666666667,0.464,1,840.508,3,0.02,0.25
0,137,catch,"[(1182, 769)]",[],[1],[],horizontal,"(390.0, 262.0)",,"('cti', 1.629),nan",0,850.662,0,0.04,0.25
0,138,target,"[(1168, 774)]",[],[1],[0.65],vertical,"(390.0, 762.0)",1.1,0.606,1,855.076,1,0.04,0.25
0,139,target,"[(1164, 780)]",[],[1],[0.18333333333333332],horizontal,"(890.0, 762.0)",1.45,0.151,0,860.058,0,0.04,0.25
0,140,target,"[(1160, 771)]",[],[1],[0.85],vertical,"(890.0, 762.0)",0.8666666666666667,nan,0,865.226,0,0.04,0.25
0,141,target,"[(1164, 770)]",[],[1],[0.7],vertical,"(890.0, 262.0)",1.1,0.653,1,869.559,1,0.04,0.25
0,142,target,"[(1168, 782)]",[],[1],[0.48333333333333334],vertical,"(890.0, 262.0)",0.9833333333333333,0.446,1,875.209,1,0.02,0.25
0,143,catch,"[(1181, 760)]",[],[1],[],horizontal,"(890.0, 262.0)",1.65,nan,1,880.042,1,0.02,0.25
0,144,target,"[(1174, 773)]",[],[1],[0.85],vertical,"(890.0, 762.0)",0.6333333333333333,nan,0,885.596,0,0.02,0.25
0,145,target,"[(1154, 767)]",[],[1],[0.85],horizontal,"(890.0, 762.0)",0.7333333333333333,nan,0,889.908,0,0.02,0.25
0,146,catch,"[(1127, 790)]",[],[1],[],horizontal,"(890.0, 762.0)",1.65,nan,1,895.093,1,0.02,0.25
0,147,target,"[(1164, 774)]",[],[1],[0.85],horizontal,"(390.0, 762.0)",0.65,nan,0,903.809,0,0.02,0.25
0,148,target,"[(1119, 776)]",[],[1],[0.5333333333333333],horizontal,"(390.0, 762.0)",1.0666666666666667,0.494,1,908.476,1,0.02,0.25
0,149,target,"[(1158, 772)]",[],[1],[0.5166666666666666],horizontal,"(890.0, 262.0)",0.9333333333333333,0.473,1,918.066,1,0.02,0.25
0,150,catch,"[(1182, 769)]",[],[1],[],horizontal,"(390.0, 762.0)",1.65,nan,1,923.246,1,0.02,0.25
0,151,target,"[(1181, 768)]",[],[1],[0.55],horizontal,"(890.0, 762.0)",1.1666666666666667,0.51,1,928.527,2,0.02,0.25
0,152,target,"[(1184, 776)]",[],[1],[0.5333333333333333],horizontal,"(390.0, 762.0)",0.8666666666666667,0.488,1,934.244,2,0.02,0.25
0,153,target,"[(1179, 765)]",[],[1],[0.5166666666666666],vertical,"(390.0, 762.0)",0.9666666666666667,0.475,1,939.468,2,0.02,0.25
0,154,target,"[(1182, 781)]",[],[1],[0.5333333333333333],horizontal,"(390.0, 262.0)",1.3333333333333333,0.488,1,944.792,2,0.02,0.25
0,155,target,"[(1189, 814)]",[],[1],[0.85],horizontal,"(390.0, 762.0)",0.7333333333333333,nan,0,950.558,0,0.02,0.25
0,156,target,"[(1157, 785)]",[],[1],[0.5833333333333334],horizontal,"(390.0, 262.0)",1.1833333333333333,0.54,1,955.498,1,0.02,0.25
0,157,target,"[(1174, 769)]",[],[1],[0.5833333333333334],vertical,"(890.0, 262.0)",1.05,0.54,1,960.859,1,0.02,0.25
0,158,target,"[(1157, 784)]",[],[1],[0.85],vertical,"(390.0, 762.0)",0.6333333333333333,nan,0,965.826,0,0.02,0.25
0,159,target,"[(1116, 803)]",[],[1],[0.5333333333333333],vertical,"(390.0, 762.0)",1.5333333333333332,0.494,1,970.094,1,0.02,0.25
0,160,target,"[(1124, 786)]",[],[1],[0.4666666666666667],horizontal,"(890.0, 262.0)",0.36666666666666664,0.424,1,982.31,1,0.02,0.25
0,161,catch,"[(1184, 781)]",[],[1],[],horizontal,"(390.0, 762.0)",1.65,nan,1,989.824,1,0.02,0.25
0,162,target,"[(1162, 782)]",[],[1],[0.5333333333333333],horizontal,"(890.0, 762.0)",0.7833333333333333,0.492,1,994.726,2,0.02,0.25
0,163,target,"[(1162, 808)]",[],[1],[0.3333333333333333],horizontal,"(390.0, 262.0)",1.05,0.295,1,999.832,2,0.02,0.25
0,164,target,"[(1196, 785)]","[(1115, 839)]",[1],[0.5666666666666667],vertical,"(890.0, 262.0)",,"('bar', 0.576)",0,1005.877,0,0.02,0.25
0,165,target,"[(1187, 771)]",[],[1],[0.65],horizontal,"(390.0, 262.0)",0.8666666666666667,0.607,1,1008.643,1,0.02,0.25
0,166,catch,"[(1188, 795)]",[],[1],[],vertical,"(390.0, 762.0)",,"('cti', 0.361),nan",0,1013.375,0,0.04,0.25
0,167,catch,"[(1158, 794)]",[],[1],[],vertical,"(890.0, 762.0)",1.65,"('cti', 1.641),nan",0,1016.476,0,0.06,0.25
0,168,catch,"[(1184, 803)]",[],[1],[],horizontal,"(390.0, 262.0)",1.65,nan,1,1021.093,1,0.06,0.25
0,169,target,"[(1181, 785)]",[],[1],[0.4],vertical,"(390.0, 262.0)",1.3833333333333333,0.366,1,1026.372,1,0.06,0.25
0,170,catch,"[(1182, 779)]",[],[1],[],horizontal,"(890.0, 262.0)",1.65,nan,1,1031.844,1,0.06,0.25
0,171,target,"[(1174, 774)]",[],[1],[0.7],vertical,"(890.0, 262.0)",0.45,0.658,1,1037.243,2,0.06,0.25
0,172,target,"[(1193, 767)]",[],[1],[0.5],vertical,"(390.0, 762.0)",1.3333333333333333,0.466,1,1042.377,2,0.06,0.25
0,173,target,"[(1182, 774)]",[],[1],[0.5],vertical,"(390.0, 262.0)",0.95,0.469,1,1047.536,2,0.06,0.25
0,174,target,"[(1183, 776)]",[],[1],[0.6666666666666666],vertical,"(890.0, 762.0)",1.3166666666666667,0.626,1,1053.127,2,0.06,0.25
0,175,catch,"[(1159, 773)]",[],[1],[],vertical,"(890.0, 762.0)",1.65,nan,1,1059.052,3,0.06,0.25
0,176,target,"[(1182, 782)]",[],[1],[0.7],vertical,"(390.0, 262.0)",1.1333333333333333,0.656,1,1064.814,3,0.06,0.25
0,177,catch,"[(1165, 784)]",[],[1],[],vertical,"(890.0, 262.0)",1.65,nan,1,1071.225,3,0.06,0.25
0,178,target,"[(1176, 774)]",[],[1],[0.4666666666666667],horizontal,"(890.0, 262.0)",1.2166666666666666,0.425,1,1076.926,3,0.06,0.25
0,179,target,"[(1159, 772)]",[],[1],[0.5166666666666666],vertical,"(390.0, 262.0)",1.1666666666666667,0.477,1,1083.052,3,0.06,0.25
0,180,target,"[(1153, 774)]",[],[1],[0.85],vertical,"(890.0, 762.0)",0.55,nan,0,1088.853,0,0.06,0.25
0,181,target,"[(1159, 774)]",[],[1],[0.48333333333333334],horizontal,"(890.0, 262.0)",1.2833333333333332,0.445,1,1093.509,1,0.06,0.25
0,182,target,"[(1169, 768)]",[],[1],[0.5333333333333333],vertical,"(390.0, 762.0)",1.3833333333333333,0.493,1,1098.461,1,0.06,0.25
0,183,target,"[(1184, 785)]",[],[1],[0.5166666666666666],horizontal,"(390.0, 262.0)",0.6833333333333333,0.478,1,1103.861,1,0.06,0.25
0,184,target,"[(1179, 775)]",[],[1],[0.6166666666666667],horizontal,"(890.0, 762.0)",0.7666666666666666,0.573,1,1108.652,2,0.06,0.25
0,185,catch,"[(1154, 775)]",[],[1],[],horizontal,"(390.0, 262.0)",1.65,nan,1,1113.637,2,0.06,0.25
0,186,target,"[(1177, 792)]",[],[1],[0.5166666666666666],horizontal,"(390.0, 262.0)",1.1166666666666667,0.478,1,1119.151,2,0.06,0.25
0,187,catch,"[(1183, 783)]",[],[1],[],horizontal,"(890.0, 262.0)",1.65,nan,1,1125.126,2,0.04,0.25
0,188,catch,"[(1145, 784)]",[],[1],[],horizontal,"(890.0, 762.0)",1.65,nan,1,1130.893,3,0.04,0.25
0,189,target,"[(1159, 776)]",[],[1],[0.5],vertical,"(890.0, 262.0)",1.2333333333333334,0.455,1,1136.682,3,0.04,0.25
0,190,target,"[(1159, 809)]",[],[1],[0.5333333333333333],vertical,"(390.0, 262.0)",0.6,0.498,1,1142.927,3,0.04,0.25
0,191,catch,"[(1152, 829)]",[],[1],[],horizontal,"(890.0, 262.0)",1.65,nan,1,1148.21,3,0.04,0.25
0,192,target,"[(1172, 789)]",[],[1],[0.5833333333333334],vertical,"(390.0, 762.0)",0.6666666666666666,0.535,1,1447.61,3,0.04,0.25
0,193,target,"[(1169, 785)]",[],[1],[0.48333333333333334],vertical,"(390.0, 262.0)",1.25,0.444,1,1453.245,3,0.04,0.25
0,194,target,"[(1164, 803)]",[],[1],[0.5666666666666667],vertical,"(890.0, 762.0)",1.1666666666666667,0.519,1,1459.529,3,0.04,0.25
0,195,target,"[(1179, 786)]",[],[1],[0.5166666666666666],vertical,"(890.0, 262.0)",0.4166666666666667,0.477,1,1465.486,3,0.04,0.25
0,196,target,"[(1162, 802)]",[],[1],[0.5166666666666666],horizontal,"(390.0, 262.0)",1.0,0.473,1,1471.083,3,0.04,0.25
0,197,target,"[(1147, 781)]",[],[1],[0.7],horizontal,"(390.0, 762.0)",1.0,0.648,1,1476.866,3,0.04,0.25
0,198,target,"[(1194, 770)]",[],[1],[0.5166666666666666],vertical,"(390.0, 762.0)",0.5666666666666667,0.475,1,1482.907,3,0.04,0.25
0,199,target,"[(1155, 763)]",[],[1],[0.6],horizontal,"(890.0, 262.0)",0.9666666666666667,0.559,1,1488.014,3,0.04,0.25
0,200,target,"[(1136, 781)]",[],[1],[0.5666666666666667],vertical,"(890.0, 262.0)",0.5,0.529,1,1494.163,3,0.04,0.25
0,201,target,"[(1181, 779)]",[],[1],[0.5333333333333333],horizontal,"(390.0, 262.0)",0.5833333333333334,0.49,1,1499.689,3,0.04,0.25
0,202,catch,"[(1113, 813)]",[],[1],[],horizontal,"(390.0, 762.0)",1.65,nan,1,1505.083,3,0.04,0.25
0,203,target,"[(1178, 779)]",[],[1],[0.85],vertical,"(390.0, 262.0)",1.25,nan,0,1512.834,0,0.04,0.25
0,204,target,"[(1134, 798)]",[],[1],[0.6833333333333333],vertical,"(890.0, 262.0)",1.0833333333333333,0.64,1,1517.889,1,0.04,0.25
0,205,target,"[(1144, 795)]",[],[1],[0.6166666666666667],vertical,"(890.0, 762.0)",0.7166666666666667,0.577,1,1523.117,1,0.04,0.25
0,206,target,"[(1179, 789)]",[],[1],[0.6],horizontal,"(390.0, 762.0)",0.4666666666666667,0.558,1,1528.107,1,0.04,0.25
0,207,target,"[(1181, 769)]",[],[1],[0.7833333333333333],vertical,"(390.0, 262.0)",0.9333333333333333,0.742,1,1532.244,2,0.04,0.25
0,208,catch,"[(1155, 774)]",[],[1],[],horizontal,"(390.0, 262.0)",1.65,nan,1,1538.212,2,0.04,0.25
0,209,target,"[(1163, 777)]",[],[1],[0.6833333333333333],vertical,"(390.0, 762.0)",0.6166666666666667,0.639,1,1543.589,2,0.04,0.25
0,210,target,"[(1116, 810)]",[],[1],[0.5833333333333334],vertical,"(890.0, 762.0)",1.0,0.544,1,1548.778,2,0.04,0.25
0,211,catch,"[(1181, 780)]",[],[1],[],vertical,"(890.0, 762.0)",1.65,nan,1,1659.951,3,0.04,0.25
0,212,catch,"[(1165, 830)]",[],[1],[],vertical,"(890.0, 262.0)",1.65,nan,1,1665.946,3,0.04,0.25
0,213,catch,"[(1162, 808)]",[],[1],[],horizontal,"(390.0, 262.0)",,"('cti', 1.497),nan",0,1676.379,0,0.06,0.25
0,214,target,"[(1194, 777)]",[],[1],[0.5333333333333333],horizontal,"(390.0, 762.0)",0.8666666666666667,0.495,1,1680.927,1,0.06,0.25
0,215,catch,"[(1204, 779)]",[],[1],[],horizontal,"(390.0, 762.0)",1.65,nan,1,1685.862,1,0.06,0.25
0,216,target,"[(1149, 749), (1197, 758)]",[],"[0, 1]",[0.55],horizontal,"(890.0, 262.0)",0.5333333333333333,0.507,1,1691.375,1,0.04,0.25
0,217,target,"[(1190, 779)]",[],[1],[0.5666666666666667],vertical,"(890.0, 762.0)",0.95,0.526,1,1697.412,2,0.02,0.25
0,218,catch,"[(1184, 792)]",[],[1],[],horizontal,"(890.0, 262.0)",1.65,nan,1,1702.879,2,0.02,0.25
0,219,target,"[(1193, 785)]",[],[1],[0.5833333333333334],vertical,"(390.0, 762.0)",1.2833333333333332,0.551,1,1708.641,2,0.02,0.25
0,220,target,"[(1188, 754)]",[],[1],[0.55],vertical,"(890.0, 262.0)",1.1166666666666667,0.51,1,1714.699,2,0.02,0.25
0,221,target,"[(1162, 782)]",[],[1],[0.5833333333333334],horizontal,"(390.0, 762.0)",1.2833333333333332,0.547,1,1720.145,3,0.02,0.25
0,222,target,"[(1188, 760)]",[],[1],[0.6166666666666667],horizontal,"(390.0, 262.0)",0.4166666666666667,0.588,1,1726.478,3,0.02,0.25
0,223,catch,"[(1169, 765)]",[],[1],[],horizontal,"(390.0, 762.0)",1.65,nan,1,1731.813,3,0.02,0.25
0,224,target,"[(1159, 771)]",[],[1],[0.85],horizontal,"(890.0, 262.0)",0.6833333333333333,nan,0,1737.662,0,0.02,0.25
0,225,target,"[(1163, 756)]",[],[1],[0.5333333333333333],horizontal,"(890.0, 762.0)",1.0666666666666667,0.495,1,1741.878,1,0.02,0.25
0,226,target,"[(1187, 769)]",[],[1],[0.6166666666666667],horizontal,"(390.0, 762.0)",1.4,0.576,1,1747.346,1,0.02,0.25
0,227,target,"[(1184, 792)]",[],[1],[0.5333333333333333],vertical,"(390.0, 262.0)",1.3666666666666667,0.492,1,1752.99,1,0.02,0.25
0,228,target,"[(1189, 769)]",[],[1],[0.7],vertical,"(390.0, 262.0)",0.6,0.661,1,1758.075,2,0.02,0.25
0,229,target,"[(1169, 800)]",[],[1],[0.4666666666666667],horizontal,"(390.0, 262.0)",0.65,0.426,1,1762.929,2,0.02,0.25
0,230,target,"[(1185, 784)]",[],[1],[0.85],horizontal,"(390.0, 762.0)",0.36666666666666664,nan,0,1767.905,0,0.02,0.25
0,231,target,"[(1194, 794)]",[],[1],[0.6],horizontal,"(390.0, 762.0)",0.6666666666666666,0.557,1,1772.574,1,0.02,0.25
0,232,catch,"[(1184, 768)]",[],[1],[],horizontal,"(390.0, 762.0)",1.65,nan,1,1780.443,1,0.02,0.25
0,233,target,"[(1184, 787)]",[],[1],[0.5],vertical,"(890.0, 262.0)",0.5166666666666666,0.457,1,1785.728,1,0.02,0.25
0,234,target,"[(1187, 781)]",[],[1],[0.5333333333333333],horizontal,"(890.0, 762.0)",0.75,0.494,1,1790.592,2,0.02,0.25
0,235,target,"[(1192, 780)]",[],[1],[0.3833333333333333],horizontal,"(390.0, 262.0)",1.4,0.35,1,1796.063,2,0.02,0.25
0,236,target,"[(1189, 808)]",[],[1],[0.85],horizontal,"(890.0, 762.0)",0.9666666666666667,nan,0,1801.74,0,0.02,0.25
0,237,target,"[(1169, 783)]",[],[1],[0.55],horizontal,"(390.0, 762.0)",1.2666666666666666,0.514,1,1806.395,1,0.02,0.25
0,238,target,"[(1184, 760)]",[],[1],[0.7333333333333333],horizontal,"(390.0, 262.0)",0.95,0.687,1,1811.711,1,0.02,0.25
0,239,target,"[(1188, 760)]",[],[1],[0.5666666666666667],vertical,"(390.0, 762.0)",0.6333333333333333,0.525,1,1817.329,1,0.02,0.25
0,240,target,"[(1196, 798)]",[],[1],[0.5333333333333333],vertical,"(390.0, 262.0)",0.48333333333333334,0.491,1,1821.718,2,0.02,0.25
0,241,catch,"[(1172, 760)]",[],[1],[],horizontal,"(390.0, 262.0)",1.65,nan,1,1827.245,2,0.02,0.25
0,242,target,"[(1144, 788)]",[],[1],[0.5166666666666666],horizontal,"(390.0, 262.0)",0.8833333333333333,0.474,1,1832.762,2,0.02,0.25
0,243,target,"[(1184, 766)]",[],[1],[0.85],vertical,"(390.0, 762.0)",1.0166666666666666,nan,0,1838.345,0,0.02,0.25
0,244,target,"[(1183, 781)]",[],[1],[0.6166666666666667],vertical,"(390.0, 762.0)",0.8833333333333333,0.581,1,1843.129,1,0.02,0.25
0,245,target,"[(1181, 766)]",[],[1],[0.5333333333333333],horizontal,"(390.0, 762.0)",0.4166666666666667,0.491,1,1847.887,1,0.02,0.25
0,246,target,"[(1184, 751), (1159, 790)]",[],"[0, 1]",[0.5833333333333334],horizontal,"(890.0, 262.0)",1.3166666666666667,0.541,1,1852.669,1,0.02,0.25
0,247,target,"[(1174, 774)]",[],[1],[0.5666666666666667],horizontal,"(390.0, 262.0)",0.8166666666666667,0.523,1,1859.429,2,0.02,0.25
0,248,target,"[(1170, 785)]",[],[1],[0.6666666666666666],vertical,"(390.0, 762.0)",0.9666666666666667,0.622,1,1864.247,2,0.02,0.25
0,249,catch,"[(1188, 784)]",[],[1],[],vertical,"(890.0, 762.0)",1.65,nan,1,1869.829,2,0.02,0.25
0,250,target,"[(1179, 790)]",[],[1],[0.55],vertical,"(890.0, 762.0)",1.4,0.505,1,1875.987,2,0.02,0.25
0,251,target,"[(1189, 760)]",[],[1],[0.6333333333333333],horizontal,"(890.0, 262.0)",0.9,0.595,1,1881.763,3,0.02,0.25
0,252,target,"[(1172, 760)]",[],[1],[0.5333333333333333],horizontal,"(390.0, 262.0)",0.5,0.494,1,1887.83,3,0.02,0.25
0,253,catch,"[(1194, 792)]",[],[1],[],vertical,"(890.0, 762.0)",1.65,nan,1,1893.428,3,0.02,0.25
0,254,target,"[(1189, 788)]",[],[1],[0.85],vertical,"(890.0, 762.0)",0.6166666666666667,nan,0,1899.063,0,0.02,0.25
0,255,target,"[(1163, 789)]",[],[1],[0.6],vertical,"(390.0, 762.0)",1.3666666666666667,0.562,1,1903.363,1,0.02,0.25
0,256,target,"[(1170, 789)]",[],[1],[0.6333333333333333],horizontal,"(390.0, 762.0)",0.6,0.594,1,1908.814,1,0.02,0.25
0,257,target,"[(1166, 783)]",[],[1],[0.6833333333333333],vertical,"(390.0, 262.0)",0.9833333333333333,0.647,1,1913.977,1,0.02,0.25
0,258,catch,"[(1184, 769)]",[],[1],[],horizontal,"(890.0, 262.0)",1.65,nan,1,1919.195,2,0.02,0.25
0,259,target,"[(1184, 755)]",[],[1],[0.7333333333333333],vertical,"(390.0, 762.0)",0.7,0.689,1,1924.446,2,0.02,0.25
0,260,target,"[(1157, 791)]",[],[1],[0.55],vertical,"(890.0, 762.0)",0.6,0.507,1,1929.712,2,0.02,0.25
0,261,catch,"[(1191, 765)]",[],[1],[],horizontal,"(390.0, 762.0)",1.65,nan,1,1934.962,2,0.02,0.25
0,262,target,"[(1179, 770)]",[],[1],[0.85],vertical,"(390.0, 262.0)",1.0833333333333333,nan,0,1940.718,0,0.02,0.25
0,263,target,"[(1158, 777)]",[],[1],[0.5],vertical,"(390.0, 762.0)",1.25,0.453,1,1945.586,1,0.0,0.25
0,264,catch,"[(1162, 772)]",[],[1],[],horizontal,"(890.0, 762.0)",1.65,nan,1,1951.037,1,0.0,0.25
0,265,target,"[(1189, 789)]",[],[1],[0.55],horizontal,"(390.0, 262.0)",1.0833333333333333,0.507,1,1959.339,1,0.0,0.25
0,266,target,"[(1187, 768)]",[],[1],[0.5166666666666666],vertical,"(890.0, 762.0)",1.0166666666666666,0.473,1,1964.613,2,0.0,0.25
0,267,target,"[(1188, 764)]",[],[1],[],vertical,"(890.0, 762.0)",,"('fix', 0.232)",0,1969.812,0,0.0,0.25
0,268,catch,"[(1150, 821)]",[],[1],[],horizontal,"(890.0, 262.0)",1.65,nan,1,1971.348,1,0.0,0.25
0,269,catch,"[(1181, 758)]",[],[1],[],horizontal,"(390.0, 762.0)",1.65,nan,1,1976.541,1,0.0,0.25
0,270,target,"[(1126, 785)]",[],[1],[0.75],vertical,"(890.0, 762.0)",1.5,0.702,1,1981.858,1,0.0,0.25
0,271,target,"[(1170, 786)]",[],[1],[0.55],horizontal,"(890.0, 262.0)",0.9,0.507,1,1987.9,2,0.0,0.25
0,272,target,"[(1168, 794)]",[],[1],[0.48333333333333334],horizontal,"(890.0, 762.0)",1.05,0.444,1,1993.47,2,0.0,0.25
0,273,target,"[(1184, 760)]",[],[1],[0.85],vertical,"(390.0, 762.0)",0.45,nan,0,1998.646,0,0.0,0.25
0,274,target,"[(1159, 789)]",[],[1],[0.85],vertical,"(390.0, 762.0)",0.3833333333333333,nan,0,2002.95,0,0.0,0.25
0,275,target,"[(1164, 779)]",[],[1],[0.5333333333333333],vertical,"(890.0, 762.0)",0.3833333333333333,0.498,1,2007.204,1,0.0,0.25
0,276,catch,"[(1189, 770)]",[],[1],[],horizontal,"(390.0, 262.0)",1.65,nan,1,2011.848,1,0.0,0.25
0,277,target,"[(1193, 783)]",[],[1],[0.5166666666666666],horizontal,"(890.0, 262.0)",0.48333333333333334,0.475,1,2017.324,1,0.0,0.25
0,278,target,"[(1194, 780)]",[],[1],[0.5833333333333334],horizontal,"(390.0, 762.0)",0.7666666666666666,0.541,1,2022.044,2,0.0,0.25
0,279,target,"[(1185, 769)]",[],[1],[0.5166666666666666],vertical,"(390.0, 262.0)",0.6166666666666667,0.478,1,2027.155,2,0.0,0.25
0,280,target,"[(1186, 755)]",[],[1],[0.4],horizontal,"(890.0, 262.0)",1.4333333333333333,0.368,1,2032.062,2,0.0,0.25
0,281,catch,"[(1159, 787)]",[],[1],[],horizontal,"(890.0, 262.0)",1.65,nan,1,2037.982,2,0.0,0.25
0,282,target,"[(1184, 753), (1136, 770)]",[],"[0, 1]",[0.6833333333333333],vertical,"(890.0, 262.0)",1.05,0.635,1,2043.868,3,0.0,0.25
0,283,target,"[(1169, 759)]",[],[1],[0.5],horizontal,"(890.0, 262.0)",0.9333333333333333,0.46,1,2051.998,3,0.0,0.25
0,284,target,"[(1160, 761)]",[],[1],[0.85],horizontal,"(390.0, 762.0)",0.8833333333333333,nan,0,2057.488,0,0.0,0.25
0,285,target,"[(1182, 789)]",[],[1],[0.5833333333333334],vertical,"(390.0, 262.0)",0.9333333333333333,0.544,1,2061.922,1,0.0,0.25
0,286,target,"[(1173, 791)]",[],[1],[0.5333333333333333],horizontal,"(390.0, 762.0)",1.3333333333333333,0.493,1,2067.029,1,0.0,0.25
0,287,target,"[(1184, 774)]",[],[1],[0.5333333333333333],horizontal,"(390.0, 262.0)",0.7,0.488,1,2072.395,1,0.0,0.25
0,288,target,"[(1189, 769)]",[],[1],[0.85],horizontal,"(390.0, 762.0)",0.43333333333333335,nan,0,2077.138,0,0.0,0.25
0,289,target,"[(1175, 773)]",[],[1],[0.55],horizontal,"(390.0, 262.0)",0.35,0.503,1,2081.379,1,0.0,0.25
0,290,catch,"[(1189, 784)]",[],[1],[],vertical,"(390.0, 762.0)",1.65,nan,1,2085.831,1,0.0,0.25
0,291,target,"[(1189, 768)]",[],[1],[0.48333333333333334],horizontal,"(890.0, 762.0)",1.4166666666666667,0.442,1,2091.048,1,0.0,0.25
0,292,target,"[(1185, 765)]",[],[1],[0.5],horizontal,"(390.0, 262.0)",0.8666666666666667,0.457,1,2096.613,2,0.0,0.25
0,293,target,"[(1183, 764)]",[],[1],[0.5],vertical,"(390.0, 262.0)",0.9333333333333333,0.464,1,2101.38,2,0.0,0.25
0,294,target,"[(1186, 798)]",[],[1],[0.6166666666666667],vertical,"(890.0, 762.0)",0.8333333333333334,0.576,1,2106.324,2,0.0,0.25
0,295,target,"[(1192, 773)]",[],[1],[0.65],horizontal,"(390.0, 762.0)",0.9333333333333333,0.603,1,2111.613,2,0.0,0.25
0,296,catch,"[(1152, 785)]",[],[1],[],horizontal,"(890.0, 762.0)",1.65,nan,1,2117.523,3,0.0,0.25
0,297,target,"[(1179, 784)]",[],[1],[0.5166666666666666],vertical,"(390.0, 762.0)",0.6333333333333333,0.481,1,2124.129,3,0.0,0.25
0,298,catch,"[(1185, 779)]",[],[1],[],horizontal,"(890.0, 262.0)",1.65,nan,1,2129.522,3,0.0,0.25
0,299,target,"[(1175, 761)]",[],[1],[0.85],horizontal,"(890.0, 762.0)",0.95,nan,0,2135.38,0,0.0,0.25
0,300,target,"[(1150, 762)]",[],[1],[0.6166666666666667],vertical,"(390.0, 762.0)",0.9166666666666666,0.574,1,2139.686,1,0.0,0.25
0,301,target,"[(1169, 781)]",[],[1],[0.5166666666666666],vertical,"(890.0, 262.0)",0.55,0.475,1,2145.013,1,0.0,0.25
0,302,catch,"[(1185, 782)]",[],[1],[],horizontal,"(390.0, 762.0)",1.65,nan,1,2149.525,1,0.0,0.25
0,303,target,"[(1188, 790)]",[],[1],[0.5333333333333333],vertical,"(890.0, 762.0)",0.9166666666666666,0.49,1,2154.796,2,0.0,0.25
0,304,catch,"[(1185, 761)]",[],[1],[],vertical,"(390.0, 262.0)",1.65,nan,1,2160.33,2,0.0,0.25
0,305,target,"[(1184, 774)]",[],[1],[0.6166666666666667],vertical,"(890.0, 762.0)",0.6333333333333333,0.57,1,2165.863,2,0.0,0.25
0,306,target,"[(1174, 774)]",[],[1],[0.5333333333333333],horizontal,"(890.0, 262.0)",1.4666666666666666,0.494,1,2171.53,2,0.0,0.25
0,307,target,"[(1185, 783)]",[],[1],[0.55],vertical,"(890.0, 262.0)",1.4166666666666667,0.505,1,2177.63,3,0.0,0.25
0,308,target,"[(1187, 769)]",[],[1],[0.55],vertical,"(890.0, 762.0)",1.45,0.505,1,2183.93,3,0.0,0.25
0,309,target,"[(1187, 770)]",[],[1],[0.5166666666666666],horizontal,"(390.0, 762.0)",0.4666666666666667,0.474,1,2190.08,3,0.0,0.25
0,310,target,"[(1179, 773)]",[],[1],[0.5166666666666666],horizontal,"(890.0, 262.0)",0.7166666666666667,0.471,1,2195.014,3,0.0,0.25
0,311,target,"[(1184, 768)]",[],[1],[0.55],vertical,"(890.0, 762.0)",1.0833333333333333,0.509,1,2200.447,3,0.0,0.25
0,312,catch,"[(1151, 773)]",[],[1],[],vertical,"(890.0, 262.0)",1.65,nan,1,2206.606,3,0.0,0.25
0,313,catch,"[(1184, 779)]",[],[1],[],horizontal,"(890.0, 262.0)",1.65,nan,1,2212.848,3,0.0,0.25
0,314,target,"[(1164, 769)]",[],[1],[0.5666666666666667],horizontal,"(390.0, 762.0)",0.6833333333333333,0.523,1,2218.863,3,0.0,0.25
0,315,target,"[(1188, 765)]",[],[1],[0.55],horizontal,"(890.0, 762.0)",1.3333333333333333,0.507,1,2224.722,3,0.0,0.25
0,316,catch,"[(1176, 771)]",[],[1],[],horizontal,"(890.0, 262.0)",1.65,nan,1,2230.738,3,0.0,0.25
0,317,target,"[(1172, 765)]",[],[1],[0.5666666666666667],vertical,"(890.0, 762.0)",0.6666666666666666,0.525,1,2236.812,3,0.0,0.25
0,318,target,"[(1184, 772)]",[],[1],[0.5],horizontal,"(390.0, 262.0)",1.15,0.457,1,2242.064,3,0.0,0.25
0,319,target,"[(1185, 797)]",[],[1],[0.5],vertical,"(890.0, 762.0)",0.45,0.463,1,2248.146,3,0.0,0.25
0,320,target,"[(1185, 794)]",[],[1],[0.5333333333333333],horizontal,"(390.0, 762.0)",0.9833333333333333,0.49,1,2253.556,3,0.0,0.25
0,321,target,"[(1158, 768)]",[],[1],[0.6333333333333333],vertical,"(390.0, 262.0)",0.7833333333333333,0.588,1,2259.213,3,0.0,0.25
0,322,target,"[(1170, 760)]",[],[1],[0.5666666666666667],vertical,"(390.0, 262.0)",1.3666666666666667,0.519,1,2265.28,3,0.0,0.25
0,323,target,"[(1159, 771)]",[],[1],[0.85],vertical,"(890.0, 762.0)",0.3833333333333333,nan,0,2271.608,0,0.0,0.25
0,324,target,"[(1164, 786)]",[],[1],[0.55],horizontal,"(890.0, 762.0)",0.9666666666666667,0.506,1,2275.814,1,0.0,0.25
0,325,target,"[(1194, 780)]",[],[1],[0.5166666666666666],horizontal,"(890.0, 262.0)",0.7666666666666666,0.472,1,2280.896,1,0.0,0.25
0,326,target,"[(1154, 774)]",[],[1],[0.48333333333333334],horizontal,"(890.0, 262.0)",1.1666666666666667,0.441,1,2285.096,1,0.0,0.25
0,327,target,"[(1182, 778)]",[],[1],[0.5166666666666666],vertical,"(890.0, 262.0)",1.25,0.476,1,2289.93,2,0.0,0.25
0,328,target,"[(1183, 752), (1144, 792)]",[],"[0, 1]",[0.4666666666666667],horizontal,"(890.0, 262.0)",0.7833333333333333,0.424,1,2295.447,2,0.0,0.25
0,329,target,"[(1158, 789)]",[],[1],[0.6333333333333333],vertical,"(390.0, 762.0)",1.5,0.601,1,2301.492,2,0.0,0.25
0,330,catch,"[(1185, 780)]",[],[1],[],horizontal,"(890.0, 762.0)",1.65,nan,1,2307.68,2,0.0,0.25
0,331,target,"[(1162, 785)]",[],[1],[0.5333333333333333],vertical,"(890.0, 262.0)",1.2666666666666666,0.502,1,2313.045,3,0.0,0.25
0,332,target,"[(1172, 785)]",[],[1],[0.5333333333333333],horizontal,"(890.0, 762.0)",0.9333333333333333,0.493,1,2319.197,3,0.0,0.25
0,333,target,"[(1159, 760)]",[],[1],[0.85],vertical,"(890.0, 262.0)",0.48333333333333334,nan,0,2325.08,0,0.0,0.25
0,334,target,"[(1131, 771)]",[],[1],[0.6],horizontal,"(890.0, 762.0)",1.4166666666666667,0.562,1,2328.973,1,0.0,0.25
0,335,target,"[(1184, 794)]",[],[1],[0.5333333333333333],horizontal,"(390.0, 762.0)",1.35,0.498,1,2334.698,1,0.0,0.25
0,336,target,"[(1183, 784)]",[],[1],[0.6833333333333333],vertical,"(390.0, 262.0)",1.3666666666666667,0.641,1,2339.947,1,0.0,0.25
0,337,catch,"[(1181, 781)]",[],[1],[],horizontal,"(390.0, 262.0)",1.65,nan,1,2345.507,2,0.0,0.25
0,338,catch,"[(1189, 779)]",[],[1],[],vertical,"(890.0, 262.0)",1.65,nan,1,2351.43,2,0.0,0.25
0,339,target,"[(1177, 776)]",[],[1],[0.5333333333333333],vertical,"(890.0, 262.0)",1.3166666666666667,0.501,1,2357.235,2,0.0,0.25
0,340,target,"[(1185, 761)]",[],[1],[0.6333333333333333],vertical,"(890.0, 762.0)",0.5166666666666666,0.59,1,2362.563,2,0.0,0.25
0,341,target,"[(1189, 794)]",[],[1],[0.7166666666666667],vertical,"(890.0, 762.0)",1.2666666666666666,0.677,1,2367.666,3,0.0,0.25
0,342,target,"[(1164, 774)]",[],[1],[0.7166666666666667],vertical,"(390.0, 762.0)",0.7166666666666667,0.671,1,2373.929,3,0.0,0.25
0,343,catch,"[(1181, 769)]",[],[1],[],vertical,"(390.0, 262.0)",1.65,nan,1,2379.362,3,0.0,0.25
0,344,target,"[(1178, 802)]",[],[1],[0.5833333333333334],horizontal,"(890.0, 762.0)",1.0333333333333332,0.543,1,2385.024,3,0.0,0.25
0,345,catch,"[(1164, 774)]",[],[1],[],vertical,"(390.0, 262.0)",1.65,nan,1,2391.071,3,0.0,0.25
0,346,catch,"[(1179, 783)]",[],[1],[],vertical,"(890.0, 762.0)",1.65,nan,1,2396.907,3,0.0,0.25
0,347,target,"[(1187, 769)]",[],[1],[0.55],vertical,"(390.0, 762.0)",0.4,0.519,1,2403.736,3,0.0,0.25
0,348,target,"[(1184, 775)]",[],[1],[0.55],vertical,"(390.0, 262.0)",1.0833333333333333,0.512,1,2409.264,3,0.0,0.25
0,349,target,"[(1152, 776)]",[],[1],[0.5],horizontal,"(890.0, 762.0)",0.48333333333333334,0.46,1,2415.03,3,0.0,0.25
0,350,target,"[(1166, 767)]",[],[1],[0.31666666666666665],vertical,"(390.0, 762.0)",1.4,0.281,1,2420.178,3,0.0,0.25
0,351,target,"[(1149, 775)]",[],[1],[0.5166666666666666],vertical,"(890.0, 262.0)",0.4,0.477,1,2426.047,3,0.0,0.25
0,352,target,"[(1185, 775)]",[],[1],[0.7],vertical,"(390.0, 262.0)",1.4666666666666666,0.661,1,2431.601,3,0.0,0.25
0,353,catch,"[(1184, 774)]",[],[1],[],vertical,"(390.0, 762.0)",1.65,nan,1,2437.764,3,0.0,0.25
0,354,catch,"[(1160, 779)]",[],[1],[],horizontal,"(890.0, 262.0)",1.65,nan,1,2443.437,3,0.0,0.25
0,355,target,"[(1164, 775)]",[],[1],[0.85],vertical,"(390.0, 262.0)",0.43333333333333335,nan,0,2449.671,0,0.0,0.25
0,356,target,"[(1152, 800)]",[],[1],[0.5166666666666666],horizontal,"(890.0, 262.0)",1.1333333333333333,0.479,1,2453.667,1,0.0,0.25
0,357,target,"[(1195, 801)]",[],[1],[0.55],horizontal,"(890.0, 762.0)",1.2,0.504,1,2459.201,1,0.0,0.25
0,358,catch,"[(1159, 779)]",[],[1],[],horizontal,"(390.0, 262.0)",1.65,nan,1,2464.481,1,0.0,0.25
0,359,target,"[(1181, 771)]",[],[1],[0.5166666666666666],vertical,"(390.0, 762.0)",1.3333333333333333,0.477,1,2469.797,2,0.0,0.25
0,360,target,"[(1165, 781)]",[],[1],[0.5666666666666667],vertical,"(890.0, 262.0)",1.4166666666666667,0.527,1,2475.705,2,0.0,0.25
0,361,target,"[(1156, 779)]",[],[1],[0.3],horizontal,"(390.0, 262.0)",1.45,0.263,1,2481.531,2,0.0,0.25
0,362,target,"[(1156, 782)]",[],[1],[0.5833333333333334],vertical,"(890.0, 262.0)",1.2,0.542,1,2487.43,2,0.0,0.25
0,363,catch,"[(1179, 771)]",[],[1],[],vertical,"(390.0, 262.0)",1.65,nan,1,2493.03,3,0.0,0.25
0,364,target,"[(1185, 761)]",[],[1],[0.5],vertical,"(390.0, 262.0)",0.35,0.464,1,2498.74,3,0.0,0.25
0,365,catch,"[(1180, 763)]",[],[1],[],horizontal,"(390.0, 762.0)",1.65,nan,1,2504.047,3,0.0,0.25
0,366,target,"[(1162, 776)]",[],[1],[0.4666666666666667],horizontal,"(890.0, 262.0)",1.45,0.427,1,2509.615,3,0.0,0.25
0,367,target,"[(1179, 770)]",[],[1],[0.5333333333333333],horizontal,"(390.0, 262.0)",0.7,0.499,1,2515.948,3,0.0,0.25
0,368,target,"[(1160, 786)]",[],[1],[0.4],vertical,"(890.0, 762.0)",1.45,0.364,1,2521.614,3,0.0,0.25
0,369,target,"[(1184, 795)]",[],[1],[0.85],vertical,"(890.0, 262.0)",0.65,nan,0,2527.891,0,0.0,0.25
0,370,target,"[(1160, 790)]",[],[1],[0.6166666666666667],horizontal,"(890.0, 262.0)",1.05,0.574,1,2532.514,1,0.0,0.25
0,371,target,"[(1189, 789)]",[],[1],[0.5666666666666667],vertical,"(390.0, 262.0)",0.95,0.525,1,2538.08,1,0.0,0.25
0,372,target,"[(1148, 796)]",[],[1],[0.85],horizontal,"(390.0, 262.0)",0.9833333333333333,nan,0,2543.52,0,0.0,0.25
0,373,target,"[(1163, 773)]",[],[1],[0.5166666666666666],horizontal,"(390.0, 762.0)",1.2833333333333332,0.476,1,2548.615,1,0.0,0.25
0,374,target,"[(1169, 780)]",[],[1],[0.6166666666666667],horizontal,"(890.0, 762.0)",0.65,0.575,1,2554.131,1,0.0,0.25
0,375,catch,"[(1160, 760)]",[],[1],[],vertical,"(390.0, 262.0)",1.65,nan,1,2558.897,1,0.0,0.25
0,376,target,"[(1183, 765)]",[],[1],[0.6166666666666667],vertical,"(890.0, 762.0)",0.5166666666666666,0.585,1,2563.831,2,0.0,0.25
0,377,catch,"[(1189, 796)]",[],[1],[],horizontal,"(390.0, 762.0)",1.65,nan,1,2568.73,2,0.0,0.25
0,378,target,"[(1182, 771)]",[],[1],[0.7],horizontal,"(890.0, 762.0)",1.4333333333333333,0.663,1,2574.08,2,0.0,0.25
0,379,target,"[(1184, 782)]",[],[1],[0.5666666666666667],horizontal,"(390.0, 762.0)",0.4,0.531,1,2580.181,2,0.0,0.25
0,380,target,"[(1162, 786)]",[],[1],[0.5333333333333333],horizontal,"(890.0, 262.0)",1.1333333333333333,0.49,1,2585.032,3,0.0,0.25
0,381,target,"[(1152, 773)]",[],[1],[0.7166666666666667],vertical,"(390.0, 762.0)",0.9833333333333333,0.677,1,2590.766,3,0.0,0.25
0,382,target,"[(1172, 775)]",[],[1],[0.5166666666666666],horizontal,"(390.0, 762.0)",0.36666666666666664,0.476,1,2597.327,3,0.0,0.25
0,383,target,"[(1154, 756)]",[],[1],[0.55],vertical,"(390.0, 262.0)",1.45,0.508,1,2602.448,3,0.0,0.25
0,384,catch,"[(1184, 779)]",[],[1],[],vertical,"(390.0, 262.0)",1.65,nan,1,2608.52,3,0.0,0.25
0,385,catch,"[(1179, 756)]",[],[1],[],vertical,"(390.0, 262.0)",1.65,nan,1,2614.847,3,0.0,0.25
0,386,target,"[(1173, 782)]",[],[1],[0.5833333333333334],vertical,"(390.0, 762.0)",0.3833333333333333,0.546,1,2620.912,3,0.0,0.25
0,387,target,"[(1153, 758)]",[],[1],[0.4166666666666667],vertical,"(390.0, 762.0)",1.45,0.384,1,2626.004,3,0.0,0.25
0,388,catch,"[(1177, 765)]",[],[1],[],horizontal,"(390.0, 762.0)",1.65,nan,1,2632.163,3,0.0,0.25
0,389,target,"[(1173, 779)]",[],[1],[0.8],vertical,"(390.0, 762.0)",1.0833333333333333,0.752,1,2638.299,3,0.0,0.25
0,390,target,"[(1191, 806)]",[],[1],[0.6],horizontal,"(890.0, 262.0)",0.3833333333333333,0.556,1,2644.675,3,0.0,0.25
0,391,target,"[(1169, 774)]",[],[1],[0.6833333333333333],horizontal,"(890.0, 762.0)",0.6166666666666667,0.638,1,2649.765,3,0.0,0.25
0,392,catch,"[(1159, 771)]",[],[1],[],horizontal,"(390.0, 262.0)",1.65,nan,1,2655.631,3,0.0,0.25
0,393,target,"[(1183, 766)]",[],[1],[],horizontal,"(390.0, 762.0)",,"('cti', 1.322)",0,2661.165,0,0.02,0.25
0,394,target,"[(1182, 803)]",[],[1],[0.6166666666666667],horizontal,"(890.0, 762.0)",0.4,0.584,1,2665.805,1,0.02,0.25
0,395,target,"[(1161, 835)]",[],[1],[0.85],horizontal,"(890.0, 762.0)",0.8833333333333333,nan,0,3053.459,0,0.02,0.25
0,396,catch,"[(1059, 816)]",[],[1],[],horizontal,"(390.0, 762.0)",1.65,nan,1,3095.785,1,0.02,0.25
0,397,target,"[(1141, 800)]",[],[1],[0.6333333333333333],horizontal,"(890.0, 262.0)",0.9333333333333333,0.594,1,3102.065,1,0.02,0.25
0,398,catch,"[(1141, 807)]",[],[1],[],horizontal,"(390.0, 762.0)",1.65,nan,1,3107.381,1,0.02,0.25
0,399,target,"[(1139, 793)]",[],[1],[0.55],vertical,"(890.0, 262.0)",1.05,0.505,1,3112.328,2,0.02,0.25
0,400,catch,"[(1162, 790)]",[],[1],[],vertical,"(390.0, 762.0)",1.65,nan,1,3117.866,2,0.02,0.25
0,401,catch,"[(1129, 816)]",[],[1],[],horizontal,"(890.0, 762.0)",1.65,nan,1,3343.227,2,0.02,0.25
0,402,target,"[(1154, 787)]",[],[1],[0.2833333333333333],vertical,"(390.0, 262.0)",1.25,0.247,1,3350.047,2,0.02,0.25
0,403,target,"[(1130, 794)]",[],[1],[0.5666666666666667],horizontal,"(890.0, 262.0)",0.8166666666666667,0.525,1,3355.651,3,0.02,0.25
0,404,target,"[(1135, 790)]",[],[1],[0.43333333333333335],vertical,"(390.0, 762.0)",1.4833333333333334,0.395,1,3361.415,3,0.02,0.25
0,405,target,"[(1125, 798)]",[],[1],[0.85],vertical,"(390.0, 762.0)",0.75,nan,0,3367.9,0,0.02,0.25
0,406,target,"[(1141, 772)]",[],[1],[0.85],horizontal,"(890.0, 762.0)",0.5333333333333333,nan,0,3372.949,0,0.02,0.25
0,407,target,"[(1142, 782)]",[],[1],[0.55],horizontal,"(390.0, 262.0)",1.15,0.512,1,3377.349,1,0.02,0.25
0,408,catch,"[(1177, 799)]",[],[1],[],horizontal,"(390.0, 262.0)",1.65,nan,1,3382.38,1,0.02,0.25
0,409,target,"[(1185, 771)]",[],[1],[0.85],vertical,"(390.0, 262.0)",0.75,nan,0,3387.7,0,0.02,0.25
0,410,catch,"[(1139, 782)]",[],[1],[],horizontal,"(890.0, 762.0)",1.65,nan,1,3392.147,1,0.02,0.25
0,411,target,"[(1158, 794)]",[],[1],[0.5833333333333334],vertical,"(890.0, 762.0)",1.5333333333333332,0.547,1,3397.464,1,0.02,0.25
0,412,target,"[(1174, 804)]",[],[1],[0.6166666666666667],horizontal,"(390.0, 762.0)",0.75,0.571,1,3402.866,1,0.02,0.25
0,413,target,"[(1149, 783)]",[],[1],[0.85],vertical,"(390.0, 762.0)",1.4833333333333334,nan,0,3407.738,0,0.02,0.25
0,414,target,"[(1184, 802)]",[],[1],[0.5666666666666667],horizontal,"(390.0, 762.0)",0.6,0.526,1,3412.85,1,0.02,0.25
0,415,target,"[(1154, 791)]",[],[1],[0.5166666666666666],vertical,"(890.0, 762.0)",1.05,0.476,1,3417.184,1,0.02,0.25
0,416,target,"[(1174, 794)]",[],[1],[0.5333333333333333],horizontal,"(390.0, 262.0)",0.7833333333333333,0.494,1,3422.291,1,0.02,0.25
0,417,target,"[(1150, 783)]",[],[1],[0.5166666666666666],horizontal,"(390.0, 262.0)",0.8833333333333333,0.473,1,3427.533,2,0.02,0.25
0,418,target,"[(1172, 774)]",[],[1],[0.6166666666666667],horizontal,"(390.0, 762.0)",0.7166666666666667,0.565,1,3432.799,2,0.02,0.25
0,419,target,"[(1154, 774)]",[],[1],[0.6333333333333333],horizontal,"(390.0, 762.0)",1.2833333333333332,0.588,1,3438.15,2,0.02,0.25
0,420,target,"[(1157, 790)]",[],[1],[0.85],horizontal,"(890.0, 762.0)",0.43333333333333335,nan,0,3443.958,0,0.02,0.25
0,421,target,"[(1150, 789)]",[],[1],[0.7],horizontal,"(890.0, 762.0)",0.8166666666666667,0.652,1,3448.532,1,0.02,0.25
0,422,target,"[(1162, 803)]",[],[1],[0.7166666666666667],vertical,"(890.0, 262.0)",1.1833333333333333,0.669,1,3453.767,1,0.02,0.25
0,423,target,"[(1144, 790)]",[],[1],[0.5],vertical,"(890.0, 762.0)",1.0666666666666667,0.461,1,3458.815,1,0.02,0.25
0,424,target,"[(1162, 794)]",[],[1],[0.5166666666666666],vertical,"(890.0, 762.0)",0.43333333333333335,0.474,1,3463.45,2,0.02,0.25
0,425,target,"[(1172, 771)]",[],[1],[0.55],vertical,"(390.0, 262.0)",0.5166666666666666,0.514,1,3468.289,2,0.02,0.25
0,426,target,"[(1184, 779)]",[],[1],[0.85],vertical,"(390.0, 762.0)",0.5833333333333334,nan,0,3472.933,0,0.02,0.25
0,427,catch,"[(1132, 791)]",[],[1],[],horizontal,"(390.0, 762.0)",1.65,nan,1,3477.766,1,0.02,0.25
0,428,target,"[(1168, 782)]",[],[1],[0.8333333333333334],horizontal,"(890.0, 762.0)",0.5166666666666666,0.787,1,3482.756,1,0.02,0.25
0,429,target,"[(1142, 783)]",[],[1],[0.85],vertical,"(390.0, 762.0)",0.6333333333333333,nan,0,3487.399,0,0.02,0.25
0,430,target,"[(1144, 760)]",[],[1],[0.5666666666666667],horizontal,"(890.0, 262.0)",1.5,0.521,1,3491.717,1,0.02,0.25
0,431,target,"[(1153, 769)]",[],[1],[0.5833333333333334],vertical,"(390.0, 762.0)",1.1833333333333333,0.542,1,3497.482,1,0.02,0.25
0,432,target,"[(1154, 774)]",[],[1],[0.6],horizontal,"(390.0, 762.0)",1.1333333333333333,0.562,1,3503.001,1,0.02,0.25
0,433,target,"[(1153, 788)]",[],[1],[0.48333333333333334],vertical,"(890.0, 262.0)",0.55,0.446,1,3508.516,2,0.02,0.25
0,434,target,"[(1179, 774)]",[],[1],[0.48333333333333334],horizontal,"(890.0, 762.0)",1.2,0.447,1,3513.349,2,0.02,0.25
0,435,target,"[(1181, 788)]",[],[1],[0.65],horizontal,"(890.0, 262.0)",1.3166666666666667,0.605,1,3519.134,2,0.02,0.25
0,436,target,"[(1185, 773)]",[],[1],[0.5],horizontal,"(390.0, 262.0)",0.4,0.46,1,3524.733,2,0.02,0.25
0,437,target,"[(1151, 773)]",[],[1],[0.3833333333333333],horizontal,"(390.0, 262.0)",1.4333333333333333,0.343,1,3529.381,3,0.02,0.25
0,438,target,"[(1149, 776)]",[],[1],[0.5166666666666666],horizontal,"(390.0, 762.0)",1.0333333333333332,0.47,1,3535.54,3,0.02,0.25
0,439,target,"[(1139, 786)]",[],[1],[0.55],vertical,"(390.0, 262.0)",1.1,0.507,1,3540.927,3,0.02,0.25
0,440,catch,"[(1164, 778)]",[],[1],[],horizontal,"(890.0, 762.0)",1.65,nan,1,3546.799,3,0.02,0.25
0,441,target,"[(1182, 783)]",[],[1],[0.5333333333333333],vertical,"(890.0, 262.0)",0.3833333333333333,0.495,1,3552.582,3,0.02,0.25
0,442,catch,"[(1166, 803)]",[],[1],[],vertical,"(390.0, 262.0)",1.65,nan,1,3557.684,3,0.02,0.25
0,443,catch,"[(1185, 783)]",[],[1],[],vertical,"(890.0, 762.0)",1.65,nan,1,3563.641,3,0.0,0.25
0,444,catch,"[(1181, 779)]",[],[1],[],horizontal,"(890.0, 262.0)",1.65,nan,1,3569.432,3,0.0,0.25
0,445,catch,"[(1183, 782)]",[],[1],[],horizontal,"(390.0, 262.0)",1.65,nan,1,3575.075,3,0.0,0.25
0,446,catch,"[(1182, 773)]",[],[1],[],vertical,"(890.0, 262.0)",1.65,nan,1,3580.916,3,0.0,0.25
0,447,target,"[(1174, 792)]",[],[1],[0.5333333333333333],vertical,"(890.0, 762.0)",0.9833333333333333,0.5,1,3586.606,3,0.0,0.25
0,448,catch,"[(1165, 764)]",[],[1],[],vertical,"(890.0, 262.0)",1.65,nan,1,3592.298,3,0.0,0.25
0,449,target,"[(1191, 775)]",[],[1],[0.48333333333333334],horizontal,"(890.0, 262.0)",1.3666666666666667,0.442,1,3597.977,3,0.0,0.25
0,450,target,"[(1164, 772)]",[],[1],[0.5833333333333334],horizontal,"(890.0, 262.0)",1.25,0.541,1,3604.039,3,0.0,0.25
0,451,target,"[(1139, 776)]",[],[1],[0.5],vertical,"(890.0, 262.0)",0.4166666666666667,0.458,1,3609.974,3,0.0,0.25
0,452,target,"[(1153, 774)]",[],[1],[0.5666666666666667],horizontal,"(890.0, 262.0)",0.4166666666666667,0.525,1,3615.182,3,0.0,0.25
0,453,target,"[(1184, 777)]",[],[1],[0.85],horizontal,"(890.0, 262.0)",0.8333333333333334,nan,0,3620.55,0,0.0,0.25
0,454,target,"[(1177, 791)]",[],[1],[0.6333333333333333],horizontal,"(890.0, 262.0)",1.0,0.59,1,3625.584,1,0.0,0.25
0,455,target,"[(1159, 826)]",[],[1],[0.5333333333333333],horizontal,"(890.0, 762.0)",1.2,0.49,1,3630.533,1,0.0,0.25
0,456,target,"[(1167, 799)]",[],[1],[0.5666666666666667],vertical,"(390.0, 262.0)",0.95,0.521,1,4340.626,1,0.0,0.25
0,457,target,"[(1142, 789)]",[],[1],[0.5333333333333333],vertical,"(890.0, 762.0)",0.65,0.49,1,4346.052,2,0.0,0.25
0,458,target,"[(1179, 797)]",[],[1],[0.6],vertical,"(390.0, 762.0)",1.1666666666666667,0.556,1,4351.36,2,0.0,0.25
0,459,catch,"[(1154, 779)]",[],[1],[],horizontal,"(390.0, 762.0)",1.65,nan,1,4356.777,2,0.0,0.25
0,460,target,"[(1181, 771)]",[],[1],[0.7],vertical,"(890.0, 762.0)",1.5333333333333332,0.655,1,4362.318,2,0.0,0.25
0,461,target,"[(1173, 772)]",[],[1],[0.5],vertical,"(890.0, 262.0)",0.9166666666666666,0.457,1,4367.943,3,0.0,0.25
0,462,target,"[(1181, 750), (1150, 807)]",[],"[0, 1]",[0.55],vertical,"(890.0, 262.0)",0.95,0.515,1,4374.068,3,0.0,0.25
0,463,target,"[(1155, 765)]",[],[1],[0.5166666666666666],vertical,"(390.0, 262.0)",0.95,0.475,1,4380.629,3,0.0,0.25
0,464,target,"[(1159, 779)]",[],[1],[0.5333333333333333],vertical,"(890.0, 762.0)",0.5,0.486,1,4386.401,3,0.0,0.25
0,465,target,"[(1180, 782)]",[],[1],[0.5333333333333333],horizontal,"(890.0, 262.0)",1.2333333333333334,0.494,1,4391.169,3,0.0,0.25
0,466,target,"[(1158, 784)]",[],[1],[0.5333333333333333],vertical,"(390.0, 762.0)",1.0666666666666667,0.49,1,4397.036,3,0.0,0.25
0,467,catch,"[(1171, 766)]",[],[1],[],vertical,"(390.0, 262.0)",1.65,nan,1,4402.406,3,0.0,0.25
0,468,catch,"[(1159, 778)]",[],[1],[],vertical,"(390.0, 262.0)",1.65,nan,1,4408.549,3,0.0,0.25
0,469,target,"[(1154, 778)]",[],[1],[0.5833333333333334],horizontal,"(890.0, 262.0)",0.35,0.545,1,4414.628,3,0.0,0.25
0,470,target,"[(1159, 778)]",[],[1],[0.6333333333333333],horizontal,"(890.0, 762.0)",0.8166666666666667,0.595,1,4419.568,3,0.0,0.25
0,471,catch,"[(1202, 772)]",[],[1],[],vertical,"(890.0, 762.0)",1.65,nan,1,4425.385,3,0.0,0.25
0,472,target,"[(1197, 774)]",[],[1],[0.5166666666666666],vertical,"(890.0, 262.0)",1.0166666666666666,0.48,1,4431.259,3,0.0,0.25
0,473,target,"[(1173, 778)]",[],[1],[0.5833333333333334],horizontal,"(390.0, 762.0)",0.8833333333333333,0.542,1,4437.329,3,0.0,0.25
0,474,target,"[(1164, 769)]",[],[1],[0.48333333333333334],vertical,"(890.0, 262.0)",0.8666666666666667,0.447,1,4442.885,3,0.0,0.25
0,475,target,"[(1174, 765)]",[],[1],[0.5166666666666666],vertical,"(890.0, 262.0)",0.9833333333333333,0.477,1,4448.651,3,0.0,0.25
0,476,target,"[(1158, 791)]",[],[1],[0.5166666666666666],horizontal,"(390.0, 262.0)",0.43333333333333335,0.477,1,4453.869,3,0.0,0.25
0,477,target,"[(1160, 775)]",[],[1],[0.6166666666666667],vertical,"(890.0, 262.0)",0.7166666666666667,0.574,1,4459.165,3,0.0,0.25
0,478,catch,"[(1154, 764)]",[],[1],[],horizontal,"(390.0, 262.0)",1.65,nan,1,4464.986,3,0.0,0.25
0,479,target,"[(1176, 775)]",[],[1],[0.45],horizontal,"(390.0, 262.0)",1.4666666666666666,0.411,1,4470.942,3,0.0,0.25
0,480,target,"[(1154, 771)]",[],[1],[0.6333333333333333],horizontal,"(890.0, 762.0)",0.8333333333333334,0.59,1,4476.752,3,0.0,0.25
0,481,catch,"[(1184, 779)]",[],[1],[],vertical,"(390.0, 262.0)",1.65,nan,1,4482.535,3,0.0,0.25
0,482,target,"[(1192, 775)]",[],[1],[0.5166666666666666],vertical,"(390.0, 262.0)",1.4,0.478,1,4488.402,3,0.0,0.25
0,483,target,"[(1177, 775)]",[],[1],[0.5],horizontal,"(390.0, 762.0)",0.6333333333333333,0.456,1,4494.452,3,0.0,0.25
0,484,catch,"[(1159, 763)]",[],[1],[],vertical,"(890.0, 262.0)",1.65,nan,1,4500.151,3,0.0,0.25
0,485,target,"[(1183, 789)]",[],[1],[0.5166666666666666],vertical,"(890.0, 762.0)",1.0166666666666666,0.477,1,4506.32,3,0.0,0.25
0,486,target,"[(1159, 764)]",[],[1],[0.5166666666666666],vertical,"(890.0, 762.0)",0.85,0.472,1,4511.706,3,0.0,0.25
0,487,catch,"[(1158, 772)]",[],[1],[],vertical,"(890.0, 262.0)",1.65,nan,1,4517.119,3,0.0,0.25
0,488,target,"[(1163, 776)]",[],[1],[0.4166666666666667],horizontal,"(390.0, 762.0)",1.4,0.375,1,4522.936,3,0.0,0.25
0,489,target,"[(1185, 779)]",[],[1],[0.85],horizontal,"(890.0, 262.0)",0.4,nan,0,4528.902,0,0.0,0.25
0,490,target,"[(1154, 792)]",[],[1],[0.48333333333333334],vertical,"(890.0, 762.0)",1.1666666666666667,0.443,1,4532.851,1,0.0,0.25
0,491,catch,"[(1159, 752), (1159, 806)]",[],"[0, 1]",[],vertical,"(390.0, 262.0)",1.65,nan,1,4538.203,1,0.0,0.25
0,492,catch,"[(1164, 765)]",[],[1],[],vertical,"(390.0, 262.0)",1.65,nan,1,4544.686,1,0.0,0.25
0,493,catch,"[(1181, 776)]",[],[1],[],horizontal,"(390.0, 262.0)",1.65,nan,1,4549.817,2,0.0,0.25
0,494,catch,"[(1154, 771)]",[],[1],[],vertical,"(890.0, 762.0)",,"('cti', 1.594),nan",0,4555.386,0,0.02,0.25
0,495,target,"[(1145, 807)]",[],[1],[0.21666666666666667],vertical,"(390.0, 262.0)",1.2166666666666666,0.183,0,4559.994,0,0.02,0.25
0,496,target,"[(1149, 803)]",[],[1],[0.5],horizontal,"(890.0, 262.0)",0.4,0.467,1,4589.609,1,0.02,0.25
0,497,target,"[(1165, 785)]",[],[1],[0.85],horizontal,"(890.0, 262.0)",0.55,nan,0,4594.469,0,0.02,0.25
0,498,target,"[(1149, 789)]",[],[1],[0.5833333333333334],vertical,"(890.0, 762.0)",1.25,0.549,1,4598.742,1,0.02,0.25
0,499,target,"[(1170, 799)]",[],[1],[0.55],horizontal,"(390.0, 262.0)",1.4166666666666667,0.514,1,4604.187,1,0.02,0.25
0,500,target,"[(1179, 758)]",[],[1],[0.6833333333333333],vertical,"(890.0, 762.0)",1.2666666666666666,0.641,1,4609.383,1,0.02,0.25
0,501,target,"[(1162, 785)]",[],[1],[0.55],horizontal,"(890.0, 762.0)",1.15,0.508,1,4614.369,2,0.02,0.25
0,502,target,"[(1184, 774)]",[],[1],[0.6166666666666667],horizontal,"(890.0, 262.0)",1.0333333333333332,0.576,1,4620.369,2,0.02,0.25
0,503,target,"[(1184, 776)]",[],[1],[0.6333333333333333],vertical,"(390.0, 762.0)",1.1166666666666667,0.6,1,4625.625,2,0.02,0.25
0,504,target,"[(1158, 773)]",[],[1],[0.5333333333333333],vertical,"(390.0, 762.0)",0.8666666666666667,0.493,1,4631.635,2,0.02,0.25
0,505,target,"[(1172, 765)]",[],[1],[0.55],vertical,"(890.0, 762.0)",0.95,0.509,1,4637.169,3,0.02,0.25
0,506,target,"[(1159, 775)]",[],[1],[0.5666666666666667],horizontal,"(390.0, 262.0)",1.05,0.524,1,4642.703,3,0.02,0.25
0,507,target,"[(1189, 779)]",[],[1],[0.55],horizontal,"(890.0, 262.0)",0.8666666666666667,0.507,1,4648.653,3,0.02,0.25
0,508,target,"[(1186, 783)]",[],[1],[0.6],horizontal,"(890.0, 262.0)",0.6,0.568,1,4654.37,3,0.02,0.25
0,509,catch,"[(1184, 777)]",[],[1],[],horizontal,"(390.0, 762.0)",1.65,nan,1,4660.168,3,0.02,0.25
0,510,target,"[(1182, 771)]",[],[1],[0.85],vertical,"(390.0, 262.0)",0.4,nan,0,4665.803,0,0.02,0.25
0,511,target,"[(1160, 782)]",[],[1],[0.55],horizontal,"(390.0, 762.0)",0.95,0.508,1,4670.001,1,0.02,0.25
0,512,target,"[(1160, 782)]",[],[1],[0.5166666666666666],horizontal,"(390.0, 262.0)",0.6666666666666666,0.477,1,4674.836,1,0.02,0.25
0,513,target,"[(1169, 770)]",[],[1],[0.7],horizontal,"(390.0, 262.0)",1.3166666666666667,0.652,1,4679.714,1,0.02,0.25
0,514,target,"[(1181, 784)]",[],[1],[0.65],horizontal,"(390.0, 262.0)",0.95,0.61,1,4684.809,2,0.02,0.25
0,515,target,"[(1160, 759)]",[],[1],[0.4666666666666667],vertical,"(890.0, 262.0)",0.48333333333333334,0.427,1,4690.117,2,0.02,0.25
0,516,catch,"[(1180, 769)]",[],[1],[],horizontal,"(890.0, 762.0)",1.65,nan,1,4694.752,2,0.02,0.25
0,517,target,"[(1180, 787)]",[],[1],[0.85],horizontal,"(890.0, 762.0)",0.4666666666666667,nan,0,4700.469,0,0.02,0.25
0,518,target,"[(1162, 773)]",[],[1],[0.6166666666666667],vertical,"(390.0, 262.0)",0.43333333333333335,0.574,1,4705.01,1,0.02,0.25
0,519,target,"[(1180, 791)]",[],[1],[0.5],vertical,"(890.0, 262.0)",0.9666666666666667,0.463,1,4709.817,1,0.02,0.25
0,520,target,"[(1159, 769)]",[],[1],[0.6333333333333333],vertical,"(390.0, 762.0)",0.5166666666666666,0.592,1,4714.636,1,0.02,0.25
0,521,target,"[(1188, 768)]",[],[1],[0.4666666666666667],vertical,"(890.0, 762.0)",1.3833333333333333,0.429,1,4719.522,2,0.02,0.25
0,522,target,"[(1187, 790)]",[],[1],[0.45],vertical,"(390.0, 262.0)",1.4666666666666666,0.417,1,4725.234,2,0.02,0.25
0,523,catch,"[(1189, 765)]",[],[1],[],horizontal,"(890.0, 262.0)",1.65,nan,1,4731.102,2,0.02,0.25
0,524,target,"[(1197, 794)]",[],[1],[0.5333333333333333],vertical,"(890.0, 262.0)",0.7666666666666666,0.494,1,4736.807,2,0.02,0.25
0,525,target,"[(1186, 792)]",[],[1],[0.7166666666666667],horizontal,"(890.0, 762.0)",0.9,0.674,1,4742.253,3,0.02,0.25
0,526,target,"[(1184, 776)]",[],[1],[0.6166666666666667],horizontal,"(390.0, 762.0)",0.7166666666666667,0.571,1,4748.586,3,0.02,0.25
0,527,target,"[(1160, 797)]",[],[1],[0.85],horizontal,"(390.0, 262.0)",1.2166666666666666,nan,0,4753.92,0,0.02,0.25
0,528,target,"[(1159, 798)]",[],[1],[0.5666666666666667],horizontal,"(890.0, 262.0)",0.5,0.53,1,4758.809,1,0.02,0.25
0,529,target,"[(1184, 779)]",[],[1],[0.85],horizontal,"(890.0, 762.0)",0.9166666666666666,nan,0,4763.084,0,0.02,0.25
0,530,catch,"[(1169, 788)]",[],[1],[],vertical,"(890.0, 262.0)",1.65,nan,1,4767.432,1,0.02,0.25
0,531,target,"[(1184, 794)]",[],[1],[0.6333333333333333],vertical,"(390.0, 762.0)",0.6833333333333333,0.59,1,4772.636,1,0.02,0.25
0,532,target,"[(1189, 760)]",[],[1],[0.5333333333333333],vertical,"(390.0, 762.0)",0.7833333333333333,0.493,1,4777.586,1,0.02,0.25
0,533,target,"[(1182, 789)]",[],[1],[0.5],horizontal,"(890.0, 262.0)",1.1666666666666667,0.466,1,4782.72,2,0.02,0.25
0,534,catch,"[(1188, 776)]",[],[1],[],horizontal,"(390.0, 262.0)",1.65,nan,1,4787.896,2,0.02,0.25
0,535,target,"[(1190, 777)]",[],[1],[0.7],vertical,"(890.0, 762.0)",0.6,0.662,1,4793.562,2,0.02,0.25
0,536,target,"[(1162, 782)]",[],[1],[0.6],horizontal,"(390.0, 262.0)",1.2,0.553,1,4798.631,2,0.02,0.25
0,537,target,"[(1173, 784)]",[],[1],[0.5166666666666666],horizontal,"(390.0, 262.0)",0.6833333333333333,0.474,1,4804.052,3,0.02,0.25
0,538,target,"[(1162, 779)]",[],[1],[0.65],vertical,"(890.0, 262.0)",0.48333333333333334,0.613,1,4809.869,3,0.02,0.25
0,539,target,"[(1165, 778)]",[],[1],[0.5666666666666667],horizontal,"(890.0, 762.0)",0.8833333333333333,0.524,1,4815.853,3,0.02,0.25
0,540,target,"[(1174, 774)]",[],[1],[0.6333333333333333],horizontal,"(890.0, 262.0)",1.05,0.59,1,4821.302,3,0.02,0.25
0,541,target,"[(1187, 778)]",[],[1],[0.5333333333333333],vertical,"(890.0, 762.0)",1.3,0.496,1,4827.012,3,0.02,0.25
0,542,catch,"[(1161, 766)]",[],[1],[],horizontal,"(890.0, 262.0)",1.65,nan,1,4832.882,3,0.02,0.25
0,543,target,"[(1159, 778)]",[],[1],[0.5],vertical,"(890.0, 762.0)",0.4666666666666667,0.454,1,4838.806,3,0.02,0.25
0,544,target,"[(1185, 780)]",[],[1],[0.48333333333333334],vertical,"(890.0, 262.0)",1.3333333333333333,0.446,1,4844.121,3,0.0,0.25
0,545,target,"[(1189, 782)]",[],[1],[0.5],horizontal,"(390.0, 762.0)",1.1666666666666667,0.458,1,4850.338,3,0.0,0.25
0,546,target,"[(1159, 768)]",[],[1],[0.6833333333333333],horizontal,"(390.0, 262.0)",1.3333333333333333,0.642,1,4856.284,3,0.0,0.25
0,547,catch,"[(1185, 768)]",[],[1],[],vertical,"(890.0, 262.0)",1.65,nan,1,4862.435,3,0.0,0.25
0,548,catch,"[(1184, 770)]",[],[1],[],horizontal,"(890.0, 762.0)",1.65,nan,1,4868.159,3,0.0,0.25
0,549,target,"[(1180, 759)]",[],[1],[0.5],horizontal,"(390.0, 262.0)",0.8,0.459,1,4874.102,3,0.0,0.25
0,550,catch,"[(1154, 756)]",[],[1],[],horizontal,"(390.0, 262.0)",1.65,nan,1,4879.17,3,0.0,0.25
0,551,target,"[(1159, 766)]",[],[1],[0.6],vertical,"(390.0, 762.0)",0.8166666666666667,0.553,1,4884.918,3,0.0,0.25
0,552,target,"[(1165, 760)]",[],[1],[0.5833333333333334],vertical,"(390.0, 762.0)",0.7,0.542,1,4890.369,3,0.0,0.25
0,553,catch,"[(1165, 760)]",[],[1],[],vertical,"(390.0, 262.0)",1.65,nan,1,4896.291,3,0.0,0.25
0,554,target,"[(1162, 755)]",[],[1],[0.3],horizontal,"(890.0, 762.0)",1.5333333333333332,0.262,1,4902.358,3,0.0,0.25
0,555,catch,"[(1184, 752), (1138, 799)]",[],"[0, 1]",[],vertical,"(390.0, 762.0)",1.65,nan,1,4908.67,3,0.0,0.25
0,556,catch,"[(1178, 785)]",[],[1],[],vertical,"(890.0, 262.0)",1.65,nan,1,4915.82,3,0.0,0.25
0,557,catch,"[(1176, 773)]",[],[1],[],horizontal,"(390.0, 262.0)",,"('cti', 1.097),nan",0,4921.62,0,0.02,0.25
0,558,target,"[(1156, 787)]",[],[1],[0.6666666666666666],horizontal,"(890.0, 262.0)",0.4,0.622,1,4926.096,1,0.02,0.25
0,559,target,"[(1154, 789)]",[],[1],[0.5333333333333333],horizontal,"(390.0, 762.0)",0.8833333333333333,0.489,1,4930.735,1,0.02,0.25
0,560,target,"[(1186, 773)]",[],[1],[0.85],horizontal,"(890.0, 762.0)",0.4666666666666667,nan,0,4935.803,0,0.02,0.25
0,561,catch,"[(1128, 803)]",[],[1],[0.03333333333333333],vertical,"(390.0, 262.0)",1.65,"0.019,nan",0,4940.356,0,0.04,0.25
0,562,target,"[(1159, 782)]",[],[1],[0.5833333333333334],vertical,"(890.0, 762.0)",0.7666666666666666,0.538,1,4948.042,1,0.04,0.25
0,563,target,"[(1172, 780)]",[],[1],[0.5666666666666667],horizontal,"(890.0, 762.0)",1.4333333333333333,0.518,1,4953.249,1,0.04,0.25
0,564,target,"[(1155, 778)]",[],[1],[0.5166666666666666],horizontal,"(390.0, 262.0)",0.5,0.472,1,4958.684,1,0.04,0.25
0,565,target,"[(1184, 778)]",[],[1],[0.65],horizontal,"(390.0, 762.0)",1.0666666666666667,0.609,1,4963.225,2,0.04,0.25
0,566,target,"[(1183, 779)]",[],[1],[0.5166666666666666],horizontal,"(390.0, 762.0)",0.9,0.475,1,4968.913,2,0.04,0.25
0,567,target,"[(1185, 775)]",[],[1],[0.6666666666666666],vertical,"(390.0, 762.0)",0.7833333333333333,0.623,1,4974.374,2,0.04,0.25
0,568,target,"[(1179, 787)]",[],[1],[0.5833333333333334],vertical,"(390.0, 762.0)",1.2166666666666666,0.54,1,4979.378,2,0.04,0.25
0,569,target,"[(1189, 791)]",[],[1],[0.5333333333333333],vertical,"(890.0, 262.0)",0.7833333333333333,0.497,1,4984.926,3,0.04,0.25
0,570,target,"[(1165, 772)]",[],[1],[0.85],vertical,"(890.0, 762.0)",0.45,nan,0,4990.869,0,0.04,0.25
0,571,target,"[(1137, 780)]",[],[1],[0.5333333333333333],horizontal,"(890.0, 762.0)",0.55,0.494,1,4995.448,1,0.04,0.25
0,572,target,"[(1182, 786)]",[],[1],[0.65],horizontal,"(390.0, 262.0)",1.35,0.607,1,4999.876,1,0.04,0.25
0,573,target,"[(1162, 765)]",[],[1],[0.85],vertical,"(390.0, 762.0)",0.6333333333333333,nan,0,5004.946,0,0.04,0.25
0,574,catch,"[(1153, 779)]",[],[1],[],vertical,"(890.0, 262.0)",1.65,nan,1,5009.237,1,0.04,0.25
0,575,catch,"[(1186, 782)]",[],[1],[],horizontal,"(390.0, 762.0)",1.65,nan,1,5014.437,1,0.04,0.25
0,576,target,"[(1162, 781)]",[],[1],[],horizontal,"(890.0, 762.0)",,"('cti', 1.458)",0,5019.536,0,0.06,0.25
0,577,target,"[(1139, 804)]",[],[1],[0.6],horizontal,"(390.0, 262.0)",1.0333333333333332,0.556,1,5024.453,1,0.06,0.25
0,578,catch,"[(1149, 776)]",[],[1],[],horizontal,"(390.0, 262.0)",1.65,nan,1,5029.887,1,0.06,0.25
0,579,target,"[(1155, 788)]",[],[1],[0.6666666666666666],vertical,"(390.0, 262.0)",0.6166666666666667,0.622,1,5034.937,1,0.06,0.25
0,580,catch,"[(1150, 786)]",[],[1],[],horizontal,"(390.0, 262.0)",1.65,nan,1,5039.906,2,0.06,0.25
0,581,target,"[(1162, 776)]",[],[1],[0.5333333333333333],vertical,"(890.0, 262.0)",0.6666666666666666,0.487,1,5045.447,2,0.06,0.25
0,582,target,"[(1152, 788)]",[],[1],[0.5666666666666667],horizontal,"(390.0, 262.0)",1.5,0.528,1,5050.218,2,0.06,0.25
0,583,target,"[(1180, 779)]",[],[1],[0.5],vertical,"(890.0, 262.0)",1.2,0.458,1,5057.285,2,0.06,0.25
0,584,target,"[(1181, 803)]",[],[1],[0.4666666666666667],vertical,"(890.0, 262.0)",0.8833333333333333,0.426,1,5062.472,3,0.06,0.25
0,585,target,"[(1177, 776)]",[],[1],[0.55],horizontal,"(390.0, 762.0)",0.7,0.512,1,5067.97,3,0.06,0.25
0,586,target,"[(1179, 758)]",[],[1],[0.85],vertical,"(890.0, 762.0)",1.25,nan,0,5073.461,0,0.06,0.25
0,587,target,"[(1125, 779)]",[],[1],[0.6333333333333333],horizontal,"(890.0, 262.0)",0.5666666666666667,0.591,1,5078.029,1,0.06,0.25
0,588,target,"[(1169, 781)]",[],[1],[0.5666666666666667],horizontal,"(390.0, 262.0)",1.1833333333333333,0.517,1,5082.873,1,0.06,0.25
0,589,target,"[(1159, 760)]",[],[1],[0.5666666666666667],vertical,"(390.0, 262.0)",0.7833333333333333,0.53,1,5088.188,1,0.06,0.25
0,590,target,"[(1161, 809)]",[],[1],[0.55],horizontal,"(390.0, 262.0)",1.2166666666666666,0.514,1,5092.751,2,0.06,0.25
0,591,target,"[(1184, 777)]",[],[1],[0.6166666666666667],horizontal,"(390.0, 762.0)",1.05,0.575,1,5098.763,2,0.06,0.25
0,592,target,"[(1158, 793)]",[],[1],[0.18333333333333332],horizontal,"(390.0, 762.0)",1.5333333333333332,0.15,0,5104.363,0,0.06,0.25
0,593,catch,"[(1159, 779)]",[],[1],[],horizontal,"(390.0, 262.0)",1.65,nan,1,5109.264,1,0.06,0.25
0,594,target,"[(1158, 839)]",[],[1],[0.85],horizontal,"(890.0, 262.0)",0.6833333333333333,nan,0,5114.67,0,0.06,0.25
0,595,target,"[(1144, 794)]",[],[1],[0.3333333333333333],horizontal,"(890.0, 762.0)",1.0666666666666667,0.296,1,5181.253,1,0.06,0.25
0,596,catch,"[(1169, 781)]",[],[1],[],horizontal,"(890.0, 762.0)",1.65,nan,1,5186.766,1,0.06,0.25
0,597,target,"[(1146, 782)]",[],[1],[0.43333333333333335],horizontal,"(390.0, 762.0)",1.3666666666666667,0.393,1,5191.747,1,0.06,0.25
0,598,target,"[(1184, 779)]",[],[1],[0.48333333333333334],horizontal,"(890.0, 762.0)",0.3833333333333333,0.445,1,5196.77,2,0.06,0.25
0,599,target,"[(1154, 774)]",[],[1],[0.7166666666666667],horizontal,"(890.0, 762.0)",0.4166666666666667,0.667,1,5201.503,2,0.06,0.25
0,600,target,"[(1188, 779)]",[],[1],[0.36666666666666664],horizontal,"(390.0, 762.0)",1.4,0.338,1,5206.246,2,0.06,0.25
0,601,target,"[(1158, 783)]",[],[1],[0.5],vertical,"(890.0, 762.0)",1.4166666666666667,0.465,1,5212.102,2,0.06,0.25
0,602,target,"[(1180, 776)]",[],[1],[0.5333333333333333],horizontal,"(390.0, 262.0)",1.4,0.494,1,5218.218,3,0.06,0.25
0,603,catch,"[(1150, 770)]",[],[1],[],vertical,"(890.0, 762.0)",1.65,nan,1,5224.593,3,0.06,0.25
0,604,target,"[(1184, 775)]",[],[1],[0.55],horizontal,"(390.0, 262.0)",0.4,0.512,1,5230.302,3,0.06,0.25
0,605,target,"[(1149, 772)]",[],[1],[0.85],vertical,"(390.0, 762.0)",0.6,nan,0,5235.305,0,0.06,0.25
0,606,target,"[(1143, 804)]",[],[1],[0.75],vertical,"(890.0, 762.0)",0.95,0.711,1,5239.97,1,0.06,0.25
0,607,catch,"[(1178, 777)]",[],[1],[],horizontal,"(890.0, 262.0)",1.65,nan,1,5245.153,1,0.04,0.25
0,608,target,"[(1139, 765)]",[],[1],[0.5666666666666667],vertical,"(390.0, 262.0)",1.1166666666666667,0.519,1,5249.803,1,0.04,0.25
0,609,target,"[(1184, 780)]",[],[1],[0.5333333333333333],horizontal,"(390.0, 262.0)",0.9833333333333333,0.492,1,5255.237,2,0.04,0.25
0,610,target,"[(1185, 802)]",[],[1],[0.5833333333333334],vertical,"(890.0, 762.0)",0.3833333333333333,0.54,1,5260.516,2,0.04,0.25
0,611,target,"[(1154, 755)]",[],[1],[0.5166666666666666],vertical,"(890.0, 262.0)",0.6833333333333333,0.479,1,5265.686,2,0.02,0.25
0,612,target,"[(1146, 773)]",[],[1],[0.5666666666666667],vertical,"(890.0, 762.0)",0.6,0.527,1,5270.925,2,0.02,0.25
0,613,target,"[(1179, 785)]",[],[1],[0.55],vertical,"(890.0, 762.0)",1.1,0.507,1,5275.753,3,0.02,0.25
0,614,catch,"[(1184, 785)]",[],[1],[],vertical,"(390.0, 262.0)",1.65,nan,1,5281.487,3,0.02,0.25
0,615,catch,"[(1168, 795)]",[],[1],[],horizontal,"(390.0, 262.0)",1.65,nan,1,5287.336,3,0.02,0.25
0,616,target,"[(1144, 765)]",[],[1],[0.5833333333333334],vertical,"(390.0, 262.0)",0.7,0.542,1,5293.364,3,0.02,0.25
0,617,catch,"[(1174, 767)]",[],[1],[],horizontal,"(890.0, 262.0)",1.65,nan,1,5299.04,3,0.02,0.25
0,618,target,"[(1145, 768)]",[],[1],[0.7333333333333333],vertical,"(890.0, 762.0)",1.0333333333333332,0.687,1,5304.705,3,0.02,0.25
0,619,target,"[(1179, 763)]",[],[1],[0.65],horizontal,"(390.0, 762.0)",1.0,0.607,1,5310.805,3,0.02,0.25
0,620,target,"[(1179, 764)]",[],[1],[0.5333333333333333],vertical,"(890.0, 262.0)",0.7333333333333333,0.496,1,5316.233,3,0.02,0.25
0,621,target,"[(1179, 784)]",[],[1],[0.6333333333333333],vertical,"(390.0, 262.0)",1.1666666666666667,0.587,1,5321.802,3,0.02,0.25
0,622,target,"[(1147, 786)]",[],[1],[0.6],vertical,"(890.0, 762.0)",0.5166666666666666,0.558,1,5328.103,3,0.02,0.25
0,623,target,"[(1144, 782)]",[],[1],[0.5833333333333334],vertical,"(390.0, 262.0)",0.7166666666666667,0.543,1,5333.454,3,0.02,0.25
0,624,catch,"[(1147, 779)]",[],[1],[],vertical,"(390.0, 762.0)",1.65,nan,1,5339.369,3,0.02,0.25
0,625,target,"[(1160, 755)]",[],[1],[0.5666666666666667],horizontal,"(890.0, 262.0)",0.36666666666666664,0.525,1,5345.388,3,0.02,0.25
0,626,catch,"[(1187, 747), (1132, 799)]",[],"[0, 1]",[],vertical,"(390.0, 762.0)",1.65,nan,1,5350.955,3,0.0,0.25
0,627,target,"[(1173, 748), (1120, 799)]",[],"[0, 1]",[0.7333333333333333],horizontal,"(890.0, 262.0)",1.1333333333333333,0.686,1,5358.138,3,0.0,0.25
0,628,target,"[(1148, 802)]",[],[1],[0.8333333333333334],vertical,"(890.0, 762.0)",0.5666666666666667,0.786,1,5365.503,3,0.0,0.25
0,629,target,"[(1189, 776)]",[],[1],[0.5666666666666667],vertical,"(890.0, 262.0)",1.3333333333333333,0.524,1,5370.837,3,0.0,0.25
0,630,target,"[(1199, 776)]",[],[1],[0.85],horizontal,"(890.0, 762.0)",0.4166666666666667,nan,0,5376.854,0,0.0,0.25
0,631,target,"[(1144, 794)]",[],[1],[0.4],horizontal,"(390.0, 762.0)",0.7833333333333333,0.365,1,5380.683,1,0.0,0.25
0,632,target,"[(1155, 782)]",[],[1],[0.55],vertical,"(390.0, 762.0)",0.6166666666666667,0.507,1,5385.42,1,0.0,0.25
0,633,target,"[(1174, 774)]",[],[1],[0.6],vertical,"(890.0, 762.0)",1.1666666666666667,0.561,1,5390.048,1,0.0,0.25
0,634,target,"[(1150, 760)]",[],[1],[0.5833333333333334],vertical,"(390.0, 262.0)",0.65,0.543,1,5395.088,2,0.0,0.25
0,635,catch,"[(1145, 785)]",[],[1],[],vertical,"(390.0, 762.0)",1.65,nan,1,5400.171,2,0.0,0.25
0,636,target,"[(1145, 782)]",[],[1],[0.7],horizontal,"(890.0, 762.0)",1.1,0.658,1,5405.67,2,0.0,0.25
0,637,target,"[(1174, 776)]",[],[1],[0.85],vertical,"(890.0, 762.0)",0.5333333333333333,nan,0,5411.704,0,0.0,0.25
0,638,catch,"[(1148, 775)]",[],[1],[],vertical,"(890.0, 762.0)",1.65,nan,1,5415.773,1,0.0,0.25
0,639,target,"[(1139, 774)]",[],[1],[0.85],horizontal,"(890.0, 262.0)",1.3333333333333333,nan,0,5421.19,0,0.0,0.25
0,640,target,"[(1143, 793)]",[],[1],[0.5833333333333334],vertical,"(390.0, 262.0)",1.5166666666666666,0.545,1,5426.238,1,0.0,0.25
0,641,target,"[(1158, 761)]",[],[1],[0.5333333333333333],vertical,"(890.0, 762.0)",0.43333333333333335,0.494,1,5431.598,1,0.0,0.25
0,642,target,"[(1171, 792)]",[],[1],[0.55],horizontal,"(390.0, 262.0)",0.8833333333333333,0.507,1,5435.923,1,0.0,0.25
0,643,catch,"[(1159, 759)]",[],[1],[],horizontal,"(890.0, 262.0)",1.65,nan,1,5441.237,2,0.0,0.25
0,644,target,"[(1184, 782)]",[],[1],[0.6],vertical,"(890.0, 262.0)",1.2166666666666666,0.569,1,5446.437,2,0.0,0.25
0,645,target,"[(1162, 774)]",[],[1],[0.5],horizontal,"(890.0, 262.0)",1.4333333333333333,0.456,1,5451.993,2,0.0,0.25
0,646,target,"[(1158, 777)]",[],[1],[0.65],vertical,"(890.0, 762.0)",0.8833333333333333,0.608,1,5457.895,2,0.0,0.25
0,647,target,"[(1159, 765)]",[],[1],[0.36666666666666664],vertical,"(390.0, 262.0)",1.2,0.329,1,5463.442,3,0.0,0.25
0,648,target,"[(1159, 778)]",[],[1],[0.5166666666666666],vertical,"(390.0, 262.0)",0.9833333333333333,0.479,1,5469.771,3,0.0,0.25
0,649,target,"[(1154, 782)]",[],[1],[0.6333333333333333],horizontal,"(890.0, 262.0)",0.9166666666666666,0.591,1,5475.54,3,0.0,0.25
0,650,target,"[(1157, 759)]",[],[1],[0.7],vertical,"(390.0, 762.0)",0.6,0.657,1,5481.254,3,0.0,0.25
0,651,target,"[(1166, 776)]",[],[1],[0.48333333333333334],horizontal,"(390.0, 762.0)",1.5166666666666666,0.442,1,5486.698,3,0.0,0.25
0,652,target,"[(1158, 762)]",[],[1],[0.48333333333333334],horizontal,"(390.0, 762.0)",1.45,0.45,1,5492.955,3,0.0,0.25
0,653,target,"[(1167, 781)]",[],[1],[0.6166666666666667],vertical,"(390.0, 762.0)",1.2666666666666666,0.575,1,5499.032,3,0.0,0.25
0,654,catch,"[(1158, 755)]",[],[1],[],horizontal,"(390.0, 262.0)",1.65,nan,1,5504.937,3,0.0,0.25
0,655,target,"[(1151, 769)]",[],[1],[0.5333333333333333],horizontal,"(890.0, 762.0)",0.8666666666666667,0.491,1,5511.276,3,0.0,0.25
0,656,target,"[(1149, 775)]",[],[1],[0.7166666666666667],horizontal,"(390.0, 762.0)",1.1,0.684,1,5516.84,3,0.0,0.25
0,657,catch,"[(1184, 766)]",[],[1],[],vertical,"(890.0, 262.0)",1.65,nan,1,5522.691,3,0.0,0.25
0,658,target,"[(1165, 778)]",[],[1],[0.6333333333333333],vertical,"(390.0, 762.0)",0.43333333333333335,0.593,1,5528.621,3,0.0,0.25
0,659,catch,"[(1154, 772)]",[],[1],[],vertical,"(390.0, 262.0)",1.65,nan,1,5534.252,3,0.0,0.25
0,660,target,"[(1179, 772)]",[],[1],[0.4166666666666667],vertical,"(390.0, 262.0)",1.4666666666666666,0.381,1,5540.508,3,0.0,0.25
0,661,catch,"[(1184, 748), (1144, 808)]",[],"[0, 1]",[],vertical,"(390.0, 262.0)",,"('cti', 1.591),nan",0,5546.753,0,0.02,0.25
0,662,target,"[(1164, 785)]",[],[1],[0.6833333333333333],horizontal,"(890.0, 762.0)",0.7666666666666666,0.641,1,5552.614,1,0.02,0.25
0,663,target,"[(1159, 776)]",[],[1],[0.85],horizontal,"(890.0, 762.0)",1.3666666666666667,nan,0,5557.441,0,0.02,0.25
