block,trial,trial_type,taps_start_loc_during_fix,taps_end_loc_during_fix,taps_on_lever_during_fix,taps_on_lever_s_during_fix,bar_orientation,target_xy,cti,rt,acc,time,pulses
0,1,target,"[(1074, 783)]",[],[1],[0.3833333333333333],vertical,"(890.0, 262.0)",0.75,0.351,1,0.643,1
0,2,catch,"[(996, 866), (993, 871), (994, 873), (994, 873), (994, 873), (994, 873), (994, 873), (993, 873), (993, 873), (987, 868), (987, 868), (987, 868), (987, 868), (988, 869), (987, 869), (988, 869), (988, 869), (988, 869), (995, 873), (995, 873), (182, 1010), (806, 679), (935, 673), (797, 678), (1025, 904)]",[],"[0, 0, 0, 0, 0, 0, 0, 0, 0, 0, 0, 0, 0, 0, 0, 0, 0, 0, 0, 0, 0, 0, 0, 0, 1]",[],vertical,"(390.0, 762.0)",1.0,nan,1,151.273,1
0,3,target,"[(1067, 843)]",[],[1],[0.85],horizontal,"(390.0, 262.0)",0.6333333333333333,nan,0,4000.553,0
0,4,target,"[(1036, 861)]",[],[1],[0.8],horizontal,"(890.0, 762.0)",1.45,0.747,1,4005.232,1
0,5,target,"[(1063, 870)]",[],[1],[0.85],horizontal,"(390.0, 262.0)",1.5333333333333332,nan,0,4889.495,0
0,6,target,"[(1061, 845)]",[],[1],[0.85],vertical,"(890.0, 762.0)",0.5333333333333333,nan,0,4894.972,0
0,7,target,"[(1033, 811)]",[],[1],[0.85],vertical,"(890.0, 762.0)",1.5,nan,0,4899.088,0
0,8,target,"[(471, 543), (1029, 848)]",[],"[0, 1]",[0.6333333333333333],vertical,"(390.0, 262.0)",0.9,0.59,1,4904.508,1
0,9,target,"[(1009, 847)]",[],[1],[0.6833333333333333],vertical,"(890.0, 262.0)",1.15,0.637,1,4911.968,1
0,10,target,"[(1075, 817)]",[],[1],[],vertical,"(390.0, 762.0)",,"('cti', 1.607)",0,4917.739,0
0,11,target,"[(1053, 828)]",[],[1],[0.55],vertical,"(390.0, 762.0)",0.75,0.505,1,4922.972,1
0,12,catch,"[(1013, 838)]",[],[1],[],horizontal,"(390.0, 762.0)",1.3333333333333333,nan,1,4927.999,1
0,13,target,"[(1040, 832)]",[],[1],[0.6166666666666667],horizontal,"(390.0, 262.0)",1.1333333333333333,0.57,1,4932.947,1
0,14,target,"[(1056, 825)]",[],[1],[0.08333333333333333],vertical,"(390.0, 762.0)",1.45,0.052,0,4938.472,0
0,15,target,"[(1057, 824)]",[],[1],[0.7],horizontal,"(390.0, 762.0)",0.7333333333333333,0.655,1,4943.589,1
0,16,target,"[(1086, 808)]",[],[1],[0.48333333333333334],vertical,"(890.0, 762.0)",1.2333333333333334,0.441,1,4948.339,1
0,17,target,"[(1075, 810)]",[],[1],[0.5666666666666667],horizontal,"(390.0, 262.0)",0.6666666666666666,0.521,1,4953.536,1
0,18,target,"[(1058, 829)]",[],[1],[0.85],horizontal,"(890.0, 262.0)",1.5333333333333332,"('cti', 1.539),nan",0,4958.523,0
0,19,target,"[(1022, 834)]",[],[1],[0.3],vertical,"(390.0, 262.0)",1.1666666666666667,0.264,1,4964.018,1
0,20,target,"[(1057, 828)]",[],[1],[0.55],vertical,"(390.0, 762.0)",1.15,0.506,1,4968.853,1
0,21,target,"[(1057, 829)]",[],[1],[0.7166666666666667],horizontal,"(390.0, 762.0)",0.95,0.672,1,4974.107,1
0,22,target,"[(1071, 829)]",[],[1],[0.5833333333333334],vertical,"(890.0, 262.0)",1.2833333333333332,0.541,1,4979.426,2
0,23,target,"[(1057, 822)]",[],[1],[0.75],vertical,"(390.0, 762.0)",0.7833333333333333,0.705,1,4985.407,1
0,24,target,"[(1061, 802)]",[],[1],[0.6],vertical,"(890.0, 262.0)",0.7,0.561,1,4990.939,1
0,25,target,"[(1017, 838)]",[],[1],[0.85],vertical,"(390.0, 762.0)",0.9333333333333333,nan,0,4995.69,0
0,26,target,"[(1012, 821)]",[],[1],[0.7],vertical,"(390.0, 762.0)",0.65,0.652,1,5001.005,1
0,27,target,"[(1072, 802)]",[],[1],[0.55],horizontal,"(390.0, 762.0)",1.0166666666666666,0.502,1,5005.973,1
0,28,target,"[(1077, 809)]",[],[1],[0.7333333333333333],vertical,"(890.0, 762.0)",0.5,0.683,1,5011.139,1
0,29,target,"[(1057, 807)]",[],[1],[0.5666666666666667],vertical,"(390.0, 262.0)",1.15,0.522,1,5015.381,2
0,30,catch,"[(1085, 792)]",[],[1],[],horizontal,"(390.0, 762.0)",1.45,nan,1,5021.233,1
0,31,target,"[(1077, 811)]",[],[1],[0.3333333333333333],horizontal,"(890.0, 762.0)",1.2833333333333332,0.294,1,5025.69,1
0,32,target,"[(1076, 845)]",[],[1],[0.21666666666666667],horizontal,"(890.0, 762.0)",1.4,0.183,1,5030.745,1
0,33,target,"[(1013, 827)]",[],[1],[],vertical,"(890.0, 762.0)",,"('cti', 1.464)",0,5036.287,0
0,34,target,"[(1010, 817)]",[],[1],[0.5833333333333334],vertical,"(890.0, 762.0)",0.9166666666666666,0.538,1,5040.998,1
0,35,target,"[(1062, 822)]",[],[1],[0.45],vertical,"(390.0, 262.0)",1.45,0.405,1,5045.779,1
0,36,target,"[(1057, 817)]",[],[1],[0.4],horizontal,"(390.0, 762.0)",1.4166666666666667,0.362,1,5051.339,1
0,37,target,"[(1065, 824)]",[],[1],[0.5666666666666667],vertical,"(390.0, 262.0)",1.4666666666666666,0.524,1,5056.861,2
0,38,target,"[(1057, 816)]",[],[1],[0.85],vertical,"(390.0, 762.0)",1.5,nan,0,5062.79,0
0,39,target,"[(1057, 807)]",[],[1],[0.5833333333333334],horizontal,"(390.0, 262.0)",1.0166666666666666,0.541,1,5067.941,1
0,40,target,"[(1061, 808)]",[],[1],[0.6666666666666666],horizontal,"(890.0, 262.0)",0.55,0.62,1,5073.573,1
0,41,target,"[(1084, 815)]",[],[1],[0.55],vertical,"(390.0, 762.0)",0.7666666666666666,0.509,1,5078.178,1
0,42,target,"[(1054, 801)]",[],[1],[0.2833333333333333],vertical,"(390.0, 262.0)",1.5666666666666667,0.25,1,5083.418,2
0,43,target,"[(1077, 814)]",[],[1],[0.6166666666666667],vertical,"(890.0, 762.0)",0.7833333333333333,0.577,1,5088.906,1
0,44,catch,"[(1073, 809)]",[],[1],[],horizontal,"(890.0, 262.0)",1.2,nan,1,5093.673,1
0,45,target,"[(1084, 830)]",[],[1],[],vertical,"(890.0, 762.0)",,"('cti', 1.179)",0,5098.939,0
0,46,target,"[(1077, 807)]",[],[1],[0.6666666666666666],vertical,"(890.0, 762.0)",1.0833333333333333,0.623,1,5103.123,1
0,47,catch,"[(1066, 826)]",[],[1],[],horizontal,"(390.0, 262.0)",1.0166666666666666,nan,1,5108.44,1
0,48,target,"[(1065, 819)]",[],[1],[0.55],horizontal,"(390.0, 762.0)",1.1166666666666667,0.511,1,5113.623,1
0,49,target,"[(1065, 826)]",[],[1],[],vertical,"(890.0, 262.0)",,"('cti', 1.423)",0,5119.273,0
0,50,target,"[(1022, 838)]",[],[1],[0.45],horizontal,"(890.0, 762.0)",1.2833333333333332,0.408,1,5124.241,1
0,51,target,"[(1037, 819)]",[],[1],[0.7333333333333333],horizontal,"(390.0, 262.0)",1.0666666666666667,0.688,1,5131.433,1
0,52,target,"[(1053, 819)]",[],[1],[0.7666666666666666],horizontal,"(390.0, 762.0)",0.9,0.726,1,5136.691,1
0,53,target,"[(1057, 798)]",[],[1],[0.21666666666666667],vertical,"(890.0, 262.0)",1.45,0.182,1,5142.423,2
0,54,target,"[(1064, 824)]",[],[1],[0.85],vertical,"(390.0, 262.0)",1.05,nan,0,5148.111,0
0,55,target,"[(1062, 798)]",[],[1],[],vertical,"(890.0, 762.0)",,"('cti', 1.206)",0,5153.362,0
0,56,target,"[(1062, 789)]",[],[1],[0.5166666666666666],vertical,"(390.0, 262.0)",1.1333333333333333,0.474,1,5157.881,1
0,57,catch,"[(1057, 812)]",[],[1],[],horizontal,"(890.0, 762.0)",1.2666666666666666,nan,1,5163.286,1
0,58,target,"[(1064, 815)]",[],[1],[0.5],vertical,"(390.0, 762.0)",0.85,0.457,1,5168.29,1
0,59,target,"[(1080, 804)]",[],[1],[0.7],horizontal,"(890.0, 262.0)",0.55,0.654,1,5173.523,2
0,60,catch,"[(1065, 802)]",[],[1],[],horizontal,"(890.0, 262.0)",1.0166666666666666,nan,1,5178.756,1
0,61,target,"[(1071, 809)]",[],[1],[0.3],vertical,"(390.0, 762.0)",1.6333333333333333,0.269,1,5183.632,1
0,62,target,"[(1057, 827)]",[],[1],[0.7333333333333333],horizontal,"(390.0, 262.0)",0.8,0.687,1,5189.239,1
0,63,target,"[(1092, 824)]",[],[1],[0.5333333333333333],horizontal,"(390.0, 762.0)",1.15,0.495,1,5194.648,2
0,64,target,"[(1053, 798)]",[],[1],[0.6166666666666667],vertical,"(390.0, 762.0)",0.7,0.571,1,5199.973,1
0,65,target,"[(1059, 829)]",[],[1],[0.6],vertical,"(390.0, 262.0)",0.8166666666666667,0.563,1,5204.827,1
0,66,catch,"[(1081, 828)]",[],[1],[],horizontal,"(890.0, 762.0)",1.2333333333333334,nan,1,5210.014,1
0,67,target,"[(1066, 839)]",[],[1],[0.35],vertical,"(390.0, 262.0)",1.3,0.311,1,5215.176,2
0,68,target,"[(1080, 795)]",[],[1],[0.5833333333333334],vertical,"(890.0, 262.0)",0.7833333333333333,0.539,1,5221.09,1
0,69,target,"[(1087, 825)]",[],[1],[0.31666666666666665],horizontal,"(890.0, 262.0)",1.5166666666666666,0.282,1,5225.54,1
0,70,target,"[(1064, 826)]",[],[1],[0.6166666666666667],vertical,"(390.0, 262.0)",1.2166666666666666,0.569,1,5231.075,1
0,71,target,"[(1038, 822)]",[],[1],[],horizontal,"(390.0, 762.0)",,"('cti', 1.533)",0,5236.114,0
0,72,target,"[(1050, 833)]",[],[1],[0.5166666666666666],horizontal,"(890.0, 762.0)",1.2833333333333332,0.474,1,5240.857,1
0,73,target,"[(1065, 812)]",[],[1],[0.25],vertical,"(390.0, 262.0)",1.5333333333333332,0.215,1,5246.392,1
0,74,target,"[(1076, 819)]",[],[1],[0.6333333333333333],horizontal,"(390.0, 762.0)",0.8333333333333334,0.599,1,5251.857,1
0,75,target,"[(1080, 798)]",[],[1],[0.36666666666666664],horizontal,"(390.0, 262.0)",1.3333333333333333,0.325,1,5257.108,2
0,76,target,"[(1065, 798)]",[],[1],[0.2833333333333333],horizontal,"(390.0, 262.0)",1.5166666666666666,0.245,1,5262.823,1
0,77,target,"[(1076, 819)]",[],[1],[0.5166666666666666],horizontal,"(390.0, 762.0)",1.0666666666666667,0.479,1,5267.708,1
0,78,target,"[(1076, 821)]",[],[1],[0.35],vertical,"(890.0, 762.0)",1.2166666666666666,0.311,1,5272.802,1
0,79,target,"[(1076, 828)]",[],[1],[0.6333333333333333],vertical,"(390.0, 262.0)",0.9,0.59,1,5278.29,2
0,80,target,"[(1077, 798)]",[],[1],[0.36666666666666664],vertical,"(390.0, 762.0)",1.4166666666666667,0.328,1,5283.875,1
0,81,target,"[(1067, 816)]",[],[1],[0.85],horizontal,"(890.0, 762.0)",0.6666666666666666,nan,0,5289.089,0
0,82,target,"[(1064, 818)]",[],[1],[0.25],horizontal,"(390.0, 262.0)",1.6833333333333333,0.216,1,5293.424,1
0,83,target,"[(1068, 815)]",[],[1],[0.36666666666666664],horizontal,"(390.0, 262.0)",1.6,0.327,1,5299.442,1
0,84,target,"[(1073, 809)]",[],[1],[0.2833333333333333],vertical,"(890.0, 762.0)",1.4666666666666666,0.25,1,5305.007,1
0,85,target,"[(1065, 807)]",[],[1],[0.6833333333333333],horizontal,"(390.0, 262.0)",1.2833333333333332,0.645,1,5310.407,2
0,86,target,"[(1061, 848)]",[],[1],[0.55],vertical,"(390.0, 262.0)",0.8166666666666667,0.515,1,5316.125,1
0,87,target,"[(1029, 836)]",[],[1],[0.55],horizontal,"(890.0, 762.0)",0.5166666666666666,0.512,1,5321.074,1
0,88,target,"[(1065, 809)]",[],[1],[0.4],vertical,"(390.0, 262.0)",1.2833333333333332,0.359,1,5326.131,1
0,89,target,"[(1071, 818)]",[],[1],[0.6333333333333333],vertical,"(390.0, 762.0)",0.6833333333333333,0.593,1,5331.424,2
0,90,target,"[(1065, 828)]",[],[1],[0.55],vertical,"(390.0, 262.0)",0.9166666666666666,0.505,1,5336.424,1
0,91,target,"[(1068, 812)]",[],[1],[0.3],horizontal,"(890.0, 762.0)",1.3166666666666667,0.269,1,5341.307,1
0,92,catch,"[(1072, 822)]",[],[1],[],horizontal,"(890.0, 762.0)",1.25,nan,1,5346.291,1
0,93,target,"[(1073, 812)]",[],[1],[0.5333333333333333],vertical,"(390.0, 262.0)",0.95,0.496,1,5350.718,2
0,94,target,"[(1051, 827)]",[],[1],[0.65],vertical,"(890.0, 762.0)",1.0,0.61,1,5355.741,1
0,95,catch,"[(1073, 821)]",[],[1],[],vertical,"(390.0, 762.0)",,"('cti', 1.494),nan",0,5361.425,0
0,96,catch,"[(1065, 813)]",[],[1],[],vertical,"(890.0, 262.0)",1.5,nan,1,5366.319,1
0,97,target,"[(1065, 816)]",[],[1],[0.6666666666666666],horizontal,"(390.0, 762.0)",1.0333333333333332,0.62,1,5370.974,1
0,98,target,"[(1072, 804)]",[],[1],[0.6666666666666666],horizontal,"(890.0, 262.0)",1.1,0.622,1,5375.924,1
0,99,target,"[(1055, 811)]",[],[1],[0.25],vertical,"(890.0, 762.0)",1.3833333333333333,0.22,1,5381.273,2
0,100,target,"[(1069, 789)]",[],[1],[0.55],vertical,"(890.0, 262.0)",0.7,0.508,1,5386.935,1
0,101,target,"[(1064, 810)]",[],[1],[0.7166666666666667],horizontal,"(890.0, 262.0)",0.8333333333333334,0.672,1,5391.814,1
0,102,target,"[(1057, 822)]",[],[1],[0.75],vertical,"(890.0, 762.0)",1.3666666666666667,0.705,1,5397.449,1
0,103,target,"[(1049, 820)]",[],[1],[0.6833333333333333],vertical,"(390.0, 262.0)",0.8333333333333334,0.641,1,5403.263,2
0,104,target,"[(1064, 820)]",[],[1],[0.85],horizontal,"(890.0, 762.0)",0.6333333333333333,nan,0,5408.591,0
0,105,target,"[(1033, 845)]",[],[1],[0.65],horizontal,"(890.0, 262.0)",1.0,0.607,1,5412.991,1
0,106,target,"[(1064, 830)]",[],[1],[0.5333333333333333],horizontal,"(890.0, 262.0)",0.7333333333333333,0.491,1,5422.232,1
0,107,catch,"[(1065, 811)]",[],[1],[],horizontal,"(390.0, 762.0)",1.0,nan,1,5427.63,1
0,108,target,"[(1042, 837)]",[],[1],[0.8166666666666667],vertical,"(390.0, 262.0)",0.5166666666666666,0.774,1,5432.534,2
0,109,catch,"[(1065, 834)]",[],[1],[],vertical,"(890.0, 262.0)",1.15,nan,1,5437.614,1
0,110,target,"[(1065, 832)]",[],[1],[0.48333333333333334],horizontal,"(890.0, 762.0)",1.35,0.446,1,5442.437,1
0,111,target,"[(1063, 817)]",[],[1],[0.6333333333333333],vertical,"(390.0, 262.0)",0.6333333333333333,0.595,1,5448.325,1
0,112,target,"[(1073, 815)]",[],[1],[0.26666666666666666],vertical,"(890.0, 262.0)",1.2666666666666666,0.237,1,5453.607,2
0,113,target,"[(1068, 784)]",[],[1],[0.6166666666666667],vertical,"(390.0, 262.0)",0.8,0.58,1,5459.309,1
0,114,target,"[(1057, 795)]",[],[1],[0.23333333333333334],vertical,"(890.0, 762.0)",1.55,0.2,1,5464.442,1
0,115,target,"[(1023, 825)]",[],[1],[0.6166666666666667],horizontal,"(390.0, 262.0)",0.6166666666666667,0.576,1,5469.909,1
0,116,target,"[(1056, 827)]",[],[1],[0.6166666666666667],horizontal,"(390.0, 762.0)",1.1166666666666667,0.574,1,5474.409,2
0,117,target,"[(1057, 820)]",[],[1],[0.6833333333333333],horizontal,"(890.0, 762.0)",0.95,0.646,1,5479.943,1
0,118,target,"[(1049, 840)]",[],[1],[0.3833333333333333],vertical,"(890.0, 262.0)",1.4833333333333334,0.346,1,5485.093,1
0,119,target,"[(1087, 833)]",[],[1],[0.4166666666666667],vertical,"(390.0, 262.0)",1.0666666666666667,0.381,1,5490.876,1
0,120,target,"[(1073, 815)]",[],[1],[0.4166666666666667],horizontal,"(390.0, 262.0)",1.3333333333333333,0.373,1,5496.392,2
0,121,target,"[(1061, 806)]",[],[1],[0.5],vertical,"(890.0, 262.0)",0.9166666666666666,0.456,1,5502.021,1
0,122,target,"[(1069, 821)]",[],[1],[0.6],horizontal,"(890.0, 262.0)",1.2333333333333334,0.554,1,5506.676,1
0,123,target,"[(1063, 821)]",[],[1],[0.85],vertical,"(890.0, 762.0)",0.85,nan,0,5511.934,0
0,124,target,"[(1053, 821)]",[],[1],[0.23333333333333334],horizontal,"(390.0, 762.0)",1.2333333333333334,0.198,1,5516.407,1
0,125,target,"[(1068, 825)]",[],[1],[0.55],horizontal,"(390.0, 262.0)",1.25,0.507,1,5521.859,1
0,126,target,"[(1058, 824)]",[],[1],[0.6],horizontal,"(390.0, 262.0)",0.65,0.554,1,5527.278,1
0,127,target,"[(1029, 830)]",[],[1],[0.6166666666666667],vertical,"(390.0, 762.0)",0.5166666666666666,0.571,1,5532.664,2
0,128,target,"[(1072, 830)]",[],[1],[0.5666666666666667],horizontal,"(390.0, 262.0)",0.7,0.522,1,5537.937,1
0,129,catch,"[(1046, 865)]",[],[1],[],horizontal,"(390.0, 762.0)",1.35,nan,1,5543.098,1
0,130,target,"[(1045, 834)]",[],[1],[0.85],horizontal,"(390.0, 262.0)",1.1,nan,0,5548.975,0
0,131,catch,"[(1018, 822)]",[],[1],[],vertical,"(890.0, 262.0)",1.3833333333333333,nan,1,5554.759,1
0,132,target,"[(1013, 819)]",[],[1],[0.5833333333333334],vertical,"(390.0, 762.0)",1.5833333333333333,0.533,1,5559.626,1
0,133,target,"[(1029, 846)]",[],[1],[0.65],horizontal,"(390.0, 262.0)",1.4666666666666666,0.608,1,5565.281,1
0,134,target,"[(1040, 822)]",[],[1],[],vertical,"(390.0, 262.0)",,"('cti', 1.557)",0,5580.686,0
0,135,target,"[(1053, 793)]",[],[1],[0.8333333333333334],horizontal,"(390.0, 262.0)",1.25,0.782,1,5585.256,1
0,136,catch,"[(1063, 816)]",[],[1],[],vertical,"(890.0, 762.0)",1.15,nan,1,5590.376,1
0,137,catch,"[(1038, 834)]",[],[1],[],vertical,"(890.0, 762.0)",,"('cti', 1.5),nan",0,5595.073,0
0,138,catch,"[(1057, 812)]",[],[1],[],vertical,"(890.0, 262.0)",1.5666666666666667,nan,1,5599.668,1
0,139,target,"[(186, 707), (616, 279), (906, 440), (620, 286), (615, 298), (612, 307), (1132, 916)]",[],"[0, 0, 0, 0, 0, 0, 1]",[0.4666666666666667],horizontal,"(390.0, 762.0)",1.0666666666666667,0.424,1,5604.569,1
0,140,target,"[(817, 842), (730, 868), (923, 783), (923, 889), (884, 823), (961, 943), (1029, 870)]",[],"[0, 0, 0, 0, 0, 0, 1]",[0.5],horizontal,"(890.0, 762.0)",1.4,0.457,1,10559.222,1
0,141,target,"[(1025, 849)]",[],[1],[0.85],vertical,"(390.0, 762.0)",0.8166666666666667,nan,0,11434.344,0
0,142,target,"[(550, 640), (1025, 889)]",[],"[0, 1]",[0.1],horizontal,"(390.0, 262.0)",1.65,0.069,0,11439.527,0
0,143,target,"[(1029, 829)]",[],[1],[0.6],horizontal,"(890.0, 262.0)",1.1666666666666667,0.554,1,11445.543,1
0,144,target,"[(1065, 829)]",[],[1],[0.6833333333333333],horizontal,"(890.0, 262.0)",1.1333333333333333,0.638,1,11450.709,1
0,145,target,"[(1065, 815)]",[],[1],[0.3333333333333333],vertical,"(890.0, 262.0)",1.3,0.295,1,11455.871,1
0,146,target,"[(1056, 828)]",[],[1],[0.5333333333333333],vertical,"(390.0, 762.0)",1.2166666666666666,0.499,1,11461.376,2
0,147,target,"[(1057, 820)]",[],[1],[0.4666666666666667],horizontal,"(890.0, 762.0)",0.9666666666666667,0.429,1,11467.426,1
0,148,target,"[(1057, 821)]",[],[1],[0.7166666666666667],horizontal,"(890.0, 762.0)",0.6166666666666667,0.669,1,11472.251,1
0,149,target,"[(1065, 808)]",[],[1],[],horizontal,"(890.0, 762.0)",,"('cti', 1.422)",0,11476.677,0
0,150,target,"[(1057, 831)]",[],[1],[0.5],vertical,"(390.0, 262.0)",1.3,0.462,1,11481.228,1
0,151,target,"[(1061, 813)]",[],[1],[0.5333333333333333],vertical,"(890.0, 762.0)",0.7,0.495,1,11486.749,1
0,152,target,"[(1058, 811)]",[],[1],[0.5166666666666666],horizontal,"(890.0, 262.0)",1.15,0.477,1,11491.743,1
0,153,catch,"[(1061, 828)]",[],[1],[],horizontal,"(390.0, 762.0)",1.65,nan,1,11496.871,2
0,154,target,"[(1065, 816)]",[],[1],[0.5166666666666666],vertical,"(890.0, 762.0)",1.0833333333333333,0.48,1,11502.364,1
0,155,target,"[(1065, 821)]",[],[1],[0.5166666666666666],vertical,"(890.0, 262.0)",0.55,0.484,1,11507.322,1
0,156,target,"[(1059, 810)]",[],[1],[0.45],vertical,"(390.0, 262.0)",1.4666666666666666,0.411,1,11512.327,1
0,157,target,"[(1033, 828)]",[],[1],[0.2],vertical,"(390.0, 762.0)",1.3166666666666667,0.164,1,11517.627,2
0,158,target,"[(1061, 806)]",[],[1],[0.3],vertical,"(890.0, 262.0)",1.2666666666666666,0.266,1,11523.34,1
0,159,target,"[(1072, 824)]",[],[1],[],vertical,"(890.0, 762.0)",,"('cti', 1.501)",0,11528.643,0
0,160,target,"[(1033, 851)]",[],[1],[0.23333333333333334],horizontal,"(390.0, 762.0)",1.5333333333333332,0.203,1,11533.559,1
0,161,target,"[(1061, 820)]",[],[1],[],horizontal,"(890.0, 262.0)",,"('cti', 1.432)",0,11538.97,0
0,162,catch,"[(1061, 822)]",[],[1],[],vertical,"(890.0, 262.0)",1.3,nan,1,11543.16,1
0,163,target,"[(1069, 819)]",[],[1],[0.65],horizontal,"(390.0, 262.0)",0.5833333333333334,0.61,1,11548.11,1
0,164,target,"[(1068, 813)]",[],[1],[0.3],vertical,"(890.0, 262.0)",1.4666666666666666,0.268,1,11552.945,1
0,165,target,"[(1061, 829)]",[],[1],[],vertical,"(890.0, 762.0)",,"('cti', 1.575)",0,11558.212,0
0,166,target,"[(1061, 822)]",[],[1],[0.48333333333333334],horizontal,"(390.0, 262.0)",1.2666666666666666,0.451,1,11563.096,1
0,167,target,"[(1069, 808)]",[],[1],[0.5333333333333333],horizontal,"(890.0, 262.0)",0.7666666666666666,0.493,1,11568.694,1
0,168,target,"[(1061, 810)]",[],[1],[0.55],vertical,"(390.0, 262.0)",0.6666666666666666,0.517,1,11573.455,1
0,169,target,"[(1072, 813)]",[],[1],[0.5],horizontal,"(890.0, 762.0)",0.6833333333333333,0.458,1,11577.827,2
0,170,target,"[(1068, 808)]",[],[1],[0.6166666666666667],horizontal,"(890.0, 262.0)",0.8,0.585,1,11583.078,1
0,171,target,"[(1072, 815)]",[],[1],[0.2],horizontal,"(390.0, 262.0)",1.2333333333333334,0.166,1,11587.677,1
0,172,target,"[(1061, 806)]",[],[1],[0.6],vertical,"(890.0, 762.0)",0.9333333333333333,0.563,1,11592.427,1
0,173,target,"[(1064, 813)]",[],[1],[0.5833333333333334],horizontal,"(890.0, 762.0)",0.7166666666666667,0.542,1,11597.045,2
0,174,target,"[(1072, 834)]",[],[1],[0.48333333333333334],vertical,"(890.0, 262.0)",0.55,0.441,1,11602.577,1
0,175,target,"[(1013, 827)]",[],[1],[0.06666666666666667],horizontal,"(390.0, 262.0)",1.65,0.036,0,11607.344,0
0,176,catch,"[(1069, 814)]",[],[1],[],horizontal,"(890.0, 762.0)",1.3833333333333333,nan,1,11612.195,1
0,177,target,"[(1074, 810)]",[],[1],[],vertical,"(390.0, 762.0)",,"('cti', 1.456)",0,11617.173,0
0,178,target,"[(1069, 818)]",[],[1],[0.06666666666666667],horizontal,"(890.0, 762.0)",1.55,0.035,0,11621.859,0
0,179,target,"[(1071, 828)]",[],[1],[0.4166666666666667],horizontal,"(390.0, 262.0)",1.15,0.378,1,11626.794,1
0,180,catch,"[(1079, 811)]",[],[1],[],horizontal,"(890.0, 762.0)",1.5333333333333332,nan,1,11632.245,1
0,181,catch,"[(1012, 833)]",[],[1],[],horizontal,"(890.0, 762.0)",1.0166666666666666,nan,1,11637.295,1
0,182,target,"[(1057, 825)]",[],[1],[0.4166666666666667],horizontal,"(390.0, 762.0)",0.5833333333333334,0.384,1,11641.644,2
0,183,target,"[(1053, 820)]",[],[1],[0.43333333333333335],vertical,"(890.0, 262.0)",1.1833333333333333,0.392,1,11646.795,1
0,184,target,"[(1059, 803)]",[],[1],[],vertical,"(390.0, 762.0)",,"('cti', 1.455)",0,11651.777,0
0,185,target,"[(1076, 803)]",[],[1],[0.5],horizontal,"(390.0, 262.0)",1.2666666666666666,0.452,1,11656.554,1
0,186,target,"[(1065, 798)]",[],[1],[0.5666666666666667],vertical,"(890.0, 762.0)",0.9166666666666666,0.52,1,11661.81,1
0,187,target,"[(1057, 818)]",[],[1],[0.6333333333333333],vertical,"(890.0, 762.0)",0.5166666666666666,0.601,1,11667.028,1
0,188,target,"[(1061, 813)]",[],[1],[0.3333333333333333],horizontal,"(390.0, 762.0)",1.4166666666666667,0.295,1,11672.012,2
0,189,catch,"[(1077, 803)]",[],[1],[],vertical,"(890.0, 762.0)",,"('cti', 1.49),nan",0,11677.912,0
0,190,target,"[(1074, 822)]",[],[1],[0.55],horizontal,"(390.0, 262.0)",1.2,0.513,1,11682.513,1
0,191,target,"[(1031, 824)]",[],[1],[0.5333333333333333],vertical,"(890.0, 762.0)",0.6833333333333333,0.496,1,11687.677,1
0,192,target,"[(1014, 854)]",[],[1],[],horizontal,"(390.0, 762.0)",,"('cti', 1.117)",0,11692.212,0
0,193,target,"[(1027, 832)]",[],[1],[0.5833333333333334],vertical,"(890.0, 262.0)",0.55,0.546,1,11696.779,1
0,194,target,"[(1053, 809)]",[],[1],[0.85],vertical,"(890.0, 262.0)",0.7166666666666667,nan,0,11701.794,0
0,195,catch,"[(1072, 836)]",[],[1],[],vertical,"(390.0, 762.0)",1.35,nan,1,11706.377,1
0,196,target,"[(1077, 827)]",[],[1],[0.1],vertical,"(390.0, 762.0)",1.3833333333333333,0.068,0,11711.352,0
0,197,target,"[(1059, 829)]",[],[1],[0.31666666666666665],vertical,"(390.0, 762.0)",1.5666666666666667,0.284,1,11715.562,1
0,198,catch,"[(1068, 812)]",[],[1],[],vertical,"(390.0, 262.0)",,"('cti', 1.242),nan",0,11721.074,0
0,199,target,"[(1061, 817)]",[],[1],[],vertical,"(890.0, 762.0)",,"('cti', 1.449)",0,11725.777,0
0,200,target,"[(1057, 791)]",[],[1],[],horizontal,"(390.0, 762.0)",,"('cti', 0.976)",0,11730.306,0
0,201,target,"[(1065, 816)]",[],[1],[0.6333333333333333],vertical,"(890.0, 762.0)",1.1,0.588,1,11734.566,1
0,202,target,"[(1061, 817)]",[],[1],[0.48333333333333334],vertical,"(390.0, 262.0)",1.2,0.452,1,11739.613,1
0,203,catch,"[(1066, 803)]",[],[1],[],horizontal,"(890.0, 762.0)",1.55,"('cti', 1.539),nan",0,11744.711,0
0,204,target,"[(1061, 816)]",[],[1],[0.4666666666666667],horizontal,"(390.0, 762.0)",1.1833333333333333,0.435,1,11749.445,1
0,205,target,"[(1061, 820)]",[],[1],[0.85],horizontal,"(390.0, 762.0)",0.5166666666666666,"('cti', 0.523),nan",0,11754.702,0
0,206,target,"[(1048, 846)]",[],[1],[0.3333333333333333],vertical,"(390.0, 762.0)",1.2666666666666666,0.296,1,11759.385,1
0,207,target,"[(1039, 824)]",[],[1],[0.5833333333333334],horizontal,"(890.0, 762.0)",0.7166666666666667,0.536,1,11764.962,1
0,208,target,"[(1053, 820)]",[],[1],[0.3833333333333333],vertical,"(390.0, 262.0)",1.2666666666666666,0.349,1,11770.028,1
0,209,target,"[(1049, 827)]",[],[1],[0.55],horizontal,"(390.0, 762.0)",1.0166666666666666,0.502,1,11775.087,2
0,210,catch,"[(1057, 815)]",[],[1],[],vertical,"(890.0, 262.0)",1.2,nan,1,11780.911,1
0,211,target,"[(1061, 824)]",[],[1],[0.8],horizontal,"(890.0, 762.0)",0.7833333333333333,0.753,1,11785.296,1
0,212,target,"[(1053, 846)]",[],[1],[0.6666666666666666],vertical,"(390.0, 762.0)",0.8166666666666667,0.622,1,11790.521,1
0,213,catch,"[(1061, 832)]",[],[1],[],vertical,"(890.0, 262.0)",1.25,nan,1,11795.361,2
0,214,target,"[(1062, 815)]",[],[1],[0.6],vertical,"(890.0, 762.0)",0.55,0.571,1,11800.395,1
0,215,catch,"[(1061, 801)]",[],[1],[],horizontal,"(390.0, 262.0)",1.45,"('cti', 1.429),nan",0,11804.978,0
0,216,target,"[(1051, 806)]",[],[1],[0.4666666666666667],vertical,"(890.0, 262.0)",1.2833333333333332,0.428,1,11809.562,1
0,217,target,"[(1055, 828)]",[],[1],[],vertical,"(390.0, 262.0)",,"('cti', 1.29)",0,11814.527,0
0,218,target,"[(1061, 809)]",[],[1],[0.5666666666666667],horizontal,"(890.0, 262.0)",0.6166666666666667,0.52,1,11819.137,1
0,219,target,"[(1072, 815)]",[],[1],[0.4],horizontal,"(390.0, 262.0)",1.0166666666666666,0.363,1,11823.798,1
0,220,catch,"[(1053, 864)]",[],[1],[],horizontal,"(390.0, 262.0)",1.3666666666666667,nan,1,11828.869,1
0,221,catch,"[(1065, 844)]",[],[1],[],horizontal,"(890.0, 762.0)",1.25,nan,1,11858.407,2
0,222,target,"[(1065, 825)]",[],[1],[0.5],vertical,"(390.0, 762.0)",1.1333333333333333,0.458,1,11863.931,1
0,223,target,"[(1069, 823)]",[],[1],[0.85],horizontal,"(390.0, 762.0)",1.0666666666666667,"('cti', 1.079),nan",0,11868.906,0
0,224,target,"[(1053, 817)]",[],[1],[0.5666666666666667],vertical,"(390.0, 762.0)",0.6,0.531,1,11873.947,1
0,225,target,"[(1071, 828)]",[],[1],[0.55],vertical,"(390.0, 762.0)",0.85,0.515,1,11878.245,1
0,226,target,"[(1061, 826)]",[],[1],[0.55],horizontal,"(890.0, 262.0)",0.75,0.508,1,11883.02,1
0,227,target,"[(1061, 820)]",[],[1],[0.5],horizontal,"(390.0, 762.0)",0.85,0.456,1,11887.794,2
0,228,target,"[(1080, 810)]",[],[1],[0.4],vertical,"(890.0, 262.0)",1.4,0.361,1,11893.192,1
0,229,target,"[(1081, 809)]",[],[1],[0.5166666666666666],horizontal,"(890.0, 262.0)",0.9333333333333333,0.476,1,11898.279,1
0,230,catch,"[(1041, 830)]",[],[1],[],horizontal,"(390.0, 762.0)",1.4666666666666666,nan,1,11903.33,1
0,231,target,"[(1077, 825)]",[],[1],[0.5],vertical,"(890.0, 262.0)",0.8,0.46,1,11908.116,2
0,232,target,"[(1046, 818)]",[],[1],[0.6],horizontal,"(890.0, 262.0)",1.05,0.558,1,11913.23,1
0,233,target,"[(1013, 855)]",[],[1],[0.48333333333333334],vertical,"(390.0, 262.0)",0.6166666666666667,0.444,1,11918.662,1
0,234,target,"[(1065, 850)]",[],[1],[0.13333333333333333],horizontal,"(890.0, 762.0)",1.55,0.104,1,12638.0,1
0,235,target,"[(1068, 830)]",[],[1],[0.23333333333333334],vertical,"(390.0, 262.0)",1.3166666666666667,0.201,1,12643.18,2
0,236,catch,"[(1065, 817)]",[],[1],[],vertical,"(390.0, 762.0)",1.2666666666666666,nan,1,12648.833,1
0,237,target,"[(1068, 829)]",[],[1],[0.85],vertical,"(390.0, 262.0)",0.7833333333333333,nan,0,12653.445,0
0,238,target,"[(1067, 836)]",[],[1],[0.65],vertical,"(890.0, 762.0)",0.5,0.611,1,12658.018,1
0,239,target,"[(1046, 846)]",[],[1],[0.55],horizontal,"(890.0, 262.0)",1.0,0.504,1,12662.885,1
0,240,catch,"[(1064, 807)]",[],[1],[],horizontal,"(890.0, 762.0)",1.3,nan,1,12667.9,1
0,241,catch,"[(1053, 832)]",[],[1],[],horizontal,"(890.0, 762.0)",1.0833333333333333,nan,1,12672.984,2
0,242,target,"[(1017, 865)]",[],[1],[0.25],vertical,"(390.0, 262.0)",1.55,0.213,1,12678.285,1
0,243,target,"[(1065, 823)]",[],[1],[0.7333333333333333],horizontal,"(390.0, 762.0)",0.5333333333333333,0.691,1,12684.157,1
0,244,target,"[(1057, 836)]",[],[1],[0.31666666666666665],horizontal,"(390.0, 762.0)",1.3166666666666667,0.281,1,12688.534,1
0,245,target,"[(1057, 839)]",[],[1],[0.85],vertical,"(390.0, 762.0)",0.6166666666666667,nan,0,12693.367,0
0,246,target,"[(1026, 838)]",[],[1],[0.26666666666666666],horizontal,"(390.0, 262.0)",1.6166666666666667,0.23,1,12697.923,1
0,247,target,"[(1065, 806)]",[],[1],[0.5166666666666666],horizontal,"(390.0, 262.0)",0.6,0.48,1,12705.75,1
0,248,target,"[(1085, 826)]",[],[1],[0.7],vertical,"(890.0, 262.0)",0.8,0.658,1,12710.663,1
0,249,target,"[(1053, 812)]",[],[1],[0.6],vertical,"(890.0, 762.0)",0.65,0.561,1,12715.98,2
0,250,target,"[(1061, 801)]",[],[1],[0.36666666666666664],horizontal,"(890.0, 262.0)",1.5166666666666666,0.327,1,12721.251,1
0,251,target,"[(1065, 829)]",[],[1],[0.5666666666666667],horizontal,"(390.0, 262.0)",0.8333333333333334,0.529,1,12726.558,1
0,252,target,"[(1087, 835)]",[],[1],[0.6666666666666666],vertical,"(390.0, 762.0)",0.6666666666666666,0.628,1,12731.501,1
0,253,target,"[(1061, 840)]",[],[1],[],vertical,"(890.0, 262.0)",,"('cti', 1.361)",0,12736.228,0
0,254,target,"[(1064, 826)]",[],[1],[0.4666666666666667],vertical,"(390.0, 262.0)",1.4166666666666667,0.423,1,12740.917,1
0,255,target,"[(1029, 847)]",[],[1],[0.3833333333333333],vertical,"(890.0, 762.0)",1.3,0.346,1,12746.787,1
0,256,target,"[(1068, 810)]",[],[1],[0.5666666666666667],horizontal,"(390.0, 262.0)",0.7166666666666667,0.522,1,12752.502,1
0,257,target,"[(1069, 796)]",[],[1],[],vertical,"(890.0, 262.0)",,"('cti', 1.515)",0,12756.984,0
0,258,target,"[(1069, 810)]",[],[1],[0.13333333333333333],vertical,"(390.0, 762.0)",1.2666666666666666,0.099,0,12761.401,0
0,259,target,"[(1061, 809)]",[],[1],[0.26666666666666666],horizontal,"(390.0, 762.0)",1.4333333333333333,0.235,1,12766.185,1
0,260,target,"[(1063, 811)]",[],[1],[0.5333333333333333],vertical,"(890.0, 262.0)",1.1166666666666667,0.494,1,12771.217,1
0,261,target,"[(1077, 811)]",[],[1],[0.5833333333333334],horizontal,"(390.0, 762.0)",0.6166666666666667,0.541,1,12776.452,1
0,262,target,"[(1075, 807)]",[],[1],[0.4666666666666667],horizontal,"(390.0, 262.0)",0.8333333333333334,0.424,1,12781.325,2
0,263,target,"[(1074, 817)]",[],[1],[],horizontal,"(390.0, 262.0)",,"('cti', 1.11)",0,12786.567,0
0,264,target,"[(1065, 843)]",[],[1],[0.16666666666666666],horizontal,"(390.0, 762.0)",1.45,0.135,1,12791.052,1
0,265,target,"[(1065, 834)]",[],[1],[0.5833333333333334],horizontal,"(890.0, 762.0)",0.9833333333333333,0.54,1,12796.584,1
0,266,target,"[(1061, 807)]",[],[1],[0.43333333333333335],vertical,"(390.0, 762.0)",1.2,0.4,1,12801.402,1
0,267,target,"[(1065, 827)]",[],[1],[0.43333333333333335],horizontal,"(390.0, 762.0)",1.1166666666666667,0.393,1,12806.502,2
0,268,target,"[(1067, 808)]",[],[1],[0.45],vertical,"(890.0, 262.0)",1.35,0.411,1,12812.184,1
0,269,target,"[(1078, 804)]",[],[1],[0.5833333333333334],vertical,"(390.0, 762.0)",1.2333333333333334,0.547,1,12817.552,1
0,270,catch,"[(1065, 817)]",[],[1],[],horizontal,"(890.0, 762.0)",1.4666666666666666,nan,1,12822.967,1
0,271,target,"[(1065, 821)]",[],[1],[0.08333333333333333],vertical,"(390.0, 262.0)",1.3666666666666667,0.054,0,12828.052,0
0,272,target,"[(1061, 829)]",[],[1],[0.6666666666666666],vertical,"(890.0, 762.0)",0.9666666666666667,0.627,1,12832.884,1
0,273,target,"[(1065, 828)]",[],[1],[0.35],horizontal,"(890.0, 762.0)",1.25,0.316,1,12838.369,1
0,274,target,"[(1049, 812)]",[],[1],[0.5833333333333334],vertical,"(890.0, 262.0)",1.4166666666666667,0.544,1,12843.801,1
0,275,target,"[(1061, 816)]",[],[1],[0.5333333333333333],horizontal,"(890.0, 262.0)",0.85,0.492,1,12848.844,2
0,276,catch,"[(1057, 789)]",[],[1],[],vertical,"(890.0, 262.0)",1.1166666666666667,nan,1,12854.602,1
0,277,target,"[(1061, 846)]",[],[1],[0.65],vertical,"(890.0, 762.0)",0.5166666666666666,0.608,1,12859.369,1
0,278,target,"[(1058, 815)]",[],[1],[0.18333333333333332],horizontal,"(890.0, 262.0)",1.2833333333333332,0.151,1,12863.918,1
0,279,target,"[(1066, 814)]",[],[1],[0.6833333333333333],vertical,"(390.0, 262.0)",0.65,0.644,1,12868.684,2
0,280,target,"[(1057, 802)]",[],[1],[0.6166666666666667],vertical,"(890.0, 262.0)",0.9166666666666666,0.568,1,12873.434,1
0,281,target,"[(1066, 799)]",[],[1],[0.5666666666666667],horizontal,"(890.0, 262.0)",0.6166666666666667,0.527,1,12878.286,1
0,282,target,"[(1057, 806)]",[],[1],[0.55],vertical,"(890.0, 762.0)",0.8333333333333334,0.511,1,12883.017,1
0,283,target,"[(1017, 806)]",[],[1],[0.55],vertical,"(390.0, 762.0)",0.65,0.517,1,12887.8,2
0,284,target,"[(1069, 800)]",[],[1],[0.05],vertical,"(390.0, 762.0)",1.5,0.021,0,12893.001,0
0,285,target,"[(1069, 813)]",[],[1],[0.5666666666666667],vertical,"(390.0, 762.0)",0.8833333333333333,0.525,1,12897.292,1
0,286,catch,"[(1072, 817)]",[],[1],[],vertical,"(890.0, 262.0)",1.65,nan,1,12902.391,1
0,287,target,"[(1065, 826)]",[],[1],[0.5166666666666666],horizontal,"(390.0, 262.0)",1.0166666666666666,0.481,1,12907.567,1
0,288,target,"[(1073, 826)]",[],[1],[0.7333333333333333],vertical,"(890.0, 262.0)",0.6333333333333333,0.691,1,12912.768,2
0,289,catch,"[(1062, 821)]",[],[1],[],vertical,"(390.0, 762.0)",1.6833333333333333,nan,1,12917.882,1
0,290,target,"[(1066, 817)]",[],[1],[0.2],horizontal,"(890.0, 762.0)",1.6,0.168,1,12923.251,1
0,291,target,"[(1064, 812)]",[],[1],[0.4166666666666667],vertical,"(890.0, 762.0)",0.85,0.379,1,12928.351,1
0,292,target,"[(1066, 804)]",[],[1],[0.65],vertical,"(390.0, 262.0)",0.85,0.605,1,12932.935,2
0,293,target,"[(1052, 810)]",[],[1],[],vertical,"(890.0, 762.0)",,"('cti', 1.226)",0,12938.352,0
0,294,target,"[(1041, 817)]",[],[1],[0.2833333333333333],horizontal,"(890.0, 762.0)",1.4666666666666666,0.25,1,12942.768,1
0,295,target,"[(1051, 816)]",[],[1],[0.15],vertical,"(390.0, 262.0)",1.3833333333333333,0.118,1,12947.919,1
0,296,target,"[(1063, 817)]",[],[1],[0.65],horizontal,"(390.0, 762.0)",0.9666666666666667,0.605,1,12952.961,1
0,297,target,"[(1046, 828)]",[],[1],[0.05],horizontal,"(390.0, 762.0)",1.5833333333333333,0.018,0,12958.018,0
0,298,target,"[(1076, 812)]",[],[1],[0.6666666666666666],vertical,"(890.0, 262.0)",0.6333333333333333,0.624,1,12962.802,1
0,299,target,"[(1069, 810)]",[],[1],[0.5166666666666666],vertical,"(390.0, 262.0)",1.0666666666666667,0.478,1,12967.419,1
0,300,target,"[(1067, 810)]",[],[1],[0.11666666666666667],vertical,"(390.0, 762.0)",1.45,0.086,0,12972.87,0
0,301,target,"[(1061, 793)]",[],[1],[0.65],horizontal,"(890.0, 262.0)",0.95,0.607,1,12977.369,1
0,302,target,"[(1064, 806)]",[],[1],[0.43333333333333335],horizontal,"(890.0, 762.0)",1.45,0.391,1,12982.086,1
0,303,target,"[(1041, 822)]",[],[1],[0.16666666666666666],horizontal,"(390.0, 262.0)",1.5333333333333332,0.132,1,12987.545,1
0,304,target,"[(1065, 809)]",[],[1],[0.3333333333333333],horizontal,"(890.0, 762.0)",1.65,0.298,1,12993.103,2
0,305,target,"[(1045, 816)]",[],[1],[0.31666666666666665],vertical,"(890.0, 762.0)",1.2,0.286,1,12999.068,1
0,306,target,"[(1075, 802)]",[],[1],[0.5833333333333334],horizontal,"(390.0, 262.0)",0.6,0.549,1,13004.026,1
0,307,target,"[(1075, 815)]",[],[1],[0.7666666666666666],horizontal,"(890.0, 762.0)",0.7333333333333333,0.72,1,13008.996,1
0,308,target,"[(1041, 834)]",[],[1],[],vertical,"(890.0, 762.0)",,"('cti', 1.494)",0,13014.272,0
0,309,target,"[(1041, 808)]",[],[1],[0.55],horizontal,"(390.0, 762.0)",1.3166666666666667,0.506,1,13018.426,1
0,310,target,"[(1049, 811)]",[],[1],[0.5666666666666667],horizontal,"(390.0, 262.0)",1.0666666666666667,0.531,1,13023.399,1
0,311,target,"[(1072, 820)]",[],[1],[0.55],horizontal,"(390.0, 262.0)",0.7333333333333333,0.514,1,13028.735,1
0,312,target,"[(1069, 814)]",[],[1],[0.31666666666666665],horizontal,"(890.0, 262.0)",1.2666666666666666,0.281,1,13033.503,2
0,313,target,"[(1049, 820)]",[],[1],[0.6333333333333333],vertical,"(390.0, 262.0)",0.6833333333333333,0.592,1,13038.653,1
0,314,target,"[(1066, 824)]",[],[1],[0.4],horizontal,"(890.0, 762.0)",1.1833333333333333,0.362,1,13043.981,1
0,315,catch,"[(1061, 820)]",[],[1],[],horizontal,"(390.0, 762.0)",,"('cti', 1.543),nan",0,13049.075,0
0,316,target,"[(1061, 811)]",[],[1],[0.5666666666666667],horizontal,"(890.0, 762.0)",0.7166666666666667,0.528,1,13053.449,1
0,317,target,"[(1056, 833)]",[],[1],[0.85],vertical,"(390.0, 262.0)",0.75,nan,0,13058.301,0
0,318,target,"[(1069, 818)]",[],[1],[0.55],horizontal,"(390.0, 262.0)",1.0,0.516,1,13063.483,1
0,319,target,"[(1065, 830)]",[],[1],[0.5],horizontal,"(390.0, 262.0)",0.5333333333333333,0.464,1,13068.737,1
0,320,target,"[(1069, 815)]",[],[1],[0.5166666666666666],vertical,"(390.0, 262.0)",0.8,0.475,1,13073.786,1
0,321,target,"[(1029, 810)]",[],[1],[],vertical,"(390.0, 762.0)",,"('cti', 1.294)",0,13078.956,0
0,322,target,"[(1061, 837)]",[],[1],[0.21666666666666667],vertical,"(390.0, 262.0)",1.6333333333333333,0.183,1,13083.473,1
0,323,target,"[(1065, 820)]",[],[1],[0.7],vertical,"(390.0, 262.0)",0.8,0.654,1,13088.879,1
0,324,target,"[(1065, 837)]",[],[1],[0.13333333333333333],horizontal,"(390.0, 262.0)",1.4,0.1,1,13093.754,1
0,325,catch,"[(1069, 826)]",[],[1],[],vertical,"(890.0, 762.0)",,"('cti', 1.525),nan",0,13099.109,0
0,326,target,"[(1025, 827)]",[],[1],[0.85],horizontal,"(890.0, 262.0)",1.5833333333333333,nan,0,13103.553,0
0,327,target,"[(1022, 844)]",[],[1],[0.75],vertical,"(890.0, 762.0)",0.8,0.711,1,13108.581,1
0,328,target,"[(1017, 810)]",[],[1],[0.55],vertical,"(390.0, 262.0)",1.3166666666666667,0.51,1,13116.154,1
0,329,target,"[(1061, 816)]",[],[1],[0.45],vertical,"(890.0, 762.0)",0.75,0.412,1,13121.527,1
0,330,target,"[(1029, 836)]",[],[1],[0.16666666666666666],horizontal,"(890.0, 762.0)",1.3833333333333333,0.135,1,13126.086,2
0,331,catch,"[(1061, 821)]",[],[1],[],horizontal,"(390.0, 262.0)",1.4666666666666666,nan,1,13131.72,1
0,332,target,"[(1065, 836)]",[],[1],[0.36666666666666664],vertical,"(390.0, 762.0)",1.4,0.328,1,13136.821,1
0,333,target,"[(1068, 824)]",[],[1],[0.3333333333333333],horizontal,"(390.0, 262.0)",1.5333333333333332,0.293,1,13142.171,1
0,334,target,"[(1065, 829)]",[],[1],[0.55],vertical,"(390.0, 762.0)",0.5166666666666666,0.515,1,13147.471,2
0,335,target,"[(1013, 827)]",[],[1],[0.5666666666666667],horizontal,"(890.0, 262.0)",0.5666666666666667,0.523,1,13152.486,1
0,336,target,"[(1045, 837)]",[],[1],[0.43333333333333335],horizontal,"(890.0, 262.0)",1.5166666666666666,0.396,1,13157.091,1
0,337,target,"[(1053, 829)]",[],[1],[0.3],horizontal,"(890.0, 262.0)",1.5333333333333332,0.268,1,13162.175,1
0,338,target,"[(1061, 803)]",[],[1],[0.55],horizontal,"(890.0, 762.0)",0.8166666666666667,0.513,1,13167.22,2
0,339,target,"[(1033, 830)]",[],[1],[0.4666666666666667],horizontal,"(890.0, 262.0)",0.8333333333333334,0.428,1,13172.247,1
0,340,target,"[(1015, 823)]",[],[1],[0.48333333333333334],horizontal,"(390.0, 262.0)",0.8,0.445,1,13177.491,1
0,341,target,"[(1017, 828)]",[],[1],[0.3833333333333333],vertical,"(390.0, 262.0)",0.9333333333333333,0.349,1,13182.148,1
0,342,catch,"[(1061, 821)]",[],[1],[],horizontal,"(890.0, 762.0)",1.3333333333333333,nan,1,13187.204,2
0,343,target,"[(1013, 828)]",[],[1],[],vertical,"(890.0, 262.0)",,"('cti', 1.272)",0,13192.471,0
0,344,target,"[(951, 815), (730, 513), (968, 606), (923, 596), (474, 968), (847, 558), (894, 726), (888, 683), (923, 580), (965, 656), (982, 660), (864, 529), (851, 683), (840, 683), (737, 812), (739, 673), (856, 613), (837, 703), (877, 712), (978, 466), (852, 384), (970, 952), (967, 1005), (958, 784), (998, 853), (1025, 863)]",[],"[0, 0, 0, 0, 0, 0, 0, 0, 0, 0, 0, 0, 0, 0, 0, 0, 0, 0, 0, 0, 0, 0, 0, 0, 0, 1]",[],vertical,"(390.0, 762.0)",,"('cti', 1.382)",0,13197.171,0
0,345,catch,"[(1003, 843), (1030, 859)]",[],"[0, 1]",[],horizontal,"(390.0, 762.0)",1.5,nan,1,14960.862,1
0,346,target,"[(1031, 859)]",[],[1],[0.7166666666666667],vertical,"(390.0, 762.0)",1.1166666666666667,0.671,1,14967.062,1
0,347,target,"[(1049, 819)]",[],[1],[0.55],horizontal,"(890.0, 262.0)",0.6166666666666667,0.515,1,14972.296,1
0,348,target,"[(1006, 841)]",[],[1],[0.16666666666666666],horizontal,"(390.0, 262.0)",1.4333333333333333,0.134,1,14976.765,2
0,349,target,"[(1014, 816)]",[],[1],[0.5666666666666667],vertical,"(390.0, 262.0)",1.2166666666666666,0.528,1,14982.716,1
0,350,target,"[(1074, 807)]",[],[1],[0.45],vertical,"(890.0, 262.0)",0.7666666666666666,0.409,1,14988.18,1
0,351,target,"[(1061, 819)]",[],[1],[0.85],vertical,"(390.0, 762.0)",0.5,nan,0,14992.963,0
0,352,target,"[(1029, 839)]",[],[1],[0.5333333333333333],vertical,"(390.0, 262.0)",1.4333333333333333,0.492,1,14997.664,1
0,353,target,"[(1071, 829)]",[],[1],[0.65],vertical,"(390.0, 762.0)",0.8833333333333333,0.606,1,15003.297,1
0,354,target,"[(1030, 838)]",[],[1],[0.5833333333333334],horizontal,"(890.0, 262.0)",1.3666666666666667,0.544,1,15008.28,1
0,355,target,"[(1017, 823)]",[],[1],[0.85],vertical,"(390.0, 762.0)",0.6666666666666666,nan,0,15013.499,0
0,356,target,"[(1018, 808)]",[],[1],[0.5666666666666667],vertical,"(390.0, 262.0)",0.7333333333333333,0.524,1,15018.179,1
0,357,target,"[(1061, 848)]",[],[1],[0.75],horizontal,"(390.0, 262.0)",0.95,0.711,1,15023.663,1
0,358,target,"[(1054, 814)]",[],[1],[0.6166666666666667],vertical,"(890.0, 762.0)",1.1333333333333333,0.576,1,15029.423,1
0,359,target,"[(1013, 825)]",[],[1],[0.5833333333333334],horizontal,"(390.0, 262.0)",0.7,0.536,1,15034.563,2
0,360,target,"[(1006, 837)]",[],[1],[0.85],horizontal,"(890.0, 762.0)",0.6,nan,0,15039.663,0
0,361,target,"[(1053, 815)]",[],[1],[0.4666666666666667],vertical,"(890.0, 262.0)",1.5666666666666667,0.427,1,15043.964,1
0,362,target,"[(1052, 809)]",[],[1],[0.05],horizontal,"(390.0, 762.0)",1.6833333333333333,0.02,0,15049.732,0
0,363,target,"[(1061, 820)]",[],[1],[0.5333333333333333],vertical,"(890.0, 262.0)",0.7,0.491,1,15054.664,1
0,364,target,"[(1022, 813)]",[],[1],[0.5833333333333334],vertical,"(890.0, 762.0)",1.0,0.544,1,15059.815,1
0,365,target,"[(1065, 830)]",[],[1],[0.43333333333333335],horizontal,"(890.0, 762.0)",1.3,0.394,1,15065.222,1
0,366,target,"[(1058, 817)]",[],[1],[0.45],vertical,"(390.0, 762.0)",1.4833333333333334,0.408,1,15070.297,2
0,367,target,"[(1076, 810)]",[],[1],[0.5666666666666667],vertical,"(890.0, 762.0)",1.1,0.525,1,15076.297,1
0,368,target,"[(1077, 815)]",[],[1],[0.65],vertical,"(890.0, 262.0)",0.6166666666666667,0.61,1,15081.217,1
0,369,target,"[(1021, 821)]",[],[1],[0.5166666666666666],horizontal,"(390.0, 262.0)",1.0333333333333332,0.474,1,15086.282,1
0,370,target,"[(1020, 820)]",[],[1],[0.3833333333333333],horizontal,"(890.0, 262.0)",1.6666666666666667,0.345,1,15091.41,2
0,371,target,"[(1022, 813)]",[],[1],[0.7833333333333333],vertical,"(390.0, 262.0)",0.7833333333333333,0.731,1,15097.222,1
0,372,target,"[(1061, 803)]",[],[1],[0.5666666666666667],vertical,"(890.0, 762.0)",0.95,0.526,1,15101.98,1
0,373,catch,"[(1025, 822)]",[],[1],[],horizontal,"(890.0, 762.0)",1.55,nan,1,15107.16,1
0,374,target,"[(1013, 825)]",[],[1],[0.75],vertical,"(390.0, 262.0)",0.7166666666666667,0.702,1,15112.064,2
0,375,target,"[(1006, 817)]",[],[1],[0.43333333333333335],horizontal,"(890.0, 262.0)",1.4166666666666667,0.398,1,15117.333,1
0,376,catch,"[(1024, 849)]",[],[1],[],horizontal,"(890.0, 762.0)",1.15,nan,1,15122.763,1
0,377,target,"[(1062, 820)]",[],[1],[0.5333333333333333],horizontal,"(390.0, 762.0)",0.5833333333333334,0.5,1,15128.081,1
0,378,catch,"[(1068, 830)]",[],[1],[],horizontal,"(390.0, 762.0)",1.5166666666666666,nan,1,15132.734,2
0,379,target,"[(1033, 799)]",[],[1],[0.5833333333333334],vertical,"(390.0, 262.0)",0.8,0.544,1,15138.364,1
0,380,target,"[(1032, 807)]",[],[1],[0.11666666666666667],horizontal,"(390.0, 762.0)",1.35,0.084,0,15143.181,0
0,381,target,"[(1059, 809)]",[],[1],[0.5833333333333334],vertical,"(390.0, 262.0)",0.85,0.547,1,15148.164,1
0,382,target,"[(1072, 812)]",[],[1],[0.6166666666666667],horizontal,"(390.0, 762.0)",1.1,0.574,1,15153.55,1
0,383,target,"[(1017, 825)]",[],[1],[0.6166666666666667],vertical,"(890.0, 762.0)",0.8166666666666667,0.571,1,15158.748,1
0,384,catch,"[(1019, 815)]",[],[1],[],horizontal,"(890.0, 262.0)",1.5833333333333333,nan,1,15163.59,2
0,385,target,"[(1065, 832)]",[],[1],[0.55],horizontal,"(890.0, 262.0)",0.5833333333333334,0.502,1,15169.015,1
0,386,target,"[(1054, 808)]",[],[1],[0.6666666666666666],vertical,"(890.0, 762.0)",0.9666666666666667,0.625,1,15173.352,1
0,387,target,"[(1037, 815)]",[],[1],[0.6833333333333333],horizontal,"(890.0, 762.0)",0.55,0.632,1,15179.031,1
0,388,target,"[(1077, 817)]",[],[1],[0.6166666666666667],horizontal,"(390.0, 762.0)",0.8333333333333334,0.574,1,15183.748,2
0,389,target,"[(1025, 812)]",[],[1],[0.6166666666666667],vertical,"(390.0, 762.0)",1.0833333333333333,0.567,1,15188.856,1
0,390,target,"[(1024, 849)]",[],[1],[],horizontal,"(890.0, 762.0)",,"('fix', 0.26)",0,15197.471,0
0,391,target,"[(1033, 868)]",[],[1],[0.5333333333333333],vertical,"(390.0, 262.0)",1.2333333333333334,0.493,1,15199.931,1
0,392,target,"[(1033, 829)]",[],[1],[0.85],vertical,"(390.0, 762.0)",0.95,nan,0,15209.531,0
0,393,target,"[(1017, 870)]",[],[1],[0.85],vertical,"(390.0, 262.0)",0.5666666666666667,nan,0,15214.431,0
0,394,target,"[(1022, 876)]",[],[1],[0.85],vertical,"(890.0, 262.0)",1.3666666666666667,nan,0,15397.431,0
0,395,target,"[(1022, 868)]",[],[1],[0.7166666666666667],vertical,"(890.0, 762.0)",0.9666666666666667,0.664,1,15406.073,1
0,396,target,"[(1061, 850)]",[],[1],[0.5833333333333334],vertical,"(890.0, 262.0)",1.6833333333333333,0.544,1,15412.349,1
0,397,target,"[(998, 844), (1003, 847), (1019, 868)]",[],"[0, 0, 1]",[0.5333333333333333],horizontal,"(890.0, 262.0)",1.05,0.494,1,15418.222,1
0,398,target,"[(1033, 859)]",[],[1],[0.18333333333333332],vertical,"(890.0, 762.0)",1.5,0.153,1,15426.302,2
0,399,target,"[(1058, 816)]",[],[1],[0.3333333333333333],vertical,"(390.0, 762.0)",1.55,0.297,1,15432.084,1
0,400,target,"[(1058, 802)]",[],[1],[0.06666666666666667],horizontal,"(390.0, 762.0)",1.6333333333333333,0.035,0,15437.167,0
0,401,target,"[(1067, 831)]",[],[1],[0.6166666666666667],vertical,"(390.0, 762.0)",1.35,0.577,1,15441.815,1
0,402,target,"[(1022, 806)]",[],[1],[0.1],horizontal,"(890.0, 762.0)",1.4833333333333334,0.068,0,15447.633,0
0,403,target,"[(1040, 832)]",[],[1],[0.85],horizontal,"(890.0, 262.0)",0.7666666666666666,nan,0,15451.951,0
0,404,target,"[(1077, 825)]",[],[1],[0.2],vertical,"(890.0, 762.0)",1.6666666666666667,0.17,1,15456.632,1
0,405,catch,"[(1080, 818)]",[],[1],[],vertical,"(390.0, 262.0)",1.0,nan,1,15462.582,1
0,406,target,"[(1075, 821)]",[],[1],[0.65],horizontal,"(390.0, 762.0)",0.9,0.609,1,15467.367,1
0,407,catch,"[(1065, 808)]",[],[1],[],horizontal,"(390.0, 262.0)",1.3666666666666667,nan,1,15472.3,2
0,408,target,"[(1057, 811)]",[],[1],[0.85],horizontal,"(890.0, 762.0)",0.5166666666666666,nan,0,15477.531,0
0,409,target,"[(1077, 823)]",[],[1],[0.5833333333333334],horizontal,"(390.0, 262.0)",0.5,0.54,1,15481.708,1
0,410,target,"[(1060, 799)]",[],[1],[0.85],vertical,"(390.0, 762.0)",0.5333333333333333,nan,0,15486.853,0
0,411,target,"[(1022, 833)]",[],[1],[0.6333333333333333],horizontal,"(390.0, 762.0)",0.8166666666666667,0.587,1,15491.334,1
0,412,catch,"[(1066, 814)]",[],[1],[],vertical,"(890.0, 762.0)",1.5333333333333332,nan,1,15496.484,1
0,413,target,"[(1012, 816)]",[],[1],[0.55],horizontal,"(390.0, 262.0)",1.2,0.511,1,15501.746,1
0,414,target,"[(1062, 819)]",[],[1],[0.43333333333333335],vertical,"(390.0, 762.0)",1.35,0.394,1,15506.884,2
0,415,target,"[(1061, 817)]",[],[1],[0.7333333333333333],horizontal,"(890.0, 262.0)",0.8,0.691,1,15512.283,1
0,416,target,"[(1061, 828)]",[],[1],[0.48333333333333334],vertical,"(390.0, 262.0)",1.2166666666666666,0.448,1,15517.204,1
0,417,target,"[(1008, 828)]",[],[1],[0.65],vertical,"(890.0, 262.0)",0.5166666666666666,0.604,1,15522.698,1
0,418,target,"[(1073, 806)]",[],[1],[0.1],vertical,"(390.0, 262.0)",1.4666666666666666,0.068,0,15527.333,0
0,419,target,"[(1072, 812)]",[],[1],[0.6],horizontal,"(390.0, 262.0)",0.8833333333333333,0.562,1,15531.901,1
0,420,target,"[(1016, 805)]",[],[1],[0.18333333333333332],vertical,"(390.0, 262.0)",1.5166666666666666,0.153,1,15536.917,1
0,421,target,"[(1075, 813)]",[],[1],[0.5333333333333333],horizontal,"(890.0, 762.0)",1.0333333333333332,0.498,1,15542.133,1
0,422,target,"[(1060, 805)]",[],[1],[0.5333333333333333],horizontal,"(390.0, 762.0)",1.3166666666666667,0.492,1,15547.277,2
0,423,target,"[(1071, 806)]",[],[1],[0.25],horizontal,"(890.0, 262.0)",1.4666666666666666,0.218,1,15552.848,1
0,424,target,"[(1017, 825)]",[],[1],"[0.85, 0.85]",horizontal,"(390.0, 762.0)",0.9166666666666666,"0.81,nan",0,15558.216,0
0,425,target,"[(1064, 822)]",[],[1],[0.85],vertical,"(390.0, 762.0)",0.55,nan,0,15563.167,0
0,426,target,"[(1017, 828)]",[],[1],[0.6],vertical,"(390.0, 762.0)",1.1666666666666667,0.557,1,15567.535,1
0,427,target,"[(1006, 809)]",[],[1],[0.3],horizontal,"(390.0, 262.0)",1.6666666666666667,0.268,1,15573.038,1
0,428,target,"[(1025, 805)]",[],[1],[0.7833333333333333],vertical,"(390.0, 262.0)",1.2666666666666666,0.746,1,15578.709,1
0,429,target,"[(1047, 842)]",[],[1],[0.05],vertical,"(890.0, 762.0)",1.5833333333333333,0.019,0,15584.0,0
0,430,target,"[(1061, 835)]",[],[1],[0.26666666666666666],vertical,"(890.0, 762.0)",1.45,0.231,1,15588.55,1
0,431,catch,"[(1072, 801)]",[],[1],[],vertical,"(890.0, 262.0)",1.6833333333333333,nan,1,15593.419,1
0,432,target,"[(1026, 830)]",[],[1],[0.3833333333333333],vertical,"(890.0, 262.0)",1.2333333333333334,0.348,1,15598.835,1
0,433,target,"[(1072, 820)]",[],[1],[0.55],vertical,"(890.0, 762.0)",0.7333333333333333,0.515,1,15603.9,2
0,434,catch,"[(1061, 806)]",[],[1],[],vertical,"(390.0, 262.0)",1.3166666666666667,nan,1,15608.829,1
0,435,target,"[(1069, 808)]",[],[1],[0.6],vertical,"(890.0, 262.0)",1.25,0.56,1,15613.634,1
0,436,catch,"[(1062, 818)]",[],[1],[],vertical,"(890.0, 262.0)",1.0666666666666667,nan,1,15618.725,1
0,437,target,"[(1072, 817)]",[],[1],[0.43333333333333335],vertical,"(390.0, 762.0)",1.2333333333333334,0.394,1,15623.902,2
0,438,target,"[(1061, 814)]",[],[1],[0.85],horizontal,"(890.0, 262.0)",0.6,nan,0,15629.247,0
0,439,target,"[(1061, 810)]",[],[1],[0.7833333333333333],vertical,"(890.0, 262.0)",1.15,0.732,1,15633.751,1
0,440,catch,"[(1007, 830)]",[],[1],[],horizontal,"(390.0, 262.0)",1.5333333333333332,nan,1,15638.85,1
0,441,target,"[(1057, 823)]",[],[1],[0.6],vertical,"(390.0, 262.0)",0.7333333333333333,0.56,1,15643.725,1
0,442,target,"[(1072, 820)]",[],[1],[0.08333333333333333],horizontal,"(890.0, 762.0)",1.6833333333333333,0.052,0,15648.251,0
0,443,target,"[(1007, 827)]",[],[1],[0.6166666666666667],horizontal,"(390.0, 762.0)",0.8333333333333334,0.579,1,15652.972,1
0,444,target,"[(1050, 831)]",[],[1],[0.5166666666666666],vertical,"(890.0, 262.0)",0.7666666666666666,0.485,1,15657.901,1
0,445,target,"[(1061, 806)]",[],[1],[0.6333333333333333],vertical,"(390.0, 762.0)",1.0666666666666667,0.589,1,15662.657,1
0,446,target,"[(1061, 803)]",[],[1],[0.75],vertical,"(390.0, 762.0)",0.75,0.714,1,15668.034,2
0,447,target,"[(1061, 827)]",[],[1],[0.6666666666666666],horizontal,"(390.0, 762.0)",1.0666666666666667,0.625,1,15673.452,1
0,448,catch,"[(1057, 830)]",[],[1],[],horizontal,"(890.0, 762.0)",1.2,nan,1,15678.396,1
0,449,catch,"[(1057, 833)]",[],[1],[],vertical,"(890.0, 762.0)",,"('cti', 1.431),nan",0,15682.803,0
0,450,target,"[(1033, 818)]",[],[1],[0.18333333333333332],horizontal,"(390.0, 762.0)",1.55,0.149,1,15687.634,1
0,451,target,"[(1017, 852)]",[],[1],[0.18333333333333332],vertical,"(890.0, 762.0)",1.5833333333333333,0.151,1,15694.145,1
0,452,target,"[(1049, 819)]",[],[1],[0.6166666666666667],horizontal,"(390.0, 762.0)",0.5833333333333334,0.588,1,15699.911,1
0,453,target,"[(1018, 808)]",[],[1],[0.5666666666666667],horizontal,"(890.0, 762.0)",0.7166666666666667,0.533,1,15704.684,2
0,454,target,"[(1078, 815)]",[],[1],[0.6166666666666667],horizontal,"(390.0, 762.0)",0.55,0.585,1,15709.723,1
0,455,target,"[(1017, 811)]",[],[1],[0.85],vertical,"(890.0, 762.0)",0.5166666666666666,nan,0,15714.788,0
0,456,target,"[(1061, 817)]",[],[1],[0.55],vertical,"(390.0, 262.0)",1.2,0.51,1,15719.702,1
0,457,target,"[(1013, 812)]",[],[1],[0.26666666666666666],vertical,"(390.0, 262.0)",1.4833333333333334,0.231,1,15724.801,1
0,458,target,"[(1017, 814)]",[],[1],[0.23333333333333334],horizontal,"(390.0, 762.0)",1.35,0.2,1,15729.786,1
0,459,target,"[(1023, 831)]",[],[1],[0.15],vertical,"(390.0, 262.0)",1.35,0.118,1,15735.335,2
0,460,target,"[(1037, 810)]",[],[1],[0.6166666666666667],vertical,"(390.0, 262.0)",0.6166666666666667,0.573,1,15742.83,1
0,461,target,"[(1017, 811)]",[],[1],[0.6],horizontal,"(890.0, 762.0)",0.8166666666666667,0.56,1,15747.387,1
0,462,target,"[(1012, 832)]",[],[1],[0.5166666666666666],horizontal,"(390.0, 262.0)",0.95,0.473,1,15752.019,1
0,463,target,"[(1061, 814)]",[],[1],[0.7],horizontal,"(390.0, 262.0)",0.8333333333333334,0.656,1,15757.135,2
0,464,target,"[(1057, 798)]",[],[1],[0.35],vertical,"(890.0, 762.0)",1.1833333333333333,0.314,1,15762.88,1
0,465,target,"[(1068, 813)]",[],[1],[0.5666666666666667],horizontal,"(890.0, 762.0)",1.05,0.523,1,15767.936,1
0,466,target,"[(1010, 818)]",[],[1],[0.6166666666666667],horizontal,"(890.0, 762.0)",0.9666666666666667,0.579,1,15773.218,1
0,467,target,"[(1061, 805)]",[],[1],[],vertical,"(890.0, 262.0)",,"('cti', 1.316)",0,15778.202,0
0,468,target,"[(1077, 834)]",[],[1],[0.7166666666666667],vertical,"(390.0, 762.0)",0.7166666666666667,0.674,1,15782.969,1
0,469,target,"[(1017, 813)]",[],[1],[0.2833333333333333],vertical,"(390.0, 262.0)",1.5166666666666666,0.249,1,15787.89,1
0,470,target,"[(1022, 822)]",[],[1],[0.45],horizontal,"(390.0, 262.0)",1.5666666666666667,0.418,1,15793.192,1
0,471,target,"[(1016, 808)]",[],[1],[0.36666666666666664],horizontal,"(890.0, 262.0)",1.1,0.33,1,15799.102,2
0,472,catch,"[(1061, 799)]",[],[1],[],vertical,"(890.0, 762.0)",1.2833333333333332,nan,1,15804.74,1
0,473,catch,"[(1059, 815)]",[],[1],[],vertical,"(390.0, 262.0)",1.4666666666666666,nan,1,15809.691,1
0,474,target,"[(1062, 824)]",[],[1],[0.18333333333333332],horizontal,"(390.0, 762.0)",1.5833333333333333,0.149,1,15814.535,1
0,475,target,"[(1061, 825)]",[],[1],[0.85],vertical,"(390.0, 262.0)",0.6333333333333333,nan,0,15819.802,0
0,476,target,"[(1049, 832)]",[],[1],[0.8166666666666667],vertical,"(390.0, 762.0)",0.5666666666666667,0.778,1,15824.785,1
0,477,target,"[(1015, 810)]",[],[1],[0.23333333333333334],vertical,"(390.0, 262.0)",1.35,0.202,1,15829.968,1
0,478,catch,"[(1067, 813)]",[],[1],[],horizontal,"(390.0, 262.0)",,"('cti', 1.525),nan",0,15834.983,0
0,479,target,"[(1045, 822)]",[],[1],[0.85],vertical,"(390.0, 262.0)",0.6,nan,0,15839.886,0
0,480,target,"[(1061, 827)]",[],[1],[0.6166666666666667],vertical,"(390.0, 762.0)",1.45,0.579,1,15844.419,1
0,481,target,"[(1017, 827)]",[],[1],[],horizontal,"(390.0, 762.0)",,"('cti', 1.588)",0,15849.868,0
0,482,target,"[(1041, 808)]",[],[1],[0.5833333333333334],vertical,"(890.0, 762.0)",1.0166666666666666,0.539,1,15854.701,1
0,483,target,"[(1071, 816)]",[],[1],[0.6666666666666666],vertical,"(390.0, 762.0)",1.15,0.629,1,15859.88,1
0,484,target,"[(1057, 808)]",[],[1],[0.6166666666666667],horizontal,"(890.0, 762.0)",0.7,0.576,1,15865.002,1
0,485,target,"[(1017, 808)]",[],[1],[0.3],horizontal,"(390.0, 762.0)",1.3166666666666667,0.265,1,15869.607,2
0,486,target,"[(1014, 837)]",[],[1],[0.1],horizontal,"(890.0, 762.0)",1.5166666666666666,0.067,0,15875.368,0
0,487,target,"[(1017, 815)]",[],[1],[0.48333333333333334],horizontal,"(890.0, 262.0)",1.4333333333333333,0.439,1,15880.318,1
0,488,target,"[(1057, 823)]",[],[1],[0.5333333333333333],horizontal,"(390.0, 762.0)",1.2166666666666666,0.492,1,15885.869,1
0,489,target,"[(1017, 813)]",[],[1],[0.6166666666666667],horizontal,"(890.0, 762.0)",0.7666666666666666,0.577,1,15890.768,1
0,490,target,"[(1017, 811)]",[],[1],[0.75],horizontal,"(890.0, 762.0)",1.0666666666666667,0.707,1,15895.787,2
0,491,catch,"[(1062, 802)]",[],[1],[],horizontal,"(890.0, 762.0)",1.2833333333333332,nan,1,15901.147,1
0,492,target,"[(1009, 849)]",[],[1],[],horizontal,"(390.0, 762.0)",,"('cti', 0.446)",0,15905.796,0
0,493,target,"[(1000, 856), (443, 611), (1001, 868), (1023, 881)]",[],"[0, 0, 0, 1]",[0.85],vertical,"(390.0, 762.0)",0.5,nan,0,16035.837,0
0,494,target,"[(1041, 860)]",[],[1],[0.85],vertical,"(890.0, 762.0)",1.0166666666666666,nan,0,16059.469,0
0,495,target,"[(1045, 854)]",[],[1],[0.85],vertical,"(390.0, 762.0)",0.95,nan,0,16065.471,0
0,496,catch,"[(1049, 826)]",[],[1],[],horizontal,"(390.0, 762.0)",1.2,nan,1,16070.02,1
0,497,target,"[(1081, 842)]",[],[1],[0.85],horizontal,"(390.0, 262.0)",0.6833333333333333,nan,0,16074.466,0
0,498,target,"[(1025, 853)]",[],[1],[0.85],vertical,"(890.0, 262.0)",0.95,nan,0,16078.853,0
0,499,target,"[(1023, 837)]",[],[1],[0.85],horizontal,"(390.0, 262.0)",0.5666666666666667,nan,0,16084.838,0
0,500,target,"[(1059, 846)]",[],[1],[0.5],horizontal,"(890.0, 762.0)",1.5833333333333333,0.458,1,16089.519,1
0,501,catch,"[(1042, 829)]",[],[1],[],vertical,"(890.0, 762.0)",1.15,nan,1,16095.822,1
0,502,target,"[(1010, 821)]",[],[1],[0.65],vertical,"(390.0, 262.0)",1.0166666666666666,0.605,1,16100.804,1
0,503,target,"[(1072, 815)]",[],[1],[0.7833333333333333],vertical,"(890.0, 262.0)",0.85,0.737,1,16106.037,2
0,504,target,"[(1058, 799)]",[],[1],[0.43333333333333335],vertical,"(390.0, 762.0)",1.0,0.396,1,16111.604,1
0,505,catch,"[(1026, 818)]",[],[1],[],horizontal,"(390.0, 762.0)",1.0666666666666667,nan,1,16116.937,1
0,506,target,"[(1063, 800)]",[],[1],[0.21666666666666667],vertical,"(890.0, 262.0)",1.3833333333333333,0.182,1,16121.684,1
0,507,target,"[(1061, 809)]",[],[1],[0.5166666666666666],horizontal,"(390.0, 262.0)",0.7,0.474,1,16126.823,2
0,508,target,"[(1062, 815)]",[],[1],[],horizontal,"(390.0, 262.0)",,"('cti', 1.501)",0,16132.254,0
0,509,target,"[(1061, 809)]",[],[1],[0.06666666666666667],vertical,"(390.0, 762.0)",1.45,0.036,0,16137.014,0
0,510,target,"[(1061, 804)]",[],[1],[0.23333333333333334],vertical,"(390.0, 762.0)",1.6333333333333333,0.2,1,16141.958,1
0,511,target,"[(1055, 822)]",[],[1],[0.48333333333333334],vertical,"(890.0, 262.0)",1.3333333333333333,0.44,1,16147.425,1
0,512,target,"[(1057, 824)]",[],[1],[0.6],vertical,"(890.0, 262.0)",0.8333333333333334,0.553,1,16153.12,1
0,513,target,"[(1057, 812)]",[],[1],[0.6166666666666667],horizontal,"(390.0, 762.0)",0.95,0.572,1,16158.011,2
0,514,target,"[(1055, 802)]",[],[1],[0.5333333333333333],horizontal,"(890.0, 262.0)",0.6166666666666667,0.489,1,16163.605,1
0,515,target,"[(1061, 822)]",[],[1],[0.55],horizontal,"(890.0, 762.0)",0.7833333333333333,0.508,1,16168.035,1
0,516,target,"[(1053, 822)]",[],[1],[0.6333333333333333],horizontal,"(390.0, 762.0)",0.5666666666666667,0.588,1,16173.095,1
0,517,target,"[(1053, 842)]",[],[1],[],vertical,"(890.0, 762.0)",,"('cti', 1.464)",0,16177.899,0
0,518,target,"[(1057, 800)]",[],[1],[0.75],horizontal,"(890.0, 262.0)",0.6166666666666667,0.705,1,16182.52,1
0,519,target,"[(1057, 821)]",[],[1],[0.6],vertical,"(890.0, 762.0)",0.6,0.556,1,16187.349,1
0,520,target,"[(1072, 816)]",[],[1],[0.5833333333333334],horizontal,"(390.0, 762.0)",0.95,0.541,1,16191.793,1
0,521,catch,"[(1057, 810)]",[],[1],[],horizontal,"(390.0, 262.0)",1.0166666666666666,nan,1,16197.136,2
0,522,target,"[(1068, 805)]",[],[1],[0.18333333333333332],vertical,"(390.0, 762.0)",1.5166666666666666,0.149,1,16202.126,1
0,523,target,"[(1032, 813)]",[],[1],[0.48333333333333334],horizontal,"(390.0, 262.0)",1.2,0.442,1,16207.07,1
0,524,target,"[(1057, 815)]",[],[1],[0.35],vertical,"(890.0, 762.0)",1.6833333333333333,0.312,1,16212.754,1
0,525,catch,"[(1057, 794)]",[],[1],[],vertical,"(390.0, 262.0)",1.2166666666666666,nan,1,16218.171,2
0,526,target,"[(1057, 806)]",[],[1],[0.65],horizontal,"(390.0, 262.0)",0.8,0.61,1,16223.288,1
0,527,target,"[(1059, 813)]",[],[1],[0.5833333333333334],vertical,"(890.0, 262.0)",1.0333333333333332,0.537,1,16228.354,1
0,528,target,"[(1057, 824)]",[],[1],[0.5333333333333333],vertical,"(390.0, 762.0)",0.7,0.496,1,16233.437,1
0,529,target,"[(1046, 812)]",[],[1],[0.45],vertical,"(890.0, 262.0)",1.1833333333333333,0.415,1,16238.288,2
0,530,target,"[(1064, 820)]",[],[1],[0.85],vertical,"(890.0, 262.0)",1.55,"('cti', 1.536),nan",0,16243.955,0
0,531,target,"[(1067, 804)]",[],[1],[0.7166666666666667],vertical,"(890.0, 262.0)",0.8,0.669,1,16249.638,1
0,532,target,"[(1069, 810)]",[],[1],[0.65],vertical,"(390.0, 762.0)",0.6,0.611,1,16254.722,1
0,533,target,"[(1066, 812)]",[],[1],[],vertical,"(390.0, 762.0)",,"('cti', 1.527)",0,16259.719,0
0,534,target,"[(1064, 812)]",[],[1],[0.5166666666666666],horizontal,"(890.0, 762.0)",0.6833333333333333,0.474,1,16264.467,1
0,535,target,"[(1013, 824)]",[],[1],[0.5666666666666667],horizontal,"(390.0, 262.0)",0.85,0.523,1,16269.054,1
0,536,target,"[(1017, 812)]",[],[1],[0.6666666666666666],horizontal,"(890.0, 762.0)",0.5833333333333334,0.619,1,16274.299,1
0,537,target,"[(1077, 803)]",[],[1],[0.5833333333333334],horizontal,"(390.0, 262.0)",0.9666666666666667,0.539,1,16278.805,2
0,538,target,"[(1015, 804)]",[],[1],[],vertical,"(390.0, 262.0)",,"('cti', 1.534)",0,16284.423,0
0,539,target,"[(1071, 805)]",[],[1],[0.8166666666666667],horizontal,"(390.0, 762.0)",0.65,0.766,1,16289.004,1
0,540,catch,"[(1068, 808)]",[],[1],[],horizontal,"(890.0, 262.0)",1.55,"('cti', 1.528),nan",0,16294.021,0
0,541,target,"[(1064, 795)]",[],[1],[0.35],horizontal,"(890.0, 762.0)",1.4666666666666666,0.31,1,16298.597,1
0,542,target,"[(1061, 795)]",[],[1],[0.5333333333333333],vertical,"(890.0, 262.0)",1.15,0.488,1,16303.724,1
0,543,target,"[(1069, 811)]",[],[1],[],vertical,"(390.0, 262.0)",,"('cti', 1.613)",0,16308.653,0
0,544,target,"[(1065, 805)]",[],[1],[0.26666666666666666],vertical,"(390.0, 262.0)",1.6166666666666667,0.231,1,16313.204,1
0,545,target,"[(1049, 823)]",[],[1],[0.5333333333333333],vertical,"(890.0, 262.0)",0.9,0.493,1,16318.511,1
0,546,target,"[(1072, 809)]",[],[1],[0.85],vertical,"(390.0, 262.0)",0.7,nan,0,16323.441,0
0,547,target,"[(1025, 803)]",[],[1],[0.85],vertical,"(890.0, 262.0)",0.55,nan,0,16327.854,0
0,548,target,"[(1072, 807)]",[],[1],[0.35],horizontal,"(390.0, 262.0)",1.3833333333333333,0.313,1,16332.505,1
0,549,target,"[(1068, 793)]",[],[1],[0.23333333333333334],vertical,"(390.0, 262.0)",1.6833333333333333,0.197,1,16338.165,1
0,550,target,"[(1077, 824)]",[],[1],[0.5666666666666667],vertical,"(890.0, 262.0)",1.2333333333333334,0.523,1,16343.377,1
0,551,target,"[(1020, 817)]",[],[1],[],vertical,"(890.0, 762.0)",,"('cti', 1.467)",0,16348.667,0
0,552,target,"[(1058, 823)]",[],[1],[0.4166666666666667],horizontal,"(890.0, 262.0)",1.35,0.379,1,16353.472,1
0,553,catch,"[(1010, 813)]",[],[1],[],vertical,"(390.0, 262.0)",1.1833333333333333,nan,1,16358.771,1
0,554,catch,"[(1061, 815)]",[],[1],[],vertical,"(890.0, 762.0)",1.1666666666666667,nan,1,16363.523,1
0,555,catch,"[(1013, 815)]",[],[1],[],horizontal,"(890.0, 262.0)",,"('cti', 1.425),nan",0,16367.987,0
0,556,target,"[(1068, 814)]",[],[1],[0.16666666666666666],horizontal,"(390.0, 262.0)",1.2,0.134,1,16372.687,1
0,557,target,"[(1017, 806)]",[],[1],[0.16666666666666666],vertical,"(890.0, 262.0)",1.5833333333333333,0.134,1,16377.305,1
0,558,target,"[(1072, 818)]",[],[1],[0.5333333333333333],horizontal,"(890.0, 762.0)",1.0166666666666666,0.492,1,16382.405,1
0,559,catch,"[(1017, 798)]",[],[1],[],vertical,"(390.0, 762.0)",1.1666666666666667,nan,1,16387.376,2
0,560,target,"[(1072, 793)]",[],[1],[0.7],vertical,"(890.0, 762.0)",0.9333333333333333,0.658,1,16392.322,1
0,561,target,"[(1043, 828)]",[],[1],[],vertical,"(890.0, 762.0)",,"('cti', 1.342)",0,16397.255,0
0,562,target,"[(1061, 813)]",[],[1],[0.85],vertical,"(890.0, 762.0)",0.5833333333333334,nan,0,16401.806,0
0,563,target,"[(1010, 820)]",[],[1],[],vertical,"(890.0, 762.0)",,"('cti', 1.254)",0,16406.206,0
0,564,target,"[(1061, 817)]",[],[1],[0.55],horizontal,"(390.0, 262.0)",1.1166666666666667,0.51,1,16410.923,1
0,565,target,"[(1022, 842)]",[],[1],[0.6],vertical,"(890.0, 262.0)",0.5166666666666666,0.553,1,16416.056,1
0,566,target,"[(1061, 813)]",[],[1],[0.05],horizontal,"(390.0, 762.0)",1.1166666666666667,0.018,0,16420.945,0
0,567,catch,"[(1023, 827)]",[],[1],[],horizontal,"(390.0, 762.0)",,"('cti', 1.555),nan",0,16425.965,0
0,568,target,"[(1071, 828)]",[],[1],[0.85],vertical,"(890.0, 762.0)",1.0666666666666667,nan,0,16435.022,0
0,569,target,"[(1045, 801)]",[],[1],[0.5333333333333333],vertical,"(390.0, 262.0)",1.15,0.493,1,16439.879,1
0,570,target,"[(1057, 804)]",[],[1],[0.16666666666666666],vertical,"(890.0, 262.0)",1.3833333333333333,0.134,1,16445.255,1
0,571,target,"[(1054, 822)]",[],[1],[0.55],horizontal,"(890.0, 262.0)",0.9,0.505,1,16450.521,1
0,572,target,"[(1013, 812)]",[],[1],[0.5166666666666666],horizontal,"(390.0, 262.0)",0.9333333333333333,0.482,1,16455.672,2
0,573,target,"[(1069, 797)]",[],[1],[0.5166666666666666],vertical,"(890.0, 262.0)",0.95,0.47,1,16461.073,1
0,574,catch,"[(1061, 811)]",[],[1],[],vertical,"(890.0, 762.0)",1.05,nan,1,16466.121,1
0,575,target,"[(1061, 820)]",[],[1],[0.85],vertical,"(890.0, 262.0)",0.8166666666666667,nan,0,16470.972,0
0,576,target,"[(1072, 813)]",[],[1],[0.5333333333333333],vertical,"(390.0, 262.0)",0.7,0.491,1,16475.478,1
0,577,target,"[(1065, 815)]",[],[1],[0.65],vertical,"(890.0, 762.0)",0.55,0.617,1,16480.211,1
0,578,target,"[(1069, 807)]",[],[1],[0.5333333333333333],horizontal,"(390.0, 262.0)",0.95,0.498,1,16485.006,1
0,579,target,"[(1010, 825)]",[],[1],[0.5666666666666667],horizontal,"(390.0, 262.0)",0.6666666666666666,0.524,1,16490.222,2
0,580,target,"[(429, 336), (784, 292), (435, 161), (360, 375), (191, 325), (254, 456), (364, 466), (471, 466), (470, 460), (376, 490), (369, 365), (387, 207), (238, 336), (238, 509), (316, 359), (435, 413), (498, 514), (506, 514), (345, 409), (326, 409), (770, 410), (304, 357), (384, 253), (789, 543), (1021, 848)]",[],"[0, 0, 0, 0, 0, 0, 0, 0, 0, 0, 0, 0, 0, 0, 0, 0, 0, 0, 0, 0, 0, 0, 0, 0, 1]",[0.48333333333333334],vertical,"(890.0, 762.0)",1.0833333333333333,0.442,1,16495.499,1
0,581,catch,"[(1016, 842)]",[],[1],[],horizontal,"(890.0, 262.0)",,"('cti', 0.628),nan",0,16602.67,0
0,582,target,"[(1010, 823)]",[],[1],[0.85],vertical,"(390.0, 762.0)",1.2833333333333332,nan,0,16606.617,0
0,583,target,"[(1069, 815)]","[(1007, 844)]",[1],[0.6666666666666666],horizontal,"(890.0, 762.0)",,"('bar', 0.671)",0,16611.973,0
0,584,target,"[(388, 832), (998, 871), (494, 553), (1025, 848)]",[],"[0, 0, 0, 1]",[0.8166666666666667],horizontal,"(890.0, 762.0)",0.85,0.775,1,16614.94,1
0,585,target,"[(1059, 820)]","[(1008, 837)]",[1],[0.21666666666666667],vertical,"(390.0, 262.0)",,"('bar', 0.236)",0,16626.957,0
0,586,target,"[(1009, 836)]",[],[1],[0.85],vertical,"(890.0, 262.0)",0.85,nan,0,16629.253,0
0,587,target,"[(396, 845), (1057, 824)]",[],"[0, 1]",[0.3833333333333333],vertical,"(890.0, 762.0)",1.3,0.35,1,16634.199,1
0,588,target,"[(1017, 834)]",[],[1],[0.85],horizontal,"(390.0, 762.0)",0.5333333333333333,nan,0,16643.039,0
0,589,target,"[(360, 463), (992, 854), (991, 845), (1016, 889)]",[],"[0, 0, 0, 1]",[0.85],horizontal,"(390.0, 762.0)",1.5666666666666667,nan,0,16647.239,0
0,590,target,"[(1018, 856)]",[],[1],[0.4],vertical,"(390.0, 262.0)",0.8333333333333334,0.372,1,16656.523,1
0,591,target,"[(1045, 830)]",[],[1],[0.43333333333333335],horizontal,"(890.0, 762.0)",1.1833333333333333,0.4,1,16664.44,1
0,592,target,"[(1017, 837)]",[],[1],[0.85],vertical,"(890.0, 262.0)",1.2,nan,0,16669.814,0
0,593,target,"[(1022, 841)]",[],[1],[0.5666666666666667],vertical,"(890.0, 762.0)",1.5666666666666667,0.534,1,16675.052,1
0,594,target,"[(1072, 813)]",[],[1],[0.85],vertical,"(390.0, 762.0)",1.3166666666666667,nan,0,16681.174,0
0,595,target,"[(1069, 802)]",[],[1],[0.85],horizontal,"(890.0, 262.0)",0.95,nan,0,16686.323,0
0,596,target,"[(1061, 836)]",[],[1],[0.85],horizontal,"(390.0, 762.0)",0.8,nan,0,16691.041,0
0,597,target,"[(435, 538), (1022, 832)]",[],"[0, 1]",[0.6333333333333333],horizontal,"(890.0, 762.0)",1.2333333333333334,0.591,1,16696.036,1
0,598,target,"[(1013, 830)]",[],[1],[0.7],vertical,"(390.0, 762.0)",0.8833333333333333,0.657,1,16709.373,1
0,599,target,"[(1022, 812)]",[],[1],[0.85],vertical,"(890.0, 262.0)",1.0666666666666667,nan,0,16715.006,0
0,600,target,"[(993, 880), (1022, 837)]",[],"[0, 1]",[0.85],vertical,"(390.0, 762.0)",0.5,nan,0,16719.723,0
0,601,target,"[(1053, 820)]",[],[1],[0.7666666666666666],vertical,"(890.0, 262.0)",1.5666666666666667,0.719,1,16724.896,1
0,602,target,"[(1041, 847)]",[],[1],[0.23333333333333334],horizontal,"(390.0, 262.0)",1.2666666666666666,0.197,1,16731.207,1
0,603,target,"[(1060, 816)]",[],[1],[0.85],horizontal,"(390.0, 262.0)",0.75,nan,0,16736.759,0
0,604,target,"[(1032, 830)]",[],[1],[0.85],vertical,"(390.0, 262.0)",0.65,nan,0,16741.408,0
0,605,target,"[(1054, 812)]",[],[1],[0.6166666666666667],horizontal,"(390.0, 262.0)",1.4166666666666667,0.572,1,16748.333,1
0,606,target,"[(1071, 833)]",[],[1],[0.65],horizontal,"(390.0, 762.0)",0.8,0.604,1,16753.925,1
0,607,target,"[(1064, 815)]",[],[1],[0.45],vertical,"(890.0, 262.0)",1.3,0.412,1,16758.924,1
0,608,target,"[(1012, 815)]",[],[1],[0.48333333333333334],horizontal,"(890.0, 262.0)",0.9333333333333333,0.451,1,16764.482,2
0,609,target,"[(1017, 813)]",[],[1],[0.4666666666666667],vertical,"(390.0, 262.0)",1.3,0.424,1,16770.106,1
0,610,catch,"[(1069, 823)]",[],[1],[],horizontal,"(890.0, 762.0)",1.0666666666666667,nan,1,16775.698,1
0,611,target,"[(1025, 828)]",[],[1],[0.45],horizontal,"(390.0, 762.0)",1.6333333333333333,0.408,1,16780.402,1
0,612,target,"[(1101, 800)]",[],[1],[0.85],horizontal,"(890.0, 262.0)",1.5666666666666667,nan,0,16789.209,0
0,613,target,"[(1050, 827)]",[],[1],[0.55],horizontal,"(890.0, 762.0)",0.6,0.514,1,16794.525,1
0,614,target,"[(1065, 817)]",[],[1],[],vertical,"(890.0, 762.0)",,"('fix', 0.097)",0,16802.375,0
0,615,target,"[(1001, 844), (1025, 825)]",[],"[0, 1]",[],vertical,"(890.0, 762.0)",,"('fix', 0.134)",0,16804.152,0
0,616,target,"[(1051, 806)]","[(1008, 822)]",[1],[0.08333333333333333],horizontal,"(890.0, 762.0)",,"('bar', 0.101)",0,16806.702,0
0,617,target,"[(1063, 812)]",[],[1],[0.85],vertical,"(390.0, 762.0)",1.1833333333333333,nan,0,16808.941,0
0,618,target,"[(1065, 796)]",[],[1],[0.85],horizontal,"(890.0, 762.0)",0.5166666666666666,nan,0,16814.291,0
0,619,target,"[(1055, 808)]",[],[1],[0.85],horizontal,"(390.0, 262.0)",0.6833333333333333,nan,0,16818.974,0
0,620,target,"[(1091, 834)]",[],[1],[0.7],horizontal,"(390.0, 762.0)",0.5,0.659,1,16823.563,1
0,621,target,"[(1016, 822)]",[],[1],[0.5833333333333334],horizontal,"(890.0, 762.0)",0.55,0.537,1,16828.689,1
0,622,target,"[(1069, 800)]",[],[1],[0.05],vertical,"(390.0, 762.0)",1.55,0.02,0,16833.291,0
0,623,target,"[(1101, 811)]",[],[1],[0.8166666666666667],vertical,"(890.0, 762.0)",0.85,0.771,1,16838.158,1
0,624,target,"[(1024, 822)]",[],[1],[0.6166666666666667],vertical,"(390.0, 762.0)",0.8166666666666667,0.577,1,16843.733,1
0,625,target,"[(1006, 818)]",[],[1],[],vertical,"(890.0, 762.0)",,"('cti', 1.556)",0,16848.723,0
0,626,target,"[(1041, 802)]",[],[1],[0.5],vertical,"(890.0, 262.0)",1.0,0.46,1,16853.286,1
0,627,target,"[(1049, 820)]",[],[1],[0.6],vertical,"(890.0, 762.0)",1.55,0.556,1,16858.479,1
0,628,target,"[(1049, 825)]",[],[1],[0.5],vertical,"(890.0, 262.0)",0.9666666666666667,0.461,1,16864.066,1
0,629,target,"[(1061, 800)]",[],[1],[0.5666666666666667],vertical,"(390.0, 262.0)",1.1333333333333333,0.52,1,16869.29,2
0,630,target,"[(1073, 803)]",[],[1],[0.4666666666666667],horizontal,"(390.0, 762.0)",1.0,0.431,1,16875.067,1
0,631,target,"[(1061, 803)]",[],[1],[0.7333333333333333],vertical,"(390.0, 762.0)",1.0833333333333333,0.685,1,16880.114,1
0,632,target,"[(1061, 817)]",[],[1],[0.8333333333333334],horizontal,"(390.0, 262.0)",0.6666666666666666,0.796,1,16885.544,1
0,633,target,"[(1017, 837)]",[],[1],[0.8166666666666667],horizontal,"(390.0, 262.0)",0.5166666666666666,0.774,1,16890.409,2
0,634,target,"[(1069, 814)]",[],[1],[0.5333333333333333],horizontal,"(390.0, 262.0)",1.05,0.502,1,16896.569,1
0,635,target,"[(1045, 812)]",[],[1],[0.6333333333333333],horizontal,"(390.0, 762.0)",0.9,0.591,1,16901.509,1
0,636,target,"[(1056, 812)]",[],[1],[0.8166666666666667],vertical,"(890.0, 262.0)",0.8666666666666667,0.771,1,16906.726,1
0,637,target,"[(1065, 816)]",[],[1],[0.6166666666666667],vertical,"(890.0, 762.0)",0.5333333333333333,0.579,1,16911.908,2
0,638,target,"[(1012, 810)]",[],[1],[0.06666666666666667],vertical,"(390.0, 762.0)",1.4,0.036,0,16916.959,0
0,639,catch,"[(1013, 807)]",[],[1],[],horizontal,"(390.0, 762.0)",1.1,nan,1,16921.341,1
0,640,target,"[(1022, 814)]",[],[1],[],vertical,"(890.0, 262.0)",,"('cti', 1.449)",0,16925.709,0
0,641,target,"[(1061, 793)]",[],[1],[0.5],vertical,"(890.0, 262.0)",0.8,0.463,1,16930.641,1
0,642,catch,"[(1049, 811)]",[],[1],[],vertical,"(390.0, 762.0)",1.4333333333333333,nan,1,16935.542,1
0,643,target,"[(1055, 812)]",[],[1],[0.85],vertical,"(890.0, 762.0)",0.8,nan,0,16941.016,0
0,644,target,"[(1057, 812)]",[],[1],[0.6333333333333333],vertical,"(390.0, 762.0)",1.0333333333333332,0.59,1,16946.037,1
0,645,target,"[(1064, 818)]",[],[1],[0.06666666666666667],vertical,"(390.0, 262.0)",1.6666666666666667,0.035,0,16951.583,0
0,646,target,"[(1046, 807)]",[],[1],[0.36666666666666664],horizontal,"(390.0, 762.0)",1.35,0.325,1,16956.375,1
0,647,target,"[(1016, 801)]",[],[1],[0.7166666666666667],vertical,"(890.0, 262.0)",0.9833333333333333,0.678,1,16961.625,1
0,648,target,"[(1068, 813)]",[],[1],[0.48333333333333334],horizontal,"(890.0, 262.0)",1.05,0.447,1,16966.857,1
0,649,catch,"[(1017, 825)]",[],[1],[],horizontal,"(890.0, 762.0)",1.5333333333333332,nan,1,16971.82,2
0,650,target,"[(1049, 841)]",[],[1],[0.1],horizontal,"(890.0, 262.0)",1.3333333333333333,0.066,0,16977.308,0
0,651,target,"[(1020, 838)]",[],[1],[0.5833333333333334],vertical,"(390.0, 262.0)",1.2666666666666666,0.551,1,16982.945,1
0,652,catch,"[(1067, 794)]",[],[1],[],vertical,"(890.0, 762.0)",1.4166666666666667,nan,1,16988.647,1
0,653,target,"[(1021, 803)]",[],[1],[0.5666666666666667],horizontal,"(890.0, 262.0)",0.95,0.525,1,16993.381,1
0,654,catch,"[(1068, 803)]",[],[1],[],horizontal,"(390.0, 262.0)",1.4166666666666667,nan,1,16998.031,2
0,655,target,"[(1046, 800)]",[],[1],[0.4666666666666667],horizontal,"(390.0, 762.0)",1.1333333333333333,0.432,1,17003.749,1
0,656,target,"[(1049, 815)]",[],[1],[0.11666666666666667],vertical,"(390.0, 262.0)",1.3333333333333333,0.086,0,17009.048,0
0,657,target,"[(1022, 831)]",[],[1],[0.5],vertical,"(390.0, 262.0)",1.15,0.459,1,17013.542,1
0,658,catch,"[(1056, 822)]",[],[1],[],horizontal,"(890.0, 762.0)",1.1666666666666667,nan,1,17018.946,1
0,659,target,"[(1022, 823)]",[],[1],[0.5833333333333334],vertical,"(390.0, 262.0)",0.9833333333333333,0.541,1,17023.595,1
0,660,target,"[(1068, 801)]",[],[1],[],horizontal,"(390.0, 762.0)",,"('cti', 1.46)",0,17028.971,0
0,661,target,"[(1062, 794)]",[],[1],[0.5666666666666667],vertical,"(390.0, 262.0)",0.9833333333333333,0.524,1,17033.639,1
0,662,target,"[(1021, 828)]",[],[1],[0.6166666666666667],horizontal,"(890.0, 262.0)",0.6333333333333333,0.573,1,17038.493,1
0,663,target,"[(1065, 830)]",[],[1],[0.23333333333333334],horizontal,"(390.0, 762.0)",1.3333333333333333,0.197,1,17043.694,1
0,664,target,"[(1063, 803)]",[],[1],[],vertical,"(390.0, 762.0)",,"('cti', 1.584)",0,17049.044,0
0,665,target,"[(1013, 812)]",[],[1],[0.55],vertical,"(890.0, 262.0)",0.95,0.509,1,17053.876,1
0,666,target,"[(1051, 822)]",[],[1],[],horizontal,"(890.0, 762.0)",,"('cti', 1.405)",0,17058.993,0
0,667,target,"[(1049, 809)]",[],[1],[0.1],horizontal,"(390.0, 262.0)",1.5166666666666666,0.068,0,17063.876,0
0,668,target,"[(1029, 809)]",[],[1],[0.7333333333333333],vertical,"(890.0, 262.0)",1.0,0.695,1,17068.777,1
0,669,target,"[(1041, 818)]",[],[1],[0.3333333333333333],horizontal,"(390.0, 262.0)",1.55,0.298,1,17074.309,1
0,670,target,"[(1065, 814)]",[],[1],[0.5833333333333334],vertical,"(890.0, 762.0)",1.0,0.558,1,17079.637,1
0,671,target,"[(1022, 817)]",[],[1],[0.6166666666666667],horizontal,"(390.0, 762.0)",0.7,0.569,1,17084.596,2
0,672,target,"[(1068, 804)]",[],[1],[0.16666666666666666],vertical,"(890.0, 262.0)",1.7,0.134,1,17089.943,1
0,673,target,"[(1020, 810)]",[],[1],[0.7],vertical,"(390.0, 262.0)",0.5666666666666667,0.659,1,17094.918,1
0,674,target,"[(1049, 816)]",[],[1],[0.6333333333333333],vertical,"(390.0, 262.0)",1.05,0.591,1,17099.993,1
0,675,target,"[(1008, 827)]",[],[1],[],vertical,"(890.0, 262.0)",,"('cti', 1.238)",0,17105.177,0
0,676,target,"[(1063, 804)]",[],[1],[0.5666666666666667],horizontal,"(390.0, 262.0)",1.45,0.527,1,17109.942,1
0,677,target,"[(1041, 832)]",[],[1],[0.65],vertical,"(390.0, 762.0)",0.9,0.61,1,17115.076,1
0,678,target,"[(1045, 812)]",[],[1],[0.6333333333333333],vertical,"(390.0, 762.0)",0.7333333333333333,0.596,1,17120.26,1
0,679,target,"[(1017, 801)]",[],[1],[0.5333333333333333],vertical,"(890.0, 262.0)",0.9166666666666666,0.493,1,17125.326,2
0,680,target,"[(1057, 797)]",[],[1],[],horizontal,"(890.0, 762.0)",,"('cti', 1.1)",0,17130.96,0
0,681,target,"[(1017, 880)]",[],[1],[0.7333333333333333],vertical,"(890.0, 762.0)",0.5333333333333333,0.686,1,17135.076,1
0,682,target,"[(1006, 856)]",[],[1],[0.85],horizontal,"(390.0, 262.0)",0.5166666666666666,nan,0,18871.681,0
0,683,target,"[(1013, 820)]",[],[1],[0.7333333333333333],vertical,"(390.0, 262.0)",0.75,0.688,1,18876.168,1
0,684,target,"[(1069, 819)]",[],[1],[0.3833333333333333],horizontal,"(890.0, 762.0)",1.15,0.343,1,18881.246,1
0,685,catch,"[(1013, 824)]",[],[1],[],horizontal,"(890.0, 262.0)",1.0833333333333333,nan,1,18886.622,1
0,686,target,"[(1058, 817)]",[],[1],[0.6833333333333333],horizontal,"(890.0, 262.0)",0.6666666666666666,0.637,1,18891.619,2
0,687,catch,"[(1074, 831)]",[],[1],[],vertical,"(390.0, 262.0)",1.15,nan,1,18896.87,1
0,688,target,"[(1065, 839)]",[],[1],[0.35],vertical,"(390.0, 762.0)",1.05,0.312,1,18901.436,1
0,689,catch,"[(1017, 819)]",[],[1],[],horizontal,"(390.0, 262.0)",1.15,"('cti', 1.139),nan",0,18907.048,0
0,690,target,"[(1017, 809)]",[],[1],[0.26666666666666666],vertical,"(390.0, 762.0)",1.4833333333333334,0.236,1,18911.884,1
0,691,target,"[(1053, 827)]",[],[1],[0.3],vertical,"(890.0, 762.0)",1.2333333333333334,0.262,1,18916.986,1
0,692,target,"[(1013, 820)]",[],[1],[],vertical,"(890.0, 762.0)",,"('cti', 1.579)",0,18921.886,0
0,693,catch,"[(1041, 807)]",[],[1],[],horizontal,"(890.0, 762.0)",1.5666666666666667,nan,1,18926.604,1
0,694,target,"[(1076, 795)]",[],[1],[0.5166666666666666],horizontal,"(390.0, 762.0)",0.95,0.474,1,18931.321,1
0,695,target,"[(1077, 806)]",[],[1],[0.05],vertical,"(890.0, 262.0)",1.65,0.02,0,18936.72,0
0,696,target,"[(1013, 804)]",[],[1],[0.3],horizontal,"(390.0, 762.0)",1.3333333333333333,0.268,1,18941.187,1
0,697,target,"[(1078, 800)]",[],[1],[0.4166666666666667],horizontal,"(890.0, 262.0)",1.1833333333333333,0.377,1,18946.212,1
0,698,target,"[(1061, 811)]",[],[1],[0.65],horizontal,"(890.0, 262.0)",0.8166666666666667,0.61,1,18951.686,1
0,699,target,"[(1049, 808)]",[],[1],[0.15],vertical,"(390.0, 262.0)",1.2833333333333332,0.116,1,18956.82,2
0,700,target,"[(1013, 810)]",[],[1],"[0.85, 0.85]",horizontal,"(390.0, 762.0)",0.5333333333333333,"0.802,nan",0,18962.608,0
0,701,target,"[(1037, 807)]",[],[1],[0.23333333333333334],vertical,"(890.0, 762.0)",1.5666666666666667,0.199,1,18966.697,1
0,702,target,"[(1051, 814)]",[],[1],[],vertical,"(390.0, 762.0)",,"('cti', 1.564)",0,18971.737,0
0,703,target,"[(1017, 808)]",[],[1],[0.85],horizontal,"(390.0, 262.0)",0.6833333333333333,nan,0,18976.387,0
0,704,target,"[(1077, 801)]",[],[1],[0.55],vertical,"(890.0, 262.0)",0.9166666666666666,0.507,1,18980.809,1
0,705,target,"[(1013, 809)]",[],[1],[0.4166666666666667],horizontal,"(890.0, 762.0)",1.5,0.373,1,18985.936,1
0,706,target,"[(1037, 889)]",[],[1],[0.5333333333333333],vertical,"(390.0, 262.0)",0.9166666666666666,0.494,1,18991.645,1
0,707,target,"[(1033, 827)]",[],[1],[0.85],horizontal,"(890.0, 762.0)",0.8833333333333333,nan,0,18997.32,0
0,708,target,"[(376, 490), (1010, 828)]",[],"[0, 1]",[0.6166666666666667],horizontal,"(890.0, 762.0)",1.4666666666666666,0.575,1,19002.105,1
0,709,target,"[(1026, 829)]",[],[1],[0.5666666666666667],horizontal,"(890.0, 262.0)",1.1166666666666667,0.521,1,19012.096,1
0,710,target,"[(1013, 815)]",[],[1],[0.85],horizontal,"(890.0, 262.0)",1.2,nan,0,19017.626,0
0,711,target,"[(1077, 797)]",[],[1],[0.31666666666666665],horizontal,"(890.0, 762.0)",1.3,0.278,1,19022.982,1
0,712,target,"[(1077, 808)]",[],[1],[0.85],vertical,"(390.0, 262.0)",0.9333333333333333,nan,0,19028.347,0
0,713,target,"[(1013, 837)]",[],[1],[0.1],vertical,"(390.0, 262.0)",1.1166666666666667,0.067,0,19033.32,0
0,714,catch,"[(1045, 859)]",[],[1],[],horizontal,"(890.0, 262.0)",1.3666666666666667,nan,1,19038.669,1
0,715,target,"[(998, 812), (1026, 858)]",[],"[0, 1]",[],horizontal,"(890.0, 262.0)",,"('cti', 1.102)",0,19043.413,0
0,716,target,"[(1064, 817)]",[],[1],[0.6],vertical,"(390.0, 262.0)",0.5833333333333334,0.553,1,19048.915,1
0,717,target,"[(1045, 791)]",[],[1],[0.3],horizontal,"(390.0, 762.0)",1.35,0.271,1,19053.523,1
0,718,target,"[(1013, 815)]",[],[1],[0.6],horizontal,"(390.0, 762.0)",0.65,0.561,1,19059.103,1
0,719,target,"[(1015, 793)]",[],[1],[0.6166666666666667],horizontal,"(890.0, 762.0)",0.65,0.571,1,19063.753,2
0,720,target,"[(1029, 801)]",[],[1],[0.36666666666666664],horizontal,"(890.0, 262.0)",1.25,0.329,1,19068.669,1
0,721,target,"[(1017, 811)]",[],[1],[0.2],vertical,"(390.0, 762.0)",1.3166666666666667,0.166,1,19074.038,1
0,722,target,"[(1053, 829)]",[],[1],[0.6833333333333333],horizontal,"(890.0, 262.0)",0.6666666666666666,0.642,1,19078.954,1
0,723,target,"[(1072, 800)]",[],[1],[0.5833333333333334],vertical,"(890.0, 762.0)",0.9333333333333333,0.545,1,19084.204,2
0,724,target,"[(1013, 826)]",[],[1],[0.85],vertical,"(390.0, 762.0)",1.6666666666666667,"('cti', 1.65),nan",0,19089.955,0
0,725,target,"[(1040, 803)]",[],[1],[0.6166666666666667],vertical,"(890.0, 262.0)",0.5,0.58,1,19095.288,1
0,726,target,"[(1061, 792)]",[],[1],[0.6166666666666667],horizontal,"(390.0, 262.0)",0.95,0.567,1,19100.321,1
0,727,target,"[(1022, 832)]",[],[1],[0.13333333333333333],vertical,"(390.0, 262.0)",1.65,0.099,0,19105.229,0
0,728,target,"[(1029, 806)]",[],[1],[0.48333333333333334],horizontal,"(390.0, 262.0)",1.2333333333333334,0.437,1,19109.891,1
0,729,catch,"[(1007, 815)]",[],[1],[],horizontal,"(390.0, 262.0)",,"('cti', 1.63),nan",0,19115.221,0
0,730,target,"[(1053, 821)]",[],[1],[0.23333333333333334],vertical,"(390.0, 762.0)",1.5,0.205,1,19120.048,1
0,731,target,"[(1008, 821)]",[],[1],[0.7],vertical,"(890.0, 262.0)",1.0833333333333333,0.648,1,19125.087,1
0,732,target,"[(1072, 808)]",[],[1],[0.7],vertical,"(390.0, 262.0)",0.7833333333333333,0.654,1,19130.313,1
0,733,target,"[(1041, 820)]",[],[1],[0.5666666666666667],vertical,"(390.0, 762.0)",1.05,0.523,1,19135.035,2
0,734,target,"[(1061, 795)]",[],[1],[0.21666666666666667],vertical,"(890.0, 262.0)",1.3666666666666667,0.183,1,19140.732,1
0,735,target,"[(1013, 813)]",[],[1],[0.23333333333333334],horizontal,"(890.0, 762.0)",1.6333333333333333,0.195,1,19146.188,1
0,736,target,"[(1013, 809)]",[],[1],[0.6333333333333333],vertical,"(890.0, 262.0)",1.2166666666666666,0.589,1,19151.205,1
0,737,target,"[(1061, 810)]",[],[1],[0.18333333333333332],vertical,"(890.0, 762.0)",1.4833333333333334,0.152,1,19156.521,2
0,738,target,"[(1013, 814)]",[],[1],[],horizontal,"(390.0, 262.0)",,"('cti', 1.503)",0,19162.456,0
0,739,target,"[(1013, 803)]",[],[1],[0.11666666666666667],vertical,"(890.0, 262.0)",1.6833333333333333,0.084,0,19167.422,0
0,740,target,"[(1013, 808)]",[],[1],[0.48333333333333334],horizontal,"(390.0, 762.0)",1.1333333333333333,0.444,1,19172.504,1
0,741,target,"[(1061, 817)]",[],[1],[0.7666666666666666],horizontal,"(890.0, 762.0)",0.7833333333333333,0.726,1,19177.238,1
0,742,target,"[(1078, 831)]",[],[1],[0.55],horizontal,"(390.0, 262.0)",0.6666666666666666,0.505,1,19182.53,1
0,743,target,"[(1057, 808)]",[],[1],[0.75],vertical,"(890.0, 762.0)",0.8333333333333334,0.711,1,19187.156,2
0,744,target,"[(1077, 808)]",[],[1],[],horizontal,"(890.0, 762.0)",,"('fix', 0.083)",0,19192.738,0
0,745,target,"[(1056, 837)]",[],[1],[0.5333333333333333],vertical,"(890.0, 762.0)",1.2,0.493,1,19194.405,1
0,746,target,"[(1061, 810)]",[],[1],[0.85],horizontal,"(890.0, 762.0)",1.5166666666666666,"('cti', 1.498),nan",0,19199.643,0
0,747,target,"[(1064, 830)]",[],[1],[0.55],horizontal,"(890.0, 262.0)",0.8166666666666667,0.506,1,19204.903,1
0,748,catch,"[(1072, 795)]",[],[1],[],vertical,"(890.0, 762.0)",1.2666666666666666,nan,1,19209.838,1
0,749,target,"[(1019, 797)]",[],[1],[0.5333333333333333],vertical,"(390.0, 262.0)",0.6,0.494,1,19214.556,1
0,750,target,"[(1017, 830)]",[],[1],[],vertical,"(390.0, 262.0)",,"('cti', 1.499)",0,19219.449,0
0,751,target,"[(1021, 813)]",[],[1],[0.85],horizontal,"(390.0, 262.0)",1.05,nan,0,19224.133,0
0,752,target,"[(1022, 838)]",[],[1],[0.85],vertical,"(390.0, 762.0)",0.8,nan,0,19228.771,0
0,753,target,"[(1065, 807)]",[],[1],[0.21666666666666667],vertical,"(890.0, 762.0)",1.4833333333333334,0.182,1,19234.637,1
0,754,target,"[(1015, 817)]",[],[1],[0.6833333333333333],vertical,"(390.0, 262.0)",1.1333333333333333,0.656,1,19239.988,1
0,755,target,"[(1072, 821)]",[],[1],[0.7],horizontal,"(390.0, 262.0)",0.75,0.651,1,19245.329,1
