block,trial,trial_type,taps_start_loc_during_fix,taps_end_loc_during_fix,taps_on_lever_during_fix,taps_on_lever_s_during_fix,bar_orientation,target_xy,cti,rt,acc,time
1,1,target,"[(1095, 857)]",[],[1],[0.7],horizontal,"(390.0, 762.0)",1.666666667,0.674,1,0.445
1,2,target,"[(1249, 124), (1116, 865)]",[],"[0, 1]",[0.5333333333333333],vertical,"(390.0, 262.0)",0.816666667,0.5,1,6.819
1,3,target,"[(1096, 885)]",[],[1],[0.85],vertical,"(390.0, 762.0)",1.35,nan,0,5047.515
1,4,target,"[(1121, 882)]",[],[1],[0.5666666666666667],horizontal,"(390.0, 762.0)",0.65,0.525,1,5052.901
1,5,target,"[(1086, 907)]",[],[1],[0.85],horizontal,"(390.0, 762.0)",0.616666667,nan,0,5064.132
1,6,target,"[(1111, 898)]",[],[1],[0.5666666666666667],horizontal,"(890.0, 262.0)",0.65,0.525,1,5068.637
1,7,catch,"[(1085, 905)]",[],[1],[0.85],horizontal,"(890.0, 762.0)",0.9,nan,1,5072.55
1,8,target,"[(1095, 904)]",[],[1],[0.7],horizontal,"(890.0, 762.0)",1.116666667,0.652,1,5077.41
1,9,catch,"[(1085, 901)]",[],[1],[0.85],horizontal,"(890.0, 262.0)",0.616666667,nan,1,5082.201
1,10,target,"[(1071, 902)]",[],[1],[0.5333333333333333],vertical,"(890.0, 262.0)",1.366666667,0.493,1,5087.005
2,11,target,"[(1071, 891)]",[],[1],[0.5666666666666667],vertical,"(890.0, 762.0)",1.05,0.526,1,5092.307
2,12,target,"[(1129, 899)]",[],[1],[0.55],horizontal,"(890.0, 262.0)",0.966666667,0.51,1,5097.4
2,13,target,"[(1071, 895)]",[],[1],[0.55],vertical,"(390.0, 262.0)",1.15,0.511,1,5102.22
2,14,target,"[(1109, 899)]",[],[1],[0.6166666666666667],vertical,"(890.0, 762.0)",0.633333333,0.585,1,5106.816
2,15,target,"[(1126, 917)]",[],[1],[0.2],horizontal,"(890.0, 762.0)",1.516666667,0.164,1,5111.55
2,16,target,"[(1069, 861)]",[],[1],[0.6],horizontal,"(390.0, 762.0)",0.7,0.564,1,5116.428
2,17,target,"[(1105, 890)]",[],[1],[0.5166666666666666],horizontal,"(890.0, 262.0)",1.083333333,0.473,1,5121.301
2,18,target,"[(1109, 897)]",[],[1],[0.65],vertical,"(390.0, 762.0)",0.683333333,0.605,1,5126.148
2,19,target,"[(1086, 906)]",[],[1],[0.75],horizontal,"(890.0, 262.0)",0.866666667,0.707,1,5130.818
2,20,catch,"[(1093, 885)]",[],[1],[0.85],vertical,"(890.0, 762.0)",0.916666667,nan,1,5135.815
3,21,catch,"[(1098, 898)]",[],[1],[0.85],vertical,"(390.0, 762.0)",0.816666667,nan,1,5141.266
3,22,target,"[(1065, 902)]",[],[1],[],horizontal,"(390.0, 762.0)",,cti_phase,0,5146.001
3,23,catch,"[(1074, 862)]",[],[1],[0.85],vertical,"(390.0, 762.0)",0.583333333,nan,1,5150.15
3,24,target,"[(1072, 906)]",[],[1],[0.31666666666666665],vertical,"(390.0, 762.0)",1.15,0.28,1,5154.566
3,25,target,"[(1070, 906)]",[],[1],[0.25],vertical,"(890.0, 262.0)",1.483333333,0.215,1,5159.25
3,26,target,"[(1072, 915)]",[],[1],[0.7],horizontal,"(390.0, 762.0)",0.966666667,0.675,1,5164.19
3,27,target,"[(1100, 889)]",[],[1],[0.5166666666666666],horizontal,"(390.0, 762.0)",0.7,0.477,1,5169.184
3,28,target,"[(1079, 915)]",[],[1],[0.55],vertical,"(390.0, 762.0)",1.166666667,0.511,1,5173.849
3,29,target,"[(1118, 855)]",[],[1],[0.5],vertical,"(890.0, 762.0)",0.866666667,0.462,1,5178.414
3,30,target,"[(1076, 889)]",[],[1],[0.5333333333333333],horizontal,"(890.0, 262.0)",0.866666667,0.496,1,5182.667
4,31,target,"[(1116, 899)]",[],[1],[],horizontal,"(390.0, 762.0)",,cti_phase,0,5187.315
4,32,catch,"[(1097, 885)]",[],[1],[0.85],vertical,"(890.0, 762.0)",0.65,nan,1,5191.601
4,33,target,"[(1076, 888)]",[],[1],[],horizontal,"(890.0, 762.0)",,cti_phase,0,5196.057
4,34,target,"[(1095, 901)]",[],[1],[],horizontal,"(390.0, 762.0)",,cti_phase,0,5200.834
4,35,target,"[(661, 906), (1068, 905)]",[],"[0, 1]",[0.35],vertical,"(390.0, 262.0)",1.216666667,0.31,1,5204.902
4,36,target,"[(1090, 894)]",[],[1],[0.7666666666666666],horizontal,"(390.0, 262.0)",0.566666667,0.724,1,5213.454
4,37,target,"[(1095, 889)]",[],[1],[0.5166666666666666],horizontal,"(890.0, 262.0)",0.816666667,0.473,1,5217.958
4,38,target,"[(1086, 890)]",[],[1],[0.5166666666666666],vertical,"(890.0, 762.0)",1.05,0.473,1,5222.58
4,39,target,"[(1104, 895)]",[],[1],[],vertical,"(390.0, 762.0)",,cti_phase,0,5227.284
4,40,catch,"[(1083, 889)]",[],[1],[0.85],vertical,"(390.0, 762.0)",0.95,nan,1,5231.817
5,41,catch,"[(1089, 871)]",[],[1],[0.85],horizontal,"(890.0, 762.0)",0.666666667,nan,1,5236.622
5,42,catch,"[(1087, 882)]",[],[1],[0.85],horizontal,"(890.0, 262.0)",1.233333333,nan,1,5241.168
5,43,target,"[(1100, 873)]",[],[1],[0.5166666666666666],vertical,"(890.0, 262.0)",0.783333333,0.484,1,5246.451
5,44,target,"[(1100, 893)]",[],[1],[0.5333333333333333],vertical,"(390.0, 262.0)",1.316666667,0.492,1,5255.335
5,45,target,"[(1123, 892)]",[],[1],[0.5666666666666667],horizontal,"(390.0, 762.0)",1.1,0.526,1,5259.917
5,46,target,"[(1099, 882)]",[],[1],[0.6833333333333333],vertical,"(890.0, 262.0)",0.766666667,0.646,1,5264.917
5,47,target,"[(1079, 887)]",[],[1],[0.2],vertical,"(890.0, 262.0)",1.316666667,0.163,1,5269.51
5,48,target,"[(1079, 876)]",[],[1],[0.85],horizontal,"(890.0, 262.0)",1.666666667,nan,0,5274.609
5,49,target,"[(1102, 884)]",[],[1],[0.6166666666666667],horizontal,"(390.0, 762.0)",1.166666667,0.576,1,5280.335
5,50,target,"[(1103, 889)]",[],[1],[0.55],vertical,"(390.0, 762.0)",0.633333333,0.512,1,5285.401
6,51,target,"[(1083, 891)]",[],[1],[0.85],horizontal,"(890.0, 262.0)",0.616666667,nan,0,5290.179
6,52,catch,"[(1086, 866)]",[],[1],[0.85],vertical,"(390.0, 262.0)",1.283333333,nan,1,5294.883
6,53,target,"[(1076, 873)]",[],[1],[0.85],horizontal,"(890.0, 262.0)",1.5,nan,0,5300.151
6,54,target,"[(1104, 860)]",[],[1],[0.5],vertical,"(390.0, 262.0)",1.55,0.458,1,5305.683
6,55,target,"[(1088, 891)]",[],[1],[0.5333333333333333],horizontal,"(390.0, 762.0)",0.883333333,0.506,1,5311.817
6,56,target,"[(1100, 906)]",[],[1],[0.6333333333333333],vertical,"(390.0, 262.0)",1.233333333,0.604,1,5316.899
6,57,target,"[(1079, 881)]",[],[1],[0.26666666666666666],vertical,"(890.0, 762.0)",1.533333333,0.237,1,5322.226
6,58,target,"[(1095, 899)]",[],[1],[0.65],vertical,"(890.0, 762.0)",1.25,0.609,1,5326.935
6,59,target,"[(1084, 871)]",[],[1],[0.5166666666666666],horizontal,"(890.0, 762.0)",0.8,0.477,1,5331.974
6,60,target,"[(1099, 885)]",[],[1],[0.5833333333333334],vertical,"(390.0, 262.0)",0.55,0.537,1,5336.417
7,61,target,"[(1099, 860)]",[],[1],[0.6333333333333333],horizontal,"(890.0, 762.0)",0.75,0.6,1,5340.712
7,62,target,"[(1092, 879)]",[],[1],[0.48333333333333334],horizontal,"(890.0, 262.0)",0.883333333,0.45,1,5345.36
7,63,target,"[(1100, 884)]",[],[1],[0.43333333333333335],vertical,"(390.0, 262.0)",1.283333333,0.398,1,5349.468
7,64,target,"[(1082, 880)]",[],[1],[0.25],vertical,"(890.0, 762.0)",1.133333333,0.217,1,5354.618
7,65,target,"[(1071, 894)]",[],[1],[0.5333333333333333],vertical,"(390.0, 762.0)",0.583333333,0.49,1,5359.055
7,66,target,"[(1101, 895)]",[],[1],[],vertical,"(390.0, 262.0)",,cti_phase,0,5363.685
7,67,target,"[(1107, 885)]",[],[1],[0.26666666666666666],horizontal,"(890.0, 262.0)",1.666666667,0.233,1,5368.302
7,68,target,"[(1098, 880)]",[],[1],[0.5],vertical,"(890.0, 762.0)",0.833333333,0.456,1,5373.2
7,69,target,"[(1075, 877)]",[],[1],[0.5833333333333334],vertical,"(390.0, 762.0)",0.516666667,0.538,1,5378.036
7,70,target,"[(1086, 890)]",[],[1],[0.23333333333333334],horizontal,"(390.0, 262.0)",1.433333333,0.2,1,5382.682
8,71,target,"[(1075, 885)]",[],[1],[0.11666666666666667],horizontal,"(390.0, 262.0)",1.383333333,0.087,1,5393.494
8,72,target,"[(1075, 890)]",[],[1],[0.3],vertical,"(390.0, 262.0)",1.5,0.267,1,5398.269
8,73,target,"[(1071, 876)]",[],[1],[0.3333333333333333],vertical,"(390.0, 762.0)",0.833333333,0.293,1,5403.201
8,74,catch,"[(1095, 885)]",[],[1],[0.75],vertical,"(890.0, 262.0)",1.083333333,0.712,0,5407.766
8,75,target,"[(1099, 877)]",[],[1],[0.45],vertical,"(390.0, 762.0)",1.016666667,0.408,1,5413.078
8,76,target,"[(1087, 889)]",[],[1],[0.5],horizontal,"(890.0, 262.0)",1.4,0.459,1,5417.651
8,77,target,"[(1081, 882)]",[],[1],[0.6333333333333333],vertical,"(890.0, 262.0)",0.766666667,0.59,1,5422.55
8,78,target,"[(1110, 871)]",[],[1],[],vertical,"(390.0, 762.0)",,cti_phase,0,5427.001
8,79,target,"[(1109, 880)]",[],[1],[0.08333333333333333],vertical,"(890.0, 762.0)",1.283333333,0.053,1,5431.452
8,80,target,"[(1102, 908)]",[],[1],[0.5],horizontal,"(890.0, 262.0)",1.016666667,0.467,1,5436.078
9,81,target,"[(1075, 892)]",[],[1],[0.5],horizontal,"(390.0, 262.0)",0.55,0.462,1,5440.823
9,82,target,"[(1109, 886)]",[],[1],[0.43333333333333335],vertical,"(890.0, 762.0)",0.85,0.398,1,5445.335
9,83,target,"[(1099, 882)]",[],[1],[0.6],vertical,"(890.0, 262.0)",0.55,0.555,1,5450.245
9,84,catch,"[(1101, 877)]",[],[1],[0.5166666666666666],vertical,"(390.0, 762.0)",0.866666667,0.477,0,5454.345
9,85,target,"[(1101, 893)]",[],[1],[0.43333333333333335],vertical,"(390.0, 262.0)",0.916666667,0.391,1,5458.518
9,86,target,"[(1109, 885)]",[],[1],[],vertical,"(390.0, 762.0)",,cti_phase,0,5463.334
9,87,target,"[(1109, 883)]",[],[1],[0.11666666666666667],vertical,"(890.0, 262.0)",1.4,0.085,1,5468.402
9,88,target,"[(1095, 892)]",[],[1],[0.4],horizontal,"(390.0, 762.0)",1.233333333,0.358,1,5473.25
9,89,target,"[(1099, 898)]",[],[1],[0.5333333333333333],horizontal,"(890.0, 262.0)",0.516666667,0.493,1,5478.651
9,90,target,"[(1071, 875)]",[],[1],[0.23333333333333334],vertical,"(890.0, 762.0)",1.633333333,0.2,1,5482.951
10,91,target,"[(1090, 877)]",[],[1],[0.7333333333333333],vertical,"(890.0, 262.0)",1.066666667,0.697,1,5488.039
10,92,target,"[(1085, 886)]",[],[1],[0.15],horizontal,"(890.0, 762.0)",1.483333333,0.118,1,5493.112
10,93,target,"[(1085, 877)]",[],[1],[0.48333333333333334],vertical,"(890.0, 262.0)",1.25,0.441,1,5498.067
10,94,target,"[(1091, 880)]",[],[1],[0.7],vertical,"(890.0, 262.0)",0.733333333,0.653,1,5503.314
10,95,target,"[(1098, 878)]",[],[1],[0.08333333333333333],horizontal,"(390.0, 262.0)",1.55,0.049,1,5508.416
10,96,target,"[(1076, 885)]",[],[1],[0.7],vertical,"(890.0, 762.0)",1.116666667,0.664,1,5513.232
10,97,target,"[(1095, 879)]",[],[1],[0.16666666666666666],vertical,"(890.0, 762.0)",1.6,0.134,1,5518.26
10,98,target,"[(1086, 898)]",[],[1],[0.7166666666666667],horizontal,"(390.0, 262.0)",0.95,0.681,1,5522.92
10,99,target,"[(1088, 880)]",[],[1],[0.5],horizontal,"(390.0, 262.0)",0.766666667,0.467,1,5527.722
10,100,target,"[(1066, 882)]",[],[1],[0.35],horizontal,"(390.0, 262.0)",0.833333333,0.31,1,5532.519
11,101,target,"[(1080, 896)]",[],[1],[0.5166666666666666],vertical,"(890.0, 262.0)",1.016666667,0.482,1,5537.03
11,102,target,"[(1073, 881)]",[],[1],[0.5],vertical,"(890.0, 262.0)",0.983333333,0.459,1,5541.835
11,103,target,"[(1100, 882)]",[],[1],[0.3333333333333333],vertical,"(890.0, 762.0)",0.966666667,0.293,1,5546.54
11,104,catch,"[(1070, 879)]",[],[1],[0.55],vertical,"(390.0, 262.0)",1.166666667,0.515,0,5551.052
11,105,target,"[(1087, 878)]",[],[1],[0.5666666666666667],horizontal,"(390.0, 262.0)",0.8,0.527,1,5556.002
11,106,target,"[(1106, 914)]",[],[1],[0.05],horizontal,"(890.0, 262.0)",1.5,0.018,1,5560.04
11,107,target,"[(1078, 882)]",[],[1],[0.48333333333333334],vertical,"(890.0, 262.0)",1.116666667,0.441,1,5564.569
11,108,target,"[(1100, 880)]",[],[1],[0.23333333333333334],vertical,"(890.0, 762.0)",1.383333333,0.199,1,5569.32
11,109,target,"[(1090, 876)]",[],[1],[],horizontal,"(890.0, 262.0)",,cti_phase,0,5573.756
11,110,target,"[(1100, 882)]",[],[1],[],vertical,"(390.0, 762.0)",,cti_phase,0,5578.645
12,111,target,"[(1104, 883)]",[],[1],[0.85],vertical,"(890.0, 262.0)",0.95,nan,0,5583.152
12,112,target,"[(1100, 889)]",[],[1],[0.5166666666666666],vertical,"(890.0, 262.0)",1.05,0.481,1,5587.738
12,113,target,"[(1118, 891)]",[],[1],[],vertical,"(390.0, 262.0)",,cti_phase,0,5592.153
12,114,target,"[(1101, 884)]",[],[1],[0.6666666666666666],vertical,"(390.0, 762.0)",0.8,0.62,1,5596.967
12,115,target,"[(1086, 885)]",[],[1],[0.6166666666666667],horizontal,"(890.0, 262.0)",0.916666667,0.574,1,5601.4
12,116,target,"[(1075, 888)]",[],[1],[0.55],vertical,"(390.0, 762.0)",0.933333333,0.51,1,5614.483
12,117,target,"[(1097, 893)]",[],[1],[],horizontal,"(390.0, 262.0)",,cti_phase,0,5618.903
12,118,target,"[(1085, 883)]",[],[1],[0.5333333333333333],horizontal,"(890.0, 762.0)",0.833333333,0.489,1,5623.182
12,119,target,"[(1107, 912)]",[],[1],[0.48333333333333334],vertical,"(890.0, 262.0)",0.716666667,0.449,1,5627.873
12,120,target,"[(1095, 884)]",[],[1],[0.5166666666666666],horizontal,"(890.0, 762.0)",0.666666667,0.475,1,5632.235
13,121,target,"[(1084, 889)]",[],[1],[0.3833333333333333],vertical,"(390.0, 262.0)",1.216666667,0.343,1,5636.27
13,122,target,"[(1064, 880)]",[],[1],[0.43333333333333335],horizontal,"(390.0, 262.0)",1.216666667,0.395,1,5641.102
13,123,target,"[(1087, 866)]",[],[1],[0.5666666666666667],horizontal,"(390.0, 262.0)",0.583333333,0.528,1,5645.835
13,124,target,"[(1089, 896)]",[],[1],[0.45],vertical,"(890.0, 762.0)",1.25,0.411,1,5650.318
13,125,target,"[(1052, 876)]",[],[1],[0.5333333333333333],vertical,"(890.0, 262.0)",1.15,0.49,1,5654.995
13,126,target,"[(1090, 871)]",[],[1],[0.5833333333333334],horizontal,"(890.0, 762.0)",0.766666667,0.542,1,5660.302
13,127,target,"[(1071, 890)]",[],[1],[0.45],horizontal,"(890.0, 262.0)",1.466666667,0.409,1,5664.581
13,128,target,"[(1090, 883)]",[],[1],[0.21666666666666667],horizontal,"(390.0, 262.0)",1.333333333,0.184,1,5669.462
13,129,catch,"[(1075, 887)]",[],[1],[],horizontal,"(890.0, 762.0)",,cti_phase,0,5674.184
13,130,catch,"[(1088, 875)]",[],[1],[0.7],horizontal,"(890.0, 262.0)",1.25,0.659,0,5679.021
14,131,target,"[(1079, 872)]",[],[1],[0.3833333333333333],horizontal,"(390.0, 262.0)",1.4,0.342,1,5684.434
14,132,target,"[(1076, 898)]",[],[1],[0.55],vertical,"(890.0, 762.0)",0.5,0.507,1,5691.219
14,133,target,"[(1075, 894)]",[],[1],[0.5333333333333333],horizontal,"(890.0, 762.0)",0.533333333,0.5,1,5695.552
14,134,target,"[(1090, 898)]",[],[1],[0.85],horizontal,"(890.0, 262.0)",1.166666667,"cti_phase,nan",0,5699.285
14,135,target,"[(1081, 881)]",[],[1],[0.85],horizontal,"(890.0, 262.0)",0.5,nan,0,5704.185
14,136,target,"[(1090, 884)]",[],[1],[0.3],horizontal,"(890.0, 262.0)",1.116666667,0.265,1,5708.488
14,137,target,"[(1085, 884)]",[],[1],[0.48333333333333334],vertical,"(890.0, 762.0)",0.766666667,0.438,1,5713.051
14,138,target,"[(1090, 906)]",[],[1],[0.48333333333333334],vertical,"(390.0, 762.0)",0.85,0.44,1,5717.546
14,139,target,"[(1073, 904)]",[],[1],[0.5333333333333333],vertical,"(890.0, 262.0)",1.183333333,0.493,1,5721.86
14,140,target,"[(1071, 905)]",[],[1],[0.6333333333333333],horizontal,"(890.0, 762.0)",0.733333333,0.599,1,5726.551
15,141,target,"[(1075, 886)]",[],[1],[0.6],vertical,"(890.0, 762.0)",0.716666667,0.564,1,5731.151
15,142,target,"[(1071, 903)]",[],[1],[0.21666666666666667],horizontal,"(390.0, 262.0)",1.15,0.18,1,5735.354
15,143,target,"[(1075, 886)]",[],[1],[0.5666666666666667],horizontal,"(890.0, 762.0)",0.783333333,0.523,1,5739.987
15,144,target,"[(1076, 906)]",[],[1],[],horizontal,"(890.0, 762.0)",,cti_phase,0,5745.019
15,145,target,"[(1085, 871)]",[],[1],[0.5666666666666667],vertical,"(390.0, 262.0)",0.716666667,0.523,1,5749.686
15,146,target,"[(1085, 870)]",[],[1],[0.48333333333333334],horizontal,"(390.0, 262.0)",0.95,0.444,1,5754.119
15,147,target,"[(1082, 910)]",[],[1],[0.21666666666666667],horizontal,"(890.0, 262.0)",1.616666667,0.185,1,5758.67
15,148,catch,"[(1082, 896)]",[],[1],[0.85],horizontal,"(890.0, 762.0)",0.516666667,nan,1,5763.652
15,149,target,"[(1072, 884)]",[],[1],[0.6],horizontal,"(390.0, 262.0)",0.933333333,0.555,1,5768.05
15,150,target,"[(1104, 893)]",[],[1],[0.4666666666666667],vertical,"(390.0, 262.0)",1.05,0.425,1,5772.636
16,151,target,"[(1100, 895)]",[],[1],[0.6166666666666667],horizontal,"(890.0, 262.0)",0.6,0.577,1,5777.255
16,152,target,"[(1078, 882)]",[],[1],[0.5666666666666667],vertical,"(390.0, 262.0)",1.283333333,0.523,1,5781.401
16,153,target,"[(1066, 861)]",[],[1],[],horizontal,"(390.0, 262.0)",,cti_phase,0,5786.38
16,154,target,"[(1077, 895)]",[],[1],[0.5333333333333333],horizontal,"(890.0, 262.0)",0.733333333,0.494,1,5791.368
16,155,target,"[(1076, 866)]",[],[1],[0.6666666666666666],vertical,"(390.0, 262.0)",1.066666667,0.625,1,5795.554
16,156,target,"[(1079, 890)]",[],[1],[0.5166666666666666],vertical,"(390.0, 762.0)",0.9,0.481,1,5800.244
16,157,target,"[(1083, 894)]",[],[1],[0.48333333333333334],vertical,"(390.0, 762.0)",0.85,0.444,1,5804.66
16,158,target,"[(1077, 884)]",[],[1],[0.5166666666666666],vertical,"(890.0, 262.0)",1.516666667,0.476,1,5809.334
16,159,target,"[(1066, 902)]",[],[1],[0.5666666666666667],horizontal,"(890.0, 762.0)",0.783333333,0.526,1,5814.669
16,160,target,"[(1096, 899)]",[],[1],[],horizontal,"(890.0, 762.0)",,cti_phase,0,5819.459
17,161,target,"[(1078, 880)]",[],[1],[0.5666666666666667],horizontal,"(890.0, 262.0)",0.666666667,0.524,1,5824.505
17,162,target,"[(1071, 895)]",[],[1],[0.5],horizontal,"(390.0, 762.0)",0.733333333,0.46,1,5828.72
17,163,target,"[(1066, 885)]",[],[1],[0.5166666666666666],vertical,"(390.0, 762.0)",0.766666667,0.475,1,5833.505
17,164,target,"[(1075, 879)]",[],[1],[0.5666666666666667],horizontal,"(890.0, 262.0)",0.75,0.524,1,5837.717
17,165,target,"[(1085, 884)]",[],[1],[],horizontal,"(390.0, 762.0)",,cti_phase,0,5842.086
17,166,target,"[(1071, 890)]",[],[1],[0.3333333333333333],horizontal,"(390.0, 762.0)",1.016666667,0.299,1,5845.995
17,167,target,"[(1071, 884)]",[],[1],[0.4666666666666667],vertical,"(890.0, 262.0)",1.433333333,0.427,1,5850.112
17,168,target,"[(1088, 891)]",[],[1],[0.5],vertical,"(890.0, 762.0)",1.083333333,0.457,1,5855.326
17,169,target,"[(1066, 869)]",[],[1],[0.5166666666666666],horizontal,"(390.0, 262.0)",0.633333333,0.474,1,5860.094
17,170,target,"[(1075, 890)]",[],[1],[0.5333333333333333],horizontal,"(890.0, 262.0)",1,0.493,1,5864.334
18,171,target,"[(1099, 889)]",[],[1],[0.36666666666666664],vertical,"(390.0, 262.0)",1.316666667,0.33,1,5868.7
18,172,target,"[(1075, 893)]",[],[1],[],vertical,"(390.0, 762.0)",,cti_phase,0,5873.361
18,173,target,"[(1068, 896)]",[],[1],[0.25],vertical,"(890.0, 762.0)",1.466666667,0.217,1,5878.486
18,174,target,"[(1073, 888)]",[],[1],[0.55],vertical,"(390.0, 262.0)",0.716666667,0.509,1,5883.135
18,175,target,"[(1081, 889)]",[],[1],[0.5333333333333333],vertical,"(890.0, 762.0)",0.816666667,0.495,1,5887.867
18,176,target,"[(1071, 904)]",[],[1],[0.36666666666666664],vertical,"(390.0, 262.0)",1.35,0.33,1,5892.078
18,177,target,"[(1071, 887)]",[],[1],[0.5],vertical,"(890.0, 262.0)",1.516666667,0.46,1,5896.918
18,178,target,"[(1071, 890)]",[],[1],[0.6166666666666667],horizontal,"(390.0, 762.0)",0.866666667,0.575,1,5902.054
18,179,target,"[(1093, 882)]",[],[1],[0.5166666666666666],horizontal,"(890.0, 262.0)",1.416666667,0.48,1,5906.968
18,180,target,"[(1069, 890)]",[],[1],[0.11666666666666667],vertical,"(890.0, 762.0)",1.533333333,0.083,1,5911.538
19,181,target,"[(1071, 905)]",[],[1],[0.3],horizontal,"(390.0, 762.0)",1.45,0.264,1,5916.502
19,182,target,"[(1086, 879)]",[],[1],[0.18333333333333332],vertical,"(390.0, 262.0)",1.666666667,0.148,1,5921.485
19,183,target,"[(1085, 894)]",[],[1],[0.2],horizontal,"(390.0, 762.0)",1.25,0.164,1,5926.692
19,184,target,"[(1074, 897)]",[],[1],[0.7166666666666667],horizontal,"(890.0, 262.0)",0.783333333,0.68,1,5931.592
19,185,target,"[(1097, 910)]",[],[1],[0.5166666666666666],vertical,"(890.0, 762.0)",1.083333333,0.475,1,5936.619
19,186,target,"[(1102, 898)]",[],[1],[0.45],vertical,"(390.0, 262.0)",1.516666667,0.41,1,5941.42
19,187,target,"[(1083, 879)]",[],[1],[],horizontal,"(390.0, 762.0)",,cti_phase,0,5946.437
19,188,target,"[(1079, 887)]",[],[1],[0.48333333333333334],horizontal,"(390.0, 762.0)",0.6,0.446,1,5950.77
19,189,target,"[(1119, 878)]",[],[1],[0.6333333333333333],vertical,"(390.0, 262.0)",0.516666667,0.591,1,5955.118
19,190,target,"[(1086, 897)]",[],[1],[0.48333333333333334],horizontal,"(890.0, 262.0)",1.15,0.443,1,5959.087
20,191,target,"[(1094, 894)]",[],[1],[0.5666666666666667],horizontal,"(390.0, 762.0)",0.6,0.526,1,5964.136
20,192,target,"[(1090, 890)]",[],[1],[0.4666666666666667],horizontal,"(890.0, 762.0)",1.183333333,0.428,1,5968.353
20,193,target,"[(1079, 893)]",[],[1],[0.5166666666666666],horizontal,"(890.0, 762.0)",0.816666667,0.481,1,5972.836
20,194,target,"[(1075, 895)]",[],[1],[0.3333333333333333],vertical,"(390.0, 262.0)",1.533333333,0.299,1,5977.472
20,195,target,"[(1075, 893)]",[],[1],[0.3333333333333333],vertical,"(390.0, 262.0)",1.416666667,0.293,1,5982.469
20,196,target,"[(1072, 901)]",[],[1],[0.5],vertical,"(390.0, 262.0)",1.2,0.456,1,5986.981
20,197,target,"[(1066, 876)]",[],[1],[0.55],horizontal,"(390.0, 262.0)",0.666666667,0.507,1,5991.657
20,198,target,"[(1085, 904)]",[],[1],[0.5333333333333333],vertical,"(390.0, 262.0)",0.55,0.491,1,5995.936
20,199,target,"[(1075, 893)]",[],[1],[0.7],horizontal,"(890.0, 262.0)",0.5,0.663,1,5999.954
20,200,target,"[(1071, 905)]",[],[1],[0.11666666666666667],vertical,"(890.0, 762.0)",1.466666667,0.086,1,6004.445
21,201,target,"[(1080, 909)]",[],[1],[0.7],horizontal,"(390.0, 762.0)",0.716666667,0.655,1,6009.748
21,202,target,"[(1085, 892)]",[],[1],[0.5833333333333334],vertical,"(890.0, 262.0)",1.1,0.538,1,6014.003
21,203,target,"[(1074, 894)]",[],[1],[0.05],horizontal,"(390.0, 262.0)",1.433333333,0.019,1,6018.772
21,204,target,"[(1091, 889)]",[],[1],[0.48333333333333334],vertical,"(390.0, 762.0)",1.45,0.449,1,6023.435
21,205,target,"[(1081, 894)]",[],[1],[0.6166666666666667],vertical,"(390.0, 262.0)",0.766666667,0.573,1,6028.252
21,206,target,"[(1078, 887)]",[],[1],[0.45],horizontal,"(390.0, 762.0)",1.133333333,0.409,1,6032.971
21,207,target,"[(1090, 885)]",[],[1],[0.7],horizontal,"(890.0, 262.0)",0.883333333,0.659,1,6037.669
21,208,target,"[(1075, 885)]",[],[1],[0.5],vertical,"(890.0, 762.0)",1.016666667,0.459,1,6042.151
21,209,target,"[(1078, 887)]",[],[1],[0.55],vertical,"(890.0, 762.0)",1.266666667,0.509,1,6046.771
21,210,target,"[(1072, 891)]",[],[1],[],horizontal,"(390.0, 762.0)",,cti_phase,0,6051.396
22,211,target,"[(1077, 889)]",[],[1],[0.5833333333333334],vertical,"(390.0, 762.0)",0.65,0.543,1,6055.454
22,212,target,"[(1070, 890)]",[],[1],[0.23333333333333334],vertical,"(890.0, 762.0)",1.4,0.202,1,6059.648
22,213,target,"[(1074, 881)]",[],[1],[0.5333333333333333],vertical,"(890.0, 262.0)",1.1,0.508,1,6064.323
22,214,target,"[(1078, 883)]",[],[1],[0.5166666666666666],horizontal,"(890.0, 262.0)",0.8,0.478,1,6069.271
22,215,target,"[(1071, 898)]",[],[1],[0.85],horizontal,"(890.0, 762.0)",1.633333333,"cti_phase,nan",0,6073.716
22,216,target,"[(1100, 882)]",[],[1],[0.5833333333333334],horizontal,"(390.0, 762.0)",0.7,0.549,1,6079.687
22,217,target,"[(1095, 890)]",[],[1],[0.25],horizontal,"(890.0, 762.0)",1.066666667,0.219,1,6084.251
22,218,target,"[(1066, 899)]",[],[1],[0.2833333333333333],horizontal,"(390.0, 262.0)",1.516666667,0.247,1,6088.987
22,219,target,"[(1079, 880)]",[],[1],[0.05],horizontal,"(390.0, 262.0)",1.383333333,0.02,1,6093.978
22,220,catch,"[(1082, 876)]",[],[1],[0.48333333333333334],vertical,"(390.0, 762.0)",1.116666667,0.444,0,6098.509
23,221,target,"[(1088, 876)]",[],[1],[0.4166666666666667],horizontal,"(890.0, 262.0)",1.266666667,0.385,1,6103.303
23,222,target,"[(1085, 877)]",[],[1],[0.5],vertical,"(890.0, 262.0)",1.183333333,0.459,1,6108.121
23,223,target,"[(1066, 885)]",[],[1],[0.5333333333333333],horizontal,"(390.0, 762.0)",1.633333333,0.491,1,6113.269
23,224,target,"[(1071, 893)]",[],[1],[0.85],horizontal,"(390.0, 262.0)",0.683333333,nan,0,6118.117
23,225,target,"[(1070, 876)]",[],[1],[0.7166666666666667],horizontal,"(390.0, 762.0)",0.8,0.676,1,6122.845
23,226,target,"[(1066, 898)]",[],[1],[0.55],vertical,"(890.0, 762.0)",0.616666667,0.518,1,6127.669
23,227,target,"[(1071, 886)]",[],[1],[0.55],vertical,"(390.0, 762.0)",0.8,0.513,1,6132.237
23,228,target,"[(1095, 897)]",[],[1],[],horizontal,"(890.0, 762.0)",,cti_phase,0,6137.154
23,229,target,"[(1052, 900)]",[],[1],[0.2833333333333333],horizontal,"(390.0, 762.0)",1.116666667,0.249,1,6141.486
23,230,target,"[(1057, 911)]",[],[1],[0.85],horizontal,"(890.0, 262.0)",1.483333333,nan,0,6210.621
24,231,target,"[(1073, 903)]",[],[1],[0.85],horizontal,"(890.0, 262.0)",0.683333333,nan,0,6216.336
24,232,target,"[(1052, 880)]",[],[1],[0.5833333333333334],vertical,"(890.0, 262.0)",0.733333333,0.544,1,6220.795
24,233,target,"[(1094, 905)]",[],[1],[0.5166666666666666],horizontal,"(390.0, 762.0)",1.133333333,0.472,1,6228.538
24,234,target,"[(1063, 892)]",[],[1],[0.85],vertical,"(890.0, 262.0)",0.666666667,nan,0,6233.337
24,235,target,"[(1052, 890)]",[],[1],[0.5],vertical,"(890.0, 262.0)",1.466666667,0.457,1,6237.692
24,236,target,"[(1085, 893)]",[],[1],[0.85],horizontal,"(890.0, 762.0)",1.033333333,nan,0,6242.519
24,237,target,"[(1091, 886)]",[],[1],[0.5666666666666667],horizontal,"(890.0, 762.0)",0.683333333,0.523,1,6247.433
24,238,target,"[(1085, 882)]",[],[1],[0.6],vertical,"(390.0, 262.0)",0.666666667,0.561,1,6251.743
24,239,target,"[(1081, 901)]",[],[1],[0.26666666666666666],vertical,"(390.0, 762.0)",1.633333333,0.23,1,6256.1
24,240,target,"[(1100, 893)]",[],[1],[0.5333333333333333],horizontal,"(390.0, 762.0)",0.9,0.495,1,6260.775
25,241,target,"[(1085, 891)]",[],[1],[0.55],vertical,"(390.0, 262.0)",0.666666667,0.507,1,6265.119
25,242,target,"[(1083, 870)]",[],[1],[0.5],horizontal,"(890.0, 262.0)",1.1,0.461,1,6269.766
25,243,target,"[(1099, 890)]",[],[1],[],horizontal,"(390.0, 762.0)",,cti_phase,0,6274.452
25,244,target,"[(1075, 876)]",[],[1],[0.5333333333333333],vertical,"(390.0, 262.0)",1.35,0.491,1,6279.126
25,245,target,"[(1081, 883)]",[],[1],[0.55],vertical,"(390.0, 762.0)",0.55,0.507,1,6284
25,246,target,"[(1081, 889)]",[],[1],[0.5],horizontal,"(390.0, 762.0)",1.083333333,0.462,1,6288.335
25,247,target,"[(1070, 905)]",[],[1],[0.5],horizontal,"(390.0, 262.0)",1.4,0.46,1,6293.219
25,248,target,"[(1090, 890)]",[],[1],[0.48333333333333334],vertical,"(390.0, 262.0)",0.966666667,0.443,1,6298.12
25,249,target,"[(1083, 871)]",[],[1],[0.55],horizontal,"(390.0, 262.0)",0.65,0.51,1,6302.652
25,250,target,"[(1090, 889)]",[],[1],[0.5666666666666667],vertical,"(390.0, 762.0)",0.65,0.522,1,6306.882
26,251,target,"[(1083, 899)]",[],[1],[0.5],horizontal,"(390.0, 262.0)",1.083333333,0.463,1,6311.403
26,252,target,"[(1083, 895)]",[],[1],[0.5166666666666666],horizontal,"(890.0, 262.0)",1.1,0.484,1,6315.907
26,253,target,"[(1081, 885)]",[],[1],[0.55],horizontal,"(890.0, 262.0)",0.65,0.505,1,6320.868
26,254,target,"[(1083, 890)]",[],[1],[0.55],horizontal,"(390.0, 262.0)",1,0.508,1,6324.758
26,255,target,"[(1083, 890)]",[],[1],[0.85],vertical,"(890.0, 762.0)",0.583333333,nan,0,6329.404
26,256,target,"[(1074, 903)]",[],[1],[0.5333333333333333],horizontal,"(390.0, 262.0)",1.05,0.487,1,6333.837
26,257,target,"[(1093, 886)]",[],[1],[],vertical,"(890.0, 762.0)",,cti_phase,0,6344.31
26,258,target,"[(1080, 882)]",[],[1],[0.2],vertical,"(890.0, 762.0)",1.55,0.166,1,6349.236
26,259,target,"[(1071, 877)]",[],[1],[0.6166666666666667],vertical,"(890.0, 262.0)",0.933333333,0.575,1,6354.294
26,260,target,"[(1085, 898)]",[],[1],[0.35],horizontal,"(890.0, 262.0)",1.383333333,0.309,1,6358.608
27,261,target,"[(1085, 892)]",[],[1],[0.06666666666666667],horizontal,"(390.0, 762.0)",1.666666667,0.036,1,6363.547
27,262,target,"[(1070, 884)]",[],[1],[0.45],horizontal,"(890.0, 762.0)",1.133333333,0.41,1,6368.203
27,263,target,"[(1066, 898)]",[],[1],[0.5833333333333334],vertical,"(890.0, 762.0)",0.7,0.537,1,6372.912
27,264,target,"[(1093, 876)]",[],[1],[0.18333333333333332],horizontal,"(890.0, 762.0)",1.55,0.148,1,6377.226
27,265,target,"[(1097, 901)]",[],[1],[0.05],horizontal,"(890.0, 262.0)",1.6,0.02,1,6381.819
27,266,catch,"[(1088, 873)]",[],[1],[0.85],horizontal,"(390.0, 762.0)",0.816666667,nan,1,6386.554
27,267,target,"[(1087, 862)]",[],[1],[0.1],horizontal,"(390.0, 262.0)",1.55,0.069,1,6391.871
27,268,target,"[(1085, 880)]",[],[1],[0.55],horizontal,"(390.0, 262.0)",0.766666667,0.507,1,6396.737
27,269,target,"[(1091, 880)]",[],[1],[0.6166666666666667],vertical,"(390.0, 262.0)",0.916666667,0.576,1,6401.262
27,270,target,"[(1059, 884)]",[],[1],[0.5166666666666666],vertical,"(890.0, 762.0)",1.15,0.476,1,6405.699
28,271,target,"[(1071, 872)]",[],[1],[0.48333333333333334],vertical,"(890.0, 762.0)",1.05,0.446,1,6410.813
28,272,target,"[(1071, 893)]",[],[1],[0.5333333333333333],horizontal,"(890.0, 262.0)",1.433333333,0.49,1,6415.987
28,273,target,"[(1083, 884)]",[],[1],[0.5833333333333334],vertical,"(390.0, 262.0)",0.8,0.537,1,6420.845
28,274,catch,"[(1087, 883)]",[],[1],[0.3333333333333333],vertical,"(890.0, 762.0)",1.233333333,0.306,0,6425.077
28,275,target,"[(1100, 880)]",[],[1],[0.55],horizontal,"(890.0, 262.0)",0.916666667,0.506,1,6429.638
28,276,target,"[(1095, 893)]",[],[1],[],horizontal,"(390.0, 262.0)",,cti_phase,0,6433.704
28,277,target,"[(1109, 882)]",[],[1],[0.5333333333333333],horizontal,"(390.0, 262.0)",1.066666667,0.492,1,6438.272
28,278,target,"[(1095, 890)]",[],[1],[0.48333333333333334],vertical,"(890.0, 762.0)",1.45,0.45,1,6442.653
28,279,target,"[(1071, 879)]",[],[1],[0.5333333333333333],horizontal,"(890.0, 762.0)",0.933333333,0.493,1,6447.669
28,280,target,"[(1090, 879)]",[],[1],[0.5333333333333333],horizontal,"(890.0, 262.0)",0.616666667,0.495,1,6451.983
29,281,target,"[(1092, 874)]",[],[1],[0.23333333333333334],vertical,"(890.0, 762.0)",1.05,0.198,1,6456.192
29,282,target,"[(1095, 898)]",[],[1],[0.16666666666666666],vertical,"(890.0, 762.0)",1.383333333,0.134,1,6460.866
29,283,target,"[(1074, 876)]",[],[1],[0.4166666666666667],horizontal,"(890.0, 762.0)",1.55,0.378,1,6465.648
29,284,target,"[(1071, 889)]",[],[1],[0.5666666666666667],horizontal,"(890.0, 762.0)",0.833333333,0.524,1,6470.845
29,285,target,"[(1074, 889)]",[],[1],[0.13333333333333333],vertical,"(390.0, 762.0)",0.983333333,0.103,1,6475.37
29,286,target,"[(1077, 875)]",[],[1],[0.1],horizontal,"(390.0, 762.0)",1.633333333,0.067,1,6479.709
29,287,target,"[(1069, 876)]",[],[1],[0.48333333333333334],horizontal,"(890.0, 262.0)",1.016666667,0.451,1,6484.665
29,288,target,"[(1095, 885)]",[],[1],[0.5833333333333334],horizontal,"(390.0, 762.0)",0.683333333,0.546,1,6489.138
29,289,catch,"[(1089, 894)]",[],[1],[0.7833333333333333],horizontal,"(890.0, 762.0)",1.35,0.735,0,6493.689
29,290,target,"[(1067, 912)]",[],[1],[0.85],horizontal,"(390.0, 762.0)",0.633333333,nan,0,6498.744
30,291,target,"[(1096, 901)]",[],[1],[0.45],vertical,"(390.0, 262.0)",1.583333333,0.416,1,8504.54
30,292,target,"[(1085, 885)]",[],[1],[0.7333333333333333],vertical,"(390.0, 262.0)",1.016666667,0.692,1,8628.778
30,293,target,"[(1075, 896)]",[],[1],[0.55],horizontal,"(890.0, 262.0)",1.6,0.509,1,8633.961
30,294,target,"[(1071, 903)]",[],[1],[0.6166666666666667],horizontal,"(390.0, 262.0)",1.033333333,0.575,1,8639.229
30,295,target,"[(1077, 924)]",[],[1],[0.5666666666666667],vertical,"(390.0, 262.0)",0.883333333,0.533,1,8644.214
30,296,target,"[(1091, 898)]",[],[1],[0.43333333333333335],horizontal,"(390.0, 262.0)",1.066666667,0.399,1,8649.11
30,297,target,"[(1066, 899)]",[],[1],[],horizontal,"(390.0, 262.0)",,cti_phase,0,8653.938
30,298,target,"[(1084, 884)]",[],[1],[0.6],horizontal,"(890.0, 762.0)",0.75,0.555,1,8658.26
30,299,target,"[(1073, 918)]",[],[1],[0.5],vertical,"(890.0, 762.0)",1.316666667,0.461,1,8662.728
30,300,target,"[(1066, 896)]",[],[1],[0.3833333333333333],vertical,"(890.0, 762.0)",1.366666667,0.346,1,8667.89
31,301,target,"[(1077, 901)]",[],[1],[0.6833333333333333],vertical,"(890.0, 762.0)",0.6,0.637,1,8672.943
31,302,target,"[(1093, 901)]",[],[1],[0.7166666666666667],horizontal,"(890.0, 262.0)",1,0.682,1,8677.709
31,303,target,"[(1090, 897)]",[],[1],[0.48333333333333334],vertical,"(890.0, 262.0)",1.033333333,0.444,1,8682.979
31,304,target,"[(1089, 903)]",[],[1],[0.5],vertical,"(890.0, 762.0)",1.616666667,0.459,1,8687.81
31,305,target,"[(1063, 910)]",[],[1],[0.48333333333333334],horizontal,"(890.0, 262.0)",1.183333333,0.439,1,8693.198
31,306,target,"[(1081, 909)]",[],[1],[0.5666666666666667],horizontal,"(890.0, 762.0)",0.85,0.524,1,8697.971
31,307,target,"[(1060, 896)]",[],[1],[],horizontal,"(390.0, 262.0)",,cti_phase,0,8702.361
31,308,target,"[(1085, 905)]",[],[1],[0.5166666666666666],vertical,"(390.0, 262.0)",1.366666667,0.474,1,8707.443
31,309,target,"[(1093, 888)]",[],[1],[0.5],vertical,"(390.0, 262.0)",0.7,0.46,1,8712.225
31,310,target,"[(1071, 920)]",[],[1],[0.6333333333333333],vertical,"(390.0, 262.0)",0.55,0.592,1,8717.144
32,311,target,"[(1077, 905)]",[],[1],[0.4],vertical,"(390.0, 262.0)",1.266666667,0.361,1,8721.039
32,312,target,"[(1090, 917)]",[],[1],[],horizontal,"(390.0, 762.0)",,cti_phase,0,8725.85
32,313,target,"[(1076, 909)]",[],[1],[0.5333333333333333],horizontal,"(390.0, 762.0)",0.933333333,0.492,1,8730.172
32,314,target,"[(1056, 905)]",[],[1],[0.48333333333333334],horizontal,"(890.0, 262.0)",1.35,0.445,1,8735.151
32,315,target,"[(1094, 901)]",[],[1],[0.48333333333333334],horizontal,"(890.0, 762.0)",1.1,0.446,1,8740.444
32,316,target,"[(1071, 895)]",[],[1],[0.3],horizontal,"(890.0, 762.0)",1.65,0.267,1,8745.552
32,317,target,"[(1085, 905)]",[],[1],[0.7166666666666667],horizontal,"(890.0, 262.0)",0.883333333,0.674,1,8750.89
32,318,target,"[(1077, 909)]",[],[1],[0.2833333333333333],horizontal,"(390.0, 762.0)",1.566666667,0.25,1,8756.094
32,319,target,"[(1051, 925)]",[],[1],[0.5166666666666666],horizontal,"(890.0, 262.0)",1.583333333,0.478,1,8761.561
32,320,target,"[(1075, 899)]",[],[1],[0.6],vertical,"(890.0, 762.0)",1.1,0.559,1,8766.728
33,321,target,"[(1056, 905)]",[],[1],[0.5833333333333334],horizontal,"(390.0, 762.0)",0.516666667,0.535,1,8771.37
33,322,target,"[(1090, 919)]",[],[1],[0.5833333333333334],horizontal,"(390.0, 762.0)",0.5,0.546,1,8775.55
33,323,target,"[(1105, 903)]",[],[1],[0.4166666666666667],horizontal,"(890.0, 762.0)",1.616666667,0.378,1,8779.732
33,324,target,"[(1085, 882)]",[],[1],[0.25],vertical,"(390.0, 762.0)",1.6,0.215,1,8785.207
33,325,target,"[(1082, 901)]",[],[1],[0.5666666666666667],horizontal,"(890.0, 262.0)",1,0.524,1,8790.243
33,326,target,"[(1094, 898)]",[],[1],[0.5666666666666667],vertical,"(390.0, 262.0)",0.85,0.525,1,8795.108
33,327,target,"[(1056, 879)]",[],[1],[0.5166666666666666],vertical,"(890.0, 762.0)",1.216666667,0.482,1,8800.412
33,328,target,"[(1066, 907)]",[],[1],[0.5166666666666666],horizontal,"(890.0, 262.0)",1.4,0.472,1,8805.478
33,329,target,"[(1066, 891)]",[],[1],[0.5666666666666667],horizontal,"(390.0, 262.0)",0.616666667,0.522,1,8810.843
33,330,target,"[(1071, 919)]",[],[1],[0.4],horizontal,"(890.0, 762.0)",1.666666667,0.364,1,8815.66
34,331,target,"[(1066, 885)]",[],[1],[0.5833333333333334],horizontal,"(890.0, 762.0)",0.7,0.544,1,8820.583
34,332,target,"[(1073, 890)]",[],[1],[0.6166666666666667],horizontal,"(390.0, 762.0)",0.633333333,0.585,1,8825.052
34,333,target,"[(1051, 909)]",[],[1],[0.4166666666666667],horizontal,"(390.0, 762.0)",1.416666667,0.379,1,8829.544
34,334,target,"[(1095, 888)]",[],[1],[],vertical,"(390.0, 262.0)",,cti_phase,0,8834.527
34,335,target,"[(1057, 897)]",[],[1],[0.5833333333333334],horizontal,"(890.0, 262.0)",0.95,0.537,1,8839.535
34,336,target,"[(1077, 890)]",[],[1],[],horizontal,"(890.0, 262.0)",,cti_phase,0,8846.405
34,337,target,"[(1095, 898)]",[],[1],[0.3833333333333333],horizontal,"(890.0, 762.0)",1.65,0.35,1,8851.178
34,338,target,"[(1095, 902)]",[],[1],[0.55],horizontal,"(390.0, 262.0)",1.35,0.51,1,8856.292
34,339,target,"[(1051, 894)]",[],[1],[0.5333333333333333],vertical,"(390.0, 262.0)",1.066666667,0.492,1,8861.19
34,340,target,"[(1058, 921)]",[],[1],[0.6833333333333333],horizontal,"(890.0, 762.0)",0.933333333,0.643,1,8865.579
35,341,target,"[(1091, 920)]",[],[1],[0.43333333333333335],horizontal,"(390.0, 262.0)",1.333333333,0.393,1,8870.481
35,342,target,"[(1077, 890)]",[],[1],[0.23333333333333334],vertical,"(390.0, 262.0)",1.266666667,0.202,1,8875.226
35,343,target,"[(1071, 906)]",[],[1],[0.5333333333333333],horizontal,"(390.0, 262.0)",0.883333333,0.496,1,8880.329
35,344,catch,"[(1098, 917)]",[],[1],[0.2],vertical,"(390.0, 762.0)",1.566666667,0.166,0,8884.677
35,345,target,"[(1092, 888)]",[],[1],[0.45],horizontal,"(890.0, 762.0)",1.466666667,0.411,1,8889.629
35,346,target,"[(1075, 909)]",[],[1],[0.26666666666666666],vertical,"(390.0, 262.0)",1.65,0.23,1,8894.961
35,347,target,"[(1095, 890)]",[],[1],[0.5833333333333334],vertical,"(890.0, 762.0)",0.816666667,0.54,1,8899.63
35,348,catch,"[(1075, 888)]",[],[1],[0.85],horizontal,"(890.0, 762.0)",1.466666667,nan,1,8904.545
35,349,target,"[(1063, 909)]",[],[1],[0.5166666666666666],vertical,"(390.0, 762.0)",1.433333333,0.475,1,8910.146
35,350,target,"[(1066, 896)]",[],[1],[0.6166666666666667],horizontal,"(890.0, 262.0)",0.6,0.576,1,8915.762
36,351,target,"[(1095, 874)]",[],[1],[0.5333333333333333],vertical,"(890.0, 262.0)",1.1,0.494,1,8920.339
36,352,target,"[(1095, 905)]",[],[1],[0.55],horizontal,"(390.0, 762.0)",1.033333333,0.508,1,8960.203
36,353,target,"[(1071, 898)]",[],[1],[0.5333333333333333],horizontal,"(890.0, 762.0)",1.35,0.491,1,8964.993
36,354,target,"[(1042, 889)]",[],[1],[0.5],horizontal,"(890.0, 262.0)",1.316666667,0.463,1,8969.879
36,355,target,"[(1066, 909)]",[],[1],[0.5666666666666667],horizontal,"(390.0, 262.0)",1.333333333,0.536,1,8975.257
36,356,target,"[(1077, 913)]",[],[1],[0.85],vertical,"(890.0, 262.0)",1.466666667,nan,0,8980.344
36,357,target,"[(1085, 880)]",[],[1],[0.6],vertical,"(390.0, 262.0)",0.866666667,0.554,1,8985.973
36,358,target,"[(1076, 905)]",[],[1],[0.55],vertical,"(390.0, 262.0)",1.216666667,0.513,1,8990.829
36,359,target,"[(1061, 905)]",[],[1],[0.4666666666666667],vertical,"(890.0, 762.0)",1.366666667,0.426,1,8995.705
36,360,target,"[(1074, 910)]",[],[1],[0.5166666666666666],vertical,"(890.0, 762.0)",1.683333333,0.475,1,9000.545
37,361,target,"[(1073, 904)]",[],[1],[0.5166666666666666],vertical,"(890.0, 762.0)",0.933333333,0.475,1,9005.585
37,362,target,"[(1114, 919)]",[],[1],[0.5666666666666667],vertical,"(890.0, 762.0)",0.55,0.527,1,9010.182
37,363,target,"[(1066, 919)]",[],[1],[0.5333333333333333],vertical,"(390.0, 262.0)",1.316666667,0.497,1,9014.662
37,364,target,"[(1086, 905)]",[],[1],[0.6],vertical,"(390.0, 762.0)",0.833333333,0.556,1,9019.312
37,365,target,"[(1078, 899)]",[],[1],[0.26666666666666666],horizontal,"(390.0, 762.0)",1.65,0.233,1,9024.263
37,366,target,"[(1071, 894)]",[],[1],[0.55],vertical,"(390.0, 762.0)",0.833333333,0.511,1,9029.384
37,367,target,"[(1075, 905)]",[],[1],[0.6166666666666667],vertical,"(390.0, 262.0)",0.966666667,0.574,1,9033.678
37,368,target,"[(1071, 914)]",[],[1],[0.5666666666666667],horizontal,"(890.0, 762.0)",1.5,0.528,1,9038.686
37,369,target,"[(1095, 903)]",[],[1],[0.55],horizontal,"(890.0, 762.0)",0.616666667,0.507,1,9043.873
37,370,target,"[(1061, 923)]",[],[1],[0.55],horizontal,"(890.0, 262.0)",1.483333333,0.509,1,9048.388
38,371,target,"[(1075, 911)]",[],[1],[0.5333333333333333],horizontal,"(890.0, 762.0)",1.066666667,0.492,1,9053.186
38,372,target,"[(1089, 923)]",[],[1],[0.6833333333333333],vertical,"(390.0, 762.0)",0.9,0.646,1,9057.866
38,373,target,"[(1066, 915)]",[],[1],[0.5333333333333333],horizontal,"(390.0, 762.0)",0.933333333,0.496,1,9062.422
38,374,target,"[(1081, 905)]",[],[1],[0.45],vertical,"(890.0, 262.0)",1.4,0.41,1,9066.554
38,375,target,"[(1077, 906)]",[],[1],[0.5666666666666667],vertical,"(890.0, 262.0)",0.75,0.524,1,9071.971
38,376,target,"[(1076, 908)]",[],[1],[0.4],horizontal,"(390.0, 262.0)",1.566666667,0.362,1,9076.203
38,377,target,"[(1070, 885)]",[],[1],[0.6],horizontal,"(390.0, 762.0)",0.983333333,0.553,1,9081.178
38,378,target,"[(1071, 893)]",[],[1],[0.5333333333333333],vertical,"(890.0, 762.0)",1.25,0.494,1,9085.815
38,379,target,"[(1104, 906)]",[],[1],[0.6166666666666667],horizontal,"(890.0, 762.0)",1.15,0.576,1,9090.703
38,380,target,"[(1073, 914)]",[],[1],[0.6833333333333333],horizontal,"(390.0, 762.0)",0.866666667,0.64,1,9096.005
39,381,target,"[(1061, 894)]",[],[1],[0.7333333333333333],vertical,"(390.0, 262.0)",1.116666667,0.685,1,9100.566
39,382,target,"[(1081, 879)]",[],[1],[0.5666666666666667],horizontal,"(890.0, 762.0)",1.566666667,0.523,1,9105.848
39,383,target,"[(1061, 892)]",[],[1],[0.5],vertical,"(390.0, 762.0)",1.533333333,0.465,1,9111.644
39,384,target,"[(1056, 915)]",[],[1],[0.5833333333333334],horizontal,"(390.0, 262.0)",1.066666667,0.547,1,9116.654
39,385,target,"[(1095, 881)]",[],[1],[0.16666666666666666],horizontal,"(890.0, 762.0)",1.666666667,0.131,1,9121.257
39,386,target,"[(1075, 889)]",[],[1],[0.7333333333333333],horizontal,"(390.0, 262.0)",0.816666667,0.691,1,9126.996
39,387,target,"[(1077, 912)]",[],[1],[0.55],horizontal,"(390.0, 262.0)",0.766666667,0.51,1,9131.311
39,388,target,"[(1075, 906)]",[],[1],[0.43333333333333335],vertical,"(890.0, 262.0)",1.483333333,0.396,1,9136.011
39,389,target,"[(1072, 895)]",[],[1],[0.36666666666666664],horizontal,"(390.0, 262.0)",1.25,0.326,1,9141.863
39,390,target,"[(1061, 900)]",[],[1],[0.55],vertical,"(390.0, 762.0)",0.55,0.516,1,9149.907
40,391,target,"[(1046, 885)]",[],[1],[0.5166666666666666],horizontal,"(890.0, 262.0)",1.333333333,0.477,1,9153.657
40,392,catch,"[(1071, 910)]",[],[1],[0.5333333333333333],vertical,"(390.0, 762.0)",1,0.502,0,9158.529
40,393,target,"[(1061, 899)]",[],[1],[0.5166666666666666],vertical,"(390.0, 262.0)",1.316666667,0.476,1,9163.303
40,394,catch,"[(1062, 905)]",[],[1],[0.85],horizontal,"(890.0, 762.0)",0.966666667,nan,1,9168.735
40,395,target,"[(1072, 904)]",[],[1],[0.5666666666666667],horizontal,"(890.0, 762.0)",0.983333333,0.529,1,9173.496
40,396,catch,"[(1072, 906)]",[],[1],[0.85],horizontal,"(890.0, 762.0)",1.433333333,nan,1,9178.129
40,397,target,"[(156, 524), (819, 499), (59, 307), (1081, 889)]",[],"[0, 0, 0, 1]",[0.7333333333333333],vertical,"(890.0, 262.0)",1.483333333,0.696,1,9183.729
40,398,target,"[(1053, 915)]",[],[1],[0.7],horizontal,"(890.0, 762.0)",1.15,0.651,1,9529.218
40,399,catch,"[(1072, 923)]",[],[1],[0.85],horizontal,"(890.0, 262.0)",0.883333333,nan,1,9534.832
40,400,target,"[(1071, 907)]",[],[1],[0.5833333333333334],vertical,"(390.0, 762.0)",1.433333333,0.544,1,9539.499
41,401,target,"[(1060, 923)]","[(1013, 915)]",[1],[0.16666666666666666],vertical,"(890.0, 762.0)",,bar_phase,0,9544.654
41,402,target,"[(1100, 899)]",[],[1],[0.6],vertical,"(890.0, 762.0)",1.466666667,0.558,1,9547.396
41,403,target,"[(1085, 871)]",[],[1],[0.55],horizontal,"(890.0, 762.0)",0.5,0.513,1,9749.237
41,404,target,"[(1090, 909)]",[],[1],[0.7666666666666666],horizontal,"(890.0, 762.0)",0.516666667,0.714,1,9753.728
41,405,catch,"[(1059, 914)]",[],[1],[0.6833333333333333],horizontal,"(390.0, 762.0)",1.183333333,0.64,0,9758.114
41,406,target,"[(1075, 918)]",[],[1],[0.85],horizontal,"(890.0, 762.0)",1.366666667,nan,0,9762.915
41,407,target,"[(1073, 908)]",[],[1],[0.6166666666666667],vertical,"(390.0, 262.0)",1.366666667,0.574,1,9768.631
41,408,target,"[(1075, 914)]",[],[1],[0.55],horizontal,"(390.0, 762.0)",1,0.513,1,9782.247
41,409,target,"[(1085, 884)]",[],[1],[0.5166666666666666],horizontal,"(390.0, 262.0)",1.183333333,0.474,1,9786.666
41,410,target,"[(1073, 908)]",[],[1],[0.5166666666666666],horizontal,"(390.0, 262.0)",0.933333333,0.477,1,9791.241
42,411,target,"[(1075, 912)]",[],[1],[0.5333333333333333],vertical,"(390.0, 262.0)",1.4,0.487,1,9795.812
42,412,target,"[(1066, 896)]",[],[1],[0.5],horizontal,"(890.0, 262.0)",1.566666667,0.459,1,9800.851
42,413,target,"[(1073, 928)]",[],[1],[0.55],vertical,"(390.0, 262.0)",0.866666667,0.515,1,9805.783
42,414,target,"[(1104, 914)]",[],[1],[0.6],horizontal,"(390.0, 262.0)",0.866666667,0.554,1,9810.629
42,415,target,"[(1055, 914)]",[],[1],[0.5],horizontal,"(390.0, 762.0)",0.95,0.458,1,9814.933
42,416,catch,"[(1081, 910)]",[],[1],[0.85],vertical,"(890.0, 262.0)",1.7,nan,1,9819.762
42,417,target,"[(1092, 924)]",[],[1],[0.75],horizontal,"(890.0, 262.0)",1.183333333,0.702,1,9825.246
42,418,target,"[(1055, 913)]",[],[1],[0.55],horizontal,"(390.0, 762.0)",1.25,0.507,1,9830.497
42,419,target,"[(1065, 920)]",[],[1],[0.6333333333333333],vertical,"(390.0, 762.0)",0.7,0.585,1,9835.68
42,420,target,"[(1072, 915)]",[],[1],[0.5333333333333333],vertical,"(890.0, 762.0)",0.75,0.496,1,9840.332
43,421,target,"[(1060, 899)]",[],[1],[0.5333333333333333],horizontal,"(890.0, 762.0)",0.95,0.492,1,9845.013
43,422,target,"[(1087, 911)]",[],[1],[0.3833333333333333],vertical,"(390.0, 262.0)",1.533333333,0.348,1,9850.065
43,423,target,"[(1074, 919)]",[],[1],[0.43333333333333335],vertical,"(390.0, 762.0)",1.283333333,0.393,1,9855.282
43,424,target,"[(1057, 919)]",[],[1],[0.5166666666666666],vertical,"(390.0, 762.0)",1.1,0.475,1,9860.318
43,425,target,"[(1083, 905)]",[],[1],[0.6666666666666666],vertical,"(390.0, 262.0)",1.4,0.619,1,9864.865
43,426,target,"[(1071, 903)]",[],[1],[0.6333333333333333],horizontal,"(890.0, 762.0)",0.65,0.586,1,9870.266
43,427,target,"[(1090, 907)]",[],[1],[0.43333333333333335],horizontal,"(890.0, 262.0)",1.533333333,0.39,1,9875.216
43,428,target,"[(1066, 903)]",[],[1],[0.18333333333333332],horizontal,"(890.0, 762.0)",1.633333333,0.149,1,9880.265
43,429,target,"[(1078, 907)]",[],[1],[0.5166666666666666],vertical,"(390.0, 762.0)",1.05,0.472,1,9884.834
43,430,target,"[(1073, 911)]",[],[1],[0.5833333333333334],horizontal,"(390.0, 262.0)",0.75,0.541,1,9889.472
44,431,target,"[(1100, 914)]",[],[1],[0.6333333333333333],horizontal,"(890.0, 762.0)",0.666666667,0.588,1,9893.797
44,432,target,"[(1071, 908)]",[],[1],[0.55],horizontal,"(390.0, 762.0)",0.65,0.506,1,9898.258
44,433,target,"[(1070, 908)]",[],[1],[0.5166666666666666],horizontal,"(890.0, 262.0)",1.216666667,0.474,1,9902.479
44,434,target,"[(1072, 918)]",[],[1],[0.7333333333333333],horizontal,"(890.0, 262.0)",0.6,0.692,1,9907.484
44,435,target,"[(1083, 910)]",[],[1],[0.7],vertical,"(390.0, 262.0)",0.783333333,0.655,1,9912.248
44,436,catch,"[(1072, 903)]",[],[1],[0.8166666666666667],horizontal,"(890.0, 262.0)",1.05,0.782,0,9916.739
44,437,catch,"[(1095, 909)]",[],[1],[0.85],vertical,"(390.0, 262.0)",0.683333333,nan,1,9921.83
44,438,target,"[(1082, 915)]",[],[1],[0.1],horizontal,"(890.0, 762.0)",1.566666667,0.067,1,9926.594
44,439,target,"[(1072, 905)]",[],[1],[0.65],vertical,"(390.0, 762.0)",1.516666667,0.602,1,9931.389
44,440,target,"[(1056, 907)]",[],[1],[0.55],vertical,"(890.0, 262.0)",0.583333333,0.513,1,9936.341
45,441,target,"[(1071, 900)]",[],[1],[0.31666666666666665],vertical,"(390.0, 262.0)",1.5,0.279,1,9940.723
45,442,target,"[(1075, 918)]",[],[1],[0.5],vertical,"(390.0, 262.0)",1.216666667,0.457,1,9946.73
45,443,target,"[(1066, 914)]",[],[1],[0.43333333333333335],vertical,"(390.0, 262.0)",1.5,0.391,1,9951.42
45,444,target,"[(1075, 906)]",[],[1],[0.6166666666666667],vertical,"(390.0, 762.0)",0.633333333,0.576,1,9956.58
45,445,target,"[(1079, 909)]",[],[1],[0.5166666666666666],horizontal,"(890.0, 762.0)",0.866666667,0.473,1,9960.919
45,446,target,"[(1079, 885)]",[],[1],[0.05],vertical,"(890.0, 762.0)",1.55,0.02,1,9965.364
45,447,target,"[(1090, 909)]",[],[1],[0.5833333333333334],vertical,"(890.0, 762.0)",0.633333333,0.541,1,9970.1
45,448,target,"[(1081, 910)]",[],[1],[0.65],vertical,"(390.0, 262.0)",0.533333333,0.608,1,9974.529
45,449,target,"[(1059, 903)]",[],[1],[0.6666666666666666],horizontal,"(390.0, 762.0)",0.8,0.622,1,9978.815
45,450,target,"[(1052, 902)]",[],[1],[0.5333333333333333],vertical,"(890.0, 262.0)",0.8,0.492,1,9983.516
46,451,target,"[(1061, 911)]",[],[1],[0.31666666666666665],vertical,"(390.0, 262.0)",1.35,0.274,1,9988.134
46,452,target,"[(1075, 928)]",[],[1],[0.6],vertical,"(890.0, 262.0)",0.7,0.554,1,9992.8
46,453,target,"[(1095, 899)]",[],[1],[0.55],vertical,"(890.0, 762.0)",0.9,0.508,1,9997.404
46,454,target,"[(1071, 914)]",[],[1],[0.55],horizontal,"(890.0, 762.0)",0.8,0.506,1,10002.263
46,455,target,"[(1060, 914)]",[],[1],[0.5833333333333334],vertical,"(390.0, 762.0)",0.75,0.54,1,10006.769
46,456,target,"[(1071, 910)]",[],[1],[0.21666666666666667],vertical,"(890.0, 262.0)",1.183333333,0.186,1,10010.931
46,457,target,"[(1075, 912)]",[],[1],[0.3833333333333333],vertical,"(890.0, 262.0)",1.433333333,0.344,1,10015.506
46,458,target,"[(1075, 899)]",[],[1],[0.43333333333333335],vertical,"(390.0, 762.0)",1.366666667,0.393,1,10020.999
46,459,target,"[(1085, 917)]",[],[1],[0.6166666666666667],vertical,"(390.0, 262.0)",0.733333333,0.573,1,10025.965
46,460,target,"[(1075, 904)]",[],[1],[0.55],horizontal,"(890.0, 762.0)",0.6,0.509,1,10030.565
47,461,target,"[(1075, 908)]",[],[1],[0.5],vertical,"(890.0, 262.0)",0.916666667,0.462,1,10034.822
47,462,catch,"[(1072, 910)]",[],[1],[0.35],vertical,"(890.0, 262.0)",0.9,0.31,0,10039.314
47,463,target,"[(1071, 901)]",[],[1],[0.6],horizontal,"(890.0, 262.0)",0.766666667,0.556,1,10043.831
47,464,target,"[(1070, 911)]",[],[1],[0.5166666666666666],vertical,"(890.0, 262.0)",1.216666667,0.472,1,10050.965
47,465,target,"[(1061, 904)]",[],[1],[0.5333333333333333],vertical,"(390.0, 762.0)",1.083333333,0.489,1,10056.881
47,466,target,"[(1066, 906)]",[],[1],[0.48333333333333334],vertical,"(890.0, 262.0)",1.466666667,0.443,1,10061.398
47,467,target,"[(1075, 914)]",[],[1],[0.75],horizontal,"(390.0, 762.0)",0.6,0.707,1,10066.689
47,468,target,"[(1061, 910)]",[],[1],[0.5666666666666667],vertical,"(890.0, 262.0)",0.85,0.527,1,10071.387
47,469,target,"[(1061, 910)]",[],[1],[0.55],vertical,"(890.0, 262.0)",0.733333333,0.504,1,10076.297
47,470,target,"[(1072, 919)]",[],[1],[0.3333333333333333],vertical,"(890.0, 262.0)",1.683333333,0.304,1,10083.286
48,471,catch,"[(1061, 909)]",[],[1],[0.85],horizontal,"(890.0, 762.0)",1.033333333,nan,1,10088.753
48,472,target,"[(1077, 909)]",[],[1],[0.6333333333333333],vertical,"(390.0, 262.0)",0.683333333,0.59,1,10093.815
48,473,target,"[(1075, 909)]",[],[1],[0.6],horizontal,"(890.0, 762.0)",0.9,0.556,1,10098.522
48,474,target,"[(1084, 903)]",[],[1],[0.65],horizontal,"(390.0, 762.0)",1.116666667,0.601,1,10103.005
48,475,target,"[(1066, 903)]",[],[1],[0.5],horizontal,"(890.0, 762.0)",1.35,0.458,1,10107.566
48,476,target,"[(1072, 904)]",[],[1],[0.7],vertical,"(890.0, 762.0)",1.25,0.658,1,10112.698
48,477,target,"[(1066, 918)]",[],[1],[0.4666666666666667],vertical,"(890.0, 262.0)",1.583333333,0.427,1,10117.937
48,478,target,"[(1062, 911)]",[],[1],[0.6333333333333333],vertical,"(890.0, 262.0)",1.683333333,0.596,1,10122.938
48,479,target,"[(1070, 919)]",[],[1],[0.85],vertical,"(890.0, 262.0)",1.366666667,nan,0,10129.075
48,480,target,"[(1071, 902)]",[],[1],[0.6166666666666667],horizontal,"(890.0, 262.0)",1.25,0.58,1,10359.47
49,481,target,"[(1059, 909)]",[],[1],[0.55],vertical,"(390.0, 762.0)",0.633333333,0.508,1,10364.941
49,482,target,"[(833, 557), (1163, 573), (974, 802), (979, 856), (1095, 904)]",[],"[0, 0, 0, 0, 1]",[0.5333333333333333],vertical,"(390.0, 762.0)",1.033333333,0.484,1,10369.449
49,483,target,"[(1066, 881)]",[],[1],[0.5166666666666666],vertical,"(890.0, 762.0)",1.366666667,0.472,1,11026.573
49,484,target,"[(1093, 895)]",[],[1],[0.85],horizontal,"(890.0, 762.0)",0.566666667,nan,0,11031.585
49,485,target,"[(1112, 872)]",[],[1],[0.5333333333333333],horizontal,"(390.0, 262.0)",0.7,0.493,1,11508.16
49,486,catch,"[(1076, 891)]",[],[1],[0.85],horizontal,"(390.0, 762.0)",0.516666667,nan,1,11636.189
49,487,target,"[(1079, 901)]",[],[1],[0.65],horizontal,"(390.0, 262.0)",0.733333333,0.604,1,11640.967
49,488,target,"[(1075, 903)]",[],[1],[0.65],horizontal,"(890.0, 762.0)",1.15,0.608,1,11645.637
49,489,target,"[(1061, 899)]",[],[1],[0.25],horizontal,"(390.0, 762.0)",1.383333333,0.217,1,11650.594
49,490,target,"[(1084, 909)]",[],[1],[0.7333333333333333],horizontal,"(390.0, 762.0)",1.55,0.692,1,11655.269
50,491,target,"[(1071, 905)]",[],[1],[0.5333333333333333],horizontal,"(890.0, 762.0)",1.616666667,0.5,1,11661.136
50,492,target,"[(1095, 914)]",[],[1],[0.85],vertical,"(390.0, 262.0)",1.083333333,nan,0,11665.866
50,493,target,"[(1114, 915)]",[],[1],[0.85],horizontal,"(890.0, 762.0)",1.533333333,nan,0,11670.484
50,494,catch,"[(1015, 895)]",[],[1],[0.6333333333333333],horizontal,"(390.0, 262.0)",1.383333333,0.606,0,11676.293
50,495,target,"[(1091, 883)]",[],[1],[0.5],horizontal,"(890.0, 262.0)",0.75,0.468,1,11682.231
50,496,target,"[(1075, 879)]",[],[1],[0.7833333333333333],vertical,"(390.0, 762.0)",0.966666667,0.749,1,11687.121
50,497,target,"[(1082, 885)]",[],[1],[],horizontal,"(890.0, 762.0)",,"fix_phase,cti_phase",0,11692.153
50,498,target,"[(1093, 885)]","[(1063, 894)]",[1],[0.21666666666666667],vertical,"(890.0, 262.0)",,bar_phase,0,11696.139
50,499,target,"[(1101, 876)]",[],[1],[0.7166666666666667],vertical,"(390.0, 762.0)",0.866666667,0.677,1,11698.82
50,500,target,"[(1088, 901)]",[],[1],[0.43333333333333335],horizontal,"(890.0, 262.0)",1.433333333,0.395,1,11703.469
51,501,catch,"[(1075, 890)]",[],[1],[],vertical,"(390.0, 762.0)",,fix_phase,0,11708.592
51,502,catch,"[(1077, 888)]",[],[1],[0.55],horizontal,"(390.0, 762.0)",0.866666667,0.521,0,11710.57
51,503,catch,"[(1019, 907)]",[],[1],[],vertical,"(890.0, 762.0)",,fix_phase,0,11716.753
51,504,catch,"[(1072, 861)]",[],[1],[0.45],horizontal,"(890.0, 262.0)",1.3,0.413,0,11719.335
51,505,catch,"[(1201, 651), (1056, 870)]",[],"[0, 1]",[0.75],horizontal,"(390.0, 762.0)",0.816666667,0.705,0,11724.571
51,506,target,"[(848, 473), (1125, 877)]",[],"[0, 1]",[0.35],vertical,"(890.0, 262.0)",0.883333333,0.315,1,11735.955
51,507,catch,"[(1064, 814)]",[],[1],[0.85],horizontal,"(890.0, 762.0)",1.65,nan,1,12074.54
51,508,catch,"[(848, 557), (862, 619), (1008, 813)]","[(1008, 813)]","[0, 0, 1]",[0.4166666666666667],vertical,"(890.0, 762.0)",,bar_phase,0,12344.84
51,509,catch,"[(1095, 910)]",[],[1],[0.85],horizontal,"(890.0, 762.0)",0.866666667,nan,1,12404.504
51,510,target,"[(1066, 899)]",[],[1],[0.7833333333333333],vertical,"(890.0, 762.0)",0.516666667,0.739,1,12798.191
52,511,catch,"[(1072, 890)]",[],[1],[0.85],vertical,"(390.0, 262.0)",0.533333333,nan,1,12802.455
52,512,target,"[(1085, 909)]",[],[1],[0.85],horizontal,"(390.0, 762.0)",0.8,nan,0,12806.854
52,513,target,"[(1102, 890)]",[],[1],[0.1],horizontal,"(390.0, 262.0)",1.216666667,0.069,1,12811.79
52,514,target,"[(1056, 902)]",[],[1],[0.21666666666666667],horizontal,"(390.0, 262.0)",1.35,0.182,1,12820.206
52,515,target,"[(1094, 861)]",[],[1],[0.5333333333333333],horizontal,"(390.0, 262.0)",1.183333333,0.497,1,12825.274
52,516,catch,"[(1077, 898)]",[],[1],[0.8],horizontal,"(890.0, 762.0)",1.4,0.755,0,12830.175
52,517,target,"[(1095, 892)]",[],[1],[0.6],horizontal,"(890.0, 262.0)",0.75,0.567,1,12835.456
52,518,catch,"[(1090, 906)]",[],[1],[0.85],horizontal,"(390.0, 762.0)",1.5,nan,1,12840.072
52,519,target,"[(1061, 906)]",[],[1],[0.5666666666666667],horizontal,"(390.0, 762.0)",0.55,0.533,1,12845.373
52,520,catch,"[(1089, 905)]",[],[1],[0.5333333333333333],vertical,"(390.0, 762.0)",0.95,0.495,0,12849.855
53,521,target,"[(1095, 903)]",[],[1],[0.7],vertical,"(390.0, 262.0)",1.383333333,0.653,1,12854.752
53,522,catch,"[(1072, 909)]",[],[1],[0.35],horizontal,"(390.0, 762.0)",1.116666667,0.313,0,12859.724
53,523,catch,"[(1119, 895)]",[],[1],[0.85],vertical,"(390.0, 262.0)",1.65,nan,1,12864.546
53,524,target,"[(1090, 928)]",[],[1],[0.25],horizontal,"(390.0, 762.0)",1.55,0.216,1,12870.289
53,525,target,"[(1069, 906)]",[],[1],[0.48333333333333334],horizontal,"(390.0, 262.0)",1.416666667,0.443,1,12874.991
53,526,catch,"[(1081, 888)]",[],[1],[0.85],vertical,"(390.0, 262.0)",0.85,nan,1,12880.206
53,527,target,"[(1087, 897)]",[],[1],[0.5833333333333334],horizontal,"(890.0, 762.0)",1.1,0.545,1,12884.924
53,528,catch,"[(1102, 896)]",[],[1],[0.8166666666666667],vertical,"(390.0, 262.0)",0.916666667,0.774,0,12889.706
53,529,catch,"[(1071, 894)]",[],[1],[0.31666666666666665],horizontal,"(890.0, 262.0)",1.683333333,0.281,0,12894.939
53,530,catch,"[(1071, 895)]",[],[1],[0.6333333333333333],horizontal,"(890.0, 762.0)",1.483333333,0.597,0,12900.107
54,531,catch,"[(1075, 909)]",[],[1],[0.85],vertical,"(390.0, 762.0)",0.516666667,nan,1,12905.536
54,532,catch,"[(1090, 892)]",[],[1],[0.85],horizontal,"(890.0, 262.0)",0.633333333,nan,1,12909.925
54,533,target,"[(591, 295), (717, 249), (609, 317), (587, 172), (785, 179), (407, 162), (665, 205), (408, 562), (797, 201), (605, 572), (698, 213), (606, 215), (606, 177), (790, 162), (713, 211), (567, 316), (603, 205), (1104, 220), (721, 259), (611, 196), (24, 321), (612, 215), (688, 114), (755, 226), (1101, 205), (1106, 888)]",[],"[0, 0, 0, 0, 0, 0, 0, 0, 0, 0, 0, 0, 0, 0, 0, 0, 0, 0, 0, 0, 0, 0, 0, 0, 0, 1]",[0.4666666666666667],horizontal,"(890.0, 262.0)",1.366666667,0.428,1,12914.413
54,534,target,"[(1065, 911)]",[],[1],[0.5666666666666667],horizontal,"(390.0, 762.0)",0.816666667,0.526,1,12955.297
54,535,catch,"[(1088, 910)]",[],[1],[0.85],vertical,"(390.0, 262.0)",0.516666667,nan,1,12959.518
54,536,target,"[(1068, 895)]",[],[1],[],vertical,"(390.0, 262.0)",,fix_phase,0,12964.19
54,537,catch,"[(752, 231), (1067, 884)]",[],"[0, 1]",[],horizontal,"(390.0, 762.0)",,fix_phase,0,12966.389
54,538,catch,"[(756, 254), (822, 336), (823, 890), (1038, 914)]",[],"[0, 0, 0, 1]",[0.55],horizontal,"(890.0, 262.0)",1.066666667,0.511,0,12970.472
54,539,target,"[(1071, 890)]","[(1071, 898)]",[1],[0.26666666666666666],vertical,"(390.0, 762.0)",,bar_phase,0,12984.042
54,540,target,"[(824, 215), (1099, 882)]",[],"[0, 1]",[],vertical,"(890.0, 262.0)",,cti_phase,0,12986.765
55,541,catch,"[(1114, 901)]",[],[1],[0.21666666666666667],horizontal,"(390.0, 762.0)",1.616666667,0.184,0,12999.679
55,542,target,"[(1069, 906)]",[],[1],[0.85],vertical,"(390.0, 262.0)",1.35,nan,0,13004.472
55,543,target,"[(1061, 903)]",[],[1],[0.85],horizontal,"(890.0, 262.0)",1.1,nan,0,13009.848
55,544,catch,"[(1099, 880)]",[],[1],[0.8333333333333334],vertical,"(390.0, 262.0)",1.616666667,0.788,0,13022.831
55,545,catch,"[(1064, 885)]",[],[1],[0.85],vertical,"(390.0, 762.0)",0.6,nan,1,13028.056
55,546,catch,"[(1080, 891)]",[],[1],[0.85],horizontal,"(390.0, 762.0)",0.933333333,nan,1,13032.706
55,547,catch,"[(1085, 908)]",[],[1],[0.5],vertical,"(390.0, 262.0)",1.633333333,0.46,0,13037.925
55,548,target,"[(1104, 895)]",[],[1],[0.4666666666666667],horizontal,"(390.0, 262.0)",1.65,0.431,1,13043.341
55,549,target,"[(1085, 897)]",[],[1],[0.55],horizontal,"(390.0, 262.0)",1.466666667,0.511,1,13048.162
55,550,target,"[(1095, 909)]",[],[1],[0.48333333333333334],vertical,"(890.0, 262.0)",1.566666667,0.443,1,13053.082
56,551,target,"[(1083, 902)]",[],[1],[0.85],horizontal,"(890.0, 262.0)",0.733333333,nan,0,13058.598
56,552,target,"[(1085, 884)]",[],[1],[0.6666666666666666],horizontal,"(390.0, 762.0)",0.716666667,0.625,1,13063.275
56,553,catch,"[(1085, 907)]",[],[1],[0.4],horizontal,"(890.0, 262.0)",1.65,0.368,0,13067.873
56,554,target,"[(1071, 889)]",[],[1],[0.5],horizontal,"(390.0, 762.0)",0.983333333,0.459,1,13073.024
56,555,target,"[(1064, 888)]",[],[1],[0.5833333333333334],vertical,"(890.0, 262.0)",0.55,0.539,1,13078.276
56,556,catch,"[(1091, 911)]",[],[1],[0.85],vertical,"(890.0, 262.0)",1.116666667,nan,1,13082.66
56,557,catch,"[(1085, 905)]",[],[1],[0.85],horizontal,"(890.0, 262.0)",0.583333333,nan,1,13087.91
56,558,target,"[(1100, 905)]",[],[1],[0.5],vertical,"(890.0, 262.0)",0.866666667,0.459,1,13092.157
56,559,target,"[(1077, 901)]",[],[1],[0.5333333333333333],horizontal,"(390.0, 262.0)",1.033333333,0.492,1,13096.593
56,560,catch,"[(1092, 908)]",[],[1],[0.85],horizontal,"(390.0, 762.0)",0.533333333,nan,1,13101.2
57,561,target,"[(1095, 887)]",[],[1],[0.5166666666666666],vertical,"(890.0, 762.0)",0.6,0.477,1,13105.314
57,562,catch,"[(1076, 909)]",[],[1],[0.85],horizontal,"(390.0, 762.0)",0.5,nan,1,13109.84
57,563,catch,"[(1100, 929)]",[],[1],[0.13333333333333333],horizontal,"(390.0, 262.0)",1.016666667,0.101,0,13114.156
57,564,catch,"[(1099, 876)]",[],[1],[0.85],vertical,"(890.0, 762.0)",0.65,nan,1,13118.522
57,565,target,"[(1066, 899)]",[],[1],[0.5666666666666667],vertical,"(890.0, 262.0)",1.2,0.519,1,13123.207
57,566,target,"[(1072, 901)]",[],[1],[0.4666666666666667],horizontal,"(390.0, 262.0)",1.216666667,0.432,1,13135.09
57,567,catch,"[(1094, 914)]",[],[1],[0.85],horizontal,"(890.0, 762.0)",0.9,nan,1,13139.798
57,568,catch,"[(1075, 908)]",[],[1],[0.85],vertical,"(890.0, 262.0)",1.65,nan,1,13144.606
57,569,target,"[(1071, 894)]",[],[1],[0.5333333333333333],horizontal,"(890.0, 262.0)",0.683333333,0.486,1,13150.41
57,570,catch,"[(1064, 901)]",[],[1],[0.25],horizontal,"(390.0, 262.0)",1.466666667,0.217,0,13154.742
58,571,catch,"[(1081, 894)]",[],[1],[0.5333333333333333],horizontal,"(890.0, 762.0)",1.333333333,0.501,0,13159.365
58,572,catch,"[(1072, 885)]",[],[1],[0.8333333333333334],horizontal,"(390.0, 262.0)",1.183333333,0.788,0,13164.124
58,573,target,"[(1109, 895)]",[],[1],[0.7],vertical,"(390.0, 762.0)",0.766666667,0.656,1,13169.859
58,574,catch,"[(1067, 912)]",[],[1],[0.55],vertical,"(890.0, 762.0)",1.016666667,0.507,0,13174.284
58,575,target,"[(1085, 890)]",[],[1],[0.6333333333333333],vertical,"(390.0, 762.0)",0.55,0.59,1,13179.342
58,576,catch,"[(1078, 899)]",[],[1],[0.2],horizontal,"(390.0, 762.0)",1.583333333,0.167,0,13184.591
58,577,target,"[(1061, 885)]",[],[1],[0.5],horizontal,"(890.0, 762.0)",1.35,0.462,1,13189.291
58,578,catch,"[(1085, 908)]",[],[1],[0.25],horizontal,"(390.0, 762.0)",1.4,0.218,0,13195.543
58,579,target,"[(1070, 890)]",[],[1],[0.7166666666666667],horizontal,"(390.0, 762.0)",0.583333333,0.678,1,13200.577
58,580,catch,"[(1078, 903)]",[],[1],[0.6166666666666667],vertical,"(390.0, 262.0)",1.4,0.577,0,13204.857
59,581,catch,"[(1088, 890)]",[],[1],[0.85],horizontal,"(890.0, 262.0)",0.816666667,nan,1,13210.322
59,582,target,"[(1078, 899)]",[],[1],[0.2],vertical,"(390.0, 762.0)",1.666666667,0.166,1,13215.019
59,583,catch,"[(1071, 903)]",[],[1],[0.23333333333333334],horizontal,"(890.0, 262.0)",1.683333333,0.197,0,13220.057
59,584,target,"[(1097, 906)]",[],[1],[0.5666666666666667],horizontal,"(890.0, 262.0)",0.766666667,0.523,1,13225.132
59,585,target,"[(1104, 895)]",[],[1],[0.55],vertical,"(890.0, 762.0)",1,0.508,1,13229.113
59,586,catch,"[(1067, 899)]",[],[1],[0.2],horizontal,"(390.0, 762.0)",1.55,0.166,0,13233.789
59,587,catch,"[(1056, 902)]",[],[1],[0.6333333333333333],vertical,"(390.0, 262.0)",1.6,0.594,0,13238.941
59,588,target,"[(1093, 911)]",[],[1],[0.4666666666666667],horizontal,"(890.0, 262.0)",1.566666667,0.426,1,13255.639
59,589,target,"[(1084, 910)]",[],[1],[0.11666666666666667],horizontal,"(390.0, 262.0)",1.283333333,0.085,1,13260.474
59,590,target,"[(1085, 914)]",[],[1],[0.48333333333333334],vertical,"(890.0, 262.0)",1.166666667,0.453,1,13265.199
60,591,catch,"[(1052, 922)]",[],[1],[0.85],vertical,"(390.0, 262.0)",1.3,nan,1,13270.089
60,592,catch,"[(1081, 909)]",[],[1],[0.85],horizontal,"(890.0, 762.0)",1.133333333,nan,1,13275.756
60,593,catch,"[(1077, 905)]",[],[1],[0.3333333333333333],vertical,"(890.0, 762.0)",1.416666667,0.3,0,13280.758
60,594,catch,"[(1048, 915)]",[],[1],[0.85],horizontal,"(390.0, 262.0)",1.683333333,nan,1,13286.242
60,595,catch,"[(1075, 903)]",[],[1],[0.85],horizontal,"(890.0, 262.0)",1.25,nan,1,13292.008
60,596,target,"[(1056, 926)]",[],[1],[0.6166666666666667],vertical,"(890.0, 762.0)",0.85,0.572,1,13404.892
60,597,catch,"[(1075, 918)]",[],[1],[0.85],horizontal,"(390.0, 762.0)",0.616666667,nan,1,13409.535
60,598,catch,"[(1061, 902)]",[],[1],[0.85],vertical,"(390.0, 262.0)",1.05,nan,1,13414.26
60,599,catch,"[(1086, 890)]",[],[1],[0.15],vertical,"(890.0, 762.0)",1.55,0.118,0,13419.375
60,600,target,"[(1100, 908)]",[],[1],[],vertical,"(390.0, 762.0)",,cti_phase,0,13423.981
61,601,target,"[(1085, 900)]",[],[1],[0.5333333333333333],horizontal,"(890.0, 262.0)",0.733333333,0.49,1,13428.384
61,602,catch,"[(1093, 904)]",[],[1],[0.85],horizontal,"(390.0, 762.0)",0.65,nan,1,13432.958
61,603,catch,"[(1068, 890)]",[],[1],[0.85],vertical,"(890.0, 262.0)",1.1,nan,1,13437.807
61,604,catch,"[(1087, 915)]",[],[1],[0.3333333333333333],horizontal,"(390.0, 262.0)",1.2,0.304,0,13442.794
61,605,catch,"[(1066, 876)]",[],[1],[0.15],vertical,"(390.0, 262.0)",1.6,0.119,0,13447.353
61,606,target,"[(1100, 885)]",[],[1],[0.65],vertical,"(390.0, 262.0)",1.233333333,0.604,1,13452.525
61,607,catch,"[(1098, 910)]",[],[1],[0.13333333333333333],horizontal,"(390.0, 262.0)",1.15,0.101,0,13457.363
61,608,catch,"[(1099, 894)]",[],[1],[0.6],vertical,"(390.0, 762.0)",1.15,0.56,0,13461.957
61,609,target,"[(1090, 899)]",[],[1],[0.5166666666666666],vertical,"(390.0, 262.0)",0.666666667,0.478,1,13466.343
61,610,target,"[(1076, 904)]",[],[1],[0.43333333333333335],vertical,"(390.0, 762.0)",1.45,0.398,1,13471.273
62,611,target,"[(1071, 903)]",[],[1],[0.5333333333333333],horizontal,"(390.0, 262.0)",0.933333333,0.49,1,13475.935
62,612,target,"[(1071, 914)]",[],[1],[0.5],vertical,"(390.0, 262.0)",0.75,0.454,1,13480.659
62,613,target,"[(1071, 919)]",[],[1],[0.48333333333333334],vertical,"(890.0, 262.0)",0.833333333,0.444,1,13485.461
62,614,catch,"[(1075, 895)]",[],[1],[0.85],vertical,"(390.0, 262.0)",0.9,nan,1,13489.64
62,615,target,"[(1081, 909)]",[],[1],[0.55],vertical,"(890.0, 262.0)",1.633333333,0.511,1,13494.325
62,616,target,"[(1075, 911)]",[],[1],[0.5166666666666666],vertical,"(390.0, 262.0)",1.083333333,0.481,1,13499.639
62,617,catch,"[(1056, 889)]",[],[1],[0.6833333333333333],horizontal,"(890.0, 762.0)",1.35,0.641,0,13504.108
62,618,catch,"[(1119, 898)]",[],[1],[0.85],horizontal,"(390.0, 262.0)",1.1,nan,1,13509.192
62,619,target,"[(1069, 888)]",[],[1],[0.5333333333333333],vertical,"(890.0, 762.0)",1.133333333,0.492,1,13514.141
62,620,catch,"[(1075, 908)]",[],[1],[0.06666666666666667],vertical,"(890.0, 762.0)",1.566666667,0.034,0,13519.267
63,621,catch,"[(1075, 892)]",[],[1],[0.45],horizontal,"(890.0, 262.0)",1.6,0.41,0,13523.804
63,622,catch,"[(1077, 907)]",[],[1],[0.7666666666666666],vertical,"(890.0, 262.0)",1.183333333,0.727,0,13528.984
63,623,target,"[(1081, 888)]",[],[1],[0.5],vertical,"(390.0, 762.0)",1.2,0.456,1,13534.209
63,624,target,"[(1100, 906)]",[],[1],[],vertical,"(390.0, 762.0)",,cti_phase,0,13539.124
63,625,catch,"[(1097, 876)]","[(1084, 885)]",[1],[0.3],vertical,"(390.0, 262.0)",,bar_phase,0,13543.707
63,626,target,"[(1071, 895)]",[],[1],"[0.85, 0.85]",horizontal,"(390.0, 262.0)",0.783333333,"0.8,nan",0,13546.309
63,627,catch,"[(1071, 893)]",[],[1],[0.85],horizontal,"(390.0, 762.0)",0.616666667,nan,1,13553.842
63,628,catch,"[(1085, 885)]",[],[1],[0.4],horizontal,"(390.0, 762.0)",1.45,0.365,0,13558.475
63,629,catch,"[(1061, 869)]",[],[1],[0.36666666666666664],horizontal,"(890.0, 262.0)",1.633333333,0.334,0,13563.724
63,630,catch,"[(1066, 895)]",[],[1],[0.8333333333333334],vertical,"(890.0, 262.0)",1.666666667,0.788,0,13731.831
64,631,target,"[(1071, 905)]",[],[1],[0.5833333333333334],vertical,"(890.0, 762.0)",1.283333333,0.544,1,13739.417
64,632,catch,"[(1066, 914)]",[],[1],[0.85],horizontal,"(390.0, 262.0)",1.1,nan,1,13746.596
64,633,target,"[(1056, 927)]",[],[1],"[0.85, 0.85]",horizontal,"(390.0, 262.0)",0.733333333,"0.801,nan",0,13751.749
64,634,catch,"[(1065, 895)]",[],[1],[0.85],horizontal,"(390.0, 762.0)",0.95,nan,1,13756.513
64,635,catch,"[(1054, 909)]",[],[1],[0.1],vertical,"(390.0, 762.0)",1.483333333,0.07,0,13762.81
64,636,target,"[(1072, 883)]",[],[1],[0.55],vertical,"(890.0, 762.0)",1.2,0.514,1,13767.741
64,637,target,"[(1061, 919)]",[],[1],[0.6333333333333333],horizontal,"(890.0, 762.0)",0.55,0.592,1,13772.592
64,638,catch,"[(1071, 908)]",[],[1],[0.85],horizontal,"(390.0, 262.0)",1.316666667,nan,1,13776.943
64,639,catch,"[(1083, 885)]",[],[1],[0.85],vertical,"(890.0, 262.0)",1.533333333,nan,1,13782.159
64,640,target,"[(1071, 894)]",[],[1],[0.7833333333333333],horizontal,"(890.0, 262.0)",0.7,0.745,1,13787.742
65,641,target,"[(1085, 924)]",[],[1],[0.5666666666666667],vertical,"(390.0, 762.0)",1.033333333,0.526,1,13792.406
65,642,catch,"[(1076, 895)]",[],[1],[0.2833333333333333],vertical,"(390.0, 762.0)",1,0.246,0,13796.976
65,643,target,"[(1104, 904)]",[],[1],[0.5666666666666667],vertical,"(390.0, 262.0)",0.95,0.532,1,13801.174
65,644,catch,"[(1088, 899)]",[],[1],[0.85],vertical,"(890.0, 262.0)",1.016666667,nan,1,13805.691
65,645,target,"[(1058, 909)]",[],[1],[0.5],horizontal,"(890.0, 762.0)",1.3,0.467,1,13811.182
65,646,target,"[(1077, 912)]",[],[1],[0.5333333333333333],vertical,"(890.0, 762.0)",0.533333333,0.492,1,13815.982
65,647,target,"[(1082, 904)]",[],[1],[0.5333333333333333],vertical,"(890.0, 762.0)",0.9,0.491,1,13820.375
65,648,catch,"[(1055, 910)]",[],[1],[0.85],vertical,"(390.0, 762.0)",0.766666667,nan,1,13824.859
65,649,target,"[(1055, 909)]",[],[1],[0.6],horizontal,"(390.0, 762.0)",1,0.564,1,13829.808
65,650,target,"[(1051, 911)]",[],[1],[0.5],vertical,"(390.0, 262.0)",1.233333333,0.463,1,13835.953
66,651,target,"[(1055, 901)]",[],[1],[0.5],horizontal,"(390.0, 262.0)",0.816666667,0.464,1,13840.741
66,652,target,"[(1041, 908)]",[],[1],[0.43333333333333335],vertical,"(390.0, 262.0)",1.333333333,0.393,1,13845.917
66,653,target,"[(1058, 909)]",[],[1],[0.6],horizontal,"(390.0, 762.0)",0.716666667,0.558,1,13850.892
66,654,target,"[(1064, 911)]",[],[1],[0.4166666666666667],vertical,"(390.0, 262.0)",1.65,0.375,1,13855.415
66,655,target,"[(1058, 897)]",[],[1],[0.5666666666666667],vertical,"(890.0, 762.0)",0.7,0.524,1,13860.248
66,656,target,"[(1046, 909)]",[],[1],[0.5],horizontal,"(390.0, 262.0)",1.133333333,0.463,1,13864.449
66,657,target,"[(1071, 914)]",[],[1],[0.3833333333333333],vertical,"(890.0, 762.0)",1.316666667,0.354,1,13869.121
66,658,target,"[(1051, 898)]",[],[1],[0.48333333333333334],horizontal,"(390.0, 762.0)",0.983333333,0.44,1,13873.527
66,659,target,"[(1051, 899)]",[],[1],[0.55],horizontal,"(390.0, 262.0)",0.816666667,0.512,1,13878.177
66,660,target,"[(1085, 909)]",[],[1],[0.48333333333333334],vertical,"(890.0, 262.0)",0.583333333,0.452,1,13882.777
67,661,target,"[(1073, 904)]",[],[1],[0.43333333333333335],horizontal,"(390.0, 262.0)",1.133333333,0.394,1,13886.573
67,662,catch,"[(1051, 912)]",[],[1],[0.35],horizontal,"(390.0, 262.0)",1.65,0.319,0,13891.147
67,663,target,"[(1070, 897)]",[],[1],[0.43333333333333335],vertical,"(890.0, 262.0)",1.5,0.389,1,13896.261
67,664,catch,"[(1056, 898)]",[],[1],[0.7333333333333333],horizontal,"(890.0, 262.0)",1.466666667,0.7,0,13903.31
67,665,target,"[(1037, 895)]",[],[1],[0.5666666666666667],horizontal,"(390.0, 262.0)",1.233333333,0.534,1,13908.859
67,666,target,"[(1042, 909)]",[],[1],[0.45],vertical,"(390.0, 262.0)",1.15,0.415,1,13925.261
67,667,target,"[(1050, 909)]",[],[1],[0.5166666666666666],horizontal,"(890.0, 762.0)",0.783333333,0.477,1,13938.843
67,668,target,"[(1045, 910)]",[],[1],[0.6666666666666666],vertical,"(890.0, 762.0)",0.533333333,0.626,1,13943.701
67,669,target,"[(1034, 909)]",[],[1],[0.6166666666666667],horizontal,"(890.0, 262.0)",1.216666667,0.572,1,13947.786
67,670,target,"[(1060, 909)]",[],[1],[0.55],horizontal,"(890.0, 262.0)",0.833333333,0.511,1,13952.542
68,671,target,"[(1070, 913)]",[],[1],[0.5],horizontal,"(890.0, 262.0)",1.15,0.464,1,13957.195
68,672,target,"[(1051, 911)]",[],[1],[0.5333333333333333],horizontal,"(890.0, 262.0)",1.466666667,0.497,1,13962.025
68,673,target,"[(1068, 913)]",[],[1],[0.5166666666666666],horizontal,"(390.0, 262.0)",1.016666667,0.472,1,13966.892
68,674,target,"[(1066, 907)]",[],[1],[0.4166666666666667],vertical,"(390.0, 762.0)",1.366666667,0.378,1,13971.9
68,675,target,"[(1059, 923)]",[],[1],[0.6166666666666667],horizontal,"(390.0, 262.0)",0.516666667,0.575,1,13976.576
68,676,catch,"[(1046, 893)]",[],[1],[0.85],horizontal,"(890.0, 762.0)",0.566666667,nan,1,13980.693
68,677,target,"[(1052, 900)]",[],[1],[0.13333333333333333],horizontal,"(390.0, 762.0)",1,0.1,1,14003.395
68,678,target,"[(1061, 906)]",[],[1],[],vertical,"(890.0, 762.0)",,cti_phase,0,14007.954
68,679,target,"[(212, 1001), (116, 591), (117, 659), (204, 273), (1100, 898)]",[],"[0, 0, 0, 0, 1]",[0.85],vertical,"(390.0, 762.0)",0.65,nan,0,14012.541
68,680,target,"[(1075, 894)]",[],[1],[0.5333333333333333],horizontal,"(890.0, 262.0)",1,0.487,1,14046.559
69,681,target,"[(1052, 901)]",[],[1],[],horizontal,"(390.0, 762.0)",,cti_phase,0,14051.242
69,682,catch,"[(1049, 906)]",[],[1],[0.85],vertical,"(890.0, 762.0)",0.783333333,nan,1,14056.115
69,683,target,"[(1082, 881)]",[],[1],[0.85],horizontal,"(390.0, 262.0)",0.75,nan,0,14061.652
69,684,target,"[(1071, 890)]",[],[1],[0.5833333333333334],vertical,"(890.0, 762.0)",0.5,0.547,1,14068.361
69,685,target,"[(1066, 907)]",[],[1],[0.5333333333333333],horizontal,"(890.0, 762.0)",0.733333333,0.491,1,14072.626
69,686,target,"[(1067, 911)]",[],[1],[0.43333333333333335],vertical,"(890.0, 762.0)",1.35,0.399,1,14076.677
69,687,target,"[(1072, 899)]",[],[1],[0.23333333333333334],horizontal,"(390.0, 262.0)",1.483333333,0.198,1,14081.123
69,688,target,"[(1058, 900)]",[],[1],[0.5833333333333334],horizontal,"(890.0, 262.0)",0.95,0.544,1,14085.843
69,689,target,"[(1057, 905)]",[],[1],[0.4666666666666667],horizontal,"(390.0, 762.0)",1.55,0.428,1,14090.925
69,690,target,"[(1066, 889)]",[],[1],[0.6333333333333333],horizontal,"(890.0, 262.0)",1.266666667,0.594,1,14096.226
70,691,target,"[(1067, 909)]",[],[1],[0.5],horizontal,"(890.0, 262.0)",1.55,0.464,1,14101.592
70,692,target,"[(1076, 911)]",[],[1],[0.31666666666666665],horizontal,"(390.0, 762.0)",1.333333333,0.281,1,14107.277
70,693,target,"[(1032, 895)]",[],[1],[0.3333333333333333],horizontal,"(390.0, 762.0)",0.9,0.303,1,14112.151
70,694,target,"[(1041, 925)]",[],[1],[0.8166666666666667],vertical,"(390.0, 262.0)",0.633333333,0.771,1,14123.659
70,695,target,"[(1047, 918)]",[],[1],[0.55],vertical,"(390.0, 262.0)",1.166666667,0.507,1,14128.47
70,696,target,"[(1056, 905)]",[],[1],[0.48333333333333334],horizontal,"(390.0, 262.0)",1.583333333,0.447,1,14133.208
70,697,target,"[(1051, 922)]",[],[1],[0.35],vertical,"(390.0, 762.0)",1.366666667,0.311,1,14151.694
70,698,catch,"[(1056, 895)]",[],[1],[0.08333333333333333],horizontal,"(890.0, 762.0)",1.683333333,0.053,0,14156.459
70,699,target,"[(1017, 900)]",[],[1],[0.21666666666666667],horizontal,"(890.0, 762.0)",1.383333333,0.184,1,14161.546
70,700,target,"[(1067, 938)]",[],[1],[0.5666666666666667],horizontal,"(890.0, 262.0)",0.85,0.524,1,14169.319
71,701,target,"[(1066, 917)]",[],[1],[0.36666666666666664],vertical,"(890.0, 762.0)",1.366666667,0.327,1,14173.971
71,702,target,"[(1018, 909)]",[],[1],[0.48333333333333334],vertical,"(890.0, 262.0)",1.4,0.44,1,14178.945
71,703,target,"[(1060, 901)]",[],[1],[0.85],vertical,"(390.0, 762.0)",1.1,nan,0,14183.789
71,704,target,"[(1078, 870)]",[],[1],[0.85],vertical,"(390.0, 262.0)",1.266666667,nan,0,14188.66
71,705,target,"[(1051, 909)]",[],[1],[0.6166666666666667],vertical,"(890.0, 762.0)",1.133333333,0.576,1,14204.675
71,706,catch,"[(1089, 915)]",[],[1],[0.36666666666666664],horizontal,"(390.0, 762.0)",1.416666667,0.331,0,14222.48
71,707,target,"[(1061, 890)]",[],[1],[0.25],horizontal,"(890.0, 762.0)",1.583333333,0.215,1,14227.276
71,708,target,"[(1061, 908)]",[],[1],[0.5833333333333334],vertical,"(390.0, 262.0)",0.666666667,0.54,1,14232.444
71,709,target,"[(1041, 902)]",[],[1],[0.55],vertical,"(390.0, 262.0)",0.5,0.509,1,14236.566
71,710,target,"[(1051, 907)]",[],[1],[0.5],horizontal,"(390.0, 262.0)",0.833333333,0.462,1,14240.761
72,711,target,"[(1072, 899)]",[],[1],[0.5333333333333333],vertical,"(390.0, 762.0)",1.083333333,0.487,1,14245.05
72,712,catch,"[(1074, 895)]",[],[1],[0.85],vertical,"(890.0, 262.0)",0.766666667,nan,1,14249.567
72,713,target,"[(1061, 908)]",[],[1],[0.26666666666666666],horizontal,"(390.0, 762.0)",1.25,0.233,1,14253.969
72,714,target,"[(1072, 884)]",[],[1],[0.23333333333333334],horizontal,"(890.0, 762.0)",1.683333333,0.203,1,14259.003
72,715,catch,"[(1081, 908)]",[],[1],[0.85],horizontal,"(390.0, 762.0)",1.283333333,nan,1,14264.005
72,716,catch,"[(1073, 899)]",[],[1],[0.85],vertical,"(890.0, 762.0)",0.516666667,nan,1,14269.17
72,717,target,"[(1083, 909)]",[],[1],[0.48333333333333334],vertical,"(390.0, 262.0)",1.066666667,0.444,1,14273.642
72,718,catch,"[(1061, 909)]",[],[1],[0.2],vertical,"(390.0, 762.0)",1.066666667,0.165,0,14278.166
72,719,catch,"[(1058, 898)]",[],[1],[0.85],vertical,"(890.0, 262.0)",0.616666667,nan,1,14282.706
,720,catch,"[(1102, 835)]",[],[1],[0.85],horizontal,"(390.0, 262.0)",0.633333333,nan,1,0.02
,721,catch,"[(1123, 902)]",[],[1],[0.85],horizontal,"(890.0, 762.0)",0.8,nan,1,24.652
,722,catch,"[(1017, 976), (1038, 865)]",[],"[0, 1]",[0.85],horizontal,"(890.0, 762.0)",0.616666667,nan,1,955.674
,723,catch,"[(1104, 996), (1063, 895)]",[],"[0, 1]",[0.48333333333333334],vertical,"(390.0, 262.0)",1.65,0.444,0,1056.139
,724,catch,"[(1069, 888)]",[],[1],[0.85],horizontal,"(890.0, 762.0)",1.5,nan,1,4798.849
,725,catch,"[(1037, 890)]",[],[1],[0.85],horizontal,"(390.0, 762.0)",1.2,nan,1,4804.7
,726,catch,"[(687, 842), (1005, 917)]",[],"[0, 1]",[0.85],vertical,"(890.0, 262.0)",1,nan,1,4810.367
,727,target,"[(1061, 922)]",[],[1],[0.55],vertical,"(890.0, 762.0)",1.283333333,0.512,1,4815.903
,728,catch,"[(1056, 898)]",[],[1],[0.35],horizontal,"(390.0, 762.0)",1.466666667,0.324,0,4821.549
,729,catch,"[(1191, 436), (596, 789), (698, 591), (984, 880), (1070, 887)]",[],"[0, 0, 0, 0, 1]",[],vertical,"(890.0, 262.0)",,fix_phase,0,4826.347
,730,catch,"[(1027, 408), (1072, 894)]",[],"[0, 1]",[],vertical,"(390.0, 762.0)",,fix_phase,0,4829.95
,731,catch,"[(911, 413), (795, 422), (493, 481), (1022, 447), (1017, 485), (1045, 849)]",[],"[0, 0, 0, 0, 0, 1]",[0.85],vertical,"(390.0, 262.0)",0.616666667,nan,1,4832.522
,732,catch,"[(1006, 808)]",[],[1],[],vertical,"(390.0, 262.0)",,fix_phase,0,4841.515
,733,catch,"[(809, 451), (887, 663), (751, 451), (1051, 883)]",[],"[0, 0, 0, 1]",[0.85],vertical,"(390.0, 262.0)",1.4,nan,1,4843.434
,734,catch,"[(1056, 923)]",[],[1],[],horizontal,"(890.0, 762.0)",,fix_phase,0,4852.399
,735,catch,"[(819, 943), (644, 996), (1079, 868)]",[],"[0, 0, 1]",[0.2833333333333333],vertical,"(390.0, 762.0)",1.55,0.254,0,4856.499
,736,catch,"[(1012, 868)]",[],[1],[],vertical,"(390.0, 262.0)",,fix_phase,0,4863.15
,737,catch,"[(1153, 938)]","[(1162, 912)]",[1],[0.1],vertical,"(890.0, 762.0)",,bar_phase,0,4865.233
,738,catch,"[(1119, 861)]",[],[1],[],vertical,"(890.0, 262.0)",,fix_phase,0,4867.417
,739,catch,"[(959, 418), (1035, 882)]",[],"[0, 1]",[0.43333333333333335],horizontal,"(390.0, 262.0)",1.2,0.398,0,4870.051
,740,target,"[(988, 888), (1095, 924)]",[],"[0, 1]",[],horizontal,"(890.0, 262.0)",,cti_phase,0,4878.225
,741,target,"[(1031, 897)]",[],[1],[],vertical,"(390.0, 762.0)",,cti_phase,0,4884.232
,742,target,"[(1036, 885)]",[],[1],[0.6],vertical,"(890.0, 262.0)",1.25,0.557,1,4891.552
,743,target,"[(979, 861), (316, 906), (340, 1010), (296, 769), (1085, 887)]",[],"[0, 0, 0, 0, 1]",[0.4666666666666667],horizontal,"(390.0, 262.0)",1.016666667,0.432,1,4896.752
,744,target,"[(959, 789), (313, 740), (1056, 933)]",[],"[0, 0, 1]",[0.5833333333333334],vertical,"(890.0, 262.0)",1.133333333,0.543,1,4917.449
,745,target,"[(1059, 925)]",[],[1],[0.6],vertical,"(390.0, 262.0)",0.633333333,0.564,1,4926.902
,746,catch,"[(1061, 928)]",[],[1],[0.85],horizontal,"(890.0, 762.0)",0.866666667,nan,1,4931.207
,747,target,"[(1063, 923)]",[],[1],[0.55],vertical,"(890.0, 762.0)",1.133333333,0.511,1,4935.917
,748,catch,"[(1034, 932)]",[],[1],[0.85],horizontal,"(890.0, 762.0)",0.883333333,nan,1,4941.016
,749,target,"[(1024, 909)]",[],[1],[0.4],vertical,"(890.0, 762.0)",1.483333333,0.359,1,4946.267
,750,target,"[(1057, 919)]",[],[1],[0.4],vertical,"(390.0, 262.0)",1.45,0.359,1,4951.236
,751,target,"[(1052, 915)]",[],[1],[0.4666666666666667],horizontal,"(890.0, 762.0)",1.65,0.431,1,4956.767
,752,target,"[(1066, 918)]",[],[1],[0.8333333333333334],vertical,"(890.0, 262.0)",0.583333333,0.789,1,4961.917
,753,target,"[(1042, 919)]",[],[1],[0.5333333333333333],horizontal,"(390.0, 762.0)",1.266666667,0.491,1,4966.435
,754,target,"[(1042, 928)]",[],[1],[0.6],horizontal,"(890.0, 762.0)",1.066666667,0.559,1,4971.35
,755,target,"[(1037, 910)]",[],[1],[0.6],horizontal,"(890.0, 762.0)",1.466666667,0.556,1,4976.271
,756,target,"[(1042, 910)]",[],[1],[0.5],horizontal,"(890.0, 762.0)",1.183333333,0.46,1,4981.284
,757,target,"[(1064, 911)]",[],[1],[0.85],horizontal,"(890.0, 762.0)",0.816666667,nan,0,4986.164
,758,target,"[(1075, 899)]",[],[1],[0.5333333333333333],horizontal,"(390.0, 262.0)",1.433333333,0.496,1,4990.866
,759,target,"[(1053, 914)]",[],[1],[],horizontal,"(390.0, 262.0)",,cti_phase,0,4996.435
,760,target,"[(1075, 900)]",[],[1],[0.6333333333333333],vertical,"(890.0, 262.0)",0.883333333,0.591,1,5001.215
,761,target,"[(1051, 916)]",[],[1],[0.5166666666666666],horizontal,"(890.0, 762.0)",1.433333333,0.475,1,5005.872
,762,target,"[(1058, 893)]",[],[1],[0.5333333333333333],horizontal,"(890.0, 262.0)",1.083333333,0.495,1,5010.927
,763,target,"[(1061, 916)]",[],[1],[0.85],vertical,"(890.0, 762.0)",1,nan,0,5016.003
,764,target,"[(1082, 897)]",[],[1],[0.5333333333333333],vertical,"(390.0, 262.0)",1.083333333,0.496,1,5020.903
,765,target,"[(1061, 927)]",[],[1],[0.06666666666666667],horizontal,"(390.0, 762.0)",1.666666667,0.036,1,5025.684
,766,target,"[(1056, 920)]",[],[1],[0.5666666666666667],vertical,"(390.0, 762.0)",1.066666667,0.524,1,5030.751
,767,catch,"[(1052, 918)]",[],[1],[0.85],horizontal,"(390.0, 762.0)",1.3,nan,1,5035.951
,768,target,"[(1037, 889)]",[],[1],[0.5666666666666667],vertical,"(390.0, 762.0)",1.35,0.53,1,5040.902
,769,target,"[(1051, 898)]",[],[1],[0.85],horizontal,"(390.0, 762.0)",0.616666667,nan,0,5046.217
,770,target,"[(1061, 903)]",[],[1],[0.85],horizontal,"(890.0, 762.0)",1.55,nan,0,5051.298
,771,catch,"[(1061, 895)]",[],[1],[0.85],horizontal,"(390.0, 762.0)",0.55,nan,1,5056.516
,772,catch,"[(1065, 899)]",[],[1],[0.85],horizontal,"(390.0, 262.0)",0.833333333,nan,1,5061.553
,773,target,"[(1012, 897)]",[],[1],[0.65],vertical,"(390.0, 762.0)",0.666666667,0.604,1,5069.801
,774,target,"[(1085, 897)]",[],[1],[0.85],horizontal,"(890.0, 762.0)",1.483333333,nan,0,5074.05
,775,target,"[(1064, 885)]",[],[1],[0.5666666666666667],vertical,"(890.0, 262.0)",1.266666667,0.521,1,5080.085
,776,target,"[(1085, 908)]",[],[1],[0.5833333333333334],vertical,"(390.0, 262.0)",0.833333333,0.542,1,5090.041
,777,target,"[(1076, 902)]",[],[1],[0.85],vertical,"(390.0, 262.0)",0.866666667,nan,0,5094.684
,778,target,"[(1077, 905)]",[],[1],[0.5333333333333333],vertical,"(390.0, 262.0)",0.866666667,0.492,1,5099.885
,779,target,"[(1051, 906)]",[],[1],[0.6],horizontal,"(390.0, 762.0)",0.75,0.557,1,5104.424
,780,catch,"[(1022, 919)]",[],[1],[0.85],vertical,"(890.0, 762.0)",0.9,nan,1,5108.823
,781,target,"[(1056, 915)]",[],[1],[0.5666666666666667],horizontal,"(890.0, 262.0)",0.733333333,0.522,1,5113.631
,782,target,"[(1080, 903)]",[],[1],[0.3833333333333333],horizontal,"(390.0, 262.0)",1.216666667,0.345,1,5118.635
,783,catch,"[(1061, 909)]",[],[1],[0.85],horizontal,"(890.0, 262.0)",0.816666667,nan,1,5123.934
,784,target,"[(1077, 902)]",[],[1],[0.85],vertical,"(390.0, 762.0)",0.516666667,nan,0,5129.297
,785,target,"[(1085, 894)]",[],[1],[0.85],horizontal,"(890.0, 762.0)",0.566666667,nan,0,5135.086
,786,target,"[(1066, 887)]",[],[1],[0.85],horizontal,"(890.0, 262.0)",1.133333333,nan,0,5139.524
,787,target,"[(1080, 905)]",[],[1],[0.85],horizontal,"(890.0, 762.0)",0.533333333,nan,0,5145.084
,788,target,"[(1066, 876)]",[],[1],[0.85],horizontal,"(890.0, 762.0)",1.183333333,nan,0,5149.452
,789,catch,"[(1085, 896)]",[],[1],[0.85],vertical,"(890.0, 762.0)",1.1,nan,1,5154.734
,790,catch,"[(1076, 923)]",[],[1],[0.2],vertical,"(390.0, 762.0)",1.616666667,0.167,0,5159.951
,791,target,"[(1086, 888)]",[],[1],[0.8333333333333334],horizontal,"(390.0, 262.0)",1.416666667,0.785,1,5165.135
,792,target,"[(1081, 914)]",[],[1],[0.3333333333333333],horizontal,"(390.0, 762.0)",1.45,0.295,1,5170.677
,793,target,"[(1079, 910)]",[],[1],[0.7166666666666667],horizontal,"(890.0, 262.0)",0.516666667,0.671,1,5175.971
,794,catch,"[(1080, 887)]",[],[1],[0.8166666666666667],horizontal,"(890.0, 762.0)",1.683333333,0.779,0,5180.604
,795,catch,"[(1085, 901)]",[],[1],[0.85],horizontal,"(890.0, 262.0)",1.3,nan,1,5186.202
,796,target,"[(1068, 869)]",[],[1],[0.6333333333333333],horizontal,"(390.0, 762.0)",0.566666667,0.59,1,5191.47
,797,catch,"[(1063, 905)]",[],[1],[0.85],vertical,"(890.0, 262.0)",0.833333333,nan,1,5195.986
,798,target,"[(1081, 899)]",[],[1],[0.5333333333333333],vertical,"(390.0, 262.0)",1.6,0.493,1,5201.039
,799,catch,"[(1067, 888)]",[],[1],[0.3],horizontal,"(390.0, 762.0)",1.633333333,0.261,0,5206.585
,800,catch,"[(1071, 876)]",[],[1],[0.85],vertical,"(390.0, 762.0)",1.016666667,nan,1,5212.245
,801,catch,"[(1082, 903)]",[],[1],[0.3833333333333333],vertical,"(390.0, 762.0)",1.533333333,0.345,0,5217.468
,802,target,"[(1085, 885)]",[],[1],[0.55],vertical,"(390.0, 262.0)",1.216666667,0.511,1,5222.635
,803,target,"[(1081, 914)]",[],[1],[0.5333333333333333],vertical,"(890.0, 262.0)",1.083333333,0.496,1,5227.652
,804,target,"[(1057, 886)]",[],[1],[0.5833333333333334],horizontal,"(890.0, 762.0)",1.666666667,0.542,1,5232.531
,805,target,"[(1075, 905)]",[],[1],[0.6166666666666667],vertical,"(390.0, 262.0)",1.1,0.574,1,5237.951
,806,target,"[(1080, 899)]",[],[1],[0.6],vertical,"(890.0, 762.0)",1.1,0.559,1,5243.237
,807,target,"[(1061, 911)]",[],[1],[0.6166666666666667],horizontal,"(390.0, 762.0)",0.966666667,0.574,1,5248.681
,808,catch,"[(1071, 900)]",[],[1],[0.85],horizontal,"(890.0, 262.0)",0.633333333,nan,1,5253.318
,809,catch,"[(1081, 899)]",[],[1],[0.85],vertical,"(390.0, 762.0)",0.583333333,nan,1,5258.001
,810,catch,"[(1077, 908)]",[],[1],[0.85],horizontal,"(890.0, 262.0)",1.516666667,nan,1,5262.389
,811,catch,"[(1076, 902)]",[],[1],[0.85],horizontal,"(890.0, 762.0)",0.966666667,nan,1,5268.353
,812,target,"[(1067, 905)]",[],[1],[0.85],vertical,"(890.0, 762.0)",1.116666667,nan,0,5273.552
,813,catch,"[(809, 130), (823, 128), (950, 822), (1090, 915)]",[],"[0, 0, 0, 1]",[0.85],vertical,"(890.0, 762.0)",1.05,nan,1,5278.652
,814,catch,"[(1077, 883)]",[],[1],[0.85],horizontal,"(890.0, 262.0)",1.3,nan,1,5347.986
,815,catch,"[(1086, 884)]",[],[1],[0.85],horizontal,"(390.0, 762.0)",1.5,nan,1,5353.453
,816,catch,"[(1057, 906)]",[],[1],[0.85],horizontal,"(390.0, 762.0)",1.366666667,nan,1,5362.203
,817,catch,"[(1061, 894)]",[],[1],[0.85],vertical,"(390.0, 262.0)",0.966666667,nan,1,5367.669
,818,catch,"[(1038, 890)]",[],[1],[0.31666666666666665],horizontal,"(390.0, 762.0)",0.983333333,0.283,0,5373.235
,819,catch,"[(1075, 897)]",[],[1],[0.85],horizontal,"(890.0, 762.0)",1.283333333,nan,1,5378.071
,820,catch,"[(1057, 906)]",[],[1],[0.85],horizontal,"(390.0, 762.0)",0.95,nan,1,5383.763
,821,target,"[(1063, 914)]",[],[1],[0.55],vertical,"(890.0, 762.0)",1.433333333,0.508,1,5389.037
,822,catch,"[(1064, 909)]",[],[1],[0.18333333333333332],vertical,"(390.0, 762.0)",1.583333333,0.148,0,5394.602
,823,catch,"[(1085, 886)]",[],[1],[0.85],horizontal,"(390.0, 762.0)",0.6,nan,1,5399.556
,824,catch,"[(1086, 910)]",[],[1],[0.85],horizontal,"(390.0, 262.0)",1.1,nan,1,5404.186
,825,catch,"[(1081, 892)]",[],[1],[0.85],vertical,"(890.0, 262.0)",0.983333333,nan,1,5408.769
,826,catch,"[(1066, 897)]",[],[1],[0.85],vertical,"(890.0, 262.0)",0.683333333,nan,1,5413.984
,827,catch,"[(1057, 881)]",[],[1],[0.85],vertical,"(890.0, 762.0)",0.7,nan,1,5418.37
,828,catch,"[(1056, 902)]",[],[1],[0.85],vertical,"(890.0, 762.0)",1.1,nan,1,5423.392
,829,catch,"[(1056, 907)]",[],[1],[0.85],horizontal,"(890.0, 262.0)",0.933333333,nan,1,5428.737
,830,catch,"[(1056, 893)]",[],[1],[0.85],vertical,"(890.0, 762.0)",0.883333333,nan,1,5434.331
,831,catch,"[(1056, 915)]",[],[1],[0.6833333333333333],vertical,"(890.0, 262.0)",1.666666667,0.645,0,5440.586
,832,catch,"[(1085, 902)]",[],[1],[0.7166666666666667],vertical,"(890.0, 762.0)",0.833333333,0.687,0,5446.774
,833,catch,"[(1071, 912)]",[],[1],[0.05],horizontal,"(390.0, 762.0)",1.116666667,0.019,0,5451.422
,834,catch,"[(1060, 893)]",[],[1],[0.6166666666666667],vertical,"(890.0, 762.0)",1.55,0.574,0,5456.068
,835,catch,"[(1104, 892)]",[],[1],[0.26666666666666666],horizontal,"(390.0, 762.0)",1.15,0.231,0,5462.04
,836,catch,"[(1078, 887)]",[],[1],[0.85],vertical,"(390.0, 262.0)",0.933333333,nan,1,5466.919
,837,catch,"[(1049, 902)]",[],[1],[0.85],horizontal,"(890.0, 762.0)",0.85,nan,1,5471.941
,838,catch,"[(1074, 908)]",[],[1],[0.85],horizontal,"(390.0, 262.0)",0.883333333,nan,1,5476.886
,839,catch,"[(1080, 900)]",[],[1],[0.85],horizontal,"(890.0, 762.0)",1,nan,1,5481.91
,840,target,"[(1056, 913)]",[],[1],[0.55],vertical,"(890.0, 262.0)",0.566666667,0.511,1,5487.335
,841,target,"[(1048, 896)]",[],[1],[0.6166666666666667],horizontal,"(890.0, 262.0)",1.216666667,0.574,1,5491.821
,842,target,"[(1071, 898)]",[],[1],[],horizontal,"(390.0, 762.0)",,cti_phase,0,5496.702
,843,catch,"[(1081, 882)]",[],[1],[0.6833333333333333],vertical,"(890.0, 262.0)",1.2,0.638,0,5501.237
,844,catch,"[(1068, 874)]",[],[1],[0.7333333333333333],horizontal,"(390.0, 762.0)",0.966666667,0.695,0,5506.798
,845,target,"[(1075, 887)]",[],[1],[0.5666666666666667],horizontal,"(390.0, 262.0)",0.716666667,0.524,1,5512.004
,846,catch,"[(1100, 896)]",[],[1],[0.85],horizontal,"(890.0, 762.0)",0.55,nan,1,5516.636
,847,target,"[(1070, 889)]",[],[1],[0.43333333333333335],horizontal,"(890.0, 762.0)",1.116666667,0.402,1,5521.254
,848,target,"[(1081, 895)]",[],[1],[0.6666666666666666],horizontal,"(390.0, 762.0)",1.183333333,0.62,1,5526.07
,849,catch,"[(1075, 896)]",[],[1],[0.85],horizontal,"(390.0, 762.0)",0.55,nan,1,5531.001
,850,target,"[(1099, 900)]",[],[1],[0.3],vertical,"(890.0, 762.0)",1.45,0.267,1,5535.229
,851,target,"[(1081, 900)]",[],[1],[0.85],vertical,"(890.0, 262.0)",1.133333333,nan,0,5539.768
,852,target,"[(1089, 876)]",[],[1],[0.5833333333333334],vertical,"(890.0, 262.0)",1.233333333,0.54,1,5545.024
,853,target,"[(1045, 881)]",[],[1],[0.6],horizontal,"(390.0, 762.0)",0.766666667,0.561,1,5550.403
,854,target,"[(1056, 920)]",[],[1],[0.3333333333333333],horizontal,"(890.0, 762.0)",1.316666667,0.303,1,5555.451
,855,target,"[(1063, 891)]",[],[1],[0.85],vertical,"(390.0, 762.0)",1.55,nan,0,5560.521
,856,target,"[(1075, 879)]",[],[1],[0.55],horizontal,"(890.0, 762.0)",1.266666667,0.509,1,5565.754
,857,catch,"[(1081, 898)]",[],[1],[0.7833333333333333],vertical,"(890.0, 762.0)",0.8,0.739,0,5571.069
,858,catch,"[(1081, 884)]",[],[1],[0.85],vertical,"(890.0, 762.0)",1.333333333,nan,1,5575.836
,859,target,"[(1067, 895)]",[],[1],[0.65],vertical,"(390.0, 762.0)",0.75,0.602,1,5581.368
,860,target,"[(1075, 905)]",[],[1],[0.6666666666666666],vertical,"(390.0, 762.0)",0.566666667,0.621,1,5586.499
,861,target,"[(1028, 911)]",[],[1],[0.6166666666666667],vertical,"(390.0, 762.0)",1.05,0.587,1,5591.064
,862,target,"[(1062, 893)]",[],[1],[0.6166666666666667],vertical,"(390.0, 262.0)",1.2,0.576,1,5595.927
,863,target,"[(1056, 899)]",[],[1],[0.75],horizontal,"(390.0, 762.0)",0.933333333,0.701,1,5601.186
,864,catch,"[(1060, 912)]",[],[1],[0.85],horizontal,"(390.0, 762.0)",1.633333333,nan,1,5606.046
,865,target,"[(1075, 884)]",[],[1],[0.8333333333333334],vertical,"(890.0, 762.0)",0.666666667,0.789,1,5611.335
,866,target,"[(1046, 904)]",[],[1],[0.7166666666666667],vertical,"(390.0, 762.0)",0.616666667,0.679,1,5616.248
,867,target,"[(1061, 892)]",[],[1],[0.5833333333333334],horizontal,"(890.0, 262.0)",1.5,0.542,1,5620.58
,868,target,"[(1070, 886)]",[],[1],[0.5333333333333333],horizontal,"(890.0, 762.0)",1,0.49,1,5625.753
,869,target,"[(1060, 902)]",[],[1],[0.5833333333333334],vertical,"(390.0, 262.0)",1.05,0.538,1,5630.376
,870,catch,"[(1066, 897)]",[],[1],[0.85],vertical,"(390.0, 762.0)",0.816666667,nan,1,5635.075
,871,catch,"[(1058, 909)]",[],[1],[0.8],horizontal,"(890.0, 262.0)",1.216666667,0.763,0,5639.971
,872,target,"[(1071, 894)]",[],[1],[0.7166666666666667],vertical,"(890.0, 262.0)",0.583333333,0.672,1,5645.004
,873,catch,"[(1062, 915)]",[],[1],[0.6833333333333333],vertical,"(890.0, 262.0)",0.633333333,0.641,0,5649.203
,874,catch,"[(1061, 887)]",[],[1],[0.85],vertical,"(890.0, 262.0)",1.5,nan,1,5653.968
,875,catch,"[(1066, 896)]",[],[1],[0.5833333333333334],vertical,"(890.0, 762.0)",1.033333333,0.544,0,5660.188
,876,catch,"[(1069, 890)]",[],[1],[0.5166666666666666],horizontal,"(390.0, 262.0)",1.383333333,0.478,0,5664.685
,877,catch,"[(1055, 893)]",[],[1],[0.85],horizontal,"(890.0, 262.0)",1.033333333,nan,1,5670.194
,878,catch,"[(1071, 897)]",[],[1],[0.45],vertical,"(890.0, 762.0)",0.983333333,0.417,0,5677.236
,879,catch,"[(1075, 882)]",[],[1],[0.85],horizontal,"(390.0, 262.0)",1.066666667,nan,1,5682.185
,880,target,"[(1070, 905)]",[],[1],[0.65],vertical,"(890.0, 262.0)",1.1,0.603,1,5687.098
,881,target,"[(1049, 909)]",[],[1],[0.5333333333333333],horizontal,"(890.0, 262.0)",1.316666667,0.491,1,5691.836
,882,target,"[(1088, 915)]",[],[1],[0.5666666666666667],horizontal,"(890.0, 762.0)",0.966666667,0.525,1,5696.805
,883,target,"[(1061, 905)]",[],[1],[0.5166666666666666],horizontal,"(390.0, 762.0)",1.133333333,0.475,1,5701.352
,884,target,"[(1081, 908)]",[],[1],[0.45],vertical,"(890.0, 762.0)",1.5,0.409,1,5705.887
,885,target,"[(1067, 902)]",[],[1],[0.6],vertical,"(390.0, 262.0)",0.516666667,0.559,1,5711.103
,886,target,"[(1067, 895)]",[],[1],[0.48333333333333334],vertical,"(890.0, 762.0)",1.1,0.44,1,5715.114
,887,catch,"[(1071, 909)]",[],[1],[0.85],vertical,"(390.0, 262.0)",0.933333333,nan,1,5720.013
,888,catch,"[(1061, 898)]",[],[1],[0.85],vertical,"(890.0, 262.0)",0.666666667,nan,1,5725.034
,889,target,"[(1066, 884)]",[],[1],[0.6333333333333333],horizontal,"(390.0, 762.0)",1.45,0.59,1,5729.752
,890,catch,"[(1040, 899)]",[],[1],[0.36666666666666664],horizontal,"(390.0, 762.0)",0.983333333,0.329,0,5735.233
,891,catch,"[(1071, 890)]",[],[1],[0.85],vertical,"(890.0, 762.0)",0.85,nan,1,5739.949
,892,catch,"[(1063, 906)]",[],[1],[0.85],horizontal,"(390.0, 762.0)",0.566666667,nan,1,5744.703
,893,target,"[(1058, 901)]",[],[1],[0.16666666666666666],vertical,"(390.0, 262.0)",1.333333333,0.133,1,5749.67
,894,catch,"[(1075, 898)]",[],[1],[0.36666666666666664],horizontal,"(890.0, 262.0)",1.433333333,0.33,0,5754.587
,895,catch,"[(1083, 896)]",[],[1],[0.85],horizontal,"(390.0, 262.0)",0.633333333,nan,1,5759.814
,896,catch,"[(1066, 888)]",[],[1],[0.75],horizontal,"(890.0, 262.0)",1.466666667,0.713,0,5764.074
,897,target,"[(1067, 915)]",[],[1],[0.6333333333333333],horizontal,"(390.0, 762.0)",0.933333333,0.602,1,5769.677
,898,target,"[(1058, 908)]",[],[1],[0.45],horizontal,"(390.0, 262.0)",1.266666667,0.408,1,5775.553
,899,catch,"[(1047, 897)]",[],[1],[0.25],horizontal,"(890.0, 762.0)",1.1,0.218,0,5780.697
,900,target,"[(1075, 882)]",[],[1],[0.5666666666666667],vertical,"(890.0, 762.0)",1.233333333,0.532,1,5785.6
,901,catch,"[(1069, 901)]",[],[1],[0.6166666666666667],horizontal,"(390.0, 262.0)",1.233333333,0.58,0,5790.747
,902,catch,"[(1068, 871)]",[],[1],[0.85],horizontal,"(890.0, 262.0)",0.516666667,nan,1,5795.821
,903,catch,"[(1075, 891)]",[],[1],[0.85],horizontal,"(390.0, 762.0)",1.033333333,nan,1,5800.152
,904,catch,"[(1042, 899)]",[],[1],[0.4],vertical,"(890.0, 762.0)",1.366666667,0.361,0,5805.137
,905,catch,"[(1084, 888)]",[],[1],[0.7666666666666666],vertical,"(890.0, 262.0)",1.45,0.727,0,5810.358
