block,trial,trial_type,taps_start_loc_during_fix,taps_end_loc_during_fix,taps_on_lever_during_fix,taps_on_lever_s_during_fix,bar_orientation,target_xy,cti,rt,acc,time
1,1,target,"[(911, 399), (945, 388), (1089, 833)]",[],"[0, 0, 1]",[0.4],horizontal,"(890.0, 262.0)",1.6333333333333333,0.356,1,0.024
1,2,target,"[(172, 598), (979, 774), (283, 745), (269, 653), (577, 365), (165, 365), (572, 367), (947, 379), (959, 423), (1051, 335), (1051, 296), (1061, 428), (930, 322), (1095, 911)]",[],"[0, 0, 0, 0, 0, 0, 0, 0, 0, 0, 0, 0, 0, 1]",[0.85],horizontal,"(390.0, 262.0)",1.15,nan,0,32.146
1,3,target,"[(1087, 878)]",[],[1],[0.5],horizontal,"(890.0, 262.0)",0.9333333333333333,0.457,1,5726.773
1,4,target,"[(1067, 895)]",[],[1],[0.18333333333333332],horizontal,"(890.0, 762.0)",1.4666666666666666,0.151,1,5731.381
1,5,target,"[(1085, 900)]",[],[1],[0.65],vertical,"(890.0, 262.0)",0.5,0.607,1,5735.971
1,6,target,"[(1078, 900)]",[],[1],[0.15],vertical,"(390.0, 762.0)",1.5833333333333333,0.117,1,5739.959
1,7,target,"[(1086, 908)]",[],[1],[0.5],vertical,"(390.0, 262.0)",1.4666666666666666,0.459,1,5744.988
1,8,target,"[(1072, 907)]",[],[1],[0.6166666666666667],horizontal,"(890.0, 262.0)",0.7833333333333333,0.57,1,5749.795
1,9,target,"[(1063, 880)]",[],[1],[0.6166666666666667],vertical,"(890.0, 262.0)",1.0666666666666667,0.567,1,5754.304
1,10,target,"[(1117, 902)]",[],[1],[0.3833333333333333],vertical,"(390.0, 762.0)",1.4666666666666666,0.35,1,5759.045
1,11,target,"[(1074, 886)]",[],[1],[0.85],vertical,"(890.0, 762.0)",0.5333333333333333,nan,0,5764.011
1,12,target,"[(1138, 923)]",[],[1],[0.4],vertical,"(890.0, 262.0)",1.0166666666666666,0.358,1,5768.725
1,13,target,"[(1085, 899)]",[],[1],[0.6333333333333333],horizontal,"(890.0, 262.0)",0.5,0.587,1,5773.398
1,14,target,"[(1083, 877)]",[],[1],[0.45],vertical,"(390.0, 262.0)",1.1,0.408,1,5777.862
1,15,target,"[(1085, 903)]",[],[1],[0.1],vertical,"(890.0, 262.0)",1.5166666666666666,0.068,1,5782.665
1,16,target,"[(1087, 899)]",[],[1],[0.5666666666666667],vertical,"(390.0, 262.0)",1.2166666666666666,0.526,1,5787.651
1,17,target,"[(1091, 906)]",[],[1],[],vertical,"(390.0, 262.0)",,cti_phase,0,5792.52
1,18,target,"[(1078, 890)]",[],[1],[0.5333333333333333],vertical,"(890.0, 262.0)",0.75,0.492,1,5796.963
1,19,target,"[(1059, 907)]",[],[1],[0.6],vertical,"(390.0, 762.0)",0.8166666666666667,0.553,1,5801.07
1,20,target,"[(1072, 931)]",[],[1],[0.5333333333333333],vertical,"(890.0, 262.0)",1.0166666666666666,0.495,1,5806.337
1,21,target,"[(1057, 917)]",[],[1],[0.7166666666666667],horizontal,"(390.0, 262.0)",1.45,0.677,1,5810.906
1,22,target,"[(1055, 886)]",[],[1],[],vertical,"(890.0, 262.0)",,cti_phase,0,5816.346
1,23,target,"[(1085, 898)]",[],[1],[0.26666666666666666],vertical,"(390.0, 262.0)",0.9166666666666666,0.232,1,5821.104
1,24,target,"[(1126, 905)]",[],[1],[0.7166666666666667],vertical,"(390.0, 262.0)",0.8166666666666667,0.672,1,5825.656
1,25,target,"[(1071, 898)]",[],[1],[0.6],vertical,"(390.0, 262.0)",0.7,0.559,1,5830.061
2,26,catch,"[(1076, 908)]",[],[1],[0.8166666666666667],vertical,"(890.0, 262.0)",0.9,0.775,0,5834.329
2,27,catch,"[(1090, 905)]",[],[1],[0.7],vertical,"(890.0, 262.0)",1.5833333333333333,0.66,0,5839.279
2,28,catch,"[(1119, 902)]",[],[1],[0.85],vertical,"(390.0, 262.0)",1.05,nan,1,5844.828
2,29,catch,"[(1081, 899)]",[],[1],[0.85],vertical,"(390.0, 762.0)",1.5333333333333332,nan,1,5849.829
2,30,catch,"[(1100, 897)]",[],[1],[0.85],vertical,"(890.0, 262.0)",0.5,nan,1,5855.062
2,31,catch,"[(1090, 915)]",[],[1],[0.85],horizontal,"(890.0, 262.0)",0.65,nan,1,5859.486
2,32,catch,"[(1105, 922)]",[],[1],[0.85],horizontal,"(390.0, 762.0)",0.8166666666666667,nan,1,5864.645
2,33,catch,"[(1090, 871)]",[],[1],[0.25],vertical,"(390.0, 262.0)",1.4,0.216,0,5869.646
2,34,catch,"[(1128, 900)]",[],[1],[0.85],horizontal,"(390.0, 762.0)",0.7,nan,1,5874.624
2,35,catch,"[(1082, 904)]",[],[1],[0.7166666666666667],horizontal,"(390.0, 762.0)",1.1166666666666667,0.674,0,5879.229
2,36,catch,"[(1104, 894)]",[],[1],[0.85],vertical,"(890.0, 262.0)",0.8166666666666667,nan,1,5883.912
2,37,catch,"[(1084, 876)]",[],[1],[0.6333333333333333],horizontal,"(390.0, 262.0)",1.1333333333333333,0.591,0,5888.76
2,38,catch,"[(1072, 897)]",[],[1],[0.85],horizontal,"(890.0, 262.0)",1.25,nan,1,5893.52
2,39,catch,"[(1081, 909)]",[],[1],[0.85],horizontal,"(390.0, 762.0)",0.9166666666666666,nan,1,5898.53
2,40,catch,"[(1132, 902)]",[],[1],[0.5833333333333334],vertical,"(390.0, 262.0)",1.4333333333333333,0.549,0,5903.133
2,41,catch,"[(1090, 880)]",[],[1],[0.85],horizontal,"(390.0, 762.0)",1.25,nan,1,5908.796
2,42,catch,"[(1099, 912)]",[],[1],[0.85],vertical,"(890.0, 762.0)",0.5166666666666666,nan,1,5913.878
2,43,catch,"[(1090, 901)]",[],[1],[0.85],horizontal,"(390.0, 262.0)",0.8666666666666667,nan,1,5918.203
2,44,catch,"[(1081, 892)]",[],[1],[0.7166666666666667],vertical,"(390.0, 262.0)",0.8166666666666667,0.674,0,5923.195
2,45,catch,"[(1090, 892)]",[],[1],[0.85],horizontal,"(390.0, 262.0)",1.1833333333333333,nan,1,5931.629
2,46,catch,"[(1081, 901)]",[],[1],[0.85],vertical,"(890.0, 262.0)",0.7666666666666666,nan,1,5942.578
2,47,catch,"[(1076, 907)]",[],[1],[0.85],horizontal,"(890.0, 262.0)",0.9333333333333333,nan,1,5947.251
