block,trial,trial_type,taps_start_loc_during_fix,taps_end_loc_during_fix,taps_on_lever_during_fix,taps_on_lever_s_during_fix,bar_orientation,target_xy,cti,rt,acc,time,pulses,fa_rate_recent100,p_catch
0,1,catch,"[(983, 511), (1089, 513), (87, 528), (1124, 831)]",[],"[0, 0, 0, 1]",[],horizontal,"(890.0, 262.0)",,"('fix', 0.085),nan",0,0.492,0,1.0,0.25
0,2,catch,"[(1137, 789)]",[],[1],[],vertical,"(390.0, 262.0)",1.6,nan,1,102.088,1,0.5,0.25
0,3,target,"[(1150, 842)]",[],[1],[0.5833333333333334],vertical,"(890.0, 762.0)",0.7,0.538,1,138.163,1,0.3333333333333333,0.25
0,4,target,"[(1150, 808)]",[],[1],[0.5666666666666667],vertical,"(390.0, 762.0)",0.45,0.526,1,3187.674,1,0.25,0.25
0,5,target,"[(1173, 804)]",[],[1],[0.5833333333333334],horizontal,"(890.0, 762.0)",0.48333333333333334,0.552,1,3192.43,2,0.2,0.25
0,6,target,"[(1191, 788)]",[],[1],[0.13333333333333333],horizontal,"(890.0, 262.0)",1.3666666666666667,0.101,0,3197.379,0,0.16666666666666666,0.25
0,7,target,"[(1174, 811)]",[],[1],[0.6333333333333333],vertical,"(890.0, 762.0)",0.7666666666666666,0.602,1,3201.804,1,0.14285714285714285,0.25
0,8,target,"[(1179, 764)]",[],[1],[0.5833333333333334],horizontal,"(390.0, 762.0)",0.6,0.545,1,3206.727,1,0.125,0.25
0,9,target,"[(1170, 768)]",[],[1],[0.5166666666666666],vertical,"(890.0, 262.0)",0.9166666666666666,0.48,1,3211.052,1,0.1111111111111111,0.25
0,10,target,"[(1173, 770)]",[],[1],[0.36666666666666664],vertical,"(890.0, 262.0)",1.0333333333333332,0.333,1,3216.029,2,0.1,0.25
0,11,target,"[(1168, 765)]",[],[1],[0.4166666666666667],vertical,"(890.0, 762.0)",1.4,0.379,1,3221.598,2,0.09090909090909091,0.25
0,12,target,"[(1176, 769)]",[],[1],[0.3],horizontal,"(390.0, 762.0)",0.9666666666666667,0.264,1,3227.369,2,0.08333333333333333,0.25
0,13,target,"[(1171, 786)]",[],[1],[0.5666666666666667],vertical,"(390.0, 262.0)",0.55,0.531,1,3232.665,2,0.07692307692307693,0.25
0,14,target,"[(1155, 781)]",[],[1],[0.65],horizontal,"(390.0, 762.0)",0.7,0.613,1,3237.802,3,0.07142857142857142,0.25
0,15,target,"[(1190, 770)]",[],[1],[0.7],vertical,"(390.0, 262.0)",1.0666666666666667,0.663,1,3243.687,3,0.06666666666666667,0.25
0,16,target,"[(1179, 804)]",[],[1],[0.26666666666666666],vertical,"(890.0, 762.0)",0.9,0.23,1,3249.62,3,0.0625,0.25
0,17,target,"[(1164, 778)]",[],[1],[0.5833333333333334],vertical,"(390.0, 262.0)",0.36666666666666664,0.546,1,3254.969,3,0.058823529411764705,0.25
0,18,target,"[(1153, 795)]",[],[1],[0.75],vertical,"(390.0, 762.0)",0.5833333333333334,0.706,1,3260.059,3,0.05555555555555555,0.25
0,19,target,"[(1173, 774)]",[],[1],[0.5333333333333333],horizontal,"(890.0, 762.0)",1.15,0.501,1,3265.76,3,0.05263157894736842,0.25
0,20,target,"[(1174, 772)]",[],[1],[0.25],vertical,"(890.0, 762.0)",1.45,0.218,1,3271.864,3,0.05,0.25
0,21,target,"[(1172, 782)]",[],[1],[0.6166666666666667],vertical,"(390.0, 762.0)",0.85,0.573,1,3278.035,3,0.047619047619047616,0.25
0,22,catch,"[(1150, 816)]",[],[1],[],vertical,"(890.0, 262.0)",1.6,nan,1,3284.003,3,0.045454545454545456,0.25
0,23,target,"[(1134, 794)]",[],[1],[0.5333333333333333],vertical,"(890.0, 262.0)",0.3833333333333333,0.496,1,3291.572,3,0.043478260869565216,0.25
0,24,catch,"[(1179, 750), (1141, 792)]",[],"[0, 1]",[],horizontal,"(890.0, 262.0)",,"('cti', 1.158),nan",0,3297.303,0,0.08333333333333333,0.25
0,25,target,"[(1142, 799)]",[],[1],[0.7833333333333333],vertical,"(890.0, 762.0)",1.0666666666666667,0.743,1,3303.823,1,0.08,0.25
0,26,target,"[(1138, 760)]",[],[1],[0.5],horizontal,"(890.0, 262.0)",1.1833333333333333,0.459,1,3312.313,1,0.07692307692307693,0.25
0,27,target,"[(1175, 778)]",[],[1],[0.48333333333333334],vertical,"(890.0, 262.0)",0.9333333333333333,0.446,1,3325.236,1,0.07407407407407407,0.25
0,28,target,"[(1180, 771)]",[],[1],[0.4],horizontal,"(390.0, 762.0)",1.0666666666666667,0.365,1,3330.336,2,0.07142857142857142,0.25
0,29,target,"[(1180, 768)]",[],[1],[],vertical,"(390.0, 762.0)",,"('cti', 0.917)",0,3335.32,0,0.10344827586206896,0.25
0,30,catch,"[(1175, 799)]",[],[1],[],horizontal,"(390.0, 262.0)",,"('cti', 1.48),nan",0,3339.519,0,0.13333333333333333,0.25
0,31,target,"[(1165, 803)]",[],[1],[0.8],horizontal,"(390.0, 262.0)",1.1,0.757,1,3344.403,1,0.12903225806451613,0.25
0,32,target,"[(1105, 778)]",[],[1],[0.6],vertical,"(890.0, 762.0)",0.45,0.564,1,3353.288,1,0.125,0.25
0,33,target,"[(1175, 808)]",[],[1],[0.55],horizontal,"(390.0, 762.0)",0.7,0.512,1,3360.389,1,0.12121212121212122,0.25
0,34,target,"[(1143, 798)]",[],[1],[0.26666666666666666],horizontal,"(390.0, 762.0)",1.4833333333333334,0.236,1,3365.603,2,0.11764705882352941,0.25
0,35,target,"[(1194, 799)]",[],[1],[0.85],vertical,"(890.0, 262.0)",0.3833333333333333,nan,0,3371.353,0,0.11428571428571428,0.25
0,36,target,"[(1153, 808)]",[],[1],[0.5666666666666667],horizontal,"(890.0, 762.0)",1.0666666666666667,0.526,1,3425.787,1,0.1111111111111111,0.25
0,37,catch,"[(1195, 778)]",[],[1],[],horizontal,"(390.0, 762.0)",1.6,nan,1,3431.387,1,0.10810810810810811,0.25
0,38,catch,"[(1174, 779)]",[],[1],[],horizontal,"(390.0, 762.0)",,"('cti', 1.583),nan",0,3436.787,0,0.13157894736842105,0.25
0,39,target,"[(1158, 794)]",[],[1],[0.85],horizontal,"(890.0, 262.0)",0.7166666666666667,nan,0,3441.37,0,0.1282051282051282,0.25
0,40,target,"[(1139, 782)]",[],[1],[0.85],vertical,"(890.0, 762.0)",0.6333333333333333,nan,0,3458.686,0,0.125,0.25
0,41,catch,"[(1146, 790)]",[],[1],[],horizontal,"(890.0, 762.0)",1.6,nan,1,3462.936,1,0.12195121951219512,0.25
0,42,target,"[(1165, 777)]",[],[1],[0.43333333333333335],vertical,"(890.0, 262.0)",1.4166666666666667,0.398,1,3468.443,1,0.11904761904761904,0.25
0,43,catch,"[(1163, 803)]",[],[1],[],horizontal,"(890.0, 262.0)",,"('cti', 1.181),nan",0,3473.936,0,0.13953488372093023,0.25
0,44,target,"[(1180, 805)]",[],[1],[],vertical,"(390.0, 262.0)",,"('cti', 1.376)",0,3478.635,0,0.1590909090909091,0.25
0,45,target,"[(1155, 791)]",[],[1],[0.5666666666666667],horizontal,"(390.0, 262.0)",0.8333333333333334,0.533,1,3483.085,1,0.15555555555555556,0.25
0,46,target,"[(1162, 769)]",[],[1],[0.48333333333333334],horizontal,"(890.0, 262.0)",1.4166666666666667,0.443,1,3490.837,1,0.15217391304347827,0.25
0,47,target,"[(1164, 785)]",[],[1],[0.4],horizontal,"(890.0, 262.0)",1.3,0.361,1,3496.103,1,0.14893617021276595,0.25
0,48,target,"[(1165, 784)]",[],[1],[0.5833333333333334],horizontal,"(890.0, 262.0)",0.5166666666666666,0.54,1,3501.639,2,0.14583333333333334,0.25
0,49,target,"[(1180, 773)]",[],[1],[0.85],horizontal,"(890.0, 262.0)",0.9,nan,0,3506.453,0,0.14285714285714285,0.25
0,50,catch,"[(1176, 779)]",[],[1],[],horizontal,"(390.0, 762.0)",1.6,nan,1,3511.287,1,0.14,0.25
0,51,target,"[(1198, 761)]",[],[1],[0.5666666666666667],vertical,"(890.0, 262.0)",0.4666666666666667,0.523,1,3516.601,1,0.12,0.25
0,52,catch,"[(1176, 785)]",[],[1],[],horizontal,"(890.0, 262.0)",1.6,nan,1,3520.83,1,0.12,0.25
0,53,target,"[(1169, 778)]",[],[1],[0.6],vertical,"(890.0, 262.0)",0.4,0.554,1,3526.154,2,0.12,0.25
0,54,target,"[(1172, 782)]",[],[1],[0.45],horizontal,"(390.0, 762.0)",1.4,0.41,1,3531.116,2,0.12,0.25
0,55,catch,"[(1179, 787)]",[],[1],[],vertical,"(890.0, 762.0)",1.6,nan,1,3537.121,2,0.12,0.25
0,56,target,"[(1174, 785)]",[],[1],[0.4166666666666667],vertical,"(890.0, 762.0)",1.3666666666666667,0.377,1,3542.572,2,0.12,0.25
0,57,target,"[(1165, 776)]",[],[1],[0.55],horizontal,"(890.0, 262.0)",1.1666666666666667,0.507,1,3548.321,3,0.12,0.25
0,58,target,"[(1183, 766)]",[],[1],[0.6166666666666667],horizontal,"(390.0, 762.0)",1.0166666666666666,0.58,1,3554.487,3,0.12,0.25
0,59,target,"[(1177, 764)]",[],[1],[0.5333333333333333],horizontal,"(890.0, 762.0)",1.0833333333333333,0.491,1,3560.604,3,0.12,0.25
0,60,target,"[(1169, 779)]",[],[1],[0.5666666666666667],horizontal,"(890.0, 262.0)",0.5833333333333334,0.526,1,3566.538,3,0.12,0.25
0,61,target,"[(1161, 763)]",[],[1],[0.5333333333333333],vertical,"(890.0, 762.0)",0.8333333333333334,0.488,1,3572.071,3,0.12,0.25
0,62,target,"[(1172, 792)]",[],[1],[0.6166666666666667],vertical,"(390.0, 762.0)",0.65,0.573,1,3577.662,3,0.12,0.25
0,63,target,"[(1193, 787)]",[],[1],[0.55],vertical,"(890.0, 762.0)",1.3166666666666667,0.508,1,3583.319,3,0.12,0.25
0,64,target,"[(1167, 776)]",[],[1],[0.5666666666666667],vertical,"(390.0, 262.0)",0.5833333333333334,0.526,1,3589.324,3,0.12,0.25
0,65,target,"[(1150, 771)]",[],[1],[0.5833333333333334],vertical,"(890.0, 262.0)",0.6333333333333333,0.535,1,3594.52,3,0.12,0.25
0,66,target,"[(1180, 782)]",[],[1],[0.5833333333333334],vertical,"(890.0, 262.0)",0.6833333333333333,0.533,1,3599.687,3,0.12,0.25
0,67,target,"[(1176, 778)]",[],[1],[0.3],vertical,"(390.0, 762.0)",1.4666666666666666,0.261,1,3604.956,3,0.12,0.25
0,68,catch,"[(1178, 762)]",[],[1],[],vertical,"(890.0, 762.0)",1.6,nan,1,3611.01,3,0.12,0.25
0,69,target,"[(1180, 778)]",[],[1],[0.6],horizontal,"(390.0, 262.0)",0.7,0.56,1,3616.62,3,0.12,0.25
0,70,catch,"[(1183, 777)]",[],[1],[],horizontal,"(890.0, 762.0)",1.6,nan,1,3622.103,3,0.12,0.25
0,71,target,"[(1181, 769)]",[],[1],[0.5833333333333334],vertical,"(890.0, 762.0)",0.65,0.541,1,3627.979,3,0.12,0.25
0,72,target,"[(1165, 785)]",[],[1],[0.5],vertical,"(390.0, 262.0)",0.9166666666666666,0.46,1,3633.802,3,0.12,0.25
0,73,target,"[(1160, 776)]",[],[1],[0.6666666666666666],vertical,"(390.0, 262.0)",1.0666666666666667,0.628,1,3639.765,3,0.12,0.25
0,74,target,"[(1184, 772)]",[],[1],[0.45],horizontal,"(390.0, 262.0)",1.1666666666666667,0.41,1,3645.478,3,0.1,0.25
0,75,target,"[(1180, 773)]",[],[1],[0.6333333333333333],vertical,"(890.0, 262.0)",0.35,0.59,1,3651.512,3,0.1,0.25
0,76,catch,"[(1180, 749), (1172, 801)]",[],"[0, 1]",[],vertical,"(890.0, 762.0)",1.6,nan,1,3657.221,3,0.1,0.25
0,77,target,"[(1160, 776)]",[],[1],[0.5166666666666666],horizontal,"(390.0, 262.0)",1.2666666666666666,0.474,1,3664.11,3,0.1,0.25
0,78,target,"[(1159, 774)]",[],[1],[0.15],vertical,"(890.0, 762.0)",1.5333333333333332,0.117,0,3670.277,0,0.1,0.25
0,79,target,"[(1181, 798)]",[],[1],[0.6],horizontal,"(390.0, 262.0)",0.4166666666666667,0.557,1,3674.721,1,0.08,0.25
0,80,target,"[(1159, 764)]",[],[1],[0.5666666666666667],vertical,"(890.0, 762.0)",1.3666666666666667,0.526,1,3679.524,1,0.06,0.25
0,81,target,"[(1169, 784)]",[],[1],[0.5833333333333334],vertical,"(890.0, 762.0)",0.85,0.539,1,3685.036,1,0.06,0.25
0,82,catch,"[(1180, 790)]",[],[1],[],vertical,"(890.0, 762.0)",,"('cti', 1.272),nan",0,3689.803,0,0.08,0.25
0,83,catch,"[(1174, 789)]",[],[1],[],vertical,"(890.0, 262.0)",1.6,nan,1,3694.15,1,0.08,0.25
0,84,target,"[(1154, 795)]",[],[1],[0.6333333333333333],vertical,"(390.0, 762.0)",0.85,0.592,1,3699.31,1,0.08,0.25
0,85,catch,"[(1155, 784)]",[],[1],[],vertical,"(890.0, 262.0)",1.6,nan,1,3704.587,1,0.08,0.25
0,86,target,"[(1167, 804)]",[],[1],[0.55],horizontal,"(890.0, 762.0)",1.1333333333333333,0.503,1,3709.746,2,0.08,0.25
0,87,target,"[(1181, 799)]",[],[1],[0.5666666666666667],horizontal,"(390.0, 262.0)",0.4666666666666667,0.525,1,3718.96,2,0.08,0.25
0,88,target,"[(1165, 785)]",[],[1],[0.5166666666666666],horizontal,"(890.0, 262.0)",0.5,0.476,1,3723.838,2,0.06,0.25
0,89,target,"[(1176, 779)]",[],[1],[0.1],horizontal,"(890.0, 262.0)",0.9666666666666667,0.068,0,3728.587,0,0.06,0.25
0,90,target,"[(1166, 789)]",[],[1],[0.5166666666666666],horizontal,"(390.0, 762.0)",1.1666666666666667,0.474,1,3732.523,1,0.06,0.25
0,91,target,"[(1184, 799)]",[],[1],[0.5666666666666667],vertical,"(390.0, 262.0)",0.43333333333333335,0.525,1,3737.644,1,0.06,0.25
0,92,target,"[(1178, 779)]",[],[1],[0.5833333333333334],vertical,"(890.0, 262.0)",0.5333333333333333,0.541,1,3742.304,1,0.06,0.25
0,93,target,"[(1180, 777)]",[],[1],[0.65],vertical,"(890.0, 262.0)",1.1833333333333333,0.604,1,3746.921,2,0.04,0.25
0,94,target,"[(1180, 769)]",[],[1],[0.4166666666666667],horizontal,"(390.0, 762.0)",0.9666666666666667,0.375,1,3752.447,2,0.02,0.25
0,95,catch,"[(1175, 776)]",[],[1],[],vertical,"(390.0, 762.0)",1.6,nan,1,3757.97,2,0.02,0.25
0,96,target,"[(1159, 787)]",[],[1],[0.5333333333333333],horizontal,"(390.0, 762.0)",0.8833333333333333,0.494,1,3763.738,2,0.02,0.25
0,97,catch,"[(1180, 774)]",[],[1],[],vertical,"(890.0, 262.0)",1.6,nan,1,3769.194,3,0.02,0.25
0,98,target,"[(1157, 785)]",[],[1],[0.55],vertical,"(890.0, 262.0)",0.7333333333333333,0.508,1,3775.156,3,0.02,0.25
0,99,target,"[(1180, 776)]",[],[1],[0.3333333333333333],horizontal,"(390.0, 762.0)",1.2833333333333332,0.298,1,3780.601,3,0.02,0.25
0,100,target,"[(1176, 778)]",[],[1],[0.6333333333333333],vertical,"(390.0, 262.0)",1.15,0.586,1,3786.621,3,0.02,0.25
0,101,target,"[(1178, 781)]",[],[1],[0.5],vertical,"(390.0, 262.0)",0.6333333333333333,0.455,1,3792.741,3,0.02,0.25
0,102,target,"[(1177, 773)]",[],[1],[0.5666666666666667],horizontal,"(390.0, 762.0)",0.7666666666666666,0.525,1,3798.464,3,0.02,0.25
0,103,target,"[(1170, 777)]",[],[1],[],horizontal,"(890.0, 262.0)",,"('cti', 0.953)",0,3804.011,0,0.04,0.25
0,104,target,"[(1160, 803)]",[],[1],[0.48333333333333334],vertical,"(890.0, 762.0)",0.6333333333333333,0.445,1,3808.219,1,0.04,0.25
0,105,target,"[(1180, 790)]",[],[1],[0.85],horizontal,"(890.0, 762.0)",0.35,nan,0,3812.98,0,0.04,0.25
0,106,catch,"[(1153, 782)]",[],[1],[],horizontal,"(890.0, 762.0)",1.6,nan,1,3816.905,1,0.04,0.25
0,107,target,"[(1190, 780)]",[],[1],[0.7],horizontal,"(890.0, 262.0)",0.5666666666666667,0.658,1,3821.728,1,0.04,0.25
0,108,target,"[(1178, 773)]",[],[1],[0.5],vertical,"(390.0, 762.0)",1.2666666666666666,0.457,1,3826.038,1,0.04,0.25
0,109,catch,"[(1185, 780)]",[],[1],[],vertical,"(890.0, 762.0)",1.6,nan,1,3831.438,2,0.04,0.25
0,110,target,"[(1185, 793)]",[],[1],[0.55],vertical,"(890.0, 762.0)",0.85,0.512,1,3836.787,2,0.04,0.25
0,111,target,"[(1180, 786)]",[],[1],[0.7],horizontal,"(890.0, 762.0)",1.0,0.653,1,3842.054,2,0.04,0.25
0,112,target,"[(1151, 779)]",[],[1],[0.85],vertical,"(890.0, 762.0)",0.5666666666666667,nan,0,3847.521,0,0.04,0.25
0,113,target,"[(1150, 784)]",[],[1],[0.6],horizontal,"(390.0, 262.0)",1.05,0.558,1,3852.488,1,0.04,0.25
0,114,catch,"[(1174, 761)]",[],[1],[],horizontal,"(890.0, 762.0)",1.6,nan,1,3857.958,1,0.04,0.25
0,115,catch,"[(1179, 778)]",[],[1],[],horizontal,"(390.0, 762.0)",1.6,nan,1,3863.188,1,0.04,0.25
0,116,catch,"[(1183, 771)]",[],[1],[],horizontal,"(890.0, 762.0)",1.6,nan,1,3868.26,2,0.04,0.25
0,117,catch,"[(1185, 758)]",[],[1],[],horizontal,"(890.0, 262.0)",1.6,nan,1,3873.971,2,0.04,0.25
0,118,target,"[(1181, 789)]",[],[1],[0.6333333333333333],vertical,"(390.0, 762.0)",0.9333333333333333,0.591,1,3879.653,2,0.04,0.25
0,119,target,"[(1174, 774)]",[],[1],[0.6666666666666666],horizontal,"(390.0, 762.0)",0.75,0.623,1,3884.905,2,0.04,0.25
0,120,catch,"[(1181, 788)]",[],[1],[],vertical,"(390.0, 762.0)",1.6,nan,1,3890.039,3,0.04,0.25
0,121,catch,"[(1165, 777)]",[],[1],[],horizontal,"(390.0, 762.0)",1.6,nan,1,3895.805,3,0.04,0.25
0,122,target,"[(1160, 774)]",[],[1],[0.5166666666666666],horizontal,"(390.0, 262.0)",0.8333333333333334,0.479,1,3901.855,3,0.04,0.25
0,123,target,"[(1151, 779)]",[],[1],[0.6333333333333333],horizontal,"(390.0, 262.0)",0.85,0.587,1,3907.694,3,0.04,0.25
0,124,target,"[(1181, 778)]",[],[1],[0.2833333333333333],horizontal,"(390.0, 262.0)",1.45,0.248,1,3913.331,3,0.04,0.25
0,125,target,"[(1183, 781)]",[],[1],[0.55],vertical,"(890.0, 762.0)",0.43333333333333335,0.518,1,3919.171,3,0.04,0.25
0,126,target,"[(1156, 771)]",[],[1],[0.85],horizontal,"(390.0, 762.0)",1.0,nan,0,3924.322,0,0.04,0.25
0,127,target,"[(1165, 788)]",[],[1],[0.55],horizontal,"(390.0, 262.0)",0.7666666666666666,0.51,1,3928.805,1,0.04,0.25
0,128,target,"[(1177, 770)]",[],[1],[0.6166666666666667],vertical,"(890.0, 262.0)",0.45,0.578,1,3934.038,1,0.04,0.25
0,129,catch,"[(1177, 784)]",[],[1],[],vertical,"(890.0, 262.0)",1.6,nan,1,3938.654,1,0.04,0.25
0,130,target,"[(1181, 773)]",[],[1],[0.7166666666666667],vertical,"(390.0, 262.0)",0.9166666666666666,0.675,1,3943.789,2,0.04,0.25
0,131,target,"[(1175, 764)]",[],[1],[0.5666666666666667],vertical,"(890.0, 262.0)",1.2333333333333334,0.521,1,3949.325,2,0.04,0.25
0,132,target,"[(1180, 780)]",[],[1],[0.7166666666666667],vertical,"(390.0, 262.0)",0.4,0.667,1,3954.897,2,0.02,0.25
0,133,target,"[(1179, 798)]",[],[1],[0.5166666666666666],horizontal,"(890.0, 262.0)",1.1166666666666667,0.481,1,3960.004,2,0.02,0.25
0,134,target,"[(1180, 789)]",[],[1],[0.2833333333333333],vertical,"(390.0, 262.0)",1.5333333333333332,0.245,1,3966.005,3,0.02,0.25
0,135,catch,"[(1177, 773)]",[],[1],[],vertical,"(390.0, 262.0)",1.6,nan,1,3971.963,3,0.02,0.25
0,136,target,"[(1160, 783)]",[],[1],[0.6166666666666667],vertical,"(890.0, 262.0)",0.85,0.576,1,3977.804,3,0.02,0.25
0,137,target,"[(1174, 789)]",[],[1],[0.6833333333333333],horizontal,"(890.0, 262.0)",1.2833333333333332,0.634,1,3983.805,3,0.02,0.25
0,138,target,"[(1165, 774)]",[],[1],[0.65],vertical,"(890.0, 262.0)",1.1333333333333333,0.619,1,3989.722,3,0.02,0.25
0,139,target,"[(1163, 776)]",[],[1],[0.6833333333333333],horizontal,"(390.0, 262.0)",1.0666666666666667,0.643,1,3995.838,3,0.02,0.25
0,140,catch,"[(1175, 747), (1155, 782)]",[],"[0, 1]",[],horizontal,"(390.0, 262.0)",,"('cti', 1.197),nan",0,4001.889,0,0.04,0.25
0,141,target,"[(1159, 803)]",[],[1],[0.5166666666666666],vertical,"(890.0, 762.0)",1.0833333333333333,0.483,1,4007.638,1,0.04,0.25
0,142,catch,"[(1159, 774)]",[],[1],[],horizontal,"(890.0, 262.0)",1.6,nan,1,4012.727,1,0.04,0.25
0,143,target,"[(1172, 760)]",[],[1],[0.5666666666666667],horizontal,"(890.0, 262.0)",1.1333333333333333,0.522,1,4017.322,1,0.04,0.25
0,144,target,"[(1158, 768)]",[],[1],[0.6666666666666666],horizontal,"(390.0, 262.0)",0.48333333333333334,0.628,1,4022.416,2,0.04,0.25
0,145,target,"[(1157, 753), (1156, 795)]",[],"[0, 1]",[0.5],horizontal,"(390.0, 262.0)",0.9333333333333333,0.463,1,4027.054,2,0.04,0.25
0,146,target,"[(1155, 786)]",[],[1],[0.5333333333333333],vertical,"(390.0, 762.0)",1.3166666666666667,0.494,1,4033.547,2,0.04,0.25
0,147,target,"[(1155, 774)]",[],[1],[0.85],horizontal,"(890.0, 762.0)",0.4666666666666667,nan,0,4039.233,0,0.04,0.25
0,148,target,"[(1155, 774)]",[],[1],[0.48333333333333334],horizontal,"(390.0, 762.0)",1.2833333333333332,0.446,1,4043.922,1,0.04,0.25
0,149,target,"[(1168, 774)]",[],[1],[0.75],vertical,"(890.0, 262.0)",0.9,0.725,1,4049.463,1,0.04,0.25
0,150,target,"[(1167, 777)]",[],[1],[0.4166666666666667],vertical,"(390.0, 262.0)",1.3833333333333333,0.38,1,4054.739,1,0.04,0.25
0,151,target,"[(1174, 766)]",[],[1],[0.6],vertical,"(890.0, 262.0)",0.4,0.564,1,4059.821,2,0.04,0.25
0,152,target,"[(1173, 771)]",[],[1],[0.55],horizontal,"(390.0, 262.0)",0.85,0.51,1,4065.192,2,0.04,0.25
0,153,target,"[(1173, 780)]",[],[1],[0.35],horizontal,"(890.0, 262.0)",1.0,0.312,1,4070.505,2,0.02,0.25
0,154,catch,"[(1170, 777)]",[],[1],[],horizontal,"(390.0, 262.0)",1.6,nan,1,4075.905,2,0.02,0.25
0,155,target,"[(1174, 782)]",[],[1],[0.18333333333333332],horizontal,"(890.0, 262.0)",1.5333333333333332,0.15,0,4081.788,0,0.02,0.25
0,156,target,"[(1172, 787)]",[],[1],[0.6166666666666667],horizontal,"(390.0, 262.0)",0.4666666666666667,0.577,1,4086.756,1,0.02,0.25
0,157,target,"[(1180, 781)]",[],[1],[0.26666666666666666],vertical,"(890.0, 762.0)",1.3,0.23,1,4090.956,1,0.02,0.25
0,158,catch,"[(1172, 808)]",[],[1],[],horizontal,"(390.0, 262.0)",1.6,nan,1,4096.417,1,0.02,0.25
0,159,catch,"[(1176, 793)]",[],[1],[],vertical,"(890.0, 262.0)",1.6,nan,1,4101.138,2,0.02,0.25
0,160,target,"[(1167, 758)]",[],[1],[0.5666666666666667],horizontal,"(390.0, 262.0)",1.1666666666666667,0.518,1,4106.822,2,0.02,0.25
0,161,target,"[(1173, 782)]",[],[1],[],horizontal,"(890.0, 262.0)",,"('cti', 1.283)",0,4112.201,0,0.04,0.25
0,162,catch,"[(1174, 794)]",[],[1],[],vertical,"(890.0, 762.0)",1.6,nan,1,4116.93,1,0.04,0.25
0,163,target,"[(1165, 771)]",[],[1],[0.25],horizontal,"(890.0, 762.0)",1.4833333333333334,0.215,1,4121.861,1,0.04,0.25
0,164,catch,"[(1160, 785)]",[],[1],[],horizontal,"(390.0, 762.0)",1.6,nan,1,4127.448,1,0.04,0.25
0,165,target,"[(1174, 760)]",[],[1],[0.4],horizontal,"(890.0, 762.0)",1.1666666666666667,0.361,1,4132.473,2,0.04,0.25
0,166,target,"[(1167, 767)]",[],[1],[0.6],horizontal,"(390.0, 262.0)",0.8666666666666667,0.562,1,4138.273,2,0.04,0.25
0,167,catch,"[(1159, 764)]",[],[1],[],vertical,"(890.0, 262.0)",1.6,nan,1,4143.329,2,0.04,0.25
0,168,target,"[(1178, 755)]",[],[1],[0.18333333333333332],vertical,"(890.0, 762.0)",1.4833333333333334,0.148,0,4149.022,0,0.04,0.25
0,169,target,"[(1168, 789)]",[],[1],[0.6833333333333333],vertical,"(390.0, 762.0)",0.36666666666666664,0.639,1,4153.856,1,0.04,0.25
0,170,target,"[(1160, 782)]",[],[1],[0.5833333333333334],horizontal,"(390.0, 762.0)",1.0,0.546,1,4158.841,1,0.04,0.25
0,171,target,"[(1187, 765)]",[],[1],[0.65],vertical,"(890.0, 262.0)",0.5333333333333333,0.607,1,4164.155,1,0.04,0.25
0,172,target,"[(1155, 774)]",[],[1],[0.05],horizontal,"(890.0, 262.0)",0.9833333333333333,0.018,0,4168.572,0,0.04,0.25
0,173,target,"[(1177, 795)]",[],[1],[0.5666666666666667],vertical,"(890.0, 762.0)",0.7666666666666666,0.519,1,4172.876,1,0.04,0.25
0,174,target,"[(1155, 756)]",[],[1],[0.65],vertical,"(390.0, 262.0)",1.0666666666666667,0.608,1,4177.945,1,0.04,0.25
0,175,target,"[(1156, 773)]",[],[1],[0.55],horizontal,"(890.0, 262.0)",1.3166666666666667,0.509,1,4182.841,1,0.04,0.25
0,176,catch,"[(1150, 806)]",[],[1],[],horizontal,"(890.0, 262.0)",1.6,nan,1,4188.036,2,0.04,0.25
0,177,catch,"[(1180, 767)]",[],[1],[0.03333333333333333],horizontal,"(390.0, 762.0)",1.6,"0.019,nan",0,4193.573,0,0.06,0.25
0,178,target,"[(1154, 798)]",[],[1],[0.85],vertical,"(390.0, 262.0)",0.48333333333333334,nan,0,4198.106,0,0.06,0.25
0,179,target,"[(1130, 759)]",[],[1],[0.65],horizontal,"(390.0, 262.0)",0.9,0.604,1,4202.311,1,0.06,0.25
0,180,target,"[(1154, 784)]",[],[1],[0.6333333333333333],vertical,"(890.0, 762.0)",0.7833333333333333,0.594,1,4207.638,1,0.06,0.25
0,181,target,"[(1179, 797)]",[],[1],[0.6],vertical,"(890.0, 762.0)",0.8333333333333334,0.558,1,4212.656,1,0.06,0.25
0,182,catch,"[(1170, 803)]",[],[1],[],horizontal,"(890.0, 762.0)",1.6,nan,1,4217.684,2,0.06,0.25
0,183,target,"[(1184, 769)]",[],[1],[0.55],vertical,"(390.0, 262.0)",0.4166666666666667,0.51,1,4223.239,2,0.06,0.25
0,184,catch,"[(1173, 805)]",[],[1],[],vertical,"(890.0, 762.0)",1.6,nan,1,4228.093,2,0.06,0.25
0,185,catch,"[(1175, 781)]",[],[1],[],horizontal,"(390.0, 762.0)",,"('cti', 1.507),nan",0,4233.986,0,0.08,0.25
0,186,catch,"[(1151, 794)]",[],[1],[],vertical,"(890.0, 762.0)",1.6,nan,1,4239.008,1,0.08,0.25
0,187,target,"[(1176, 784)]",[],[1],[0.48333333333333334],horizontal,"(890.0, 762.0)",1.3166666666666667,0.44,1,4244.155,1,0.08,0.25
0,188,target,"[(1154, 770)]",[],[1],[0.55],vertical,"(390.0, 262.0)",0.7,0.507,1,4249.161,1,0.08,0.25
0,189,target,"[(1160, 782)]",[],[1],[0.48333333333333334],vertical,"(890.0, 262.0)",1.3833333333333333,0.445,1,4253.558,2,0.08,0.25
0,190,target,"[(1190, 769)]",[],[1],[0.6],horizontal,"(890.0, 262.0)",1.3666666666666667,0.551,1,4259.129,2,0.06,0.25
0,191,target,"[(1180, 770)]",[],[1],[0.5333333333333333],vertical,"(890.0, 762.0)",1.25,0.493,1,4265.055,2,0.06,0.25
0,192,catch,"[(1179, 782)]",[],[1],[],horizontal,"(390.0, 762.0)",1.6,nan,1,4270.781,2,0.06,0.25
0,193,target,"[(1160, 808)]",[],[1],[0.55],horizontal,"(890.0, 262.0)",0.9666666666666667,0.509,1,4276.771,3,0.06,0.25
0,194,target,"[(1179, 794)]",[],[1],[0.5833333333333334],vertical,"(890.0, 762.0)",0.95,0.535,1,4282.556,3,0.06,0.25
0,195,catch,"[(1158, 779)]",[],[1],[],vertical,"(890.0, 762.0)",1.6,nan,1,4288.188,3,0.06,0.25
0,196,target,"[(1178, 777)]",[],[1],[0.6666666666666666],vertical,"(890.0, 762.0)",1.2333333333333334,0.623,1,4294.472,3,0.06,0.25
0,197,target,"[(1181, 774)]",[],[1],[0.45],horizontal,"(390.0, 262.0)",1.2166666666666666,0.411,1,4300.605,3,0.06,0.25
0,198,target,"[(1175, 764)]",[],[1],[0.3333333333333333],vertical,"(390.0, 762.0)",1.4833333333333334,0.295,1,4306.457,3,0.06,0.25
0,199,target,"[(1168, 769)]",[],[1],[0.55],vertical,"(390.0, 262.0)",0.6,0.511,1,4312.347,3,0.06,0.25
0,200,catch,"[(1175, 786)]",[],[1],[],vertical,"(890.0, 262.0)",1.6,nan,1,4317.685,3,0.06,0.25
0,201,target,"[(1177, 782)]",[],[1],[0.5666666666666667],horizontal,"(390.0, 762.0)",0.4,0.521,1,4323.321,3,0.06,0.25
0,202,target,"[(1178, 774)]",[],[1],[0.3833333333333333],vertical,"(890.0, 762.0)",1.3166666666666667,0.345,1,4328.272,3,0.06,0.25
0,203,target,"[(1160, 755)]",[],[1],[0.6666666666666666],horizontal,"(890.0, 262.0)",1.0833333333333333,0.622,1,4334.247,3,0.06,0.25
0,204,target,"[(1155, 783)]",[],[1],[0.08333333333333333],horizontal,"(390.0, 762.0)",1.4,0.051,0,4340.029,0,0.06,0.25
0,205,target,"[(1155, 782)]",[],[1],[0.7],horizontal,"(890.0, 762.0)",0.8,0.655,1,4345.085,1,0.06,0.25
0,206,catch,"[(1159, 775)]",[],[1],[],vertical,"(390.0, 262.0)",1.6,nan,1,4349.967,1,0.06,0.25
0,207,target,"[(1175, 770)]",[],[1],[],horizontal,"(390.0, 762.0)",,"('cti', 1.284)",0,4354.817,0,0.08,0.25
0,208,catch,"[(1161, 797)]",[],[1],[],horizontal,"(390.0, 262.0)",1.6,nan,1,4359.342,1,0.08,0.25
0,209,target,"[(1174, 778)]",[],[1],[0.5666666666666667],vertical,"(890.0, 262.0)",0.9,0.53,1,4364.684,1,0.08,0.25
0,210,catch,"[(1158, 760)]",[],[1],[],vertical,"(390.0, 762.0)",1.6,nan,1,4369.556,1,0.08,0.25
0,211,catch,"[(1179, 755)]",[],[1],[],vertical,"(890.0, 262.0)",1.6,nan,1,4374.169,2,0.06,0.25
0,212,catch,"[(1183, 779)]",[],[1],[],vertical,"(390.0, 262.0)",1.6,nan,1,4379.43,2,0.06,0.25
0,213,target,"[(1155, 778)]",[],[1],[0.85],vertical,"(390.0, 762.0)",0.6833333333333333,nan,0,4384.74,0,0.06,0.25
0,214,catch,"[(1155, 788)]",[],[1],[],vertical,"(390.0, 762.0)",1.6,nan,1,4389.273,1,0.06,0.25
0,215,target,"[(1180, 760)]",[],[1],[0.3833333333333333],horizontal,"(890.0, 762.0)",1.45,0.344,1,4394.715,1,0.06,0.25
0,216,target,"[(1181, 771)]",[],[1],[0.7],vertical,"(390.0, 262.0)",0.5833333333333334,0.655,1,4399.688,1,0.06,0.25
0,217,target,"[(1154, 798)]",[],[1],[0.6166666666666667],vertical,"(390.0, 262.0)",0.8333333333333334,0.571,1,4404.025,2,0.06,0.25
0,218,catch,"[(1174, 781)]",[],[1],[],vertical,"(890.0, 262.0)",1.6,nan,1,4409.333,2,0.06,0.25
0,219,target,"[(1181, 778)]",[],[1],[0.5833333333333334],horizontal,"(390.0, 762.0)",0.3833333333333333,0.539,1,4415.289,2,0.06,0.25
0,220,target,"[(1178, 793)]",[],[1],[0.85],vertical,"(390.0, 762.0)",0.5833333333333334,nan,0,4419.963,0,0.06,0.25
0,221,target,"[(1147, 788)]",[],[1],[0.7166666666666667],vertical,"(890.0, 762.0)",1.1,0.672,1,4424.293,1,0.06,0.25
0,222,catch,"[(1155, 773)]",[],[1],[],vertical,"(390.0, 762.0)",1.6,nan,1,4429.275,1,0.06,0.25
0,223,catch,"[(1155, 773)]",[],[1],[],vertical,"(390.0, 262.0)",1.6,nan,1,4434.454,1,0.06,0.25
0,224,target,"[(1180, 774)]",[],[1],[0.4666666666666667],horizontal,"(890.0, 762.0)",1.4833333333333334,0.424,1,4439.773,2,0.06,0.25
0,225,target,"[(1158, 786)]",[],[1],[0.7],horizontal,"(390.0, 762.0)",1.0,0.654,1,4445.381,2,0.06,0.25
0,226,target,"[(1190, 783)]",[],[1],[0.6166666666666667],vertical,"(890.0, 762.0)",0.6333333333333333,0.577,1,4451.022,2,0.06,0.25
0,227,target,"[(1181, 783)]",[],[1],[0.6833333333333333],vertical,"(890.0, 262.0)",0.7666666666666666,0.636,1,4456.155,2,0.04,0.25
0,228,target,"[(1158, 784)]",[],[1],[0.5333333333333333],vertical,"(890.0, 262.0)",0.9166666666666666,0.493,1,4461.263,3,0.04,0.25
0,229,target,"[(1172, 779)]",[],[1],[0.6333333333333333],horizontal,"(890.0, 762.0)",1.1333333333333333,0.59,1,4466.906,3,0.04,0.25
0,230,target,"[(1145, 776)]",[],[1],[0.6],vertical,"(390.0, 262.0)",0.75,0.548,1,4472.871,3,0.04,0.25
0,231,catch,"[(1166, 765)]",[],[1],[],horizontal,"(890.0, 762.0)",1.6,nan,1,4478.222,3,0.04,0.25
0,232,target,"[(1157, 764)]",[],[1],[0.21666666666666667],vertical,"(390.0, 762.0)",1.45,0.18,0,4484.472,0,0.04,0.25
0,233,catch,"[(1180, 792)]",[],[1],[],vertical,"(890.0, 262.0)",1.6,nan,1,4489.105,1,0.04,0.25
0,234,target,"[(1149, 769)]",[],[1],[0.36666666666666664],vertical,"(390.0, 262.0)",1.45,0.331,1,4494.483,1,0.04,0.25
0,235,target,"[(1167, 777)]",[],[1],[],vertical,"(390.0, 262.0)",,"('cti', 1.43)",0,4499.832,0,0.04,0.25
0,236,target,"[(1182, 793)]",[],[1],[0.6],vertical,"(390.0, 762.0)",0.8833333333333333,0.563,1,4504.472,1,0.04,0.25
0,237,target,"[(1174, 779)]",[],[1],[0.6166666666666667],vertical,"(390.0, 262.0)",0.8333333333333334,0.581,1,4509.679,1,0.04,0.25
0,238,catch,"[(1147, 805)]",[],[1],[],vertical,"(390.0, 762.0)",1.6,nan,1,4514.74,1,0.04,0.25
0,239,target,"[(1178, 761)]",[],[1],[0.5333333333333333],vertical,"(390.0, 262.0)",0.6833333333333333,0.494,1,4519.932,2,0.04,0.25
0,240,target,"[(1176, 776)]",[],[1],[0.7166666666666667],vertical,"(390.0, 262.0)",0.8833333333333333,0.676,1,4525.172,2,0.04,0.25
0,241,target,"[(1178, 796)]",[],[1],[0.5166666666666666],vertical,"(890.0, 262.0)",1.1833333333333333,0.477,1,4531.102,2,0.04,0.25
0,242,target,"[(1181, 781)]",[],[1],[0.25],horizontal,"(890.0, 262.0)",1.4666666666666666,0.213,1,4536.9,2,0.04,0.25
0,243,catch,"[(1154, 778)]",[],[1],[],horizontal,"(390.0, 762.0)",1.6,nan,1,4542.623,3,0.04,0.25
0,244,target,"[(1153, 774)]",[],[1],[0.55],horizontal,"(390.0, 262.0)",0.35,0.514,1,4548.417,3,0.04,0.25
0,245,target,"[(1183, 782)]",[],[1],[0.6333333333333333],horizontal,"(390.0, 762.0)",1.05,0.592,1,4553.472,3,0.04,0.25
0,246,catch,"[(1155, 773)]",[],[1],[],horizontal,"(390.0, 762.0)",1.6,nan,1,4559.338,3,0.04,0.25
0,247,target,"[(1165, 779)]",[],[1],[0.5666666666666667],vertical,"(890.0, 762.0)",1.3,0.528,1,4565.041,3,0.04,0.25
0,248,target,"[(1160, 772)]",[],[1],[0.6166666666666667],horizontal,"(390.0, 762.0)",1.0666666666666667,0.575,1,4570.952,3,0.04,0.25
0,249,target,"[(1159, 779)]",[],[1],[0.7333333333333333],vertical,"(890.0, 762.0)",0.4166666666666667,0.691,1,4576.689,3,0.04,0.25
0,250,target,"[(1162, 782)]",[],[1],[0.85],horizontal,"(890.0, 762.0)",0.5666666666666667,nan,0,4582.119,0,0.04,0.25
0,251,catch,"[(1149, 783)]",[],[1],[],vertical,"(390.0, 762.0)",1.6,nan,1,4586.11,1,0.04,0.25
0,252,target,"[(1173, 779)]",[],[1],[0.5666666666666667],vertical,"(390.0, 262.0)",1.0,0.525,1,4591.621,1,0.04,0.25
0,253,target,"[(1150, 769)]",[],[1],[0.5833333333333334],vertical,"(890.0, 762.0)",0.7166666666666667,0.542,1,4596.639,1,0.04,0.25
0,254,target,"[(1165, 770)]",[],[1],[0.65],horizontal,"(390.0, 762.0)",1.15,0.609,1,4601.274,2,0.04,0.25
0,255,target,"[(1172, 778)]",[],[1],[0.4166666666666667],vertical,"(390.0, 762.0)",1.3833333333333333,0.374,1,4606.757,2,0.04,0.25
0,256,target,"[(1151, 793)]",[],[1],[0.8333333333333334],vertical,"(390.0, 262.0)",0.95,0.792,1,4612.186,2,0.04,0.25
0,257,catch,"[(1150, 787)]",[],[1],[],vertical,"(890.0, 762.0)",1.6,nan,1,4617.66,2,0.02,0.25
0,258,target,"[(1170, 779)]",[],[1],[0.7],horizontal,"(390.0, 262.0)",0.6666666666666666,0.654,1,4623.439,3,0.02,0.25
0,259,target,"[(1157, 779)]",[],[1],[0.5666666666666667],horizontal,"(890.0, 262.0)",0.43333333333333335,0.529,1,4629.169,3,0.02,0.25
0,260,target,"[(1181, 774)]",[],[1],[0.5333333333333333],vertical,"(390.0, 762.0)",0.85,0.495,1,4634.543,3,0.02,0.25
0,261,target,"[(1155, 774)]",[],[1],[0.5833333333333334],horizontal,"(890.0, 762.0)",1.0,0.539,1,4640.423,3,0.02,0.25
0,262,catch,"[(1172, 753), (1140, 798)]",[],"[0, 1]",[],vertical,"(390.0, 762.0)",,"('cti', 1.575),nan",0,4646.173,0,0.04,0.25
0,263,target,"[(1160, 791)]",[],[1],[0.75],horizontal,"(890.0, 762.0)",1.15,0.704,1,4652.306,1,0.04,0.25
0,264,target,"[(1166, 773)]",[],[1],[0.6],horizontal,"(390.0, 262.0)",0.8833333333333333,0.558,1,4657.339,1,0.04,0.25
0,265,target,"[(1154, 772)]",[],[1],[0.5833333333333334],horizontal,"(390.0, 262.0)",0.7,0.552,1,4662.236,1,0.04,0.25
0,266,catch,"[(1160, 779)]",[],[1],[],vertical,"(890.0, 262.0)",1.6,nan,1,4666.615,2,0.04,0.25
0,267,catch,"[(1180, 746), (1152, 813)]",[],"[0, 1]",[],horizontal,"(890.0, 262.0)",1.6,nan,1,4672.157,2,0.04,0.25
0,268,target,"[(1157, 760)]",[],[1],[0.6166666666666667],vertical,"(890.0, 762.0)",0.6333333333333333,0.573,1,4678.341,2,0.04,0.25
0,269,target,"[(1178, 782)]",[],[1],[0.3333333333333333],vertical,"(890.0, 762.0)",1.4666666666666666,0.296,1,4683.039,2,0.04,0.25
0,270,target,"[(1155, 774)]",[],[1],[0.4],horizontal,"(390.0, 762.0)",1.4333333333333333,0.365,1,4688.822,3,0.04,0.25
0,271,target,"[(1154, 773)]",[],[1],[0.1],horizontal,"(390.0, 762.0)",1.5166666666666666,0.069,0,4694.757,0,0.04,0.25
0,272,catch,"[(1173, 778)]",[],[1],[],horizontal,"(890.0, 762.0)",1.6,nan,1,4699.638,1,0.04,0.25
0,273,catch,"[(1170, 795)]",[],[1],[],vertical,"(890.0, 262.0)",1.6,nan,1,4704.965,1,0.04,0.25
0,274,catch,"[(1158, 764)]",[],[1],[],horizontal,"(890.0, 762.0)",1.6,nan,1,4710.174,1,0.04,0.25
0,275,target,"[(1155, 808)]",[],[1],[0.55],horizontal,"(890.0, 762.0)",1.3833333333333333,0.515,1,4715.293,2,0.04,0.25
0,276,target,"[(1144, 790)]",[],[1],[0.6166666666666667],horizontal,"(390.0, 762.0)",1.5166666666666666,0.58,1,4721.157,2,0.04,0.25
0,277,target,"[(1148, 782)]",[],[1],[0.4666666666666667],horizontal,"(890.0, 762.0)",1.0666666666666667,0.426,1,4727.091,2,0.04,0.25
0,278,catch,"[(1154, 775)]",[],[1],[],vertical,"(890.0, 262.0)",1.6,nan,1,4733.017,2,0.04,0.25
0,279,target,"[(1165, 801)]",[],[1],[0.23333333333333334],vertical,"(890.0, 262.0)",1.45,0.198,0,4738.47,0,0.04,0.25
0,280,target,"[(1153, 804)]",[],[1],[],vertical,"(890.0, 762.0)",,"('cti', 1.201)",0,4742.953,0,0.06,0.25
0,281,target,"[(1153, 804)]",[],[1],[0.55],horizontal,"(390.0, 762.0)",1.4166666666666667,0.517,1,4748.757,1,0.06,0.25
0,282,target,"[(1148, 789)]",[],[1],[0.65],vertical,"(890.0, 262.0)",0.4666666666666667,0.609,1,4754.671,1,0.06,0.25
0,283,catch,"[(1154, 774)]",[],[1],[],horizontal,"(390.0, 762.0)",1.6,nan,1,4759.157,1,0.06,0.25
0,284,target,"[(1176, 778)]",[],[1],[0.6],vertical,"(390.0, 762.0)",0.8166666666666667,0.556,1,4764.456,2,0.06,0.25
0,285,target,"[(1145, 784)]",[],[1],[0.5333333333333333],horizontal,"(890.0, 762.0)",0.5333333333333333,0.496,1,4769.898,2,0.04,0.25
0,286,target,"[(1172, 788)]",[],[1],[0.85],vertical,"(890.0, 262.0)",0.35,nan,0,4776.491,0,0.04,0.25
0,287,catch,"[(1151, 777)]",[],[1],[],horizontal,"(390.0, 762.0)",1.6,nan,1,4780.874,1,0.04,0.25
0,288,catch,"[(1176, 778)]",[],[1],[],horizontal,"(890.0, 762.0)",1.6,nan,1,4786.274,1,0.04,0.25
0,289,target,"[(1179, 777)]",[],[1],[0.5333333333333333],vertical,"(890.0, 762.0)",1.4166666666666667,0.492,1,4791.324,1,0.04,0.25
0,290,target,"[(1159, 781)]",[],[1],[0.55],horizontal,"(890.0, 262.0)",0.36666666666666664,0.512,1,4796.491,2,0.04,0.25
0,291,target,"[(1178, 785)]",[],[1],[0.5],horizontal,"(890.0, 762.0)",1.2166666666666666,0.463,1,4801.223,2,0.04,0.25
0,292,catch,"[(1161, 769)]",[],[1],[],vertical,"(390.0, 262.0)",1.6,nan,1,4807.224,2,0.04,0.25
0,293,target,"[(1175, 779)]",[],[1],[0.85],vertical,"(890.0, 762.0)",0.4,nan,0,4812.808,0,0.04,0.25
0,294,target,"[(1174, 808)]",[],[1],[0.48333333333333334],horizontal,"(890.0, 262.0)",1.2666666666666666,0.443,1,4817.607,1,0.04,0.25
0,295,target,"[(1158, 761)]",[],[1],[0.7],vertical,"(890.0, 262.0)",1.1166666666666667,0.656,1,4823.088,1,0.04,0.25
0,296,target,"[(1155, 787)]",[],[1],[0.6166666666666667],vertical,"(890.0, 762.0)",0.6333333333333333,0.574,1,4828.327,1,0.04,0.25
0,297,target,"[(1153, 778)]",[],[1],[0.7],vertical,"(390.0, 762.0)",0.75,0.658,1,4832.823,2,0.04,0.25
0,298,target,"[(1155, 774)]",[],[1],[0.5666666666666667],vertical,"(890.0, 262.0)",0.55,0.527,1,4838.257,2,0.04,0.25
0,299,target,"[(1155, 782)]",[],[1],[0.65],vertical,"(390.0, 762.0)",0.8666666666666667,0.609,1,4843.658,2,0.04,0.25
0,300,target,"[(1157, 783)]",[],[1],[0.48333333333333334],horizontal,"(890.0, 762.0)",1.3166666666666667,0.443,1,4848.841,2,0.04,0.25
0,301,target,"[(1155, 788)]",[],[1],[0.7166666666666667],vertical,"(390.0, 262.0)",0.7833333333333333,0.671,1,4854.455,3,0.04,0.25
0,302,target,"[(1150, 803)]",[],[1],[0.7],vertical,"(390.0, 262.0)",0.8333333333333334,0.655,1,4860.026,3,0.04,0.25
0,303,catch,"[(1152, 787)]",[],[1],[],horizontal,"(390.0, 762.0)",1.6,"('cti', 1.602),nan",0,4866.181,0,0.06,0.25
0,304,target,"[(1155, 791)]",[],[1],[0.7166666666666667],horizontal,"(890.0, 762.0)",0.95,0.675,1,4870.789,1,0.06,0.25
0,305,target,"[(1158, 779)]",[],[1],[0.7],vertical,"(890.0, 262.0)",0.7,0.658,1,4875.98,1,0.06,0.25
0,306,target,"[(1155, 785)]",[],[1],[0.4],horizontal,"(890.0, 262.0)",1.5,0.362,1,4880.741,1,0.06,0.25
0,307,catch,"[(1155, 776)]",[],[1],[],vertical,"(890.0, 262.0)",1.6,nan,1,4886.224,2,0.06,0.25
0,308,catch,"[(1185, 792)]",[],[1],[],vertical,"(390.0, 762.0)",1.6,nan,1,4892.108,2,0.06,0.25
0,309,catch,"[(1178, 777)]",[],[1],[],horizontal,"(890.0, 262.0)",1.6,nan,1,4897.698,2,0.06,0.25
0,310,target,"[(1147, 798)]",[],[1],[0.5666666666666667],horizontal,"(390.0, 762.0)",0.7666666666666666,0.529,1,4903.567,2,0.06,0.25
0,311,target,"[(1185, 775)]",[],[1],[0.5833333333333334],horizontal,"(890.0, 762.0)",0.3833333333333333,0.541,1,4909.12,3,0.06,0.25
0,312,target,"[(1158, 776)]",[],[1],[0.5666666666666667],horizontal,"(390.0, 262.0)",0.6833333333333333,0.526,1,4914.638,3,0.04,0.25
0,313,target,"[(1177, 778)]",[],[1],[0.5833333333333334],horizontal,"(390.0, 762.0)",1.1,0.539,1,4919.816,3,0.04,0.25
0,314,target,"[(1148, 755)]",[],[1],[0.7],vertical,"(890.0, 762.0)",0.4666666666666667,0.651,1,4925.808,3,0.04,0.25
0,315,catch,"[(1151, 779)]",[],[1],[],horizontal,"(890.0, 762.0)",1.6,nan,1,4930.974,3,0.04,0.25
0,316,target,"[(1145, 779)]",[],[1],[0.21666666666666667],horizontal,"(390.0, 762.0)",1.4833333333333334,0.181,0,4936.591,0,0.04,0.25
0,317,target,"[(1150, 789)]",[],[1],[0.6],horizontal,"(890.0, 262.0)",1.25,0.554,1,4941.108,1,0.04,0.25
0,318,target,"[(1156, 772)]",[],[1],[0.35],horizontal,"(890.0, 762.0)",1.4,0.311,1,4946.79,1,0.04,0.25
0,319,target,"[(1155, 773)]",[],[1],[0.7166666666666667],vertical,"(890.0, 262.0)",1.05,0.664,1,4952.159,1,0.04,0.25
0,320,target,"[(1180, 769)]",[],[1],[0.6],horizontal,"(390.0, 762.0)",1.1,0.562,1,4957.496,2,0.04,0.25
0,321,target,"[(1180, 781)]",[],[1],[0.6666666666666666],horizontal,"(390.0, 262.0)",0.48333333333333334,0.621,1,4963.025,2,0.04,0.25
0,322,target,"[(1174, 775)]",[],[1],[0.6],vertical,"(890.0, 762.0)",1.1333333333333333,0.555,1,4968.141,2,0.04,0.25
0,323,target,"[(1186, 771)]",[],[1],[0.4666666666666667],vertical,"(890.0, 262.0)",1.2666666666666666,0.426,1,4973.991,2,0.04,0.25
0,324,target,"[(1159, 787)]",[],[1],[0.5333333333333333],horizontal,"(390.0, 262.0)",1.0,0.489,1,4979.493,3,0.04,0.25
0,325,catch,"[(1150, 765)]",[],[1],[],horizontal,"(390.0, 262.0)",1.6,nan,1,4985.923,3,0.04,0.25
0,326,catch,"[(1156, 774)]",[],[1],[],horizontal,"(890.0, 262.0)",1.6,nan,1,4991.625,3,0.04,0.25
0,327,catch,"[(1181, 771)]",[],[1],[],horizontal,"(890.0, 262.0)",1.6,nan,1,4997.441,3,0.04,0.25
0,328,target,"[(1155, 794)]",[],[1],[0.5166666666666666],horizontal,"(390.0, 262.0)",1.1,0.474,1,5003.28,3,0.04,0.25
0,329,catch,"[(1157, 774)]",[],[1],[],horizontal,"(390.0, 762.0)",1.6,nan,1,5009.116,3,0.04,0.25
0,330,catch,"[(1157, 769)]",[],[1],[],horizontal,"(390.0, 262.0)",1.6,nan,1,5014.974,3,0.02,0.25
0,331,target,"[(1170, 772)]",[],[1],[0.5333333333333333],vertical,"(890.0, 262.0)",1.2833333333333332,0.491,1,5020.873,3,0.02,0.25
0,332,target,"[(1155, 771)]",[],[1],[0.55],vertical,"(890.0, 762.0)",1.0333333333333332,0.512,1,5026.724,3,0.02,0.25
0,333,target,"[(1158, 789)]",[],[1],[],vertical,"(390.0, 262.0)",,"('cti', 1.434)",0,5032.205,0,0.04,0.25
0,334,target,"[(1151, 803)]",[],[1],[0.4666666666666667],vertical,"(390.0, 762.0)",1.4166666666666667,0.423,1,5037.162,1,0.04,0.25
0,335,target,"[(1154, 787)]",[],[1],[0.6166666666666667],horizontal,"(390.0, 762.0)",1.0166666666666666,0.577,1,5042.474,1,0.04,0.25
0,336,target,"[(1154, 774)]",[],[1],[0.4166666666666667],vertical,"(890.0, 762.0)",1.45,0.379,1,5047.457,1,0.04,0.25
0,337,target,"[(1147, 787)]",[],[1],[0.31666666666666665],vertical,"(890.0, 262.0)",1.5166666666666666,0.281,1,5052.857,2,0.04,0.25
0,338,target,"[(1165, 775)]",[],[1],[0.55],vertical,"(390.0, 262.0)",0.36666666666666664,0.509,1,5058.924,2,0.04,0.25
0,339,target,"[(1173, 789)]",[],[1],[0.6166666666666667],vertical,"(890.0, 762.0)",0.9666666666666667,0.576,1,5063.676,2,0.04,0.25
0,340,target,"[(1155, 808)]",[],[1],[0.7333333333333333],vertical,"(890.0, 762.0)",1.2333333333333334,0.685,1,5068.658,2,0.04,0.25
0,341,catch,"[(1177, 775)]",[],[1],[],horizontal,"(390.0, 762.0)",1.6,nan,1,5074.564,3,0.04,0.25
0,342,target,"[(1151, 779)]",[],[1],[0.43333333333333335],vertical,"(390.0, 762.0)",1.5166666666666666,0.393,1,5080.624,3,0.04,0.25
0,343,catch,"[(1150, 773)]",[],[1],[],vertical,"(890.0, 262.0)",1.6,nan,1,5086.358,3,0.04,0.25
0,344,target,"[(1177, 775)]",[],[1],[0.2],horizontal,"(890.0, 262.0)",1.5166666666666666,0.17,0,5092.258,0,0.04,0.25
0,345,target,"[(1165, 774)]",[],[1],[0.5],horizontal,"(890.0, 762.0)",1.45,0.458,1,5097.174,1,0.04,0.25
0,346,catch,"[(1160, 764)]",[],[1],[],horizontal,"(890.0, 262.0)",1.6,nan,1,5102.422,1,0.04,0.25
0,347,target,"[(1160, 773)]",[],[1],[0.36666666666666664],horizontal,"(890.0, 762.0)",1.5,0.331,1,5107.774,1,0.04,0.25
0,348,target,"[(1165, 778)]",[],[1],[0.5833333333333334],vertical,"(390.0, 762.0)",0.9166666666666666,0.538,1,5113.145,2,0.04,0.25
0,349,target,"[(1180, 779)]",[],[1],[0.4],horizontal,"(390.0, 762.0)",1.4666666666666666,0.358,1,5118.541,2,0.04,0.25
0,350,target,"[(1169, 786)]",[],[1],[0.45],horizontal,"(890.0, 762.0)",1.45,0.409,1,5124.241,2,0.04,0.25
0,351,target,"[(1184, 775)]",[],[1],[0.5666666666666667],vertical,"(890.0, 262.0)",0.85,0.538,1,5129.881,2,0.04,0.25
0,352,catch,"[(1166, 779)]",[],[1],[],vertical,"(890.0, 762.0)",1.6,nan,1,5135.168,3,0.04,0.25
0,353,target,"[(1155, 774)]",[],[1],[0.65],horizontal,"(390.0, 262.0)",0.5833333333333334,0.607,1,5141.256,3,0.02,0.25
0,354,catch,"[(1177, 773)]",[],[1],[],vertical,"(390.0, 262.0)",1.6,nan,1,5146.915,3,0.02,0.25
0,355,catch,"[(1150, 781)]",[],[1],[],vertical,"(890.0, 762.0)",1.6,"('cti', 1.599),nan",0,5152.624,0,0.04,0.25
0,356,target,"[(1190, 858)]",[],[1],[0.7],horizontal,"(890.0, 262.0)",1.2666666666666666,0.653,1,5157.536,1,0.04,0.25
0,357,target,"[(1192, 812)]",[],[1],[0.5666666666666667],horizontal,"(890.0, 262.0)",0.8333333333333334,0.53,1,5308.332,1,0.04,0.25
0,358,target,"[(1190, 795)]",[],[1],[0.7833333333333333],horizontal,"(390.0, 262.0)",0.5333333333333333,0.74,1,5313.32,1,0.04,0.25
0,359,target,"[(1162, 783)]",[],[1],[0.5],horizontal,"(890.0, 762.0)",1.1333333333333333,0.462,1,5318.532,2,0.04,0.25
0,360,target,"[(1180, 779)]",[],[1],[0.55],horizontal,"(890.0, 262.0)",0.5166666666666666,0.511,1,5324.404,2,0.04,0.25
0,361,target,"[(1163, 776)]",[],[1],[0.6],vertical,"(890.0, 762.0)",0.8833333333333333,0.561,1,5329.425,2,0.04,0.25
0,362,catch,"[(1167, 787)]",[],[1],[],vertical,"(390.0, 262.0)",1.6,nan,1,5334.725,2,0.04,0.25
0,363,target,"[(1165, 779)]",[],[1],[0.45],vertical,"(890.0, 262.0)",1.4166666666666667,0.41,1,5340.675,3,0.04,0.25
0,364,catch,"[(1178, 771)]",[],[1],[],vertical,"(890.0, 762.0)",1.6,"('cti', 1.594),nan",0,5347.143,0,0.06,0.25
0,365,target,"[(1155, 779)]",[],[1],[0.6833333333333333],vertical,"(390.0, 262.0)",0.5333333333333333,0.642,1,5351.825,1,0.06,0.25
0,366,target,"[(1173, 784)]",[],[1],[0.7333333333333333],horizontal,"(390.0, 762.0)",1.05,0.69,1,5356.392,1,0.06,0.25
0,367,catch,"[(1165, 774)]",[],[1],[],vertical,"(890.0, 762.0)",1.6,nan,1,5361.403,1,0.06,0.25
0,368,target,"[(1175, 760)]",[],[1],[0.55],horizontal,"(890.0, 762.0)",1.2,0.506,1,5366.541,2,0.06,0.25
0,369,target,"[(1160, 754)]",[],[1],[0.6666666666666666],vertical,"(390.0, 762.0)",0.8833333333333333,0.628,1,5372.376,2,0.06,0.25
0,370,target,"[(1164, 760)]",[],[1],[0.6666666666666666],vertical,"(390.0, 762.0)",0.8666666666666667,0.627,1,5377.942,2,0.06,0.25
0,371,target,"[(1180, 782)]",[],[1],[0.5],horizontal,"(390.0, 762.0)",1.2,0.461,1,5383.617,2,0.06,0.25
0,372,target,"[(1169, 782)]",[],[1],[0.6333333333333333],horizontal,"(390.0, 762.0)",1.15,0.589,1,5389.452,3,0.06,0.25
0,373,catch,"[(1152, 770)]",[],[1],[],horizontal,"(890.0, 262.0)",,"('cti', 1.266),nan",0,5395.831,0,0.08,0.25
0,374,target,"[(1165, 799)]",[],[1],[0.5666666666666667],vertical,"(890.0, 762.0)",0.7,0.529,1,5400.575,1,0.08,0.25
0,375,target,"[(1174, 774)]",[],[1],[0.6166666666666667],vertical,"(390.0, 262.0)",0.4666666666666667,0.571,1,5405.092,1,0.08,0.25
0,376,target,"[(1174, 762)]",[],[1],[0.55],horizontal,"(890.0, 262.0)",1.1833333333333333,0.515,1,5409.851,1,0.08,0.25
0,377,target,"[(1164, 768)]",[],[1],[0.6],vertical,"(390.0, 762.0)",0.75,0.563,1,5414.984,2,0.08,0.25
0,378,target,"[(1182, 788), (1168, 831)]",[],"[1, 1]",[0.85],vertical,"(390.0, 762.0)",0.5833333333333334,"('fix', 0.559),nan",0,5420.075,0,0.08,0.25
0,379,target,"[(1138, 782)]",[],[1],[0.7833333333333333],horizontal,"(390.0, 262.0)",1.4,0.742,1,5423.925,1,0.08,0.25
0,380,target,"[(1174, 777)]",[],[1],[0.5833333333333334],horizontal,"(390.0, 262.0)",0.6333333333333333,0.539,1,5429.775,1,0.08,0.25
0,381,catch,"[(1176, 775)]",[],[1],[],vertical,"(890.0, 262.0)",1.6,nan,1,5434.519,1,0.08,0.25
0,382,target,"[(1157, 774)]",[],[1],[0.2833333333333333],horizontal,"(390.0, 762.0)",1.4666666666666666,0.249,1,5439.401,2,0.08,0.25
0,383,target,"[(1223, 784)]",[],[1],[0.5333333333333333],horizontal,"(890.0, 262.0)",0.4666666666666667,0.493,1,5444.873,2,0.06,0.25
0,384,target,"[(1169, 778)]",[],[1],[0.25],vertical,"(390.0, 262.0)",1.3666666666666667,0.218,1,5449.669,2,0.06,0.25
0,385,target,"[(1150, 768)]",[],[1],[0.5833333333333334],horizontal,"(890.0, 762.0)",0.9166666666666666,0.538,1,5455.626,2,0.06,0.25
0,386,catch,"[(1177, 773)]",[],[1],[],horizontal,"(890.0, 262.0)",1.6,nan,1,5460.993,3,0.06,0.25
0,387,catch,"[(1168, 781)]",[],[1],[],vertical,"(390.0, 762.0)",1.6,nan,1,5467.135,3,0.06,0.25
0,388,target,"[(1160, 772)]",[],[1],[0.5166666666666666],horizontal,"(890.0, 262.0)",1.0833333333333333,0.478,1,5472.991,3,0.06,0.25
0,389,target,"[(1155, 767)]",[],[1],[0.48333333333333334],horizontal,"(390.0, 262.0)",1.3666666666666667,0.444,1,5478.875,3,0.06,0.25
0,390,target,"[(1173, 760)]",[],[1],[0.55],horizontal,"(390.0, 762.0)",1.1166666666666667,0.513,1,5484.901,3,0.06,0.25
0,391,target,"[(1155, 779)]",[],[1],[0.5666666666666667],vertical,"(890.0, 262.0)",0.35,0.532,1,5490.577,3,0.06,0.25
0,392,target,"[(1158, 765)]",[],[1],[0.48333333333333334],vertical,"(890.0, 262.0)",0.7833333333333333,0.44,1,5495.491,3,0.06,0.25
0,393,target,"[(1150, 770)]",[],[1],[0.65],horizontal,"(390.0, 762.0)",1.0166666666666666,0.613,1,5500.934,3,0.06,0.25
0,394,catch,"[(1150, 790)]",[],[1],[],vertical,"(890.0, 262.0)",1.6,"('cti', 1.605),nan",0,5506.917,0,0.08,0.25
0,395,catch,"[(1158, 790)]",[],[1],[],vertical,"(390.0, 262.0)",1.6,nan,1,5513.292,1,0.08,0.25
0,396,target,"[(1172, 784)]",[],[1],[0.5333333333333333],vertical,"(390.0, 262.0)",0.7333333333333333,0.492,1,5518.108,1,0.08,0.25
0,397,target,"[(1163, 773)]",[],[1],[0.85],horizontal,"(890.0, 762.0)",0.5833333333333334,nan,0,5522.504,0,0.08,0.25
0,398,target,"[(1155, 784)]",[],[1],[0.5666666666666667],vertical,"(890.0, 762.0)",0.9666666666666667,0.535,1,5526.908,1,0.08,0.25
0,399,target,"[(1173, 771)]",[],[1],[0.6],horizontal,"(890.0, 262.0)",1.3,0.561,1,5532.426,1,0.08,0.25
0,400,target,"[(1169, 774)]",[],[1],[0.65],horizontal,"(890.0, 762.0)",0.6166666666666667,0.611,1,5537.591,1,0.08,0.25
0,401,catch,"[(1175, 777)]",[],[1],[],horizontal,"(890.0, 762.0)",1.6,nan,1,5542.114,2,0.08,0.25
0,402,target,"[(1169, 781)]",[],[1],[0.7],vertical,"(890.0, 262.0)",0.65,0.653,1,5547.679,2,0.08,0.25
0,403,target,"[(1160, 813)]",[],[1],[0.85],horizontal,"(390.0, 762.0)",1.4666666666666666,nan,0,5552.979,0,0.08,0.25
0,404,target,"[(1173, 827)]",[],[1],[0.85],horizontal,"(390.0, 762.0)",1.45,nan,0,5558.759,0,0.08,0.25
0,405,target,"[(1163, 832)]",[],[1],[0.55],vertical,"(890.0, 262.0)",1.0333333333333332,0.507,1,5568.351,1,0.06,0.25
0,406,target,"[(1159, 782)]",[],[1],[0.21666666666666667],horizontal,"(390.0, 762.0)",1.4166666666666667,0.181,0,5575.311,0,0.06,0.25
0,407,target,"[(1172, 785)]",[],[1],[0.4666666666666667],horizontal,"(890.0, 262.0)",1.5333333333333332,0.429,1,5579.903,1,0.06,0.25
0,408,catch,"[(1166, 789)]",[],[1],[],vertical,"(390.0, 762.0)",1.6,nan,1,5585.66,1,0.06,0.25
0,409,catch,"[(1165, 783)]",[],[1],[],horizontal,"(390.0, 262.0)",1.6,nan,1,5590.425,1,0.06,0.25
0,410,target,"[(1178, 744), (1160, 813)]",[],"[0, 1]",[0.3333333333333333],vertical,"(390.0, 262.0)",1.2833333333333332,0.297,1,5595.908,2,0.06,0.25
0,411,catch,"[(1169, 771)]",[],[1],[],horizontal,"(390.0, 262.0)",1.6,nan,1,5602.459,2,0.06,0.25
0,412,catch,"[(1145, 778)]",[],[1],[],horizontal,"(390.0, 262.0)",1.6,nan,1,5607.592,2,0.06,0.25
0,413,target,"[(1197, 781)]",[],[1],[0.4],horizontal,"(890.0, 762.0)",1.2666666666666666,0.361,1,5613.39,2,0.06,0.25
0,414,target,"[(1140, 790)]",[],[1],[0.21666666666666667],vertical,"(890.0, 762.0)",1.5,0.182,0,5619.366,0,0.04,0.25
0,415,target,"[(1162, 783)]",[],[1],[0.5833333333333334],vertical,"(890.0, 262.0)",0.6166666666666667,0.539,1,5623.95,1,0.04,0.25
0,416,target,"[(1180, 765)]",[],[1],[0.26666666666666666],horizontal,"(390.0, 262.0)",1.4833333333333334,0.23,1,5628.932,1,0.04,0.25
0,417,target,"[(1172, 760)]",[],[1],[0.3],vertical,"(890.0, 762.0)",1.4666666666666666,0.265,1,5634.176,1,0.04,0.25
0,418,target,"[(1179, 784)]",[],[1],[0.7],horizontal,"(390.0, 762.0)",0.4,0.657,1,5639.276,2,0.04,0.25
0,419,target,"[(1195, 779)]",[],[1],[0.3333333333333333],horizontal,"(390.0, 762.0)",1.4833333333333334,0.296,1,5644.36,2,0.04,0.25
0,420,target,"[(1174, 795)]",[],[1],[0.48333333333333334],vertical,"(890.0, 762.0)",1.2166666666666666,0.442,1,5649.907,2,0.04,0.25
0,421,target,"[(1169, 786)]",[],[1],[0.5],vertical,"(890.0, 262.0)",0.5,0.461,1,5655.726,2,0.04,0.25
0,422,target,"[(1179, 779)]",[],[1],[0.6],horizontal,"(890.0, 762.0)",1.05,0.558,1,5660.317,3,0.04,0.25
0,423,target,"[(1176, 766)]",[],[1],[0.23333333333333334],vertical,"(890.0, 762.0)",1.4,0.196,0,5666.063,0,0.02,0.25
0,424,target,"[(1159, 781)]",[],[1],[0.5833333333333334],vertical,"(890.0, 262.0)",0.6166666666666667,0.544,1,5670.697,1,0.02,0.25
0,425,target,"[(1145, 787)]",[],[1],[0.55],horizontal,"(890.0, 262.0)",1.25,0.505,1,5675.866,1,0.02,0.25
0,426,catch,"[(1178, 774)]",[],[1],[],vertical,"(890.0, 262.0)",1.6,nan,1,5681.174,1,0.02,0.25
0,427,catch,"[(1156, 779)]",[],[1],[],vertical,"(390.0, 262.0)",1.6,nan,1,5686.708,2,0.02,0.25
0,428,target,"[(1155, 784)]",[],[1],[0.6333333333333333],vertical,"(390.0, 762.0)",0.6,0.591,1,5692.077,2,0.02,0.25
0,429,target,"[(1161, 781)]",[],[1],[0.6833333333333333],vertical,"(890.0, 262.0)",0.55,0.635,1,5696.711,2,0.02,0.25
0,430,catch,"[(1175, 786)]",[],[1],[],horizontal,"(390.0, 762.0)",1.6,nan,1,5701.458,2,0.02,0.25
0,431,target,"[(1172, 779)]",[],[1],[0.7],vertical,"(890.0, 762.0)",1.3666666666666667,0.652,1,5707.158,3,0.02,0.25
0,432,target,"[(1182, 769)]",[],[1],[0.7666666666666666],vertical,"(390.0, 762.0)",0.43333333333333335,0.721,1,5713.642,3,0.02,0.25
0,433,target,"[(1178, 760)]",[],[1],[0.65],horizontal,"(390.0, 762.0)",0.95,0.602,1,5719.093,3,0.02,0.25
0,434,target,"[(1157, 789)]",[],[1],[0.5333333333333333],vertical,"(390.0, 262.0)",0.8333333333333334,0.485,1,5724.535,3,0.02,0.25
0,435,target,"[(1158, 772)]",[],[1],[0.55],vertical,"(390.0, 262.0)",0.43333333333333335,0.515,1,5730.229,3,0.02,0.25
0,436,target,"[(1153, 784)]",[],[1],[0.5333333333333333],horizontal,"(390.0, 762.0)",1.0166666666666666,0.487,1,5735.203,3,0.02,0.25
0,437,catch,"[(1160, 776)]",[],[1],[],vertical,"(390.0, 762.0)",1.6,nan,1,5741.27,3,0.02,0.25
0,438,target,"[(1162, 789)]",[],[1],[0.5166666666666666],vertical,"(890.0, 262.0)",0.7833333333333333,0.475,1,5747.243,3,0.02,0.25
0,439,target,"[(1155, 787)]",[],[1],[0.6166666666666667],horizontal,"(390.0, 762.0)",1.3166666666666667,0.571,1,5752.737,3,0.02,0.25
0,440,target,"[(1162, 760)]",[],[1],[0.5333333333333333],vertical,"(890.0, 762.0)",1.1166666666666667,0.489,1,5758.659,3,0.02,0.25
0,441,target,"[(1145, 779)]",[],[1],[0.5],vertical,"(390.0, 262.0)",1.3166666666666667,0.461,1,5764.526,3,0.02,0.25
0,442,target,"[(1152, 781)]",[],[1],[0.65],vertical,"(390.0, 762.0)",0.6,0.603,1,5770.239,3,0.02,0.25
0,443,target,"[(1150, 767)]",[],[1],[0.4],horizontal,"(390.0, 262.0)",1.4666666666666666,0.361,1,5775.871,3,0.02,0.25
0,444,target,"[(1134, 757)]",[],[1],[0.5333333333333333],horizontal,"(390.0, 262.0)",1.1666666666666667,0.487,1,5781.739,3,0.0,0.25
0,445,target,"[(1150, 784)]",[],[1],[0.55],horizontal,"(390.0, 262.0)",0.7833333333333333,0.509,1,5787.698,3,0.0,0.25
0,446,target,"[(1155, 781)]",[],[1],[0.7666666666666666],vertical,"(890.0, 762.0)",0.55,0.716,1,5792.909,3,0.0,0.25
0,447,target,"[(1173, 787)]",[],[1],[0.6166666666666667],vertical,"(890.0, 762.0)",0.65,0.574,1,5798.243,3,0.0,0.25
0,448,target,"[(1180, 783)]",[],[1],[0.31666666666666665],vertical,"(890.0, 262.0)",1.4666666666666666,0.28,1,5803.913,3,0.0,0.25
0,449,catch,"[(1160, 773)]",[],[1],[],horizontal,"(390.0, 762.0)",1.6,nan,1,5809.689,3,0.0,0.25
0,450,target,"[(1153, 779)]",[],[1],[0.55],horizontal,"(390.0, 262.0)",1.1,0.507,1,5815.359,3,0.0,0.25
0,451,target,"[(1164, 781)]",[],[1],[0.5833333333333334],vertical,"(890.0, 262.0)",0.85,0.543,1,5821.434,3,0.0,0.25
0,452,target,"[(1180, 774)]",[],[1],[0.6666666666666666],horizontal,"(390.0, 262.0)",0.48333333333333334,0.622,1,5827.476,3,0.0,0.25
0,453,target,"[(1150, 782)]",[],[1],[0.7],vertical,"(390.0, 262.0)",0.48333333333333334,0.663,1,5832.695,3,0.0,0.25
0,454,target,"[(1167, 781)]",[],[1],[0.3833333333333333],vertical,"(890.0, 762.0)",1.4666666666666666,0.345,1,5838.059,3,0.0,0.25
0,455,target,"[(1145, 777)]",[],[1],[0.85],horizontal,"(390.0, 262.0)",0.7,nan,0,5844.269,0,0.0,0.25
0,456,catch,"[(1135, 784)]",[],[1],[],vertical,"(890.0, 762.0)",1.6,nan,1,5848.327,1,0.0,0.25
0,457,target,"[(1165, 787)]",[],[1],[0.5833333333333334],horizontal,"(890.0, 762.0)",1.0,0.541,1,5853.752,1,0.0,0.25
0,458,catch,"[(1179, 787)]",[],[1],[],horizontal,"(390.0, 262.0)",1.6,nan,1,5859.008,1,0.0,0.25
0,459,target,"[(1170, 778)]",[],[1],[0.6833333333333333],vertical,"(390.0, 262.0)",0.45,0.634,1,5864.657,2,0.0,0.25
0,460,target,"[(1184, 793)]",[],[1],[0.55],vertical,"(390.0, 762.0)",1.2666666666666666,0.507,1,5869.642,2,0.0,0.25
0,461,target,"[(1176, 778)]",[],[1],[0.3],vertical,"(390.0, 262.0)",1.45,0.263,1,5874.951,2,0.0,0.25
0,462,target,"[(1175, 789)]",[],[1],[0.5166666666666666],vertical,"(390.0, 262.0)",1.45,0.476,1,5880.759,2,0.0,0.25
0,463,target,"[(1179, 749), (1132, 783)]",[],"[0, 1]",[0.43333333333333335],horizontal,"(890.0, 262.0)",1.45,0.393,1,5886.909,3,0.0,0.25
0,464,target,"[(1175, 779)]","[(1180, 815)]",[1],[0.3333333333333333],horizontal,"(890.0, 762.0)",,"('bar', 0.343)",0,5895.178,0,0.0,0.25
0,465,target,"[(1154, 794)]",[],[1],[0.11666666666666667],horizontal,"(390.0, 262.0)",0.85,0.083,0,5897.576,0,0.0,0.25
0,466,target,"[(1170, 800)]",[],[1],[0.6166666666666667],vertical,"(390.0, 262.0)",0.6833333333333333,0.572,1,5902.009,1,0.0,0.25
0,467,target,"[(1170, 786)]",[],[1],[0.65],vertical,"(390.0, 762.0)",1.05,0.603,1,5906.893,1,0.0,0.25
0,468,target,"[(1165, 758)]",[],[1],[0.6],horizontal,"(890.0, 262.0)",0.6333333333333333,0.558,1,5911.897,1,0.0,0.25
0,469,catch,"[(1183, 784)]",[],[1],[],horizontal,"(390.0, 262.0)",1.6,nan,1,5916.643,2,0.0,0.25
0,470,target,"[(1156, 780)]",[],[1],[0.48333333333333334],vertical,"(390.0, 762.0)",1.3,0.442,1,5922.276,2,0.0,0.25
0,471,catch,"[(1180, 774)]",[],[1],[],vertical,"(890.0, 262.0)",1.6,nan,1,5927.622,2,0.0,0.25
0,472,catch,"[(1167, 783)]",[],[1],[],horizontal,"(390.0, 762.0)",1.6,nan,1,5933.46,2,0.0,0.25
0,473,catch,"[(1150, 794)]",[],[1],[],horizontal,"(890.0, 262.0)",,"('cti', 1.578),nan",0,5939.21,0,0.02,0.25
0,474,target,"[(1162, 779)]",[],[1],[0.5333333333333333],horizontal,"(890.0, 262.0)",1.1166666666666667,0.491,1,5944.113,1,0.02,0.25
0,475,target,"[(1147, 774)]",[],[1],[0.5833333333333334],vertical,"(890.0, 262.0)",1.2,0.536,1,5948.944,1,0.02,0.25
0,476,catch,"[(1149, 759)]",[],[1],[],horizontal,"(390.0, 262.0)",,"('cti', 1.573),nan",0,5954.435,0,0.04,0.25
0,477,target,"[(1149, 808)]",[],[1],[0.7],horizontal,"(390.0, 262.0)",0.9666666666666667,0.661,1,5959.142,1,0.04,0.25
0,478,catch,"[(1161, 783)]",[],[1],[],vertical,"(390.0, 262.0)",1.6,nan,1,5969.841,1,0.04,0.25
0,479,target,"[(1183, 797)]",[],[1],[0.43333333333333335],horizontal,"(390.0, 262.0)",1.25,0.392,1,5974.942,1,0.04,0.25
0,480,catch,"[(1170, 786)]",[],[1],[],horizontal,"(890.0, 762.0)",1.6,nan,1,5980.331,2,0.04,0.25
0,481,target,"[(1177, 791)]",[],[1],[0.3333333333333333],horizontal,"(890.0, 762.0)",1.2833333333333332,0.298,1,5985.927,2,0.04,0.25
0,482,target,"[(1165, 772)]",[],[1],[0.35],horizontal,"(890.0, 262.0)",1.4333333333333333,0.31,1,5991.426,2,0.04,0.25
0,483,catch,"[(1151, 794)]",[],[1],[],vertical,"(890.0, 262.0)",1.6,nan,1,5997.245,2,0.04,0.25
0,484,target,"[(1152, 768)]",[],[1],[0.7666666666666666],horizontal,"(890.0, 762.0)",0.43333333333333335,0.722,1,6002.727,3,0.04,0.25
0,485,target,"[(1164, 765)]",[],[1],[0.3333333333333333],vertical,"(390.0, 262.0)",1.4,0.295,1,6008.306,3,0.04,0.25
0,486,target,"[(1164, 780)]",[],[1],[0.85],horizontal,"(890.0, 762.0)",0.5,nan,0,6014.288,0,0.04,0.25
0,487,target,"[(1150, 791)]",[],[1],[0.5333333333333333],vertical,"(390.0, 762.0)",1.1666666666666667,0.497,1,6018.643,1,0.04,0.25
0,488,catch,"[(1156, 794)]",[],[1],[],horizontal,"(890.0, 262.0)",1.6,nan,1,6024.171,1,0.04,0.25
0,489,catch,"[(1150, 759)]",[],[1],[],horizontal,"(890.0, 262.0)",1.6,nan,1,6028.976,1,0.04,0.25
0,490,target,"[(1150, 778)]",[],[1],[0.7333333333333333],vertical,"(390.0, 262.0)",1.05,0.687,1,6034.027,2,0.04,0.25
0,491,target,"[(1144, 791)]",[],[1],[0.5833333333333334],horizontal,"(390.0, 762.0)",0.9833333333333333,0.542,1,6039.564,2,0.04,0.25
0,492,target,"[(1174, 753), (1141, 792)]",[],"[0, 1]",[0.6666666666666666],vertical,"(890.0, 762.0)",1.1833333333333333,0.622,1,6045.31,2,0.04,0.25
0,493,target,"[(1150, 790)]",[],[1],"[0.85, 0.85]",horizontal,"(390.0, 262.0)",0.9333333333333333,"0.803,nan",0,6052.617,0,0.04,0.25
0,494,catch,"[(1159, 794)]",[],[1],[],horizontal,"(390.0, 762.0)",1.6,nan,1,6057.631,1,0.04,0.25
0,495,target,"[(1179, 779)]",[],[1],[0.5833333333333334],vertical,"(890.0, 762.0)",0.4166666666666667,0.542,1,6062.81,1,0.04,0.25
0,496,catch,"[(1162, 766)]",[],[1],[0.03333333333333333],vertical,"(890.0, 762.0)",1.6,"0.02,nan",0,6067.046,0,0.06,0.25
0,497,target,"[(1158, 822)]",[],[1],[0.5833333333333334],vertical,"(890.0, 762.0)",0.95,0.538,1,6072.079,1,0.06,0.25
0,498,target,"[(1170, 787)]",[],[1],[0.65],horizontal,"(390.0, 762.0)",0.7833333333333333,0.609,1,6077.208,1,0.06,0.25
0,499,target,"[(1153, 768)]",[],[1],[0.5833333333333334],vertical,"(890.0, 762.0)",1.1166666666666667,0.545,1,6082.429,1,0.06,0.25
0,500,catch,"[(1180, 779)]",[],[1],[],horizontal,"(390.0, 762.0)",1.6,nan,1,6087.693,2,0.06,0.25
0,501,target,"[(1169, 768)]",[],[1],[0.6333333333333333],vertical,"(390.0, 262.0)",0.5,0.592,1,6093.124,2,0.06,0.25
0,502,target,"[(1182, 786)]",[],[1],[0.5166666666666666],vertical,"(890.0, 262.0)",0.6166666666666667,0.479,1,6098.236,2,0.06,0.25
0,503,target,"[(1183, 767)]",[],[1],[0.6333333333333333],vertical,"(390.0, 762.0)",0.5833333333333334,0.59,1,6103.073,2,0.06,0.25
0,504,target,"[(1151, 769)]",[],[1],[],vertical,"(390.0, 262.0)",,"('cti', 1.46)",0,6108.185,0,0.08,0.25
0,505,catch,"[(1165, 799)]",[],[1],[],horizontal,"(890.0, 262.0)",1.6,nan,1,6113.276,1,0.08,0.25
0,506,target,"[(1160, 775)]",[],[1],[0.6833333333333333],vertical,"(390.0, 762.0)",0.85,0.639,1,6118.418,1,0.08,0.25
0,507,target,"[(1156, 784)]",[],[1],[0.55],horizontal,"(390.0, 262.0)",0.8333333333333334,0.51,1,6123.514,1,0.08,0.25
0,508,target,"[(1176, 778)]",[],[1],[0.5166666666666666],vertical,"(890.0, 262.0)",0.43333333333333335,0.473,1,6128.711,2,0.08,0.25
0,509,target,"[(1155, 790)]",[],[1],[0.4666666666666667],horizontal,"(890.0, 262.0)",1.2166666666666666,0.428,1,6133.248,2,0.08,0.25
0,510,target,"[(1168, 788)]",[],[1],[0.7],vertical,"(390.0, 762.0)",0.3833333333333333,0.656,1,6138.973,2,0.08,0.25
0,511,target,"[(1170, 784)]",[],[1],[0.18333333333333332],horizontal,"(890.0, 262.0)",1.4666666666666666,0.149,0,6144.144,0,0.08,0.25
0,512,target,"[(1152, 787)]",[],[1],[0.6333333333333333],vertical,"(890.0, 762.0)",1.0666666666666667,0.591,1,6148.801,1,0.08,0.25
0,513,target,"[(1177, 775)]",[],[1],[0.65],vertical,"(890.0, 262.0)",1.2833333333333332,0.61,1,6154.075,1,0.08,0.25
0,514,catch,"[(1162, 766)]",[],[1],[],horizontal,"(390.0, 762.0)",1.6,nan,1,6159.526,1,0.08,0.25
0,515,target,"[(1178, 793)]",[],[1],[0.5666666666666667],horizontal,"(890.0, 262.0)",1.0333333333333332,0.523,1,6164.661,2,0.08,0.25
0,516,target,"[(1172, 776)]",[],[1],[0.5833333333333334],horizontal,"(890.0, 762.0)",0.3833333333333333,0.544,1,6170.643,2,0.08,0.25
0,517,target,"[(1176, 770)]",[],[1],[0.5333333333333333],horizontal,"(890.0, 262.0)",0.7166666666666667,0.493,1,6175.105,2,0.08,0.25
0,518,catch,"[(1143, 781)]",[],[1],[],horizontal,"(890.0, 762.0)",,"('cti', 1.57),nan",0,6180.111,0,0.1,0.25
0,519,target,"[(1178, 789)]",[],[1],[0.55],vertical,"(390.0, 262.0)",0.65,0.515,1,6184.694,1,0.1,0.25
0,520,target,"[(1174, 779)]",[],[1],[0.5166666666666666],horizontal,"(390.0, 762.0)",1.15,0.478,1,6189.344,1,0.1,0.25
0,521,target,"[(1154, 756)]",[],[1],[0.4],horizontal,"(890.0, 762.0)",1.1666666666666667,0.365,1,6194.277,1,0.1,0.25
0,522,target,"[(1160, 773)]",[],[1],[0.6333333333333333],vertical,"(890.0, 262.0)",0.6,0.589,1,6199.528,2,0.1,0.25
0,523,target,"[(1177, 769)]",[],[1],[0.6833333333333333],vertical,"(390.0, 762.0)",0.6166666666666667,0.641,1,6204.943,2,0.08,0.25
0,524,catch,"[(1165, 788)]",[],[1],[],horizontal,"(390.0, 762.0)",1.6,nan,1,6210.328,2,0.08,0.25
0,525,target,"[(1152, 778)]",[],[1],[0.6],vertical,"(390.0, 262.0)",0.6833333333333333,0.56,1,6215.943,2,0.08,0.25
0,526,target,"[(1163, 788)]",[],[1],[0.5666666666666667],vertical,"(390.0, 262.0)",1.1333333333333333,0.531,1,6221.178,3,0.06,0.25
0,527,catch,"[(1158, 757)]",[],[1],[],horizontal,"(890.0, 762.0)",1.6,nan,1,6227.394,3,0.06,0.25
0,528,target,"[(1172, 778)]",[],[1],[0.65],horizontal,"(390.0, 762.0)",0.35,0.609,1,6233.6,3,0.06,0.25
0,529,target,"[(1155, 766)]",[],[1],[],horizontal,"(390.0, 262.0)",,"('cti', 1.216)",0,6239.228,0,0.08,0.25
0,530,target,"[(1155, 789)]",[],[1],[0.6166666666666667],vertical,"(390.0, 262.0)",0.85,0.577,1,6243.442,1,0.08,0.25
0,531,catch,"[(1158, 785)]",[],[1],[],horizontal,"(390.0, 762.0)",1.6,nan,1,6248.077,1,0.08,0.25
0,532,catch,"[(1158, 767)]",[],[1],[0.03333333333333333],horizontal,"(890.0, 262.0)",1.6,"0.02,nan",0,6253.226,0,0.1,0.25
0,533,target,"[(1158, 789)]",[],[1],[0.45],vertical,"(890.0, 762.0)",1.3166666666666667,0.411,1,6258.061,1,0.1,0.25
0,534,catch,"[(1173, 784)]",[],[1],[],horizontal,"(390.0, 762.0)",1.6,nan,1,6263.395,1,0.1,0.25
0,535,target,"[(1176, 780)]",[],[1],[0.6333333333333333],vertical,"(890.0, 762.0)",0.6166666666666667,0.589,1,6268.329,1,0.1,0.25
0,536,target,"[(1180, 774)]",[],[1],[0.85],horizontal,"(390.0, 762.0)",0.6333333333333333,nan,0,6273.262,0,0.1,0.25
0,537,catch,"[(1159, 782)]",[],[1],[],horizontal,"(390.0, 762.0)",1.6,nan,1,6277.54,1,0.1,0.25
0,538,target,"[(1145, 789)]","[(1116, 813)]",[1],[0.75],vertical,"(390.0, 762.0)",,"('bar', 0.759)",0,6283.111,0,0.1,0.25
0,539,target,"[(1158, 827)]",[],[1],[0.8333333333333334],vertical,"(890.0, 762.0)",0.6,0.786,1,6286.193,1,0.1,0.25
0,540,catch,"[(1152, 771)]",[],[1],[],horizontal,"(390.0, 762.0)",1.6,nan,1,6781.203,1,0.1,0.25
0,541,target,"[(1183, 792)]",[],[1],[0.6666666666666666],horizontal,"(890.0, 262.0)",0.9333333333333333,0.628,1,6786.65,1,0.1,0.25
0,542,catch,"[(1179, 775)]",[],[1],[],horizontal,"(890.0, 262.0)",1.6,nan,1,6791.929,2,0.1,0.25
0,543,catch,"[(1159, 785)]",[],[1],[],vertical,"(890.0, 262.0)",1.6,nan,1,6797.65,2,0.1,0.25
0,544,catch,"[(1174, 787)]",[],[1],[],horizontal,"(890.0, 762.0)",1.6,nan,1,6803.217,2,0.1,0.25
0,545,target,"[(1190, 799)]",[],[1],[0.5],horizontal,"(890.0, 262.0)",1.5,0.457,1,6808.611,2,0.1,0.25
0,546,target,"[(1180, 795)]",[],[1],[0.85],horizontal,"(890.0, 762.0)",1.25,nan,0,6814.235,0,0.08,0.25
0,547,catch,"[(1146, 822)]",[],[1],[],vertical,"(890.0, 262.0)",,"('cti', 1.566),nan",0,6819.491,0,0.1,0.25
0,548,catch,"[(1132, 806)]",[],[1],[],horizontal,"(390.0, 262.0)",1.6,nan,1,7000.128,1,0.1,0.25
0,549,catch,"[(1173, 808)]",[],[1],[],vertical,"(390.0, 262.0)",1.6,nan,1,7107.115,1,0.1,0.25
0,550,catch,"[(1177, 792)]",[],[1],[],vertical,"(890.0, 762.0)",1.6,nan,1,7112.178,1,0.1,0.25
0,551,target,"[(1155, 785)]",[],[1],[0.85],vertical,"(890.0, 262.0)",1.3333333333333333,nan,0,7117.135,0,0.1,0.25
0,552,catch,"[(1163, 839)]",[],[1],[],vertical,"(890.0, 262.0)",1.6,nan,1,7122.625,1,0.1,0.25
0,553,target,"[(1175, 780)]",[],[1],[0.6],horizontal,"(890.0, 762.0)",1.15,0.553,1,7130.863,1,0.1,0.25
0,554,catch,"[(1184, 783)]",[],[1],[],horizontal,"(390.0, 762.0)",1.6,nan,1,7136.015,1,0.08,0.25
0,555,target,"[(1180, 778)]",[],[1],[0.65],horizontal,"(390.0, 762.0)",0.8166666666666667,0.6,1,7140.836,2,0.08,0.25
0,556,target,"[(1174, 779)]",[],[1],[0.6166666666666667],horizontal,"(390.0, 762.0)",0.95,0.572,1,7146.303,2,0.08,0.25
0,557,target,"[(1183, 788)]",[],[1],[0.6333333333333333],horizontal,"(390.0, 262.0)",0.95,0.593,1,7151.566,2,0.08,0.25
0,558,target,"[(1180, 797)]",[],[1],[0.5],horizontal,"(390.0, 762.0)",0.8666666666666667,0.459,1,7157.245,2,0.08,0.25
0,559,target,"[(1175, 774)]",[],[1],[0.3],vertical,"(390.0, 762.0)",1.4333333333333333,0.267,1,7162.28,3,0.08,0.25
0,560,target,"[(1168, 779)]",[],[1],[0.26666666666666666],horizontal,"(390.0, 262.0)",1.3,0.23,1,7168.362,3,0.08,0.25
0,561,target,"[(1189, 768)]",[],[1],[0.48333333333333334],vertical,"(390.0, 762.0)",0.9666666666666667,0.442,1,7174.49,3,0.08,0.25
0,562,target,"[(1170, 770)]",[],[1],[0.5166666666666666],horizontal,"(890.0, 262.0)",0.36666666666666664,0.475,1,7179.848,3,0.08,0.25
0,563,target,"[(1166, 752), (1152, 798)]",[],"[0, 1]",[0.43333333333333335],vertical,"(390.0, 762.0)",1.3,0.392,1,7185.146,3,0.08,0.25
0,564,target,"[(1180, 773)]",[],[1],[],horizontal,"(390.0, 762.0)",,"('cti', 1.189)",0,7192.705,0,0.1,0.25
0,565,target,"[(1186, 795)]",[],[1],[0.5833333333333334],horizontal,"(890.0, 262.0)",0.9166666666666666,0.541,1,7197.045,1,0.1,0.25
0,566,catch,"[(1190, 771)]",[],[1],[],vertical,"(390.0, 262.0)",1.6,nan,1,7201.789,1,0.1,0.25
0,567,target,"[(1194, 756)]",[],[1],[0.85],vertical,"(390.0, 262.0)",0.5166666666666666,nan,0,7206.655,0,0.1,0.25
0,568,catch,"[(1168, 779)]",[],[1],[],horizontal,"(890.0, 762.0)",1.6,nan,1,7211.263,1,0.08,0.25
0,569,catch,"[(1184, 766)]",[],[1],[],horizontal,"(890.0, 262.0)",1.6,nan,1,7216.527,1,0.08,0.25
0,570,target,"[(1195, 769)]",[],[1],[0.6333333333333333],vertical,"(890.0, 262.0)",0.8666666666666667,0.588,1,7221.58,1,0.08,0.25
0,571,target,"[(1190, 794)]",[],[1],[0.4166666666666667],horizontal,"(890.0, 262.0)",1.4666666666666666,0.377,1,7226.163,2,0.08,0.25
0,572,catch,"[(1181, 772)]",[],[1],[],horizontal,"(890.0, 262.0)",1.6,nan,1,7231.77,2,0.08,0.25
0,573,target,"[(1188, 790)]",[],[1],[0.5166666666666666],vertical,"(390.0, 262.0)",0.9,0.477,1,7237.203,2,0.08,0.25
0,574,target,"[(1180, 783)]",[],[1],[0.5833333333333334],vertical,"(890.0, 262.0)",0.8833333333333333,0.537,1,7242.571,2,0.08,0.25
0,575,catch,"[(1189, 765)]",[],[1],[],vertical,"(390.0, 762.0)",1.6,nan,1,7247.928,3,0.08,0.25
0,576,target,"[(1183, 775)]",[],[1],[0.5666666666666667],horizontal,"(890.0, 262.0)",0.6833333333333333,0.524,1,7254.229,3,0.08,0.25
0,577,target,"[(1177, 786)]",[],[1],[0.3333333333333333],horizontal,"(390.0, 762.0)",1.35,0.298,1,7259.582,3,0.08,0.25
0,578,target,"[(1155, 754)]",[],[1],[0.2833333333333333],horizontal,"(890.0, 762.0)",1.4333333333333333,0.247,1,7265.303,3,0.08,0.25
0,579,catch,"[(1162, 787)]",[],[1],[],horizontal,"(890.0, 762.0)",1.6,nan,1,7271.453,3,0.06,0.25
0,580,catch,"[(1184, 785)]",[],[1],[],vertical,"(890.0, 262.0)",1.6,nan,1,7277.099,3,0.06,0.25
0,581,catch,"[(1180, 764)]",[],[1],[],vertical,"(890.0, 262.0)",1.6,nan,1,7282.611,3,0.06,0.25
0,582,catch,"[(1185, 785)]",[],[1],[],horizontal,"(890.0, 762.0)",1.6,nan,1,7288.546,3,0.04,0.25
0,583,target,"[(1168, 761)]",[],[1],[0.5666666666666667],horizontal,"(390.0, 762.0)",0.6666666666666666,0.522,1,7294.496,3,0.04,0.25
0,584,target,"[(1191, 786)]",[],[1],[0.6666666666666666],horizontal,"(890.0, 262.0)",0.5166666666666666,0.624,1,7300.035,3,0.04,0.25
0,585,target,"[(1165, 793)]",[],[1],[0.55],vertical,"(890.0, 262.0)",0.6833333333333333,0.507,1,7304.891,3,0.04,0.25
0,586,target,"[(1174, 790)]",[],[1],[0.23333333333333334],vertical,"(390.0, 262.0)",1.3666666666666667,0.201,1,7310.095,3,0.04,0.25
0,587,target,"[(1180, 758)]",[],[1],[0.55],vertical,"(890.0, 762.0)",1.0666666666666667,0.513,1,7316.007,3,0.04,0.25
0,588,catch,"[(1184, 768)]",[],[1],[],vertical,"(390.0, 762.0)",,"('cti', 1.447),nan",0,7322.162,0,0.06,0.25
0,589,catch,"[(1173, 790)]",[],[1],[],vertical,"(890.0, 762.0)",1.6,nan,1,7326.869,1,0.06,0.25
0,590,target,"[(1180, 779)]",[],[1],[0.5666666666666667],horizontal,"(890.0, 762.0)",0.45,0.523,1,7332.229,1,0.06,0.25
0,591,target,"[(1185, 790)]",[],[1],[0.6166666666666667],vertical,"(390.0, 762.0)",0.36666666666666664,0.57,1,7336.315,1,0.06,0.25
0,592,target,"[(1183, 794)]",[],[1],[0.5166666666666666],vertical,"(890.0, 762.0)",1.5166666666666666,0.47,1,7340.397,2,0.06,0.25
0,593,target,"[(1183, 778)]",[],[1],[0.65],vertical,"(390.0, 262.0)",1.1333333333333333,0.609,1,7346.214,2,0.06,0.25
0,594,target,"[(1180, 777)]",[],[1],[0.3833333333333333],horizontal,"(390.0, 262.0)",1.3666666666666667,0.349,1,7351.666,2,0.06,0.25
0,595,target,"[(1173, 785)]",[],[1],[0.85],vertical,"(890.0, 762.0)",0.6333333333333333,nan,0,7357.58,0,0.06,0.25
0,596,target,"[(1160, 779)]",[],[1],[0.6],vertical,"(390.0, 762.0)",0.45,0.558,1,7362.483,1,0.06,0.25
0,597,target,"[(1175, 772)]",[],[1],[0.5333333333333333],horizontal,"(390.0, 262.0)",0.4166666666666667,0.494,1,7367.395,1,0.04,0.25
0,598,target,"[(1182, 773)]",[],[1],[0.85],vertical,"(890.0, 762.0)",0.5666666666666667,nan,0,7371.596,0,0.04,0.25
0,599,catch,"[(1153, 787)]",[],[1],[],vertical,"(890.0, 262.0)",1.6,nan,1,7376.109,1,0.04,0.25
0,600,target,"[(1179, 785)]",[],[1],[0.5666666666666667],vertical,"(890.0, 762.0)",0.7333333333333333,0.53,1,7381.481,1,0.04,0.25
0,601,target,"[(1158, 788)]",[],[1],[0.5166666666666666],horizontal,"(890.0, 762.0)",0.8166666666666667,0.475,1,7386.2,1,0.04,0.25
0,602,catch,"[(1178, 790)]",[],[1],[],horizontal,"(890.0, 762.0)",1.6,nan,1,7393.839,2,0.04,0.25
0,603,target,"[(1159, 787)]",[],[1],[0.2],vertical,"(390.0, 762.0)",1.2,0.168,0,7399.321,0,0.04,0.25
0,604,target,"[(1156, 789)]",[],[1],[0.5],horizontal,"(390.0, 762.0)",1.2,0.461,1,7403.68,1,0.04,0.25
0,605,target,"[(1174, 789)]",[],[1],[0.3333333333333333],vertical,"(890.0, 762.0)",1.3333333333333333,0.298,1,7408.613,1,0.04,0.25
0,606,target,"[(1160, 790)]",[],[1],[0.5166666666666666],horizontal,"(390.0, 262.0)",0.5166666666666666,0.483,1,7414.106,1,0.04,0.25
0,607,target,"[(1180, 770)]",[],[1],[0.65],vertical,"(890.0, 262.0)",1.15,0.618,1,7418.564,2,0.04,0.25
0,608,target,"[(1180, 782)]",[],[1],[0.3833333333333333],vertical,"(890.0, 762.0)",1.3833333333333333,0.341,1,7424.496,2,0.04,0.25
0,609,target,"[(1160, 779)]",[],[1],[0.5333333333333333],horizontal,"(890.0, 262.0)",0.7166666666666667,0.495,1,7430.4,2,0.04,0.25
0,610,target,"[(1155, 788)]",[],[1],[0.13333333333333333],horizontal,"(890.0, 762.0)",1.45,0.102,0,7435.745,0,0.04,0.25
0,611,catch,"[(1175, 794)]",[],[1],[],horizontal,"(890.0, 762.0)",1.6,nan,1,7440.509,1,0.04,0.25
0,612,target,"[(1191, 794)]",[],[1],[0.5],vertical,"(390.0, 262.0)",1.3833333333333333,0.461,1,7445.863,1,0.04,0.25
0,613,target,"[(1155, 768)]",[],[1],[0.48333333333333334],horizontal,"(890.0, 262.0)",1.35,0.444,1,7451.086,1,0.04,0.25
0,614,catch,"[(1165, 779)]",[],[1],[],horizontal,"(890.0, 262.0)",1.6,nan,1,7456.229,2,0.02,0.25
0,615,target,"[(1195, 770)]",[],[1],[0.65],vertical,"(890.0, 262.0)",0.45,0.609,1,7462.013,2,0.02,0.25
0,616,target,"[(1172, 789)]",[],[1],[0.6666666666666666],horizontal,"(390.0, 262.0)",0.8,0.628,1,7466.786,2,0.02,0.25
0,617,target,"[(1159, 792)]",[],[1],[0.06666666666666667],vertical,"(390.0, 262.0)",1.55,0.036,0,7472.763,0,0.02,0.25
0,618,target,"[(1174, 791)]",[],[1],[0.1],horizontal,"(390.0, 762.0)",1.5333333333333332,0.068,0,7477.878,0,0.02,0.25
0,619,target,"[(1183, 787)]",[],[1],[0.5833333333333334],horizontal,"(390.0, 762.0)",0.5,0.541,1,7482.231,1,0.02,0.25
0,620,catch,"[(1177, 765)]",[],[1],[],horizontal,"(390.0, 262.0)",1.6,nan,1,7487.114,1,0.02,0.25
0,621,target,"[(1158, 774)]",[],[1],[0.55],horizontal,"(890.0, 762.0)",0.7,0.515,1,7492.178,1,0.02,0.25
0,622,catch,"[(1173, 776)]",[],[1],[0.03333333333333333],horizontal,"(390.0, 762.0)",1.6,"0.02,nan",0,7496.799,0,0.04,0.25
0,623,target,"[(1158, 789)]",[],[1],[0.55],horizontal,"(390.0, 262.0)",0.9166666666666666,0.509,1,7501.481,1,0.04,0.25
0,624,target,"[(1177, 769)]",[],[1],[0.5333333333333333],vertical,"(390.0, 262.0)",1.1,0.493,1,7506.647,1,0.04,0.25
0,625,target,"[(1178, 786)]",[],[1],[0.6166666666666667],vertical,"(890.0, 762.0)",0.6333333333333333,0.587,1,7512.029,1,0.04,0.25
0,626,target,"[(1187, 754)]",[],[1],[0.5833333333333334],horizontal,"(890.0, 762.0)",0.3833333333333333,0.55,1,7516.905,2,0.04,0.25
0,627,target,"[(1184, 784)]",[],[1],[0.6166666666666667],horizontal,"(890.0, 762.0)",0.6166666666666667,0.582,1,7521.588,2,0.04,0.25
0,628,catch,"[(1146, 786)]",[],[1],[],horizontal,"(390.0, 262.0)",,"('cti', 1.279),nan",0,7526.347,0,0.06,0.25
0,629,target,"[(1178, 794)]",[],[1],[0.5333333333333333],vertical,"(890.0, 762.0)",0.4666666666666667,0.496,1,7531.095,1,0.06,0.25
0,630,target,"[(1152, 763)]",[],[1],[0.48333333333333334],horizontal,"(890.0, 762.0)",1.3833333333333333,0.45,1,7535.61,1,0.06,0.25
0,631,target,"[(1165, 777)]",[],[1],[0.5666666666666667],vertical,"(890.0, 762.0)",1.1166666666666667,0.528,1,7540.636,1,0.06,0.25
0,632,catch,"[(1168, 760)]",[],[1],[],vertical,"(890.0, 262.0)",1.6,nan,1,7545.647,2,0.06,0.25
0,633,target,"[(1158, 769)]",[],[1],[0.5166666666666666],vertical,"(390.0, 762.0)",1.2833333333333332,0.477,1,7550.872,2,0.06,0.25
0,634,target,"[(1150, 761)]",[],[1],[0.55],vertical,"(390.0, 762.0)",1.1,0.516,1,7556.402,2,0.06,0.25
0,635,target,"[(1160, 761)]",[],[1],[0.31666666666666665],horizontal,"(890.0, 762.0)",1.3,0.284,1,7561.904,2,0.06,0.25
0,636,target,"[(1184, 765)]",[],[1],[0.6333333333333333],horizontal,"(390.0, 262.0)",1.1,0.591,1,7567.847,3,0.06,0.25
0,637,target,"[(1160, 773)]",[],[1],[0.7],vertical,"(390.0, 262.0)",0.36666666666666664,0.668,1,7573.921,3,0.06,0.25
0,638,target,"[(1150, 752), (1179, 805)]",[],"[0, 1]",[0.6166666666666667],horizontal,"(890.0, 762.0)",0.5833333333333334,0.581,1,7579.28,3,0.04,0.25
0,639,target,"[(1147, 791)]",[],[1],[0.5333333333333333],horizontal,"(390.0, 762.0)",0.85,0.499,1,7586.149,3,0.04,0.25
0,640,target,"[(1180, 794)]",[],[1],[0.5833333333333334],vertical,"(890.0, 762.0)",0.7166666666666667,0.541,1,7592.01,3,0.04,0.25
0,641,target,"[(1180, 759)]",[],[1],[0.5],horizontal,"(390.0, 762.0)",1.1333333333333333,0.462,1,7597.331,3,0.04,0.25
0,642,target,"[(1155, 776)]",[],[1],[0.6333333333333333],vertical,"(890.0, 762.0)",0.9333333333333333,0.591,1,7603.383,3,0.04,0.25
0,643,target,"[(1179, 787)]",[],[1],[0.3],horizontal,"(390.0, 262.0)",1.15,0.261,1,7609.432,3,0.04,0.25
0,644,target,"[(1178, 779)]",[],[1],[0.6166666666666667],horizontal,"(390.0, 762.0)",0.9666666666666667,0.578,1,7615.532,3,0.04,0.25
0,645,target,"[(1180, 788)]",[],[1],[0.48333333333333334],horizontal,"(890.0, 262.0)",0.35,0.446,1,7621.214,3,0.04,0.25
0,646,target,"[(1169, 784)]",[],[1],[0.5833333333333334],vertical,"(890.0, 762.0)",0.5666666666666667,0.545,1,7626.239,3,0.04,0.25
0,647,target,"[(1162, 769)]",[],[1],[0.5166666666666666],horizontal,"(890.0, 262.0)",1.0333333333333332,0.478,1,7631.664,3,0.04,0.25
0,648,catch,"[(1174, 773)]",[],[1],[],vertical,"(890.0, 262.0)",1.6,nan,1,7637.548,3,0.04,0.25
0,649,catch,"[(1153, 771)]",[],[1],[],vertical,"(390.0, 262.0)",,"('cti', 1.478),nan",0,7643.573,0,0.06,0.25
0,650,catch,"[(1166, 791)]",[],[1],[],horizontal,"(890.0, 262.0)",1.6,nan,1,7648.43,1,0.06,0.25
0,651,catch,"[(1182, 772)]",[],[1],[],horizontal,"(890.0, 762.0)",1.6,nan,1,7653.907,1,0.06,0.25
0,652,catch,"[(1153, 767)]",[],[1],[],vertical,"(390.0, 762.0)",,"('cti', 1.548),nan",0,7659.324,0,0.08,0.25
0,653,target,"[(1173, 789)]",[],[1],[0.5],vertical,"(390.0, 762.0)",0.8833333333333333,0.462,1,7664.126,1,0.08,0.25
0,654,target,"[(1171, 750), (1151, 817)]",[],"[0, 1]",[0.5333333333333333],vertical,"(890.0, 262.0)",1.1,0.499,1,7669.057,1,0.08,0.25
0,655,target,"[(1153, 764)]",[],[1],[0.7],horizontal,"(890.0, 262.0)",0.95,0.657,1,7675.38,1,0.08,0.25
0,656,catch,"[(1150, 758)]",[],[1],[],vertical,"(390.0, 262.0)",1.6,"('cti', 1.579),nan",0,7680.581,0,0.1,0.25
0,657,target,"[(1175, 786)]",[],[1],[0.7166666666666667],horizontal,"(890.0, 262.0)",0.5666666666666667,0.675,1,7685.331,1,0.1,0.25
0,658,catch,"[(1176, 789)]",[],[1],[],vertical,"(390.0, 762.0)",1.6,"('cti', 1.597),nan",0,7690.077,0,0.12,0.25
0,659,catch,"[(1145, 779)]",[],[1],[],vertical,"(390.0, 762.0)",1.6,nan,1,7694.681,1,0.12,0.25
0,660,target,"[(1149, 774)]",[],[1],[0.5666666666666667],horizontal,"(390.0, 262.0)",0.6,0.528,1,7700.397,1,0.12,0.25
0,661,catch,"[(1176, 779)]",[],[1],[],vertical,"(890.0, 762.0)",1.6,nan,1,7704.596,1,0.12,0.25
0,662,target,"[(1155, 790)]",[],[1],[0.6833333333333333],vertical,"(390.0, 262.0)",0.7666666666666666,0.654,1,7709.632,2,0.12,0.25
0,663,target,"[(1177, 767)]",[],[1],[0.6666666666666666],horizontal,"(890.0, 262.0)",0.55,0.623,1,7715.389,2,0.12,0.25
0,664,catch,"[(1165, 767)]",[],[1],[],horizontal,"(390.0, 762.0)",1.6,nan,1,7720.872,2,0.12,0.25
0,665,catch,"[(1150, 772)]",[],[1],[],vertical,"(390.0, 262.0)",1.6,nan,1,7726.531,2,0.12,0.25
0,666,target,"[(1145, 779)]",[],[1],[0.6],horizontal,"(390.0, 762.0)",0.7166666666666667,0.557,1,7732.013,3,0.12,0.25
0,667,target,"[(1150, 754)]",[],[1],[0.55],horizontal,"(890.0, 262.0)",0.4166666666666667,0.512,1,7738.126,3,0.12,0.25
0,668,catch,"[(1166, 778)]",[],[1],[],vertical,"(390.0, 262.0)",,"('cti', 1.161),nan",0,7743.407,0,0.14,0.25
0,669,target,"[(1148, 784)]",[],[1],[0.48333333333333334],horizontal,"(390.0, 262.0)",1.35,0.441,1,7747.665,1,0.14,0.25
0,670,target,"[(1161, 786)]",[],[1],[0.6],vertical,"(890.0, 262.0)",0.5166666666666666,0.558,1,7753.233,1,0.14,0.25
0,671,catch,"[(1158, 772)]",[],[1],[],horizontal,"(890.0, 762.0)",,"('cti', 1.503),nan",0,7757.881,0,0.16,0.25
0,672,target,"[(1169, 799)]",[],[1],[0.5666666666666667],vertical,"(390.0, 262.0)",0.7833333333333333,0.526,1,7762.903,1,0.14,0.25
0,673,target,"[(1169, 769)]",[],[1],[0.5833333333333334],horizontal,"(390.0, 762.0)",1.1666666666666667,0.54,1,7767.514,1,0.14,0.25
0,674,target,"[(1145, 788)]",[],[1],[0.6666666666666666],vertical,"(890.0, 262.0)",1.1166666666666667,0.628,1,7772.779,1,0.14,0.25
0,675,catch,"[(1180, 772)]",[],[1],[],vertical,"(890.0, 262.0)",,"('cti', 1.57),nan",0,7778.348,0,0.16,0.25
0,676,target,"[(1165, 810)]",[],[1],[0.85],horizontal,"(890.0, 762.0)",0.7833333333333333,nan,0,7783.109,0,0.16,0.25
0,677,target,"[(1169, 791)]",[],[1],[0.6166666666666667],horizontal,"(890.0, 262.0)",0.65,0.57,1,7932.281,1,0.16,0.25
0,678,target,"[(1183, 789)]",[],[1],[0.5666666666666667],horizontal,"(890.0, 262.0)",1.0166666666666666,0.525,1,7937.28,1,0.14,0.25
0,679,target,"[(1183, 794)]",[],[1],[0.5666666666666667],vertical,"(390.0, 262.0)",0.6166666666666667,0.523,1,7942.214,1,0.14,0.25
0,680,catch,"[(1157, 770)]",[],[1],[],horizontal,"(890.0, 262.0)",1.6,nan,1,7946.947,2,0.14,0.25
0,681,target,"[(1137, 774)]",[],[1],[0.6666666666666666],horizontal,"(390.0, 262.0)",1.2666666666666666,0.62,1,7952.282,2,0.14,0.25
0,682,target,"[(1177, 761)]",[],[1],[0.55],vertical,"(390.0, 262.0)",1.0833333333333333,0.51,1,7957.73,2,0.14,0.25
0,683,catch,"[(1179, 782)]",[],[1],[],horizontal,"(890.0, 762.0)",,"('cti', 1.535),nan",0,7963.315,0,0.16,0.25
0,684,target,"[(1141, 789)]",[],[1],[0.6333333333333333],horizontal,"(390.0, 262.0)",1.3166666666666667,0.591,1,7968.349,1,0.16,0.25
0,685,catch,"[(1177, 780)]",[],[1],[],vertical,"(390.0, 762.0)",1.6,nan,1,7973.598,1,0.16,0.25
0,686,catch,"[(1173, 764)]",[],[1],[],horizontal,"(390.0, 262.0)",1.6,nan,1,7978.838,1,0.16,0.25
0,687,target,"[(1162, 778)]",[],[1],[0.8],horizontal,"(390.0, 762.0)",1.4,0.75,1,7983.864,2,0.16,0.25
0,688,target,"[(1195, 770)]",[],[1],[0.5333333333333333],horizontal,"(390.0, 262.0)",0.65,0.49,1,7989.605,2,0.16,0.25
0,689,target,"[(1184, 756)]",[],[1],[0.3333333333333333],vertical,"(890.0, 262.0)",1.4166666666666667,0.293,1,7994.559,2,0.16,0.25
0,690,target,"[(1201, 753), (1151, 787)]",[],"[0, 1]",[0.5333333333333333],horizontal,"(390.0, 262.0)",1.05,0.493,1,7999.873,2,0.16,0.25
0,691,target,"[(1174, 792)]",[],[1],[0.5],vertical,"(390.0, 262.0)",0.8333333333333334,0.461,1,8006.54,3,0.16,0.25
0,692,target,"[(1172, 774)]",[],[1],[0.65],horizontal,"(890.0, 762.0)",1.0166666666666666,0.605,1,8012.421,3,0.16,0.25
0,693,catch,"[(1185, 788)]",[],[1],[],horizontal,"(890.0, 762.0)",1.6,nan,1,8018.41,3,0.16,0.25
0,694,target,"[(1155, 795)]",[],[1],[],vertical,"(390.0, 262.0)",,"('cti', 1.116)",0,8024.38,0,0.18,0.25
0,695,catch,"[(1154, 792)]",[],[1],[],horizontal,"(890.0, 262.0)",1.6,nan,1,8028.214,1,0.18,0.25
0,696,target,"[(1148, 772)]",[],[1],[0.6166666666666667],horizontal,"(890.0, 262.0)",0.45,0.578,1,8033.068,1,0.18,0.25
0,697,catch,"[(1138, 770)]",[],[1],[],vertical,"(890.0, 262.0)",1.6,nan,1,8037.872,1,0.18,0.25
0,698,target,"[(1159, 789)]",[],[1],[0.4666666666666667],horizontal,"(890.0, 762.0)",1.2333333333333334,0.425,1,8042.937,2,0.18,0.25
0,699,target,"[(1173, 804)]",[],[1],[0.65],horizontal,"(390.0, 762.0)",0.5333333333333333,0.604,1,8048.281,2,0.16,0.25
0,700,target,"[(1165, 794)]",[],[1],[0.4666666666666667],vertical,"(890.0, 262.0)",1.4333333333333333,0.43,1,8053.558,2,0.16,0.25
0,701,catch,"[(1145, 804)]",[],[1],[],vertical,"(890.0, 262.0)",1.6,nan,1,8059.039,2,0.16,0.25
0,702,catch,"[(1177, 779)]",[],[1],[],vertical,"(390.0, 762.0)",,"('cti', 1.539),nan",0,8065.423,0,0.16,0.25
0,703,target,"[(1145, 787)]",[],[1],[0.7166666666666667],vertical,"(390.0, 262.0)",0.6833333333333333,0.679,1,8070.015,1,0.16,0.25
0,704,target,"[(1183, 778)]",[],[1],[0.7],vertical,"(890.0, 262.0)",0.8166666666666667,0.657,1,8074.758,1,0.16,0.25
0,705,target,"[(1151, 759)]",[],[1],[0.7166666666666667],vertical,"(890.0, 762.0)",0.8333333333333334,0.674,1,8080.003,1,0.16,0.25
0,706,target,"[(1150, 778)]",[],[1],[0.45],horizontal,"(890.0, 762.0)",1.2666666666666666,0.409,1,8084.615,2,0.14,0.25
0,707,catch,"[(1165, 794)]",[],[1],[],horizontal,"(890.0, 262.0)",1.6,nan,1,8090.082,2,0.14,0.25
0,708,target,"[(1157, 793)]",[],[1],[0.6333333333333333],horizontal,"(890.0, 762.0)",0.6166666666666667,0.592,1,8095.315,2,0.12,0.25
0,709,catch,"[(1150, 799)]",[],[1],[],horizontal,"(390.0, 262.0)",,"('cti', 1.474),nan",0,8100.746,0,0.14,0.25
0,710,target,"[(1161, 788)]",[],[1],[0.5166666666666666],horizontal,"(890.0, 262.0)",0.7,0.474,1,8105.956,1,0.14,0.25
0,711,target,"[(1150, 765)]",[],[1],[0.85],horizontal,"(390.0, 262.0)",0.7166666666666667,nan,0,8110.938,0,0.14,0.25
0,712,target,"[(1139, 776)]",[],[1],[0.5666666666666667],vertical,"(390.0, 262.0)",0.6833333333333333,0.528,1,8115.337,1,0.14,0.25
0,713,target,"[(1172, 762)]",[],[1],[0.5333333333333333],vertical,"(890.0, 262.0)",0.48333333333333334,0.493,1,8120.351,1,0.14,0.25
0,714,target,"[(1153, 773)]",[],[1],[0.36666666666666664],vertical,"(890.0, 262.0)",1.4666666666666666,0.325,1,8125.065,1,0.14,0.25
0,715,target,"[(1167, 774)]",[],[1],[0.3333333333333333],horizontal,"(890.0, 262.0)",1.5166666666666666,0.297,1,8130.269,2,0.14,0.25
0,716,target,"[(1170, 761)]",[],[1],[0.7166666666666667],vertical,"(890.0, 762.0)",1.1,0.672,1,8136.13,2,0.14,0.25
0,717,target,"[(1160, 777)]",[],[1],[0.23333333333333334],horizontal,"(390.0, 762.0)",0.85,0.197,0,8141.732,0,0.14,0.25
0,718,target,"[(1141, 772)]",[],[1],[0.4166666666666667],horizontal,"(390.0, 762.0)",0.7666666666666666,0.375,1,8145.599,1,0.12,0.25
0,719,target,"[(1158, 790)]",[],[1],[0.5333333333333333],vertical,"(890.0, 262.0)",0.43333333333333335,0.495,1,8150.515,1,0.12,0.25
0,720,target,"[(1178, 770)]",[],[1],[0.5],horizontal,"(390.0, 262.0)",1.4166666666666667,0.459,1,8155.117,1,0.12,0.25
0,721,target,"[(1187, 791)]",[],[1],[0.11666666666666667],horizontal,"(890.0, 762.0)",1.4833333333333334,0.085,0,8160.866,0,0.1,0.25
0,722,target,"[(1161, 794)]",[],[1],[0.7333333333333333],vertical,"(390.0, 762.0)",1.2666666666666666,0.686,1,8165.649,1,0.1,0.25
0,723,target,"[(1174, 743), (1141, 820)]",[],"[0, 1]",[0.55],vertical,"(390.0, 762.0)",1.1,0.512,1,8170.99,1,0.1,0.25
0,724,catch,"[(1148, 761)]",[],[1],[],horizontal,"(890.0, 762.0)",1.6,nan,1,8177.352,1,0.1,0.25
0,725,target,"[(1141, 785)]",[],[1],[0.6166666666666667],vertical,"(890.0, 762.0)",1.0833333333333333,0.578,1,8182.251,2,0.08,0.25
0,726,target,"[(1173, 790)]",[],[1],[0.6166666666666667],vertical,"(890.0, 762.0)",0.5833333333333334,0.571,1,8187.982,2,0.08,0.25
0,727,target,"[(1176, 789)]",[],[1],[0.65],horizontal,"(890.0, 262.0)",0.8833333333333333,0.608,1,8193.378,2,0.08,0.25
0,728,target,"[(1172, 789)]",[],[1],"[0.85, 0.85]",vertical,"(890.0, 262.0)",1.0666666666666667,"0.802,nan",0,8198.784,0,0.08,0.25
0,729,target,"[(1149, 789)]",[],[1],[0.5833333333333334],vertical,"(890.0, 762.0)",1.2,0.548,1,8203.581,1,0.08,0.25
0,730,target,"[(1175, 784)]",[],[1],[0.6],horizontal,"(390.0, 262.0)",1.0,0.564,1,8209.014,1,0.08,0.25
0,731,target,"[(1151, 785)]",[],[1],[0.55],vertical,"(890.0, 262.0)",0.95,0.508,1,8214.131,1,0.08,0.25
0,732,target,"[(1174, 762)]",[],[1],[0.6],horizontal,"(390.0, 762.0)",0.8833333333333333,0.561,1,8219.05,2,0.08,0.25
0,733,target,"[(1170, 762)]",[],[1],[0.6333333333333333],vertical,"(890.0, 262.0)",0.85,0.597,1,8224.499,2,0.06,0.25
0,734,target,"[(1162, 784)]",[],[1],[0.85],horizontal,"(390.0, 762.0)",0.7333333333333333,nan,0,8230.131,0,0.06,0.25
0,735,target,"[(1135, 766)]",[],[1],[0.6833333333333333],vertical,"(890.0, 262.0)",0.45,0.642,1,8234.557,1,0.06,0.25
0,736,target,"[(1145, 765)]",[],[1],[0.85],vertical,"(890.0, 262.0)",0.6166666666666667,nan,0,8239.227,0,0.06,0.25
0,737,target,"[(1140, 784)]",[],[1],[0.6833333333333333],vertical,"(890.0, 762.0)",0.85,0.641,1,8243.699,1,0.06,0.25
0,738,catch,"[(1177, 767)]",[],[1],[],vertical,"(890.0, 262.0)",1.6,nan,1,8248.431,1,0.06,0.25
0,739,target,"[(1154, 778)]",[],[1],[0.5666666666666667],horizontal,"(390.0, 762.0)",1.2,0.525,1,8253.647,1,0.06,0.25
0,740,catch,"[(1170, 774)]",[],[1],[],vertical,"(890.0, 262.0)",1.6,nan,1,8259.099,2,0.06,0.25
0,741,target,"[(1173, 774)]",[],[1],[0.5333333333333333],horizontal,"(890.0, 262.0)",0.5,0.492,1,8264.559,2,0.06,0.25
0,742,target,"[(1179, 779)]",[],[1],[0.43333333333333335],vertical,"(890.0, 762.0)",1.5,0.396,1,8269.308,2,0.06,0.25
0,743,catch,"[(1150, 793)]",[],[1],[],horizontal,"(390.0, 262.0)",1.6,nan,1,8275.198,2,0.06,0.25
0,744,target,"[(1172, 791)]",[],[1],[0.5833333333333334],horizontal,"(390.0, 262.0)",0.5,0.539,1,8280.767,3,0.04,0.25
0,745,target,"[(1150, 766)]",[],[1],[0.31666666666666665],horizontal,"(890.0, 262.0)",1.4833333333333334,0.279,1,8286.098,3,0.04,0.25
0,746,target,"[(1158, 764)]",[],[1],[0.6333333333333333],vertical,"(890.0, 262.0)",0.7166666666666667,0.599,1,8291.948,3,0.04,0.25
0,747,catch,"[(1180, 773)]",[],[1],[],vertical,"(890.0, 262.0)",1.6,nan,1,8297.333,3,0.04,0.25
0,748,catch,"[(1151, 787)]",[],[1],[],horizontal,"(890.0, 762.0)",1.6,nan,1,8303.116,3,0.04,0.25
0,749,target,"[(1152, 761)]",[],[1],[0.55],vertical,"(890.0, 762.0)",0.6166666666666667,0.51,1,8308.932,3,0.04,0.25
0,750,catch,"[(1146, 789)]",[],[1],[],horizontal,"(890.0, 262.0)",1.6,nan,1,8314.399,3,0.04,0.25
0,751,target,"[(1174, 769)]",[],[1],[0.55],vertical,"(890.0, 762.0)",0.36666666666666664,0.513,1,8320.349,3,0.04,0.25
0,752,target,"[(1150, 756)]",[],[1],[0.55],horizontal,"(390.0, 262.0)",0.5666666666666667,0.513,1,8325.309,3,0.02,0.25
0,753,catch,"[(1160, 784)]",[],[1],[],vertical,"(390.0, 762.0)",1.6,nan,1,8330.682,3,0.02,0.25
0,754,catch,"[(1167, 772)]",[],[1],[],vertical,"(890.0, 762.0)",1.6,nan,1,8336.678,3,0.02,0.25
0,755,catch,"[(1161, 789)]",[],[1],[],vertical,"(890.0, 262.0)",1.6,nan,1,8342.891,3,0.02,0.25
0,756,target,"[(1150, 769)]",[],[1],[0.6666666666666666],horizontal,"(390.0, 262.0)",0.4,0.624,1,8349.398,3,0.02,0.25
0,757,target,"[(1145, 789)]",[],[1],[0.35],horizontal,"(890.0, 762.0)",1.4666666666666666,0.31,1,8354.791,3,0.02,0.25
0,758,catch,"[(1152, 770)]",[],[1],[],vertical,"(890.0, 262.0)",1.6,nan,1,8361.12,3,0.02,0.25
0,759,target,"[(1170, 777)]",[],[1],[0.5333333333333333],vertical,"(390.0, 262.0)",0.5166666666666666,0.495,1,8367.167,3,0.0,0.25
0,760,catch,"[(1131, 791)]",[],[1],[],horizontal,"(390.0, 762.0)",1.6,nan,1,8372.284,3,0.0,0.25
0,761,target,"[(1177, 778)]",[],[1],[0.18333333333333332],vertical,"(390.0, 262.0)",1.45,0.15,0,8378.716,0,0.0,0.25
0,762,catch,"[(1151, 790)]",[],[1],[],horizontal,"(890.0, 762.0)",,"('cti', 1.58),nan",0,8383.575,0,0.02,0.25
0,763,catch,"[(1174, 806)]",[],[1],[],vertical,"(890.0, 262.0)",1.6,nan,1,8388.417,1,0.02,0.25
0,764,target,"[(1180, 768)]",[],[1],[0.6833333333333333],vertical,"(890.0, 762.0)",0.7166666666666667,0.65,1,8393.472,1,0.02,0.25
0,765,target,"[(1165, 764)]",[],[1],[0.5833333333333334],vertical,"(390.0, 262.0)",0.6166666666666667,0.545,1,8398.141,1,0.02,0.25
0,766,target,"[(1160, 765)]",[],[1],[0.5333333333333333],horizontal,"(390.0, 762.0)",0.8666666666666667,0.495,1,8402.532,2,0.02,0.25
0,767,catch,"[(1176, 802)]",[],[1],[],vertical,"(890.0, 762.0)",1.6,nan,1,8408.016,2,0.02,0.25
0,768,target,"[(1150, 789)]",[],[1],[0.6],horizontal,"(890.0, 762.0)",0.5666666666666667,0.559,1,8413.482,2,0.02,0.25
0,769,catch,"[(1180, 795)]",[],[1],[],vertical,"(390.0, 762.0)",1.6,nan,1,8418.564,2,0.02,0.25
0,770,target,"[(1159, 768)]",[],[1],[0.7],horizontal,"(390.0, 762.0)",0.5166666666666666,0.657,1,8424.4,3,0.02,0.25
0,771,catch,"[(1178, 771)]",[],[1],[],vertical,"(890.0, 762.0)",1.6,nan,1,8430.367,3,0.02,0.25
0,772,catch,"[(1150, 764)]",[],[1],[],vertical,"(390.0, 762.0)",1.6,nan,1,8436.622,3,0.02,0.25
0,773,target,"[(1154, 776)]",[],[1],[0.55],vertical,"(390.0, 762.0)",0.45,0.513,1,8442.583,3,0.02,0.25
0,774,catch,"[(1158, 774)]",[],[1],[],horizontal,"(390.0, 262.0)",1.6,nan,1,8447.667,3,0.02,0.25
0,775,catch,"[(1176, 774)]",[],[1],[],vertical,"(390.0, 762.0)",1.6,nan,1,8453.715,3,0.02,0.25
0,776,target,"[(1150, 751), (1148, 805)]",[],"[0, 1]",[0.6333333333333333],vertical,"(890.0, 262.0)",0.5166666666666666,0.594,1,8459.435,3,0.02,0.25
0,777,target,"[(1175, 796)]",[],[1],[0.5333333333333333],vertical,"(390.0, 262.0)",1.2,0.493,1,8466.083,3,0.02,0.25
0,778,catch,"[(1158, 780)]",[],[1],[],horizontal,"(390.0, 262.0)",1.6,nan,1,8472.195,3,0.02,0.25
0,779,target,"[(1174, 765)]",[],[1],[0.5666666666666667],vertical,"(890.0, 762.0)",0.43333333333333335,0.525,1,8478.029,3,0.02,0.25
0,780,target,"[(1151, 765)]",[],[1],[0.5166666666666666],vertical,"(890.0, 762.0)",1.25,0.475,1,8482.797,3,0.02,0.25
0,781,catch,"[(1160, 790)]",[],[1],[],vertical,"(390.0, 262.0)",1.6,nan,1,8489.082,3,0.02,0.25
0,782,catch,"[(1167, 778)]",[],[1],[],horizontal,"(390.0, 262.0)",1.6,nan,1,8494.684,3,0.02,0.25
0,783,target,"[(1173, 793)]",[],[1],[0.7166666666666667],horizontal,"(390.0, 262.0)",0.3833333333333333,0.674,1,8500.573,3,0.02,0.25
0,784,catch,"[(1165, 779)]",[],[1],[],vertical,"(890.0, 762.0)",1.6,nan,1,8505.878,3,0.02,0.25
0,785,target,"[(1153, 779)]",[],[1],[0.48333333333333334],horizontal,"(890.0, 262.0)",1.1333333333333333,0.443,1,8511.889,3,0.02,0.25
0,786,target,"[(1151, 781)]",[],[1],[0.55],vertical,"(890.0, 762.0)",0.6,0.509,1,8517.65,3,0.02,0.25
0,787,catch,"[(1152, 782)]",[],[1],[],vertical,"(390.0, 762.0)",1.6,nan,1,8523.077,3,0.02,0.25
0,788,target,"[(1151, 789)]",[],[1],[0.48333333333333334],horizontal,"(390.0, 762.0)",1.2166666666666666,0.437,1,8528.765,3,0.02,0.25
0,789,target,"[(1165, 775)]",[],[1],[0.6666666666666666],vertical,"(390.0, 762.0)",0.6333333333333333,0.618,1,8534.831,3,0.02,0.25
0,790,catch,"[(1158, 779)]",[],[1],[],horizontal,"(390.0, 762.0)",1.6,nan,1,8540.532,3,0.02,0.25
0,791,target,"[(1155, 775)]",[],[1],[0.43333333333333335],horizontal,"(890.0, 762.0)",1.25,0.392,1,8546.253,3,0.02,0.25
0,792,target,"[(1150, 789)]",[],[1],[0.6166666666666667],vertical,"(890.0, 762.0)",0.9333333333333333,0.569,1,8552.433,3,0.02,0.25
0,793,target,"[(1169, 767)]",[],[1],[0.6666666666666666],vertical,"(890.0, 762.0)",1.1666666666666667,0.621,1,8558.05,3,0.02,0.25
0,794,target,"[(1167, 780)]",[],[1],[0.65],vertical,"(890.0, 762.0)",0.7,0.606,1,8563.983,3,0.02,0.25
0,795,catch,"[(1153, 776)]",[],[1],[],vertical,"(890.0, 262.0)",1.6,nan,1,8569.566,3,0.02,0.25
0,796,target,"[(1154, 784)]",[],[1],[0.6166666666666667],vertical,"(890.0, 762.0)",0.95,0.57,1,8575.249,3,0.02,0.25
0,797,catch,"[(1153, 776)]",[],[1],[],horizontal,"(390.0, 762.0)",1.6,nan,1,8581.295,3,0.02,0.25
0,798,target,"[(1158, 779)]",[],[1],[0.16666666666666666],horizontal,"(890.0, 262.0)",1.45,0.133,0,8587.143,0,0.02,0.25
0,799,catch,"[(1174, 798)]",[],[1],[],vertical,"(890.0, 762.0)",1.6,nan,1,8591.999,1,0.02,0.25
0,800,catch,"[(1148, 772)]",[],[1],[],horizontal,"(890.0, 762.0)",1.6,nan,1,8597.087,1,0.02,0.25
0,801,target,"[(1178, 777)]",[],[1],[0.7],horizontal,"(890.0, 762.0)",0.5333333333333333,0.656,1,8601.961,1,0.02,0.25
0,802,target,"[(1178, 786)]",[],[1],[0.3333333333333333],horizontal,"(390.0, 262.0)",1.5,0.289,1,8606.276,2,0.02,0.25
0,803,catch,"[(1177, 777)]",[],[1],[],horizontal,"(390.0, 762.0)",1.6,nan,1,8611.902,2,0.02,0.25
0,804,target,"[(1170, 791)]",[],[1],[0.4666666666666667],vertical,"(390.0, 762.0)",1.25,0.425,1,8617.571,2,0.02,0.25
0,805,catch,"[(1153, 789)]",[],[1],[],horizontal,"(890.0, 262.0)",1.6,nan,1,8623.641,2,0.02,0.25
0,806,target,"[(1159, 765)]",[],[1],[0.55],horizontal,"(390.0, 762.0)",1.0833333333333333,0.504,1,8629.1,3,0.02,0.25
0,807,catch,"[(1154, 761)]",[],[1],[],vertical,"(890.0, 262.0)",1.6,nan,1,8635.083,3,0.02,0.25
0,808,target,"[(1178, 772)]",[],[1],[0.6333333333333333],vertical,"(890.0, 762.0)",0.75,0.589,1,8640.934,3,0.02,0.25
0,809,target,"[(1170, 774)]",[],[1],[0.7166666666666667],vertical,"(890.0, 762.0)",0.5166666666666666,0.668,1,8646.532,3,0.02,0.25
0,810,target,"[(1160, 771)]",[],[1],[0.4666666666666667],vertical,"(390.0, 262.0)",1.3166666666666667,0.426,1,8652.034,3,0.02,0.25
0,811,target,"[(1154, 789)]",[],[1],[0.6],vertical,"(390.0, 762.0)",0.36666666666666664,0.555,1,8658.1,3,0.02,0.25
0,812,target,"[(1137, 795)]",[],[1],[0.55],horizontal,"(890.0, 262.0)",0.55,0.505,1,8663.561,3,0.0,0.25
0,813,target,"[(1155, 783)]",[],[1],[0.6166666666666667],horizontal,"(890.0, 262.0)",0.8833333333333333,0.58,1,8668.949,3,0.0,0.25
0,814,catch,"[(1149, 770)]",[],[1],[],horizontal,"(390.0, 262.0)",1.6,nan,1,8674.354,3,0.0,0.25
0,815,catch,"[(1178, 781)]",[],[1],[],horizontal,"(390.0, 262.0)",,"('cti', 1.536),nan",0,8680.067,0,0.02,0.25
0,816,catch,"[(1148, 794)]",[],[1],[],vertical,"(890.0, 262.0)",1.6,nan,1,8684.85,1,0.02,0.25
0,817,target,"[(1150, 760)]",[],[1],[0.55],vertical,"(890.0, 762.0)",0.9,0.512,1,8696.387,1,0.02,0.25
0,818,catch,"[(1174, 764)]",[],[1],[],vertical,"(890.0, 762.0)",1.6,nan,1,8701.233,1,0.02,0.25
0,819,target,"[(1149, 766)]",[],[1],[0.08333333333333333],vertical,"(390.0, 262.0)",1.4833333333333334,0.05,0,8705.9,0,0.02,0.25
0,820,catch,"[(1155, 773)]",[],[1],[],vertical,"(890.0, 262.0)",1.6,nan,1,8710.683,1,0.02,0.25
0,821,target,"[(1150, 791)]",[],[1],[0.5166666666666666],vertical,"(890.0, 262.0)",0.9166666666666666,0.474,1,8715.829,1,0.02,0.25
0,822,catch,"[(1150, 753), (1167, 780)]",[],"[0, 1]",[],horizontal,"(390.0, 262.0)",1.6,nan,1,8720.677,1,0.02,0.25
0,823,target,"[(1135, 777)]",[],[1],[0.5],horizontal,"(390.0, 762.0)",1.0833333333333333,0.461,1,8726.812,2,0.02,0.25
0,824,target,"[(1154, 771)]",[],[1],[0.45],vertical,"(890.0, 262.0)",1.3166666666666667,0.409,1,8732.348,2,0.02,0.25
0,825,target,"[(1158, 759)]",[],[1],[0.4166666666666667],vertical,"(890.0, 762.0)",1.25,0.376,1,8737.816,2,0.02,0.25
0,826,catch,"[(1154, 760)]",[],[1],[],horizontal,"(390.0, 762.0)",1.6,nan,1,8743.599,2,0.02,0.25
0,827,target,"[(1173, 794)]",[],[1],[0.36666666666666664],vertical,"(890.0, 762.0)",1.3666666666666667,0.328,1,8748.849,3,0.02,0.25
0,828,target,"[(1175, 776)]",[],[1],[0.23333333333333334],vertical,"(890.0, 762.0)",1.5166666666666666,0.194,0,8755.393,0,0.02,0.25
0,829,target,"[(1147, 781)]",[],[1],[],vertical,"(890.0, 262.0)",,"('cti', 1.494)",0,8759.734,0,0.04,0.25
0,830,target,"[(1157, 798)]",[],[1],[0.85],horizontal,"(890.0, 762.0)",0.5333333333333333,nan,0,8764.174,0,0.04,0.25
0,831,target,"[(1140, 803)]",[],[1],[0.85],horizontal,"(890.0, 762.0)",0.7,nan,0,8768.474,0,0.04,0.25
0,832,target,"[(1156, 797)]",[],[1],[0.6],vertical,"(390.0, 762.0)",0.8666666666666667,0.558,1,8773.206,1,0.04,0.25
0,833,target,"[(1157, 762)]",[],[1],[0.7],vertical,"(390.0, 762.0)",0.6833333333333333,0.655,1,8778.217,1,0.04,0.25
0,834,target,"[(1149, 782)]",[],[1],[0.7333333333333333],horizontal,"(890.0, 262.0)",0.45,0.697,1,8783.242,1,0.04,0.25
0,835,target,"[(1155, 753), (1135, 801)]",[],"[0, 1]",[0.85],horizontal,"(390.0, 262.0)",0.3833333333333333,nan,0,8787.825,0,0.04,0.25
0,836,target,"[(1159, 812)]",[],[1],[0.5666666666666667],vertical,"(390.0, 762.0)",1.0833333333333333,0.526,1,8793.548,1,0.04,0.25
0,837,target,"[(1147, 793)]",[],[1],[0.55],vertical,"(890.0, 262.0)",0.8666666666666667,0.507,1,8799.167,1,0.04,0.25
0,838,target,"[(1151, 778)]",[],[1],[0.4166666666666667],vertical,"(890.0, 762.0)",1.1166666666666667,0.381,1,8804.217,1,0.04,0.25
0,839,target,"[(1175, 764)]",[],[1],[0.5833333333333334],vertical,"(890.0, 762.0)",0.8333333333333334,0.546,1,8809.633,2,0.04,0.25
0,840,target,"[(1142, 772)]",[],[1],[0.7166666666666667],vertical,"(890.0, 762.0)",1.0,0.678,1,8814.916,2,0.04,0.25
0,841,target,"[(1152, 790)]",[],[1],[0.6666666666666666],horizontal,"(890.0, 262.0)",1.2,0.626,1,8820.562,2,0.04,0.25
0,842,target,"[(1165, 779)]",[],[1],[0.48333333333333334],horizontal,"(390.0, 762.0)",1.25,0.45,1,8826.366,2,0.04,0.25
0,843,target,"[(1156, 789)]",[],[1],[0.55],vertical,"(890.0, 762.0)",0.9,0.511,1,8832.351,3,0.04,0.25
0,844,target,"[(1161, 778)]",[],[1],[0.5],vertical,"(390.0, 262.0)",1.2166666666666666,0.465,1,8838.381,3,0.04,0.25
0,845,target,"[(1154, 782)]",[],[1],[0.6833333333333333],vertical,"(390.0, 262.0)",0.45,0.647,1,8844.3,3,0.04,0.25
0,846,target,"[(1174, 761)]",[],[1],[0.5166666666666666],vertical,"(890.0, 762.0)",0.8166666666666667,0.491,1,8849.811,3,0.04,0.25
0,847,target,"[(1155, 781)]",[],[1],[0.7],vertical,"(390.0, 262.0)",1.3666666666666667,0.653,1,8855.533,3,0.04,0.25
0,848,target,"[(1152, 763)]",[],[1],[0.6333333333333333],horizontal,"(390.0, 262.0)",1.2333333333333334,0.593,1,8861.434,3,0.04,0.25
0,849,catch,"[(1175, 794)]",[],[1],[],vertical,"(390.0, 262.0)",1.6,nan,1,8867.733,3,0.04,0.25
0,850,target,"[(1174, 755)]",[],[1],[0.5666666666666667],horizontal,"(890.0, 262.0)",0.45,0.525,1,8873.924,3,0.04,0.25
0,851,target,"[(1155, 761)]",[],[1],[0.6833333333333333],horizontal,"(890.0, 762.0)",0.9666666666666667,0.641,1,8878.883,3,0.04,0.25
0,852,target,"[(1159, 768)]",[],[1],[0.5666666666666667],vertical,"(890.0, 762.0)",0.36666666666666664,0.532,1,8884.968,3,0.04,0.25
0,853,target,"[(1175, 761)]",[],[1],[0.6666666666666666],vertical,"(890.0, 762.0)",1.0333333333333332,0.624,1,8889.883,3,0.04,0.25
0,854,target,"[(1160, 771)]",[],[1],[0.5166666666666666],horizontal,"(390.0, 262.0)",0.95,0.482,1,8895.528,3,0.04,0.25
0,855,target,"[(1159, 768)]",[],[1],[0.23333333333333334],horizontal,"(390.0, 262.0)",1.2833333333333332,0.2,1,8901.067,3,0.04,0.25
0,856,target,"[(1145, 761)]",[],[1],[0.85],vertical,"(390.0, 762.0)",0.5166666666666666,nan,0,8907.067,0,0.04,0.25
0,857,catch,"[(1139, 778)]",[],[1],[],horizontal,"(890.0, 262.0)",1.6,nan,1,8911.6,1,0.04,0.25
0,858,catch,"[(1155, 778)]",[],[1],[],vertical,"(390.0, 262.0)",1.6,nan,1,8916.977,1,0.04,0.25
0,859,target,"[(1145, 781)]",[],[1],[0.6166666666666667],horizontal,"(390.0, 262.0)",1.2,0.582,1,8921.984,1,0.04,0.25
0,860,target,"[(1179, 766)]",[],[1],[0.4666666666666667],vertical,"(890.0, 762.0)",1.45,0.432,1,8927.036,2,0.04,0.25
0,861,catch,"[(1157, 773)]",[],[1],[],vertical,"(890.0, 762.0)",1.6,nan,1,8932.733,2,0.04,0.25
