block,trial,trial_type,taps_start_loc_during_fix,taps_end_loc_during_fix,taps_on_lever_during_fix,taps_on_lever_s_during_fix,bar_orientation,target_xy,cti,rt,acc,time,pulses,fa_rate_recent100,actual_invalid_type
0,1,valid,"[(1136, 801)]",[],[1],[0.4],horizontal,"(390.0, 262.0)",1.1333333333333333,0.357,1,0.532,1,0.0,same
0,2,valid,"[(1084, 863)]",[],[1],[0.2],horizontal,"(890.0, 762.0)",0.7333333333333333,0.166,0,9.634,0,0.0,same
0,3,catch,"[(1096, 827)]",[],[1],[],horizontal,"(890.0, 762.0)",1.7,nan,1,58.249,1,0.0,same
0,4,valid,"[(1161, 790)]",[],[1],[0.5166666666666666],vertical,"(890.0, 762.0)",0.7333333333333333,0.486,1,63.438,1,0.0,same
0,5,valid,"[(1165, 811)]",[],[1],[0.6333333333333333],vertical,"(890.0, 262.0)",0.9166666666666666,0.603,1,68.272,1,0.0,same
0,6,valid,"[(1183, 793)]",[],[1],[0.55],horizontal,"(390.0, 262.0)",1.5,0.516,1,73.483,2,0.0,same
0,7,valid,"[(1180, 808)]",[],[1],[0.7666666666666666],vertical,"(890.0, 262.0)",1.1,0.715,1,79.432,2,0.0,same
0,8,catch,"[(1170, 783)]",[],[1],[],horizontal,"(390.0, 762.0)",,"('cti', 1.476),nan",0,84.838,0,0.125,same
0,9,valid,"[(1150, 830)]",[],[1],[0.6],vertical,"(390.0, 262.0)",0.48333333333333334,0.575,1,89.336,1,0.1111111111111111,same
0,10,valid,"[(1174, 778)]",[],[1],[0.85],horizontal,"(390.0, 762.0)",0.8833333333333333,nan,0,94.269,0,0.1,same
0,11,valid,"[(1164, 821)]",[],[1],[0.85],horizontal,"(890.0, 262.0)",1.2833333333333332,nan,0,98.829,0,0.09090909090909091,same
0,12,valid,"[(1113, 801)]",[],[1],[0.55],horizontal,"(390.0, 262.0)",0.36666666666666664,0.525,1,103.781,1,0.08333333333333333,same
0,13,valid,"[(1179, 790)]",[],[1],[0.65],vertical,"(390.0, 762.0)",0.8833333333333333,0.595,1,108.238,1,0.07692307692307693,same
0,14,valid,"[(1179, 768)]",[],[1],[0.5666666666666667],vertical,"(890.0, 262.0)",1.1,0.541,1,113.367,1,0.07142857142857142,same
0,15,valid,"[(1185, 780)]",[],[1],[0.7333333333333333],horizontal,"(890.0, 762.0)",0.6,0.705,1,118.402,2,0.06666666666666667,same
0,16,invalid_adjacent_other_bar,"[(1182, 797)]",[],[1],[0.6],horizontal,"(890.0, 762.0)",1.4166666666666667,0.574,1,124.167,2,0.0625,other
0,17,invalid_same_bar,"[(1167, 785)]",[],[1],[0.85],horizontal,"(390.0, 762.0)",1.4333333333333333,nan,0,129.988,0,0.058823529411764705,same
0,18,valid,"[(1044, 825)]",[],[1],[],horizontal,"(890.0, 762.0)",,"('fix', 0.084)",0,135.331,0,0.05555555555555555,same
0,19,invalid_same_bar,"[(1103, 840)]",[],[1],[0.85],vertical,"(390.0, 762.0)",0.3833333333333333,nan,0,141.117,0,0.05263157894736842,same
0,20,valid,"[(1115, 837)]",[],[1],[0.7166666666666667],vertical,"(390.0, 762.0)",1.05,0.693,1,145.606,1,0.05,same
0,21,valid,"[(1164, 805)]",[],[1],[0.5333333333333333],horizontal,"(890.0, 762.0)",1.3666666666666667,0.503,1,152.185,1,0.047619047619047616,same
0,22,valid,"[(1145, 816)]",[],[1],[0.85],horizontal,"(390.0, 762.0)",0.8333333333333334,nan,0,157.502,0,0.045454545454545456,same
0,23,catch,"[(1112, 799)]",[],[1],[],vertical,"(390.0, 262.0)",1.7,nan,1,162.206,1,0.043478260869565216,same
0,24,valid,"[(1163, 805)]",[],[1],[0.7],horizontal,"(390.0, 262.0)",0.75,0.672,1,168.002,1,0.041666666666666664,same
0,25,valid,"[(1166, 813)]",[],[1],[0.6666666666666666],horizontal,"(390.0, 262.0)",1.0333333333333332,0.619,1,172.67,1,0.04,same
0,26,valid,"[(1187, 792)]",[],[1],[0.55],horizontal,"(890.0, 262.0)",1.4166666666666667,0.526,1,177.785,2,0.038461538461538464,same
0,27,catch,"[(1202, 801)]",[],[1],[],horizontal,"(390.0, 762.0)",1.7,nan,1,183.899,2,0.037037037037037035,same
0,28,valid,"[(1175, 807)]",[],[1],[0.5],horizontal,"(390.0, 262.0)",0.5833333333333334,0.474,1,189.669,2,0.03571428571428571,same
0,29,valid,"[(1186, 811)]",[],[1],[0.6166666666666667],vertical,"(390.0, 262.0)",1.1666666666666667,0.595,1,194.883,3,0.034482758620689655,same
0,30,valid,"[(1180, 796)]",[],[1],[0.5],vertical,"(390.0, 762.0)",0.5,0.472,1,200.836,3,0.03333333333333333,same
0,31,valid,"[(1184, 796)]",[],[1],[0.5666666666666667],vertical,"(390.0, 762.0)",1.15,0.525,1,206.279,3,0.03225806451612903,same
0,32,valid,"[(1180, 789)]",[],[1],[0.5],horizontal,"(390.0, 262.0)",1.2,0.463,1,212.355,3,0.03125,same
0,33,valid,"[(1183, 790)]",[],[1],[0.48333333333333334],horizontal,"(890.0, 762.0)",1.2833333333333332,0.45,1,218.855,3,0.030303030303030304,same
0,34,valid,"[(1183, 781)]",[],[1],[0.5],vertical,"(390.0, 262.0)",0.4,0.459,1,225.02,3,0.029411764705882353,same
0,35,catch,"[(1206, 786)]",[],[1],[],horizontal,"(890.0, 262.0)",1.7,nan,1,230.398,3,0.02857142857142857,same
0,36,catch,"[(1189, 787)]",[],[1],[],horizontal,"(390.0, 262.0)",1.7,nan,1,236.502,3,0.027777777777777776,same
0,37,invalid_same_bar,"[(1188, 782)]",[],[1],[0.5],vertical,"(890.0, 262.0)",1.5,0.458,1,242.781,3,0.02702702702702703,same
0,38,valid,"[(1178, 763)]",[],[1],[0.5],horizontal,"(890.0, 762.0)",0.85,0.464,1,249.073,3,0.02631578947368421,same
0,39,valid,"[(1210, 771)]",[],[1],[0.5166666666666666],vertical,"(390.0, 762.0)",0.7666666666666666,0.482,1,254.551,3,0.02564102564102564,same
0,40,invalid_adjacent_other_bar,"[(1206, 759)]",[],[1],[0.85],horizontal,"(390.0, 762.0)",1.2,nan,0,260.12,0,0.025,other
0,41,catch,"[(1175, 787)]",[],[1],[],vertical,"(890.0, 262.0)",1.7,nan,1,265.487,1,0.024390243902439025,same
0,42,invalid_adjacent_other_bar,"[(1193, 784)]",[],[1],[0.85],vertical,"(390.0, 262.0)",0.6333333333333333,nan,0,270.669,0,0.023809523809523808,other
0,43,valid,"[(1168, 792)]",[],[1],[0.5],vertical,"(890.0, 262.0)",1.15,0.468,1,275.133,1,0.023255813953488372,same
0,44,valid,"[(1210, 773)]",[],[1],[],vertical,"(890.0, 762.0)",,"('fix', 0.2)",0,280.159,0,0.022727272727272728,same
0,45,valid,"[(1135, 789)]",[],[1],[0.5],horizontal,"(390.0, 262.0)",1.4833333333333334,0.464,1,281.824,1,0.022222222222222223,same
0,46,valid,"[(1208, 797)]",[],[1],[0.6],vertical,"(890.0, 262.0)",0.5833333333333334,0.572,1,287.386,1,0.021739130434782608,same
0,47,invalid_adjacent_other_bar,"[(1204, 787)]",[],[1],[0.75],horizontal,"(390.0, 262.0)",0.8,0.697,1,292.231,1,0.02127659574468085,other
0,48,invalid_same_bar,"[(1205, 800)]",[],[1],[],vertical,"(890.0, 262.0)",,"('fix', 0.427)",0,296.919,0,0.020833333333333332,same
0,49,valid,"[(1152, 824)]",[],[1],[0.85],vertical,"(890.0, 262.0)",1.05,nan,0,299.129,0,0.02040816326530612,same
0,50,valid,"[(1143, 794)]",[],[1],[0.5166666666666666],vertical,"(890.0, 762.0)",1.0333333333333332,0.473,1,303.632,1,0.02,same
0,51,valid,"[(1165, 792)]",[],[1],[0.7166666666666667],horizontal,"(390.0, 762.0)",0.95,0.67,1,309.106,1,0.02,same
0,52,valid,"[(1181, 800)]",[],[1],[0.4666666666666667],horizontal,"(890.0, 762.0)",1.4,0.439,1,314.437,1,0.02,same
0,53,valid,"[(1177, 791)]",[],[1],[0.6333333333333333],vertical,"(890.0, 262.0)",0.6166666666666667,0.587,1,319.995,2,0.02,same
0,54,valid,"[(1175, 777)]",[],[1],[0.85],vertical,"(390.0, 762.0)",0.6333333333333333,nan,0,325.051,0,0.02,same
0,55,valid,"[(1131, 782)]",[],[1],[0.5333333333333333],horizontal,"(390.0, 762.0)",1.2166666666666666,0.493,1,329.923,1,0.02,same
0,56,catch,"[(1165, 782)]",[],[1],[],vertical,"(890.0, 262.0)",1.7,nan,1,335.372,1,0.02,same
0,57,valid,"[(1209, 784)]",[],[1],[0.5166666666666666],horizontal,"(390.0, 762.0)",1.5166666666666666,0.472,1,341.073,1,0.02,same
0,58,invalid_same_bar,"[(1179, 775)]",[],[1],[0.5166666666666666],vertical,"(390.0, 262.0)",1.2333333333333334,0.489,1,346.664,2,0.0,same
0,59,valid,"[(1182, 770)]",[],[1],[0.48333333333333334],horizontal,"(890.0, 762.0)",0.4,0.443,1,352.698,2,0.0,same
0,60,valid,"[(1210, 794)]",[],[1],[],horizontal,"(390.0, 262.0)",,"('fix', 0.198)",0,357.106,0,0.0,same
0,61,invalid_same_bar,"[(1125, 812)]",[],[1],[0.7666666666666666],horizontal,"(390.0, 262.0)",1.1,0.714,1,358.95,1,0.0,same
0,62,valid,"[(1172, 774)]",[],[1],[0.48333333333333334],vertical,"(890.0, 762.0)",1.1833333333333333,0.447,1,364.225,1,0.0,same
0,63,valid,"[(1182, 781)]",[],[1],[0.7],vertical,"(890.0, 762.0)",1.1333333333333333,0.652,1,369.656,1,0.0,same
0,64,valid,"[(1208, 796)]",[],[1],[0.85],vertical,"(890.0, 262.0)",0.4,nan,0,375.555,0,0.0,same
0,65,catch,"[(1134, 770)]",[],[1],[],vertical,"(890.0, 262.0)",1.7,nan,1,379.723,1,0.0,same
0,66,catch,"[(1163, 748), (1120, 809)]",[],"[0, 1]",[],horizontal,"(390.0, 262.0)",1.7,nan,1,385.288,1,0.0,same
0,67,valid,"[(1180, 787)]",[],[1],[0.85],horizontal,"(390.0, 262.0)",0.45,nan,0,391.717,0,0.0,same
0,68,catch,"[(1139, 792)]",[],[1],[],horizontal,"(890.0, 262.0)",,"('cti', 1.272),nan",0,396.242,0,0.02,same
0,69,invalid_same_bar,"[(1125, 813)]",[],[1],[0.5333333333333333],horizontal,"(890.0, 762.0)",0.6166666666666667,0.491,1,401.008,1,0.02,same
0,70,valid,"[(1207, 785)]",[],[1],[0.5333333333333333],horizontal,"(390.0, 262.0)",1.1666666666666667,0.49,1,408.33,1,0.02,same
0,71,valid,"[(1190, 780)]",[],[1],[0.55],horizontal,"(390.0, 762.0)",1.2166666666666666,0.503,1,413.159,1,0.02,same
0,72,catch,"[(1205, 795)]",[],[1],[],vertical,"(390.0, 262.0)",1.7,nan,1,418.471,2,0.02,same
0,73,catch,"[(1211, 790)]",[],[1],[],vertical,"(890.0, 262.0)",1.7,nan,1,424.434,2,0.02,same
0,74,valid,"[(1179, 796)]",[],[1],[0.5],vertical,"(890.0, 762.0)",1.05,0.459,1,430.488,2,0.02,same
0,75,catch,"[(1180, 782)]",[],[1],[],vertical,"(890.0, 262.0)",1.7,nan,1,436.038,3,0.02,same
0,76,catch,"[(1200, 790)]",[],[1],[],vertical,"(890.0, 262.0)",1.7,nan,1,441.772,3,0.02,same
0,77,valid,"[(1210, 799)]",[],[1],[0.6333333333333333],horizontal,"(390.0, 262.0)",0.4,0.588,1,448.023,3,0.02,same
0,78,catch,"[(1180, 790)]",[],[1],[],vertical,"(890.0, 262.0)",1.7,nan,1,453.272,3,0.02,same
0,79,valid,"[(1212, 794)]",[],[1],[0.6166666666666667],horizontal,"(890.0, 762.0)",0.55,0.592,1,459.528,3,0.02,same
0,80,valid,"[(1208, 791)]",[],[1],[0.6833333333333333],vertical,"(890.0, 762.0)",0.55,0.638,1,465.07,3,0.02,same
0,81,invalid_same_bar,"[(1181, 780)]",[],[1],[0.85],vertical,"(390.0, 262.0)",1.0333333333333332,nan,0,470.497,0,0.02,same
0,82,valid,"[(1177, 796)]",[],[1],[0.5666666666666667],vertical,"(890.0, 262.0)",0.4666666666666667,0.524,1,474.973,1,0.02,same
0,83,catch,"[(1212, 782)]",[],[1],[],horizontal,"(390.0, 262.0)",1.7,nan,1,479.456,1,0.02,same
0,84,valid,"[(1213, 808)]",[],[1],[0.6333333333333333],vertical,"(390.0, 262.0)",0.6333333333333333,0.588,1,484.795,1,0.02,same
0,85,valid,"[(1180, 792)]",[],[1],[0.5333333333333333],vertical,"(390.0, 262.0)",1.1166666666666667,0.493,1,489.594,2,0.02,same
0,86,valid,"[(1210, 791)]",[],[1],[0.6],horizontal,"(890.0, 762.0)",1.0,0.558,1,494.939,2,0.02,same
0,87,valid,"[(1179, 787)]",[],[1],[0.5833333333333334],vertical,"(890.0, 762.0)",0.4666666666666667,0.543,1,500.455,2,0.02,same
0,88,catch,"[(1180, 768)]",[],[1],[],horizontal,"(890.0, 762.0)",1.7,nan,1,505.745,3,0.02,same
0,89,catch,"[(1201, 789)]",[],[1],[],horizontal,"(890.0, 262.0)",1.7,nan,1,511.672,3,0.02,same
0,90,valid,"[(1185, 791)]",[],[1],[0.5],vertical,"(890.0, 262.0)",1.2166666666666666,0.462,1,517.335,3,0.02,same
0,91,valid,"[(1211, 806)]",[],[1],[0.5166666666666666],vertical,"(390.0, 762.0)",0.9333333333333333,0.472,1,523.422,3,0.02,same
0,92,catch,"[(1178, 784)]",[],[1],[],horizontal,"(890.0, 762.0)",,"('cti', 1.486),nan",0,529.105,0,0.04,same
0,93,valid,"[(1138, 796)]",[],[1],[0.4],horizontal,"(390.0, 262.0)",1.3666666666666667,0.36,1,533.448,1,0.04,same
0,94,catch,"[(1175, 784)]",[],[1],[],vertical,"(390.0, 762.0)",1.7,nan,1,538.89,1,0.04,same
0,95,valid,"[(1208, 799)]",[],[1],[0.85],vertical,"(390.0, 762.0)",0.8333333333333334,nan,0,544.491,0,0.04,same
0,96,valid,"[(1175, 774)]",[],[1],[0.6333333333333333],vertical,"(890.0, 762.0)",0.5,0.592,1,548.903,1,0.04,same
0,97,valid,"[(1212, 810)]",[],[1],[0.3333333333333333],horizontal,"(390.0, 262.0)",1.5,0.296,1,553.19,1,0.04,same
0,98,valid,"[(1210, 781)]",[],[1],[0.7166666666666667],vertical,"(390.0, 762.0)",0.9166666666666666,0.682,1,558.39,1,0.04,same
0,99,valid,"[(1210, 806)]",[],[1],[0.4],horizontal,"(390.0, 262.0)",1.5333333333333332,0.365,1,563.839,2,0.04,same
0,100,valid,"[(1180, 791)]",[],[1],[0.5166666666666666],horizontal,"(890.0, 762.0)",0.7833333333333333,0.475,1,569.91,2,0.04,same
0,101,valid,"[(1180, 786)]",[],[1],[0.85],vertical,"(390.0, 762.0)",0.43333333333333335,nan,0,575.222,0,0.04,same
0,102,catch,"[(1145, 786)]",[],[1],[],vertical,"(390.0, 762.0)",1.7,nan,1,579.507,1,0.04,same
0,103,catch,"[(1209, 764)]",[],[1],[],vertical,"(890.0, 762.0)",1.7,nan,1,584.969,1,0.04,same
0,104,valid,"[(1211, 798)]",[],[1],[0.6166666666666667],vertical,"(890.0, 262.0)",0.7166666666666667,0.572,1,590.438,1,0.04,same
0,105,invalid_adjacent_other_bar,"[(1180, 782)]",[],[1],[0.45],horizontal,"(890.0, 262.0)",1.3833333333333333,0.411,1,595.381,2,0.04,other
0,106,valid,"[(1174, 776)]",[],[1],[0.4666666666666667],horizontal,"(890.0, 262.0)",0.6833333333333333,0.426,1,601.38,2,0.04,same
0,107,valid,"[(1196, 783)]",[],[1],[0.65],horizontal,"(890.0, 762.0)",0.7,0.607,1,606.798,2,0.04,same
0,108,catch,"[(1188, 775)]",[],[1],[],horizontal,"(390.0, 762.0)",1.7,nan,1,612.391,3,0.04,same
0,109,valid,"[(1180, 778)]",[],[1],[0.15],horizontal,"(390.0, 262.0)",1.25,0.119,0,618.381,0,0.04,same
0,110,catch,"[(1166, 789)]",[],[1],[],horizontal,"(390.0, 762.0)",1.7,nan,1,622.973,1,0.04,same
0,111,valid,"[(1208, 784)]",[],[1],[0.85],vertical,"(890.0, 262.0)",1.0166666666666666,nan,0,628.045,0,0.04,same
0,112,invalid_same_bar,"[(1165, 762)]",[],[1],[0.6833333333333333],vertical,"(890.0, 762.0)",0.65,0.641,1,633.074,1,0.04,same
0,113,catch,"[(1170, 794)]",[],[1],[],vertical,"(390.0, 762.0)",1.7,nan,1,637.457,1,0.04,same
0,114,valid,"[(1180, 772)]",[],[1],[0.5666666666666667],horizontal,"(390.0, 262.0)",1.1666666666666667,0.524,1,642.82,1,0.04,same
0,115,valid,"[(1202, 795)]",[],[1],[0.5666666666666667],vertical,"(390.0, 762.0)",0.85,0.522,1,647.907,2,0.04,same
0,116,valid,"[(1208, 761)]",[],[1],[0.65],vertical,"(890.0, 762.0)",1.1166666666666667,0.609,1,653.407,2,0.04,same
0,117,valid,"[(1180, 786)]",[],[1],[0.5333333333333333],vertical,"(390.0, 262.0)",1.2833333333333332,0.493,1,658.923,2,0.04,same
0,118,catch,"[(1179, 809)]",[],[1],[],horizontal,"(890.0, 762.0)",1.7,nan,1,664.79,3,0.02,same
0,119,catch,"[(1180, 771)]",[],[1],[],vertical,"(390.0, 762.0)",,"('cti', 1.653),nan",0,671.439,0,0.04,same
0,120,invalid_adjacent_other_bar,"[(1167, 770)]",[],[1],[0.5166666666666666],horizontal,"(390.0, 262.0)",0.9166666666666666,0.479,1,675.929,1,0.04,other
0,121,valid,"[(1182, 776)]",[],[1],[0.5333333333333333],vertical,"(890.0, 762.0)",1.3,0.496,1,680.661,1,0.04,same
0,122,valid,"[(1198, 787)]",[],[1],[0.65],horizontal,"(390.0, 262.0)",0.9166666666666666,0.602,1,685.968,1,0.04,same
0,123,valid,"[(1180, 759)]",[],[1],[0.65],vertical,"(390.0, 762.0)",1.2833333333333332,0.605,1,691.091,2,0.04,same
0,124,invalid_adjacent_other_bar,"[(1222, 781)]",[],[1],[],horizontal,"(890.0, 762.0)",,"('fix', 0.299)",0,697.138,0,0.04,other
0,125,valid,"[(1156, 794)]",[],[1],[0.6666666666666666],vertical,"(890.0, 762.0)",1.3833333333333333,0.645,1,698.994,1,0.04,same
0,126,invalid_same_bar,"[(1202, 797)]",[],[1],[0.5833333333333334],vertical,"(890.0, 262.0)",0.8833333333333333,0.539,1,704.419,1,0.04,same
0,127,catch,"[(1181, 801)]",[],[1],[],horizontal,"(390.0, 262.0)",1.7,nan,1,709.458,1,0.04,same
0,128,catch,"[(1194, 812)]",[],[1],[],horizontal,"(890.0, 262.0)",1.7,nan,1,714.906,2,0.04,same
0,129,catch,"[(1203, 769)]",[],[1],[],horizontal,"(390.0, 762.0)",1.7,nan,1,720.911,2,0.04,same
0,130,invalid_same_bar,"[(1180, 775)]",[],[1],[0.85],vertical,"(890.0, 762.0)",0.3833333333333333,nan,0,726.766,0,0.04,same
0,131,catch,"[(1169, 787)]",[],[1],[],vertical,"(390.0, 762.0)",1.7,nan,1,730.943,1,0.04,same
0,132,catch,"[(1180, 772)]",[],[1],[],vertical,"(390.0, 262.0)",1.7,nan,1,736.31,1,0.04,same
0,133,valid,"[(1202, 793)]",[],[1],[0.55],vertical,"(390.0, 262.0)",0.85,0.51,1,741.556,1,0.04,same
0,134,valid,"[(1180, 790)]",[],[1],[0.6],vertical,"(390.0, 262.0)",0.5166666666666666,0.555,1,746.312,2,0.04,same
0,135,invalid_same_bar,"[(1190, 783)]",[],[1],[0.5833333333333334],vertical,"(890.0, 262.0)",0.8333333333333334,0.536,1,751.208,2,0.04,same
0,136,catch,"[(1182, 796)]",[],[1],[],horizontal,"(390.0, 762.0)",1.7,nan,1,756.852,2,0.04,same
0,137,valid,"[(1203, 795)]",[],[1],[0.6666666666666666],vertical,"(890.0, 762.0)",0.6666666666666666,0.625,1,762.271,3,0.04,same
0,138,catch,"[(1175, 791)]",[],[1],[],horizontal,"(890.0, 762.0)",1.7,nan,1,768.291,3,0.04,same
0,139,invalid_adjacent_other_bar,"[(1200, 790)]",[],[1],[0.5333333333333333],vertical,"(390.0, 762.0)",0.9333333333333333,0.492,1,774.339,3,0.04,other
0,140,valid,"[(1204, 783)]",[],[1],[0.5166666666666666],horizontal,"(890.0, 262.0)",1.3833333333333333,0.477,1,779.828,3,0.04,same
0,141,valid,"[(1180, 795)]",[],[1],[0.6166666666666667],horizontal,"(890.0, 262.0)",1.4166666666666667,0.573,1,786.241,3,0.04,same
0,142,valid,"[(1190, 772)]",[],[1],[0.5333333333333333],vertical,"(890.0, 262.0)",1.0166666666666666,0.497,1,792.395,3,0.02,same
0,143,valid,"[(1189, 771)]",[],[1],[0.6166666666666667],vertical,"(390.0, 762.0)",0.7666666666666666,0.579,1,798.11,3,0.02,same
0,144,valid,"[(1210, 767)]",[],[1],[0.85],horizontal,"(390.0, 262.0)",0.5,nan,0,803.354,0,0.02,same
0,145,catch,"[(1153, 776)]",[],[1],[],vertical,"(390.0, 262.0)",1.7,nan,1,807.29,1,0.02,same
0,146,valid,"[(1187, 752), (1138, 790)]",[],"[0, 1]",[0.6],horizontal,"(890.0, 262.0)",1.45,0.555,1,812.806,1,0.02,same
0,147,catch,"[(1177, 808)]",[],[1],[],vertical,"(890.0, 762.0)",1.7,nan,1,819.296,1,0.02,same
0,148,valid,"[(1181, 774)]",[],[1],[0.5],horizontal,"(390.0, 762.0)",0.7833333333333333,0.46,1,824.924,2,0.02,same
0,149,catch,"[(1205, 789)]",[],[1],[],horizontal,"(390.0, 262.0)",1.7,nan,1,830.091,2,0.02,same
0,150,valid,"[(1187, 804)]",[],[1],[0.5333333333333333],horizontal,"(390.0, 762.0)",1.0333333333333332,0.499,1,835.645,2,0.02,same
0,151,valid,"[(1203, 792)]",[],[1],[0.5666666666666667],horizontal,"(890.0, 262.0)",0.3833333333333333,0.53,1,841.091,3,0.02,same
0,152,invalid_same_bar,"[(1178, 767)]",[],[1],[0.5],vertical,"(390.0, 762.0)",0.4166666666666667,0.467,1,846.44,3,0.02,same
0,153,valid,"[(1180, 790)]",[],[1],[0.5666666666666667],horizontal,"(890.0, 262.0)",0.6666666666666666,0.525,1,851.19,3,0.02,same
0,154,valid,"[(1182, 777)]",[],[1],[0.55],vertical,"(390.0, 762.0)",0.4666666666666667,0.507,1,856.623,3,0.02,same
0,155,valid,"[(1180, 766)]",[],[1],[0.3833333333333333],horizontal,"(890.0, 262.0)",1.2333333333333334,0.348,1,861.99,3,0.02,same
0,156,valid,"[(1178, 779)]",[],[1],[0.7333333333333333],vertical,"(390.0, 762.0)",0.8166666666666667,0.691,1,868.445,3,0.02,same
0,157,valid,"[(1204, 776)]",[],[1],[0.65],vertical,"(390.0, 262.0)",0.85,0.611,1,874.423,3,0.02,same
0,158,valid,"[(1208, 779)]",[],[1],[0.48333333333333334],horizontal,"(390.0, 262.0)",1.1166666666666667,0.456,1,879.775,3,0.02,same
0,159,catch,"[(1181, 773)]",[],[1],[],vertical,"(390.0, 762.0)",1.7,nan,1,885.591,3,0.02,same
0,160,valid,"[(1181, 781)]",[],[1],[0.5],vertical,"(890.0, 762.0)",0.9833333333333333,0.471,1,891.471,3,0.02,same
0,161,valid,"[(1182, 776)]",[],[1],[0.6166666666666667],vertical,"(390.0, 762.0)",1.3833333333333333,0.573,1,897.24,3,0.02,same
0,162,valid,"[(1180, 761)]",[],[1],[0.6666666666666666],vertical,"(890.0, 262.0)",1.1666666666666667,0.628,1,903.049,3,0.02,same
0,163,catch,"[(1182, 761)]",[],[1],[],horizontal,"(890.0, 762.0)",1.7,nan,1,909.059,3,0.02,same
0,164,valid,"[(1208, 776)]",[],[1],[0.5166666666666666],vertical,"(890.0, 762.0)",0.8,0.474,1,914.958,3,0.02,same
0,165,valid,"[(1175, 763)]",[],[1],[0.85],horizontal,"(890.0, 762.0)",0.4,nan,0,920.56,0,0.02,same
0,166,invalid_adjacent_other_bar,"[(1160, 766)]",[],[1],[0.5666666666666667],horizontal,"(390.0, 762.0)",0.7,0.526,1,925.155,1,0.02,other
0,167,valid,"[(1202, 771)]",[],[1],[0.6166666666666667],vertical,"(390.0, 762.0)",1.1333333333333333,0.578,1,930.8,1,0.02,same
0,168,invalid_adjacent_other_bar,"[(1205, 773)]",[],[1],[0.8166666666666667],horizontal,"(890.0, 762.0)",0.9666666666666667,0.773,1,935.92,1,0.02,other
0,169,valid,"[(1200, 797)]",[],[1],[0.5833333333333334],vertical,"(390.0, 762.0)",1.1,0.546,1,940.979,2,0.0,same
0,170,catch,"[(1205, 760)]",[],[1],[],vertical,"(890.0, 762.0)",,"('cti', 1.564),nan",0,946.447,0,0.02,same
0,171,catch,"[(1167, 765)]",[],[1],[],horizontal,"(390.0, 762.0)",1.7,nan,1,950.699,1,0.02,same
0,172,catch,"[(1190, 789)]",[],[1],[],horizontal,"(390.0, 762.0)",1.7,nan,1,955.744,1,0.02,same
0,173,catch,"[(1208, 781)]",[],[1],[],vertical,"(890.0, 262.0)",,"('fix', 0.135),nan",0,960.926,0,0.04,same
0,174,valid,"[(1140, 810)]",[],[1],[0.5],horizontal,"(890.0, 262.0)",1.2166666666666666,0.463,1,962.592,1,0.04,same
0,175,valid,"[(1175, 807)]",[],[1],[0.6166666666666667],vertical,"(890.0, 262.0)",1.3833333333333333,0.575,1,968.12,1,0.04,same
0,176,valid,"[(1093, 813)]",[],[1],[0.85],horizontal,"(390.0, 762.0)",0.7,nan,0,973.691,0,0.04,same
0,177,invalid_adjacent_other_bar,"[(1105, 816)]",[],[1],[0.6166666666666667],vertical,"(890.0, 262.0)",1.1166666666666667,0.574,1,1836.817,1,0.04,other
0,178,valid,"[(1170, 802)]",[],[1],[0.6],vertical,"(390.0, 262.0)",0.5166666666666666,0.558,1,1843.076,1,0.04,same
0,179,valid,"[(1170, 802)]",[],[1],[0.48333333333333334],vertical,"(890.0, 762.0)",1.4,0.441,1,1848.078,1,0.04,same
0,180,catch,"[(1134, 816)]",[],[1],[],horizontal,"(390.0, 762.0)",1.7,nan,1,1853.191,2,0.04,same
0,181,invalid_adjacent_other_bar,"[(1175, 829)]",[],[1],[0.5333333333333333],vertical,"(890.0, 762.0)",1.2833333333333332,0.491,1,1859.611,2,0.04,other
0,182,catch,"[(1205, 802)]",[],[1],[],horizontal,"(390.0, 762.0)",1.7,nan,1,1865.983,2,0.04,same
0,183,catch,"[(1208, 816)]",[],[1],[],horizontal,"(390.0, 762.0)",1.7,nan,1,1871.427,3,0.04,same
0,184,catch,"[(1165, 792)]",[],[1],[],horizontal,"(390.0, 262.0)",1.7,nan,1,1877.593,3,0.04,same
0,185,valid,"[(1170, 824)]",[],[1],[0.1],vertical,"(890.0, 762.0)",0.6,0.069,0,1883.334,0,0.04,same
0,186,catch,"[(1155, 829)]",[],[1],[],horizontal,"(890.0, 762.0)",,"('cti', 1.656),nan",0,1887.379,0,0.06,same
0,187,catch,"[(1160, 792)]",[],[1],[],vertical,"(890.0, 762.0)",1.7,nan,1,1893.31,1,0.06,same
0,188,catch,"[(1175, 796)]",[],[1],[],vertical,"(390.0, 262.0)",1.7,nan,1,1920.978,1,0.06,same
0,189,catch,"[(1207, 783)]",[],[1],[],horizontal,"(890.0, 262.0)",1.7,nan,1,1926.442,1,0.06,same
0,190,catch,"[(1164, 772)]",[],[1],[],horizontal,"(890.0, 762.0)",1.7,nan,1,1931.593,2,0.06,same
0,191,valid,"[(1212, 793)]",[],[1],[0.55],horizontal,"(390.0, 262.0)",0.8333333333333334,0.511,1,1938.112,2,0.06,same
0,192,valid,"[(1175, 769)]",[],[1],[0.6833333333333333],vertical,"(390.0, 262.0)",0.36666666666666664,0.644,1,1943.16,2,0.06,same
0,193,valid,"[(1180, 775)]",[],[1],[0.85],vertical,"(390.0, 262.0)",1.1166666666666667,nan,0,1947.928,0,0.06,same
0,194,catch,"[(1126, 780)]",[],[1],[],horizontal,"(390.0, 262.0)",1.7,nan,1,1952.578,1,0.06,same
0,195,catch,"[(1164, 801)]",[],[1],[],vertical,"(390.0, 762.0)",1.7,nan,1,1957.911,1,0.06,same
0,196,valid,"[(1175, 772)]",[],[1],[0.6],horizontal,"(890.0, 262.0)",0.8166666666666667,0.559,1,1963.262,1,0.06,same
0,197,valid,"[(1176, 781)]",[],[1],[0.5333333333333333],vertical,"(890.0, 262.0)",1.5166666666666666,0.49,1,1968.268,2,0.06,same
0,198,valid,"[(1189, 796)]",[],[1],[0.5333333333333333],horizontal,"(890.0, 762.0)",0.6666666666666666,0.492,1,1974.494,2,0.06,same
0,199,valid,"[(1181, 799)]",[],[1],[0.5166666666666666],horizontal,"(890.0, 262.0)",1.45,0.473,1,1979.763,2,0.06,same
0,200,valid,"[(1222, 804)]",[],[1],[],vertical,"(890.0, 262.0)",,"('fix', 0.196)",0,1985.86,0,0.06,same
0,201,valid,"[(1118, 806)]","[(1119, 828)]",[1],[0.8],vertical,"(890.0, 262.0)",,"('bar', 0.803)",0,1987.877,0,0.06,same
0,202,valid,"[(1131, 820)]",[],[1],[0.55],horizontal,"(890.0, 762.0)",0.5166666666666666,0.507,1,1992.927,1,0.06,same
0,203,valid,"[(1163, 790)]",[],[1],[0.65],vertical,"(390.0, 262.0)",1.1333333333333333,0.606,1,2037.53,1,0.06,same
0,204,catch,"[(1175, 772)]",[],[1],[],vertical,"(890.0, 762.0)",1.7,nan,1,2042.705,1,0.06,same
0,205,valid,"[(1125, 834)]",[],[1],[0.7333333333333333],horizontal,"(390.0, 262.0)",0.5166666666666666,0.693,1,2047.894,2,0.06,same
0,206,valid,"[(1175, 785)]",[],[1],[0.55],vertical,"(390.0, 262.0)",1.25,0.518,1,2054.027,2,0.06,same
0,207,invalid_same_bar,"[(1170, 795)]",[],[1],[0.6833333333333333],vertical,"(890.0, 262.0)",1.0,0.642,1,2059.511,2,0.06,same
0,208,catch,"[(1175, 801)]","[(1179, 796)]",[1],[0.13333333333333333],vertical,"(890.0, 262.0)",,"('bar', 0.152),nan",0,2065.561,0,0.08,same
0,209,valid,"[(1145, 848)]",[],[1],[0.85],horizontal,"(390.0, 762.0)",0.6666666666666666,nan,0,2067.944,0,0.08,same
0,210,valid,"[(1109, 826)]",[],[1],[0.65],horizontal,"(890.0, 762.0)",0.75,0.61,1,2328.062,1,0.08,same
0,211,valid,"[(1137, 793)]",[],[1],[0.85],horizontal,"(890.0, 762.0)",0.9833333333333333,nan,0,2337.743,0,0.08,same
0,212,valid,"[(1164, 799)]",[],[1],[0.4666666666666667],vertical,"(890.0, 762.0)",0.55,0.435,1,2342.424,1,0.08,same
0,213,valid,"[(1213, 807)]",[],[1],[0.5333333333333333],horizontal,"(890.0, 762.0)",1.5333333333333332,0.494,1,2347.193,1,0.08,same
0,214,catch,"[(1179, 806)]",[],[1],[],vertical,"(890.0, 262.0)",1.7,nan,1,2352.895,1,0.08,same
0,215,catch,"[(1184, 799)]",[],[1],[],vertical,"(390.0, 262.0)",1.7,nan,1,2358.286,2,0.08,same
0,216,catch,"[(1165, 835)]",[],[1],[],horizontal,"(890.0, 762.0)",,"('cti', 1.373),nan",0,2363.868,0,0.1,same
0,217,catch,"[(1172, 788)]",[],[1],[],horizontal,"(890.0, 762.0)",,"('cti', 1.573),nan",0,2369.203,0,0.12,same
0,218,valid,"[(1150, 841)]",[],[1],[0.85],vertical,"(390.0, 762.0)",0.7,nan,0,2373.634,0,0.12,same
0,219,valid,"[(1137, 791)]",[],[1],[0.2],vertical,"(890.0, 762.0)",1.1666666666666667,0.173,0,2378.938,0,0.12,same
0,220,catch,"[(1160, 792)]",[],[1],[],vertical,"(390.0, 762.0)",1.7,nan,1,2383.762,1,0.1,same
0,221,valid,"[(1191, 789)]",[],[1],[0.85],horizontal,"(390.0, 262.0)",1.2166666666666666,nan,0,2388.862,0,0.1,same
0,222,valid,"[(1165, 793)]",[],[1],[0.7833333333333333],vertical,"(890.0, 262.0)",1.0833333333333333,0.739,1,2394.312,1,0.1,same
0,223,valid,"[(1186, 792)]",[],[1],[0.5833333333333334],horizontal,"(890.0, 262.0)",0.5,0.54,1,2399.502,1,0.08,same
0,224,valid,"[(1204, 786)]",[],[1],[0.55],vertical,"(390.0, 762.0)",0.9333333333333333,0.508,1,2404.221,1,0.08,same
0,225,valid,"[(1218, 800)]",[],[1],[0.7166666666666667],vertical,"(890.0, 262.0)",0.6833333333333333,0.672,1,2409.127,2,0.08,same
0,226,valid,"[(1205, 812)]",[],[1],[0.6333333333333333],vertical,"(390.0, 262.0)",0.3833333333333333,0.593,1,2414.399,2,0.08,same
0,227,valid,"[(1179, 802)]",[],[1],[0.6166666666666667],vertical,"(390.0, 262.0)",0.8166666666666667,0.574,1,2419.312,2,0.08,same
0,228,valid,"[(1203, 815)]",[],[1],[0.5666666666666667],vertical,"(890.0, 762.0)",0.4666666666666667,0.519,1,2424.989,3,0.08,same
0,229,valid,"[(1208, 796)]",[],[1],[0.6666666666666666],vertical,"(390.0, 762.0)",1.0166666666666666,0.63,1,2430.429,3,0.08,same
0,230,catch,"[(1209, 804)]",[],[1],[],horizontal,"(390.0, 262.0)",1.7,nan,1,2436.467,3,0.08,same
0,231,valid,"[(1205, 813)]",[],[1],[0.5666666666666667],horizontal,"(890.0, 762.0)",1.3166666666666667,0.528,1,2442.893,3,0.08,same
0,232,invalid_adjacent_other_bar,"[(1210, 793)]",[],[1],[0.7333333333333333],horizontal,"(890.0, 262.0)",0.6833333333333333,0.691,1,2449.232,3,0.08,other
0,233,invalid_same_bar,"[(1202, 778)]",[],[1],[0.7],vertical,"(890.0, 762.0)",1.05,0.654,1,2454.887,3,0.08,same
0,234,catch,"[(1213, 816)]",[],[1],[],vertical,"(890.0, 762.0)",,"('fix', 0.202),nan",0,2461.062,0,0.1,same
0,235,catch,"[(1134, 793)]",[],[1],[],horizontal,"(890.0, 762.0)",1.7,nan,1,2463.055,1,0.1,same
0,236,catch,"[(1204, 796)]",[],[1],[],vertical,"(390.0, 262.0)",1.7,nan,1,2468.045,1,0.08,same
0,237,valid,"[(1209, 796)]",[],[1],[0.7333333333333333],horizontal,"(390.0, 262.0)",1.3666666666666667,0.696,1,2473.478,1,0.08,same
0,238,valid,"[(1209, 798)]",[],[1],[0.5833333333333334],horizontal,"(890.0, 262.0)",1.2166666666666666,0.54,1,2478.863,2,0.08,same
0,239,valid,"[(1209, 813)]",[],[1],[0.6666666666666666],vertical,"(890.0, 262.0)",1.2333333333333334,0.624,1,2484.346,2,0.08,same
0,240,valid,"[(1178, 796)]",[],[1],[0.85],vertical,"(890.0, 762.0)",0.6,nan,0,2489.963,0,0.08,same
0,241,catch,"[(1160, 791)]",[],[1],[],vertical,"(890.0, 262.0)",1.7,nan,1,2494.245,1,0.08,same
0,242,catch,"[(1204, 783)]",[],[1],[],vertical,"(390.0, 762.0)",1.7,nan,1,2499.594,1,0.08,same
0,243,valid,"[(1179, 800)]",[],[1],[0.6666666666666666],vertical,"(890.0, 762.0)",0.75,0.624,1,2504.879,1,0.08,same
0,244,valid,"[(1208, 816)]",[],[1],[0.5333333333333333],vertical,"(890.0, 262.0)",1.2833333333333332,0.497,1,2509.718,2,0.08,same
0,245,valid,"[(1204, 805)]",[],[1],[0.8],horizontal,"(390.0, 762.0)",1.15,0.757,1,2515.73,2,0.08,same
0,246,valid,"[(1178, 808)]",[],[1],[0.55],vertical,"(390.0, 262.0)",0.95,0.507,1,2521.662,2,0.08,same
0,247,valid,"[(1195, 801)]",[],[1],[0.6666666666666666],vertical,"(890.0, 262.0)",1.2833333333333332,0.623,1,2526.816,3,0.08,same
0,248,valid,"[(1175, 807)]",[],[1],[0.5833333333333334],vertical,"(890.0, 762.0)",1.2,0.544,1,2533.445,3,0.08,same
0,249,valid,"[(1203, 821)]",[],[1],[],vertical,"(390.0, 762.0)",,"('fix', 0.148)",0,2539.572,0,0.08,same
0,250,valid,"[(1138, 800)]",[],[1],[0.7666666666666666],horizontal,"(890.0, 262.0)",0.7166666666666667,0.722,1,2541.361,1,0.08,same
0,251,valid,"[(1174, 797)]",[],[1],[0.5666666666666667],horizontal,"(890.0, 262.0)",0.5,0.52,1,2546.098,1,0.08,same
0,252,valid,"[(1172, 800)]",[],[1],[0.5666666666666667],horizontal,"(890.0, 762.0)",0.7166666666666667,0.523,1,2550.679,1,0.08,same
0,253,valid,"[(1168, 812)]",[],[1],[0.85],vertical,"(390.0, 762.0)",0.85,nan,0,2555.389,0,0.08,same
0,254,valid,"[(1136, 798)]",[],[1],[0.5333333333333333],horizontal,"(890.0, 262.0)",0.6666666666666666,0.503,1,2560.546,1,0.08,same
0,255,valid,"[(1175, 803)]",[],[1],[0.55],vertical,"(390.0, 262.0)",1.5166666666666666,0.509,1,2565.162,1,0.08,same
0,256,valid,"[(1212, 796)]",[],[1],[0.6833333333333333],vertical,"(390.0, 762.0)",0.6666666666666666,0.644,1,2570.762,1,0.08,same
0,257,valid,"[(1212, 781)]",[],[1],[0.85],vertical,"(390.0, 262.0)",0.3833333333333333,nan,0,2575.863,0,0.08,same
0,258,valid,"[(1118, 807)]",[],[1],[0.85],horizontal,"(390.0, 262.0)",0.45,nan,0,2580.112,0,0.06,same
0,259,valid,"[(1141, 821)]",[],[1],[0.85],horizontal,"(390.0, 262.0)",1.3333333333333333,nan,0,2587.28,0,0.06,same
0,260,valid,"[(1141, 822)]",[],[1],[0.5666666666666667],vertical,"(890.0, 262.0)",1.45,0.523,1,2592.479,1,0.06,same
0,261,valid,"[(1204, 807)]",[],[1],[0.85],horizontal,"(890.0, 762.0)",0.6166666666666667,nan,0,2598.197,0,0.06,same
0,262,valid,"[(1136, 791)]",[],[1],[0.85],vertical,"(390.0, 762.0)",0.6,nan,0,2602.762,0,0.06,same
0,263,valid,"[(1165, 793)]",[],[1],[0.5333333333333333],vertical,"(890.0, 262.0)",1.35,0.5,1,2607.325,1,0.06,same
0,264,invalid_same_bar,"[(1181, 796)]",[],[1],[0.7333333333333333],vertical,"(390.0, 262.0)",1.2166666666666666,0.69,1,2612.813,1,0.06,same
0,265,valid,"[(1211, 802)]",[],[1],[],vertical,"(890.0, 262.0)",,"('fix', 0.201)",0,2617.996,0,0.06,same
0,266,invalid_adjacent_other_bar,"[(1135, 791)]",[],[1],[0.85],vertical,"(890.0, 262.0)",0.8833333333333333,nan,0,2619.778,0,0.04,other
0,267,valid,"[(1141, 796)]",[],[1],[0.5666666666666667],vertical,"(890.0, 762.0)",0.7,0.524,1,2624.76,1,0.02,same
0,268,invalid_same_bar,"[(1208, 792)]",[],[1],[0.6666666666666666],vertical,"(390.0, 762.0)",1.4333333333333333,0.63,1,2629.802,1,0.02,same
0,269,valid,"[(1179, 792)]",[],[1],[0.85],vertical,"(390.0, 762.0)",0.3833333333333333,nan,0,2635.317,0,0.02,same
0,270,invalid_same_bar,"[(1141, 794)]",[],[1],[0.5833333333333334],vertical,"(890.0, 762.0)",1.4666666666666666,0.55,1,2639.29,1,0.02,same
0,271,catch,"[(1180, 787)]",[],[1],[],vertical,"(390.0, 762.0)",1.7,nan,1,2644.927,1,0.02,same
0,272,invalid_adjacent_other_bar,"[(1208, 784)]",[],[1],[0.7166666666666667],vertical,"(390.0, 262.0)",0.5666666666666667,0.674,1,2650.007,1,0.02,other
0,273,valid,"[(1206, 794)]",[],[1],[0.7],horizontal,"(890.0, 262.0)",0.6833333333333333,0.668,1,2654.813,2,0.02,same
0,274,valid,"[(1217, 803)]",[],[1],[0.5666666666666667],vertical,"(390.0, 762.0)",0.4166666666666667,0.533,1,2660.247,2,0.02,same
0,275,valid,"[(1181, 798)]",[],[1],[0.5],horizontal,"(890.0, 762.0)",1.5166666666666666,0.458,1,2664.74,2,0.02,same
0,276,invalid_adjacent_other_bar,"[(1171, 782)]",[],[1],[0.75],vertical,"(890.0, 762.0)",1.4833333333333334,0.705,1,2670.697,3,0.02,other
0,277,valid,"[(1211, 787), (1223, 786)]",[],"[1, 1]",[],vertical,"(390.0, 762.0)",,"('fix', 0.152)",0,2676.909,0,0.02,same
0,278,valid,"[(1137, 810)]",[],[1],[0.85],horizontal,"(390.0, 762.0)",0.4166666666666667,nan,0,2678.614,0,0.02,same
0,279,valid,"[(1130, 796)]",[],[1],[0.85],horizontal,"(890.0, 262.0)",1.25,nan,0,2682.761,0,0.02,same
0,280,catch,"[(1161, 800)]",[],[1],[],vertical,"(390.0, 262.0)",1.7,nan,1,2687.794,1,0.02,same
0,281,valid,"[(1208, 800)]",[],[1],[0.6833333333333333],vertical,"(890.0, 762.0)",1.1166666666666667,0.637,1,2692.994,1,0.02,same
0,282,catch,"[(1191, 799)]",[],[1],[],vertical,"(390.0, 762.0)",1.7,nan,1,2698.096,1,0.02,same
0,283,valid,"[(1175, 788)]",[],[1],[0.6],horizontal,"(890.0, 762.0)",1.5333333333333332,0.557,1,2703.531,2,0.02,same
0,284,catch,"[(1195, 798)]",[],[1],[],horizontal,"(890.0, 262.0)",1.7,nan,1,2709.161,2,0.0,same
0,285,catch,"[(1176, 789)]",[],[1],[],vertical,"(390.0, 262.0)",1.7,nan,1,2715.094,2,0.0,same
0,286,catch,"[(1211, 793), (1221, 774)]",[],"[1, 1]",[],vertical,"(890.0, 262.0)",,"('fix', 0.168),nan",0,2720.656,0,0.02,same
0,287,catch,"[(1140, 799)]",[],[1],[],horizontal,"(890.0, 762.0)",1.7,nan,1,2722.546,1,0.02,same
0,288,valid,"[(1179, 783)]",[],[1],[0.6],horizontal,"(890.0, 762.0)",0.6833333333333333,0.56,1,2728.062,1,0.02,same
0,289,catch,"[(1209, 792)]",[],[1],[],horizontal,"(390.0, 262.0)",1.7,nan,1,2732.962,1,0.02,same
0,290,invalid_same_bar,"[(1218, 775)]",[],[1],[],vertical,"(890.0, 262.0)",,"('fix', 0.147)",0,2738.429,0,0.02,same
0,291,valid,"[(1140, 802)]",[],[1],[0.5833333333333334],horizontal,"(890.0, 262.0)",0.6166666666666667,0.544,1,2740.346,1,0.02,same
0,292,valid,"[(1214, 803)]",[],[1],[0.6],vertical,"(390.0, 262.0)",0.5833333333333334,0.558,1,2745.173,1,0.02,same
0,293,catch,"[(1212, 828)]",[],[1],[0.03333333333333333],horizontal,"(890.0, 762.0)",1.7,"0.02,nan",0,2749.898,0,0.04,same
0,294,catch,"[(1171, 794)]",[],[1],[],horizontal,"(890.0, 762.0)",1.7,nan,1,2754.757,1,0.04,same
0,295,catch,"[(1166, 793)]",[],[1],[],horizontal,"(890.0, 262.0)",1.7,nan,1,2759.797,1,0.04,same
0,296,valid,"[(1178, 800)]",[],[1],[0.5666666666666667],horizontal,"(390.0, 762.0)",1.5,0.528,1,2765.128,1,0.04,same
0,297,valid,"[(1198, 778)]",[],[1],[0.6],horizontal,"(890.0, 262.0)",1.0833333333333333,0.559,1,2770.629,2,0.04,same
0,298,catch,"[(1210, 793)]",[],[1],[],horizontal,"(390.0, 762.0)",,"('fix', 0.167),nan",0,2776.258,0,0.06,same
0,299,valid,"[(1143, 799)]",[],[1],[0.6833333333333333],vertical,"(390.0, 262.0)",0.8333333333333334,0.646,1,2778.13,1,0.06,same
0,300,valid,"[(1203, 796)]",[],[1],[0.6166666666666667],horizontal,"(390.0, 762.0)",1.3666666666666667,0.574,1,2782.85,1,0.06,same
0,301,valid,"[(1186, 793)]",[],[1],[0.7333333333333333],vertical,"(390.0, 762.0)",0.9666666666666667,0.691,1,2788.771,1,0.06,same
0,302,invalid_same_bar,"[(1219, 786)]",[],[1],[],horizontal,"(890.0, 262.0)",,"('fix', 0.214)",0,2793.825,0,0.06,same
0,303,valid,"[(1170, 811)]",[],[1],[0.7166666666666667],vertical,"(390.0, 762.0)",1.1833333333333333,0.669,1,2795.73,1,0.06,same
0,304,catch,"[(1183, 796)]",[],[1],[],vertical,"(890.0, 762.0)",1.7,nan,1,2801.256,1,0.06,same
0,305,catch,"[(1203, 780)]",[],[1],[],vertical,"(890.0, 262.0)",1.7,nan,1,2806.693,1,0.06,same
0,306,valid,"[(1205, 803)]",[],[1],[0.55],horizontal,"(890.0, 262.0)",1.45,0.512,1,2812.046,2,0.06,same
0,307,valid,"[(1208, 812)]",[],[1],[],horizontal,"(390.0, 262.0)",,"('fix', 0.149)",0,2818.231,0,0.06,same
0,308,invalid_same_bar,"[(1160, 792)]",[],[1],[0.6],horizontal,"(890.0, 262.0)",1.15,0.555,1,2819.964,1,0.06,same
0,309,catch,"[(1165, 800)]",[],[1],[],vertical,"(890.0, 762.0)",1.7,nan,1,2825.315,1,0.06,same
0,310,valid,"[(1178, 798)]",[],[1],[0.7166666666666667],horizontal,"(890.0, 262.0)",1.35,0.674,1,2830.696,1,0.06,same
0,311,invalid_adjacent_other_bar,"[(1184, 797)]",[],[1],[0.55],horizontal,"(890.0, 262.0)",0.36666666666666664,0.51,1,2836.23,2,0.06,other
0,312,catch,"[(1216, 808)]",[],[1],[],horizontal,"(890.0, 762.0)",1.7,nan,1,2841.306,2,0.06,same
0,313,valid,"[(1208, 785)]",[],[1],[0.75],vertical,"(390.0, 762.0)",1.5333333333333332,0.711,1,2846.978,2,0.06,same
0,314,valid,"[(1180, 790)]",[],[1],[0.6],vertical,"(390.0, 262.0)",0.6666666666666666,0.557,1,2853.397,3,0.06,same
0,315,valid,"[(1208, 801)]",[],[1],[0.5],horizontal,"(890.0, 262.0)",1.5166666666666666,0.473,1,2859.281,3,0.06,same
0,316,valid,"[(1190, 803)]",[],[1],[0.5333333333333333],horizontal,"(890.0, 262.0)",0.5666666666666667,0.488,1,2865.313,3,0.06,same
0,317,valid,"[(1195, 793)]",[],[1],[0.6666666666666666],horizontal,"(890.0, 262.0)",1.05,0.624,1,2870.731,3,0.06,same
0,318,valid,"[(1217, 790)]",[],[1],[],vertical,"(890.0, 262.0)",,"('fix', 0.133)",0,2876.414,0,0.06,same
0,319,valid,"[(1153, 807)]",[],[1],[0.5833333333333334],vertical,"(890.0, 262.0)",1.5333333333333332,0.546,1,2878.208,1,0.06,same
0,320,valid,"[(1213, 796)]",[],[1],[0.6],vertical,"(390.0, 762.0)",0.9,0.554,1,2883.671,1,0.06,same
0,321,valid,"[(1170, 798)]",[],[1],[0.6166666666666667],vertical,"(390.0, 262.0)",1.0,0.574,1,2888.946,1,0.06,same
0,322,valid,"[(1173, 807)]",[],[1],[0.5333333333333333],vertical,"(890.0, 262.0)",0.8833333333333333,0.489,1,2894.331,2,0.06,same
0,323,valid,"[(1175, 800)]",[],[1],[0.6666666666666666],vertical,"(890.0, 262.0)",0.8,0.621,1,2899.322,2,0.06,same
0,324,valid,"[(1170, 796)]",[],[1],[0.8333333333333334],vertical,"(390.0, 262.0)",1.15,0.78,1,2904.564,2,0.06,same
0,325,valid,"[(1197, 779)]",[],[1],[0.65],horizontal,"(390.0, 262.0)",1.2,0.6,1,2910.114,3,0.06,same
0,326,catch,"[(1189, 786)]",[],[1],[],horizontal,"(890.0, 262.0)",1.7,nan,1,2916.37,3,0.06,same
0,327,valid,"[(1205, 807)]",[],[1],[0.55],vertical,"(890.0, 762.0)",1.0166666666666666,0.511,1,2922.595,3,0.06,same
0,328,invalid_adjacent_other_bar,"[(1172, 799)]",[],[1],[0.5666666666666667],horizontal,"(390.0, 262.0)",0.5333333333333333,0.524,1,2928.64,3,0.06,other
0,329,valid,"[(1181, 793)]",[],[1],[0.85],vertical,"(890.0, 262.0)",0.55,nan,0,2934.035,0,0.06,same
0,330,valid,"[(1151, 796)]",[],[1],[0.6],vertical,"(890.0, 762.0)",0.36666666666666664,0.555,1,2938.396,1,0.06,same
0,331,valid,"[(1205, 785)]",[],[1],[0.85],vertical,"(390.0, 762.0)",0.3833333333333333,nan,0,2943.276,0,0.06,same
0,332,valid,"[(1149, 790)]",[],[1],[0.5666666666666667],vertical,"(390.0, 262.0)",0.9333333333333333,0.518,1,2947.283,1,0.06,same
0,333,catch,"[(1203, 799)]",[],[1],[],vertical,"(890.0, 262.0)",1.7,nan,1,2952.248,1,0.06,same
0,334,invalid_same_bar,"[(1210, 766)]",[],[1],[],vertical,"(890.0, 262.0)",,"('fix', 0.194)",0,2957.145,0,0.06,same
0,335,invalid_same_bar,"[(1141, 791)]",[],[1],[0.55],horizontal,"(390.0, 762.0)",1.4833333333333334,0.508,1,2958.931,1,0.06,same
0,336,catch,"[(1212, 792), (1223, 773)]",[],"[1, 1]",[],horizontal,"(890.0, 762.0)",,"('fix', 0.149),nan",0,2964.281,0,0.06,same
0,337,catch,"[(1162, 829)]",[],[1],[],horizontal,"(890.0, 262.0)",1.7,nan,1,2966.095,1,0.06,same
0,338,valid,"[(1191, 789)]",[],[1],[0.5666666666666667],vertical,"(890.0, 762.0)",1.2,0.522,1,2971.006,1,0.06,same
0,339,valid,"[(1203, 786)]",[],[1],[0.5666666666666667],horizontal,"(390.0, 262.0)",1.2833333333333332,0.523,1,2976.137,1,0.06,same
0,340,valid,"[(1180, 774)]",[],[1],[0.6833333333333333],vertical,"(890.0, 262.0)",0.6166666666666667,0.634,1,2981.152,2,0.06,same
0,341,valid,"[(1181, 792)]",[],[1],[0.85],vertical,"(390.0, 762.0)",0.6,nan,0,2986.281,0,0.06,same
0,342,valid,"[(1136, 802)]",[],[1],[0.5833333333333334],vertical,"(890.0, 262.0)",0.5166666666666666,0.538,1,2991.088,1,0.06,same
0,343,valid,"[(1205, 779)]",[],[1],[0.7833333333333333],vertical,"(890.0, 262.0)",1.2166666666666666,0.732,1,2995.346,1,0.04,same
0,344,valid,"[(1186, 790)]",[],[1],[0.6666666666666666],vertical,"(890.0, 262.0)",0.9666666666666667,0.621,1,3000.572,1,0.04,same
0,345,valid,"[(1206, 787)]",[],[1],[0.5333333333333333],horizontal,"(890.0, 262.0)",0.9666666666666667,0.494,1,3005.712,2,0.04,same
0,346,valid,"[(1204, 799)]",[],[1],[0.5833333333333334],horizontal,"(890.0, 762.0)",0.9166666666666666,0.536,1,3011.12,2,0.04,same
0,347,catch,"[(1183, 803)]",[],[1],[],horizontal,"(390.0, 762.0)",1.7,nan,1,3016.864,2,0.04,same
0,348,valid,"[(1206, 792), (1223, 792)]",[],"[1, 1]",[],vertical,"(890.0, 262.0)",,"('fix', 0.166)",0,3022.896,0,0.02,same
0,349,valid,"[(1131, 800)]",[],[1],[0.6333333333333333],vertical,"(390.0, 762.0)",1.4833333333333334,0.59,1,3024.947,1,0.02,same
0,350,valid,"[(1210, 786)]",[],[1],[0.65],vertical,"(390.0, 762.0)",1.45,0.605,1,3030.646,1,0.02,same
0,351,invalid_adjacent_other_bar,"[(1165, 792)]",[],[1],[0.85],vertical,"(890.0, 762.0)",0.75,nan,0,3036.504,0,0.02,other
0,352,valid,"[(1150, 806)]",[],[1],[0.55],horizontal,"(890.0, 262.0)",0.75,0.506,1,3040.71,1,0.02,same
0,353,valid,"[(1180, 778)]",[],[1],[0.85],vertical,"(390.0, 262.0)",1.1166666666666667,nan,0,3045.47,0,0.02,same
0,354,valid,"[(1155, 782)]",[],[1],[0.6166666666666667],horizontal,"(890.0, 762.0)",1.0333333333333332,0.569,1,3050.665,1,0.02,same
0,355,invalid_adjacent_other_bar,"[(1180, 800)]",[],[1],[0.85],vertical,"(890.0, 762.0)",1.2833333333333332,nan,0,3055.865,0,0.02,other
0,356,catch,"[(1156, 793)]",[],[1],[],vertical,"(390.0, 762.0)",1.7,nan,1,3060.846,1,0.02,same
0,357,catch,"[(1208, 788)]",[],[1],[],horizontal,"(390.0, 262.0)",1.7,nan,1,3066.277,1,0.02,same
0,358,valid,"[(1213, 780)]",[],[1],[],vertical,"(390.0, 762.0)",,"('fix', 0.179)",0,3071.264,0,0.02,same
0,359,valid,"[(1148, 812)]",[],[1],[0.85],horizontal,"(890.0, 762.0)",0.85,nan,0,3073.035,0,0.02,same
0,360,valid,"[(1168, 802)]",[],[1],[0.7166666666666667],horizontal,"(390.0, 762.0)",0.6166666666666667,0.664,1,3077.879,1,0.02,same
0,361,catch,"[(1210, 803)]",[],[1],[],horizontal,"(890.0, 262.0)",1.7,nan,1,3082.679,1,0.02,same
0,362,valid,"[(1203, 769)]",[],[1],[0.55],vertical,"(390.0, 262.0)",1.0166666666666666,0.507,1,3088.102,1,0.02,same
0,363,valid,"[(1176, 790)]",[],[1],[0.65],horizontal,"(890.0, 262.0)",1.1833333333333333,0.604,1,3092.912,2,0.02,same
0,364,valid,"[(1201, 788)]",[],[1],[0.5833333333333334],horizontal,"(890.0, 762.0)",0.3833333333333333,0.538,1,3099.124,2,0.02,same
0,365,invalid_same_bar,"[(1177, 806)]",[],[1],[0.6],vertical,"(390.0, 262.0)",0.9333333333333333,0.553,1,3103.806,2,0.02,same
0,366,valid,"[(1200, 810)]",[],[1],[0.7333333333333333],vertical,"(890.0, 762.0)",0.6,0.682,1,3109.7,3,0.02,same
0,367,valid,"[(1205, 799)]",[],[1],[0.6333333333333333],vertical,"(890.0, 262.0)",0.8666666666666667,0.591,1,3115.564,3,0.02,same
0,368,catch,"[(1190, 786)]",[],[1],[],horizontal,"(390.0, 262.0)",1.7,nan,1,3121.073,3,0.02,same
0,369,valid,"[(1176, 791)]",[],[1],[0.6666666666666666],vertical,"(390.0, 762.0)",0.75,0.622,1,3126.916,3,0.02,same
0,370,invalid_adjacent_other_bar,"[(1188, 784)]",[],[1],"[0.85, 0.85]",vertical,"(890.0, 762.0)",1.1,"0.798,nan",0,3132.897,0,0.02,other
0,371,valid,"[(1139, 795)]",[],[1],[0.7],vertical,"(390.0, 762.0)",1.5166666666666666,0.658,1,3137.846,1,0.02,same
0,372,catch,"[(1161, 792)]",[],[1],[],horizontal,"(890.0, 262.0)",1.7,nan,1,3143.597,1,0.02,same
0,373,valid,"[(1189, 783)]",[],[1],[0.6166666666666667],horizontal,"(390.0, 262.0)",0.55,0.572,1,3148.65,1,0.02,same
0,374,valid,"[(1169, 777)]",[],[1],[0.85],vertical,"(390.0, 762.0)",0.7,nan,0,3152.889,0,0.02,same
0,375,valid,"[(1140, 786)]",[],[1],[0.5833333333333334],vertical,"(390.0, 762.0)",0.7833333333333333,0.539,1,3157.103,1,0.02,same
0,376,catch,"[(1160, 796)]",[],[1],[],vertical,"(390.0, 762.0)",1.7,nan,1,3162.105,1,0.02,same
0,377,invalid_adjacent_other_bar,"[(1189, 776)]",[],[1],[0.85],horizontal,"(890.0, 262.0)",0.8666666666666667,nan,0,3167.349,0,0.02,other
0,378,catch,"[(1143, 791)]",[],[1],[],vertical,"(390.0, 762.0)",1.7,nan,1,3171.94,1,0.02,same
0,379,valid,"[(1200, 793)]",[],[1],[0.5333333333333333],horizontal,"(390.0, 762.0)",0.6,0.493,1,3176.767,1,0.02,same
0,380,invalid_same_bar,"[(1158, 773)]",[],[1],[0.85],vertical,"(890.0, 762.0)",1.0,nan,0,3181.348,0,0.02,same
0,381,valid,"[(1131, 796)]",[],[1],[0.85],vertical,"(390.0, 262.0)",0.4,nan,0,3186.42,0,0.02,same
0,382,valid,"[(1135, 788)]",[],[1],[0.6333333333333333],vertical,"(390.0, 262.0)",0.9166666666666666,0.589,1,3190.636,1,0.02,same
0,383,catch,"[(1202, 780)]",[],[1],[],horizontal,"(390.0, 762.0)",1.7,nan,1,3195.632,1,0.02,same
0,384,invalid_adjacent_other_bar,"[(1205, 791)]",[],[1],[0.5333333333333333],horizontal,"(890.0, 262.0)",1.3166666666666667,0.492,1,3201.112,1,0.02,other
0,385,catch,"[(1181, 797)]",[],[1],[],vertical,"(390.0, 262.0)",1.7,nan,1,3206.206,2,0.02,same
0,386,catch,"[(1190, 783)]",[],[1],[],vertical,"(890.0, 262.0)",1.7,nan,1,3211.653,2,0.0,same
0,387,catch,"[(1206, 795)]",[],[1],[],horizontal,"(390.0, 262.0)",1.7,nan,1,3217.447,2,0.0,same
0,388,valid,"[(1209, 800)]",[],[1],[0.5666666666666667],horizontal,"(390.0, 262.0)",0.8333333333333334,0.525,1,3222.817,3,0.0,same
0,389,valid,"[(1181, 784)]",[],[1],[0.6166666666666667],horizontal,"(890.0, 762.0)",0.85,0.567,1,3228.797,3,0.0,same
0,390,valid,"[(1206, 790)]",[],[1],[0.6],vertical,"(890.0, 262.0)",0.36666666666666664,0.555,1,3234.479,3,0.0,same
0,391,invalid_same_bar,"[(1180, 794)]",[],[1],[0.85],horizontal,"(890.0, 262.0)",0.75,nan,0,3239.615,0,0.0,same
0,392,valid,"[(1148, 789)]",[],[1],[0.6],horizontal,"(390.0, 262.0)",0.5333333333333333,0.564,1,3244.197,1,0.0,same
0,393,catch,"[(1180, 754)]",[],[1],[],horizontal,"(890.0, 762.0)",1.7,nan,1,3248.952,1,0.0,same
0,394,valid,"[(1180, 788)]",[],[1],[0.5666666666666667],vertical,"(890.0, 762.0)",0.8,0.518,1,3254.14,1,0.0,same
0,395,valid,"[(1203, 800)]",[],[1],[0.85],vertical,"(390.0, 762.0)",1.15,nan,0,3259.19,0,0.0,same
0,396,catch,"[(1146, 792)]",[],[1],[],vertical,"(390.0, 262.0)",1.7,nan,1,3264.181,1,0.0,same
0,397,valid,"[(1166, 801)]",[],[1],[0.5666666666666667],horizontal,"(390.0, 262.0)",1.5,0.521,1,3269.29,1,0.0,same
0,398,valid,"[(1180, 798)]",[],[1],[0.85],vertical,"(890.0, 262.0)",0.75,nan,0,3274.638,0,0.0,same
0,399,valid,"[(1150, 797)]",[],[1],[0.65],horizontal,"(890.0, 762.0)",1.5,0.626,1,3279.348,1,0.0,same
0,400,valid,"[(1171, 808)]",[],[1],[0.55],vertical,"(890.0, 262.0)",1.1333333333333333,0.509,1,3284.824,1,0.0,same
0,401,invalid_adjacent_other_bar,"[(1175, 756)]",[],[1],[0.5833333333333334],horizontal,"(890.0, 262.0)",0.5166666666666666,0.544,1,3290.515,1,0.0,other
0,402,valid,"[(1175, 784)]",[],[1],[0.7166666666666667],vertical,"(390.0, 762.0)",1.2833333333333332,0.675,1,3295.379,2,0.0,same
0,403,valid,"[(1177, 802)]",[],[1],[0.55],vertical,"(890.0, 262.0)",1.0166666666666666,0.51,1,3301.464,2,0.0,same
0,404,catch,"[(1180, 799)]",[],[1],[],vertical,"(390.0, 762.0)",1.7,nan,1,3306.638,2,0.0,same
0,405,catch,"[(1170, 803)]",[],[1],[],vertical,"(890.0, 262.0)",1.7,nan,1,3312.114,3,0.0,same
0,406,catch,"[(1177, 796)]",[],[1],[],vertical,"(890.0, 262.0)",1.7,nan,1,3318.706,3,0.0,same
0,407,valid,"[(1179, 801)]",[],[1],[0.48333333333333334],horizontal,"(390.0, 262.0)",1.5166666666666666,0.442,1,3324.534,3,0.0,same
0,408,valid,"[(1170, 766)]",[],[1],[0.55],horizontal,"(890.0, 262.0)",0.7333333333333333,0.511,1,3330.9,3,0.0,same
0,409,catch,"[(1180, 783)]",[],[1],[],vertical,"(890.0, 762.0)",1.7,nan,1,3336.259,3,0.0,same
0,410,valid,"[(1190, 806)]",[],[1],[0.6166666666666667],vertical,"(390.0, 262.0)",0.35,0.568,1,3342.762,3,0.0,same
0,411,catch,"[(1178, 757)]",[],[1],[],horizontal,"(890.0, 262.0)",1.7,nan,1,3348.198,3,0.0,same
0,412,valid,"[(1174, 794)]",[],[1],[0.5666666666666667],vertical,"(890.0, 262.0)",1.4333333333333333,0.535,1,3354.262,3,0.0,same
0,413,catch,"[(1180, 796)]",[],[1],[],horizontal,"(390.0, 262.0)",1.7,nan,1,3360.693,3,0.0,same
0,414,invalid_adjacent_other_bar,"[(1180, 797)]",[],[1],[0.55],vertical,"(890.0, 262.0)",0.4166666666666667,0.512,1,3366.575,3,0.0,other
0,415,valid,"[(1184, 812)]",[],[1],[0.6166666666666667],horizontal,"(390.0, 762.0)",1.2666666666666666,0.575,1,3371.497,3,0.0,same
0,416,catch,"[(1175, 796)]",[],[1],[],horizontal,"(390.0, 262.0)",1.7,nan,1,3377.805,3,0.0,same
0,417,valid,"[(1179, 799)]",[],[1],[0.7],horizontal,"(390.0, 762.0)",0.8833333333333333,0.654,1,3383.924,3,0.0,same
0,418,valid,"[(1179, 769)]",[],[1],[0.8],vertical,"(390.0, 762.0)",1.2,0.755,1,3389.698,3,0.0,same
0,419,valid,"[(1179, 796)]",[],[1],[0.6666666666666666],vertical,"(890.0, 762.0)",0.8166666666666667,0.624,1,3396.515,3,0.0,same
0,420,invalid_adjacent_other_bar,"[(1165, 796)]",[],[1],[0.8166666666666667],vertical,"(890.0, 762.0)",1.5166666666666666,0.763,1,3402.68,3,0.0,other
0,421,catch,"[(1164, 796)]",[],[1],[],horizontal,"(390.0, 762.0)",1.7,nan,1,3409.599,3,0.0,same
0,422,valid,"[(1180, 807)]",[],[1],[0.8166666666666667],horizontal,"(390.0, 762.0)",1.1,0.775,1,3415.531,3,0.0,same
0,423,valid,"[(1204, 796)]",[],[1],[0.5833333333333334],horizontal,"(890.0, 262.0)",0.43333333333333335,0.543,1,3422.102,3,0.0,same
0,424,valid,"[(1163, 752), (1130, 822)]",[],"[0, 1]",[0.75],vertical,"(390.0, 762.0)",1.0166666666666666,0.708,1,3427.792,3,0.0,same
0,425,invalid_adjacent_other_bar,"[(1164, 780)]",[],[1],[0.6333333333333333],horizontal,"(390.0, 762.0)",0.6666666666666666,0.596,1,3435.814,3,0.0,other
0,426,catch,"[(1174, 802)]",[],[1],[],horizontal,"(390.0, 262.0)",1.7,nan,1,3441.654,3,0.0,same
0,427,valid,"[(1172, 763)]",[],[1],[0.6],horizontal,"(890.0, 762.0)",0.48333333333333334,0.562,1,3447.591,3,0.0,same
0,428,valid,"[(1204, 789)]",[],[1],[0.5666666666666667],horizontal,"(390.0, 762.0)",1.3333333333333333,0.529,1,3453.111,3,0.0,same
0,429,valid,"[(1175, 805)]",[],[1],[0.5666666666666667],vertical,"(890.0, 262.0)",1.0666666666666667,0.54,1,3459.185,3,0.0,same
0,430,valid,"[(1171, 801)]",[],[1],[0.5666666666666667],vertical,"(890.0, 762.0)",1.0,0.528,1,3465.299,3,0.0,same
0,431,catch,"[(1175, 804)]",[],[1],[],vertical,"(390.0, 262.0)",1.7,nan,1,3471.227,3,0.0,same
0,432,invalid_adjacent_other_bar,"[(1180, 786)]",[],[1],[0.65],horizontal,"(390.0, 762.0)",1.2666666666666666,0.611,1,3477.489,3,0.0,other
0,433,valid,"[(1181, 799)]",[],[1],[0.6],vertical,"(890.0, 762.0)",1.0833333333333333,0.556,1,3483.83,3,0.0,same
0,434,catch,"[(1164, 796)]",[],[1],[],horizontal,"(890.0, 762.0)",1.7,nan,1,3490.049,3,0.0,same
0,435,catch,"[(1183, 800)]",[],[1],[],vertical,"(390.0, 762.0)",1.7,nan,1,3496.433,3,0.0,same
0,436,valid,"[(1175, 786)]",[],[1],[0.7],horizontal,"(390.0, 262.0)",1.05,0.655,1,3502.754,3,0.0,same
0,437,valid,"[(1174, 782)]",[],[1],[0.75],vertical,"(890.0, 762.0)",0.5166666666666666,0.706,1,3508.632,3,0.0,same
0,438,valid,"[(1177, 795)]",[],[1],[0.75],vertical,"(890.0, 262.0)",1.2666666666666666,0.706,1,3514.449,3,0.0,same
0,439,valid,"[(1190, 778)]",[],[1],[0.5666666666666667],horizontal,"(890.0, 762.0)",0.9666666666666667,0.525,1,3520.963,3,0.0,same
0,440,catch,"[(1169, 803)]",[],[1],[],vertical,"(390.0, 262.0)",1.7,nan,1,3526.432,3,0.0,same
0,441,valid,"[(1199, 803)]",[],[1],[0.5666666666666667],horizontal,"(890.0, 762.0)",1.15,0.526,1,3532.537,3,0.0,same
0,442,valid,"[(1191, 772)]",[],[1],[0.6166666666666667],horizontal,"(390.0, 262.0)",1.05,0.579,1,3539.251,3,0.0,same
0,443,valid,"[(1175, 806)]",[],[1],[0.55],horizontal,"(890.0, 262.0)",1.35,0.511,1,3545.287,3,0.0,same
0,444,catch,"[(1161, 803)]",[],[1],[],horizontal,"(390.0, 262.0)",1.7,nan,1,3551.371,3,0.0,same
0,445,valid,"[(1203, 807)]",[],[1],[0.6],vertical,"(890.0, 762.0)",0.9166666666666666,0.561,1,3557.12,3,0.0,same
0,446,valid,"[(1161, 820)]",[],[1],[0.8166666666666667],vertical,"(390.0, 762.0)",1.3666666666666667,0.769,1,3563.374,3,0.0,same
0,447,valid,"[(1170, 772)]",[],[1],[0.5666666666666667],horizontal,"(390.0, 262.0)",0.5,0.524,1,3570.148,3,0.0,same
0,448,valid,"[(1170, 800)]",[],[1],[0.6833333333333333],vertical,"(390.0, 762.0)",0.5166666666666666,0.64,1,3575.839,3,0.0,same
0,449,valid,"[(1167, 801)]",[],[1],[0.6],horizontal,"(890.0, 262.0)",0.48333333333333334,0.555,1,3581.149,3,0.0,same
0,450,valid,"[(1142, 790)]",[],[1],[0.85],vertical,"(390.0, 762.0)",1.4166666666666667,nan,0,3586.798,0,0.0,same
0,451,invalid_same_bar,"[(1129, 791)]",[],[1],[0.6166666666666667],vertical,"(890.0, 262.0)",0.35,0.573,1,3592.33,1,0.0,same
0,452,catch,"[(1165, 795)]",[],[1],[],vertical,"(890.0, 762.0)",1.7,nan,1,3597.157,1,0.0,same
0,453,valid,"[(1191, 790)]",[],[1],[0.5833333333333334],vertical,"(890.0, 262.0)",1.1,0.541,1,3602.475,1,0.0,same
0,454,valid,"[(1179, 797)]",[],[1],[0.65],vertical,"(890.0, 762.0)",0.7166666666666667,0.606,1,3607.744,2,0.0,same
0,455,invalid_same_bar,"[(1185, 799)]",[],[1],[0.7],horizontal,"(890.0, 762.0)",1.2166666666666666,0.663,1,3613.11,2,0.0,same
0,456,valid,"[(1181, 799)]",[],[1],[0.5666666666666667],vertical,"(390.0, 262.0)",0.5,0.523,1,3618.818,2,0.0,same
0,457,catch,"[(1210, 795)]",[],[1],[],horizontal,"(390.0, 762.0)",1.7,nan,1,3623.634,3,0.0,same
0,458,catch,"[(1195, 801)]",[],[1],[],vertical,"(390.0, 262.0)",1.7,nan,1,3630.141,3,0.0,same
0,459,valid,"[(1163, 803)]",[],[1],[0.85],vertical,"(390.0, 762.0)",1.3166666666666667,nan,0,3636.133,0,0.0,same
0,460,valid,"[(1136, 801)]",[],[1],[0.6166666666666667],horizontal,"(390.0, 762.0)",1.5166666666666666,0.579,1,3641.232,1,0.0,same
0,461,valid,"[(1172, 795)]",[],[1],[0.65],horizontal,"(890.0, 262.0)",0.48333333333333334,0.607,1,3647.116,1,0.0,same
0,462,valid,"[(1201, 769)]",[],[1],[0.7],horizontal,"(890.0, 762.0)",1.2333333333333334,0.659,1,3651.496,1,0.0,same
0,463,valid,"[(1186, 772)]",[],[1],[0.6166666666666667],horizontal,"(890.0, 762.0)",1.2166666666666666,0.575,1,3657.182,2,0.0,same
0,464,valid,"[(1181, 781)]",[],[1],[0.65],horizontal,"(390.0, 762.0)",0.8166666666666667,0.609,1,3662.935,2,0.0,same
0,465,valid,"[(1165, 790)]",[],[1],[0.6166666666666667],horizontal,"(890.0, 262.0)",1.3,0.585,1,3668.25,2,0.0,same
0,466,valid,"[(1186, 784)]",[],[1],[0.5833333333333334],horizontal,"(890.0, 262.0)",0.6666666666666666,0.543,1,3674.08,3,0.0,same
0,467,catch,"[(1189, 796)]",[],[1],[],vertical,"(390.0, 262.0)",1.7,nan,1,3679.899,3,0.0,same
0,468,catch,"[(1205, 806)]",[],[1],[],horizontal,"(390.0, 262.0)",1.7,nan,1,3685.983,3,0.0,same
0,469,valid,"[(1171, 775)]",[],[1],[0.5666666666666667],horizontal,"(890.0, 262.0)",1.2333333333333334,0.526,1,3691.915,3,0.0,same
0,470,catch,"[(1186, 798)]",[],[1],[],horizontal,"(890.0, 762.0)",1.7,nan,1,3698.393,3,0.0,same
0,471,valid,"[(1161, 793)]",[],[1],[0.6166666666666667],vertical,"(890.0, 762.0)",0.9,0.574,1,3704.285,3,0.0,same
0,472,valid,"[(1167, 795)]",[],[1],[0.65],vertical,"(390.0, 762.0)",0.85,0.606,1,3710.388,3,0.0,same
0,473,valid,"[(1172, 796)]",[],[1],[0.5666666666666667],horizontal,"(890.0, 262.0)",0.4666666666666667,0.525,1,3716.537,3,0.0,same
0,474,catch,"[(1175, 775)]",[],[1],[],vertical,"(890.0, 262.0)",1.7,nan,1,3721.865,3,0.0,same
0,475,valid,"[(1177, 803)]",[],[1],[0.6333333333333333],horizontal,"(390.0, 262.0)",0.6166666666666667,0.589,1,3728.149,3,0.0,same
0,476,catch,"[(1159, 796)]",[],[1],[],vertical,"(890.0, 762.0)",1.7,nan,1,3734.063,3,0.0,same
0,477,valid,"[(1166, 773)]",[],[1],[0.6],vertical,"(390.0, 762.0)",0.8666666666666667,0.557,1,3739.983,3,0.0,same
0,478,valid,"[(1185, 791)]",[],[1],[0.7666666666666666],horizontal,"(390.0, 262.0)",0.4666666666666667,0.72,1,3745.601,3,0.0,same
0,479,valid,"[(1186, 791)]",[],[1],[0.6833333333333333],vertical,"(890.0, 262.0)",0.9333333333333333,0.644,1,3751.465,3,0.0,same
0,480,catch,"[(1184, 791)]",[],[1],[],horizontal,"(890.0, 262.0)",1.7,nan,1,3757.35,3,0.0,same
0,481,catch,"[(1189, 786)]",[],[1],[],vertical,"(390.0, 262.0)",1.7,nan,1,3763.633,3,0.0,same
0,482,valid,"[(1193, 794)]",[],[1],[0.5666666666666667],horizontal,"(390.0, 762.0)",1.0166666666666666,0.53,1,3770.089,3,0.0,same
0,483,catch,"[(1180, 796)]",[],[1],[],vertical,"(890.0, 262.0)",1.7,nan,1,3776.067,3,0.0,same
0,484,invalid_same_bar,"[(1202, 791)]",[],[1],[0.6333333333333333],vertical,"(390.0, 262.0)",1.5333333333333332,0.592,1,3782.295,3,0.0,same
0,485,valid,"[(1200, 800)]",[],[1],[0.6833333333333333],horizontal,"(890.0, 262.0)",1.2666666666666666,0.635,1,3788.867,3,0.0,same
0,486,valid,"[(1171, 784)]",[],[1],[0.5666666666666667],vertical,"(390.0, 262.0)",0.9666666666666667,0.529,1,3795.242,3,0.0,same
0,487,valid,"[(1183, 804)]",[],[1],[0.6],vertical,"(390.0, 262.0)",0.9333333333333333,0.561,1,3800.799,3,0.0,same
0,488,valid,"[(1180, 803)]",[],[1],[0.6166666666666667],vertical,"(890.0, 762.0)",0.75,0.573,1,3807.0,3,0.0,same
0,489,valid,"[(1160, 798)]",[],[1],[0.7166666666666667],vertical,"(890.0, 762.0)",0.36666666666666664,0.682,1,3812.784,3,0.0,same
0,490,valid,"[(1180, 801)]",[],[1],[0.7166666666666667],vertical,"(890.0, 262.0)",1.1666666666666667,0.68,1,3817.949,3,0.0,same
0,491,valid,"[(1190, 791)]",[],[1],[0.7],vertical,"(390.0, 762.0)",1.25,0.655,1,3824.419,3,0.0,same
0,492,valid,"[(1175, 808)]",[],[1],[0.6333333333333333],horizontal,"(890.0, 762.0)",0.9666666666666667,0.598,1,3830.965,3,0.0,same
0,493,valid,"[(1177, 796)]",[],[1],[0.7],vertical,"(890.0, 262.0)",1.2666666666666666,0.654,1,3837.062,3,0.0,same
0,494,valid,"[(1176, 798)]",[],[1],[0.65],vertical,"(390.0, 262.0)",1.2833333333333332,0.605,1,3843.137,3,0.0,same
0,495,catch,"[(1186, 803)]",[],[1],[],vertical,"(890.0, 262.0)",1.7,nan,1,3849.189,3,0.0,same
0,496,valid,"[(1165, 778)]",[],[1],[0.55],horizontal,"(390.0, 262.0)",0.45,0.517,1,3855.084,3,0.0,same
0,497,valid,"[(1180, 806)]",[],[1],[0.5833333333333334],horizontal,"(890.0, 262.0)",0.75,0.545,1,3860.1,3,0.0,same
0,498,valid,"[(1185, 791)]",[],[1],[0.6],horizontal,"(890.0, 262.0)",1.4,0.561,1,3865.987,3,0.0,same
0,499,valid,"[(1189, 804)]",[],[1],[0.55],horizontal,"(390.0, 262.0)",0.4,0.513,1,3872.754,3,0.0,same
0,500,valid,"[(1155, 799)]",[],[1],[0.55],vertical,"(390.0, 262.0)",0.9166666666666666,0.508,1,3878.134,3,0.0,same
0,501,valid,"[(1160, 795)]",[],[1],[0.6166666666666667],vertical,"(890.0, 762.0)",0.6333333333333333,0.584,1,3884.399,3,0.0,same
0,502,valid,"[(1168, 795)]",[],[1],[0.6666666666666666],vertical,"(390.0, 262.0)",0.5,0.629,1,3890.4,3,0.0,same
0,503,valid,"[(1174, 796)]",[],[1],"[0.85, 0.85]",vertical,"(890.0, 262.0)",0.4166666666666667,"0.809,nan",0,3895.92,0,0.0,same
0,504,catch,"[(1121, 824)]",[],[1],[],vertical,"(890.0, 262.0)",1.7,nan,1,3900.454,1,0.0,same
0,505,catch,"[(1140, 776)]",[],[1],[],vertical,"(890.0, 762.0)",1.7,"('cti', 1.68),nan",0,3961.679,0,0.02,same
0,506,valid,"[(1130, 776)]",[],[1],[0.6666666666666666],horizontal,"(890.0, 762.0)",1.2333333333333334,0.622,1,3966.565,1,0.02,same
0,507,valid,"[(1158, 801)]",[],[1],[0.6333333333333333],vertical,"(390.0, 762.0)",1.0833333333333333,0.594,1,3972.234,1,0.02,same
0,508,valid,"[(1160, 790)]",[],[1],[0.55],vertical,"(890.0, 262.0)",1.3333333333333333,0.512,1,3977.394,1,0.02,same
0,509,valid,"[(1190, 800)]",[],[1],[0.6333333333333333],horizontal,"(390.0, 762.0)",0.8666666666666667,0.587,1,3982.524,2,0.02,same
0,510,valid,"[(1185, 787)]",[],[1],[0.6166666666666667],vertical,"(890.0, 262.0)",1.35,0.582,1,3988.029,2,0.02,same
0,511,valid,"[(1150, 796)]",[],[1],[0.6],horizontal,"(890.0, 762.0)",0.8666666666666667,0.56,1,3993.681,2,0.02,same
0,512,valid,"[(1170, 790)]",[],[1],[0.5333333333333333],horizontal,"(890.0, 762.0)",0.9666666666666667,0.508,1,3999.016,3,0.02,same
0,513,catch,"[(1189, 775)]",[],[1],[],vertical,"(390.0, 262.0)",1.7,nan,1,4005.393,3,0.02,same
0,514,valid,"[(1181, 768)]",[],[1],[0.6],vertical,"(890.0, 762.0)",0.55,0.56,1,4011.084,3,0.02,same
0,515,invalid_same_bar,"[(1180, 795)]",[],[1],[0.85],horizontal,"(390.0, 762.0)",0.5666666666666667,nan,0,4016.882,0,0.02,same
0,516,valid,"[(1141, 797)]",[],[1],[0.45],horizontal,"(890.0, 262.0)",1.5,0.406,1,4021.401,1,0.02,same
0,517,valid,"[(1160, 796)]",[],[1],[0.5833333333333334],horizontal,"(390.0, 262.0)",1.35,0.539,1,4026.801,1,0.02,same
0,518,catch,"[(1198, 776)]",[],[1],[],horizontal,"(390.0, 762.0)",1.7,nan,1,4032.033,1,0.02,same
0,519,catch,"[(1220, 802)]",[],[1],[],horizontal,"(890.0, 262.0)",,"('fix', 0.15),nan",0,4037.133,0,0.04,same
0,520,valid,"[(1144, 778)]",[],[1],[0.7666666666666666],vertical,"(390.0, 762.0)",0.5666666666666667,0.725,1,4038.901,1,0.04,same
0,521,catch,"[(1153, 802)]",[],[1],[],vertical,"(390.0, 262.0)",1.7,nan,1,4047.709,1,0.04,same
0,522,catch,"[(1186, 774)]",[],[1],[],horizontal,"(890.0, 762.0)",1.7,nan,1,4053.06,1,0.04,same
0,523,valid,"[(1202, 803)]",[],[1],[0.55],vertical,"(890.0, 262.0)",0.5,0.508,1,4058.449,2,0.04,same
0,524,catch,"[(1211, 809)]",[],[1],[],horizontal,"(390.0, 762.0)",1.7,nan,1,4063.173,2,0.04,same
0,525,catch,"[(1210, 803)]",[],[1],[],vertical,"(390.0, 262.0)",1.7,nan,1,4068.532,2,0.04,same
0,526,valid,"[(1180, 780)]",[],[1],[0.4166666666666667],horizontal,"(890.0, 262.0)",1.45,0.384,1,4074.267,3,0.04,same
0,527,invalid_adjacent_other_bar,"[(1201, 785)]",[],[1],[0.5333333333333333],horizontal,"(390.0, 262.0)",0.5333333333333333,0.491,1,4080.717,3,0.04,other
0,528,valid,"[(1216, 800)]",[],[1],[0.7],vertical,"(390.0, 262.0)",0.85,0.657,1,4086.121,3,0.04,same
0,529,valid,"[(1214, 798)]",[],[1],[0.7333333333333333],horizontal,"(390.0, 262.0)",1.1333333333333333,0.695,1,4091.714,3,0.04,same
0,530,catch,"[(1181, 802)]",[],[1],[],vertical,"(390.0, 262.0)",1.7,nan,1,4097.826,3,0.04,same
0,531,valid,"[(1214, 777)]",[],[1],[0.8],horizontal,"(890.0, 762.0)",0.5666666666666667,0.755,1,4104.217,3,0.04,same
0,532,valid,"[(1219, 806)]",[],[1],[0.8],vertical,"(890.0, 762.0)",1.4,0.762,1,4109.845,3,0.04,same
0,533,valid,"[(1181, 796)]",[],[1],[0.5666666666666667],horizontal,"(390.0, 762.0)",0.5166666666666666,0.524,1,4116.509,3,0.04,same
0,534,valid,"[(1209, 801)]",[],[1],[],horizontal,"(390.0, 762.0)",,"('fix', 0.199)",0,4122.099,0,0.04,same
0,535,valid,"[(1129, 821)]",[],[1],[0.55],vertical,"(890.0, 762.0)",0.8166666666666667,0.506,1,4123.926,1,0.04,same
0,536,catch,"[(1154, 792)]",[],[1],[],vertical,"(890.0, 762.0)",1.7,nan,1,4129.0,1,0.04,same
0,537,valid,"[(1201, 773)]",[],[1],[0.6333333333333333],vertical,"(890.0, 262.0)",0.6666666666666666,0.588,1,4133.901,1,0.04,same
0,538,valid,"[(1210, 772)]",[],[1],[0.6333333333333333],horizontal,"(890.0, 762.0)",0.8833333333333333,0.588,1,4138.918,2,0.04,same
0,539,valid,"[(1209, 811)]",[],[1],[0.6666666666666666],horizontal,"(390.0, 762.0)",1.25,0.624,1,4144.25,2,0.04,same
0,540,valid,"[(1191, 795)]",[],[1],[0.7],vertical,"(890.0, 762.0)",0.8666666666666667,0.656,1,4150.101,2,0.04,same
0,541,catch,"[(1179, 765)]",[],[1],[],horizontal,"(890.0, 262.0)",1.7,nan,1,4155.673,3,0.04,same
0,542,catch,"[(1180, 795)]",[],[1],[],vertical,"(890.0, 762.0)",1.7,nan,1,4162.254,3,0.04,same
0,543,valid,"[(1160, 783)]",[],[1],[0.6],horizontal,"(390.0, 262.0)",0.4166666666666667,0.554,1,4169.28,3,0.04,same
0,544,valid,"[(1161, 790)]",[],[1],[0.5833333333333334],vertical,"(390.0, 762.0)",0.4,0.546,1,4174.936,3,0.04,same
0,545,valid,"[(1180, 795)]",[],[1],[0.85],vertical,"(390.0, 762.0)",1.3166666666666667,nan,0,4180.068,0,0.04,same
0,546,valid,"[(1132, 794)]",[],[1],[0.5666666666666667],vertical,"(890.0, 262.0)",0.5,0.525,1,4185.273,1,0.04,same
0,547,valid,"[(1182, 792)]",[],[1],[0.6],horizontal,"(390.0, 762.0)",0.85,0.555,1,4189.884,1,0.04,same
0,548,catch,"[(1222, 781)]",[],[1],[],vertical,"(390.0, 762.0)",1.7,nan,1,4194.969,1,0.04,same
0,549,catch,"[(1180, 799)]",[],[1],[],vertical,"(390.0, 262.0)",1.7,nan,1,4200.304,2,0.04,same
0,550,valid,"[(1208, 802)]",[],[1],[0.85],horizontal,"(390.0, 762.0)",0.5,nan,0,4206.2,0,0.04,same
0,551,valid,"[(1157, 776)]",[],[1],[0.55],horizontal,"(890.0, 262.0)",1.4333333333333333,0.507,1,4210.517,1,0.04,same
0,552,valid,"[(1185, 785)]",[],[1],[0.7333333333333333],horizontal,"(390.0, 262.0)",0.8333333333333334,0.686,1,4215.901,1,0.04,same
0,553,catch,"[(1210, 776)]",[],[1],[],vertical,"(890.0, 762.0)",1.7,nan,1,4220.649,1,0.04,same
0,554,valid,"[(1182, 795)]",[],[1],[0.5666666666666667],horizontal,"(390.0, 262.0)",0.7833333333333333,0.528,1,4225.768,2,0.04,same
0,555,valid,"[(1203, 781)]",[],[1],[0.5333333333333333],horizontal,"(390.0, 262.0)",1.0166666666666666,0.493,1,4231.3,2,0.02,same
0,556,valid,"[(1183, 772)]",[],[1],[0.5833333333333334],horizontal,"(890.0, 762.0)",0.9166666666666666,0.543,1,4236.81,2,0.02,same
0,557,valid,"[(1166, 776)]",[],[1],[0.65],vertical,"(390.0, 762.0)",0.6666666666666666,0.604,1,4242.099,3,0.02,same
0,558,valid,"[(1214, 779)]",[],[1],[0.5666666666666667],vertical,"(390.0, 262.0)",1.0333333333333332,0.525,1,4247.734,3,0.02,same
0,559,valid,"[(1180, 778)]",[],[1],[0.6666666666666666],vertical,"(390.0, 762.0)",1.2666666666666666,0.624,1,4253.851,3,0.02,same
0,560,catch,"[(1185, 794)]",[],[1],[],horizontal,"(390.0, 762.0)",1.7,nan,1,4260.334,3,0.02,same
0,561,valid,"[(1183, 777)]",[],[1],[0.7333333333333333],horizontal,"(890.0, 262.0)",0.5,0.69,1,4266.404,3,0.02,same
0,562,invalid_same_bar,"[(1183, 794)]",[],[1],[0.85],vertical,"(890.0, 762.0)",0.48333333333333334,nan,0,4272.419,0,0.02,same
0,563,valid,"[(1133, 766)]",[],[1],[0.5833333333333334],horizontal,"(390.0, 762.0)",1.0833333333333333,0.54,1,4276.568,1,0.02,same
0,564,valid,"[(1185, 787)]",[],[1],[0.5666666666666667],horizontal,"(890.0, 262.0)",1.1333333333333333,0.52,1,4281.8,1,0.02,same
0,565,catch,"[(1205, 777)]",[],[1],[],vertical,"(390.0, 762.0)",1.7,nan,1,4287.234,1,0.02,same
0,566,invalid_adjacent_other_bar,"[(1185, 772)]",[],[1],[0.5666666666666667],horizontal,"(390.0, 762.0)",0.8166666666666667,0.518,1,4292.339,2,0.02,other
0,567,valid,"[(1184, 783)]",[],[1],[0.6333333333333333],vertical,"(890.0, 262.0)",0.9166666666666666,0.588,1,4297.519,2,0.02,same
0,568,catch,"[(1178, 753), (1133, 819)]",[],"[0, 1]",[],horizontal,"(390.0, 262.0)",1.7,nan,1,4302.955,2,0.02,same
0,569,valid,"[(1160, 796)]",[],[1],[0.7333333333333333],horizontal,"(890.0, 262.0)",0.5833333333333334,0.687,1,4309.735,3,0.0,same
0,570,valid,"[(1181, 790)]",[],[1],[0.5666666666666667],vertical,"(390.0, 262.0)",1.35,0.526,1,4315.393,3,0.0,same
0,571,catch,"[(1214, 795)]",[],[1],[],vertical,"(890.0, 762.0)",1.7,nan,1,4321.905,3,0.0,same
0,572,valid,"[(1188, 801)]",[],[1],[0.55],horizontal,"(390.0, 762.0)",1.4833333333333334,0.507,1,4327.866,3,0.0,same
0,573,invalid_adjacent_other_bar,"[(1179, 772)]",[],[1],[0.85],horizontal,"(890.0, 762.0)",1.1833333333333333,nan,0,4334.617,0,0.0,other
0,574,catch,"[(1155, 800)]",[],[1],[],horizontal,"(390.0, 762.0)",1.7,nan,1,4339.411,1,0.0,same
0,575,valid,"[(1185, 765)]",[],[1],[0.6],vertical,"(890.0, 262.0)",1.3166666666666667,0.552,1,4344.476,1,0.0,same
0,576,catch,"[(1183, 767)]",[],[1],[],vertical,"(390.0, 762.0)",1.7,nan,1,4349.579,1,0.0,same
0,577,valid,"[(1180, 764)]",[],[1],[0.7333333333333333],vertical,"(890.0, 262.0)",1.2166666666666666,0.689,1,4354.834,2,0.0,same
0,578,catch,"[(1185, 808)]",[],[1],[],vertical,"(390.0, 762.0)",1.7,nan,1,4360.719,2,0.0,same
0,579,catch,"[(1180, 776)]",[],[1],[],horizontal,"(390.0, 262.0)",1.7,nan,1,4366.116,2,0.0,same
0,580,valid,"[(1210, 781)]",[],[1],[0.55],horizontal,"(890.0, 762.0)",0.7666666666666666,0.51,1,4371.935,3,0.0,same
0,581,valid,"[(1210, 804)]",[],[1],[0.7333333333333333],vertical,"(390.0, 762.0)",1.4,0.693,1,4377.821,3,0.0,same
0,582,catch,"[(1185, 779)]",[],[1],[],horizontal,"(890.0, 762.0)",1.7,nan,1,4384.413,3,0.0,same
0,583,catch,"[(1184, 796)]",[],[1],[],horizontal,"(390.0, 762.0)",1.7,nan,1,4390.068,3,0.0,same
0,584,valid,"[(1189, 778)]",[],[1],[0.6166666666666667],horizontal,"(890.0, 762.0)",1.4333333333333333,0.568,1,4396.297,3,0.0,same
0,585,valid,"[(1185, 786)]",[],[1],[0.5833333333333334],horizontal,"(390.0, 762.0)",0.3833333333333333,0.547,1,4402.934,3,0.0,same
0,586,valid,"[(1184, 786)]",[],[1],[0.6333333333333333],horizontal,"(390.0, 762.0)",0.6333333333333333,0.588,1,4408.455,3,0.0,same
0,587,valid,"[(1185, 778)]",[],[1],[0.8166666666666667],horizontal,"(390.0, 762.0)",1.3833333333333333,0.765,1,4413.986,3,0.0,same
0,588,valid,"[(1184, 782)]",[],[1],[0.6],horizontal,"(890.0, 262.0)",1.4333333333333333,0.556,1,4420.55,3,0.0,same
0,589,valid,"[(1180, 795)]",[],[1],[0.6833333333333333],vertical,"(390.0, 262.0)",1.4666666666666666,0.64,1,4427.238,3,0.0,same
0,590,valid,"[(1180, 801)]",[],[1],[0.5833333333333334],vertical,"(390.0, 262.0)",0.5166666666666666,0.546,1,4434.026,3,0.0,same
0,591,valid,"[(1175, 772)]",[],[1],[0.7],vertical,"(390.0, 262.0)",1.3166666666666667,0.651,1,4439.453,3,0.0,same
0,592,valid,"[(1185, 796)]",[],[1],[0.2833333333333333],horizontal,"(390.0, 762.0)",1.5,0.245,1,4445.775,3,0.0,same
0,593,invalid_adjacent_other_bar,"[(1165, 805)]",[],[1],[0.6333333333333333],vertical,"(890.0, 762.0)",1.2833333333333332,0.591,1,4452.269,3,0.0,other
0,594,valid,"[(1181, 796)]",[],[1],[0.5333333333333333],horizontal,"(390.0, 262.0)",0.48333333333333334,0.493,1,4458.641,3,0.0,same
0,595,valid,"[(1200, 763)]",[],[1],[0.5333333333333333],horizontal,"(890.0, 762.0)",0.6166666666666667,0.492,1,4464.497,3,0.0,same
0,596,invalid_adjacent_other_bar,"[(1180, 799)]",[],[1],[0.5666666666666667],horizontal,"(890.0, 262.0)",0.4666666666666667,0.532,1,4469.658,3,0.0,other
0,597,catch,"[(1180, 752), (1128, 829)]",[],"[0, 1]",[],horizontal,"(890.0, 762.0)",1.7,nan,1,4475.319,3,0.0,same
0,598,valid,"[(1185, 795)]",[],[1],[0.5666666666666667],vertical,"(390.0, 262.0)",0.6833333333333333,0.521,1,4482.917,3,0.0,same
0,599,valid,"[(1160, 776)]",[],[1],[0.85],horizontal,"(890.0, 762.0)",0.4166666666666667,nan,0,4488.591,0,0.0,same
0,600,valid,"[(1155, 786)]",[],[1],[0.5833333333333334],vertical,"(390.0, 262.0)",0.9166666666666666,0.542,1,4492.583,1,0.0,same
0,601,catch,"[(1173, 794)]",[],[1],[],horizontal,"(890.0, 262.0)",1.7,nan,1,4498.136,1,0.0,same
0,602,catch,"[(1161, 800)]",[],[1],[],horizontal,"(890.0, 262.0)",1.7,nan,1,4503.957,1,0.0,same
0,603,catch,"[(1208, 799)]",[],[1],[],vertical,"(890.0, 762.0)",1.7,nan,1,4509.191,2,0.0,same
0,604,catch,"[(1180, 794)]",[],[1],[],horizontal,"(390.0, 262.0)",1.7,nan,1,4514.802,2,0.0,same
0,605,valid,"[(1167, 803)]",[],[1],[0.7166666666666667],vertical,"(390.0, 762.0)",0.6333333333333333,0.673,1,4520.685,2,0.0,same
0,606,valid,"[(1186, 786)]",[],[1],[0.5166666666666666],vertical,"(390.0, 762.0)",0.55,0.479,1,4526.173,3,0.0,same
0,607,invalid_adjacent_other_bar,"[(1159, 771)]",[],[1],[0.6333333333333333],vertical,"(890.0, 762.0)",0.7666666666666666,0.592,1,4531.819,3,0.0,other
0,608,catch,"[(1175, 799)]",[],[1],[],horizontal,"(890.0, 262.0)",1.7,nan,1,4537.369,3,0.0,same
0,609,valid,"[(1175, 796)]",[],[1],[0.65],vertical,"(890.0, 262.0)",1.1833333333333333,0.604,1,4543.811,3,0.0,same
0,610,valid,"[(1173, 783)]",[],[1],[0.5666666666666667],horizontal,"(890.0, 262.0)",1.5166666666666666,0.523,1,4549.755,3,0.0,same
0,611,valid,"[(1205, 801)]",[],[1],[0.6666666666666666],vertical,"(890.0, 762.0)",0.5833333333333334,0.623,1,4556.385,3,0.0,same
0,612,catch,"[(1180, 772)]",[],[1],[],vertical,"(390.0, 762.0)",1.7,nan,1,4562.368,3,0.0,same
0,613,valid,"[(1188, 787)]",[],[1],[0.85],vertical,"(390.0, 762.0)",1.2333333333333334,nan,0,4568.618,0,0.0,same
0,614,catch,"[(1170, 803)]",[],[1],[],vertical,"(390.0, 262.0)",,"('cti', 1.438),nan",0,4573.859,0,0.02,same
0,615,valid,"[(1136, 808)]",[],[1],[0.5333333333333333],vertical,"(890.0, 762.0)",1.4666666666666666,0.498,1,4579.137,1,0.02,same
0,616,valid,"[(1178, 806)]",[],[1],[0.55],vertical,"(390.0, 762.0)",0.4166666666666667,0.51,1,4697.357,1,0.02,same
0,617,catch,"[(1185, 795)]",[],[1],[],vertical,"(390.0, 262.0)",1.7,nan,1,4701.709,1,0.02,same
0,618,valid,"[(1179, 816)]",[],[1],[0.48333333333333334],horizontal,"(390.0, 262.0)",1.4333333333333333,0.438,1,4706.911,2,0.02,same
0,619,valid,"[(1185, 806)]",[],[1],[0.5833333333333334],horizontal,"(390.0, 762.0)",0.7166666666666667,0.54,1,4713.524,2,0.02,same
0,620,catch,"[(1190, 812)]",[],[1],[],vertical,"(890.0, 262.0)",1.7,nan,1,4718.686,2,0.02,same
0,621,valid,"[(1205, 770)]",[],[1],[0.6333333333333333],vertical,"(890.0, 762.0)",1.3666666666666667,0.589,1,4724.409,3,0.02,same
0,622,catch,"[(1206, 797)]",[],[1],[],horizontal,"(390.0, 762.0)",1.7,nan,1,4731.036,3,0.02,same
0,623,valid,"[(1163, 767)]",[],[1],[0.8166666666666667],vertical,"(390.0, 762.0)",1.1333333333333333,0.775,1,4737.258,3,0.02,same
0,624,catch,"[(1181, 794)]",[],[1],[],vertical,"(390.0, 262.0)",1.7,nan,1,4743.456,3,0.02,same
0,625,valid,"[(1209, 787)]",[],[1],[0.5666666666666667],horizontal,"(890.0, 762.0)",0.4166666666666667,0.521,1,4749.215,3,0.02,same
0,626,valid,"[(1200, 778)]",[],[1],[0.7833333333333333],horizontal,"(390.0, 762.0)",1.4333333333333333,0.737,1,4754.773,3,0.02,same
0,627,valid,"[(1216, 783), (1222, 765)]",[],"[1, 1]",[],vertical,"(390.0, 262.0)",,"('fix', 0.165)",0,4761.185,0,0.02,same
0,628,valid,"[(1153, 826)]",[],[1],[0.5833333333333334],horizontal,"(390.0, 262.0)",0.85,0.539,1,4762.941,1,0.02,same
0,629,valid,"[(1185, 795)]",[],[1],[0.6166666666666667],horizontal,"(390.0, 762.0)",1.0833333333333333,0.576,1,4767.588,1,0.02,same
0,630,valid,"[(1188, 803)]",[],[1],[0.55],horizontal,"(890.0, 262.0)",0.3833333333333333,0.505,1,4772.721,1,0.02,same
0,631,invalid_same_bar,"[(1190, 762)]",[],[1],[0.55],vertical,"(890.0, 762.0)",1.1,0.512,1,4777.135,2,0.02,same
0,632,catch,"[(1190, 766)]",[],[1],[],vertical,"(890.0, 262.0)",1.7,nan,1,4782.772,2,0.02,same
0,633,valid,"[(1202, 740), (1130, 821)]",[],"[0, 1]",[0.65],horizontal,"(390.0, 262.0)",1.3166666666666667,0.609,1,4788.604,2,0.02,same
0,634,valid,"[(1203, 765)]",[],[1],[0.5833333333333334],vertical,"(890.0, 262.0)",0.45,0.541,1,4796.318,3,0.02,same
0,635,valid,"[(1185, 775)]",[],[1],[0.55],vertical,"(890.0, 262.0)",0.9333333333333333,0.514,1,4801.645,3,0.02,same
0,636,valid,"[(1191, 806)]",[],[1],[0.5666666666666667],vertical,"(890.0, 762.0)",0.35,0.53,1,4807.761,3,0.02,same
0,637,valid,"[(1200, 792)]",[],[1],[0.6],vertical,"(390.0, 262.0)",0.48333333333333334,0.558,1,4813.259,3,0.02,same
0,638,valid,"[(1200, 772)]",[],[1],[0.55],horizontal,"(890.0, 262.0)",0.5333333333333333,0.513,1,4818.698,3,0.02,same
0,639,valid,"[(1195, 803)]",[],[1],[0.6833333333333333],horizontal,"(890.0, 762.0)",0.6666666666666666,0.639,1,4824.653,3,0.02,same
0,640,valid,"[(1212, 754)]",[],[1],[0.6666666666666666],vertical,"(390.0, 762.0)",0.7666666666666666,0.622,1,4830.595,3,0.02,same
0,641,catch,"[(1186, 791)]",[],[1],[],horizontal,"(390.0, 762.0)",1.7,nan,1,4836.586,3,0.02,same
0,642,valid,"[(1180, 800)]",[],[1],[0.7],horizontal,"(390.0, 262.0)",0.48333333333333334,0.657,1,4842.68,3,0.02,same
0,643,catch,"[(1188, 771)]",[],[1],[],vertical,"(390.0, 262.0)",1.7,nan,1,4848.237,3,0.02,same
0,644,valid,"[(1175, 773)]",[],[1],[0.55],vertical,"(890.0, 262.0)",1.0,0.51,1,4854.213,3,0.02,same
0,645,valid,"[(1171, 772)]",[],[1],[0.6],vertical,"(390.0, 762.0)",0.6666666666666666,0.561,1,4859.904,3,0.02,same
0,646,valid,"[(1190, 794)]",[],[1],[0.5833333333333334],horizontal,"(390.0, 762.0)",0.9833333333333333,0.545,1,4865.108,3,0.02,same
0,647,valid,"[(1209, 784)]",[],[1],[0.5833333333333334],horizontal,"(890.0, 762.0)",0.35,0.543,1,4870.902,3,0.02,same
0,648,valid,"[(1202, 801)]",[],[1],[0.6666666666666666],horizontal,"(390.0, 262.0)",1.0,0.623,1,4876.323,3,0.02,same
0,649,valid,"[(1210, 810)]",[],[1],[],vertical,"(390.0, 262.0)",,"('fix', 0.2)",0,4882.286,0,0.02,same
0,650,catch,"[(1140, 799)]",[],[1],[],horizontal,"(890.0, 762.0)",1.7,nan,1,4884.13,1,0.02,same
0,651,valid,"[(1213, 799)]",[],[1],[0.7166666666666667],horizontal,"(890.0, 262.0)",1.0333333333333332,0.674,1,4889.744,1,0.02,same
0,652,valid,"[(1218, 746), (1139, 811)]",[],"[0, 1]",[0.5833333333333334],horizontal,"(390.0, 262.0)",1.4333333333333333,0.543,1,4894.852,1,0.02,same
0,653,valid,"[(1181, 776)]",[],[1],[0.75],horizontal,"(390.0, 762.0)",1.2833333333333332,0.705,1,4901.579,2,0.02,same
0,654,valid,"[(1211, 801)]",[],[1],[],horizontal,"(390.0, 262.0)",,"('fix', 0.165)",0,4907.304,0,0.02,same
0,655,valid,"[(1161, 801)]",[],[1],[0.7333333333333333],horizontal,"(390.0, 262.0)",0.9666666666666667,0.689,1,4909.254,1,0.02,same
0,656,valid,"[(1206, 756)]",[],[1],[0.75],horizontal,"(890.0, 262.0)",0.4166666666666667,0.713,1,4914.719,1,0.02,same
0,657,valid,"[(1220, 808)]",[],[1],[0.5166666666666666],vertical,"(890.0, 262.0)",0.7,0.479,1,4919.519,1,0.02,same
0,658,valid,"[(1162, 796)]",[],[1],[0.65],vertical,"(390.0, 262.0)",1.4,0.608,1,4924.237,2,0.02,same
0,659,valid,"[(1200, 796), (1224, 766)]",[],"[1, 1]",[],vertical,"(390.0, 762.0)",,"('fix', 0.165)",0,4930.57,0,0.02,same
0,660,valid,"[(1125, 796)]",[],[1],[0.6833333333333333],horizontal,"(390.0, 262.0)",1.4166666666666667,0.644,1,4932.404,1,0.02,same
0,661,valid,"[(1220, 811), (1213, 778)]",[],"[1, 1]",[],horizontal,"(890.0, 762.0)",,"('fix', 0.168)",0,4937.787,0,0.02,same
0,662,valid,"[(1155, 784)]",[],[1],[0.5666666666666667],vertical,"(890.0, 262.0)",0.4,0.53,1,4939.579,1,0.02,same
0,663,catch,"[(1214, 798)]",[],[1],[],horizontal,"(890.0, 262.0)",1.7,nan,1,4944.385,1,0.02,same
0,664,valid,"[(1224, 768), (1223, 756)]",[],"[1, 1]",[],horizontal,"(390.0, 762.0)",,"('fix', 0.136)",0,4949.614,0,0.0,same
0,665,valid,"[(1175, 795)]",[],[1],[0.25],horizontal,"(890.0, 762.0)",1.05,0.214,1,4951.36,1,0.0,same
0,666,valid,"[(1216, 797)]",[],[1],[0.85],vertical,"(390.0, 762.0)",0.9,nan,0,4956.268,0,0.0,same
0,667,catch,"[(1180, 786)]",[],[1],[],horizontal,"(890.0, 262.0)",1.7,nan,1,4960.969,1,0.0,same
0,668,valid,"[(1188, 794)]",[],[1],[0.5833333333333334],vertical,"(890.0, 262.0)",0.6,0.545,1,4966.133,1,0.0,same
0,669,valid,"[(1215, 798)]",[],[1],[],horizontal,"(390.0, 262.0)",,"('fix', 0.148)",0,4971.194,0,0.0,same
0,670,catch,"[(1165, 806)]",[],[1],[],vertical,"(890.0, 762.0)",1.7,nan,1,4973.017,1,0.0,same
0,671,valid,"[(1214, 752), (1121, 800)]",[],"[0, 1]",[0.6833333333333333],vertical,"(890.0, 762.0)",0.7833333333333333,0.649,1,4978.051,1,0.0,same
0,672,valid,"[(1189, 794)]",[],[1],[0.6],horizontal,"(390.0, 762.0)",1.4833333333333334,0.557,1,4983.969,1,0.0,same
0,673,catch,"[(1211, 782)]",[],[1],[],vertical,"(890.0, 762.0)",,"('cti', 1.331),nan",0,4989.541,0,0.02,same
0,674,valid,"[(1175, 773)]",[],[1],[0.6666666666666666],horizontal,"(390.0, 262.0)",0.5,0.626,1,4993.868,1,0.02,same
0,675,valid,"[(1186, 791)]",[],[1],[0.5166666666666666],horizontal,"(890.0, 262.0)",0.8666666666666667,0.477,1,4998.036,1,0.02,same
0,676,valid,"[(1194, 781)]",[],[1],[0.8166666666666667],horizontal,"(390.0, 762.0)",0.9,0.769,1,5003.287,1,0.02,same
0,677,valid,"[(1214, 772)]",[],[1],[0.85],horizontal,"(890.0, 762.0)",0.7833333333333333,nan,0,5008.943,0,0.02,same
0,678,valid,"[(1158, 772)]",[],[1],[0.6333333333333333],horizontal,"(390.0, 762.0)",1.5,0.599,1,5013.737,1,0.02,same
0,679,catch,"[(1212, 804)]",[],[1],[],horizontal,"(890.0, 762.0)",1.7,nan,1,5019.015,1,0.02,same
0,680,valid,"[(1209, 798)]",[],[1],[0.55],vertical,"(390.0, 762.0)",1.0666666666666667,0.513,1,5024.104,1,0.02,same
0,681,catch,"[(1181, 772)]",[],[1],[],vertical,"(390.0, 762.0)",1.7,nan,1,5029.049,2,0.02,same
0,682,catch,"[(1210, 768)]",[],[1],[],horizontal,"(890.0, 762.0)",1.7,nan,1,5034.421,2,0.02,same
0,683,valid,"[(1216, 795)]",[],[1],[0.6333333333333333],vertical,"(890.0, 762.0)",1.0666666666666667,0.59,1,5039.99,2,0.02,same
0,684,valid,"[(1211, 786)]",[],[1],[],horizontal,"(890.0, 262.0)",,"('fix', 0.214)",0,5045.636,0,0.02,same
0,685,valid,"[(1156, 799)]",[],[1],[0.6],vertical,"(890.0, 262.0)",0.95,0.557,1,5047.553,1,0.02,same
0,686,invalid_same_bar,"[(1182, 775)]",[],[1],[0.7666666666666666],horizontal,"(390.0, 262.0)",0.5666666666666667,0.718,1,5052.542,1,0.02,same
0,687,valid,"[(1185, 769)]",[],[1],[0.55],vertical,"(390.0, 262.0)",0.7,0.508,1,5057.736,1,0.02,same
0,688,valid,"[(1169, 780)]",[],[1],[0.43333333333333335],horizontal,"(390.0, 762.0)",1.5,0.393,1,5062.086,2,0.02,same
0,689,valid,"[(1212, 799)]",[],[1],[0.5666666666666667],horizontal,"(890.0, 762.0)",0.8166666666666667,0.528,1,5068.087,2,0.02,same
0,690,invalid_adjacent_other_bar,"[(1215, 799)]",[],[1],[0.5666666666666667],horizontal,"(890.0, 762.0)",1.15,0.531,1,5073.57,2,0.02,other
0,691,valid,"[(1208, 786)]",[],[1],[0.6833333333333333],horizontal,"(390.0, 262.0)",1.15,0.66,1,5079.086,3,0.02,same
0,692,valid,"[(1185, 791)]",[],[1],[0.85],horizontal,"(890.0, 762.0)",1.1166666666666667,nan,0,5085.38,0,0.02,same
0,693,valid,"[(1142, 781)]",[],[1],[0.6666666666666666],horizontal,"(890.0, 262.0)",1.2333333333333334,0.626,1,5090.003,1,0.02,same
0,694,catch,"[(1200, 792)]",[],[1],[],vertical,"(890.0, 762.0)",1.7,nan,1,5095.921,1,0.02,same
0,695,valid,"[(1185, 791)]",[],[1],[0.5833333333333334],horizontal,"(890.0, 262.0)",0.43333333333333335,0.542,1,5101.421,1,0.02,same
0,696,valid,"[(1186, 796)]",[],[1],[0.85],horizontal,"(390.0, 262.0)",0.5666666666666667,nan,0,5106.253,0,0.02,same
0,697,invalid_same_bar,"[(1132, 793)]",[],[1],[0.55],vertical,"(890.0, 262.0)",0.55,0.517,1,5110.537,1,0.02,same
0,698,valid,"[(1185, 795)]",[],[1],[0.7166666666666667],vertical,"(390.0, 262.0)",0.5166666666666666,0.669,1,5115.35,1,0.02,same
0,699,valid,"[(1180, 790)]",[],[1],[0.5666666666666667],vertical,"(390.0, 762.0)",1.4833333333333334,0.531,1,5120.367,1,0.02,same
0,700,valid,"[(1197, 778)]",[],[1],[0.7166666666666667],horizontal,"(390.0, 262.0)",1.1166666666666667,0.673,1,5126.1,2,0.02,same
0,701,catch,"[(1200, 774)]",[],[1],[],vertical,"(390.0, 762.0)",1.7,nan,1,5131.663,2,0.02,same
0,702,catch,"[(1180, 799)]",[],[1],[],vertical,"(890.0, 762.0)",1.7,nan,1,5137.349,2,0.02,same
0,703,valid,"[(1186, 799)]",[],[1],[0.7166666666666667],vertical,"(890.0, 762.0)",0.5166666666666666,0.675,1,5142.948,3,0.02,same
0,704,catch,"[(1191, 806)]",[],[1],[],vertical,"(890.0, 262.0)",1.7,nan,1,5148.794,3,0.02,same
0,705,valid,"[(1212, 794)]",[],[1],[0.6833333333333333],horizontal,"(390.0, 262.0)",0.6833333333333333,0.649,1,5154.971,3,0.02,same
0,706,valid,"[(1209, 787)]",[],[1],[0.6],vertical,"(890.0, 262.0)",0.5833333333333334,0.565,1,5160.433,3,0.02,same
0,707,valid,"[(1175, 786)]",[],[1],[0.6],vertical,"(890.0, 762.0)",0.35,0.563,1,5166.036,3,0.02,same
0,708,valid,"[(1180, 791)]",[],[1],[0.6333333333333333],horizontal,"(390.0, 762.0)",1.05,0.591,1,5171.352,3,0.02,same
0,709,valid,"[(1180, 772)]",[],[1],[0.7],vertical,"(390.0, 262.0)",0.9333333333333333,0.661,1,5177.22,3,0.02,same
0,710,valid,"[(1182, 770)]",[],[1],[0.7],vertical,"(390.0, 262.0)",1.0666666666666667,0.657,1,5183.321,3,0.02,same
0,711,catch,"[(1210, 797)]",[],[1],[],horizontal,"(390.0, 262.0)",1.7,nan,1,5189.208,3,0.02,same
0,712,valid,"[(1186, 796)]",[],[1],[0.5166666666666666],horizontal,"(390.0, 262.0)",0.5166666666666666,0.473,1,5195.272,3,0.02,same
0,713,invalid_same_bar,"[(1181, 791)]",[],[1],[0.6],vertical,"(390.0, 762.0)",0.35,0.567,1,5200.521,3,0.02,same
0,714,catch,"[(1189, 791)]",[],[1],[],horizontal,"(390.0, 262.0)",1.7,nan,1,5206.174,3,0.02,same
0,715,invalid_adjacent_other_bar,"[(1201, 803)]",[],[1],[0.6333333333333333],vertical,"(390.0, 762.0)",1.0833333333333333,0.587,1,5212.26,3,0.02,other
0,716,valid,"[(1175, 791)]",[],[1],[0.4166666666666667],horizontal,"(390.0, 262.0)",1.4833333333333334,0.379,1,5218.654,3,0.02,same
0,717,valid,"[(1170, 795)]",[],[1],[0.85],horizontal,"(390.0, 262.0)",1.1166666666666667,nan,0,5225.312,0,0.02,same
0,718,valid,"[(1165, 798)]",[],[1],[0.5166666666666666],vertical,"(390.0, 262.0)",1.0333333333333332,0.475,1,5230.287,1,0.02,same
0,719,valid,"[(1183, 798)]",[],[1],[0.6166666666666667],vertical,"(390.0, 262.0)",0.9166666666666666,0.585,1,5235.493,1,0.02,same
0,720,catch,"[(1204, 806)]",[],[1],[],vertical,"(390.0, 762.0)",1.7,nan,1,5240.729,1,0.02,same
0,721,catch,"[(1175, 781)]",[],[1],[],horizontal,"(390.0, 762.0)",1.7,nan,1,5245.893,2,0.02,same
0,722,valid,"[(1190, 796)]",[],[1],[0.55],horizontal,"(890.0, 262.0)",1.3166666666666667,0.511,1,5251.82,2,0.02,same
0,723,invalid_same_bar,"[(1206, 776)]",[],[1],[0.5666666666666667],vertical,"(890.0, 762.0)",0.6833333333333333,0.535,1,5258.069,2,0.0,same
0,724,valid,"[(1208, 799)]",[],[1],[0.85],vertical,"(890.0, 762.0)",0.9833333333333333,nan,0,5263.17,0,0.0,same
0,725,valid,"[(1140, 794)]",[],[1],[0.75],horizontal,"(390.0, 262.0)",0.9833333333333333,0.719,1,5267.831,1,0.0,same
0,726,valid,"[(1204, 778)]",[],[1],[0.85],vertical,"(890.0, 262.0)",0.8333333333333334,nan,0,5273.321,0,0.0,same
0,727,catch,"[(1166, 777)]",[],[1],[],horizontal,"(890.0, 762.0)",1.7,nan,1,5278.082,1,0.0,same
0,728,valid,"[(1218, 803)]",[],[1],[],vertical,"(890.0, 762.0)",,"('fix', 0.201)",0,5283.431,0,0.0,same
0,729,valid,"[(1115, 807)]",[],[1],[0.85],horizontal,"(390.0, 762.0)",0.5833333333333334,nan,0,5285.419,0,0.0,same
0,730,invalid_same_bar,"[(1176, 796)]",[],[1],[0.85],horizontal,"(890.0, 762.0)",0.45,nan,0,5289.976,0,0.0,same
0,731,valid,"[(1162, 772)]",[],[1],[0.7166666666666667],vertical,"(390.0, 762.0)",1.0833333333333333,0.677,1,5294.452,1,0.0,same
0,732,valid,"[(1210, 777)]",[],[1],[0.65],vertical,"(390.0, 262.0)",1.1666666666666667,0.614,1,5300.059,1,0.0,same
0,733,catch,"[(1186, 766)]",[],[1],[],vertical,"(390.0, 762.0)",1.7,nan,1,5304.89,1,0.0,same
0,734,catch,"[(1180, 772)]",[],[1],[],horizontal,"(390.0, 262.0)",1.7,nan,1,5310.119,2,0.0,same
0,735,valid,"[(1203, 773)]",[],[1],[0.65],vertical,"(890.0, 262.0)",1.4333333333333333,0.607,1,5315.836,2,0.0,same
0,736,catch,"[(1176, 799)]",[],[1],[],horizontal,"(890.0, 762.0)",1.7,nan,1,5321.803,2,0.0,same
0,737,catch,"[(1163, 796)]",[],[1],[],vertical,"(890.0, 762.0)",1.7,nan,1,5327.846,3,0.0,same
0,738,valid,"[(1180, 796)]",[],[1],[0.5833333333333334],vertical,"(890.0, 762.0)",0.43333333333333335,0.54,1,5334.411,3,0.0,same
0,739,invalid_adjacent_other_bar,"[(1135, 803)]",[],[1],[0.5833333333333334],vertical,"(890.0, 762.0)",1.2833333333333332,0.548,1,5339.994,3,0.0,other
0,740,invalid_adjacent_other_bar,"[(1171, 771)]",[],[1],[0.5833333333333334],horizontal,"(390.0, 262.0)",0.5333333333333333,0.545,1,5347.859,3,0.0,other
0,741,valid,"[(1176, 815)]",[],[1],[0.5333333333333333],horizontal,"(890.0, 762.0)",0.7333333333333333,0.493,1,5353.422,3,0.0,same
0,742,valid,"[(1175, 801)]",[],[1],[0.5166666666666666],vertical,"(890.0, 762.0)",1.4,0.478,1,5359.453,3,0.0,same
0,743,catch,"[(1210, 805)]",[],[1],[],vertical,"(390.0, 262.0)",1.7,nan,1,5366.272,3,0.0,same
0,744,valid,"[(1198, 796)]",[],[1],[0.5666666666666667],vertical,"(390.0, 262.0)",1.35,0.527,1,5372.262,3,0.0,same
0,745,valid,"[(1209, 791)]",[],[1],[0.75],vertical,"(890.0, 762.0)",1.5,0.722,1,5378.605,3,0.0,same
0,746,valid,"[(1203, 782)]",[],[1],[0.6833333333333333],horizontal,"(390.0, 762.0)",1.4333333333333333,0.651,1,5384.819,3,0.0,same
0,747,catch,"[(1184, 804)]",[],[1],[],horizontal,"(890.0, 262.0)",,"('cti', 1.367),nan",0,5391.14,0,0.02,same
0,748,catch,"[(1140, 802)]",[],[1],[],vertical,"(390.0, 262.0)",1.7,nan,1,5395.771,1,0.02,same
0,749,valid,"[(1170, 781)]",[],[1],[0.6166666666666667],vertical,"(390.0, 262.0)",0.36666666666666664,0.576,1,5401.255,1,0.02,same
0,750,valid,"[(1186, 803)]",[],[1],[0.31666666666666665],vertical,"(890.0, 262.0)",1.4166666666666667,0.281,1,5405.971,1,0.02,same
0,751,catch,"[(1210, 807)]",[],[1],[],vertical,"(390.0, 762.0)",1.7,nan,1,5411.528,2,0.02,same
0,752,catch,"[(1208, 799)]",[],[1],[],vertical,"(390.0, 262.0)",1.7,nan,1,5417.323,2,0.02,same
0,753,valid,"[(1178, 816)]",[],[1],[0.6],vertical,"(890.0, 262.0)",0.36666666666666664,0.56,1,5423.305,2,0.02,same
0,754,valid,"[(1204, 799)]",[],[1],[0.6166666666666667],vertical,"(390.0, 262.0)",1.05,0.574,1,5428.523,3,0.02,same
0,755,invalid_same_bar,"[(1175, 781)]",[],[1],[0.85],horizontal,"(390.0, 762.0)",1.1666666666666667,nan,0,5434.456,0,0.02,same
0,756,valid,"[(1140, 782)]",[],[1],[0.6333333333333333],horizontal,"(890.0, 262.0)",1.0,0.606,1,5439.267,1,0.02,same
0,757,catch,"[(1178, 807)]",[],[1],[],vertical,"(390.0, 762.0)",1.7,nan,1,5444.238,1,0.02,same
0,758,catch,"[(1190, 808)]",[],[1],[],vertical,"(390.0, 762.0)",1.7,nan,1,5449.849,1,0.02,same
0,759,valid,"[(1175, 799)]",[],[1],[0.5833333333333334],vertical,"(890.0, 262.0)",1.2333333333333334,0.544,1,5454.781,2,0.02,same
0,760,valid,"[(1195, 796)]",[],[1],[0.5666666666666667],horizontal,"(390.0, 762.0)",0.6666666666666666,0.525,1,5460.972,2,0.02,same
0,761,catch,"[(1205, 808)]",[],[1],[],horizontal,"(890.0, 762.0)",1.7,nan,1,5466.522,2,0.02,same
0,762,invalid_same_bar,"[(1201, 780)]",[],[1],[0.5833333333333334],horizontal,"(890.0, 762.0)",0.4,0.543,1,5472.488,3,0.02,same
0,763,valid,"[(1175, 816)]",[],[1],[0.65],horizontal,"(390.0, 262.0)",1.2,0.609,1,5477.855,3,0.02,same
0,764,catch,"[(1199, 795)]",[],[1],[],vertical,"(890.0, 762.0)",1.7,nan,1,5484.572,3,0.02,same
0,765,catch,"[(1179, 812)]",[],[1],[],horizontal,"(390.0, 762.0)",1.7,nan,1,5490.725,3,0.02,same
0,766,invalid_adjacent_other_bar,"[(1203, 794)]",[],[1],[0.6333333333333333],horizontal,"(390.0, 762.0)",0.8166666666666667,0.586,1,5496.939,3,0.02,other
0,767,catch,"[(1205, 800)]",[],[1],[],vertical,"(390.0, 262.0)",1.7,nan,1,5502.373,3,0.02,same
0,768,valid,"[(1175, 793)]",[],[1],[0.5833333333333334],vertical,"(390.0, 762.0)",0.35,0.541,1,5508.354,3,0.02,same
0,769,valid,"[(1176, 776)]",[],[1],[0.5666666666666667],horizontal,"(890.0, 762.0)",0.48333333333333334,0.525,1,5513.81,3,0.02,same
0,770,catch,"[(1219, 808)]",[],[1],[],horizontal,"(390.0, 762.0)",,"('fix', 0.115),nan",0,5519.289,0,0.04,same
0,771,catch,"[(1122, 806)]",[],[1],[],vertical,"(890.0, 762.0)",,"('cti', 1.503),nan",0,5521.122,0,0.06,same
0,772,valid,"[(1165, 796)]",[],[1],[0.55],vertical,"(890.0, 762.0)",1.1666666666666667,0.511,1,5526.656,1,0.06,same
0,773,catch,"[(1175, 801)]",[],[1],[],vertical,"(390.0, 762.0)",1.7,nan,1,5531.656,1,0.06,same
0,774,valid,"[(1208, 766)]",[],[1],[0.6833333333333333],vertical,"(890.0, 262.0)",1.4,0.639,1,5537.638,1,0.06,same
0,775,valid,"[(1180, 782)]",[],[1],[0.5666666666666667],horizontal,"(390.0, 262.0)",0.75,0.526,1,5543.438,2,0.06,same
0,776,valid,"[(1180, 794)]",[],[1],[0.65],horizontal,"(390.0, 762.0)",1.2333333333333334,0.613,1,5548.522,2,0.06,same
0,777,invalid_same_bar,"[(1180, 795)]",[],[1],[0.7],horizontal,"(390.0, 762.0)",0.9,0.655,1,5554.739,2,0.06,same
0,778,valid,"[(1206, 792), (1221, 783)]",[],"[1, 1]",[],vertical,"(390.0, 262.0)",,"('fix', 0.182)",0,5560.208,0,0.06,same
0,779,valid,"[(1130, 810)]",[],[1],[0.5666666666666667],horizontal,"(390.0, 262.0)",0.65,0.526,1,5562.353,1,0.06,same
0,780,valid,"[(1200, 791)]",[],[1],[0.6166666666666667],vertical,"(890.0, 762.0)",0.5833333333333334,0.575,1,5567.323,1,0.06,same
0,781,valid,"[(1195, 794)]",[],[1],[0.7],horizontal,"(390.0, 262.0)",1.1666666666666667,0.651,1,5572.44,1,0.06,same
0,782,invalid_adjacent_other_bar,"[(1178, 794)]",[],[1],[0.6],horizontal,"(390.0, 262.0)",0.5166666666666666,0.56,1,5577.54,2,0.06,other
0,783,valid,"[(1186, 782)]",[],[1],[0.5666666666666667],vertical,"(890.0, 262.0)",0.8833333333333333,0.524,1,5582.389,2,0.06,same
0,784,catch,"[(1177, 785)]",[],[1],[],horizontal,"(390.0, 762.0)",1.7,nan,1,5588.012,2,0.06,same
0,785,valid,"[(1205, 799)]",[],[1],[0.6666666666666666],vertical,"(390.0, 762.0)",0.55,0.618,1,5593.678,3,0.06,same
0,786,valid,"[(1210, 791)]",[],[1],[0.6],horizontal,"(890.0, 762.0)",0.4166666666666667,0.554,1,5599.653,3,0.06,same
0,787,invalid_adjacent_other_bar,"[(1180, 797)]",[],[1],[0.45],vertical,"(890.0, 262.0)",1.35,0.412,1,5604.725,3,0.06,other
0,788,valid,"[(1180, 795)]",[],[1],[0.5666666666666667],horizontal,"(890.0, 762.0)",1.0833333333333333,0.519,1,5610.849,3,0.06,same
0,789,valid,"[(1197, 772)]",[],[1],[0.7666666666666666],vertical,"(890.0, 762.0)",0.85,0.715,1,5617.12,3,0.06,same
0,790,valid,"[(1175, 799)]",[],[1],[0.55],vertical,"(890.0, 762.0)",1.25,0.5,1,5623.23,3,0.06,same
0,791,catch,"[(1195, 786)]",[],[1],[],horizontal,"(390.0, 262.0)",1.7,nan,1,5629.487,3,0.06,same
0,792,valid,"[(1180, 801)]",[],[1],"[0.85, 0.85]",horizontal,"(890.0, 262.0)",1.3166666666666667,"0.795,nan",0,5635.761,0,0.06,same
0,793,catch,"[(1130, 796)]",[],[1],[],horizontal,"(390.0, 262.0)",1.7,nan,1,5641.008,1,0.06,same
0,794,catch,"[(1173, 764)]",[],[1],[],vertical,"(890.0, 762.0)",1.7,nan,1,5688.172,1,0.06,same
0,795,valid,"[(1170, 802)]",[],[1],[0.5666666666666667],horizontal,"(390.0, 762.0)",0.5833333333333334,0.519,1,5693.775,1,0.06,same
0,796,catch,"[(1166, 796)]",[],[1],[],vertical,"(390.0, 262.0)",1.7,nan,1,5698.211,2,0.06,same
0,797,valid,"[(1178, 807)]",[],[1],[0.6],vertical,"(390.0, 762.0)",1.0833333333333333,0.564,1,5703.701,2,0.04,same
0,798,valid,"[(1165, 774)]",[],[1],[0.6666666666666666],horizontal,"(890.0, 262.0)",0.7833333333333333,0.625,1,5709.505,2,0.04,same
0,799,catch,"[(1164, 819)]",[],[1],[],vertical,"(890.0, 262.0)",,"('cti', 1.326),nan",0,5714.683,0,0.06,same
0,800,invalid_adjacent_other_bar,"[(1116, 786)]",[],[1],[0.5666666666666667],horizontal,"(890.0, 262.0)",1.1666666666666667,0.524,1,5719.473,1,0.06,other
0,801,valid,"[(1175, 802)]",[],[1],[0.85],horizontal,"(890.0, 762.0)",0.85,nan,0,5725.251,0,0.06,same
0,802,invalid_same_bar,"[(1143, 846)]",[],[1],[0.5166666666666666],horizontal,"(390.0, 262.0)",0.7833333333333333,0.472,1,5730.305,1,0.06,same
0,803,valid,"[(1165, 834)]",[],[1],[0.7],horizontal,"(890.0, 762.0)",1.15,0.66,1,5748.434,1,0.06,same
0,804,valid,"[(1211, 806)]",[],[1],[0.35],horizontal,"(890.0, 762.0)",1.5333333333333332,0.311,1,6303.541,1,0.06,same
0,805,invalid_adjacent_other_bar,"[(1177, 832)]",[],[1],[0.36666666666666664],vertical,"(390.0, 262.0)",1.4333333333333333,0.332,1,6308.344,2,0.06,other
0,806,catch,"[(1180, 820)]",[],[1],[],vertical,"(890.0, 762.0)",1.7,nan,1,6314.407,2,0.06,same
0,807,catch,"[(1205, 815)]",[],[1],[],vertical,"(890.0, 762.0)",1.7,nan,1,6319.837,2,0.06,same
0,808,catch,"[(1161, 800)]",[],[1],[],horizontal,"(890.0, 262.0)",1.7,nan,1,6325.725,3,0.06,same
0,809,catch,"[(1212, 809)]",[],[1],[],vertical,"(390.0, 762.0)",1.7,nan,1,6331.975,3,0.06,same
0,810,valid,"[(1215, 811)]",[],[1],[0.7],horizontal,"(390.0, 262.0)",1.2,0.66,1,6337.947,3,0.06,same
0,811,catch,"[(1205, 812)]",[],[1],[],horizontal,"(390.0, 262.0)",1.7,nan,1,6344.473,3,0.06,same
0,812,valid,"[(1218, 825), (1210, 778)]",[],"[1, 1]",[],horizontal,"(890.0, 762.0)",,"('fix', 0.117)",0,6350.336,0,0.06,same
0,813,valid,"[(1135, 830)]",[],[1],[0.6],vertical,"(890.0, 262.0)",0.6,0.557,1,6352.025,1,0.06,same
0,814,valid,"[(1214, 796)]",[],[1],[0.2],horizontal,"(890.0, 762.0)",1.35,0.172,0,6357.025,0,0.06,same
0,815,invalid_same_bar,"[(1158, 788)]",[],[1],[0.5333333333333333],vertical,"(890.0, 762.0)",0.6833333333333333,0.49,1,6361.354,1,0.06,same
0,816,valid,"[(1214, 822)]",[],[1],[0.55],vertical,"(390.0, 262.0)",0.6333333333333333,0.506,1,6365.875,1,0.06,same
0,817,invalid_adjacent_other_bar,"[(1206, 803)]",[],[1],[0.6333333333333333],vertical,"(890.0, 262.0)",0.45,0.601,1,6370.333,1,0.06,other
0,818,valid,"[(1214, 801)]",[],[1],[0.7166666666666667],vertical,"(390.0, 762.0)",0.9,0.673,1,6375.173,2,0.06,same
0,819,catch,"[(1210, 799)]",[],[1],[],horizontal,"(390.0, 262.0)",,"('cti', 1.648),nan",0,6380.413,0,0.08,same
0,820,catch,"[(1185, 785)]",[],[1],[],horizontal,"(390.0, 262.0)",1.7,nan,1,6385.341,1,0.06,same
0,821,invalid_same_bar,"[(1202, 782)]",[],[1],[0.7],vertical,"(890.0, 262.0)",1.5,0.658,1,6390.674,1,0.04,same
0,822,catch,"[(1217, 780)]",[],[1],[],vertical,"(890.0, 262.0)",1.7,nan,1,6396.797,1,0.04,same
0,823,catch,"[(1214, 795)]",[],[1],[],horizontal,"(390.0, 762.0)",1.7,nan,1,6401.606,2,0.04,same
0,824,valid,"[(1218, 800)]",[],[1],[0.65],vertical,"(390.0, 262.0)",0.5666666666666667,0.605,1,6407.042,2,0.04,same
0,825,valid,"[(1221, 813)]",[],[1],[0.6],horizontal,"(890.0, 762.0)",1.1833333333333333,0.557,1,6411.984,2,0.04,same
0,826,valid,"[(1213, 818)]",[],[1],[],horizontal,"(390.0, 762.0)",,"('fix', 0.169)",0,6417.989,0,0.04,same
0,827,valid,"[(1161, 816)]",[],[1],[0.8],vertical,"(890.0, 762.0)",0.6833333333333333,0.756,1,6419.769,1,0.04,same
0,828,valid,"[(1194, 806)]",[],[1],[0.7],horizontal,"(390.0, 762.0)",1.4666666666666666,0.659,1,6424.792,1,0.04,same
0,829,catch,"[(1195, 796)]",[],[1],[],vertical,"(390.0, 262.0)",1.7,nan,1,6430.058,1,0.04,same
0,830,valid,"[(1214, 799)]",[],[1],[0.21666666666666667],horizontal,"(390.0, 762.0)",0.85,0.179,0,6435.191,0,0.04,same
0,831,valid,"[(1180, 791)]",[],[1],[0.45],horizontal,"(890.0, 262.0)",1.5,0.411,1,6439.377,1,0.04,same
0,832,valid,"[(1180, 798)]",[],[1],[0.85],vertical,"(390.0, 762.0)",1.1666666666666667,nan,0,6444.724,0,0.04,same
0,833,valid,"[(1213, 798)]","[(1180, 817)]",[1],[0.26666666666666666],vertical,"(390.0, 762.0)",,"('bar', 0.281)",0,6449.769,0,0.04,same
0,834,valid,"[(1174, 798)]",[],[1],[0.7666666666666666],vertical,"(390.0, 762.0)",0.5,0.733,1,6452.523,1,0.04,same
0,835,valid,"[(1212, 786)]","[(1169, 834)]",[1],[0.7],horizontal,"(890.0, 762.0)",,"('bar', 0.717)",0,6457.357,0,0.04,same
0,836,valid,"[(1166, 799)]",[],[1],[0.7833333333333333],vertical,"(390.0, 762.0)",0.95,0.749,1,6460.387,1,0.04,same
0,837,catch,"[(1195, 801)]",[],[1],[],horizontal,"(890.0, 762.0)",1.7,nan,1,6465.502,1,0.04,same
0,838,valid,"[(1211, 801), (1222, 790)]",[],"[1, 1]",[],horizontal,"(390.0, 262.0)",,"('fix', 0.184)",0,6470.824,0,0.04,same
0,839,valid,"[(1144, 821)]",[],[1],[0.7],horizontal,"(390.0, 262.0)",0.7333333333333333,0.656,1,6472.513,1,0.04,same
0,840,valid,"[(1211, 801)]",[],[1],[0.5],vertical,"(890.0, 262.0)",0.7166666666666667,0.462,1,6477.618,1,0.04,same
0,841,valid,"[(1213, 772)]",[],[1],[0.6833333333333333],vertical,"(390.0, 762.0)",1.2666666666666666,0.646,1,6482.282,1,0.04,same
0,842,catch,"[(1191, 779)]",[],[1],[],vertical,"(890.0, 762.0)",1.7,nan,1,6487.45,2,0.04,same
0,843,valid,"[(1183, 765)]",[],[1],[0.7666666666666666],vertical,"(390.0, 762.0)",0.7833333333333333,0.732,1,6492.987,2,0.04,same
0,844,valid,"[(1172, 801)]",[],[1],[0.85],vertical,"(890.0, 762.0)",0.48333333333333334,nan,0,6498.615,0,0.04,same
0,845,valid,"[(1148, 781)]",[],[1],[0.48333333333333334],horizontal,"(890.0, 262.0)",1.1,0.452,1,6502.697,1,0.04,same
0,846,catch,"[(1180, 790)]",[],[1],[],horizontal,"(890.0, 262.0)",1.7,nan,1,6508.276,1,0.04,same
0,847,catch,"[(1190, 800)]",[],[1],[],vertical,"(890.0, 762.0)",1.7,nan,1,6513.786,1,0.04,same
0,848,valid,"[(1180, 782)]",[],[1],[0.55],horizontal,"(890.0, 262.0)",0.6,0.515,1,6518.912,2,0.04,same
0,849,valid,"[(1182, 766)]",[],[1],[0.5333333333333333],horizontal,"(390.0, 762.0)",0.65,0.499,1,6524.158,2,0.02,same
0,850,valid,"[(1190, 780)]",[],[1],[0.48333333333333334],vertical,"(890.0, 262.0)",1.4666666666666666,0.445,1,6528.95,2,0.02,same
0,851,valid,"[(1198, 762)]",[],[1],[0.5666666666666667],horizontal,"(390.0, 762.0)",0.85,0.519,1,6534.824,3,0.02,same
0,852,valid,"[(1180, 800)]",[],[1],[0.55],horizontal,"(890.0, 762.0)",1.3333333333333333,0.516,1,6540.408,3,0.02,same
0,853,invalid_adjacent_other_bar,"[(1219, 787)]",[],[1],[0.5166666666666666],horizontal,"(390.0, 262.0)",1.0,0.48,1,6546.874,3,0.02,other
0,854,valid,"[(1193, 794)]",[],[1],[0.6333333333333333],vertical,"(890.0, 262.0)",1.4833333333333334,0.591,1,6552.267,3,0.02,same
0,855,valid,"[(1190, 791)]",[],[1],[0.5333333333333333],vertical,"(390.0, 262.0)",0.9166666666666666,0.498,1,6558.909,3,0.02,same
0,856,catch,"[(1202, 792)]",[],[1],[],horizontal,"(390.0, 762.0)",1.7,nan,1,6564.668,3,0.02,same
0,857,catch,"[(1186, 774)]",[],[1],[],vertical,"(390.0, 762.0)",1.7,nan,1,6570.632,3,0.02,same
0,858,valid,"[(1192, 786)]",[],[1],[0.6333333333333333],horizontal,"(390.0, 262.0)",1.4166666666666667,0.593,1,6576.174,3,0.02,same
0,859,catch,"[(1191, 801)]",[],[1],[],horizontal,"(390.0, 262.0)",1.7,nan,1,6582.22,3,0.02,same
0,860,valid,"[(1213, 800)]",[],[1],[0.5333333333333333],vertical,"(890.0, 262.0)",0.9833333333333333,0.495,1,6588.096,3,0.02,same
0,861,valid,"[(1214, 799)]",[],[1],[0.5833333333333334],horizontal,"(890.0, 262.0)",1.2833333333333332,0.538,1,6593.739,3,0.02,same
0,862,valid,"[(1205, 802)]",[],[1],[0.7166666666666667],vertical,"(390.0, 262.0)",1.3333333333333333,0.669,1,6599.875,3,0.02,same
0,863,valid,"[(1192, 785)]",[],[1],[0.55],vertical,"(890.0, 762.0)",0.6333333333333333,0.505,1,6605.957,3,0.02,same
0,864,invalid_same_bar,"[(1185, 782)]",[],[1],[0.6833333333333333],vertical,"(390.0, 762.0)",1.5,0.647,1,6611.674,3,0.02,same
