block,trial,trial_type,taps_start_loc_during_fix,taps_end_loc_during_fix,taps_on_lever_during_fix,taps_on_lever_s_during_fix,bar_orientation,target_xy,cti,rt,acc,time,pulses
0,1,target,"[(1211, 1009), (1125, 820)]",[],"[0, 1]",[0.3833333333333333],horizontal,"(390.0, 762.0)",0.6166666666666667,0.347,1,0.038,1
0,2,target,"[(22, 65), (395, 378), (178, 103), (396, 385), (1059, 856)]",[],"[0, 0, 0, 0, 1]",[0.85],horizontal,"(890.0, 262.0)",1.2,nan,0,227.092,0
0,3,target,"[(280, 498), (277, 514), (584, 1023), (1024, 828)]",[],"[0, 0, 0, 1]",[0.5],horizontal,"(390.0, 262.0)",1.4833333333333334,0.461,1,1323.773,1
0,4,target,"[(1074, 807)]",[],[1],[0.5833333333333334],vertical,"(890.0, 762.0)",0.5,0.538,1,1771.723,1
0,5,target,"[(1072, 824)]",[],[1],[0.2],horizontal,"(890.0, 762.0)",1.4333333333333333,0.168,1,1776.112,1
0,6,target,"[(1092, 802)]",[],[1],[0.05],horizontal,"(890.0, 262.0)",1.6666666666666667,0.022,0,1781.239,0
0,7,catch,"[(1078, 795)]",[],[1],[],horizontal,"(390.0, 262.0)",1.3333333333333333,nan,1,1786.197,1
0,8,target,"[(1077, 809)]",[],[1],[0.3833333333333333],horizontal,"(390.0, 762.0)",1.5166666666666666,0.35,1,1791.854,1
0,9,target,"[(1100, 816)]",[],[1],[0.6666666666666666],vertical,"(390.0, 762.0)",1.0666666666666667,0.624,1,1796.994,1
0,10,target,"[(1100, 820)]",[],[1],[0.4666666666666667],vertical,"(890.0, 262.0)",1.5666666666666667,0.426,1,1802.439,2
0,11,target,"[(1088, 794)]",[],[1],[0.85],horizontal,"(890.0, 262.0)",0.75,nan,0,1808.189,0
0,12,target,"[(1082, 825)]",[],[1],[0.48333333333333334],vertical,"(890.0, 762.0)",1.2,0.442,1,1812.705,1
0,13,target,"[(1086, 800)]",[],[1],[0.43333333333333335],horizontal,"(390.0, 262.0)",1.15,0.395,1,1817.755,1
0,14,target,"[(1077, 795)]",[],[1],[0.7333333333333333],horizontal,"(890.0, 762.0)",0.55,0.693,1,1823.072,1
0,15,target,"[(1035, 792)]",[],[1],[0.75],vertical,"(890.0, 262.0)",0.7666666666666666,0.709,1,1827.989,2
0,16,target,"[(1061, 789)]",[],[1],[0.5333333333333333],vertical,"(890.0, 262.0)",1.1833333333333333,0.49,1,1833.755,2
0,17,target,"[(1074, 807)]",[],[1],[0.36666666666666664],horizontal,"(390.0, 762.0)",1.1333333333333333,0.325,1,1839.489,2
0,18,target,"[(1076, 808)]",[],[1],[0.35],vertical,"(390.0, 262.0)",1.25,0.313,1,1845.139,2
0,19,target,"[(1081, 786)]",[],[1],[0.7333333333333333],vertical,"(890.0, 762.0)",0.8666666666666667,0.688,1,1850.941,2
0,20,target,"[(1076, 801)]",[],[1],[0.6333333333333333],vertical,"(390.0, 762.0)",1.05,0.598,1,1856.585,3
0,21,target,"[(1088, 795)]",[],[1],[],vertical,"(390.0, 262.0)",,"('cti', 1.667)",0,1862.567,0
0,22,target,"[(1076, 808)]",[],[1],[0.6666666666666666],horizontal,"(890.0, 762.0)",0.5166666666666666,0.634,1,1867.082,1
0,23,target,"[(1040, 792)]",[],[1],[0.3],vertical,"(890.0, 762.0)",1.5166666666666666,0.268,1,1871.288,1
0,24,target,"[(1082, 790)]",[],[1],[0.45],horizontal,"(390.0, 762.0)",1.15,0.419,1,1876.342,1
0,25,target,"[(1075, 786)]",[],[1],[0.6],horizontal,"(390.0, 262.0)",0.8666666666666667,0.558,1,1881.21,2
0,26,target,"[(1060, 806)]",[],[1],[0.5666666666666667],vertical,"(390.0, 262.0)",0.9333333333333333,0.525,1,1886.117,2
0,27,target,"[(1071, 815)]",[],[1],[0.5833333333333334],vertical,"(890.0, 762.0)",0.8833333333333333,0.55,1,1891.489,2
0,28,target,"[(1064, 811)]",[],[1],[0.4],vertical,"(890.0, 262.0)",1.3333333333333333,0.366,1,1896.902,2
0,29,target,"[(1076, 778)]",[],[1],[0.5833333333333334],vertical,"(890.0, 262.0)",0.7166666666666667,0.541,1,1902.855,2
0,30,target,"[(1055, 799)]",[],[1],[0.5833333333333334],horizontal,"(390.0, 262.0)",0.5,0.554,1,1907.79,3
0,31,target,"[(1068, 770)]",[],[1],[0.6833333333333333],vertical,"(890.0, 262.0)",0.9833333333333333,0.648,1,1913.129,3
0,32,target,"[(1098, 779)]",[],[1],[0.5166666666666666],horizontal,"(390.0, 262.0)",1.0833333333333333,0.476,1,1919.108,3
0,33,target,"[(1076, 776)]",[],[1],[],vertical,"(890.0, 262.0)",,"('cti', 1.52)",0,1924.756,0
0,34,target,"[(1077, 798)]",[],[1],[0.1],horizontal,"(390.0, 762.0)",1.4833333333333334,0.068,0,1929.45,0
0,35,target,"[(1082, 801)]",[],[1],[0.55],horizontal,"(390.0, 262.0)",0.9666666666666667,0.506,1,1933.995,1
0,36,target,"[(1071, 796)]",[],[1],[0.5166666666666666],horizontal,"(890.0, 262.0)",1.2666666666666666,0.478,1,1938.572,1
0,37,target,"[(1091, 786)]",[],[1],[0.5666666666666667],vertical,"(390.0, 762.0)",1.2166666666666666,0.535,1,1943.789,1
0,38,target,"[(1043, 772)]",[],[1],[0.5],vertical,"(390.0, 262.0)",1.25,0.459,1,1949.312,2
0,39,catch,"[(1077, 796)]",[],[1],[],vertical,"(890.0, 262.0)",1.4,nan,1,1954.823,2
0,40,target,"[(1071, 789)]",[],[1],[0.5666666666666667],vertical,"(890.0, 262.0)",1.0666666666666667,0.523,1,1959.873,2
0,41,target,"[(1062, 795)]",[],[1],[0.3333333333333333],horizontal,"(890.0, 262.0)",1.6333333333333333,0.299,1,1965.362,2
0,42,target,"[(1061, 770)]",[],[1],[0.13333333333333333],horizontal,"(390.0, 262.0)",1.6833333333333333,0.102,0,1971.608,0
0,43,target,"[(1078, 806)]",[],[1],[0.65],horizontal,"(390.0, 262.0)",0.7666666666666666,0.611,1,1976.569,1
0,44,target,"[(1038, 786)]",[],[1],[0.5],vertical,"(890.0, 762.0)",1.4333333333333333,0.466,1,1980.985,1
0,45,target,"[(1061, 786)]",[],[1],[0.7],horizontal,"(890.0, 762.0)",0.5,0.656,1,1986.21,1
0,46,target,"[(1062, 797)]",[],[1],[0.6666666666666666],vertical,"(390.0, 262.0)",0.6666666666666666,0.622,1,1991.056,2
0,47,target,"[(1076, 786)]",[],[1],[0.6166666666666667],horizontal,"(390.0, 762.0)",1.05,0.572,1,1995.943,2
0,48,target,"[(1063, 795)]",[],[1],[0.5166666666666666],horizontal,"(890.0, 262.0)",1.3166666666666667,0.476,1,2001.441,2
0,49,target,"[(1077, 788)]",[],[1],[0.7333333333333333],horizontal,"(390.0, 762.0)",0.6833333333333333,0.691,1,2007.04,2
0,50,target,"[(1108, 793)]",[],[1],[0.7],horizontal,"(390.0, 762.0)",0.8666666666666667,0.657,1,2012.046,2
0,51,target,"[(1062, 826)]",[],[1],[0.4666666666666667],horizontal,"(890.0, 262.0)",1.35,0.43,1,2017.222,3
0,52,catch,"[(1101, 795)]",[],[1],[],vertical,"(390.0, 762.0)",1.2333333333333334,nan,1,2023.336,3
0,53,catch,"[(1075, 811)]",[],[1],[],vertical,"(390.0, 262.0)",1.2333333333333334,nan,1,2028.957,3
0,54,target,"[(1059, 787)]",[],[1],[0.4666666666666667],vertical,"(390.0, 762.0)",1.2833333333333332,0.423,1,2034.557,3
0,55,target,"[(1066, 787)]",[],[1],[],horizontal,"(890.0, 762.0)",,"('cti', 1.504)",0,2040.991,0
0,56,target,"[(1086, 795)]",[],[1],[0.5333333333333333],vertical,"(390.0, 762.0)",1.3166666666666667,0.493,1,2045.662,1
0,57,target,"[(1079, 775)]",[],[1],[0.5666666666666667],horizontal,"(890.0, 762.0)",0.85,0.526,1,2050.82,1
0,58,target,"[(1066, 771)]",[],[1],[0.3333333333333333],horizontal,"(890.0, 762.0)",1.2666666666666666,0.293,1,2055.332,1
0,59,target,"[(1072, 786)]",[],[1],[0.23333333333333334],vertical,"(390.0, 762.0)",1.6833333333333333,0.201,1,2060.526,2
0,60,target,"[(1082, 793)]",[],[1],[0.3833333333333333],vertical,"(390.0, 262.0)",1.4166666666666667,0.349,1,2066.457,2
0,61,target,"[(1075, 787)]",[],[1],[0.5666666666666667],vertical,"(390.0, 762.0)",0.7333333333333333,0.525,1,2071.796,2
0,62,target,"[(1075, 791)]",[],[1],[0.6333333333333333],vertical,"(390.0, 762.0)",0.8166666666666667,0.596,1,2076.9,2
0,63,catch,"[(1067, 790)]",[],[1],[],vertical,"(390.0, 762.0)",1.6833333333333333,"('cti', 1.673),nan",0,2081.709,0
0,64,target,"[(1075, 804)]",[],[1],[0.5],vertical,"(890.0, 762.0)",1.5166666666666666,0.463,1,2085.991,1
0,65,target,"[(1062, 771)]",[],[1],[0.6],vertical,"(890.0, 262.0)",0.7166666666666667,0.56,1,2090.99,1
0,66,target,"[(1043, 791)]",[],[1],[0.5666666666666667],horizontal,"(390.0, 762.0)",0.7166666666666667,0.534,1,2095.591,1
0,67,target,"[(1062, 782)]",[],[1],[0.3333333333333333],horizontal,"(890.0, 262.0)",1.4,0.295,1,2100.141,2
0,68,target,"[(1077, 779)]",[],[1],[0.5666666666666667],vertical,"(890.0, 762.0)",0.7833333333333333,0.522,1,2105.745,2
0,69,catch,"[(1081, 787)]",[],[1],[],horizontal,"(890.0, 762.0)",1.5333333333333332,nan,1,2110.54,2
0,70,target,"[(1087, 798)]",[],[1],[0.21666666666666667],horizontal,"(390.0, 262.0)",1.3166666666666667,0.183,1,2115.456,2
0,71,target,"[(1072, 811)]",[],[1],[0.3333333333333333],horizontal,"(890.0, 262.0)",1.4,0.295,1,2120.848,2
0,72,target,"[(1065, 773)]",[],[1],[0.75],horizontal,"(390.0, 762.0)",0.8666666666666667,0.706,1,2126.225,3
0,73,target,"[(1103, 803)]",[],[1],[0.15],horizontal,"(390.0, 762.0)",1.5,0.115,0,2132.257,0
0,74,target,"[(1088, 801)]",[],[1],[0.6166666666666667],horizontal,"(890.0, 762.0)",1.3833333333333333,0.581,1,2136.841,1
0,75,target,"[(1069, 791)]",[],[1],[0.7166666666666667],horizontal,"(890.0, 262.0)",0.8833333333333333,0.681,1,2141.89,1
0,76,target,"[(1072, 791)]",[],[1],[0.2833333333333333],horizontal,"(390.0, 262.0)",1.3,0.253,1,2146.774,1
0,77,target,"[(1065, 801)]",[],[1],[0.85],vertical,"(890.0, 762.0)",0.5666666666666667,nan,0,2151.875,0
0,78,target,"[(1074, 807)]",[],[1],[0.65],vertical,"(890.0, 762.0)",1.25,0.604,1,2156.29,1
0,79,target,"[(1075, 788)]",[],[1],[0.85],vertical,"(890.0, 762.0)",0.5166666666666666,nan,0,2161.523,0
0,80,catch,"[(1080, 800)]",[],[1],[],vertical,"(390.0, 762.0)",1.25,nan,1,2165.736,1
0,81,target,"[(1079, 823)]",[],[1],[0.7333333333333333],vertical,"(890.0, 262.0)",1.0666666666666667,0.7,1,2170.798,1
0,82,target,"[(1063, 798)]",[],[1],[],vertical,"(390.0, 762.0)",,"('cti', 1.592)",0,2175.548,0
0,83,target,"[(1061, 796)]",[],[1],[0.5333333333333333],horizontal,"(890.0, 762.0)",1.4166666666666667,0.494,1,2180.526,1
0,84,catch,"[(1070, 794)]",[],[1],[],vertical,"(890.0, 762.0)",1.4666666666666666,nan,1,2185.996,1
0,85,target,"[(1079, 804)]",[],[1],[0.5833333333333334],horizontal,"(890.0, 262.0)",0.6166666666666667,0.55,1,2190.426,1
0,86,target,"[(1079, 799)]",[],[1],[0.06666666666666667],horizontal,"(390.0, 262.0)",1.6166666666666667,0.036,0,2194.869,0
0,87,target,"[(1091, 802)]",[],[1],[0.5],horizontal,"(390.0, 762.0)",1.5833333333333333,0.466,1,2199.641,1
0,88,target,"[(1076, 786)]",[],[1],[0.35],horizontal,"(390.0, 762.0)",1.5166666666666666,0.314,1,2204.93,1
0,89,target,"[(1075, 797)]",[],[1],[0.23333333333333334],vertical,"(890.0, 762.0)",1.5666666666666667,0.202,1,2210.287,1
0,90,target,"[(1075, 794)]",[],[1],[0.5166666666666666],horizontal,"(890.0, 262.0)",1.6666666666666667,0.477,1,2215.474,2
0,91,target,"[(1067, 778)]",[],[1],[0.85],horizontal,"(890.0, 262.0)",0.6,nan,0,2221.562,0
0,92,target,"[(1063, 797)]",[],[1],[0.6166666666666667],vertical,"(390.0, 762.0)",1.1,0.574,1,2226.118,1
0,93,target,"[(1047, 777)]",[],[1],"[0.85, 0.85]",horizontal,"(390.0, 762.0)",0.95,"0.804,nan",0,2231.457,0
0,94,target,"[(1081, 793)]",[],[1],[0.5666666666666667],vertical,"(390.0, 762.0)",0.8666666666666667,0.524,1,2236.328,1
0,95,target,"[(1042, 786)]",[],[1],[0.55],horizontal,"(390.0, 262.0)",0.9833333333333333,0.516,1,2240.637,1
0,96,target,"[(1057, 786)]",[],[1],[0.4666666666666667],horizontal,"(390.0, 262.0)",1.4833333333333334,0.428,1,2245.639,1
0,97,target,"[(1082, 787)]",[],[1],[0.55],horizontal,"(890.0, 762.0)",0.8333333333333334,0.504,1,2250.892,2
0,98,target,"[(1093, 801)]",[],[1],[0.6666666666666666],horizontal,"(390.0, 762.0)",1.25,0.62,1,2255.892,2
0,99,target,"[(1076, 792)]",[],[1],[0.5833333333333334],vertical,"(390.0, 762.0)",1.3166666666666667,0.538,1,2261.507,2
0,100,target,"[(1076, 800)]",[],[1],[0.5666666666666667],vertical,"(890.0, 762.0)",1.2333333333333334,0.539,1,2267.325,2
0,101,target,"[(1086, 795)]",[],[1],[0.5],horizontal,"(390.0, 262.0)",1.2833333333333332,0.463,1,2272.574,2
0,102,target,"[(1089, 789)]",[],[1],[],vertical,"(890.0, 762.0)",,"('cti', 1.58)",0,2278.395,0
0,103,target,"[(1081, 796)]",[],[1],[0.85],horizontal,"(890.0, 262.0)",0.7666666666666666,nan,0,2282.952,0
0,104,target,"[(1038, 796)]",[],[1],[0.3],horizontal,"(390.0, 262.0)",1.5333333333333332,0.268,1,2287.188,1
0,105,target,"[(1066, 791)]",[],[1],[0.6666666666666666],vertical,"(390.0, 262.0)",0.65,0.618,1,2292.552,1
0,106,target,"[(1069, 781)]",[],[1],[0.6833333333333333],horizontal,"(390.0, 762.0)",1.0666666666666667,0.638,1,2296.745,1
0,107,target,"[(1064, 773)]",[],[1],[0.6166666666666667],horizontal,"(390.0, 762.0)",0.9,0.575,1,2301.842,2
0,108,target,"[(1062, 789)]",[],[1],[0.36666666666666664],vertical,"(390.0, 762.0)",1.65,0.33,1,2307.481,2
0,109,target,"[(1068, 789)]",[],[1],[0.65],horizontal,"(390.0, 762.0)",1.2,0.601,1,2313.504,2
0,110,target,"[(1079, 789)]",[],[1],[0.5833333333333334],vertical,"(890.0, 762.0)",0.6166666666666667,0.54,1,2319.258,2
0,111,target,"[(1076, 772)]",[],[1],[0.5333333333333333],horizontal,"(890.0, 262.0)",1.2666666666666666,0.491,1,2324.267,2
0,112,target,"[(1079, 791)]",[],[1],[0.43333333333333335],horizontal,"(890.0, 262.0)",1.2833333333333332,0.394,1,2329.819,3
0,113,target,"[(1076, 800)]",[],[1],[0.23333333333333334],horizontal,"(890.0, 762.0)",1.4833333333333334,0.2,1,2335.422,3
0,114,target,"[(1075, 772)]",[],[1],[0.5],vertical,"(890.0, 762.0)",1.1833333333333333,0.459,1,2341.409,3
0,115,target,"[(1075, 801)]",[],[1],[0.13333333333333333],horizontal,"(890.0, 762.0)",1.5,0.1,0,2347.044,0
0,116,target,"[(1066, 801)]",[],[1],[0.5333333333333333],vertical,"(890.0, 262.0)",1.2666666666666666,0.494,1,2351.65,1
0,117,catch,"[(1069, 773)]",[],[1],[],horizontal,"(390.0, 262.0)",1.6166666666666667,nan,1,2356.742,1
0,118,target,"[(1062, 795)]",[],[1],[0.21666666666666667],horizontal,"(390.0, 262.0)",1.4666666666666666,0.183,1,2361.544,1
0,119,target,"[(1071, 788)]",[],[1],[0.25],horizontal,"(890.0, 262.0)",1.55,0.223,1,2367.02,2
0,120,target,"[(1063, 791)]",[],[1],[0.5166666666666666],vertical,"(390.0, 762.0)",1.4166666666666667,0.475,1,2372.874,2
0,121,target,"[(1077, 796)]",[],[1],[0.5166666666666666],vertical,"(890.0, 762.0)",1.0333333333333332,0.473,1,2378.316,2
0,122,target,"[(1102, 819)]",[],[1],[0.6333333333333333],horizontal,"(890.0, 762.0)",0.5833333333333334,0.588,1,2383.476,2
0,123,target,"[(1044, 792)]",[],[1],[0.65],vertical,"(890.0, 262.0)",1.05,0.607,1,2388.26,2
0,124,target,"[(1057, 785)]",[],[1],[0.26666666666666666],horizontal,"(890.0, 262.0)",1.2833333333333332,0.228,1,2393.827,3
0,125,target,"[(1063, 796)]",[],[1],[0.7333333333333333],horizontal,"(390.0, 762.0)",0.85,0.697,1,2399.858,3
0,126,target,"[(1079, 803)]",[],[1],[0.5666666666666667],vertical,"(390.0, 762.0)",1.1833333333333333,0.534,1,2405.868,3
0,127,target,"[(1099, 792)]",[],[1],[0.55],vertical,"(390.0, 262.0)",0.95,0.519,1,2411.576,3
0,128,target,"[(1063, 786)]",[],[1],[0.4166666666666667],vertical,"(390.0, 262.0)",1.6666666666666667,0.38,1,2417.609,3
0,129,catch,"[(1079, 772)]",[],[1],[],horizontal,"(390.0, 262.0)",1.5666666666666667,nan,1,2423.493,3
0,130,target,"[(1048, 773)]",[],[1],[0.43333333333333335],vertical,"(390.0, 762.0)",1.6166666666666667,0.401,1,2428.809,3
0,131,target,"[(1076, 778)]",[],[1],[0.6833333333333333],horizontal,"(390.0, 762.0)",0.5166666666666666,0.646,1,2435.143,3
0,132,target,"[(1058, 794)]",[],[1],[0.7333333333333333],vertical,"(890.0, 262.0)",1.0666666666666667,0.691,1,2440.382,3
0,133,target,"[(1086, 786)]",[],[1],[0.85],vertical,"(390.0, 762.0)",0.6333333333333333,nan,0,2446.144,0
0,134,target,"[(1049, 777)]",[],[1],[0.55],vertical,"(890.0, 262.0)",0.9166666666666666,0.509,1,2450.36,1
0,135,target,"[(1105, 802)]",[],[1],[0.5166666666666666],horizontal,"(890.0, 762.0)",1.2,0.488,1,2455.309,1
0,136,target,"[(1066, 780)]",[],[1],[0.85],vertical,"(890.0, 762.0)",0.6833333333333333,nan,0,2460.032,0
0,137,target,"[(1066, 805)]",[],[1],[0.55],vertical,"(890.0, 262.0)",1.5,0.511,1,2464.386,1
0,138,target,"[(1077, 773)]",[],[1],[0.5666666666666667],horizontal,"(390.0, 262.0)",1.0166666666666666,0.527,1,2469.56,1
0,139,target,"[(1084, 775)]",[],[1],[0.8166666666666667],horizontal,"(890.0, 762.0)",0.5666666666666667,0.771,1,2474.925,1
0,140,target,"[(1064, 785)]",[],[1],[0.8],horizontal,"(390.0, 262.0)",1.1333333333333333,0.756,1,2479.919,2
0,141,target,"[(1104, 805)]",[],[1],[0.6833333333333333],horizontal,"(390.0, 262.0)",0.6,0.642,1,2485.211,2
0,142,target,"[(1065, 778)]",[],[1],[0.48333333333333334],horizontal,"(890.0, 262.0)",1.25,0.445,1,2490.008,2
0,143,target,"[(1081, 787)]",[],[1],[0.5666666666666667],vertical,"(390.0, 262.0)",1.1166666666666667,0.523,1,2495.326,2
0,144,target,"[(1085, 797)]",[],[1],[0.6166666666666667],horizontal,"(390.0, 762.0)",0.8,0.578,1,2500.842,2
0,145,target,"[(1079, 795)]",[],[1],[0.5833333333333334],vertical,"(390.0, 262.0)",0.6833333333333333,0.54,1,2506.021,3
0,146,target,"[(1087, 805)]",[],[1],[0.5833333333333334],vertical,"(890.0, 262.0)",1.0166666666666666,0.541,1,2511.548,3
0,147,target,"[(1079, 799)]",[],[1],[],vertical,"(890.0, 262.0)",,"('cti', 1.628)",0,2517.482,0
0,148,target,"[(1091, 803)]",[],[1],[0.36666666666666664],vertical,"(890.0, 262.0)",1.45,0.328,1,2521.916,1
0,149,target,"[(1079, 791)]",[],[1],[],horizontal,"(890.0, 262.0)",,"('cti', 1.211)",0,2527.117,0
0,150,target,"[(1076, 816)]",[],[1],[0.7666666666666666],vertical,"(390.0, 262.0)",0.6666666666666666,0.726,1,2531.756,1
0,151,target,"[(1076, 806)]",[],[1],[0.23333333333333334],horizontal,"(890.0, 762.0)",1.4333333333333333,0.198,1,2536.935,1
0,152,catch,"[(1080, 782)]",[],[1],[],horizontal,"(890.0, 762.0)",1.2333333333333334,nan,1,2541.827,1
0,153,target,"[(1062, 782)]",[],[1],[0.6333333333333333],vertical,"(390.0, 262.0)",1.2,0.596,1,2546.494,2
0,154,target,"[(1100, 789)]",[],[1],[0.3833333333333333],vertical,"(390.0, 762.0)",1.3333333333333333,0.341,1,2552.06,2
0,155,target,"[(1081, 771)]",[],[1],[],horizontal,"(890.0, 762.0)",,"('cti', 1.484)",0,2557.812,0
0,156,target,"[(1100, 814)]",[],[1],[0.5333333333333333],vertical,"(890.0, 762.0)",1.0666666666666667,0.495,1,2562.461,1
0,157,target,"[(1075, 816)]",[],[1],[0.16666666666666666],vertical,"(390.0, 262.0)",1.5333333333333332,0.133,0,2567.368,0
0,158,target,"[(1072, 791)]",[],[1],[0.5833333333333334],horizontal,"(390.0, 762.0)",1.35,0.551,1,2572.059,1
0,159,target,"[(1046, 777)]",[],[1],[0.65],vertical,"(890.0, 262.0)",0.9333333333333333,0.605,1,2576.995,1
0,160,target,"[(1046, 781)]",[],[1],[0.55],vertical,"(390.0, 762.0)",1.3166666666666667,0.504,1,2582.116,1
0,161,target,"[(1071, 783)]",[],[1],[0.5],vertical,"(390.0, 762.0)",1.2833333333333332,0.456,1,2587.193,2
0,162,target,"[(1076, 776)]",[],[1],[0.55],vertical,"(390.0, 762.0)",0.9833333333333333,0.507,1,2592.56,2
0,163,target,"[(1081, 791)]",[],[1],[0.43333333333333335],horizontal,"(890.0, 262.0)",1.2833333333333332,0.394,1,2597.361,2
0,164,target,"[(1088, 765)]",[],[1],[0.6],vertical,"(390.0, 262.0)",1.0833333333333333,0.556,1,2602.762,2
0,165,target,"[(1072, 794)]",[],[1],[0.5666666666666667],horizontal,"(390.0, 262.0)",0.6833333333333333,0.521,1,2608.026,2
0,166,target,"[(1081, 778)]",[],[1],[0.7666666666666666],horizontal,"(890.0, 762.0)",0.9,0.722,1,2613.21,3
0,167,target,"[(1047, 777)]",[],[1],[0.25],vertical,"(890.0, 762.0)",1.55,0.219,1,2618.807,3
0,168,target,"[(1082, 796)]",[],[1],[0.55],horizontal,"(890.0, 762.0)",1.1666666666666667,0.505,1,2624.48,3
0,169,target,"[(1066, 793)]",[],[1],[0.55],vertical,"(890.0, 262.0)",1.1833333333333333,0.51,1,2630.656,3
0,170,target,"[(1077, 778)]",[],[1],[0.25],horizontal,"(890.0, 762.0)",1.4,0.218,1,2636.427,3
0,171,target,"[(1081, 782)]",[],[1],[0.23333333333333334],vertical,"(390.0, 262.0)",1.5,0.2,1,2642.262,3
0,172,target,"[(1081, 795)]",[],[1],[0.25],horizontal,"(890.0, 762.0)",1.4166666666666667,0.216,1,2648.194,3
0,173,target,"[(1066, 770)]",[],[1],[0.6166666666666667],horizontal,"(890.0, 262.0)",0.7166666666666667,0.584,1,2653.856,3
0,174,target,"[(1066, 776)]",[],[1],[0.6833333333333333],horizontal,"(390.0, 262.0)",0.9333333333333333,0.64,1,2659.012,3
0,175,target,"[(1066, 776)]",[],[1],[0.43333333333333335],horizontal,"(890.0, 262.0)",1.15,0.399,1,2664.484,3
0,176,catch,"[(1066, 771)]",[],[1],[],vertical,"(390.0, 762.0)",1.5,nan,1,2670.394,3
0,177,target,"[(1075, 790)]",[],[1],[0.6166666666666667],horizontal,"(890.0, 262.0)",0.6833333333333333,0.573,1,2676.063,3
0,178,target,"[(1062, 799)]",[],[1],[0.55],vertical,"(890.0, 262.0)",1.05,0.507,1,2681.296,3
0,179,target,"[(1076, 776)]",[],[1],[0.18333333333333332],horizontal,"(390.0, 762.0)",1.4,0.155,1,2686.678,3
0,180,target,"[(1076, 775)]",[],[1],[0.6333333333333333],horizontal,"(390.0, 762.0)",0.7666666666666666,0.597,1,2692.729,3
0,181,target,"[(1081, 786)]",[],[1],[0.35],vertical,"(890.0, 762.0)",1.35,0.312,1,2698.261,3
0,182,target,"[(1081, 799)]",[],[1],[0.8166666666666667],horizontal,"(390.0, 762.0)",0.95,0.775,1,2704.167,3
0,183,target,"[(1067, 779)]",[],[1],[0.31666666666666665],horizontal,"(390.0, 262.0)",1.5833333333333333,0.285,1,2709.71,3
0,184,catch,"[(1057, 787)]",[],[1],[],vertical,"(890.0, 762.0)",1.2833333333333332,nan,1,2715.412,3
0,185,target,"[(1069, 794)]",[],[1],[0.48333333333333334],horizontal,"(890.0, 762.0)",1.3,0.445,1,2721.111,3
0,186,target,"[(1076, 782)]",[],[1],[0.48333333333333334],horizontal,"(390.0, 262.0)",1.6666666666666667,0.442,1,2727.078,3
0,187,target,"[(1066, 796)]",[],[1],[0.4166666666666667],horizontal,"(890.0, 262.0)",0.6833333333333333,0.382,1,2733.078,3
0,188,target,"[(1068, 781)]",[],[1],[0.05],horizontal,"(890.0, 762.0)",1.6833333333333333,0.019,0,2738.478,0
0,189,target,"[(1068, 779)]",[],[1],[0.5666666666666667],horizontal,"(390.0, 762.0)",0.6333333333333333,0.524,1,2742.806,1
0,190,target,"[(1081, 790)]",[],[1],[0.21666666666666667],vertical,"(390.0, 262.0)",1.5333333333333332,0.183,1,2747.612,1
0,191,target,"[(1062, 791)]",[],[1],[0.08333333333333333],horizontal,"(890.0, 262.0)",1.55,0.051,0,2752.795,0
0,192,catch,"[(1100, 798)]",[],[1],[],horizontal,"(890.0, 262.0)",1.55,nan,1,2757.694,1
0,193,target,"[(1070, 790)]",[],[1],[0.6],horizontal,"(390.0, 262.0)",1.0333333333333332,0.568,1,2762.33,1
0,194,target,"[(1081, 798)]",[],[1],[0.43333333333333335],horizontal,"(390.0, 262.0)",1.6166666666666667,0.392,1,2767.358,1
0,195,target,"[(1064, 786)]",[],[1],[0.15],vertical,"(890.0, 762.0)",1.4666666666666666,0.117,0,2772.345,0
0,196,target,"[(1069, 811)]",[],[1],[0.5833333333333334],horizontal,"(390.0, 762.0)",1.15,0.537,1,2776.895,1
0,197,target,"[(1043, 791)]",[],[1],[0.5666666666666667],horizontal,"(890.0, 762.0)",1.45,0.524,1,2781.904,1
0,198,target,"[(1057, 791)]",[],[1],[0.3333333333333333],horizontal,"(390.0, 762.0)",1.5333333333333332,0.295,1,2787.196,1
0,199,target,"[(1066, 804)]",[],[1],[0.55],horizontal,"(890.0, 262.0)",1.6666666666666667,0.506,1,2792.582,2
0,200,target,"[(1093, 806)]",[],[1],[0.43333333333333335],vertical,"(390.0, 762.0)",1.5,0.394,1,2798.477,2
0,201,target,"[(1081, 791)]",[],[1],[0.5666666666666667],horizontal,"(390.0, 762.0)",1.0333333333333332,0.523,1,2804.128,2
0,202,target,"[(1071, 791)]",[],[1],[0.36666666666666664],horizontal,"(890.0, 762.0)",1.3666666666666667,0.326,1,2809.727,2
0,203,target,"[(1070, 793)]",[],[1],[0.6666666666666666],vertical,"(390.0, 262.0)",0.5,0.622,1,2815.052,2
0,204,target,"[(1069, 786)]",[],[1],[0.15],vertical,"(390.0, 262.0)",1.6833333333333333,0.117,0,2819.972,0
0,205,target,"[(1066, 790)]",[],[1],[0.3333333333333333],vertical,"(890.0, 262.0)",1.4833333333333334,0.304,1,2825.112,1
0,206,target,"[(1056, 781)]",[],[1],[0.6],horizontal,"(890.0, 762.0)",0.9,0.558,1,2830.405,1
0,207,target,"[(1054, 789)]",[],[1],[0.5666666666666667],horizontal,"(890.0, 262.0)",0.5166666666666666,0.525,1,2835.417,1
0,208,target,"[(1065, 785)]",[],[1],[0.5833333333333334],horizontal,"(390.0, 762.0)",1.1,0.539,1,2839.536,2
0,209,target,"[(1069, 785)]",[],[1],[0.2],horizontal,"(390.0, 762.0)",1.6333333333333333,0.167,1,2844.803,2
0,210,target,"[(1062, 791)]",[],[1],[0.7666666666666666],vertical,"(390.0, 762.0)",1.0333333333333332,0.726,1,2850.179,2
0,211,target,"[(1080, 788)]",[],[1],[0.8166666666666667],vertical,"(890.0, 262.0)",0.5833333333333334,0.771,1,2855.546,2
0,212,target,"[(1066, 791)]",[],[1],[0.5166666666666666],horizontal,"(390.0, 762.0)",1.6,0.476,1,2860.579,2
0,213,catch,"[(1066, 795)]",[],[1],[],horizontal,"(390.0, 762.0)",1.5666666666666667,nan,1,2866.392,3
0,214,target,"[(1065, 781)]",[],[1],[0.36666666666666664],vertical,"(890.0, 762.0)",1.4666666666666666,0.33,1,2872.055,3
0,215,target,"[(1068, 786)]",[],[1],[0.55],vertical,"(390.0, 262.0)",0.7333333333333333,0.507,1,2877.882,3
0,216,target,"[(1076, 797)]",[],[1],[0.3833333333333333],vertical,"(390.0, 262.0)",1.35,0.348,1,2883.099,3
0,217,target,"[(1104, 797)]",[],[1],[],horizontal,"(890.0, 762.0)",,"('cti', 1.578)",0,2888.93,0
0,218,target,"[(1085, 810)]",[],[1],[0.5166666666666666],horizontal,"(390.0, 262.0)",1.6666666666666667,0.486,1,2893.296,1
0,219,target,"[(1081, 791)]",[],[1],[0.5833333333333334],horizontal,"(390.0, 262.0)",1.1166666666666667,0.545,1,2898.447,1
0,220,target,"[(1063, 786)]",[],[1],[0.6],vertical,"(890.0, 262.0)",0.6333333333333333,0.569,1,2903.113,1
0,221,target,"[(1068, 791)]",[],[1],[0.6833333333333333],vertical,"(390.0, 762.0)",0.9,0.646,1,2907.578,2
0,222,target,"[(1052, 790)]",[],[1],[0.6666666666666666],vertical,"(890.0, 262.0)",0.75,0.635,1,2912.864,2
0,223,target,"[(1067, 786)]",[],[1],[0.45],vertical,"(890.0, 262.0)",1.3666666666666667,0.411,1,2918.097,2
0,224,target,"[(1066, 787)]",[],[1],[0.05],vertical,"(890.0, 762.0)",1.6333333333333333,0.018,0,2923.263,0
0,225,catch,"[(1082, 804)]",[],[1],[],horizontal,"(390.0, 762.0)",1.5,nan,1,2927.829,1
0,226,target,"[(1067, 787)]",[],[1],[0.3833333333333333],vertical,"(890.0, 762.0)",1.35,0.345,1,2933.04,1
0,227,target,"[(1072, 808)]",[],[1],[0.55],horizontal,"(390.0, 762.0)",1.2166666666666666,0.509,1,2938.231,1
0,228,catch,"[(1066, 791)]",[],[1],[],vertical,"(390.0, 262.0)",1.6833333333333333,nan,1,2943.246,2
0,229,target,"[(1061, 771)]",[],[1],[0.2833333333333333],horizontal,"(890.0, 262.0)",1.3166666666666667,0.245,1,2948.614,2
0,230,target,"[(1086, 789)]",[],[1],[0.5833333333333334],horizontal,"(890.0, 262.0)",0.6833333333333333,0.547,1,2954.158,2
0,231,target,"[(1082, 787)]",[],[1],[0.36666666666666664],horizontal,"(390.0, 762.0)",1.4166666666666667,0.332,1,2959.529,2
0,232,target,"[(1067, 781)]",[],[1],[0.3],horizontal,"(890.0, 762.0)",1.3,0.268,1,2964.929,2
0,233,target,"[(1071, 782)]",[],[1],[0.5166666666666666],horizontal,"(890.0, 262.0)",1.2,0.482,1,2970.695,3
0,234,target,"[(1072, 796)]",[],[1],[0.6],horizontal,"(390.0, 762.0)",1.0833333333333333,0.557,1,2976.429,3
0,235,target,"[(1067, 800)]",[],[1],[0.7333333333333333],horizontal,"(890.0, 762.0)",0.8833333333333333,0.691,1,2982.429,3
0,236,target,"[(1063, 789)]",[],[1],[0.6],vertical,"(390.0, 762.0)",1.2166666666666666,0.56,1,2988.563,3
0,237,target,"[(1062, 786)]",[],[1],[0.26666666666666666],horizontal,"(390.0, 262.0)",1.1166666666666667,0.232,1,2994.53,3
0,238,target,"[(1081, 785)]",[],[1],[0.65],vertical,"(390.0, 762.0)",1.2166666666666666,0.615,1,3000.348,3
0,239,target,"[(1068, 786)]",[],[1],[0.05],vertical,"(890.0, 762.0)",1.6666666666666667,0.019,0,3006.746,0
0,240,target,"[(1081, 802)]",[],[1],[0.6166666666666667],horizontal,"(390.0, 762.0)",1.1,0.575,1,3011.268,1
0,241,target,"[(1063, 786)]",[],[1],[0.6833333333333333],horizontal,"(890.0, 262.0)",0.9666666666666667,0.638,1,3016.397,1
0,242,target,"[(1043, 793)]",[],[1],[0.5666666666666667],vertical,"(890.0, 262.0)",0.65,0.527,1,3021.513,1
0,243,target,"[(1061, 774)]",[],[1],[0.85],horizontal,"(890.0, 262.0)",1.5333333333333332,"('cti', 1.527),nan",0,3025.846,0
0,244,target,"[(1057, 802)]",[],[1],[0.5333333333333333],vertical,"(890.0, 262.0)",0.8833333333333333,0.494,1,3031.442,1
0,245,target,"[(1066, 790)]",[],[1],[0.5333333333333333],vertical,"(890.0, 262.0)",1.35,0.491,1,3036.352,1
0,246,target,"[(1086, 799)]",[],[1],[0.6666666666666666],horizontal,"(890.0, 762.0)",0.9833333333333333,0.635,1,3041.935,1
0,247,target,"[(1076, 809)]",[],[1],[0.48333333333333334],horizontal,"(890.0, 262.0)",1.15,0.454,1,3046.901,2
0,248,target,"[(1092, 796)]",[],[1],[0.7333333333333333],horizontal,"(390.0, 262.0)",1.1333333333333333,0.693,1,3052.258,2
0,249,target,"[(1089, 800)]",[],[1],[0.5],vertical,"(890.0, 262.0)",1.3,0.462,1,3057.631,2
0,250,target,"[(1068, 786)]",[],[1],[0.6666666666666666],vertical,"(390.0, 762.0)",0.85,0.623,1,3063.086,2
0,251,target,"[(1066, 787)]",[],[1],[0.43333333333333335],vertical,"(390.0, 762.0)",1.2666666666666666,0.392,1,3068.147,2
0,252,target,"[(1081, 791)]",[],[1],[0.6666666666666666],horizontal,"(890.0, 262.0)",1.0333333333333332,0.621,1,3073.85,3
0,253,target,"[(1072, 795)]",[],[1],[0.5],horizontal,"(390.0, 262.0)",1.4,0.462,1,3079.412,3
0,254,target,"[(1100, 786)]",[],[1],[0.55],horizontal,"(890.0, 262.0)",1.05,0.512,1,3085.539,3
0,255,catch,"[(1084, 769)]",[],[1],[],horizontal,"(390.0, 262.0)",1.4833333333333334,nan,1,3091.259,3
0,256,target,"[(1079, 800)]",[],[1],[0.43333333333333335],vertical,"(390.0, 262.0)",1.2833333333333332,0.394,1,3096.568,3
0,257,target,"[(1102, 786)]",[],[1],[0.5666666666666667],vertical,"(390.0, 262.0)",1.1833333333333333,0.524,1,3102.48,3
0,258,target,"[(1081, 830)]",[],[1],[0.6666666666666666],vertical,"(890.0, 762.0)",1.25,0.626,1,3109.104,3
0,259,target,"[(1063, 803)]",[],[1],[0.5833333333333334],horizontal,"(890.0, 262.0)",1.1,0.544,1,3115.18,3
0,260,catch,"[(1070, 795)]",[],[1],[],vertical,"(890.0, 762.0)",1.5666666666666667,nan,1,3121.275,3
0,261,target,"[(1095, 807)]",[],[1],[0.6833333333333333],vertical,"(890.0, 262.0)",0.6333333333333333,0.641,1,3127.031,3
0,262,target,"[(1054, 791)]",[],[1],[0.7666666666666666],horizontal,"(390.0, 262.0)",1.3166666666666667,0.721,1,3132.513,3
0,263,target,"[(1082, 801)]",[],[1],[0.4666666666666667],vertical,"(890.0, 262.0)",1.6833333333333333,0.427,1,3138.514,3
0,264,target,"[(1081, 794)]",[],[1],[0.48333333333333334],horizontal,"(390.0, 262.0)",1.4333333333333333,0.441,1,3144.498,3
0,265,target,"[(1092, 773)]",[],[1],[0.85],vertical,"(390.0, 262.0)",0.8333333333333334,nan,0,3150.464,0
0,266,target,"[(1084, 801)]",[],[1],[0.6333333333333333],vertical,"(890.0, 262.0)",0.8166666666666667,0.593,1,3155.414,1
0,267,target,"[(1090, 795)]",[],[1],[0.6666666666666666],vertical,"(390.0, 762.0)",1.15,0.621,1,3160.536,1
0,268,target,"[(1057, 795)]",[],[1],[0.6166666666666667],vertical,"(890.0, 762.0)",0.6,0.572,1,3165.23,1
0,269,target,"[(1052, 765)]",[],[1],[0.7666666666666666],vertical,"(890.0, 262.0)",0.8166666666666667,0.723,1,3169.468,2
0,270,target,"[(1074, 796)]",[],[1],[0.48333333333333334],horizontal,"(390.0, 262.0)",1.6333333333333333,0.448,1,3175.044,2
0,271,target,"[(1068, 794)]",[],[1],[0.6166666666666667],horizontal,"(890.0, 762.0)",0.85,0.572,1,3180.95,2
0,272,catch,"[(1086, 789)]",[],[1],[],vertical,"(890.0, 762.0)",1.1666666666666667,nan,1,3186.049,2
0,273,target,"[(1082, 790)]",[],[1],[0.5833333333333334],vertical,"(890.0, 262.0)",0.55,0.538,1,3190.986,2
0,274,target,"[(1072, 781)]",[],[1],[0.7],vertical,"(390.0, 262.0)",0.6,0.652,1,3195.843,3
0,275,target,"[(1084, 785)]",[],[1],[0.85],horizontal,"(390.0, 762.0)",0.6833333333333333,nan,0,3201.464,0
0,276,target,"[(1066, 799)]",[],[1],[0.65],vertical,"(390.0, 762.0)",0.7166666666666667,0.605,1,3205.958,1
0,277,catch,"[(1082, 789)]",[],[1],[],horizontal,"(390.0, 262.0)",1.2333333333333334,nan,1,3210.931,1
0,278,target,"[(1052, 830)]",[],[1],[0.6],horizontal,"(890.0, 262.0)",0.5166666666666666,0.556,1,3215.469,1
0,279,target,"[(1060, 828)]",[],[1],[0.85],vertical,"(390.0, 762.0)",0.7,nan,0,3234.64,0
0,280,catch,"[(1038, 855)]",[],[1],[],vertical,"(890.0, 262.0)",1.6666666666666667,nan,1,3239.366,1
0,281,target,"[(1076, 813)]",[],[1],[0.5833333333333334],vertical,"(390.0, 762.0)",1.0166666666666666,0.547,1,3248.314,1
0,282,target,"[(1053, 811)]",[],[1],[0.2],horizontal,"(390.0, 762.0)",1.35,0.168,1,3253.031,1
0,283,target,"[(1076, 810)]",[],[1],[0.5666666666666667],vertical,"(390.0, 262.0)",1.3666666666666667,0.527,1,3258.361,2
0,284,target,"[(1074, 795)]",[],[1],[0.85],horizontal,"(890.0, 262.0)",1.6666666666666667,"('cti', 1.655),nan",0,3263.732,0
0,285,target,"[(1077, 798)]",[],[1],[0.55],horizontal,"(890.0, 762.0)",0.9,0.512,1,3269.448,1
0,286,target,"[(1065, 807)]",[],[1],[0.55],horizontal,"(890.0, 262.0)",1.6,0.505,1,3274.343,1
0,287,target,"[(1060, 796)]",[],[1],[0.65],horizontal,"(890.0, 762.0)",0.9166666666666666,0.607,1,3279.481,1
0,288,target,"[(1068, 792)]",[],[1],[0.16666666666666666],vertical,"(890.0, 262.0)",1.3666666666666667,0.134,0,3284.438,0
0,289,target,"[(1081, 791)]",[],[1],[0.6166666666666667],horizontal,"(390.0, 262.0)",1.3666666666666667,0.57,1,3289.374,1
0,290,target,"[(1065, 796)]",[],[1],[0.6333333333333333],horizontal,"(890.0, 262.0)",1.3666666666666667,0.59,1,3294.248,1
0,291,target,"[(1076, 796)]",[],[1],[0.5],horizontal,"(890.0, 262.0)",0.9833333333333333,0.464,1,3299.697,1
0,292,target,"[(1079, 799)]",[],[1],[0.6166666666666667],horizontal,"(390.0, 262.0)",0.9333333333333333,0.573,1,3304.484,2
0,293,target,"[(1081, 801)]",[],[1],[0.13333333333333333],vertical,"(390.0, 262.0)",1.4666666666666666,0.102,0,3309.72,0
0,294,target,"[(1091, 808)]",[],[1],[0.5666666666666667],vertical,"(890.0, 762.0)",0.9,0.528,1,3314.766,1
0,295,target,"[(1077, 799)]",[],[1],[0.55],vertical,"(890.0, 262.0)",1.1333333333333333,0.51,1,3319.516,1
0,296,target,"[(1074, 802)]",[],[1],[0.6666666666666666],horizontal,"(390.0, 762.0)",0.8833333333333333,0.627,1,3324.473,1
0,297,target,"[(1105, 798)]",[],[1],[0.5333333333333333],vertical,"(390.0, 762.0)",1.4,0.499,1,3329.183,2
0,298,target,"[(1064, 776)]",[],[1],[0.5666666666666667],vertical,"(390.0, 762.0)",1.3,0.527,1,3334.732,2
0,299,target,"[(1077, 768)]",[],[1],[0.5833333333333334],vertical,"(390.0, 262.0)",1.0166666666666666,0.54,1,3340.462,2
0,300,target,"[(1066, 795)]",[],[1],[0.48333333333333334],horizontal,"(390.0, 762.0)",1.2833333333333332,0.439,1,3345.549,2
0,301,target,"[(1081, 801)]",[],[1],[0.15],horizontal,"(890.0, 262.0)",1.6666666666666667,0.115,0,3351.231,0
0,302,target,"[(1081, 806)]",[],[1],[0.4666666666666667],vertical,"(390.0, 762.0)",1.5,0.426,1,3355.602,1
0,303,target,"[(1068, 792)]",[],[1],[0.5333333333333333],vertical,"(390.0, 262.0)",1.2166666666666666,0.493,1,3360.499,1
0,304,target,"[(1095, 786)]",[],[1],[0.7333333333333333],vertical,"(390.0, 762.0)",0.6833333333333333,0.696,1,3365.332,1
0,305,target,"[(1080, 792)]",[],[1],[0.55],horizontal,"(890.0, 262.0)",1.1666666666666667,0.508,1,3370.069,2
0,306,target,"[(1072, 794)]",[],[1],[0.8],vertical,"(890.0, 262.0)",0.8666666666666667,0.758,1,3375.804,2
0,307,target,"[(1083, 781)]",[],[1],[0.18333333333333332],vertical,"(890.0, 762.0)",1.4666666666666666,0.151,1,3381.435,2
0,308,target,"[(1043, 793)]",[],[1],[0.7666666666666666],horizontal,"(890.0, 262.0)",1.2166666666666666,0.725,1,3386.706,2
0,309,target,"[(1071, 790)]",[],[1],[0.45],vertical,"(890.0, 262.0)",1.3,0.408,1,3392.093,2
0,310,target,"[(1081, 797)]",[],[1],[0.6833333333333333],vertical,"(390.0, 262.0)",0.8,0.636,1,3397.421,3
0,311,target,"[(1080, 793)]",[],[1],[0.65],vertical,"(390.0, 762.0)",1.0666666666666667,0.613,1,3402.69,3
0,312,target,"[(1080, 796)]",[],[1],[0.08333333333333333],vertical,"(890.0, 262.0)",1.6833333333333333,0.052,0,3408.575,0
0,313,target,"[(1068, 787)]",[],[1],[0.08333333333333333],horizontal,"(890.0, 262.0)",1.1,0.054,0,3413.124,0
0,314,catch,"[(1065, 799)]",[],[1],[],vertical,"(390.0, 262.0)",1.5666666666666667,nan,1,3417.642,1
0,315,target,"[(1069, 791)]",[],[1],[0.6],horizontal,"(390.0, 762.0)",0.8833333333333333,0.566,1,3422.449,1
0,316,target,"[(1066, 787)]",[],[1],[0.55],vertical,"(390.0, 762.0)",1.3833333333333333,0.518,1,3427.284,1
0,317,target,"[(1082, 802)]",[],[1],[0.5333333333333333],vertical,"(890.0, 262.0)",1.1333333333333333,0.494,1,3432.333,2
0,318,catch,"[(1066, 785)]",[],[1],[],vertical,"(390.0, 762.0)",1.1666666666666667,nan,1,3437.975,2
0,319,target,"[(1064, 791)]",[],[1],[0.7],horizontal,"(390.0, 762.0)",1.05,0.654,1,3443.166,2
0,320,target,"[(1075, 790)]",[],[1],[0.23333333333333334],horizontal,"(390.0, 262.0)",1.4833333333333334,0.202,1,3448.517,2
0,321,target,"[(1057, 790)]",[],[1],[0.5166666666666666],vertical,"(890.0, 262.0)",1.6,0.474,1,3454.266,2
0,322,catch,"[(1097, 782)]",[],[1],[],horizontal,"(390.0, 762.0)",1.3833333333333333,nan,1,3459.866,3
0,323,target,"[(1068, 855)]",[],[1],[0.4166666666666667],horizontal,"(390.0, 762.0)",1.3666666666666667,0.377,1,3465.196,3
0,324,target,"[(1083, 780)]",[],[1],[0.4166666666666667],vertical,"(890.0, 262.0)",1.25,0.375,1,3470.882,3
0,325,target,"[(1089, 786)]",[],[1],[],horizontal,"(390.0, 762.0)",,"('cti', 1.257)",0,3476.85,0
0,326,target,"[(1080, 796)]",[],[1],[0.55],horizontal,"(390.0, 262.0)",1.3833333333333333,0.511,1,3481.35,1
0,327,target,"[(1042, 807)]",[],[1],[0.5666666666666667],vertical,"(390.0, 262.0)",0.9833333333333333,0.52,1,3486.884,1
0,328,target,"[(1076, 811)]",[],[1],[0.5833333333333334],horizontal,"(890.0, 762.0)",1.5166666666666666,0.547,1,3492.22,1
0,329,target,"[(1048, 800)]",[],[1],[0.43333333333333335],vertical,"(390.0, 262.0)",1.55,0.395,1,3497.366,2
0,330,target,"[(1073, 801)]",[],[1],[0.18333333333333332],horizontal,"(390.0, 762.0)",1.6166666666666667,0.149,0,3530.125,0
0,331,target,"[(1028, 812)]",[],[1],[0.5666666666666667],horizontal,"(390.0, 762.0)",1.2166666666666666,0.534,1,3534.662,1
0,332,target,"[(1060, 791)]",[],[1],[0.65],horizontal,"(390.0, 762.0)",0.65,0.611,1,3548.041,1
0,333,target,"[(1075, 812)]",[],[1],[0.6166666666666667],vertical,"(390.0, 762.0)",1.2,0.577,1,3552.9,1
0,334,target,"[(1079, 773)]",[],[1],[0.4],horizontal,"(890.0, 762.0)",1.3333333333333333,0.365,1,3558.35,2
0,335,target,"[(1061, 791)]",[],[1],[0.6166666666666667],horizontal,"(890.0, 762.0)",0.6166666666666667,0.579,1,3564.182,2
0,336,target,"[(1074, 797)]",[],[1],[0.7166666666666667],horizontal,"(890.0, 262.0)",1.0166666666666666,0.672,1,3569.415,2
0,337,target,"[(1070, 790)]",[],[1],[0.8166666666666667],vertical,"(390.0, 762.0)",1.0,0.778,1,3575.136,2
0,338,catch,"[(1075, 785)]",[],[1],[],horizontal,"(890.0, 262.0)",1.35,nan,1,3580.909,2
0,339,target,"[(1068, 790)]",[],[1],[0.6833333333333333],vertical,"(890.0, 762.0)",1.0333333333333332,0.639,1,3585.9,3
0,340,target,"[(1067, 790)]",[],[1],[0.4166666666666667],horizontal,"(890.0, 262.0)",1.6666666666666667,0.38,1,3591.605,3
0,341,target,"[(1063, 790)]",[],[1],[0.3333333333333333],vertical,"(390.0, 762.0)",1.5,0.296,1,3597.702,3
0,342,target,"[(1076, 787)]",[],[1],[0.3833333333333333],horizontal,"(890.0, 262.0)",1.3166666666666667,0.343,1,3603.46,3
0,343,target,"[(1073, 782)]",[],[1],[0.3833333333333333],horizontal,"(890.0, 762.0)",1.3,0.347,1,3609.367,3
0,344,target,"[(1076, 791)]",[],[1],[0.21666666666666667],vertical,"(890.0, 762.0)",1.5333333333333332,0.183,1,3615.268,3
0,345,target,"[(1085, 788)]",[],[1],[0.65],horizontal,"(390.0, 762.0)",1.1833333333333333,0.609,1,3620.984,3
0,346,target,"[(1062, 816)]",[],[1],[0.6333333333333333],vertical,"(890.0, 762.0)",1.2166666666666666,0.589,1,3627.112,3
0,347,target,"[(1058, 788)]",[],[1],[0.48333333333333334],vertical,"(390.0, 262.0)",1.1166666666666667,0.44,1,3633.478,3
0,348,target,"[(1102, 808)]",[],[1],[0.7833333333333333],horizontal,"(890.0, 262.0)",1.0,0.743,1,3639.466,3
0,349,target,"[(1109, 801)]",[],[1],[0.48333333333333334],vertical,"(890.0, 262.0)",1.2666666666666666,0.441,1,3645.2,3
0,350,target,"[(1064, 785)]",[],[1],[0.43333333333333335],horizontal,"(390.0, 262.0)",1.35,0.395,1,3650.967,3
0,351,target,"[(1073, 783)]",[],[1],[0.3333333333333333],vertical,"(890.0, 762.0)",1.3333333333333333,0.297,1,3656.85,3
0,352,target,"[(1077, 797)]",[],[1],[0.55],vertical,"(890.0, 762.0)",0.7666666666666666,0.507,1,3662.817,3
0,353,target,"[(1099, 788)]",[],[1],[0.31666666666666665],vertical,"(390.0, 762.0)",1.5166666666666666,0.277,1,3668.068,3
0,354,target,"[(1047, 786)]",[],[1],[0.6166666666666667],vertical,"(390.0, 262.0)",1.0166666666666666,0.579,1,3673.918,3
0,355,target,"[(1081, 786)]",[],[1],[0.16666666666666666],vertical,"(390.0, 762.0)",1.6,0.135,0,3679.949,0
0,356,catch,"[(1076, 788)]",[],[1],[],vertical,"(390.0, 262.0)",1.6166666666666667,nan,1,3684.643,1
0,357,target,"[(1063, 802)]",[],[1],[0.3],vertical,"(390.0, 762.0)",1.6333333333333333,0.263,1,3689.551,1
0,358,target,"[(1061, 786)]",[],[1],[0.4166666666666667],vertical,"(390.0, 262.0)",1.3666666666666667,0.375,1,3694.851,1
0,359,target,"[(1071, 767)]",[],[1],[0.85],horizontal,"(890.0, 762.0)",0.8166666666666667,nan,0,3699.913,0
0,360,catch,"[(1068, 799)]",[],[1],[],horizontal,"(890.0, 262.0)",1.3666666666666667,nan,1,3704.934,1
0,361,target,"[(1076, 801)]",[],[1],[0.6166666666666667],horizontal,"(390.0, 262.0)",1.45,0.578,1,3709.891,1
0,362,target,"[(1081, 788)]",[],[1],[0.7833333333333333],vertical,"(390.0, 762.0)",1.0833333333333333,0.733,1,3715.142,1
0,363,target,"[(1072, 784)]",[],[1],[0.8166666666666667],horizontal,"(890.0, 262.0)",0.5166666666666666,0.783,1,3720.5,2
0,364,target,"[(1073, 781)]",[],[1],[0.5666666666666667],horizontal,"(890.0, 762.0)",0.85,0.532,1,3725.533,2
0,365,target,"[(1043, 790)]",[],[1],[0.5333333333333333],vertical,"(890.0, 262.0)",0.8166666666666667,0.495,1,3730.626,2
0,366,target,"[(1079, 799)]",[],[1],[0.4],vertical,"(390.0, 262.0)",1.4333333333333333,0.367,1,3735.935,2
0,367,target,"[(1064, 783)]",[],[1],[0.85],horizontal,"(390.0, 762.0)",0.8,nan,0,3741.173,0
0,368,target,"[(1075, 802)]",[],[1],[0.23333333333333334],vertical,"(390.0, 262.0)",1.5666666666666667,0.202,1,3746.119,1
0,369,target,"[(1076, 802)]",[],[1],[0.5166666666666666],vertical,"(890.0, 762.0)",1.1,0.476,1,3751.41,1
0,370,target,"[(1100, 761)]",[],[1],[0.55],vertical,"(890.0, 262.0)",0.6333333333333333,0.512,1,3756.742,1
0,371,target,"[(1075, 776)]",[],[1],[0.6166666666666667],horizontal,"(390.0, 262.0)",0.5666666666666667,0.578,1,3761.226,2
0,372,target,"[(1104, 781)]",[],[1],[0.85],horizontal,"(390.0, 762.0)",0.7166666666666667,nan,0,3766.385,0
0,373,target,"[(1082, 790)]",[],[1],[0.55],horizontal,"(890.0, 262.0)",1.15,0.513,1,3771.159,1
0,374,target,"[(1053, 786)]",[],[1],[0.8166666666666667],horizontal,"(890.0, 762.0)",0.55,0.772,1,3776.526,1
0,375,target,"[(1089, 742), (796, 637), (533, 494), (1065, 841)]",[],"[0, 0, 0, 1]",[0.85],vertical,"(890.0, 262.0)",0.8333333333333334,nan,0,3781.135,0
0,376,catch,"[(1043, 789)]",[],[1],[],horizontal,"(390.0, 262.0)",1.3833333333333333,nan,1,3814.238,1
0,377,target,"[(1064, 789)]",[],[1],[0.85],vertical,"(890.0, 762.0)",0.6833333333333333,nan,0,3819.132,0
0,378,target,"[(1062, 796)]",[],[1],[0.7],vertical,"(390.0, 262.0)",0.8166666666666667,0.655,1,3823.976,1
0,379,target,"[(1047, 785)]",[],[1],[0.5833333333333334],horizontal,"(390.0, 762.0)",0.9,0.544,1,3828.985,1
0,380,target,"[(1067, 796)]",[],[1],[0.5166666666666666],horizontal,"(890.0, 262.0)",0.8,0.475,1,3834.132,1
0,381,target,"[(1061, 789)]",[],[1],[0.4666666666666667],vertical,"(890.0, 262.0)",1.1333333333333333,0.432,1,3839.038,2
0,382,target,"[(1072, 788)]",[],[1],[0.25],vertical,"(890.0, 762.0)",1.4666666666666666,0.22,1,3844.34,2
0,383,target,"[(1069, 785)]",[],[1],[0.21666666666666667],vertical,"(890.0, 262.0)",1.6166666666666667,0.181,1,3849.819,2
0,384,target,"[(1045, 761)]",[],[1],[0.6666666666666666],vertical,"(390.0, 762.0)",1.2333333333333334,0.621,1,3855.189,2
0,385,catch,"[(1075, 791)]",[],[1],[],vertical,"(890.0, 262.0)",1.4,nan,1,3860.825,2
0,386,target,"[(1066, 799)]",[],[1],[0.55],vertical,"(390.0, 262.0)",1.65,0.509,1,3865.67,3
0,387,target,"[(1080, 787)]",[],[1],[0.6],horizontal,"(890.0, 262.0)",1.1666666666666667,0.557,1,3871.736,3
0,388,target,"[(1057, 830)]",[],[1],[0.7666666666666666],horizontal,"(390.0, 262.0)",0.5833333333333334,0.73,1,3877.814,3
0,389,catch,"[(1036, 782)]",[],[1],[],vertical,"(890.0, 762.0)",1.5666666666666667,nan,1,3884.037,3
0,390,catch,"[(1059, 801)]",[],[1],[],vertical,"(890.0, 762.0)",1.4666666666666666,nan,1,3889.814,3
0,391,target,"[(1059, 846)]",[],[1],[0.6],horizontal,"(890.0, 762.0)",1.5,0.558,1,3895.536,3
0,392,target,"[(1077, 811)]",[],[1],[0.3],vertical,"(390.0, 762.0)",1.25,0.263,1,4044.048,3
0,393,target,"[(1081, 787)]",[],[1],[0.55],horizontal,"(390.0, 762.0)",0.6,0.509,1,4049.742,3
0,394,target,"[(1100, 796)]",[],[1],[0.7],horizontal,"(390.0, 762.0)",0.5166666666666666,0.657,1,4054.742,3
0,395,target,"[(1081, 812)]",[],[1],[0.5666666666666667],vertical,"(890.0, 762.0)",0.9166666666666666,0.531,1,4060.288,3
0,396,target,"[(1076, 827)]",[],[1],[0.5833333333333334],horizontal,"(390.0, 762.0)",1.2666666666666666,0.544,1,4065.582,3
0,397,target,"[(1052, 835)]",[],[1],[0.65],horizontal,"(390.0, 762.0)",1.0333333333333332,0.606,1,4071.906,3
0,398,target,"[(1081, 792)]",[],[1],[0.48333333333333334],vertical,"(890.0, 262.0)",1.1666666666666667,0.444,1,4079.121,3
0,399,target,"[(1054, 804)]",[],[1],[0.6166666666666667],vertical,"(390.0, 262.0)",1.05,0.573,1,4085.37,3
0,400,target,"[(1076, 784)]",[],[1],[0.65],vertical,"(390.0, 262.0)",0.9166666666666666,0.613,1,4091.503,3
0,401,target,"[(1069, 781)]",[],[1],[0.5833333333333334],vertical,"(390.0, 262.0)",1.6166666666666667,0.537,1,4097.171,3
0,402,target,"[(1063, 795)]",[],[1],[0.3833333333333333],horizontal,"(390.0, 762.0)",1.5166666666666666,0.347,1,4103.283,3
0,403,target,"[(1077, 781)]",[],[1],[0.65],horizontal,"(390.0, 262.0)",0.9,0.602,1,4109.804,3
0,404,target,"[(1084, 787)]",[],[1],[0.6666666666666666],vertical,"(390.0, 762.0)",0.95,0.619,1,4115.414,3
0,405,target,"[(1071, 799)]",[],[1],[0.6833333333333333],horizontal,"(890.0, 762.0)",1.2,0.638,1,4120.926,3
0,406,target,"[(1081, 784)]",[],[1],[0.5833333333333334],vertical,"(390.0, 762.0)",1.1666666666666667,0.56,1,4126.784,3
0,407,target,"[(1061, 789)]",[],[1],[0.48333333333333334],horizontal,"(390.0, 262.0)",1.2833333333333332,0.443,1,4132.488,3
0,408,target,"[(1058, 788)]",[],[1],[0.21666666666666667],vertical,"(890.0, 262.0)",1.4,0.183,1,4138.401,3
0,409,target,"[(1071, 792)]",[],[1],[0.25],vertical,"(890.0, 762.0)",1.4666666666666666,0.223,1,4143.921,3
0,410,target,"[(1079, 769)]",[],[1],[0.85],horizontal,"(390.0, 762.0)",0.6,nan,0,4149.705,0
0,411,catch,"[(1061, 789)]",[],[1],[],vertical,"(390.0, 762.0)",1.1833333333333333,nan,1,4153.853,1
0,412,target,"[(1086, 797)]",[],[1],[0.85],vertical,"(390.0, 762.0)",1.0,nan,0,4158.704,0
0,413,target,"[(1076, 786)]",[],[1],[0.85],horizontal,"(890.0, 262.0)",1.0666666666666667,nan,0,4163.532,0
0,414,target,"[(1071, 782)]",[],[1],[0.6],vertical,"(390.0, 262.0)",1.3666666666666667,0.562,1,4168.528,1
0,415,target,"[(1076, 779)]",[],[1],[0.6166666666666667],horizontal,"(390.0, 262.0)",0.9333333333333333,0.572,1,4174.12,1
0,416,target,"[(1077, 796)]",[],[1],[0.4166666666666667],horizontal,"(890.0, 262.0)",1.6666666666666667,0.38,1,4179.113,1
0,417,target,"[(1105, 781)]",[],[1],[0.7333333333333333],horizontal,"(390.0, 762.0)",0.6833333333333333,0.689,1,4184.789,2
0,418,catch,"[(1069, 799)]",[],[1],[0.03333333333333333],vertical,"(890.0, 762.0)",1.65,"0.017,nan",0,4190.188,0
0,419,target,"[(1076, 787)]",[],[1],[0.55],horizontal,"(890.0, 262.0)",1.15,0.504,1,4195.14,1
0,420,target,"[(1072, 778)]",[],[1],[0.15],vertical,"(390.0, 262.0)",1.6,0.115,0,4199.782,0
0,421,target,"[(1071, 791)]",[],[1],[0.75],horizontal,"(890.0, 262.0)",1.5333333333333332,0.702,1,4204.871,1
0,422,target,"[(1071, 801)]",[],[1],[0.6166666666666667],horizontal,"(390.0, 762.0)",1.6333333333333333,0.574,1,4210.464,1
0,423,target,"[(1066, 788)]",[],[1],[0.5333333333333333],vertical,"(890.0, 262.0)",1.0166666666666666,0.49,1,4215.926,1
0,424,target,"[(1068, 794)]",[],[1],[0.3833333333333333],horizontal,"(890.0, 762.0)",1.4166666666666667,0.345,1,4221.245,2
0,425,target,"[(1065, 774)]",[],[1],[0.18333333333333332],horizontal,"(390.0, 762.0)",1.5166666666666666,0.148,0,4226.895,0
0,426,target,"[(1076, 785)]",[],[1],[0.5166666666666666],horizontal,"(390.0, 262.0)",1.05,0.478,1,4231.696,1
0,427,target,"[(1070, 771)]",[],[1],[0.8333333333333334],horizontal,"(890.0, 262.0)",0.8666666666666667,0.786,1,4236.5,1
0,428,target,"[(1075, 794)]",[],[1],[0.55],horizontal,"(390.0, 262.0)",0.75,0.51,1,4241.62,1
0,429,target,"[(1073, 785)]",[],[1],[0.5166666666666666],vertical,"(390.0, 762.0)",1.5666666666666667,0.486,1,4246.52,2
0,430,target,"[(1071, 774)]",[],[1],[0.5166666666666666],horizontal,"(890.0, 762.0)",1.15,0.479,1,4252.558,2
0,431,target,"[(1072, 775)]",[],[1],[0.6666666666666666],horizontal,"(890.0, 762.0)",0.75,0.626,1,4257.949,2
0,432,target,"[(1057, 762)]",[],[1],[0.5833333333333334],vertical,"(890.0, 262.0)",1.1333333333333333,0.553,1,4262.875,2
0,433,target,"[(1072, 784)]",[],[1],[0.35],vertical,"(890.0, 762.0)",1.4333333333333333,0.313,1,4268.355,2
0,434,target,"[(1075, 804)]",[],[1],[0.1],horizontal,"(390.0, 762.0)",1.6666666666666667,0.066,0,4273.822,0
0,435,target,"[(1062, 786)]",[],[1],[0.85],vertical,"(890.0, 262.0)",0.7166666666666667,nan,0,4278.746,0
0,436,target,"[(1054, 800)]",[],[1],[0.85],horizontal,"(390.0, 262.0)",1.25,nan,0,4282.854,0
0,437,target,"[(1072, 786)]",[],[1],[0.6166666666666667],vertical,"(890.0, 262.0)",0.5833333333333334,0.574,1,4288.015,1
0,438,target,"[(1062, 814)]",[],[1],[0.5833333333333334],horizontal,"(890.0, 262.0)",0.5833333333333334,0.546,1,4292.276,1
0,439,catch,"[(1074, 787)]",[],[1],[],horizontal,"(390.0, 262.0)",1.35,nan,1,4296.721,1
0,440,target,"[(1069, 774)]",[],[1],[0.6],vertical,"(390.0, 262.0)",0.5333333333333333,0.553,1,4301.788,2
0,441,catch,"[(1063, 782)]",[],[1],[],horizontal,"(890.0, 262.0)",1.15,nan,1,4306.838,2
0,442,target,"[(1068, 774)]",[],[1],[0.55],horizontal,"(890.0, 762.0)",0.7333333333333333,0.507,1,4311.928,2
0,443,target,"[(1071, 778)]",[],[1],[0.7333333333333333],horizontal,"(890.0, 762.0)",0.9166666666666666,0.69,1,4317.088,2
0,444,target,"[(1075, 780)]",[],[1],[0.6],horizontal,"(390.0, 262.0)",0.9333333333333333,0.56,1,4322.41,2
0,445,target,"[(1069, 765)]",[],[1],[0.6],horizontal,"(390.0, 262.0)",0.85,0.559,1,4327.938,3
0,446,target,"[(1076, 775)]",[],[1],[0.7833333333333333],vertical,"(390.0, 762.0)",0.5,0.736,1,4333.176,3
0,447,target,"[(1066, 794)]",[],[1],[0.31666666666666665],horizontal,"(390.0, 262.0)",1.5333333333333332,0.284,1,4338.805,3
0,448,catch,"[(1068, 786)]",[],[1],[],vertical,"(390.0, 262.0)",1.5666666666666667,nan,1,4344.805,3
0,449,target,"[(1073, 774)]",[],[1],[0.45],vertical,"(890.0, 762.0)",1.3,0.41,1,4350.568,3
0,450,target,"[(1077, 767)]",[],[1],[0.23333333333333334],vertical,"(390.0, 262.0)",1.4833333333333334,0.201,1,4356.472,3
0,451,target,"[(1071, 796)]",[],[1],[0.6333333333333333],vertical,"(390.0, 762.0)",0.85,0.588,1,4362.422,3
0,452,catch,"[(1054, 783)]",[],[1],[],horizontal,"(890.0, 262.0)",1.3166666666666667,nan,1,4367.765,3
0,453,target,"[(1077, 782)]",[],[1],[0.65],vertical,"(890.0, 762.0)",0.55,0.608,1,4373.494,3
0,454,target,"[(1068, 771)]",[],[1],[0.4],vertical,"(390.0, 762.0)",1.4,0.36,1,4379.072,3
0,455,target,"[(1066, 775)]",[],[1],[0.85],horizontal,"(390.0, 762.0)",0.5666666666666667,nan,0,4384.589,0
0,456,target,"[(1068, 815)]",[],[1],[0.55],vertical,"(390.0, 262.0)",1.6333333333333333,0.505,1,4388.913,1
0,457,target,"[(1066, 783)]",[],[1],[0.7666666666666666],vertical,"(390.0, 262.0)",1.0166666666666666,0.719,1,4394.598,1
0,458,target,"[(1065, 788)]",[],[1],[0.5166666666666666],vertical,"(390.0, 262.0)",1.35,0.471,1,4400.187,1
0,459,target,"[(1033, 795)]",[],[1],[0.7666666666666666],vertical,"(390.0, 262.0)",0.9166666666666666,0.719,1,4405.499,2
0,460,catch,"[(1063, 782)]",[],[1],[],horizontal,"(390.0, 262.0)",1.35,nan,1,4411.028,2
0,461,target,"[(1065, 797)]",[],[1],[0.6],horizontal,"(890.0, 762.0)",0.6166666666666667,0.553,1,4415.721,2
0,462,target,"[(1078, 790)]",[],[1],[0.85],horizontal,"(890.0, 762.0)",0.6,nan,0,4420.921,0
0,463,target,"[(1055, 798)]",[],[1],[0.55],vertical,"(390.0, 262.0)",0.9166666666666666,0.511,1,4425.045,1
0,464,target,"[(1069, 787)]",[],[1],[0.25],vertical,"(890.0, 762.0)",1.4833333333333334,0.217,1,4429.742,1
0,465,target,"[(1052, 788)]",[],[1],[0.6],horizontal,"(890.0, 762.0)",0.8,0.562,1,4434.971,1
0,466,target,"[(1063, 766)]",[],[1],[0.05],horizontal,"(890.0, 262.0)",1.6333333333333333,0.022,0,4440.146,0
0,467,target,"[(1073, 790)]",[],[1],[0.55],vertical,"(390.0, 262.0)",1.0,0.509,1,4445.055,1
0,468,target,"[(1062, 785)]",[],[1],[0.35],vertical,"(390.0, 262.0)",1.5833333333333333,0.316,1,4450.038,1
0,469,catch,"[(1063, 785)]",[],[1],[],horizontal,"(890.0, 762.0)",1.3666666666666667,nan,1,4455.473,1
0,470,target,"[(1065, 788)]",[],[1],[0.13333333333333333],horizontal,"(890.0, 262.0)",1.6333333333333333,0.101,0,4460.364,0
0,471,target,"[(1061, 806)]",[],[1],[0.6],horizontal,"(390.0, 262.0)",0.9,0.556,1,4465.174,1
0,472,target,"[(1050, 760)]",[],[1],[0.43333333333333335],horizontal,"(890.0, 762.0)",1.35,0.393,1,4470.994,1
0,473,target,"[(1060, 784)]",[],[1],[0.55],vertical,"(890.0, 262.0)",0.75,0.506,1,4476.502,1
0,474,target,"[(1050, 769)]",[],[1],[0.5],horizontal,"(390.0, 262.0)",1.2833333333333332,0.459,1,4481.017,2
0,475,target,"[(1063, 774)]",[],[1],[0.6833333333333333],horizontal,"(390.0, 762.0)",0.5,0.658,1,4486.9,2
0,476,target,"[(1065, 791)]",[],[1],[0.8],vertical,"(890.0, 262.0)",0.9833333333333333,0.758,1,4491.865,2
0,477,target,"[(1065, 786)]",[],[1],[0.65],horizontal,"(390.0, 762.0)",0.8666666666666667,0.606,1,4497.23,2
0,478,target,"[(1063, 761)]",[],[1],[0.35],horizontal,"(890.0, 762.0)",1.2666666666666666,0.316,1,4502.088,2
0,479,target,"[(1058, 782)]",[],[1],[0.5833333333333334],vertical,"(390.0, 762.0)",0.85,0.536,1,4507.957,3
0,480,target,"[(1068, 785)]",[],[1],[0.85],vertical,"(890.0, 762.0)",0.95,nan,0,4513.772,0
0,481,catch,"[(1063, 800)]",[],[1],[],vertical,"(890.0, 762.0)",1.6833333333333333,nan,1,4518.601,1
0,482,target,"[(1050, 802)]",[],[1],[0.5666666666666667],horizontal,"(890.0, 762.0)",1.5666666666666667,0.524,1,4526.306,1
0,483,target,"[(1063, 793)]",[],[1],[0.55],horizontal,"(890.0, 762.0)",1.25,0.506,1,4532.29,1
0,484,target,"[(1063, 782)]",[],[1],[0.5833333333333334],horizontal,"(890.0, 262.0)",1.0,0.539,1,4537.69,2
0,485,target,"[(1068, 790)]",[],[1],[0.35],horizontal,"(390.0, 762.0)",1.4,0.312,1,4543.362,2
0,486,target,"[(1065, 776)]",[],[1],[0.85],horizontal,"(390.0, 762.0)",0.5666666666666667,nan,0,4549.105,0
0,487,target,"[(1062, 793)]",[],[1],[0.5166666666666666],vertical,"(890.0, 762.0)",1.25,0.479,1,4553.741,1
0,488,catch,"[(1069, 796)]",[],[1],[],horizontal,"(390.0, 762.0)",1.6833333333333333,nan,1,4559.112,1
0,489,target,"[(1066, 786)]",[],[1],[0.85],horizontal,"(390.0, 262.0)",0.7166666666666667,nan,0,4564.379,0
0,490,target,"[(1068, 795)]",[],[1],[0.55],horizontal,"(390.0, 262.0)",1.0333333333333332,0.51,1,4568.957,1
0,491,target,"[(1068, 784)]",[],[1],[0.85],vertical,"(390.0, 762.0)",0.9,nan,0,4573.723,0
0,492,target,"[(1069, 755)]",[],[1],[0.6333333333333333],horizontal,"(890.0, 262.0)",0.7166666666666667,0.586,1,4578.384,1
0,493,target,"[(1066, 791)]",[],[1],[0.6333333333333333],vertical,"(890.0, 762.0)",0.5,0.589,1,4583.072,1
0,494,target,"[(1072, 786)]",[],[1],[0.5833333333333334],vertical,"(390.0, 262.0)",0.55,0.55,1,4587.789,1
0,495,target,"[(1063, 793)]",[],[1],[0.5333333333333333],vertical,"(390.0, 762.0)",1.65,0.491,1,4592.179,2
0,496,target,"[(1065, 782)]",[],[1],[0.7333333333333333],horizontal,"(890.0, 262.0)",0.7,0.689,1,4598.173,2
0,497,catch,"[(1062, 780)]",[],[1],[],horizontal,"(890.0, 262.0)",1.4166666666666667,nan,1,4602.907,2
0,498,target,"[(1065, 781)]",[],[1],[0.36666666666666664],horizontal,"(390.0, 762.0)",1.5833333333333333,0.325,1,4608.44,2
0,499,target,"[(1063, 781)]",[],[1],[0.6833333333333333],horizontal,"(890.0, 762.0)",1.0,0.641,1,4613.96,2
0,500,catch,"[(1066, 785)]",[],[1],[],horizontal,"(890.0, 762.0)",1.2333333333333334,nan,1,4619.591,3
0,501,target,"[(1062, 785)]",[],[1],[0.85],vertical,"(890.0, 262.0)",0.7,nan,0,4624.965,0
0,502,target,"[(1066, 790)]",[],[1],[0.65],horizontal,"(390.0, 262.0)",0.95,0.604,1,4629.578,1
0,503,target,"[(1076, 781)]",[],[1],[0.6833333333333333],vertical,"(890.0, 762.0)",1.25,0.639,1,4634.707,1
0,504,target,"[(1049, 790)]",[],[1],[0.6666666666666666],vertical,"(390.0, 262.0)",0.5333333333333333,0.623,1,4639.923,1
0,505,target,"[(1058, 761)]",[],[1],[0.2],vertical,"(890.0, 262.0)",1.4833333333333334,0.168,1,4644.69,2
0,506,target,"[(1063, 792)]",[],[1],[0.15],horizontal,"(890.0, 762.0)",1.6166666666666667,0.121,0,4650.459,0
0,507,target,"[(1074, 785)]",[],[1],[0.6],vertical,"(390.0, 262.0)",1.4333333333333333,0.561,1,4655.406,1
0,508,target,"[(1047, 758)]",[],[1],[0.85],horizontal,"(890.0, 262.0)",0.5666666666666667,nan,0,4660.995,0
0,509,target,"[(1062, 786)]",[],[1],[0.85],horizontal,"(390.0, 762.0)",0.5,nan,0,4665.757,0
0,510,target,"[(1035, 807)]",[],[1],[0.85],horizontal,"(890.0, 262.0)",1.2833333333333332,nan,0,4670.407,0
0,511,target,"[(1032, 841)]",[],[1],[0.5666666666666667],vertical,"(390.0, 762.0)",1.25,0.526,1,5019.332,1
0,512,target,"[(1062, 801)]",[],[1],[0.6333333333333333],vertical,"(390.0, 762.0)",0.65,0.589,1,5030.993,1
0,513,target,"[(1042, 801)]",[],[1],[0.45],horizontal,"(390.0, 262.0)",1.4833333333333334,0.409,1,5035.259,1
0,514,target,"[(1053, 800)]",[],[1],[0.7833333333333333],vertical,"(390.0, 762.0)",1.4333333333333333,0.736,1,5040.691,2
0,515,target,"[(1073, 796)]",[],[1],[0.5333333333333333],horizontal,"(890.0, 762.0)",1.5333333333333332,0.493,1,5046.645,2
0,516,target,"[(1084, 786)]",[],[1],[0.5],vertical,"(390.0, 762.0)",1.5166666666666666,0.455,1,5052.659,2
0,517,target,"[(1084, 790)]",[],[1],[0.5666666666666667],horizontal,"(890.0, 262.0)",0.7,0.52,1,5058.46,2
0,518,target,"[(1084, 811)]",[],[1],[0.6],horizontal,"(390.0, 762.0)",1.2333333333333334,0.556,1,5063.598,2
0,519,target,"[(1091, 781)]",[],[1],[0.6166666666666667],horizontal,"(890.0, 762.0)",1.1333333333333333,0.573,1,5069.47,3
0,520,catch,"[(1074, 768)]",[],[1],[],horizontal,"(890.0, 762.0)",1.6166666666666667,nan,1,5075.36,3
0,521,target,"[(1082, 774)]",[],[1],[0.85],vertical,"(390.0, 262.0)",0.5833333333333334,nan,0,5081.464,0
0,522,catch,"[(1068, 796)]",[],[1],[],horizontal,"(390.0, 762.0)",1.3666666666666667,nan,1,5086.038,1
0,523,target,"[(1089, 780)]",[],[1],[0.7166666666666667],horizontal,"(890.0, 262.0)",0.8166666666666667,0.672,1,5090.525,1
0,524,target,"[(1052, 785)]",[],[1],[0.6333333333333333],horizontal,"(390.0, 262.0)",1.5666666666666667,0.585,1,5095.535,1
0,525,catch,"[(1085, 792)]",[],[1],[],vertical,"(890.0, 262.0)",1.3166666666666667,nan,1,5100.866,2
0,526,target,"[(1076, 792)]",[],[1],[0.5],horizontal,"(890.0, 262.0)",1.1166666666666667,0.463,1,5106.118,2
0,527,target,"[(1100, 781)]",[],[1],[0.3333333333333333],horizontal,"(890.0, 762.0)",1.5,0.3,1,5111.319,2
0,528,target,"[(1079, 785)]",[],[1],[0.55],horizontal,"(890.0, 262.0)",0.65,0.504,1,5116.677,2
0,529,target,"[(1076, 785)]",[],[1],[0.65],vertical,"(890.0, 762.0)",0.75,0.602,1,5121.343,2
0,530,catch,"[(1076, 765)]",[],[1],[],vertical,"(890.0, 762.0)",1.4833333333333334,nan,1,5126.364,3
0,531,target,"[(1047, 787)]",[],[1],[0.5666666666666667],vertical,"(890.0, 262.0)",1.05,0.529,1,5132.043,3
0,532,target,"[(1079, 770)]",[],[1],[0.25],horizontal,"(890.0, 762.0)",1.4,0.217,1,5137.505,3
0,533,target,"[(1068, 782)]",[],[1],[0.6333333333333333],horizontal,"(890.0, 262.0)",0.8166666666666667,0.589,1,5143.365,3
0,534,target,"[(1072, 774)]",[],[1],[0.4],vertical,"(890.0, 762.0)",1.3666666666666667,0.363,1,5149.127,3
0,535,target,"[(1084, 764)]",[],[1],"[0.85, 0.85]",vertical,"(390.0, 262.0)",0.5166666666666666,"0.809,nan",0,5154.814,0
0,536,target,"[(1082, 796)]",[],[1],[0.6166666666666667],vertical,"(390.0, 262.0)",0.5333333333333333,0.572,1,5159.31,1
0,537,target,"[(1066, 790)]",[],[1],[0.48333333333333334],horizontal,"(390.0, 762.0)",1.5666666666666667,0.442,1,5163.422,1
0,538,target,"[(1076, 781)]",[],[1],[0.5333333333333333],vertical,"(890.0, 262.0)",1.0166666666666666,0.487,1,5169.244,1
0,539,target,"[(1054, 791)]",[],[1],[0.5833333333333334],horizontal,"(390.0, 262.0)",1.0833333333333333,0.546,1,5174.105,2
0,540,target,"[(1083, 765)]",[],[1],[0.05],horizontal,"(890.0, 262.0)",1.6,0.019,0,5179.494,0
0,541,target,"[(1066, 796)]",[],[1],[0.45],vertical,"(890.0, 262.0)",1.5333333333333332,0.409,1,5184.294,1
0,542,target,"[(1023, 778)]",[],[1],[0.6],horizontal,"(890.0, 262.0)",0.85,0.558,1,5189.901,1
0,543,target,"[(1021, 795)]",[],[1],[0.5833333333333334],vertical,"(390.0, 762.0)",1.3833333333333333,0.543,1,5194.219,1
0,544,target,"[(1079, 791)]",[],[1],[0.55],horizontal,"(890.0, 262.0)",1.0333333333333332,0.505,1,5199.65,2
0,545,target,"[(1071, 751), (1066, 803)]",[],"[0, 1]",[0.23333333333333334],horizontal,"(890.0, 262.0)",1.6333333333333333,0.203,1,5204.598,2
0,546,target,"[(1066, 787)]",[],[1],[0.5833333333333334],horizontal,"(390.0, 262.0)",1.1,0.543,1,5212.094,2
0,547,target,"[(1071, 766)]",[],[1],[0.2833333333333333],vertical,"(390.0, 262.0)",1.5,0.25,1,5217.596,2
0,548,target,"[(1081, 777)]",[],[1],[0.3333333333333333],horizontal,"(890.0, 262.0)",1.5,0.294,1,5223.156,2
0,549,target,"[(1070, 761)]",[],[1],[0.5333333333333333],vertical,"(390.0, 262.0)",1.3833333333333333,0.496,1,5228.941,3
0,550,target,"[(1066, 768)]",[],[1],[0.6166666666666667],vertical,"(390.0, 762.0)",1.35,0.573,1,5234.816,3
0,551,target,"[(1071, 770)]",[],[1],[0.43333333333333335],horizontal,"(890.0, 762.0)",1.3333333333333333,0.392,1,5241.073,3
0,552,target,"[(1080, 782)]",[],[1],[0.21666666666666667],horizontal,"(390.0, 762.0)",1.6,0.181,1,5246.754,3
0,553,target,"[(1040, 775)]",[],[1],[],horizontal,"(390.0, 762.0)",,"('cti', 1.605)",0,5252.611,0
0,554,target,"[(1058, 779)]",[],[1],[0.2833333333333333],horizontal,"(390.0, 762.0)",1.45,0.248,1,5257.36,1
0,555,target,"[(1065, 769)]",[],[1],[0.55],vertical,"(890.0, 762.0)",0.6833333333333333,0.51,1,5262.102,1
0,556,target,"[(1050, 781)]",[],[1],[0.6666666666666666],vertical,"(890.0, 262.0)",0.5833333333333334,0.616,1,5266.503,1
0,557,target,"[(1067, 767)]",[],[1],[0.6333333333333333],vertical,"(390.0, 262.0)",0.6333333333333333,0.586,1,5270.916,2
0,558,target,"[(1060, 790)]",[],[1],[0.6833333333333333],horizontal,"(890.0, 262.0)",0.8333333333333334,0.648,1,5275.507,2
0,559,target,"[(1067, 773)]",[],[1],[0.7333333333333333],vertical,"(890.0, 262.0)",0.9666666666666667,0.691,1,5280.622,2
0,560,target,"[(1057, 766)]",[],[1],[0.55],horizontal,"(390.0, 262.0)",0.5833333333333334,0.511,1,5285.772,2
0,561,target,"[(1084, 776)]",[],[1],[0.5833333333333334],vertical,"(890.0, 762.0)",0.9166666666666666,0.541,1,5290.835,2
0,562,target,"[(1066, 770)]",[],[1],[0.5666666666666667],horizontal,"(890.0, 262.0)",0.7666666666666666,0.519,1,5295.844,3
0,563,target,"[(1062, 769)]",[],[1],[0.5666666666666667],vertical,"(390.0, 262.0)",1.3,0.528,1,5301.538,3
0,564,target,"[(1077, 781)]",[],[1],[0.48333333333333334],horizontal,"(890.0, 762.0)",1.0166666666666666,0.444,1,5307.67,3
0,565,target,"[(1052, 767)]",[],[1],[0.65],vertical,"(390.0, 762.0)",0.7666666666666666,0.606,1,5313.612,3
0,566,target,"[(1063, 767)]",[],[1],[0.7833333333333333],horizontal,"(390.0, 762.0)",0.8833333333333333,0.736,1,5319.145,3
0,567,target,"[(1042, 781)]",[],[1],[0.85],horizontal,"(890.0, 262.0)",0.55,nan,0,5324.872,0
0,568,target,"[(1060, 798)]",[],[1],[0.5666666666666667],vertical,"(390.0, 262.0)",1.4333333333333333,0.523,1,5329.086,1
0,569,target,"[(1065, 751), (1047, 811)]",[],"[0, 1]",[0.6333333333333333],vertical,"(390.0, 262.0)",0.55,0.585,1,5334.148,1
0,570,target,"[(1047, 782)]",[],[1],[0.1],horizontal,"(890.0, 262.0)",1.6833333333333333,0.069,0,5340.248,0
0,571,target,"[(1059, 810)]",[],[1],[0.6],vertical,"(390.0, 762.0)",0.8833333333333333,0.553,1,5345.244,1
0,572,target,"[(1023, 760)]",[],[1],[0.4666666666666667],vertical,"(390.0, 262.0)",1.4,0.424,1,5350.12,1
0,573,target,"[(1049, 786)]",[],[1],[0.8166666666666667],vertical,"(390.0, 762.0)",0.8833333333333333,0.77,1,5355.233,1
0,574,target,"[(1043, 768)]",[],[1],[0.6166666666666667],vertical,"(890.0, 762.0)",1.05,0.574,1,5360.146,2
0,575,target,"[(1064, 776)]",[],[1],[0.7333333333333333],horizontal,"(890.0, 262.0)",0.5666666666666667,0.691,1,5365.421,2
0,576,target,"[(1064, 787)]",[],[1],[0.85],horizontal,"(890.0, 762.0)",0.5333333333333333,nan,0,5370.231,0
0,577,target,"[(1064, 787)]",[],[1],[0.85],horizontal,"(390.0, 762.0)",1.1166666666666667,nan,0,5374.37,0
0,578,target,"[(1042, 786)]",[],[1],[0.7333333333333333],vertical,"(390.0, 262.0)",1.05,0.688,1,5379.462,1
0,579,target,"[(1062, 784)]",[],[1],[0.7166666666666667],horizontal,"(390.0, 762.0)",0.8666666666666667,0.668,1,5384.767,1
0,580,catch,"[(1062, 781)]",[],[1],[],horizontal,"(890.0, 262.0)",1.15,nan,1,5389.645,1
0,581,target,"[(1062, 775)]",[],[1],[0.85],horizontal,"(390.0, 262.0)",0.5833333333333334,nan,0,5393.91,0
0,582,target,"[(1028, 775)]",[],[1],[0.6166666666666667],vertical,"(390.0, 762.0)",1.5166666666666666,0.577,1,5398.228,1
0,583,target,"[(1062, 771)]",[],[1],[0.6333333333333333],horizontal,"(890.0, 762.0)",0.7,0.591,1,5403.862,1
0,584,target,"[(1067, 785)]",[],[1],[0.4666666666666667],vertical,"(890.0, 762.0)",1.2666666666666666,0.42,1,5408.454,1
0,585,catch,"[(1076, 766)]",[],[1],[],horizontal,"(390.0, 762.0)",1.3,nan,1,5413.578,2
0,586,target,"[(1059, 786)]",[],[1],[0.65],vertical,"(390.0, 762.0)",0.6833333333333333,0.611,1,5418.629,2
0,587,target,"[(1047, 772)]",[],[1],[0.23333333333333334],horizontal,"(390.0, 262.0)",1.45,0.196,1,5423.779,2
0,588,target,"[(1066, 789)]",[],[1],[0.7],horizontal,"(390.0, 262.0)",0.8666666666666667,0.652,1,5429.4,2
0,589,target,"[(1062, 782)]",[],[1],[0.4],horizontal,"(390.0, 262.0)",1.5833333333333333,0.357,1,5434.594,2
0,590,target,"[(1069, 772)]",[],[1],[0.5833333333333334],horizontal,"(890.0, 262.0)",1.0833333333333333,0.541,1,5440.099,3
0,591,target,"[(1081, 766)]",[],[1],[0.55],vertical,"(390.0, 762.0)",0.9833333333333333,0.507,1,5445.645,3
0,592,target,"[(1042, 781)]",[],[1],[0.18333333333333332],vertical,"(890.0, 262.0)",1.6333333333333333,0.152,1,5451.427,3
0,593,target,"[(1089, 787)]",[],[1],[0.5166666666666666],vertical,"(390.0, 762.0)",1.6166666666666667,0.472,1,5457.322,3
0,594,target,"[(1064, 781)]",[],[1],[0.6666666666666666],vertical,"(390.0, 762.0)",0.7666666666666666,0.623,1,5463.641,3
0,595,target,"[(1046, 770)]",[],[1],[0.6666666666666666],vertical,"(390.0, 762.0)",1.2833333333333332,0.626,1,5469.495,3
0,596,target,"[(1091, 785)]",[],[1],[0.48333333333333334],horizontal,"(390.0, 762.0)",1.6,0.443,1,5475.254,3
0,597,target,"[(1047, 779)]",[],[1],[0.05],vertical,"(890.0, 762.0)",1.5833333333333333,0.02,0,5481.292,0
0,598,target,"[(1066, 796)]",[],[1],[0.5666666666666667],horizontal,"(390.0, 762.0)",1.2833333333333332,0.524,1,5485.646,1
0,599,target,"[(1063, 781)]",[],[1],[0.3333333333333333],vertical,"(390.0, 262.0)",1.5166666666666666,0.294,1,5490.885,1
0,600,target,"[(1087, 787)]",[],[1],[0.7166666666666667],horizontal,"(890.0, 762.0)",1.1333333333333333,0.667,1,5496.233,1
0,601,target,"[(1066, 795)]",[],[1],[0.35],horizontal,"(890.0, 762.0)",1.6,0.315,1,5501.535,2
0,602,target,"[(1076, 784)]",[],[1],[0.3833333333333333],horizontal,"(890.0, 762.0)",1.3,0.351,1,5506.845,2
0,603,target,"[(1065, 788)]",[],[1],[0.5166666666666666],horizontal,"(390.0, 762.0)",1.15,0.477,1,5512.402,2
0,604,target,"[(1077, 791)]",[],[1],[0.7],horizontal,"(890.0, 762.0)",0.5666666666666667,0.656,1,5517.781,2
0,605,target,"[(1039, 799)]",[],[1],[0.6166666666666667],vertical,"(390.0, 762.0)",1.2833333333333332,0.572,1,5522.779,2
0,606,target,"[(1079, 781)]",[],[1],[0.05],vertical,"(890.0, 762.0)",1.6833333333333333,0.02,0,5528.313,0
0,607,target,"[(1063, 790)]",[],[1],[0.7333333333333333],horizontal,"(890.0, 762.0)",0.9833333333333333,0.69,1,5533.213,1
0,608,target,"[(1076, 791)]",[],[1],[0.5833333333333334],horizontal,"(890.0, 762.0)",0.9333333333333333,0.542,1,5538.389,1
0,609,target,"[(1062, 781)]",[],[1],[0.48333333333333334],horizontal,"(890.0, 762.0)",1.2333333333333334,0.446,1,5542.914,1
0,610,target,"[(1076, 789)]",[],[1],[0.3333333333333333],horizontal,"(890.0, 762.0)",1.4666666666666666,0.296,1,5548.213,2
0,611,target,"[(1065, 786)]",[],[1],[0.5833333333333334],vertical,"(890.0, 762.0)",1.2166666666666666,0.541,1,5553.558,2
0,612,target,"[(1071, 786)]",[],[1],[0.3833333333333333],vertical,"(390.0, 762.0)",1.5,0.35,1,5559.363,2
0,613,target,"[(1074, 783)]",[],[1],[0.48333333333333334],vertical,"(890.0, 262.0)",0.6833333333333333,0.437,1,5565.413,2
0,614,catch,"[(1072, 787)]",[],[1],[],horizontal,"(890.0, 262.0)",1.3833333333333333,nan,1,5570.416,2
0,615,target,"[(1044, 782)]",[],[1],[0.48333333333333334],vertical,"(890.0, 762.0)",1.2333333333333334,0.442,1,5575.198,3
0,616,target,"[(1076, 782)]",[],[1],[0.6166666666666667],vertical,"(390.0, 762.0)",0.75,0.574,1,5580.795,3
0,617,catch,"[(1062, 789)]",[],[1],[],horizontal,"(390.0, 262.0)",1.3333333333333333,nan,1,5586.404,3
0,618,target,"[(1043, 765)]",[],[1],[0.6166666666666667],horizontal,"(890.0, 262.0)",0.5,0.573,1,5591.98,3
0,619,target,"[(1082, 782)]",[],[1],[0.5166666666666666],vertical,"(890.0, 762.0)",1.6,0.472,1,5597.188,3
0,620,target,"[(1044, 792)]",[],[1],[0.5666666666666667],vertical,"(890.0, 262.0)",0.7,0.532,1,5603.231,3
0,621,target,"[(1067, 779)]",[],[1],[0.2833333333333333],vertical,"(390.0, 262.0)",1.6666666666666667,0.246,1,5608.61,3
0,622,target,"[(1064, 768)]",[],[1],[0.75],vertical,"(890.0, 762.0)",0.5,0.713,1,5614.434,3
0,623,target,"[(1064, 790)]",[],[1],[0.7833333333333333],horizontal,"(390.0, 262.0)",1.0166666666666666,0.734,1,5619.793,3
0,624,target,"[(1070, 770)]",[],[1],[0.6833333333333333],horizontal,"(390.0, 262.0)",0.7333333333333333,0.638,1,5625.542,3
0,625,target,"[(1062, 791)]",[],[1],[0.6166666666666667],vertical,"(390.0, 262.0)",0.7,0.573,1,5630.971,3
0,626,target,"[(1052, 784)]",[],[1],[0.3333333333333333],vertical,"(890.0, 762.0)",1.3833333333333333,0.297,1,5636.486,3
0,627,target,"[(1083, 791)]",[],[1],[0.6833333333333333],vertical,"(390.0, 762.0)",1.1,0.638,1,5642.075,3
0,628,target,"[(1070, 771)]",[],[1],[0.7833333333333333],vertical,"(390.0, 762.0)",0.55,0.738,1,5648.39,3
0,629,target,"[(1065, 776)]",[],[1],[0.5333333333333333],horizontal,"(890.0, 262.0)",0.85,0.488,1,5654.109,3
0,630,catch,"[(1062, 768)]",[],[1],[],horizontal,"(390.0, 262.0)",1.3333333333333333,nan,1,5659.646,3
0,631,target,"[(1050, 801)]",[],[1],[0.75],vertical,"(390.0, 762.0)",1.1,0.7,1,5665.352,3
0,632,target,"[(1058, 771)]",[],[1],[0.5833333333333334],vertical,"(890.0, 762.0)",1.0,0.545,1,5671.063,3
0,633,target,"[(1060, 767)]",[],[1],[0.7166666666666667],vertical,"(390.0, 762.0)",1.1833333333333333,0.673,1,5676.773,3
0,634,target,"[(1038, 783)]",[],[1],[0.75],vertical,"(390.0, 762.0)",1.4666666666666666,0.708,1,5682.486,3
0,635,target,"[(1075, 781)]",[],[1],[0.5],horizontal,"(890.0, 262.0)",1.6833333333333333,0.455,1,5688.779,3
0,636,target,"[(1074, 791)]",[],[1],[0.6166666666666667],horizontal,"(390.0, 262.0)",0.6333333333333333,0.575,1,5694.564,3
0,637,target,"[(1043, 801)]",[],[1],[0.55],horizontal,"(390.0, 262.0)",1.1666666666666667,0.504,1,5699.854,3
0,638,target,"[(1050, 767)]",[],[1],[0.23333333333333334],horizontal,"(890.0, 762.0)",1.6,0.196,1,5705.733,3
0,639,catch,"[(1071, 753), (1048, 792)]",[],"[0, 1]",[],horizontal,"(390.0, 262.0)",1.5,nan,1,5711.414,3
0,640,catch,"[(1062, 778)]",[],[1],[],horizontal,"(890.0, 762.0)",1.4,nan,1,5718.58,3
0,641,target,"[(1062, 776)]",[],[1],[0.85],horizontal,"(390.0, 762.0)",0.75,nan,0,5724.292,0
0,642,target,"[(1066, 795)]",[],[1],"[0.85, 0.85]",vertical,"(390.0, 762.0)",1.0833333333333333,"0.802,nan",0,5728.684,0
0,643,target,"[(1065, 791)]",[],[1],[0.6],horizontal,"(890.0, 262.0)",0.8833333333333333,0.565,1,5733.941,1
0,644,target,"[(1061, 782)]",[],[1],[0.6833333333333333],vertical,"(390.0, 762.0)",1.1833333333333333,0.635,1,5738.98,1
0,645,target,"[(1049, 796)]",[],[1],[0.85],vertical,"(390.0, 762.0)",0.8,nan,0,5744.664,0
0,646,target,"[(1038, 765)]",[],[1],[0.6166666666666667],horizontal,"(390.0, 762.0)",0.7333333333333333,0.576,1,5749.269,1
0,647,target,"[(1066, 798)]",[],[1],[0.36666666666666664],vertical,"(390.0, 262.0)",1.55,0.328,1,5757.632,1
0,648,target,"[(1075, 795)]",[],[1],[0.85],vertical,"(890.0, 762.0)",0.8166666666666667,nan,0,5762.644,0
0,649,target,"[(1076, 787)]",[],[1],[0.55],vertical,"(890.0, 262.0)",1.2833333333333332,0.507,1,5767.272,1
0,650,target,"[(1067, 791)]",[],[1],[0.45],horizontal,"(890.0, 262.0)",1.6,0.408,1,5772.456,1
0,651,target,"[(1066, 794)]",[],[1],[0.6166666666666667],horizontal,"(390.0, 262.0)",0.6166666666666667,0.569,1,5778.049,1
0,652,catch,"[(1041, 781)]",[],[1],[],horizontal,"(890.0, 762.0)",1.3166666666666667,nan,1,5782.753,2
0,653,target,"[(1047, 791)]",[],[1],[0.7166666666666667],vertical,"(890.0, 762.0)",0.9666666666666667,0.672,1,5787.815,2
0,654,target,"[(1049, 781)]",[],[1],[0.7833333333333333],vertical,"(890.0, 262.0)",1.1,0.736,1,5793.699,2
0,655,target,"[(1065, 754)]",[],[1],[0.5333333333333333],horizontal,"(890.0, 762.0)",1.4666666666666666,0.498,1,5799.264,2
0,656,target,"[(1065, 791)]",[],[1],[0.6666666666666666],horizontal,"(390.0, 762.0)",0.7666666666666666,0.619,1,5804.856,2
0,657,target,"[(1067, 776)]",[],[1],[0.5833333333333334],horizontal,"(890.0, 262.0)",0.8333333333333334,0.538,1,5810.191,3
0,658,catch,"[(1062, 768)]",[],[1],[],vertical,"(390.0, 262.0)",,"('cti', 1.253),nan",0,5815.607,0
0,659,target,"[(1063, 780)]",[],[1],[0.7],horizontal,"(890.0, 762.0)",0.9,0.657,1,5820.397,1
0,660,target,"[(1074, 795)]",[],[1],[0.8333333333333334],horizontal,"(890.0, 762.0)",0.5666666666666667,0.782,1,5825.331,1
0,661,target,"[(1048, 791)]",[],[1],[0.85],vertical,"(890.0, 262.0)",0.6666666666666666,nan,0,5830.006,0
0,662,target,"[(1044, 802)]",[],[1],[0.65],horizontal,"(390.0, 762.0)",0.5333333333333333,0.606,1,5834.864,1
0,663,catch,"[(1061, 776)]",[],[1],[],horizontal,"(890.0, 762.0)",1.1833333333333333,nan,1,5839.765,1
0,664,target,"[(1072, 790)]",[],[1],[0.36666666666666664],horizontal,"(890.0, 262.0)",1.3666666666666667,0.332,1,5844.709,1
0,665,target,"[(1047, 786)]",[],[1],[0.8333333333333334],vertical,"(890.0, 262.0)",0.85,0.792,1,5849.827,2
0,666,target,"[(1064, 788)]",[],[1],[0.5333333333333333],vertical,"(390.0, 262.0)",1.2333333333333334,0.49,1,5855.552,2
0,667,target,"[(1048, 769)]",[],[1],[0.65],vertical,"(390.0, 262.0)",0.75,0.607,1,5860.965,2
0,668,target,"[(1076, 791)]",[],[1],[0.5833333333333334],vertical,"(890.0, 262.0)",0.5,0.54,1,5866.148,2
0,669,catch,"[(1038, 795)]",[],[1],[],vertical,"(390.0, 762.0)",1.1666666666666667,nan,1,5870.867,2
0,670,catch,"[(1029, 820)]",[],[1],[],vertical,"(890.0, 762.0)",1.6833333333333333,nan,1,5875.815,3
0,671,target,"[(1056, 808)]",[],[1],[0.26666666666666666],horizontal,"(890.0, 262.0)",1.65,0.228,1,5907.698,3
0,672,target,"[(1071, 786)]",[],[1],[0.85],vertical,"(390.0, 262.0)",0.55,nan,0,5914.015,0
0,673,target,"[(1064, 786)]",[],[1],[0.55],vertical,"(890.0, 762.0)",0.9333333333333333,0.507,1,5918.398,1
0,674,target,"[(1080, 790)]",[],[1],[0.6333333333333333],vertical,"(390.0, 262.0)",1.0166666666666666,0.581,1,5923.119,1
0,675,target,"[(1082, 800)]",[],[1],[0.5666666666666667],vertical,"(890.0, 262.0)",1.2333333333333334,0.523,1,5928.465,1
0,676,target,"[(1062, 791)]",[],[1],[0.85],horizontal,"(890.0, 262.0)",0.5833333333333334,nan,0,5933.336,0
0,677,target,"[(1071, 791)]",[],[1],[0.85],vertical,"(390.0, 762.0)",1.5166666666666666,nan,0,5937.718,0
0,678,target,"[(849, 522), (145, 323), (452, 262), (149, 825), (291, 256), (584, 677), (293, 253), (647, 390), (477, 816), (1033, 286), (217, 816), (632, 697), (642, 212), (395, 187), (362, 138), (311, 187), (305, 192), (305, 192), (304, 193), (1005, 845)]",[],"[0, 0, 0, 0, 0, 0, 0, 0, 0, 0, 0, 0, 0, 0, 0, 0, 0, 0, 0, 1]",[0.55],vertical,"(890.0, 262.0)",1.25,0.507,1,5942.803,1
0,679,target,"[(1063, 797)]",[],[1],[0.85],horizontal,"(390.0, 262.0)",0.6,nan,0,7003.8,0
0,680,target,"[(1052, 822)]",[],[1],[0.7666666666666666],vertical,"(890.0, 762.0)",1.1333333333333333,0.715,1,7008.634,1
0,681,target,"[(1044, 774)]",[],[1],[0.85],vertical,"(390.0, 762.0)",1.6166666666666667,nan,0,7014.089,0
0,682,target,"[(1048, 788)]",[],[1],[0.7],horizontal,"(390.0, 262.0)",1.3,0.658,1,7020.139,1
0,683,target,"[(1047, 802)]",[],[1],[0.85],horizontal,"(390.0, 262.0)",0.6,nan,0,7027.406,0
0,684,target,"[(1045, 787)]",[],[1],[0.85],horizontal,"(890.0, 762.0)",0.6833333333333333,nan,0,7032.138,0
0,685,target,"[(1041, 849)]",[],[1],[0.85],vertical,"(890.0, 262.0)",1.5833333333333333,nan,0,7036.757,0
0,686,catch,"[(1052, 854)]",[],[1],[],vertical,"(390.0, 262.0)",1.2666666666666666,nan,1,7044.988,1
0,687,target,"[(1052, 806)]",[],[1],[0.75],vertical,"(890.0, 262.0)",0.7,0.705,1,7072.227,1
0,688,target,"[(1058, 803)]",[],[1],[0.5833333333333334],horizontal,"(890.0, 762.0)",1.1,0.541,1,7077.106,1
0,689,target,"[(1066, 796)]",[],[1],[0.5666666666666667],vertical,"(390.0, 762.0)",0.95,0.522,1,7082.173,2
0,690,target,"[(1061, 778)]",[],[1],[0.7],vertical,"(890.0, 762.0)",0.6333333333333333,0.657,1,7087.516,2
0,691,catch,"[(1049, 798)]",[],[1],[],vertical,"(890.0, 762.0)",1.2,nan,1,7092.702,2
0,692,target,"[(1064, 797)]",[],[1],[0.5166666666666666],horizontal,"(890.0, 762.0)",1.2166666666666666,0.485,1,7098.256,2
0,693,target,"[(1072, 784)]",[],[1],[],horizontal,"(390.0, 762.0)",,"('cti', 1.482)",0,7103.972,0
0,694,target,"[(1046, 776)]",[],[1],[0.6],vertical,"(890.0, 762.0)",0.6333333333333333,0.553,1,7108.722,1
0,695,target,"[(1057, 787)]",[],[1],[0.26666666666666666],vertical,"(390.0, 762.0)",1.1666666666666667,0.235,1,7117.506,1
0,696,target,"[(1047, 781)]",[],[1],[0.5333333333333333],horizontal,"(390.0, 262.0)",1.1,0.493,1,7122.502,1
0,697,catch,"[(1056, 776)]",[],[1],[],horizontal,"(390.0, 762.0)",1.3333333333333333,nan,1,7127.514,2
0,698,target,"[(1057, 805)]",[],[1],[0.6166666666666667],horizontal,"(890.0, 762.0)",0.6,0.572,1,7132.173,2
0,699,target,"[(1091, 787)]",[],[1],[0.6333333333333333],vertical,"(390.0, 262.0)",0.5833333333333334,0.592,1,7137.339,2
0,700,target,"[(1091, 785)]",[],[1],[0.43333333333333335],vertical,"(390.0, 262.0)",1.1333333333333333,0.391,1,7142.239,2
0,701,target,"[(1077, 791)]",[],[1],[0.4166666666666667],vertical,"(890.0, 762.0)",1.6,0.379,1,7147.719,2
0,702,target,"[(1068, 785)]",[],[1],[0.1],vertical,"(390.0, 262.0)",1.5666666666666667,0.068,0,7153.205,0
0,703,catch,"[(1065, 795)]",[],[1],[],vertical,"(390.0, 762.0)",1.2833333333333332,nan,1,7157.572,1
0,704,target,"[(1077, 794)]",[],[1],[0.3333333333333333],horizontal,"(890.0, 262.0)",1.5,0.295,1,7161.939,1
0,705,target,"[(1062, 786)]",[],[1],[0.6],horizontal,"(890.0, 762.0)",0.5,0.561,1,7166.798,1
0,706,target,"[(1077, 761)]",[],[1],[0.11666666666666667],horizontal,"(390.0, 762.0)",1.6833333333333333,0.084,0,7171.227,0
0,707,catch,"[(1064, 782)]",[],[1],[0.03333333333333333],vertical,"(890.0, 762.0)",1.5333333333333332,"0.02,nan",0,7175.712,0
0,708,target,"[(1098, 790)]",[],[1],[0.48333333333333334],horizontal,"(890.0, 762.0)",1.3666666666666667,0.441,1,7180.541,1
0,709,target,"[(1067, 799)]",[],[1],[0.45],vertical,"(890.0, 262.0)",1.1833333333333333,0.41,1,7185.461,1
0,710,catch,"[(1076, 787)]",[],[1],[],vertical,"(390.0, 262.0)",1.2666666666666666,nan,1,7190.422,1
0,711,target,"[(1075, 823)]",[],[1],[0.5666666666666667],horizontal,"(890.0, 262.0)",1.1833333333333333,0.521,1,7194.786,2
0,712,target,"[(1077, 797)]",[],[1],[0.5833333333333334],vertical,"(390.0, 262.0)",1.3666666666666667,0.534,1,7199.902,2
0,713,target,"[(1076, 790)]",[],[1],[0.6333333333333333],horizontal,"(890.0, 762.0)",0.6833333333333333,0.585,1,7205.163,2
0,714,target,"[(1100, 795)]",[],[1],[0.5666666666666667],horizontal,"(390.0, 262.0)",1.1333333333333333,0.524,1,7210.473,2
0,715,catch,"[(1100, 791)]",[],[1],[],horizontal,"(390.0, 262.0)",,"('cti', 1.604),nan",0,7215.723,0
0,716,target,"[(1102, 780)]",[],[1],[0.5166666666666666],horizontal,"(890.0, 262.0)",1.5666666666666667,0.473,1,7220.446,1
0,717,target,"[(1066, 790)]",[],[1],[0.6],vertical,"(890.0, 762.0)",0.6666666666666666,0.557,1,7225.689,1
0,718,target,"[(1077, 790)]",[],[1],[0.6],horizontal,"(890.0, 262.0)",0.5166666666666666,0.554,1,7230.624,1
0,719,target,"[(1076, 787)]",[],[1],[0.85],horizontal,"(890.0, 762.0)",1.6166666666666667,nan,0,7235.557,0
0,720,catch,"[(1057, 795)]",[],[1],[],horizontal,"(390.0, 762.0)",1.1833333333333333,nan,1,7240.724,1
0,721,target,"[(1075, 811)]",[],[1],[0.5833333333333334],horizontal,"(890.0, 262.0)",0.5666666666666667,0.54,1,7245.357,1
0,722,target,"[(1048, 786)]",[],[1],[0.7],horizontal,"(890.0, 762.0)",0.6,0.655,1,7249.756,1
0,723,target,"[(1077, 802)]",[],[1],[0.5],vertical,"(390.0, 262.0)",0.5833333333333334,0.457,1,7254.375,2
0,724,target,"[(1093, 781)]",[],[1],[0.6166666666666667],horizontal,"(390.0, 762.0)",1.2,0.574,1,7259.323,2
0,725,target,"[(1082, 788)]",[],[1],[0.35],vertical,"(890.0, 262.0)",1.3166666666666667,0.306,1,7264.548,2
0,726,target,"[(1077, 787)]",[],[1],[0.5833333333333334],vertical,"(390.0, 762.0)",0.8,0.544,1,7269.896,2
0,727,target,"[(1047, 806)]",[],[1],[0.5833333333333334],horizontal,"(390.0, 762.0)",0.8333333333333334,0.542,1,7275.127,2
0,728,target,"[(1047, 795)]",[],[1],[0.08333333333333333],horizontal,"(390.0, 762.0)",1.5333333333333332,0.052,0,7281.762,0
0,729,target,"[(1089, 788)]",[],[1],[0.6166666666666667],vertical,"(390.0, 762.0)",1.0333333333333332,0.569,1,7286.575,1
0,730,target,"[(1059, 793)]",[],[1],[0.6333333333333333],horizontal,"(390.0, 262.0)",0.5,0.587,1,7291.409,1
0,731,target,"[(1053, 810)]",[],[1],[],horizontal,"(890.0, 262.0)",,"('cti', 1.361)",0,7295.979,0
0,732,target,"[(1074, 791)]",[],[1],[0.55],vertical,"(890.0, 262.0)",1.3,0.507,1,7300.718,1
0,733,target,"[(1052, 793)]",[],[1],[0.85],horizontal,"(390.0, 762.0)",0.55,nan,0,7305.707,0
0,734,target,"[(1052, 815)]",[],[1],[0.5166666666666666],vertical,"(890.0, 762.0)",0.9666666666666667,0.475,1,7310.356,1
0,735,target,"[(1067, 790)]",[],[1],[0.31666666666666665],horizontal,"(890.0, 262.0)",1.3166666666666667,0.28,1,7315.064,1
0,736,target,"[(1064, 792)]",[],[1],[0.6],vertical,"(890.0, 762.0)",0.5,0.557,1,7320.099,1
0,737,target,"[(1071, 786)]",[],[1],[0.11666666666666667],horizontal,"(890.0, 762.0)",1.65,0.085,0,7324.834,0
0,738,target,"[(1032, 808)]",[],[1],[0.5333333333333333],horizontal,"(390.0, 762.0)",1.3833333333333333,0.495,1,7329.557,1
0,739,target,"[(1082, 789)]",[],[1],[0.7333333333333333],horizontal,"(890.0, 262.0)",0.5333333333333333,0.683,1,7334.892,1
0,740,catch,"[(1057, 807)]",[],[1],[],horizontal,"(390.0, 262.0)",1.2333333333333334,nan,1,7339.496,1
0,741,target,"[(1079, 791)]",[],[1],[0.6666666666666666],vertical,"(390.0, 262.0)",0.8833333333333333,0.624,1,7344.707,2
0,742,target,"[(1076, 798)]",[],[1],[0.18333333333333332],vertical,"(890.0, 762.0)",1.4333333333333333,0.151,1,7349.908,2
0,743,target,"[(1080, 799)]",[],[1],[0.05],horizontal,"(390.0, 762.0)",1.5333333333333332,0.019,0,7354.974,0
0,744,target,"[(1083, 787)]",[],[1],[0.4],vertical,"(390.0, 262.0)",1.5,0.362,1,7359.782,1
0,745,target,"[(1102, 790)]",[],[1],[0.4166666666666667],horizontal,"(890.0, 262.0)",1.15,0.377,1,7365.092,1
0,746,target,"[(1082, 785)]",[],[1],[0.7333333333333333],vertical,"(390.0, 262.0)",0.8833333333333333,0.685,1,7369.992,1
0,747,target,"[(1100, 790)]",[],[1],[0.6166666666666667],vertical,"(390.0, 262.0)",0.8666666666666667,0.572,1,7375.24,2
0,748,target,"[(1081, 776)]",[],[1],[0.5333333333333333],vertical,"(390.0, 262.0)",0.7333333333333333,0.496,1,7380.215,2
0,749,catch,"[(1071, 812)]",[],[1],[],horizontal,"(390.0, 262.0)",1.6333333333333333,nan,1,7385.093,2
0,750,target,"[(1072, 782)]",[],[1],[0.7],vertical,"(390.0, 262.0)",1.2,0.652,1,7390.385,2
0,751,target,"[(1091, 782)]",[],[1],[0.6666666666666666],horizontal,"(390.0, 262.0)",0.8,0.629,1,7395.885,2
0,752,target,"[(1092, 783)]",[],[1],[0.3],vertical,"(890.0, 262.0)",1.5166666666666666,0.262,1,7401.115,3
0,753,catch,"[(1075, 785)]",[],[1],[],vertical,"(890.0, 262.0)",1.35,nan,1,7407.192,3
0,754,target,"[(1077, 783)]",[],[1],[0.55],vertical,"(890.0, 762.0)",0.5333333333333333,0.51,1,7412.524,3
0,755,target,"[(1100, 813)]",[],[1],[0.5166666666666666],vertical,"(390.0, 262.0)",0.7666666666666666,0.47,1,7417.608,3
0,756,target,"[(1068, 788)]",[],[1],[0.6],horizontal,"(390.0, 262.0)",1.0,0.555,1,7422.758,3
0,757,catch,"[(1056, 778)]",[],[1],[],horizontal,"(390.0, 262.0)",1.6666666666666667,nan,1,7428.724,3
0,758,target,"[(1055, 785)]",[],[1],[0.4666666666666667],vertical,"(890.0, 762.0)",1.3,0.425,1,7434.291,3
0,759,target,"[(1066, 794)]",[],[1],[0.35],vertical,"(390.0, 262.0)",1.3166666666666667,0.313,1,7439.859,3
0,760,target,"[(1067, 761)]",[],[1],[0.6],horizontal,"(890.0, 262.0)",0.8,0.556,1,7445.637,3
0,761,target,"[(1067, 781)]",[],[1],[0.5333333333333333],horizontal,"(890.0, 762.0)",1.2166666666666666,0.496,1,7451.114,3
0,762,target,"[(1086, 784)]",[],[1],[0.6666666666666666],vertical,"(890.0, 762.0)",0.5166666666666666,0.619,1,7456.675,3
0,763,catch,"[(1071, 792)]",[],[1],[],vertical,"(890.0, 762.0)",1.2,nan,1,7461.785,3
0,764,target,"[(1057, 799)]",[],[1],[0.5666666666666667],horizontal,"(890.0, 762.0)",1.1333333333333333,0.52,1,7467.343,3
0,765,target,"[(1076, 785)]",[],[1],[0.48333333333333334],horizontal,"(390.0, 262.0)",1.3833333333333333,0.444,1,7473.125,3
0,766,target,"[(1062, 791)]",[],[1],[0.5],vertical,"(390.0, 262.0)",0.95,0.461,1,7478.954,3
0,767,target,"[(1067, 776)]",[],[1],[0.4],vertical,"(390.0, 262.0)",1.25,0.354,1,7484.474,3
0,768,target,"[(1064, 782)]",[],[1],[0.85],vertical,"(890.0, 762.0)",0.5333333333333333,nan,0,7490.196,0
0,769,target,"[(1065, 777)]",[],[1],[0.6833333333333333],horizontal,"(890.0, 762.0)",1.05,0.632,1,7494.632,1
0,770,target,"[(1041, 771)]",[],[1],[0.65],vertical,"(390.0, 262.0)",0.8666666666666667,0.602,1,7499.392,1
0,771,target,"[(1043, 786)]",[],[1],[0.5166666666666666],vertical,"(390.0, 762.0)",1.4333333333333333,0.473,1,7504.335,1
0,772,target,"[(1062, 786)]",[],[1],[0.6],horizontal,"(390.0, 262.0)",1.0333333333333332,0.555,1,7509.458,2
0,773,target,"[(1044, 775)]",[],[1],[0.26666666666666666],horizontal,"(390.0, 262.0)",1.4833333333333334,0.23,1,7514.724,2
0,774,target,"[(1076, 794)]",[],[1],[0.6666666666666666],vertical,"(390.0, 262.0)",0.8666666666666667,0.623,1,7520.059,2
0,775,target,"[(1067, 792)]",[],[1],[0.5833333333333334],horizontal,"(390.0, 262.0)",0.7333333333333333,0.538,1,7525.477,2
0,776,target,"[(1067, 797)]",[],[1],[0.6],horizontal,"(390.0, 262.0)",0.7833333333333333,0.557,1,7530.443,2
0,777,target,"[(1072, 787)]",[],[1],[0.48333333333333334],vertical,"(390.0, 262.0)",1.1833333333333333,0.446,1,7535.46,3
0,778,target,"[(1107, 784)]",[],[1],[0.85],vertical,"(390.0, 762.0)",0.7333333333333333,nan,0,7541.259,0
0,779,target,"[(1070, 785)]",[],[1],[],vertical,"(390.0, 262.0)",,"('cti', 1.403)",0,7545.605,0
0,780,catch,"[(1095, 797)]",[],[1],[],vertical,"(390.0, 762.0)",1.6833333333333333,nan,1,7549.81,1
0,781,target,"[(1067, 787)]",[],[1],[0.5166666666666666],vertical,"(890.0, 262.0)",0.6166666666666667,0.475,1,7554.743,1
0,782,target,"[(1070, 791)]",[],[1],[0.65],horizontal,"(390.0, 262.0)",0.8333333333333334,0.606,1,7558.814,1
0,783,target,"[(1061, 796)]",[],[1],[0.6333333333333333],horizontal,"(890.0, 762.0)",1.0333333333333332,0.592,1,7563.381,2
0,784,target,"[(1095, 789)]",[],[1],[0.5666666666666667],vertical,"(390.0, 762.0)",0.85,0.521,1,7568.559,2
0,785,target,"[(1071, 789)]",[],[1],[0.31666666666666665],vertical,"(390.0, 762.0)",1.4333333333333333,0.28,1,7573.53,2
0,786,target,"[(1065, 785)]",[],[1],[0.55],horizontal,"(390.0, 262.0)",0.7166666666666667,0.506,1,7578.87,2
0,787,target,"[(1075, 789)]",[],[1],[0.5166666666666666],horizontal,"(390.0, 262.0)",1.1666666666666667,0.475,1,7583.841,2
0,788,target,"[(1077, 792)]",[],[1],[0.6333333333333333],vertical,"(890.0, 762.0)",0.5833333333333334,0.587,1,7588.985,3
0,789,target,"[(1065, 777)]",[],[1],[0.5833333333333334],vertical,"(890.0, 262.0)",0.6,0.541,1,7594.086,3
0,790,target,"[(1065, 777)]",[],[1],[0.5333333333333333],vertical,"(390.0, 762.0)",0.8333333333333334,0.497,1,7599.685,3
0,791,catch,"[(1070, 797)]",[],[1],[],vertical,"(390.0, 762.0)",1.2833333333333332,nan,1,7605.476,3
0,792,catch,"[(1071, 782)]",[],[1],[],vertical,"(390.0, 262.0)",1.3,nan,1,7610.772,3
0,793,target,"[(1063, 786)]",[],[1],[0.21666666666666667],horizontal,"(390.0, 262.0)",1.6833333333333333,0.18,1,7616.31,3
0,794,target,"[(1076, 782)]",[],[1],[0.4666666666666667],horizontal,"(390.0, 762.0)",1.4,0.434,1,7621.939,3
0,795,target,"[(1071, 795)]",[],[1],[0.5666666666666667],vertical,"(890.0, 762.0)",1.15,0.524,1,7628.008,3
0,796,target,"[(1064, 781)]",[],[1],[0.25],vertical,"(390.0, 762.0)",1.6166666666666667,0.216,1,7633.885,3
0,797,target,"[(1071, 776)]",[],[1],[0.55],vertical,"(390.0, 762.0)",1.6333333333333333,0.503,1,7639.626,3
0,798,target,"[(1074, 785)]",[],[1],[0.65],vertical,"(890.0, 762.0)",0.9,0.6,1,7645.742,3
0,799,target,"[(1063, 781)]",[],[1],[0.85],vertical,"(890.0, 262.0)",1.1,nan,0,7651.364,0
0,800,target,"[(1054, 776)]",[],[1],[0.3833333333333333],horizontal,"(390.0, 262.0)",1.65,0.344,1,7655.929,1
0,801,target,"[(1067, 770)]",[],[1],[0.6666666666666666],vertical,"(390.0, 262.0)",0.5833333333333334,0.628,1,7661.676,1
0,802,target,"[(1063, 795)]",[],[1],[0.6833333333333333],horizontal,"(890.0, 262.0)",0.9833333333333333,0.639,1,7666.054,1
0,803,catch,"[(1054, 783)]",[],[1],[],horizontal,"(890.0, 762.0)",,"('cti', 1.453),nan",0,7670.994,0
0,804,target,"[(1048, 790)]",[],[1],[0.85],horizontal,"(390.0, 762.0)",1.0666666666666667,nan,0,7675.355,0
0,805,target,"[(1068, 772)]",[],[1],[0.85],vertical,"(890.0, 262.0)",0.7166666666666667,nan,0,7680.426,0
0,806,target,"[(1041, 813)]",[],[1],[0.48333333333333334],horizontal,"(890.0, 762.0)",1.4333333333333333,0.438,1,7685.318,1
0,807,target,"[(1071, 800)]",[],[1],[0.3833333333333333],horizontal,"(890.0, 762.0)",1.3333333333333333,0.344,1,7739.082,1
0,808,target,"[(1064, 790)]",[],[1],[0.06666666666666667],horizontal,"(390.0, 762.0)",1.4666666666666666,0.036,0,7744.243,0
0,809,target,"[(1071, 781)]",[],[1],[0.1],horizontal,"(390.0, 762.0)",1.6833333333333333,0.07,0,7748.7,0
0,810,target,"[(1071, 790)]",[],[1],[0.6166666666666667],vertical,"(390.0, 262.0)",1.35,0.574,1,7753.371,1
0,811,target,"[(1068, 790)]",[],[1],[0.85],horizontal,"(890.0, 762.0)",0.7333333333333333,nan,0,7759.149,0
0,812,target,"[(1065, 771)]",[],[1],[0.75],vertical,"(390.0, 762.0)",1.3,0.706,1,7763.995,1
0,813,target,"[(1081, 785)]",[],[1],[0.6333333333333333],vertical,"(390.0, 762.0)",1.2166666666666666,0.585,1,7769.21,1
0,814,target,"[(1042, 791)]",[],[1],[0.55],vertical,"(890.0, 262.0)",1.3,0.513,1,7774.059,1
0,815,target,"[(1030, 801)]",[],[1],[0.55],horizontal,"(890.0, 262.0)",0.8833333333333333,0.506,1,7778.799,2
0,816,target,"[(1062, 784)]",[],[1],[0.6],vertical,"(390.0, 262.0)",1.4333333333333333,0.561,1,7784.345,2
0,817,target,"[(1081, 766)]",[],[1],[0.7166666666666667],horizontal,"(390.0, 262.0)",1.1666666666666667,0.678,1,7790.092,2
0,818,target,"[(1074, 795)]",[],[1],[0.8166666666666667],horizontal,"(390.0, 262.0)",0.6333333333333333,0.771,1,7795.398,2
0,819,catch,"[(1061, 799)]",[],[1],[],horizontal,"(390.0, 762.0)",1.1833333333333333,nan,1,7800.246,2
0,820,target,"[(1048, 787)]",[],[1],[0.6333333333333333],vertical,"(390.0, 262.0)",0.9333333333333333,0.589,1,7805.098,3
0,821,catch,"[(1105, 791)]",[],[1],[],horizontal,"(390.0, 262.0)",1.2833333333333332,nan,1,7810.916,3
0,822,target,"[(1063, 772)]",[],[1],[0.5166666666666666],vertical,"(890.0, 262.0)",0.5166666666666666,0.474,1,7816.11,3
0,823,target,"[(1076, 784)]",[],[1],[0.26666666666666666],vertical,"(390.0, 262.0)",1.5166666666666666,0.231,1,7821.522,3
0,824,target,"[(1103, 787)]",[],[1],[0.6],horizontal,"(390.0, 262.0)",0.5166666666666666,0.557,1,7827.49,3
0,825,target,"[(1069, 785)]",[],[1],[0.1],vertical,"(890.0, 762.0)",1.55,0.067,0,7832.43,0
0,826,target,"[(1066, 796)]",[],[1],[0.5333333333333333],vertical,"(390.0, 762.0)",1.65,0.488,1,7837.185,1
0,827,target,"[(1047, 781)]",[],[1],[0.85],vertical,"(890.0, 262.0)",1.1166666666666667,nan,0,7842.213,0
0,828,target,"[(680, 257), (952, 246), (782, 766), (960, 314), (791, 276), (930, 320), (791, 346), (1018, 771)]","[(942, 780)]","[0, 0, 0, 0, 0, 0, 0, 1]",[0.11666666666666667],vertical,"(390.0, 262.0)",,"('bar', 0.135)",0,7847.455,0
0,829,target,"[(680, 276), (917, 342), (1038, 824)]",[],"[0, 0, 1]",[0.5333333333333333],horizontal,"(890.0, 262.0)",1.4166666666666667,0.491,1,7891.027,1
0,830,target,"[(1064, 814)]",[],[1],[0.85],vertical,"(890.0, 762.0)",0.5,nan,0,7934.029,0
0,831,target,"[(1018, 380), (1022, 799)]",[],"[0, 1]",[0.65],vertical,"(890.0, 762.0)",1.1666666666666667,0.603,1,7938.344,1
0,832,target,"[(1039, 817)]",[],[1],[0.65],horizontal,"(890.0, 262.0)",1.05,0.608,1,7952.312,1
0,833,target,"[(1085, 811)]",[],[1],[0.85],horizontal,"(890.0, 262.0)",1.0333333333333332,nan,0,7956.996,0
0,834,target,"[(1059, 837)]",[],[1],[0.85],horizontal,"(390.0, 762.0)",0.5666666666666667,nan,0,7961.453,0
0,835,target,"[(1018, 808)]",[],[1],[0.6833333333333333],vertical,"(390.0, 262.0)",1.3333333333333333,0.645,1,7967.194,1
0,836,target,"[(1047, 798)]",[],[1],[0.85],vertical,"(390.0, 262.0)",1.0666666666666667,nan,0,7975.235,0
0,837,target,"[(1046, 845)]",[],[1],[0.85],vertical,"(390.0, 262.0)",0.8333333333333334,nan,0,7980.995,0
0,838,target,"[(946, 380), (531, 667), (1034, 817)]",[],"[0, 0, 1]",[0.75],horizontal,"(390.0, 762.0)",1.2666666666666666,0.706,1,7987.275,1
0,839,catch,"[(1052, 791)]",[],[1],[],vertical,"(890.0, 262.0)",1.2166666666666666,nan,1,9724.478,1
0,840,target,"[(1059, 791)]",[],[1],[],vertical,"(890.0, 762.0)",,"('cti', 1.425)",0,9729.627,0
0,841,target,"[(1049, 806)]",[],[1],[0.85],vertical,"(390.0, 262.0)",0.5666666666666667,nan,0,9734.515,0
0,842,target,"[(1041, 795)]",[],[1],[0.5666666666666667],horizontal,"(390.0, 262.0)",1.2166666666666666,0.522,1,9738.773,1
0,843,target,"[(1037, 816)]",[],[1],[0.6],vertical,"(890.0, 262.0)",0.7333333333333333,0.562,1,9744.324,1
0,844,target,"[(1046, 792)]",[],[1],[0.85],horizontal,"(390.0, 762.0)",0.5666666666666667,nan,0,9749.74,0
0,845,catch,"[(1067, 790)]",[],[1],[],horizontal,"(890.0, 262.0)",1.6,nan,1,9754.042,1
0,846,target,"[(1040, 814)]","[(1040, 846)]",[1],[1.0],horizontal,"(890.0, 762.0)",,"('bar', 0.996)",0,9759.034,0
0,847,target,"[(1030, 828)]",[],[1],[0.6],horizontal,"(890.0, 762.0)",1.35,0.552,1,9762.766,1
0,848,target,"[(1056, 781)]",[],[1],[0.48333333333333334],horizontal,"(890.0, 262.0)",1.05,0.444,1,9792.09,1
0,849,target,"[(1060, 778)]",[],[1],[0.6166666666666667],vertical,"(890.0, 762.0)",0.8,0.577,1,9796.939,1
0,850,catch,"[(1057, 786)]",[],[1],[],vertical,"(390.0, 762.0)",1.2833333333333332,nan,1,9801.979,2
0,851,target,"[(1008, 690), (1211, 697), (1052, 795)]",[],"[0, 0, 1]",[],vertical,"(390.0, 762.0)",,"('fix', 0.746)",0,9806.774,0
0,852,target,"[(1016, 761)]",[],[1],[],horizontal,"(390.0, 762.0)",,"('fix', 0.203)",0,9809.442,0
0,853,target,"[(1235, 885), (1033, 799)]","[(981, 833)]","[0, 1]",[0.8],vertical,"(890.0, 262.0)",,"('bar', 0.807),('cti', 0.525)",0,9811.09,0
0,854,target,"[(1015, 752), (1071, 779)]",[],"[0, 1]",[],horizontal,"(390.0, 262.0)",,"('fix', 0.134)",0,9814.817,0
0,855,target,"[(1037, 806)]",[],[1],[0.4666666666666667],vertical,"(890.0, 762.0)",0.7166666666666667,0.426,1,9819.898,1
0,856,target,"[(1061, 810)]",[],[1],[],horizontal,"(890.0, 262.0)",,"('cti', 1.555)",0,9825.545,0
0,857,target,"[(1057, 786)]",[],[1],[0.55],vertical,"(890.0, 762.0)",0.65,0.508,1,9829.945,1
0,858,target,"[(999, 766), (1037, 780)]",[],"[0, 1]",[0.85],vertical,"(390.0, 762.0)",1.4166666666666667,nan,0,9834.62,0
0,859,target,"[(1022, 811)]",[],[1],[0.85],horizontal,"(390.0, 262.0)",0.6166666666666667,nan,0,9845.23,0
0,860,target,"[(1022, 820)]",[],[1],[0.6166666666666667],horizontal,"(890.0, 762.0)",0.9666666666666667,0.573,1,9860.229,1
0,861,target,"[(1027, 827)]",[],[1],[0.5666666666666667],horizontal,"(890.0, 762.0)",0.6,0.527,1,9865.857,1
0,862,catch,"[(1038, 816)]",[],[1],[],horizontal,"(890.0, 762.0)",,"('cti', 1.245),nan",0,9870.79,0
0,863,target,"[(1059, 822)]",[],[1],[0.75],vertical,"(890.0, 262.0)",0.9166666666666666,0.711,1,9875.092,1
0,864,target,"[(1019, 809)]",[],[1],[0.85],vertical,"(890.0, 762.0)",1.0333333333333332,nan,0,9880.309,0
0,865,target,"[(1066, 829)]",[],[1],[0.85],horizontal,"(890.0, 262.0)",0.6333333333333333,nan,0,9885.424,0
0,866,target,"[(1043, 781)]",[],[1],[0.7],horizontal,"(890.0, 262.0)",1.4333333333333333,0.654,1,9889.748,1
0,867,target,"[(1053, 812)]",[],[1],[0.26666666666666666],vertical,"(390.0, 762.0)",1.6666666666666667,0.232,1,9895.004,1
0,868,target,"[(1072, 816)]",[],[1],[0.85],horizontal,"(890.0, 762.0)",0.85,nan,0,9901.29,0
0,869,target,"[(1013, 816)]",[],[1],[0.6],horizontal,"(390.0, 262.0)",1.3166666666666667,0.555,1,9906.274,1
0,870,catch,"[(1081, 820)]",[],[1],[],vertical,"(890.0, 262.0)",1.4333333333333333,nan,1,9912.174,1
0,871,target,"[(1063, 813)]",[],[1],[0.85],horizontal,"(390.0, 262.0)",0.9333333333333333,nan,0,9916.748,0
0,872,target,"[(1079, 803)]",[],[1],[0.5833333333333334],vertical,"(390.0, 262.0)",0.9333333333333333,0.542,1,9921.731,1
0,873,target,"[(1056, 820)]",[],[1],[0.55],horizontal,"(390.0, 262.0)",0.7,0.509,1,9926.517,1
0,874,target,"[(1076, 810)]",[],[1],[0.6],horizontal,"(890.0, 762.0)",0.6166666666666667,0.558,1,9931.424,1
0,875,target,"[(1202, 830)]",[],[1],[0.6333333333333333],vertical,"(890.0, 262.0)",0.5166666666666666,0.592,1,9936.257,2
0,876,target,"[(1093, 807)]",[],[1],[0.1],horizontal,"(390.0, 262.0)",1.5333333333333332,0.069,0,9941.217,0
0,877,target,"[(1100, 800)]",[],[1],[0.85],vertical,"(390.0, 762.0)",0.55,nan,0,9945.748,0
0,878,target,"[(1063, 816)]",[],[1],[0.85],horizontal,"(390.0, 262.0)",1.6,nan,0,9949.959,0
0,879,target,"[(1075, 811)]",[],[1],[0.6166666666666667],horizontal,"(890.0, 762.0)",1.4166666666666667,0.575,1,9955.642,1
0,880,target,"[(1063, 804)]",[],[1],[0.85],horizontal,"(890.0, 262.0)",1.4833333333333334,nan,0,9961.657,0
0,881,target,"[(1071, 811)]",[],[1],[0.5833333333333334],vertical,"(890.0, 262.0)",0.75,0.54,1,9966.808,1
0,882,target,"[(1082, 807)]",[],[1],[0.85],vertical,"(890.0, 762.0)",0.55,nan,0,9971.21,0
0,883,target,"[(1073, 808)]",[],[1],[0.43333333333333335],vertical,"(890.0, 762.0)",1.55,0.395,1,9975.679,1
0,884,target,"[(1078, 786)]",[],[1],[0.48333333333333334],horizontal,"(890.0, 762.0)",1.2833333333333332,0.441,1,9980.991,1
0,885,target,"[(1096, 803)]",[],[1],[0.85],vertical,"(390.0, 262.0)",1.2666666666666666,nan,0,9986.208,0
0,886,catch,"[(1239, 390), (1079, 830)]",[],"[0, 1]",[],vertical,"(890.0, 262.0)",1.6,nan,1,9991.459,1
0,887,target,"[(1066, 818)]",[],[1],[0.8],horizontal,"(890.0, 262.0)",0.65,0.753,1,9998.588,1
0,888,target,"[(1043, 826)]",[],[1],[0.55],vertical,"(890.0, 262.0)",1.0,0.507,1,10003.38,1
0,889,catch,"[(1063, 824)]",[],[1],[],horizontal,"(890.0, 262.0)",1.5833333333333333,"('cti', 1.574),nan",0,10009.754,0
0,890,target,"[(1074, 793)]",[],[1],[0.5333333333333333],horizontal,"(390.0, 262.0)",0.8166666666666667,0.493,1,10014.432,1
0,891,target,"[(1061, 806)]",[],[1],[0.6],vertical,"(890.0, 762.0)",0.9833333333333333,0.561,1,10019.174,1
0,892,target,"[(1067, 817)]",[],[1],[0.43333333333333335],horizontal,"(390.0, 262.0)",1.4,0.401,1,10024.031,1
0,893,target,"[(1058, 806)]",[],[1],[0.48333333333333334],horizontal,"(390.0, 262.0)",0.8333333333333334,0.441,1,10029.009,2
0,894,target,"[(1083, 791)]",[],[1],[0.85],vertical,"(890.0, 762.0)",0.6833333333333333,nan,0,10033.918,0
0,895,target,"[(1064, 836)]",[],[1],[0.48333333333333334],vertical,"(390.0, 262.0)",1.5,0.447,1,10038.753,1
0,896,target,"[(1056, 796)]",[],[1],[0.65],horizontal,"(890.0, 762.0)",0.5333333333333333,0.62,1,10043.841,1
0,897,target,"[(1058, 801)]",[],[1],[0.6333333333333333],vertical,"(390.0, 762.0)",0.7333333333333333,0.587,1,10048.679,1
0,898,target,"[(1047, 797)]",[],[1],[0.6166666666666667],vertical,"(390.0, 762.0)",0.8166666666666667,0.584,1,10053.167,2
0,899,target,"[(1061, 807)]",[],[1],[0.5333333333333333],vertical,"(390.0, 262.0)",0.8333333333333334,0.49,1,10058.098,2
0,900,target,"[(1094, 784)]",[],[1],[0.55],vertical,"(890.0, 762.0)",0.5333333333333333,0.519,1,10063.386,2
0,901,target,"[(1077, 783)]",[],[1],[0.85],horizontal,"(890.0, 762.0)",1.45,nan,0,10067.793,0
0,902,target,"[(1075, 802)]",[],[1],[0.55],horizontal,"(890.0, 262.0)",1.0833333333333333,0.503,1,10072.9,1
0,903,target,"[(1060, 790)]",[],[1],[0.06666666666666667],horizontal,"(890.0, 262.0)",1.6166666666666667,0.036,0,10077.516,0
