block,practice,trial,change_interval_s,change_interval_frames,taps_start_time_during_fix,taps_end_time_during_fix,taps_start_loc_during_fix,taps_end_loc_during_fix,taps_on_lever_during_fix,taps_on_lever_frame_during_fix,taps_on_lever_s_during_fix,fix_xy,bar_orientation,target_xy,cti,rt,acc,time
1,True,1,1.024,61,[],[],"[(1199, 896)]",[],[1],[111],[1.8499999999999999],"[640.0, 512.0]",vertical,"(890.0, 762.0)",[0.5833333333333334],[0.798],0,0.359
1,True,2,0.514,30,[],[],"[(1194, 920)]",[],[1],[80],[1.3333333333333333],"[640.0, 512.0]",vertical,"(390.0, 262.0)",[1.2666666666666666],[0.797],0,54.076
1,True,3,1.377,82,[],[],"[(1114, 915)]",[],[1],[129],[2.15],"[640.0, 512.0]",horizontal,"(890.0, 262.0)",[1.0166666666666666],[0.756],1,74.34
1,True,4,0.908,54,[],[],"[(1160, 883)]",[],[1],[104],[1.7333333333333334],"[640.0, 512.0]",vertical,"(890.0, 762.0)",[1.5833333333333333],[0.802],0,87.653
1,False,1,0.772,46,[],[],"[(1247, 864), (1085, 858)]",[],"[0, 1]",[81],[1.35],"[640.0, 512.0]",horizontal,"(890.0, 762.0)",[0.7],[0.563],1,92.61
1,False,2,0.402,24,[],[],"[(1127, 889)]",[],[1],[64],[1.0666666666666667],"[640.0, 512.0]",horizontal,"(390.0, 262.0)",[1.0833333333333333],[0.635],1,102.804
1,False,3,0.795,47,[],[],"[(1136, 872)]",[],[1],[79],[1.3166666666666667],"[640.0, 512.0]",horizontal,"(390.0, 762.0)",[0.65],[0.506],1,106.495
1,False,4,1.091,65,[],[],"[(1178, 889)]",[],[1],[115],[1.9166666666666667],"[640.0, 512.0]",horizontal,"(390.0, 762.0)",[1.2166666666666666],[0.806],0,109.974
1,False,5,0.618,37,[],[],"[(1130, 894)]",[],[1],[75],[1.25],"[640.0, 512.0]",horizontal,"(390.0, 762.0)",[1.1166666666666667],[0.603],1,114.689
1,False,6,0.599,35,[],[],"[(1102, 896)]",[],[1],[67],[1.1166666666666667],"[640.0, 512.0]",vertical,"(890.0, 262.0)",[0.6666666666666666],[0.509],1,118.941
1,False,7,0.774,46,[],[],"[(1105, 899)]",[],[1],[76],[1.2666666666666666],"[640.0, 512.0]",vertical,"(890.0, 262.0)",[1.4333333333333333],[0.475],1,122.227
1,False,8,0.562,33,[],[],"[(1111, 898)]",[],[1],[65],[1.0833333333333333],"[640.0, 512.0]",horizontal,"(890.0, 762.0)",[1.1666666666666667],[0.507],1,126.382
1,False,9,1.5,90,[],[],"[(1095, 902)]",[],[1],[123],[2.05],"[640.0, 512.0]",horizontal,"(890.0, 762.0)",[0.9833333333333333],[0.529],1,131.427
1,False,10,0.607,36,[],[],"[(1120, 889)]",[],[1],[74],[1.2333333333333334],"[640.0, 512.0]",vertical,"(390.0, 262.0)",[1.4666666666666666],[0.603],1,135.96
1,False,11,0.495,29,[],[],"[(1080, 907)]",[],[1],[55],[0.9166666666666666],"[640.0, 512.0]",vertical,"(890.0, 262.0)",[1.5666666666666667],[0.41],1,140.15
1,False,12,1.064,63,[],[],"[(1113, 888)]",[],[1],[99],[1.65],"[640.0, 512.0]",vertical,"(390.0, 262.0)",[0.5833333333333334],[0.58],1,144.11
1,False,13,0.782,46,[],[],"[(1115, 885)]",[],[1],[76],[1.2666666666666666],"[640.0, 512.0]",vertical,"(890.0, 262.0)",[1.0666666666666667],[0.472],1,147.868
1,False,14,0.703,42,[],[],"[(1100, 891)]",[],[1],[77],[1.2833333333333332],"[640.0, 512.0]",horizontal,"(890.0, 762.0)",[0.95],[0.559],1,151.726
1,False,15,0.69,41,[],[],"[(1081, 899)]",[],[1],[77],[1.2833333333333332],"[640.0, 512.0]",horizontal,"(890.0, 262.0)",[1.0166666666666666],[0.571],1,155.506
1,False,16,1.196,71,[],[],"[(1117, 892)]",[],[1],[113],[1.8833333333333333],"[640.0, 512.0]",vertical,"(890.0, 762.0)",[0.6166666666666667],[0.671],1,159.29
1,False,17,1.032,61,[],[],"[(1102, 915)]",[],[1],[91],[1.5166666666666666],"[640.0, 512.0]",vertical,"(890.0, 262.0)",[0.6],[0.477],1,163.239
1,False,18,0.44,26,[],[],"[(1106, 889)]",[],[1],[63],[1.05],"[640.0, 512.0]",horizontal,"(890.0, 762.0)",[1.0],[0.595],1,166.838
1,False,19,0.614,36,[],[],"[(1098, 892)]",[],[1],[77],[1.2833333333333332],"[640.0, 512.0]",vertical,"(390.0, 762.0)",[1.3],[0.661],1,170.372
1,False,20,0.814,48,[],[],"[(1115, 903)]",[],[1],[85],[1.4166666666666667],"[640.0, 512.0]",horizontal,"(890.0, 762.0)",[1.2666666666666666],[0.593],1,174.431
1,False,21,1.424,85,[],[],"[(1112, 882)]",[],[1],[117],[1.95],"[640.0, 512.0]",vertical,"(890.0, 262.0)",[1.2],[0.512],1,178.59
1,False,22,1.195,71,[],[],"[(1110, 878)]",[],[1],[105],[1.75],"[640.0, 512.0]",horizontal,"(890.0, 262.0)",[1.1333333333333333],[0.539],1,183.204
1,False,23,1.499,89,[],[],"[(1116, 883)]",[],[1],[123],[2.05],"[640.0, 512.0]",horizontal,"(890.0, 262.0)",[0.95],[0.538],1,187.541
1,False,24,0.935,56,[],[],"[(1113, 884)]",[],[1],[95],[1.5833333333333333],"[640.0, 512.0]",vertical,"(390.0, 262.0)",[1.6833333333333333],[0.626],1,191.994
1,False,25,0.712,42,[],[],"[(1137, 885)]",[],[1],[77],[1.2833333333333332],"[640.0, 512.0]",vertical,"(390.0, 262.0)",[1.15],[0.562],1,196.712
1,False,26,0.628,37,[],[],"[(1086, 899)]",[],[1],[69],[1.15],"[640.0, 512.0]",vertical,"(390.0, 762.0)",[0.5666666666666667],[0.513],1,200.59
1,False,27,0.874,52,[],[],"[(1075, 888)]",[],[1],[85],[1.4166666666666667],"[640.0, 512.0]",horizontal,"(390.0, 262.0)",[0.6333333333333333],[0.524],1,203.83
1,False,28,0.913,54,[],[],"[(1117, 894)]",[],[1],[83],[1.3833333333333333],"[640.0, 512.0]",vertical,"(890.0, 262.0)",[1.1833333333333333],[0.462],1,207.376
1,False,29,1.092,65,[],[],"[(1087, 880)]",[],[1],[97],[1.6166666666666667],"[640.0, 512.0]",horizontal,"(390.0, 762.0)",[1.1166666666666667],[0.507],1,211.365
1,False,30,0.353,21,[],[],"[(1129, 886)]",[],[1],[57],[0.95],"[640.0, 512.0]",vertical,"(390.0, 762.0)",[1.3],[0.58],1,215.573
1,False,31,1.031,61,[],[],"[(1105, 887)]",[],[1],[91],[1.5166666666666666],"[640.0, 512.0]",vertical,"(390.0, 262.0)",[1.4166666666666667],[0.474],1,219.943
1,False,32,0.624,37,[],[],"[(1113, 880)]",[],[1],[78],[1.3],"[640.0, 512.0]",vertical,"(890.0, 762.0)",[1.6],[0.658],1,224.314
1,False,33,0.991,59,[],[],"[(1120, 893)]",[],[1],[98],[1.6333333333333333],"[640.0, 512.0]",horizontal,"(890.0, 762.0)",[1.2333333333333334],[0.623],1,228.676
1,False,34,1.074,64,[],[],"[(1120, 889)]",[],[1],[98],[1.6333333333333333],"[640.0, 512.0]",horizontal,"(890.0, 262.0)",[0.7166666666666667],[0.543],1,232.993
1,False,35,0.813,48,[],[],"[(1114, 903)]",[],[1],[84],[1.4],"[640.0, 512.0]",horizontal,"(890.0, 262.0)",[1.3333333333333333],[0.578],1,236.799
1,False,36,1.105,66,[],[],"[(1102, 881)]",[],[1],[102],[1.7],"[640.0, 512.0]",horizontal,"(390.0, 262.0)",[0.9833333333333333],[0.576],1,240.998
1,False,37,1.183,70,[],[],"[(1101, 891)]",[],[1],[102],[1.7],"[640.0, 512.0]",horizontal,"(390.0, 762.0)",[1.6],[0.51],1,245.163
1,False,38,0.391,23,[],[],"[(1065, 916)]",[],[1],[56],[0.9333333333333333],"[640.0, 512.0]",vertical,"(890.0, 262.0)",[1.6666666666666667],[0.524],1,249.942
1,False,39,0.619,37,[],[],"[(1097, 892)]",[],[1],[78],[1.3],"[640.0, 512.0]",vertical,"(390.0, 262.0)",[1.4],[0.675],1,254.093
1,False,40,1.019,61,[],[],"[(1099, 893)]",[],[1],[95],[1.5833333333333333],"[640.0, 512.0]",horizontal,"(890.0, 762.0)",[1.3666666666666667],[0.543],1,258.309
1,False,41,0.791,47,[],[],"[(1085, 897)]",[],[1],[81],[1.35],"[640.0, 512.0]",horizontal,"(390.0, 762.0)",[1.1],[0.543],1,262.741
1,False,42,1.271,76,[],[],"[(1110, 896)]",[],[1],[98],[1.6333333333333333],"[640.0, 512.0]",horizontal,"(390.0, 762.0)",[1.6333333333333333],[0.345],1,266.695
1,False,43,0.917,55,[],[],"[(1100, 882)]",[],[1],[89],[1.4833333333333334],"[640.0, 512.0]",vertical,"(390.0, 262.0)",[0.6333333333333333],[0.537],1,271.441
1,False,44,0.676,40,[],[],"[(1073, 899)]",[],[1],[74],[1.2333333333333334],"[640.0, 512.0]",vertical,"(390.0, 762.0)",[0.6666666666666666],[0.537],1,275.077
1,False,45,1.266,75,[],[],"[(1111, 880)]",[],[1],[108],[1.8],"[640.0, 512.0]",horizontal,"(890.0, 762.0)",[1.0666666666666667],[0.528],1,278.494
1,False,46,0.933,55,[],[],"[(1096, 902)]",[],[1],[99],[1.65],"[640.0, 512.0]",horizontal,"(390.0, 262.0)",[0.5833333333333334],[0.708],1,282.85
1,False,47,0.757,45,[],[],"[(1093, 882)]",[],[1],[80],[1.3333333333333333],"[640.0, 512.0]",vertical,"(890.0, 262.0)",[0.9666666666666667],[0.561],1,286.555
1,False,48,0.392,23,[],[],"[(1105, 900)]",[],[1],[58],[0.9666666666666667],"[640.0, 512.0]",vertical,"(890.0, 762.0)",[0.8333333333333334],[0.561],1,290.363
1,False,49,1.362,81,[],[],"[(1102, 918)]",[],[1],[127],[2.1166666666666667],"[640.0, 512.0]",horizontal,"(890.0, 762.0)",[1.5833333333333333],[0.739],1,293.63
1,False,50,0.487,29,[],[],"[(1099, 899)]",[],[1],[60],[1.0],"[640.0, 512.0]",horizontal,"(390.0, 262.0)",[1.1333333333333333],[0.496],1,298.806
1,False,51,1.065,63,[],[],"[(1115, 894)]",[],[1],[96],[1.6],"[640.0, 512.0]",horizontal,"(890.0, 762.0)",[1.2833333333333332],[0.527],1,302.421
1,False,52,1.178,70,[],[],"[(1111, 913)]",[],[1],[120],[2.0],"[640.0, 512.0]",horizontal,"(890.0, 762.0)",[1.55],[0.809],0,306.767
1,False,53,0.614,36,[],[],"[(1113, 882)]",[],[1],[73],[1.2166666666666666],"[640.0, 512.0]",horizontal,"(890.0, 762.0)",[0.95],[0.595],1,311.792
1,False,54,0.947,56,[],[],"[(1121, 894)]",[],[1],[98],[1.6333333333333333],"[640.0, 512.0]",vertical,"(890.0, 762.0)",[0.6833333333333333],[0.679],1,316.424
1,False,55,1.067,64,[],[],"[(1130, 870)]",[],[1],[93],[1.55],"[640.0, 512.0]",vertical,"(890.0, 262.0)",[1.5],[0.461],1,320.243
1,False,56,0.573,34,[],[],"[(1113, 879)]",[],[1],[84],[1.4],"[640.0, 512.0]",horizontal,"(390.0, 762.0)",[1.4166666666666667],[0.805],0,324.76
1,False,57,0.542,32,[],[],"[(1142, 889)]",[],[1],[65],[1.0833333333333333],"[640.0, 512.0]",horizontal,"(390.0, 762.0)",[1.4],[0.524],1,329.057
1,False,58,0.684,41,[],[],"[(1109, 884)]",[],[1],[75],[1.25],"[640.0, 512.0]",horizontal,"(390.0, 762.0)",[1.5666666666666667],[0.54],1,333.091
1,False,59,1.31,78,[],[],"[(1105, 892)]",[],[1],[111],[1.8499999999999999],"[640.0, 512.0]",vertical,"(390.0, 262.0)",[0.9],[0.52],1,337.342
1,False,60,0.871,52,[],[],"[(1121, 889)]",[],[1],[88],[1.4666666666666666],"[640.0, 512.0]",horizontal,"(390.0, 762.0)",[1.6166666666666667],[0.573],1,341.556
2,False,61,1.495,89,[],[],"[(1102, 888)]",[],[1],[131],[2.183333333333333],"[640.0, 512.0]",horizontal,"(890.0, 262.0)",[1.25],[0.677],1,346.115
2,False,62,0.849,50,[],[],"[(1106, 883)]",[],[1],[84],[1.4],"[640.0, 512.0]",vertical,"(890.0, 762.0)",[0.9666666666666667],[0.545],1,351.026
2,False,63,1.213,72,[],[],"[(1123, 907)]",[],[1],[104],[1.7333333333333334],"[640.0, 512.0]",vertical,"(890.0, 262.0)",[0.8666666666666667],[0.507],1,354.891
2,False,64,1.126,67,[],[],"[(1109, 885)]",[],[1],[112],[1.8666666666666667],"[640.0, 512.0]",vertical,"(390.0, 262.0)",[1.6166666666666667],[0.723],1,358.996
2,False,65,1.152,69,[],[],"[(1116, 886)]",[],[1],[100],[1.6666666666666667],"[640.0, 512.0]",vertical,"(890.0, 262.0)",[0.6],[0.499],1,363.928
2,False,66,1.074,64,[],[],"[(1107, 898)]",[],[1],[99],[1.65],"[640.0, 512.0]",horizontal,"(390.0, 262.0)",[0.7166666666666667],[0.563],1,368.611
2,False,67,0.353,21,[],[],"[(1115, 889)]",[],[1],[54],[0.9],"[640.0, 512.0]",horizontal,"(890.0, 762.0)",[1.3166666666666667],[0.524],1,372.465
2,False,68,0.953,57,[],[],"[(1105, 899)]",[],[1],[90],[1.5],"[640.0, 512.0]",horizontal,"(890.0, 762.0)",[1.0833333333333333],[0.53],1,376.142
2,False,69,0.836,50,[],[],"[(1105, 903)]",[],[1],[91],[1.5166666666666666],"[640.0, 512.0]",vertical,"(390.0, 762.0)",[1.15],[0.652],1,380.216
2,False,70,1.343,80,[],[],"[(1100, 893)]",[],[1],[116],[1.9333333333333333],"[640.0, 512.0]",horizontal,"(890.0, 262.0)",[0.5],[0.581],1,384.361
2,False,71,1.09,65,[],[],"[(1111, 895)]",[],[1],[104],[1.7333333333333334],"[640.0, 512.0]",horizontal,"(390.0, 262.0)",[1.4166666666666667],[0.624],1,388.307
2,False,72,0.341,20,[],[],"[(1094, 890)]",[],[1],[54],[0.9],"[640.0, 512.0]",horizontal,"(890.0, 262.0)",[1.3833333333333333],[0.542],1,392.935
2,False,73,1.469,88,[],[],"[(1109, 889)]",[],[1],[122],[2.033333333333333],"[640.0, 512.0]",vertical,"(390.0, 262.0)",[1.3666666666666667],[0.546],1,396.698
2,False,74,1.017,61,[],[],"[(1115, 884)]",[],[1],[107],[1.7833333333333332],"[640.0, 512.0]",vertical,"(390.0, 262.0)",[0.9166666666666666],[0.735],1,401.587
2,False,75,1.094,65,[],[],"[(1102, 898)]",[],[1],[101],[1.6833333333333333],"[640.0, 512.0]",vertical,"(890.0, 762.0)",[1.6166666666666667],[0.575],1,405.732
2,False,76,0.416,24,[],[],"[(1094, 898)]",[],[1],[60],[1.0],"[640.0, 512.0]",vertical,"(390.0, 762.0)",[0.9333333333333333],[0.575],1,410.512
2,False,77,1.155,69,[],[],"[(1108, 902)]",[],[1],[104],[1.7333333333333334],"[640.0, 512.0]",vertical,"(390.0, 762.0)",[0.6333333333333333],[0.553],1,413.94
2,False,78,0.344,20,[],[],"[(1099, 903)]",[],[1],[54],[0.9],"[640.0, 512.0]",vertical,"(390.0, 262.0)",[0.7833333333333333],[0.542],1,417.753
2,False,79,0.746,44,[],[],"[(1093, 905)]",[],[1],[78],[1.3],"[640.0, 512.0]",vertical,"(890.0, 262.0)",[1.1833333333333333],[0.544],1,420.955
2,False,80,0.651,39,[],[],"[(1107, 875)]",[],[1],[81],[1.35],"[640.0, 512.0]",horizontal,"(890.0, 762.0)",[1.5],[0.668],1,424.881
2,False,81,0.764,45,[],[],"[(1081, 895)]",[],[1],[79],[1.3166666666666667],"[640.0, 512.0]",vertical,"(390.0, 262.0)",[1.1666666666666667],[0.543],1,429.227
2,False,82,1.335,80,[],[],"[(1116, 901)]",[],[1],[115],[1.9166666666666667],"[640.0, 512.0]",horizontal,"(390.0, 762.0)",[0.7],[0.564],1,433.19
2,False,83,1.422,85,[],[],"[(1078, 901)]",[],[1],[135],[2.25],"[640.0, 512.0]",vertical,"(890.0, 262.0)",[1.6666666666666667],[0.805],0,437.295
2,False,84,0.353,21,[],[],"[(1150, 881)]",[],[1],[61],[1.0166666666666666],"[640.0, 512.0]",vertical,"(390.0, 762.0)",[1.2333333333333334],[0.639],1,442.694
2,False,85,1.036,62,[],[],"[(1117, 889)]",[],[1],[100],[1.6666666666666667],"[640.0, 512.0]",vertical,"(390.0, 762.0)",[0.8166666666666667],[0.609],1,446.457
2,False,86,1.171,70,[],[],"[(1103, 880)]",[],[1],[103],[1.7166666666666666],"[640.0, 512.0]",vertical,"(390.0, 762.0)",[1.4333333333333333],[0.524],1,450.407
2,False,87,1.061,63,[],[],"[(1103, 884)]",[],[1],[106],[1.7666666666666666],"[640.0, 512.0]",vertical,"(390.0, 762.0)",[0.9833333333333333],[0.692],1,455.022
2,False,88,0.602,36,[],[],"[(1105, 896)]",[],[1],[72],[1.2],"[640.0, 512.0]",horizontal,"(390.0, 262.0)",[1.3833333333333333],[0.577],1,459.306
2,False,89,1.298,77,[],[],"[(1117, 904)]",[],[1],[111],[1.8499999999999999],"[640.0, 512.0]",horizontal,"(890.0, 762.0)",[0.8],[0.539],1,463.341
2,False,90,0.443,26,[],[],"[(1111, 897)]",[],[1],[59],[0.9833333333333333],"[640.0, 512.0]",horizontal,"(890.0, 262.0)",[1.4833333333333334],[0.531],1,467.446
2,False,91,0.698,41,[],[],"[(1113, 902)]",[],[1],[86],[1.4333333333333333],"[640.0, 512.0]",vertical,"(890.0, 762.0)",[1.4166666666666667],[0.727],1,471.379
2,False,92,0.764,45,[],[],"[(1113, 894)]",[],[1],[82],[1.3666666666666667],"[640.0, 512.0]",vertical,"(890.0, 762.0)",[1.6833333333333333],[0.593],1,475.707
2,False,93,0.368,22,[],[],"[(1105, 877)]",[],[1],[56],[0.9333333333333333],"[640.0, 512.0]",horizontal,"(390.0, 762.0)",[1.3666666666666667],[0.539],1,480.212
2,False,94,1.07,64,[],[],"[(1096, 898)]",[],[1],[97],[1.6166666666666667],"[640.0, 512.0]",vertical,"(390.0, 262.0)",[1.25],[0.531],1,483.995
2,False,95,1.046,62,[],[],"[(1112, 903)]",[],[1],[94],[1.5666666666666667],"[640.0, 512.0]",vertical,"(390.0, 762.0)",[1.4666666666666666],[0.504],1,488.46
2,False,96,1.024,61,[],[],"[(1105, 901)]",[],[1],[93],[1.55],"[640.0, 512.0]",vertical,"(390.0, 262.0)",[1.5333333333333332],[0.516],1,492.941
2,False,97,1.394,83,[],[],"[(1115, 894)]",[],[1],[116],[1.9333333333333333],"[640.0, 512.0]",vertical,"(890.0, 762.0)",[0.9833333333333333],[0.522],1,497.56
2,False,98,1.044,62,[],[],"[(1111, 911)]",[],[1],[94],[1.5666666666666667],"[640.0, 512.0]",vertical,"(390.0, 262.0)",[1.25],[0.51],1,501.988
2,False,99,0.869,52,[],[],"[(1116, 894)]",[],[1],[84],[1.4],"[640.0, 512.0]",vertical,"(390.0, 262.0)",[1.5],[0.51],1,506.359
2,False,100,1.339,80,[],[],"[(1117, 884)]",[],[1],[116],[1.9333333333333333],"[640.0, 512.0]",vertical,"(390.0, 762.0)",[0.6833333333333333],[0.571],1,510.699
2,False,101,1.357,81,[],[],"[(1104, 893)]",[],[1],[115],[1.9166666666666667],"[640.0, 512.0]",horizontal,"(890.0, 262.0)",[0.5833333333333334],[0.546],1,514.775
2,False,102,1.077,64,[],[],"[(1114, 894)]",[],[1],[98],[1.6333333333333333],"[640.0, 512.0]",horizontal,"(890.0, 762.0)",[1.5833333333333333],[0.54],1,518.756
2,False,103,1.266,75,[],[],"[(1106, 888)]",[],[1],[108],[1.8],"[640.0, 512.0]",horizontal,"(390.0, 762.0)",[0.8],[0.526],1,523.445
2,False,104,0.483,28,[],[],"[(1080, 907)]",[],[1],[60],[1.0],"[640.0, 512.0]",horizontal,"(390.0, 262.0)",[1.6333333333333333],[0.506],1,527.512
2,False,105,1.186,71,[],[],"[(1105, 908)]",[],[1],[111],[1.8499999999999999],"[640.0, 512.0]",horizontal,"(890.0, 762.0)",[0.6333333333333333],[0.639],1,531.675
2,False,106,0.827,49,[],[],"[(1083, 908)]",[],[1],[84],[1.4],"[640.0, 512.0]",vertical,"(890.0, 762.0)",[0.95],[0.561],1,535.645
2,False,107,0.377,22,[],[],"[(1115, 909)]",[],[1],[64],[1.0666666666666667],"[640.0, 512.0]",horizontal,"(390.0, 762.0)",[0.6833333333333333],[0.674],1,539.519
2,False,108,1.15,69,[],[],"[(1109, 901)]",[],[1],[108],[1.8],"[640.0, 512.0]",vertical,"(390.0, 262.0)",[1.15],[0.626],1,542.778
2,False,109,0.49,29,[],[],"[(1087, 881)]",[],[1],[69],[1.15],"[640.0, 512.0]",vertical,"(390.0, 762.0)",[0.9],[0.633],1,547.232
2,False,110,0.516,30,[],[],"[(1109, 898)]",[],[1],[64],[1.0666666666666667],"[640.0, 512.0]",horizontal,"(890.0, 262.0)",[0.7666666666666666],[0.54],1,550.797
2,False,111,1.314,78,[],[],"[(1111, 907)]",[],[1],[109],[1.8166666666666667],"[640.0, 512.0]",horizontal,"(890.0, 262.0)",[0.7833333333333333],[0.508],1,554.128
2,False,112,0.773,46,[],[],"[(1116, 906)]",[],[1],[80],[1.3333333333333333],"[640.0, 512.0]",horizontal,"(390.0, 262.0)",[1.6166666666666667],[0.544],1,558.261
2,False,113,1.491,89,[],[],"[(1099, 903)]",[],[1],[122],[2.033333333333333],"[640.0, 512.0]",vertical,"(890.0, 262.0)",[1.0666666666666667],[0.527],1,562.744
2,False,114,0.438,26,[],[],"[(1128, 904)]",[],[1],[57],[0.95],"[640.0, 512.0]",vertical,"(890.0, 262.0)",[1.6666666666666667],[0.495],1,567.308
2,False,115,1.267,76,[],[],"[(1093, 909)]",[],[1],[126],[2.1],"[640.0, 512.0]",vertical,"(390.0, 762.0)",[0.7166666666666667],[0.803],0,571.412
2,False,116,0.553,33,[],[],"[(1125, 903)]",[],[1],[65],[1.0833333333333333],"[640.0, 512.0]",vertical,"(890.0, 262.0)",[1.6166666666666667],[0.507],1,575.695
2,False,117,0.635,38,[],[],"[(1129, 898)]",[],[1],[75],[1.25],"[640.0, 512.0]",vertical,"(890.0, 762.0)",[1.5833333333333333],[0.59],1,580.379
2,False,118,0.546,32,[],[],"[(1113, 894)]",[],[1],[70],[1.1666666666666667],"[640.0, 512.0]",vertical,"(390.0, 762.0)",[0.9333333333333333],[0.606],1,584.72
2,False,119,0.382,22,[],[],"[(1106, 900)]",[],[1],[57],[0.95],"[640.0, 512.0]",vertical,"(890.0, 762.0)",[0.85],[0.56],1,588.292
2,False,120,1.093,65,[],[],"[(1087, 900)]",[],[1],[99],[1.65],"[640.0, 512.0]",horizontal,"(890.0, 262.0)",[0.6166666666666667],[0.54],1,591.594
3,False,121,0.86,51,[],[],"[(1100, 902)]",[],[1],[87],[1.45],"[640.0, 512.0]",vertical,"(390.0, 762.0)",[0.7833333333333333],[0.577],1,595.365
3,False,122,0.8,48,[],[],"[(1093, 908)]",[],[1],[81],[1.35],"[640.0, 512.0]",horizontal,"(890.0, 262.0)",[1.4333333333333333],[0.522],1,599.144
3,False,123,1.176,70,[],[],"[(1083, 901)]",[],[1],[109],[1.8166666666666667],"[640.0, 512.0]",vertical,"(890.0, 762.0)",[1.4333333333333333],[0.624],1,603.407
3,False,124,1.159,69,[],[],"[(1110, 894)]",[],[1],[111],[1.8499999999999999],"[640.0, 512.0]",vertical,"(390.0, 762.0)",[0.5166666666666666],[0.681],1,608.126
3,False,125,0.378,22,[],[],"[(1099, 907)]",[],[1],[58],[0.9666666666666667],"[640.0, 512.0]",horizontal,"(890.0, 762.0)",[0.5666666666666667],[0.571],1,612.002
3,False,126,0.39,23,[],[],"[(1087, 908)]",[],[1],[65],[1.0833333333333333],"[640.0, 512.0]",horizontal,"(390.0, 762.0)",[1.5333333333333332],[0.678],1,615.065
3,False,127,1.498,89,[],[],"[(1085, 903)]",[],[1],[125],[2.0833333333333335],"[640.0, 512.0]",horizontal,"(890.0, 762.0)",[1.5333333333333332],[0.574],1,619.176
3,False,128,0.512,30,[],[],"[(1130, 905)]",[],[1],[65],[1.0833333333333333],"[640.0, 512.0]",vertical,"(890.0, 262.0)",[1.5666666666666667],[0.553],1,624.294
3,False,129,0.866,51,[],[],"[(1120, 902)]",[],[1],[88],[1.4666666666666666],"[640.0, 512.0]",horizontal,"(890.0, 762.0)",[1.0666666666666667],[0.585],1,628.404
3,False,130,0.415,24,[],[],"[(1096, 908)]",[],[1],[58],[0.9666666666666667],"[640.0, 512.0]",vertical,"(890.0, 262.0)",[0.5],[0.544],1,632.397
3,False,131,0.503,30,[],[],"[(1122, 903)]",[],[1],[69],[1.15],"[640.0, 512.0]",vertical,"(890.0, 262.0)",[1.6166666666666667],[0.625],1,635.391
3,False,132,1.383,82,[],[],"[(1099, 911)]",[],[1],[119],[1.9833333333333334],"[640.0, 512.0]",vertical,"(390.0, 762.0)",[0.5],[0.586],1,639.658
3,False,133,1.12,67,[],[],"[(1118, 899)]",[],[1],[101],[1.6833333333333333],"[640.0, 512.0]",horizontal,"(390.0, 262.0)",[1.1666666666666667],[0.542],1,643.619
3,False,134,0.498,29,[],[],"[(1093, 887)]",[],[1],[62],[1.0333333333333332],"[640.0, 512.0]",vertical,"(390.0, 262.0)",[1.2833333333333332],[0.529],1,648.384
3,False,135,0.752,45,[],[],"[(1081, 902)]",[],[1],[90],[1.5],"[640.0, 512.0]",horizontal,"(890.0, 762.0)",[1.4],[0.726],1,652.237
3,False,136,1.042,62,[],[],"[(1100, 905)]",[],[1],[96],[1.6],"[640.0, 512.0]",horizontal,"(390.0, 762.0)",[1.4],[0.543],1,656.658
3,False,137,0.608,36,[],[],"[(1111, 899)]",[],[1],[68],[1.1333333333333333],"[640.0, 512.0]",vertical,"(890.0, 762.0)",[1.2666666666666666],[0.513],1,661.096
3,False,138,1.13,67,[],[],"[(1120, 898)]",[],[1],[105],[1.75],"[640.0, 512.0]",horizontal,"(890.0, 762.0)",[0.8],[0.607],1,665.012
3,False,139,1.254,75,[],[],"[(1093, 908)]",[],[1],[109],[1.8166666666666667],"[640.0, 512.0]",horizontal,"(890.0, 762.0)",[0.7666666666666666],[0.54],1,669.006
3,False,140,0.955,57,[],[],"[(1111, 898)]",[],[1],[89],[1.4833333333333334],"[640.0, 512.0]",vertical,"(890.0, 762.0)",[0.95],[0.504],1,673.092
3,False,141,1.024,61,[],[],"[(1120, 899)]",[],[1],[100],[1.6666666666666667],"[640.0, 512.0]",vertical,"(890.0, 762.0)",[1.55],[0.623],1,677.025
3,False,142,0.938,56,[],[],"[(1125, 883)]",[],[1],[90],[1.5],"[640.0, 512.0]",horizontal,"(890.0, 762.0)",[1.15],[0.541],1,681.677
3,False,143,0.951,57,[],[],"[(1123, 909)]",[],[1],[91],[1.5166666666666666],"[640.0, 512.0]",vertical,"(390.0, 762.0)",[1.2],[0.548],1,685.79
3,False,144,0.935,56,[],[],"[(1109, 896)]",[],[1],[90],[1.5],"[640.0, 512.0]",horizontal,"(390.0, 262.0)",[1.6333333333333333],[0.541],1,690.046
3,False,145,1.21,72,[],[],"[(1093, 886)]",[],[1],[105],[1.75],"[640.0, 512.0]",vertical,"(390.0, 762.0)",[0.9833333333333333],[0.526],1,694.666
3,False,146,0.417,25,[],[],"[(1120, 889)]",[],[1],[57],[0.95],"[640.0, 512.0]",vertical,"(890.0, 762.0)",[1.1],[0.509],1,698.926
3,False,147,1.468,88,[],[],"[(1093, 903)]",[],[1],[118],[1.9666666666666666],"[640.0, 512.0]",vertical,"(890.0, 262.0)",[1.1],[0.479],1,702.442
3,False,148,0.703,42,[],[],"[(1100, 893)]",[],[1],[75],[1.25],"[640.0, 512.0]",vertical,"(890.0, 262.0)",[0.5166666666666666],[0.534],1,706.998
3,False,149,1.213,72,[],[],"[(1109, 897)]",[],[1],[122],[2.033333333333333],"[640.0, 512.0]",horizontal,"(890.0, 762.0)",[1.2666666666666666],[0.81],0,710.278
3,False,150,0.972,58,[],[],"[(1181, 876)]",[],[1],[92],[1.5333333333333332],"[640.0, 512.0]",vertical,"(390.0, 762.0)",[0.9],[0.547],1,715.03
3,False,151,0.681,40,[],[],"[(1095, 889)]",[],[1],[76],[1.2666666666666666],"[640.0, 512.0]",vertical,"(890.0, 762.0)",[1.2333333333333334],[0.572],1,718.998
3,False,152,0.838,50,[],[],"[(1123, 889)]",[],[1],[83],[1.3833333333333333],"[640.0, 512.0]",vertical,"(390.0, 762.0)",[1.6],[0.526],1,722.959
3,False,153,0.301,18,[],[],"[(1096, 898)]",[],[1],[55],[0.9166666666666666],"[640.0, 512.0]",horizontal,"(390.0, 762.0)",[1.0666666666666667],[0.591],1,727.404
3,False,154,1.129,67,[],[],"[(1093, 910)]",[],[1],[103],[1.7166666666666666],"[640.0, 512.0]",horizontal,"(890.0, 762.0)",[1.65],[0.57],1,730.861
3,False,155,1.141,68,[],[],"[(1099, 879)]",[],[1],[109],[1.8166666666666667],"[640.0, 512.0]",horizontal,"(390.0, 762.0)",[1.25],[0.659],1,735.677
3,False,156,1.295,77,[],[],"[(1122, 884)]",[],[1],[119],[1.9833333333333334],"[640.0, 512.0]",horizontal,"(890.0, 762.0)",[1.6333333333333333],[0.674],1,740.321
3,False,157,1.475,88,[],[],"[(1123, 896)]",[],[1],[118],[1.9666666666666666],"[640.0, 512.0]",vertical,"(390.0, 262.0)",[1.1333333333333333],[0.478],1,745.388
3,False,158,1.391,83,[],[],"[(1130, 889)]",[],[1],[116],[1.9333333333333333],"[640.0, 512.0]",horizontal,"(390.0, 762.0)",[1.1],[0.525],1,749.924
3,False,159,1.196,71,[],[],"[(1130, 881)]",[],[1],[102],[1.7],"[640.0, 512.0]",horizontal,"(390.0, 262.0)",[0.8666666666666667],[0.496],1,754.408
3,False,160,1.162,69,[],[],"[(1087, 906)]",[],[1],[102],[1.7],"[640.0, 512.0]",horizontal,"(890.0, 762.0)",[0.5666666666666667],[0.524],1,758.441
3,False,161,0.852,51,[],[],"[(1090, 907)]",[],[1],[85],[1.4166666666666667],"[640.0, 512.0]",vertical,"(390.0, 762.0)",[0.9166666666666666],[0.538],1,762.225
3,False,162,0.536,32,[],[],"[(1076, 909)]",[],[1],[74],[1.2333333333333334],"[640.0, 512.0]",horizontal,"(890.0, 262.0)",[1.0666666666666667],[0.675],1,766.062
3,False,163,1.119,67,[],[],"[(1105, 903)]",[],[1],[99],[1.65],"[640.0, 512.0]",vertical,"(390.0, 262.0)",[1.6833333333333333],[0.512],1,769.903
3,False,164,0.311,18,[],[],"[(1107, 896)]",[],[1],[51],[0.85],"[640.0, 512.0]",vertical,"(390.0, 262.0)",[0.7833333333333333],[0.525],1,774.707
3,False,165,0.328,19,[],[],"[(1102, 888)]",[],[1],[50],[0.8333333333333334],"[640.0, 512.0]",horizontal,"(890.0, 262.0)",[1.25],[0.494],1,777.861
3,False,166,0.447,26,[],[],"[(1115, 902)]",[],[1],[57],[0.95],"[640.0, 512.0]",vertical,"(890.0, 262.0)",[1.05],[0.493],1,781.446
3,False,167,0.712,42,[],[],"[(1122, 904)]",[],[1],[75],[1.25],"[640.0, 512.0]",vertical,"(890.0, 762.0)",[0.5833333333333334],[0.526],1,784.947
3,False,168,0.519,31,[],[],"[(1105, 898)]",[],[1],[66],[1.1],"[640.0, 512.0]",vertical,"(890.0, 762.0)",[1.1333333333333333],[0.562],1,788.295
3,False,169,0.326,19,[],[],"[(1105, 899)]",[],[1],[50],[0.8333333333333334],"[640.0, 512.0]",vertical,"(390.0, 262.0)",[1.2333333333333334],[0.499],1,792.006
3,False,170,1.19,71,[],[],"[(1093, 891)]",[],[1],[103],[1.7166666666666666],"[640.0, 512.0]",horizontal,"(890.0, 262.0)",[1.4],[0.508],1,795.568
3,False,171,1.393,83,[],[],"[(1093, 899)]",[],[1],[124],[2.0666666666666664],"[640.0, 512.0]",vertical,"(390.0, 262.0)",[1.55],[0.657],1,800.193
3,False,172,1.268,76,[],[],"[(1095, 906)]",[],[1],[109],[1.8166666666666667],"[640.0, 512.0]",vertical,"(890.0, 262.0)",[1.3166666666666667],[0.521],1,805.267
3,False,173,1.396,83,[],[],"[(1112, 902)]",[],[1],[117],[1.95],"[640.0, 512.0]",vertical,"(890.0, 262.0)",[0.5333333333333333],[0.542],1,809.962
3,False,174,0.457,27,[],[],"[(1105, 900)]",[],[1],[61],[1.0166666666666666],"[640.0, 512.0]",vertical,"(890.0, 262.0)",[0.8833333333333333],[0.539],1,813.922
3,False,175,1.447,86,[],[],"[(1120, 900)]",[],[1],[119],[1.9833333333333334],"[640.0, 512.0]",vertical,"(390.0, 762.0)",[1.1],[0.525],1,817.323
3,False,176,0.689,41,[],[],"[(1093, 913)]",[],[1],[76],[1.2666666666666666],"[640.0, 512.0]",vertical,"(890.0, 762.0)",[1.3666666666666667],[0.554],1,821.852
3,False,177,0.777,46,[],[],"[(1130, 878)]",[],[1],[76],[1.2666666666666666],"[640.0, 512.0]",horizontal,"(890.0, 262.0)",[1.4833333333333334],[0.475],1,825.979
3,False,178,0.55,33,[],[],"[(1083, 894)]",[],[1],[66],[1.1],"[640.0, 512.0]",horizontal,"(890.0, 262.0)",[1.6833333333333333],[0.528],1,830.176
3,False,179,0.684,41,[],[],"[(1093, 898)]",[],[1],[77],[1.2833333333333332],"[640.0, 512.0]",vertical,"(390.0, 262.0)",[1.2166666666666666],[0.572],1,834.478
3,False,180,0.403,24,[],[],"[(1091, 888)]",[],[1],[62],[1.0333333333333332],"[640.0, 512.0]",vertical,"(890.0, 262.0)",[0.6],[0.605],1,838.512
4,False,181,0.461,27,[],[],"[(1087, 923)]",[],[1],[69],[1.15],"[640.0, 512.0]",vertical,"(890.0, 762.0)",[1.05],[0.668],1,841.765
4,False,182,0.786,47,[],[],"[(1093, 895)]",[],[1],[83],[1.3833333333333333],"[640.0, 512.0]",horizontal,"(890.0, 262.0)",[1.4666666666666666],[0.57],1,845.491
4,False,183,1.047,62,[],[],"[(1124, 881)]",[],[1],[94],[1.5666666666666667],"[640.0, 512.0]",vertical,"(890.0, 262.0)",[1.5333333333333332],[0.509],1,849.793
4,False,184,1.413,84,[],[],"[(1124, 877)]",[],[1],[113],[1.8833333333333333],"[640.0, 512.0]",vertical,"(890.0, 262.0)",[1.5833333333333333],[0.461],1,854.375
4,False,185,0.526,31,[],[],"[(1087, 904)]",[],[1],[63],[1.05],"[640.0, 512.0]",vertical,"(890.0, 762.0)",[0.9],[0.512],1,859.356
4,False,186,0.379,22,[],[],"[(1095, 903)]",[],[1],[56],[0.9333333333333333],"[640.0, 512.0]",horizontal,"(890.0, 762.0)",[0.5166666666666666],[0.537],1,862.84
4,False,187,0.427,25,[],[],"[(1116, 881)]",[],[1],[59],[0.9833333333333333],"[640.0, 512.0]",horizontal,"(890.0, 762.0)",[1.6666666666666667],[0.549],1,865.796
4,False,188,0.946,56,[],[],"[(1087, 902)]",[],[1],[88],[1.4666666666666666],"[640.0, 512.0]",horizontal,"(390.0, 262.0)",[0.6333333333333333],[0.51],1,869.988
4,False,189,0.408,24,[],[],"[(1081, 906)]",[],[1],[58],[0.9666666666666667],"[640.0, 512.0]",vertical,"(390.0, 262.0)",[1.45],[0.54],1,873.629
4,False,190,0.674,40,[],[],"[(1093, 901)]",[],[1],[74],[1.2333333333333334],"[640.0, 512.0]",horizontal,"(390.0, 262.0)",[1.1333333333333333],[0.539],1,877.549
4,False,191,0.673,40,[],[],"[(1093, 894)]",[],[1],[74],[1.2333333333333334],"[640.0, 512.0]",vertical,"(890.0, 762.0)",[0.7833333333333333],[0.545],1,881.458
4,False,192,0.394,23,[],[],"[(1100, 886)]",[],[1],[57],[0.95],"[640.0, 512.0]",horizontal,"(890.0, 262.0)",[0.6333333333333333],[0.541],1,884.987
4,False,193,0.503,30,[],[],"[(1087, 894)]",[],[1],[62],[1.0333333333333332],"[640.0, 512.0]",horizontal,"(890.0, 262.0)",[1.0],[0.512],1,888.124
4,False,194,0.895,53,[],[],"[(1081, 899)]",[],[1],[88],[1.4666666666666666],"[640.0, 512.0]",horizontal,"(890.0, 262.0)",[1.2833333333333332],[0.563],1,891.721
4,False,195,1.217,73,[],[],"[(1093, 918)]",[],[1],[107],[1.7833333333333332],"[640.0, 512.0]",horizontal,"(890.0, 262.0)",[1.4],[0.542],1,895.969
4,False,196,1.337,80,[],[],"[(1126, 897)]",[],[1],[128],[2.1333333333333333],"[640.0, 512.0]",vertical,"(890.0, 762.0)",[1.4666666666666666],[0.772],1,900.641
4,False,197,0.36,21,[],[],"[(1099, 898)]",[],[1],[58],[0.9666666666666667],"[640.0, 512.0]",vertical,"(390.0, 762.0)",[1.2833333333333332],[0.595],1,905.766
4,False,198,0.996,59,[],[],"[(1093, 907)]",[],[1],[94],[1.5666666666666667],"[640.0, 512.0]",horizontal,"(390.0, 762.0)",[1.6666666666666667],[0.558],1,909.512
4,False,199,1.116,66,[],[],"[(1080, 908)]",[],[1],[100],[1.6666666666666667],"[640.0, 512.0]",vertical,"(390.0, 262.0)",[0.8833333333333333],[0.554],1,914.261
4,False,200,0.432,25,[],[],"[(1123, 910)]",[],[1],[58],[0.9666666666666667],"[640.0, 512.0]",vertical,"(390.0, 262.0)",[1.45],[0.523],1,918.396
4,False,201,0.918,55,[],[],"[(1094, 897)]",[],[1],[105],[1.75],"[640.0, 512.0]",vertical,"(390.0, 262.0)",[1.15],[0.798],0,922.312
4,False,202,1.429,85,[],[],"[(1148, 871)]",[],[1],[122],[2.033333333333333],"[640.0, 512.0]",horizontal,"(390.0, 762.0)",[1.4833333333333334],[0.593],1,926.756
4,False,203,0.639,38,[],[],"[(1112, 886)]",[],[1],[73],[1.2166666666666666],"[640.0, 512.0]",vertical,"(390.0, 762.0)",[1.2166666666666666],[0.557],1,931.797
4,False,204,0.54,32,[],[],"[(1093, 892)]",[],[1],[82],[1.3666666666666667],"[640.0, 512.0]",horizontal,"(890.0, 762.0)",[1.5166666666666666],[0.8],0,935.747
4,False,205,1.132,67,[],[],"[(1099, 913)]",[],[1],[115],[1.9166666666666667],"[640.0, 512.0]",horizontal,"(390.0, 762.0)",[0.5],[0.77],1,940.164
4,False,206,0.755,45,[],[],"[(1100, 889)]",[],[1],[80],[1.3333333333333333],"[640.0, 512.0]",vertical,"(890.0, 262.0)",[0.85],[0.564],1,945.352
4,False,207,0.308,18,[],[],"[(1103, 889)]",[],[1],[54],[0.9],"[640.0, 512.0]",horizontal,"(390.0, 762.0)",[1.4333333333333333],[0.571],1,949.046
4,False,208,0.909,54,[],[],"[(1102, 902)]",[],[1],[87],[1.45],"[640.0, 512.0]",vertical,"(390.0, 262.0)",[1.3166666666666667],[0.522],1,952.864
4,False,209,0.356,21,[],[],"[(1098, 902)]",[],[1],[53],[0.8833333333333333],"[640.0, 512.0]",vertical,"(890.0, 762.0)",[1.45],[0.506],1,957.097
4,False,210,1.316,78,[],[],"[(1113, 909)]",[],[1],[114],[1.9],"[640.0, 512.0]",vertical,"(890.0, 262.0)",[1.6166666666666667],[0.57],1,960.895
4,False,211,0.651,39,[],[],"[(1081, 899)]",[],[1],[84],[1.4],"[640.0, 512.0]",vertical,"(390.0, 762.0)",[1.2333333333333334],[0.726],1,965.864
4,False,212,0.572,34,[],[],"[(1081, 880)]",[],[1],[67],[1.1166666666666667],"[640.0, 512.0]",vertical,"(390.0, 762.0)",[1.0166666666666666],[0.526],1,970.104
4,False,213,0.91,54,[],[],"[(1080, 893)]",[],[1],[85],[1.4166666666666667],"[640.0, 512.0]",horizontal,"(390.0, 262.0)",[1.55],[0.497],1,973.859
4,False,214,0.314,18,[],[],"[(1091, 903)]",[],[1],[50],[0.8333333333333334],"[640.0, 512.0]",horizontal,"(390.0, 762.0)",[1.6666666666666667],[0.511],1,978.344
4,False,215,0.936,56,[],[],"[(1084, 903)]",[],[1],[90],[1.5],"[640.0, 512.0]",vertical,"(890.0, 262.0)",[1.6833333333333333],[0.543],1,982.341
4,False,216,0.774,46,[],[],"[(1087, 903)]",[],[1],[80],[1.3333333333333333],"[640.0, 512.0]",horizontal,"(890.0, 762.0)",[1.5833333333333333],[0.541],1,987.213
4,False,217,1.006,60,[],[],"[(1091, 899)]",[],[1],[92],[1.5333333333333332],"[640.0, 512.0]",vertical,"(890.0, 762.0)",[1.3],[0.514],1,991.718
4,False,218,1.096,65,[],[],"[(1095, 877)]",[],[1],[100],[1.6666666666666667],"[640.0, 512.0]",horizontal,"(390.0, 762.0)",[0.9833333333333333],[0.557],1,996.063
4,False,219,0.761,45,[],[],"[(1080, 902)]",[],[1],[79],[1.3166666666666667],"[640.0, 512.0]",horizontal,"(890.0, 262.0)",[0.6666666666666666],[0.535],1,1000.178
4,False,220,0.319,19,[],[],"[(1087, 903)]",[],[1],[60],[1.0],"[640.0, 512.0]",horizontal,"(390.0, 762.0)",[1.2833333333333332],[0.656],1,1003.66
4,False,221,0.554,33,[],[],"[(1094, 904)]",[],[1],[67],[1.1166666666666667],"[640.0, 512.0]",horizontal,"(890.0, 262.0)",[0.6333333333333333],[0.54],1,1007.449
4,False,222,1.43,85,[],[],"[(1084, 902)]",[],[1],[120],[2.0],"[640.0, 512.0]",vertical,"(890.0, 762.0)",[0.6333333333333333],[0.556],1,1012.114
4,False,223,1.154,69,[],[],"[(1092, 904)]",[],[1],[109],[1.8166666666666667],"[640.0, 512.0]",horizontal,"(390.0, 262.0)",[0.9],[0.635],1,1016.248
4,False,224,0.488,29,[],[],"[(1124, 863)]",[],[1],[68],[1.1333333333333333],"[640.0, 512.0]",vertical,"(390.0, 762.0)",[1.5],[0.623],1,1020.472
4,False,225,1.036,62,[],[],"[(1091, 899)]",[],[1],[94],[1.5666666666666667],"[640.0, 512.0]",vertical,"(890.0, 262.0)",[0.85],[0.513],1,1024.809
4,False,226,0.875,52,[],[],"[(1085, 899)]",[],[1],[84],[1.4],"[640.0, 512.0]",vertical,"(890.0, 262.0)",[1.6],[0.509],1,1028.726
4,False,227,1.191,71,[],[],"[(1123, 884)]",[],[1],[109],[1.8166666666666667],"[640.0, 512.0]",vertical,"(390.0, 262.0)",[1.6333333333333333],[0.623],1,1033.213
4,False,228,0.847,50,[],[],"[(1095, 880)]",[],[1],[85],[1.4166666666666667],"[640.0, 512.0]",vertical,"(890.0, 762.0)",[0.8833333333333333],[0.559],1,1038.164
4,False,229,1.451,87,[],[],"[(1121, 875)]",[],[1],[121],[2.0166666666666666],"[640.0, 512.0]",vertical,"(390.0, 762.0)",[1.0833333333333333],[0.541],1,1042.045
4,False,230,1.129,67,[],[],"[(1092, 889)]",[],[1],[103],[1.7166666666666666],"[640.0, 512.0]",horizontal,"(890.0, 262.0)",[0.85],[0.571],1,1046.643
4,False,231,1.233,73,[],[],"[(1082, 889)]",[],[1],[107],[1.7833333333333332],"[640.0, 512.0]",vertical,"(890.0, 762.0)",[0.9666666666666667],[0.539],1,1050.728
4,False,232,1.094,65,[],[],"[(1138, 875)]",[],[1],[100],[1.6666666666666667],"[640.0, 512.0]",vertical,"(890.0, 762.0)",[1.1166666666666667],[0.555],1,1054.979
4,False,233,0.422,25,[],[],"[(1118, 904)]",[],[1],[57],[0.95],"[640.0, 512.0]",horizontal,"(890.0, 262.0)",[1.05],[0.512],1,1059.264
4,False,234,0.911,54,[],[],"[(1142, 885)]",[],[1],[87],[1.45],"[640.0, 512.0]",vertical,"(890.0, 762.0)",[1.4666666666666666],[0.521],1,1062.777
4,False,235,1.5,90,[],[],"[(1103, 876)]",[],[1],[126],[2.1],"[640.0, 512.0]",horizontal,"(890.0, 762.0)",[1.6333333333333333],[0.57],1,1067.158
4,False,236,0.749,44,[],[],"[(1120, 903)]",[],[1],[84],[1.4],"[640.0, 512.0]",vertical,"(890.0, 262.0)",[0.5833333333333334],[0.628],1,1072.392
4,False,237,0.483,28,[],[],"[(1141, 885)]",[],[1],[60],[1.0],"[640.0, 512.0]",vertical,"(390.0, 262.0)",[1.5166666666666666],[0.504],1,1075.855
4,False,238,0.687,41,[],[],"[(1091, 865)]",[],[1],[76],[1.2666666666666666],"[640.0, 512.0]",horizontal,"(390.0, 262.0)",[0.7333333333333333],[0.557],1,1083.083
4,False,239,1.252,75,[],[],"[(1082, 893)]",[],[1],[118],[1.9666666666666666],"[640.0, 512.0]",vertical,"(890.0, 762.0)",[1.0666666666666667],[0.684],1,1086.74
4,False,240,1.395,83,[],[],"[(1128, 901)]",[],[1],[133],[2.216666666666667],"[640.0, 512.0]",vertical,"(890.0, 762.0)",[0.6166666666666667],"[0, 0.82]",0,1091.309
5,False,241,1.196,71,[],[],"[(1129, 885)]",[],[1],[102],[1.7],"[640.0, 512.0]",vertical,"(890.0, 762.0)",[1.2833333333333332],[0.489],1,1098.346
5,False,242,0.99,59,[],[],"[(1122, 900)]",[],[1],[94],[1.5666666666666667],"[640.0, 512.0]",horizontal,"(390.0, 262.0)",[0.6666666666666666],[0.555],1,1102.877
5,False,243,1.033,61,[],[],"[(1129, 884)]",[],[1],[96],[1.6],"[640.0, 512.0]",vertical,"(390.0, 762.0)",[1.2833333333333332],[0.554],1,1106.645
5,False,244,1.09,65,[],[],"[(1100, 886)]",[],[1],[103],[1.7166666666666666],"[640.0, 512.0]",vertical,"(390.0, 762.0)",[0.75],[0.607],1,1110.949
5,False,245,0.673,40,[],[],"[(1088, 899)]",[],[1],[76],[1.2666666666666666],"[640.0, 512.0]",horizontal,"(390.0, 762.0)",[0.5833333333333334],[0.572],1,1115.058
5,False,246,0.688,41,[],[],"[(1122, 886)]",[],[1],[76],[1.2666666666666666],"[640.0, 512.0]",horizontal,"(390.0, 762.0)",[1.2166666666666666],[0.553],1,1118.429
5,False,247,0.61,36,[],[],"[(1100, 883)]",[],[1],[71],[1.1833333333333333],"[640.0, 512.0]",vertical,"(890.0, 262.0)",[1.5],[0.56],1,1122.428
5,False,248,1.03,61,[],[],"[(1086, 875)]",[],[1],[93],[1.55],"[640.0, 512.0]",vertical,"(890.0, 762.0)",[1.6],[0.511],1,1126.59
5,False,249,0.452,27,[],[],"[(1098, 903)]",[],[1],[65],[1.0833333333333333],"[640.0, 512.0]",horizontal,"(390.0, 762.0)",[0.7666666666666666],[0.607],1,1131.424
5,False,250,1.005,60,[],[],"[(1122, 888)]",[],[1],[95],[1.5833333333333333],"[640.0, 512.0]",vertical,"(390.0, 762.0)",[1.6666666666666667],[0.556],1,1134.84
5,False,251,1.413,84,[],[],"[(1081, 903)]",[],[1],[117],[1.95],"[640.0, 512.0]",horizontal,"(890.0, 762.0)",[1.1166666666666667],[0.522],1,1139.577
5,False,252,1.396,83,[],[],"[(1105, 905)]",[],[1],[118],[1.9666666666666666],"[640.0, 512.0]",vertical,"(390.0, 762.0)",[0.5833333333333334],[0.552],1,1144.134
5,False,253,0.682,40,[],[],"[(1094, 907)]",[],[1],[72],[1.2],"[640.0, 512.0]",vertical,"(390.0, 262.0)",[0.6166666666666667],[0.51],1,1148.161
5,False,254,0.627,37,[],[],"[(1087, 904)]",[],[1],[87],[1.45],"[640.0, 512.0]",horizontal,"(390.0, 262.0)",[1.0166666666666666],[0.803],0,1151.468
5,False,255,0.517,31,[],[],"[(1142, 850)]",[],[1],[65],[1.0833333333333333],"[640.0, 512.0]",vertical,"(890.0, 762.0)",[1.05],[0.543],1,1155.541
5,False,256,0.92,55,[],[],"[(1087, 903)]",[],[1],[94],[1.5666666666666667],"[640.0, 512.0]",vertical,"(390.0, 762.0)",[0.6333333333333333],[0.63],1,1159.228
5,False,257,0.762,45,[],[],"[(1091, 875)]",[],[1],[95],[1.5833333333333333],"[640.0, 512.0]",horizontal,"(390.0, 762.0)",[1.4],[0.8],0,1162.99
5,False,258,0.536,32,[],[],"[(1130, 876)]",[],[1],[70],[1.1666666666666667],"[640.0, 512.0]",horizontal,"(890.0, 762.0)",[0.7166666666666667],[0.603],1,1167.459
5,False,259,1.411,84,[],[],"[(1093, 889)]",[],[1],[119],[1.9833333333333334],"[640.0, 512.0]",horizontal,"(890.0, 762.0)",[0.6],[0.556],1,1170.875
5,False,260,1.349,80,[],[],"[(1101, 893)]",[],[1],[113],[1.8833333333333333],"[640.0, 512.0]",horizontal,"(390.0, 762.0)",[1.4333333333333333],[0.527],1,1175.053
5,False,261,1.13,67,[],[],"[(1125, 875)]",[],[1],[109],[1.8166666666666667],"[640.0, 512.0]",vertical,"(390.0, 762.0)",[1.1333333333333333],[0.673],1,1179.843
5,False,262,0.512,30,[],[],"[(1106, 903)]",[],[1],[71],[1.1833333333333333],"[640.0, 512.0]",vertical,"(390.0, 262.0)",[1.55],[0.655],1,1184.273
5,False,263,0.645,38,[],[],"[(1093, 882)]",[],[1],[72],[1.2],"[640.0, 512.0]",horizontal,"(890.0, 262.0)",[0.8333333333333334],[0.542],1,1188.493
5,False,264,0.943,56,[],[],"[(1099, 880)]",[],[1],[93],[1.55],"[640.0, 512.0]",vertical,"(390.0, 762.0)",[1.0333333333333332],[0.589],1,1192.065
5,False,265,1.403,84,[],[],"[(1129, 875)]",[],[1],[130],[2.1666666666666665],"[640.0, 512.0]",horizontal,"(390.0, 762.0)",[0.75],[0.734],1,1196.198
5,False,266,0.599,35,[],[],"[(1097, 886)]",[],[1],[71],[1.1833333333333333],"[640.0, 512.0]",vertical,"(390.0, 762.0)",[0.55],[0.574],1,1200.629
5,False,267,1.145,68,[],[],"[(1081, 889)]",[],[1],[101],[1.6833333333333333],"[640.0, 512.0]",horizontal,"(890.0, 262.0)",[1.4],[0.521],1,1203.821
5,False,268,0.821,49,[],[],"[(1099, 908)]",[],[1],[88],[1.4666666666666666],"[640.0, 512.0]",horizontal,"(890.0, 262.0)",[0.5833333333333334],[0.619],1,1208.428
5,False,269,0.717,43,[],[],"[(1111, 880)]",[],[1],[93],[1.55],"[640.0, 512.0]",vertical,"(390.0, 762.0)",[0.9666666666666667],[0.802],0,1211.994
5,False,270,0.469,28,[],[],"[(1096, 875)]",[],[1],[60],[1.0],"[640.0, 512.0]",horizontal,"(890.0, 262.0)",[1.0666666666666667],[0.512],1,1216.004
5,False,271,0.417,25,[],[],"[(1122, 898)]",[],[1],[59],[0.9833333333333333],"[640.0, 512.0]",vertical,"(890.0, 262.0)",[0.75],[0.541],1,1219.789
5,False,272,0.667,40,[],[],"[(1139, 893)]",[],[1],[90],[1.5],"[640.0, 512.0]",horizontal,"(890.0, 762.0)",[0.5166666666666666],[0.8],0,1222.989
5,False,273,0.461,27,[],[],"[(1122, 859)]",[],[1],[77],[1.2833333333333332],"[640.0, 512.0]",vertical,"(890.0, 262.0)",[0.8666666666666667],[0.811],0,1226.556
5,False,274,0.83,49,[],[],"[(1107, 889)]",[],[1],[87],[1.45],"[640.0, 512.0]",horizontal,"(890.0, 762.0)",[1.5],[0.603],1,1230.685
5,False,275,1.062,63,[],[],"[(1088, 898)]",[],[1],[92],[1.5333333333333332],"[640.0, 512.0]",vertical,"(890.0, 262.0)",[1.4666666666666666],[0.457],1,1235.232
5,False,276,1.243,74,[],[],"[(1115, 881)]",[],[1],[109],[1.8166666666666667],"[640.0, 512.0]",horizontal,"(390.0, 762.0)",[1.2333333333333334],[0.552],1,1239.765
5,False,277,1.286,77,[],[],"[(1129, 875)]",[],[1],[110],[1.8333333333333333],"[640.0, 512.0]",horizontal,"(390.0, 262.0)",[1.0333333333333332],[0.522],1,1244.381
5,False,278,0.608,36,[],[],"[(1101, 900)]",[],[1],[67],[1.1166666666666667],"[640.0, 512.0]",horizontal,"(390.0, 262.0)",[1.05],[0.491],1,1248.78
5,False,279,1.231,73,[],[],"[(1131, 893)]",[],[1],[108],[1.8],"[640.0, 512.0]",vertical,"(390.0, 762.0)",[1.4],[0.558],1,1252.544
5,False,280,0.333,19,[],[],"[(1096, 873)]",[],[1],[54],[0.9],"[640.0, 512.0]",vertical,"(390.0, 762.0)",[0.95],[0.565],1,1257.237
5,False,281,0.796,47,[],[],"[(1100, 909)]",[],[1],[84],[1.4],"[640.0, 512.0]",horizontal,"(390.0, 762.0)",[0.5],[0.602],1,1260.709
5,False,282,0.404,24,[],[],"[(1097, 886)]",[],[1],[58],[0.9666666666666667],"[640.0, 512.0]",horizontal,"(890.0, 762.0)",[0.8],[0.544],1,1264.225
5,False,283,1.202,72,[],[],"[(1117, 917)]",[],[1],[104],[1.7333333333333334],"[640.0, 512.0]",horizontal,"(890.0, 262.0)",[0.5666666666666667],[0.51],1,1267.595
5,False,284,0.791,47,[],[],"[(1104, 894)]",[],[1],[77],[1.2833333333333332],"[640.0, 512.0]",vertical,"(890.0, 262.0)",[0.8666666666666667],[0.478],1,1271.465
5,False,285,0.494,29,[],[],"[(1102, 906)]",[],[1],[66],[1.1],"[640.0, 512.0]",horizontal,"(390.0, 262.0)",[0.5],[0.606],1,1275.214
5,False,286,0.675,40,[],[],"[(1099, 893)]",[],[1],[74],[1.2333333333333334],"[640.0, 512.0]",vertical,"(890.0, 762.0)",[1.4333333333333333],[0.544],1,1278.446
5,False,287,0.794,47,[],[],"[(1093, 871)]",[],[1],[90],[1.5],"[640.0, 512.0]",vertical,"(390.0, 762.0)",[0.5333333333333333],[0.686],1,1282.785
5,False,288,0.854,51,[],[],"[(1110, 884)]",[],[1],[82],[1.3666666666666667],"[640.0, 512.0]",vertical,"(890.0, 762.0)",[1.6166666666666667],[0.496],1,1286.413
5,False,289,0.693,41,[],[],"[(1109, 880)]",[],[1],[75],[1.25],"[640.0, 512.0]",vertical,"(890.0, 762.0)",[1.2333333333333334],[0.54],1,1290.932
5,False,290,1.344,80,[],[],"[(1123, 919)]",[],[1],[114],[1.9],"[640.0, 512.0]",vertical,"(390.0, 762.0)",[1.0],[0.543],1,1294.932
5,False,291,0.43,25,[],[],"[(1113, 893)]",[],[1],[69],[1.15],"[640.0, 512.0]",vertical,"(390.0, 262.0)",[1.6666666666666667],[0.702],1,1299.384
5,False,292,0.824,49,[],[],"[(1123, 892)]",[],[1],[84],[1.4],"[640.0, 512.0]",horizontal,"(890.0, 762.0)",[1.2833333333333332],[0.561],1,1303.71
5,False,293,1.42,85,[],[],"[(1136, 867)]",[],[1],[120],[2.0],"[640.0, 512.0]",vertical,"(890.0, 262.0)",[0.7],[0.56],1,1309.267
5,False,294,1.405,84,[],[],"[(1105, 880)]",[],[1],[119],[1.9833333333333334],"[640.0, 512.0]",vertical,"(890.0, 762.0)",[1.1333333333333333],[0.558],1,1314.983
5,False,295,0.305,18,[],[],"[(1112, 900)]",[],[1],[60],[1.0],"[640.0, 512.0]",horizontal,"(390.0, 762.0)",[1.15],[0.667],1,1320.444
5,False,296,0.556,33,[],[],"[(1075, 894)]",[],[1],[66],[1.1],"[640.0, 512.0]",horizontal,"(890.0, 762.0)",[0.7333333333333333],[0.525],1,1324.102
5,False,297,0.662,39,[],[],"[(1115, 918)]",[],[1],[77],[1.2833333333333332],"[640.0, 512.0]",horizontal,"(890.0, 762.0)",[1.0666666666666667],[0.599],1,1327.719
5,False,298,1.022,61,[],[],"[(1105, 889)]",[],[1],[96],[1.6],"[640.0, 512.0]",horizontal,"(890.0, 762.0)",[1.2333333333333334],[0.56],1,1331.575
5,False,299,1.199,71,[],[],"[(1080, 896)]",[],[1],[108],[1.8],"[640.0, 512.0]",vertical,"(890.0, 262.0)",[1.5666666666666667],[0.589],1,1335.883
5,False,300,1.278,76,[],[],"[(1102, 864)]",[],[1],[111],[1.8499999999999999],"[640.0, 512.0]",vertical,"(390.0, 262.0)",[0.55],[0.559],1,1340.812
6,False,301,0.811,48,[],[],"[(1129, 886)]",[],[1],[83],[1.3833333333333333],"[640.0, 512.0]",vertical,"(890.0, 262.0)",[0.85],[0.558],1,1344.711
6,False,302,1.08,64,[],[],"[(1111, 886)]",[],[1],[96],[1.6],"[640.0, 512.0]",vertical,"(890.0, 262.0)",[0.75],[0.507],1,1348.459
6,False,303,0.457,27,[],[],"[(1105, 896)]",[],[1],[61],[1.0166666666666666],"[640.0, 512.0]",vertical,"(390.0, 762.0)",[1.2],[0.541],1,1352.363
6,False,304,1.223,73,[],[],"[(1125, 888)]",[],[1],[109],[1.8166666666666667],"[640.0, 512.0]",vertical,"(890.0, 762.0)",[0.8833333333333333],[0.573],1,1357.31
6,False,305,0.888,53,[],[],"[(1104, 894)]",[],[1],[87],[1.45],"[640.0, 512.0]",horizontal,"(890.0, 262.0)",[1.2],[0.538],1,1361.443
6,False,306,0.829,49,[],[],"[(1099, 893)]",[],[1],[85],[1.4166666666666667],"[640.0, 512.0]",vertical,"(890.0, 762.0)",[1.5166666666666666],[0.574],1,1365.628
6,False,307,0.437,26,[],[],"[(1099, 908)]",[],[1],[60],[1.0],"[640.0, 512.0]",horizontal,"(390.0, 262.0)",[1.4166666666666667],[0.543],1,1370.077
6,False,308,0.821,49,[],[],"[(1103, 903)]",[],[1],[85],[1.4166666666666667],"[640.0, 512.0]",horizontal,"(390.0, 262.0)",[1.1166666666666667],[0.573],1,1374.08
6,False,309,1.124,67,[],[],"[(1075, 896)]",[],[1],[100],[1.6666666666666667],"[640.0, 512.0]",vertical,"(890.0, 262.0)",[0.9166666666666666],[0.526],1,1378.246
6,False,310,0.667,40,[],[],"[(1102, 893)]",[],[1],[79],[1.3166666666666667],"[640.0, 512.0]",horizontal,"(890.0, 762.0)",[1.2333333333333334],[0.623],1,1382.396
6,False,311,1.392,83,[],[],"[(1105, 894)]",[],[1],[128],[2.1333333333333333],"[640.0, 512.0]",horizontal,"(390.0, 762.0)",[0.7166666666666667],[0.717],1,1386.421
6,False,312,0.938,56,[],[],"[(1093, 894)]",[],[1],[106],[1.7666666666666666],"[640.0, 512.0]",horizontal,"(390.0, 262.0)",[1.15],[0.813],0,1390.876
6,False,313,1.288,77,[],[],"[(1095, 870)]",[],[1],[115],[1.9166666666666667],"[640.0, 512.0]",vertical,"(890.0, 762.0)",[1.3333333333333333],[0.609],1,1397.658
6,False,314,0.704,42,[],[],"[(1105, 865)]",[],[1],[79],[1.3166666666666667],"[640.0, 512.0]",horizontal,"(390.0, 762.0)",[1.3166666666666667],[0.586],1,1402.527
6,False,315,0.764,45,[],[],"[(1105, 875)]",[],[1],[83],[1.3833333333333333],"[640.0, 512.0]",horizontal,"(890.0, 262.0)",[0.5166666666666666],[0.609],1,1406.747
6,False,316,0.434,26,[],[],"[(1087, 897)]",[],[1],[59],[0.9833333333333333],"[640.0, 512.0]",vertical,"(890.0, 762.0)",[0.7],[0.522],1,1410.17
6,False,317,0.694,41,[],[],"[(1104, 887)]",[],[1],[74],[1.2333333333333334],"[640.0, 512.0]",horizontal,"(390.0, 262.0)",[1.5833333333333333],[0.523],1,1413.394
6,False,318,0.851,51,[],[],"[(1093, 884)]",[],[1],[79],[1.3166666666666667],"[640.0, 512.0]",vertical,"(890.0, 262.0)",[1.4333333333333333],[0.441],1,1417.752
6,False,319,0.38,22,[],[],"[(1106, 884)]",[],[1],[62],[1.0333333333333332],"[640.0, 512.0]",vertical,"(890.0, 762.0)",[0.9],[0.636],1,1428.35
6,False,320,0.446,26,[],[],"[(1105, 913)]",[],[1],[59],[0.9833333333333333],"[640.0, 512.0]",vertical,"(890.0, 762.0)",[1.55],[0.528],1,1431.837
6,False,321,1.349,80,[],[],"[(1105, 893)]",[],[1],[112],[1.8666666666666667],"[640.0, 512.0]",vertical,"(390.0, 262.0)",[1.3333333333333333],[0.508],1,1435.829
6,False,322,0.848,50,[],[],"[(1121, 908)]",[],[1],[83],[1.3833333333333333],"[640.0, 512.0]",horizontal,"(890.0, 262.0)",[1.4333333333333333],[0.525],1,1440.53
6,False,323,1.213,72,[],[],"[(1106, 910)]",[],[1],[110],[1.8333333333333333],"[640.0, 512.0]",vertical,"(890.0, 262.0)",[1.4833333333333334],[0.605],1,1444.917
6,False,324,1.382,82,[],[],"[(1113, 870)]",[],[1],[110],[1.8333333333333333],"[640.0, 512.0]",horizontal,"(890.0, 262.0)",[1.0333333333333332],[0.439],1,1449.793
6,False,325,1.125,67,[],[],"[(1090, 903)]",[],[1],[100],[1.6666666666666667],"[640.0, 512.0]",vertical,"(890.0, 762.0)",[1.1833333333333333],[0.525],1,1455.545
6,False,326,0.425,25,[],[],"[(1105, 884)]",[],[1],[60],[1.0],"[640.0, 512.0]",horizontal,"(390.0, 762.0)",[1.1833333333333333],[0.559],1,1460.028
6,False,327,1.347,80,[],[],"[(1095, 878)]",[],[1],[118],[1.9666666666666666],"[640.0, 512.0]",horizontal,"(390.0, 262.0)",[1.15],[0.6],1,1463.754
6,False,328,1.446,86,[],[],"[(1093, 886)]",[],[1],[118],[1.9666666666666666],"[640.0, 512.0]",vertical,"(390.0, 762.0)",[1.4333333333333333],[0.517],1,1468.372
6,False,329,1.197,71,[],[],"[(1095, 870)]",[],[1],[108],[1.8],"[640.0, 512.0]",horizontal,"(890.0, 262.0)",[0.5333333333333333],[0.59],1,1474.228
6,False,330,1.238,74,[],[],"[(1087, 890)]",[],[1],[106],[1.7666666666666666],"[640.0, 512.0]",horizontal,"(390.0, 262.0)",[1.25],[0.51],1,1478.066
6,False,331,0.979,58,[],[],"[(1085, 912)]",[],[1],[92],[1.5333333333333332],"[640.0, 512.0]",vertical,"(890.0, 762.0)",[1.4],[0.54],1,1482.908
6,False,332,1.365,81,[],[],"[(1083, 911)]",[],[1],[115],[1.9166666666666667],"[640.0, 512.0]",vertical,"(890.0, 762.0)",[0.9333333333333333],[0.54],1,1487.436
6,False,333,1.487,89,[],[],"[(1105, 891)]",[],[1],[139],[2.3166666666666664],"[640.0, 512.0]",vertical,"(890.0, 762.0)",[1.2],[0.802],0,1491.769
6,False,334,0.463,27,[],[],"[(1112, 856)]",[],[1],[58],[0.9666666666666667],"[640.0, 512.0]",vertical,"(390.0, 762.0)",[1.5333333333333332],[0.492],1,1496.796
6,False,335,0.603,36,[],[],"[(1120, 879)]",[],[1],[72],[1.2],"[640.0, 512.0]",horizontal,"(890.0, 762.0)",[1.25],[0.57],1,1519.05
6,False,336,1.364,81,[],[],"[(1143, 886)]",[],[1],[112],[1.8666666666666667],"[640.0, 512.0]",horizontal,"(890.0, 262.0)",[1.3666666666666667],[0.489],1,1522.977
6,False,337,0.703,42,[],[],"[(1111, 892)]",[],[1],[75],[1.25],"[640.0, 512.0]",horizontal,"(390.0, 262.0)",[1.05],[0.527],1,1527.644
6,False,338,1.021,61,[],[],"[(1105, 884)]",[],[1],[111],[1.8499999999999999],"[640.0, 512.0]",horizontal,"(390.0, 262.0)",[1.1166666666666667],[0.807],0,1531.43
6,False,339,0.814,48,[],[],"[(1114, 893)]",[],[1],[80],[1.3333333333333333],"[640.0, 512.0]",horizontal,"(890.0, 262.0)",[1.0],[0.511],1,1535.942
6,False,340,0.803,48,[],[],"[(1112, 875)]",[],[1],[83],[1.3833333333333333],"[640.0, 512.0]",horizontal,"(390.0, 262.0)",[0.9166666666666666],[0.555],1,1540.099
6,False,341,0.668,40,[],[],"[(1104, 874)]",[],[1],[82],[1.3666666666666667],"[640.0, 512.0]",horizontal,"(890.0, 762.0)",[1.5333333333333332],[0.669],1,1543.89
6,False,342,0.846,50,[],[],"[(1090, 882)]",[],[1],[84],[1.4],"[640.0, 512.0]",vertical,"(390.0, 762.0)",[0.8],[0.543],1,1548.356
6,False,343,0.873,52,[],[],"[(1080, 880)]",[],[1],[102],[1.7],"[640.0, 512.0]",vertical,"(390.0, 762.0)",[1.1166666666666667],[0.807],0,1552.093
6,False,344,0.379,22,[],[],"[(1113, 875)]",[],[1],[56],[0.9333333333333333],"[640.0, 512.0]",vertical,"(890.0, 762.0)",[0.5833333333333334],[0.54],1,1556.473
6,False,345,0.661,39,[],[],"[(1093, 895)]",[],[1],[75],[1.25],"[640.0, 512.0]",vertical,"(390.0, 262.0)",[0.8666666666666667],[0.573],1,1561.41
6,False,346,0.53,31,[],[],"[(1098, 889)]",[],[1],[62],[1.0333333333333332],"[640.0, 512.0]",horizontal,"(390.0, 262.0)",[1.35],[0.492],1,1565.033
6,False,347,0.962,57,[],[],"[(1105, 897)]",[],[1],[96],[1.6],"[640.0, 512.0]",horizontal,"(390.0, 762.0)",[0.5666666666666667],[0.626],1,1568.948
6,False,348,0.728,43,[],[],"[(1102, 875)]",[],[1],[76],[1.2666666666666666],"[640.0, 512.0]",vertical,"(390.0, 262.0)",[0.7],[0.525],1,1572.613
6,False,349,0.485,29,[],[],"[(1106, 900)]",[],[1],[61],[1.0166666666666666],"[640.0, 512.0]",vertical,"(890.0, 262.0)",[1.2833333333333332],[0.511],1,1576.184
6,False,350,1.01,60,[],[],"[(1083, 885)]",[],[1],[90],[1.5],"[640.0, 512.0]",vertical,"(390.0, 262.0)",[0.8333333333333334],[0.483],1,1580.028
6,False,351,1.298,77,[],[],"[(1081, 876)]",[],[1],[111],[1.8499999999999999],"[640.0, 512.0]",horizontal,"(390.0, 262.0)",[1.0833333333333333],[0.544],1,1583.871
6,False,352,0.432,25,[],[],"[(1099, 903)]",[],[1],[59],[0.9833333333333333],"[640.0, 512.0]",horizontal,"(390.0, 262.0)",[0.95],[0.541],1,1588.316
6,False,353,1.423,85,[],[],"[(1090, 879)]",[],[1],[118],[1.9666666666666666],"[640.0, 512.0]",vertical,"(890.0, 262.0)",[0.6333333333333333],[0.526],1,1591.779
6,False,354,1.417,85,[],[],"[(1111, 894)]",[],[1],[119],[1.9833333333333334],"[640.0, 512.0]",horizontal,"(890.0, 762.0)",[1.0666666666666667],[0.544],1,1595.9
6,False,355,1.422,85,[],[],"[(1116, 878)]",[],[1],[123],[2.05],"[640.0, 512.0]",vertical,"(890.0, 762.0)",[1.6333333333333333],[0.61],1,1600.433
6,False,356,0.785,47,[],[],"[(1087, 902)]",[],[1],[78],[1.3],"[640.0, 512.0]",horizontal,"(890.0, 262.0)",[0.7166666666666667],[0.494],1,1605.693
6,False,357,1.261,75,[],[],"[(1105, 888)]",[],[1],[114],[1.9],"[640.0, 512.0]",horizontal,"(890.0, 762.0)",[1.2833333333333332],[0.632],1,1609.24
6,False,358,1.092,65,[],[],"[(1106, 888)]",[],[1],[98],[1.6333333333333333],"[640.0, 512.0]",horizontal,"(890.0, 762.0)",[0.7333333333333333],[0.533],1,1613.933
6,False,359,0.664,39,[],[],"[(1137, 895)]",[],[1],[77],[1.2833333333333332],"[640.0, 512.0]",horizontal,"(390.0, 262.0)",[1.05],[0.617],1,1617.827
6,False,360,0.904,54,[],[],"[(1104, 858)]",[],[1],[91],[1.5166666666666666],"[640.0, 512.0]",vertical,"(390.0, 262.0)",[1.3166666666666667],[0.591],1,1621.726
7,False,361,0.663,39,[],[],"[(1112, 880)]",[],[1],[72],[1.2],"[640.0, 512.0]",horizontal,"(390.0, 262.0)",[1.0333333333333332],[0.53],1,1626.1
7,False,362,0.418,25,[],[],"[(1102, 870)]",[],[1],[60],[1.0],"[640.0, 512.0]",horizontal,"(390.0, 262.0)",[0.5833333333333334],[0.565],1,1631.267
7,False,363,0.498,29,[],[],"[(1111, 884)]",[],[1],[62],[1.0333333333333332],"[640.0, 512.0]",vertical,"(890.0, 262.0)",[1.55],[0.535],1,1634.467
7,False,364,0.898,53,[],[],"[(1122, 872)]",[],[1],[94],[1.5666666666666667],"[640.0, 512.0]",horizontal,"(890.0, 262.0)",[1.0],[0.656],1,1638.634
7,False,365,0.547,32,[],[],"[(1103, 900)]",[],[1],[66],[1.1],"[640.0, 512.0]",horizontal,"(390.0, 262.0)",[1.25],[0.54],1,1642.699
7,False,366,0.539,32,[],[],"[(1117, 884)]",[],[1],[69],[1.15],"[640.0, 512.0]",vertical,"(390.0, 262.0)",[0.5333333333333333],[0.59],1,1646.546
7,False,367,1.361,81,[],[],"[(1080, 889)]",[],[1],[123],[2.05],"[640.0, 512.0]",horizontal,"(890.0, 762.0)",[1.1],[0.668],1,1649.772
7,False,368,0.697,41,[],[],"[(1109, 887)]",[],[1],[76],[1.2666666666666666],"[640.0, 512.0]",horizontal,"(390.0, 762.0)",[1.4666666666666666],[0.556],1,1654.432
7,False,369,1.342,80,[],[],"[(1063, 911)]",[],[1],[112],[1.8666666666666667],"[640.0, 512.0]",vertical,"(890.0, 262.0)",[1.0166666666666666],[0.513],1,1658.667
7,False,370,0.781,46,[],[],"[(1082, 883)]",[],[1],[79],[1.3166666666666667],"[640.0, 512.0]",horizontal,"(390.0, 262.0)",[0.9],[0.524],1,1663.084
7,False,371,0.529,31,[],[],"[(1103, 874)]",[],[1],[65],[1.0833333333333333],"[640.0, 512.0]",horizontal,"(890.0, 262.0)",[0.7166666666666667],[0.543],1,1666.865
7,False,372,0.487,29,[],[],"[(1106, 883)]",[],[1],[64],[1.0666666666666667],"[640.0, 512.0]",horizontal,"(890.0, 762.0)",[0.9666666666666667],[0.561],1,1670.234
7,False,373,1.463,87,[],[],"[(1111, 881)]",[],[1],[134],[2.2333333333333334],"[640.0, 512.0]",horizontal,"(390.0, 262.0)",[0.5666666666666667],[0.746],1,1673.86
7,False,374,0.495,29,[],[],"[(1102, 874)]",[],[1],[68],[1.1333333333333333],"[640.0, 512.0]",horizontal,"(890.0, 762.0)",[1.0833333333333333],[0.622],1,1678.195
7,False,375,1.036,62,[],[],"[(1111, 884)]",[],[1],[92],[1.5333333333333332],"[640.0, 512.0]",vertical,"(890.0, 262.0)",[1.5333333333333332],[0.477],1,1681.914
7,False,376,1.406,84,[],[],"[(1127, 884)]",[],[1],[121],[2.0166666666666666],"[640.0, 512.0]",horizontal,"(390.0, 262.0)",[1.35],[0.593],1,1688.245
7,False,377,0.905,54,[],[],"[(1121, 884)]",[],[1],[95],[1.5833333333333333],"[640.0, 512.0]",horizontal,"(890.0, 762.0)",[1.2166666666666666],[0.665],1,1693.065
7,False,378,0.639,38,[],[],"[(1093, 868)]",[],[1],[66],[1.1],"[640.0, 512.0]",horizontal,"(890.0, 262.0)",[1.6666666666666667],[0.443],1,1697.869
7,False,379,0.941,56,[],[],"[(1093, 870)]",[],[1],[91],[1.5166666666666666],"[640.0, 512.0]",vertical,"(390.0, 262.0)",[1.3166666666666667],[0.56],1,1702.546
7,False,380,1.054,63,[],[],"[(1093, 883)]",[],[1],[94],[1.5666666666666667],"[640.0, 512.0]",vertical,"(390.0, 262.0)",[1.3166666666666667],[0.499],1,1706.909
7,False,381,1.002,60,[],[],"[(1094, 877)]",[],[1],[110],[1.8333333333333333],"[640.0, 512.0]",vertical,"(390.0, 762.0)",[1.4333333333333333],[0.81],0,1711.383
7,False,382,0.437,26,[],[],"[(1113, 870)]",[],[1],[60],[1.0],"[640.0, 512.0]",horizontal,"(890.0, 262.0)",[1.1],[0.542],1,1716.134
7,False,383,0.416,24,[],[],"[(1122, 870)]",[],[1],[57],[0.95],"[640.0, 512.0]",vertical,"(890.0, 762.0)",[0.8166666666666667],[0.524],1,1719.767
7,False,384,1.016,60,[],[],"[(1105, 894)]",[],[1],[92],[1.5333333333333332],"[640.0, 512.0]",vertical,"(890.0, 262.0)",[1.1],[0.509],1,1723.078
7,False,385,1.405,84,[],[],"[(1091, 883)]",[],[1],[117],[1.95],"[640.0, 512.0]",vertical,"(390.0, 262.0)",[1.0333333333333332],[0.525],1,1727.199
7,False,386,0.553,33,[],[],"[(1077, 891)]",[],[1],[68],[1.1333333333333333],"[640.0, 512.0]",vertical,"(890.0, 762.0)",[0.9666666666666667],[0.556],1,1731.794
7,False,387,0.497,29,[],[],"[(1099, 877)]",[],[1],[64],[1.0666666666666667],"[640.0, 512.0]",horizontal,"(390.0, 762.0)",[0.8],[0.557],1,1736.494
7,False,388,0.976,58,[],[],"[(1074, 889)]",[],[1],[93],[1.55],"[640.0, 512.0]",vertical,"(890.0, 262.0)",[1.3],[0.562],1,1739.907
7,False,389,0.827,49,[],[],"[(1077, 884)]",[],[1],[99],[1.65],"[640.0, 512.0]",horizontal,"(390.0, 262.0)",[1.2166666666666666],[0.801],0,1744.341
7,False,390,1.246,74,[],[],"[(1099, 894)]",[],[1],[113],[1.8833333333333333],"[640.0, 512.0]",horizontal,"(890.0, 762.0)",[1.1833333333333333],[0.625],1,1748.704
7,False,391,1.066,63,[],[],"[(1093, 885)]",[],[1],[95],[1.5833333333333333],"[640.0, 512.0]",vertical,"(890.0, 762.0)",[1.15],[0.511],1,1794.242
7,False,392,1.416,84,[],[],"[(1096, 901)]",[],[1],[118],[1.9666666666666666],"[640.0, 512.0]",vertical,"(890.0, 762.0)",[1.35],[0.546],1,1798.482
7,False,393,0.626,37,[],[],"[(1099, 885)]",[],[1],[80],[1.3333333333333333],"[640.0, 512.0]",horizontal,"(390.0, 262.0)",[0.8166666666666667],[0.689],1,1803.31
7,False,394,1.424,85,[],[],"[(1102, 900)]",[],[1],[121],[2.0166666666666666],"[640.0, 512.0]",vertical,"(390.0, 262.0)",[0.7166666666666667],[0.577],1,1806.944
7,False,395,0.774,46,[],[],"[(1106, 889)]",[],[1],[78],[1.3],"[640.0, 512.0]",vertical,"(390.0, 262.0)",[0.5833333333333334],[0.513],1,1811.207
7,False,396,1.028,61,[],[],"[(1117, 871)]",[],[1],[98],[1.6333333333333333],"[640.0, 512.0]",vertical,"(890.0, 762.0)",[0.9166666666666666],[0.602],1,1814.631
7,False,397,1.36,81,[],[],"[(1120, 903)]",[],[1],[123],[2.05],"[640.0, 512.0]",vertical,"(890.0, 762.0)",[0.85],[0.67],1,1818.721
7,False,398,0.429,25,[],[],"[(1077, 889)]",[],[1],[52],[0.8666666666666667],"[640.0, 512.0]",horizontal,"(890.0, 262.0)",[1.5166666666666666],[0.427],1,1823.303
7,False,399,1.484,89,[],[],"[(1122, 879)]",[],[1],[121],[2.0166666666666666],"[640.0, 512.0]",horizontal,"(390.0, 262.0)",[1.4],[0.509],1,1829.561
7,False,400,1.298,77,[],[],"[(1053, 889)]",[],[1],[107],[1.7833333333333332],"[640.0, 512.0]",vertical,"(390.0, 262.0)",[0.9333333333333333],[0.479],1,1834.446
7,False,401,0.416,24,[],[],"[(1094, 887)]",[],[1],[69],[1.15],"[640.0, 512.0]",horizontal,"(890.0, 762.0)",[0.7],[0.719],1,1838.845
7,False,402,0.938,56,[],[],"[(1093, 890)]",[],[1],[90],[1.5],"[640.0, 512.0]",horizontal,"(390.0, 762.0)",[1.1833333333333333],[0.542],1,1842.2
7,False,403,0.678,40,[],[],"[(1115, 895)]",[],[1],[73],[1.2166666666666666],"[640.0, 512.0]",vertical,"(390.0, 262.0)",[1.1],[0.525],1,1846.93
7,False,404,0.964,57,[],[],"[(1099, 889)]",[],[1],[],[],"[640.0, 512.0]",horizontal,"(890.0, 762.0)",[],[0],0,1850.813
7,False,405,0.644,38,[],[],"[(1087, 880)]",[],[1],[71],[1.1833333333333333],"[640.0, 512.0]",horizontal,"(390.0, 762.0)",[1.2666666666666666],[0.524],1,1885.016
7,False,406,0.825,49,[],[],"[(1093, 872)]",[],[1],[86],[1.4333333333333333],"[640.0, 512.0]",horizontal,"(390.0, 262.0)",[1.2833333333333332],[0.592],1,1889.503
7,False,407,1.118,67,[],[],"[(1086, 898)]",[],[1],[99],[1.65],"[640.0, 512.0]",horizontal,"(390.0, 762.0)",[1.3833333333333333],[0.51],1,1893.728
7,False,408,1.239,74,[],[],"[(1088, 917)]",[],[1],[109],[1.8166666666666667],"[640.0, 512.0]",vertical,"(890.0, 762.0)",[1.6833333333333333],[0.559],1,1898.384
7,False,409,0.496,29,[],[],"[(1081, 915)]",[],[1],[63],[1.05],"[640.0, 512.0]",vertical,"(890.0, 262.0)",[1.5833333333333333],[0.544],1,1903.511
7,False,410,0.72,43,[],[],"[(1113, 872)]",[],[1],[80],[1.3333333333333333],"[640.0, 512.0]",vertical,"(390.0, 762.0)",[0.5833333333333334],[0.59],1,1907.767
7,False,411,0.462,27,[],[],"[(1093, 911)]",[],[1],[71],[1.1833333333333333],"[640.0, 512.0]",vertical,"(890.0, 762.0)",[1.2],[0.699],1,1911.201
7,False,412,1.271,76,[],[],"[(1101, 894)]",[],[1],[111],[1.8499999999999999],"[640.0, 512.0]",horizontal,"(890.0, 762.0)",[0.7666666666666666],[0.559],1,1915.146
7,False,413,0.743,44,[],[],"[(1130, 884)]",[],[1],[80],[1.3333333333333333],"[640.0, 512.0]",horizontal,"(890.0, 762.0)",[0.7166666666666667],[0.575],1,1919.29
7,False,414,0.733,43,[],[],"[(1120, 904)]",[],[1],[68],[1.1333333333333333],"[640.0, 512.0]",vertical,"(890.0, 262.0)",[1.6833333333333333],[0.394],1,1922.901
7,False,415,0.566,33,[],[],"[(1080, 880)]",[],[1],[67],[1.1166666666666667],"[640.0, 512.0]",vertical,"(890.0, 762.0)",[1.4833333333333334],[0.548],1,1927.218
7,False,416,0.66,39,[],[],"[(1104, 869)]",[],[1],[75],[1.25],"[640.0, 512.0]",vertical,"(390.0, 262.0)",[1.6166666666666667],[0.576],1,1931.401
7,False,417,1.154,69,[],[],"[(1088, 903)]",[],[1],[101],[1.6833333333333333],"[640.0, 512.0]",vertical,"(390.0, 762.0)",[1.2666666666666666],[0.511],1,1935.746
7,False,418,0.314,18,[],[],"[(1098, 863)]",[],[1],[55],[0.9166666666666666],"[640.0, 512.0]",vertical,"(390.0, 262.0)",[0.6666666666666666],[0.588],1,1940.28
7,False,419,1.165,69,[],[],"[(1100, 892)]",[],[1],[103],[1.7166666666666666],"[640.0, 512.0]",horizontal,"(390.0, 762.0)",[0.85],[0.542],1,1943.361
7,False,420,1.474,88,[],[],"[(1103, 893)]",[],[1],[112],[1.8666666666666667],"[640.0, 512.0]",vertical,"(390.0, 262.0)",[1.0833333333333333],[0.377],1,1947.451
8,False,421,0.991,59,[],[],"[(1112, 889)]",[],[1],[91],[1.5166666666666666],"[640.0, 512.0]",vertical,"(890.0, 762.0)",[1.3],[0.518],1,1951.909
8,False,422,1.373,82,[],[],"[(1091, 902)]",[],[1],[122],[2.033333333333333],"[640.0, 512.0]",horizontal,"(390.0, 762.0)",[1.0666666666666667],[0.646],1,1956.269
8,False,423,0.325,19,[],[],"[(1093, 890)]",[],[1],[54],[0.9],"[640.0, 512.0]",horizontal,"(390.0, 762.0)",[1.1],[0.559],1,1960.929
8,False,424,0.889,53,[],[],"[(1093, 894)]",[],[1],[84],[1.4],"[640.0, 512.0]",horizontal,"(890.0, 762.0)",[0.8666666666666667],[0.493],1,1964.501
8,False,425,0.696,41,[],[],"[(1077, 892)]",[],[1],[72],[1.2],"[640.0, 512.0]",vertical,"(390.0, 262.0)",[1.0],[0.492],1,1968.305
8,False,426,0.462,27,[],[],"[(1093, 881)]",[],[1],[62],[1.0333333333333332],"[640.0, 512.0]",horizontal,"(390.0, 762.0)",[0.5333333333333333],[0.558],1,1972.067
8,False,427,1.013,60,[],[],"[(1085, 899)]",[],[1],[93],[1.55],"[640.0, 512.0]",horizontal,"(390.0, 262.0)",[1.55],[0.523],1,1975.202
8,False,428,0.775,46,[],[],"[(1099, 894)]",[],[1],[80],[1.3333333333333333],"[640.0, 512.0]",horizontal,"(890.0, 762.0)",[1.35],[0.539],1,1979.82
8,False,429,1.481,88,[],[],"[(1110, 895)]",[],[1],[122],[2.033333333333333],"[640.0, 512.0]",vertical,"(390.0, 762.0)",[1.15],[0.551],1,1984.07
8,False,430,0.49,29,[],[],"[(1095, 888)]",[],[1],[63],[1.05],"[640.0, 512.0]",vertical,"(890.0, 762.0)",[1.6833333333333333],[0.543],1,1988.761
8,False,431,1.48,88,[],[],"[(1094, 898)]",[],[1],[118],[1.9666666666666666],"[640.0, 512.0]",vertical,"(890.0, 262.0)",[1.35],[0.475],1,1993.027
8,False,432,0.433,25,[],[],"[(1120, 906)]",[],[1],[65],[1.0833333333333333],"[640.0, 512.0]",vertical,"(390.0, 262.0)",[1.15],[0.643],1,1998.341
8,False,433,0.317,19,[],[],"[(1098, 884)]",[],[1],[52],[0.8666666666666667],"[640.0, 512.0]",vertical,"(890.0, 762.0)",[1.1833333333333333],[0.522],1,2002.166
8,False,434,1.086,65,[],[],"[(1118, 875)]",[],[1],[100],[1.6666666666666667],"[640.0, 512.0]",horizontal,"(390.0, 262.0)",[1.0666666666666667],[0.56],1,2005.79
8,False,435,0.846,50,[],[],"[(1091, 901)]",[],[1],[84],[1.4],"[640.0, 512.0]",vertical,"(890.0, 262.0)",[0.6],[0.542],1,2010.096
8,False,436,1.32,79,[],[],"[(1093, 879)]",[],[1],[113],[1.8833333333333333],"[640.0, 512.0]",vertical,"(890.0, 762.0)",[0.9166666666666666],[0.543],1,2013.648
8,False,437,0.472,28,[],[],"[(1094, 889)]",[],[1],[60],[1.0],"[640.0, 512.0]",horizontal,"(890.0, 262.0)",[1.35],[0.516],1,2018.013
8,False,438,0.614,36,[],[],"[(1099, 878)]",[],[1],[69],[1.15],"[640.0, 512.0]",horizontal,"(890.0, 262.0)",[1.6333333333333333],[0.529],1,2021.884
8,False,439,0.547,32,[],[],"[(1077, 875)]",[],[1],[67],[1.1166666666666667],"[640.0, 512.0]",horizontal,"(390.0, 262.0)",[0.6],[0.55],1,2026.158
8,False,440,0.592,35,[],[],"[(1093, 901)]",[],[1],[70],[1.1666666666666667],"[640.0, 512.0]",horizontal,"(390.0, 762.0)",[0.65],[0.559],1,2029.403
8,False,441,0.692,41,[],[],"[(1080, 899)]",[],[1],[73],[1.2166666666666666],"[640.0, 512.0]",vertical,"(390.0, 762.0)",[1.55],[0.51],1,2032.843
8,False,442,0.848,50,[],[],"[(1093, 907)]",[],[1],[87],[1.45],"[640.0, 512.0]",horizontal,"(890.0, 262.0)",[1.0333333333333332],[0.6],1,2037.164
8,False,443,1.288,77,[],[],"[(1111, 875)]",[],[1],[],[],"[640.0, 512.0]",horizontal,"(890.0, 262.0)",[],[0],0,2041.201
8,False,444,0.489,29,[],[],"[(1109, 857)]",[],[1],[60],[1.0],"[640.0, 512.0]",vertical,"(890.0, 762.0)",[1.2],[0.493],1,2045.643
8,False,445,1.039,62,[],[],"[(1112, 884)]",[],[1],[94],[1.5666666666666667],"[640.0, 512.0]",horizontal,"(390.0, 762.0)",[1.25],[0.509],1,2062.356
8,False,446,1.065,63,[],[],"[(1076, 875)]",[],[1],[100],[1.6666666666666667],"[640.0, 512.0]",vertical,"(890.0, 262.0)",[1.2833333333333332],[0.592],1,2066.679
8,False,447,0.902,54,[],[],"[(1093, 860)]",[],[1],[84],[1.4],"[640.0, 512.0]",vertical,"(390.0, 262.0)",[1.3666666666666667],[0.476],1,2071.222
8,False,448,0.34,20,[],[],"[(1101, 888)]",[],[1],[53],[0.8833333333333333],"[640.0, 512.0]",vertical,"(390.0, 262.0)",[1.0166666666666666],[0.525],1,2075.455
8,False,449,1.154,69,[],[],"[(1094, 870)]",[],[1],[],[],"[640.0, 512.0]",vertical,"(890.0, 262.0)",[],[0],0,2078.885
8,False,450,1.311,78,[],[],"[(1093, 899)]",[],[1],[117],[1.95],"[640.0, 512.0]",horizontal,"(890.0, 762.0)",[0.8],[0.622],1,2082.718
8,False,451,0.349,20,[],[],"[(1113, 891)]",[],[1],[52],[0.8666666666666667],"[640.0, 512.0]",horizontal,"(390.0, 262.0)",[1.6333333333333333],[0.511],1,2089.28
8,False,452,0.349,20,[],[],"[(1136, 888)]",[],[1],[55],[0.9166666666666666],"[640.0, 512.0]",horizontal,"(390.0, 762.0)",[1.45],[0.566],1,2093.297
8,False,453,1.273,76,[],[],"[(1102, 899)]",[],[1],[115],[1.9166666666666667],"[640.0, 512.0]",vertical,"(390.0, 762.0)",[1.2],[0.622],1,2097.283
8,False,454,0.656,39,[],[],"[(1096, 884)]",[],[1],[77],[1.2833333333333332],"[640.0, 512.0]",horizontal,"(390.0, 262.0)",[1.6333333333333333],[0.604],1,2101.926
8,False,455,0.98,58,[],[],"[(1104, 880)]",[],[1],[97],[1.6166666666666667],"[640.0, 512.0]",horizontal,"(890.0, 762.0)",[1.2666666666666666],[0.621],1,2106.391
8,False,456,0.33,19,[],[],"[(1074, 870)]",[],[1],[53],[0.8833333333333333],"[640.0, 512.0]",horizontal,"(390.0, 262.0)",[0.9666666666666667],[0.542],1,2110.791
8,False,457,1.239,74,[],[],"[(1095, 898)]",[],[1],[112],[1.8666666666666667],"[640.0, 512.0]",horizontal,"(890.0, 762.0)",[1.4],[0.602],1,2114.248
8,False,458,0.437,26,[],[],"[(1094, 884)]",[],[1],[57],[0.95],"[640.0, 512.0]",vertical,"(890.0, 262.0)",[0.95],[0.493],1,2119.103
8,False,459,1.348,80,[],[],"[(1117, 889)]",[],[1],[112],[1.8666666666666667],"[640.0, 512.0]",horizontal,"(890.0, 262.0)",[0.9166666666666666],[0.506],1,2122.559
8,False,460,0.517,31,[],[],"[(1088, 879)]",[],[1],[62],[1.0333333333333332],"[640.0, 512.0]",horizontal,"(390.0, 762.0)",[1.2],[0.49],1,2126.828
8,False,461,0.86,51,[],[],"[(1093, 876)]",[],[1],[83],[1.3833333333333333],"[640.0, 512.0]",horizontal,"(390.0, 762.0)",[1.6666666666666667],[0.508],1,2130.565
8,False,462,0.849,50,[],[],"[(1117, 872)]",[],[1],[82],[1.3666666666666667],"[640.0, 512.0]",horizontal,"(890.0, 762.0)",[1.4333333333333333],[0.511],1,2135.136
8,False,463,0.836,50,[],[],"[(1109, 889)]",[],[1],[85],[1.4166666666666667],"[640.0, 512.0]",vertical,"(390.0, 762.0)",[0.5166666666666666],[0.557],1,2139.516
8,False,464,0.534,32,[],[],"[(1098, 893)]",[],[1],[68],[1.1333333333333333],"[640.0, 512.0]",horizontal,"(390.0, 262.0)",[0.6833333333333333],[0.573],1,2142.993
8,False,465,1.405,84,[],[],"[(1109, 886)]",[],[1],[120],[2.0],"[640.0, 512.0]",horizontal,"(390.0, 762.0)",[1.3833333333333333],[0.57],1,2146.378
8,False,466,0.87,52,[],[],"[(1085, 880)]",[],[1],[86],[1.4333333333333333],"[640.0, 512.0]",vertical,"(890.0, 762.0)",[0.75],[0.539],1,2151.266
8,False,467,0.925,55,[],[],"[(1102, 873)]",[],[1],[89],[1.4833333333333334],"[640.0, 512.0]",horizontal,"(390.0, 762.0)",[1.6333333333333333],[0.545],1,2156.877
8,False,468,1.042,62,[],[],"[(1093, 908)]",[],[1],[99],[1.65],"[640.0, 512.0]",horizontal,"(890.0, 762.0)",[1.35],[0.59],1,2162.161
8,False,469,1.203,72,[],[],"[(1075, 903)]",[],[1],[106],[1.7666666666666666],"[640.0, 512.0]",vertical,"(390.0, 262.0)",[0.6333333333333333],[0.538],1,2166.764
8,False,470,0.719,43,[],[],"[(1081, 898)]",[],[1],[76],[1.2666666666666666],"[640.0, 512.0]",horizontal,"(890.0, 262.0)",[0.9],[0.528],1,2170.752
8,False,471,1.212,72,[],[],"[(1074, 875)]",[],[1],[110],[1.8333333333333333],"[640.0, 512.0]",vertical,"(390.0, 762.0)",[0.75],[0.617],1,2174.512
8,False,472,0.361,21,[],[],"[(1099, 873)]",[],[1],[54],[0.9],"[640.0, 512.0]",vertical,"(890.0, 762.0)",[1.1333333333333333],[0.522],1,2178.771
8,False,473,1.381,82,[],[],"[(1105, 908)]",[],[1],[115],[1.9166666666666667],"[640.0, 512.0]",vertical,"(390.0, 262.0)",[1.45],[0.523],1,2182.349
8,False,474,1.42,85,[],[],"[(1101, 876)]",[],[1],[117],[1.95],"[640.0, 512.0]",horizontal,"(390.0, 262.0)",[0.65],[0.512],1,2187.188
8,False,475,0.865,51,[],[],"[(1105, 896)]",[],[1],[86],[1.4333333333333333],"[640.0, 512.0]",vertical,"(390.0, 762.0)",[0.5166666666666666],[0.554],1,2191.333
8,False,476,1.49,89,[],[],"[(1085, 880)]",[],[1],[122],[2.033333333333333],"[640.0, 512.0]",vertical,"(390.0, 762.0)",[0.9],[0.525],1,2194.801
8,False,477,0.786,47,[],[],"[(1107, 872)]",[],[1],[79],[1.3166666666666667],"[640.0, 512.0]",vertical,"(890.0, 762.0)",[1.45],[0.505],1,2199.303
8,False,478,0.857,51,[],[],"[(1118, 867)]",[],[1],[86],[1.4333333333333333],"[640.0, 512.0]",horizontal,"(890.0, 262.0)",[0.7166666666666667],[0.559],1,2203.578
8,False,479,0.362,21,[],[],"[(1117, 875)]",[],[1],[53],[0.8833333333333333],"[640.0, 512.0]",vertical,"(390.0, 762.0)",[0.7666666666666666],[0.513],1,2207.251
8,False,480,0.888,53,[],[],"[(1085, 884)]",[],[1],[88],[1.4666666666666666],"[640.0, 512.0]",horizontal,"(890.0, 262.0)",[1.1333333333333333],[0.555],1,2210.431
9,False,481,1.352,81,[],[],"[(1099, 891)]",[],[1],[117],[1.95],"[640.0, 512.0]",horizontal,"(890.0, 762.0)",[0.6333333333333333],[0.575],1,2214.564
9,False,482,1.132,67,[],[],"[(1093, 889)]",[],[1],[101],[1.6833333333333333],"[640.0, 512.0]",horizontal,"(890.0, 762.0)",[1.3333333333333333],[0.54],1,2218.651
9,False,483,0.875,52,[],[],"[(1093, 889)]",[],[1],[87],[1.45],"[640.0, 512.0]",vertical,"(890.0, 262.0)",[0.9],[0.562],1,2223.169
9,False,484,1.278,76,[],[],"[(1087, 889)]",[],[1],[109],[1.8166666666666667],"[640.0, 512.0]",horizontal,"(390.0, 762.0)",[1.0166666666666666],[0.524],1,2227.07
9,False,485,1.158,69,[],[],"[(1094, 887)]",[],[1],[106],[1.7666666666666666],"[640.0, 512.0]",horizontal,"(390.0, 262.0)",[0.9666666666666667],[0.593],1,2231.427
9,False,486,0.481,28,[],[],"[(1093, 861)]",[],[1],[61],[1.0166666666666666],"[640.0, 512.0]",vertical,"(890.0, 262.0)",[1.6833333333333333],[0.524],1,2235.747
9,False,487,0.49,29,[],[],"[(1126, 882)]",[],[1],[65],[1.0833333333333333],"[640.0, 512.0]",horizontal,"(890.0, 762.0)",[1.4833333333333334],[0.577],1,2240.979
9,False,488,0.304,18,[],[],"[(1124, 873)]",[],[1],[61],[1.0166666666666666],"[640.0, 512.0]",horizontal,"(390.0, 262.0)",[1.3],[0.685],1,2245.037
9,False,489,1.009,60,[],[],"[(1085, 911)]",[],[1],[93],[1.55],"[640.0, 512.0]",vertical,"(890.0, 762.0)",[0.9833333333333333],[0.525],1,2248.985
9,False,490,0.977,58,[],[],"[(1105, 898)]",[],[1],[94],[1.5666666666666667],"[640.0, 512.0]",horizontal,"(390.0, 262.0)",[1.35],[0.574],1,2253.085
9,False,491,0.85,51,[],[],"[(1093, 876)]",[],[1],[93],[1.55],"[640.0, 512.0]",vertical,"(390.0, 262.0)",[0.8333333333333334],[0.671],1,2257.517
9,False,492,1.046,62,[],[],"[(1116, 881)]",[],[1],[93],[1.55],"[640.0, 512.0]",horizontal,"(890.0, 262.0)",[0.6333333333333333],[0.49],1,2261.448
9,False,493,1.311,78,[],[],"[(1109, 885)]",[],[1],[111],[1.8499999999999999],"[640.0, 512.0]",vertical,"(890.0, 762.0)",[0.9],[0.527],1,2265.148
9,False,494,1.102,66,[],[],"[(1088, 903)]",[],[1],[105],[1.75],"[640.0, 512.0]",vertical,"(390.0, 762.0)",[1.6166666666666667],[0.62],1,2269.464
9,False,495,0.479,28,[],[],"[(1093, 893)]",[],[1],[60],[1.0],"[640.0, 512.0]",vertical,"(390.0, 262.0)",[0.9166666666666666],[0.516],1,2274.335
9,False,496,0.558,33,[],[],"[(1073, 892)]",[],[1],[77],[1.2833333333333332],"[640.0, 512.0]",vertical,"(890.0, 762.0)",[0.6666666666666666],[0.705],1,2277.761
9,False,497,1.112,66,[],[],"[(1130, 893)]",[],[1],[104],[1.7333333333333334],"[640.0, 512.0]",vertical,"(390.0, 762.0)",[0.6833333333333333],[0.604],1,2281.268
9,False,498,0.932,55,[],[],"[(1093, 879)]",[],[1],[89],[1.4833333333333334],"[640.0, 512.0]",horizontal,"(390.0, 262.0)",[0.9166666666666666],[0.541],1,2285.353
9,False,499,0.92,55,[],[],"[(1109, 872)]",[],[1],[87],[1.45],"[640.0, 512.0]",vertical,"(390.0, 262.0)",[1.5833333333333333],[0.507],1,2289.281
9,False,500,0.334,20,[],[],"[(1093, 897)]",[],[1],[60],[1.0],"[640.0, 512.0]",horizontal,"(890.0, 762.0)",[1.3333333333333333],[0.646],1,2293.831
9,False,501,1.449,86,[],[],"[(1109, 889)]",[],[1],[117],[1.95],"[640.0, 512.0]",horizontal,"(890.0, 262.0)",[1.0833333333333333],[0.491],1,2297.773
9,False,502,0.48,28,[],[],"[(1094, 868)]",[],[1],[69],[1.15],"[640.0, 512.0]",vertical,"(390.0, 262.0)",[1.25],[0.65],1,2302.315
9,False,503,0.736,44,[],[],"[(1105, 886)]",[],[1],[74],[1.2333333333333334],"[640.0, 512.0]",horizontal,"(890.0, 762.0)",[1.2666666666666666],[0.479],1,2306.23
9,False,504,0.674,40,[],[],"[(1044, 878)]",[],[1],[71],[1.1833333333333333],"[640.0, 512.0]",vertical,"(390.0, 762.0)",[1.4833333333333334],[0.497],1,2310.247
9,False,505,1.032,61,[],[],"[(1092, 879)]",[],[1],[102],[1.7],"[640.0, 512.0]",horizontal,"(890.0, 762.0)",[1.5166666666666666],[0.664],1,2314.578
9,False,506,1.021,61,[],[],"[(1080, 875)]",[],[1],[95],[1.5833333333333333],"[640.0, 512.0]",horizontal,"(890.0, 762.0)",[1.4166666666666667],[0.546],1,2319.267
9,False,507,0.719,43,[],[],"[(1115, 880)]",[],[1],[77],[1.2833333333333332],"[640.0, 512.0]",vertical,"(390.0, 762.0)",[1.2166666666666666],[0.542],1,2323.769
9,False,508,0.485,29,[],[],"[(1076, 881)]",[],[1],[63],[1.05],"[640.0, 512.0]",vertical,"(390.0, 762.0)",[0.55],[0.539],1,2327.743
9,False,509,1.459,87,[],[],"[(1113, 880)]",[],[1],[132],[2.2],"[640.0, 512.0]",vertical,"(390.0, 262.0)",[0.7],[0.72],1,2330.867
9,False,510,0.815,48,[],[],"[(1077, 880)]",[],[1],[89],[1.4833333333333334],"[640.0, 512.0]",horizontal,"(890.0, 762.0)",[1.05],[0.651],1,2335.385
9,False,511,0.688,41,[],[],"[(1142, 883)]",[],[1],[74],[1.2333333333333334],"[640.0, 512.0]",vertical,"(390.0, 262.0)",[1.1333333333333333],[0.524],1,2339.435
9,False,512,0.883,52,[],[],"[(1107, 862)]",[],[1],[87],[1.45],"[640.0, 512.0]",vertical,"(890.0, 762.0)",[1.15],[0.558],1,2347.889
9,False,513,1.201,72,[],[],"[(1077, 890)]",[],[1],[114],[1.9],"[640.0, 512.0]",vertical,"(390.0, 762.0)",[0.9666666666666667],[0.667],1,2351.968
9,False,514,1.489,89,[],[],"[(1091, 890)]",[],[1],[127],[2.1166666666666667],"[640.0, 512.0]",vertical,"(890.0, 762.0)",[1.65],[0.603],1,2356.347
9,False,515,0.871,52,[],[],"[(1080, 880)]",[],[1],[83],[1.3833333333333333],"[640.0, 512.0]",vertical,"(390.0, 262.0)",[1.5],[0.488],1,2361.666
9,False,516,0.407,24,[],[],"[(1109, 875)]",[],[1],[62],[1.0333333333333332],"[640.0, 512.0]",vertical,"(890.0, 762.0)",[0.9],[0.605],1,2367.028
9,False,517,0.807,48,[],[],"[(1117, 908)]",[],[1],[86],[1.4333333333333333],"[640.0, 512.0]",vertical,"(890.0, 762.0)",[1.1],[0.601],1,2370.564
9,False,518,0.608,36,[],[],"[(1035, 908)]",[],[1],[70],[1.1666666666666667],"[640.0, 512.0]",vertical,"(890.0, 762.0)",[1.4333333333333333],[0.535],1,2374.65
9,False,519,0.793,47,[],[],"[(1097, 884)]",[],[1],[79],[1.3166666666666667],"[640.0, 512.0]",horizontal,"(390.0, 262.0)",[1.1833333333333333],[0.503],1,2379.044
9,False,520,0.525,31,[],[],"[(1050, 864)]",[],[1],[68],[1.1333333333333333],"[640.0, 512.0]",vertical,"(890.0, 762.0)",[1.2166666666666666],[0.588],1,2383.156
9,False,521,1.44,86,[],[],"[(1078, 879)]",[],[1],[122],[2.033333333333333],"[640.0, 512.0]",horizontal,"(390.0, 262.0)",[0.7],[0.577],1,2403.536
9,False,522,1.053,63,[],[],"[(1056, 877)]",[],[1],[99],[1.65],"[640.0, 512.0]",horizontal,"(390.0, 762.0)",[1.15],[0.573],1,2407.771
9,False,523,1.269,76,[],[],"[(1087, 889)]",[],[1],[126],[2.1],"[640.0, 512.0]",horizontal,"(890.0, 262.0)",[1.0],[0.8],0,2412.12
9,False,524,0.61,36,[],[],"[(1097, 870)]",[],[1],[73],[1.2166666666666666],"[640.0, 512.0]",vertical,"(890.0, 762.0)",[0.5666666666666667],[0.588],1,2416.785
9,False,525,1.218,73,[],[],"[(1105, 889)]",[],[1],[109],[1.8166666666666667],"[640.0, 512.0]",vertical,"(390.0, 762.0)",[0.9333333333333333],[0.573],1,2420.221
9,False,526,1.472,88,[],[],"[(1140, 886)]",[],[1],[123],[2.05],"[640.0, 512.0]",horizontal,"(390.0, 762.0)",[0.65],[0.559],1,2425.818
9,False,527,0.477,28,[],[],"[(1076, 880)]",[],[1],[67],[1.1166666666666667],"[640.0, 512.0]",vertical,"(890.0, 762.0)",[1.5666666666666667],[0.62],1,2442.295
9,False,528,1.357,81,[],[],"[(1095, 896)]",[],[1],[118],[1.9666666666666666],"[640.0, 512.0]",vertical,"(390.0, 262.0)",[1.3833333333333333],[0.591],1,2446.482
9,False,529,0.966,57,[],[],"[(1083, 889)]",[],[1],[107],[1.7833333333333332],"[640.0, 512.0]",horizontal,"(390.0, 262.0)",[0.65],[0.8],0,2451.348
9,False,530,0.562,33,[],[],"[(1126, 882)]",[],[1],[66],[1.1],"[640.0, 512.0]",horizontal,"(390.0, 262.0)",[1.0666666666666667],[0.528],1,2455.325
9,False,531,0.978,58,[],[],"[(1093, 898)]",[],[1],[95],[1.5833333333333333],"[640.0, 512.0]",horizontal,"(390.0, 262.0)",[0.8],[0.585],1,2459.07
9,False,532,0.904,54,[],[],"[(1093, 903)]",[],[1],[91],[1.5166666666666666],"[640.0, 512.0]",horizontal,"(390.0, 262.0)",[1.4],[0.594],1,2462.976
9,False,533,1.207,72,[],[],"[(1117, 894)]",[],[1],[107],[1.7833333333333332],"[640.0, 512.0]",horizontal,"(890.0, 762.0)",[0.6166666666666667],[0.557],1,2467.387
9,False,534,0.338,20,[],[],"[(1089, 895)]",[],[1],[58],[0.9666666666666667],"[640.0, 512.0]",horizontal,"(890.0, 762.0)",[1.3166666666666667],[0.608],1,2471.325
9,False,535,1.161,69,[],[],"[(1103, 878)]",[],[1],[104],[1.7333333333333334],"[640.0, 512.0]",vertical,"(390.0, 762.0)",[0.8],[0.557],1,2475.233
9,False,536,0.708,42,[],[],"[(1087, 894)]",[],[1],[87],[1.45],"[640.0, 512.0]",vertical,"(890.0, 262.0)",[0.65],[0.716],1,2479.353
9,False,537,1.337,80,[],[],"[(1075, 903)]",[],[1],[114],[1.9],"[640.0, 512.0]",vertical,"(390.0, 262.0)",[0.85],[0.537],1,2483.014
9,False,538,0.651,39,[],[],"[(1074, 906)]",[],[1],[89],[1.4833333333333334],"[640.0, 512.0]",horizontal,"(390.0, 262.0)",[0.5333333333333333],[0.803],0,2487.285
9,False,539,0.884,53,[],[],"[(1160, 870)]",[],[1],[78],[1.3],"[640.0, 512.0]",vertical,"(890.0, 262.0)",[1.5333333333333332],[0.394],1,2490.923
9,False,540,1.092,65,[],[],"[(1094, 902)]",[],[1],[99],[1.65],"[640.0, 512.0]",horizontal,"(390.0, 262.0)",[1.0166666666666666],[0.542],1,2495.283
10,False,541,0.678,40,[],[],"[(1117, 885)]",[],[1],[74],[1.2333333333333334],"[640.0, 512.0]",vertical,"(890.0, 762.0)",[0.8333333333333334],[0.543],1,2499.503
10,False,542,0.625,37,[],[],"[(1099, 885)]",[],[1],[69],[1.15],"[640.0, 512.0]",vertical,"(890.0, 262.0)",[1.5833333333333333],[0.51],1,2503.117
10,False,543,0.873,52,[],[],"[(1087, 884)]",[],[1],[86],[1.4333333333333333],"[640.0, 512.0]",horizontal,"(890.0, 762.0)",[0.9],[0.548],1,2509.73
10,False,544,0.482,28,[],[],"[(1116, 898)]",[],[1],[78],[1.3],"[640.0, 512.0]",vertical,"(390.0, 762.0)",[1.1833333333333333],[0.801],0,2513.635
10,False,545,0.949,56,[],[],"[(1165, 878)]",[],[1],[89],[1.4833333333333334],"[640.0, 512.0]",vertical,"(390.0, 762.0)",[1.2833333333333332],[0.53],1,2517.681
10,False,546,1.373,82,[],[],"[(1087, 890)]",[],[1],[130],[2.1666666666666665],"[640.0, 512.0]",vertical,"(390.0, 262.0)",[0.55],[0.767],1,2521.952
10,False,547,0.561,33,[],[],"[(1093, 923)]",[],[1],[66],[1.1],"[640.0, 512.0]",vertical,"(890.0, 262.0)",[1.55],[0.533],1,2526.272
10,False,548,1.474,88,[],[],"[(1117, 902)]",[],[1],[124],[2.0666666666666664],"[640.0, 512.0]",horizontal,"(390.0, 262.0)",[0.8],[0.575],1,2530.52
10,False,549,0.357,21,[],[],"[(1118, 880)]",[],[1],[55],[0.9166666666666666],"[640.0, 512.0]",vertical,"(390.0, 262.0)",[0.7],[0.553],1,2534.905
10,False,550,0.373,22,[],[],"[(1098, 889)]",[],[1],[60],[1.0],"[640.0, 512.0]",vertical,"(390.0, 262.0)",[0.55],[0.599],1,2538.065
10,False,551,0.983,58,[],[],"[(1078, 893)]",[],[1],[93],[1.55],"[640.0, 512.0]",horizontal,"(890.0, 262.0)",[0.9166666666666666],[0.561],1,2541.171
10,False,552,0.725,43,[],[],"[(1080, 906)]",[],[1],[80],[1.3333333333333333],"[640.0, 512.0]",horizontal,"(390.0, 262.0)",[1.1166666666666667],[0.589],1,2545.279
10,False,553,1.243,74,[],[],"[(1075, 888)]",[],[1],[118],[1.9666666666666666],"[640.0, 512.0]",horizontal,"(390.0, 262.0)",[0.8],[0.703],1,2549.401
10,False,554,1.227,73,[],[],"[(1097, 865)]",[],[1],[123],[2.05],"[640.0, 512.0]",horizontal,"(390.0, 262.0)",[0.9333333333333333],[0.794],0,2553.706
10,False,555,1.037,62,[],[],"[(1099, 870)]",[],[1],[96],[1.6],"[640.0, 512.0]",horizontal,"(390.0, 262.0)",[0.5166666666666666],[0.534],1,2558.304
10,False,556,1.02,61,[],[],"[(1080, 928)]",[],[1],[108],[1.8],"[640.0, 512.0]",horizontal,"(390.0, 262.0)",[1.6],[0.755],1,2562.218
10,False,557,1.353,81,[],[],"[(1080, 889)]",[],[1],[113],[1.8833333333333333],"[640.0, 512.0]",horizontal,"(390.0, 262.0)",[1.3166666666666667],[0.514],1,2567.234
10,False,558,0.451,27,[],[],"[(1080, 871)]",[],[1],[58],[0.9666666666666667],"[640.0, 512.0]",horizontal,"(890.0, 262.0)",[1.5666666666666667],[0.492],1,2571.967
10,False,559,1.328,79,[],[],"[(1087, 894)]",[],[1],[124],[2.0666666666666664],"[640.0, 512.0]",vertical,"(890.0, 262.0)",[1.1166666666666667],[0.723],1,2576.144
10,False,560,0.694,41,[],[],"[(1082, 865)]",[],[1],[77],[1.2833333333333332],"[640.0, 512.0]",vertical,"(390.0, 262.0)",[0.6333333333333333],[0.572],1,2582.855
10,False,561,0.598,35,[],[],"[(1101, 885)]",[],[1],[70],[1.1666666666666667],"[640.0, 512.0]",horizontal,"(390.0, 762.0)",[1.0666666666666667],[0.561],1,2586.658
10,False,562,1.427,85,[],[],"[(1103, 894)]",[],[1],[123],[2.05],"[640.0, 512.0]",horizontal,"(890.0, 762.0)",[1.0166666666666666],[0.607],1,2590.439
10,False,563,0.54,32,[],[],"[(1082, 884)]",[],[1],[65],[1.0833333333333333],"[640.0, 512.0]",vertical,"(890.0, 262.0)",[1.55],[0.522],1,2594.984
10,False,564,1.064,63,[],[],"[(1093, 889)]",[],[1],[102],[1.7],"[640.0, 512.0]",horizontal,"(390.0, 262.0)",[1.1166666666666667],[0.623],1,2599.232
10,False,565,0.579,34,[],[],"[(1097, 884)]",[],[1],[70],[1.1666666666666667],"[640.0, 512.0]",horizontal,"(390.0, 262.0)",[0.5166666666666666],[0.576],1,2603.582
10,False,566,0.958,57,[],[],"[(1056, 875)]",[],[1],[89],[1.4833333333333334],"[640.0, 512.0]",horizontal,"(890.0, 262.0)",[1.3666666666666667],[0.514],1,2606.815
10,False,567,0.547,32,[],[],"[(1097, 888)]",[],[1],[67],[1.1166666666666667],"[640.0, 512.0]",vertical,"(390.0, 262.0)",[1.55],[0.559],1,2611.237
10,False,568,1.273,76,[],[],"[(1117, 880)]",[],[1],[114],[1.9],"[640.0, 512.0]",horizontal,"(890.0, 262.0)",[0.5166666666666666],[0.607],1,2615.378
10,False,569,0.858,51,[],[],"[(1114, 875)]",[],[1],[86],[1.4333333333333333],"[640.0, 512.0]",horizontal,"(390.0, 762.0)",[0.8666666666666667],[0.557],1,2619.255
10,False,570,1.473,88,[],[],"[(1080, 903)]",[],[1],[],[],"[640.0, 512.0]",vertical,"(390.0, 262.0)",[],[0],0,2622.994
10,False,571,0.392,23,[],[],"[(1099, 870)]",[],[1],[55],[0.9166666666666666],"[640.0, 512.0]",vertical,"(890.0, 262.0)",[1.3833333333333333],[0.517],1,2628.01
10,False,572,1.221,73,[],[],"[(1093, 866)]",[],[1],[107],[1.7833333333333332],"[640.0, 512.0]",vertical,"(390.0, 262.0)",[0.6333333333333333],[0.541],1,2631.869
10,False,573,0.673,40,[],[],"[(1117, 862)]",[],[1],[90],[1.5],"[640.0, 512.0]",horizontal,"(390.0, 262.0)",[0.6],[0.81],0,2636.189
10,False,574,0.778,46,[],[],"[(1093, 888)]",[],[1],[86],[1.4333333333333333],"[640.0, 512.0]",vertical,"(890.0, 762.0)",[0.6833333333333333],[0.639],1,2639.75
10,False,575,0.872,52,[],[],"[(1112, 886)]",[],[1],[87],[1.45],"[640.0, 512.0]",horizontal,"(890.0, 762.0)",[0.7],[0.561],1,2644.019
10,False,576,0.583,34,[],[],"[(1118, 875)]",[],[1],[68],[1.1333333333333333],"[640.0, 512.0]",vertical,"(890.0, 762.0)",[1.2833333333333332],[0.54],1,2647.701
10,False,577,0.805,48,[],[],"[(1100, 891)]",[],[1],[82],[1.3666666666666667],"[640.0, 512.0]",horizontal,"(390.0, 262.0)",[1.65],[0.54],1,2651.635
10,False,578,0.509,30,[],[],"[(1105, 894)]",[],[1],[66],[1.1],"[640.0, 512.0]",vertical,"(890.0, 262.0)",[1.2666666666666666],[0.574],1,2656.172
10,False,579,0.796,47,[],[],"[(1099, 882)]",[],[1],[82],[1.3666666666666667],"[640.0, 512.0]",horizontal,"(390.0, 262.0)",[0.6833333333333333],[0.558],1,2660.056
10,False,580,0.916,54,[],[],"[(1081, 886)]",[],[1],[93],[1.55],"[640.0, 512.0]",horizontal,"(390.0, 762.0)",[1.0333333333333332],[0.624],1,2663.589
10,False,581,0.475,28,[],[],"[(1093, 896)]",[],[1],[68],[1.1333333333333333],"[640.0, 512.0]",horizontal,"(390.0, 262.0)",[1.1166666666666667],[0.634],1,2667.822
10,False,582,1.052,63,[],[],"[(1093, 877)]",[],[1],[94],[1.5666666666666667],"[640.0, 512.0]",horizontal,"(890.0, 262.0)",[1.3333333333333333],[0.497],1,2671.554
10,False,583,1.004,60,[],[],"[(1087, 860)]",[],[1],[94],[1.5666666666666667],"[640.0, 512.0]",horizontal,"(390.0, 262.0)",[1.65],[0.546],1,2676.034
10,False,584,1.352,81,[],[],"[(1083, 882)]",[],[1],[114],[1.9],"[640.0, 512.0]",vertical,"(390.0, 262.0)",[0.75],[0.53],1,2680.771
10,False,585,0.507,30,[],[],"[(1093, 870)]",[],[1],[68],[1.1333333333333333],"[640.0, 512.0]",horizontal,"(890.0, 762.0)",[1.1333333333333333],[0.614],1,2685.091
10,False,586,0.49,29,[],[],"[(1111, 899)]",[],[1],[71],[1.1833333333333333],"[640.0, 512.0]",vertical,"(890.0, 262.0)",[0.5],[0.671],1,2689.154
10,False,587,1.369,82,[],[],"[(1117, 888)]",[],[1],[120],[2.0],"[640.0, 512.0]",vertical,"(390.0, 262.0)",[1.4666666666666666],[0.602],1,2692.418
10,False,588,1.463,87,[],[],"[(1094, 897)]",[],[1],[120],[2.0],"[640.0, 512.0]",horizontal,"(890.0, 762.0)",[1.3333333333333333],[0.527],1,2697.407
10,False,589,1.319,79,[],[],"[(1117, 876)]",[],[1],[116],[1.9333333333333333],"[640.0, 512.0]",vertical,"(390.0, 762.0)",[0.9666666666666667],[0.591],1,2702.277
10,False,590,0.526,31,[],[],"[(1083, 865)]",[],[1],[68],[1.1333333333333333],"[640.0, 512.0]",vertical,"(390.0, 762.0)",[1.2333333333333334],[0.591],1,2706.686
10,False,591,1.293,77,[],[],"[(1105, 874)]",[],[1],[122],[2.033333333333333],"[640.0, 512.0]",horizontal,"(890.0, 262.0)",[0.5333333333333333],[0.722],1,2710.616
10,False,592,0.665,39,[],[],"[(1050, 909)]",[],[1],[74],[1.2333333333333334],"[640.0, 512.0]",horizontal,"(390.0, 762.0)",[1.6666666666666667],[0.556],1,2714.836
10,False,593,1.302,78,[],[],"[(1099, 884)]",[],[1],[116],[1.9333333333333333],"[640.0, 512.0]",horizontal,"(890.0, 262.0)",[0.6833333333333333],[0.612],1,2719.324
10,False,594,0.789,47,[],[],"[(1081, 899)]",[],[1],[82],[1.3666666666666667],"[640.0, 512.0]",vertical,"(390.0, 762.0)",[0.8833333333333333],[0.562],1,2723.504
10,False,595,0.818,49,[],[],"[(1099, 878)]",[],[1],[84],[1.4],"[640.0, 512.0]",horizontal,"(890.0, 762.0)",[0.7333333333333333],[0.561],1,2727.322
10,False,596,0.397,23,[],[],"[(1111, 894)]",[],[1],[57],[0.95],"[640.0, 512.0]",vertical,"(890.0, 762.0)",[1.3166666666666667],[0.541],1,2730.98
10,False,597,0.577,34,[],[],"[(1093, 904)]",[],[1],[70],[1.1666666666666667],"[640.0, 512.0]",horizontal,"(390.0, 762.0)",[1.4333333333333333],[0.574],1,2735.322
10,False,598,0.895,53,[],[],"[(1112, 888)]",[],[1],[95],[1.5833333333333333],"[640.0, 512.0]",vertical,"(890.0, 262.0)",[1.4833333333333334],[0.673],1,2739.468
10,False,599,0.76,45,[],[],"[(1097, 880)]",[],[1],[78],[1.3],"[640.0, 512.0]",vertical,"(390.0, 262.0)",[1.05],[0.528],1,2744.138
10,False,600,1.498,89,[],[],"[(1111, 872)]",[],[1],[123],[2.05],"[640.0, 512.0]",vertical,"(390.0, 762.0)",[1.2833333333333332],[0.542],1,2748.056
11,False,601,1.301,78,[],[],"[(1105, 881)]",[],[1],[111],[1.8499999999999999],"[640.0, 512.0]",horizontal,"(390.0, 262.0)",[1.5833333333333333],[0.526],1,2752.961
11,False,602,0.562,33,[],[],"[(1093, 889)]",[],[1],[71],[1.1833333333333333],"[640.0, 512.0]",horizontal,"(890.0, 762.0)",[1.35],[0.614],1,2757.988
11,False,603,0.446,26,[],[],"[(1093, 894)]",[],[1],[63],[1.05],"[640.0, 512.0]",vertical,"(390.0, 262.0)",[0.5166666666666666],[0.589],1,2762.064
11,False,604,0.762,45,[],[],"[(1087, 866)]",[],[1],[79],[1.3166666666666667],"[640.0, 512.0]",vertical,"(390.0, 262.0)",[0.5833333333333334],[0.541],1,2765.161
11,False,605,1.17,70,[],[],"[(1096, 886)]",[],[1],[105],[1.75],"[640.0, 512.0]",vertical,"(890.0, 762.0)",[1.65],[0.558],1,2768.879
11,False,606,0.538,32,[],[],"[(1109, 877)]",[],[1],[65],[1.0833333333333333],"[640.0, 512.0]",vertical,"(890.0, 762.0)",[1.6166666666666667],[0.542],1,2774.049
11,False,607,0.532,31,[],[],"[(1093, 884)]",[],[1],[65],[1.0833333333333333],"[640.0, 512.0]",horizontal,"(890.0, 262.0)",[0.7666666666666666],[0.539],1,2778.29
11,False,608,0.693,41,[],[],"[(1099, 884)]",[],[1],[72],[1.2],"[640.0, 512.0]",horizontal,"(890.0, 262.0)",[1.6666666666666667],[0.494],1,2781.706
11,False,609,0.937,56,[],[],"[(1094, 878)]",[],[1],[89],[1.4833333333333334],"[640.0, 512.0]",vertical,"(390.0, 762.0)",[0.6833333333333333],[0.524],1,2786.084
11,False,610,0.91,54,[],[],"[(1074, 870)]",[],[1],[98],[1.6333333333333333],"[640.0, 512.0]",vertical,"(390.0, 262.0)",[0.7833333333333333],[0.711],1,2789.772
11,False,611,1.148,68,[],[],"[(1084, 903)]",[],[1],[103],[1.7166666666666666],"[640.0, 512.0]",vertical,"(890.0, 762.0)",[1.3666666666666667],[0.555],1,2793.717
11,False,612,1.205,72,[],[],"[(1099, 885)]",[],[1],[95],[1.5833333333333333],"[640.0, 512.0]",vertical,"(890.0, 262.0)",[1.1833333333333333],[0.363],1,2798.396
11,False,613,0.61,36,[],[],"[(1142, 889)]",[],[1],[86],[1.4333333333333333],"[640.0, 512.0]",vertical,"(390.0, 762.0)",[0.6],[0.807],0,2802.807
11,False,614,1.418,85,[],[],"[(1148, 859)]",[],[1],[135],[2.25],"[640.0, 512.0]",horizontal,"(890.0, 762.0)",[0.95],[0.803],0,2808.904
11,False,615,0.394,23,[],[],"[(1112, 885)]",[],[1],[52],[0.8666666666666667],"[640.0, 512.0]",vertical,"(390.0, 262.0)",[1.0333333333333332],[0.459],1,2813.644
11,False,616,1.38,82,[],[],"[(1123, 885)]",[],[1],[115],[1.9166666666666667],"[640.0, 512.0]",horizontal,"(390.0, 762.0)",[0.5333333333333333],[0.528],1,2864.89
11,False,617,0.841,50,[],[],"[(1086, 865)]",[],[1],[87],[1.45],"[640.0, 512.0]",horizontal,"(890.0, 762.0)",[0.8833333333333333],[0.591],1,2868.889
11,False,618,0.773,46,[],[],"[(1093, 880)]",[],[1],[85],[1.4166666666666667],"[640.0, 512.0]",vertical,"(390.0, 262.0)",[0.8333333333333334],[0.627],1,2872.819
11,False,619,1.025,61,[],[],"[(1121, 894)]",[],[1],[95],[1.5833333333333333],"[640.0, 512.0]",vertical,"(890.0, 762.0)",[0.75],[0.542],1,2876.57
11,False,620,0.341,20,[],[],"[(1117, 888)]",[],[1],[57],[0.95],"[640.0, 512.0]",vertical,"(390.0, 762.0)",[0.55],[0.589],1,2880.451
11,False,621,1.228,73,[],[],"[(1117, 889)]",[],[1],[112],[1.8666666666666667],"[640.0, 512.0]",vertical,"(390.0, 262.0)",[1.1833333333333333],[0.625],1,2883.516
11,False,622,1.301,78,[],[],"[(1122, 894)]",[],[1],[112],[1.8666666666666667],"[640.0, 512.0]",horizontal,"(890.0, 262.0)",[1.05],[0.545],1,2888.127
11,False,623,0.932,55,[],[],"[(1087, 884)]",[],[1],[89],[1.4833333333333334],"[640.0, 512.0]",vertical,"(390.0, 262.0)",[0.55],[0.541],1,2892.884
11,False,624,1.358,81,[],[],"[(1069, 884)]",[],[1],[116],[1.9333333333333333],"[640.0, 512.0]",horizontal,"(390.0, 762.0)",[1.0],[0.557],1,2896.479
11,False,625,1.479,88,[],[],"[(1101, 881)]",[],[1],[123],[2.05],"[640.0, 512.0]",horizontal,"(890.0, 762.0)",[1.6666666666666667],[0.561],1,2900.947
11,False,626,1.385,83,[],[],"[(1118, 880)]",[],[1],[122],[2.033333333333333],"[640.0, 512.0]",horizontal,"(390.0, 262.0)",[0.5166666666666666],[0.627],1,2906.256
11,False,627,0.51,30,[],[],"[(1148, 878)]",[],[1],[65],[1.0833333333333333],"[640.0, 512.0]",vertical,"(390.0, 262.0)",[0.9166666666666666],[0.558],1,2910.901
11,False,628,0.414,24,[],[],"[(1093, 888)]",[],[1],[61],[1.0166666666666666],"[640.0, 512.0]",vertical,"(890.0, 262.0)",[1.4333333333333333],[0.594],1,2915.439
11,False,629,1.2,72,[],[],"[(1112, 866)]",[],[1],[106],[1.7666666666666666],"[640.0, 512.0]",horizontal,"(890.0, 262.0)",[0.95],[0.543],1,2919.419
11,False,630,1.101,66,[],[],"[(1093, 882)]",[],[1],[101],[1.6833333333333333],"[640.0, 512.0]",horizontal,"(390.0, 762.0)",[1.0],[0.563],1,2923.659
11,False,631,0.858,51,[],[],"[(1093, 903)]",[],[1],[88],[1.4666666666666666],"[640.0, 512.0]",horizontal,"(390.0, 762.0)",[1.6],[0.588],1,2927.831
11,False,632,0.81,48,[],[],"[(1116, 899)]",[],[1],[90],[1.5],"[640.0, 512.0]",vertical,"(890.0, 762.0)",[0.6833333333333333],[0.671],1,2932.471
11,False,633,1.065,63,[],[],"[(1100, 889)]",[],[1],[98],[1.6333333333333333],"[640.0, 512.0]",horizontal,"(390.0, 262.0)",[1.05],[0.568],1,2936.215
11,False,634,1.329,79,[],[],"[(1087, 896)]",[],[1],[],[],"[640.0, 512.0]",vertical,"(390.0, 262.0)",[],[0],0,2940.453
11,False,635,0.615,36,[],[],"[(1093, 880)]",[],[1],[69],[1.15],"[640.0, 512.0]",horizontal,"(390.0, 262.0)",[0.9333333333333333],[0.522],1,2944.394
11,False,636,0.649,38,[],[],"[(1132, 884)]",[],[1],[73],[1.2166666666666666],"[640.0, 512.0]",horizontal,"(390.0, 762.0)",[1.4666666666666666],[0.556],1,2948.855
11,False,637,1.483,88,[],[],"[(1118, 853)]",[],[1],[122],[2.033333333333333],"[640.0, 512.0]",horizontal,"(890.0, 762.0)",[1.2],[0.556],1,2953.063
11,False,638,1.095,65,[],[],"[(1080, 874)]",[],[1],[106],[1.7666666666666666],"[640.0, 512.0]",horizontal,"(890.0, 762.0)",[1.45],[0.655],1,2958.019
11,False,639,0.932,55,[],[],"[(1099, 852)]",[],[1],[88],[1.4666666666666666],"[640.0, 512.0]",horizontal,"(390.0, 262.0)",[1.25],[0.531],1,2962.704
11,False,640,1.098,65,[],[],"[(1096, 879)]",[],[1],[99],[1.65],"[640.0, 512.0]",vertical,"(390.0, 762.0)",[1.5],[0.544],1,2966.997
11,False,641,0.399,23,[],[],"[(1093, 894)]",[],[1],[73],[1.2166666666666666],"[640.0, 512.0]",horizontal,"(890.0, 762.0)",[1.2333333333333334],[0.8],0,2971.762
11,False,642,0.441,26,[],[],"[(1143, 855)]",[],[1],[65],[1.0833333333333333],"[640.0, 512.0]",horizontal,"(890.0, 762.0)",[1.4666666666666666],[0.628],1,2975.718
11,False,643,1.03,61,[],[],"[(1087, 869)]",[],[1],[94],[1.5666666666666667],"[640.0, 512.0]",horizontal,"(390.0, 262.0)",[0.6],[0.529],1,2979.824
11,False,644,0.855,51,[],[],"[(1081, 912)]",[],[1],[94],[1.5666666666666667],"[640.0, 512.0]",horizontal,"(890.0, 762.0)",[1.6166666666666667],[0.697],1,2983.57
11,False,645,0.977,58,[],[],"[(1105, 883)]",[],[1],[89],[1.4833333333333334],"[640.0, 512.0]",vertical,"(890.0, 262.0)",[1.65],[0.494],1,2988.322
11,False,646,0.515,30,[],[],"[(1105, 879)]",[],[1],[70],[1.1666666666666667],"[640.0, 512.0]",horizontal,"(890.0, 262.0)",[0.7],[0.634],1,2992.955
11,False,647,0.524,31,[],[],"[(1074, 888)]",[],[1],[70],[1.1666666666666667],"[640.0, 512.0]",vertical,"(390.0, 262.0)",[1.5166666666666666],[0.626],1,2996.332
11,False,648,1.13,67,[],[],"[(1090, 896)]",[],[1],[109],[1.8166666666666667],"[640.0, 512.0]",vertical,"(390.0, 762.0)",[1.3],[0.674],1,3000.654
11,False,649,1.44,86,[],[],"[(1083, 886)]",[],[1],[129],[2.15],"[640.0, 512.0]",vertical,"(890.0, 262.0)",[1.1],[0.691],1,3008.568
11,False,650,1.311,78,[],[],"[(1093, 875)]",[],[1],[120],[2.0],"[640.0, 512.0]",horizontal,"(890.0, 262.0)",[1.6],[0.678],1,3013.404
11,False,651,0.988,59,[],[],"[(1158, 878)]",[],[1],[91],[1.5166666666666666],"[640.0, 512.0]",vertical,"(890.0, 762.0)",[0.8666666666666667],[0.512],1,3019.103
11,False,652,1.212,72,[],[3091267],"[(1098, 860)]","[(1144, 856)]",[1],[12],[0.2],"[640.0, 512.0]",horizontal,"(890.0, 262.0)",[],[0],0,3056.369
11,False,653,1.379,82,[],[],"[(1119, 846)]",[],[1],[111],[1.8499999999999999],"[640.0, 512.0]",vertical,"(890.0, 762.0)",[1.4666666666666666],[0.462],1,3058.341
11,False,654,0.364,21,[],[],"[(1093, 885)]",[],[1],[55],[0.9166666666666666],"[640.0, 512.0]",vertical,"(890.0, 762.0)",[0.5833333333333334],[0.541],1,3063.304
11,False,655,0.321,19,[],[],"[(1093, 873)]",[],[1],[51],[0.85],"[640.0, 512.0]",horizontal,"(890.0, 262.0)",[0.9666666666666667],[0.508],1,3066.414
11,False,656,1.015,60,[],[],"[(1111, 871)]",[],[1],[94],[1.5666666666666667],"[640.0, 512.0]",vertical,"(890.0, 262.0)",[0.7333333333333333],[0.54],1,3069.873
11,False,657,1.082,64,[],[],"[(1087, 875)]",[],[1],[96],[1.6],"[640.0, 512.0]",horizontal,"(390.0, 762.0)",[0.6333333333333333],[0.515],1,3073.737
11,False,658,1.369,82,[],[],"[(1117, 885)]",[],[1],[123],[2.05],"[640.0, 512.0]",vertical,"(390.0, 762.0)",[1.1666666666666667],[0.656],1,3078.534
11,False,659,0.489,29,[],[],"[(1093, 862)]",[],[1],[58],[0.9666666666666667],"[640.0, 512.0]",horizontal,"(390.0, 762.0)",[0.8666666666666667],[0.466],1,3083.237
11,False,660,0.612,36,[],[],"[(1123, 886)]",[],[1],[67],[1.1166666666666667],"[640.0, 512.0]",vertical,"(390.0, 262.0)",[1.6],[0.49],1,3086.643
12,False,661,0.457,27,[],[],"[(1123, 865)]",[],[1],[57],[0.95],"[640.0, 512.0]",vertical,"(890.0, 262.0)",[1.05],[0.481],1,3090.919
12,False,662,0.684,41,[],[],"[(1100, 868)]",[],[1],[77],[1.2833333333333332],"[640.0, 512.0]",vertical,"(390.0, 762.0)",[0.5],[0.578],1,3094.504
12,False,663,0.858,51,[],[],"[(1123, 881)]",[],[1],[86],[1.4333333333333333],"[640.0, 512.0]",horizontal,"(890.0, 762.0)",[1.0],[0.557],1,3097.846
