block,trial,trial_type,taps_start_loc_during_fix,taps_end_loc_during_fix,taps_on_lever_during_fix,taps_on_lever_s_during_fix,bar_orientation,target_xy,cti,rt,acc,time,pulses,fa_rate_recent100,actual_invalid_type
0,1,valid,"[(1146, 822)]",[],[1],[0.4666666666666667],horizontal,"(390.0, 762.0)",1.5,0.439,1,0.566,1,0.0,same
0,2,invalid_same_bar,"[(1142, 839)]",[],[1],[0.5166666666666666],vertical,"(890.0, 762.0)",0.75,0.488,1,11.165,1,0.0,same
0,3,catch,"[(1123, 849)]",[],[1],[],vertical,"(390.0, 262.0)",1.7,nan,1,15.689,1,0.0,same
0,4,valid,"[(1071, 881)]",[],[1],[],horizontal,"(890.0, 762.0)",,"('cti', 0.529)",0,21.201,0,0.0,same
0,5,valid,"[(1125, 815)]",[],[1],[0.6],horizontal,"(390.0, 262.0)",1.2166666666666666,0.563,1,119.735,1,0.0,same
0,6,valid,"[(1156, 774)]",[],[1],[0.5166666666666666],horizontal,"(890.0, 762.0)",1.1833333333333333,0.479,1,124.906,1,0.0,same
0,7,valid,"[(1160, 787)]",[],[1],[0.5833333333333334],horizontal,"(890.0, 762.0)",0.9666666666666667,0.549,1,130.075,1,0.0,same
0,8,valid,"[(1158, 794)]",[],[1],[0.48333333333333334],vertical,"(390.0, 262.0)",0.45,0.455,1,135.395,2,0.0,same
0,9,valid,"[(1183, 787)]",[],[1],[0.48333333333333334],vertical,"(890.0, 762.0)",1.1833333333333333,0.459,1,139.957,2,0.0,same
0,10,catch,"[(1160, 778)]",[],[1],[],vertical,"(390.0, 262.0)",1.7,nan,1,145.723,2,0.0,same
0,11,valid,"[(1155, 779)]",[],[1],[0.5833333333333334],vertical,"(390.0, 262.0)",1.3,0.546,1,151.474,3,0.0,same
0,12,catch,"[(1155, 779)]",[],[1],[],horizontal,"(390.0, 762.0)",1.7,nan,1,157.724,3,0.0,same
0,13,invalid_same_bar,"[(1136, 775)]",[],[1],[0.85],vertical,"(890.0, 262.0)",1.0333333333333332,nan,0,163.993,0,0.0,same
0,14,valid,"[(1146, 808)]",[],[1],[0.45],horizontal,"(390.0, 262.0)",1.3,0.424,1,169.094,1,0.0,same
0,15,invalid_same_bar,"[(1156, 794)]",[],[1],[0.6666666666666666],horizontal,"(390.0, 262.0)",0.4,0.643,1,174.44,1,0.0,same
0,16,catch,"[(1136, 843)]",[],[1],[],vertical,"(890.0, 762.0)",,"('fix', 0.085),nan",0,178.691,0,0.0625,same
0,17,valid,"[(1133, 823)]",[],[1],[0.85],vertical,"(390.0, 262.0)",0.6666666666666666,nan,0,180.289,0,0.058823529411764705,same
0,18,valid,"[(1111, 823)]",[],[1],[0.55],vertical,"(890.0, 762.0)",0.5,0.526,1,185.328,1,0.05555555555555555,same
0,19,invalid_adjacent_other_bar,"[(1144, 794)]",[],[1],[0.85],horizontal,"(390.0, 262.0)",1.1666666666666667,nan,0,190.15,0,0.05263157894736842,other
0,20,valid,"[(1160, 785)]",[],[1],[0.45],horizontal,"(390.0, 262.0)",1.5,0.416,1,195.251,1,0.05,same
0,21,catch,"[(1155, 787)]",[],[1],[],vertical,"(390.0, 262.0)",1.7,nan,1,200.952,1,0.047619047619047616,same
0,22,catch,"[(1147, 785)]",[],[1],[],horizontal,"(390.0, 262.0)",1.7,nan,1,205.974,1,0.045454545454545456,same
0,23,valid,"[(1156, 784)]",[],[1],[0.6],vertical,"(890.0, 262.0)",0.9,0.57,1,211.541,2,0.043478260869565216,same
0,24,catch,"[(1146, 794)]",[],[1],[],vertical,"(390.0, 762.0)",1.7,nan,1,217.142,2,0.041666666666666664,same
0,25,valid,"[(1146, 807)]",[],[1],[0.4666666666666667],horizontal,"(390.0, 262.0)",1.3666666666666667,0.435,1,222.746,2,0.04,same
0,26,valid,"[(1155, 776)]",[],[1],[0.8333333333333334],vertical,"(890.0, 762.0)",0.6666666666666666,0.808,0,228.891,0,0.038461538461538464,same
0,27,catch,"[(1160, 797)]",[],[1],[],horizontal,"(890.0, 262.0)",1.7,nan,1,233.46,1,0.037037037037037035,same
0,28,catch,"[(1146, 831)]",[],[1],[],vertical,"(390.0, 262.0)",1.7,nan,1,238.628,1,0.03571428571428571,same
0,29,catch,"[(1156, 794)]",[],[1],[],horizontal,"(890.0, 262.0)",1.7,nan,1,244.267,1,0.034482758620689655,same
0,30,valid,"[(1146, 796)]",[],[1],[0.5166666666666666],horizontal,"(390.0, 762.0)",0.8666666666666667,0.487,1,249.145,2,0.03333333333333333,same
0,31,valid,"[(1174, 801)]",[],[1],[0.45],vertical,"(390.0, 262.0)",0.8666666666666667,0.423,1,254.476,2,0.03225806451612903,same
0,32,catch,"[(1151, 788)]",[],[1],[],horizontal,"(890.0, 762.0)",1.7,nan,1,259.493,2,0.03125,same
0,33,valid,"[(1155, 796)]",[],[1],[0.6166666666666667],vertical,"(390.0, 262.0)",0.45,0.578,1,264.962,3,0.030303030303030304,same
0,34,valid,"[(1150, 800)]",[],[1],[0.48333333333333334],horizontal,"(390.0, 762.0)",1.3666666666666667,0.445,1,270.092,3,0.029411764705882353,same
0,35,catch,"[(1160, 802)]",[],[1],[],vertical,"(890.0, 762.0)",1.7,nan,1,276.154,3,0.02857142857142857,same
0,36,catch,"[(1155, 775)]",[],[1],[],horizontal,"(390.0, 762.0)",1.7,nan,1,282.331,3,0.027777777777777776,same
0,37,valid,"[(1160, 799)]",[],[1],[0.5166666666666666],vertical,"(390.0, 762.0)",1.0833333333333333,0.472,1,288.119,3,0.02702702702702703,same
0,38,valid,"[(1137, 774)]",[],[1],[0.48333333333333334],vertical,"(890.0, 262.0)",0.8166666666666667,0.452,1,294.175,3,0.02631578947368421,same
0,39,valid,"[(1178, 802)]",[],[1],[0.4666666666666667],horizontal,"(890.0, 262.0)",0.8,0.442,1,300.064,3,0.02564102564102564,same
0,40,valid,"[(1167, 778)]",[],[1],[0.4666666666666667],horizontal,"(890.0, 762.0)",0.8166666666666667,0.431,1,305.792,3,0.025,same
0,41,valid,"[(1153, 790)]",[],[1],[0.5166666666666666],horizontal,"(890.0, 762.0)",1.0833333333333333,0.491,1,310.976,3,0.024390243902439025,same
0,42,valid,"[(1160, 780)]",[],[1],[0.4666666666666667],vertical,"(390.0, 262.0)",0.4,0.435,1,316.912,3,0.023809523809523808,same
0,43,invalid_same_bar,"[(1148, 792)]",[],[1],[0.85],horizontal,"(390.0, 762.0)",0.5666666666666667,nan,0,322.073,0,0.023255813953488372,same
0,44,valid,"[(1111, 794)]",[],[1],[0.4166666666666667],vertical,"(890.0, 762.0)",1.0166666666666666,0.379,1,326.825,1,0.022727272727272728,same
0,45,valid,"[(1161, 790)]",[],[1],[0.5],vertical,"(390.0, 262.0)",0.7666666666666666,0.469,1,332.227,1,0.022222222222222223,same
0,46,invalid_same_bar,"[(1158, 782)]",[],[1],[0.5333333333333333],vertical,"(390.0, 262.0)",0.85,0.504,1,337.141,1,0.021739130434782608,same
0,47,valid,"[(1188, 800)]",[],[1],[0.6666666666666666],vertical,"(890.0, 262.0)",0.9166666666666666,0.631,1,342.033,2,0.02127659574468085,same
0,48,valid,"[(1126, 828)]",[],[1],[0.43333333333333335],horizontal,"(890.0, 262.0)",0.43333333333333335,0.406,1,347.108,2,0.020833333333333332,same
0,49,valid,"[(1168, 784)]",[],[1],[0.48333333333333334],vertical,"(890.0, 762.0)",1.0666666666666667,0.448,1,352.476,2,0.02040816326530612,same
0,50,catch,"[(1160, 799)]",[],[1],[],horizontal,"(890.0, 762.0)",1.7,nan,1,358.029,3,0.02,same
0,51,catch,"[(1160, 788)]",[],[1],[],vertical,"(890.0, 762.0)",1.7,nan,1,363.776,3,0.02,same
0,52,valid,"[(1157, 784)]",[],[1],[0.48333333333333334],horizontal,"(390.0, 762.0)",1.1333333333333333,0.457,1,369.392,3,0.02,same
0,53,catch,"[(1166, 794)]",[],[1],[],horizontal,"(890.0, 762.0)",1.7,nan,1,375.825,3,0.02,same
0,54,valid,"[(1137, 788)]",[],[1],[0.55],vertical,"(890.0, 262.0)",0.3833333333333333,0.521,1,381.95,3,0.02,same
0,55,valid,"[(1143, 785)]",[],[1],[0.85],horizontal,"(390.0, 262.0)",1.4166666666666667,nan,0,387.564,0,0.02,same
0,56,invalid_adjacent_other_bar,"[(1155, 805)]",[],[1],[0.6166666666666667],horizontal,"(890.0, 762.0)",0.35,0.586,1,392.483,1,0.02,other
0,57,catch,"[(1141, 766)]",[],[1],[],horizontal,"(390.0, 762.0)",1.7,nan,1,396.759,1,0.02,same
0,58,valid,"[(1157, 790)]",[],[1],[0.5333333333333333],horizontal,"(390.0, 762.0)",1.5333333333333332,0.509,1,402.028,1,0.02,same
0,59,valid,"[(1151, 791)]",[],[1],[0.48333333333333334],horizontal,"(890.0, 262.0)",0.9166666666666666,0.457,1,407.173,2,0.02,same
0,60,catch,"[(1162, 779)]",[],[1],[],vertical,"(390.0, 762.0)",1.7,nan,1,412.762,2,0.02,same
0,61,valid,"[(1153, 800)]",[],[1],[0.4166666666666667],horizontal,"(890.0, 762.0)",1.3666666666666667,0.384,1,418.741,2,0.02,same
0,62,valid,"[(1184, 796)]",[],[1],[0.48333333333333334],horizontal,"(390.0, 262.0)",0.9,0.455,1,424.175,3,0.02,same
0,63,valid,"[(1156, 806)]",[],[1],[0.4666666666666667],horizontal,"(890.0, 262.0)",0.8,0.439,1,429.975,3,0.02,same
0,64,valid,"[(1178, 786)]",[],[1],[0.4666666666666667],horizontal,"(890.0, 762.0)",1.0833333333333333,0.441,1,435.509,3,0.02,same
0,65,valid,"[(1167, 790)]",[],[1],[0.4666666666666667],horizontal,"(890.0, 262.0)",1.0666666666666667,0.441,1,441.7,3,0.02,same
0,66,valid,"[(1165, 801)]",[],[1],[0.5333333333333333],vertical,"(890.0, 262.0)",1.5166666666666666,0.494,1,447.405,3,0.0,same
0,67,catch,"[(1165, 779)]",[],[1],[],horizontal,"(890.0, 262.0)",1.7,nan,1,453.844,3,0.0,same
0,68,invalid_adjacent_other_bar,"[(1120, 795)]",[],[1],[0.6166666666666667],vertical,"(390.0, 762.0)",1.5166666666666666,0.592,1,460.075,3,0.0,other
0,69,valid,"[(1160, 779)]",[],[1],[0.5333333333333333],horizontal,"(390.0, 762.0)",0.8666666666666667,0.509,1,466.842,3,0.0,same
0,70,invalid_same_bar,"[(1164, 803)]",[],[1],[0.5333333333333333],horizontal,"(390.0, 762.0)",0.48333333333333334,0.501,1,472.499,3,0.0,same
0,71,invalid_same_bar,"[(1169, 770)]",[],[1],[0.4666666666666667],vertical,"(390.0, 262.0)",1.4333333333333333,0.44,1,478.592,3,0.0,same
0,72,valid,"[(1180, 783)]",[],[1],[0.6],vertical,"(390.0, 262.0)",0.8,0.577,1,484.908,3,0.0,same
0,73,valid,"[(1134, 773)]",[],[1],[0.48333333333333334],horizontal,"(890.0, 762.0)",0.75,0.451,1,490.666,3,0.0,same
0,74,valid,"[(1162, 778)]",[],[1],[0.85],vertical,"(890.0, 762.0)",0.43333333333333335,nan,0,496.092,0,0.0,same
0,75,valid,"[(1141, 794)]",[],[1],[0.5333333333333333],vertical,"(390.0, 762.0)",1.0833333333333333,0.511,1,500.516,1,0.0,same
0,76,valid,"[(1188, 794)]",[],[1],[0.5333333333333333],horizontal,"(390.0, 762.0)",0.6333333333333333,0.504,1,505.442,1,0.0,same
0,77,catch,"[(1156, 788)]",[],[1],[],vertical,"(890.0, 762.0)",,"('cti', 1.425),nan",0,510.192,0,0.02,same
0,78,catch,"[(1101, 839)]",[],[1],[],horizontal,"(890.0, 262.0)",,"('cti', 1.364),nan",0,515.112,0,0.04,same
0,79,valid,"[(1141, 818)]",[],[1],[0.5333333333333333],vertical,"(890.0, 262.0)",1.4666666666666666,0.499,1,523.392,1,0.04,same
0,80,invalid_adjacent_other_bar,"[(1165, 799)]",[],[1],[0.5166666666666666],horizontal,"(390.0, 762.0)",1.15,0.474,1,528.686,1,0.04,other
0,81,valid,"[(1162, 787)]",[],[1],[0.65],vertical,"(390.0, 762.0)",0.7833333333333333,0.604,1,533.778,1,0.04,same
0,82,invalid_adjacent_other_bar,"[(1163, 793)]",[],[1],[0.55],vertical,"(390.0, 262.0)",1.4833333333333334,0.516,1,538.728,2,0.04,other
0,83,catch,"[(1164, 795)]",[],[1],[],horizontal,"(890.0, 762.0)",1.7,nan,1,544.62,2,0.04,same
0,84,valid,"[(1157, 828)]",[],[1],[0.48333333333333334],horizontal,"(890.0, 762.0)",0.8666666666666667,0.453,1,550.327,2,0.04,same
0,85,valid,"[(1135, 803)]",[],[1],[0.55],horizontal,"(890.0, 262.0)",1.4666666666666666,0.521,1,555.504,3,0.04,same
0,86,valid,"[(1162, 787)]",[],[1],[0.4666666666666667],horizontal,"(890.0, 262.0)",0.8666666666666667,0.429,1,562.117,3,0.04,same
0,87,invalid_same_bar,"[(1174, 786)]",[],[1],[0.7833333333333333],horizontal,"(890.0, 762.0)",1.2666666666666666,0.74,1,567.828,3,0.04,same
0,88,valid,"[(1168, 787)]",[],[1],[0.45],horizontal,"(390.0, 262.0)",0.8,0.417,1,574.448,3,0.04,same
0,89,valid,"[(1155, 774)]",[],[1],[0.7333333333333333],vertical,"(390.0, 762.0)",0.45,0.692,1,580.044,3,0.04,same
0,90,valid,"[(1156, 774)]",[],[1],[0.48333333333333334],vertical,"(890.0, 262.0)",0.5666666666666667,0.457,1,585.45,3,0.04,same
0,91,invalid_same_bar,"[(1170, 779)]",[],[1],[0.5333333333333333],horizontal,"(390.0, 762.0)",1.1333333333333333,0.493,1,590.867,3,0.04,same
0,92,valid,"[(1156, 786)]",[],[1],[0.6833333333333333],horizontal,"(390.0, 762.0)",1.3833333333333333,0.635,1,597.011,3,0.04,same
0,93,valid,"[(1160, 794)]",[],[1],[0.5166666666666666],horizontal,"(890.0, 762.0)",1.5,0.484,1,603.712,3,0.04,same
0,94,catch,"[(1159, 782)]",[],[1],[],horizontal,"(890.0, 262.0)",1.7,nan,1,610.105,3,0.04,same
0,95,invalid_adjacent_other_bar,"[(1161, 776)]",[],[1],[0.5166666666666666],vertical,"(390.0, 762.0)",0.5,0.485,1,615.988,3,0.04,other
0,96,catch,"[(1172, 798)]",[],[1],[],vertical,"(890.0, 262.0)",1.7,nan,1,620.943,3,0.04,same
0,97,valid,"[(1156, 795)]",[],[1],[0.5],horizontal,"(890.0, 262.0)",0.8,0.463,1,626.832,3,0.04,same
0,98,valid,"[(1141, 813)]",[],[1],[0.5833333333333334],vertical,"(390.0, 262.0)",0.9,0.542,1,632.34,3,0.04,same
0,99,valid,"[(1160, 798)]",[],[1],[0.85],horizontal,"(390.0, 762.0)",1.15,nan,0,638.519,0,0.04,same
0,100,invalid_adjacent_other_bar,"[(1131, 811)]",[],[1],[0.5],vertical,"(890.0, 762.0)",1.4166666666666667,0.458,1,643.636,1,0.04,other
0,101,catch,"[(1156, 796)]",[],[1],[],horizontal,"(890.0, 262.0)",1.7,nan,1,649.412,1,0.04,same
0,102,valid,"[(1164, 802)]",[],[1],[0.45],horizontal,"(890.0, 262.0)",0.8,0.41,1,654.345,1,0.04,same
0,103,invalid_same_bar,"[(1170, 787)]",[],[1],[0.85],horizontal,"(390.0, 262.0)",1.5,nan,0,659.067,0,0.04,same
0,104,valid,"[(1143, 793)]",[],[1],[0.5],vertical,"(890.0, 262.0)",1.2666666666666666,0.46,1,664.311,1,0.04,same
0,105,valid,"[(1166, 765)]",[],[1],[0.4666666666666667],horizontal,"(890.0, 262.0)",0.5,0.424,1,669.567,1,0.04,same
0,106,valid,"[(1159, 794)]",[],[1],[0.4666666666666667],vertical,"(890.0, 262.0)",0.7666666666666666,0.427,1,673.778,1,0.04,same
0,107,valid,"[(1160, 789)]",[],[1],[0.5],vertical,"(390.0, 262.0)",1.3666666666666667,0.454,1,678.344,2,0.04,same
0,108,valid,"[(1168, 780)]",[],[1],[0.6166666666666667],vertical,"(890.0, 262.0)",0.4166666666666667,0.577,1,683.978,2,0.04,same
0,109,valid,"[(1163, 788)]",[],[1],[0.5333333333333333],horizontal,"(390.0, 762.0)",0.55,0.496,1,689.055,2,0.04,same
0,110,invalid_same_bar,"[(1156, 791)]",[],[1],[0.85],vertical,"(890.0, 762.0)",1.1,nan,0,694.519,0,0.04,same
0,111,catch,"[(1149, 806)]",[],[1],[],vertical,"(390.0, 762.0)",1.7,nan,1,699.858,1,0.04,same
0,112,valid,"[(1131, 785)]",[],[1],[0.11666666666666667],horizontal,"(890.0, 762.0)",0.45,0.084,0,705.073,0,0.04,same
0,113,valid,"[(1141, 821)]",[],[1],[0.45],horizontal,"(890.0, 262.0)",1.3833333333333333,0.413,1,708.321,1,0.04,same
0,114,catch,"[(1180, 796)]",[],[1],[],horizontal,"(890.0, 262.0)",1.7,nan,1,713.712,1,0.04,same
0,115,valid,"[(1165, 808)]",[],[1],[0.4666666666666667],horizontal,"(890.0, 262.0)",1.1333333333333333,0.426,1,719.178,1,0.04,same
0,116,valid,"[(1175, 778)]",[],[1],[0.45],horizontal,"(890.0, 262.0)",1.5,0.411,1,724.418,2,0.04,same
0,117,valid,"[(1158, 796)]",[],[1],[0.65],horizontal,"(390.0, 262.0)",0.5166666666666666,0.608,1,730.617,2,0.04,same
0,118,valid,"[(1148, 783)]",[],[1],[0.5],vertical,"(390.0, 762.0)",0.6833333333333333,0.458,1,735.938,2,0.04,same
0,119,valid,"[(1160, 796)]",[],[1],[0.5333333333333333],horizontal,"(390.0, 762.0)",1.2166666666666666,0.499,1,741.206,3,0.04,same
0,120,catch,"[(1179, 790)]",[],[1],[],horizontal,"(890.0, 762.0)",1.7,nan,1,747.628,3,0.04,same
0,121,valid,"[(1156, 798)]",[],[1],[0.5],vertical,"(890.0, 262.0)",1.4833333333333334,0.458,1,753.961,3,0.04,same
0,122,catch,"[(1180, 787)]",[],[1],[],horizontal,"(890.0, 262.0)",1.7,nan,1,760.225,3,0.04,same
0,123,invalid_adjacent_other_bar,"[(1166, 812)]",[],[1],[0.5333333333333333],vertical,"(390.0, 762.0)",0.36666666666666664,0.493,1,766.461,3,0.04,other
0,124,valid,"[(1176, 808)]",[],[1],[0.5166666666666666],horizontal,"(390.0, 762.0)",0.65,0.479,1,772.011,3,0.04,same
0,125,valid,"[(1165, 799)]",[],[1],[0.5],vertical,"(890.0, 762.0)",0.7666666666666666,0.457,1,777.245,3,0.04,same
0,126,valid,"[(1161, 795)]",[],[1],[0.5166666666666666],horizontal,"(390.0, 262.0)",0.6333333333333333,0.48,1,782.899,3,0.04,same
0,127,valid,"[(1144, 789)]",[],[1],[0.5],horizontal,"(390.0, 762.0)",1.0666666666666667,0.47,1,788.379,3,0.02,same
0,128,catch,"[(1177, 783)]",[],[1],[],vertical,"(390.0, 762.0)",1.7,nan,1,794.11,3,0.0,same
0,129,invalid_same_bar,"[(1164, 785)]",[],[1],[0.5833333333333334],vertical,"(390.0, 262.0)",0.35,0.544,1,799.862,3,0.0,same
0,130,catch,"[(1163, 786)]",[],[1],[],horizontal,"(890.0, 262.0)",,"('cti', 1.491),nan",0,804.878,0,0.02,same
0,131,valid,"[(1121, 795)]",[],[1],[0.4666666666666667],vertical,"(390.0, 262.0)",1.5333333333333332,0.435,1,809.784,1,0.02,same
0,132,valid,"[(1160, 799)]",[],[1],[0.45],horizontal,"(390.0, 262.0)",1.2833333333333332,0.407,1,815.544,1,0.02,same
0,133,catch,"[(1165, 789)]",[],[1],[],horizontal,"(890.0, 262.0)",1.7,nan,1,821.145,1,0.02,same
0,134,invalid_adjacent_other_bar,"[(1156, 767)]",[],[1],[0.5166666666666666],vertical,"(390.0, 762.0)",1.4333333333333333,0.477,1,826.734,2,0.02,other
0,135,valid,"[(1155, 802)]",[],[1],[0.6333333333333333],horizontal,"(890.0, 762.0)",0.6166666666666667,0.592,1,832.812,2,0.02,same
0,136,catch,"[(1137, 788)]",[],[1],[],horizontal,"(890.0, 262.0)",1.7,nan,1,837.713,2,0.02,same
0,137,valid,"[(1161, 818)]",[],[1],[0.85],vertical,"(390.0, 762.0)",1.25,nan,0,843.417,0,0.02,same
0,138,valid,"[(1141, 791)]",[],[1],[0.48333333333333334],horizontal,"(890.0, 262.0)",1.4666666666666666,0.442,1,848.551,1,0.02,same
0,139,invalid_adjacent_other_bar,"[(1176, 775)]",[],[1],[0.5666666666666667],horizontal,"(890.0, 262.0)",1.3,0.529,1,854.267,1,0.02,other
0,140,valid,"[(1165, 783)]",[],[1],[0.5333333333333333],horizontal,"(890.0, 762.0)",0.6333333333333333,0.498,1,859.563,1,0.02,same
0,141,valid,"[(1132, 818)]",[],[1],[0.5333333333333333],horizontal,"(390.0, 262.0)",0.35,0.494,1,864.146,2,0.02,same
0,142,valid,"[(1163, 813)]",[],[1],[0.85],horizontal,"(890.0, 762.0)",0.9,nan,0,869.36,0,0.02,same
0,143,valid,"[(1153, 799)]",[],[1],[0.6333333333333333],horizontal,"(390.0, 762.0)",1.1333333333333333,0.59,1,874.049,1,0.02,same
0,144,valid,"[(1152, 791)]",[],[1],[],horizontal,"(890.0, 262.0)",,"('cti', 0.532)",0,879.343,0,0.02,same
0,145,valid,"[(1135, 803)]",[],[1],[],horizontal,"(890.0, 762.0)",,"('fix', 0.233)",0,882.515,0,0.02,same
0,146,valid,"[(1113, 820)]",[],[1],[0.6333333333333333],vertical,"(890.0, 762.0)",0.95,0.588,1,884.049,1,0.02,same
0,147,invalid_same_bar,"[(1160, 813)]",[],[1],[0.5666666666666667],vertical,"(390.0, 262.0)",0.4666666666666667,0.528,1,889.51,1,0.02,same
0,148,invalid_same_bar,"[(1142, 789)]",[],[1],[0.5833333333333334],horizontal,"(390.0, 762.0)",0.8833333333333333,0.539,1,894.05,1,0.02,same
0,149,invalid_same_bar,"[(1158, 787)]",[],[1],[0.6333333333333333],horizontal,"(890.0, 262.0)",1.3166666666666667,0.592,1,898.81,2,0.02,same
0,150,valid,"[(1156, 810)]",[],[1],[0.5],horizontal,"(890.0, 762.0)",0.9666666666666667,0.455,1,904.595,2,0.02,same
0,151,valid,"[(1151, 802)]",[],[1],[0.5],vertical,"(390.0, 762.0)",0.36666666666666664,0.463,1,909.694,2,0.02,same
0,152,valid,"[(1156, 802)]",[],[1],[0.6833333333333333],vertical,"(390.0, 262.0)",1.35,0.643,1,914.61,3,0.02,same
0,153,valid,"[(1132, 777)]",[],[1],[0.4666666666666667],vertical,"(890.0, 262.0)",1.2166666666666666,0.429,1,921.012,3,0.02,same
0,154,catch,"[(1165, 789)]",[],[1],[],vertical,"(390.0, 762.0)",1.7,nan,1,927.128,3,0.02,same
0,155,valid,"[(1162, 791)]",[],[1],[0.5],vertical,"(390.0, 262.0)",0.95,0.462,1,933.096,3,0.02,same
0,156,valid,"[(1165, 779)]",[],[1],[0.5],horizontal,"(390.0, 262.0)",0.7833333333333333,0.472,1,938.944,3,0.02,same
0,157,valid,"[(1136, 810)]",[],[1],[0.48333333333333334],horizontal,"(890.0, 262.0)",1.4,0.441,1,944.295,3,0.02,same
0,158,catch,"[(1136, 803)]",[],[1],[],vertical,"(890.0, 262.0)",1.7,nan,1,950.347,3,0.02,same
0,159,valid,"[(1150, 795)]",[],[1],[0.6333333333333333],horizontal,"(890.0, 262.0)",1.15,0.597,1,956.749,3,0.02,same
0,160,invalid_adjacent_other_bar,"[(1136, 818)]",[],[1],[0.5666666666666667],horizontal,"(390.0, 262.0)",1.2333333333333334,0.526,1,962.683,3,0.02,other
0,161,valid,"[(1165, 794)]",[],[1],[0.5333333333333333],vertical,"(890.0, 262.0)",1.1666666666666667,0.489,1,969.212,3,0.02,same
0,162,valid,"[(1110, 824)]",[],[1],[0.85],horizontal,"(390.0, 762.0)",0.5666666666666667,nan,0,975.331,0,0.02,same
0,163,catch,"[(1111, 807)]",[],[1],[],vertical,"(890.0, 762.0)",1.7,nan,1,990.629,1,0.02,same
0,164,valid,"[(1136, 812)]",[],[1],[0.48333333333333334],vertical,"(890.0, 262.0)",0.65,0.441,1,995.989,1,0.02,same
0,165,valid,"[(1136, 807)]",[],[1],[0.85],vertical,"(390.0, 262.0)",0.7833333333333333,nan,0,1000.578,0,0.02,same
0,166,invalid_adjacent_other_bar,"[(1132, 803)]",[],[1],[0.5166666666666666],vertical,"(390.0, 762.0)",1.0833333333333333,0.476,1,1005.113,1,0.02,other
0,167,valid,"[(1135, 799)]",[],[1],[0.5166666666666666],vertical,"(890.0, 262.0)",0.9,0.48,1,1009.746,1,0.02,same
0,168,catch,"[(1144, 793)]",[],[1],[],vertical,"(890.0, 262.0)",1.7,nan,1,1014.785,1,0.02,same
0,169,valid,"[(1166, 783)]",[],[1],[0.85],horizontal,"(890.0, 762.0)",1.0333333333333332,nan,0,1019.978,0,0.02,same
0,170,valid,"[(1137, 792)]",[],[1],[0.5666666666666667],horizontal,"(390.0, 262.0)",1.15,0.525,1,1024.614,1,0.02,same
0,171,valid,"[(1163, 774)]",[],[1],[0.85],vertical,"(390.0, 262.0)",0.7,nan,0,1029.83,0,0.02,same
0,172,valid,"[(1134, 810)]",[],[1],[0.55],vertical,"(890.0, 762.0)",0.5333333333333333,0.509,1,1034.662,1,0.02,same
0,173,invalid_adjacent_other_bar,"[(1136, 781)]",[],[1],[0.7],horizontal,"(390.0, 762.0)",1.2333333333333334,0.657,1,1039.563,1,0.02,other
0,174,invalid_same_bar,"[(1165, 782)]",[],[1],[0.6666666666666666],horizontal,"(890.0, 762.0)",1.1,0.628,1,1045.33,1,0.02,same
0,175,catch,"[(1129, 804)]",[],[1],[],vertical,"(390.0, 262.0)",1.7,nan,1,1050.701,2,0.02,same
0,176,valid,"[(1169, 806)]",[],[1],[],vertical,"(890.0, 762.0)",,"('cti', 0.393)",0,1056.747,0,0.02,same
0,177,valid,"[(1136, 798)]",[],[1],[0.6666666666666666],horizontal,"(890.0, 262.0)",1.5,0.619,1,1059.929,1,0.02,same
0,178,catch,"[(1170, 801)]",[],[1],[],horizontal,"(390.0, 262.0)",1.7,nan,1,1065.43,1,0.02,same
0,179,invalid_same_bar,"[(1159, 783)]",[],[1],[0.6833333333333333],horizontal,"(390.0, 262.0)",1.1666666666666667,0.641,1,1070.78,1,0.02,same
0,180,catch,"[(1157, 774)]",[],[1],[],vertical,"(890.0, 262.0)",1.7,nan,1,1075.947,2,0.0,same
0,181,catch,"[(1157, 799)]",[],[1],[],horizontal,"(890.0, 762.0)",1.7,nan,1,1081.811,2,0.0,same
0,182,valid,"[(1130, 779)]",[],[1],[0.5333333333333333],vertical,"(890.0, 262.0)",1.3833333333333333,0.493,1,1087.272,2,0.0,same
0,183,catch,"[(1136, 787)]",[],[1],[],vertical,"(890.0, 762.0)",1.7,nan,1,1093.229,3,0.0,same
0,184,valid,"[(1131, 802)]",[],[1],[0.65],vertical,"(390.0, 262.0)",0.7,0.606,1,1099.096,3,0.0,same
0,185,catch,"[(1131, 815)]",[],[1],[],horizontal,"(890.0, 262.0)",1.7,nan,1,1104.503,3,0.0,same
0,186,catch,"[(1168, 799)]",[],[1],[],vertical,"(390.0, 262.0)",1.7,nan,1,1110.613,3,0.0,same
0,187,invalid_same_bar,"[(1156, 794)]",[],[1],[0.65],horizontal,"(390.0, 762.0)",1.5166666666666666,0.613,1,1116.622,3,0.0,same
0,188,catch,"[(1173, 789)]",[],[1],[],vertical,"(390.0, 262.0)",1.7,nan,1,1123.165,3,0.0,same
0,189,catch,"[(1151, 795)]",[],[1],[],vertical,"(390.0, 762.0)",1.7,nan,1,1129.641,3,0.0,same
0,190,valid,"[(1139, 799)]",[],[1],[0.6166666666666667],horizontal,"(390.0, 262.0)",0.6833333333333333,0.576,1,1135.647,3,0.0,same
0,191,valid,"[(1162, 793)]",[],[1],[0.6666666666666666],horizontal,"(390.0, 262.0)",1.2666666666666666,0.627,1,1141.188,3,0.0,same
0,192,valid,"[(1160, 792)]",[],[1],[0.85],horizontal,"(390.0, 762.0)",0.35,nan,0,1147.63,0,0.0,same
0,193,catch,"[(1126, 807)]",[],[1],[],vertical,"(390.0, 262.0)",1.7,nan,1,1151.747,1,0.0,same
0,194,catch,"[(1126, 803)]",[],[1],[],vertical,"(390.0, 762.0)",1.7,nan,1,1157.258,1,0.0,same
0,195,valid,"[(1126, 851)]",[],[1],[0.5833333333333334],horizontal,"(890.0, 262.0)",1.05,0.547,1,1162.615,1,0.0,same
0,196,valid,"[(1161, 792)]",[],[1],[0.6],horizontal,"(890.0, 262.0)",0.6333333333333333,0.562,1,1364.37,2,0.0,same
0,197,valid,"[(1165, 803)]",[],[1],[0.6],vertical,"(890.0, 762.0)",0.75,0.552,1,1369.157,2,0.0,same
0,198,valid,"[(1170, 791)]",[],[1],[0.5],vertical,"(890.0, 762.0)",0.85,0.455,1,1374.519,2,0.0,same
0,199,catch,"[(1088, 813)]",[],[1],[],horizontal,"(890.0, 762.0)",1.7,nan,1,1379.854,3,0.0,same
0,200,valid,"[(1150, 786)]",[],[1],[0.6333333333333333],horizontal,"(390.0, 262.0)",0.8833333333333333,0.589,1,1524.731,3,0.0,same
0,201,valid,"[(1150, 799)]",[],[1],[0.5833333333333334],horizontal,"(390.0, 762.0)",0.8333333333333334,0.539,1,1530.548,3,0.0,same
0,202,valid,"[(1091, 823)]",[],[1],[0.85],vertical,"(890.0, 762.0)",1.4666666666666666,nan,0,1536.544,0,0.0,same
0,203,valid,"[(1123, 793)]",[],[1],[0.5666666666666667],vertical,"(890.0, 262.0)",0.43333333333333335,0.524,1,2099.899,1,0.0,same
0,204,valid,"[(1156, 803)]",[],[1],[0.4666666666666667],vertical,"(890.0, 262.0)",1.35,0.426,1,2104.332,1,0.0,same
0,205,valid,"[(1072, 833)]",[],[1],[0.45],horizontal,"(890.0, 262.0)",1.45,0.41,1,2109.732,1,0.0,same
0,206,valid,"[(1170, 798)]",[],[1],[0.85],horizontal,"(390.0, 262.0)",0.85,nan,0,2121.915,0,0.0,same
0,207,catch,"[(1110, 799)]",[],[1],[],vertical,"(890.0, 262.0)",1.7,nan,1,2126.201,1,0.0,same
0,208,invalid_adjacent_other_bar,"[(1168, 789)]",[],[1],[0.5],vertical,"(390.0, 762.0)",0.7833333333333333,0.466,1,2131.788,1,0.0,other
0,209,valid,"[(1156, 788)]",[],[1],[0.5],horizontal,"(390.0, 262.0)",0.7666666666666666,0.459,1,2136.567,1,0.0,same
0,210,catch,"[(1174, 789)]",[],[1],[],vertical,"(390.0, 262.0)",1.7,nan,1,2140.747,2,0.0,same
0,211,valid,"[(1175, 799)]",[],[1],[0.5666666666666667],horizontal,"(390.0, 262.0)",0.85,0.525,1,2146.515,2,0.0,same
0,212,catch,"[(1167, 798)]",[],[1],[],vertical,"(390.0, 262.0)",1.7,nan,1,2151.72,2,0.0,same
0,213,valid,"[(1160, 799)]",[],[1],[0.4666666666666667],vertical,"(890.0, 262.0)",1.4166666666666667,0.424,1,2157.688,3,0.0,same
0,214,valid,"[(1166, 792)]",[],[1],[0.6],horizontal,"(890.0, 762.0)",0.9666666666666667,0.57,1,2164.316,3,0.0,same
0,215,invalid_adjacent_other_bar,"[(1156, 792)]",[],[1],[0.48333333333333334],vertical,"(390.0, 762.0)",1.0,0.446,1,2169.982,3,0.0,other
0,216,valid,"[(1160, 790)]",[],[1],[0.48333333333333334],horizontal,"(890.0, 262.0)",1.0333333333333332,0.44,1,2175.834,3,0.0,same
0,217,catch,"[(1161, 765)]",[],[1],[],vertical,"(890.0, 262.0)",1.7,nan,1,2181.35,3,0.0,same
0,218,valid,"[(1170, 800)]",[],[1],[0.48333333333333334],vertical,"(390.0, 262.0)",1.1166666666666667,0.444,1,2187.558,3,0.0,same
0,219,catch,"[(1141, 792)]",[],[1],[],vertical,"(890.0, 762.0)",1.7,nan,1,2193.073,3,0.0,same
0,220,catch,"[(1160, 824)]",[],[1],[],horizontal,"(890.0, 762.0)",1.7,nan,1,2199.514,3,0.0,same
0,221,valid,"[(1167, 787)]",[],[1],[0.5833333333333334],horizontal,"(890.0, 762.0)",0.8833333333333333,0.539,1,2205.866,3,0.0,same
0,222,valid,"[(1171, 795)]",[],[1],[0.85],vertical,"(390.0, 262.0)",0.55,nan,0,2211.055,0,0.0,same
0,223,valid,"[(1122, 800)]",[],[1],[0.3333333333333333],vertical,"(390.0, 762.0)",1.4,0.296,1,2215.15,1,0.0,same
0,224,valid,"[(1155, 789)]",[],[1],[0.5166666666666666],horizontal,"(890.0, 262.0)",0.9333333333333333,0.476,1,2220.478,1,0.0,same
0,225,valid,"[(1159, 790)]",[],[1],[0.5166666666666666],vertical,"(390.0, 762.0)",1.2333333333333334,0.476,1,2224.916,1,0.0,same
0,226,valid,"[(1154, 812)]",[],[1],[0.85],vertical,"(390.0, 762.0)",0.5166666666666666,nan,0,2230.017,0,0.0,same
0,227,valid,"[(1136, 808)]",[],[1],[0.5],vertical,"(890.0, 762.0)",0.6333333333333333,0.465,1,2234.016,1,0.0,same
0,228,valid,"[(1134, 794)]",[],[1],[0.5],vertical,"(390.0, 762.0)",0.65,0.466,1,2238.283,1,0.0,same
0,229,catch,"[(1171, 794)]",[],[1],[],vertical,"(890.0, 762.0)",1.7,nan,1,2242.838,1,0.0,same
0,230,valid,"[(1160, 793)]",[],[1],[0.5166666666666666],vertical,"(890.0, 262.0)",1.2333333333333334,0.474,1,2248.267,2,0.0,same
0,231,valid,"[(1166, 798)]",[],[1],[],horizontal,"(390.0, 762.0)",,"('cti', 0.541)",0,2254.167,0,0.0,same
0,232,valid,"[(1116, 819)]",[],[1],[0.6],horizontal,"(890.0, 762.0)",0.4,0.555,1,2258.031,1,0.0,same
0,233,valid,"[(1180, 812)]",[],[1],[0.85],vertical,"(890.0, 762.0)",0.5833333333333334,nan,0,2262.398,0,0.0,same
0,234,valid,"[(1155, 800)]",[],[1],[0.6166666666666667],vertical,"(890.0, 762.0)",0.9666666666666667,0.573,1,2266.449,1,0.0,same
0,235,valid,"[(1129, 820)]",[],[1],[0.5],horizontal,"(390.0, 262.0)",0.65,0.462,1,2271.732,1,0.0,same
0,236,invalid_adjacent_other_bar,"[(1162, 790)]",[],[1],[0.48333333333333334],vertical,"(390.0, 262.0)",0.48333333333333334,0.445,1,2276.775,1,0.0,other
0,237,invalid_adjacent_other_bar,"[(1107, 814)]",[],[1],[0.5166666666666666],horizontal,"(890.0, 762.0)",1.2666666666666666,0.473,1,2282.268,2,0.0,other
0,238,catch,"[(1136, 823)]",[],[1],[],vertical,"(890.0, 762.0)",1.7,nan,1,2288.476,2,0.0,same
0,239,valid,"[(1153, 804)]",[],[1],[0.4666666666666667],horizontal,"(890.0, 262.0)",0.6,0.421,1,2294.466,2,0.0,same
0,240,catch,"[(1166, 796)]",[],[1],[],horizontal,"(390.0, 262.0)",1.7,nan,1,2299.034,3,0.0,same
0,241,valid,"[(1155, 801)]",[],[1],[0.6],horizontal,"(390.0, 262.0)",0.8666666666666667,0.556,1,2304.946,3,0.0,same
0,242,valid,"[(1156, 801)]",[],[1],[0.85],vertical,"(390.0, 262.0)",1.2166666666666666,nan,0,2311.044,0,0.0,same
0,243,catch,"[(1150, 817)]",[],[1],[],vertical,"(390.0, 762.0)",1.7,nan,1,2316.05,1,0.0,same
0,244,valid,"[(1167, 797)]",[],[1],[0.6166666666666667],horizontal,"(390.0, 262.0)",1.1,0.58,1,2321.232,1,0.0,same
0,245,valid,"[(1175, 786)]",[],[1],[0.7666666666666666],vertical,"(890.0, 262.0)",1.4,0.725,1,2326.356,1,0.0,same
0,246,invalid_adjacent_other_bar,"[(1164, 791)]",[],[1],[0.6166666666666667],vertical,"(390.0, 262.0)",1.4,0.578,1,2331.849,2,0.0,other
0,247,valid,"[(1175, 803)]",[],[1],[0.55],vertical,"(390.0, 762.0)",1.3333333333333333,0.508,1,2337.626,2,0.0,same
0,248,valid,"[(1166, 796)]",[],[1],[0.6833333333333333],horizontal,"(890.0, 262.0)",0.9,0.636,1,2343.451,2,0.0,same
0,249,valid,"[(1163, 795)]",[],[1],[0.85],horizontal,"(890.0, 762.0)",0.36666666666666664,nan,0,2349.034,0,0.0,same
0,250,valid,"[(1159, 795)]",[],[1],[0.5833333333333334],horizontal,"(890.0, 262.0)",1.3333333333333333,0.544,1,2353.256,1,0.0,same
0,251,invalid_same_bar,"[(1111, 833)]",[],[1],[0.31666666666666665],horizontal,"(390.0, 262.0)",1.4166666666666667,0.275,1,2358.867,1,0.0,same
0,252,valid,"[(1102, 835)]",[],[1],[0.4666666666666667],vertical,"(390.0, 762.0)",0.4166666666666667,0.426,1,2364.336,1,0.0,same
0,253,valid,"[(1158, 795)]",[],[1],[0.6166666666666667],vertical,"(890.0, 762.0)",1.35,0.572,1,2372.549,2,0.0,same
0,254,catch,"[(1155, 761)]",[],[1],[],horizontal,"(390.0, 262.0)",1.7,nan,1,2378.318,2,0.0,same
0,255,invalid_same_bar,"[(1136, 804)]",[],[1],[0.85],vertical,"(890.0, 762.0)",1.1166666666666667,nan,0,2383.71,0,0.0,same
0,256,valid,"[(1097, 838)]",[],[1],[0.7],horizontal,"(890.0, 762.0)",1.35,0.655,1,2388.919,1,0.0,same
0,257,valid,"[(1101, 828)]",[],[1],[0.85],horizontal,"(890.0, 262.0)",0.8,nan,0,2394.884,0,0.0,same
0,258,valid,"[(1145, 799)]",[],[1],[0.4666666666666667],vertical,"(890.0, 762.0)",0.6,0.425,1,2411.734,1,0.0,same
0,259,valid,"[(1155, 789)]",[],[1],[0.85],horizontal,"(390.0, 262.0)",0.7833333333333333,nan,0,2416.104,0,0.0,same
0,260,valid,"[(1156, 804)]",[],[1],[0.6166666666666667],vertical,"(890.0, 262.0)",0.7666666666666666,0.571,1,2420.973,1,0.0,same
0,261,catch,"[(1186, 798)]",[],[1],[],horizontal,"(390.0, 762.0)",1.7,nan,1,2425.801,1,0.0,same
0,262,valid,"[(1158, 797)]",[],[1],[0.5],horizontal,"(890.0, 762.0)",1.3,0.453,1,2431.283,1,0.0,same
0,263,catch,"[(1161, 795)]",[],[1],[],horizontal,"(390.0, 262.0)",1.7,nan,1,2436.6,2,0.0,same
0,264,valid,"[(1158, 789)]",[],[1],[0.45],horizontal,"(390.0, 262.0)",0.65,0.416,1,2442.102,2,0.0,same
0,265,valid,"[(1158, 809)]",[],[1],[0.45],horizontal,"(390.0, 262.0)",1.3833333333333333,0.409,1,2447.233,2,0.0,same
0,266,valid,"[(1134, 813)]",[],[1],[0.4666666666666667],vertical,"(390.0, 762.0)",0.9666666666666667,0.423,1,2453.399,3,0.0,same
0,267,valid,"[(1158, 814)]",[],[1],[0.4666666666666667],vertical,"(890.0, 262.0)",1.2833333333333332,0.425,1,2459.158,3,0.0,same
0,268,valid,"[(1057, 935)]",[],[1],[0.55],horizontal,"(890.0, 762.0)",1.2833333333333332,0.505,1,2465.205,3,0.0,same
0,269,invalid_adjacent_other_bar,"[(1158, 804)]",[],[1],[0.85],horizontal,"(390.0, 262.0)",1.1833333333333333,nan,0,2471.924,0,0.0,other
0,270,valid,"[(1167, 813)]",[],[1],[0.85],vertical,"(890.0, 262.0)",0.5333333333333333,nan,0,2477.162,0,0.0,same
0,271,valid,"[(1086, 806)]",[],[1],[0.55],horizontal,"(890.0, 762.0)",0.6166666666666667,0.501,1,2481.201,1,0.0,same
0,272,catch,"[(1156, 786)]",[],[1],[],vertical,"(390.0, 262.0)",1.7,nan,1,2485.63,1,0.0,same
0,273,valid,"[(1166, 794)]",[],[1],[0.85],horizontal,"(890.0, 762.0)",1.3,nan,0,2490.732,0,0.0,same
0,274,catch,"[(1137, 813)]",[],[1],[],horizontal,"(390.0, 262.0)",1.7,nan,1,2495.418,1,0.0,same
0,275,catch,"[(1131, 828)]",[],[1],[],vertical,"(890.0, 262.0)",1.7,nan,1,2500.583,1,0.0,same
0,276,valid,"[(1166, 790)]",[],[1],[0.55],vertical,"(890.0, 262.0)",1.0833333333333333,0.508,1,2526.28,1,0.0,same
0,277,valid,"[(1169, 785)]",[],[1],[0.5],horizontal,"(390.0, 762.0)",0.36666666666666664,0.461,1,2531.183,2,0.0,same
0,278,catch,"[(1158, 784)]",[],[1],[],vertical,"(890.0, 762.0)",1.7,nan,1,2536.221,2,0.0,same
0,279,valid,"[(1157, 793)]",[],[1],[0.4666666666666667],horizontal,"(390.0, 762.0)",0.7833333333333333,0.425,1,2541.483,2,0.0,same
0,280,valid,"[(1159, 782)]",[],[1],[0.5833333333333334],horizontal,"(890.0, 262.0)",1.35,0.543,1,2546.497,3,0.0,same
0,281,catch,"[(1160, 786)]",[],[1],[],horizontal,"(890.0, 762.0)",1.7,nan,1,2552.575,3,0.0,same
0,282,invalid_adjacent_other_bar,"[(1166, 776)]",[],[1],[0.5333333333333333],vertical,"(390.0, 762.0)",1.1166666666666667,0.503,1,2558.418,3,0.0,other
0,283,catch,"[(1171, 784)]",[],[1],[],horizontal,"(390.0, 762.0)",1.7,nan,1,2564.2,3,0.0,same
0,284,valid,"[(1176, 806)]",[],[1],[0.5],vertical,"(390.0, 762.0)",1.0666666666666667,0.458,1,2569.79,3,0.0,same
0,285,invalid_adjacent_other_bar,"[(1165, 770)]",[],[1],[0.65],horizontal,"(390.0, 262.0)",0.9666666666666667,0.608,1,2575.396,3,0.0,other
0,286,invalid_same_bar,"[(1166, 794)]",[],[1],[0.85],horizontal,"(390.0, 762.0)",1.3333333333333333,nan,0,2580.892,0,0.0,same
0,287,invalid_same_bar,"[(1160, 779)]",[],[1],[0.6666666666666666],horizontal,"(890.0, 762.0)",0.48333333333333334,0.625,1,2586.092,1,0.0,same
0,288,catch,"[(1166, 796)]",[],[1],[],vertical,"(390.0, 762.0)",1.7,nan,1,2590.742,1,0.0,same
0,289,valid,"[(1156, 780)]",[],[1],[0.48333333333333334],vertical,"(890.0, 262.0)",1.2833333333333332,0.444,1,2596.168,1,0.0,same
0,290,valid,"[(1165, 771)]",[],[1],[0.5833333333333334],horizontal,"(890.0, 262.0)",0.35,0.539,1,2601.162,2,0.0,same
0,291,valid,"[(1157, 790)]",[],[1],[0.5333333333333333],horizontal,"(390.0, 262.0)",1.1833333333333333,0.494,1,2605.567,2,0.0,same
0,292,valid,"[(1136, 779)]",[],[1],[0.5166666666666666],vertical,"(890.0, 762.0)",0.9666666666666667,0.478,1,2610.979,2,0.0,same
0,293,catch,"[(1166, 823)]",[],[1],[],vertical,"(890.0, 262.0)",1.7,nan,1,2616.446,3,0.0,same
0,294,valid,"[(1171, 790)]",[],[1],[0.4666666666666667],horizontal,"(890.0, 262.0)",0.45,0.429,1,2622.705,3,0.0,same
0,295,valid,"[(1175, 786)]",[],[1],[0.5166666666666666],horizontal,"(890.0, 262.0)",0.45,0.473,1,2627.727,3,0.0,same
0,296,catch,"[(1170, 767)]",[],[1],[],vertical,"(890.0, 262.0)",1.7,nan,1,2632.904,3,0.0,same
0,297,invalid_same_bar,"[(1131, 800)]",[],[1],[0.48333333333333334],vertical,"(890.0, 262.0)",1.4166666666666667,0.443,1,2639.165,3,0.0,same
0,298,valid,"[(1166, 796)]",[],[1],[0.6333333333333333],vertical,"(890.0, 762.0)",1.2666666666666666,0.587,1,2645.802,3,0.0,same
0,299,valid,"[(1119, 817)]",[],[1],[0.85],horizontal,"(390.0, 262.0)",0.9833333333333333,nan,0,2651.749,0,0.0,same
0,300,valid,"[(1129, 796)]",[],[1],[0.6166666666666667],vertical,"(390.0, 762.0)",1.4833333333333334,0.571,1,2657.187,1,0.0,same
0,301,valid,"[(1090, 821)]",[],[1],[0.55],horizontal,"(890.0, 762.0)",0.9,0.508,1,2662.668,1,0.0,same
0,302,valid,"[(1157, 798)]",[],[1],[0.6333333333333333],vertical,"(890.0, 262.0)",1.1166666666666667,0.591,1,2674.927,1,0.0,same
0,303,valid,"[(1160, 800)]",[],[1],[0.13333333333333333],vertical,"(890.0, 262.0)",1.3666666666666667,0.1,0,2680.134,0,0.0,same
0,304,valid,"[(1111, 856)]",[],[1],[0.48333333333333334],vertical,"(890.0, 762.0)",1.1833333333333333,0.441,1,2685.201,1,0.0,same
0,305,valid,"[(1170, 809)]",[],[1],[0.85],vertical,"(890.0, 762.0)",1.4,nan,0,2692.05,0,0.0,same
0,306,catch,"[(1126, 824)]",[],[1],[],horizontal,"(390.0, 262.0)",,"('cti', 1.391),nan",0,2697.118,0,0.02,same
0,307,invalid_adjacent_other_bar,"[(1136, 849)]",[],[1],[0.85],horizontal,"(890.0, 762.0)",0.55,nan,0,2701.885,0,0.02,other
0,308,valid,"[(1126, 789)]",[],[1],[0.5],vertical,"(890.0, 762.0)",0.6333333333333333,0.461,1,2706.351,1,0.02,same
0,309,valid,"[(1179, 812)]",[],[1],[0.5333333333333333],vertical,"(390.0, 262.0)",0.36666666666666664,0.491,1,2710.684,1,0.02,same
0,310,valid,"[(1082, 854)]",[],[1],[0.5833333333333334],vertical,"(890.0, 262.0)",1.1166666666666667,0.544,1,2715.15,1,0.02,same
0,311,invalid_same_bar,"[(1165, 796)]",[],[1],[0.5333333333333333],horizontal,"(890.0, 762.0)",0.6,0.489,1,2720.617,2,0.02,same
0,312,valid,"[(1168, 795)]",[],[1],[0.4],horizontal,"(390.0, 262.0)",1.45,0.356,1,2725.401,2,0.02,same
0,313,valid,"[(1156, 798)]",[],[1],[0.85],vertical,"(390.0, 262.0)",1.25,nan,0,2730.888,0,0.02,same
0,314,valid,"[(1140, 799)]",[],[1],[0.5166666666666666],horizontal,"(890.0, 262.0)",0.35,0.474,1,2736.172,1,0.02,same
0,315,valid,"[(1153, 797)]",[],[1],[0.5],vertical,"(890.0, 262.0)",1.25,0.462,1,2740.626,1,0.02,same
0,316,valid,"[(1165, 775)]",[],[1],[0.5166666666666666],horizontal,"(390.0, 762.0)",0.43333333333333335,0.474,1,2745.546,1,0.02,same
0,317,invalid_same_bar,"[(1166, 783)]",[],[1],[0.5666666666666667],horizontal,"(890.0, 262.0)",1.0833333333333333,0.523,1,2749.651,2,0.02,same
0,318,catch,"[(1142, 789)]",[],[1],[],vertical,"(390.0, 262.0)",1.7,nan,1,2755.236,2,0.02,same
0,319,catch,"[(1138, 793)]",[],[1],[],vertical,"(390.0, 762.0)",1.7,nan,1,2761.097,2,0.02,same
0,320,valid,"[(1171, 812)]",[],[1],[0.7],vertical,"(890.0, 262.0)",0.55,0.655,1,2766.417,3,0.02,same
0,321,catch,"[(1160, 795)]",[],[1],[],vertical,"(390.0, 262.0)",1.7,nan,1,2772.271,3,0.02,same
0,322,valid,"[(1165, 792)]",[],[1],[0.5333333333333333],vertical,"(890.0, 762.0)",0.8666666666666667,0.49,1,2778.66,3,0.02,same
0,323,valid,"[(1166, 810)]",[],[1],[0.8333333333333334],vertical,"(390.0, 262.0)",0.5333333333333333,0.787,1,2784.667,3,0.02,same
0,324,invalid_adjacent_other_bar,"[(1119, 788)]",[],[1],[0.5833333333333334],vertical,"(390.0, 762.0)",0.5166666666666666,0.541,1,2790.568,3,0.02,other
0,325,valid,"[(1166, 793)]",[],[1],[0.5333333333333333],vertical,"(390.0, 262.0)",1.2833333333333332,0.49,1,2796.052,3,0.02,same
0,326,catch,"[(1124, 791)]",[],[1],[],horizontal,"(390.0, 262.0)",1.7,nan,1,2802.097,3,0.02,same
0,327,catch,"[(1175, 790)]",[],[1],[],vertical,"(390.0, 762.0)",1.7,nan,1,2808.441,3,0.02,same
0,328,invalid_adjacent_other_bar,"[(1174, 806)]",[],[1],[0.5],vertical,"(890.0, 262.0)",1.15,0.457,1,2814.563,3,0.02,other
0,329,valid,"[(1137, 804)]",[],[1],[0.4666666666666667],horizontal,"(390.0, 262.0)",0.7166666666666667,0.427,1,2820.275,3,0.02,same
0,330,catch,"[(1177, 786)]",[],[1],[],vertical,"(390.0, 762.0)",1.7,nan,1,2825.601,3,0.02,same
0,331,valid,"[(1159, 785)]",[],[1],[0.5333333333333333],vertical,"(390.0, 262.0)",1.1,0.494,1,2831.414,3,0.02,same
0,332,valid,"[(1137, 780)]",[],[1],[0.4666666666666667],horizontal,"(890.0, 262.0)",1.1166666666666667,0.426,1,2837.534,3,0.02,same
0,333,valid,"[(1159, 789)]",[],[1],[0.6666666666666666],horizontal,"(890.0, 762.0)",1.4,0.624,1,2843.685,3,0.02,same
0,334,valid,"[(1167, 794)]",[],[1],[0.5666666666666667],vertical,"(890.0, 262.0)",1.5333333333333332,0.52,1,2850.087,3,0.02,same
0,335,valid,"[(1137, 805)]",[],[1],[0.48333333333333334],vertical,"(390.0, 762.0)",1.1166666666666667,0.443,1,2856.41,3,0.02,same
0,336,valid,"[(1131, 799)]",[],[1],[0.5],vertical,"(890.0, 262.0)",0.3833333333333333,0.464,1,2861.931,3,0.02,same
0,337,valid,"[(1122, 842)]",[],[1],[0.4666666666666667],horizontal,"(890.0, 762.0)",1.2833333333333332,0.428,1,2867.296,3,0.02,same
0,338,valid,"[(1133, 804)]",[],[1],[0.4166666666666667],horizontal,"(890.0, 262.0)",1.4166666666666667,0.375,1,2873.051,3,0.02,same
0,339,catch,"[(1121, 804)]",[],[1],[],horizontal,"(890.0, 262.0)",1.7,nan,1,2879.572,3,0.02,same
0,340,valid,"[(1164, 781)]",[],[1],[0.6166666666666667],vertical,"(390.0, 762.0)",1.1333333333333333,0.569,1,2885.784,3,0.02,same
0,341,valid,"[(1126, 818)]",[],[1],[0.5666666666666667],horizontal,"(890.0, 762.0)",0.6,0.529,1,2891.794,3,0.02,same
0,342,invalid_same_bar,"[(1160, 801)]",[],[1],[0.5666666666666667],horizontal,"(890.0, 762.0)",0.5166666666666666,0.527,1,2897.362,3,0.02,same
0,343,valid,"[(1127, 802)]",[],[1],[0.5166666666666666],vertical,"(890.0, 262.0)",1.3,0.477,1,2902.901,3,0.02,same
0,344,valid,"[(1126, 796)]",[],[1],[0.4666666666666667],vertical,"(390.0, 762.0)",0.7333333333333333,0.429,1,2909.335,3,0.02,same
0,345,valid,"[(1164, 803)]",[],[1],[0.6166666666666667],horizontal,"(890.0, 262.0)",0.8,0.574,1,2914.381,3,0.02,same
0,346,catch,"[(1134, 783)]",[],[1],[],vertical,"(890.0, 262.0)",1.7,nan,1,2920.067,3,0.02,same
0,347,catch,"[(1161, 793)]",[],[1],[],horizontal,"(890.0, 262.0)",1.7,nan,1,2925.981,3,0.02,same
0,348,invalid_adjacent_other_bar,"[(1140, 822)]",[],[1],[0.5166666666666666],vertical,"(890.0, 262.0)",0.5166666666666666,0.478,1,2931.644,3,0.02,other
0,349,valid,"[(1164, 790)]",[],[1],[0.5166666666666666],horizontal,"(890.0, 762.0)",1.3333333333333333,0.475,1,2937.185,3,0.02,same
0,350,valid,"[(1167, 811)]",[],[1],[0.6],horizontal,"(890.0, 262.0)",1.1333333333333333,0.557,1,2943.285,3,0.02,same
0,351,valid,"[(1132, 826)]",[],[1],[0.85],horizontal,"(390.0, 762.0)",0.6,nan,0,2949.308,0,0.02,same
0,352,valid,"[(1121, 807)]",[],[1],[0.85],horizontal,"(890.0, 762.0)",0.9,nan,0,2953.709,0,0.02,same
0,353,valid,"[(1134, 784)]","[(1047, 886)]",[1],[0.85],horizontal,"(890.0, 762.0)",,"('bar', 0.854)",0,2959.119,0,0.02,same
0,354,valid,"[(1076, 820)]",[],[1],[0.5833333333333334],horizontal,"(890.0, 762.0)",0.75,0.545,1,2962.358,1,0.02,same
0,355,catch,"[(1164, 794)]",[],[1],[],horizontal,"(890.0, 262.0)",1.7,nan,1,2976.401,1,0.02,same
0,356,valid,"[(1126, 781)]",[],[1],[0.6],horizontal,"(390.0, 262.0)",0.8,0.561,1,2981.952,1,0.0,same
0,357,valid,"[(1139, 798)]",[],[1],[0.5],horizontal,"(390.0, 762.0)",0.7666666666666666,0.463,1,2986.969,2,0.0,same
0,358,catch,"[(1126, 813)]",[],[1],[],horizontal,"(390.0, 262.0)",1.7,nan,1,2992.401,2,0.0,same
0,359,valid,"[(1131, 785)]",[],[1],[0.85],vertical,"(390.0, 262.0)",1.2666666666666666,nan,0,2998.246,0,0.0,same
0,360,valid,"[(1140, 801)]",[],[1],[0.5666666666666667],horizontal,"(390.0, 762.0)",0.9,0.529,1,3003.336,1,0.0,same
0,361,valid,"[(1161, 810)]",[],[1],[0.26666666666666666],horizontal,"(890.0, 262.0)",1.4,0.23,1,3008.6,1,0.0,same
0,362,valid,"[(1165, 779)]",[],[1],[0.85],vertical,"(890.0, 762.0)",0.5,nan,0,3013.427,0,0.0,same
0,363,catch,"[(1126, 791)]",[],[1],[],horizontal,"(390.0, 762.0)",1.7,nan,1,3017.618,1,0.0,same
0,364,valid,"[(1118, 812)]",[],[1],[0.48333333333333334],vertical,"(890.0, 262.0)",1.3166666666666667,0.445,1,3022.619,1,0.0,same
0,365,valid,"[(1126, 787)]",[],[1],[0.5333333333333333],vertical,"(390.0, 262.0)",0.55,0.492,1,3027.553,1,0.0,same
0,366,valid,"[(1126, 800)]",[],[1],[0.5333333333333333],horizontal,"(390.0, 262.0)",0.8833333333333333,0.493,1,3032.025,2,0.0,same
0,367,valid,"[(1123, 787)]",[],[1],[0.55],horizontal,"(890.0, 262.0)",0.9333333333333333,0.509,1,3037.418,2,0.0,same
0,368,invalid_same_bar,"[(1126, 833)]",[],[1],[0.5666666666666667],vertical,"(890.0, 262.0)",0.36666666666666664,0.524,1,3043.052,2,0.0,same
0,369,valid,"[(1131, 783)]",[],[1],[0.45],horizontal,"(890.0, 262.0)",1.4166666666666667,0.415,1,3047.902,3,0.0,same
0,370,valid,"[(1166, 779)]",[],[1],[0.5166666666666666],vertical,"(390.0, 262.0)",0.7666666666666666,0.474,1,3054.352,3,0.0,same
0,371,valid,"[(1162, 799)]",[],[1],[0.75],horizontal,"(390.0, 262.0)",1.2666666666666666,0.709,1,3060.002,3,0.0,same
0,372,catch,"[(1163, 774)]",[],[1],[],horizontal,"(890.0, 762.0)",1.7,nan,1,3066.485,3,0.0,same
0,373,catch,"[(1127, 793)]",[],[1],[],vertical,"(390.0, 762.0)",1.7,nan,1,3072.543,3,0.0,same
0,374,valid,"[(1126, 792)]",[],[1],[0.85],vertical,"(390.0, 262.0)",0.36666666666666664,nan,0,3078.8,0,0.0,same
0,375,valid,"[(1081, 796)]",[],[1],[0.5833333333333334],horizontal,"(390.0, 262.0)",0.8666666666666667,0.546,1,3082.801,1,0.0,same
0,376,valid,"[(1126, 789)]",[],[1],[0.5333333333333333],horizontal,"(890.0, 262.0)",0.7333333333333333,0.491,1,3088.003,1,0.0,same
0,377,valid,"[(1130, 781)]",[],[1],[0.48333333333333334],horizontal,"(890.0, 262.0)",0.36666666666666664,0.442,1,3092.537,1,0.0,same
0,378,valid,"[(1156, 785)]",[],[1],[0.6333333333333333],horizontal,"(390.0, 262.0)",0.3833333333333333,0.598,1,3096.952,2,0.0,same
0,379,valid,"[(1121, 790)]",[],[1],[0.6],vertical,"(390.0, 762.0)",0.95,0.56,1,3101.78,2,0.0,same
0,380,invalid_adjacent_other_bar,"[(1128, 809)]",[],[1],[0.85],horizontal,"(390.0, 762.0)",0.48333333333333334,nan,0,3107.702,0,0.0,other
0,381,valid,"[(1129, 806)]",[],[1],[0.5166666666666666],vertical,"(390.0, 762.0)",0.8833333333333333,0.479,1,3112.287,1,0.0,same
0,382,catch,"[(1126, 792)]",[],[1],[],horizontal,"(390.0, 262.0)",1.7,nan,1,3116.986,1,0.0,same
0,383,valid,"[(1164, 804)]",[],[1],[0.5],vertical,"(890.0, 262.0)",0.6666666666666666,0.456,1,3122.438,1,0.0,same
0,384,valid,"[(1161, 790)]",[],[1],[0.5333333333333333],vertical,"(390.0, 262.0)",1.4333333333333333,0.495,1,3127.167,2,0.0,same
0,385,valid,"[(1155, 779)]",[],[1],[0.85],vertical,"(390.0, 762.0)",1.0666666666666667,nan,0,3132.873,0,0.0,same
0,386,valid,"[(1123, 774)]",[],[1],[0.55],vertical,"(890.0, 762.0)",1.2333333333333334,0.508,1,3138.185,1,0.0,same
0,387,catch,"[(1167, 779)]",[],[1],[],horizontal,"(890.0, 762.0)",1.7,nan,1,3143.385,1,0.0,same
0,388,valid,"[(1170, 803)]",[],[1],[0.5333333333333333],horizontal,"(890.0, 262.0)",1.35,0.491,1,3148.87,1,0.0,same
0,389,valid,"[(1120, 803)]",[],[1],[0.6666666666666666],vertical,"(390.0, 262.0)",0.7666666666666666,0.623,1,3154.45,2,0.0,same
0,390,valid,"[(1129, 800)]",[],[1],[0.4666666666666667],vertical,"(390.0, 262.0)",0.8166666666666667,0.436,1,3160.003,2,0.0,same
0,391,valid,"[(1164, 794)]",[],[1],[0.5],horizontal,"(890.0, 262.0)",1.2166666666666666,0.465,1,3165.287,2,0.0,same
0,392,catch,"[(1126, 799)]",[],[1],[],horizontal,"(890.0, 762.0)",1.7,nan,1,3171.153,3,0.0,same
0,393,valid,"[(1166, 792)]",[],[1],[0.5],horizontal,"(890.0, 262.0)",1.1333333333333333,0.468,1,3177.669,3,0.0,same
0,394,valid,"[(1169, 778)]",[],[1],[0.48333333333333334],horizontal,"(890.0, 262.0)",0.5666666666666667,0.451,1,3183.819,3,0.0,same
0,395,invalid_adjacent_other_bar,"[(1165, 791)]",[],[1],[0.55],vertical,"(390.0, 262.0)",1.3,0.514,1,3189.569,3,0.0,other
0,396,catch,"[(1156, 786)]",[],[1],[0.03333333333333333],horizontal,"(390.0, 762.0)",1.7,"0.019,nan",0,3195.874,0,0.02,same
0,397,catch,"[(1077, 814)]",[],[1],[],horizontal,"(890.0, 762.0)",1.7,nan,1,3200.66,1,0.02,same
0,398,valid,"[(1171, 778)]",[],[1],[0.85],vertical,"(390.0, 762.0)",0.45,nan,0,3211.352,0,0.02,same
0,399,valid,"[(1125, 792)]",[],[1],[0.5333333333333333],vertical,"(890.0, 762.0)",1.0166666666666666,0.502,1,3215.542,1,0.02,same
0,400,valid,"[(1157, 775)]",[],[1],[0.5166666666666666],horizontal,"(390.0, 262.0)",0.9333333333333333,0.472,1,3220.901,1,0.02,same
0,401,valid,"[(1156, 778)]",[],[1],[0.6666666666666666],vertical,"(390.0, 262.0)",1.2666666666666666,0.636,1,3225.497,1,0.02,same
0,402,valid,"[(1121, 782)]",[],[1],[0.5166666666666666],horizontal,"(390.0, 262.0)",0.7166666666666667,0.483,1,3230.538,2,0.02,same
0,403,valid,"[(1121, 778)]",[],[1],[0.7333333333333333],vertical,"(390.0, 262.0)",0.5,0.7,1,3235.853,2,0.02,same
0,404,valid,"[(1121, 806)]",[],[1],[0.5333333333333333],horizontal,"(890.0, 262.0)",0.4,0.502,1,3241.186,2,0.02,same
0,405,catch,"[(1123, 790)]",[],[1],[],vertical,"(890.0, 262.0)",1.7,nan,1,3245.82,3,0.02,same
0,406,catch,"[(1196, 781)]",[],[1],[],horizontal,"(390.0, 762.0)",1.7,nan,1,3252.07,3,0.02,same
0,407,valid,"[(1159, 775)]",[],[1],[0.85],horizontal,"(390.0, 762.0)",0.3833333333333333,nan,0,3258.269,0,0.02,same
0,408,valid,"[(1130, 784)]",[],[1],[0.85],horizontal,"(390.0, 262.0)",1.05,nan,0,3261.984,0,0.02,same
0,409,catch,"[(1165, 778)]",[],[1],[],vertical,"(890.0, 762.0)",1.7,nan,1,3266.886,1,0.02,same
0,410,invalid_same_bar,"[(1159, 790)]",[],[1],[0.5833333333333334],horizontal,"(890.0, 762.0)",0.5166666666666666,0.541,1,3271.992,1,0.02,same
0,411,catch,"[(1165, 782)]",[],[1],[],vertical,"(390.0, 762.0)",1.7,nan,1,3276.853,1,0.02,same
0,412,valid,"[(1137, 769)]",[],[1],[0.5333333333333333],horizontal,"(390.0, 262.0)",0.95,0.502,1,3281.667,2,0.02,same
0,413,valid,"[(1126, 781)]",[],[1],[0.5166666666666666],horizontal,"(890.0, 262.0)",1.3,0.483,1,3287.273,2,0.02,same
0,414,catch,"[(1129, 790)]",[],[1],[],horizontal,"(890.0, 262.0)",1.7,nan,1,3293.186,2,0.02,same
0,415,valid,"[(1129, 788)]",[],[1],[0.7],vertical,"(890.0, 262.0)",1.0666666666666667,0.666,1,3299.019,3,0.02,same
0,416,valid,"[(1126, 777)]",[],[1],[0.5],horizontal,"(390.0, 262.0)",0.9666666666666667,0.458,1,3305.304,3,0.02,same
0,417,valid,"[(1121, 806)]",[],[1],[0.5333333333333333],vertical,"(890.0, 762.0)",0.6333333333333333,0.497,1,3310.738,3,0.02,same
0,418,valid,"[(1161, 784)]",[],[1],[0.6166666666666667],horizontal,"(390.0, 762.0)",1.3,0.576,1,3316.187,3,0.02,same
0,419,valid,"[(1146, 782)]",[],[1],[0.65],vertical,"(890.0, 762.0)",1.4166666666666667,0.613,1,3322.325,3,0.02,same
0,420,valid,"[(1126, 794)]",[],[1],[0.85],horizontal,"(390.0, 262.0)",0.9333333333333333,nan,0,3328.533,0,0.02,same
0,421,catch,"[(1097, 828)]",[],[1],[],horizontal,"(390.0, 262.0)",1.7,nan,1,3333.501,1,0.02,same
0,422,valid,"[(1155, 801)]",[],[1],[0.85],vertical,"(890.0, 262.0)",1.0666666666666667,nan,0,3339.118,0,0.02,same
0,423,valid,"[(1124, 791)]",[],[1],[0.48333333333333334],vertical,"(890.0, 262.0)",0.95,0.447,1,3343.786,1,0.02,same
0,424,catch,"[(1162, 784)]",[],[1],[],vertical,"(390.0, 762.0)",1.7,nan,1,3348.569,1,0.02,same
0,425,valid,"[(1163, 782)]",[],[1],[0.55],vertical,"(390.0, 262.0)",1.4833333333333334,0.509,1,3354.043,1,0.02,same
0,426,valid,"[(1077, 785)]",[],[1],[0.6666666666666666],vertical,"(390.0, 262.0)",0.9,0.632,1,3359.403,2,0.02,same
0,427,catch,"[(1156, 785)]",[],[1],[],horizontal,"(890.0, 762.0)",1.7,nan,1,3364.986,2,0.02,same
0,428,valid,"[(1136, 779)]",[],[1],[0.7333333333333333],horizontal,"(890.0, 762.0)",1.25,0.688,1,3370.469,2,0.02,same
0,429,valid,"[(1120, 809)]",[],[1],[0.55],vertical,"(390.0, 262.0)",0.8166666666666667,0.507,1,3376.436,3,0.02,same
0,430,valid,"[(1169, 781)]",[],[1],[0.65],vertical,"(390.0, 762.0)",1.0166666666666666,0.605,1,3382.803,3,0.02,same
0,431,valid,"[(1113, 786)]",[],[1],[0.4666666666666667],horizontal,"(890.0, 262.0)",0.7333333333333333,0.432,1,3388.87,3,0.02,same
0,432,invalid_same_bar,"[(1127, 776)]",[],[1],[0.5],vertical,"(390.0, 762.0)",1.3,0.463,1,3394.707,3,0.02,same
0,433,catch,"[(1123, 808)]",[],[1],[],horizontal,"(390.0, 762.0)",1.7,nan,1,3400.618,3,0.02,same
0,434,catch,"[(1126, 801)]",[],[1],[],vertical,"(390.0, 262.0)",1.7,nan,1,3406.753,3,0.02,same
0,435,valid,"[(1161, 784)]",[],[1],[0.65],vertical,"(890.0, 262.0)",1.2,0.61,1,3412.836,3,0.02,same
0,436,invalid_adjacent_other_bar,"[(1146, 787)]",[],[1],[0.5166666666666666],vertical,"(390.0, 762.0)",0.5166666666666666,0.484,1,3419.053,3,0.02,other
0,437,catch,"[(1127, 801)]",[],[1],[],horizontal,"(390.0, 262.0)",1.7,nan,1,3424.503,3,0.02,same
0,438,valid,"[(1123, 803)]",[],[1],[0.5],horizontal,"(890.0, 262.0)",1.1166666666666667,0.456,1,3430.612,3,0.02,same
0,439,invalid_adjacent_other_bar,"[(1167, 794)]",[],[1],[0.5],vertical,"(890.0, 762.0)",0.5166666666666666,0.461,1,3436.653,3,0.02,other
0,440,valid,"[(1131, 801)]",[],[1],[0.5166666666666666],vertical,"(890.0, 262.0)",0.5333333333333333,0.478,1,3442.056,3,0.02,same
0,441,catch,"[(1163, 786)]",[],[1],[],vertical,"(890.0, 762.0)",1.7,nan,1,3447.841,3,0.02,same
0,442,valid,"[(1135, 782)]",[],[1],[0.5166666666666666],vertical,"(890.0, 762.0)",0.55,0.475,1,3453.937,3,0.02,same
0,443,catch,"[(1165, 813)]",[],[1],[],horizontal,"(390.0, 262.0)",1.7,nan,1,3460.004,3,0.02,same
0,444,valid,"[(1160, 794)]",[],[1],[0.5],horizontal,"(890.0, 762.0)",0.6166666666666667,0.458,1,3466.411,3,0.02,same
0,445,valid,"[(1126, 791)]",[],[1],[0.5],horizontal,"(390.0, 262.0)",0.9166666666666666,0.466,1,3471.371,3,0.02,same
0,446,catch,"[(1123, 798)]",[],[1],[],horizontal,"(390.0, 762.0)",1.7,nan,1,3477.101,3,0.0,same
0,447,valid,"[(1126, 797)]",[],[1],[0.5],horizontal,"(390.0, 262.0)",0.5666666666666667,0.459,1,3483.027,3,0.0,same
0,448,valid,"[(1161, 792)]",[],[1],[0.85],horizontal,"(890.0, 762.0)",0.5,nan,0,3488.436,0,0.0,same
0,449,valid,"[(1087, 833)]",[],[1],[0.48333333333333334],horizontal,"(890.0, 262.0)",0.7666666666666666,0.441,1,3492.42,1,0.0,same
0,450,catch,"[(1164, 799)]",[],[1],[],vertical,"(890.0, 262.0)",1.7,nan,1,3498.286,1,0.0,same
0,451,invalid_adjacent_other_bar,"[(1131, 786)]",[],[1],[0.55],vertical,"(890.0, 262.0)",1.3,0.513,1,3503.416,1,0.0,other
0,452,valid,"[(1148, 782)]",[],[1],[0.5166666666666666],horizontal,"(390.0, 762.0)",0.8166666666666667,0.479,1,3508.687,2,0.0,same
0,453,catch,"[(1159, 799)]",[],[1],[],horizontal,"(890.0, 262.0)",1.7,nan,1,3513.837,2,0.0,same
0,454,catch,"[(1161, 791)]",[],[1],[],horizontal,"(890.0, 762.0)",1.7,nan,1,3519.472,2,0.0,same
0,455,valid,"[(1116, 825)]",[],[1],[0.5333333333333333],horizontal,"(890.0, 762.0)",1.3333333333333333,0.494,1,3525.152,3,0.0,same
0,456,valid,"[(1126, 775)]",[],[1],[],vertical,"(890.0, 762.0)",,"('cti', 1.051)",0,3531.129,0,0.0,same
0,457,valid,"[(1106, 861)]",[],[1],[0.5166666666666666],vertical,"(390.0, 262.0)",0.6166666666666667,0.473,1,3535.552,1,0.0,same
0,458,valid,"[(1134, 808)]",[],[1],[0.5166666666666666],horizontal,"(390.0, 262.0)",0.48333333333333334,0.476,1,3724.802,1,0.0,same
0,459,catch,"[(1114, 784)]",[],[1],[],horizontal,"(390.0, 262.0)",1.7,nan,1,3729.737,1,0.0,same
0,460,valid,"[(1135, 817)]",[],[1],[0.6833333333333333],vertical,"(390.0, 762.0)",0.7,0.638,1,3735.382,2,0.0,same
0,461,valid,"[(1131, 801)]",[],[1],[0.55],horizontal,"(890.0, 262.0)",1.3833333333333333,0.504,1,3740.786,2,0.0,same
0,462,catch,"[(1174, 779)]",[],[1],[],horizontal,"(890.0, 762.0)",1.7,nan,1,3746.522,2,0.0,same
0,463,valid,"[(1132, 793)]",[],[1],[0.5],horizontal,"(390.0, 262.0)",0.7166666666666667,0.462,1,3752.22,3,0.0,same
0,464,valid,"[(1133, 784)]",[],[1],[0.6],horizontal,"(390.0, 262.0)",1.2,0.559,1,3757.822,3,0.0,same
0,465,valid,"[(1161, 788)]",[],[1],[0.65],horizontal,"(890.0, 762.0)",0.4,0.608,1,3763.487,3,0.0,same
0,466,valid,"[(1175, 791)]",[],[1],[0.6666666666666666],horizontal,"(890.0, 262.0)",0.65,0.623,1,3768.502,3,0.0,same
0,467,catch,"[(1156, 788)]",[],[1],[],horizontal,"(390.0, 762.0)",,"('cti', 1.535),nan",0,3773.62,0,0.02,same
0,468,valid,"[(1096, 805)]",[],[1],[0.48333333333333334],vertical,"(390.0, 762.0)",0.5,0.442,1,3778.554,1,0.02,same
0,469,valid,"[(1155, 809)]",[],[1],[0.55],horizontal,"(890.0, 262.0)",0.4,0.514,1,3783.705,1,0.02,same
0,470,valid,"[(1136, 804)]",[],[1],[0.5333333333333333],vertical,"(390.0, 262.0)",0.5,0.494,1,3787.77,1,0.02,same
0,471,catch,"[(1160, 780)]",[],[1],[],horizontal,"(390.0, 762.0)",1.7,nan,1,3792.675,2,0.02,same
0,472,valid,"[(1136, 786)]",[],[1],[0.65],vertical,"(890.0, 262.0)",0.43333333333333335,0.607,1,3798.628,2,0.02,same
0,473,catch,"[(1151, 784)]",[],[1],[],vertical,"(390.0, 262.0)",1.7,nan,1,3803.77,2,0.02,same
0,474,invalid_same_bar,"[(1132, 796)]",[],[1],[0.5166666666666666],vertical,"(390.0, 762.0)",0.5166666666666666,0.475,1,3809.042,3,0.02,same
0,475,catch,"[(1126, 807)]",[],[1],[],vertical,"(890.0, 762.0)",1.7,nan,1,3814.687,3,0.02,same
0,476,catch,"[(1156, 784)]",[],[1],[],horizontal,"(390.0, 762.0)",1.7,nan,1,3821.154,3,0.02,same
0,477,valid,"[(1154, 794)]",[],[1],[0.85],horizontal,"(890.0, 262.0)",0.9,nan,0,3827.061,0,0.02,same
0,478,catch,"[(1126, 782)]",[],[1],[],vertical,"(390.0, 762.0)",1.7,nan,1,3831.689,1,0.02,same
0,479,invalid_adjacent_other_bar,"[(1121, 812)]",[],[1],[0.85],vertical,"(390.0, 762.0)",0.6166666666666667,nan,0,3836.967,0,0.02,other
0,480,valid,"[(1154, 791)]",[],[1],[0.85],vertical,"(390.0, 762.0)",0.5333333333333333,nan,0,3841.67,0,0.02,same
0,481,valid,"[(1138, 779)]",[],[1],[0.5],horizontal,"(390.0, 762.0)",0.65,0.458,1,3845.787,1,0.02,same
0,482,valid,"[(1164, 780)]",[],[1],[0.6166666666666667],horizontal,"(390.0, 762.0)",0.9333333333333333,0.572,1,3850.257,1,0.02,same
0,483,catch,"[(1132, 798)]",[],[1],[],horizontal,"(390.0, 262.0)",1.7,nan,1,3855.037,1,0.02,same
0,484,valid,"[(1127, 779)]",[],[1],[0.5166666666666666],horizontal,"(390.0, 262.0)",0.6333333333333333,0.474,1,3860.38,2,0.02,same
0,485,catch,"[(1162, 783)]",[],[1],[],horizontal,"(890.0, 262.0)",1.7,nan,1,3865.401,2,0.02,same
0,486,valid,"[(1131, 779)]",[],[1],[0.5333333333333333],vertical,"(890.0, 262.0)",0.6,0.491,1,3870.92,2,0.02,same
0,487,valid,"[(1136, 799)]",[],[1],[0.6],vertical,"(390.0, 262.0)",1.15,0.554,1,3876.454,3,0.02,same
0,488,valid,"[(1153, 778)]",[],[1],[0.5],vertical,"(890.0, 262.0)",0.55,0.457,1,3882.87,3,0.02,same
0,489,valid,"[(1111, 833)]",[],[1],[0.5],vertical,"(390.0, 762.0)",0.7166666666666667,0.458,1,3888.377,3,0.02,same
0,490,valid,"[(1164, 791)]",[],[1],[0.85],horizontal,"(390.0, 262.0)",1.1166666666666667,nan,0,3894.305,0,0.02,same
0,491,valid,"[(1136, 804)]",[],[1],[0.85],horizontal,"(890.0, 762.0)",0.8833333333333333,nan,0,3898.972,0,0.02,same
0,492,invalid_same_bar,"[(1123, 800)]",[],[1],[0.85],horizontal,"(390.0, 762.0)",1.0166666666666666,nan,0,3903.503,0,0.02,same
0,493,invalid_same_bar,"[(1116, 782)]",[],[1],[0.5166666666666666],horizontal,"(890.0, 762.0)",1.3833333333333333,0.474,1,3908.405,1,0.02,same
0,494,valid,"[(1151, 775)]",[],[1],[0.5333333333333333],horizontal,"(390.0, 262.0)",0.5166666666666666,0.498,1,3913.939,1,0.02,same
0,495,valid,"[(1167, 794)]",[],[1],[0.48333333333333334],vertical,"(890.0, 262.0)",1.25,0.442,1,3918.536,1,0.02,same
0,496,valid,"[(1136, 797)]",[],[1],[0.85],vertical,"(890.0, 762.0)",0.35,nan,0,3923.539,0,0.02,same
0,497,valid,"[(1131, 791)]",[],[1],[0.4666666666666667],horizontal,"(890.0, 262.0)",1.2,0.425,1,3927.387,1,0.02,same
0,498,valid,"[(1164, 783)]",[],[1],[0.6333333333333333],horizontal,"(390.0, 762.0)",1.1666666666666667,0.587,1,3932.604,1,0.02,same
0,499,catch,"[(1155, 783)]",[],[1],[],horizontal,"(890.0, 762.0)",1.7,nan,1,3938.071,1,0.02,same
0,500,valid,"[(1156, 780)]",[],[1],[0.5166666666666666],horizontal,"(890.0, 262.0)",0.8833333333333333,0.476,1,3943.303,2,0.02,same
0,501,valid,"[(1160, 784)]",[],[1],[0.55],vertical,"(390.0, 762.0)",1.4833333333333334,0.507,1,3949.039,2,0.02,same
0,502,catch,"[(1158, 764)]",[],[1],[],horizontal,"(390.0, 262.0)",1.7,nan,1,3955.06,2,0.02,same
0,503,valid,"[(1147, 797)]",[],[1],[0.48333333333333334],vertical,"(390.0, 762.0)",1.0,0.444,1,3960.771,3,0.02,same
0,504,catch,"[(1160, 799)]",[],[1],[],horizontal,"(390.0, 262.0)",1.7,nan,1,3966.536,3,0.02,same
0,505,valid,"[(1154, 772)]",[],[1],[0.5],horizontal,"(890.0, 262.0)",0.9666666666666667,0.465,1,3972.238,3,0.02,same
0,506,valid,"[(1161, 802)]",[],[1],[0.6],horizontal,"(390.0, 762.0)",0.6666666666666666,0.558,1,3977.538,3,0.02,same
0,507,valid,"[(1132, 794)]",[],[1],[0.5166666666666666],vertical,"(890.0, 762.0)",0.4166666666666667,0.479,1,3983.355,3,0.02,same
0,508,catch,"[(1133, 817)]",[],[1],[],vertical,"(390.0, 762.0)",1.7,nan,1,3988.599,3,0.02,same
0,509,valid,"[(1136, 808)]",[],[1],[0.85],vertical,"(390.0, 762.0)",0.45,nan,0,3995.005,0,0.02,same
0,510,invalid_adjacent_other_bar,"[(1121, 783)]",[],[1],[0.5833333333333334],vertical,"(890.0, 762.0)",1.1,0.546,1,3999.254,1,0.02,other
0,511,catch,"[(1131, 779)]",[],[1],[],vertical,"(390.0, 262.0)",1.7,nan,1,4004.489,1,0.02,same
0,512,catch,"[(1131, 803)]",[],[1],[],vertical,"(390.0, 762.0)",1.7,nan,1,4009.351,1,0.02,same
0,513,invalid_adjacent_other_bar,"[(1167, 774)]",[],[1],[0.5166666666666666],horizontal,"(890.0, 262.0)",1.4666666666666666,0.477,1,4014.472,2,0.02,other
0,514,valid,"[(1123, 779)]",[],[1],[0.5333333333333333],vertical,"(390.0, 762.0)",0.5666666666666667,0.491,1,4020.307,2,0.02,same
0,515,catch,"[(1160, 775)]",[],[1],[],vertical,"(390.0, 262.0)",1.7,nan,1,4025.521,2,0.02,same
0,516,catch,"[(1116, 816)]",[],[1],[],horizontal,"(890.0, 762.0)",1.7,nan,1,4031.225,3,0.02,same
0,517,catch,"[(1162, 798)]",[],[1],[],vertical,"(390.0, 262.0)",1.7,nan,1,4037.389,3,0.0,same
0,518,valid,"[(1160, 782)]",[],[1],[0.6],vertical,"(890.0, 762.0)",0.35,0.567,1,4043.571,3,0.0,same
0,519,valid,"[(1126, 774)]",[],[1],[0.48333333333333334],horizontal,"(890.0, 262.0)",1.05,0.443,1,4048.838,3,0.0,same
0,520,valid,"[(1139, 781)]",[],[1],[0.5666666666666667],vertical,"(390.0, 262.0)",1.4333333333333333,0.527,1,4054.36,3,0.0,same
0,521,valid,"[(1121, 799)]",[],[1],[0.5333333333333333],horizontal,"(890.0, 262.0)",0.9666666666666667,0.493,1,4060.388,3,0.0,same
0,522,valid,"[(1168, 778)]",[],[1],[0.5],vertical,"(390.0, 762.0)",0.7,0.46,1,4065.959,3,0.0,same
0,523,valid,"[(1126, 778)]",[],[1],[0.5],horizontal,"(890.0, 262.0)",0.36666666666666664,0.459,1,4071.638,3,0.0,same
0,524,valid,"[(1165, 793)]",[],[1],[0.7],vertical,"(890.0, 762.0)",1.3833333333333333,0.651,1,4076.639,3,0.0,same
0,525,valid,"[(1167, 788)]",[],[1],[0.6833333333333333],horizontal,"(390.0, 262.0)",1.0333333333333332,0.644,1,4083.034,3,0.0,same
0,526,invalid_same_bar,"[(1161, 779)]",[],[1],[0.5166666666666666],vertical,"(390.0, 262.0)",1.4333333333333333,0.473,1,4089.405,3,0.0,same
0,527,catch,"[(1136, 789)]",[],[1],[],horizontal,"(890.0, 262.0)",1.7,nan,1,4095.869,3,0.0,same
0,528,valid,"[(1160, 786)]",[],[1],[0.5166666666666666],horizontal,"(890.0, 262.0)",0.4166666666666667,0.483,1,4102.022,3,0.0,same
0,529,catch,"[(1145, 786)]",[],[1],[],vertical,"(390.0, 262.0)",1.7,nan,1,4106.987,3,0.0,same
0,530,valid,"[(1157, 770)]",[],[1],[0.6666666666666666],horizontal,"(890.0, 262.0)",1.3666666666666667,0.622,1,4113.206,3,0.0,same
0,531,valid,"[(1152, 792)]",[],[1],[0.6],vertical,"(390.0, 762.0)",1.3333333333333333,0.557,1,4119.501,3,0.0,same
0,532,valid,"[(1159, 778)]",[],[1],[0.5333333333333333],vertical,"(890.0, 762.0)",0.85,0.497,1,4125.388,3,0.0,same
0,533,invalid_same_bar,"[(1139, 795)]",[],[1],[0.5166666666666666],vertical,"(390.0, 762.0)",0.55,0.478,1,4131.306,3,0.0,same
0,534,valid,"[(1134, 775)]",[],[1],[0.6166666666666667],vertical,"(890.0, 762.0)",0.5166666666666666,0.573,1,4136.606,3,0.0,same
0,535,invalid_same_bar,"[(1161, 770)]",[],[1],[0.5666666666666667],horizontal,"(390.0, 262.0)",0.6166666666666667,0.525,1,4141.737,3,0.0,same
0,536,valid,"[(1134, 787)]",[],[1],[0.6333333333333333],horizontal,"(390.0, 762.0)",1.4833333333333334,0.589,1,4146.789,3,0.0,same
0,537,valid,"[(1164, 792)]",[],[1],[0.5333333333333333],horizontal,"(390.0, 762.0)",0.85,0.498,1,4153.28,3,0.0,same
0,538,valid,"[(1154, 775)]",[],[1],[0.5166666666666666],horizontal,"(890.0, 262.0)",1.1333333333333333,0.472,1,4159.047,3,0.0,same
0,539,catch,"[(1131, 789)]",[],[1],[],horizontal,"(890.0, 262.0)",1.7,nan,1,4164.938,3,0.0,same
0,540,valid,"[(1137, 785)]",[],[1],[0.5333333333333333],horizontal,"(390.0, 762.0)",0.35,0.493,1,4171.205,3,0.0,same
0,541,valid,"[(1167, 784)]",[],[1],[0.5],vertical,"(890.0, 262.0)",0.6833333333333333,0.46,1,4176.305,3,0.0,same
0,542,valid,"[(1161, 779)]",[],[1],[0.5166666666666666],horizontal,"(390.0, 762.0)",1.3833333333333333,0.474,1,4181.957,3,0.0,same
0,543,valid,"[(1129, 793)]",[],[1],[0.5333333333333333],horizontal,"(890.0, 762.0)",1.25,0.498,1,4188.223,3,0.0,same
0,544,valid,"[(1164, 780)]",[],[1],[0.5666666666666667],vertical,"(890.0, 262.0)",0.6333333333333333,0.53,1,4194.022,3,0.0,same
0,545,valid,"[(1086, 810)]",[],[1],[0.5833333333333334],horizontal,"(390.0, 762.0)",0.7333333333333333,0.542,1,4199.256,3,0.0,same
0,546,catch,"[(1121, 784)]",[],[1],[],vertical,"(890.0, 762.0)",1.7,nan,1,4205.389,3,0.0,same
0,547,catch,"[(1159, 781)]",[],[1],[],vertical,"(390.0, 262.0)",1.7,nan,1,4211.238,3,0.0,same
0,548,valid,"[(1160, 774)]",[],[1],[0.5833333333333334],horizontal,"(390.0, 262.0)",0.9333333333333333,0.543,1,4217.572,3,0.0,same
0,549,catch,"[(1132, 783)]",[],[1],[],vertical,"(890.0, 762.0)",1.7,nan,1,4223.455,3,0.0,same
0,550,valid,"[(1126, 804)]",[],[1],[0.5833333333333334],vertical,"(390.0, 262.0)",0.7166666666666667,0.546,1,4229.505,3,0.0,same
0,551,catch,"[(1165, 786)]",[],[1],[],vertical,"(890.0, 762.0)",1.7,nan,1,4235.255,3,0.0,same
0,552,valid,"[(1135, 777)]",[],[1],[0.48333333333333334],vertical,"(390.0, 762.0)",1.0333333333333332,0.441,1,4241.093,3,0.0,same
0,553,valid,"[(1136, 786)]",[],[1],[0.5166666666666666],horizontal,"(890.0, 762.0)",0.6833333333333333,0.484,1,4247.022,3,0.0,same
0,554,invalid_same_bar,"[(1136, 777)]",[],[1],[0.5833333333333334],vertical,"(890.0, 762.0)",1.4333333333333333,0.541,1,4252.575,3,0.0,same
0,555,valid,"[(1131, 779)]",[],[1],[0.6666666666666666],horizontal,"(390.0, 262.0)",1.05,0.62,1,4259.037,3,0.0,same
0,556,catch,"[(1137, 779)]",[],[1],[],horizontal,"(390.0, 262.0)",1.7,nan,1,4265.119,3,0.0,same
0,557,valid,"[(1142, 779)]",[],[1],[0.7],vertical,"(390.0, 762.0)",1.1333333333333333,0.655,1,4271.073,3,0.0,same
0,558,valid,"[(1131, 781)]",[],[1],[0.5166666666666666],vertical,"(390.0, 762.0)",0.4,0.482,1,4277.572,3,0.0,same
0,559,valid,"[(1126, 772)]",[],[1],[0.55],horizontal,"(390.0, 762.0)",0.4666666666666667,0.515,1,4282.458,3,0.0,same
0,560,valid,"[(1116, 819)]",[],[1],[0.5333333333333333],horizontal,"(390.0, 262.0)",1.25,0.492,1,4288.118,3,0.0,same
0,561,catch,"[(1131, 774)]",[],[1],[],horizontal,"(390.0, 262.0)",1.7,nan,1,4294.454,3,0.0,same
0,562,valid,"[(1166, 787)]",[],[1],[0.55],horizontal,"(390.0, 262.0)",0.8,0.508,1,4300.57,3,0.0,same
0,563,valid,"[(1135, 790)]",[],[1],[0.08333333333333333],horizontal,"(390.0, 762.0)",1.4,0.054,0,4306.194,0,0.0,same
0,564,invalid_adjacent_other_bar,"[(1126, 774)]",[],[1],[0.5166666666666666],horizontal,"(390.0, 262.0)",0.6333333333333333,0.478,1,4310.922,1,0.0,other
0,565,invalid_adjacent_other_bar,"[(1107, 793)]",[],[1],[0.7166666666666667],vertical,"(890.0, 262.0)",0.8833333333333333,0.676,1,4315.552,1,0.0,other
0,566,valid,"[(1167, 778)]",[],[1],[0.5],vertical,"(890.0, 762.0)",0.65,0.466,1,4320.825,1,0.0,same
0,567,valid,"[(1127, 789)]",[],[1],[0.5333333333333333],horizontal,"(890.0, 762.0)",1.25,0.493,1,4325.565,2,0.0,same
0,568,valid,"[(1131, 774)]",[],[1],[0.5166666666666666],vertical,"(390.0, 262.0)",0.75,0.48,1,4331.237,2,0.0,same
0,569,valid,"[(1132, 774)]",[],[1],[0.6666666666666666],vertical,"(390.0, 762.0)",1.0333333333333332,0.625,1,4336.206,2,0.0,same
0,570,valid,"[(1112, 819)]",[],[1],[0.65],vertical,"(890.0, 262.0)",1.5333333333333332,0.601,1,4341.755,3,0.0,same
0,571,invalid_adjacent_other_bar,"[(1111, 786)]",[],[1],[0.5333333333333333],vertical,"(390.0, 262.0)",0.5166666666666666,0.492,1,4348.682,3,0.0,other
0,572,catch,"[(1145, 785)]",[],[1],[],horizontal,"(890.0, 762.0)",1.7,nan,1,4354.289,3,0.0,same
0,573,invalid_adjacent_other_bar,"[(1126, 778)]",[],[1],[0.5],vertical,"(890.0, 262.0)",0.3833333333333333,0.459,1,4360.139,3,0.0,other
0,574,valid,"[(1161, 783)]",[],[1],[0.5333333333333333],horizontal,"(390.0, 762.0)",1.1,0.496,1,4365.62,3,0.0,same
0,575,catch,"[(1131, 792)]",[],[1],[],horizontal,"(890.0, 262.0)",1.7,nan,1,4371.754,3,0.0,same
0,576,invalid_same_bar,"[(1163, 782)]",[],[1],[0.6666666666666666],vertical,"(890.0, 262.0)",0.9166666666666666,0.619,1,4378.023,3,0.0,same
0,577,catch,"[(1121, 789)]",[],[1],[],vertical,"(390.0, 262.0)",1.7,nan,1,4384.289,3,0.0,same
0,578,valid,"[(1116, 797)]",[],[1],[0.5666666666666667],horizontal,"(390.0, 762.0)",0.6166666666666667,0.523,1,4390.389,3,0.0,same
0,579,valid,"[(1131, 788)]",[],[1],[0.5833333333333334],horizontal,"(890.0, 762.0)",1.5333333333333332,0.543,1,4396.39,3,0.0,same
0,580,valid,"[(1160, 788)]",[],[1],[0.5666666666666667],horizontal,"(890.0, 762.0)",1.05,0.523,1,4402.84,3,0.0,same
0,581,valid,"[(1131, 778)]",[],[1],[0.5833333333333334],horizontal,"(890.0, 762.0)",1.5166666666666666,0.541,1,4408.843,3,0.0,same
0,582,valid,"[(1159, 775)]",[],[1],[0.5],vertical,"(390.0, 762.0)",1.3333333333333333,0.461,1,4415.105,3,0.0,same
0,583,valid,"[(1129, 773)]",[],[1],[0.85],horizontal,"(890.0, 762.0)",0.36666666666666664,nan,0,4420.975,0,0.0,same
0,584,valid,"[(1136, 779)]",[],[1],[0.55],horizontal,"(890.0, 262.0)",1.0666666666666667,0.508,1,4425.205,1,0.0,same
0,585,catch,"[(1161, 773)]",[],[1],[],vertical,"(890.0, 762.0)",1.7,nan,1,4430.242,1,0.0,same
0,586,valid,"[(1125, 784)]",[],[1],[0.5],vertical,"(890.0, 762.0)",1.5166666666666666,0.455,1,4435.572,1,0.0,same
0,587,catch,"[(1131, 776)]",[],[1],[],horizontal,"(390.0, 262.0)",1.7,nan,1,4441.552,2,0.0,same
0,588,valid,"[(1132, 781)]",[],[1],[0.6166666666666667],vertical,"(390.0, 262.0)",1.4,0.58,1,4447.106,2,0.0,same
0,589,invalid_same_bar,"[(1131, 788)]",[],[1],[0.5333333333333333],horizontal,"(890.0, 262.0)",1.35,0.486,1,4452.69,2,0.0,same
0,590,valid,"[(1162, 784)]",[],[1],[0.6666666666666666],vertical,"(890.0, 262.0)",1.2333333333333334,0.62,1,4458.24,3,0.0,same
0,591,invalid_adjacent_other_bar,"[(1160, 778)]",[],[1],[0.5166666666666666],horizontal,"(390.0, 262.0)",1.2666666666666666,0.481,1,4464.44,3,0.0,other
0,592,valid,"[(1165, 790)]",[],[1],[0.5166666666666666],horizontal,"(390.0, 262.0)",0.5833333333333334,0.482,1,4470.276,3,0.0,same
0,593,catch,"[(1151, 785)]",[],[1],[],vertical,"(890.0, 762.0)",1.7,nan,1,4475.37,3,0.0,same
0,594,invalid_adjacent_other_bar,"[(1133, 779)]",[],[1],[0.7166666666666667],vertical,"(890.0, 762.0)",1.3666666666666667,0.678,1,4481.822,3,0.0,other
0,595,catch,"[(1142, 791)]",[],[1],[],vertical,"(890.0, 762.0)",1.7,nan,1,4488.207,3,0.0,same
0,596,catch,"[(1160, 786)]",[],[1],[],horizontal,"(890.0, 262.0)",1.7,nan,1,4494.124,3,0.0,same
0,597,valid,"[(1132, 782)]",[],[1],[0.5],horizontal,"(890.0, 262.0)",0.7333333333333333,0.463,1,4500.573,3,0.0,same
0,598,catch,"[(1133, 777)]",[],[1],[],vertical,"(890.0, 762.0)",1.7,nan,1,4506.357,3,0.0,same
0,599,valid,"[(1116, 814)]",[],[1],[0.6833333333333333],horizontal,"(390.0, 762.0)",0.85,0.641,1,4512.423,3,0.0,same
0,600,catch,"[(1131, 792)]",[],[1],[],vertical,"(890.0, 262.0)",1.7,nan,1,4518.374,3,0.0,same
0,601,valid,"[(1131, 786)]",[],[1],[0.5666666666666667],vertical,"(890.0, 262.0)",0.6166666666666667,0.526,1,4524.424,3,0.0,same
0,602,valid,"[(1132, 784)]",[],[1],[0.55],horizontal,"(890.0, 262.0)",1.2666666666666666,0.51,1,4529.764,3,0.0,same
0,603,valid,"[(1134, 772)]",[],[1],[0.75],horizontal,"(390.0, 762.0)",1.15,0.703,1,4536.189,3,0.0,same
0,604,catch,"[(1164, 799)]",[],[1],[],vertical,"(890.0, 762.0)",1.7,nan,1,4542.706,3,0.0,same
0,605,valid,"[(1111, 823)]",[],[1],[0.48333333333333334],vertical,"(890.0, 762.0)",1.5,0.439,1,4548.373,3,0.0,same
0,606,valid,"[(1159, 804)]",[],[1],[0.5333333333333333],vertical,"(390.0, 762.0)",0.7166666666666667,0.496,1,4554.709,3,0.0,same
0,607,valid,"[(1131, 786)]",[],[1],[0.55],vertical,"(390.0, 262.0)",1.3333333333333333,0.509,1,4560.482,3,0.0,same
0,608,catch,"[(1131, 794)]",[],[1],[],horizontal,"(390.0, 762.0)",1.7,nan,1,4566.456,3,0.0,same
0,609,catch,"[(1141, 774)]",[],[1],[],vertical,"(890.0, 762.0)",1.7,nan,1,4572.605,3,0.0,same
0,610,valid,"[(1133, 786)]",[],[1],[0.7],vertical,"(390.0, 762.0)",0.5833333333333334,0.659,1,4578.673,3,0.0,same
0,611,valid,"[(1160, 777)]",[],[1],[0.6666666666666666],horizontal,"(390.0, 762.0)",1.3333333333333333,0.627,1,4584.323,3,0.0,same
0,612,catch,"[(1168, 784)]",[],[1],[],vertical,"(390.0, 262.0)",1.7,nan,1,4590.776,3,0.0,same
0,613,valid,"[(1134, 777)]",[],[1],[0.6666666666666666],horizontal,"(390.0, 262.0)",0.7,0.623,1,4596.991,3,0.0,same
0,614,invalid_adjacent_other_bar,"[(1131, 787)]",[],[1],[0.55],vertical,"(390.0, 262.0)",0.45,0.516,1,4602.973,3,0.0,other
0,615,valid,"[(1132, 796)]",[],[1],[0.85],horizontal,"(390.0, 262.0)",0.55,nan,0,4608.735,0,0.0,same
0,616,valid,"[(1080, 795)]",[],[1],[0.85],vertical,"(890.0, 762.0)",1.0,nan,0,4612.957,0,0.0,same
0,617,catch,"[(1111, 783)]",[],[1],[],horizontal,"(890.0, 762.0)",1.7,nan,1,4617.998,1,0.0,same
0,618,valid,"[(1132, 777)]",[],[1],[0.5833333333333334],vertical,"(890.0, 262.0)",0.55,0.546,1,4623.273,1,0.0,same
0,619,valid,"[(1121, 784)]",[],[1],[0.5],vertical,"(890.0, 262.0)",1.0,0.465,1,4627.888,1,0.0,same
0,620,catch,"[(1116, 787)]",[],[1],[],horizontal,"(890.0, 762.0)",1.7,nan,1,4632.927,2,0.0,same
0,621,valid,"[(1126, 785)]",[],[1],[0.21666666666666667],vertical,"(890.0, 762.0)",1.4166666666666667,0.184,0,4638.5,0,0.0,same
0,622,valid,"[(1136, 792)]",[],[1],[0.5],horizontal,"(890.0, 762.0)",0.95,0.458,1,4643.464,1,0.0,same
0,623,valid,"[(1138, 783)]",[],[1],[0.55],horizontal,"(890.0, 262.0)",1.2333333333333334,0.505,1,4648.798,1,0.0,same
0,624,valid,"[(1138, 794)]",[],[1],[0.5666666666666667],vertical,"(390.0, 262.0)",1.2666666666666666,0.531,1,4654.346,1,0.0,same
0,625,valid,"[(1134, 794)]",[],[1],[0.55],vertical,"(890.0, 762.0)",0.43333333333333335,0.508,1,4659.642,2,0.0,same
0,626,valid,"[(1126, 813)]",[],[1],[0.5166666666666666],horizontal,"(890.0, 262.0)",0.9,0.475,1,4664.694,2,0.0,same
0,627,valid,"[(1128, 774)]",[],[1],[0.5333333333333333],vertical,"(890.0, 762.0)",0.9166666666666666,0.492,1,4670.18,2,0.0,same
0,628,valid,"[(1137, 791)]",[],[1],[0.85],vertical,"(390.0, 262.0)",0.95,nan,0,4676.042,0,0.0,same
0,629,valid,"[(1120, 779)]",[],[1],[0.55],horizontal,"(890.0, 262.0)",1.5166666666666666,0.511,1,4680.667,1,0.0,same
0,630,valid,"[(1121, 783)]",[],[1],[0.5166666666666666],vertical,"(890.0, 262.0)",0.6166666666666667,0.474,1,4686.557,1,0.0,same
0,631,valid,"[(1140, 802)]",[],[1],[0.6166666666666667],vertical,"(390.0, 762.0)",1.4333333333333333,0.576,1,4690.777,1,0.0,same
0,632,valid,"[(1130, 801)]",[],[1],[0.5833333333333334],horizontal,"(390.0, 762.0)",1.1833333333333333,0.541,1,4696.351,2,0.0,same
0,633,catch,"[(1101, 813)]",[],[1],[],vertical,"(890.0, 262.0)",1.7,nan,1,4702.096,2,0.0,same
0,634,catch,"[(1121, 803)]",[],[1],[],horizontal,"(890.0, 262.0)",1.7,nan,1,4707.541,2,0.0,same
0,635,catch,"[(1131, 798)]",[],[1],[],vertical,"(890.0, 762.0)",1.7,nan,1,4713.108,3,0.0,same
0,636,valid,"[(1131, 789)]",[],[1],[0.5333333333333333],vertical,"(890.0, 262.0)",1.0,0.488,1,4719.575,3,0.0,same
0,637,valid,"[(1116, 790)]",[],[1],[0.85],horizontal,"(390.0, 762.0)",1.3166666666666667,nan,0,4725.59,0,0.0,same
0,638,valid,"[(1130, 783)]",[],[1],[0.6666666666666666],horizontal,"(390.0, 262.0)",1.3833333333333333,0.623,1,4730.539,1,0.0,same
0,639,valid,"[(1129, 817)]",[],[1],[0.7],horizontal,"(390.0, 762.0)",1.3333333333333333,0.657,1,4736.117,1,0.0,same
0,640,valid,"[(1131, 787)]",[],[1],[0.5666666666666667],horizontal,"(390.0, 762.0)",0.6,0.521,1,4741.671,1,0.0,same
0,641,valid,"[(1126, 779)]",[],[1],[0.6666666666666666],vertical,"(390.0, 262.0)",1.05,0.623,1,4746.514,2,0.0,same
0,642,invalid_same_bar,"[(1126, 789)]",[],[1],[0.5833333333333334],vertical,"(890.0, 762.0)",1.1333333333333333,0.533,1,4752.475,2,0.0,same
0,643,valid,"[(1123, 798)]",[],[1],[0.5666666666666667],horizontal,"(390.0, 762.0)",1.3833333333333333,0.532,1,4758.408,2,0.0,same
0,644,catch,"[(1132, 807)]",[],[1],[],horizontal,"(390.0, 762.0)",1.7,nan,1,4764.191,3,0.0,same
0,645,valid,"[(1161, 796)]",[],[1],[0.5333333333333333],horizontal,"(390.0, 262.0)",0.7,0.491,1,4770.141,3,0.0,same
0,646,catch,"[(1126, 785)]",[],[1],[],horizontal,"(390.0, 762.0)",1.7,nan,1,4775.525,3,0.0,same
0,647,valid,"[(1140, 804)]",[],[1],[0.48333333333333334],vertical,"(890.0, 262.0)",1.2833333333333332,0.445,1,4781.505,3,0.0,same
0,648,invalid_adjacent_other_bar,"[(1112, 808)]",[],[1],[0.55],vertical,"(390.0, 262.0)",1.0666666666666667,0.504,1,4787.524,3,0.0,other
0,649,invalid_same_bar,"[(1131, 781)]",[],[1],[0.5333333333333333],horizontal,"(890.0, 762.0)",1.15,0.487,1,4793.591,3,0.0,same
0,650,catch,"[(1134, 794)]",[],[1],[],horizontal,"(890.0, 762.0)",1.7,nan,1,4799.874,3,0.0,same
0,651,catch,"[(1119, 779)]",[],[1],[],vertical,"(890.0, 762.0)",1.7,nan,1,4805.605,3,0.0,same
0,652,valid,"[(1121, 786)]",[],[1],[0.5166666666666666],horizontal,"(890.0, 262.0)",1.4833333333333334,0.472,1,4811.704,3,0.0,same
0,653,invalid_same_bar,"[(1146, 783)]",[],[1],[0.6],horizontal,"(390.0, 762.0)",1.4166666666666667,0.554,1,4818.294,3,0.0,same
0,654,valid,"[(1122, 782)]",[],[1],[0.5166666666666666],horizontal,"(390.0, 262.0)",1.2833333333333332,0.476,1,4824.674,3,0.0,same
0,655,valid,"[(1132, 795)]",[],[1],[0.5666666666666667],vertical,"(890.0, 762.0)",1.5,0.518,1,4830.791,3,0.0,same
0,656,invalid_adjacent_other_bar,"[(1143, 785)]",[],[1],[0.65],horizontal,"(390.0, 762.0)",1.2666666666666666,0.609,1,4837.173,3,0.0,other
0,657,catch,"[(1127, 786)]",[],[1],[],horizontal,"(890.0, 262.0)",1.7,nan,1,4843.507,3,0.0,same
0,658,catch,"[(1131, 785)]",[],[1],[],horizontal,"(890.0, 262.0)",1.7,nan,1,4849.704,3,0.0,same
0,659,valid,"[(1116, 765)]",[],[1],[0.85],horizontal,"(390.0, 262.0)",1.2833333333333332,nan,0,4856.057,0,0.0,same
0,660,catch,"[(1092, 799)]",[],[1],[],vertical,"(390.0, 262.0)",1.7,nan,1,4861.368,1,0.0,same
0,661,invalid_same_bar,"[(1138, 798)]",[],[1],[0.65],vertical,"(390.0, 762.0)",1.35,0.605,1,4866.612,1,0.0,same
0,662,invalid_same_bar,"[(1131, 779)]",[],[1],[0.5333333333333333],horizontal,"(390.0, 262.0)",0.9,0.487,1,4872.222,1,0.0,same
0,663,catch,"[(1077, 838)]",[],[1],[],horizontal,"(890.0, 762.0)",1.7,nan,1,4877.208,2,0.0,same
0,664,valid,"[(1131, 813)]",[],[1],[0.2833333333333333],horizontal,"(890.0, 262.0)",0.85,0.243,1,4883.824,2,0.0,same
0,665,invalid_adjacent_other_bar,"[(1132, 780)]",[],[1],[0.85],vertical,"(890.0, 762.0)",0.6666666666666666,nan,0,4889.125,0,0.0,other
0,666,valid,"[(1118, 781)]",[],[1],[0.6333333333333333],vertical,"(890.0, 762.0)",1.4,0.592,1,4893.626,1,0.0,same
0,667,valid,"[(1132, 799)]",[],[1],[0.5166666666666666],horizontal,"(390.0, 762.0)",0.8166666666666667,0.488,1,4898.796,1,0.0,same
0,668,invalid_adjacent_other_bar,"[(1123, 801)]",[],[1],[0.5166666666666666],horizontal,"(390.0, 762.0)",1.0333333333333332,0.471,1,4903.577,1,0.0,other
0,669,valid,"[(1136, 787)]",[],[1],[0.6],vertical,"(390.0, 262.0)",1.25,0.555,1,4909.027,2,0.0,same
0,670,catch,"[(1136, 796)]",[],[1],[],vertical,"(390.0, 262.0)",1.7,nan,1,4914.906,2,0.0,same
0,671,catch,"[(1095, 811)]",[],[1],[],vertical,"(390.0, 762.0)",1.7,nan,1,4920.326,2,0.0,same
0,672,catch,"[(1082, 802)]",[],[1],[],vertical,"(890.0, 262.0)",1.7,nan,1,4925.903,3,0.0,same
0,673,valid,"[(1126, 782)]",[],[1],[0.55],vertical,"(390.0, 762.0)",0.45,0.507,1,4931.813,3,0.0,same
0,674,valid,"[(1134, 784)]",[],[1],[0.55],horizontal,"(390.0, 262.0)",0.55,0.506,1,4936.77,3,0.0,same
0,675,invalid_adjacent_other_bar,"[(1123, 785)]",[],[1],[0.5833333333333334],vertical,"(890.0, 762.0)",1.4,0.542,1,4942.131,3,0.0,other
0,676,valid,"[(1124, 788)]",[],[1],[0.6],horizontal,"(390.0, 762.0)",1.3166666666666667,0.557,1,4948.456,3,0.0,same
0,677,valid,"[(1128, 803)]",[],[1],[0.48333333333333334],horizontal,"(390.0, 262.0)",1.5166666666666666,0.441,1,4954.359,3,0.0,same
0,678,valid,"[(1098, 800)]",[],[1],[0.55],horizontal,"(890.0, 762.0)",1.1166666666666667,0.507,1,4961.184,3,0.0,same
0,679,catch,"[(1116, 786)]",[],[1],[],horizontal,"(890.0, 762.0)",1.7,nan,1,4967.184,3,0.0,same
0,680,valid,"[(1124, 794)]",[],[1],[0.5333333333333333],horizontal,"(890.0, 262.0)",0.6166666666666667,0.49,1,4973.15,3,0.0,same
0,681,invalid_adjacent_other_bar,"[(1129, 795)]",[],[1],[0.6166666666666667],horizontal,"(890.0, 262.0)",1.35,0.572,1,4978.091,3,0.0,other
0,682,valid,"[(1127, 786)]",[],[1],[0.6],horizontal,"(390.0, 262.0)",0.36666666666666664,0.556,1,4984.124,3,0.0,same
0,683,valid,"[(1129, 789)]",[],[1],[0.5666666666666667],horizontal,"(390.0, 762.0)",0.43333333333333335,0.525,1,4989.207,3,0.0,same
0,684,catch,"[(1118, 788)]",[],[1],[],horizontal,"(390.0, 262.0)",1.7,nan,1,4994.466,3,0.0,same
0,685,valid,"[(1126, 800)]",[],[1],[0.5833333333333334],vertical,"(890.0, 262.0)",1.1666666666666667,0.541,1,5000.657,3,0.0,same
0,686,valid,"[(1115, 778)]",[],[1],[0.6166666666666667],vertical,"(390.0, 762.0)",1.4333333333333333,0.571,1,5006.691,3,0.0,same
0,687,catch,"[(1104, 829)]",[],[1],[],horizontal,"(390.0, 762.0)",1.7,nan,1,5012.857,3,0.0,same
0,688,valid,"[(1131, 775)]",[],[1],[0.5333333333333333],vertical,"(390.0, 262.0)",1.3666666666666667,0.495,1,5018.724,3,0.0,same
0,689,valid,"[(1118, 778)]",[],[1],[0.6166666666666667],vertical,"(890.0, 762.0)",1.35,0.573,1,5024.684,3,0.0,same
0,690,invalid_adjacent_other_bar,"[(1131, 789)]",[],[1],[0.55],horizontal,"(890.0, 762.0)",0.43333333333333335,0.508,1,5030.875,3,0.0,other
0,691,valid,"[(1129, 779)]",[],[1],[0.55],horizontal,"(390.0, 262.0)",1.5333333333333332,0.505,1,5036.107,3,0.0,same
0,692,invalid_adjacent_other_bar,"[(1131, 801)]",[],[1],[0.5166666666666666],vertical,"(390.0, 262.0)",1.2666666666666666,0.477,1,5042.391,3,0.0,other
0,693,catch,"[(1119, 803)]",[],[1],[],vertical,"(890.0, 762.0)",1.7,nan,1,5048.342,3,0.0,same
0,694,valid,"[(1130, 784)]",[],[1],[0.5],vertical,"(890.0, 262.0)",0.75,0.457,1,5054.441,3,0.0,same
0,695,valid,"[(1128, 779)]",[],[1],[0.6],horizontal,"(890.0, 762.0)",0.8166666666666667,0.554,1,5059.725,3,0.0,same
0,696,catch,"[(1116, 804)]",[],[1],[],horizontal,"(890.0, 262.0)",1.7,nan,1,5065.391,3,0.0,same
0,697,catch,"[(1121, 793)]",[],[1],[],vertical,"(390.0, 262.0)",1.7,nan,1,5071.209,3,0.0,same
0,698,catch,"[(1124, 785)]",[],[1],[],vertical,"(890.0, 762.0)",1.7,nan,1,5077.608,3,0.0,same
0,699,valid,"[(1139, 786)]",[],[1],[0.5833333333333334],horizontal,"(390.0, 262.0)",1.2833333333333332,0.54,1,5083.296,3,0.0,same
0,700,valid,"[(1152, 793)]",[],[1],[0.6333333333333333],vertical,"(390.0, 262.0)",0.6166666666666667,0.591,1,5089.54,3,0.0,same
0,701,valid,"[(1116, 779)]",[],[1],[0.8],horizontal,"(390.0, 762.0)",0.8,0.748,1,5095.474,3,0.0,same
0,702,valid,"[(1107, 798)]",[],[1],[0.5666666666666667],horizontal,"(890.0, 262.0)",0.9833333333333333,0.522,1,5101.69,3,0.0,same
0,703,valid,"[(1111, 796)]",[],[1],[0.6666666666666666],horizontal,"(890.0, 762.0)",1.3666666666666667,0.619,1,5107.362,3,0.0,same
0,704,valid,"[(1137, 781)]",[],[1],[0.5333333333333333],vertical,"(890.0, 762.0)",0.8833333333333333,0.488,1,5113.458,3,0.0,same
0,705,valid,"[(1129, 790)]",[],[1],[0.5166666666666666],vertical,"(890.0, 762.0)",0.48333333333333334,0.474,1,5118.884,3,0.0,same
0,706,valid,"[(1127, 796)]",[],[1],[0.5333333333333333],vertical,"(890.0, 262.0)",0.8166666666666667,0.492,1,5124.375,3,0.0,same
0,707,valid,"[(1123, 777)]",[],[1],[0.5333333333333333],horizontal,"(390.0, 762.0)",0.9833333333333333,0.489,1,5129.956,3,0.0,same
0,708,catch,"[(1135, 774)]",[],[1],[],horizontal,"(390.0, 762.0)",1.7,nan,1,5135.661,3,0.0,same
0,709,catch,"[(1127, 792)]",[],[1],[],vertical,"(890.0, 262.0)",1.7,nan,1,5141.893,3,0.0,same
0,710,invalid_same_bar,"[(1080, 792)]",[],[1],[0.6],horizontal,"(390.0, 762.0)",1.4833333333333334,0.562,1,5148.109,3,0.0,same
0,711,valid,"[(1141, 790)]",[],[1],[0.5],vertical,"(890.0, 262.0)",1.4333333333333333,0.459,1,5154.892,3,0.0,same
0,712,valid,"[(1141, 800)]",[],[1],[0.5333333333333333],vertical,"(390.0, 262.0)",1.2,0.493,1,5160.952,3,0.0,same
0,713,invalid_adjacent_other_bar,"[(1088, 756)]",[],[1],[0.85],vertical,"(890.0, 262.0)",0.85,nan,0,5166.86,0,0.0,other
0,714,valid,"[(1126, 790)]",[],[1],[0.5166666666666666],vertical,"(890.0, 762.0)",0.8833333333333333,0.473,1,5173.666,1,0.0,same
0,715,valid,"[(1126, 774)]",[],[1],[0.6833333333333333],vertical,"(390.0, 762.0)",0.6,0.638,1,5178.299,1,0.0,same
0,716,valid,"[(1107, 779)]",[],[1],[0.7333333333333333],vertical,"(390.0, 262.0)",1.4666666666666666,0.688,1,5183.291,1,0.0,same
0,717,valid,"[(1127, 784)]",[],[1],[0.6166666666666667],vertical,"(890.0, 762.0)",0.9666666666666667,0.577,1,5188.446,2,0.0,same
0,718,invalid_adjacent_other_bar,"[(1126, 784)]",[],[1],[0.5833333333333334],vertical,"(890.0, 762.0)",1.3166666666666667,0.541,1,5193.574,2,0.0,other
0,719,catch,"[(1130, 792)]",[],[1],[],vertical,"(390.0, 262.0)",1.7,nan,1,5199.344,2,0.0,same
0,720,valid,"[(1131, 786)]",[],[1],[0.5833333333333334],horizontal,"(890.0, 262.0)",1.1833333333333333,0.542,1,5205.119,3,0.0,same
0,721,valid,"[(1131, 799)]",[],[1],[0.6833333333333333],vertical,"(890.0, 262.0)",1.2,0.641,1,5211.022,3,0.0,same
0,722,catch,"[(1125, 808)]",[],[1],[],vertical,"(890.0, 262.0)",1.7,nan,1,5217.218,3,0.0,same
0,723,catch,"[(1128, 780)]",[],[1],[],vertical,"(890.0, 262.0)",1.7,nan,1,5222.958,3,0.0,same
0,724,valid,"[(1131, 786)]",[],[1],[0.65],vertical,"(390.0, 262.0)",1.4333333333333333,0.611,1,5228.742,3,0.0,same
0,725,catch,"[(1137, 800)]",[],[1],[],vertical,"(390.0, 262.0)",1.7,nan,1,5235.231,3,0.0,same
0,726,valid,"[(1138, 794)]",[],[1],[0.7166666666666667],horizontal,"(390.0, 262.0)",0.7,0.67,1,5241.459,3,0.0,same
0,727,valid,"[(1156, 792)]",[],[1],[0.6166666666666667],vertical,"(390.0, 262.0)",1.1,0.577,1,5247.441,3,0.0,same
0,728,invalid_same_bar,"[(1141, 793)]",[],[1],[0.6],horizontal,"(390.0, 262.0)",0.5166666666666666,0.552,1,5253.809,3,0.0,same
0,729,invalid_same_bar,"[(1136, 799)]",[],[1],[0.6],vertical,"(390.0, 262.0)",0.3833333333333333,0.57,1,5259.129,3,0.0,same
0,730,catch,"[(1086, 817)]",[],[1],[],horizontal,"(390.0, 762.0)",1.7,nan,1,5264.653,3,0.0,same
0,731,valid,"[(1129, 795)]",[],[1],[0.5333333333333333],horizontal,"(890.0, 262.0)",1.35,0.493,1,5270.491,3,0.0,same
0,732,valid,"[(1156, 797)]",[],[1],[0.55],vertical,"(890.0, 762.0)",0.3833333333333333,0.508,1,5276.964,3,0.0,same
0,733,valid,"[(1132, 794)]",[],[1],[0.65],vertical,"(890.0, 262.0)",0.8166666666666667,0.606,1,5282.365,3,0.0,same
0,734,catch,"[(1134, 776)]",[],[1],[],vertical,"(890.0, 262.0)",1.7,nan,1,5288.018,3,0.0,same
0,735,valid,"[(1156, 803)]",[],[1],[0.5166666666666666],vertical,"(890.0, 262.0)",0.55,0.48,1,5293.992,3,0.0,same
0,736,valid,"[(1087, 791)]",[],[1],[0.6],horizontal,"(390.0, 762.0)",0.8666666666666667,0.565,1,5299.342,3,0.0,same
0,737,valid,"[(1129, 799)]",[],[1],[0.55],horizontal,"(390.0, 762.0)",0.7333333333333333,0.513,1,5305.317,3,0.0,same
0,738,valid,"[(1141, 778)]",[],[1],[0.48333333333333334],vertical,"(890.0, 262.0)",0.5666666666666667,0.446,1,5310.958,3,0.0,same
0,739,valid,"[(1091, 794)]",[],[1],[0.55],horizontal,"(890.0, 262.0)",0.6166666666666667,0.507,1,5316.504,3,0.0,same
0,740,valid,"[(1120, 794)]",[],[1],[0.5166666666666666],vertical,"(890.0, 262.0)",1.0666666666666667,0.474,1,5321.964,3,0.0,same
0,741,valid,"[(1141, 783)]",[],[1],[0.5333333333333333],vertical,"(390.0, 762.0)",1.1833333333333333,0.492,1,5327.893,3,0.0,same
0,742,catch,"[(1114, 783)]",[],[1],[],vertical,"(890.0, 762.0)",1.7,nan,1,5333.494,3,0.0,same
0,743,catch,"[(1140, 790)]",[],[1],[],horizontal,"(890.0, 262.0)",1.7,nan,1,5339.677,3,0.0,same
0,744,catch,"[(1146, 791)]",[],[1],[],vertical,"(890.0, 262.0)",1.7,nan,1,5346.008,3,0.0,same
0,745,valid,"[(1127, 778)]",[],[1],[0.85],horizontal,"(390.0, 762.0)",1.0,nan,0,5351.775,0,0.0,same
0,746,valid,"[(1081, 846)]",[],[1],[0.5666666666666667],horizontal,"(390.0, 262.0)",1.4833333333333334,0.527,1,5356.419,1,0.0,same
0,747,valid,"[(1109, 801)]",[],[1],[0.5166666666666666],vertical,"(390.0, 262.0)",0.5833333333333334,0.472,1,5968.978,1,0.0,same
0,748,invalid_adjacent_other_bar,"[(1132, 776)]",[],[1],[0.85],horizontal,"(890.0, 262.0)",1.2333333333333334,nan,0,5973.712,0,0.0,other
0,749,catch,"[(1131, 783)]",[],[1],[],horizontal,"(890.0, 262.0)",1.7,nan,1,5978.594,1,0.0,same
0,750,valid,"[(1171, 788)]",[],[1],[0.5],vertical,"(390.0, 762.0)",1.4166666666666667,0.461,1,5983.981,1,0.0,same
0,751,valid,"[(1085, 828)]",[],[1],[0.6333333333333333],vertical,"(390.0, 762.0)",1.35,0.594,1,5989.078,1,0.0,same
0,752,valid,"[(1120, 778)]",[],[1],[0.65],horizontal,"(390.0, 762.0)",1.5,0.598,1,6000.128,2,0.0,same
0,753,invalid_same_bar,"[(1132, 799)]",[],[1],[0.5],horizontal,"(390.0, 762.0)",0.7,0.458,1,6005.909,2,0.0,same
0,754,invalid_same_bar,"[(1131, 800)]",[],[1],[0.5833333333333334],horizontal,"(390.0, 262.0)",0.7333333333333333,0.54,1,6011.071,2,0.0,same
0,755,valid,"[(1157, 803)]",[],[1],[0.5],vertical,"(890.0, 262.0)",0.65,0.456,1,6016.469,3,0.0,same
0,756,valid,"[(1170, 784)]",[],[1],[0.5833333333333334],horizontal,"(390.0, 762.0)",1.3,0.547,1,6022.21,3,0.0,same
0,757,invalid_adjacent_other_bar,"[(1134, 798)]",[],[1],[0.8166666666666667],vertical,"(390.0, 262.0)",1.1833333333333333,0.763,1,6028.157,3,0.0,other
0,758,invalid_adjacent_other_bar,"[(1165, 781)]",[],[1],[0.65],horizontal,"(390.0, 762.0)",0.5166666666666666,0.605,1,6034.393,3,0.0,other
0,759,catch,"[(1160, 783)]",[],[1],[],vertical,"(390.0, 262.0)",1.7,nan,1,6039.981,3,0.0,same
0,760,valid,"[(1159, 775)]",[],[1],[0.5166666666666666],vertical,"(390.0, 262.0)",0.55,0.473,1,6045.645,3,0.0,same
0,761,catch,"[(1162, 783)]",[],[1],[],vertical,"(890.0, 262.0)",1.7,nan,1,6051.226,3,0.0,same
0,762,catch,"[(1164, 806)]",[],[1],[],horizontal,"(890.0, 262.0)",1.7,nan,1,6056.977,3,0.0,same
0,763,valid,"[(1161, 753), (1131, 813)]",[],"[0, 1]",[0.6],horizontal,"(390.0, 762.0)",1.45,0.56,1,6063.055,3,0.0,same
0,764,valid,"[(1161, 794)]",[],[1],[0.31666666666666665],vertical,"(890.0, 262.0)",1.4666666666666666,0.279,1,6070.428,3,0.0,same
0,765,valid,"[(1170, 789)]",[],[1],[0.5],horizontal,"(890.0, 262.0)",1.0833333333333333,0.458,1,6076.712,3,0.0,same
0,766,invalid_adjacent_other_bar,"[(1126, 814)]",[],[1],[0.5333333333333333],vertical,"(890.0, 762.0)",0.7666666666666666,0.498,1,6082.611,3,0.0,other
0,767,catch,"[(1156, 798)]",[],[1],[],vertical,"(890.0, 262.0)",1.7,nan,1,6088.197,3,0.0,same
0,768,valid,"[(1164, 784)]",[],[1],[0.5],horizontal,"(390.0, 762.0)",1.2333333333333334,0.458,1,6093.944,3,0.0,same
0,769,valid,"[(1165, 800)]",[],[1],[0.5],horizontal,"(890.0, 762.0)",1.0,0.458,1,6100.207,3,0.0,same
0,770,valid,"[(1127, 785)]",[],[1],[0.6333333333333333],horizontal,"(890.0, 262.0)",0.75,0.594,1,6105.928,3,0.0,same
0,771,valid,"[(1164, 784)]",[],[1],[0.85],horizontal,"(390.0, 762.0)",0.85,nan,0,6111.461,0,0.0,same
0,772,valid,"[(1126, 779)]",[],[1],[0.5],vertical,"(390.0, 262.0)",0.7333333333333333,0.458,1,6115.961,1,0.0,same
0,773,valid,"[(1116, 806)]",[],[1],[0.85],horizontal,"(390.0, 762.0)",0.7166666666666667,nan,0,6121.087,0,0.0,same
0,774,valid,"[(1126, 784)]",[],[1],[0.55],horizontal,"(890.0, 762.0)",0.5,0.502,1,6125.969,1,0.0,same
0,775,valid,"[(1131, 808)]",[],[1],[0.55],vertical,"(890.0, 762.0)",0.45,0.507,1,6130.336,1,0.0,same
0,776,valid,"[(1132, 817)]",[],[1],[0.55],horizontal,"(890.0, 762.0)",0.6,0.504,1,6134.844,1,0.0,same
0,777,valid,"[(1129, 790)]",[],[1],[0.5166666666666666],vertical,"(890.0, 762.0)",0.5,0.472,1,6140.09,2,0.0,same
0,778,catch,"[(1126, 783)]",[],[1],[],vertical,"(390.0, 262.0)",1.7,nan,1,6144.994,2,0.0,same
0,779,valid,"[(1126, 820)]",[],[1],[0.65],horizontal,"(390.0, 262.0)",0.5833333333333334,0.612,1,6150.551,2,0.0,same
0,780,valid,"[(1126, 817)]",[],[1],[0.6166666666666667],vertical,"(390.0, 262.0)",1.4166666666666667,0.572,1,6156.219,3,0.0,same
0,781,valid,"[(1146, 794)]",[],[1],[0.5],vertical,"(890.0, 262.0)",0.7333333333333333,0.46,1,6162.504,3,0.0,same
0,782,valid,"[(1126, 800)]",[],[1],[0.5166666666666666],horizontal,"(890.0, 762.0)",0.43333333333333335,0.477,1,6167.857,3,0.0,same
0,783,catch,"[(1165, 783)]",[],[1],[],vertical,"(890.0, 762.0)",1.7,nan,1,6173.529,3,0.0,same
0,784,catch,"[(1162, 789)]",[],[1],[],vertical,"(390.0, 762.0)",1.7,nan,1,6179.11,3,0.0,same
0,785,valid,"[(1136, 790)]",[],[1],[0.55],horizontal,"(890.0, 262.0)",1.2,0.506,1,6184.789,3,0.0,same
0,786,invalid_same_bar,"[(1097, 827)]",[],[1],[0.75],vertical,"(390.0, 262.0)",1.4666666666666666,0.707,1,6190.661,3,0.0,same
0,787,catch,"[(1131, 776)]",[],[1],[],vertical,"(390.0, 762.0)",1.7,nan,1,6197.578,3,0.0,same
0,788,catch,"[(1164, 784)]",[],[1],[],horizontal,"(390.0, 762.0)",1.7,nan,1,6203.778,3,0.0,same
0,789,valid,"[(1165, 796)]",[],[1],[0.55],vertical,"(890.0, 762.0)",1.1833333333333333,0.509,1,6209.811,3,0.0,same
0,790,catch,"[(1164, 779)]",[],[1],[],vertical,"(390.0, 762.0)",1.7,nan,1,6215.81,3,0.0,same
0,791,invalid_adjacent_other_bar,"[(1133, 784)]",[],[1],[0.6833333333333333],horizontal,"(390.0, 762.0)",0.7,0.631,1,6221.844,3,0.0,other
0,792,valid,"[(1164, 780)]",[],[1],[0.5333333333333333],horizontal,"(390.0, 762.0)",1.2666666666666666,0.495,1,6227.639,3,0.0,same
0,793,valid,"[(1160, 783)]",[],[1],[0.55],vertical,"(390.0, 762.0)",0.7166666666666667,0.508,1,6233.295,3,0.0,same
0,794,valid,"[(1160, 804)]",[],[1],[0.5166666666666666],horizontal,"(890.0, 762.0)",0.43333333333333335,0.474,1,6238.768,3,0.0,same
0,795,valid,"[(1165, 795)]",[],[1],[0.6333333333333333],vertical,"(390.0, 262.0)",1.1,0.59,1,6243.979,3,0.0,same
0,796,valid,"[(1164, 789)]",[],[1],[0.55],vertical,"(390.0, 262.0)",0.55,0.511,1,6250.001,3,0.0,same
0,797,valid,"[(1126, 779)]",[],[1],[0.5333333333333333],vertical,"(890.0, 762.0)",0.6,0.493,1,6255.756,3,0.0,same
0,798,valid,"[(1159, 796)]",[],[1],[0.55],horizontal,"(890.0, 762.0)",0.48333333333333334,0.504,1,6261.044,3,0.0,same
0,799,catch,"[(1156, 782)]",[],[1],[],horizontal,"(390.0, 762.0)",1.7,nan,1,6266.566,3,0.0,same
0,800,valid,"[(1131, 804)]",[],[1],[0.4666666666666667],horizontal,"(890.0, 762.0)",1.5333333333333332,0.428,1,6272.495,3,0.0,same
0,801,invalid_same_bar,"[(1165, 803)]",[],[1],[0.55],vertical,"(390.0, 762.0)",0.7666666666666666,0.522,1,6278.972,3,0.0,same
0,802,invalid_adjacent_other_bar,"[(1131, 790)]",[],[1],[0.5333333333333333],horizontal,"(890.0, 762.0)",0.65,0.491,1,6284.245,3,0.0,other
0,803,valid,"[(1147, 791)]",[],[1],[0.5166666666666666],horizontal,"(890.0, 762.0)",0.48333333333333334,0.476,1,6289.666,3,0.0,same
0,804,valid,"[(1128, 796)]",[],[1],[0.5],vertical,"(890.0, 262.0)",0.5833333333333334,0.466,1,6295.226,3,0.0,same
0,805,catch,"[(1157, 783)]",[],[1],[],horizontal,"(890.0, 762.0)",1.7,"('cti', 1.675),nan",0,6300.657,0,0.02,same
0,806,valid,"[(1121, 799)]",[],[1],[0.5333333333333333],horizontal,"(390.0, 762.0)",0.4,0.493,1,6305.249,1,0.02,same
0,807,catch,"[(1118, 812)]",[],[1],[],vertical,"(390.0, 262.0)",1.7,nan,1,6309.855,1,0.02,same
0,808,valid,"[(1126, 789)]",[],[1],[0.2],horizontal,"(890.0, 762.0)",1.4666666666666666,0.167,0,6315.544,0,0.02,same
0,809,valid,"[(1137, 798)]",[],[1],[0.5166666666666666],horizontal,"(390.0, 262.0)",0.35,0.482,1,6319.861,1,0.02,same
0,810,valid,"[(1167, 782)]",[],[1],[0.5],vertical,"(890.0, 762.0)",1.5333333333333332,0.46,1,6324.667,1,0.02,same
0,811,catch,"[(1165, 776)]",[],[1],[],vertical,"(390.0, 762.0)",1.7,nan,1,6329.833,1,0.02,same
0,812,catch,"[(1163, 802)]",[],[1],[],vertical,"(890.0, 762.0)",1.7,nan,1,6334.957,2,0.02,same
0,813,catch,"[(1153, 785)]",[],[1],[],vertical,"(390.0, 762.0)",1.7,nan,1,6340.909,2,0.02,same
0,814,valid,"[(1160, 782)]",[],[1],[0.5333333333333333],vertical,"(890.0, 762.0)",0.7666666666666666,0.495,1,6346.091,2,0.02,same
0,815,valid,"[(1126, 803)]",[],[1],[0.55],horizontal,"(390.0, 762.0)",0.6,0.509,1,6351.387,3,0.02,same
0,816,catch,"[(1146, 791)]",[],[1],[],horizontal,"(890.0, 262.0)",,"('cti', 1.467),nan",0,6356.814,0,0.04,same
0,817,catch,"[(1123, 783)]",[],[1],[],vertical,"(890.0, 762.0)",1.7,nan,1,6361.468,1,0.04,same
0,818,catch,"[(1126, 806)]",[],[1],[],vertical,"(390.0, 262.0)",1.7,nan,1,6367.018,1,0.04,same
0,819,valid,"[(1160, 794)]",[],[1],[0.5333333333333333],vertical,"(390.0, 762.0)",1.3333333333333333,0.491,1,6372.388,1,0.04,same
0,820,valid,"[(1130, 778)]",[],[1],[0.5166666666666666],horizontal,"(890.0, 262.0)",0.8333333333333334,0.476,1,6377.532,2,0.04,same
0,821,valid,"[(1173, 777)]",[],[1],[0.5166666666666666],vertical,"(890.0, 262.0)",1.4166666666666667,0.476,1,6383.143,2,0.04,same
0,822,valid,"[(1164, 794)]",[],[1],[0.5333333333333333],vertical,"(890.0, 762.0)",0.55,0.496,1,6389.381,2,0.04,same
0,823,invalid_same_bar,"[(1136, 774)]",[],[1],[0.5333333333333333],horizontal,"(890.0, 262.0)",0.8,0.491,1,6394.612,3,0.04,same
0,824,valid,"[(1131, 803)]",[],[1],[0.5666666666666667],vertical,"(390.0, 762.0)",1.3833333333333333,0.522,1,6400.295,3,0.04,same
0,825,valid,"[(1165, 788)]",[],[1],[0.5166666666666666],horizontal,"(390.0, 262.0)",1.35,0.478,1,6406.878,3,0.04,same
0,826,valid,"[(1126, 791)]",[],[1],[0.6166666666666667],horizontal,"(390.0, 262.0)",0.36666666666666664,0.583,1,6412.738,3,0.04,same
0,827,valid,"[(1131, 804)]",[],[1],[0.5166666666666666],horizontal,"(890.0, 762.0)",0.8333333333333334,0.475,1,6417.897,3,0.04,same
0,828,valid,"[(1162, 788)]",[],[1],[0.5],horizontal,"(890.0, 262.0)",1.2666666666666666,0.456,1,6423.596,3,0.04,same
0,829,valid,"[(1131, 787)]",[],[1],[0.6333333333333333],vertical,"(890.0, 262.0)",0.9333333333333333,0.587,1,6429.262,3,0.04,same
0,830,valid,"[(1168, 779)]",[],[1],[0.5666666666666667],vertical,"(890.0, 762.0)",1.25,0.52,1,6435.348,3,0.04,same
0,831,valid,"[(1164, 798)]",[],[1],[0.48333333333333334],horizontal,"(890.0, 262.0)",0.9833333333333333,0.449,1,6441.28,3,0.04,same
0,832,valid,"[(1169, 786)]",[],[1],[0.85],vertical,"(890.0, 762.0)",0.4166666666666667,nan,0,6446.821,0,0.04,same
0,833,valid,"[(1072, 807)]",[],[1],[0.5333333333333333],horizontal,"(390.0, 762.0)",1.25,0.502,1,6450.729,1,0.04,same
0,834,valid,"[(1111, 824)]",[],[1],[0.5666666666666667],vertical,"(390.0, 262.0)",1.3,0.529,1,6455.978,1,0.04,same
0,835,valid,"[(1131, 799)]",[],[1],[0.5],vertical,"(890.0, 262.0)",1.5333333333333332,0.459,1,6460.993,1,0.04,same
0,836,invalid_adjacent_other_bar,"[(1127, 799)]",[],[1],[0.6666666666666666],vertical,"(890.0, 762.0)",0.6166666666666667,0.627,1,6466.829,2,0.04,other
0,837,valid,"[(1130, 799)]",[],[1],[0.5166666666666666],horizontal,"(890.0, 262.0)",1.2166666666666666,0.474,1,6472.386,2,0.04,same
0,838,invalid_adjacent_other_bar,"[(1165, 809)]",[],[1],[0.5166666666666666],horizontal,"(890.0, 262.0)",0.6,0.479,1,6477.845,2,0.04,other
0,839,catch,"[(1143, 812)]",[],[1],[],vertical,"(390.0, 762.0)",1.7,nan,1,6483.094,3,0.04,same
0,840,valid,"[(1161, 778)]",[],[1],[0.85],horizontal,"(390.0, 262.0)",1.0333333333333332,nan,0,6489.272,0,0.04,same
0,841,valid,"[(1131, 789)]",[],[1],[0.5833333333333334],horizontal,"(390.0, 262.0)",1.3666666666666667,0.547,1,6494.108,1,0.04,same
0,842,catch,"[(1126, 782)]",[],[1],[],vertical,"(890.0, 262.0)",1.7,nan,1,6499.795,1,0.04,same
0,843,valid,"[(1165, 797)]",[],[1],[0.55],vertical,"(890.0, 762.0)",1.3166666666666667,0.511,1,6504.928,1,0.04,same
0,844,valid,"[(1154, 797)]",[],[1],[0.5],vertical,"(890.0, 262.0)",0.5,0.459,1,6510.379,2,0.04,same
0,845,valid,"[(1129, 795)]",[],[1],[0.55],vertical,"(390.0, 262.0)",0.8,0.508,1,6515.379,2,0.04,same
0,846,catch,"[(1126, 798)]",[],[1],[],vertical,"(890.0, 762.0)",1.7,nan,1,6520.48,2,0.04,same
0,847,valid,"[(1160, 789)]",[],[1],[0.75],vertical,"(390.0, 262.0)",0.9666666666666667,0.705,1,6526.146,3,0.04,same
0,848,catch,"[(1160, 787)]",[],[1],[],horizontal,"(390.0, 762.0)",1.7,nan,1,6532.406,3,0.04,same
0,849,valid,"[(1126, 799)]",[],[1],[0.5166666666666666],vertical,"(890.0, 262.0)",1.2666666666666666,0.475,1,6538.422,3,0.04,same
0,850,valid,"[(1140, 776)]",[],[1],[0.5333333333333333],vertical,"(390.0, 762.0)",0.9166666666666666,0.493,1,6544.798,3,0.04,same
0,851,invalid_adjacent_other_bar,"[(1160, 806)]",[],[1],[0.55],vertical,"(890.0, 762.0)",1.0666666666666667,0.514,1,6550.002,3,0.04,other
0,852,valid,"[(1126, 775)]",[],[1],[0.85],horizontal,"(390.0, 762.0)",1.1666666666666667,nan,0,6555.762,0,0.04,same
0,853,valid,"[(1132, 805)]",[],[1],[0.5833333333333334],horizontal,"(890.0, 262.0)",0.6666666666666666,0.537,1,6560.718,1,0.04,same
0,854,valid,"[(1159, 768)]",[],[1],[0.55],vertical,"(390.0, 262.0)",0.6666666666666666,0.508,1,6565.539,1,0.04,same
0,855,valid,"[(1126, 781)]",[],[1],[0.85],horizontal,"(890.0, 762.0)",0.7,nan,0,6569.961,0,0.02,same
0,856,invalid_same_bar,"[(1126, 795)]",[],[1],[0.5833333333333334],vertical,"(390.0, 762.0)",1.4166666666666667,0.542,1,6574.489,1,0.02,same
0,857,valid,"[(1151, 789)]",[],[1],[0.2833333333333333],vertical,"(890.0, 762.0)",1.4833333333333334,0.25,1,6579.995,1,0.02,same
0,858,invalid_adjacent_other_bar,"[(1159, 789)]",[],[1],[0.7],horizontal,"(390.0, 262.0)",0.9333333333333333,0.66,1,6585.491,1,0.02,other
0,859,invalid_adjacent_other_bar,"[(1160, 790)]",[],[1],[0.85],horizontal,"(390.0, 262.0)",1.1166666666666667,nan,0,6590.697,0,0.02,other
0,860,valid,"[(1159, 781)]",[],[1],[0.6166666666666667],vertical,"(890.0, 262.0)",0.9,0.578,1,6595.895,1,0.02,same
0,861,valid,"[(1160, 786)]",[],[1],[0.5666666666666667],horizontal,"(890.0, 762.0)",0.8166666666666667,0.524,1,6600.701,1,0.02,same
