block,practice,trial,change_interval_s,change_interval_frames,taps_start_time_during_fix,taps_end_time_during_fix,taps_start_loc_during_fix,taps_end_loc_during_fix,taps_on_lever_during_fix,taps_on_lever_frame_during_fix,taps_on_lever_s_during_fix,fix_xy,bar_orientation,target_xy,rt,acc
1,True,1,0.479,28,[],[],"[(1131, 861)]",[],[1],[69],[1.15],"[640.0, 512.0]",horizontal,"(890.0, 262.0)",0,1
1,True,2,0.306,18,[],[],"[(1125, 876)]",[],[1],[68],[1.1333333333333333],"[640.0, 512.0]",horizontal,"(390.0, 762.0)",0,0
1,True,3,1.338,80,[],[],"[(1137, 892)]",[],[1],[107],[1.7833333333333332],"[640.0, 512.0]",vertical,"(890.0, 262.0)",0,1
1,True,4,1.257,75,[],[],"[(1156, 914)]",[],[1],[98],[1.6333333333333333],"[640.0, 512.0]",horizontal,"(890.0, 762.0)",0,1
1,False,1,0.842,50,[],[],"[(1124, 896)]",[],[1],[78],[1.3],"[640.0, 512.0]",vertical,"(890.0, 262.0)",0,1
1,False,2,1.492,89,[],[],"[(1105, 906)]",[],[1],[102],[1.7],"[640.0, 512.0]",horizontal,"(890.0, 762.0)",0,1
1,False,3,0.744,44,[],[],"[(1121, 879)]",[],[1],[70],[1.1666666666666667],"[640.0, 512.0]",horizontal,"(890.0, 762.0)",0,1
1,False,4,0.842,50,[],[],"[(1124, 861)]",[],[1],[64],[1.0666666666666667],"[640.0, 512.0]",horizontal,"(890.0, 262.0)",0,1
1,False,5,0.676,40,[],[],"[(1105, 899)]",[],[1],[69],[1.15],"[640.0, 512.0]",vertical,"(390.0, 262.0)",0,1
1,False,6,0.832,49,[],[],"[(1130, 911)]",[],[1],[77],[1.2833333333333332],"[640.0, 512.0]",vertical,"(890.0, 262.0)",0,1
1,False,7,1.446,86,[],[],"[(1105, 885)]",[],[1],[117],[1.95],"[640.0, 512.0]",horizontal,"(890.0, 762.0)",0,1
1,False,8,0.831,49,[],[],"[(1140, 880)]",[],[1],[67],[1.1166666666666667],"[640.0, 512.0]",vertical,"(390.0, 262.0)",0,1
1,False,9,0.726,43,[],[],"[(1122, 897)]",[],[1],[69],[1.15],"[640.0, 512.0]",horizontal,"(390.0, 762.0)",0,1
1,False,10,0.373,22,[],[],"[(1141, 921)]",[],[1],[52],[0.8666666666666667],"[640.0, 512.0]",vertical,"(890.0, 762.0)",0,1
1,False,11,1.406,84,[],[],"[(1139, 883)]",[],[1],[111],[1.8499999999999999],"[640.0, 512.0]",vertical,"(890.0, 262.0)",0,1
1,False,12,1.34,80,[],[],"[(1149, 919)]",[],[1],[104],[1.7333333333333334],"[640.0, 512.0]",vertical,"(390.0, 762.0)",0,1
1,False,13,1.157,69,[],[],"[(1124, 903)]",[],[1],[91],[1.5166666666666666],"[640.0, 512.0]",horizontal,"(390.0, 262.0)",0,1
1,False,14,1.276,76,[],[],"[(1142, 897)]",[],[1],[112],[1.8666666666666667],"[640.0, 512.0]",horizontal,"(390.0, 762.0)",0,1
1,False,15,0.593,35,[],[],"[(1121, 890)]",[],[1],[67],[1.1166666666666667],"[640.0, 512.0]",vertical,"(890.0, 762.0)",0,1
1,False,16,1.387,83,[],[],"[(1158, 903)]",[],[1],[117],[1.95],"[640.0, 512.0]",vertical,"(890.0, 262.0)",0,1
1,False,17,0.821,49,[],[],"[(1130, 919)]",[],[1],[77],[1.2833333333333332],"[640.0, 512.0]",horizontal,"(390.0, 762.0)",0,1
1,False,18,0.65,39,[],[],"[(1134, 920)]",[],[1],[67],[1.1166666666666667],"[640.0, 512.0]",vertical,"(890.0, 762.0)",0,1
1,False,19,1.475,88,[],[],"[(1162, 928)]",[],[1],[119],[1.9833333333333334],"[640.0, 512.0]",horizontal,"(390.0, 762.0)",0,1
1,False,20,1.402,84,[],[],"[(1159, 902)]",[],[1],[127],[2.1166666666666667],"[640.0, 512.0]",vertical,"(890.0, 262.0)",0,1
1,False,21,0.683,40,[],[],"[(1130, 936)]",[],[1],[71],[1.1833333333333333],"[640.0, 512.0]",vertical,"(390.0, 262.0)",0,1
1,False,22,0.71,42,[],[],"[(1153, 886)]",[],[1],[66],[1.1],"[640.0, 512.0]",horizontal,"(890.0, 262.0)",0,1
1,False,23,1.278,76,[],[],"[(1159, 903)]",[],[1],[102],[1.7],"[640.0, 512.0]",horizontal,"(890.0, 762.0)",0,1
1,False,24,0.426,25,[],[],"[(1146, 917)]",[],[1],[71],[1.1833333333333333],"[640.0, 512.0]",horizontal,"(390.0, 762.0)",0,1
1,False,25,0.758,45,[],[],"[(1159, 915)]",[],[1],[51],[0.85],"[640.0, 512.0]",horizontal,"(390.0, 762.0)",0,1
1,False,26,1.046,62,[],[],"[(1126, 904)]",[],[1],[84],[1.4],"[640.0, 512.0]",vertical,"(390.0, 762.0)",0,1
1,False,27,0.98,58,[],[185661],"[(1162, 933)]","[(1174, 919)]",[1],[52],[0.8666666666666667],"[640.0, 512.0]",horizontal,"(390.0, 762.0)",0,0
1,False,28,0.956,57,[],[],"[(1131, 935)]",[],[1],[84],[1.4],"[640.0, 512.0]",vertical,"(890.0, 262.0)",0,1
1,False,29,1.439,86,[],[],"[(1147, 880)]",[],[1],[117],[1.95],"[640.0, 512.0]",horizontal,"(890.0, 262.0)",0,1
1,False,30,0.891,53,[],[],"[(1152, 898)]",[],[1],[81],[1.35],"[640.0, 512.0]",horizontal,"(890.0, 262.0)",0,1
1,False,31,0.972,58,[],[197041],"[(1155, 905)]","[(1155, 905)]",[1],[4],[0.06666666666666667],"[640.0, 512.0]",vertical,"(390.0, 762.0)",0,0
1,False,32,0.867,52,[],[],"[(1148, 884)]",[],[1],[86],[1.4333333333333333],"[640.0, 512.0]",horizontal,"(890.0, 762.0)",0,1
1,False,33,1.413,84,[],[],"[(1142, 910)]",[],[1],[124],[2.0666666666666664],"[640.0, 512.0]",horizontal,"(390.0, 762.0)",0,1
1,False,34,0.599,35,[],[],"[(1141, 921)]",[],[1],[61],[1.0166666666666666],"[640.0, 512.0]",horizontal,"(890.0, 262.0)",0,1
1,False,35,1.202,72,[],[],"[(1160, 892)]",[],[1],[97],[1.6166666666666667],"[640.0, 512.0]",horizontal,"(390.0, 762.0)",0,1
1,False,36,1.128,67,[],[],"[(1154, 896)]",[],[1],[95],[1.5833333333333333],"[640.0, 512.0]",horizontal,"(890.0, 262.0)",0,1
1,False,37,1.377,82,[],[],"[(1158, 873)]",[],[1],[115],[1.9166666666666667],"[640.0, 512.0]",vertical,"(890.0, 762.0)",0,1
1,False,38,1.37,82,[],[],"[(1158, 898)]",[],[1],[108],[1.8],"[640.0, 512.0]",horizontal,"(390.0, 262.0)",0,1
1,False,39,1.007,60,[],[232151],"[(1135, 887)]","[(1102, 915)]",[1],[19],[0.31666666666666665],"[640.0, 512.0]",vertical,"(890.0, 762.0)",0,0
1,False,40,1.034,62,[],[],"[(1167, 884)]",[],[1],[102],[1.7],"[640.0, 512.0]",horizontal,"(390.0, 762.0)",0,1
1,False,41,1.145,68,[],[236872],"[(1154, 843)]","[(1148, 852)]",[1],[9],[0.15],"[640.0, 512.0]",vertical,"(890.0, 762.0)",0,0
1,False,42,0.893,53,[],[238359],"[(1179, 850)]","[(1121, 885)]",[1],[12],[0.2],"[640.0, 512.0]",horizontal,"(390.0, 262.0)",0,0
1,False,43,0.789,47,[],[],"[(1153, 881)]",[],[1],[86],[1.4333333333333333],"[640.0, 512.0]",vertical,"(890.0, 262.0)",0,1
1,False,44,0.92,55,[],[],"[(1128, 916)]",[],[1],[82],[1.3666666666666667],"[640.0, 512.0]",vertical,"(890.0, 262.0)",0,1
1,False,45,1.131,67,[],[],"[(1149, 897)]",[],[1],[94],[1.5666666666666667],"[640.0, 512.0]",horizontal,"(390.0, 262.0)",0,1
1,False,46,1.333,79,[],[],"[(1144, 906)]",[],[1],[127],[2.1166666666666667],"[640.0, 512.0]",vertical,"(890.0, 762.0)",0,1
1,False,47,1.152,69,[],[],"[(1115, 898)]",[],[1],[119],[1.9833333333333334],"[640.0, 512.0]",horizontal,"(890.0, 262.0)",0,0
1,False,48,0.67,40,[],[],"[(1102, 916)]",[],[1],[78],[1.3],"[640.0, 512.0]",vertical,"(890.0, 762.0)",0,1
1,False,49,0.358,21,[],[],"[(1162, 899)]",[],[1],[53],[0.8833333333333333],"[640.0, 512.0]",horizontal,"(890.0, 262.0)",0,1
1,False,50,0.347,20,[],[],"[(1142, 895)]",[],[1],[52],[0.8666666666666667],"[640.0, 512.0]",vertical,"(890.0, 262.0)",0,1
1,False,51,1.47,88,[],[],"[(1146, 888)]",[],[1],[114],[1.9],"[640.0, 512.0]",vertical,"(890.0, 262.0)",0,1
1,False,52,1.135,68,[],[278646],"[(1161, 908)]","[(1161, 908)]",[1],[4],[0.06666666666666667],"[640.0, 512.0]",vertical,"(890.0, 762.0)",0,0
1,False,53,0.527,31,[],[],"[(1163, 889)]",[],[1],[60],[1.0],"[640.0, 512.0]",vertical,"(890.0, 762.0)",0,1
1,False,54,1.346,80,[],[],"[(1151, 897)]",[],[1],[106],[1.7666666666666666],"[640.0, 512.0]",vertical,"(890.0, 262.0)",0,1
1,False,55,1.25,75,[],[],"[(1145, 888)]",[],[1],[110],[1.8333333333333333],"[640.0, 512.0]",horizontal,"(390.0, 762.0)",0,1
1,False,56,0.997,59,[],[],"[(1140, 888)]",[],[1],[98],[1.6333333333333333],"[640.0, 512.0]",horizontal,"(390.0, 262.0)",0,1
1,False,57,0.404,24,[],[],"[(1106, 908)]",[],[1],[54],[0.9],"[640.0, 512.0]",horizontal,"(390.0, 762.0)",0,1
1,False,58,0.388,23,[],[],"[(1153, 902)]",[],[1],[51],[0.85],"[640.0, 512.0]",vertical,"(890.0, 762.0)",0,1
1,False,59,1.146,68,[],[],"[(1143, 909)]",[],[1],[97],[1.6166666666666667],"[640.0, 512.0]",vertical,"(890.0, 762.0)",0,1
1,False,60,0.531,31,[],[],"[(1124, 925)]",[],[1],[58],[0.9666666666666667],"[640.0, 512.0]",horizontal,"(890.0, 762.0)",0,1
2,False,61,1.359,81,[],[],"[(1138, 893)]",[],[1],[121],[2.0166666666666666],"[640.0, 512.0]",horizontal,"(390.0, 762.0)",0,1
2,False,62,0.419,25,[],[],"[(1136, 885)]",[],[1],[53],[0.8833333333333333],"[640.0, 512.0]",vertical,"(390.0, 262.0)",0,1
2,False,63,1.438,86,[],[],"[(1158, 909)]",[],[1],[115],[1.9166666666666667],"[640.0, 512.0]",horizontal,"(390.0, 762.0)",0,1
2,False,64,1.431,85,[],[],"[(1143, 911)]",[],[1],[117],[1.95],"[640.0, 512.0]",vertical,"(390.0, 762.0)",0,1
2,False,65,0.767,46,[],[],"[(1140, 894)]",[],[1],[80],[1.3333333333333333],"[640.0, 512.0]",horizontal,"(890.0, 262.0)",0,1
2,False,66,0.584,35,[],[],"[(1130, 875)]",[],[1],[67],[1.1166666666666667],"[640.0, 512.0]",horizontal,"(390.0, 262.0)",0,1
2,False,67,1.306,78,[],[],"[(1140, 897)]",[],[1],[105],[1.75],"[640.0, 512.0]",horizontal,"(890.0, 262.0)",0,1
2,False,68,1.426,85,[],[],"[(1164, 881)]",[],[1],[116],[1.9333333333333333],"[640.0, 512.0]",vertical,"(890.0, 762.0)",0,1
2,False,69,0.834,50,[],[],"[(1163, 899)]",[],[1],[79],[1.3166666666666667],"[640.0, 512.0]",horizontal,"(890.0, 762.0)",0,1
2,False,70,1.211,72,[],[],"[(1126, 895)]",[],[1],[101],[1.6833333333333333],"[640.0, 512.0]",vertical,"(390.0, 762.0)",0,1
2,False,71,0.515,30,[],[],"[(1159, 896)]",[],[1],[59],[0.9833333333333333],"[640.0, 512.0]",horizontal,"(390.0, 762.0)",0,1
2,False,72,0.507,30,[],[],"[(1137, 907)]",[],[1],[57],[0.95],"[640.0, 512.0]",vertical,"(390.0, 262.0)",0,1
2,False,73,0.938,56,[],[],"[(1147, 916)]",[],[1],[88],[1.4666666666666666],"[640.0, 512.0]",horizontal,"(890.0, 762.0)",0,1
2,False,74,0.833,49,[],[],"[(1142, 887)]",[],[1],[85],[1.4166666666666667],"[640.0, 512.0]",horizontal,"(890.0, 262.0)",0,1
2,False,75,0.662,39,[],[],"[(1152, 897)]",[],[1],[65],[1.0833333333333333],"[640.0, 512.0]",vertical,"(390.0, 262.0)",0,1
2,False,76,0.355,21,[],[],"[(1145, 899)]",[],[1],[50],[0.8333333333333334],"[640.0, 512.0]",horizontal,"(390.0, 762.0)",0,1
2,False,77,0.535,32,[],[],"[(1145, 898)]",[],[1],[60],[1.0],"[640.0, 512.0]",vertical,"(890.0, 762.0)",0,1
2,False,78,0.319,19,[],[],"[(1153, 901)]",[],[1],[57],[0.95],"[640.0, 512.0]",vertical,"(390.0, 262.0)",0,1
2,False,79,0.973,58,[],[],"[(1144, 902)]",[],[1],[99],[1.65],"[640.0, 512.0]",vertical,"(390.0, 762.0)",0,1
2,False,80,1.009,60,[],[],"[(1144, 900)]",[],[1],[94],[1.5666666666666667],"[640.0, 512.0]",horizontal,"(390.0, 262.0)",0,1
2,False,81,1.119,67,[],[],"[(1142, 888)]",[],[1],[94],[1.5666666666666667],"[640.0, 512.0]",horizontal,"(390.0, 762.0)",0,1
2,False,82,1.131,67,[],[],"[(1124, 943)]",[],[1],[95],[1.5833333333333333],"[640.0, 512.0]",vertical,"(390.0, 262.0)",0,1
2,False,83,0.853,51,[],[],"[(1158, 901)]",[],[1],[77],[1.2833333333333332],"[640.0, 512.0]",horizontal,"(890.0, 262.0)",0,1
2,False,84,0.956,57,[],[],"[(1141, 904)]",[],[1],[83],[1.3833333333333333],"[640.0, 512.0]",vertical,"(890.0, 262.0)",0,1
2,False,85,0.849,50,[],[],"[(1140, 905)]",[],[1],[79],[1.3166666666666667],"[640.0, 512.0]",horizontal,"(890.0, 762.0)",0,1
2,False,86,0.996,59,[],[],"[(1144, 894)]",[],[1],[92],[1.5333333333333332],"[640.0, 512.0]",horizontal,"(890.0, 762.0)",0,1
2,False,87,0.985,59,[],[],"[(1135, 914)]",[],[1],[87],[1.45],"[640.0, 512.0]",vertical,"(890.0, 262.0)",0,1
2,False,88,1.288,77,[],[684630],"[(1154, 907)]","[(1140, 926)]",[1],[63],[1.05],"[640.0, 512.0]",horizontal,"(390.0, 762.0)",0,0
2,False,89,0.467,28,[],[],"[(1080, 880)]",[],[1],[59],[0.9833333333333333],"[640.0, 512.0]",horizontal,"(390.0, 762.0)",0,1
2,False,90,0.683,40,[],[],"[(1127, 906)]",[],[1],[73],[1.2166666666666666],"[640.0, 512.0]",horizontal,"(890.0, 262.0)",0,1
2,False,91,0.659,39,[],[],"[(1124, 901)]",[],[1],[67],[1.1166666666666667],"[640.0, 512.0]",vertical,"(890.0, 762.0)",0,1
2,False,92,0.99,59,[],[],"[(1151, 904)]",[],[1],[90],[1.5],"[640.0, 512.0]",vertical,"(390.0, 262.0)",0,1
2,False,93,1.203,72,[],[],"[(1144, 932)]",[],[1],[118],[1.9666666666666666],"[640.0, 512.0]",vertical,"(890.0, 262.0)",0,1
2,False,94,1.497,89,[],[],"[(1124, 931)]",[],[1],[104],[1.7333333333333334],"[640.0, 512.0]",vertical,"(890.0, 762.0)",0,1
2,False,95,0.386,23,[],[],"[(1124, 933)]",[],[1],[61],[1.0166666666666666],"[640.0, 512.0]",vertical,"(890.0, 762.0)",0,1
2,False,96,1.365,81,[],[],"[(1145, 927)]",[],[1],[110],[1.8333333333333333],"[640.0, 512.0]",horizontal,"(890.0, 262.0)",0,1
2,False,97,1.306,78,[],[],"[(1159, 888)]",[],[1],[104],[1.7333333333333334],"[640.0, 512.0]",vertical,"(390.0, 262.0)",0,1
2,False,98,0.494,29,[],[],"[(1140, 929)]",[],[1],[57],[0.95],"[640.0, 512.0]",vertical,"(390.0, 262.0)",0,1
2,False,99,1.404,84,[],[],"[(1155, 899)]",[],[1],[112],[1.8666666666666667],"[640.0, 512.0]",vertical,"(890.0, 262.0)",0,1
2,False,100,1.215,72,[],[],"[(1156, 915)]",[],[1],[101],[1.6833333333333333],"[640.0, 512.0]",horizontal,"(890.0, 762.0)",0,1
2,False,101,1.252,75,[],[],"[(1168, 903)]",[],[1],[99],[1.65],"[640.0, 512.0]",horizontal,"(890.0, 262.0)",0,1
2,False,102,1.339,80,[],[],"[(1138, 915)]",[],[1],[92],[1.5333333333333332],"[640.0, 512.0]",horizontal,"(890.0, 762.0)",0,1
2,False,103,0.737,44,[],[846984],"[(1163, 920)]","[(1143, 913)]",[1],[31],[0.5166666666666666],"[640.0, 512.0]",horizontal,"(890.0, 762.0)",0,0
2,False,104,1.472,88,[],[],"[(1155, 881)]",[],[1],[134],[2.2333333333333334],"[640.0, 512.0]",horizontal,"(390.0, 762.0)",0,1
2,False,105,1.099,65,[],[],"[(1130, 895)]",[],[1],[93],[1.55],"[640.0, 512.0]",horizontal,"(390.0, 262.0)",0,1
2,False,106,0.343,20,[],[],"[(1142, 894)]",[],[1],[54],[0.9],"[640.0, 512.0]",horizontal,"(390.0, 762.0)",0,1
2,False,107,1.436,86,[],[],"[(1141, 918)]",[],[1],[113],[1.8833333333333333],"[640.0, 512.0]",horizontal,"(390.0, 262.0)",0,1
2,False,108,0.373,22,[],[],"[(1149, 887)]",[],[1],[53],[0.8833333333333333],"[640.0, 512.0]",vertical,"(390.0, 762.0)",0,1
2,False,109,1.251,75,[],[],"[(1153, 892)]",[],[1],[102],[1.7],"[640.0, 512.0]",vertical,"(390.0, 262.0)",0,1
2,False,110,0.854,51,[],[],"[(1156, 890)]",[],[1],[82],[1.3666666666666667],"[640.0, 512.0]",vertical,"(890.0, 762.0)",0,1
2,False,111,0.391,23,[],[],"[(1153, 888)]",[],[1],[51],[0.85],"[640.0, 512.0]",vertical,"(890.0, 262.0)",0,1
2,False,112,0.341,20,[],[],"[(1148, 897)]",[],[1],[53],[0.8833333333333333],"[640.0, 512.0]",vertical,"(390.0, 762.0)",0,1
2,False,113,0.856,51,[],[],"[(1168, 891)]",[],[1],[79],[1.3166666666666667],"[640.0, 512.0]",horizontal,"(390.0, 262.0)",0,1
2,False,114,1.141,68,[],[],"[(1158, 874)]",[],[1],[98],[1.6333333333333333],"[640.0, 512.0]",horizontal,"(390.0, 262.0)",0,1
2,False,115,0.867,52,[],[],"[(1172, 898)]",[],[1],[80],[1.3333333333333333],"[640.0, 512.0]",horizontal,"(890.0, 762.0)",0,1
2,False,116,0.64,38,[],[],"[(1171, 881)]",[],[1],[68],[1.1333333333333333],"[640.0, 512.0]",vertical,"(390.0, 762.0)",0,1
2,False,117,0.465,27,[],[],"[(1155, 879)]",[],[1],[56],[0.9333333333333333],"[640.0, 512.0]",horizontal,"(390.0, 262.0)",0,1
2,False,118,1.072,64,[],[],"[(1158, 871)]",[],[1],[93],[1.55],"[640.0, 512.0]",horizontal,"(890.0, 262.0)",0,1
2,False,119,0.425,25,[],[],"[(1167, 894)]",[],[1],[63],[1.05],"[640.0, 512.0]",vertical,"(390.0, 262.0)",0,1
2,False,120,1.069,64,[],[],"[(1160, 903)]",[],[1],[91],[1.5166666666666666],"[640.0, 512.0]",vertical,"(390.0, 262.0)",0,1
3,False,121,0.616,36,[],[],"[(1181, 897)]",[],[1],[72],[1.2],"[640.0, 512.0]",vertical,"(890.0, 262.0)",0,1
3,False,122,0.908,54,[],[],"[(1127, 901)]",[],[1],[76],[1.2666666666666666],"[640.0, 512.0]",horizontal,"(890.0, 762.0)",0,1
3,False,123,0.707,42,[],[],"[(1106, 919)]",[],[1],[73],[1.2166666666666666],"[640.0, 512.0]",horizontal,"(890.0, 762.0)",0,1
3,False,124,1.238,74,[],[],"[(1137, 905)]",[],[1],[91],[1.5166666666666666],"[640.0, 512.0]",horizontal,"(390.0, 762.0)",0,1
3,False,125,1.292,77,[],[],"[(1125, 903)]",[],[1],[103],[1.7166666666666666],"[640.0, 512.0]",horizontal,"(390.0, 762.0)",0,1
3,False,126,0.834,50,[],[],"[(1126, 901)]",[],[1],[76],[1.2666666666666666],"[640.0, 512.0]",vertical,"(390.0, 262.0)",0,1
3,False,127,0.578,34,[],[],"[(1152, 896)]",[],[1],[62],[1.0333333333333332],"[640.0, 512.0]",vertical,"(890.0, 762.0)",0,1
3,False,128,0.939,56,[],[],"[(1142, 919)]",[],[1],[88],[1.4666666666666666],"[640.0, 512.0]",vertical,"(890.0, 262.0)",0,1
3,False,129,0.772,46,[],[],"[(1142, 898)]",[],[1],[75],[1.25],"[640.0, 512.0]",vertical,"(890.0, 762.0)",0,1
3,False,130,0.608,36,[],[],"[(1134, 923)]",[],[1],[63],[1.05],"[640.0, 512.0]",horizontal,"(890.0, 762.0)",0,1
3,False,131,1.138,68,[],[],"[(1141, 912)]",[],[1],[101],[1.6833333333333333],"[640.0, 512.0]",vertical,"(890.0, 762.0)",0,1
3,False,132,0.524,31,[],[],"[(1144, 901)]",[],[1],[59],[0.9833333333333333],"[640.0, 512.0]",vertical,"(390.0, 762.0)",0,1
3,False,133,0.872,52,[],[],"[(1136, 911)]",[],[1],[77],[1.2833333333333332],"[640.0, 512.0]",horizontal,"(890.0, 262.0)",0,1
3,False,134,1.027,61,[],[],"[(1128, 906)]",[],[1],[93],[1.55],"[640.0, 512.0]",horizontal,"(390.0, 762.0)",0,1
3,False,135,0.556,33,[],[],"[(1125, 907)]",[],[1],[60],[1.0],"[640.0, 512.0]",vertical,"(390.0, 262.0)",0,1
3,False,136,0.482,28,[],[],"[(1144, 910)]",[],[1],[56],[0.9333333333333333],"[640.0, 512.0]",vertical,"(890.0, 262.0)",0,1
3,False,137,0.403,24,[],[],"[(1108, 911)]",[],[1],[48],[0.8],"[640.0, 512.0]",vertical,"(890.0, 262.0)",0,1
3,False,138,1.273,76,[],[],"[(1155, 896)]",[],[1],[104],[1.7333333333333334],"[640.0, 512.0]",vertical,"(390.0, 262.0)",0,1
3,False,139,0.55,33,[],[],"[(1143, 915)]",[],[1],[63],[1.05],"[640.0, 512.0]",vertical,"(890.0, 762.0)",0,1
3,False,140,0.769,46,[],[],"[(1102, 928)]",[],[1],[73],[1.2166666666666666],"[640.0, 512.0]",horizontal,"(890.0, 262.0)",0,1
3,False,141,0.437,26,[],[],"[(1137, 896)]",[],[1],[53],[0.8833333333333333],"[640.0, 512.0]",vertical,"(890.0, 762.0)",0,1
3,False,142,0.468,28,[],[],"[(1144, 920)]",[],[1],[65],[1.0833333333333333],"[640.0, 512.0]",vertical,"(390.0, 762.0)",0,1
3,False,143,0.835,50,[],[],"[(1113, 904)]",[],[1],[89],[1.4833333333333334],"[640.0, 512.0]",horizontal,"(890.0, 762.0)",0,1
3,False,144,1.253,75,[],[],"[(1157, 946)]",[],[1],[102],[1.7],"[640.0, 512.0]",horizontal,"(890.0, 762.0)",0,1
3,False,145,1.213,72,[],[],"[(1123, 912)]",[],[1],[101],[1.6833333333333333],"[640.0, 512.0]",horizontal,"(390.0, 262.0)",0,1
3,False,146,1.217,73,[],[],"[(1145, 918)]",[],[1],[100],[1.6666666666666667],"[640.0, 512.0]",horizontal,"(890.0, 262.0)",0,1
3,False,147,0.764,45,[],[],"[(1158, 919)]",[],[1],[74],[1.2333333333333334],"[640.0, 512.0]",vertical,"(390.0, 762.0)",0,1
3,False,148,1.137,68,[],[],"[(1127, 902)]",[],[1],[95],[1.5833333333333333],"[640.0, 512.0]",vertical,"(890.0, 262.0)",0,1
3,False,149,1.157,69,[],[],"[(1148, 890)]",[],[1],[94],[1.5666666666666667],"[640.0, 512.0]",vertical,"(890.0, 262.0)",0,1
3,False,150,0.379,22,[],[],"[(1146, 910)]",[],[1],[51],[0.85],"[640.0, 512.0]",vertical,"(890.0, 762.0)",0,1
3,False,151,0.816,48,[],[],"[(1132, 897)]",[],[1],[74],[1.2333333333333334],"[640.0, 512.0]",horizontal,"(890.0, 262.0)",0,1
3,False,152,1.149,68,[],[],"[(1158, 885)]",[],[1],[107],[1.7833333333333332],"[640.0, 512.0]",vertical,"(390.0, 762.0)",0,1
3,False,153,0.774,46,[],[],"[(1143, 907)]",[],[1],[73],[1.2166666666666666],"[640.0, 512.0]",vertical,"(890.0, 762.0)",0,1
3,False,154,0.811,48,[],[],"[(1122, 915)]",[],[1],[79],[1.3166666666666667],"[640.0, 512.0]",vertical,"(390.0, 762.0)",0,1
3,False,155,0.509,30,[],[],"[(1140, 899)]",[],[1],[58],[0.9666666666666667],"[640.0, 512.0]",horizontal,"(390.0, 262.0)",0,1
3,False,156,0.812,48,[],[],"[(1123, 914)]",[],[1],[83],[1.3833333333333333],"[640.0, 512.0]",vertical,"(390.0, 262.0)",0,1
3,False,157,0.618,37,[],[],"[(1139, 919)]",[],[1],[82],[1.3666666666666667],"[640.0, 512.0]",vertical,"(390.0, 262.0)",0,1
3,False,158,1.19,71,[],[],"[(1159, 920)]",[],[1],[98],[1.6333333333333333],"[640.0, 512.0]",vertical,"(890.0, 262.0)",0,1
3,False,159,1.226,73,[],[],"[(1157, 919)]",[],[1],[100],[1.6666666666666667],"[640.0, 512.0]",horizontal,"(390.0, 762.0)",0,1
3,False,160,1.256,75,[],[],"[(1139, 903)]",[],[1],[104],[1.7333333333333334],"[640.0, 512.0]",vertical,"(890.0, 762.0)",0,1
3,False,161,0.3,18,[],[],"[(1137, 903)]",[],[1],[46],[0.7666666666666666],"[640.0, 512.0]",vertical,"(890.0, 762.0)",0,1
3,False,162,0.894,53,[],[],"[(1163, 920)]",[],[1],"[103, 103]","[1.7166666666666666, 1.7166666666666666]","[640.0, 512.0]",vertical,"(890.0, 262.0)",0,0
3,False,163,1.168,70,[],[],"[(1152, 906)]",[],[1],[97],[1.6166666666666667],"[640.0, 512.0]",horizontal,"(890.0, 262.0)",0,1
3,False,164,0.739,44,[],[],"[(1134, 908)]",[],[1],[72],[1.2],"[640.0, 512.0]",horizontal,"(890.0, 262.0)",0,1
3,False,165,1.193,71,[],[],"[(1142, 897)]",[],[1],[98],[1.6333333333333333],"[640.0, 512.0]",vertical,"(890.0, 262.0)",0,1
3,False,166,1.264,75,[],[],"[(1161, 903)]",[],[1],[112],[1.8666666666666667],"[640.0, 512.0]",vertical,"(890.0, 762.0)",0,1
3,False,167,1.026,61,[],[],"[(1142, 906)]",[],[1],[89],[1.4833333333333334],"[640.0, 512.0]",horizontal,"(390.0, 762.0)",0,1
3,False,168,1.337,80,[],[],"[(1159, 911)]",[],[1],[108],[1.8],"[640.0, 512.0]",vertical,"(390.0, 762.0)",0,1
3,False,169,0.673,40,[],[],"[(1136, 903)]",[],[1],[65],[1.0833333333333333],"[640.0, 512.0]",vertical,"(890.0, 262.0)",0,1
3,False,170,1.185,71,[],[],"[(1135, 905)]",[],[1],[100],[1.6666666666666667],"[640.0, 512.0]",horizontal,"(390.0, 262.0)",0,1
3,False,171,0.584,35,[],[],"[(1149, 919)]",[],[1],[60],[1.0],"[640.0, 512.0]",vertical,"(890.0, 262.0)",0,1
3,False,172,0.472,28,[],[],"[(1123, 903)]",[],[1],[63],[1.05],"[640.0, 512.0]",vertical,"(390.0, 762.0)",0,1
3,False,173,1.498,89,[],[],"[(1164, 913)]",[],[1],[126],[2.1],"[640.0, 512.0]",horizontal,"(890.0, 262.0)",0,1
3,False,174,1.139,68,[],[],"[(1142, 908)]",[],[1],[97],[1.6166666666666667],"[640.0, 512.0]",vertical,"(390.0, 762.0)",0,1
3,False,175,1.212,72,[],[],"[(1144, 904)]",[],[1],[97],[1.6166666666666667],"[640.0, 512.0]",horizontal,"(890.0, 262.0)",0,1
3,False,176,0.329,19,[],[],"[(1147, 898)]",[],[1],[49],[0.8166666666666667],"[640.0, 512.0]",vertical,"(390.0, 762.0)",0,1
3,False,177,1.031,61,[],[],"[(1143, 898)]",[],[1],[90],[1.5],"[640.0, 512.0]",horizontal,"(890.0, 262.0)",0,1
3,False,178,0.539,32,[],[],"[(1130, 909)]",[],[1],[67],[1.1166666666666667],"[640.0, 512.0]",vertical,"(890.0, 262.0)",0,1
3,False,179,1.168,70,[],[],"[(1116, 906)]",[],[1],[98],[1.6333333333333333],"[640.0, 512.0]",vertical,"(890.0, 762.0)",0,1
3,False,180,0.753,45,[],[],"[(1151, 899)]",[],[1],[85],[1.4166666666666667],"[640.0, 512.0]",horizontal,"(890.0, 762.0)",0,1
4,False,181,1.322,79,[],[],"[(1155, 926)]",[],[1],[113],[1.8833333333333333],"[640.0, 512.0]",horizontal,"(390.0, 262.0)",0,1
4,False,182,0.78,46,[],[],"[(1163, 904)]",[],[1],[72],[1.2],"[640.0, 512.0]",vertical,"(890.0, 262.0)",0,1
4,False,183,0.316,18,[],[],"[(1136, 911)]",[],[1],[53],[0.8833333333333333],"[640.0, 512.0]",vertical,"(390.0, 762.0)",0,1
4,False,184,1.113,66,[],[],"[(1142, 900)]",[],[1],[92],[1.5333333333333332],"[640.0, 512.0]",horizontal,"(390.0, 262.0)",0,1
4,False,185,0.572,34,[],[],"[(1130, 901)]",[],[1],[66],[1.1],"[640.0, 512.0]",vertical,"(390.0, 762.0)",0,1
4,False,186,0.682,40,[],[],"[(1144, 909)]",[],[1],[74],[1.2333333333333334],"[640.0, 512.0]",vertical,"(390.0, 762.0)",0,1
4,False,187,1.307,78,[],[],"[(1112, 914)]",[],[1],[106],[1.7666666666666666],"[640.0, 512.0]",vertical,"(890.0, 262.0)",0,1
4,False,188,1.472,88,[],[],"[(1127, 912)]",[],[1],[121],[2.0166666666666666],"[640.0, 512.0]",vertical,"(890.0, 762.0)",0,1
4,False,189,1.095,65,[],[],"[(1141, 908)]",[],[1],[92],[1.5333333333333332],"[640.0, 512.0]",vertical,"(390.0, 262.0)",0,1
4,False,190,0.943,56,[],[],"[(1144, 897)]",[],[1],[85],[1.4166666666666667],"[640.0, 512.0]",horizontal,"(390.0, 262.0)",0,1
4,False,191,0.477,28,[],[],"[(1159, 910)]",[],[1],[57],[0.95],"[640.0, 512.0]",vertical,"(390.0, 762.0)",0,1
4,False,192,0.987,59,[],[],"[(1131, 905)]",[],[1],[84],[1.4],"[640.0, 512.0]",vertical,"(890.0, 262.0)",0,1
4,False,193,0.591,35,[],[],"[(1159, 905)]",[],[1],[76],[1.2666666666666666],"[640.0, 512.0]",horizontal,"(390.0, 762.0)",0,1
4,False,194,1.374,82,[],[],"[(1135, 920)]",[],[1],[109],[1.8166666666666667],"[640.0, 512.0]",horizontal,"(890.0, 262.0)",0,1
4,False,195,1.359,81,[],[],"[(1144, 893)]",[],[1],[107],[1.7833333333333332],"[640.0, 512.0]",vertical,"(390.0, 262.0)",0,1
4,False,196,0.525,31,[],[],"[(1143, 901)]",[],[1],[57],[0.95],"[640.0, 512.0]",vertical,"(890.0, 262.0)",0,1
4,False,197,1.103,66,[],[],"[(1137, 909)]",[],[1],[94],[1.5666666666666667],"[640.0, 512.0]",horizontal,"(390.0, 262.0)",0,1
4,False,198,1.043,62,[],[],"[(1134, 902)]",[],[1],[94],[1.5666666666666667],"[640.0, 512.0]",horizontal,"(390.0, 762.0)",0,1
4,False,199,0.708,42,[],[],"[(1133, 885)]",[],[1],[69],[1.15],"[640.0, 512.0]",vertical,"(390.0, 762.0)",0,1
4,False,200,0.759,45,[],[],"[(1144, 910)]",[],[1],[74],[1.2333333333333334],"[640.0, 512.0]",vertical,"(390.0, 262.0)",0,1
4,False,201,0.68,40,[],[],"[(1104, 916)]",[],[1],[66],[1.1],"[640.0, 512.0]",horizontal,"(390.0, 262.0)",0,1
4,False,202,0.976,58,[],[],"[(1140, 892)]",[],[1],[85],[1.4166666666666667],"[640.0, 512.0]",vertical,"(890.0, 762.0)",0,1
4,False,203,0.903,54,[],[],"[(1124, 908)]",[],[1],[88],[1.4666666666666666],"[640.0, 512.0]",horizontal,"(890.0, 762.0)",0,1
4,False,204,0.933,55,[],[],"[(1142, 902)]",[],[1],[87],[1.45],"[640.0, 512.0]",horizontal,"(890.0, 762.0)",0,1
4,False,205,1.052,63,[],[],"[(1151, 910)]",[],[1],[89],[1.4833333333333334],"[640.0, 512.0]",vertical,"(390.0, 262.0)",0,1
4,False,206,1.045,62,[],[],"[(1127, 904)]",[],[1],[103],[1.7166666666666666],"[640.0, 512.0]",vertical,"(890.0, 762.0)",0,1
4,False,207,1.176,70,[],[],"[(1125, 914)]",[],[1],[120],[2.0],"[640.0, 512.0]",horizontal,"(390.0, 262.0)",0,0
4,False,208,0.756,45,[],[],"[(1121, 936)]",[],[1],[78],[1.3],"[640.0, 512.0]",horizontal,"(390.0, 262.0)",0,1
4,False,209,1.384,83,[],[],"[(1131, 907)]",[],[1],[109],[1.8166666666666667],"[640.0, 512.0]",horizontal,"(890.0, 762.0)",0,1
4,False,210,0.476,28,[],[],"[(1141, 900)]",[],[1],[62],[1.0333333333333332],"[640.0, 512.0]",vertical,"(390.0, 762.0)",0,1
4,False,211,0.729,43,[],[],"[(1126, 909)]",[],[1],[69],[1.15],"[640.0, 512.0]",vertical,"(890.0, 262.0)",0,1
4,False,212,1.149,68,[],[],"[(1128, 920)]",[],[1],[95],[1.5833333333333333],"[640.0, 512.0]",horizontal,"(390.0, 762.0)",0,1
4,False,213,1.044,62,[],[],"[(1139, 900)]",[],[1],[94],[1.5666666666666667],"[640.0, 512.0]",horizontal,"(390.0, 262.0)",0,1
4,False,214,1.098,65,[],[],"[(633, 928), (1138, 889)]",[],"[0, 1]",[97],[1.6166666666666667],"[640.0, 512.0]",horizontal,"(390.0, 262.0)",0,1
4,False,215,0.469,28,[],[],"[(1146, 909)]",[],[1],[60],[1.0],"[640.0, 512.0]",vertical,"(890.0, 762.0)",0,1
4,False,216,1.222,73,[],[],"[(1138, 904)]",[],[1],[108],[1.8],"[640.0, 512.0]",vertical,"(390.0, 762.0)",0,1
4,False,217,1.373,82,[],[],"[(1134, 908)]",[],[1],[124],[2.0666666666666664],"[640.0, 512.0]",vertical,"(890.0, 262.0)",0,1
4,False,218,0.647,38,[],[],"[(1127, 909)]",[],[1],[76],[1.2666666666666666],"[640.0, 512.0]",horizontal,"(890.0, 762.0)",0,1
4,False,219,1.185,71,[],[],"[(1122, 909)]",[],[1],[84],[1.4],"[640.0, 512.0]",vertical,"(390.0, 762.0)",0,1
4,False,220,1.001,60,[],[],"[(1124, 923)]",[],[1],[98],[1.6333333333333333],"[640.0, 512.0]",horizontal,"(890.0, 762.0)",0,1
4,False,221,0.415,24,[],[],"[(1144, 904)]",[],[1],[52],[0.8666666666666667],"[640.0, 512.0]",horizontal,"(890.0, 762.0)",0,1
4,False,222,0.646,38,[],[],"[(1142, 910)]",[],[1],[72],[1.2],"[640.0, 512.0]",horizontal,"(890.0, 762.0)",0,1
4,False,223,1.185,71,[],[],"[(1141, 905)]",[],[1],[101],[1.6833333333333333],"[640.0, 512.0]",vertical,"(390.0, 762.0)",0,1
4,False,224,1.453,87,[],[],"[(1143, 933)]",[],[1],[119],[1.9833333333333334],"[640.0, 512.0]",vertical,"(890.0, 262.0)",0,1
4,False,225,1.38,82,[],[],"[(1142, 897)]",[],[1],[111],[1.8499999999999999],"[640.0, 512.0]",vertical,"(390.0, 762.0)",0,1
4,False,226,1.195,71,[],[],"[(1141, 921)]",[],[1],[105],[1.75],"[640.0, 512.0]",vertical,"(890.0, 262.0)",0,1
4,False,227,0.839,50,[],[],"[(1121, 915)]",[],[1],[80],[1.3333333333333333],"[640.0, 512.0]",horizontal,"(890.0, 262.0)",0,1
4,False,228,0.654,39,[],[],"[(1146, 932)]",[],[1],[69],[1.15],"[640.0, 512.0]",horizontal,"(890.0, 762.0)",0,1
4,False,229,0.37,22,[],[],"[(1154, 915)]",[],[1],[53],[0.8833333333333333],"[640.0, 512.0]",vertical,"(890.0, 262.0)",0,1
4,False,230,0.76,45,[],[],"[(1136, 911)]",[],[1],[72],[1.2],"[640.0, 512.0]",vertical,"(890.0, 762.0)",0,1
4,False,231,0.641,38,[],[],"[(1123, 918)]",[],[1],[68],[1.1333333333333333],"[640.0, 512.0]",vertical,"(390.0, 262.0)",0,1
4,False,232,0.748,44,[],[],"[(1118, 915)]",[],[1],[94],[1.5666666666666667],"[640.0, 512.0]",vertical,"(890.0, 262.0)",0,0
4,False,233,0.321,19,[],[],"[(1127, 896)]",[],[1],[64],[1.0666666666666667],"[640.0, 512.0]",vertical,"(390.0, 762.0)",0,1
4,False,234,0.542,32,[],[],"[(1146, 901)]",[],[1],[60],[1.0],"[640.0, 512.0]",vertical,"(890.0, 262.0)",0,1
4,False,235,0.372,22,[],[],"[(1134, 907)]",[],[1],[53],[0.8833333333333333],"[640.0, 512.0]",vertical,"(390.0, 762.0)",0,1
4,False,236,0.929,55,[],[],"[(1143, 932)]",[],[1],[90],[1.5],"[640.0, 512.0]",vertical,"(390.0, 762.0)",0,1
4,False,237,0.358,21,[],[],"[(1142, 892)]",[],[1],[57],[0.95],"[640.0, 512.0]",horizontal,"(890.0, 262.0)",0,1
4,False,238,1.462,87,[],[],"[(1153, 881)]",[],[1],[113],[1.8833333333333333],"[640.0, 512.0]",vertical,"(390.0, 262.0)",0,1
4,False,239,0.867,52,[],[],"[(1141, 890)]",[],[1],[84],[1.4],"[640.0, 512.0]",horizontal,"(390.0, 762.0)",0,1
4,False,240,1.021,61,[],[],"[(1146, 931)]",[],[1],[89],[1.4833333333333334],"[640.0, 512.0]",vertical,"(390.0, 262.0)",0,1
5,False,241,0.488,29,[],[],"[(1132, 922)]",[],[1],[78],[1.3],"[640.0, 512.0]",vertical,"(890.0, 262.0)",0,1
5,False,242,0.731,43,[],[],"[(1116, 905)]",[],[1],[80],[1.3333333333333333],"[640.0, 512.0]",vertical,"(390.0, 762.0)",0,1
5,False,243,0.668,40,[],[],"[(1134, 914)]",[],[1],[65],[1.0833333333333333],"[640.0, 512.0]",horizontal,"(890.0, 262.0)",0,1
5,False,244,1.227,73,[],[],"[(1143, 911)]",[],[1],[99],[1.65],"[640.0, 512.0]",horizontal,"(390.0, 262.0)",0,1
5,False,245,0.559,33,[],[],"[(1127, 923)]",[],[1],[64],[1.0666666666666667],"[640.0, 512.0]",vertical,"(390.0, 762.0)",0,1
5,False,246,1.399,83,[],[],"[(1126, 912)]",[],[1],[111],[1.8499999999999999],"[640.0, 512.0]",horizontal,"(890.0, 262.0)",0,1
5,False,247,1.471,88,[],[],"[(1129, 912)]",[],[1],[112],[1.8666666666666667],"[640.0, 512.0]",horizontal,"(390.0, 262.0)",0,1
5,False,248,0.958,57,[],[],"[(1145, 910)]",[],[1],[97],[1.6166666666666667],"[640.0, 512.0]",vertical,"(890.0, 262.0)",0,1
5,False,249,0.518,31,[],[],"[(1130, 894)]",[],[1],[60],[1.0],"[640.0, 512.0]",horizontal,"(390.0, 262.0)",0,1
5,False,250,1.448,86,[],[],"[(1126, 913)]",[],[1],[122],[2.033333333333333],"[640.0, 512.0]",horizontal,"(890.0, 762.0)",0,1
5,False,251,0.866,51,[],[],"[(1130, 896)]",[],[1],[83],[1.3833333333333333],"[640.0, 512.0]",horizontal,"(390.0, 262.0)",0,1
5,False,252,1.33,79,[],[],"[(1133, 901)]",[],[1],[105],[1.75],"[640.0, 512.0]",horizontal,"(390.0, 262.0)",0,1
5,False,253,1.187,71,[],[],"[(1124, 904)]",[],[1],[96],[1.6],"[640.0, 512.0]",horizontal,"(390.0, 262.0)",0,1
5,False,254,1.179,70,[],[],"[(1134, 906)]",[],[1],[98],[1.6333333333333333],"[640.0, 512.0]",vertical,"(390.0, 762.0)",0,1
5,False,255,1.202,72,[],[],"[(1123, 876)]",[],[1],[98],[1.6333333333333333],"[640.0, 512.0]",vertical,"(890.0, 762.0)",0,1
5,False,256,0.526,31,[],[],"[(1139, 905)]",[],[1],[59],[0.9833333333333333],"[640.0, 512.0]",vertical,"(890.0, 762.0)",0,1
5,False,257,0.771,46,[],[],"[(1116, 907)]",[],[1],[73],[1.2166666666666666],"[640.0, 512.0]",horizontal,"(890.0, 262.0)",0,1
5,False,258,0.555,33,[],[],"[(1140, 891)]",[],[1],[66],[1.1],"[640.0, 512.0]",vertical,"(390.0, 762.0)",0,1
5,False,259,1.161,69,[],[],"[(1118, 918)]",[],[1],[94],[1.5666666666666667],"[640.0, 512.0]",horizontal,"(890.0, 262.0)",0,1
5,False,260,0.95,57,[],[],"[(1143, 911)]",[],[1],[89],[1.4833333333333334],"[640.0, 512.0]",horizontal,"(390.0, 762.0)",0,1
5,False,261,1.022,61,[],[],"[(1141, 892)]",[],[1],[87],[1.45],"[640.0, 512.0]",vertical,"(390.0, 262.0)",0,1
5,False,262,0.672,40,[],[],"[(1140, 912)]",[],[1],[69],[1.15],"[640.0, 512.0]",horizontal,"(390.0, 762.0)",0,1
5,False,263,0.486,29,[],[],"[(1124, 897)]",[],[1],[57],[0.95],"[640.0, 512.0]",vertical,"(890.0, 262.0)",0,1
5,False,264,0.806,48,[],[],"[(1143, 919)]",[],[1],[73],[1.2166666666666666],"[640.0, 512.0]",vertical,"(890.0, 262.0)",0,1
5,False,265,0.855,51,[],[],"[(1116, 911)]",[],[1],[78],[1.3],"[640.0, 512.0]",vertical,"(390.0, 262.0)",0,1
5,False,266,0.368,22,[],[],"[(1149, 921)]",[],[1],[51],[0.85],"[640.0, 512.0]",horizontal,"(390.0, 262.0)",0,1
5,False,267,1.132,67,[],[],"[(1153, 890)]",[],[1],[95],[1.5833333333333333],"[640.0, 512.0]",horizontal,"(890.0, 762.0)",0,1
5,False,268,0.719,43,[],[],"[(1142, 905)]",[],[1],[73],[1.2166666666666666],"[640.0, 512.0]",vertical,"(890.0, 262.0)",0,1
5,False,269,0.985,59,[],[],"[(1126, 903)]",[],[1],[87],[1.45],"[640.0, 512.0]",vertical,"(890.0, 762.0)",0,1
5,False,270,1.084,65,[],[],"[(1126, 907)]",[],[1],[94],[1.5666666666666667],"[640.0, 512.0]",horizontal,"(890.0, 762.0)",0,1
5,False,271,0.723,43,[],[],"[(1101, 914)]",[],[1],[71],[1.1833333333333333],"[640.0, 512.0]",vertical,"(890.0, 762.0)",0,1
5,False,272,0.327,19,[],[],"[(1137, 918)]",[],[1],[48],[0.8],"[640.0, 512.0]",horizontal,"(890.0, 762.0)",0,1
5,False,273,1.2,72,[],[],"[(1132, 901)]",[],[1],[102],[1.7],"[640.0, 512.0]",horizontal,"(390.0, 762.0)",0,1
5,False,274,0.459,27,[],[],"[(1126, 911)]",[],[1],[62],[1.0333333333333332],"[640.0, 512.0]",vertical,"(390.0, 262.0)",0,1
5,False,275,1.494,89,[],[],"[(1088, 946)]",[],[1],[117],[1.95],"[640.0, 512.0]",vertical,"(890.0, 762.0)",0,1
5,False,276,1.159,69,[],[],"[(1127, 920)]",[],[1],[94],[1.5666666666666667],"[640.0, 512.0]",horizontal,"(390.0, 762.0)",0,1
5,False,277,1.154,69,[],[],"[(1107, 921)]",[],[1],[105],[1.75],"[640.0, 512.0]",horizontal,"(390.0, 262.0)",0,1
5,False,278,0.931,55,[],[],"[(1124, 925)]",[],[1],[82],[1.3666666666666667],"[640.0, 512.0]",vertical,"(890.0, 262.0)",0,1
5,False,279,0.988,59,[],[],"[(1133, 903)]",[],[1],[85],[1.4166666666666667],"[640.0, 512.0]",vertical,"(390.0, 262.0)",0,1
5,False,280,0.792,47,[],[],"[(1108, 919)]",[],[1],[73],[1.2166666666666666],"[640.0, 512.0]",vertical,"(890.0, 762.0)",0,1
5,False,281,0.566,33,[],[],"[(1126, 915)]",[],[1],[63],[1.05],"[640.0, 512.0]",horizontal,"(390.0, 762.0)",0,1
5,False,282,0.859,51,[],[],"[(1108, 912)]",[],[1],[75],[1.25],"[640.0, 512.0]",horizontal,"(390.0, 262.0)",0,1
5,False,283,1.283,76,[],[],"[(1132, 924)]",[],[1],[102],[1.7],"[640.0, 512.0]",vertical,"(390.0, 262.0)",0,1
5,False,284,0.687,41,[],[],"[(1126, 903)]",[],[1],[68],[1.1333333333333333],"[640.0, 512.0]",horizontal,"(890.0, 762.0)",0,1
5,False,285,0.403,24,[],[],"[(1132, 906)]",[],[1],[53],[0.8833333333333333],"[640.0, 512.0]",vertical,"(390.0, 762.0)",0,1
5,False,286,0.469,28,[],[],"[(1141, 909)]",[],[1],[55],[0.9166666666666666],"[640.0, 512.0]",horizontal,"(390.0, 762.0)",0,1
5,False,287,0.794,47,[],[],"[(1124, 915)]",[],[1],[73],[1.2166666666666666],"[640.0, 512.0]",vertical,"(390.0, 762.0)",0,1
5,False,288,0.937,56,[],[],"[(1135, 927)]",[],[1],[94],[1.5666666666666667],"[640.0, 512.0]",vertical,"(890.0, 262.0)",0,1
5,False,289,0.381,22,[],[],"[(1158, 868)]",[],[1],[53],[0.8833333333333333],"[640.0, 512.0]",vertical,"(890.0, 262.0)",0,1
5,False,290,0.364,21,[],[],"[(1129, 898)]",[],[1],[51],[0.85],"[640.0, 512.0]",horizontal,"(390.0, 762.0)",0,1
5,False,291,1.132,67,[],[],"[(1137, 909)]",[],[1],[89],[1.4833333333333334],"[640.0, 512.0]",vertical,"(390.0, 262.0)",0,1
5,False,292,0.412,24,[],[],"[(1140, 915)]",[],[1],[52],[0.8666666666666667],"[640.0, 512.0]",horizontal,"(890.0, 762.0)",0,1
5,False,293,0.687,41,[],[],"[(1108, 908)]",[],[1],[71],[1.1833333333333333],"[640.0, 512.0]",horizontal,"(390.0, 262.0)",0,1
5,False,294,1.069,64,[],[],"[(1141, 898)]",[],[1],[89],[1.4833333333333334],"[640.0, 512.0]",horizontal,"(390.0, 262.0)",0,1
5,False,295,1.413,84,[],[],"[(1132, 918)]",[],[1],[114],[1.9],"[640.0, 512.0]",vertical,"(390.0, 762.0)",0,1
5,False,296,0.347,20,[],[],"[(1139, 909)]",[],[1],[50],[0.8333333333333334],"[640.0, 512.0]",vertical,"(390.0, 762.0)",0,1
5,False,297,1.044,62,[],[],"[(1139, 903)]",[],[1],[92],[1.5333333333333332],"[640.0, 512.0]",vertical,"(890.0, 762.0)",0,1
5,False,298,0.683,40,[],[],"[(1144, 908)]",[],[1],[72],[1.2],"[640.0, 512.0]",horizontal,"(390.0, 762.0)",0,1
5,False,299,0.501,30,[],[],"[(1124, 916)]",[],[1],[58],[0.9666666666666667],"[640.0, 512.0]",vertical,"(390.0, 762.0)",0,1
5,False,300,1.037,62,[],[],"[(1117, 916)]",[],[1],[91],[1.5166666666666666],"[640.0, 512.0]",vertical,"(890.0, 762.0)",0,1
6,False,301,0.416,24,[],[],"[(1115, 898)]",[],[1],[52],[0.8666666666666667],"[640.0, 512.0]",vertical,"(890.0, 762.0)",0,1
6,False,302,1.154,69,[],[],"[(1138, 918)]",[],[1],[101],[1.6833333333333333],"[640.0, 512.0]",horizontal,"(390.0, 762.0)",0,1
6,False,303,0.714,42,[],[],"[(1107, 916)]",[],[1],[67],[1.1166666666666667],"[640.0, 512.0]",horizontal,"(890.0, 262.0)",0,1
6,False,304,0.466,27,[],[],"[(1124, 920)]",[],[1],[55],[0.9166666666666666],"[640.0, 512.0]",vertical,"(890.0, 262.0)",0,1
6,False,305,1.087,65,[],[],"[(1130, 902)]",[],[1],[93],[1.55],"[640.0, 512.0]",horizontal,"(390.0, 762.0)",0,1
6,False,306,1.051,63,[],[],"[(1120, 915)]",[],[1],[86],[1.4333333333333333],"[640.0, 512.0]",horizontal,"(890.0, 262.0)",0,1
6,False,307,0.565,33,[],[],"[(1088, 906)]",[],[1],[63],[1.05],"[640.0, 512.0]",vertical,"(890.0, 262.0)",0,1
6,False,308,1.092,65,[],[],"[(1161, 903)]",[],[1],[93],[1.55],"[640.0, 512.0]",horizontal,"(890.0, 762.0)",0,1
6,False,309,0.641,38,[],[],"[(1102, 910)]",[],[1],[60],[1.0],"[640.0, 512.0]",horizontal,"(390.0, 262.0)",0,1
6,False,310,0.71,42,[],[],"[(1127, 910)]",[],[1],[72],[1.2],"[640.0, 512.0]",vertical,"(890.0, 262.0)",0,1
6,False,311,0.631,37,[],[],"[(1111, 911)]",[],[1],[63],[1.05],"[640.0, 512.0]",horizontal,"(390.0, 762.0)",0,1
6,False,312,1.315,78,[],[],"[(1124, 937)]",[],[1],[113],[1.8833333333333333],"[640.0, 512.0]",vertical,"(890.0, 262.0)",0,1
6,False,313,0.778,46,[],[],"[(1126, 910)]",[],[1],[73],[1.2166666666666666],"[640.0, 512.0]",vertical,"(890.0, 262.0)",0,1
6,False,314,0.394,23,[],[],"[(1112, 909)]",[],[1],[52],[0.8666666666666667],"[640.0, 512.0]",horizontal,"(890.0, 762.0)",0,1
6,False,315,1.004,60,[],[],"[(1142, 904)]",[],[1],[83],[1.3833333333333333],"[640.0, 512.0]",horizontal,"(390.0, 262.0)",0,1
6,False,316,0.729,43,[],[],"[(1130, 898)]",[],[1],[70],[1.1666666666666667],"[640.0, 512.0]",vertical,"(390.0, 762.0)",0,1
6,False,317,0.62,37,[],[],"[(1121, 915)]",[],[1],[66],[1.1],"[640.0, 512.0]",vertical,"(890.0, 762.0)",0,1
6,False,318,1.254,75,[],[],"[(1111, 910)]",[],[1],[101],[1.6833333333333333],"[640.0, 512.0]",vertical,"(390.0, 262.0)",0,1
6,False,319,0.975,58,[],[],"[(1111, 919)]",[],[1],[88],[1.4666666666666666],"[640.0, 512.0]",horizontal,"(890.0, 262.0)",0,1
6,False,320,1.227,73,[],[],"[(1134, 921)]",[],[1],[108],[1.8],"[640.0, 512.0]",vertical,"(390.0, 262.0)",0,1
6,False,321,0.456,27,[],[],"[(1113, 916)]",[],[1],[59],[0.9833333333333333],"[640.0, 512.0]",horizontal,"(390.0, 262.0)",0,1
6,False,322,1.006,60,[],[],"[(1108, 908)]",[],[1],[93],[1.55],"[640.0, 512.0]",horizontal,"(390.0, 762.0)",0,1
6,False,323,0.791,47,[],[],"[(1126, 912)]",[],[1],[75],[1.25],"[640.0, 512.0]",vertical,"(890.0, 762.0)",0,1
6,False,324,0.544,32,[],[],"[(1108, 915)]",[],[1],[64],[1.0666666666666667],"[640.0, 512.0]",vertical,"(390.0, 262.0)",0,1
6,False,325,0.523,31,[],[],"[(1108, 928)]",[],[1],[59],[0.9833333333333333],"[640.0, 512.0]",horizontal,"(390.0, 762.0)",0,1
6,False,326,1.467,88,[],[],"[(1125, 907)]",[],[1],[104],[1.7333333333333334],"[640.0, 512.0]",vertical,"(890.0, 762.0)",0,1
6,False,327,1.438,86,[],[],"[(1110, 911)]",[],[1],[113],[1.8833333333333333],"[640.0, 512.0]",horizontal,"(390.0, 762.0)",0,1
6,False,328,0.964,57,[],[],"[(1137, 910)]",[],[1],[81],[1.35],"[640.0, 512.0]",vertical,"(390.0, 762.0)",0,1
6,False,329,0.961,57,[],[],"[(1144, 912)]",[],[1],[83],[1.3833333333333333],"[640.0, 512.0]",horizontal,"(890.0, 762.0)",0,1
6,False,330,0.503,30,[],[],"[(1146, 920)]",[],[1],[59],[0.9833333333333333],"[640.0, 512.0]",horizontal,"(390.0, 762.0)",0,1
6,False,331,0.481,28,[],[],"[(1144, 902)]",[],[1],[60],[1.0],"[640.0, 512.0]",horizontal,"(890.0, 762.0)",0,1
6,False,332,1.086,65,[],[],"[(1135, 910)]",[],[1],[92],[1.5333333333333332],"[640.0, 512.0]",horizontal,"(890.0, 262.0)",0,1
6,False,333,1.165,69,[],[],"[(1132, 910)]",[],[1],[95],[1.5833333333333333],"[640.0, 512.0]",horizontal,"(390.0, 762.0)",0,1
6,False,334,0.811,48,[],[],"[(1127, 900)]",[],[1],[71],[1.1833333333333333],"[640.0, 512.0]",vertical,"(890.0, 262.0)",0,1
6,False,335,1.033,61,[],[],"[(1115, 915)]",[],[1],[90],[1.5],"[640.0, 512.0]",vertical,"(390.0, 262.0)",0,1
6,False,336,0.521,31,[],[],"[(1111, 909)]",[],[1],[67],[1.1166666666666667],"[640.0, 512.0]",vertical,"(890.0, 762.0)",0,1
6,False,337,0.674,40,[],[],"[(1127, 918)]",[],[1],[65],[1.0833333333333333],"[640.0, 512.0]",vertical,"(890.0, 262.0)",0,1
6,False,338,1.487,89,[],[],"[(1149, 911)]",[],[1],[118],[1.9666666666666666],"[640.0, 512.0]",horizontal,"(390.0, 762.0)",0,1
6,False,339,0.662,39,[],[],"[(1093, 939)]",[],[1],[67],[1.1166666666666667],"[640.0, 512.0]",horizontal,"(890.0, 762.0)",0,1
6,False,340,0.618,37,[],[],"[(1112, 898)]",[],[1],[66],[1.1],"[640.0, 512.0]",vertical,"(890.0, 262.0)",0,1
6,False,341,0.335,20,[],[],"[(1118, 941)]",[],[1],[53],[0.8833333333333333],"[640.0, 512.0]",horizontal,"(890.0, 262.0)",0,1
6,False,342,1.032,61,[],[],"[(1115, 897)]",[],[1],[88],[1.4666666666666666],"[640.0, 512.0]",horizontal,"(890.0, 762.0)",0,1
6,False,343,0.867,52,[],[],"[(1122, 895)]",[],[1],[77],[1.2833333333333332],"[640.0, 512.0]",vertical,"(390.0, 262.0)",0,1
6,False,344,0.898,53,[],[],"[(1155, 896)]",[],[1],[84],[1.4],"[640.0, 512.0]",vertical,"(890.0, 262.0)",0,1
6,False,345,0.72,43,[],[],"[(1121, 913)]",[],[1],[71],[1.1833333333333333],"[640.0, 512.0]",horizontal,"(390.0, 262.0)",0,1
6,False,346,1.143,68,[],[],"[(1117, 923)]",[],[1],[103],[1.7166666666666666],"[640.0, 512.0]",vertical,"(390.0, 262.0)",0,1
6,False,347,0.886,53,[],[],"[(1145, 908)]",[],[1],[81],[1.35],"[640.0, 512.0]",horizontal,"(890.0, 762.0)",0,1
6,False,348,0.734,44,[],[],"[(1125, 907)]",[],[1],[72],[1.2],"[640.0, 512.0]",vertical,"(890.0, 262.0)",0,1
6,False,349,1.459,87,[],[],"[(1125, 919)]",[],[1],[115],[1.9166666666666667],"[640.0, 512.0]",horizontal,"(390.0, 262.0)",0,1
6,False,350,1.323,79,[],[],"[(1156, 900)]",[],[1],[111],[1.8499999999999999],"[640.0, 512.0]",vertical,"(390.0, 762.0)",0,1
6,False,351,0.319,19,[],[],"[(1128, 922)]",[],[1],[55],[0.9166666666666666],"[640.0, 512.0]",horizontal,"(390.0, 762.0)",0,1
6,False,352,0.46,27,[],[],"[(1140, 886)]",[],[1],[55],[0.9166666666666666],"[640.0, 512.0]",vertical,"(390.0, 262.0)",0,1
6,False,353,0.633,37,[],[],"[(1135, 918)]",[],[1],[76],[1.2666666666666666],"[640.0, 512.0]",vertical,"(890.0, 262.0)",0,1
6,False,354,0.918,55,[],[],"[(1124, 915)]",[],[1],[81],[1.35],"[640.0, 512.0]",horizontal,"(390.0, 262.0)",0,1
6,False,355,0.546,32,[],[],"[(1123, 898)]",[],[1],[67],[1.1166666666666667],"[640.0, 512.0]",vertical,"(390.0, 762.0)",0,1
6,False,356,0.348,20,[],[],"[(1112, 908)]",[],[1],[55],[0.9166666666666666],"[640.0, 512.0]",horizontal,"(890.0, 762.0)",0,1
6,False,357,0.357,21,[],[],"[(1135, 898)]",[],[1],[51],[0.85],"[640.0, 512.0]",horizontal,"(390.0, 762.0)",0,1
6,False,358,0.926,55,[],[],"[(1137, 914)]",[],[1],[81],[1.35],"[640.0, 512.0]",horizontal,"(890.0, 762.0)",0,1
6,False,359,1.452,87,[],[],"[(1143, 895)]",[],[1],[122],[2.033333333333333],"[640.0, 512.0]",horizontal,"(390.0, 262.0)",0,1
6,False,360,1.079,64,[],[],"[(1142, 913)]",[],[1],[91],[1.5166666666666666],"[640.0, 512.0]",vertical,"(390.0, 262.0)",0,1
7,False,361,0.422,25,[],[],"[(1132, 902)]",[],[1],[54],[0.9],"[640.0, 512.0]",horizontal,"(890.0, 762.0)",0,1
7,False,362,0.948,56,[],[],"[(1142, 902)]",[],[1],[88],[1.4666666666666666],"[640.0, 512.0]",vertical,"(890.0, 262.0)",0,1
7,False,363,0.546,32,[],[],"[(1136, 913)]",[],[1],[68],[1.1333333333333333],"[640.0, 512.0]",horizontal,"(890.0, 762.0)",0,1
7,False,364,0.42,25,[],[],"[(1143, 905)]",[],[1],[54],[0.9],"[640.0, 512.0]",horizontal,"(390.0, 762.0)",0,1
7,False,365,0.37,22,[],[],"[(1122, 914)]",[],[1],[50],[0.8333333333333334],"[640.0, 512.0]",horizontal,"(390.0, 262.0)",0,1
7,False,366,1.095,65,[],[],"[(1134, 910)]",[],[1],[84],[1.4],"[640.0, 512.0]",vertical,"(390.0, 262.0)",0,1
7,False,367,0.903,54,[],[],"[(1116, 911)]",[],[1],[90],[1.5],"[640.0, 512.0]",vertical,"(890.0, 762.0)",0,1
7,False,368,1.071,64,[],[],"[(1120, 927)]",[],[1],[91],[1.5166666666666666],"[640.0, 512.0]",vertical,"(890.0, 262.0)",0,1
7,False,369,1.245,74,[],[],"[(1108, 900)]",[],[1],[104],[1.7333333333333334],"[640.0, 512.0]",horizontal,"(890.0, 762.0)",0,1
7,False,370,0.806,48,[],[],"[(1121, 908)]",[],[1],[85],[1.4166666666666667],"[640.0, 512.0]",vertical,"(890.0, 762.0)",0,1
7,False,371,0.477,28,[],[],"[(1125, 910)]",[],[1],[61],[1.0166666666666666],"[640.0, 512.0]",vertical,"(390.0, 762.0)",0,1
7,False,372,0.706,42,[],[],"[(1108, 877)]",[],[1],[73],[1.2166666666666666],"[640.0, 512.0]",horizontal,"(890.0, 762.0)",0,1
7,False,373,0.406,24,[],[],"[(1118, 908)]",[],[1],[59],[0.9833333333333333],"[640.0, 512.0]",vertical,"(390.0, 762.0)",0,1
7,False,374,0.547,32,[],[],"[(1111, 909)]",[],[1],[61],[1.0166666666666666],"[640.0, 512.0]",vertical,"(890.0, 762.0)",0,1
7,False,375,0.51,30,[],[],"[(1104, 915)]",[],[1],[65],[1.0833333333333333],"[640.0, 512.0]",vertical,"(390.0, 762.0)",0,1
7,False,376,1.168,70,[],[],"[(1131, 907)]",[],[1],[97],[1.6166666666666667],"[640.0, 512.0]",horizontal,"(390.0, 262.0)",0,1
7,False,377,0.581,34,[],[],"[(1118, 927)]",[],[1],[64],[1.0666666666666667],"[640.0, 512.0]",vertical,"(390.0, 762.0)",0,1
7,False,378,1.445,86,[],[],"[(1125, 920)]",[],[1],[100],[1.6666666666666667],"[640.0, 512.0]",horizontal,"(890.0, 762.0)",0,1
7,False,379,0.98,58,[],[],"[(1107, 907)]",[],[1],[84],[1.4],"[640.0, 512.0]",horizontal,"(890.0, 262.0)",0,1
7,False,380,0.515,30,[],[],"[(1152, 899)]",[],[1],[58],[0.9666666666666667],"[640.0, 512.0]",horizontal,"(390.0, 262.0)",0,1
7,False,381,0.459,27,[],[],"[(1153, 904)]",[],[1],[57],[0.95],"[640.0, 512.0]",horizontal,"(390.0, 762.0)",0,1
7,False,382,0.543,32,[],[],"[(1121, 916)]",[],[1],[59],[0.9833333333333333],"[640.0, 512.0]",vertical,"(390.0, 262.0)",0,1
7,False,383,1.049,62,[],[],"[(1120, 923)]",[],[1],[89],[1.4833333333333334],"[640.0, 512.0]",horizontal,"(390.0, 762.0)",0,1
7,False,384,1.316,78,[],[],"[(1113, 917)]",[],[1],[109],[1.8166666666666667],"[640.0, 512.0]",vertical,"(890.0, 762.0)",0,1
7,False,385,1.479,88,[],[],"[(1101, 903)]",[],[1],[123],[2.05],"[640.0, 512.0]",vertical,"(390.0, 762.0)",0,1
7,False,386,1.239,74,[],[],"[(1136, 923)]",[],[1],[121],[2.0166666666666666],"[640.0, 512.0]",horizontal,"(890.0, 762.0)",0,1
7,False,387,0.785,47,[],[],"[(1138, 915)]",[],[1],[81],[1.35],"[640.0, 512.0]",horizontal,"(390.0, 762.0)",0,1
7,False,388,0.867,52,[],[],"[(1136, 898)]",[],[1],[81],[1.35],"[640.0, 512.0]",vertical,"(390.0, 762.0)",0,1
7,False,389,1.003,60,[],[],"[(1125, 915)]",[],[1],[87],[1.45],"[640.0, 512.0]",vertical,"(390.0, 762.0)",0,1
7,False,390,0.966,57,[],[],"[(1111, 924)]",[],[1],[90],[1.5],"[640.0, 512.0]",horizontal,"(890.0, 262.0)",0,1
7,False,391,0.949,56,[],[],"[(1127, 912)]",[],[1],[86],[1.4333333333333333],"[640.0, 512.0]",vertical,"(890.0, 262.0)",0,1
7,False,392,0.901,54,[],[],"[(1082, 923)]",[],[1],[80],[1.3333333333333333],"[640.0, 512.0]",vertical,"(390.0, 762.0)",0,1
7,False,393,0.394,23,[],[],"[(1117, 930)]",[],[1],[56],[0.9333333333333333],"[640.0, 512.0]",horizontal,"(390.0, 762.0)",0,1
7,False,394,0.839,50,[],[],"[(1107, 926)]",[],[1],[81],[1.35],"[640.0, 512.0]",vertical,"(390.0, 762.0)",0,1
7,False,395,0.741,44,[],[],"[(1110, 919)]",[],[1],[77],[1.2833333333333332],"[640.0, 512.0]",vertical,"(390.0, 762.0)",0,1
7,False,396,0.389,23,[],[],"[(1124, 913)]",[],[1],[54],[0.9],"[640.0, 512.0]",horizontal,"(890.0, 762.0)",0,1
7,False,397,1.362,81,[],[1795930],"[(1117, 898)]","[(1105, 908)]",[1],[74],[1.2333333333333334],"[640.0, 512.0]",vertical,"(390.0, 262.0)",0,0
7,False,398,1.149,68,[],[],"[(1144, 910)]",[],[1],[99],[1.65],"[640.0, 512.0]",vertical,"(890.0, 762.0)",0,1
7,False,399,1.479,88,[],[],"[(1108, 920)]",[],[1],[114],[1.9],"[640.0, 512.0]",vertical,"(390.0, 262.0)",0,1
7,False,400,0.584,35,[],[],"[(1125, 913)]",[],[1],[67],[1.1166666666666667],"[640.0, 512.0]",vertical,"(390.0, 262.0)",0,1
7,False,401,0.511,30,[],[],"[(1103, 919)]",[],[1],[61],[1.0166666666666666],"[640.0, 512.0]",horizontal,"(890.0, 762.0)",0,1
7,False,402,0.762,45,[],[],"[(1108, 917)]",[],[1],[75],[1.25],"[640.0, 512.0]",vertical,"(390.0, 762.0)",0,1
7,False,403,0.961,57,[],[],"[(1131, 929)]",[],[1],[88],[1.4666666666666666],"[640.0, 512.0]",vertical,"(390.0, 762.0)",0,1
7,False,404,0.929,55,[],[],"[(1129, 907)]",[],[1],[83],[1.3833333333333333],"[640.0, 512.0]",horizontal,"(890.0, 262.0)",0,1
7,False,405,0.877,52,[],[],"[(1115, 904)]",[],[1],[78],[1.3],"[640.0, 512.0]",horizontal,"(890.0, 262.0)",0,1
7,False,406,1.462,87,[],[],"[(1126, 908)]",[],[1],[116],[1.9333333333333333],"[640.0, 512.0]",vertical,"(890.0, 262.0)",0,1
7,False,407,0.886,53,[],[],"[(1114, 929)]",[],[1],[81],[1.35],"[640.0, 512.0]",vertical,"(390.0, 262.0)",0,1
7,False,408,1.476,88,[],[],"[(1140, 908)]",[],[1],[126],[2.1],"[640.0, 512.0]",vertical,"(890.0, 762.0)",0,1
7,False,409,0.537,32,[],[],"[(1111, 903)]",[],[1],[63],[1.05],"[640.0, 512.0]",vertical,"(390.0, 762.0)",0,1
7,False,410,0.563,33,[],[],"[(1112, 920)]",[],[1],[62],[1.0333333333333332],"[640.0, 512.0]",horizontal,"(390.0, 762.0)",0,1
7,False,411,0.396,23,[],[],"[(1106, 898)]",[],[1],[53],[0.8833333333333333],"[640.0, 512.0]",horizontal,"(890.0, 762.0)",0,1
7,False,412,0.867,52,[],[],"[(1117, 914)]",[],[1],[78],[1.3],"[640.0, 512.0]",horizontal,"(390.0, 262.0)",0,1
7,False,413,0.765,45,[],[],"[(1100, 918)]",[],[1],[69],[1.15],"[640.0, 512.0]",vertical,"(890.0, 762.0)",0,1
7,False,414,0.433,25,[],[],"[(1117, 909)]",[],[1],[52],[0.8666666666666667],"[640.0, 512.0]",vertical,"(390.0, 762.0)",0,1
7,False,415,1.166,69,[],[],"[(1123, 923)]",[],[1],[104],[1.7333333333333334],"[640.0, 512.0]",horizontal,"(390.0, 762.0)",0,1
7,False,416,1.2,72,[],[],"[(1118, 915)]",[],[1],[113],[1.8833333333333333],"[640.0, 512.0]",horizontal,"(890.0, 762.0)",0,1
7,False,417,0.53,31,[],[],"[(1132, 906)]",[],[1],[64],[1.0666666666666667],"[640.0, 512.0]",horizontal,"(390.0, 762.0)",0,1
7,False,418,0.69,41,[],[],"[(1110, 947)]",[],[1],[68],[1.1333333333333333],"[640.0, 512.0]",vertical,"(890.0, 762.0)",0,1
7,False,419,1.46,87,[],[],"[(1131, 909)]",[],[1],[119],[1.9833333333333334],"[640.0, 512.0]",horizontal,"(390.0, 262.0)",0,1
7,False,420,0.496,29,[],[],"[(1123, 910)]",[],[1],[56],[0.9333333333333333],"[640.0, 512.0]",vertical,"(890.0, 262.0)",0,1
8,False,421,1.498,89,[],[],"[(1134, 912)]",[],[1],[136],[2.2666666666666666],"[640.0, 512.0]",vertical,"(890.0, 762.0)",0,1
8,False,422,0.8,48,[],[],"[(1130, 923)]",[],[1],[74],[1.2333333333333334],"[640.0, 512.0]",vertical,"(890.0, 262.0)",0,1
8,False,423,1.024,61,[],[],"[(1119, 910)]",[],[1],[89],[1.4833333333333334],"[640.0, 512.0]",vertical,"(390.0, 262.0)",0,1
8,False,424,1.499,89,[],[],"[(1132, 894)]",[],[1],[127],[2.1166666666666667],"[640.0, 512.0]",vertical,"(390.0, 762.0)",0,1
8,False,425,1.458,87,[],[],"[(1107, 911)]",[],[1],[118],[1.9666666666666666],"[640.0, 512.0]",vertical,"(890.0, 762.0)",0,1
8,False,426,1.133,67,[],[],"[(1127, 919)]",[],[1],[96],[1.6],"[640.0, 512.0]",horizontal,"(390.0, 762.0)",0,1
8,False,427,0.973,58,[],[],"[(1119, 909)]",[],[1],[82],[1.3666666666666667],"[640.0, 512.0]",vertical,"(390.0, 262.0)",0,1
8,False,428,0.353,21,[],[],"[(1140, 918)]",[],[1],[51],[0.85],"[640.0, 512.0]",horizontal,"(890.0, 262.0)",0,1
8,False,429,0.548,32,[],[],"[(1120, 907)]",[],[1],[64],[1.0666666666666667],"[640.0, 512.0]",horizontal,"(890.0, 262.0)",0,1
8,False,430,0.979,58,[],[],"[(1123, 909)]",[],[1],[82],[1.3666666666666667],"[640.0, 512.0]",vertical,"(890.0, 262.0)",0,1
8,False,431,0.702,42,[],[],"[(1125, 901)]",[],[1],[73],[1.2166666666666666],"[640.0, 512.0]",vertical,"(890.0, 762.0)",0,1
8,False,432,0.872,52,[],[],"[(1119, 904)]",[],[1],[86],[1.4333333333333333],"[640.0, 512.0]",horizontal,"(390.0, 762.0)",0,1
8,False,433,0.596,35,[],[],"[(1132, 911)]",[],[1],[66],[1.1],"[640.0, 512.0]",horizontal,"(390.0, 262.0)",0,1
8,False,434,1.433,85,[],[],"[(1137, 928)]",[],[1],[109],[1.8166666666666667],"[640.0, 512.0]",horizontal,"(890.0, 262.0)",0,1
8,False,435,0.516,30,[],[],"[(1144, 908)]",[],[1],[58],[0.9666666666666667],"[640.0, 512.0]",horizontal,"(390.0, 762.0)",0,1
8,False,436,0.403,24,[],[],"[(1154, 906)]",[],[1],[67],[1.1166666666666667],"[640.0, 512.0]",vertical,"(890.0, 262.0)",0,1
8,False,437,1.199,71,[],[],"[(1123, 912)]",[],[1],[106],[1.7666666666666666],"[640.0, 512.0]",horizontal,"(390.0, 262.0)",0,1
8,False,438,0.79,47,[],[],"[(1139, 901)]",[],[1],[85],[1.4166666666666667],"[640.0, 512.0]",horizontal,"(390.0, 762.0)",0,1
8,False,439,0.583,34,[],[],"[(1153, 914)]",[],[1],[63],[1.05],"[640.0, 512.0]",horizontal,"(890.0, 762.0)",0,1
8,False,440,1.369,82,[],[],"[(1113, 911)]",[],[1],[113],[1.8833333333333333],"[640.0, 512.0]",vertical,"(390.0, 762.0)",0,1
8,False,441,0.984,59,[],[],"[(1144, 908)]",[],[1],[85],[1.4166666666666667],"[640.0, 512.0]",horizontal,"(890.0, 262.0)",0,1
8,False,442,0.614,36,[],[],"[(1134, 921)]",[],[1],[62],[1.0333333333333332],"[640.0, 512.0]",horizontal,"(890.0, 262.0)",0,1
8,False,443,1.395,83,[],[],"[(1127, 907)]",[],[1],[112],[1.8666666666666667],"[640.0, 512.0]",vertical,"(890.0, 762.0)",0,1
8,False,444,0.646,38,[],[],"[(1127, 909)]",[],[1],[64],[1.0666666666666667],"[640.0, 512.0]",horizontal,"(390.0, 762.0)",0,1
8,False,445,1.069,64,[],[],"[(1147, 909)]",[],[1],[106],[1.7666666666666666],"[640.0, 512.0]",vertical,"(890.0, 762.0)",0,1
8,False,446,0.4,24,[],[],"[(1115, 915)]",[],[1],[53],[0.8833333333333333],"[640.0, 512.0]",vertical,"(390.0, 262.0)",0,1
8,False,447,0.506,30,[],[],"[(1144, 903)]",[],[1],[57],[0.95],"[640.0, 512.0]",horizontal,"(890.0, 762.0)",0,1
8,False,448,0.8,48,[],[],"[(1137, 895)]",[],[1],[74],[1.2333333333333334],"[640.0, 512.0]",horizontal,"(890.0, 762.0)",0,1
8,False,449,0.852,51,[],[],"[(1108, 898)]",[],[1],[79],[1.3166666666666667],"[640.0, 512.0]",horizontal,"(890.0, 762.0)",0,1
8,False,450,0.467,28,[],[],"[(1117, 911)]",[],[1],[60],[1.0],"[640.0, 512.0]",horizontal,"(890.0, 762.0)",0,1
8,False,451,1.354,81,[],[],"[(1118, 924)]",[],[1],[109],[1.8166666666666667],"[640.0, 512.0]",horizontal,"(390.0, 262.0)",0,1
8,False,452,1.248,74,[],[],"[(1102, 923)]",[],[1],[108],[1.8],"[640.0, 512.0]",vertical,"(890.0, 262.0)",0,1
8,False,453,0.64,38,[],[],"[(1102, 922)]",[],[1],[67],[1.1166666666666667],"[640.0, 512.0]",vertical,"(890.0, 262.0)",0,1
8,False,454,0.499,29,[],[],"[(1123, 912)]",[],[1],[57],[0.95],"[640.0, 512.0]",horizontal,"(390.0, 762.0)",0,1
8,False,455,1.295,77,[],[],"[(1116, 927)]",[],[1],[98],[1.6333333333333333],"[640.0, 512.0]",vertical,"(890.0, 762.0)",0,1
8,False,456,0.419,25,[],[],"[(1121, 908)]",[],[1],[52],[0.8666666666666667],"[640.0, 512.0]",horizontal,"(390.0, 262.0)",0,1
8,False,457,0.604,36,[],[],"[(1134, 921)]",[],[1],[66],[1.1],"[640.0, 512.0]",horizontal,"(890.0, 262.0)",0,1
8,False,458,0.89,53,[],[],"[(1124, 892)]",[],[1],[80],[1.3333333333333333],"[640.0, 512.0]",vertical,"(890.0, 262.0)",0,1
8,False,459,0.304,18,[],[],"[(1095, 913)]",[],[1],[53],[0.8833333333333333],"[640.0, 512.0]",vertical,"(390.0, 762.0)",0,1
8,False,460,1.279,76,[],[],"[(1139, 906)]",[],[1],[91],[1.5166666666666666],"[640.0, 512.0]",vertical,"(890.0, 262.0)",0,1
8,False,461,0.383,22,[],[],"[(1124, 905)]",[],[1],[49],[0.8166666666666667],"[640.0, 512.0]",vertical,"(890.0, 762.0)",0,1
8,False,462,0.825,49,[],[],"[(1092, 920)]",[],[1],[83],[1.3833333333333333],"[640.0, 512.0]",vertical,"(890.0, 262.0)",0,1
8,False,463,1.149,68,[],[],"[(1128, 919)]",[],[1],[102],[1.7],"[640.0, 512.0]",horizontal,"(390.0, 762.0)",0,1
8,False,464,0.884,53,[],[],"[(1120, 908)]",[],[1],[81],[1.35],"[640.0, 512.0]",horizontal,"(390.0, 262.0)",0,1
8,False,465,0.512,30,[],[],"[(1127, 914)]",[],[1],[58],[0.9666666666666667],"[640.0, 512.0]",vertical,"(890.0, 762.0)",0,1
8,False,466,0.577,34,[],[],"[(1107, 910)]",[],[1],[64],[1.0666666666666667],"[640.0, 512.0]",vertical,"(390.0, 762.0)",0,1
8,False,467,0.441,26,[],[],"[(1106, 901)]",[],[1],[56],[0.9333333333333333],"[640.0, 512.0]",horizontal,"(890.0, 762.0)",0,1
8,False,468,0.435,26,[],[],"[(1131, 916)]",[],[1],[56],[0.9333333333333333],"[640.0, 512.0]",horizontal,"(390.0, 762.0)",0,1
8,False,469,0.308,18,[],[],"[(1125, 920)]",[],[1],[53],[0.8833333333333333],"[640.0, 512.0]",horizontal,"(890.0, 262.0)",0,1
8,False,470,1.086,65,[],[],"[(1108, 921)]",[],[1],[97],[1.6166666666666667],"[640.0, 512.0]",vertical,"(890.0, 762.0)",0,1
8,False,471,1.26,75,[],[],"[(1132, 904)]",[],[1],[102],[1.7],"[640.0, 512.0]",vertical,"(890.0, 262.0)",0,1
8,False,472,1.108,66,[],[],"[(1101, 898)]",[],[1],[92],[1.5333333333333332],"[640.0, 512.0]",vertical,"(890.0, 262.0)",0,1
8,False,473,1.364,81,[],[],"[(1127, 919)]",[],[1],[115],[1.9166666666666667],"[640.0, 512.0]",vertical,"(390.0, 762.0)",0,1
8,False,474,0.875,52,[],[],"[(1136, 922)]",[],[1],[83],[1.3833333333333333],"[640.0, 512.0]",vertical,"(390.0, 762.0)",0,1
8,False,475,1.167,70,[],[],"[(1097, 910)]",[],[1],[100],[1.6666666666666667],"[640.0, 512.0]",horizontal,"(390.0, 262.0)",0,1
8,False,476,1.269,76,[],[],"[(1102, 895)]",[],[1],[85],[1.4166666666666667],"[640.0, 512.0]",vertical,"(890.0, 262.0)",0,1
8,False,477,1.284,77,[],[],"[(1140, 908)]",[],[1],[107],[1.7833333333333332],"[640.0, 512.0]",horizontal,"(390.0, 262.0)",0,1
8,False,478,1.263,75,[],[],"[(1134, 919)]",[],[1],[102],[1.7],"[640.0, 512.0]",horizontal,"(390.0, 262.0)",0,1
8,False,479,0.712,42,[],[],"[(1127, 919)]",[],[1],[73],[1.2166666666666666],"[640.0, 512.0]",vertical,"(390.0, 262.0)",0,1
8,False,480,1.362,81,[],[2156778],"[(1105, 924)]","[(1105, 921)]",[1],[72],[1.2],"[640.0, 512.0]",horizontal,"(390.0, 262.0)",0,0
9,False,481,0.492,29,[],[],"[(1124, 914)]",[],[1],[59],[0.9833333333333333],"[640.0, 512.0]",vertical,"(390.0, 262.0)",0,1
9,False,482,0.66,39,[],[],"[(1118, 911)]",[],[1],[68],[1.1333333333333333],"[640.0, 512.0]",vertical,"(890.0, 262.0)",0,1
9,False,483,1.245,74,[],[],"[(1133, 901)]",[],[1],[95],[1.5833333333333333],"[640.0, 512.0]",vertical,"(390.0, 262.0)",0,1
9,False,484,0.949,56,[],[],"[(1132, 911)]",[],[1],[88],[1.4666666666666666],"[640.0, 512.0]",vertical,"(890.0, 762.0)",0,1
9,False,485,1.055,63,[],[],"[(1112, 902)]",[],[1],[90],[1.5],"[640.0, 512.0]",horizontal,"(390.0, 262.0)",0,1
9,False,486,0.601,36,[],[],"[(1107, 915)]",[],[1],[64],[1.0666666666666667],"[640.0, 512.0]",horizontal,"(390.0, 762.0)",0,1
9,False,487,0.658,39,[],[],"[(1099, 906)]",[],[1],[66],[1.1],"[640.0, 512.0]",horizontal,"(890.0, 762.0)",0,1
9,False,488,0.652,39,[],[],"[(1106, 910)]",[],[1],[68],[1.1333333333333333],"[640.0, 512.0]",vertical,"(390.0, 262.0)",0,1
9,False,489,1.128,67,[],[],"[(1132, 910)]",[],[1],[101],[1.6833333333333333],"[640.0, 512.0]",vertical,"(890.0, 762.0)",0,1
9,False,490,1.295,77,[],[],"[(1115, 916)]",[],[1],[109],[1.8166666666666667],"[640.0, 512.0]",horizontal,"(890.0, 762.0)",0,1
9,False,491,1.387,83,[],[],"[(1103, 903)]",[],[1],[116],[1.9333333333333333],"[640.0, 512.0]",horizontal,"(390.0, 262.0)",0,1
9,False,492,1.149,68,[],[],"[(1123, 935)]",[],[1],[98],[1.6333333333333333],"[640.0, 512.0]",vertical,"(390.0, 762.0)",0,1
9,False,493,0.674,40,[],[],"[(1124, 899)]",[],[1],[70],[1.1666666666666667],"[640.0, 512.0]",horizontal,"(890.0, 762.0)",0,1
9,False,494,0.906,54,[],[],"[(1098, 895)]",[],[1],[82],[1.3666666666666667],"[640.0, 512.0]",vertical,"(890.0, 762.0)",0,1
9,False,495,1.15,69,[],[],"[(1115, 893)]",[],[1],[81],[1.35],"[640.0, 512.0]",horizontal,"(390.0, 262.0)",0,1
9,False,496,0.445,26,[],[],"[(1109, 904)]",[],[1],[56],[0.9333333333333333],"[640.0, 512.0]",horizontal,"(890.0, 762.0)",0,1
9,False,497,1.049,62,[],[2206911],"[(1104, 898)]","[(1121, 896)]",[1],[58],[0.9666666666666667],"[640.0, 512.0]",horizontal,"(390.0, 762.0)",0,0
9,False,498,0.904,54,[],[],"[(1108, 906)]",[],[1],[87],[1.45],"[640.0, 512.0]",vertical,"(390.0, 262.0)",0,1
9,False,499,0.876,52,[],[],"[(1116, 903)]",[],[1],[63],[1.05],"[640.0, 512.0]",vertical,"(390.0, 262.0)",0,1
9,False,500,0.372,22,[],[],"[(1115, 905)]",[],[1],[47],[0.7833333333333333],"[640.0, 512.0]",horizontal,"(890.0, 762.0)",0,1
9,False,501,0.488,29,[],[],"[(1083, 914)]",[],[1],[58],[0.9666666666666667],"[640.0, 512.0]",vertical,"(390.0, 762.0)",0,1
9,False,502,0.453,27,[],[],"[(1098, 916)]",[],[1],[60],[1.0],"[640.0, 512.0]",vertical,"(390.0, 262.0)",0,1
9,False,503,1.346,80,[],[2222826],"[(1125, 906)]","[(1121, 910)]",[1],[66],[1.1],"[640.0, 512.0]",vertical,"(890.0, 762.0)",0,0
9,False,504,0.775,46,[],[],"[(1108, 919)]",[],[1],[75],[1.25],"[640.0, 512.0]",vertical,"(390.0, 762.0)",0,1
9,False,505,0.409,24,[],[],"[(1104, 901)]",[],[1],[53],[0.8833333333333333],"[640.0, 512.0]",vertical,"(390.0, 262.0)",0,1
9,False,506,0.823,49,[],[],"[(1087, 902)]",[],[1],[70],[1.1666666666666667],"[640.0, 512.0]",horizontal,"(890.0, 262.0)",0,1
9,False,507,1.088,65,[],[],"[(1101, 887)]",[],[1],[81],[1.35],"[640.0, 512.0]",horizontal,"(390.0, 762.0)",0,1
9,False,508,0.387,23,[],[],"[(1108, 908)]",[],[1],[52],[0.8666666666666667],"[640.0, 512.0]",horizontal,"(890.0, 762.0)",0,1
9,False,509,1.373,82,[],[2238881],"[(1084, 890)]","[(1087, 894)]",[1],[66],[1.1],"[640.0, 512.0]",vertical,"(390.0, 762.0)",0,0
9,False,510,0.738,44,[],[],"[(1121, 910)]",[],[1],[72],[1.2],"[640.0, 512.0]",vertical,"(390.0, 762.0)",0,1
9,False,511,0.661,39,[],[],"[(1089, 919)]",[],[1],[67],[1.1166666666666667],"[640.0, 512.0]",horizontal,"(390.0, 762.0)",0,1
9,False,512,1.142,68,[],[],"[(1076, 919)]",[],[1],[98],[1.6333333333333333],"[640.0, 512.0]",horizontal,"(390.0, 762.0)",0,1
9,False,513,1.187,71,[],[],"[(1088, 885)]",[],[1],[97],[1.6166666666666667],"[640.0, 512.0]",horizontal,"(890.0, 262.0)",0,1
9,False,514,0.323,19,[],[],"[(1085, 873)]",[],[1],[49],[0.8166666666666667],"[640.0, 512.0]",vertical,"(390.0, 262.0)",0,1
9,False,515,1.389,83,[],[],"[(1106, 890)]",[],[1],[111],[1.8499999999999999],"[640.0, 512.0]",vertical,"(890.0, 762.0)",0,1
9,False,516,1.39,83,[],[],"[(1109, 908)]",[],[1],[113],[1.8833333333333333],"[640.0, 512.0]",vertical,"(390.0, 762.0)",0,1
9,False,517,1.292,77,[],[],"[(1091, 897)]",[],[1],[113],[1.8833333333333333],"[640.0, 512.0]",vertical,"(890.0, 762.0)",0,1
9,False,518,0.867,52,[],[],"[(1100, 907)]",[],[1],[80],[1.3333333333333333],"[640.0, 512.0]",horizontal,"(390.0, 262.0)",0,1
9,False,519,0.407,24,[],[],"[(1091, 881)]",[],[1],[51],[0.85],"[640.0, 512.0]",horizontal,"(890.0, 262.0)",0,1
9,False,520,0.944,56,[],[],"[(1120, 902)]",[],[1],[90],[1.5],"[640.0, 512.0]",horizontal,"(890.0, 262.0)",0,1
9,False,521,0.355,21,[],[],"[(1086, 823)]",[],[1],[49],[0.8166666666666667],"[640.0, 512.0]",horizontal,"(390.0, 262.0)",0,1
9,False,522,0.307,18,[],[],"[(1106, 901)]",[],[1],[47],[0.7833333333333333],"[640.0, 512.0]",horizontal,"(890.0, 762.0)",0,1
9,False,523,1.492,89,[],[],"[(1076, 901)]",[],[1],[117],[1.95],"[640.0, 512.0]",horizontal,"(890.0, 762.0)",0,1
9,False,524,0.663,39,[],[],"[(1092, 902)]",[],[1],[67],[1.1166666666666667],"[640.0, 512.0]",vertical,"(890.0, 762.0)",0,1
9,False,525,1.445,86,[],[2284969],"[(1100, 907)]","[(1101, 911)]",[1],[68],[1.1333333333333333],"[640.0, 512.0]",vertical,"(890.0, 762.0)",0,0
9,False,526,1.012,60,[],[],"[(1099, 880)]",[],[1],[85],[1.4166666666666667],"[640.0, 512.0]",vertical,"(390.0, 762.0)",0,1
9,False,527,0.513,30,[],[],"[(1115, 911)]",[],[1],[60],[1.0],"[640.0, 512.0]",horizontal,"(890.0, 762.0)",0,1
9,False,528,1.056,63,[],[],"[(1107, 918)]",[],[1],[94],[1.5666666666666667],"[640.0, 512.0]",horizontal,"(390.0, 762.0)",0,1
9,False,529,1.42,85,[],[],"[(1100, 907)]",[],[1],[104],[1.7333333333333334],"[640.0, 512.0]",vertical,"(390.0, 762.0)",0,1
9,False,530,1.215,72,[],[],"[(1110, 909)]",[],[1],[103],[1.7166666666666666],"[640.0, 512.0]",horizontal,"(890.0, 762.0)",0,1
9,False,531,0.678,40,[],[],"[(1107, 899)]",[],[1],[70],[1.1666666666666667],"[640.0, 512.0]",horizontal,"(390.0, 762.0)",0,1
9,False,532,1.31,78,[],[],"[(1095, 907)]",[],[1],[106],[1.7666666666666666],"[640.0, 512.0]",horizontal,"(890.0, 762.0)",0,1
9,False,533,1.176,70,[],[],"[(1089, 903)]",[],[1],[100],[1.6666666666666667],"[640.0, 512.0]",vertical,"(390.0, 262.0)",0,1
9,False,534,0.445,26,[],[],"[(1111, 921)]",[],[1],[56],[0.9333333333333333],"[640.0, 512.0]",horizontal,"(890.0, 762.0)",0,1
9,False,535,0.611,36,[],[],"[(1105, 902)]",[],[1],[62],[1.0333333333333332],"[640.0, 512.0]",horizontal,"(390.0, 262.0)",0,1
9,False,536,0.607,36,[],[],"[(1097, 907)]",[],[1],[64],[1.0666666666666667],"[640.0, 512.0]",vertical,"(390.0, 262.0)",0,1
9,False,537,0.421,25,[],[],"[(1093, 901)]",[],[1],[55],[0.9166666666666666],"[640.0, 512.0]",vertical,"(390.0, 262.0)",0,1
9,False,538,1.01,60,[],[],"[(1112, 915)]",[],[1],[108],[1.8],"[640.0, 512.0]",horizontal,"(890.0, 262.0)",0,1
9,False,539,0.343,20,[],[],"[(1102, 902)]",[],[1],[51],[0.85],"[640.0, 512.0]",vertical,"(890.0, 762.0)",0,1
9,False,540,0.729,43,[],[],"[(1107, 901)]",[],[1],[74],[1.2333333333333334],"[640.0, 512.0]",horizontal,"(390.0, 762.0)",0,1
10,False,541,0.745,44,[],[],"[(1118, 901)]",[],[1],[69],[1.15],"[640.0, 512.0]",vertical,"(390.0, 262.0)",0,1
10,False,542,1.174,70,[],[],"[(1124, 883)]",[],[1],[98],[1.6333333333333333],"[640.0, 512.0]",horizontal,"(890.0, 762.0)",0,1
10,False,543,1.5,90,[],[],"[(1101, 923)]",[],[1],[118],[1.9666666666666666],"[640.0, 512.0]",vertical,"(890.0, 262.0)",0,1
10,False,544,0.894,53,[],[],"[(1127, 909)]",[],[1],[79],[1.3166666666666667],"[640.0, 512.0]",horizontal,"(390.0, 262.0)",0,1
10,False,545,0.921,55,[],[],"[(1117, 905)]",[],[1],[96],[1.6],"[640.0, 512.0]",horizontal,"(890.0, 762.0)",0,1
10,False,546,1.4,84,[],[],"[(1108, 908)]",[],[1],[118],[1.9666666666666666],"[640.0, 512.0]",vertical,"(890.0, 762.0)",0,1
10,False,547,1.409,84,[],[2349714],"[(1122, 901)]","[(1102, 910)]",[1],[78],[1.3],"[640.0, 512.0]",horizontal,"(390.0, 762.0)",0,0
10,False,548,0.765,45,[],[],"[(1143, 901)]",[],[1],[75],[1.25],"[640.0, 512.0]",vertical,"(390.0, 762.0)",0,1
10,False,549,1.049,62,[],[],"[(1124, 920)]",[],[1],[86],[1.4333333333333333],"[640.0, 512.0]",vertical,"(390.0, 262.0)",0,1
10,False,550,1.108,66,[],[],"[(1137, 911)]",[],[1],[90],[1.5],"[640.0, 512.0]",vertical,"(890.0, 262.0)",0,1
10,False,551,0.589,35,[],[],"[(1120, 906)]",[],[1],[66],[1.1],"[640.0, 512.0]",horizontal,"(890.0, 762.0)",0,1
10,False,552,0.967,58,[],[],"[(1125, 923)]",[],[1],[86],[1.4333333333333333],"[640.0, 512.0]",horizontal,"(390.0, 262.0)",0,1
10,False,553,0.379,22,[],[],"[(1121, 874)]",[],[1],[50],[0.8333333333333334],"[640.0, 512.0]",horizontal,"(890.0, 762.0)",0,1
10,False,554,1.003,60,[],[],"[(1117, 879)]",[],[1],[86],[1.4333333333333333],"[640.0, 512.0]",horizontal,"(390.0, 262.0)",0,1
10,False,555,1.201,72,[],[],"[(1138, 895)]",[],[1],[97],[1.6166666666666667],"[640.0, 512.0]",vertical,"(890.0, 262.0)",0,1
10,False,556,1.034,62,[],[],"[(1156, 893)]",[],[1],[89],[1.4833333333333334],"[640.0, 512.0]",vertical,"(390.0, 262.0)",0,1
10,False,557,0.816,48,[],[],"[(1124, 885)]",[],[1],[86],[1.4333333333333333],"[640.0, 512.0]",horizontal,"(890.0, 762.0)",0,1
10,False,558,0.715,42,[],[],"[(1122, 929)]",[],[1],[76],[1.2666666666666666],"[640.0, 512.0]",horizontal,"(390.0, 762.0)",0,1
10,False,559,1.327,79,[],[],"[(1116, 908)]",[],[1],[101],[1.6833333333333333],"[640.0, 512.0]",horizontal,"(390.0, 262.0)",0,1
10,False,560,1.022,61,[],[],"[(1095, 920)]",[],[1],[89],[1.4833333333333334],"[640.0, 512.0]",vertical,"(890.0, 762.0)",0,1
10,False,561,0.326,19,[],[],"[(1113, 928)]",[],[1],[46],[0.7666666666666666],"[640.0, 512.0]",horizontal,"(890.0, 762.0)",0,1
10,False,562,0.35,21,[],[],"[(1126, 898)]",[],[1],[52],[0.8666666666666667],"[640.0, 512.0]",horizontal,"(890.0, 262.0)",0,1
10,False,563,1.088,65,[],[],"[(1128, 922)]",[],[1],[93],[1.55],"[640.0, 512.0]",horizontal,"(390.0, 762.0)",0,1
10,False,564,0.852,51,[],[],"[(1129, 912)]",[],[1],[77],[1.2833333333333332],"[640.0, 512.0]",horizontal,"(390.0, 762.0)",0,1
10,False,565,0.835,50,[],[],"[(1125, 917)]",[],[1],[79],[1.3166666666666667],"[640.0, 512.0]",vertical,"(890.0, 762.0)",0,1
10,False,566,1.39,83,[],[],"[(1119, 911)]",[],[1],[111],[1.8499999999999999],"[640.0, 512.0]",vertical,"(390.0, 762.0)",0,1
10,False,567,0.613,36,[],[],"[(1117, 909)]",[],[1],[63],[1.05],"[640.0, 512.0]",vertical,"(390.0, 262.0)",0,1
10,False,568,0.64,38,[],[],"[(1127, 909)]",[],[1],[67],[1.1166666666666667],"[640.0, 512.0]",vertical,"(890.0, 762.0)",0,1
10,False,569,0.416,24,[],[],"[(1109, 919)]",[],[1],[55],[0.9166666666666666],"[640.0, 512.0]",vertical,"(390.0, 762.0)",0,1
10,False,570,1.442,86,[],[],"[(1100, 924)]",[],[1],[115],[1.9166666666666667],"[640.0, 512.0]",vertical,"(890.0, 262.0)",0,1
10,False,571,0.355,21,[],[],"[(1107, 920)]",[],[1],[57],[0.95],"[640.0, 512.0]",vertical,"(390.0, 262.0)",0,1
10,False,572,0.799,47,[],[],"[(1134, 917)]",[],[1],[73],[1.2166666666666666],"[640.0, 512.0]",vertical,"(890.0, 262.0)",0,1
10,False,573,0.536,32,[],[],"[(1125, 910)]",[],[1],[61],[1.0166666666666666],"[640.0, 512.0]",horizontal,"(390.0, 262.0)",0,1
10,False,574,0.652,39,[],[],"[(1106, 900)]",[],[1],[72],[1.2],"[640.0, 512.0]",horizontal,"(390.0, 762.0)",0,1
10,False,575,1.238,74,[],[],"[(1105, 912)]",[],[1],[104],[1.7333333333333334],"[640.0, 512.0]",horizontal,"(390.0, 762.0)",0,1
10,False,576,1.18,70,[],[],"[(1116, 911)]",[],[1],[104],[1.7333333333333334],"[640.0, 512.0]",horizontal,"(890.0, 762.0)",0,1
10,False,577,0.681,40,[],[],"[(1104, 909)]",[],[1],[73],[1.2166666666666666],"[640.0, 512.0]",vertical,"(390.0, 262.0)",0,1
10,False,578,0.72,43,[],[],"[(1114, 920)]",[],[1],[71],[1.1833333333333333],"[640.0, 512.0]",vertical,"(390.0, 262.0)",0,1
10,False,579,1.037,62,[],[],"[(1116, 912)]",[],[1],[87],[1.45],"[640.0, 512.0]",vertical,"(390.0, 262.0)",0,1
10,False,580,0.498,29,[],[],"[(1119, 902)]",[],[1],[56],[0.9333333333333333],"[640.0, 512.0]",vertical,"(890.0, 262.0)",0,1
10,False,581,0.341,20,[],[],"[(1118, 913)]",[],[1],[52],[0.8666666666666667],"[640.0, 512.0]",vertical,"(390.0, 262.0)",0,1
10,False,582,0.627,37,[],[],"[(1121, 919)]",[],[1],[63],[1.05],"[640.0, 512.0]",horizontal,"(890.0, 262.0)",0,1
10,False,583,1.017,61,[],[],"[(1112, 894)]",[],[1],[90],[1.5],"[640.0, 512.0]",vertical,"(890.0, 762.0)",0,1
10,False,584,0.565,33,[],[],"[(1115, 905)]",[],[1],[57],[0.95],"[640.0, 512.0]",horizontal,"(890.0, 762.0)",0,1
10,False,585,0.905,54,[],[],"[(1128, 914)]",[],[1],[80],[1.3333333333333333],"[640.0, 512.0]",vertical,"(390.0, 262.0)",0,1
10,False,586,0.454,27,[],[],"[(1128, 905)]",[],[1],[62],[1.0333333333333332],"[640.0, 512.0]",horizontal,"(890.0, 762.0)",0,1
10,False,587,1.462,87,[],[],"[(1126, 902)]",[],[1],[95],[1.5833333333333333],"[640.0, 512.0]",horizontal,"(390.0, 262.0)",0,1
10,False,588,0.785,47,[],[],"[(1104, 913)]",[],[1],[74],[1.2333333333333334],"[640.0, 512.0]",horizontal,"(890.0, 762.0)",0,1
10,False,589,1.452,87,[],[],"[(1106, 897)]",[],[1],[114],[1.9],"[640.0, 512.0]",horizontal,"(890.0, 762.0)",0,1
10,False,590,0.455,27,[],[],"[(1117, 904)]",[],[1],[55],[0.9166666666666666],"[640.0, 512.0]",horizontal,"(390.0, 262.0)",0,1
10,False,591,0.769,46,[],[],"[(1125, 912)]",[],[1],[72],[1.2],"[640.0, 512.0]",vertical,"(390.0, 262.0)",0,1
10,False,592,0.998,59,[],[],"[(1126, 901)]",[],[1],[83],[1.3833333333333333],"[640.0, 512.0]",horizontal,"(890.0, 262.0)",0,1
10,False,593,0.482,28,[],[],"[(1135, 908)]",[],[1],[61],[1.0166666666666666],"[640.0, 512.0]",vertical,"(390.0, 262.0)",0,1
10,False,594,1.367,82,[],[],"[(1129, 889)]",[],[1],[108],[1.8],"[640.0, 512.0]",horizontal,"(890.0, 762.0)",0,1
10,False,595,1.251,75,[],[],"[(1125, 901)]",[],[1],[99],[1.65],"[640.0, 512.0]",horizontal,"(890.0, 262.0)",0,1
10,False,596,0.459,27,[],[],"[(1111, 904)]",[],[1],[57],[0.95],"[640.0, 512.0]",horizontal,"(390.0, 262.0)",0,1
10,False,597,1.001,60,[],[],"[(1105, 910)]",[],[1],[94],[1.5666666666666667],"[640.0, 512.0]",horizontal,"(390.0, 762.0)",0,1
10,False,598,1.029,61,[],[],"[(1095, 911)]",[],[1],[89],[1.4833333333333334],"[640.0, 512.0]",horizontal,"(390.0, 262.0)",0,1
10,False,599,1.286,77,[],[],"[(1110, 910)]",[],[1],[108],[1.8],"[640.0, 512.0]",horizontal,"(390.0, 762.0)",0,1
10,False,600,0.351,21,[],[],"[(1118, 902)]",[],[1],[50],[0.8333333333333334],"[640.0, 512.0]",vertical,"(390.0, 262.0)",0,1
11,False,601,0.302,18,[],[],"[(1137, 925)]",[],[1],[47],[0.7833333333333333],"[640.0, 512.0]",vertical,"(890.0, 762.0)",0,1
11,False,602,0.87,52,[],[],"[(1123, 884)]",[],[1],[88],[1.4666666666666666],"[640.0, 512.0]",horizontal,"(890.0, 762.0)",0,1
11,False,603,0.421,25,[],[],"[(1124, 907)]",[],[1],[55],[0.9166666666666666],"[640.0, 512.0]",vertical,"(390.0, 262.0)",0,1
11,False,604,0.851,51,[],[],"[(1123, 903)]",[],[1],[78],[1.3],"[640.0, 512.0]",vertical,"(390.0, 262.0)",0,1
11,False,605,1.132,67,[],[],"[(1132, 907)]",[],[1],[102],[1.7],"[640.0, 512.0]",horizontal,"(390.0, 762.0)",0,1
11,False,606,0.311,18,[],[],"[(1129, 921)]",[],[1],[49],[0.8166666666666667],"[640.0, 512.0]",horizontal,"(890.0, 762.0)",0,1
11,False,607,0.659,39,[],[],"[(1107, 919)]",[],[1],[67],[1.1166666666666667],"[640.0, 512.0]",vertical,"(390.0, 762.0)",0,1
11,False,608,1.146,68,[],[],"[(1108, 910)]",[],[1],[96],[1.6],"[640.0, 512.0]",horizontal,"(390.0, 762.0)",0,1
11,False,609,1.394,83,[],[],"[(1122, 919)]",[],[1],[106],[1.7666666666666666],"[640.0, 512.0]",horizontal,"(390.0, 262.0)",0,1
11,False,610,0.497,29,[],[],"[(1116, 900)]",[],[1],[63],[1.05],"[640.0, 512.0]",vertical,"(890.0, 262.0)",0,1
11,False,611,0.502,30,[],[],"[(1111, 911)]",[],[1],[53],[0.8833333333333333],"[640.0, 512.0]",vertical,"(890.0, 262.0)",0,1
11,False,612,0.313,18,[],[],"[(1126, 918)]",[],[1],[45],[0.75],"[640.0, 512.0]",horizontal,"(890.0, 762.0)",0,1
11,False,613,0.989,59,[],[],"[(1124, 892)]",[],[1],[87],[1.45],"[640.0, 512.0]",horizontal,"(390.0, 262.0)",0,1
11,False,614,0.615,36,[],[],"[(1111, 888)]",[],[1],[63],[1.05],"[640.0, 512.0]",vertical,"(890.0, 762.0)",0,1
11,False,615,1.016,60,[],[],"[(1097, 910)]",[],[1],[95],[1.5833333333333333],"[640.0, 512.0]",vertical,"(890.0, 762.0)",0,1
11,False,616,1.29,77,[],[],"[(1118, 918)]",[],[1],[103],[1.7166666666666666],"[640.0, 512.0]",vertical,"(890.0, 762.0)",0,1
11,False,617,1.164,69,[],[],"[(1116, 913)]",[],[1],[99],[1.65],"[640.0, 512.0]",horizontal,"(390.0, 762.0)",0,1
11,False,618,1.324,79,[],[],"[(1108, 881)]",[],[1],[105],[1.75],"[640.0, 512.0]",horizontal,"(390.0, 762.0)",0,1
11,False,619,1.375,82,[],[],"[(1109, 909)]",[],[1],[108],[1.8],"[640.0, 512.0]",horizontal,"(390.0, 262.0)",0,1
11,False,620,0.999,59,[],[],"[(1116, 901)]",[],[1],[96],[1.6],"[640.0, 512.0]",vertical,"(890.0, 262.0)",0,1
11,False,621,0.919,55,[],[],"[(1131, 910)]",[],[1],[85],[1.4166666666666667],"[640.0, 512.0]",vertical,"(390.0, 762.0)",0,1
11,False,622,0.953,57,[],[],"[(1121, 909)]",[],[1],[85],[1.4166666666666667],"[640.0, 512.0]",horizontal,"(890.0, 262.0)",0,1
11,False,623,0.673,40,[],[],"[(1117, 904)]",[],[1],[69],[1.15],"[640.0, 512.0]",vertical,"(890.0, 262.0)",0,1
11,False,624,0.894,53,[],[],"[(1118, 913)]",[],[1],[75],[1.25],"[640.0, 512.0]",vertical,"(890.0, 262.0)",0,1
11,False,625,1.278,76,[],[],"[(1103, 899)]",[],[1],[104],[1.7333333333333334],"[640.0, 512.0]",vertical,"(890.0, 762.0)",0,1
11,False,626,1.02,61,[],[],"[(1117, 903)]",[],[1],[94],[1.5666666666666667],"[640.0, 512.0]",horizontal,"(890.0, 762.0)",0,1
11,False,627,0.978,58,[],[],"[(1113, 901)]",[],[1],[81],[1.35],"[640.0, 512.0]",horizontal,"(890.0, 762.0)",0,1
11,False,628,0.882,52,[],[],"[(1103, 903)]",[],[1],[81],[1.35],"[640.0, 512.0]",horizontal,"(390.0, 262.0)",0,1
11,False,629,0.355,21,[],[],"[(1108, 901)]",[],[1],[52],[0.8666666666666667],"[640.0, 512.0]",vertical,"(390.0, 762.0)",0,1
11,False,630,1.097,65,[],[],"[(1108, 910)]",[],[1],[106],[1.7666666666666666],"[640.0, 512.0]",horizontal,"(890.0, 762.0)",0,1
11,False,631,1.343,80,[],[],"[(1108, 911)]",[],[1],[99],[1.65],"[640.0, 512.0]",vertical,"(390.0, 262.0)",0,1
11,False,632,0.897,53,[],[],"[(1127, 904)]",[],[1],[99],[1.65],"[640.0, 512.0]",vertical,"(390.0, 262.0)",0,1
11,False,633,0.379,22,[],[],"[(1134, 897)]",[],[1],[52],[0.8666666666666667],"[640.0, 512.0]",vertical,"(890.0, 262.0)",0,1
11,False,634,1.38,82,[],[],"[(1143, 905)]",[],[1],[124],[2.0666666666666664],"[640.0, 512.0]",horizontal,"(890.0, 762.0)",0,1
11,False,635,0.81,48,[],[],"[(1127, 905)]",[],[1],[76],[1.2666666666666666],"[640.0, 512.0]",horizontal,"(390.0, 762.0)",0,1
11,False,636,0.339,20,[],[],"[(1127, 920)]",[],[1],[51],[0.85],"[640.0, 512.0]",horizontal,"(390.0, 262.0)",0,1
11,False,637,1.38,82,[],[],"[(1125, 910)]",[],[1],[132],[2.2],"[640.0, 512.0]",vertical,"(390.0, 762.0)",0,0
11,False,638,0.687,41,[],[],"[(1127, 908)]",[],[1],[73],[1.2166666666666666],"[640.0, 512.0]",horizontal,"(390.0, 762.0)",0,1
11,False,639,0.853,51,[],[],"[(1129, 886)]",[],[1],[81],[1.35],"[640.0, 512.0]",vertical,"(890.0, 762.0)",0,1
11,False,640,0.908,54,[],[],"[(1142, 918)]",[],[1],[83],[1.3833333333333333],"[640.0, 512.0]",horizontal,"(890.0, 262.0)",0,1
11,False,641,1.304,78,[],[],"[(1133, 901)]",[],[1],[108],[1.8],"[640.0, 512.0]",vertical,"(390.0, 762.0)",0,1
11,False,642,1.043,62,[],[],"[(1118, 911)]",[],[1],[92],[1.5333333333333332],"[640.0, 512.0]",horizontal,"(890.0, 762.0)",0,1
11,False,643,0.369,22,[],[],"[(1122, 903)]",[],[1],[57],[0.95],"[640.0, 512.0]",vertical,"(890.0, 762.0)",0,1
11,False,644,1.048,62,[],[],"[(1117, 907)]",[],[1],[92],[1.5333333333333332],"[640.0, 512.0]",vertical,"(390.0, 762.0)",0,1
11,False,645,0.878,52,[],[],"[(1123, 928)]",[],[1],[80],[1.3333333333333333],"[640.0, 512.0]",vertical,"(890.0, 762.0)",0,1
11,False,646,1.182,70,[],[],"[(1240, 882), (1089, 928)]",[],"[0, 1]",[99],[1.65],"[640.0, 512.0]",horizontal,"(890.0, 762.0)",0,1
11,False,647,1.158,69,[],[],"[(1116, 927)]",[],[1],[102],[1.7],"[640.0, 512.0]",vertical,"(390.0, 762.0)",0,1
11,False,648,0.601,36,[],[],"[(1106, 905)]",[],[1],[67],[1.1166666666666667],"[640.0, 512.0]",vertical,"(390.0, 762.0)",0,1
11,False,649,0.586,35,[],[],"[(1115, 907)]",[],[1],[65],[1.0833333333333333],"[640.0, 512.0]",horizontal,"(390.0, 762.0)",0,1
11,False,650,1.07,64,[],[],"[(1104, 897)]",[],[1],[91],[1.5166666666666666],"[640.0, 512.0]",vertical,"(390.0, 262.0)",0,1
11,False,651,1.317,79,[],[],"[(1108, 922)]",[],[1],[107],[1.7833333333333332],"[640.0, 512.0]",horizontal,"(390.0, 762.0)",0,1
11,False,652,0.763,45,[],[],"[(1121, 912)]",[],[1],[81],[1.35],"[640.0, 512.0]",horizontal,"(890.0, 262.0)",0,1
11,False,653,0.722,43,[],[],"[(1133, 906)]",[],[1],[71],[1.1833333333333333],"[640.0, 512.0]",vertical,"(390.0, 762.0)",0,1
11,False,654,1.443,86,[],[],"[(1124, 886)]",[],[1],[121],[2.0166666666666666],"[640.0, 512.0]",vertical,"(390.0, 262.0)",0,1
11,False,655,0.943,56,[],[],"[(1120, 914)]",[],[1],[87],[1.45],"[640.0, 512.0]",vertical,"(390.0, 262.0)",0,1
11,False,656,0.31,18,[],[],"[(1137, 911)]",[],[1],[49],[0.8166666666666667],"[640.0, 512.0]",vertical,"(890.0, 762.0)",0,1
11,False,657,1.456,87,[],[],"[(1122, 909)]",[],[1],[115],[1.9166666666666667],"[640.0, 512.0]",vertical,"(390.0, 762.0)",0,1
11,False,658,0.913,54,[],[],"[(1136, 906)]",[],[1],[92],[1.5333333333333332],"[640.0, 512.0]",vertical,"(390.0, 262.0)",0,1
11,False,659,0.994,59,[],[],"[(1126, 912)]",[],[1],[87],[1.45],"[640.0, 512.0]",vertical,"(890.0, 262.0)",0,1
11,False,660,0.425,25,[],[],"[(1144, 908)]",[],[1],[56],[0.9333333333333333],"[640.0, 512.0]",vertical,"(390.0, 762.0)",0,1
12,False,661,0.641,38,[],[],"[(1117, 895)]",[],[1],[66],[1.1],"[640.0, 512.0]",horizontal,"(390.0, 262.0)",0,1
12,False,662,0.608,36,[],[],"[(1127, 906)]",[],[1],[64],[1.0666666666666667],"[640.0, 512.0]",horizontal,"(890.0, 262.0)",0,1
12,False,663,0.931,55,[],[],"[(1132, 900)]",[],[1],[83],[1.3833333333333333],"[640.0, 512.0]",vertical,"(390.0, 262.0)",0,1
12,False,664,0.597,35,[],[],"[(1118, 890)]",[],[1],[57],[0.95],"[640.0, 512.0]",vertical,"(390.0, 262.0)",0,1
12,False,665,1.359,81,[],[],"[(1112, 909)]",[],[1],[109],[1.8166666666666667],"[640.0, 512.0]",horizontal,"(390.0, 262.0)",0,1
12,False,666,0.75,45,[],[],"[(1127, 906)]",[],[1],[75],[1.25],"[640.0, 512.0]",vertical,"(890.0, 762.0)",0,1
12,False,667,0.882,52,[],[],"[(1140, 888)]",[],[1],[82],[1.3666666666666667],"[640.0, 512.0]",vertical,"(390.0, 262.0)",0,1
12,False,668,0.814,48,[],[],"[(1123, 915)]",[],[1],[80],[1.3333333333333333],"[640.0, 512.0]",vertical,"(390.0, 262.0)",0,1
12,False,669,1.174,70,[],[],"[(1098, 923)]",[],[1],[110],[1.8333333333333333],"[640.0, 512.0]",horizontal,"(890.0, 762.0)",0,1
12,False,670,1.458,87,[],[],"[(1121, 901)]",[],[1],[110],[1.8333333333333333],"[640.0, 512.0]",horizontal,"(390.0, 262.0)",0,1
12,False,671,0.704,42,[],[],"[(1121, 927)]",[],[1],[77],[1.2833333333333332],"[640.0, 512.0]",horizontal,"(390.0, 762.0)",0,1
12,False,672,0.692,41,[],[],"[(1104, 912)]",[],[1],[73],[1.2166666666666666],"[640.0, 512.0]",vertical,"(390.0, 762.0)",0,1
12,False,673,1.197,71,[],[],"[(1109, 931)]",[],[1],[98],[1.6333333333333333],"[640.0, 512.0]",horizontal,"(890.0, 762.0)",0,1
12,False,674,1.464,87,[],[],"[(1108, 896)]",[],[1],[112],[1.8666666666666667],"[640.0, 512.0]",vertical,"(890.0, 262.0)",0,1
12,False,675,1.17,70,[],[],"[(1110, 910)]",[],[1],[113],[1.8833333333333333],"[640.0, 512.0]",horizontal,"(390.0, 762.0)",0,1
12,False,676,1.058,63,[],[],"[(1135, 896)]",[],[1],[91],[1.5166666666666666],"[640.0, 512.0]",horizontal,"(390.0, 262.0)",0,1
12,False,677,0.521,31,[],[],"[(1144, 902)]",[],[1],[81],[1.35],"[640.0, 512.0]",vertical,"(890.0, 262.0)",0,0
12,False,678,0.624,37,[],[],"[(1106, 892)]",[],[1],[70],[1.1666666666666667],"[640.0, 512.0]",vertical,"(890.0, 762.0)",0,1
12,False,679,1.088,65,[],[],"[(1125, 919)]",[],[1],[97],[1.6166666666666667],"[640.0, 512.0]",horizontal,"(390.0, 762.0)",0,1
12,False,680,1.486,89,[],[],"[(1106, 897)]",[],[1],[116],[1.9333333333333333],"[640.0, 512.0]",horizontal,"(890.0, 262.0)",0,1
12,False,681,0.541,32,[],[],"[(1133, 885)]",[],[1],[61],[1.0166666666666666],"[640.0, 512.0]",horizontal,"(390.0, 762.0)",0,1
12,False,682,0.338,20,[],[],"[(1124, 898)]",[],[1],[51],[0.85],"[640.0, 512.0]",vertical,"(390.0, 262.0)",0,1
12,False,683,0.922,55,[],[],"[(1130, 915)]",[],[1],[83],[1.3833333333333333],"[640.0, 512.0]",vertical,"(890.0, 262.0)",0,1
12,False,684,0.792,47,[],[],"[(1123, 899)]",[],[1],[73],[1.2166666666666666],"[640.0, 512.0]",vertical,"(890.0, 262.0)",0,1
12,False,685,0.738,44,[],[],"[(1119, 913)]",[],[1],[74],[1.2333333333333334],"[640.0, 512.0]",vertical,"(890.0, 762.0)",0,1
12,False,686,0.706,42,[],[],"[(1118, 901)]",[],[1],[76],[1.2666666666666666],"[640.0, 512.0]",horizontal,"(390.0, 762.0)",0,1
12,False,687,0.584,35,[],[],"[(1114, 892)]",[],[1],[66],[1.1],"[640.0, 512.0]",vertical,"(390.0, 262.0)",0,1
12,False,688,0.979,58,[],[],"[(1117, 932)]",[],[1],[73],[1.2166666666666666],"[640.0, 512.0]",vertical,"(890.0, 262.0)",0,1
12,False,689,1.141,68,[],[],"[(1114, 910)]",[],[1],[98],[1.6333333333333333],"[640.0, 512.0]",vertical,"(390.0, 262.0)",0,1
12,False,690,0.436,26,[],[],"[(1137, 906)]",[],[1],[53],[0.8833333333333333],"[640.0, 512.0]",horizontal,"(890.0, 262.0)",0,1
12,False,691,0.558,33,[],[],"[(1137, 896)]",[],[1],[62],[1.0333333333333332],"[640.0, 512.0]",horizontal,"(890.0, 762.0)",0,1
12,False,692,1.419,85,[],[],"[(1109, 909)]",[],[1],[114],[1.9],"[640.0, 512.0]",vertical,"(390.0, 762.0)",0,1
12,False,693,1.047,62,[],[],"[(1126, 920)]",[],[1],[87],[1.45],"[640.0, 512.0]",horizontal,"(390.0, 762.0)",0,1
12,False,694,0.593,35,[],[],"[(1127, 897)]",[],[1],[65],[1.0833333333333333],"[640.0, 512.0]",vertical,"(890.0, 762.0)",0,1
12,False,695,0.951,57,[],[],"[(1123, 916)]",[],[1],[87],[1.45],"[640.0, 512.0]",vertical,"(890.0, 762.0)",0,1
12,False,696,0.67,40,[],[],"[(1132, 906)]",[],[1],[71],[1.1833333333333333],"[640.0, 512.0]",vertical,"(390.0, 762.0)",0,1
12,False,697,0.82,49,[],[2848663],"[(1111, 956), (1120, 943)]","[(1118, 954)]","[0, 1]",[10],[0.16666666666666666],"[640.0, 512.0]",vertical,"(390.0, 762.0)",0,0
12,False,698,0.656,39,[],[],"[(1108, 906)]",[],[1],[69],[1.15],"[640.0, 512.0]",vertical,"(890.0, 762.0)",0,1
12,False,699,1.011,60,[],[],"[(1122, 916)]",[],[1],[87],[1.45],"[640.0, 512.0]",horizontal,"(890.0, 762.0)",0,1
12,False,700,1.263,75,[],[],"[(1126, 902)]",[],[1],[102],[1.7],"[640.0, 512.0]",horizontal,"(390.0, 762.0)",0,1
12,False,701,0.859,51,[],[],"[(1125, 897)]",[],[1],[94],[1.5666666666666667],"[640.0, 512.0]",horizontal,"(890.0, 762.0)",0,1
12,False,702,0.717,43,[],[],"[(1124, 898)]",[],[1],[78],[1.3],"[640.0, 512.0]",vertical,"(390.0, 762.0)",0,1
12,False,703,0.921,55,[],[],"[(1107, 910)]",[],[1],[81],[1.35],"[640.0, 512.0]",horizontal,"(390.0, 262.0)",0,1
12,False,704,1.131,67,[],[],"[(1124, 900)]",[],[1],[102],[1.7],"[640.0, 512.0]",vertical,"(890.0, 762.0)",0,1
12,False,705,0.341,20,[],[],"[(1123, 884)]",[],[1],[50],[0.8333333333333334],"[640.0, 512.0]",horizontal,"(890.0, 262.0)",0,1
12,False,706,1.467,88,[],[],"[(1136, 885)]",[],[1],[126],[2.1],"[640.0, 512.0]",vertical,"(390.0, 262.0)",0,1
12,False,707,1.096,65,[],[],"[(1107, 901)]",[],[1],[92],[1.5333333333333332],"[640.0, 512.0]",horizontal,"(390.0, 262.0)",0,1
12,False,708,1.135,68,[],[],"[(1109, 911)]",[],[1],[95],[1.5833333333333333],"[640.0, 512.0]",vertical,"(890.0, 762.0)",0,1
12,False,709,1.387,83,[],[],"[(1130, 904)]",[],[1],[112],[1.8666666666666667],"[640.0, 512.0]",horizontal,"(890.0, 762.0)",0,1
12,False,710,1.238,74,[],[],"[(1108, 922)]",[],[1],[103],[1.7166666666666666],"[640.0, 512.0]",vertical,"(890.0, 762.0)",0,1
12,False,711,0.944,56,[],[],"[(1117, 897)]",[],[1],[92],[1.5333333333333332],"[640.0, 512.0]",vertical,"(890.0, 262.0)",0,1
12,False,712,1.222,73,[],[],"[(1125, 916)]",[],[1],[102],[1.7],"[640.0, 512.0]",horizontal,"(890.0, 762.0)",0,1
12,False,713,1.011,60,[],[],"[(1112, 911)]",[],[1],[91],[1.5166666666666666],"[640.0, 512.0]",horizontal,"(890.0, 762.0)",0,1
12,False,714,0.983,58,[],[],"[(1070, 909)]",[],[1],[87],[1.45],"[640.0, 512.0]",horizontal,"(890.0, 762.0)",0,1
12,False,715,0.403,24,[],[],"[(1107, 919)]",[],[1],[55],[0.9166666666666666],"[640.0, 512.0]",horizontal,"(890.0, 262.0)",0,1
12,False,716,1.065,63,[],[],"[(1143, 887)]",[],[1],[90],[1.5],"[640.0, 512.0]",vertical,"(890.0, 262.0)",0,1
12,False,717,0.841,50,[],[],"[(1127, 898)]",[],[1],[78],[1.3],"[640.0, 512.0]",horizontal,"(890.0, 262.0)",0,1
12,False,718,0.723,43,[],[],"[(1149, 896)]",[],[1],[70],[1.1666666666666667],"[640.0, 512.0]",horizontal,"(390.0, 262.0)",0,1
12,False,719,0.437,26,[],[],"[(1144, 933)]",[],[1],[56],[0.9333333333333333],"[640.0, 512.0]",vertical,"(390.0, 262.0)",0,1
12,False,720,0.816,48,[],[],"[(1125, 909)]",[],[1],[70],[1.1666666666666667],"[640.0, 512.0]",vertical,"(890.0, 262.0)",0,1
13,False,721,0.997,59,[],[],"[(1144, 906)]",[],[1],[87],[1.45],"[640.0, 512.0]",horizontal,"(890.0, 762.0)",0,1
13,False,722,1.125,67,[],[],"[(1163, 916)]",[],[1],[97],[1.6166666666666667],"[640.0, 512.0]",horizontal,"(890.0, 762.0)",0,1
13,False,723,0.988,59,[],[],"[(1141, 902)]",[],[1],[93],[1.55],"[640.0, 512.0]",horizontal,"(890.0, 762.0)",0,1
13,False,724,1.352,81,[],[3457209],"[(1126, 892)]","[(1122, 909)]",[1],[80],[1.3333333333333333],"[640.0, 512.0]",vertical,"(390.0, 762.0)",0,0
13,False,725,1.465,87,[],[],"[(1142, 897)]",[],[1],[116],[1.9333333333333333],"[640.0, 512.0]",horizontal,"(890.0, 262.0)",0,1
13,False,726,1.206,72,[],[],"[(1156, 898)]",[],[1],[107],[1.7833333333333332],"[640.0, 512.0]",vertical,"(890.0, 762.0)",0,1
13,False,727,0.849,50,[],[],"[(1159, 907)]",[],[1],[76],[1.2666666666666666],"[640.0, 512.0]",horizontal,"(890.0, 762.0)",0,1
13,False,728,0.453,27,[],[],"[(1145, 900)]",[],[1],[61],[1.0166666666666666],"[640.0, 512.0]",horizontal,"(390.0, 762.0)",0,1
13,False,729,0.739,44,[],[],"[(1131, 897)]",[],[1],[70],[1.1666666666666667],"[640.0, 512.0]",horizontal,"(890.0, 262.0)",0,1
13,False,730,0.581,34,[],[],"[(1153, 902)]",[],[1],[62],[1.0333333333333332],"[640.0, 512.0]",horizontal,"(890.0, 262.0)",0,1
13,False,731,0.501,30,[],[],"[(1144, 877)]",[],[1],[61],[1.0166666666666666],"[640.0, 512.0]",vertical,"(390.0, 762.0)",0,1
13,False,732,0.792,47,[],[],"[(1140, 895)]",[],[1],[78],[1.3],"[640.0, 512.0]",horizontal,"(890.0, 762.0)",0,1
13,False,733,1.269,76,[],[],"[(1142, 917)]",[],[1],[106],[1.7666666666666666],"[640.0, 512.0]",horizontal,"(390.0, 762.0)",0,1
13,False,734,1.454,87,[],[3496268],"[(1123, 909)]","[(1121, 918)]",[1],[85],[1.4166666666666667],"[640.0, 512.0]",horizontal,"(890.0, 262.0)",0,0
13,False,735,0.962,57,[],[],"[(1145, 903)]",[],[1],[89],[1.4833333333333334],"[640.0, 512.0]",horizontal,"(390.0, 262.0)",0,1
13,False,736,0.937,56,[],[],"[(1155, 904)]",[],[1],[82],[1.3666666666666667],"[640.0, 512.0]",vertical,"(890.0, 262.0)",0,1
13,False,737,1.194,71,[],[],"[(1147, 910)]",[],[1],[96],[1.6],"[640.0, 512.0]",horizontal,"(890.0, 262.0)",0,1
13,False,738,0.966,57,[],[],"[(1155, 885)]",[],[1],[95],[1.5833333333333333],"[640.0, 512.0]",horizontal,"(390.0, 762.0)",0,1
13,False,739,0.524,31,[],[],"[(1144, 892)]",[],[1],[61],[1.0166666666666666],"[640.0, 512.0]",vertical,"(390.0, 262.0)",0,1
13,False,740,0.661,39,[],[],"[(1127, 933)]",[],[1],[67],[1.1166666666666667],"[640.0, 512.0]",vertical,"(890.0, 762.0)",0,1
13,False,741,0.451,27,[],[],"[(1124, 935)]",[],[1],[55],[0.9166666666666666],"[640.0, 512.0]",vertical,"(890.0, 262.0)",0,1
13,False,742,1.486,89,[],[],"[(1118, 906)]",[],[1],[117],[1.95],"[640.0, 512.0]",vertical,"(390.0, 262.0)",0,1
13,False,743,0.798,47,[],[],"[(1132, 901)]",[],[1],[84],[1.4],"[640.0, 512.0]",horizontal,"(890.0, 262.0)",0,1
13,False,744,0.602,36,[],[],"[(1126, 883)]",[],[1],[64],[1.0666666666666667],"[640.0, 512.0]",vertical,"(390.0, 262.0)",0,1
13,False,745,0.981,58,[],[],"[(1125, 900)]",[],[1],[96],[1.6],"[640.0, 512.0]",vertical,"(890.0, 762.0)",0,1
13,False,746,1.113,66,[],[],"[(1118, 956), (1162, 906)]",[],"[0, 1]",[95],[1.5833333333333333],"[640.0, 512.0]",vertical,"(890.0, 762.0)",0,1
13,False,747,0.564,33,[],[],"[(1141, 907)]",[],[1],[62],[1.0333333333333332],"[640.0, 512.0]",vertical,"(390.0, 762.0)",0,1
13,False,748,1.215,72,[],[],"[(1134, 898)]",[],[1],[97],[1.6166666666666667],"[640.0, 512.0]",horizontal,"(890.0, 262.0)",0,1
13,False,749,0.771,46,[],[],"[(1140, 897)]",[],[1],[72],[1.2],"[640.0, 512.0]",vertical,"(390.0, 262.0)",0,1
13,False,750,1.111,66,[],[],"[(1117, 902)]",[],[1],[105],[1.75],"[640.0, 512.0]",horizontal,"(890.0, 262.0)",0,1
13,False,751,0.677,40,[],[],"[(1107, 884)]",[],[1],[70],[1.1666666666666667],"[640.0, 512.0]",horizontal,"(390.0, 762.0)",0,1
13,False,752,1.194,71,[],[3560881],"[(1139, 922)]","[(1139, 922)]",[1],[4],[0.06666666666666667],"[640.0, 512.0]",horizontal,"(890.0, 262.0)",0,0
13,False,753,0.709,42,[],[],"[(1141, 908)]",[],[1],[75],[1.25],"[640.0, 512.0]",vertical,"(390.0, 762.0)",0,1
13,False,754,1.059,63,[],[],"[(1127, 904)]",[],[1],[89],[1.4833333333333334],"[640.0, 512.0]",vertical,"(890.0, 262.0)",0,1
13,False,755,1.016,60,[],[],"[(1148, 895)]",[],[1],[87],[1.45],"[640.0, 512.0]",vertical,"(890.0, 262.0)",0,1
13,False,756,0.486,29,[],[],"[(1143, 893)]",[],[1],[57],[0.95],"[640.0, 512.0]",horizontal,"(890.0, 262.0)",0,1
13,False,757,0.701,42,[],[],"[(1130, 899)]",[],[1],[76],[1.2666666666666666],"[640.0, 512.0]",horizontal,"(390.0, 762.0)",0,1
13,False,758,0.871,52,[],[],"[(1141, 893)]",[],[1],[82],[1.3666666666666667],"[640.0, 512.0]",horizontal,"(390.0, 762.0)",0,1
13,False,759,0.553,33,[],[],"[(1118, 902)]",[],[1],[66],[1.1],"[640.0, 512.0]",vertical,"(890.0, 762.0)",0,1
13,False,760,0.796,47,[],[],"[(1138, 907)]",[],[1],[75],[1.25],"[640.0, 512.0]",horizontal,"(390.0, 262.0)",0,1
13,False,761,0.841,50,[],[],"[(1146, 904)]",[],[1],[77],[1.2833333333333332],"[640.0, 512.0]",vertical,"(390.0, 762.0)",0,1
13,False,762,0.752,45,[],[],"[(1137, 906)]",[],[1],[73],[1.2166666666666666],"[640.0, 512.0]",vertical,"(390.0, 762.0)",0,1
13,False,763,1.117,67,[],[],"[(1140, 904)]",[],[1],[94],[1.5666666666666667],"[640.0, 512.0]",horizontal,"(890.0, 262.0)",0,1
13,False,764,1.247,74,[],[],"[(1144, 916)]",[],[1],[97],[1.6166666666666667],"[640.0, 512.0]",horizontal,"(390.0, 262.0)",0,1
13,False,765,1.482,88,[],[],"[(1153, 905)]",[],[1],[119],[1.9833333333333334],"[640.0, 512.0]",horizontal,"(890.0, 762.0)",0,1
13,False,766,1.193,71,[],[],"[(1145, 899)]",[],[1],[101],[1.6833333333333333],"[640.0, 512.0]",vertical,"(890.0, 762.0)",0,1
13,False,767,1.078,64,[],[],"[(1144, 910)]",[],[1],[93],[1.55],"[640.0, 512.0]",vertical,"(890.0, 762.0)",0,1
13,False,768,1.035,62,[],[],"[(1137, 907)]",[],[1],"[112, 112]","[1.8666666666666667, 1.8666666666666667]","[640.0, 512.0]",horizontal,"(390.0, 762.0)",0,0
13,False,769,0.389,23,[],[],"[(1128, 886)]",[],[1],[51],[0.85],"[640.0, 512.0]",vertical,"(390.0, 262.0)",0,1
13,False,770,0.454,27,[],[],"[(1121, 904)]",[],[1],[56],[0.9333333333333333],"[640.0, 512.0]",horizontal,"(390.0, 762.0)",0,1
13,False,771,0.8,48,[],[],"[(1124, 878)]",[],[1],[80],[1.3333333333333333],"[640.0, 512.0]",horizontal,"(890.0, 762.0)",0,1
13,False,772,1.043,62,[],[],"[(1126, 906)]",[],[1],[90],[1.5],"[640.0, 512.0]",horizontal,"(890.0, 762.0)",0,1
13,False,773,1.3,78,[],[],"[(1124, 913)]",[],[1],[107],[1.7833333333333332],"[640.0, 512.0]",horizontal,"(390.0, 262.0)",0,1
13,False,774,0.571,34,[],[],"[(1143, 901)]",[],[1],[62],[1.0333333333333332],"[640.0, 512.0]",horizontal,"(890.0, 262.0)",0,1
13,False,775,0.956,57,[],[],"[(1154, 893)]",[],[1],[82],[1.3666666666666667],"[640.0, 512.0]",vertical,"(390.0, 262.0)",0,1
13,False,776,0.631,37,[],[],"[(1155, 896)]",[],[1],[66],[1.1],"[640.0, 512.0]",horizontal,"(390.0, 762.0)",0,1
13,False,777,0.604,36,[],[],"[(1156, 909)]",[],[1],[71],[1.1833333333333333],"[640.0, 512.0]",vertical,"(890.0, 762.0)",0,1
13,False,778,0.484,29,[],[],"[(1113, 891)]",[],[1],[65],[1.0833333333333333],"[640.0, 512.0]",horizontal,"(390.0, 762.0)",0,1
13,False,779,1.266,75,[],[],"[(1143, 896)]",[],[1],[102],[1.7],"[640.0, 512.0]",horizontal,"(390.0, 762.0)",0,1
13,False,780,0.691,41,[],[],"[(1135, 916)]",[],[1],[70],[1.1666666666666667],"[640.0, 512.0]",vertical,"(890.0, 262.0)",0,1
14,False,781,0.457,27,[],[],"[(1142, 891)]",[],[1],[62],[1.0333333333333332],"[640.0, 512.0]",horizontal,"(890.0, 762.0)",0,1
14,False,782,0.835,50,[],[],"[(1118, 927)]",[],[1],[79],[1.3166666666666667],"[640.0, 512.0]",horizontal,"(390.0, 762.0)",0,1
14,False,783,0.314,18,[],[],"[(1111, 911)]",[],[1],[47],[0.7833333333333333],"[640.0, 512.0]",vertical,"(390.0, 262.0)",0,1
14,False,784,1.026,61,[],[],"[(1130, 901)]",[],[1],[104],[1.7333333333333334],"[640.0, 512.0]",horizontal,"(890.0, 762.0)",0,1
14,False,785,1.072,64,[],[],"[(1122, 901)]",[],[1],[96],[1.6],"[640.0, 512.0]",horizontal,"(390.0, 262.0)",0,1
14,False,786,0.634,38,[],[],"[(1145, 909)]",[],[1],[68],[1.1333333333333333],"[640.0, 512.0]",horizontal,"(890.0, 762.0)",0,1
14,False,787,0.847,50,[],[],"[(1153, 900)]",[],[1],[78],[1.3],"[640.0, 512.0]",horizontal,"(890.0, 762.0)",0,1
14,False,788,0.974,58,[],[],"[(1150, 920)]",[],[1],[85],[1.4166666666666667],"[640.0, 512.0]",vertical,"(890.0, 762.0)",0,1
14,False,789,0.527,31,[],[],"[(1144, 899)]",[],[1],[63],[1.05],"[640.0, 512.0]",horizontal,"(390.0, 262.0)",0,1
14,False,790,0.86,51,[],[],"[(1124, 907)]",[],[1],[75],[1.25],"[640.0, 512.0]",vertical,"(890.0, 262.0)",0,1
14,False,791,0.362,21,[],[],"[(1121, 909)]",[],[1],[57],[0.95],"[640.0, 512.0]",horizontal,"(890.0, 762.0)",0,1
14,False,792,1.322,79,[],[],"[(1120, 897)]",[],[1],[106],[1.7666666666666666],"[640.0, 512.0]",vertical,"(890.0, 262.0)",0,1
14,False,793,0.454,27,[],[],"[(1138, 904)]",[],[1],[55],[0.9166666666666666],"[640.0, 512.0]",vertical,"(390.0, 262.0)",0,1
14,False,794,0.774,46,[],[],"[(1141, 906)]",[],[1],[84],[1.4],"[640.0, 512.0]",horizontal,"(390.0, 262.0)",0,1
14,False,795,1.476,88,[],[],"[(1130, 902)]",[],[1],[113],[1.8833333333333333],"[640.0, 512.0]",vertical,"(390.0, 262.0)",0,1
14,False,796,0.765,45,[],[],"[(1132, 909)]",[],[1],[72],[1.2],"[640.0, 512.0]",vertical,"(390.0, 762.0)",0,1
14,False,797,0.547,32,[],[],"[(1135, 909)]",[],[1],[60],[1.0],"[640.0, 512.0]",vertical,"(890.0, 762.0)",0,1
14,False,798,0.904,54,[],[],"[(1142, 896)]",[],[1],[89],[1.4833333333333334],"[640.0, 512.0]",vertical,"(390.0, 762.0)",0,1
14,False,799,1.177,70,[],[],"[(1134, 887)]",[],[1],[100],[1.6666666666666667],"[640.0, 512.0]",horizontal,"(390.0, 762.0)",0,1
14,False,800,1.014,60,[],[],"[(1134, 899)]",[],[1],[86],[1.4333333333333333],"[640.0, 512.0]",vertical,"(390.0, 262.0)",0,1
14,False,801,1.104,66,[],[],"[(1132, 896)]",[],[1],[94],[1.5666666666666667],"[640.0, 512.0]",horizontal,"(390.0, 262.0)",0,1
14,False,802,1.254,75,[],[],"[(1140, 893)]",[],[1],[102],[1.7],"[640.0, 512.0]",horizontal,"(390.0, 762.0)",0,1
14,False,803,1.14,68,[],[],"[(1125, 910)]",[],[1],[93],[1.55],"[640.0, 512.0]",horizontal,"(390.0, 262.0)",0,1
14,False,804,0.644,38,[],[],"[(1140, 905)]",[],[1],[67],[1.1166666666666667],"[640.0, 512.0]",vertical,"(390.0, 762.0)",0,1
14,False,805,1.227,73,[],[],"[(1127, 890)]",[],[1],[123],[2.05],"[640.0, 512.0]",horizontal,"(890.0, 262.0)",0,0
14,False,806,0.828,49,[],[],"[(1124, 896)]",[],[1],[85],[1.4166666666666667],"[640.0, 512.0]",horizontal,"(890.0, 762.0)",0,1
14,False,807,0.942,56,[],[],"[(1142, 894)]",[],[1],[83],[1.3833333333333333],"[640.0, 512.0]",horizontal,"(890.0, 262.0)",0,1
14,False,808,0.711,42,[],[],"[(1124, 910)]",[],[1],[74],[1.2333333333333334],"[640.0, 512.0]",horizontal,"(390.0, 262.0)",0,1
14,False,809,0.868,52,[],[],"[(1132, 908)]",[],[1],[97],[1.6166666666666667],"[640.0, 512.0]",horizontal,"(390.0, 262.0)",0,1
14,False,810,0.904,54,[],[],"[(1127, 902)]",[],[1],[81],[1.35],"[640.0, 512.0]",horizontal,"(890.0, 762.0)",0,1
14,False,811,1.205,72,[],[],"[(1144, 901)]",[],[1],[111],[1.8499999999999999],"[640.0, 512.0]",horizontal,"(890.0, 762.0)",0,1
14,False,812,0.573,34,[],[],"[(1131, 909)]",[],[1],[63],[1.05],"[640.0, 512.0]",vertical,"(390.0, 762.0)",0,1
14,False,813,0.722,43,[],[],"[(1150, 889)]",[],[1],[70],[1.1666666666666667],"[640.0, 512.0]",vertical,"(890.0, 262.0)",0,1
14,False,814,0.991,59,[],[],"[(1146, 901)]",[],[1],[87],[1.45],"[640.0, 512.0]",horizontal,"(390.0, 762.0)",0,1
14,False,815,0.505,30,[],[],"[(1131, 903)]",[],[1],[61],[1.0166666666666666],"[640.0, 512.0]",horizontal,"(890.0, 762.0)",0,1
14,False,816,0.79,47,[],[],"[(1127, 902)]",[],[1],[72],[1.2],"[640.0, 512.0]",vertical,"(890.0, 262.0)",0,1
14,False,817,1.138,68,[],[],"[(1137, 901)]",[],[1],[89],[1.4833333333333334],"[640.0, 512.0]",vertical,"(390.0, 262.0)",0,1
14,False,818,1.196,71,[],[],"[(1148, 895)]",[],[1],[99],[1.65],"[640.0, 512.0]",vertical,"(890.0, 762.0)",0,1
14,False,819,1.018,61,[],[],"[(1142, 902)]",[],[1],[89],[1.4833333333333334],"[640.0, 512.0]",horizontal,"(390.0, 762.0)",0,1
14,False,820,0.411,24,[],[],"[(1140, 899)]",[],[1],[68],[1.1333333333333333],"[640.0, 512.0]",vertical,"(890.0, 262.0)",0,1
14,False,821,0.837,50,[],[],"[(1138, 897)]",[],[1],[76],[1.2666666666666666],"[640.0, 512.0]",horizontal,"(890.0, 262.0)",0,1
14,False,822,1.17,70,[],[],"[(1136, 898)]",[],[1],[97],[1.6166666666666667],"[640.0, 512.0]",horizontal,"(390.0, 762.0)",0,1
14,False,823,1.132,67,[],[],"[(1161, 919)]",[],[1],[100],[1.6666666666666667],"[640.0, 512.0]",vertical,"(390.0, 762.0)",0,1
14,False,824,0.748,44,[],[],"[(1123, 898)]",[],[1],[71],[1.1833333333333333],"[640.0, 512.0]",vertical,"(390.0, 262.0)",0,1
14,False,825,0.868,52,[],[],"[(1135, 899)]",[],[1],[80],[1.3333333333333333],"[640.0, 512.0]",horizontal,"(890.0, 762.0)",0,1
14,False,826,0.328,19,[],[],"[(1129, 910)]",[],[1],[48],[0.8],"[640.0, 512.0]",horizontal,"(890.0, 762.0)",0,1
