block,trial,trial_type,taps_start_loc_during_fix,taps_end_loc_during_fix,taps_on_lever_during_fix,taps_on_lever_s_during_fix,bar_orientation,target_xy,cti,rt,acc,time,pulses,fa_rate_recent100,actual_invalid_type
0,1,invalid_adjacent_other_bar,"[(1030, 863)]",[],[1],[0.36666666666666664],vertical,"(390.0, 762.0)",0.9833333333333333,0.329,1,0.756,1,0.0,other
0,2,invalid_adjacent_other_bar,"[(994, 868), (999, 828), (1070, 887)]",[],"[0, 0, 1]",[0.48333333333333334],vertical,"(390.0, 262.0)",0.43333333333333335,0.44,1,7.436,1,0.0,other
0,3,invalid_same_bar,"[(1085, 860)]",[],[1],[0.6],horizontal,"(390.0, 262.0)",0.5166666666666666,0.558,1,16.527,1,0.0,same
0,4,valid,"[(1109, 807)]",[],[1],[0.5],vertical,"(890.0, 762.0)",0.5166666666666666,0.463,1,154.136,2,0.0,same
0,5,catch,"[(1123, 821)]",[],[1],[],vertical,"(390.0, 762.0)",1.7,nan,1,159.536,2,0.0,same
0,6,catch,"[(1124, 810)]",[],[1],[],vertical,"(890.0, 262.0)",1.7,nan,1,165.135,2,0.0,same
0,7,invalid_adjacent_other_bar,"[(1127, 790)]",[],[1],[0.5],horizontal,"(390.0, 762.0)",1.4,0.456,1,170.669,3,0.0,other
0,8,invalid_adjacent_other_bar,"[(1121, 794)]",[],[1],[0.5166666666666666],vertical,"(390.0, 262.0)",0.75,0.473,1,177.375,3,0.0,other
0,9,catch,"[(1119, 782)]",[],[1],[],vertical,"(390.0, 262.0)",1.7,nan,1,183.001,3,0.0,same
0,10,invalid_same_bar,"[(1125, 790)]",[],[1],[0.85],horizontal,"(390.0, 762.0)",0.65,nan,0,189.352,0,0.0,same
0,11,invalid_same_bar,"[(1106, 854)]",[],[1],[0.36666666666666664],horizontal,"(390.0, 262.0)",1.5166666666666666,0.331,1,193.899,1,0.0,same
0,12,valid,"[(1134, 786)]",[],[1],[0.65],vertical,"(390.0, 262.0)",0.5666666666666667,0.606,1,199.606,1,0.0,same
0,13,valid,"[(1132, 772)]",[],[1],[0.48333333333333334],horizontal,"(890.0, 262.0)",1.0333333333333332,0.45,1,204.259,1,0.0,same
0,14,catch,"[(1158, 796)]",[],[1],[],horizontal,"(890.0, 262.0)",1.7,nan,1,209.119,2,0.0,same
0,15,valid,"[(1168, 787)]",[],[1],[0.5],horizontal,"(390.0, 762.0)",0.9,0.453,1,215.055,2,0.0,same
0,16,valid,"[(1132, 779)]",[],[1],[0.6833333333333333],horizontal,"(890.0, 762.0)",0.95,0.639,1,219.986,2,0.0,same
0,17,valid,"[(1126, 782)]",[],[1],[0.65],horizontal,"(390.0, 762.0)",1.0166666666666666,0.608,1,225.931,3,0.0,same
0,18,valid,"[(1151, 786)]",[],[1],[0.85],vertical,"(890.0, 762.0)",1.3666666666666667,nan,0,231.963,0,0.0,same
0,19,valid,"[(1111, 807)]",[],[1],[0.5166666666666666],vertical,"(890.0, 262.0)",0.7166666666666667,0.471,1,236.902,1,0.0,same
0,20,invalid_same_bar,"[(1164, 791)]",[],[1],[0.85],horizontal,"(390.0, 262.0)",1.0,nan,0,241.895,0,0.0,same
0,21,valid,"[(1119, 805)]",[],[1],[0.5166666666666666],horizontal,"(390.0, 762.0)",1.5166666666666666,0.472,1,246.771,1,0.0,same
0,22,valid,"[(1167, 799)]",[],[1],[0.4666666666666667],horizontal,"(390.0, 262.0)",1.35,0.43,1,252.188,1,0.0,same
0,23,catch,"[(1154, 773)]",[],[1],[],horizontal,"(390.0, 262.0)",1.7,nan,1,257.845,1,0.0,same
0,24,valid,"[(1126, 772)]",[],[1],[0.85],horizontal,"(390.0, 762.0)",1.0,nan,0,262.986,0,0.0,same
0,25,invalid_adjacent_other_bar,"[(1114, 801)]",[],[1],[0.5166666666666666],horizontal,"(390.0, 262.0)",1.3333333333333333,0.471,1,267.869,1,0.0,other
0,26,invalid_same_bar,"[(1159, 791)]",[],[1],[0.6333333333333333],horizontal,"(890.0, 262.0)",1.5333333333333332,0.586,1,273.015,1,0.0,same
0,27,valid,"[(1151, 796)]",[],[1],[0.7166666666666667],vertical,"(390.0, 762.0)",1.3666666666666667,0.67,1,278.669,1,0.0,same
0,28,catch,"[(1129, 786)]",[],[1],[],vertical,"(390.0, 262.0)",1.7,nan,1,284.236,2,0.0,same
0,29,valid,"[(1134, 796)]",[],[1],[0.6333333333333333],vertical,"(390.0, 262.0)",0.48333333333333334,0.59,1,290.57,2,0.0,same
0,30,catch,"[(1133, 789)]",[],[1],[],vertical,"(390.0, 262.0)",1.7,nan,1,295.753,2,0.0,same
0,31,catch,"[(1157, 786)]",[],[1],[],vertical,"(890.0, 262.0)",1.7,nan,1,301.501,3,0.0,same
0,32,valid,"[(1168, 786)]",[],[1],[0.5333333333333333],horizontal,"(890.0, 262.0)",0.55,0.486,1,307.918,3,0.0,same
0,33,catch,"[(1162, 786)]",[],[1],[],vertical,"(390.0, 262.0)",1.7,nan,1,313.196,3,0.0,same
0,34,valid,"[(1160, 796)]",[],[1],[0.55],vertical,"(390.0, 762.0)",0.8833333333333333,0.511,1,319.268,3,0.0,same
0,35,invalid_adjacent_other_bar,"[(1163, 799)]",[],[1],[0.5],vertical,"(890.0, 262.0)",0.6666666666666666,0.46,1,324.852,3,0.0,other
0,36,valid,"[(1160, 800)]",[],[1],[0.6333333333333333],horizontal,"(890.0, 762.0)",0.4,0.589,1,330.117,3,0.0,same
0,37,valid,"[(1161, 791)]",[],[1],[0.6],horizontal,"(890.0, 762.0)",0.6666666666666666,0.56,1,335.803,3,0.0,same
0,38,valid,"[(1158, 787)]",[],[1],[0.2],vertical,"(890.0, 762.0)",1.2166666666666666,0.168,0,341.097,0,0.0,same
0,39,catch,"[(1118, 804)]",[],[1],[],horizontal,"(890.0, 762.0)",1.7,nan,1,345.478,1,0.0,same
0,40,invalid_same_bar,"[(1161, 794)]",[],[1],[0.85],vertical,"(390.0, 262.0)",1.5166666666666666,nan,0,350.453,0,0.0,same
0,41,valid,"[(1141, 804)]",[],[1],[0.6666666666666666],horizontal,"(390.0, 262.0)",0.8333333333333334,0.616,1,355.674,1,0.0,same
0,42,valid,"[(1167, 794)]",[],[1],[0.5333333333333333],vertical,"(890.0, 762.0)",1.0166666666666666,0.489,1,360.87,1,0.0,same
0,43,catch,"[(1174, 790)]",[],[1],[],horizontal,"(890.0, 762.0)",1.7,nan,1,365.958,1,0.0,same
0,44,valid,"[(1155, 779)]",[],[1],[0.6166666666666667],horizontal,"(390.0, 262.0)",1.0833333333333333,0.567,1,371.169,2,0.0,same
0,45,catch,"[(1156, 777)]",[],[1],[],horizontal,"(890.0, 762.0)",1.7,nan,1,377.198,2,0.0,same
0,46,catch,"[(1106, 827)]",[],[1],[],vertical,"(390.0, 762.0)",1.7,nan,1,382.669,2,0.0,same
0,47,valid,"[(1146, 804)]",[],[1],[0.55],vertical,"(890.0, 262.0)",1.15,0.512,1,388.42,3,0.0,same
0,48,valid,"[(1176, 773)]",[],[1],[0.6833333333333333],vertical,"(390.0, 262.0)",1.2833333333333332,0.648,1,394.785,3,0.0,same
0,49,catch,"[(1130, 781)]",[],[1],[],horizontal,"(890.0, 762.0)",1.7,nan,1,400.526,3,0.0,same
0,50,catch,"[(1131, 787)]",[],[1],[],vertical,"(890.0, 262.0)",1.7,nan,1,406.703,3,0.0,same
0,51,valid,"[(1156, 779)]",[],[1],[0.5],vertical,"(390.0, 262.0)",0.8,0.464,1,412.853,3,0.0,same
0,52,valid,"[(1175, 783)]",[],[1],[0.6],horizontal,"(890.0, 762.0)",0.45,0.556,1,418.652,3,0.0,same
0,53,valid,"[(1156, 773)]",[],[1],[0.6333333333333333],horizontal,"(390.0, 262.0)",0.5666666666666667,0.589,1,424.135,3,0.0,same
0,54,catch,"[(1164, 786)]",[],[1],[],horizontal,"(890.0, 762.0)",1.7,nan,1,429.735,3,0.0,same
0,55,invalid_same_bar,"[(1171, 799)]",[],[1],[0.4666666666666667],vertical,"(390.0, 262.0)",0.8,0.424,1,435.991,3,0.0,same
0,56,valid,"[(1156, 778)]",[],[1],[0.55],vertical,"(390.0, 762.0)",1.3666666666666667,0.507,1,441.344,3,0.0,same
0,57,valid,"[(1157, 786)]",[],[1],[0.5333333333333333],vertical,"(390.0, 762.0)",0.35,0.489,1,447.809,3,0.0,same
0,58,valid,"[(1156, 774)]",[],[1],[0.85],vertical,"(890.0, 762.0)",1.2333333333333334,nan,0,453.017,0,0.0,same
0,59,valid,"[(1127, 791)]",[],[1],[0.85],horizontal,"(890.0, 262.0)",0.4166666666666667,nan,0,457.834,0,0.0,same
0,60,valid,"[(1124, 789)]",[],[1],[0.6833333333333333],vertical,"(390.0, 762.0)",1.4666666666666666,0.642,1,462.013,1,0.0,same
0,61,catch,"[(1171, 786)]",[],[1],[],horizontal,"(890.0, 762.0)",1.7,nan,1,468.01,1,0.0,same
0,62,valid,"[(1157, 786)]",[],[1],[0.48333333333333334],vertical,"(890.0, 262.0)",0.8,0.444,1,472.936,1,0.0,same
0,63,invalid_adjacent_other_bar,"[(1166, 777)]",[],[1],[0.85],vertical,"(390.0, 762.0)",1.3166666666666667,nan,0,477.435,0,0.0,other
0,64,catch,"[(1125, 795)]",[],[1],[],horizontal,"(390.0, 262.0)",1.7,nan,1,482.302,1,0.0,same
0,65,valid,"[(1155, 777)]",[],[1],[0.48333333333333334],horizontal,"(890.0, 762.0)",0.5333333333333333,0.441,1,487.173,1,0.0,same
0,66,invalid_same_bar,"[(1156, 785)]",[],[1],[0.45],horizontal,"(390.0, 262.0)",1.1333333333333333,0.406,1,491.701,1,0.0,same
0,67,valid,"[(1155, 795)]",[],[1],[0.6333333333333333],horizontal,"(890.0, 262.0)",0.9666666666666667,0.586,1,497.266,2,0.0,same
0,68,invalid_adjacent_other_bar,"[(1154, 783)]",[],[1],[0.65],vertical,"(890.0, 762.0)",0.6,0.608,1,502.586,2,0.0,other
0,69,valid,"[(1156, 801)]",[],[1],[0.85],vertical,"(390.0, 262.0)",1.3166666666666667,nan,0,507.724,0,0.0,same
0,70,valid,"[(1116, 793)]",[],[1],[0.5833333333333334],horizontal,"(890.0, 762.0)",1.1833333333333333,0.541,1,512.856,1,0.0,same
0,71,invalid_same_bar,"[(1156, 784)]",[],[1],[0.55],vertical,"(390.0, 262.0)",1.5333333333333332,0.51,1,518.452,1,0.0,same
0,72,valid,"[(1170, 786)]",[],[1],[0.5833333333333334],vertical,"(390.0, 762.0)",1.1833333333333333,0.538,1,524.205,1,0.0,same
0,73,valid,"[(1160, 786)]",[],[1],[0.5],horizontal,"(890.0, 762.0)",1.3,0.464,1,529.498,2,0.0,same
0,74,invalid_adjacent_other_bar,"[(1175, 786)]",[],[1],[0.5],horizontal,"(890.0, 762.0)",1.0,0.464,1,535.542,2,0.0,other
0,75,catch,"[(1171, 796)]",[],[1],[],vertical,"(890.0, 262.0)",1.7,nan,1,540.506,2,0.0,same
0,76,valid,"[(1157, 789)]",[],[1],[0.6666666666666666],vertical,"(890.0, 762.0)",1.3666666666666667,0.617,1,546.001,3,0.0,same
0,77,valid,"[(1171, 792)]",[],[1],[0.6166666666666667],vertical,"(390.0, 762.0)",1.0333333333333332,0.57,1,552.436,3,0.0,same
0,78,catch,"[(1159, 786)]",[],[1],[],vertical,"(890.0, 262.0)",1.7,nan,1,558.787,3,0.0,same
0,79,valid,"[(1174, 772)]",[],[1],[0.85],vertical,"(890.0, 762.0)",0.36666666666666664,nan,0,564.73,0,0.0,same
0,80,valid,"[(1107, 799)]",[],[1],[0.4666666666666667],vertical,"(890.0, 262.0)",1.3666666666666667,0.427,1,568.469,1,0.0,same
0,81,valid,"[(1153, 788)]",[],[1],[0.5],horizontal,"(390.0, 762.0)",0.8666666666666667,0.461,1,573.936,1,0.0,same
0,82,valid,"[(1159, 787)]",[],[1],[0.5666666666666667],horizontal,"(390.0, 762.0)",0.5833333333333334,0.524,1,579.185,1,0.0,same
0,83,valid,"[(1157, 782)]",[],[1],[0.55],vertical,"(890.0, 762.0)",0.65,0.51,1,583.882,2,0.0,same
0,84,catch,"[(1160, 766)]",[],[1],[],vertical,"(390.0, 762.0)",1.7,nan,1,588.904,2,0.0,same
0,85,valid,"[(1160, 778)]",[],[1],[0.4666666666666667],horizontal,"(890.0, 262.0)",0.65,0.428,1,594.42,2,0.0,same
0,86,catch,"[(1148, 786)]",[],[1],[],vertical,"(390.0, 262.0)",1.7,nan,1,599.487,3,0.0,same
0,87,invalid_adjacent_other_bar,"[(1176, 779)]",[],[1],[0.5],horizontal,"(390.0, 262.0)",0.43333333333333335,0.457,1,605.504,3,0.0,other
0,88,invalid_adjacent_other_bar,"[(1156, 782)]",[],[1],[0.5],horizontal,"(390.0, 262.0)",1.4,0.46,1,610.921,3,0.0,other
0,89,valid,"[(1159, 792)]",[],[1],[0.48333333333333334],horizontal,"(390.0, 262.0)",1.35,0.442,1,617.406,3,0.0,same
0,90,invalid_adjacent_other_bar,"[(1169, 794)]",[],[1],[0.85],horizontal,"(890.0, 762.0)",0.7666666666666666,nan,0,623.214,0,0.0,other
0,91,invalid_adjacent_other_bar,"[(1116, 790)]",[],[1],[0.5333333333333333],horizontal,"(390.0, 762.0)",1.4666666666666666,0.489,1,628.051,1,0.0,other
0,92,valid,"[(1160, 782)]",[],[1],[0.85],horizontal,"(390.0, 762.0)",0.4,nan,0,633.987,0,0.0,same
0,93,catch,"[(1151, 791)]",[],[1],[],horizontal,"(890.0, 762.0)",1.7,nan,1,638.248,1,0.0,same
0,94,valid,"[(1136, 798)]",[],[1],[0.55],vertical,"(390.0, 262.0)",1.05,0.515,1,643.294,1,0.0,same
0,95,valid,"[(1170, 778)]",[],[1],[0.75],horizontal,"(390.0, 762.0)",1.2,0.714,1,648.374,1,0.0,same
0,96,valid,"[(1175, 792)]",[],[1],[0.7166666666666667],horizontal,"(390.0, 762.0)",0.4666666666666667,0.672,1,653.52,2,0.0,same
0,97,valid,"[(1170, 781)]",[],[1],[0.5166666666666666],vertical,"(890.0, 762.0)",1.5,0.48,1,658.853,2,0.0,same
0,98,invalid_adjacent_other_bar,"[(1160, 778)]",[],[1],[0.8166666666666667],vertical,"(890.0, 762.0)",0.7,0.769,1,664.853,2,0.0,other
0,99,valid,"[(1171, 787)]",[],[1],[0.5166666666666666],horizontal,"(390.0, 262.0)",0.8833333333333333,0.477,1,670.32,3,0.0,same
0,100,catch,"[(1175, 782)]",[],[1],[],vertical,"(890.0, 262.0)",1.7,nan,1,675.635,3,0.0,same
0,101,valid,"[(1161, 787)]",[],[1],[0.6333333333333333],vertical,"(890.0, 262.0)",0.85,0.59,1,681.758,3,0.0,same
0,102,valid,"[(1175, 772)]",[],[1],[0.5333333333333333],vertical,"(390.0, 762.0)",0.5666666666666667,0.498,1,687.102,3,0.0,same
0,103,valid,"[(1140, 791)]",[],[1],[0.85],vertical,"(890.0, 762.0)",1.05,nan,0,692.271,0,0.0,same
0,104,valid,"[(1116, 784)]",[],[1],[0.5666666666666667],vertical,"(390.0, 262.0)",0.9833333333333333,0.527,1,697.148,1,0.0,same
0,105,valid,"[(1160, 776)]",[],[1],[0.5333333333333333],vertical,"(890.0, 762.0)",0.7833333333333333,0.488,1,702.519,1,0.0,same
0,106,valid,"[(1144, 786)]",[],[1],[0.7333333333333333],horizontal,"(890.0, 762.0)",0.45,0.688,1,707.262,1,0.0,same
0,107,catch,"[(1160, 785)]",[],[1],[],horizontal,"(890.0, 262.0)",1.7,nan,1,711.738,2,0.0,same
0,108,valid,"[(1171, 787)]",[],[1],[0.26666666666666666],vertical,"(890.0, 262.0)",1.35,0.234,1,717.065,2,0.0,same
0,109,valid,"[(1156, 786)]",[],[1],[0.5],horizontal,"(890.0, 262.0)",1.3,0.464,1,722.937,2,0.0,same
0,110,valid,"[(1147, 801)]",[],[1],[0.5],vertical,"(890.0, 762.0)",1.4333333333333333,0.465,1,728.871,3,0.0,same
0,111,valid,"[(1171, 784)]",[],[1],[0.6],vertical,"(390.0, 762.0)",0.8833333333333333,0.56,1,734.982,3,0.0,same
0,112,catch,"[(1200, 793)]",[],[1],[],vertical,"(890.0, 262.0)",1.7,nan,1,741.031,3,0.0,same
0,113,valid,"[(1176, 766)]",[],[1],[0.6],vertical,"(890.0, 762.0)",0.75,0.564,1,747.051,3,0.0,same
0,114,valid,"[(1178, 789)]",[],[1],[0.48333333333333334],vertical,"(390.0, 262.0)",0.7166666666666667,0.447,1,752.513,3,0.0,same
0,115,catch,"[(1154, 786)]",[],[1],[],vertical,"(390.0, 262.0)",1.7,nan,1,757.765,3,0.0,same
0,116,catch,"[(1175, 810)]",[],[1],[],horizontal,"(890.0, 762.0)",1.7,nan,1,763.421,3,0.0,same
0,117,valid,"[(1151, 784)]",[],[1],[0.5333333333333333],horizontal,"(890.0, 262.0)",1.2666666666666666,0.497,1,769.304,3,0.0,same
0,118,valid,"[(1156, 777)]",[],[1],[0.5166666666666666],vertical,"(390.0, 262.0)",0.5833333333333334,0.48,1,775.81,3,0.0,same
0,119,valid,"[(1175, 807)]",[],[1],[0.48333333333333334],horizontal,"(390.0, 262.0)",1.0833333333333333,0.445,1,781.252,3,0.0,same
0,120,valid,"[(1136, 801)]",[],[1],[0.6166666666666667],vertical,"(890.0, 262.0)",0.6666666666666666,0.576,1,787.19,3,0.0,same
0,121,catch,"[(1161, 786)]",[],[1],[],vertical,"(390.0, 762.0)",1.7,nan,1,792.72,3,0.0,same
0,122,catch,"[(1175, 766)]",[],[1],[],vertical,"(390.0, 762.0)",1.7,nan,1,799.036,3,0.0,same
0,123,catch,"[(1131, 778)]",[],[1],[],vertical,"(390.0, 762.0)",1.7,nan,1,804.784,3,0.0,same
0,124,valid,"[(1177, 780)]",[],[1],[0.85],horizontal,"(390.0, 262.0)",0.7166666666666667,nan,0,811.428,0,0.0,same
0,125,invalid_same_bar,"[(1126, 793)]",[],[1],[0.5],horizontal,"(890.0, 262.0)",0.95,0.464,1,815.851,1,0.0,same
0,126,valid,"[(1178, 785)]",[],[1],[0.85],horizontal,"(390.0, 262.0)",1.45,nan,0,820.671,0,0.0,same
0,127,valid,"[(1160, 781)]",[],[1],[0.45],vertical,"(390.0, 762.0)",1.0666666666666667,0.412,1,825.473,1,0.0,same
0,128,invalid_adjacent_other_bar,"[(1161, 775)]",[],[1],[0.85],horizontal,"(390.0, 262.0)",1.0,nan,0,830.429,0,0.0,other
0,129,valid,"[(1125, 791)]",[],[1],[0.5333333333333333],horizontal,"(890.0, 762.0)",0.6,0.494,1,835.515,1,0.0,same
0,130,valid,"[(1157, 776)]",[],[1],[0.4666666666666667],horizontal,"(890.0, 262.0)",1.4833333333333334,0.434,1,839.976,1,0.0,same
0,131,valid,"[(1172, 792)]",[],[1],[0.5833333333333334],horizontal,"(390.0, 762.0)",0.5833333333333334,0.543,1,844.959,1,0.0,same
0,132,catch,"[(1159, 786)]",[],[1],[],horizontal,"(890.0, 762.0)",1.7,nan,1,849.627,2,0.0,same
0,133,invalid_adjacent_other_bar,"[(1174, 786)]",[],[1],[0.5333333333333333],vertical,"(890.0, 762.0)",0.5666666666666667,0.494,1,855.471,2,0.0,other
0,134,valid,"[(1161, 791)]",[],[1],[0.5666666666666667],horizontal,"(390.0, 762.0)",1.2,0.525,1,860.221,2,0.0,same
0,135,valid,"[(1161, 780)]",[],[1],[0.5],horizontal,"(890.0, 762.0)",0.7666666666666666,0.461,1,866.27,3,0.0,same
0,136,valid,"[(1169, 773)]",[],[1],[0.5],vertical,"(390.0, 762.0)",0.9166666666666666,0.461,1,872.017,3,0.0,same
0,137,valid,"[(1163, 777)]",[],[1],[0.6],vertical,"(890.0, 762.0)",0.4166666666666667,0.554,1,877.571,3,0.0,same
0,138,invalid_same_bar,"[(1175, 786)]",[],[1],[0.5],horizontal,"(390.0, 262.0)",0.7666666666666666,0.46,1,883.404,3,0.0,same
0,139,invalid_same_bar,"[(1155, 766)]",[],[1],[0.5666666666666667],horizontal,"(390.0, 262.0)",0.7833333333333333,0.525,1,888.674,3,0.0,same
0,140,invalid_adjacent_other_bar,"[(1160, 782)]",[],[1],[0.85],horizontal,"(890.0, 262.0)",0.75,nan,0,894.27,0,0.0,other
0,141,valid,"[(1131, 781)]",[],[1],[0.5333333333333333],horizontal,"(890.0, 262.0)",0.9833333333333333,0.489,1,898.99,1,0.0,same
0,142,invalid_adjacent_other_bar,"[(1170, 776)]",[],[1],[0.48333333333333334],vertical,"(390.0, 762.0)",0.4166666666666667,0.441,1,904.154,1,0.0,other
0,143,invalid_adjacent_other_bar,"[(1164, 775)]",[],[1],[0.48333333333333334],horizontal,"(390.0, 262.0)",1.5166666666666666,0.451,1,908.67,1,0.0,other
0,144,valid,"[(1154, 781)]",[],[1],[0.5166666666666666],horizontal,"(390.0, 762.0)",0.7833333333333333,0.478,1,914.239,2,0.0,same
0,145,catch,"[(1175, 785)]",[],[1],[],horizontal,"(890.0, 262.0)",1.7,nan,1,919.567,2,0.0,same
0,146,catch,"[(1166, 771)]",[],[1],[],horizontal,"(890.0, 262.0)",1.7,nan,1,925.004,2,0.0,same
0,147,catch,"[(1175, 777)]",[],[1],[],horizontal,"(390.0, 262.0)",1.7,nan,1,930.544,3,0.0,same
0,148,valid,"[(1176, 787)]",[],[1],[0.4666666666666667],vertical,"(890.0, 262.0)",0.9,0.431,1,936.666,3,0.0,same
0,149,valid,"[(1153, 772)]",[],[1],[0.5166666666666666],vertical,"(890.0, 762.0)",0.6,0.474,1,942.362,3,0.0,same
0,150,catch,"[(1156, 776)]",[],[1],[],vertical,"(890.0, 262.0)",1.7,nan,1,947.853,3,0.0,same
0,151,valid,"[(1155, 783)]",[],[1],[0.5333333333333333],horizontal,"(890.0, 262.0)",1.3166666666666667,0.491,1,953.771,3,0.0,same
0,152,valid,"[(1153, 772)]",[],[1],[0.85],horizontal,"(390.0, 262.0)",1.4833333333333334,nan,0,959.852,0,0.0,same
0,153,invalid_same_bar,"[(1126, 786)]",[],[1],[0.5333333333333333],horizontal,"(390.0, 762.0)",0.6333333333333333,0.491,1,965.202,1,0.0,same
0,154,valid,"[(1155, 766)]",[],[1],[0.6],horizontal,"(890.0, 262.0)",1.0,0.564,1,970.053,1,0.0,same
0,155,valid,"[(1160, 772)]",[],[1],[0.5],vertical,"(390.0, 262.0)",0.6833333333333333,0.455,1,975.001,1,0.0,same
0,156,valid,"[(1164, 772)]",[],[1],[0.48333333333333334],horizontal,"(890.0, 262.0)",0.7333333333333333,0.444,1,979.584,2,0.0,same
0,157,catch,"[(1155, 772)]",[],[1],[],horizontal,"(890.0, 262.0)",1.7,nan,1,984.38,2,0.0,same
0,158,valid,"[(1153, 777)]",[],[1],[0.4666666666666667],vertical,"(390.0, 262.0)",1.3,0.43,1,990.149,2,0.0,same
0,159,valid,"[(1171, 790)]",[],[1],[0.5],vertical,"(390.0, 762.0)",1.45,0.456,1,995.899,3,0.0,same
0,160,catch,"[(1155, 790)]",[],[1],[],horizontal,"(390.0, 262.0)",1.7,nan,1,1001.904,3,0.0,same
0,161,invalid_adjacent_other_bar,"[(1175, 786)]",[],[1],[0.5166666666666666],vertical,"(390.0, 262.0)",1.1166666666666667,0.478,1,1007.716,3,0.0,other
0,162,invalid_adjacent_other_bar,"[(1160, 786)]",[],[1],[0.5],horizontal,"(890.0, 262.0)",0.48333333333333334,0.46,1,1013.637,3,0.0,other
0,163,valid,"[(1165, 789)]",[],[1],[0.5],horizontal,"(390.0, 762.0)",1.0833333333333333,0.459,1,1018.533,3,0.0,same
0,164,valid,"[(1157, 787)]",[],[1],[0.85],horizontal,"(390.0, 762.0)",0.5666666666666667,nan,0,1024.304,0,0.0,same
0,165,valid,"[(1126, 796)]",[],[1],[0.85],horizontal,"(890.0, 262.0)",0.9,nan,0,1028.52,0,0.0,same
0,166,valid,"[(1137, 791)]",[],[1],[0.45],vertical,"(390.0, 262.0)",1.2,0.411,1,1033.502,1,0.0,same
0,167,valid,"[(1156, 787)]",[],[1],[0.5166666666666666],vertical,"(890.0, 762.0)",0.43333333333333335,0.473,1,1038.688,1,0.0,same
0,168,catch,"[(1160, 791)]",[],[1],[],vertical,"(890.0, 262.0)",1.7,nan,1,1043.302,1,0.0,same
0,169,catch,"[(1153, 769)]",[],[1],[],vertical,"(890.0, 262.0)",1.7,nan,1,1048.57,2,0.0,same
0,170,invalid_adjacent_other_bar,"[(1166, 779)]",[],[1],[0.6833333333333333],vertical,"(890.0, 762.0)",0.8666666666666667,0.642,1,1054.2,2,0.0,other
0,171,valid,"[(1168, 786)]",[],[1],[0.85],horizontal,"(890.0, 762.0)",0.5333333333333333,nan,0,1059.403,0,0.0,same
0,172,invalid_adjacent_other_bar,"[(1088, 841)]",[],[1],[0.85],horizontal,"(390.0, 262.0)",0.6833333333333333,nan,0,1063.447,0,0.0,other
0,173,catch,"[(1124, 815)]",[],[1],[],vertical,"(390.0, 762.0)",1.7,nan,1,1084.887,1,0.0,same
0,174,catch,"[(1156, 786)]",[],[1],[],horizontal,"(890.0, 762.0)",1.7,nan,1,1090.281,1,0.0,same
0,175,valid,"[(1168, 790)]",[],[1],[0.5166666666666666],horizontal,"(890.0, 262.0)",1.1166666666666667,0.476,1,1095.738,1,0.0,same
0,176,catch,"[(1167, 789)]",[],[1],[],vertical,"(890.0, 762.0)",1.7,nan,1,1100.703,2,0.0,same
0,177,valid,"[(1162, 782)]",[],[1],[0.48333333333333334],vertical,"(890.0, 262.0)",1.3833333333333333,0.448,1,1106.832,2,0.0,same
0,178,valid,"[(1147, 794)]",[],[1],[0.6333333333333333],horizontal,"(890.0, 262.0)",1.5,0.587,1,1112.114,2,0.0,same
0,179,valid,"[(1175, 799)]",[],[1],[0.5666666666666667],vertical,"(390.0, 262.0)",1.2333333333333334,0.525,1,1118.037,3,0.0,same
0,180,catch,"[(1166, 783)]",[],[1],[],vertical,"(890.0, 262.0)",1.7,nan,1,1124.589,3,0.0,same
0,181,valid,"[(1167, 791)]",[],[1],[0.6333333333333333],horizontal,"(390.0, 762.0)",1.15,0.589,1,1130.72,3,0.0,same
0,182,catch,"[(1164, 785)]",[],[1],[],horizontal,"(890.0, 262.0)",1.7,nan,1,1136.602,3,0.0,same
0,183,valid,"[(1176, 763)]",[],[1],[0.5],vertical,"(390.0, 262.0)",0.95,0.46,1,1142.813,3,0.0,same
0,184,valid,"[(1170, 759)]",[],[1],[0.5166666666666666],vertical,"(890.0, 762.0)",0.48333333333333334,0.476,1,1148.632,3,0.0,same
0,185,catch,"[(1169, 782)]",[],[1],[],vertical,"(890.0, 762.0)",1.7,nan,1,1153.802,3,0.0,same
0,186,catch,"[(1151, 769)]",[],[1],[],horizontal,"(390.0, 262.0)",1.7,nan,1,1160.12,3,0.0,same
0,187,valid,"[(1160, 786)]",[],[1],[0.5333333333333333],vertical,"(890.0, 262.0)",1.1,0.488,1,1166.187,3,0.0,same
0,188,valid,"[(1160, 772)]",[],[1],[0.5333333333333333],vertical,"(890.0, 762.0)",0.43333333333333335,0.49,1,1172.441,3,0.0,same
0,189,valid,"[(1165, 790)]",[],[1],[0.5833333333333334],horizontal,"(390.0, 762.0)",0.36666666666666664,0.542,1,1178.0,3,0.0,same
0,190,valid,"[(1165, 776)]",[],[1],[0.48333333333333334],vertical,"(390.0, 762.0)",0.5833333333333334,0.441,1,1183.482,3,0.0,same
0,191,valid,"[(1165, 782)]",[],[1],[0.6833333333333333],vertical,"(390.0, 262.0)",1.5333333333333332,0.644,1,1188.994,3,0.0,same
0,192,valid,"[(1169, 777)]",[],[1],[0.5666666666666667],vertical,"(890.0, 762.0)",0.8166666666666667,0.526,1,1195.701,3,0.0,same
0,193,catch,"[(1165, 778)]",[],[1],[],horizontal,"(890.0, 762.0)",1.7,nan,1,1201.487,3,0.0,same
0,194,valid,"[(1165, 786)]",[],[1],[0.5],horizontal,"(390.0, 762.0)",0.5666666666666667,0.457,1,1207.905,3,0.0,same
0,195,catch,"[(1161, 789)]",[],[1],[],vertical,"(890.0, 262.0)",1.7,nan,1,1213.471,3,0.0,same
0,196,valid,"[(1165, 794)]",[],[1],[0.5166666666666666],horizontal,"(890.0, 262.0)",0.7166666666666667,0.476,1,1219.431,3,0.0,same
0,197,catch,"[(1165, 790)]",[],[1],[],horizontal,"(890.0, 762.0)",1.7,nan,1,1224.677,3,0.0,same
0,198,catch,"[(1160, 765)]",[],[1],[],horizontal,"(390.0, 762.0)",1.7,nan,1,1230.624,3,0.0,same
0,199,valid,"[(1171, 766)]",[],[1],[0.48333333333333334],vertical,"(890.0, 262.0)",1.2833333333333332,0.445,1,1236.971,3,0.0,same
0,200,valid,"[(1163, 764)]",[],[1],[0.4666666666666667],vertical,"(890.0, 262.0)",1.35,0.425,1,1242.754,3,0.0,same
0,201,valid,"[(1175, 791)]",[],[1],[0.5833333333333334],horizontal,"(890.0, 262.0)",0.8833333333333333,0.547,1,1248.536,3,0.0,same
0,202,invalid_adjacent_other_bar,"[(1165, 760)]",[],[1],[0.5666666666666667],horizontal,"(390.0, 762.0)",0.9,0.524,1,1254.421,3,0.0,other
0,203,invalid_same_bar,"[(1165, 788)]",[],[1],[0.5333333333333333],vertical,"(390.0, 262.0)",0.4166666666666667,0.493,1,1260.103,3,0.0,same
0,204,valid,"[(1155, 788)]",[],[1],[0.5166666666666666],vertical,"(390.0, 762.0)",0.4166666666666667,0.474,1,1265.61,3,0.0,same
0,205,invalid_adjacent_other_bar,"[(1160, 779)]",[],[1],[0.5166666666666666],horizontal,"(390.0, 762.0)",1.5333333333333332,0.474,1,1270.845,3,0.0,other
0,206,invalid_same_bar,"[(1165, 778)]",[],[1],[0.5666666666666667],vertical,"(390.0, 262.0)",1.4,0.525,1,1277.122,3,0.0,same
0,207,valid,"[(1149, 785)]",[],[1],[0.6666666666666666],horizontal,"(890.0, 262.0)",1.5333333333333332,0.629,1,1283.627,3,0.0,same
0,208,invalid_same_bar,"[(1155, 781)]",[],[1],[0.6833333333333333],vertical,"(390.0, 762.0)",1.5333333333333332,0.64,1,1290.289,3,0.0,same
0,209,invalid_same_bar,"[(1173, 782)]",[],[1],[0.6],horizontal,"(890.0, 762.0)",1.2,0.563,1,1296.771,3,0.0,same
0,210,catch,"[(1174, 783)]",[],[1],[],vertical,"(890.0, 762.0)",1.7,nan,1,1302.804,3,0.0,same
0,211,valid,"[(1155, 762)]",[],[1],[0.5166666666666666],horizontal,"(390.0, 762.0)",0.6333333333333333,0.476,1,1308.649,3,0.0,same
0,212,valid,"[(1175, 787)]",[],[1],[0.5666666666666667],vertical,"(890.0, 762.0)",0.7833333333333333,0.527,1,1314.055,3,0.0,same
0,213,valid,"[(1153, 783)]",[],[1],[0.5166666666666666],vertical,"(390.0, 762.0)",1.05,0.474,1,1319.601,3,0.0,same
0,214,valid,"[(1159, 772)]",[],[1],[0.4666666666666667],horizontal,"(890.0, 262.0)",0.6,0.427,1,1325.54,3,0.0,same
0,215,catch,"[(1174, 782)]",[],[1],[],vertical,"(890.0, 762.0)",1.7,nan,1,1331.255,3,0.0,same
0,216,invalid_adjacent_other_bar,"[(1165, 783)]",[],[1],[0.5666666666666667],vertical,"(390.0, 762.0)",1.4333333333333333,0.531,1,1337.292,3,0.0,other
0,217,valid,"[(1181, 762)]",[],[1],[0.5666666666666667],horizontal,"(390.0, 762.0)",1.1833333333333333,0.533,1,1343.773,3,0.0,same
0,218,catch,"[(1160, 782)]",[],[1],[],vertical,"(890.0, 262.0)",1.7,nan,1,1349.873,3,0.0,same
0,219,valid,"[(1148, 783)]",[],[1],[0.6166666666666667],horizontal,"(390.0, 762.0)",0.5333333333333333,0.574,1,1355.641,3,0.0,same
0,220,invalid_same_bar,"[(1165, 783)]",[],[1],[0.5666666666666667],vertical,"(890.0, 262.0)",1.1666666666666667,0.529,1,1361.391,3,0.0,same
0,221,valid,"[(1160, 782)]",[],[1],[0.8333333333333334],vertical,"(390.0, 762.0)",1.5,0.784,1,1367.463,3,0.0,same
0,222,catch,"[(1131, 778)]",[],[1],[],horizontal,"(890.0, 262.0)",1.7,nan,1,1374.255,3,0.0,same
0,223,valid,"[(1141, 781)]",[],[1],[0.6333333333333333],vertical,"(390.0, 262.0)",1.0833333333333333,0.588,1,1380.488,3,0.0,same
0,224,valid,"[(1175, 801)]",[],[1],[0.6],horizontal,"(390.0, 762.0)",0.4,0.562,1,1386.876,3,0.0,same
0,225,valid,"[(1133, 805)]",[],[1],[0.4666666666666667],vertical,"(890.0, 262.0)",0.6166666666666667,0.429,1,1392.175,3,0.0,same
0,226,valid,"[(1136, 781)]",[],[1],[0.5333333333333333],vertical,"(890.0, 262.0)",0.35,0.492,1,1397.672,3,0.0,same
0,227,valid,"[(1142, 780)]",[],[1],[0.6333333333333333],horizontal,"(890.0, 262.0)",1.0166666666666666,0.588,1,1402.855,3,0.0,same
0,228,catch,"[(1160, 776)]",[],[1],[],horizontal,"(390.0, 762.0)",1.7,nan,1,1409.034,3,0.0,same
0,229,invalid_same_bar,"[(1164, 790)]",[],[1],[0.6333333333333333],horizontal,"(890.0, 262.0)",0.6166666666666667,0.588,1,1414.905,3,0.0,same
0,230,valid,"[(1170, 793)]",[],[1],[0.48333333333333334],vertical,"(890.0, 262.0)",1.3333333333333333,0.449,1,1420.505,3,0.0,same
0,231,invalid_same_bar,"[(1158, 781)]",[],[1],[0.5],vertical,"(390.0, 762.0)",1.15,0.455,1,1426.622,3,0.0,same
0,232,invalid_adjacent_other_bar,"[(1142, 786)]",[],[1],[0.5],vertical,"(390.0, 262.0)",0.95,0.46,1,1432.626,3,0.0,other
0,233,valid,"[(1160, 785)]",[],[1],[0.6666666666666666],vertical,"(390.0, 262.0)",1.2666666666666666,0.631,1,1438.604,3,0.0,same
0,234,invalid_same_bar,"[(1167, 782)]",[],[1],[0.4666666666666667],horizontal,"(890.0, 262.0)",1.3833333333333333,0.425,1,1444.599,3,0.0,same
0,235,catch,"[(1169, 781)]",[],[1],[],horizontal,"(890.0, 762.0)",1.7,nan,1,1450.553,3,0.0,same
0,236,valid,"[(1164, 784)]",[],[1],[0.5333333333333333],vertical,"(390.0, 762.0)",0.4166666666666667,0.492,1,1457.084,3,0.0,same
0,237,valid,"[(1156, 749), (1112, 800)]",[],"[0, 1]",[0.6166666666666667],vertical,"(890.0, 262.0)",0.7,0.575,1,1462.734,3,0.0,same
0,238,valid,"[(1166, 800)]",[],[1],[0.6166666666666667],vertical,"(390.0, 262.0)",1.4,0.58,1,1469.673,3,0.0,same
0,239,catch,"[(1164, 789)]",[],[1],[],vertical,"(390.0, 762.0)",1.7,nan,1,1475.895,3,0.0,same
0,240,catch,"[(1161, 759)]",[],[1],[],vertical,"(890.0, 262.0)",1.7,nan,1,1481.454,3,0.0,same
0,241,valid,"[(1160, 779)]",[],[1],[0.4666666666666667],horizontal,"(890.0, 762.0)",0.9,0.424,1,1487.772,3,0.0,same
0,242,valid,"[(1159, 781)]",[],[1],[0.85],vertical,"(390.0, 762.0)",0.4166666666666667,nan,0,1493.381,0,0.0,same
0,243,catch,"[(1112, 780)]",[],[1],[],vertical,"(890.0, 262.0)",1.7,nan,1,1497.239,1,0.0,same
0,244,valid,"[(1157, 786)]",[],[1],[0.5],vertical,"(890.0, 262.0)",0.5333333333333333,0.462,1,1503.081,1,0.0,same
0,245,valid,"[(1151, 780)]",[],[1],[0.5666666666666667],vertical,"(890.0, 762.0)",0.6,0.523,1,1507.421,1,0.0,same
0,246,invalid_same_bar,"[(1155, 782)]",[],[1],[0.55],vertical,"(390.0, 762.0)",1.0666666666666667,0.505,1,1511.789,2,0.0,same
0,247,catch,"[(1151, 781)]",[],[1],[],vertical,"(390.0, 262.0)",1.7,nan,1,1517.622,2,0.0,same
0,248,valid,"[(1153, 782)]",[],[1],[0.5833333333333334],horizontal,"(890.0, 762.0)",1.1333333333333333,0.536,1,1523.072,2,0.0,same
0,249,valid,"[(1150, 784)]",[],[1],[0.5],vertical,"(890.0, 262.0)",1.0,0.459,1,1528.504,3,0.0,same
0,250,catch,"[(1160, 781)]",[],[1],[],horizontal,"(890.0, 262.0)",1.7,nan,1,1534.521,3,0.0,same
0,251,invalid_adjacent_other_bar,"[(1162, 779)]",[],[1],[0.55],horizontal,"(390.0, 262.0)",1.4166666666666667,0.508,1,1540.076,3,0.0,other
0,252,invalid_adjacent_other_bar,"[(1149, 776)]",[],[1],[0.5333333333333333],vertical,"(390.0, 262.0)",0.4166666666666667,0.49,1,1546.097,3,0.0,other
0,253,valid,"[(1156, 776)]",[],[1],[0.5333333333333333],horizontal,"(390.0, 762.0)",0.9333333333333333,0.491,1,1551.522,3,0.0,same
0,254,catch,"[(1154, 786)]",[],[1],[],horizontal,"(390.0, 262.0)",1.7,nan,1,1557.271,3,0.0,same
0,255,valid,"[(1157, 782)]",[],[1],[0.5166666666666666],horizontal,"(390.0, 262.0)",0.7666666666666666,0.474,1,1563.251,3,0.0,same
0,256,catch,"[(1157, 776)]",[],[1],[],horizontal,"(390.0, 762.0)",1.7,nan,1,1568.591,3,0.0,same
0,257,catch,"[(1156, 783)]",[],[1],[],vertical,"(390.0, 262.0)",1.7,nan,1,1574.631,3,0.0,same
0,258,valid,"[(1136, 782)]",[],[1],[0.45],vertical,"(890.0, 262.0)",1.2666666666666666,0.408,1,1580.768,3,0.0,same
0,259,valid,"[(1118, 794)]",[],[1],[0.7],vertical,"(390.0, 262.0)",1.2166666666666666,0.655,1,1586.856,3,0.0,same
0,260,invalid_adjacent_other_bar,"[(1153, 786)]",[],[1],[0.6166666666666667],horizontal,"(390.0, 262.0)",0.7833333333333333,0.569,1,1592.91,3,0.0,other
0,261,valid,"[(1156, 762)]",[],[1],[0.6],vertical,"(890.0, 262.0)",1.5333333333333332,0.554,1,1598.674,3,0.0,same
0,262,valid,"[(1141, 766)]",[],[1],[0.55],vertical,"(390.0, 262.0)",0.8833333333333333,0.506,1,1604.924,3,0.0,same
0,263,catch,"[(1156, 781)]",[],[1],[],horizontal,"(890.0, 262.0)",1.7,nan,1,1610.567,3,0.0,same
0,264,catch,"[(1146, 781)]",[],[1],[],horizontal,"(890.0, 262.0)",1.7,nan,1,1616.108,3,0.0,same
0,265,valid,"[(1167, 777)]",[],[1],[0.5666666666666667],vertical,"(390.0, 762.0)",1.2833333333333332,0.524,1,1622.01,3,0.0,same
0,266,catch,"[(1159, 786)]",[],[1],[],vertical,"(390.0, 262.0)",1.7,nan,1,1627.929,3,0.0,same
0,267,valid,"[(1156, 786)]",[],[1],[0.5833333333333334],horizontal,"(390.0, 262.0)",0.9666666666666667,0.543,1,1634.086,3,0.0,same
0,268,valid,"[(1154, 781)]",[],[1],[0.5833333333333334],horizontal,"(390.0, 762.0)",1.4,0.54,1,1640.159,3,0.0,same
0,269,valid,"[(1159, 789)]",[],[1],[0.85],vertical,"(390.0, 262.0)",0.5166666666666666,nan,0,1646.437,0,0.0,same
0,270,invalid_same_bar,"[(1105, 790)]",[],[1],[0.6166666666666667],horizontal,"(390.0, 762.0)",1.2333333333333334,0.576,1,1650.712,1,0.0,same
0,271,valid,"[(1154, 781)]",[],[1],[0.55],vertical,"(890.0, 262.0)",0.5,0.507,1,1656.538,1,0.0,same
0,272,valid,"[(1160, 773)]",[],[1],[0.5333333333333333],vertical,"(390.0, 262.0)",0.6666666666666666,0.489,1,1660.82,1,0.0,same
0,273,invalid_same_bar,"[(1156, 778)]",[],[1],[0.48333333333333334],vertical,"(890.0, 262.0)",1.2666666666666666,0.444,1,1665.577,2,0.0,same
0,274,valid,"[(1155, 757)]",[],[1],[0.6166666666666667],vertical,"(890.0, 762.0)",0.5333333333333333,0.574,1,1671.381,2,0.0,same
0,275,invalid_same_bar,"[(1157, 782)]",[],[1],[0.85],vertical,"(890.0, 262.0)",0.6833333333333333,nan,0,1676.056,0,0.0,same
0,276,valid,"[(1135, 785)]",[],[1],[0.6],vertical,"(890.0, 762.0)",1.3333333333333333,0.559,1,1680.423,1,0.0,same
0,277,valid,"[(1154, 785)]",[],[1],[0.5],horizontal,"(890.0, 262.0)",1.35,0.462,1,1685.795,1,0.0,same
0,278,invalid_adjacent_other_bar,"[(1160, 781)]",[],[1],[0.55],vertical,"(390.0, 262.0)",1.4,0.506,1,1691.1,1,0.0,other
0,279,valid,"[(1156, 781)]",[],[1],[0.7166666666666667],vertical,"(390.0, 262.0)",1.4,0.67,1,1696.792,2,0.0,same
0,280,valid,"[(1155, 779)]",[],[1],[0.5166666666666666],vertical,"(890.0, 762.0)",0.6,0.474,1,1702.547,2,0.0,same
0,281,invalid_same_bar,"[(1155, 786)]",[],[1],[0.5],vertical,"(390.0, 262.0)",1.0,0.46,1,1707.525,2,0.0,same
0,282,valid,"[(1132, 778)]",[],[1],[0.55],vertical,"(390.0, 762.0)",1.5333333333333332,0.511,1,1712.884,3,0.0,same
0,283,invalid_same_bar,"[(1126, 779)]",[],[1],[0.5333333333333333],horizontal,"(890.0, 262.0)",0.7,0.491,1,1719.509,3,0.0,same
0,284,catch,"[(1156, 783)]",[],[1],[],horizontal,"(890.0, 262.0)",1.7,nan,1,1724.856,3,0.0,same
0,285,catch,"[(1155, 772)]",[],[1],[],horizontal,"(390.0, 762.0)",1.7,nan,1,1730.779,3,0.0,same
0,286,invalid_same_bar,"[(1157, 786)]",[],[1],[0.5166666666666666],vertical,"(390.0, 262.0)",0.75,0.478,1,1737.037,3,0.0,same
0,287,valid,"[(1157, 783)]",[],[1],[0.5],horizontal,"(890.0, 762.0)",1.25,0.462,1,1742.822,3,0.0,same
0,288,catch,"[(1157, 791)]",[],[1],[],vertical,"(390.0, 762.0)",1.7,nan,1,1748.638,3,0.0,same
0,289,valid,"[(1156, 786)]",[],[1],[0.55],horizontal,"(390.0, 762.0)",1.1833333333333333,0.508,1,1754.529,3,0.0,same
0,290,catch,"[(1173, 782)]",[],[1],[],vertical,"(890.0, 762.0)",1.7,nan,1,1760.633,3,0.0,same
0,291,valid,"[(1160, 781)]",[],[1],[0.5166666666666666],vertical,"(890.0, 262.0)",0.7166666666666667,0.478,1,1766.655,3,0.0,same
0,292,catch,"[(1140, 781)]",[],[1],[],horizontal,"(390.0, 762.0)",1.7,nan,1,1771.872,3,0.0,same
0,293,valid,"[(1161, 781)]",[],[1],[0.48333333333333334],horizontal,"(890.0, 262.0)",1.05,0.438,1,1778.088,3,0.0,same
0,294,valid,"[(1112, 790)]",[],[1],[0.85],vertical,"(890.0, 762.0)",1.2333333333333334,nan,0,1783.85,0,0.0,same
0,295,valid,"[(1090, 804)]",[],[1],[0.5666666666666667],horizontal,"(890.0, 262.0)",1.4666666666666666,0.523,1,1789.339,1,0.0,same
0,296,valid,"[(1129, 797)]",[],[1],[0.85],vertical,"(390.0, 262.0)",0.7333333333333333,nan,0,1794.704,0,0.0,same
0,297,catch,"[(1126, 777)]",[],[1],[],horizontal,"(390.0, 262.0)",1.7,nan,1,1799.143,1,0.0,same
0,298,catch,"[(1141, 772)]",[],[1],[],horizontal,"(390.0, 262.0)",1.7,nan,1,1804.341,1,0.0,same
0,299,valid,"[(1166, 783)]",[],[1],[0.5],vertical,"(890.0, 262.0)",1.0,0.467,1,1809.693,1,0.0,same
0,300,valid,"[(1136, 761)]",[],[1],[0.5333333333333333],vertical,"(890.0, 262.0)",1.4,0.496,1,1815.033,2,0.0,same
0,301,catch,"[(1155, 766)]",[],[1],[],horizontal,"(890.0, 762.0)",1.7,nan,1,1820.639,2,0.0,same
0,302,valid,"[(1153, 785)]",[],[1],[0.5333333333333333],horizontal,"(890.0, 262.0)",0.5333333333333333,0.492,1,1826.216,2,0.0,same
0,303,valid,"[(1160, 782)]",[],[1],[0.55],horizontal,"(390.0, 262.0)",1.4666666666666666,0.513,1,1830.989,3,0.0,same
0,304,valid,"[(1131, 786)]",[],[1],[0.5166666666666666],horizontal,"(890.0, 262.0)",1.4666666666666666,0.479,1,1837.043,3,0.0,same
0,305,valid,"[(1152, 790)]",[],[1],[0.5],horizontal,"(890.0, 262.0)",0.7166666666666667,0.453,1,1843.6,3,0.0,same
0,306,invalid_same_bar,"[(1178, 778)]",[],[1],[0.48333333333333334],vertical,"(890.0, 262.0)",0.95,0.438,1,1849.252,3,0.0,same
0,307,invalid_adjacent_other_bar,"[(1165, 786)]",[],[1],[0.48333333333333334],vertical,"(890.0, 262.0)",1.5333333333333332,0.444,1,1854.638,3,0.0,other
0,308,invalid_adjacent_other_bar,"[(1156, 786)]",[],[1],[0.6166666666666667],vertical,"(890.0, 262.0)",1.0333333333333332,0.572,1,1860.912,3,0.0,other
0,309,catch,"[(1136, 787)]",[],[1],[],horizontal,"(890.0, 762.0)",1.7,nan,1,1867.073,3,0.0,same
0,310,invalid_adjacent_other_bar,"[(1156, 787)]",[],[1],[0.6],horizontal,"(390.0, 262.0)",1.3,0.556,1,1873.403,3,0.0,other
0,311,catch,"[(1154, 761)]",[],[1],[],horizontal,"(890.0, 762.0)",1.7,nan,1,1879.595,3,0.0,same
0,312,valid,"[(1157, 782)]",[],[1],[0.6833333333333333],horizontal,"(890.0, 262.0)",0.95,0.643,1,1885.773,3,0.0,same
0,313,invalid_same_bar,"[(1158, 782)]",[],[1],[0.5166666666666666],vertical,"(390.0, 262.0)",0.4666666666666667,0.475,1,1891.955,3,0.0,same
0,314,catch,"[(1158, 786)]",[],[1],[],vertical,"(890.0, 262.0)",1.7,nan,1,1897.073,3,0.0,same
0,315,catch,"[(1170, 791)]",[],[1],[],vertical,"(390.0, 762.0)",1.7,nan,1,1903.357,3,0.0,same
0,316,catch,"[(1149, 783)]",[],[1],[],vertical,"(390.0, 762.0)",1.7,nan,1,1909.202,3,0.0,same
0,317,catch,"[(1157, 774)]",[],[1],[],horizontal,"(890.0, 262.0)",1.7,nan,1,1915.04,3,0.0,same
0,318,valid,"[(1155, 769)]",[],[1],[0.6333333333333333],horizontal,"(390.0, 762.0)",1.3,0.59,1,1920.833,3,0.0,same
0,319,valid,"[(1137, 777)]",[],[1],[0.5833333333333334],horizontal,"(390.0, 262.0)",1.4166666666666667,0.539,1,1927.138,3,0.0,same
0,320,valid,"[(1155, 756)]",[],[1],[0.5833333333333334],horizontal,"(890.0, 262.0)",1.3666666666666667,0.552,1,1933.771,3,0.0,same
0,321,valid,"[(1155, 771)]",[],[1],[0.5166666666666666],vertical,"(390.0, 262.0)",1.2,0.485,1,1940.239,3,0.0,same
0,322,valid,"[(1158, 767)]",[],[1],[0.6],horizontal,"(390.0, 262.0)",0.7,0.561,1,1946.052,3,0.0,same
0,323,invalid_adjacent_other_bar,"[(1160, 786)]",[],[1],[0.6],horizontal,"(890.0, 262.0)",1.05,0.558,1,1951.69,3,0.0,other
0,324,catch,"[(1143, 786)]",[],[1],[],horizontal,"(390.0, 762.0)",1.7,nan,1,1957.571,3,0.0,same
0,325,valid,"[(1136, 780)]",[],[1],[0.5166666666666666],vertical,"(890.0, 762.0)",1.1166666666666667,0.478,1,1963.421,3,0.0,same
0,326,catch,"[(1152, 785)]",[],[1],[],vertical,"(890.0, 762.0)",1.7,nan,1,1969.341,3,0.0,same
0,327,valid,"[(1160, 782)]",[],[1],[0.31666666666666665],horizontal,"(390.0, 262.0)",1.4333333333333333,0.28,1,1975.652,3,0.0,same
0,328,catch,"[(1160, 786)]",[],[1],[],vertical,"(390.0, 262.0)",1.7,nan,1,1981.956,3,0.0,same
0,329,valid,"[(1155, 773)]",[],[1],[0.6],horizontal,"(890.0, 262.0)",0.7833333333333333,0.562,1,1987.843,3,0.0,same
0,330,valid,"[(1160, 758)]",[],[1],[0.5666666666666667],vertical,"(390.0, 762.0)",0.65,0.534,1,1993.571,3,0.0,same
0,331,valid,"[(1155, 786)]",[],[1],[0.48333333333333334],horizontal,"(390.0, 262.0)",1.2833333333333332,0.444,1,1998.905,3,0.0,same
0,332,valid,"[(1156, 786)]",[],[1],[0.5833333333333334],vertical,"(890.0, 762.0)",0.6,0.546,1,2005.056,3,0.0,same
0,333,valid,"[(1159, 788)]",[],[1],[0.5166666666666666],vertical,"(890.0, 762.0)",1.2166666666666666,0.476,1,2010.434,3,0.0,same
0,334,valid,"[(1155, 765)]",[],[1],[0.5333333333333333],horizontal,"(890.0, 762.0)",0.45,0.497,1,2016.356,3,0.0,same
0,335,catch,"[(1156, 759)]",[],[1],[],vertical,"(390.0, 762.0)",1.7,nan,1,2021.629,3,0.0,same
0,336,valid,"[(1157, 782)]",[],[1],[0.48333333333333334],horizontal,"(890.0, 762.0)",1.1166666666666667,0.448,1,2027.672,3,0.0,same
0,337,invalid_adjacent_other_bar,"[(1136, 783)]",[],[1],[0.5166666666666666],vertical,"(890.0, 762.0)",1.0333333333333332,0.482,1,2033.573,3,0.0,other
0,338,valid,"[(1134, 776)]",[],[1],[0.5833333333333334],vertical,"(890.0, 762.0)",0.5833333333333334,0.549,1,2039.467,3,0.0,same
0,339,valid,"[(1159, 785)]",[],[1],[0.21666666666666667],horizontal,"(890.0, 262.0)",1.5333333333333332,0.179,0,2045.382,0,0.0,same
0,340,catch,"[(1128, 786)]",[],[1],[0.03333333333333333],horizontal,"(390.0, 762.0)",1.7,"0.018,nan",0,2050.292,0,0.02,same
0,341,catch,"[(1110, 836)]",[],[1],[],horizontal,"(890.0, 762.0)",1.7,nan,1,2055.29,1,0.02,same
0,342,valid,"[(1162, 789)]",[],[1],[0.5833333333333334],horizontal,"(390.0, 262.0)",0.6333333333333333,0.544,1,2060.939,1,0.02,same
0,343,catch,"[(1136, 783)]",[],[1],[],vertical,"(890.0, 262.0)",1.7,nan,1,2065.789,1,0.02,same
0,344,valid,"[(1156, 786)]",[],[1],[0.7333333333333333],horizontal,"(390.0, 762.0)",0.5333333333333333,0.689,1,2071.156,2,0.02,same
0,345,valid,"[(1160, 781)]",[],[1],[0.6166666666666667],horizontal,"(390.0, 762.0)",1.5333333333333332,0.576,1,2076.707,2,0.02,same
0,346,valid,"[(1157, 766)]",[],[1],[0.85],vertical,"(390.0, 762.0)",0.45,nan,0,2082.469,0,0.02,same
0,347,valid,"[(1137, 797)]",[],[1],[0.85],horizontal,"(390.0, 262.0)",0.6833333333333333,nan,0,2087.107,0,0.02,same
0,348,valid,"[(1136, 772)]",[],[1],[0.85],vertical,"(390.0, 762.0)",0.85,nan,0,2091.59,0,0.02,same
0,349,valid,"[(1115, 772)]",[],[1],[0.5666666666666667],horizontal,"(890.0, 762.0)",0.7666666666666666,0.529,1,2096.257,1,0.02,same
0,350,valid,"[(1154, 763)]",[],[1],[0.65],horizontal,"(390.0, 762.0)",0.4666666666666667,0.608,1,2100.857,1,0.02,same
0,351,valid,"[(1155, 759)]",[],[1],[0.5166666666666666],horizontal,"(890.0, 762.0)",0.9833333333333333,0.479,1,2105.442,1,0.02,same
0,352,valid,"[(1160, 782)]",[],[1],[0.5833333333333334],horizontal,"(890.0, 262.0)",1.3833333333333333,0.557,1,2110.268,2,0.02,same
0,353,valid,"[(1160, 759)]",[],[1],[0.5166666666666666],horizontal,"(890.0, 262.0)",0.9333333333333333,0.474,1,2115.924,2,0.02,same
0,354,catch,"[(1158, 757)]",[],[1],[],horizontal,"(390.0, 262.0)",1.7,nan,1,2121.139,2,0.02,same
0,355,catch,"[(1155, 771)]",[],[1],[],horizontal,"(390.0, 262.0)",1.7,nan,1,2126.379,3,0.02,same
0,356,catch,"[(1155, 758)]",[],[1],[],vertical,"(890.0, 262.0)",1.7,nan,1,2132.823,3,0.02,same
0,357,catch,"[(1126, 798)]",[],[1],[],horizontal,"(890.0, 762.0)",1.7,nan,1,2139.115,3,0.02,same
0,358,valid,"[(1150, 788)]",[],[1],[0.55],vertical,"(890.0, 762.0)",0.6,0.508,1,2145.465,3,0.02,same
0,359,valid,"[(1160, 784)]",[],[1],[0.65],vertical,"(890.0, 262.0)",1.0833333333333333,0.606,1,2151.076,3,0.02,same
0,360,invalid_same_bar,"[(1166, 778)]",[],[1],[0.6666666666666666],horizontal,"(890.0, 762.0)",1.3666666666666667,0.622,1,2157.397,3,0.02,same
0,361,valid,"[(1154, 786)]",[],[1],[0.5],horizontal,"(390.0, 262.0)",0.7666666666666666,0.459,1,2163.692,3,0.02,same
0,362,valid,"[(1160, 781)]",[],[1],[0.85],vertical,"(390.0, 262.0)",0.5166666666666666,nan,0,2168.852,0,0.02,same
0,363,valid,"[(1112, 796)]",[],[1],[0.6333333333333333],horizontal,"(890.0, 262.0)",1.1666666666666667,0.588,1,2172.808,1,0.02,same
0,364,valid,"[(1142, 789)]",[],[1],[0.85],horizontal,"(390.0, 262.0)",1.1833333333333333,nan,0,2178.342,0,0.02,same
0,365,valid,"[(1131, 789)]",[],[1],[0.65],horizontal,"(390.0, 762.0)",1.5166666666666666,0.603,1,2183.19,1,0.02,same
0,366,catch,"[(1170, 787)]",[],[1],[],vertical,"(890.0, 762.0)",1.7,nan,1,2188.779,1,0.02,same
0,367,catch,"[(1155, 766)]",[],[1],[],vertical,"(890.0, 762.0)",1.7,nan,1,2193.944,1,0.02,same
0,368,valid,"[(1151, 794)]",[],[1],[0.5166666666666666],vertical,"(390.0, 762.0)",0.6666666666666666,0.473,1,2199.273,2,0.02,same
0,369,catch,"[(1160, 782)]",[],[1],[],vertical,"(390.0, 262.0)",1.7,nan,1,2204.18,2,0.02,same
0,370,valid,"[(1140, 757)]",[],[1],[0.85],vertical,"(390.0, 762.0)",0.4166666666666667,nan,0,2209.878,0,0.02,same
0,371,valid,"[(1131, 846)]",[],[1],[0.5166666666666666],vertical,"(890.0, 762.0)",1.2666666666666666,0.471,1,2214.068,1,0.02,same
0,372,valid,"[(1155, 792)]",[],[1],[0.5833333333333334],horizontal,"(890.0, 262.0)",1.1333333333333333,0.538,1,2248.885,1,0.02,same
0,373,valid,"[(1161, 786)]",[],[1],[0.5],vertical,"(890.0, 262.0)",0.4666666666666667,0.462,1,2254.157,1,0.02,same
0,374,valid,"[(1168, 789)]",[],[1],[0.5833333333333334],vertical,"(890.0, 762.0)",0.9666666666666667,0.535,1,2258.455,2,0.02,same
0,375,valid,"[(1160, 783)]",[],[1],[0.6666666666666666],horizontal,"(890.0, 262.0)",0.65,0.622,1,2264.302,2,0.02,same
0,376,valid,"[(1162, 779)]",[],[1],[0.3],vertical,"(890.0, 262.0)",1.55,0.263,1,2269.941,2,0.02,same
0,377,valid,"[(1161, 766)]",[],[1],[0.5166666666666666],vertical,"(390.0, 762.0)",0.48333333333333334,0.478,1,2275.691,3,0.02,same
0,378,valid,"[(1164, 764)]",[],[1],[0.5],vertical,"(390.0, 262.0)",0.8,0.463,1,2281.091,3,0.02,same
0,379,invalid_same_bar,"[(1160, 772)]",[],[1],[0.55],vertical,"(890.0, 762.0)",0.35,0.507,1,2286.609,3,0.02,same
0,380,catch,"[(1144, 776)]",[],[1],[],horizontal,"(390.0, 262.0)",,"('cti', 1.631),nan",0,2291.973,0,0.04,same
0,381,valid,"[(1156, 793)]",[],[1],[0.5],horizontal,"(890.0, 262.0)",1.45,0.46,1,2296.729,1,0.04,same
0,382,catch,"[(1168, 786)]",[],[1],[],horizontal,"(390.0, 762.0)",1.7,nan,1,2301.969,1,0.04,same
0,383,valid,"[(1165, 788)]",[],[1],[0.5333333333333333],horizontal,"(890.0, 262.0)",1.2833333333333332,0.491,1,2306.84,1,0.04,same
0,384,valid,"[(1158, 771)]",[],[1],[0.6333333333333333],horizontal,"(390.0, 262.0)",0.5166666666666666,0.59,1,2312.055,2,0.04,same
0,385,invalid_adjacent_other_bar,"[(1161, 766)]",[],[1],[0.75],vertical,"(890.0, 762.0)",1.0333333333333332,0.702,1,2316.828,2,0.04,other
0,386,valid,"[(1172, 788)]",[],[1],[0.5333333333333333],vertical,"(390.0, 762.0)",1.5333333333333332,0.489,1,2322.786,2,0.04,same
0,387,catch,"[(1164, 789)]",[],[1],[],horizontal,"(390.0, 262.0)",,"('cti', 1.527),nan",0,2329.062,0,0.06,same
0,388,valid,"[(1131, 796)]",[],[1],[0.55],vertical,"(390.0, 762.0)",1.0,0.512,1,2334.273,1,0.06,same
0,389,catch,"[(1161, 788)]",[],[1],[],horizontal,"(390.0, 762.0)",1.7,nan,1,2339.601,1,0.06,same
0,390,catch,"[(1167, 785)]",[],[1],[],vertical,"(390.0, 262.0)",1.7,nan,1,2344.683,1,0.04,same
0,391,catch,"[(1160, 786)]",[],[1],[],horizontal,"(390.0, 762.0)",1.7,nan,1,2350.14,2,0.04,same
0,392,valid,"[(1159, 773)]",[],[1],[0.85],vertical,"(390.0, 762.0)",1.1666666666666667,nan,0,2356.031,0,0.04,same
0,393,valid,"[(1136, 786)]",[],[1],[0.6666666666666666],horizontal,"(390.0, 262.0)",0.65,0.619,1,2361.216,1,0.04,same
0,394,valid,"[(1133, 789)]",[],[1],[0.55],horizontal,"(390.0, 262.0)",1.3333333333333333,0.509,1,2365.793,1,0.04,same
0,395,valid,"[(1175, 783)]",[],[1],[0.85],vertical,"(890.0, 762.0)",1.25,nan,0,2371.323,0,0.04,same
0,396,valid,"[(1118, 786)]",[],[1],[0.65],horizontal,"(890.0, 762.0)",1.35,0.605,1,2376.473,1,0.04,same
0,397,valid,"[(1159, 786)]",[],[1],[0.6666666666666666],vertical,"(890.0, 762.0)",1.4,0.621,1,2381.75,1,0.04,same
0,398,valid,"[(1160, 786)]",[],[1],[0.48333333333333334],horizontal,"(390.0, 262.0)",0.3833333333333333,0.444,1,2386.891,1,0.04,same
0,399,valid,"[(1161, 761)]",[],[1],[0.6166666666666667],horizontal,"(390.0, 262.0)",0.7166666666666667,0.572,1,2391.181,2,0.04,same
0,400,valid,"[(1160, 758)]",[],[1],[0.5166666666666666],horizontal,"(390.0, 262.0)",1.2,0.474,1,2396.49,2,0.04,same
0,401,valid,"[(1175, 788)]",[],[1],[0.7166666666666667],vertical,"(890.0, 262.0)",1.0,0.67,1,2402.241,2,0.04,same
0,402,valid,"[(1159, 759)]",[],[1],[0.6333333333333333],horizontal,"(390.0, 762.0)",0.35,0.592,1,2407.607,3,0.04,same
0,403,valid,"[(1175, 760)]",[],[1],[0.6],horizontal,"(890.0, 262.0)",1.3833333333333333,0.561,1,2412.982,3,0.04,same
0,404,catch,"[(1161, 787)]",[],[1],[],horizontal,"(890.0, 262.0)",1.7,nan,1,2419.358,3,0.04,same
0,405,catch,"[(1129, 786)]",[],[1],[],vertical,"(390.0, 762.0)",1.7,nan,1,2425.019,3,0.04,same
0,406,valid,"[(1156, 760)]",[],[1],[0.5833333333333334],vertical,"(890.0, 762.0)",0.4666666666666667,0.54,1,2431.174,3,0.04,same
0,407,valid,"[(1159, 781)]",[],[1],[0.5166666666666666],horizontal,"(390.0, 762.0)",1.05,0.478,1,2436.396,3,0.04,same
0,408,catch,"[(1160, 787)]",[],[1],[],vertical,"(890.0, 762.0)",1.7,nan,1,2442.291,3,0.04,same
0,409,valid,"[(1161, 789)]",[],[1],[0.6],vertical,"(390.0, 762.0)",1.4166666666666667,0.559,1,2448.539,3,0.04,same
0,410,catch,"[(1161, 752), (1130, 797)]",[],"[0, 1]",[],horizontal,"(890.0, 262.0)",1.7,nan,1,2455.074,3,0.04,same
0,411,invalid_adjacent_other_bar,"[(1163, 752), (1118, 793)]",[],"[0, 1]",[0.5666666666666667],horizontal,"(390.0, 762.0)",1.3333333333333333,0.522,1,2462.64,3,0.04,other
0,412,catch,"[(1170, 789)]",[],[1],[],vertical,"(390.0, 262.0)",1.7,nan,1,2470.24,3,0.04,same
0,413,valid,"[(1160, 761)]",[],[1],[0.5666666666666667],vertical,"(890.0, 762.0)",1.35,0.52,1,2475.822,3,0.04,same
0,414,valid,"[(1158, 769)]",[],[1],[0.5],horizontal,"(390.0, 262.0)",0.65,0.462,1,2481.646,3,0.04,same
0,415,catch,"[(1167, 782)]",[],[1],[],horizontal,"(390.0, 262.0)",1.7,nan,1,2486.723,3,0.04,same
0,416,catch,"[(1160, 786)]",[],[1],[],horizontal,"(390.0, 762.0)",1.7,nan,1,2492.531,3,0.04,same
0,417,valid,"[(1160, 790)]",[],[1],[0.5166666666666666],vertical,"(390.0, 262.0)",0.4666666666666667,0.477,1,2498.38,3,0.04,same
0,418,catch,"[(1157, 786)]",[],[1],[],vertical,"(390.0, 262.0)",1.7,nan,1,2503.69,3,0.04,same
0,419,valid,"[(1171, 781)]",[],[1],[0.5833333333333334],vertical,"(890.0, 762.0)",1.1666666666666667,0.542,1,2509.991,3,0.04,same
0,420,invalid_adjacent_other_bar,"[(1161, 786)]",[],[1],[0.85],vertical,"(390.0, 762.0)",0.7666666666666666,nan,0,2515.859,0,0.04,other
0,421,valid,"[(1127, 785)]",[],[1],[0.85],vertical,"(390.0, 762.0)",0.8833333333333333,nan,0,2520.864,0,0.04,same
0,422,valid,"[(1117, 788)]",[],[1],[0.5333333333333333],vertical,"(390.0, 762.0)",1.25,0.491,1,2526.012,1,0.04,same
0,423,valid,"[(1130, 786)]",[],[1],[0.55],vertical,"(890.0, 762.0)",0.65,0.508,1,2531.456,1,0.04,same
0,424,catch,"[(1160, 787)]",[],[1],[],vertical,"(890.0, 762.0)",1.7,nan,1,2536.616,1,0.04,same
0,425,catch,"[(1132, 788)]",[],[1],[],vertical,"(890.0, 262.0)",1.7,nan,1,2541.808,2,0.04,same
0,426,valid,"[(1155, 791)]",[],[1],[0.6333333333333333],horizontal,"(890.0, 762.0)",1.0833333333333333,0.585,1,2547.535,2,0.04,same
0,427,valid,"[(1154, 783)]",[],[1],[0.55],horizontal,"(890.0, 762.0)",1.5166666666666666,0.506,1,2553.263,2,0.04,same
0,428,valid,"[(1181, 782)]",[],[1],[0.5333333333333333],horizontal,"(390.0, 762.0)",0.7333333333333333,0.492,1,2559.323,3,0.04,same
0,429,invalid_same_bar,"[(1176, 782)]",[],[1],[0.4666666666666667],vertical,"(890.0, 262.0)",1.2333333333333334,0.427,1,2564.677,3,0.04,same
0,430,catch,"[(1171, 789)]",[],[1],[],horizontal,"(390.0, 262.0)",1.7,nan,1,2570.557,3,0.02,same
0,431,valid,"[(1160, 786)]",[],[1],[0.5],vertical,"(890.0, 262.0)",0.5,0.46,1,2576.363,3,0.02,same
0,432,valid,"[(1153, 772)]",[],[1],[0.5333333333333333],horizontal,"(890.0, 762.0)",0.75,0.495,1,2581.906,3,0.02,same
0,433,valid,"[(1177, 782)]",[],[1],[0.48333333333333334],vertical,"(890.0, 262.0)",1.2833333333333332,0.442,1,2587.51,3,0.02,same
0,434,invalid_adjacent_other_bar,"[(1129, 785)]",[],[1],[0.48333333333333334],vertical,"(890.0, 762.0)",1.35,0.439,1,2593.682,3,0.02,other
0,435,catch,"[(1157, 786)]",[],[1],[],vertical,"(890.0, 262.0)",1.7,nan,1,2600.342,3,0.02,same
0,436,valid,"[(1171, 790)]",[],[1],[0.5333333333333333],vertical,"(890.0, 762.0)",1.1666666666666667,0.492,1,2606.292,3,0.02,same
0,437,valid,"[(1157, 786)]",[],[1],[0.5333333333333333],vertical,"(390.0, 762.0)",0.65,0.486,1,2612.157,3,0.0,same
0,438,catch,"[(1156, 785)]",[],[1],[],vertical,"(890.0, 762.0)",1.7,nan,1,2617.825,3,0.0,same
0,439,valid,"[(1155, 789)]",[],[1],[0.6166666666666667],vertical,"(890.0, 262.0)",0.36666666666666664,0.573,1,2624.208,3,0.0,same
0,440,valid,"[(1161, 789)]",[],[1],[0.26666666666666666],horizontal,"(390.0, 262.0)",1.4666666666666666,0.233,1,2629.572,3,0.0,same
0,441,catch,"[(1176, 786)]",[],[1],[],vertical,"(390.0, 762.0)",1.7,nan,1,2635.925,3,0.0,same
0,442,catch,"[(1146, 786)]",[],[1],[],horizontal,"(890.0, 262.0)",1.7,nan,1,2642.124,3,0.0,same
0,443,valid,"[(1134, 792)]",[],[1],[0.6166666666666667],vertical,"(390.0, 262.0)",0.75,0.573,1,2648.043,3,0.0,same
0,444,catch,"[(1134, 786)]",[],[1],[],vertical,"(390.0, 762.0)",1.7,nan,1,2653.52,3,0.0,same
0,445,invalid_same_bar,"[(1156, 782)]",[],[1],[0.65],horizontal,"(390.0, 762.0)",0.6,0.612,1,2659.714,3,0.0,same
0,446,catch,"[(1174, 788)]",[],[1],[],horizontal,"(890.0, 262.0)",1.7,nan,1,2665.251,3,0.0,same
0,447,valid,"[(1130, 792)]",[],[1],[0.6166666666666667],vertical,"(390.0, 762.0)",0.9333333333333333,0.575,1,2671.042,3,0.0,same
0,448,valid,"[(1141, 789)]",[],[1],[0.85],horizontal,"(390.0, 762.0)",0.55,nan,0,2676.791,0,0.0,same
0,449,valid,"[(1088, 796)]",[],[1],[0.85],horizontal,"(390.0, 262.0)",1.0666666666666667,nan,0,2681.225,0,0.0,same
0,450,valid,"[(1122, 806)]",[],[1],[0.3333333333333333],vertical,"(890.0, 262.0)",1.45,0.296,1,2686.29,1,0.0,same
0,451,catch,"[(1129, 816)]",[],[1],[],horizontal,"(890.0, 762.0)",1.7,nan,1,2703.174,1,0.0,same
0,452,valid,"[(1162, 796)]",[],[1],[0.6],vertical,"(390.0, 262.0)",1.1166666666666667,0.567,1,2708.641,1,0.0,same
0,453,valid,"[(1160, 795)]",[],[1],[0.5],vertical,"(390.0, 262.0)",0.7833333333333333,0.458,1,2713.834,2,0.0,same
0,454,invalid_adjacent_other_bar,"[(1185, 772)]",[],[1],[0.5],vertical,"(890.0, 262.0)",0.5333333333333333,0.455,1,2719.174,2,0.0,other
0,455,catch,"[(1164, 793)]",[],[1],[],vertical,"(390.0, 262.0)",1.7,nan,1,2724.08,2,0.0,same
0,456,valid,"[(1160, 761)]",[],[1],[0.48333333333333334],vertical,"(390.0, 762.0)",0.7,0.444,1,2729.774,3,0.0,same
0,457,valid,"[(1165, 786)]",[],[1],[0.5166666666666666],horizontal,"(390.0, 762.0)",0.4666666666666667,0.477,1,2735.258,3,0.0,same
0,458,valid,"[(1137, 801)]",[],[1],[0.85],vertical,"(390.0, 262.0)",0.35,nan,0,2740.724,0,0.0,same
0,459,valid,"[(1145, 791)]",[],[1],[0.5],horizontal,"(390.0, 262.0)",1.2666666666666666,0.459,1,2744.603,1,0.0,same
0,460,valid,"[(1165, 787)]",[],[1],[0.6833333333333333],vertical,"(390.0, 262.0)",1.3333333333333333,0.643,1,2749.613,1,0.0,same
0,461,invalid_same_bar,"[(1176, 771)]",[],[1],[0.6666666666666666],vertical,"(390.0, 262.0)",1.2166666666666666,0.619,1,2754.925,1,0.0,same
0,462,valid,"[(1165, 792)]",[],[1],[0.5333333333333333],vertical,"(390.0, 262.0)",1.4833333333333334,0.497,1,2760.326,2,0.0,same
0,463,catch,"[(1142, 762)]",[],[1],[],horizontal,"(390.0, 262.0)",1.7,nan,1,2766.433,2,0.0,same
0,464,valid,"[(1165, 763)]",[],[1],[0.48333333333333334],vertical,"(390.0, 762.0)",0.5,0.444,1,2771.725,2,0.0,same
0,465,catch,"[(1165, 791)]",[],[1],[],horizontal,"(890.0, 262.0)",1.7,nan,1,2776.758,3,0.0,same
0,466,valid,"[(1178, 795)]",[],[1],[0.48333333333333334],vertical,"(890.0, 262.0)",0.45,0.442,1,2782.726,3,0.0,same
0,467,valid,"[(1165, 772)]",[],[1],[0.6833333333333333],horizontal,"(890.0, 762.0)",1.0333333333333332,0.642,1,2788.125,3,0.0,same
0,468,valid,"[(1077, 774)]",[],[1],[0.5666666666666667],horizontal,"(390.0, 762.0)",1.2333333333333334,0.523,1,2793.981,3,0.0,same
0,469,valid,"[(1114, 804)]",[],[1],[0.85],vertical,"(890.0, 762.0)",0.5333333333333333,nan,0,2812.642,0,0.0,same
0,470,valid,"[(1107, 835)]",[],[1],[0.5],horizontal,"(890.0, 262.0)",0.5166666666666666,0.457,1,2817.019,1,0.0,same
0,471,valid,"[(1160, 805)]",[],[1],[0.5333333333333333],horizontal,"(890.0, 262.0)",0.36666666666666664,0.497,1,2822.025,1,0.0,same
0,472,catch,"[(1111, 836)]",[],[1],[],horizontal,"(390.0, 762.0)",1.7,nan,1,2826.731,1,0.0,same
0,473,valid,"[(1160, 805)]",[],[1],[0.85],horizontal,"(390.0, 762.0)",1.2833333333333332,nan,0,2886.644,0,0.0,same
0,474,valid,"[(1160, 796)]",[],[1],[0.85],horizontal,"(390.0, 762.0)",0.4666666666666667,nan,0,2891.741,0,0.0,same
0,475,valid,"[(1159, 777)]",[],[1],[0.5166666666666666],horizontal,"(890.0, 262.0)",1.45,0.477,1,2895.831,1,0.0,same
0,476,valid,"[(1158, 806)]",[],[1],[0.48333333333333334],vertical,"(890.0, 262.0)",0.36666666666666664,0.445,1,2901.635,1,0.0,same
0,477,valid,"[(1165, 801)]",[],[1],[0.6],horizontal,"(390.0, 762.0)",0.6666666666666666,0.559,1,2906.192,1,0.0,same
0,478,valid,"[(1175, 794)]",[],[1],[0.5166666666666666],vertical,"(390.0, 262.0)",0.36666666666666664,0.475,1,2910.792,2,0.0,same
0,479,valid,"[(1162, 792)]",[],[1],[0.5333333333333333],horizontal,"(890.0, 762.0)",1.3833333333333333,0.484,1,2915.625,2,0.0,same
0,480,catch,"[(1170, 791)]",[],[1],[],horizontal,"(390.0, 762.0)",1.7,nan,1,2921.163,2,0.0,same
0,481,catch,"[(1172, 796)]",[],[1],[],vertical,"(390.0, 762.0)",1.7,nan,1,2926.459,3,0.0,same
0,482,invalid_adjacent_other_bar,"[(1171, 786)]",[],[1],[0.7],horizontal,"(390.0, 762.0)",0.6833333333333333,0.661,1,2933.124,3,0.0,other
0,483,invalid_adjacent_other_bar,"[(1178, 768)]",[],[1],[0.55],horizontal,"(890.0, 762.0)",0.8333333333333334,0.506,1,2939.064,3,0.0,other
0,484,catch,"[(1186, 798)]",[],[1],[],vertical,"(390.0, 262.0)",,"('cti', 1.538),nan",0,2944.871,0,0.02,same
0,485,valid,"[(1156, 796)]",[],[1],[0.48333333333333334],vertical,"(390.0, 262.0)",0.5166666666666666,0.448,1,2949.923,1,0.02,same
0,486,valid,"[(1160, 815)]",[],[1],[0.5833333333333334],vertical,"(890.0, 762.0)",1.15,0.536,1,2954.693,1,0.02,same
0,487,valid,"[(1160, 796)]",[],[1],[0.6166666666666667],vertical,"(890.0, 262.0)",1.3166666666666667,0.569,1,2959.942,1,0.02,same
0,488,valid,"[(1175, 773)]",[],[1],[0.48333333333333334],horizontal,"(890.0, 262.0)",0.5333333333333333,0.443,1,2965.581,2,0.02,same
0,489,valid,"[(1172, 776)]",[],[1],[0.5],vertical,"(390.0, 262.0)",0.8666666666666667,0.454,1,2970.741,2,0.02,same
0,490,valid,"[(1169, 762)]",[],[1],[0.8166666666666667],horizontal,"(390.0, 762.0)",1.5333333333333332,0.771,1,2975.76,2,0.02,same
0,491,valid,"[(1175, 790)]",[],[1],[0.5666666666666667],vertical,"(890.0, 762.0)",1.1,0.523,1,2981.783,3,0.02,same
0,492,valid,"[(1172, 777)]",[],[1],[0.85],vertical,"(390.0, 262.0)",1.5166666666666666,nan,0,2987.875,0,0.02,same
0,493,invalid_same_bar,"[(1134, 803)]",[],[1],[0.55],vertical,"(890.0, 762.0)",0.8333333333333334,0.514,1,2993.27,1,0.02,same
0,494,valid,"[(1166, 793)]",[],[1],[0.5166666666666666],vertical,"(890.0, 262.0)",0.9166666666666666,0.475,1,2998.459,1,0.02,same
0,495,catch,"[(1158, 777)]",[],[1],[],horizontal,"(390.0, 762.0)",1.7,nan,1,3003.276,1,0.02,same
0,496,valid,"[(1156, 787)]",[],[1],[0.5],vertical,"(890.0, 762.0)",0.5833333333333334,0.461,1,3008.026,2,0.02,same
0,497,valid,"[(1176, 761)]",[],[1],[0.5],vertical,"(890.0, 262.0)",1.05,0.464,1,3012.791,2,0.02,same
0,498,catch,"[(1175, 771)]",[],[1],[],vertical,"(890.0, 762.0)",1.7,nan,1,3018.403,2,0.02,same
0,499,valid,"[(1166, 762)]",[],[1],[0.48333333333333334],vertical,"(890.0, 262.0)",0.9,0.441,1,3024.182,3,0.02,same
0,500,valid,"[(1175, 770)]",[],[1],[0.5],horizontal,"(390.0, 262.0)",0.5333333333333333,0.463,1,3030.205,3,0.02,same
0,501,catch,"[(1165, 791)]",[],[1],[],horizontal,"(890.0, 262.0)",1.7,nan,1,3035.813,3,0.02,same
0,502,valid,"[(1172, 764)]",[],[1],[0.6],vertical,"(890.0, 262.0)",1.4166666666666667,0.56,1,3041.841,3,0.02,same
0,503,valid,"[(1178, 756)]",[],[1],[0.6666666666666666],vertical,"(390.0, 262.0)",1.2833333333333332,0.623,1,3048.084,3,0.02,same
0,504,valid,"[(1164, 794)]",[],[1],[0.5333333333333333],vertical,"(890.0, 762.0)",0.8166666666666667,0.496,1,3054.148,3,0.02,same
0,505,valid,"[(1162, 764)]",[],[1],[0.6166666666666667],vertical,"(390.0, 262.0)",0.36666666666666664,0.574,1,3059.735,3,0.02,same
0,506,valid,"[(1160, 792)]",[],[1],[0.5],vertical,"(390.0, 262.0)",0.9,0.458,1,3065.219,3,0.02,same
0,507,invalid_adjacent_other_bar,"[(1151, 788)]",[],[1],[0.48333333333333334],horizontal,"(890.0, 762.0)",1.1,0.451,1,3071.092,3,0.02,other
0,508,catch,"[(1165, 776)]",[],[1],[],vertical,"(390.0, 762.0)",1.7,nan,1,3076.6,3,0.02,same
0,509,valid,"[(1156, 761)]",[],[1],[0.5166666666666666],horizontal,"(890.0, 262.0)",0.8666666666666667,0.477,1,3082.958,3,0.02,same
0,510,catch,"[(1175, 743), (1136, 807)]",[],"[0, 1]",[],horizontal,"(390.0, 262.0)",1.7,nan,1,3088.64,3,0.02,same
0,511,invalid_same_bar,"[(1132, 811)]",[],[1],[0.85],vertical,"(890.0, 262.0)",0.8666666666666667,nan,0,3095.557,0,0.02,same
0,512,invalid_adjacent_other_bar,"[(1091, 827)]",[],[1],[0.6],vertical,"(890.0, 762.0)",1.3666666666666667,0.556,1,3101.258,1,0.02,other
0,513,valid,"[(1131, 801)]",[],[1],[0.6],horizontal,"(390.0, 262.0)",0.7666666666666666,0.565,1,3107.475,1,0.02,same
0,514,catch,"[(1135, 796)]",[],[1],[],horizontal,"(390.0, 262.0)",1.7,nan,1,3112.358,1,0.02,same
0,515,catch,"[(1146, 788)]",[],[1],[],vertical,"(390.0, 262.0)",1.7,nan,1,3117.949,2,0.02,same
0,516,valid,"[(1153, 790)]",[],[1],[0.48333333333333334],vertical,"(890.0, 262.0)",0.5666666666666667,0.448,1,3123.691,2,0.02,same
0,517,valid,"[(1153, 787)]",[],[1],[0.6333333333333333],horizontal,"(890.0, 262.0)",1.25,0.587,1,3128.608,2,0.02,same
0,518,invalid_same_bar,"[(1156, 759)]",[],[1],[0.6833333333333333],vertical,"(890.0, 262.0)",1.2833333333333332,0.64,1,3134.308,3,0.02,same
0,519,catch,"[(1154, 788)]",[],[1],[],vertical,"(390.0, 762.0)",1.7,nan,1,3140.743,3,0.02,same
0,520,valid,"[(1153, 791)]",[],[1],[0.85],vertical,"(390.0, 762.0)",1.5166666666666666,nan,0,3147.025,0,0.02,same
0,521,invalid_adjacent_other_bar,"[(1116, 818)]",[],[1],[0.85],horizontal,"(390.0, 762.0)",1.3333333333333333,nan,0,3152.127,0,0.02,other
0,522,catch,"[(1116, 792)]",[],[1],[],horizontal,"(390.0, 762.0)",1.7,nan,1,3157.159,1,0.02,same
0,523,valid,"[(1139, 794)]",[],[1],[0.6333333333333333],vertical,"(890.0, 762.0)",0.6666666666666666,0.602,1,3162.658,1,0.02,same
0,524,valid,"[(1146, 786)]",[],[1],[0.6666666666666666],vertical,"(390.0, 262.0)",1.4166666666666667,0.625,1,3167.642,1,0.02,same
0,525,catch,"[(1166, 792)]",[],[1],[],horizontal,"(890.0, 262.0)",1.7,nan,1,3173.342,2,0.02,same
0,526,valid,"[(1171, 777)]",[],[1],[0.6333333333333333],horizontal,"(890.0, 762.0)",0.6,0.59,1,3178.726,2,0.02,same
0,527,catch,"[(1175, 777)]",[],[1],[],horizontal,"(890.0, 762.0)",1.7,nan,1,3183.775,2,0.02,same
0,528,catch,"[(1150, 800)]",[],[1],[],vertical,"(390.0, 762.0)",1.7,nan,1,3189.175,3,0.02,same
0,529,valid,"[(1178, 783)]",[],[1],[0.5833333333333334],vertical,"(890.0, 762.0)",1.0833333333333333,0.545,1,3195.396,3,0.02,same
0,530,valid,"[(1172, 788)]",[],[1],[0.85],horizontal,"(390.0, 762.0)",0.45,nan,0,3201.625,0,0.02,same
0,531,valid,"[(1119, 796)]",[],[1],[0.65],horizontal,"(890.0, 262.0)",0.4166666666666667,0.604,1,3205.489,1,0.02,same
0,532,catch,"[(1170, 796)]",[],[1],[],vertical,"(390.0, 762.0)",1.7,nan,1,3210.357,1,0.02,same
0,533,valid,"[(1185, 764)]",[],[1],[0.5833333333333334],horizontal,"(890.0, 262.0)",0.6666666666666666,0.545,1,3215.524,1,0.02,same
0,534,catch,"[(1154, 769)]",[],[1],[],vertical,"(390.0, 762.0)",1.7,nan,1,3219.99,2,0.0,same
0,535,valid,"[(1161, 773)]",[],[1],[0.5333333333333333],horizontal,"(390.0, 762.0)",0.8833333333333333,0.489,1,3226.025,2,0.0,same
0,536,valid,"[(1179, 791)]",[],[1],[0.5166666666666666],vertical,"(390.0, 762.0)",0.8,0.481,1,3231.394,2,0.0,same
0,537,valid,"[(1153, 765)]",[],[1],[0.5333333333333333],horizontal,"(390.0, 762.0)",0.55,0.497,1,3236.794,3,0.0,same
0,538,invalid_adjacent_other_bar,"[(1155, 767)]",[],[1],[0.6333333333333333],vertical,"(390.0, 762.0)",1.4333333333333333,0.592,1,3242.142,3,0.0,other
0,539,catch,"[(1161, 785)]",[],[1],[],horizontal,"(890.0, 762.0)",1.7,nan,1,3248.576,3,0.0,same
0,540,valid,"[(1187, 791)]",[],[1],[0.65],horizontal,"(890.0, 762.0)",1.3833333333333333,0.609,1,3254.876,3,0.0,same
0,541,valid,"[(1180, 772)]",[],[1],[0.7166666666666667],horizontal,"(890.0, 762.0)",0.95,0.674,1,3261.226,3,0.0,same
0,542,valid,"[(1163, 791)]",[],[1],[0.5166666666666666],vertical,"(390.0, 762.0)",0.5666666666666667,0.481,1,3267.225,3,0.0,same
0,543,valid,"[(1158, 773)]",[],[1],[0.5],vertical,"(390.0, 262.0)",0.95,0.461,1,3272.642,3,0.0,same
0,544,catch,"[(1180, 776)]",[],[1],[],horizontal,"(890.0, 762.0)",1.7,nan,1,3278.262,3,0.0,same
0,545,valid,"[(1166, 777)]",[],[1],[0.6166666666666667],vertical,"(390.0, 262.0)",1.0166666666666666,0.574,1,3284.169,3,0.0,same
0,546,valid,"[(1177, 781)]",[],[1],[0.85],horizontal,"(890.0, 762.0)",1.45,nan,0,3289.915,0,0.0,same
0,547,catch,"[(1130, 796)]",[],[1],[],vertical,"(890.0, 262.0)",1.7,nan,1,3295.374,1,0.0,same
0,548,valid,"[(1161, 796)]",[],[1],[0.55],vertical,"(890.0, 762.0)",0.4,0.51,1,3301.127,1,0.0,same
0,549,valid,"[(1180, 787)]",[],[1],[0.6],horizontal,"(890.0, 762.0)",1.25,0.559,1,3305.825,1,0.0,same
0,550,valid,"[(1151, 792)]",[],[1],[0.5666666666666667],horizontal,"(390.0, 762.0)",1.0,0.539,1,3310.995,2,0.0,same
0,551,valid,"[(1175, 773)]",[],[1],[0.6166666666666667],vertical,"(390.0, 262.0)",1.45,0.576,1,3316.542,2,0.0,same
0,552,catch,"[(1186, 793)]",[],[1],[],horizontal,"(890.0, 262.0)",1.7,nan,1,3322.378,2,0.0,same
0,553,valid,"[(1180, 791)]",[],[1],[0.5833333333333334],vertical,"(890.0, 262.0)",0.8,0.541,1,3328.324,3,0.0,same
0,554,catch,"[(1115, 791)]",[],[1],[],vertical,"(390.0, 262.0)",1.7,nan,1,3333.94,3,0.0,same
0,555,valid,"[(1152, 782)]",[],[1],[0.85],vertical,"(890.0, 762.0)",0.8833333333333333,nan,0,3340.984,0,0.0,same
0,556,catch,"[(1132, 796)]",[],[1],[],horizontal,"(390.0, 262.0)",1.7,nan,1,3345.826,1,0.0,same
0,557,catch,"[(1167, 791)]",[],[1],[],vertical,"(390.0, 762.0)",1.7,nan,1,3351.105,1,0.0,same
0,558,catch,"[(1166, 791)]",[],[1],[],horizontal,"(390.0, 262.0)",1.7,nan,1,3356.427,1,0.0,same
0,559,valid,"[(1152, 794)]",[],[1],[0.5166666666666666],horizontal,"(890.0, 762.0)",0.9833333333333333,0.479,1,3361.5,2,0.0,same
0,560,valid,"[(1146, 796)]",[],[1],[0.7666666666666666],vertical,"(890.0, 262.0)",0.5666666666666667,0.734,1,3366.893,2,0.0,same
0,561,valid,"[(1156, 794)]",[],[1],[0.55],vertical,"(890.0, 262.0)",1.2166666666666666,0.514,1,3372.077,2,0.0,same
0,562,valid,"[(1129, 795)]",[],[1],[0.5333333333333333],horizontal,"(390.0, 762.0)",0.9166666666666666,0.491,1,3378.064,3,0.0,same
0,563,catch,"[(1176, 793)]",[],[1],[],vertical,"(890.0, 762.0)",1.7,nan,1,3384.042,3,0.0,same
0,564,catch,"[(1166, 784)]",[],[1],[],vertical,"(390.0, 762.0)",1.7,nan,1,3390.441,3,0.0,same
0,565,valid,"[(1165, 758)]",[],[1],[0.5833333333333334],horizontal,"(390.0, 262.0)",1.4666666666666666,0.54,1,3396.346,3,0.0,same
0,566,valid,"[(1184, 789)]",[],[1],[0.5333333333333333],vertical,"(390.0, 262.0)",0.8,0.49,1,3402.976,3,0.0,same
0,567,invalid_adjacent_other_bar,"[(1170, 779)]",[],[1],[0.6],vertical,"(390.0, 762.0)",1.0166666666666666,0.561,1,3408.41,3,0.0,other
0,568,invalid_same_bar,"[(1168, 770)]",[],[1],[0.5],horizontal,"(890.0, 762.0)",1.15,0.466,1,3414.359,3,0.0,same
0,569,valid,"[(1151, 770)]",[],[1],[0.5166666666666666],horizontal,"(890.0, 762.0)",0.8833333333333333,0.476,1,3420.259,3,0.0,same
0,570,catch,"[(1171, 784)]",[],[1],[],horizontal,"(390.0, 262.0)",1.7,nan,1,3425.585,3,0.0,same
0,571,valid,"[(1152, 763)]",[],[1],[0.5166666666666666],vertical,"(390.0, 762.0)",0.85,0.474,1,3431.896,3,0.0,same
0,572,invalid_same_bar,"[(1176, 781)]",[],[1],[0.6166666666666667],vertical,"(390.0, 762.0)",0.5333333333333333,0.574,1,3437.359,3,0.0,same
0,573,catch,"[(1141, 792)]",[],[1],[],horizontal,"(890.0, 762.0)",1.7,nan,1,3442.528,3,0.0,same
0,574,invalid_same_bar,"[(1166, 781)]",[],[1],[0.5833333333333334],horizontal,"(390.0, 262.0)",1.0666666666666667,0.536,1,3448.835,3,0.0,same
0,575,valid,"[(1176, 789)]",[],[1],[0.6333333333333333],horizontal,"(890.0, 262.0)",0.9333333333333333,0.59,1,3454.525,3,0.0,same
0,576,valid,"[(1136, 786)]",[],[1],[0.85],horizontal,"(890.0, 262.0)",0.43333333333333335,nan,0,3460.473,0,0.0,same
0,577,valid,"[(1113, 804)]",[],[1],[0.85],vertical,"(390.0, 262.0)",0.6166666666666667,nan,0,3464.61,0,0.0,same
0,578,invalid_adjacent_other_bar,"[(1116, 876)]",[],[1],[0.85],horizontal,"(890.0, 262.0)",0.75,nan,0,3468.827,0,0.0,other
0,579,invalid_adjacent_other_bar,"[(1092, 811)]",[],[1],[0.6],vertical,"(390.0, 262.0)",0.55,0.562,1,3846.311,1,0.0,other
0,580,valid,"[(1146, 787)]",[],[1],[0.5],vertical,"(890.0, 262.0)",1.2666666666666666,0.459,1,3850.927,1,0.0,same
0,581,valid,"[(1173, 793)]",[],[1],[0.5],horizontal,"(390.0, 262.0)",0.75,0.452,1,3856.416,1,0.0,same
0,582,valid,"[(1189, 796)]",[],[1],[0.5166666666666666],vertical,"(890.0, 762.0)",0.8833333333333333,0.48,1,3860.876,2,0.0,same
0,583,valid,"[(1180, 786)]",[],[1],[0.5],horizontal,"(390.0, 262.0)",1.0,0.461,1,3865.766,2,0.0,same
0,584,catch,"[(1157, 782)]",[],[1],[],vertical,"(390.0, 762.0)",1.7,nan,1,3870.924,2,0.0,same
0,585,catch,"[(1179, 786)]",[],[1],[],vertical,"(390.0, 262.0)",1.7,nan,1,3876.427,3,0.0,same
0,586,valid,"[(1177, 777)]",[],[1],[0.85],vertical,"(390.0, 762.0)",1.1833333333333333,nan,0,3882.562,0,0.0,same
0,587,catch,"[(1121, 817)]",[],[1],[],vertical,"(390.0, 262.0)",1.7,nan,1,3887.545,1,0.0,same
0,588,invalid_adjacent_other_bar,"[(1178, 797)]",[],[1],[0.55],vertical,"(890.0, 262.0)",1.5166666666666666,0.506,1,3892.685,1,0.0,other
0,589,valid,"[(1160, 771)]",[],[1],[0.4666666666666667],vertical,"(390.0, 262.0)",0.5666666666666667,0.428,1,3898.446,1,0.0,same
0,590,valid,"[(1155, 796)]",[],[1],[0.85],vertical,"(890.0, 262.0)",0.5,nan,0,3902.567,0,0.0,same
0,591,catch,"[(1151, 778)]",[],[1],[],vertical,"(890.0, 762.0)",1.7,nan,1,3906.577,1,0.0,same
0,592,catch,"[(1131, 791)]",[],[1],[],vertical,"(890.0, 262.0)",1.7,nan,1,3912.017,1,0.0,same
0,593,valid,"[(1162, 789)]",[],[1],[0.5166666666666666],horizontal,"(890.0, 762.0)",0.5,0.472,1,3917.66,1,0.0,same
0,594,catch,"[(1174, 796)]",[],[1],[],vertical,"(390.0, 262.0)",1.7,nan,1,3922.287,2,0.0,same
0,595,catch,"[(1156, 761)]",[],[1],[],vertical,"(890.0, 762.0)",1.7,nan,1,3927.673,2,0.0,same
0,596,valid,"[(1159, 790)]",[],[1],[0.4666666666666667],vertical,"(390.0, 262.0)",0.4666666666666667,0.435,1,3933.583,2,0.0,same
0,597,catch,"[(1157, 790)]",[],[1],[],horizontal,"(890.0, 262.0)",1.7,nan,1,3938.665,3,0.0,same
0,598,invalid_adjacent_other_bar,"[(1155, 785)]",[],[1],[0.5],vertical,"(890.0, 762.0)",0.65,0.459,1,3944.831,3,0.0,other
0,599,catch,"[(1155, 791)]",[],[1],[],horizontal,"(890.0, 762.0)",1.7,nan,1,3950.35,3,0.0,same
0,600,valid,"[(1159, 791)]",[],[1],[0.6166666666666667],horizontal,"(890.0, 762.0)",1.0166666666666666,0.583,1,3955.993,3,0.0,same
0,601,catch,"[(1171, 779)]",[],[1],[],vertical,"(390.0, 262.0)",1.7,nan,1,3961.679,3,0.0,same
0,602,valid,"[(1160, 784)]",[],[1],[0.5333333333333333],horizontal,"(390.0, 262.0)",0.6,0.495,1,3967.525,3,0.0,same
0,603,valid,"[(1159, 777)]",[],[1],[0.48333333333333334],vertical,"(390.0, 762.0)",1.45,0.447,1,3973.006,3,0.0,same
0,604,catch,"[(1167, 777)]",[],[1],[],vertical,"(390.0, 262.0)",1.7,nan,1,3979.46,3,0.0,same
0,605,invalid_same_bar,"[(1163, 792)]",[],[1],[0.4666666666666667],vertical,"(390.0, 762.0)",0.7333333333333333,0.427,1,3985.627,3,0.0,same
0,606,valid,"[(1158, 791)]",[],[1],[0.5833333333333334],horizontal,"(390.0, 762.0)",0.48333333333333334,0.546,1,3990.942,3,0.0,same
0,607,invalid_adjacent_other_bar,"[(1162, 795)]",[],[1],[0.6],vertical,"(890.0, 262.0)",0.36666666666666664,0.563,1,3996.083,3,0.0,other
0,608,valid,"[(1162, 796)]",[],[1],[0.5333333333333333],vertical,"(390.0, 262.0)",1.5333333333333332,0.493,1,4000.962,3,0.0,same
0,609,invalid_same_bar,"[(1163, 777)]",[],[1],[0.4666666666666667],vertical,"(890.0, 262.0)",0.6,0.43,1,4007.189,3,0.0,same
0,610,valid,"[(1143, 776)]",[],[1],[0.6333333333333333],horizontal,"(390.0, 262.0)",1.5333333333333332,0.591,1,4012.633,3,0.0,same
0,611,invalid_adjacent_other_bar,"[(1172, 777)]",[],[1],[0.5],horizontal,"(390.0, 762.0)",0.7,0.462,1,4019.244,3,0.0,other
0,612,catch,"[(1161, 792)]",[],[1],[],vertical,"(390.0, 262.0)",1.7,nan,1,4024.777,3,0.0,same
0,613,invalid_adjacent_other_bar,"[(1185, 769)]",[],[1],[0.6333333333333333],vertical,"(390.0, 762.0)",0.8833333333333333,0.595,1,4031.026,3,0.0,other
0,614,valid,"[(1156, 758)]",[],[1],[0.5166666666666666],horizontal,"(390.0, 762.0)",1.0333333333333332,0.478,1,4037.227,3,0.0,same
0,615,catch,"[(1179, 766)]",[],[1],[],horizontal,"(890.0, 762.0)",1.7,nan,1,4042.624,3,0.0,same
0,616,invalid_adjacent_other_bar,"[(1180, 803)]",[],[1],[0.6166666666666667],vertical,"(390.0, 762.0)",1.0,0.572,1,4048.551,3,0.0,other
0,617,valid,"[(1166, 786)]",[],[1],[0.65],horizontal,"(390.0, 262.0)",1.25,0.606,1,4054.414,3,0.0,same
0,618,catch,"[(1187, 765)]",[],[1],[],vertical,"(390.0, 262.0)",1.7,nan,1,4060.559,3,0.0,same
0,619,valid,"[(1157, 777)]",[],[1],[0.5],horizontal,"(890.0, 762.0)",0.7833333333333333,0.461,1,4066.887,3,0.0,same
0,620,catch,"[(1160, 764)]",[],[1],[],vertical,"(390.0, 762.0)",1.7,nan,1,4072.273,3,0.0,same
0,621,catch,"[(1151, 761)]",[],[1],[],vertical,"(390.0, 762.0)",1.7,nan,1,4078.547,3,0.0,same
0,622,valid,"[(1156, 757)]",[],[1],[0.5833333333333334],horizontal,"(890.0, 262.0)",1.3666666666666667,0.542,1,4084.583,3,0.0,same
0,623,catch,"[(1171, 777)]",[],[1],[],vertical,"(390.0, 762.0)",1.7,nan,1,4090.463,3,0.0,same
0,624,valid,"[(1161, 764)]",[],[1],[0.55],vertical,"(390.0, 262.0)",1.4666666666666666,0.511,1,4096.928,3,0.0,same
0,625,valid,"[(1162, 761)]",[],[1],[0.5333333333333333],horizontal,"(390.0, 762.0)",1.0166666666666666,0.494,1,4103.438,3,0.0,same
0,626,invalid_same_bar,"[(1157, 786)]",[],[1],[0.5166666666666666],vertical,"(890.0, 762.0)",0.7,0.478,1,4109.705,3,0.0,same
0,627,valid,"[(1156, 796)]",[],[1],[0.6333333333333333],horizontal,"(390.0, 262.0)",1.4666666666666666,0.589,1,4115.094,3,0.0,same
0,628,catch,"[(1156, 767)]",[],[1],[],vertical,"(390.0, 762.0)",1.7,nan,1,4121.328,3,0.0,same
0,629,invalid_same_bar,"[(1183, 776)]",[],[1],[0.5],horizontal,"(390.0, 262.0)",0.45,0.462,1,4127.257,3,0.0,same
0,630,catch,"[(1170, 772)]",[],[1],[],vertical,"(390.0, 762.0)",1.7,nan,1,4132.413,3,0.0,same
0,631,invalid_same_bar,"[(1156, 777)]",[],[1],[0.5666666666666667],vertical,"(390.0, 762.0)",1.4833333333333334,0.521,1,4138.677,3,0.0,same
0,632,valid,"[(1178, 782)]",[],[1],[0.6333333333333333],horizontal,"(890.0, 262.0)",0.5333333333333333,0.588,1,4144.978,3,0.0,same
0,633,catch,"[(1179, 778)]",[],[1],[],horizontal,"(890.0, 762.0)",,"('cti', 1.618),nan",0,4150.525,0,0.02,same
0,634,valid,"[(1132, 806)]",[],[1],[0.7333333333333333],horizontal,"(890.0, 762.0)",1.0333333333333332,0.685,1,4155.46,1,0.02,same
0,635,valid,"[(1155, 781)]",[],[1],[0.5],vertical,"(890.0, 762.0)",1.0666666666666667,0.458,1,4160.724,1,0.02,same
0,636,invalid_adjacent_other_bar,"[(1159, 782)]",[],[1],[0.5333333333333333],horizontal,"(890.0, 762.0)",0.75,0.493,1,4165.588,1,0.02,other
0,637,valid,"[(1160, 776)]",[],[1],[0.85],vertical,"(390.0, 762.0)",0.8666666666666667,nan,0,4170.172,0,0.02,same
0,638,invalid_adjacent_other_bar,"[(1140, 782)]",[],[1],[0.5333333333333333],horizontal,"(390.0, 762.0)",0.8666666666666667,0.49,1,4174.76,1,0.02,other
0,639,invalid_adjacent_other_bar,"[(1175, 780)]",[],[1],[0.5],vertical,"(890.0, 762.0)",0.75,0.46,1,4179.494,1,0.02,other
0,640,catch,"[(1178, 782)]",[],[1],[],horizontal,"(390.0, 262.0)",1.7,nan,1,4184.628,1,0.02,same
0,641,valid,"[(1171, 799)]",[],[1],[0.75],horizontal,"(390.0, 762.0)",1.25,0.699,1,4189.411,2,0.02,same
0,642,valid,"[(1178, 777)]",[],[1],[0.6166666666666667],vertical,"(890.0, 262.0)",0.5833333333333334,0.571,1,4195.259,2,0.02,same
0,643,invalid_adjacent_other_bar,"[(1152, 760)]",[],[1],[0.85],horizontal,"(390.0, 262.0)",0.5333333333333333,nan,0,4200.089,0,0.02,other
0,644,valid,"[(1137, 789)]",[],[1],[0.48333333333333334],horizontal,"(390.0, 762.0)",1.05,0.442,1,4204.211,1,0.02,same
0,645,catch,"[(1175, 767)]",[],[1],[],horizontal,"(390.0, 762.0)",1.7,nan,1,4209.11,1,0.02,same
0,646,valid,"[(1155, 772)]",[],[1],[0.6],horizontal,"(390.0, 762.0)",0.7666666666666666,0.558,1,4214.437,1,0.02,same
0,647,catch,"[(1165, 778)]",[],[1],[],horizontal,"(390.0, 762.0)",1.7,nan,1,4219.727,2,0.02,same
0,648,valid,"[(1171, 781)]",[],[1],[0.5166666666666666],vertical,"(390.0, 262.0)",0.45,0.471,1,4225.599,2,0.02,same
0,649,catch,"[(1161, 750), (1130, 788)]",[],"[0, 1]",[],horizontal,"(890.0, 762.0)",1.7,nan,1,4230.372,2,0.02,same
0,650,valid,"[(1151, 772)]",[],[1],[0.6666666666666666],horizontal,"(890.0, 762.0)",1.5166666666666666,0.629,1,4237.612,3,0.02,same
0,651,valid,"[(1177, 777)]",[],[1],[0.85],vertical,"(390.0, 762.0)",1.15,nan,0,4243.925,0,0.02,same
0,652,valid,"[(1142, 796)]",[],[1],[0.5],horizontal,"(390.0, 762.0)",0.8166666666666667,0.464,1,4248.677,1,0.02,same
0,653,catch,"[(1155, 803)]",[],[1],[],vertical,"(890.0, 762.0)",1.7,nan,1,4253.637,1,0.02,same
0,654,valid,"[(1153, 778)]",[],[1],[0.5166666666666666],vertical,"(390.0, 762.0)",0.5666666666666667,0.475,1,4258.96,1,0.02,same
0,655,valid,"[(1158, 796)]",[],[1],[0.5666666666666667],horizontal,"(890.0, 762.0)",1.4333333333333333,0.526,1,4263.728,2,0.02,same
0,656,valid,"[(1121, 803)]",[],[1],[0.6],horizontal,"(390.0, 262.0)",1.2166666666666666,0.562,1,4269.513,2,0.02,same
0,657,valid,"[(1150, 766)]",[],[1],[0.5],vertical,"(890.0, 762.0)",0.7,0.463,1,4275.182,2,0.02,same
0,658,valid,"[(1146, 789)]",[],[1],[0.5],vertical,"(890.0, 262.0)",0.7166666666666667,0.459,1,4280.368,3,0.02,same
0,659,valid,"[(1161, 770)]",[],[1],[0.5166666666666666],horizontal,"(390.0, 762.0)",1.4333333333333333,0.474,1,4286.005,3,0.02,same
0,660,valid,"[(1161, 774)]",[],[1],[0.6666666666666666],horizontal,"(890.0, 762.0)",1.1333333333333333,0.621,1,4291.944,3,0.02,same
0,661,valid,"[(1156, 785)]",[],[1],[0.48333333333333334],horizontal,"(890.0, 262.0)",1.0166666666666666,0.438,1,4298.335,3,0.02,same
0,662,valid,"[(1176, 769)]",[],[1],[0.5],horizontal,"(390.0, 762.0)",0.6333333333333333,0.459,1,4304.212,3,0.02,same
0,663,catch,"[(1157, 782)]",[],[1],[],horizontal,"(390.0, 262.0)",1.7,nan,1,4309.513,3,0.02,same
0,664,valid,"[(1163, 785)]",[],[1],[0.5333333333333333],vertical,"(890.0, 262.0)",1.05,0.492,1,4315.112,3,0.02,same
0,665,catch,"[(1166, 782)]",[],[1],[],horizontal,"(390.0, 262.0)",1.7,nan,1,4321.343,3,0.02,same
0,666,catch,"[(1161, 794)]",[],[1],[],horizontal,"(890.0, 262.0)",1.7,nan,1,4327.461,3,0.02,same
0,667,catch,"[(1156, 762)]",[],[1],[],vertical,"(390.0, 762.0)",1.7,nan,1,4333.41,3,0.02,same
0,668,catch,"[(1170, 781)]",[],[1],[],vertical,"(390.0, 762.0)",1.7,nan,1,4339.211,3,0.02,same
0,669,catch,"[(1166, 777)]",[],[1],[],horizontal,"(390.0, 262.0)",1.7,nan,1,4345.505,3,0.02,same
0,670,valid,"[(1142, 806)]",[],[1],[0.85],vertical,"(390.0, 762.0)",0.8166666666666667,nan,0,4351.198,0,0.02,same
0,671,catch,"[(1122, 796)]",[],[1],[],horizontal,"(890.0, 762.0)",1.7,nan,1,4356.008,1,0.02,same
0,672,valid,"[(1155, 772)]",[],[1],[0.5333333333333333],horizontal,"(390.0, 762.0)",1.0,0.489,1,4360.995,1,0.02,same
0,673,valid,"[(1154, 785)]",[],[1],[0.5333333333333333],vertical,"(390.0, 762.0)",1.25,0.492,1,4365.99,1,0.02,same
0,674,invalid_adjacent_other_bar,"[(1157, 781)]",[],[1],[0.5833333333333334],horizontal,"(390.0, 262.0)",0.4166666666666667,0.543,1,4371.52,2,0.02,other
0,675,valid,"[(1155, 782)]",[],[1],[0.6],horizontal,"(390.0, 762.0)",0.8,0.56,1,4376.678,2,0.02,same
0,676,valid,"[(1151, 787)]",[],[1],[0.8333333333333334],horizontal,"(890.0, 762.0)",1.25,0.786,1,4382.178,2,0.02,same
0,677,catch,"[(1129, 783)]",[],[1],[],horizontal,"(890.0, 762.0)",1.7,nan,1,4388.011,3,0.02,same
0,678,invalid_adjacent_other_bar,"[(1160, 786)]",[],[1],[0.48333333333333334],vertical,"(890.0, 262.0)",0.7166666666666667,0.441,1,4394.762,3,0.02,other
0,679,valid,"[(1180, 762)]",[],[1],[0.5],horizontal,"(390.0, 262.0)",1.1,0.456,1,4400.295,3,0.02,same
0,680,catch,"[(1161, 782)]",[],[1],[],horizontal,"(390.0, 762.0)",1.7,nan,1,4406.244,3,0.02,same
0,681,valid,"[(1151, 782)]",[],[1],[0.5166666666666666],vertical,"(390.0, 762.0)",0.6833333333333333,0.477,1,4412.261,3,0.02,same
0,682,valid,"[(1150, 789)]",[],[1],[0.85],horizontal,"(890.0, 762.0)",1.2,nan,0,4418.171,0,0.02,same
0,683,valid,"[(1097, 796)]",[],[1],[0.6],vertical,"(390.0, 762.0)",0.8,0.557,1,4423.619,1,0.0,same
0,684,valid,"[(1164, 790)]",[],[1],[0.5166666666666666],horizontal,"(390.0, 762.0)",1.3333333333333333,0.475,1,4442.245,1,0.0,same
0,685,invalid_adjacent_other_bar,"[(1158, 806)]",[],[1],[0.5],vertical,"(890.0, 262.0)",1.0166666666666666,0.457,1,4447.928,1,0.0,other
0,686,invalid_same_bar,"[(1132, 777)]",[],[1],[0.48333333333333334],vertical,"(890.0, 762.0)",0.6666666666666666,0.441,1,4453.176,2,0.0,same
0,687,catch,"[(1155, 772)]",[],[1],[],vertical,"(390.0, 762.0)",1.7,nan,1,4458.278,2,0.0,same
0,688,catch,"[(1157, 781)]",[],[1],[],horizontal,"(890.0, 762.0)",1.7,nan,1,4463.796,2,0.0,same
0,689,catch,"[(1096, 848)]",[],[1],[],horizontal,"(890.0, 762.0)",1.7,nan,1,4469.762,3,0.0,same
0,690,valid,"[(1182, 780)]",[],[1],[0.85],vertical,"(390.0, 262.0)",0.9166666666666666,nan,0,4475.946,0,0.0,same
0,691,valid,"[(1127, 797)]",[],[1],[0.5],vertical,"(890.0, 762.0)",1.5166666666666666,0.459,1,4480.962,1,0.0,same
0,692,catch,"[(1161, 780)]",[],[1],[],vertical,"(890.0, 262.0)",1.7,nan,1,4486.545,1,0.0,same
0,693,catch,"[(1150, 772)]",[],[1],[],vertical,"(890.0, 262.0)",1.7,nan,1,4491.852,1,0.0,same
0,694,catch,"[(1153, 765)]",[],[1],[],horizontal,"(390.0, 762.0)",1.7,nan,1,4496.896,2,0.0,same
0,695,invalid_adjacent_other_bar,"[(1158, 770)]",[],[1],[0.85],horizontal,"(890.0, 762.0)",0.9666666666666667,nan,0,4502.396,0,0.0,other
0,696,valid,"[(1099, 846)]",[],[1],[0.65],vertical,"(890.0, 762.0)",0.9666666666666667,0.606,1,4507.012,1,0.0,same
0,697,valid,"[(1127, 806)]",[],[1],[0.65],vertical,"(890.0, 762.0)",0.8833333333333333,0.605,1,4744.646,1,0.0,same
0,698,invalid_adjacent_other_bar,"[(1160, 790)]",[],[1],[0.5],horizontal,"(890.0, 762.0)",1.1833333333333333,0.457,1,4749.696,1,0.0,other
0,699,valid,"[(1141, 809)]",[],[1],[0.7833333333333333],horizontal,"(390.0, 262.0)",1.1833333333333333,0.74,1,4754.712,2,0.0,same
0,700,valid,"[(1162, 796)]",[],[1],[0.5166666666666666],horizontal,"(890.0, 262.0)",0.75,0.474,1,4760.53,2,0.0,same
0,701,catch,"[(1131, 796)]",[],[1],[],vertical,"(390.0, 762.0)",1.7,nan,1,4765.338,2,0.0,same
0,702,valid,"[(1155, 777)]",[],[1],[0.48333333333333334],horizontal,"(390.0, 262.0)",0.6833333333333333,0.441,1,4771.364,3,0.0,same
0,703,valid,"[(1157, 793)]",[],[1],[0.85],horizontal,"(390.0, 262.0)",1.3166666666666667,nan,0,4776.948,0,0.0,same
0,704,valid,"[(1127, 796)]",[],[1],[0.85],horizontal,"(390.0, 762.0)",0.43333333333333335,nan,0,4781.872,0,0.0,same
0,705,valid,"[(1131, 791)]",[],[1],[0.5166666666666666],vertical,"(890.0, 262.0)",1.4,0.473,1,4786.047,1,0.0,same
0,706,catch,"[(1131, 819)]",[],[1],[],horizontal,"(890.0, 262.0)",,"('fix', 0.315),nan",0,4791.628,0,0.02,same
0,707,catch,"[(1126, 831)]",[],[1],[],horizontal,"(890.0, 762.0)",1.7,nan,1,4793.366,1,0.02,same
0,708,catch,"[(1128, 772)]",[],[1],[],vertical,"(390.0, 762.0)",1.7,nan,1,4798.399,1,0.02,same
0,709,catch,"[(1156, 796)]",[],[1],[],horizontal,"(390.0, 762.0)",1.7,nan,1,4803.838,1,0.02,same
0,710,valid,"[(1178, 771)]",[],[1],[0.55],horizontal,"(390.0, 762.0)",1.05,0.505,1,4809.05,2,0.02,same
0,711,valid,"[(1150, 795)]",[],[1],[0.55],horizontal,"(890.0, 762.0)",0.43333333333333335,0.513,1,4814.774,2,0.02,same
0,712,valid,"[(1173, 790)]",[],[1],[0.5666666666666667],vertical,"(390.0, 762.0)",0.65,0.524,1,4819.888,2,0.02,same
0,713,valid,"[(1152, 766)]",[],[1],[0.55],vertical,"(390.0, 262.0)",0.6833333333333333,0.506,1,4825.043,3,0.02,same
0,714,valid,"[(1155, 792)]",[],[1],[0.5833333333333334],horizontal,"(890.0, 262.0)",0.5166666666666666,0.539,1,4830.614,3,0.02,same
0,715,catch,"[(1157, 793)]",[],[1],[],vertical,"(390.0, 762.0)",1.7,nan,1,4835.947,3,0.02,same
0,716,catch,"[(1150, 773)]",[],[1],[],vertical,"(390.0, 262.0)",1.7,nan,1,4841.999,3,0.02,same
0,717,valid,"[(1141, 766)]",[],[1],[0.6166666666666667],horizontal,"(890.0, 262.0)",0.6,0.57,1,4847.908,3,0.02,same
0,718,invalid_same_bar,"[(1152, 759)]",[],[1],[0.85],vertical,"(390.0, 762.0)",0.3833333333333333,nan,0,4853.556,0,0.02,same
0,719,valid,"[(1146, 795)]",[],[1],[0.48333333333333334],vertical,"(390.0, 262.0)",0.7833333333333333,0.44,1,4858.096,1,0.02,same
0,720,invalid_same_bar,"[(1175, 793)]",[],[1],[0.7],horizontal,"(390.0, 262.0)",0.9,0.653,1,4862.679,1,0.02,same
0,721,valid,"[(1112, 807)]",[],[1],[0.5166666666666666],vertical,"(390.0, 762.0)",0.55,0.482,1,4867.878,1,0.02,same
0,722,valid,"[(1150, 779)]",[],[1],[0.6333333333333333],horizontal,"(390.0, 262.0)",1.35,0.592,1,4872.372,2,0.02,same
0,723,valid,"[(1145, 792)]",[],[1],[0.5333333333333333],vertical,"(390.0, 262.0)",0.7166666666666667,0.493,1,4878.58,2,0.02,same
0,724,invalid_same_bar,"[(1150, 796)]",[],[1],[0.55],horizontal,"(390.0, 262.0)",0.5833333333333334,0.509,1,4883.613,2,0.02,same
0,725,valid,"[(1128, 800)]",[],[1],[0.5166666666666666],horizontal,"(390.0, 262.0)",0.6,0.474,1,4888.896,3,0.02,same
0,726,valid,"[(1176, 786)]",[],[1],[0.6166666666666667],vertical,"(390.0, 762.0)",1.1666666666666667,0.571,1,4894.73,3,0.02,same
0,727,valid,"[(1172, 796)]",[],[1],[0.5166666666666666],horizontal,"(390.0, 262.0)",0.6833333333333333,0.474,1,4900.83,3,0.02,same
0,728,valid,"[(1171, 874)]",[],[1],[0.48333333333333334],horizontal,"(890.0, 762.0)",1.0833333333333333,0.444,1,4908.73,3,0.02,same
0,729,valid,"[(1141, 801)]",[],[1],[0.5666666666666667],vertical,"(390.0, 762.0)",1.0166666666666666,0.521,1,4914.837,3,0.02,same
0,730,valid,"[(1153, 798)]",[],[1],[0.5],vertical,"(890.0, 262.0)",0.7166666666666667,0.459,1,4920.516,3,0.02,same
0,731,valid,"[(1161, 788)]",[],[1],[0.6333333333333333],horizontal,"(890.0, 762.0)",1.0,0.588,1,4926.052,3,0.02,same
0,732,valid,"[(1157, 783)]",[],[1],[0.5666666666666667],vertical,"(890.0, 262.0)",0.7666666666666666,0.525,1,4932.134,3,0.02,same
0,733,valid,"[(1160, 786)]",[],[1],[0.6166666666666667],horizontal,"(390.0, 262.0)",1.5333333333333332,0.572,1,4937.929,3,0.02,same
0,734,valid,"[(1137, 782)]",[],[1],[0.5166666666666666],horizontal,"(890.0, 762.0)",0.8333333333333334,0.474,1,4944.141,3,0.02,same
0,735,catch,"[(1155, 782)]",[],[1],[],horizontal,"(390.0, 262.0)",1.7,nan,1,4950.009,3,0.02,same
0,736,valid,"[(1128, 801)]",[],[1],[0.5833333333333334],horizontal,"(890.0, 762.0)",1.05,0.541,1,4956.147,3,0.02,same
0,737,valid,"[(1116, 796)]",[],[1],[0.6166666666666667],vertical,"(390.0, 762.0)",1.45,0.572,1,4962.281,3,0.02,same
0,738,valid,"[(1131, 801)]",[],[1],[0.85],vertical,"(390.0, 762.0)",0.85,nan,0,4968.988,0,0.02,same
0,739,valid,"[(1134, 791)]",[],[1],[0.5666666666666667],vertical,"(390.0, 762.0)",1.3,0.516,1,4973.813,1,0.02,same
0,740,valid,"[(1130, 790)]",[],[1],[0.65],horizontal,"(390.0, 262.0)",0.5833333333333334,0.599,1,4979.279,1,0.02,same
0,741,valid,"[(1163, 788)]",[],[1],[0.7],vertical,"(890.0, 262.0)",0.45,0.656,1,4984.296,1,0.02,same
0,742,invalid_adjacent_other_bar,"[(1160, 766)]",[],[1],[0.5833333333333334],vertical,"(390.0, 762.0)",1.2333333333333334,0.536,1,4988.668,2,0.02,other
0,743,invalid_adjacent_other_bar,"[(1136, 790)]",[],[1],[0.5],vertical,"(890.0, 762.0)",0.75,0.466,1,4994.476,2,0.02,other
0,744,invalid_adjacent_other_bar,"[(1161, 786)]",[],[1],[0.7166666666666667],vertical,"(390.0, 262.0)",0.9,0.679,1,4999.858,2,0.02,other
0,745,valid,"[(1132, 789)]",[],[1],[0.48333333333333334],horizontal,"(390.0, 262.0)",1.0,0.441,1,5005.746,3,0.02,same
0,746,catch,"[(1180, 772)]",[],[1],[],vertical,"(390.0, 262.0)",1.7,nan,1,5011.379,3,0.02,same
0,747,valid,"[(1170, 766)]",[],[1],[0.5],horizontal,"(390.0, 762.0)",0.4166666666666667,0.462,1,5017.242,3,0.02,same
0,748,catch,"[(1175, 774)]",[],[1],[],horizontal,"(390.0, 262.0)",1.7,nan,1,5022.465,3,0.02,same
0,749,valid,"[(1182, 786)]",[],[1],[0.65],vertical,"(390.0, 262.0)",1.05,0.607,1,5028.279,3,0.02,same
0,750,valid,"[(1160, 786)]",[],[1],[0.06666666666666667],horizontal,"(890.0, 262.0)",1.2833333333333332,0.033,0,5034.229,0,0.02,same
0,751,invalid_same_bar,"[(1168, 786)]",[],[1],[0.5333333333333333],vertical,"(890.0, 762.0)",1.0833333333333333,0.491,1,5038.997,1,0.02,same
0,752,valid,"[(1182, 769)]",[],[1],[0.4666666666666667],vertical,"(390.0, 262.0)",1.05,0.426,1,5044.109,1,0.02,same
0,753,invalid_adjacent_other_bar,"[(1129, 799)]",[],[1],[0.5833333333333334],vertical,"(390.0, 262.0)",0.6666666666666666,0.542,1,5049.232,1,0.02,other
0,754,valid,"[(1156, 777)]",[],[1],[0.55],horizontal,"(390.0, 262.0)",1.15,0.509,1,5053.78,2,0.02,same
0,755,valid,"[(1160, 790)]",[],[1],[0.55],horizontal,"(890.0, 262.0)",1.5,0.508,1,5059.379,2,0.02,same
0,756,catch,"[(1158, 782)]",[],[1],[],horizontal,"(390.0, 262.0)",1.7,nan,1,5065.455,2,0.0,same
0,757,valid,"[(1088, 892)]",[],[1],[0.6666666666666666],horizontal,"(890.0, 762.0)",0.7666666666666666,0.622,1,5071.011,3,0.0,same
0,758,valid,"[(1128, 820)]",[],[1],[0.5666666666666667],horizontal,"(390.0, 262.0)",1.0333333333333332,0.522,1,7424.035,3,0.0,same
0,759,catch,"[(1165, 811)]",[],[1],[],horizontal,"(890.0, 262.0)",,"('cti', 1.662),nan",0,7430.275,0,0.02,same
0,760,valid,"[(1168, 812)]","[(1090, 902)]",[1],[0.55],horizontal,"(890.0, 762.0)",,"('bar', 0.556)",0,7435.069,0,0.02,same
0,761,valid,"[(1111, 870)]",[],[1],[0.4166666666666667],horizontal,"(890.0, 262.0)",1.15,0.376,1,7437.807,1,0.02,same
0,762,valid,"[(1120, 837)]",[],[1],[0.48333333333333334],vertical,"(890.0, 262.0)",0.7,0.45,1,7690.185,1,0.02,same
0,763,catch,"[(1134, 837)]",[],[1],[],horizontal,"(890.0, 262.0)",1.7,nan,1,7695.069,1,0.02,same
0,764,valid,"[(1164, 809)]",[],[1],[0.85],horizontal,"(890.0, 762.0)",1.3166666666666667,nan,0,7701.503,0,0.02,same
0,765,catch,"[(1137, 797)]",[],[1],[],horizontal,"(390.0, 762.0)",1.7,nan,1,7707.352,1,0.02,same
0,766,catch,"[(1140, 811)]",[],[1],[],vertical,"(890.0, 762.0)",1.7,nan,1,7712.787,1,0.02,same
0,767,catch,"[(1107, 845), (1078, 860)]","[(1073, 882)]","[1, 1]",[0.55],horizontal,"(890.0, 762.0)",,"('fix', 0.544),('bar', 0.558),nan",0,7720.584,0,0.04,same
0,768,catch,"[(1081, 905)]",[],[1],[],vertical,"(890.0, 262.0)",,"('cti', 1.591),nan",0,7725.169,0,0.06,same
0,769,valid,"[(1131, 892)]",[],[1],[0.6166666666666667],horizontal,"(390.0, 262.0)",0.75,0.572,1,7783.134,1,0.06,same
0,770,valid,"[(1131, 787)]",[],[1],[0.85],horizontal,"(390.0, 762.0)",1.3666666666666667,nan,0,7798.486,0,0.06,same
0,771,catch,"[(1136, 806)]",[],[1],[],vertical,"(390.0, 262.0)",1.7,nan,1,7803.854,1,0.06,same
0,772,catch,"[(1134, 782)]",[],[1],[],horizontal,"(890.0, 262.0)",1.7,nan,1,7809.254,1,0.06,same
0,773,catch,"[(1179, 794)]",[],[1],[],horizontal,"(390.0, 762.0)",1.7,nan,1,7814.006,1,0.06,same
0,774,invalid_adjacent_other_bar,"[(1159, 802)]",[],[1],[0.48333333333333334],horizontal,"(390.0, 762.0)",1.2166666666666666,0.441,1,7819.804,2,0.06,other
0,775,invalid_adjacent_other_bar,"[(1161, 798)]",[],[1],[0.55],horizontal,"(390.0, 762.0)",0.75,0.518,1,7825.546,2,0.06,other
0,776,catch,"[(1159, 804)]",[],[1],[],horizontal,"(390.0, 762.0)",1.7,nan,1,7830.858,2,0.06,same
0,777,catch,"[(1160, 808)]",[],[1],[],vertical,"(890.0, 262.0)",1.7,nan,1,7836.662,3,0.06,same
0,778,valid,"[(1177, 802)]",[],[1],[0.4666666666666667],horizontal,"(390.0, 762.0)",1.0,0.43,1,7843.069,3,0.06,same
0,779,valid,"[(1200, 787)]",[],[1],[0.4666666666666667],horizontal,"(890.0, 262.0)",0.8333333333333334,0.433,1,7848.639,3,0.06,same
0,780,valid,"[(1192, 780)]",[],[1],[0.55],horizontal,"(390.0, 262.0)",1.1166666666666667,0.507,1,7853.903,3,0.06,same
0,781,valid,"[(1101, 842)]",[],[1],[0.5166666666666666],horizontal,"(890.0, 262.0)",1.4,0.475,1,7859.954,3,0.06,same
0,782,valid,"[(1165, 807)]",[],[1],[0.85],vertical,"(890.0, 762.0)",0.9333333333333333,nan,0,7866.501,0,0.06,same
0,783,catch,"[(1111, 817)]",[],[1],[],horizontal,"(890.0, 262.0)",1.7,nan,1,7871.353,1,0.06,same
0,784,valid,"[(1168, 804)]",[],[1],[0.6],vertical,"(390.0, 262.0)",1.0,0.556,1,7876.369,1,0.06,same
0,785,invalid_same_bar,"[(1131, 835)]",[],[1],[0.5666666666666667],vertical,"(390.0, 762.0)",0.8833333333333333,0.53,1,7881.195,1,0.06,same
0,786,catch,"[(1180, 813)]",[],[1],[],horizontal,"(890.0, 262.0)",1.7,nan,1,7885.834,2,0.06,same
0,787,invalid_same_bar,"[(1131, 843)]",[],[1],[],horizontal,"(890.0, 762.0)",,"('cti', 0.542)",0,7891.241,0,0.06,same
0,788,valid,"[(1131, 796)]",[],[1],[0.26666666666666666],horizontal,"(890.0, 762.0)",1.5166666666666666,0.233,1,7895.136,1,0.06,same
0,789,valid,"[(1178, 811)]",[],[1],[0.48333333333333334],vertical,"(890.0, 262.0)",0.6166666666666667,0.444,1,7900.74,1,0.06,same
0,790,valid,"[(1121, 848)]",[],[1],[0.3],horizontal,"(390.0, 262.0)",1.1166666666666667,0.265,1,7905.187,1,0.06,same
0,791,valid,"[(1160, 797)]",[],[1],[0.6333333333333333],horizontal,"(890.0, 262.0)",0.7166666666666667,0.592,1,7910.337,2,0.06,same
0,792,valid,"[(1116, 807)]",[],[1],[0.21666666666666667],vertical,"(890.0, 762.0)",1.25,0.181,0,7915.755,0,0.06,same
0,793,catch,"[(1133, 782)]",[],[1],[],vertical,"(890.0, 262.0)",1.7,nan,1,7923.319,1,0.06,same
0,794,valid,"[(1162, 802)]",[],[1],[0.6333333333333333],vertical,"(890.0, 762.0)",0.9333333333333333,0.592,1,7928.179,1,0.06,same
0,795,valid,"[(1165, 787)]",[],[1],[],horizontal,"(890.0, 262.0)",,"('cti', 1.249)",0,7933.449,0,0.06,same
0,796,catch,"[(1152, 792)]",[],[1],[],vertical,"(390.0, 762.0)",1.7,nan,1,7937.821,1,0.06,same
0,797,valid,"[(1175, 801)]",[],[1],[0.5166666666666666],horizontal,"(390.0, 762.0)",0.8,0.481,1,7943.253,1,0.06,same
0,798,valid,"[(1141, 808)]",[],[1],[0.5666666666666667],horizontal,"(890.0, 262.0)",0.8833333333333333,0.523,1,7948.303,1,0.06,same
0,799,valid,"[(1176, 804)]",[],[1],[0.4666666666666667],vertical,"(890.0, 262.0)",0.8166666666666667,0.428,1,7953.727,2,0.06,same
0,800,valid,"[(1175, 770)]",[],[1],[0.6166666666666667],horizontal,"(890.0, 762.0)",1.05,0.573,1,7959.242,2,0.06,same
0,801,catch,"[(1136, 822)]",[],[1],[],vertical,"(890.0, 262.0)",1.7,nan,1,7965.104,2,0.06,same
0,802,valid,"[(1165, 821)]",[],[1],[0.5333333333333333],horizontal,"(890.0, 262.0)",1.2166666666666666,0.492,1,7971.121,3,0.06,same
0,803,valid,"[(1183, 790)]",[],[1],[0.6],horizontal,"(890.0, 762.0)",1.0,0.562,1,7977.786,3,0.06,same
0,804,valid,"[(1180, 791)]",[],[1],[0.4666666666666667],horizontal,"(890.0, 762.0)",0.65,0.433,1,7983.736,3,0.06,same
0,805,valid,"[(1180, 777)]",[],[1],[0.5833333333333334],horizontal,"(390.0, 762.0)",0.4666666666666667,0.541,1,7989.221,3,0.06,same
0,806,valid,"[(1175, 791)]",[],[1],[0.85],vertical,"(890.0, 762.0)",0.7166666666666667,nan,0,7994.877,0,0.06,same
0,807,valid,"[(1165, 786)]",[],[1],[0.48333333333333334],horizontal,"(390.0, 262.0)",0.75,0.444,1,7998.909,1,0.06,same
0,808,valid,"[(1159, 823)]",[],[1],[0.85],horizontal,"(890.0, 262.0)",0.5166666666666666,nan,0,8003.714,0,0.06,same
0,809,valid,"[(1157, 787)]",[],[1],[0.4666666666666667],horizontal,"(390.0, 762.0)",1.1166666666666667,0.426,1,8007.869,1,0.04,same
0,810,valid,"[(1164, 796)]",[],[1],[0.4666666666666667],horizontal,"(390.0, 262.0)",0.85,0.43,1,8013.304,1,0.04,same
0,811,valid,"[(1176, 781)]",[],[1],[0.6833333333333333],horizontal,"(390.0, 262.0)",0.7,0.644,1,8018.133,1,0.04,same
0,812,invalid_same_bar,"[(1165, 791)]",[],[1],[0.85],horizontal,"(390.0, 762.0)",0.9666666666666667,nan,0,8022.987,0,0.04,same
0,813,catch,"[(1136, 828)]",[],[1],[],horizontal,"(890.0, 262.0)",1.7,nan,1,8027.925,1,0.04,same
0,814,invalid_adjacent_other_bar,"[(1160, 846)]",[],[1],[0.48333333333333334],vertical,"(390.0, 762.0)",0.5166666666666666,0.446,1,8033.221,1,0.04,other
0,815,valid,"[(1159, 799)]",[],[1],[0.25],vertical,"(390.0, 762.0)",1.4166666666666667,0.211,1,8037.979,1,0.04,same
0,816,invalid_same_bar,"[(1133, 823)]",[],[1],[0.4666666666666667],horizontal,"(390.0, 762.0)",0.75,0.432,1,8043.22,2,0.04,same
0,817,valid,"[(1175, 788)]",[],[1],[0.6],vertical,"(390.0, 262.0)",0.43333333333333335,0.552,1,8055.202,2,0.02,same
0,818,catch,"[(1161, 786)]",[],[1],[],vertical,"(390.0, 262.0)",1.7,nan,1,8060.294,2,0.0,same
0,819,catch,"[(1169, 792)]",[],[1],[],vertical,"(890.0, 262.0)",1.7,nan,1,8066.231,3,0.0,same
0,820,valid,"[(1160, 831)]",[],[1],[0.85],vertical,"(390.0, 762.0)",1.0,nan,0,8072.271,0,0.0,same
0,821,valid,"[(1153, 790)]",[],[1],[0.6333333333333333],horizontal,"(390.0, 762.0)",0.4166666666666667,0.588,1,8076.954,1,0.0,same
0,822,valid,"[(1179, 765)]",[],[1],[0.48333333333333334],vertical,"(390.0, 262.0)",1.15,0.442,1,8081.293,1,0.0,same
0,823,valid,"[(1160, 782)]",[],[1],[0.08333333333333333],horizontal,"(890.0, 262.0)",1.5,0.05,0,8086.671,0,0.0,same
0,824,catch,"[(1085, 796)]",[],[1],[],vertical,"(390.0, 762.0)",,"('cti', 1.512),nan",0,8090.923,0,0.02,same
0,825,catch,"[(1131, 795)]",[],[1],[],horizontal,"(390.0, 262.0)",,"('cti', 1.469),nan",0,8113.622,0,0.04,same
0,826,invalid_same_bar,"[(1165, 830)]",[],[1],[0.5666666666666667],vertical,"(890.0, 762.0)",1.1333333333333333,0.527,1,8118.47,1,0.04,same
0,827,catch,"[(1153, 795)]",[],[1],[],horizontal,"(890.0, 762.0)",,"('cti', 0.885),nan",0,8123.92,0,0.06,same
0,828,valid,"[(1116, 845)]",[],[1],[0.5],horizontal,"(390.0, 262.0)",0.6666666666666666,0.461,1,8127.93,1,0.06,same
0,829,valid,"[(1160, 797)]",[],[1],[0.85],horizontal,"(390.0, 262.0)",0.8333333333333334,nan,0,8672.68,0,0.06,same
0,830,invalid_same_bar,"[(1131, 809)]",[],[1],[0.85],horizontal,"(890.0, 262.0)",1.2666666666666666,nan,0,8677.538,0,0.06,same
0,831,catch,"[(1067, 880)]",[],[1],[],horizontal,"(890.0, 762.0)",,"('fix', 0.052),nan",0,8683.022,0,0.08,same
0,832,catch,"[(1134, 795)]",[],[1],[],vertical,"(390.0, 762.0)",1.7,nan,1,8692.462,1,0.08,same
0,833,valid,"[(1147, 793)]",[],[1],[0.6333333333333333],horizontal,"(390.0, 262.0)",1.3,0.586,1,8699.589,1,0.08,same
0,834,valid,"[(1159, 788)]",[],[1],[0.5333333333333333],vertical,"(890.0, 762.0)",0.8833333333333333,0.489,1,8704.791,1,0.08,same
0,835,valid,"[(1135, 782)]",[],[1],[0.5],horizontal,"(890.0, 262.0)",0.8833333333333333,0.459,1,8709.721,2,0.08,same
0,836,invalid_same_bar,"[(1158, 793)]",[],[1],[0.5666666666666667],horizontal,"(390.0, 262.0)",0.36666666666666664,0.524,1,8714.604,2,0.08,same
0,837,catch,"[(1159, 785)]",[],[1],[],vertical,"(390.0, 762.0)",1.7,nan,1,8719.771,2,0.08,same
0,838,valid,"[(1128, 821)]",[],[1],[0.85],vertical,"(390.0, 762.0)",0.7666666666666666,nan,0,8725.256,0,0.08,same
0,839,catch,"[(1126, 804)]",[],[1],[],horizontal,"(390.0, 262.0)",1.7,nan,1,8730.538,1,0.08,same
0,840,catch,"[(1156, 782)]",[],[1],[],horizontal,"(390.0, 762.0)",1.7,nan,1,8735.768,1,0.08,same
0,841,valid,"[(1153, 773)]",[],[1],[0.6166666666666667],vertical,"(390.0, 762.0)",1.25,0.575,1,8740.773,1,0.08,same
0,842,valid,"[(1175, 787)]",[],[1],[0.5333333333333333],horizontal,"(890.0, 262.0)",1.4,0.492,1,8746.321,2,0.08,same
0,843,catch,"[(1160, 786)]",[],[1],[],horizontal,"(390.0, 262.0)",1.7,nan,1,8752.032,2,0.08,same
0,844,valid,"[(1156, 777)]",[],[1],[0.5],horizontal,"(890.0, 262.0)",0.8166666666666667,0.459,1,8757.523,2,0.08,same
0,845,catch,"[(1157, 793)]",[],[1],[],horizontal,"(890.0, 762.0)",1.7,nan,1,8762.815,3,0.08,same
0,846,catch,"[(1160, 791)]",[],[1],[],vertical,"(890.0, 762.0)",1.7,nan,1,8768.955,3,0.08,same
0,847,valid,"[(1178, 796)]",[],[1],[0.5166666666666666],vertical,"(890.0, 762.0)",1.5,0.472,1,8774.964,3,0.08,same
0,848,valid,"[(1160, 803)]",[],[1],[0.5166666666666666],horizontal,"(890.0, 762.0)",0.9666666666666667,0.475,1,8780.798,3,0.08,same
0,849,catch,"[(1180, 777)]",[],[1],[],vertical,"(890.0, 262.0)",1.7,nan,1,8786.268,3,0.08,same
0,850,valid,"[(1167, 778)]",[],[1],[0.5333333333333333],vertical,"(890.0, 762.0)",0.43333333333333335,0.489,1,8791.888,3,0.08,same
0,851,valid,"[(1116, 813)]",[],[1],[0.4666666666666667],vertical,"(890.0, 262.0)",1.1,0.424,1,8796.939,3,0.08,same
0,852,valid,"[(1157, 785)]",[],[1],[0.5166666666666666],horizontal,"(390.0, 762.0)",1.5,0.478,1,8802.505,3,0.08,same
0,853,catch,"[(1130, 780)]",[],[1],[],vertical,"(390.0, 762.0)",1.7,nan,1,8808.505,3,0.08,same
0,854,valid,"[(1166, 785)]",[],[1],[0.5166666666666666],vertical,"(890.0, 262.0)",1.0833333333333333,0.472,1,8815.005,3,0.08,same
0,855,valid,"[(1171, 794)]",[],[1],[0.6],vertical,"(390.0, 262.0)",0.7,0.554,1,8820.955,3,0.08,same
0,856,catch,"[(1166, 774)]",[],[1],[],horizontal,"(390.0, 762.0)",1.7,nan,1,8826.224,3,0.08,same
0,857,invalid_adjacent_other_bar,"[(1161, 803)]",[],[1],[0.65],horizontal,"(390.0, 262.0)",0.4,0.608,1,8832.322,3,0.08,other
0,858,invalid_same_bar,"[(1157, 792)]",[],[1],[0.7],horizontal,"(390.0, 262.0)",1.4333333333333333,0.655,1,8837.72,3,0.08,same
0,859,valid,"[(1163, 770)]",[],[1],[0.5333333333333333],vertical,"(390.0, 262.0)",0.9666666666666667,0.489,1,8843.789,3,0.08,same
0,860,valid,"[(1174, 787)]",[],[1],[0.5833333333333334],vertical,"(890.0, 262.0)",1.2166666666666666,0.538,1,8849.534,3,0.08,same
0,861,valid,"[(1163, 791)]",[],[1],[0.5],horizontal,"(890.0, 762.0)",1.3666666666666667,0.457,1,8855.549,3,0.08,same
0,862,invalid_same_bar,"[(1158, 795)]",[],[1],[0.48333333333333334],horizontal,"(890.0, 262.0)",0.7166666666666667,0.448,1,8861.622,3,0.08,same
0,863,valid,"[(1164, 774)]",[],[1],[0.6833333333333333],vertical,"(390.0, 262.0)",1.5,0.642,1,8866.978,3,0.08,same
0,864,valid,"[(1160, 775)]",[],[1],[0.5],vertical,"(890.0, 762.0)",1.2666666666666666,0.455,1,8873.455,3,0.08,same
0,865,valid,"[(1160, 783)]",[],[1],[0.5333333333333333],vertical,"(890.0, 762.0)",0.8166666666666667,0.491,1,8879.58,3,0.08,same
