block,trial,trial_type,taps_start_loc_during_fix,taps_end_loc_during_fix,taps_on_lever_during_fix,taps_on_lever_s_during_fix,bar_orientation,target_xy,cti,rt,acc,time,pulses
0,1,target,"[(1110, 824)]",[],[1],[0.36666666666666664],horizontal,"(390.0, 762.0)",1.0,0.33,1,0.51,1
0,2,target,"[(1107, 814)]",[],[1],[0.36666666666666664],vertical,"(890.0, 262.0)",0.95,0.325,1,16.191,1
0,3,target,"[(994, 796), (994, 821), (1121, 712), (1066, 846)]",[],"[0, 0, 0, 1]",[],vertical,"(390.0, 762.0)",,"('cti', 1.166)",0,356.512,0
0,4,target,"[(1076, 812)]",[],[1],[0.7],vertical,"(390.0, 762.0)",0.8,0.656,1,714.591,1
0,5,target,"[(1076, 800)]",[],[1],[0.55],horizontal,"(390.0, 762.0)",1.05,0.505,1,719.269,1
0,6,target,"[(1074, 791)]",[],[1],[0.23333333333333334],vertical,"(390.0, 762.0)",1.25,0.199,0,724.646,0
0,7,catch,"[(1102, 812)]",[],[1],[],vertical,"(890.0, 262.0)",1.5166666666666666,nan,1,729.349,1
0,8,target,"[(1097, 795)]",[],[1],[0.2],horizontal,"(390.0, 762.0)",1.4666666666666666,0.165,0,734.135,0
0,9,target,"[(1082, 799)]",[],[1],[0.5666666666666667],vertical,"(890.0, 262.0)",0.8666666666666667,0.524,1,738.667,1
0,10,target,"[(1098, 793)]",[],[1],[0.48333333333333334],horizontal,"(390.0, 762.0)",1.4,0.44,1,743.436,1
0,11,target,"[(1041, 815)]",[],[1],[0.43333333333333335],vertical,"(890.0, 762.0)",1.2666666666666666,0.397,1,748.996,1
0,12,target,"[(1078, 796)]",[],[1],[0.13333333333333333],vertical,"(390.0, 262.0)",1.55,0.099,0,764.52,0
0,13,target,"[(1076, 784)]",[],[1],[0.75],vertical,"(390.0, 762.0)",0.7166666666666667,0.708,1,769.019,1
0,14,target,"[(1080, 791)]",[],[1],[0.31666666666666665],vertical,"(390.0, 762.0)",1.6666666666666667,0.28,1,773.658,1
0,15,target,"[(1087, 825)]",[],[1],[0.6166666666666667],vertical,"(390.0, 762.0)",1.6333333333333333,0.577,1,779.077,1
0,16,target,"[(1129, 830)]",[],[1],[0.6833333333333333],horizontal,"(390.0, 762.0)",0.5833333333333334,0.648,1,785.052,2
0,17,target,"[(1112, 804)]",[],[1],[0.6833333333333333],vertical,"(390.0, 762.0)",1.6166666666666667,0.638,1,789.851,2
0,18,catch,"[(1098, 790)]",[],[1],[],vertical,"(390.0, 262.0)",1.4666666666666666,nan,1,795.724,2
0,19,target,"[(1082, 800)]",[],[1],[0.4],horizontal,"(890.0, 762.0)",1.5166666666666666,0.366,1,800.668,2
0,20,target,"[(1080, 769)]",[],[1],[0.65],vertical,"(390.0, 262.0)",1.05,0.606,1,806.452,2
0,21,target,"[(1096, 776)]",[],[1],[0.3833333333333333],vertical,"(390.0, 762.0)",1.5333333333333332,0.345,1,811.697,3
0,22,catch,"[(1107, 780)]",[],[1],[],horizontal,"(890.0, 262.0)",1.45,nan,1,817.656,3
0,23,target,"[(1077, 794)]",[],[1],[0.85],horizontal,"(890.0, 762.0)",0.5666666666666667,nan,0,822.961,0
0,24,target,"[(1074, 800)]",[],[1],[0.6166666666666667],vertical,"(890.0, 762.0)",0.8166666666666667,0.568,1,827.036,1
0,25,target,"[(1080, 778)]",[],[1],[0.23333333333333334],vertical,"(390.0, 762.0)",1.5166666666666666,0.198,0,831.844,0
0,26,target,"[(1079, 789)]",[],[1],[0.6666666666666666],vertical,"(390.0, 262.0)",0.9666666666666667,0.619,1,836.601,1
0,27,target,"[(1079, 766)]",[],[1],[0.3],vertical,"(890.0, 762.0)",1.1833333333333333,0.262,1,841.677,1
0,28,target,"[(1081, 769)]",[],[1],[0.5],horizontal,"(390.0, 262.0)",1.1833333333333333,0.475,1,846.452,1
0,29,target,"[(1109, 780)]",[],[1],[0.5],vertical,"(890.0, 762.0)",1.1166666666666667,0.455,1,851.254,2
0,30,target,"[(1106, 781)]",[],[1],[0.5166666666666666],horizontal,"(890.0, 762.0)",1.0333333333333332,0.473,1,856.723,2
0,31,target,"[(1102, 772)]",[],[1],[0.3333333333333333],horizontal,"(390.0, 262.0)",1.5166666666666666,0.295,1,861.945,2
0,32,target,"[(1105, 769)]",[],[1],[0.7],vertical,"(390.0, 262.0)",1.05,0.661,1,867.512,2
0,33,target,"[(1097, 776)]",[],[1],[0.7333333333333333],horizontal,"(390.0, 762.0)",0.6,0.694,1,872.946,2
0,34,catch,"[(1071, 773)]",[],[1],[],horizontal,"(390.0, 762.0)",1.6,nan,1,877.885,3
0,35,catch,"[(1071, 775)]",[],[1],[],vertical,"(890.0, 262.0)",1.3666666666666667,nan,1,883.38,3
0,36,target,"[(1072, 778)]",[],[1],[0.5666666666666667],vertical,"(890.0, 762.0)",0.95,0.529,1,888.894,3
0,37,target,"[(1102, 766)]",[],[1],[0.11666666666666667],horizontal,"(890.0, 762.0)",1.5,0.086,0,894.335,0
0,38,target,"[(1065, 801)]",[],[1],[0.6],horizontal,"(390.0, 262.0)",0.6666666666666666,0.562,1,898.686,1
0,39,target,"[(1077, 772)]",[],[1],[],vertical,"(890.0, 262.0)",,"('cti', 1.303)",0,903.909,0
0,40,target,"[(1072, 788)]",[],[1],[0.05],horizontal,"(390.0, 262.0)",1.15,0.019,0,908.537,0
0,41,target,"[(1105, 837)]",[],[1],[0.08333333333333333],horizontal,"(390.0, 262.0)",1.5666666666666667,0.052,0,913.252,0
0,42,target,"[(1073, 799)]",[],[1],[0.4],horizontal,"(390.0, 762.0)",1.2166666666666666,0.356,1,917.92,1
0,43,target,"[(1071, 764)]",[],[1],[0.13333333333333333],vertical,"(890.0, 762.0)",1.55,0.099,0,922.485,0
0,44,target,"[(1073, 792)]",[],[1],[0.6166666666666667],horizontal,"(390.0, 762.0)",0.7,0.573,1,926.77,1
0,45,target,"[(1099, 791)]",[],[1],[0.5666666666666667],vertical,"(390.0, 262.0)",0.5666666666666667,0.525,1,931.62,1
0,46,target,"[(1100, 765)]",[],[1],[0.6166666666666667],horizontal,"(890.0, 762.0)",0.9666666666666667,0.57,1,936.135,1
0,47,target,"[(1091, 791)]",[],[1],[0.6],horizontal,"(890.0, 262.0)",1.0166666666666666,0.554,1,940.82,2
0,48,target,"[(1072, 763)]",[],[1],[0.55],vertical,"(890.0, 262.0)",1.1,0.504,1,946.78,2
0,49,target,"[(1079, 778)]",[],[1],[],vertical,"(390.0, 762.0)",,"('cti', 1.57)",0,952.195,0
0,50,catch,"[(1042, 771)]",[],[1],[],horizontal,"(890.0, 262.0)",1.5,nan,1,956.552,1
0,51,target,"[(1074, 791)]",[],[1],[0.3833333333333333],vertical,"(390.0, 762.0)",0.7666666666666666,0.343,1,961.286,1
0,52,target,"[(1091, 766)]",[],[1],[0.5166666666666666],horizontal,"(390.0, 262.0)",0.7333333333333333,0.481,1,965.878,1
0,53,target,"[(1105, 779)]",[],[1],[0.5],vertical,"(390.0, 262.0)",1.1833333333333333,0.453,1,970.305,2
0,54,target,"[(1091, 780)]",[],[1],[0.45],vertical,"(390.0, 762.0)",1.1666666666666667,0.407,1,975.518,2
0,55,target,"[(1108, 761)]",[],[1],[0.5833333333333334],horizontal,"(890.0, 762.0)",0.6333333333333333,0.544,1,980.701,2
0,56,target,"[(1076, 775)]",[],[1],[0.5166666666666666],horizontal,"(890.0, 262.0)",1.25,0.475,1,985.424,2
0,57,target,"[(1087, 769)]",[],[1],[],horizontal,"(390.0, 762.0)",,"('cti', 1.141)",0,990.616,0
0,58,target,"[(1058, 772)]",[],[1],[0.48333333333333334],vertical,"(890.0, 762.0)",1.25,0.443,1,994.37,1
0,59,target,"[(1076, 760)]",[],[1],[0.85],horizontal,"(390.0, 262.0)",0.7,nan,0,999.574,0
0,60,target,"[(1079, 774)]",[],[1],[0.55],horizontal,"(890.0, 262.0)",0.75,0.51,1,1003.869,1
0,61,catch,"[(1120, 772)]",[],[1],[],horizontal,"(390.0, 262.0)",1.6666666666666667,nan,1,1008.661,1
0,62,target,"[(1106, 773)]",[],[1],[0.6],horizontal,"(390.0, 762.0)",0.95,0.554,1,1013.56,1
0,63,target,"[(1124, 776)]",[],[1],[0.55],vertical,"(890.0, 762.0)",0.7333333333333333,0.506,1,1018.343,2
0,64,target,"[(1081, 765)]",[],[1],[],horizontal,"(890.0, 762.0)",,"('cti', 1.635)",0,1023.413,0
0,65,target,"[(1098, 829)]",[],[1],[0.6833333333333333],horizontal,"(890.0, 762.0)",0.6,0.645,1,1028.019,1
0,66,target,"[(1089, 766)]",[],[1],[0.5833333333333334],horizontal,"(890.0, 262.0)",0.65,0.547,1,1033.957,1
0,67,target,"[(1079, 770)]",[],[1],[0.55],horizontal,"(390.0, 762.0)",1.0166666666666666,0.508,1,1038.792,1
0,68,target,"[(1079, 761)]",[],[1],[0.6166666666666667],vertical,"(390.0, 262.0)",0.8666666666666667,0.575,1,1043.773,2
0,69,target,"[(1076, 759)]",[],[1],[0.6166666666666667],horizontal,"(390.0, 762.0)",0.5166666666666666,0.576,1,1049.149,2
0,70,target,"[(1102, 767)]",[],[1],[0.1],vertical,"(390.0, 262.0)",1.5833333333333333,0.072,0,1053.95,0
0,71,target,"[(1102, 782)]",[],[1],[0.3],vertical,"(390.0, 262.0)",1.4,0.259,1,1058.549,1
0,72,target,"[(1082, 752), (1097, 781)]",[],"[0, 1]",[0.85],horizontal,"(390.0, 762.0)",0.8666666666666667,nan,0,1063.136,0
0,73,target,"[(1070, 798)]",[],[1],[],horizontal,"(890.0, 762.0)",,"('cti', 1.583)",0,1068.806,0
0,74,target,"[(1104, 796)]",[],[1],[0.5666666666666667],horizontal,"(390.0, 262.0)",1.05,0.523,1,1073.431,1
0,75,target,"[(1097, 796)]",[],[1],[0.6333333333333333],vertical,"(390.0, 262.0)",0.9,0.594,1,1078.166,1
0,76,target,"[(1110, 771)]",[],[1],[0.6833333333333333],horizontal,"(390.0, 762.0)",0.9833333333333333,0.642,1,1083.203,1
0,77,catch,"[(1114, 791)]",[],[1],[],horizontal,"(890.0, 262.0)",1.6666666666666667,nan,1,1088.203,2
0,78,target,"[(1107, 781)]",[],[1],[0.6],horizontal,"(390.0, 262.0)",1.1333333333333333,0.555,1,1093.601,2
0,79,target,"[(1096, 775)]",[],[1],[0.5666666666666667],vertical,"(890.0, 262.0)",0.6,0.524,1,1099.118,2
0,80,target,"[(1105, 766)]",[],[1],[0.7],horizontal,"(390.0, 762.0)",0.9666666666666667,0.654,1,1104.286,2
0,81,target,"[(1088, 766)]",[],[1],[0.5666666666666667],horizontal,"(390.0, 762.0)",0.65,0.523,1,1109.52,2
0,82,target,"[(1075, 776)]",[],[1],[0.3833333333333333],vertical,"(390.0, 262.0)",1.3,0.343,1,1114.633,3
0,83,target,"[(1107, 777)]",[],[1],[0.5833333333333334],vertical,"(890.0, 262.0)",0.55,0.543,1,1120.285,3
0,84,target,"[(1110, 766)]",[],[1],[0.7833333333333333],vertical,"(390.0, 262.0)",0.7666666666666666,0.735,1,1125.221,3
0,85,target,"[(1076, 775)]",[],[1],[0.85],vertical,"(390.0, 762.0)",0.75,nan,0,1131.089,0
0,86,target,"[(1076, 791)]",[],[1],[0.55],vertical,"(890.0, 762.0)",1.2166666666666666,0.506,1,1135.857,1
0,87,target,"[(1105, 762)]",[],[1],[0.85],vertical,"(890.0, 262.0)",0.55,nan,0,1141.186,0
0,88,target,"[(1077, 792)]",[],[1],[0.5666666666666667],vertical,"(890.0, 262.0)",1.6333333333333333,0.528,1,1145.636,1
0,89,target,"[(1082, 776)]",[],[1],[0.5666666666666667],vertical,"(390.0, 262.0)",1.5833333333333333,0.526,1,1151.369,1
0,90,target,"[(1100, 748), (1067, 773)]",[],"[0, 1]",[0.5833333333333334],vertical,"(390.0, 262.0)",1.3833333333333333,0.539,1,1156.804,1
0,91,catch,"[(1089, 774)]",[],[1],[],horizontal,"(390.0, 262.0)",1.65,nan,1,1163.453,2
0,92,target,"[(1102, 773)]",[],[1],[0.48333333333333334],vertical,"(890.0, 262.0)",1.5666666666666667,0.446,1,1169.161,2
0,93,target,"[(1123, 773)]",[],[1],[0.4166666666666667],horizontal,"(890.0, 262.0)",1.3833333333333333,0.378,1,1175.204,2
0,94,target,"[(1103, 776)]",[],[1],[0.5166666666666666],horizontal,"(390.0, 762.0)",1.15,0.474,1,1180.921,2
0,95,target,"[(1097, 771)]",[],[1],[0.6166666666666667],horizontal,"(890.0, 762.0)",1.05,0.579,1,1186.098,2
0,96,target,"[(1089, 769)]",[],[1],[0.5],vertical,"(390.0, 262.0)",1.3,0.462,1,1191.378,3
0,97,target,"[(1078, 762)]",[],[1],[0.5333333333333333],horizontal,"(890.0, 262.0)",0.7666666666666666,0.494,1,1197.27,3
0,98,target,"[(1095, 776)]",[],[1],[0.6166666666666667],horizontal,"(390.0, 262.0)",1.2333333333333334,0.579,1,1202.537,3
0,99,target,"[(1105, 771)]",[],[1],[0.55],vertical,"(890.0, 762.0)",0.65,0.518,1,1208.391,3
0,100,target,"[(1125, 781)]",[],[1],[0.3],vertical,"(390.0, 262.0)",1.55,0.262,1,1213.487,3
0,101,target,"[(1110, 768)]",[],[1],[0.36666666666666664],vertical,"(890.0, 262.0)",1.5,0.333,1,1219.487,3
0,102,target,"[(1105, 754)]",[],[1],[0.6],vertical,"(890.0, 262.0)",0.9166666666666666,0.558,1,1225.287,3
0,103,catch,"[(1104, 763)]",[],[1],[],vertical,"(390.0, 262.0)",1.5666666666666667,nan,1,1230.788,3
0,104,target,"[(1089, 765)]",[],[1],[0.4666666666666667],horizontal,"(390.0, 762.0)",1.1833333333333333,0.424,1,1236.674,3
0,105,target,"[(1096, 764)]",[],[1],[0.16666666666666666],horizontal,"(390.0, 762.0)",1.65,0.136,0,1242.708,0
0,106,target,"[(1084, 785)]",[],[1],[0.85],horizontal,"(390.0, 262.0)",0.6333333333333333,nan,0,1247.087,0
0,107,target,"[(1083, 782)]",[],[1],[0.45],horizontal,"(390.0, 262.0)",1.4166666666666667,0.411,1,1251.762,1
0,108,target,"[(1077, 764)]",[],[1],[0.85],horizontal,"(390.0, 262.0)",0.8166666666666667,nan,0,1256.738,0
0,109,target,"[(1096, 783)]",[],[1],[0.5166666666666666],vertical,"(890.0, 262.0)",0.5833333333333334,0.474,1,1261.502,1
0,110,target,"[(1079, 776)]",[],[1],[0.55],vertical,"(890.0, 762.0)",0.8333333333333334,0.523,1,1265.943,1
0,111,target,"[(1076, 766)]",[],[1],[0.85],vertical,"(390.0, 262.0)",0.8166666666666667,nan,0,1270.705,0
0,112,target,"[(1063, 758)]",[],[1],[0.2833333333333333],vertical,"(890.0, 262.0)",1.6,0.252,1,1275.42,1
0,113,target,"[(1081, 769)]",[],[1],[0.7166666666666667],vertical,"(390.0, 262.0)",0.5666666666666667,0.668,1,1280.306,1
0,114,target,"[(1083, 766)]",[],[1],[0.55],horizontal,"(890.0, 262.0)",1.3833333333333333,0.507,1,1285.071,1
0,115,target,"[(1088, 761)]",[],[1],[0.8],vertical,"(390.0, 762.0)",0.75,0.751,1,1289.988,2
0,116,target,"[(1083, 767)]",[],[1],[0.05],vertical,"(890.0, 762.0)",1.5833333333333333,0.02,0,1295.543,0
0,117,target,"[(1087, 767)]",[],[1],[0.1],horizontal,"(890.0, 262.0)",1.6166666666666667,0.072,0,1300.244,0
0,118,catch,"[(1096, 769)]",[],[1],[],horizontal,"(890.0, 262.0)",1.65,nan,1,1304.836,1
0,119,target,"[(1086, 758)]",[],[1],[0.36666666666666664],horizontal,"(390.0, 262.0)",1.4,0.331,1,1309.495,1
0,120,target,"[(1110, 761)]",[],[1],[0.7],horizontal,"(890.0, 262.0)",0.5,0.657,1,1314.921,1
0,121,target,"[(1083, 781)]",[],[1],[0.5833333333333334],horizontal,"(890.0, 762.0)",0.8,0.541,1,1319.28,2
0,122,target,"[(1100, 784)]",[],[1],[0.5833333333333334],horizontal,"(390.0, 762.0)",1.5166666666666666,0.541,1,1324.455,2
0,123,target,"[(1076, 782)]",[],[1],[0.5666666666666667],vertical,"(390.0, 762.0)",1.1833333333333333,0.525,1,1329.919,2
0,124,target,"[(1080, 776)]",[],[1],[0.6166666666666667],horizontal,"(390.0, 262.0)",0.6166666666666667,0.571,1,1335.188,2
0,125,catch,"[(1093, 759)]",[],[1],[],vertical,"(890.0, 762.0)",1.5,nan,1,1339.987,2
0,126,target,"[(1100, 798)]",[],[1],[],vertical,"(890.0, 262.0)",,"('cti', 1.58)",0,1345.146,0
0,127,target,"[(1100, 792)]",[],[1],[0.5666666666666667],horizontal,"(890.0, 762.0)",0.6166666666666667,0.526,1,1349.884,1
0,128,target,"[(1083, 784)]",[],[1],[0.55],vertical,"(390.0, 262.0)",0.6833333333333333,0.505,1,1354.484,1
0,129,target,"[(1105, 795)]",[],[1],[0.85],vertical,"(390.0, 762.0)",0.5666666666666667,nan,0,1359.11,0
0,130,target,"[(1070, 764)]",[],[1],[0.7666666666666666],horizontal,"(390.0, 762.0)",0.7166666666666667,0.718,1,1363.691,1
0,131,target,"[(1108, 752), (1062, 796)]",[],"[0, 1]",[0.6],vertical,"(890.0, 762.0)",0.8333333333333334,0.56,1,1368.855,1
0,132,target,"[(1081, 782)]",[],[1],[0.6],horizontal,"(890.0, 762.0)",0.8333333333333334,0.563,1,1374.653,1
0,133,target,"[(1081, 778)]",[],[1],[0.5833333333333334],horizontal,"(390.0, 762.0)",0.95,0.541,1,1379.324,2
0,134,target,"[(1105, 771)]",[],[1],[0.5833333333333334],vertical,"(890.0, 262.0)",1.1666666666666667,0.542,1,1384.579,2
0,135,target,"[(1077, 775)]",[],[1],[0.5166666666666666],vertical,"(890.0, 762.0)",0.6666666666666666,0.476,1,1389.646,2
0,136,target,"[(1102, 776)]",[],[1],[0.85],horizontal,"(890.0, 262.0)",1.65,"('cti', 1.646),nan",0,1394.555,0
0,137,target,"[(1095, 797)]",[],[1],[0.13333333333333333],horizontal,"(390.0, 762.0)",1.55,0.101,0,1399.671,0
0,138,target,"[(1096, 779)]",[],[1],[0.6166666666666667],horizontal,"(890.0, 762.0)",0.85,0.576,1,1404.738,1
0,139,target,"[(1105, 790)]",[],[1],[0.55],vertical,"(890.0, 762.0)",0.9333333333333333,0.514,1,1409.755,1
0,140,catch,"[(1098, 791)]",[],[1],[],horizontal,"(890.0, 762.0)",1.5166666666666666,nan,1,1416.688,1
0,141,target,"[(1105, 766)]",[],[1],[0.2833333333333333],horizontal,"(390.0, 762.0)",1.3833333333333333,0.247,1,1421.454,2
0,142,target,"[(1096, 774)]",[],[1],[0.6166666666666667],vertical,"(390.0, 762.0)",0.9166666666666666,0.574,1,1426.775,2
0,143,target,"[(1101, 761)]",[],[1],[0.6],horizontal,"(890.0, 262.0)",0.65,0.56,1,1431.898,2
0,144,target,"[(1104, 768)]",[],[1],[0.5],horizontal,"(890.0, 762.0)",1.1666666666666667,0.461,1,1436.58,2
0,145,target,"[(1083, 778)]",[],[1],[],vertical,"(390.0, 762.0)",,"('cti', 1.621)",0,1442.121,0
0,146,target,"[(1075, 809)]",[],[1],[0.6166666666666667],vertical,"(390.0, 262.0)",0.75,0.575,1,1447.07,1
0,147,target,"[(1102, 761)]",[],[1],[0.6166666666666667],horizontal,"(890.0, 262.0)",1.5333333333333332,0.575,1,1451.972,1
0,148,target,"[(1082, 767)]",[],[1],[0.6333333333333333],vertical,"(390.0, 762.0)",1.1166666666666667,0.6,1,1457.456,1
0,149,target,"[(1101, 781)]",[],[1],[0.6666666666666666],horizontal,"(390.0, 262.0)",0.9,0.631,1,1462.406,2
0,150,target,"[(1096, 768)]",[],[1],[0.55],vertical,"(390.0, 762.0)",1.4333333333333333,0.511,1,1467.989,2
0,151,target,"[(1106, 765)]",[],[1],[0.5],vertical,"(390.0, 262.0)",1.4,0.457,1,1473.622,2
0,152,target,"[(1098, 784)]",[],[1],[0.65],vertical,"(390.0, 262.0)",0.9666666666666667,0.606,1,1479.372,2
0,153,target,"[(1092, 761)]",[],[1],[0.26666666666666666],vertical,"(390.0, 762.0)",1.4333333333333333,0.232,1,1484.288,2
0,154,target,"[(1102, 764)]",[],[1],[0.85],horizontal,"(390.0, 262.0)",1.05,nan,0,1489.487,0
0,155,target,"[(1066, 766)]",[],[1],[0.45],vertical,"(890.0, 262.0)",1.2166666666666666,0.408,1,1493.973,1
0,156,target,"[(1105, 770)]",[],[1],[0.6833333333333333],vertical,"(890.0, 762.0)",0.9333333333333333,0.637,1,1499.067,1
0,157,target,"[(1103, 759)]",[],[1],[0.85],horizontal,"(890.0, 762.0)",0.7166666666666667,nan,0,1504.285,0
0,158,target,"[(1086, 773)]",[],[1],[0.55],vertical,"(890.0, 762.0)",1.5333333333333332,0.514,1,1508.787,1
0,159,target,"[(1079, 781)]",[],[1],[0.43333333333333335],vertical,"(890.0, 262.0)",1.2333333333333334,0.401,1,1514.079,1
0,160,target,"[(1062, 801)]",[],[1],[0.48333333333333334],horizontal,"(890.0, 262.0)",1.25,0.452,1,1519.945,1
0,161,target,"[(1098, 777)]",[],[1],[0.5333333333333333],horizontal,"(890.0, 262.0)",1.3833333333333333,0.498,1,1529.072,2
0,162,target,"[(1082, 768)]",[],[1],[0.5666666666666667],horizontal,"(890.0, 262.0)",0.65,0.528,1,1535.167,2
0,163,target,"[(1069, 765)]",[],[1],[0.6666666666666666],horizontal,"(390.0, 262.0)",0.8,0.619,1,1539.839,2
0,164,target,"[(1077, 772)]",[],[1],[0.55],horizontal,"(890.0, 262.0)",0.6833333333333333,0.517,1,1544.672,2
0,165,catch,"[(1105, 776)]",[],[1],[],vertical,"(890.0, 262.0)",1.5833333333333333,nan,1,1549.306,2
0,166,target,"[(1121, 793)]",[],[1],[0.3833333333333333],horizontal,"(390.0, 262.0)",1.3,0.347,1,1554.32,3
0,167,target,"[(1076, 771)]",[],[1],[0.65],vertical,"(390.0, 262.0)",0.65,0.608,1,1560.089,3
0,168,catch,"[(1100, 786)]",[],[1],[],vertical,"(890.0, 262.0)",1.5833333333333333,nan,1,1565.148,3
0,169,target,"[(1081, 767)]",[],[1],[0.85],vertical,"(390.0, 262.0)",0.7666666666666666,nan,0,1570.619,0
0,170,target,"[(1086, 777)]",[],[1],[0.65],horizontal,"(390.0, 262.0)",0.75,0.606,1,1575.376,1
0,171,target,"[(1081, 771)]",[],[1],[0.5333333333333333],vertical,"(390.0, 262.0)",1.3166666666666667,0.489,1,1580.302,1
0,172,target,"[(1081, 763)]",[],[1],[0.26666666666666666],horizontal,"(390.0, 262.0)",1.4666666666666666,0.23,1,1585.621,1
0,173,target,"[(1096, 775)]",[],[1],[0.45],horizontal,"(890.0, 762.0)",1.2833333333333332,0.409,1,1590.626,2
0,174,target,"[(1074, 829)]",[],[1],[0.6166666666666667],vertical,"(390.0, 262.0)",1.15,0.574,1,1596.017,2
0,175,catch,"[(1108, 778)]",[],[1],[],horizontal,"(390.0, 762.0)",1.4166666666666667,nan,1,1603.722,2
0,176,target,"[(1100, 783)]",[],[1],[0.43333333333333335],horizontal,"(390.0, 762.0)",1.3666666666666667,0.399,1,1609.14,2
0,177,target,"[(1105, 789)]",[],[1],[0.26666666666666666],horizontal,"(890.0, 762.0)",1.4666666666666666,0.232,1,1614.574,2
0,178,target,"[(1099, 772)]",[],[1],[0.26666666666666666],vertical,"(890.0, 262.0)",1.6,0.233,1,1620.372,3
0,179,target,"[(1074, 761)]",[],[1],[0.55],horizontal,"(890.0, 262.0)",0.9166666666666666,0.519,1,1626.289,3
0,180,target,"[(1089, 776)]",[],[1],[0.35],horizontal,"(390.0, 762.0)",1.6833333333333333,0.313,1,1631.75,3
0,181,target,"[(1065, 769)]",[],[1],[0.6166666666666667],horizontal,"(890.0, 262.0)",1.4333333333333333,0.569,1,1637.581,3
0,182,target,"[(1111, 769)]",[],[1],[0.6166666666666667],vertical,"(890.0, 762.0)",0.95,0.579,1,1643.44,3
0,183,target,"[(1105, 786)]",[],[1],[0.15],horizontal,"(890.0, 762.0)",1.45,0.115,0,1649.304,0
0,184,target,"[(1112, 779)]",[],[1],[0.5],horizontal,"(390.0, 762.0)",0.7333333333333333,0.458,1,1653.771,1
0,185,target,"[(1088, 771)]",[],[1],[0.5333333333333333],horizontal,"(390.0, 262.0)",1.3333333333333333,0.49,1,1658.424,1
0,186,target,"[(1081, 776)]",[],[1],[0.6],horizontal,"(890.0, 762.0)",0.7666666666666666,0.563,1,1663.431,1
0,187,target,"[(1072, 781)]",[],[1],[0.11666666666666667],vertical,"(890.0, 762.0)",1.5666666666666667,0.087,0,1667.98,0
0,188,target,"[(1074, 785)]",[],[1],[0.6166666666666667],vertical,"(390.0, 262.0)",0.7833333333333333,0.58,1,1672.638,1
0,189,target,"[(1077, 778)]",[],[1],[0.48333333333333334],horizontal,"(390.0, 262.0)",1.3,0.445,1,1677.325,1
0,190,target,"[(1105, 784)]",[],[1],[0.18333333333333332],horizontal,"(890.0, 262.0)",1.4666666666666666,0.149,0,1682.406,0
0,191,target,"[(1076, 781)]",[],[1],[0.43333333333333335],horizontal,"(390.0, 762.0)",1.1333333333333333,0.393,1,1686.865,1
0,192,target,"[(1075, 756)]",[],[1],[0.25],horizontal,"(390.0, 262.0)",1.5166666666666666,0.213,1,1691.915,1
0,193,target,"[(1112, 758)]",[],[1],[0.7166666666666667],vertical,"(390.0, 262.0)",0.8666666666666667,0.677,1,1697.094,1
0,194,target,"[(1107, 786)]",[],[1],[0.5833333333333334],vertical,"(890.0, 762.0)",1.1666666666666667,0.542,1,1701.838,2
0,195,target,"[(1081, 763)]",[],[1],[0.36666666666666664],vertical,"(390.0, 262.0)",1.4333333333333333,0.328,1,1707.179,2
0,196,target,"[(1079, 776)]",[],[1],[0.6666666666666666],vertical,"(890.0, 262.0)",1.1833333333333333,0.629,1,1712.846,2
0,197,target,"[(1079, 781)]",[],[1],[0.85],vertical,"(390.0, 762.0)",0.65,nan,0,1718.174,0
0,198,target,"[(1077, 800)]",[],[1],[0.8333333333333334],horizontal,"(890.0, 762.0)",1.0166666666666666,0.792,1,1722.681,1
0,199,target,"[(1076, 781)]",[],[1],[0.6333333333333333],horizontal,"(890.0, 262.0)",1.05,0.592,1,1727.773,1
0,200,target,"[(1107, 766)]",[],[1],[0.5833333333333334],horizontal,"(890.0, 262.0)",0.7333333333333333,0.542,1,1732.659,1
0,201,target,"[(1106, 751), (1076, 776)]",[],"[0, 1]",[0.4166666666666667],vertical,"(390.0, 762.0)",1.5333333333333332,0.378,1,1737.455,2
0,202,target,"[(1096, 785)]",[],[1],[0.13333333333333333],horizontal,"(890.0, 262.0)",1.5666666666666667,0.103,0,1744.219,0
0,203,target,"[(1075, 781)]",[],[1],[0.7166666666666667],vertical,"(890.0, 262.0)",1.0833333333333333,0.673,1,1749.088,1
0,204,target,"[(1062, 760)]",[],[1],[0.5833333333333334],horizontal,"(390.0, 762.0)",0.5166666666666666,0.542,1,1768.625,1
0,205,target,"[(1081, 779)]",[],[1],[0.6],horizontal,"(890.0, 762.0)",0.9166666666666666,0.56,1,1773.09,1
0,206,target,"[(1068, 756)]",[],[1],[],horizontal,"(890.0, 762.0)",,"('cti', 1.363)",0,1777.557,0
0,207,target,"[(1103, 796)]",[],[1],[0.5166666666666666],horizontal,"(390.0, 762.0)",1.25,0.475,1,1782.625,1
0,208,target,"[(1076, 769)]",[],[1],[0.6666666666666666],vertical,"(390.0, 762.0)",1.2666666666666666,0.625,1,1787.94,1
0,209,catch,"[(1105, 786)]",[],[1],[],horizontal,"(390.0, 262.0)",1.6166666666666667,nan,1,1793.515,1
0,210,target,"[(1077, 783)]",[],[1],[0.65],horizontal,"(890.0, 262.0)",0.55,0.603,1,1798.157,2
0,211,catch,"[(1094, 781)]",[],[1],[],horizontal,"(390.0, 762.0)",1.5,nan,1,1803.208,2
0,212,target,"[(1077, 782)]",[],[1],[0.5333333333333333],vertical,"(390.0, 762.0)",1.4166666666666667,0.49,1,1808.855,2
0,213,target,"[(1105, 763)]",[],[1],[0.85],horizontal,"(390.0, 262.0)",0.7333333333333333,nan,0,1814.494,0
0,214,target,"[(1116, 778)]",[],[1],[0.65],horizontal,"(890.0, 762.0)",1.15,0.605,1,1819.09,1
0,215,catch,"[(1072, 780)]",[],[1],[],vertical,"(890.0, 262.0)",1.5666666666666667,nan,1,1824.362,1
0,216,target,"[(1105, 769)]",[],[1],[0.65],horizontal,"(890.0, 762.0)",0.9666666666666667,0.605,1,1829.62,1
0,217,target,"[(1096, 785)]",[],[1],[0.6666666666666666],horizontal,"(390.0, 262.0)",1.0833333333333333,0.62,1,1834.548,2
0,218,catch,"[(1100, 782)]",[],[1],[],horizontal,"(890.0, 762.0)",,"('cti', 1.584),nan",0,1840.124,0
0,219,catch,"[(1094, 787)]",[],[1],[],horizontal,"(390.0, 262.0)",1.4,nan,1,1845.074,1
0,220,target,"[(1101, 786)]",[],[1],[0.6166666666666667],vertical,"(390.0, 262.0)",0.9666666666666667,0.578,1,1849.809,1
0,221,target,"[(1077, 781)]",[],[1],[0.7],horizontal,"(390.0, 762.0)",0.5,0.654,1,1854.641,1
0,222,target,"[(1096, 770)]",[],[1],[0.5166666666666666],horizontal,"(390.0, 262.0)",1.1333333333333333,0.477,1,1858.776,2
0,223,catch,"[(1077, 764)]",[],[1],[],vertical,"(390.0, 262.0)",1.35,nan,1,1864.274,2
0,224,target,"[(1110, 779)]",[],[1],[0.7833333333333333],horizontal,"(390.0, 762.0)",0.65,0.737,1,1869.587,2
0,225,target,"[(1087, 780)]",[],[1],[0.6833333333333333],horizontal,"(390.0, 262.0)",1.1666666666666667,0.639,1,1874.957,2
0,226,target,"[(1073, 791)]",[],[1],[0.25],horizontal,"(890.0, 262.0)",1.45,0.215,1,1880.336,2
0,227,target,"[(1087, 776)]",[],[1],[0.1],horizontal,"(890.0, 762.0)",1.5,0.069,0,1885.993,0
0,228,target,"[(1066, 781)]",[],[1],[0.4166666666666667],vertical,"(390.0, 762.0)",1.4333333333333333,0.379,1,1890.451,1
0,229,target,"[(1076, 785)]",[],[1],[0.6166666666666667],vertical,"(890.0, 262.0)",1.1666666666666667,0.572,1,1895.66,1
0,230,target,"[(1071, 774)]",[],[1],[0.6],horizontal,"(890.0, 262.0)",1.4166666666666667,0.556,1,1900.675,1
0,231,target,"[(1082, 778)]",[],[1],[0.5333333333333333],vertical,"(890.0, 262.0)",1.5166666666666666,0.496,1,1905.759,2
0,232,target,"[(1067, 780)]",[],[1],[0.7],horizontal,"(390.0, 762.0)",0.8833333333333333,0.659,1,1911.524,2
0,233,catch,"[(1080, 773)]",[],[1],[],horizontal,"(890.0, 262.0)",1.4333333333333333,nan,1,1916.817,2
0,234,target,"[(1088, 776)]",[],[1],[0.16666666666666666],vertical,"(390.0, 762.0)",1.4666666666666666,0.133,0,1921.905,0
0,235,target,"[(1086, 786)]",[],[1],[0.08333333333333333],vertical,"(390.0, 762.0)",1.5333333333333332,0.051,0,1926.481,0
0,236,target,"[(1067, 767)]",[],[1],[0.5333333333333333],horizontal,"(390.0, 262.0)",1.4666666666666666,0.491,1,1931.484,1
0,237,target,"[(1101, 765)]",[],[1],[0.65],horizontal,"(890.0, 762.0)",1.1166666666666667,0.602,1,1937.018,1
0,238,target,"[(1109, 766)]",[],[1],[0.6],vertical,"(890.0, 762.0)",1.6166666666666667,0.554,1,1942.141,1
0,239,target,"[(1107, 781)]",[],[1],[0.5166666666666666],vertical,"(890.0, 262.0)",1.0666666666666667,0.479,1,1947.274,2
0,240,target,"[(1057, 802)]",[],[1],[0.65],horizontal,"(890.0, 262.0)",0.6333333333333333,0.604,1,1952.391,2
0,241,target,"[(1098, 783)]",[],[1],[0.6333333333333333],vertical,"(390.0, 762.0)",0.75,0.586,1,2041.037,2
0,242,target,"[(1086, 801)]",[],[1],[0.55],vertical,"(890.0, 262.0)",1.0666666666666667,0.523,1,2045.651,2
0,243,target,"[(1101, 782)]",[],[1],[0.6],horizontal,"(390.0, 762.0)",1.0333333333333332,0.555,1,2051.253,2
0,244,target,"[(1107, 778)]",[],[1],[0.18333333333333332],horizontal,"(390.0, 262.0)",1.3833333333333333,0.147,0,2056.676,0
0,245,target,"[(1063, 786)]",[],[1],[0.5833333333333334],horizontal,"(890.0, 762.0)",0.55,0.54,1,2061.443,1
0,246,target,"[(1104, 776)]",[],[1],[0.25],vertical,"(890.0, 762.0)",1.4666666666666666,0.211,1,2066.148,1
0,247,target,"[(1099, 766)]",[],[1],[0.08333333333333333],vertical,"(390.0, 262.0)",1.6666666666666667,0.052,0,2071.059,0
0,248,target,"[(1088, 768)]",[],[1],[0.55],vertical,"(890.0, 262.0)",0.6166666666666667,0.506,1,2075.929,1
0,249,target,"[(1099, 789)]",[],[1],[0.5666666666666667],horizontal,"(390.0, 762.0)",0.75,0.523,1,2080.282,1
0,250,target,"[(1048, 766)]",[],[1],[0.6],horizontal,"(890.0, 762.0)",0.5166666666666666,0.555,1,2085.192,1
0,251,target,"[(1079, 785)]",[],[1],[],vertical,"(890.0, 762.0)",,"('cti', 1.584)",0,2092.349,0
0,252,target,"[(1086, 766)]",[],[1],[0.85],vertical,"(890.0, 762.0)",0.5833333333333334,nan,0,2097.075,0
0,253,catch,"[(1056, 756)]",[],[1],[],horizontal,"(890.0, 762.0)",1.4166666666666667,nan,1,2101.126,1
0,254,target,"[(1082, 779)]",[],[1],[0.85],horizontal,"(890.0, 262.0)",1.65,"('cti', 1.664),nan",0,2106.109,0
0,255,target,"[(1041, 757)]",[],[1],[0.55],horizontal,"(390.0, 262.0)",1.2166666666666666,0.509,1,2111.535,1
0,256,target,"[(1112, 776)]",[],[1],[0.5333333333333333],vertical,"(890.0, 762.0)",1.3666666666666667,0.492,1,2118.151,1
0,257,target,"[(1057, 795)]",[],[1],[0.6166666666666667],horizontal,"(390.0, 262.0)",0.5833333333333334,0.577,1,2123.374,1
0,258,target,"[(1092, 776)]",[],[1],[0.3833333333333333],vertical,"(890.0, 762.0)",1.35,0.345,1,2128.621,2
0,259,target,"[(1085, 776)]",[],[1],[0.5166666666666666],horizontal,"(890.0, 762.0)",1.2,0.478,1,2134.343,2
0,260,catch,"[(1100, 777)]",[],[1],[],vertical,"(390.0, 262.0)",1.4,nan,1,2139.575,2
0,261,target,"[(1076, 785)]",[],[1],[0.5166666666666666],horizontal,"(390.0, 762.0)",1.2666666666666666,0.475,1,2144.942,2
0,262,target,"[(1102, 776)]",[],[1],[0.5666666666666667],horizontal,"(890.0, 262.0)",1.1,0.525,1,2150.125,2
0,263,target,"[(1080, 773)]",[],[1],[0.5833333333333334],vertical,"(390.0, 262.0)",0.95,0.535,1,2155.329,3
0,264,target,"[(1096, 757)]",[],[1],[],horizontal,"(890.0, 262.0)",,"('cti', 1.087)",0,2160.659,0
0,265,target,"[(1104, 776)]",[],[1],[0.2],vertical,"(390.0, 762.0)",1.5166666666666666,0.163,0,2165.142,0
0,266,target,"[(1086, 781)]",[],[1],[0.7333333333333333],horizontal,"(390.0, 262.0)",1.2333333333333334,0.689,1,2169.607,1
0,267,target,"[(1076, 786)]",[],[1],[0.5],vertical,"(890.0, 262.0)",1.2666666666666666,0.453,1,2174.951,1
0,268,target,"[(1082, 776)]",[],[1],[0.6666666666666666],vertical,"(390.0, 262.0)",1.0333333333333332,0.623,1,2180.709,1
0,269,target,"[(1107, 776)]",[],[1],[0.6833333333333333],horizontal,"(890.0, 262.0)",0.95,0.636,1,2185.915,2
0,270,target,"[(1085, 776)]",[],[1],[0.75],vertical,"(890.0, 262.0)",0.8666666666666667,0.702,1,2191.121,2
0,271,target,"[(1105, 785)]",[],[1],[0.6166666666666667],horizontal,"(390.0, 762.0)",0.85,0.58,1,2196.777,2
0,272,target,"[(1100, 766)]",[],[1],[0.6],horizontal,"(890.0, 262.0)",0.9833333333333333,0.561,1,2201.727,2
0,273,target,"[(1105, 798)]",[],[1],[0.5],horizontal,"(390.0, 262.0)",1.0666666666666667,0.463,1,2207.342,2
0,274,target,"[(1100, 783)]",[],[1],[0.1],horizontal,"(890.0, 262.0)",1.5,0.067,0,2212.56,0
0,275,target,"[(1082, 766)]",[],[1],[0.5833333333333334],vertical,"(890.0, 762.0)",0.65,0.545,1,2217.251,1
0,276,target,"[(1077, 785)]",[],[1],[0.85],vertical,"(390.0, 762.0)",0.9333333333333333,nan,0,2221.876,0
0,277,target,"[(1086, 770)]",[],[1],[0.2833333333333333],horizontal,"(390.0, 262.0)",1.55,0.25,1,2226.431,1
0,278,target,"[(1076, 736), (1065, 764)]",[],"[0, 1]",[0.6],horizontal,"(890.0, 262.0)",0.6166666666666667,0.555,1,2231.849,1
0,279,catch,"[(1102, 768)]",[],[1],[],vertical,"(390.0, 262.0)",1.6833333333333333,nan,1,2237.293,1
0,280,catch,"[(1086, 771)]",[],[1],[],horizontal,"(890.0, 762.0)",1.3666666666666667,nan,1,2242.248,2
0,281,target,"[(1132, 782)]",[],[1],[0.7666666666666666],vertical,"(390.0, 762.0)",0.9833333333333333,0.723,1,2247.709,2
0,282,target,"[(1119, 781)]",[],[1],[],horizontal,"(890.0, 762.0)",,"('cti', 1.533)",0,2253.092,0
0,283,target,"[(1100, 794)]",[],[1],[0.48333333333333334],horizontal,"(390.0, 762.0)",1.1666666666666667,0.444,1,2257.812,1
0,284,target,"[(1100, 777)]",[],[1],[0.6166666666666667],vertical,"(390.0, 262.0)",0.8666666666666667,0.577,1,2262.911,1
0,285,target,"[(1112, 759)]",[],[1],[0.6166666666666667],vertical,"(890.0, 262.0)",1.05,0.576,1,2267.806,1
0,286,target,"[(1116, 776)]",[],[1],[0.55],horizontal,"(390.0, 262.0)",0.8833333333333333,0.512,1,2273.018,2
0,287,target,"[(1110, 785)]",[],[1],[0.5833333333333334],horizontal,"(390.0, 262.0)",1.0666666666666667,0.537,1,2277.986,2
0,288,target,"[(1129, 745), (1072, 782)]",[],"[0, 1]",[0.43333333333333335],vertical,"(390.0, 762.0)",1.3,0.395,1,2283.7,2
0,289,target,"[(1078, 773)]",[],[1],[0.55],vertical,"(890.0, 262.0)",1.05,0.512,1,2290.225,2
0,290,target,"[(1127, 783)]",[],[1],[0.5666666666666667],vertical,"(890.0, 762.0)",0.6833333333333333,0.524,1,2295.368,2
0,291,target,"[(1101, 784)]",[],[1],[0.4666666666666667],vertical,"(390.0, 262.0)",1.2333333333333334,0.423,1,2300.538,3
0,292,target,"[(1101, 775)]",[],[1],[0.6333333333333333],horizontal,"(390.0, 762.0)",0.85,0.588,1,2306.333,3
0,293,target,"[(1102, 770)]",[],[1],[0.5833333333333334],horizontal,"(890.0, 762.0)",1.0333333333333332,0.539,1,2311.944,3
0,294,catch,"[(1077, 775)]",[],[1],[],vertical,"(890.0, 762.0)",1.4,nan,1,2317.3,3
0,295,catch,"[(1085, 776)]",[],[1],[],vertical,"(390.0, 762.0)",1.5833333333333333,nan,1,2322.816,3
0,296,target,"[(1091, 776)]",[],[1],[0.2],vertical,"(390.0, 762.0)",1.65,0.165,0,2328.826,0
0,297,target,"[(1067, 764)]",[],[1],[0.6333333333333333],vertical,"(390.0, 762.0)",1.1166666666666667,0.597,1,2333.593,1
0,298,target,"[(1080, 760)]",[],[1],[0.4166666666666667],horizontal,"(390.0, 762.0)",1.5333333333333332,0.378,1,2338.403,1
0,299,target,"[(1130, 780)]",[],[1],[0.5833333333333334],vertical,"(890.0, 762.0)",1.1166666666666667,0.543,1,2343.855,1
0,300,target,"[(1091, 780)]",[],[1],[0.6],horizontal,"(390.0, 762.0)",1.25,0.556,1,2349.01,2
0,301,target,"[(1128, 782)]",[],[1],[0.75],vertical,"(390.0, 262.0)",0.7333333333333333,0.704,1,2354.25,2
0,302,target,"[(1125, 790)]",[],[1],[0.7166666666666667],horizontal,"(390.0, 762.0)",0.9333333333333333,0.667,1,2359.61,2
0,303,target,"[(1084, 770)]",[],[1],[0.6],vertical,"(390.0, 762.0)",0.9833333333333333,0.561,1,2365.118,2
0,304,target,"[(1090, 785)]",[],[1],[0.7166666666666667],horizontal,"(390.0, 762.0)",0.9666666666666667,0.686,1,2370.677,2
0,305,target,"[(1079, 786)]",[],[1],[0.18333333333333332],horizontal,"(390.0, 262.0)",1.4833333333333334,0.146,0,2375.993,0
0,306,target,"[(1082, 786)]",[],[1],[0.2833333333333333],vertical,"(890.0, 762.0)",1.4,0.25,1,2380.922,1
0,307,target,"[(1092, 758)]",[],[1],[0.11666666666666667],vertical,"(890.0, 762.0)",1.6666666666666667,0.087,0,2385.685,0
0,308,target,"[(1091, 789)]",[],[1],[0.6166666666666667],vertical,"(390.0, 762.0)",1.35,0.572,1,2390.427,1
0,309,target,"[(1083, 765)]",[],[1],[0.5833333333333334],horizontal,"(390.0, 762.0)",1.55,0.542,1,2395.76,1
0,310,target,"[(1097, 765)]",[],[1],[0.6166666666666667],horizontal,"(390.0, 262.0)",0.5,0.573,1,2401.327,1
0,311,target,"[(1087, 781)]",[],[1],[0.6666666666666666],vertical,"(390.0, 262.0)",0.6666666666666666,0.641,1,2406.028,2
0,312,target,"[(1110, 770)]",[],[1],[0.35],horizontal,"(390.0, 762.0)",0.7666666666666666,0.311,1,2411.66,2
0,313,target,"[(1108, 756)]",[],[1],[0.85],vertical,"(390.0, 762.0)",0.5833333333333334,nan,0,2416.493,0
0,314,target,"[(1089, 790)]",[],[1],[0.6166666666666667],horizontal,"(890.0, 762.0)",1.4166666666666667,0.569,1,2421.092,1
0,315,target,"[(1082, 785)]",[],[1],[0.6333333333333333],vertical,"(390.0, 262.0)",0.5666666666666667,0.59,1,2426.294,1
0,316,target,"[(1079, 750), (1067, 777)]",[],"[0, 1]",[0.85],vertical,"(890.0, 762.0)",0.5,nan,0,2430.674,0
0,317,target,"[(1065, 778)]",[],[1],[0.6666666666666666],vertical,"(890.0, 262.0)",1.25,0.624,1,2436.611,1
0,318,target,"[(1105, 783)]",[],[1],[0.6666666666666666],horizontal,"(890.0, 762.0)",1.1833333333333333,0.625,1,2441.382,1
0,319,target,"[(1076, 776)]",[],[1],[0.5833333333333334],horizontal,"(390.0, 262.0)",1.2166666666666666,0.539,1,2446.727,1
0,320,target,"[(1111, 750), (1081, 792)]",[],"[0, 1]",[0.23333333333333334],horizontal,"(390.0, 762.0)",1.6333333333333333,0.199,0,2452.693,0
0,321,target,"[(1081, 774)]",[],[1],[0.6],vertical,"(390.0, 262.0)",0.9166666666666666,0.556,1,2458.627,1
0,322,target,"[(1081, 756)]",[],[1],[0.45],vertical,"(890.0, 762.0)",1.3166666666666667,0.418,1,2463.129,1
0,323,target,"[(1085, 740), (1064, 786)]",[],"[0, 1]",[0.6333333333333333],vertical,"(390.0, 762.0)",0.8166666666666667,0.59,1,2468.327,1
0,324,target,"[(1082, 757)]",[],[1],[0.13333333333333333],horizontal,"(890.0, 262.0)",1.5166666666666666,0.1,0,2474.54,0
0,325,target,"[(1091, 786)]",[],[1],[0.15],horizontal,"(390.0, 262.0)",1.15,0.119,0,2479.261,0
0,326,target,"[(1081, 808)]",[],[1],[0.43333333333333335],horizontal,"(890.0, 762.0)",1.4166666666666667,0.397,1,2483.295,1
0,327,target,"[(1076, 769)]",[],[1],[0.5666666666666667],horizontal,"(890.0, 262.0)",0.65,0.532,1,2525.278,1
0,328,target,"[(1081, 776)]",[],[1],[0.6166666666666667],vertical,"(890.0, 762.0)",0.8166666666666667,0.57,1,2529.945,1
0,329,target,"[(1102, 786)]",[],[1],[0.7333333333333333],vertical,"(390.0, 262.0)",0.5333333333333333,0.698,1,2534.865,2
0,330,target,"[(1092, 786)]",[],[1],[0.3833333333333333],vertical,"(890.0, 762.0)",1.3,0.344,1,2539.629,2
0,331,target,"[(1093, 776)]",[],[1],[0.11666666666666667],vertical,"(390.0, 262.0)",1.5666666666666667,0.084,0,2544.912,0
0,332,target,"[(1068, 765)]",[],[1],[0.6166666666666667],horizontal,"(390.0, 262.0)",1.5833333333333333,0.585,1,2549.685,1
0,333,target,"[(1120, 783)]",[],[1],[0.7],vertical,"(390.0, 762.0)",1.1,0.666,1,2555.159,1
0,334,target,"[(1091, 771)]",[],[1],[0.75],vertical,"(890.0, 762.0)",0.9833333333333333,0.706,1,2560.3,1
0,335,target,"[(1091, 788)]",[],[1],[0.3333333333333333],horizontal,"(890.0, 762.0)",1.5333333333333332,0.3,1,2565.843,2
0,336,target,"[(1110, 768)]",[],[1],[0.5666666666666667],horizontal,"(890.0, 762.0)",1.2833333333333332,0.529,1,2571.91,2
0,337,target,"[(1082, 765)]",[],[1],[0.85],horizontal,"(390.0, 262.0)",0.7833333333333333,nan,0,2577.402,0
0,338,catch,"[(1068, 769)]",[],[1],[],vertical,"(890.0, 262.0)",1.35,nan,1,2581.868,1
0,339,target,"[(1125, 741), (1063, 787)]",[],"[0, 1]",[0.6],vertical,"(890.0, 262.0)",1.0666666666666667,0.557,1,2586.955,1
0,340,target,"[(1087, 764)]",[],[1],[0.65],horizontal,"(390.0, 762.0)",0.7833333333333333,0.605,1,2592.749,1
0,341,target,"[(1078, 781)]",[],[1],[],horizontal,"(390.0, 762.0)",,"('cti', 1.233)",0,2597.55,0
0,342,target,"[(1074, 766)]",[],[1],[0.5333333333333333],horizontal,"(890.0, 762.0)",1.1666666666666667,0.494,1,2601.855,1
0,343,target,"[(1105, 785)]",[],[1],[0.2833333333333333],vertical,"(890.0, 762.0)",1.4833333333333334,0.246,1,2606.963,1
0,344,target,"[(1100, 786)]",[],[1],[],horizontal,"(390.0, 262.0)",,"('cti', 1.31)",0,2612.094,0
0,345,target,"[(1114, 786)]",[],[1],[0.5666666666666667],vertical,"(890.0, 762.0)",1.2,0.527,1,2616.737,1
0,346,target,"[(1120, 758)]",[],[1],[],horizontal,"(890.0, 762.0)",,"('cti', 1.349)",0,2621.971,0
0,347,target,"[(1080, 781)]",[],[1],[0.43333333333333335],vertical,"(890.0, 762.0)",1.2166666666666666,0.395,1,2626.917,1
0,348,target,"[(1103, 770)]",[],[1],[0.2],vertical,"(890.0, 262.0)",1.55,0.167,0,2632.021,0
0,349,target,"[(1085, 780)]",[],[1],[0.45],vertical,"(390.0, 262.0)",1.0333333333333332,0.419,1,2636.578,1
0,350,target,"[(1100, 781)]",[],[1],[0.5833333333333334],horizontal,"(890.0, 262.0)",1.3666666666666667,0.545,1,2641.825,1
0,351,target,"[(1088, 761)]",[],[1],[0.26666666666666666],horizontal,"(390.0, 762.0)",1.6666666666666667,0.232,1,2646.945,1
0,352,target,"[(1081, 769)]",[],[1],[0.5666666666666667],vertical,"(890.0, 762.0)",1.5,0.524,1,2652.046,2
0,353,target,"[(1120, 762)]",[],[1],[0.8],horizontal,"(390.0, 262.0)",0.5,0.755,1,2657.379,2
0,354,catch,"[(1130, 781)]",[],[1],[],vertical,"(890.0, 262.0)",1.5166666666666666,nan,1,2662.296,2
0,355,target,"[(1100, 796)]",[],[1],[0.6],horizontal,"(890.0, 762.0)",0.8,0.56,1,2667.204,2
0,356,catch,"[(1110, 785)]",[],[1],[],horizontal,"(890.0, 762.0)",1.4333333333333333,nan,1,2672.232,2
0,357,target,"[(1065, 756)]",[],[1],[0.25],vertical,"(390.0, 762.0)",1.45,0.216,1,2677.334,3
0,358,target,"[(1105, 765)]",[],[1],[0.16666666666666666],horizontal,"(390.0, 262.0)",1.5666666666666667,0.136,0,2683.499,0
0,359,target,"[(1105, 781)]",[],[1],[0.55],vertical,"(390.0, 762.0)",1.1833333333333333,0.51,1,2688.404,1
0,360,target,"[(1106, 747), (1067, 786)]",[],"[0, 1]",[0.21666666666666667],vertical,"(890.0, 262.0)",1.55,0.18,0,2693.562,0
0,361,target,"[(1098, 784)]",[],[1],[0.65],vertical,"(890.0, 762.0)",0.6666666666666666,0.615,1,2699.694,1
0,362,target,"[(1107, 767)]",[],[1],[0.3333333333333333],horizontal,"(890.0, 762.0)",1.4666666666666666,0.298,1,2704.528,1
0,363,catch,"[(1108, 788)]",[],[1],[],vertical,"(890.0, 262.0)",1.4333333333333333,nan,1,2709.515,1
0,364,catch,"[(1081, 757)]",[],[1],[],horizontal,"(890.0, 262.0)",1.6833333333333333,nan,1,2714.63,2
0,365,target,"[(1105, 756)]",[],[1],[0.5833333333333334],vertical,"(890.0, 262.0)",0.5166666666666666,0.549,1,2720.314,2
0,366,target,"[(1101, 785)]",[],[1],[0.85],horizontal,"(890.0, 762.0)",0.6166666666666667,nan,0,2725.263,0
0,367,target,"[(1086, 784)]",[],[1],[0.6666666666666666],vertical,"(890.0, 262.0)",0.85,0.62,1,2729.346,1
0,368,target,"[(1087, 747), (1066, 786)]",[],"[0, 1]",[0.85],horizontal,"(890.0, 262.0)",0.7833333333333333,nan,0,2734.146,0
0,369,target,"[(1072, 786)]",[],[1],[0.5833333333333334],horizontal,"(390.0, 262.0)",1.0833333333333333,0.542,1,2740.13,1
0,370,target,"[(1075, 742), (1073, 785)]",[],"[0, 1]",[0.6166666666666667],horizontal,"(890.0, 762.0)",0.9666666666666667,0.576,1,2745.337,1
0,371,target,"[(1114, 754)]",[],[1],[0.6666666666666666],vertical,"(890.0, 762.0)",1.1,0.625,1,2751.328,1
0,372,target,"[(1110, 767)]",[],[1],[0.6],vertical,"(390.0, 762.0)",0.9333333333333333,0.554,1,2756.847,2
0,373,catch,"[(1096, 763)]",[],[1],[],vertical,"(890.0, 762.0)",1.6,nan,1,2762.057,2
0,374,target,"[(1100, 761)]",[],[1],[0.25],horizontal,"(890.0, 262.0)",1.55,0.216,1,2767.24,2
0,375,target,"[(1100, 776)]",[],[1],[0.5333333333333333],horizontal,"(890.0, 262.0)",1.2166666666666666,0.495,1,2772.94,2
0,376,target,"[(1106, 771)]",[],[1],[0.43333333333333335],horizontal,"(390.0, 762.0)",1.3166666666666667,0.391,1,2778.546,2
0,377,target,"[(1100, 776)]",[],[1],[0.05],vertical,"(890.0, 262.0)",1.5666666666666667,0.02,0,2783.964,0
0,378,target,"[(1100, 788)]",[],[1],[0.7],vertical,"(890.0, 762.0)",0.6666666666666666,0.658,1,2788.699,1
0,379,target,"[(1082, 749), (1066, 786)]",[],"[0, 1]",[0.65],horizontal,"(890.0, 262.0)",0.5666666666666667,0.607,1,2793.163,1
0,380,target,"[(1115, 785)]",[],[1],[0.85],horizontal,"(390.0, 262.0)",0.7833333333333333,nan,0,2798.816,0
0,381,target,"[(1072, 782)]",[],[1],[0.6],horizontal,"(390.0, 762.0)",0.8666666666666667,0.559,1,2803.563,1
0,382,target,"[(1108, 767)]",[],[1],[0.65],horizontal,"(390.0, 762.0)",1.0166666666666666,0.608,1,2808.496,1
0,383,target,"[(1108, 751), (1070, 784)]",[],"[0, 1]",[0.5166666666666666],vertical,"(390.0, 262.0)",1.2666666666666666,0.477,1,2813.22,1
0,384,target,"[(1137, 767)]",[],[1],[0.6166666666666667],horizontal,"(890.0, 762.0)",0.6333333333333333,0.578,1,2820.212,2
0,385,target,"[(1115, 760)]",[],[1],[0.5833333333333334],vertical,"(890.0, 262.0)",0.85,0.543,1,2824.996,2
0,386,target,"[(1080, 743), (1076, 738), (1091, 774)]",[],"[0, 0, 1]",[0.6666666666666666],horizontal,"(890.0, 262.0)",0.95,0.621,1,2829.905,2
0,387,target,"[(1076, 740), (1072, 746), (944, 737), (1134, 786)]",[],"[0, 0, 0, 1]",[0.55],vertical,"(890.0, 262.0)",0.8666666666666667,0.509,1,2837.28,2
0,388,target,"[(1106, 757)]",[],[1],[0.8333333333333334],vertical,"(390.0, 762.0)",0.9833333333333333,0.787,1,2844.448,2
0,389,catch,"[(1109, 758)]",[],[1],[],vertical,"(890.0, 762.0)",1.6,"('cti', 1.59),nan",0,2850.047,0
0,390,target,"[(1081, 786)]",[],[1],[0.6833333333333333],vertical,"(890.0, 762.0)",0.7166666666666667,0.638,1,2854.698,1
0,391,target,"[(1105, 769)]",[],[1],[0.45],horizontal,"(390.0, 262.0)",1.4666666666666666,0.41,1,2859.647,1
0,392,target,"[(1115, 757)]",[],[1],[0.5666666666666667],horizontal,"(390.0, 262.0)",1.2666666666666666,0.524,1,2865.229,1
0,393,target,"[(1105, 748), (1081, 760)]",[],"[0, 1]",[0.3333333333333333],vertical,"(390.0, 762.0)",1.4833333333333334,0.298,1,2870.329,2
0,394,catch,"[(1091, 757)]",[],[1],[],vertical,"(390.0, 762.0)",1.5666666666666667,nan,1,2877.482,2
0,395,target,"[(1076, 766)]",[],[1],[0.6166666666666667],horizontal,"(390.0, 762.0)",0.55,0.576,1,2883.147,2
0,396,target,"[(1086, 756)]",[],[1],[0.2833333333333333],horizontal,"(390.0, 262.0)",1.45,0.252,1,2887.869,2
0,397,target,"[(1081, 781)]",[],[1],[0.85],horizontal,"(390.0, 262.0)",0.7,nan,0,2893.196,0
0,398,target,"[(1067, 776)]",[],[1],[0.7166666666666667],horizontal,"(890.0, 262.0)",1.0,0.668,1,2897.725,1
0,399,target,"[(1108, 757)]",[],[1],[0.85],vertical,"(390.0, 762.0)",0.7666666666666666,nan,0,2903.215,0
0,400,target,"[(1080, 784)]",[],[1],[0.65],horizontal,"(890.0, 262.0)",0.9,0.605,1,2907.904,1
0,401,target,"[(1105, 766)]",[],[1],[0.5666666666666667],horizontal,"(890.0, 262.0)",0.7,0.521,1,2912.748,1
0,402,target,"[(1082, 744), (1064, 784)]",[],"[0, 1]",[0.31666666666666665],vertical,"(890.0, 762.0)",1.4333333333333333,0.282,1,2917.322,1
0,403,target,"[(1067, 736), (1066, 783)]",[],"[0, 1]",[0.6666666666666666],vertical,"(890.0, 262.0)",1.2833333333333332,0.622,1,2923.68,2
0,404,target,"[(1123, 747), (1079, 791)]",[],"[0, 1]",[0.6],vertical,"(390.0, 262.0)",1.2,0.562,1,2930.894,2
0,405,target,"[(1121, 743), (1076, 791)]",[],"[0, 1]",[0.6166666666666667],vertical,"(890.0, 262.0)",0.6333333333333333,0.571,1,2937.804,2
0,406,target,"[(1105, 758)]",[],[1],[0.6666666666666666],vertical,"(390.0, 262.0)",1.1833333333333333,0.624,1,2943.675,2
0,407,target,"[(1096, 761)]",[],[1],[0.6166666666666667],horizontal,"(890.0, 262.0)",0.6666666666666666,0.573,1,2949.409,2
0,408,target,"[(1076, 762)]",[],[1],[0.48333333333333334],horizontal,"(890.0, 262.0)",1.2833333333333332,0.442,1,2954.231,3
0,409,catch,"[(1090, 773)]",[],[1],[0.03333333333333333],horizontal,"(890.0, 262.0)",1.6666666666666667,"0.02,nan",0,2959.898,0
0,410,target,"[(1076, 782)]",[],[1],[0.6666666666666666],vertical,"(890.0, 262.0)",0.9333333333333333,0.622,1,2964.846,1
0,411,target,"[(1107, 751), (1086, 776)]",[],"[0, 1]",[0.5666666666666667],vertical,"(390.0, 762.0)",1.6333333333333333,0.53,1,2969.613,1
0,412,target,"[(1104, 765)]",[],[1],[0.85],horizontal,"(390.0, 762.0)",0.6333333333333333,nan,0,2976.465,0
0,413,target,"[(1089, 781)]",[],[1],[0.55],horizontal,"(390.0, 262.0)",1.3666666666666667,0.509,1,2981.297,1
0,414,target,"[(1092, 779)]",[],[1],[0.6],horizontal,"(390.0, 762.0)",1.5,0.557,1,2986.264,1
0,415,target,"[(1081, 754)]",[],[1],[0.6333333333333333],vertical,"(390.0, 762.0)",1.0833333333333333,0.59,1,2991.314,1
0,416,catch,"[(1110, 744), (1076, 784)]",[],"[0, 1]",[],horizontal,"(390.0, 762.0)",1.3833333333333333,nan,1,2996.78,2
0,417,target,"[(1082, 790)]",[],[1],[0.65],horizontal,"(890.0, 762.0)",0.6666666666666666,0.608,1,3003.397,2
0,418,target,"[(1105, 769)]",[],[1],[0.7],vertical,"(890.0, 762.0)",0.6833333333333333,0.652,1,3008.983,2
0,419,catch,"[(1079, 761)]",[],[1],[],vertical,"(890.0, 762.0)",1.4166666666666667,nan,1,3013.692,2
0,420,catch,"[(1121, 768)]",[],[1],[],vertical,"(890.0, 762.0)",1.6333333333333333,"('cti', 1.62),nan",0,3019.174,0
0,421,target,"[(1081, 811)]",[],[1],[0.85],horizontal,"(390.0, 762.0)",0.5166666666666666,nan,0,3024.14,0
0,422,target,"[(1073, 788)]",[],[1],[0.13333333333333333],horizontal,"(890.0, 762.0)",1.5,0.101,0,3132.363,0
0,423,target,"[(1108, 790)]",[],[1],[0.85],vertical,"(890.0, 262.0)",0.9833333333333333,nan,0,3137.14,0
0,424,target,"[(1083, 791)]",[],[1],[0.85],horizontal,"(390.0, 262.0)",0.75,nan,0,3141.714,0
0,425,catch,"[(1066, 799)]",[],[1],[],vertical,"(390.0, 762.0)",1.6,nan,1,3146.452,1
0,426,catch,"[(1076, 791)]",[],[1],[],horizontal,"(890.0, 262.0)",1.35,nan,1,3151.382,1
0,427,target,"[(1080, 786)]",[],[1],[0.5666666666666667],horizontal,"(890.0, 262.0)",0.8666666666666667,0.522,1,3155.791,1
0,428,catch,"[(1106, 789)]",[],[1],[],horizontal,"(390.0, 262.0)",1.5333333333333332,nan,1,3160.398,2
0,429,catch,"[(1118, 786)]",[],[1],[],horizontal,"(890.0, 262.0)",1.3666666666666667,nan,1,3165.708,2
0,430,target,"[(1101, 790)]",[],[1],[0.7666666666666666],horizontal,"(890.0, 762.0)",0.9333333333333333,0.719,1,3170.948,2
0,431,catch,"[(1100, 789)]",[],[1],[],vertical,"(390.0, 262.0)",1.6166666666666667,nan,1,3176.55,2
0,432,target,"[(1080, 790)]",[],[1],[0.85],vertical,"(390.0, 262.0)",1.1333333333333333,nan,0,3181.871,0
0,433,catch,"[(1077, 776)]",[],[1],[],horizontal,"(390.0, 262.0)",1.5666666666666667,nan,1,3186.978,1
0,434,target,"[(1038, 749), (1081, 794)]",[],"[0, 1]",[0.85],horizontal,"(890.0, 762.0)",0.5666666666666667,nan,0,3191.931,0
0,435,target,"[(1071, 770)]",[],[1],[0.3833333333333333],horizontal,"(890.0, 762.0)",1.3666666666666667,0.344,1,3197.099,1
0,436,target,"[(1102, 787)]",[],[1],[0.6],vertical,"(890.0, 762.0)",1.05,0.557,1,3202.448,1
0,437,target,"[(1118, 774)]",[],[1],[0.5333333333333333],vertical,"(890.0, 262.0)",0.9666666666666667,0.497,1,3207.282,1
0,438,target,"[(1105, 755)]",[],[1],[0.6333333333333333],horizontal,"(390.0, 762.0)",1.6833333333333333,0.59,1,3211.718,2
0,439,target,"[(1129, 791)]",[],[1],[0.5833333333333334],vertical,"(890.0, 762.0)",0.8666666666666667,0.54,1,3217.598,2
0,440,target,"[(1109, 770)]",[],[1],[0.6],vertical,"(890.0, 762.0)",0.9,0.556,1,3222.715,2
0,441,target,"[(1131, 791)]",[],[1],[0.5333333333333333],vertical,"(890.0, 262.0)",0.8166666666666667,0.503,1,3228.082,2
0,442,target,"[(1129, 785)]",[],[1],[0.85],vertical,"(390.0, 262.0)",1.6,"('cti', 1.582),nan",0,3233.199,0
0,443,catch,"[(1096, 786)]",[],[1],[],horizontal,"(890.0, 262.0)",1.4666666666666666,nan,1,3239.017,1
0,444,target,"[(1109, 794)]",[],[1],[0.5833333333333334],vertical,"(390.0, 262.0)",1.1,0.537,1,3243.499,1
0,445,target,"[(1075, 756)]",[],[1],[0.55],horizontal,"(890.0, 262.0)",1.3333333333333333,0.51,1,3248.338,1
0,446,target,"[(1104, 769)]",[],[1],[0.65],horizontal,"(390.0, 262.0)",0.75,0.617,1,3253.365,2
0,447,target,"[(1100, 781)]",[],[1],[0.31666666666666665],horizontal,"(890.0, 762.0)",1.4,0.279,1,3258.293,2
0,448,target,"[(1072, 773)]",[],[1],[0.21666666666666667],horizontal,"(890.0, 762.0)",1.5,0.181,0,3263.412,0
0,449,target,"[(1111, 774)]",[],[1],[0.6833333333333333],vertical,"(390.0, 762.0)",0.75,0.638,1,3268.271,1
0,450,target,"[(1076, 768)]",[],[1],[0.2],horizontal,"(890.0, 762.0)",1.6666666666666667,0.168,0,3273.197,0
0,451,target,"[(1100, 778)]",[],[1],[0.6666666666666666],horizontal,"(890.0, 262.0)",0.5,0.626,1,3278.619,1
0,452,target,"[(1129, 781)]",[],[1],[0.7],horizontal,"(890.0, 762.0)",1.05,0.653,1,3283.231,1
0,453,catch,"[(1105, 780)]",[],[1],[],vertical,"(890.0, 262.0)",1.5166666666666666,nan,1,3288.305,1
0,454,target,"[(1107, 761)]",[],[1],[0.3833333333333333],horizontal,"(890.0, 762.0)",1.25,0.342,1,3293.465,2
0,455,target,"[(1082, 757)]",[],[1],[0.4666666666666667],vertical,"(390.0, 262.0)",1.6666666666666667,0.425,1,3298.998,2
0,456,catch,"[(1105, 776)]",[],[1],[],horizontal,"(890.0, 762.0)",1.6666666666666667,"('cti', 1.659),nan",0,3304.564,0
0,457,target,"[(1052, 325), (1110, 361), (1048, 513), (1128, 410), (1013, 786)]",[],"[0, 0, 0, 0, 1]",[],horizontal,"(890.0, 262.0)",,"('fix', 0.066)",0,3309.202,0
0,458,target,"[(1081, 718), (1187, 766)]","[(1167, 770)]","[0, 1]",[0.11666666666666667],horizontal,"(390.0, 762.0)",,"('bar', 0.131)",0,3313.387,0
0,459,target,"[(1062, 799)]",[],[1],[],horizontal,"(390.0, 762.0)",,"('cti', 1.37)",0,3318.097,0
0,460,target,"[(1100, 780)]",[],[1],[0.3],horizontal,"(390.0, 762.0)",1.4166666666666667,0.262,1,3323.164,1
0,461,target,"[(1108, 768)]",[],[1],[0.6833333333333333],horizontal,"(890.0, 762.0)",0.7,0.64,1,3328.165,1
0,462,target,"[(1107, 765)]",[],[1],[0.31666666666666665],horizontal,"(390.0, 262.0)",1.5,0.28,1,3332.764,1
0,463,target,"[(1063, 760)]",[],[1],[0.5166666666666666],horizontal,"(390.0, 262.0)",0.7666666666666666,0.489,1,3337.575,2
0,464,target,"[(1108, 784)]",[],[1],[0.85],horizontal,"(390.0, 762.0)",0.7833333333333333,nan,0,3343.024,0
0,465,target,"[(1107, 786)]",[],[1],[0.6666666666666666],vertical,"(890.0, 762.0)",0.6666666666666666,0.617,1,3347.665,1
0,466,target,"[(1115, 791)]",[],[1],[0.3333333333333333],horizontal,"(390.0, 762.0)",1.6166666666666667,0.296,1,3352.257,1
0,467,target,"[(1110, 779)]",[],[1],[0.6166666666666667],horizontal,"(390.0, 262.0)",1.0333333333333332,0.576,1,3357.377,1
0,468,target,"[(1110, 776)]",[],[1],[0.65],vertical,"(390.0, 762.0)",0.6666666666666666,0.614,1,3362.394,2
0,469,catch,"[(1133, 779)]",[],[1],[],vertical,"(890.0, 762.0)",1.55,nan,1,3367.863,2
0,470,target,"[(1077, 771)]",[],[1],[0.11666666666666667],horizontal,"(890.0, 762.0)",1.4833333333333334,0.087,0,3373.351,0
0,471,target,"[(1107, 780)]",[],[1],[0.5833333333333334],vertical,"(890.0, 762.0)",0.9833333333333333,0.54,1,3377.947,1
0,472,target,"[(1077, 791)]",[],[1],[0.5333333333333333],vertical,"(890.0, 262.0)",1.3,0.49,1,3383.106,1
0,473,target,"[(1110, 765)]",[],[1],[0.5833333333333334],horizontal,"(890.0, 762.0)",1.05,0.54,1,3388.389,1
0,474,target,"[(1110, 773)]",[],[1],[0.85],vertical,"(390.0, 262.0)",0.75,nan,0,3393.635,0
0,475,target,"[(1105, 781)]",[],[1],[0.45],horizontal,"(390.0, 262.0)",1.4666666666666666,0.412,1,3398.267,1
0,476,target,"[(1116, 767)]",[],[1],[0.5333333333333333],vertical,"(890.0, 262.0)",1.1833333333333333,0.491,1,3403.198,1
0,477,target,"[(1110, 761)]",[],[1],[0.5666666666666667],horizontal,"(890.0, 262.0)",0.5,0.527,1,3408.387,1
0,478,target,"[(1105, 771)]",[],[1],[0.43333333333333335],vertical,"(390.0, 262.0)",1.2,0.395,1,3413.049,2
0,479,target,"[(1130, 771)]",[],[1],[0.45],vertical,"(890.0, 262.0)",1.15,0.41,1,3418.782,2
0,480,target,"[(1110, 759)]",[],[1],[0.4],vertical,"(890.0, 262.0)",1.2,0.359,1,3424.116,2
0,481,target,"[(1100, 739), (1067, 788)]",[],"[0, 1]",[0.3],vertical,"(390.0, 262.0)",1.5166666666666666,0.258,1,3429.514,2
0,482,target,"[(1130, 781)]",[],[1],[0.23333333333333334],vertical,"(890.0, 762.0)",1.4,0.203,1,3436.248,2
0,483,target,"[(1112, 753), (1081, 791)]",[],"[0, 1]",[],horizontal,"(890.0, 762.0)",,"('cti', 1.518)",0,3441.532,0
0,484,target,"[(1100, 785)]",[],[1],[0.6333333333333333],vertical,"(390.0, 262.0)",0.7333333333333333,0.589,1,3447.458,1
0,485,catch,"[(1104, 747), (1097, 797)]",[],"[0, 1]",[],vertical,"(890.0, 262.0)",1.6,nan,1,3452.24,1
0,486,catch,"[(1105, 758)]",[],[1],[],horizontal,"(890.0, 762.0)",1.6,nan,1,3457.883,1
0,487,catch,"[(1111, 778)]",[],[1],[],horizontal,"(890.0, 762.0)",1.3666666666666667,nan,1,3462.833,2
0,488,catch,"[(1105, 760)]",[],[1],[],vertical,"(890.0, 262.0)",1.6,nan,1,3467.773,2
0,489,target,"[(1110, 781)]",[],[1],[0.36666666666666664],horizontal,"(390.0, 262.0)",1.35,0.328,1,3472.791,2
0,490,target,"[(1085, 762)]",[],[1],[0.5833333333333334],horizontal,"(890.0, 762.0)",1.0166666666666666,0.546,1,3477.851,2
0,491,catch,"[(1107, 785)]",[],[1],[],vertical,"(390.0, 262.0)",1.5333333333333332,nan,1,3483.258,2
0,492,target,"[(1083, 781)]",[],[1],[0.5833333333333334],horizontal,"(390.0, 262.0)",0.5,0.542,1,3488.505,3
0,493,target,"[(1105, 778)]",[],[1],[0.7],vertical,"(890.0, 262.0)",1.0,0.665,1,3493.738,3
0,494,target,"[(1075, 778)]",[],[1],[0.6166666666666667],horizontal,"(890.0, 262.0)",1.1,0.579,1,3499.466,3
0,495,target,"[(1110, 760)]",[],[1],[0.4666666666666667],horizontal,"(890.0, 762.0)",1.2833333333333332,0.428,1,3505.166,3
0,496,target,"[(1121, 771)]",[],[1],[0.6166666666666667],horizontal,"(390.0, 262.0)",0.7833333333333333,0.57,1,3510.918,3
0,497,target,"[(1092, 763)]",[],[1],[0.5833333333333334],horizontal,"(390.0, 762.0)",0.8333333333333334,0.543,1,3516.651,3
0,498,target,"[(1131, 772)]",[],[1],[0.08333333333333333],horizontal,"(390.0, 762.0)",1.5166666666666666,0.051,0,3522.246,0
0,499,target,"[(1103, 793)]",[],[1],[0.6333333333333333],horizontal,"(890.0, 262.0)",1.0,0.59,1,3526.985,1
0,500,target,"[(1114, 770)]",[],[1],[0.6166666666666667],horizontal,"(390.0, 262.0)",0.7166666666666667,0.574,1,3532.226,1
0,501,target,"[(1115, 763)]",[],[1],[0.6],vertical,"(390.0, 762.0)",0.7833333333333333,0.559,1,3536.983,1
0,502,target,"[(1129, 767)]",[],[1],[0.6333333333333333],horizontal,"(890.0, 762.0)",0.65,0.597,1,3541.589,2
0,503,catch,"[(1129, 773)]",[],[1],[],vertical,"(390.0, 762.0)",1.4833333333333334,nan,1,3546.272,2
0,504,target,"[(1068, 765)]",[],[1],[0.25],vertical,"(390.0, 262.0)",1.5333333333333332,0.213,1,3551.466,2
0,505,catch,"[(1091, 766)]",[],[1],[],vertical,"(890.0, 762.0)",1.35,nan,1,3557.267,2
0,506,target,"[(1111, 763)]",[],[1],[0.5166666666666666],vertical,"(890.0, 762.0)",1.0833333333333333,0.479,1,3562.167,2
0,507,target,"[(1090, 746), (1077, 790)]",[],"[0, 1]",[0.6333333333333333],vertical,"(390.0, 262.0)",0.5666666666666667,0.59,1,3567.17,3
0,508,target,"[(1122, 763)]",[],[1],[0.5666666666666667],vertical,"(390.0, 262.0)",0.7333333333333333,0.525,1,3573.684,3
0,509,target,"[(1109, 769)]",[],[1],[],vertical,"(390.0, 262.0)",,"('cti', 1.153)",0,3579.259,0
0,510,target,"[(1115, 781)]",[],[1],[0.5833333333333334],horizontal,"(890.0, 262.0)",0.6166666666666667,0.548,1,3583.194,1
0,511,catch,"[(1076, 785)]",[],[1],[],vertical,"(390.0, 762.0)",1.4333333333333333,nan,1,3587.723,1
0,512,target,"[(1107, 773)]",[],[1],[],vertical,"(390.0, 762.0)",,"('cti', 1.598)",0,3593.074,0
0,513,target,"[(1110, 758)]",[],[1],[0.3],horizontal,"(390.0, 762.0)",1.5166666666666666,0.268,1,3597.468,1
0,514,target,"[(1120, 770)]",[],[1],[0.55],vertical,"(390.0, 262.0)",1.2833333333333332,0.509,1,3602.754,1
0,515,target,"[(1107, 781)]",[],[1],[0.85],vertical,"(390.0, 262.0)",0.7833333333333333,nan,0,3608.123,0
0,516,catch,"[(1096, 761)]",[],[1],[],vertical,"(890.0, 762.0)",,"('cti', 1.151),nan",0,3612.877,0
0,517,catch,"[(1118, 770)]",[],[1],[],horizontal,"(390.0, 262.0)",,"('cti', 1.101),nan",0,3617.401,0
0,518,target,"[(1105, 781)]",[],[1],[],horizontal,"(390.0, 762.0)",,"('cti', 1.116)",0,3622.006,0
0,519,target,"[(1091, 801)]",[],[1],[0.5833333333333334],horizontal,"(390.0, 262.0)",0.9666666666666667,0.544,1,3626.283,1
0,520,target,"[(1127, 793)]",[],[1],[0.6166666666666667],horizontal,"(890.0, 262.0)",0.7333333333333333,0.573,1,3634.767,1
0,521,target,"[(1126, 760)]",[],[1],[0.16666666666666666],vertical,"(890.0, 262.0)",1.6,0.134,0,3639.518,0
0,522,target,"[(1120, 775)]",[],[1],[],vertical,"(890.0, 262.0)",,"('cti', 1.145)",0,3644.442,0
0,523,target,"[(1113, 761)]",[],[1],[0.6333333333333333],horizontal,"(890.0, 762.0)",1.15,0.591,1,3648.402,1
0,524,target,"[(1106, 766)]",[],[1],[0.6833333333333333],horizontal,"(390.0, 762.0)",0.95,0.639,1,3653.235,1
0,525,target,"[(1110, 750), (1084, 780)]",[],"[0, 1]",[0.2],horizontal,"(890.0, 762.0)",1.5333333333333332,0.164,0,3658.495,0
0,526,target,"[(1091, 781)]",[],[1],[0.6],vertical,"(890.0, 762.0)",1.2833333333333332,0.565,1,3664.284,1
0,527,target,"[(1118, 736), (1076, 791)]",[],"[0, 1]",[0.6666666666666666],horizontal,"(890.0, 262.0)",0.75,0.622,1,3669.514,1
0,528,target,"[(1107, 740), (1085, 777)]",[],"[0, 1]",[0.26666666666666666],vertical,"(890.0, 762.0)",1.5833333333333333,0.229,1,3674.87,1
0,529,target,"[(1110, 756)]",[],[1],[0.48333333333333334],vertical,"(390.0, 262.0)",1.2833333333333332,0.45,1,3681.584,2
0,530,target,"[(1114, 768)]",[],[1],[0.6],horizontal,"(390.0, 762.0)",0.9,0.559,1,3687.435,2
0,531,target,"[(1130, 747), (1076, 791)]",[],"[0, 1]",[0.3833333333333333],vertical,"(890.0, 262.0)",1.5333333333333332,0.347,1,3692.932,2
0,532,target,"[(1068, 756)]",[],[1],[0.65],horizontal,"(890.0, 762.0)",0.9833333333333333,0.608,1,3699.301,2
0,533,target,"[(1117, 771)]",[],[1],[0.85],horizontal,"(390.0, 262.0)",0.6333333333333333,nan,0,3704.817,0
0,534,target,"[(1107, 757)]",[],[1],[0.6],vertical,"(890.0, 762.0)",1.1666666666666667,0.558,1,3709.251,1
0,535,target,"[(1107, 759)]",[],[1],[0.55],vertical,"(890.0, 262.0)",1.3333333333333333,0.507,1,3714.635,1
0,536,target,"[(1125, 740), (1081, 787)]",[],"[0, 1]",[0.8],horizontal,"(390.0, 762.0)",1.6666666666666667,0.77,1,3719.934,1
0,537,target,"[(1106, 762)]",[],[1],[0.4666666666666667],horizontal,"(390.0, 762.0)",1.3166666666666667,0.44,1,3726.285,2
0,538,target,"[(1107, 746), (1067, 788)]",[],"[0, 1]",[0.6833333333333333],vertical,"(390.0, 262.0)",1.1666666666666667,0.641,1,3731.835,2
0,539,target,"[(1076, 772)]",[],[1],[0.16666666666666666],vertical,"(390.0, 762.0)",1.6333333333333333,0.135,0,3738.251,0
0,540,target,"[(1105, 766)]",[],[1],[0.6],vertical,"(890.0, 762.0)",0.8,0.563,1,3742.769,1
0,541,target,"[(1108, 770)]",[],[1],[0.85],horizontal,"(390.0, 262.0)",0.55,nan,0,3747.402,0
0,542,target,"[(1107, 739), (1105, 781)]",[],"[0, 1]",[0.5666666666666667],vertical,"(890.0, 762.0)",1.1666666666666667,0.519,1,3751.585,1
0,543,catch,"[(1108, 756)]",[],[1],[],horizontal,"(390.0, 762.0)",1.5833333333333333,nan,1,3758.234,1
0,544,target,"[(1078, 796)]",[],[1],[0.7],horizontal,"(390.0, 762.0)",1.0166666666666666,0.656,1,3763.201,1
0,545,target,"[(1087, 791)]",[],[1],[0.3],vertical,"(890.0, 762.0)",1.45,0.263,1,3769.497,2
0,546,target,"[(1118, 760)]",[],[1],[0.4166666666666667],vertical,"(390.0, 762.0)",1.2333333333333334,0.374,1,3775.166,2
0,547,target,"[(1102, 778)]",[],[1],[0.85],horizontal,"(890.0, 762.0)",0.5666666666666667,nan,0,3780.718,0
0,548,target,"[(1066, 778)]",[],[1],[0.7],vertical,"(890.0, 762.0)",0.7833333333333333,0.659,1,3785.179,1
0,549,target,"[(1126, 739), (1067, 787)]",[],"[0, 1]",[0.5833333333333334],horizontal,"(390.0, 262.0)",0.85,0.542,1,3789.937,1
0,550,target,"[(1069, 740), (1111, 786)]",[],"[0, 1]",[0.5833333333333334],vertical,"(890.0, 262.0)",1.25,0.551,1,3796.023,1
0,551,target,"[(1110, 765)]",[],[1],[0.11666666666666667],horizontal,"(390.0, 762.0)",1.5333333333333332,0.087,0,3802.367,0
0,552,target,"[(1040, 811)]",[],[1],[0.85],horizontal,"(890.0, 262.0)",0.8333333333333334,nan,0,3807.252,0
0,553,target,"[(1067, 808)]",[],[1],[0.55],horizontal,"(890.0, 262.0)",1.1333333333333333,0.513,1,5021.526,1
0,554,target,"[(1091, 791)]",[],[1],[0.85],vertical,"(890.0, 762.0)",1.3166666666666667,nan,0,5027.243,0
0,555,target,"[(1063, 809)]",[],[1],[0.85],horizontal,"(890.0, 762.0)",0.6833333333333333,nan,0,5032.709,0
0,556,catch,"[(1062, 807)]",[],[1],[],horizontal,"(890.0, 262.0)",1.3833333333333333,nan,1,5037.693,1
0,557,target,"[(1079, 791)]",[],[1],[0.55],vertical,"(890.0, 262.0)",1.5666666666666667,0.514,1,5045.35,1
0,558,target,"[(1055, 795)]",[],[1],[0.7],horizontal,"(890.0, 262.0)",1.2833333333333332,0.657,1,5050.659,1
0,559,catch,"[(1072, 799)]",[],[1],[],vertical,"(390.0, 262.0)",1.6666666666666667,nan,1,5056.309,2
0,560,target,"[(1073, 795)]",[],[1],[0.5333333333333333],horizontal,"(890.0, 262.0)",1.65,0.49,1,5061.526,2
0,561,target,"[(1077, 794)]",[],[1],[0.6],vertical,"(890.0, 762.0)",0.6833333333333333,0.553,1,5067.659,2
0,562,target,"[(1096, 777)]",[],[1],[0.7666666666666666],vertical,"(390.0, 762.0)",0.75,0.724,1,5072.743,2
0,563,target,"[(1085, 792)]",[],[1],[0.5166666666666666],horizontal,"(390.0, 262.0)",1.0166666666666666,0.477,1,5078.025,2
0,564,target,"[(1080, 778)]",[],[1],[0.35],horizontal,"(390.0, 262.0)",1.0666666666666667,0.316,1,5083.229,3
0,565,target,"[(1093, 766)]",[],[1],[0.5666666666666667],vertical,"(890.0, 762.0)",1.0666666666666667,0.523,1,5089.602,3
0,566,target,"[(1089, 782)]",[],[1],[0.5],horizontal,"(890.0, 262.0)",0.8833333333333333,0.46,1,5095.042,3
0,567,target,"[(1109, 770)]",[],[1],[0.06666666666666667],vertical,"(890.0, 762.0)",1.6666666666666667,0.036,0,5100.893,0
0,568,target,"[(1095, 799)]",[],[1],[0.5833333333333334],horizontal,"(390.0, 262.0)",0.7333333333333333,0.544,1,5105.359,1
0,569,target,"[(1109, 766)]",[],[1],[0.5666666666666667],vertical,"(390.0, 762.0)",0.8833333333333333,0.524,1,5109.76,1
0,570,target,"[(1107, 781)]",[],[1],[0.4],vertical,"(890.0, 762.0)",1.3,0.359,1,5114.376,1
0,571,catch,"[(1081, 777)]",[],[1],[],vertical,"(890.0, 762.0)",1.4333333333333333,nan,1,5119.588,2
0,572,target,"[(1118, 764)]",[],[1],[0.6166666666666667],horizontal,"(390.0, 262.0)",1.2,0.57,1,5125.141,2
0,573,target,"[(1099, 804)]",[],[1],[0.6166666666666667],vertical,"(390.0, 262.0)",0.8666666666666667,0.571,1,5130.393,2
0,574,target,"[(1111, 779)]",[],[1],[],horizontal,"(890.0, 762.0)",,"('cti', 1.394)",0,5135.711,0
0,575,target,"[(1128, 781)]",[],[1],[0.5666666666666667],horizontal,"(390.0, 262.0)",1.5,0.523,1,5140.492,1
0,576,target,"[(1081, 789)]",[],[1],[],horizontal,"(890.0, 262.0)",,"('cti', 1.54)",0,5145.909,0
0,577,target,"[(1085, 780)]",[],[1],[0.55],horizontal,"(390.0, 762.0)",1.1833333333333333,0.508,1,5150.422,1
0,578,catch,"[(1109, 771)]",[],[1],[],horizontal,"(890.0, 262.0)",1.6666666666666667,nan,1,5155.775,1
0,579,target,"[(1084, 754)]",[],[1],[0.65],horizontal,"(390.0, 762.0)",0.75,0.603,1,5160.852,1
0,580,target,"[(1105, 781)]",[],[1],[0.5666666666666667],vertical,"(890.0, 762.0)",1.0666666666666667,0.529,1,5165.551,2
0,581,target,"[(1108, 785)]",[],[1],[0.13333333333333333],vertical,"(390.0, 262.0)",1.1833333333333333,0.102,0,5170.722,0
0,582,catch,"[(1107, 778)]",[],[1],[],horizontal,"(390.0, 762.0)",1.6,nan,1,5174.838,1
0,583,target,"[(1081, 778)]",[],[1],[0.6166666666666667],vertical,"(890.0, 762.0)",0.6,0.577,1,5179.472,1
0,584,target,"[(1129, 766)]",[],[1],[0.4],vertical,"(890.0, 762.0)",1.2666666666666666,0.358,1,5183.844,1
0,585,target,"[(1123, 810)]",[],[1],[0.1],vertical,"(890.0, 762.0)",1.5166666666666666,0.068,0,5189.198,0
0,586,target,"[(1110, 791)]",[],[1],[0.2],horizontal,"(890.0, 762.0)",1.5833333333333333,0.164,0,5193.959,0
0,587,catch,"[(1113, 782)]",[],[1],[],horizontal,"(390.0, 762.0)",1.6333333333333333,nan,1,5198.425,1
0,588,catch,"[(1118, 782)]",[],[1],[],vertical,"(390.0, 262.0)",1.45,nan,1,5203.526,1
0,589,target,"[(1100, 783)]",[],[1],[0.5],vertical,"(390.0, 762.0)",1.3666666666666667,0.458,1,5208.034,1
0,590,catch,"[(1118, 787)]",[],[1],[],horizontal,"(890.0, 262.0)",1.55,nan,1,5213.043,2
0,591,target,"[(1124, 795)]",[],[1],[0.5833333333333334],horizontal,"(890.0, 262.0)",1.2,0.535,1,5218.43,2
0,592,target,"[(1107, 770)]",[],[1],[0.65],vertical,"(890.0, 762.0)",0.65,0.607,1,5224.208,2
0,593,target,"[(1106, 786)]",[],[1],[0.6166666666666667],horizontal,"(890.0, 762.0)",0.7166666666666667,0.571,1,5229.285,2
0,594,target,"[(1109, 776)]",[],[1],[0.5333333333333333],vertical,"(890.0, 262.0)",1.0666666666666667,0.493,1,5234.294,2
0,595,target,"[(1092, 785)]",[],[1],[0.6166666666666667],horizontal,"(390.0, 762.0)",1.5666666666666667,0.57,1,5239.754,3
0,596,target,"[(1110, 776)]",[],[1],[],vertical,"(390.0, 262.0)",,"('cti', 1.488)",0,5245.81,0
0,597,target,"[(1106, 780)]",[],[1],[0.6666666666666666],vertical,"(890.0, 262.0)",0.9,0.616,1,5250.56,1
0,598,target,"[(1108, 766)]",[],[1],[0.6833333333333333],horizontal,"(890.0, 262.0)",0.5,0.634,1,5255.746,1
0,599,catch,"[(1105, 781)]",[],[1],[],vertical,"(890.0, 762.0)",1.5333333333333332,nan,1,5260.259,1
0,600,target,"[(1076, 776)]",[],[1],[0.65],vertical,"(890.0, 762.0)",1.0333333333333332,0.609,1,5265.573,2
0,601,catch,"[(1108, 786)]",[],[1],[],vertical,"(390.0, 762.0)",,"('cti', 1.226),nan",0,5271.23,0
0,602,target,"[(1110, 776)]",[],[1],[0.7166666666666667],vertical,"(890.0, 762.0)",0.75,0.67,1,5275.659,1
0,603,target,"[(1096, 776)]",[],[1],[0.35],horizontal,"(390.0, 762.0)",0.7833333333333333,0.313,1,5280.662,1
0,604,target,"[(1100, 777)]",[],[1],[0.6],vertical,"(390.0, 262.0)",0.75,0.573,1,5285.709,1
0,605,target,"[(1100, 766)]",[],[1],[0.43333333333333335],horizontal,"(390.0, 762.0)",1.1833333333333333,0.401,1,5290.716,2
0,606,target,"[(1105, 765)]",[],[1],[0.6166666666666667],horizontal,"(890.0, 262.0)",0.5666666666666667,0.58,1,5295.994,2
0,607,target,"[(1100, 776)]",[],[1],[0.36666666666666664],vertical,"(890.0, 762.0)",1.45,0.327,1,5300.836,2
0,608,target,"[(1086, 793)]",[],[1],[0.6666666666666666],vertical,"(890.0, 762.0)",0.7,0.622,1,5306.696,2
0,609,target,"[(1105, 778)]",[],[1],[0.5166666666666666],horizontal,"(390.0, 262.0)",0.5833333333333334,0.478,1,5312.446,2
0,610,target,"[(1125, 786)]",[],[1],[0.6166666666666667],vertical,"(390.0, 262.0)",0.5333333333333333,0.569,1,5317.643,3
0,611,target,"[(1112, 781)]",[],[1],[0.55],vertical,"(890.0, 262.0)",0.6333333333333333,0.505,1,5323.361,3
0,612,target,"[(1105, 770)]",[],[1],[0.6],vertical,"(390.0, 262.0)",0.7166666666666667,0.559,1,5329.172,3
0,613,target,"[(1106, 782)]",[],[1],[0.6166666666666667],horizontal,"(390.0, 762.0)",0.9166666666666666,0.571,1,5334.693,3
0,614,target,"[(1084, 790)]",[],[1],[0.45],horizontal,"(890.0, 262.0)",1.55,0.408,1,5340.403,3
0,615,target,"[(1077, 782)]",[],[1],[0.23333333333333334],vertical,"(890.0, 262.0)",1.35,0.199,0,5346.664,0
0,616,target,"[(1086, 803)]",[],[1],[0.5833333333333334],vertical,"(890.0, 262.0)",0.7333333333333333,0.541,1,5351.395,1
0,617,catch,"[(1107, 744), (1081, 778)]",[],"[0, 1]",[],horizontal,"(390.0, 262.0)",1.6,nan,1,5355.85,1
0,618,target,"[(1080, 763)]",[],[1],[0.5333333333333333],vertical,"(390.0, 262.0)",0.85,0.493,1,5362.249,1
0,619,target,"[(1093, 781)]",[],[1],[0.3833333333333333],vertical,"(890.0, 262.0)",1.4,0.342,1,5367.334,2
0,620,target,"[(1105, 759)]",[],[1],[0.5666666666666667],vertical,"(390.0, 762.0)",1.1833333333333333,0.524,1,5372.616,2
0,621,target,"[(1107, 764)]",[],[1],[0.65],horizontal,"(390.0, 262.0)",1.3166666666666667,0.606,1,5377.843,2
0,622,target,"[(1115, 784)]",[],[1],[0.11666666666666667],vertical,"(390.0, 762.0)",1.6166666666666667,0.084,0,5383.439,0
0,623,target,"[(1105, 789)]",[],[1],[0.85],horizontal,"(390.0, 762.0)",0.85,nan,0,5388.261,0
0,624,target,"[(1084, 785)]",[],[1],[0.85],vertical,"(390.0, 262.0)",0.8333333333333334,nan,0,5393.227,0
0,625,target,"[(1076, 786)]",[],[1],[0.7333333333333333],vertical,"(890.0, 262.0)",0.8166666666666667,0.692,1,5397.777,1
0,626,target,"[(1105, 784)]",[],[1],[0.85],vertical,"(890.0, 262.0)",0.5,nan,0,5405.043,0
0,627,target,"[(1068, 776)]",[],[1],[0.7166666666666667],vertical,"(890.0, 262.0)",0.7166666666666667,0.673,1,5409.911,1
0,628,target,"[(1105, 790)]",[],[1],[0.5333333333333333],vertical,"(890.0, 262.0)",0.85,0.491,1,5415.036,1
0,629,target,"[(1082, 783)]",[],[1],[0.3833333333333333],horizontal,"(890.0, 762.0)",1.35,0.347,1,5420.194,1
0,630,target,"[(1078, 776)]",[],[1],[0.2],vertical,"(890.0, 762.0)",1.5166666666666666,0.165,0,5425.144,0
0,631,target,"[(1073, 778)]",[],[1],[0.6666666666666666],horizontal,"(390.0, 262.0)",1.0333333333333332,0.623,1,5430.212,1
0,632,target,"[(1108, 786)]",[],[1],[0.16666666666666666],horizontal,"(390.0, 262.0)",1.6,0.136,0,5438.878,0
0,633,target,"[(1097, 850)]",[],[1],[0.85],horizontal,"(890.0, 262.0)",0.5833333333333334,nan,0,5444.077,0
0,634,target,"[(1008, 816)]",[],[1],[],vertical,"(890.0, 762.0)",,"('cti', 0.689)",0,5726.562,0
0,635,target,"[(1088, 790)]",[],[1],[0.85],horizontal,"(390.0, 762.0)",1.3333333333333333,nan,0,5732.233,0
0,636,target,"[(1092, 808)]",[],[1],[0.5666666666666667],horizontal,"(890.0, 762.0)",1.35,0.529,1,5737.512,1
0,637,target,"[(1080, 801)]",[],[1],[0.85],vertical,"(390.0, 762.0)",1.2833333333333332,nan,0,5744.83,0
0,638,target,"[(1085, 795)]",[],[1],[0.85],vertical,"(390.0, 762.0)",1.3833333333333333,nan,0,5750.256,0
0,639,target,"[(1077, 829)]",[],[1],[0.85],vertical,"(390.0, 262.0)",0.8333333333333334,nan,0,5756.063,0
0,640,target,"[(1066, 844)]",[],[1],[0.85],horizontal,"(390.0, 262.0)",0.6,nan,0,5766.057,0
0,641,target,"[(1095, 512), (1033, 806)]",[],"[0, 1]",[0.85],vertical,"(890.0, 762.0)",1.3666666666666667,nan,0,5771.399,0
0,642,target,"[(1023, 843)]",[],[1],[0.85],horizontal,"(390.0, 262.0)",1.3833333333333333,nan,0,5785.779,0
0,643,target,"[(1081, 812)]",[],[1],[0.85],horizontal,"(890.0, 262.0)",1.3666666666666667,nan,0,5800.966,0
0,644,target,"[(1076, 825)]",[],[1],[0.85],horizontal,"(890.0, 262.0)",1.55,nan,0,5806.542,0
0,645,target,"[(1132, 753), (1133, 833)]",[],"[0, 1]",[0.85],vertical,"(890.0, 262.0)",0.6666666666666666,nan,0,5812.015,0
0,646,target,"[(1070, 794)]",[],[1],[0.85],horizontal,"(390.0, 762.0)",1.0333333333333332,nan,0,5817.841,0
0,647,catch,"[(1062, 804)]",[],[1],[],vertical,"(390.0, 262.0)",1.5166666666666666,nan,1,5822.713,1
0,648,catch,"[(1076, 807)]",[],[1],[],horizontal,"(390.0, 762.0)",1.6833333333333333,nan,1,5841.659,1
0,649,target,"[(1078, 823)]",[],[1],[0.4],vertical,"(390.0, 762.0)",1.4833333333333334,0.364,1,5846.558,1
0,650,target,"[(1091, 803)]",[],[1],[0.36666666666666664],horizontal,"(390.0, 262.0)",1.4666666666666666,0.336,1,5851.515,2
0,651,target,"[(1080, 806)]",[],[1],[0.5666666666666667],vertical,"(890.0, 762.0)",0.7166666666666667,0.526,1,5857.802,2
0,652,target,"[(1109, 800)]",[],[1],[0.65],vertical,"(890.0, 762.0)",0.7,0.615,1,5862.699,2
0,653,target,"[(1130, 798)]",[],[1],[0.85],vertical,"(390.0, 762.0)",0.6166666666666667,nan,0,5867.888,0
0,654,target,"[(1065, 780)]",[],[1],[0.6],vertical,"(390.0, 262.0)",0.7166666666666667,0.567,1,5872.747,1
0,655,target,"[(1058, 790)]",[],[1],[0.5166666666666666],vertical,"(890.0, 262.0)",1.5833333333333333,0.485,1,5877.353,1
0,656,target,"[(1073, 803)]",[],[1],[0.85],horizontal,"(890.0, 762.0)",1.1,nan,0,5883.213,0
0,657,target,"[(1082, 796)]",[],[1],[0.6],vertical,"(390.0, 262.0)",0.8833333333333333,0.555,1,5889.196,1
0,658,catch,"[(1112, 791)]",[],[1],[],vertical,"(390.0, 762.0)",1.6166666666666667,nan,1,5894.581,1
0,659,target,"[(1043, 821)]",[],[1],[0.4666666666666667],vertical,"(890.0, 262.0)",1.3833333333333333,0.422,1,5899.548,1
0,660,target,"[(1082, 790)]",[],[1],[0.85],horizontal,"(890.0, 262.0)",1.4,nan,0,6060.982,0
0,661,target,"[(1080, 793)]",[],[1],[0.45],horizontal,"(890.0, 262.0)",1.1666666666666667,0.421,1,6065.981,1
0,662,target,"[(1108, 794)]",[],[1],[0.85],horizontal,"(890.0, 262.0)",1.1,nan,0,6070.982,0
0,663,target,"[(1077, 808)]",[],[1],[0.65],horizontal,"(390.0, 762.0)",1.0333333333333332,0.61,1,6075.765,1
0,664,target,"[(1114, 785)]",[],[1],[0.16666666666666666],horizontal,"(390.0, 262.0)",1.5666666666666667,0.134,0,6081.569,0
0,665,target,"[(1104, 773)]",[],[1],[0.6666666666666666],horizontal,"(890.0, 762.0)",0.9666666666666667,0.62,1,6086.515,1
0,666,target,"[(1058, 803)]",[],[1],[0.48333333333333334],vertical,"(390.0, 762.0)",1.4666666666666666,0.445,1,6091.641,1
0,667,target,"[(1035, 772)]",[],[1],[0.6666666666666666],vertical,"(890.0, 762.0)",0.8833333333333333,0.62,1,6097.506,1
0,668,target,"[(1100, 790)]",[],[1],[0.05],vertical,"(890.0, 762.0)",1.6666666666666667,0.019,0,6107.485,0
0,669,target,"[(1082, 784)]",[],[1],[0.85],horizontal,"(890.0, 762.0)",0.8666666666666667,nan,0,6112.448,0
0,670,target,"[(1060, 783)]",[],[1],[0.85],vertical,"(390.0, 762.0)",0.5666666666666667,nan,0,6117.981,0
0,671,catch,"[(1081, 785)]",[],[1],[],vertical,"(390.0, 262.0)",1.6,nan,1,6133.99,1
0,672,target,"[(1100, 781)]",[],[1],[0.5333333333333333],horizontal,"(390.0, 262.0)",0.7333333333333333,0.489,1,6138.589,1
