block,trial,trial_type,taps_start_loc_during_fix,taps_end_loc_during_fix,taps_on_lever_during_fix,taps_on_lever_s_during_fix,bar_orientation,target_xy,cti,rt,acc,time,pulses,fa_rate_recent100,p_catch
0,1,target,"[(1080, 815)]",[],[1],[0.4],vertical,"(390.0, 262.0)",1.1833333333333333,0.366,1,0.528,1,0.0,0.25
0,2,catch,"[(1107, 885)]",[],[1],[],vertical,"(390.0, 262.0)",1.7,nan,1,7.534,1,0.0,0.25
0,3,catch,"[(1133, 846)]",[],[1],[],vertical,"(390.0, 762.0)",1.7,nan,1,52.53,1,0.0,0.25
0,4,target,"[(1131, 813)]",[],[1],[0.3833333333333333],vertical,"(890.0, 762.0)",1.4666666666666666,0.351,1,57.748,2,0.0,0.25
0,5,catch,"[(1185, 816)]",[],[1],[],horizontal,"(390.0, 762.0)",1.7,nan,1,63.847,2,0.0,0.25
0,6,target,"[(1170, 819)]",[],[1],[0.5166666666666666],vertical,"(390.0, 262.0)",1.15,0.49,1,69.292,2,0.0,0.25
0,7,target,"[(1157, 809)]",[],[1],[0.3333333333333333],horizontal,"(890.0, 762.0)",1.4333333333333333,0.303,1,75.143,2,0.0,0.25
0,8,target,"[(1166, 816)]",[],[1],[0.5],vertical,"(890.0, 262.0)",0.65,0.467,1,81.026,3,0.0,0.25
0,9,target,"[(1160, 806)]",[],[1],[0.4],vertical,"(390.0, 262.0)",1.4333333333333333,0.374,1,86.899,3,0.0,0.25
0,10,target,"[(1146, 809)]",[],[1],[0.5166666666666666],vertical,"(390.0, 762.0)",0.8666666666666667,0.493,1,93.144,3,0.0,0.25
0,11,target,"[(1146, 802)]",[],[1],[0.5666666666666667],vertical,"(890.0, 262.0)",1.1666666666666667,0.537,1,98.977,3,0.0,0.25
0,12,target,"[(1154, 801)]",[],[1],[0.6333333333333333],vertical,"(390.0, 262.0)",0.8833333333333333,0.593,1,105.102,3,0.0,0.25
0,13,target,"[(1140, 804)]",[],[1],[0.5333333333333333],horizontal,"(390.0, 262.0)",1.3333333333333333,0.5,1,111.038,3,0.0,0.25
0,14,target,"[(1160, 804)]",[],[1],[0.6166666666666667],horizontal,"(890.0, 762.0)",1.1833333333333333,0.572,1,116.844,3,0.0,0.25
0,15,catch,"[(1176, 800)]",[],[1],[],horizontal,"(890.0, 262.0)",1.7,nan,1,122.795,3,0.0,0.25
0,16,catch,"[(1167, 803)]",[],[1],[],horizontal,"(390.0, 262.0)",1.7,nan,1,128.884,3,0.0,0.25
0,17,target,"[(1181, 807)]",[],[1],[0.85],vertical,"(390.0, 762.0)",0.65,nan,0,134.845,0,0.0,0.25
0,18,catch,"[(1129, 824)]",[],[1],[],vertical,"(890.0, 262.0)",1.7,nan,1,139.197,1,0.0,0.25
0,19,target,"[(1158, 808)]",[],[1],[0.85],horizontal,"(390.0, 262.0)",0.6333333333333333,nan,0,144.728,0,0.0,0.25
0,20,target,"[(1156, 815)]",[],[1],[0.5833333333333334],horizontal,"(390.0, 262.0)",0.75,0.55,1,149.09,1,0.0,0.25
0,21,target,"[(1159, 809)]",[],[1],[0.7333333333333333],horizontal,"(890.0, 762.0)",0.5833333333333334,0.689,1,154.245,1,0.0,0.25
0,22,target,"[(1159, 803)]",[],[1],[0.6833333333333333],vertical,"(890.0, 762.0)",1.0666666666666667,0.641,1,159.094,1,0.0,0.25
0,23,catch,"[(1136, 802)]",[],[1],[],vertical,"(890.0, 262.0)",1.7,nan,1,164.238,2,0.0,0.25
0,24,target,"[(1187, 809)]",[],[1],[0.5666666666666667],vertical,"(390.0, 762.0)",1.1666666666666667,0.523,1,169.671,2,0.0,0.25
0,25,target,"[(1161, 784)]",[],[1],[0.5333333333333333],vertical,"(890.0, 762.0)",0.65,0.501,1,175.978,2,0.0,0.25
0,26,target,"[(1186, 809)]",[],[1],[0.55],vertical,"(390.0, 262.0)",0.9666666666666667,0.512,1,181.358,2,0.0,0.25
0,27,target,"[(1176, 786)]",[],[1],[0.5333333333333333],vertical,"(390.0, 262.0)",0.6,0.489,1,186.728,3,0.0,0.25
0,28,target,"[(1160, 811)]",[],[1],[0.5],horizontal,"(390.0, 762.0)",1.3333333333333333,0.455,1,192.144,3,0.0,0.25
0,29,target,"[(1159, 789)]",[],[1],[0.7166666666666667],vertical,"(890.0, 762.0)",1.0666666666666667,0.676,1,198.048,3,0.0,0.25
0,30,target,"[(1158, 765)]",[],[1],[0.5833333333333334],horizontal,"(890.0, 762.0)",0.8666666666666667,0.551,1,204.003,3,0.0,0.25
0,31,target,"[(1175, 795)]",[],[1],[0.55],vertical,"(390.0, 262.0)",0.7666666666666666,0.509,1,209.45,3,0.0,0.25
0,32,catch,"[(1185, 810)]",[],[1],[],horizontal,"(390.0, 762.0)",1.7,nan,1,214.905,3,0.0,0.25
0,33,target,"[(1179, 787)]",[],[1],"[0.85, 0.85]",vertical,"(890.0, 762.0)",0.8666666666666667,"0.798,nan",0,220.812,0,0.0,0.25
0,34,catch,"[(1156, 812)]",[],[1],[],vertical,"(890.0, 762.0)",1.7,nan,1,225.645,1,0.0,0.25
0,35,target,"[(1155, 802)]",[],[1],[0.7333333333333333],horizontal,"(890.0, 262.0)",0.9166666666666666,0.696,1,231.194,1,0.0,0.25
0,36,catch,"[(1164, 803)]",[],[1],[],vertical,"(890.0, 762.0)",1.7,nan,1,236.482,1,0.0,0.25
0,37,target,"[(1161, 781)]",[],[1],[0.36666666666666664],horizontal,"(390.0, 762.0)",1.4833333333333334,0.326,1,241.684,2,0.0,0.25
0,38,target,"[(1155, 793)]",[],[1],[0.5666666666666667],vertical,"(390.0, 262.0)",0.5833333333333334,0.53,1,247.348,2,0.0,0.25
0,39,target,"[(1156, 808)]",[],[1],[0.5166666666666666],horizontal,"(390.0, 262.0)",1.1,0.489,1,252.758,2,0.0,0.25
0,40,target,"[(1177, 803)]",[],[1],[0.85],vertical,"(390.0, 262.0)",0.7333333333333333,nan,0,258.364,0,0.0,0.25
0,41,target,"[(1131, 797)]",[],[1],[0.5],horizontal,"(390.0, 262.0)",0.8,0.461,1,262.922,1,0.0,0.25
0,42,target,"[(1175, 797)]",[],[1],[0.6],vertical,"(390.0, 262.0)",0.5,0.574,1,267.809,1,0.0,0.25
0,43,target,"[(1155, 814)]",[],[1],[0.6166666666666667],horizontal,"(890.0, 762.0)",1.1166666666666667,0.572,1,272.572,1,0.0,0.25
0,44,target,"[(1155, 803)]",[],[1],[0.85],horizontal,"(390.0, 262.0)",0.45,nan,0,277.639,0,0.0,0.25
0,45,target,"[(1145, 802)]",[],[1],[0.4166666666666667],vertical,"(890.0, 262.0)",1.3333333333333333,0.385,1,282.309,1,0.0,0.25
0,46,target,"[(1178, 804)]",[],[1],[0.5166666666666666],vertical,"(390.0, 262.0)",1.2666666666666666,0.488,1,288.027,1,0.0,0.25
0,47,target,"[(1179, 797)]",[],[1],[0.6166666666666667],horizontal,"(890.0, 762.0)",0.48333333333333334,0.588,1,293.176,1,0.0,0.25
0,48,target,"[(1158, 798)]",[],[1],[0.43333333333333335],horizontal,"(390.0, 762.0)",1.3166666666666667,0.405,1,298.097,2,0.0,0.25
0,49,target,"[(1157, 797)]",[],[1],[0.36666666666666664],vertical,"(390.0, 762.0)",1.5,0.335,1,303.85,2,0.0,0.25
0,50,target,"[(1191, 811)]",[],[1],[0.85],vertical,"(390.0, 762.0)",0.4666666666666667,nan,0,309.569,0,0.0,0.25
0,51,target,"[(1137, 795)]",[],[1],[0.5333333333333333],horizontal,"(390.0, 262.0)",0.8333333333333334,0.496,1,314.244,1,0.0,0.25
0,52,target,"[(1191, 808)]",[],[1],[0.5],horizontal,"(890.0, 762.0)",0.55,0.459,1,319.197,1,0.0,0.25
0,53,catch,"[(1158, 793)]",[],[1],[0.03333333333333333],vertical,"(890.0, 762.0)",1.7,"0.019,nan",0,323.781,0,0.02,0.25
0,54,target,"[(1175, 812)]",[],[1],[0.5],horizontal,"(390.0, 262.0)",0.5833333333333334,0.456,1,328.662,1,0.02,0.25
0,55,catch,"[(1155, 802)]",[],[1],[],vertical,"(890.0, 262.0)",1.7,nan,1,333.354,1,0.02,0.25
0,56,target,"[(1156, 802)]",[],[1],[0.48333333333333334],horizontal,"(390.0, 262.0)",0.5666666666666667,0.44,1,338.4,1,0.02,0.25
0,57,target,"[(1191, 800)]",[],[1],[0.7166666666666667],horizontal,"(890.0, 262.0)",1.0333333333333332,0.671,1,343.24,2,0.02,0.25
0,58,target,"[(1155, 803)]",[],[1],[0.4666666666666667],horizontal,"(390.0, 262.0)",0.9,0.429,1,348.627,2,0.02,0.25
0,59,target,"[(1188, 815)]",[],[1],[0.5333333333333333],vertical,"(390.0, 262.0)",1.2666666666666666,0.493,1,353.825,2,0.02,0.25
0,60,target,"[(1161, 778)]",[],[1],[0.6],vertical,"(890.0, 262.0)",1.1,0.555,1,359.247,2,0.02,0.25
0,61,target,"[(1160, 807)]",[],[1],[0.55],horizontal,"(390.0, 762.0)",1.3666666666666667,0.506,1,365.213,3,0.02,0.25
0,62,target,"[(1160, 805)]",[],[1],[0.5333333333333333],vertical,"(390.0, 262.0)",1.0666666666666667,0.491,1,371.153,3,0.02,0.25
0,63,target,"[(1160, 806)]",[],[1],[0.5166666666666666],horizontal,"(890.0, 762.0)",1.3166666666666667,0.475,1,376.712,3,0.02,0.25
0,64,target,"[(1140, 780)]",[],[1],[0.6],horizontal,"(390.0, 762.0)",1.0833333333333333,0.557,1,382.956,3,0.02,0.25
0,65,target,"[(1160, 805)]",[],[1],[0.4166666666666667],vertical,"(390.0, 762.0)",1.5,0.38,1,388.479,3,0.02,0.25
0,66,catch,"[(1166, 793)]",[],[1],[],horizontal,"(890.0, 262.0)",1.7,nan,1,394.544,3,0.02,0.25
0,67,catch,"[(1164, 802)]",[],[1],[],horizontal,"(390.0, 262.0)",1.7,nan,1,400.579,3,0.02,0.25
0,68,target,"[(1160, 795)]",[],[1],[0.5],horizontal,"(890.0, 762.0)",0.7333333333333333,0.461,1,406.946,3,0.02,0.25
0,69,catch,"[(1161, 794)]",[],[1],[0.03333333333333333],horizontal,"(390.0, 762.0)",1.7,"0.019,nan",0,412.466,0,0.04,0.25
0,70,target,"[(1165, 809)]",[],[1],[0.5333333333333333],horizontal,"(890.0, 262.0)",0.9166666666666666,0.488,1,417.31,1,0.04,0.25
0,71,target,"[(1171, 791)]",[],[1],[0.85],vertical,"(890.0, 762.0)",0.8666666666666667,nan,0,422.295,0,0.04,0.25
0,72,catch,"[(1142, 797)]",[],[1],[],horizontal,"(890.0, 762.0)",1.7,nan,1,427.134,1,0.04,0.25
0,73,target,"[(1165, 802)]",[],[1],[0.5666666666666667],vertical,"(890.0, 262.0)",0.5666666666666667,0.525,1,432.129,1,0.04,0.25
0,74,catch,"[(1136, 795)]",[],[1],[],horizontal,"(390.0, 762.0)",1.7,nan,1,437.01,1,0.04,0.25
0,75,target,"[(1155, 796)]",[],[1],[0.5666666666666667],horizontal,"(890.0, 262.0)",0.5333333333333333,0.529,1,441.977,2,0.04,0.25
0,76,target,"[(1142, 797)]",[],[1],[0.5166666666666666],vertical,"(890.0, 262.0)",0.9166666666666666,0.476,1,447.224,2,0.04,0.25
0,77,target,"[(1159, 797)]",[],[1],[0.3333333333333333],vertical,"(890.0, 262.0)",1.4666666666666666,0.294,1,452.238,2,0.04,0.25
0,78,target,"[(1160, 796)]",[],[1],[0.6333333333333333],horizontal,"(890.0, 262.0)",0.3833333333333333,0.591,1,458.395,2,0.04,0.25
0,79,target,"[(1153, 799)]",[],[1],[0.5666666666666667],vertical,"(890.0, 262.0)",0.65,0.529,1,463.895,3,0.04,0.25
0,80,target,"[(1172, 804)]",[],[1],[0.5833333333333334],vertical,"(890.0, 762.0)",0.35,0.542,1,469.533,3,0.04,0.25
0,81,target,"[(1157, 802)]",[],[1],[0.3333333333333333],vertical,"(890.0, 262.0)",1.4333333333333333,0.296,1,474.936,3,0.04,0.25
0,82,target,"[(1159, 799)]",[],[1],[0.5333333333333333],vertical,"(390.0, 262.0)",1.1333333333333333,0.494,1,480.994,3,0.04,0.25
0,83,target,"[(1157, 789)]",[],[1],[0.18333333333333332],horizontal,"(890.0, 262.0)",1.4666666666666666,0.151,0,486.834,0,0.04,0.25
0,84,target,"[(1155, 812)]",[],[1],[0.5333333333333333],vertical,"(390.0, 762.0)",0.6166666666666667,0.493,1,491.644,1,0.04,0.25
0,85,target,"[(1155, 804)]",[],[1],[0.6166666666666667],horizontal,"(890.0, 262.0)",0.4166666666666667,0.575,1,496.63,1,0.04,0.25
0,86,catch,"[(1160, 798)]",[],[1],[],horizontal,"(390.0, 762.0)",1.7,nan,1,501.379,1,0.04,0.25
0,87,target,"[(1130, 817)]",[],[1],[0.7166666666666667],vertical,"(390.0, 262.0)",0.9833333333333333,0.678,1,506.148,2,0.04,0.25
0,88,target,"[(1156, 799)]",[],[1],[0.85],horizontal,"(390.0, 762.0)",0.4166666666666667,nan,0,511.861,0,0.04,0.25
0,89,target,"[(1155, 797)]",[],[1],[0.5],vertical,"(890.0, 262.0)",1.5,0.463,1,516.076,1,0.04,0.25
0,90,catch,"[(1159, 801)]",[],[1],[],vertical,"(890.0, 262.0)",1.7,nan,1,521.78,1,0.04,0.25
0,91,target,"[(1165, 808)]",[],[1],[0.5333333333333333],horizontal,"(390.0, 262.0)",0.36666666666666664,0.497,1,526.638,1,0.04,0.25
0,92,catch,"[(1157, 815)]",[],[1],[],horizontal,"(390.0, 262.0)",,"('cti', 1.268),nan",0,530.712,0,0.06,0.25
0,93,catch,"[(1136, 817)]",[],[1],[],horizontal,"(890.0, 762.0)",1.7,nan,1,535.562,1,0.06,0.25
0,94,catch,"[(1153, 808)]",[],[1],[0.03333333333333333],vertical,"(390.0, 762.0)",1.7,"0.02,nan",0,540.592,0,0.08,0.25
0,95,target,"[(1158, 816)]",[],[1],[0.2],vertical,"(390.0, 262.0)",1.1666666666666667,0.171,0,545.346,0,0.08,0.25
0,96,catch,"[(1144, 806)]",[],[1],[],horizontal,"(390.0, 762.0)",,"('cti', 0.997),nan",0,550.045,0,0.1,0.25
0,97,target,"[(1138, 790)]",[],[1],[0.5],horizontal,"(390.0, 262.0)",0.35,0.46,1,553.742,1,0.1,0.25
0,98,target,"[(1188, 810)]",[],[1],[0.45],horizontal,"(890.0, 762.0)",1.2833333333333332,0.412,1,558.447,1,0.1,0.25
0,99,catch,"[(1152, 797)]",[],[1],[],horizontal,"(890.0, 762.0)",1.7,nan,1,563.647,1,0.1,0.25
0,100,target,"[(1136, 802)]",[],[1],[0.21666666666666667],horizontal,"(390.0, 762.0)",1.5166666666666666,0.181,0,568.727,0,0.1,0.25
0,101,target,"[(1132, 811)]",[],[1],[0.5666666666666667],vertical,"(890.0, 262.0)",0.5166666666666666,0.523,1,573.679,1,0.1,0.25
0,102,catch,"[(1165, 807)]",[],[1],[],vertical,"(890.0, 262.0)",1.7,nan,1,578.38,1,0.1,0.25
0,103,target,"[(1162, 796)]",[],[1],[0.4],horizontal,"(390.0, 262.0)",1.4166666666666667,0.365,1,583.579,1,0.08,0.25
0,104,target,"[(1176, 810)]",[],[1],[0.48333333333333334],horizontal,"(390.0, 762.0)",1.4666666666666666,0.445,1,588.987,2,0.08,0.25
0,105,target,"[(1161, 790)]",[],[1],[0.5833333333333334],horizontal,"(890.0, 762.0)",0.8,0.542,1,595.012,2,0.08,0.25
0,106,catch,"[(1159, 807)]",[],[1],[],horizontal,"(390.0, 262.0)",1.7,nan,1,600.262,2,0.08,0.25
0,107,target,"[(1153, 807)]",[],[1],[0.5166666666666666],vertical,"(890.0, 262.0)",1.2166666666666666,0.476,1,605.813,2,0.08,0.25
0,108,target,"[(1167, 816)]",[],[1],[0.4],vertical,"(390.0, 262.0)",1.5166666666666666,0.363,1,611.954,3,0.08,0.25
0,109,target,"[(1155, 802)]",[],[1],[0.55],horizontal,"(390.0, 262.0)",1.45,0.507,1,618.063,3,0.08,0.25
0,110,target,"[(1165, 803)]",[],[1],[0.5666666666666667],vertical,"(390.0, 262.0)",1.3166666666666667,0.521,1,623.897,3,0.08,0.25
0,111,target,"[(1157, 797)]",[],[1],[0.6833333333333333],horizontal,"(390.0, 762.0)",0.9333333333333333,0.638,1,630.08,3,0.08,0.25
0,112,target,"[(1151, 791)]",[],[1],[0.8],vertical,"(390.0, 262.0)",0.9666666666666667,0.756,1,636.044,3,0.08,0.25
0,113,catch,"[(1163, 797)]",[],[1],[],horizontal,"(890.0, 262.0)",1.7,nan,1,642.261,3,0.08,0.25
0,114,target,"[(1156, 802)]",[],[1],[0.5],horizontal,"(890.0, 262.0)",1.2666666666666666,0.457,1,648.249,3,0.08,0.25
0,115,target,"[(1146, 787)]",[],[1],[0.85],vertical,"(390.0, 262.0)",0.35,nan,0,654.367,0,0.08,0.25
0,116,target,"[(1156, 798)]",[],[1],[0.5333333333333333],horizontal,"(390.0, 262.0)",1.1166666666666667,0.497,1,658.197,1,0.08,0.25
0,117,catch,"[(1168, 781)]",[],[1],[],vertical,"(890.0, 262.0)",1.7,nan,1,663.558,1,0.08,0.25
0,118,target,"[(1156, 796)]",[],[1],[0.5333333333333333],vertical,"(890.0, 262.0)",0.7,0.489,1,668.629,1,0.08,0.25
0,119,catch,"[(1169, 804)]",[],[1],[],horizontal,"(890.0, 262.0)",,"('cti', 1.274),nan",0,673.529,0,0.08,0.25
0,120,target,"[(1165, 807)]",[],[1],[0.5166666666666666],vertical,"(890.0, 262.0)",1.4833333333333334,0.482,1,678.379,1,0.08,0.25
0,121,target,"[(1159, 807)]",[],[1],[0.55],horizontal,"(890.0, 262.0)",1.3833333333333333,0.507,1,683.734,1,0.08,0.25
0,122,target,"[(1183, 792)]",[],[1],[0.5833333333333334],horizontal,"(390.0, 762.0)",1.0333333333333332,0.541,1,688.79,1,0.08,0.25
0,123,target,"[(1176, 793)]",[],[1],[0.5666666666666667],horizontal,"(390.0, 262.0)",0.5833333333333334,0.527,1,694.295,2,0.08,0.25
0,124,target,"[(1156, 782)]",[],[1],[0.85],horizontal,"(890.0, 762.0)",0.9166666666666666,nan,0,699.446,0,0.08,0.25
0,125,target,"[(1141, 788)]",[],[1],[0.23333333333333334],vertical,"(390.0, 762.0)",1.55,0.197,0,704.328,0,0.08,0.25
0,126,catch,"[(1141, 803)]",[],[1],[],horizontal,"(890.0, 762.0)",,"('cti', 1.454),nan",0,709.28,0,0.1,0.25
0,127,target,"[(1155, 787)]",[],[1],[0.5833333333333334],horizontal,"(390.0, 762.0)",1.0666666666666667,0.538,1,713.932,1,0.1,0.25
0,128,target,"[(1155, 804)]",[],[1],[0.6333333333333333],vertical,"(390.0, 762.0)",0.7333333333333333,0.588,1,719.433,1,0.1,0.25
0,129,target,"[(1151, 786)]",[],[1],[0.6],horizontal,"(390.0, 762.0)",1.1333333333333333,0.558,1,724.323,1,0.1,0.25
0,130,target,"[(1166, 775)]",[],[1],[0.5666666666666667],horizontal,"(390.0, 762.0)",0.5333333333333333,0.526,1,729.728,2,0.1,0.25
0,131,catch,"[(1151, 794)]",[],[1],[],vertical,"(890.0, 762.0)",1.7,nan,1,734.59,2,0.1,0.25
0,132,target,"[(1175, 805)]",[],[1],[0.5166666666666666],horizontal,"(890.0, 262.0)",0.5333333333333333,0.478,1,740.463,2,0.1,0.25
0,133,target,"[(1161, 795)]",[],[1],[0.5],horizontal,"(890.0, 762.0)",1.1166666666666667,0.462,1,745.687,2,0.1,0.25
0,134,target,"[(1158, 819)]",[],[1],[0.85],vertical,"(890.0, 762.0)",0.5,nan,0,751.43,0,0.1,0.25
0,135,catch,"[(1141, 798)]",[],[1],[],horizontal,"(890.0, 262.0)",1.7,nan,1,756.076,1,0.1,0.25
0,136,target,"[(1165, 802)]",[],[1],[0.45],vertical,"(390.0, 762.0)",1.3833333333333333,0.413,1,761.717,1,0.1,0.25
0,137,catch,"[(1141, 792)]",[],[1],[],vertical,"(890.0, 262.0)",1.7,nan,1,767.18,1,0.1,0.25
0,138,target,"[(1140, 799)]",[],[1],[0.5],horizontal,"(890.0, 762.0)",0.7666666666666666,0.46,1,771.962,2,0.1,0.25
0,139,target,"[(1137, 811)]",[],[1],[0.55],vertical,"(890.0, 262.0)",0.9,0.507,1,777.13,2,0.1,0.25
0,140,target,"[(1155, 817)]",[],[1],[0.6166666666666667],vertical,"(390.0, 762.0)",0.43333333333333335,0.579,1,782.308,2,0.1,0.25
0,141,catch,"[(1160, 805)]",[],[1],[],vertical,"(390.0, 262.0)",1.7,nan,1,787.319,2,0.1,0.25
0,142,target,"[(1158, 808)]",[],[1],[0.5333333333333333],horizontal,"(390.0, 762.0)",1.1333333333333333,0.491,1,792.747,3,0.08,0.25
0,143,target,"[(1141, 823)]",[],[1],[0.55],horizontal,"(890.0, 262.0)",0.65,0.511,1,799.045,3,0.08,0.25
0,144,catch,"[(1135, 835)]",[],[1],[],vertical,"(890.0, 262.0)",,"('cti', 1.526),nan",0,804.768,0,0.08,0.25
0,145,catch,"[(1138, 846)]",[],[1],[],vertical,"(890.0, 762.0)",1.7,nan,1,810.212,1,0.08,0.25
0,146,catch,"[(1155, 811)]",[],[1],[],vertical,"(390.0, 262.0)",,"('cti', 1.651),nan",0,818.247,0,0.08,0.25
0,147,target,"[(1159, 831)]",[],[1],[0.5],vertical,"(890.0, 262.0)",1.0333333333333332,0.466,1,823.296,1,0.08,0.25
0,148,target,"[(1160, 812)]",[],[1],[0.7166666666666667],horizontal,"(390.0, 262.0)",1.1,0.668,1,828.221,1,0.08,0.25
0,149,catch,"[(1137, 765)]",[],[1],[],horizontal,"(390.0, 762.0)",1.7,nan,1,833.164,1,0.08,0.25
0,150,catch,"[(1171, 807)]",[],[1],[],vertical,"(890.0, 762.0)",1.7,nan,1,838.574,2,0.08,0.25
0,151,target,"[(1157, 810)]",[],[1],[0.55],horizontal,"(890.0, 262.0)",0.55,0.508,1,843.848,2,0.08,0.25
0,152,target,"[(1155, 810)]",[],[1],[0.5166666666666666],vertical,"(390.0, 762.0)",1.3333333333333333,0.473,1,849.33,2,0.08,0.25
0,153,target,"[(1153, 799)]",[],[1],[0.5666666666666667],vertical,"(390.0, 762.0)",0.6666666666666666,0.523,1,855.197,2,0.08,0.25
0,154,target,"[(1174, 802)]",[],[1],[0.85],vertical,"(390.0, 262.0)",0.8,nan,0,860.006,0,0.08,0.25
0,155,catch,"[(1137, 803)]",[],[1],[],horizontal,"(390.0, 762.0)",1.7,nan,1,864.981,1,0.08,0.25
0,156,catch,"[(1136, 820)]",[],[1],[],horizontal,"(390.0, 262.0)",1.7,nan,1,870.247,1,0.08,0.25
0,157,catch,"[(1167, 797)]",[],[1],[],vertical,"(890.0, 762.0)",1.7,nan,1,875.757,1,0.08,0.25
0,158,target,"[(1169, 814)]",[],[1],[0.5166666666666666],vertical,"(890.0, 262.0)",0.6833333333333333,0.482,1,881.046,2,0.08,0.25
0,159,target,"[(1156, 786)]",[],[1],[0.6666666666666666],vertical,"(890.0, 262.0)",1.0166666666666666,0.622,1,886.597,2,0.08,0.25
0,160,target,"[(1143, 813)]",[],[1],[0.5833333333333334],vertical,"(890.0, 762.0)",0.5,0.54,1,892.112,2,0.08,0.25
0,161,catch,"[(1154, 802)]",[],[1],[],horizontal,"(390.0, 262.0)",,"('cti', 1.642),nan",0,897.348,0,0.1,0.25
0,162,target,"[(1144, 817)]",[],[1],[0.6666666666666666],vertical,"(390.0, 762.0)",0.5333333333333333,0.627,1,902.406,1,0.1,0.25
0,163,target,"[(1150, 803)]",[],[1],[0.6666666666666666],vertical,"(890.0, 762.0)",0.5166666666666666,0.628,1,906.909,1,0.1,0.25
0,164,target,"[(1143, 804)]",[],[1],[0.5333333333333333],horizontal,"(890.0, 262.0)",0.5,0.494,1,911.943,1,0.1,0.25
0,165,catch,"[(1160, 811)]",[],[1],[],vertical,"(890.0, 262.0)",1.7,nan,1,916.507,2,0.1,0.25
0,166,target,"[(1161, 806)]",[],[1],[0.55],horizontal,"(390.0, 762.0)",0.85,0.51,1,921.914,2,0.1,0.25
0,167,target,"[(1170, 797)]",[],[1],[0.3833333333333333],horizontal,"(390.0, 762.0)",1.3833333333333333,0.343,1,927.297,2,0.1,0.25
0,168,target,"[(1170, 798)]",[],[1],[0.65],horizontal,"(890.0, 262.0)",0.8333333333333334,0.603,1,933.277,2,0.1,0.25
0,169,target,"[(1171, 816)]",[],[1],[0.5166666666666666],horizontal,"(390.0, 762.0)",1.3666666666666667,0.473,1,939.075,3,0.08,0.25
0,170,catch,"[(1170, 809)]",[],[1],[],vertical,"(890.0, 762.0)",1.7,nan,1,944.94,3,0.08,0.25
0,171,target,"[(1154, 809)]",[],[1],[0.5333333333333333],horizontal,"(890.0, 262.0)",0.9,0.495,1,950.574,3,0.08,0.25
0,172,catch,"[(1162, 808)]",[],[1],[],vertical,"(890.0, 262.0)",,"('cti', 1.58),nan",0,956.097,0,0.1,0.25
0,173,target,"[(1136, 811)]",[],[1],[0.5666666666666667],horizontal,"(390.0, 762.0)",0.8666666666666667,0.526,1,960.997,1,0.1,0.25
0,174,target,"[(1155, 808)]",[],[1],[0.16666666666666666],horizontal,"(890.0, 762.0)",0.8833333333333333,0.136,0,965.623,0,0.1,0.25
0,175,target,"[(1140, 812)]",[],[1],[0.5666666666666667],vertical,"(890.0, 762.0)",0.9333333333333333,0.523,1,969.412,1,0.1,0.25
0,176,catch,"[(1158, 807)]",[],[1],[],vertical,"(390.0, 262.0)",,"('cti', 1.629),nan",0,974.698,0,0.1,0.25
0,177,target,"[(1139, 811)]",[],[1],[0.5666666666666667],horizontal,"(890.0, 762.0)",1.2333333333333334,0.528,1,979.599,1,0.1,0.25
0,178,target,"[(1158, 803)]",[],[1],[0.7166666666666667],horizontal,"(890.0, 762.0)",0.7666666666666666,0.672,1,984.649,1,0.1,0.25
0,179,target,"[(1160, 804)]",[],[1],[0.6],vertical,"(390.0, 762.0)",0.5,0.561,1,989.799,1,0.1,0.25
0,180,catch,"[(1176, 803)]",[],[1],[],vertical,"(890.0, 762.0)",1.7,nan,1,994.732,2,0.1,0.25
0,181,target,"[(1185, 782)]",[],[1],[0.5166666666666666],horizontal,"(390.0, 762.0)",0.8166666666666667,0.472,1,1000.348,2,0.1,0.25
0,182,target,"[(1155, 811)]",[],[1],[0.2833333333333333],horizontal,"(390.0, 762.0)",1.5166666666666666,0.247,1,1005.498,2,0.1,0.25
0,183,catch,"[(1154, 806)]",[],[1],[],vertical,"(890.0, 762.0)",1.7,nan,1,1011.365,2,0.1,0.25
0,184,target,"[(1163, 803)]",[],[1],[0.55],vertical,"(390.0, 762.0)",0.5333333333333333,0.509,1,1017.082,3,0.1,0.25
0,185,target,"[(1152, 806)]",[],[1],[0.45],horizontal,"(390.0, 262.0)",1.0666666666666667,0.412,1,1022.798,3,0.1,0.25
0,186,catch,"[(1136, 780)]",[],[1],[],horizontal,"(890.0, 262.0)",1.7,nan,1,1028.764,3,0.1,0.25
0,187,target,"[(1141, 807)]",[],[1],[],vertical,"(890.0, 262.0)",,"('cti', 1.151)",0,1034.937,0,0.12,0.25
0,188,target,"[(1148, 810)]",[],[1],[0.5833333333333334],vertical,"(890.0, 762.0)",0.5833333333333334,0.538,1,1038.965,1,0.12,0.25
0,189,target,"[(1157, 790)]",[],[1],[0.6],vertical,"(890.0, 262.0)",1.0666666666666667,0.555,1,1043.664,1,0.12,0.25
0,190,target,"[(1141, 800)]",[],[1],[0.5166666666666666],vertical,"(890.0, 262.0)",0.5166666666666666,0.476,1,1048.797,1,0.12,0.25
0,191,target,"[(1155, 794)]",[],[1],[0.06666666666666667],horizontal,"(390.0, 262.0)",1.3833333333333333,0.035,0,1053.115,0,0.12,0.25
0,192,target,"[(1151, 808)]",[],[1],[0.6166666666666667],horizontal,"(890.0, 262.0)",0.65,0.579,1,1057.831,1,0.12,0.25
0,193,target,"[(1159, 788)]",[],[1],[0.5833333333333334],horizontal,"(890.0, 262.0)",0.8166666666666667,0.54,1,1062.947,1,0.12,0.25
0,194,target,"[(1172, 796)]",[],[1],[0.31666666666666665],vertical,"(390.0, 762.0)",1.4333333333333333,0.278,1,1067.634,1,0.1,0.25
0,195,target,"[(1151, 793)]",[],[1],[0.5],vertical,"(890.0, 262.0)",0.9166666666666666,0.458,1,1072.782,2,0.1,0.25
0,196,target,"[(1139, 799)]",[],[1],[0.65],vertical,"(390.0, 262.0)",0.9,0.61,1,1078.327,2,0.08,0.25
0,197,catch,"[(1147, 795)]",[],[1],[],vertical,"(390.0, 762.0)",1.7,nan,1,1084.049,2,0.08,0.25
0,198,catch,"[(1173, 799)]",[],[1],[],horizontal,"(390.0, 262.0)",1.7,nan,1,1089.454,2,0.08,0.25
0,199,catch,"[(1155, 803)]",[],[1],[],horizontal,"(390.0, 262.0)",1.7,nan,1,1095.4,3,0.08,0.25
0,200,target,"[(1152, 793)]",[],[1],[0.5],horizontal,"(390.0, 262.0)",0.9333333333333333,0.453,1,1101.501,3,0.08,0.25
0,201,target,"[(1146, 782)]",[],[1],[0.5333333333333333],horizontal,"(390.0, 262.0)",1.2166666666666666,0.49,1,1106.956,3,0.08,0.25
0,202,target,"[(1153, 801)]",[],[1],[0.6333333333333333],vertical,"(390.0, 762.0)",0.48333333333333334,0.599,1,1112.96,3,0.08,0.25
0,203,catch,"[(1157, 786)]",[],[1],[],vertical,"(890.0, 762.0)",1.7,nan,1,1118.598,3,0.08,0.25
0,204,target,"[(1158, 807)]",[],[1],[0.85],vertical,"(890.0, 762.0)",0.35,nan,0,1124.933,0,0.08,0.25
0,205,target,"[(1156, 816)]",[],[1],[0.6333333333333333],vertical,"(890.0, 762.0)",1.1666666666666667,0.593,1,1129.377,1,0.08,0.25
0,206,catch,"[(1156, 804)]",[],[1],[],vertical,"(890.0, 762.0)",1.7,nan,1,1135.308,1,0.08,0.25
0,207,target,"[(1166, 806)]",[],[1],[0.6],vertical,"(390.0, 762.0)",0.7,0.555,1,1140.386,1,0.08,0.25
0,208,catch,"[(1152, 802)]",[],[1],[],horizontal,"(390.0, 262.0)",1.7,nan,1,1145.021,2,0.08,0.25
0,209,catch,"[(1146, 797)]",[],[1],[],vertical,"(390.0, 762.0)",1.7,nan,1,1150.431,2,0.08,0.25
0,210,target,"[(1156, 802)]",[],[1],[],horizontal,"(390.0, 762.0)",,"('cti', 1.217)",0,1156.172,0,0.1,0.25
0,211,catch,"[(1136, 809)]",[],[1],[],horizontal,"(890.0, 262.0)",,"('cti', 1.669),nan",0,1160.526,0,0.1,0.25
0,212,target,"[(1161, 807)]",[],[1],[0.5166666666666666],horizontal,"(890.0, 262.0)",0.6166666666666667,0.475,1,1167.109,1,0.1,0.25
0,213,target,"[(1160, 804)]",[],[1],[0.5833333333333334],vertical,"(390.0, 762.0)",1.0833333333333333,0.561,1,1171.867,1,0.1,0.25
0,214,catch,"[(1136, 782)]",[],[1],[],horizontal,"(890.0, 262.0)",1.7,nan,1,1176.991,1,0.1,0.25
0,215,catch,"[(1158, 768)]",[],[1],[],horizontal,"(390.0, 762.0)",1.7,nan,1,1182.233,2,0.1,0.25
0,216,target,"[(1158, 806)]",[],[1],[0.85],vertical,"(890.0, 762.0)",0.6666666666666666,nan,0,1187.477,0,0.1,0.25
0,217,target,"[(1136, 795)]",[],[1],[0.5833333333333334],horizontal,"(390.0, 262.0)",1.05,0.547,1,1192.1,1,0.1,0.25
0,218,target,"[(1137, 783)]",[],[1],[0.6166666666666667],horizontal,"(390.0, 262.0)",0.48333333333333334,0.577,1,1197.533,1,0.1,0.25
0,219,target,"[(1157, 802)]",[],[1],[0.5333333333333333],horizontal,"(890.0, 762.0)",1.4333333333333333,0.491,1,1202.48,1,0.1,0.25
0,220,target,"[(1132, 814)]",[],[1],[0.4666666666666667],vertical,"(390.0, 262.0)",1.3,0.427,1,1208.065,2,0.1,0.25
0,221,target,"[(1135, 812)]",[],[1],[0.55],vertical,"(890.0, 262.0)",1.15,0.509,1,1215.257,2,0.1,0.25
0,222,target,"[(1160, 805)]",[],[1],[0.65],horizontal,"(390.0, 262.0)",0.35,0.604,1,1221.215,2,0.08,0.25
0,223,target,"[(1121, 812)]",[],[1],[0.65],horizontal,"(390.0, 762.0)",0.3833333333333333,0.611,1,1225.933,2,0.08,0.25
0,224,target,"[(1137, 815)]",[],[1],[0.2833333333333333],horizontal,"(390.0, 762.0)",1.3833333333333333,0.252,1,1231.157,3,0.08,0.25
0,225,target,"[(1156, 794)]",[],[1],[0.5],vertical,"(890.0, 762.0)",1.0,0.463,1,1237.719,3,0.08,0.25
0,226,target,"[(1158, 794)]",[],[1],[0.85],vertical,"(390.0, 262.0)",0.48333333333333334,nan,0,1243.465,0,0.06,0.25
0,227,target,"[(1155, 795)]",[],[1],[0.55],vertical,"(390.0, 762.0)",1.3,0.506,1,1247.582,1,0.06,0.25
0,228,target,"[(1160, 803)]",[],[1],[0.5333333333333333],horizontal,"(890.0, 262.0)",1.2666666666666666,0.498,1,1253.281,1,0.06,0.25
0,229,catch,"[(1130, 833)]",[],[1],[],horizontal,"(390.0, 262.0)",,"('cti', 1.657),nan",0,1258.557,0,0.08,0.25
0,230,target,"[(1131, 786)]",[],[1],[0.7166666666666667],horizontal,"(390.0, 762.0)",0.4666666666666667,0.672,1,1266.065,1,0.08,0.25
0,231,target,"[(1159, 807)]",[],[1],[0.5],horizontal,"(390.0, 262.0)",1.4333333333333333,0.461,1,1271.198,1,0.08,0.25
0,232,target,"[(1132, 812)]",[],[1],[0.5666666666666667],horizontal,"(390.0, 262.0)",1.3,0.523,1,1276.418,1,0.08,0.25
0,233,target,"[(1175, 808)]",[],[1],[0.5833333333333334],horizontal,"(390.0, 262.0)",1.1166666666666667,0.545,1,1283.94,2,0.08,0.25
0,234,target,"[(1156, 807)]",[],[1],[0.55],horizontal,"(890.0, 762.0)",0.7333333333333333,0.51,1,1289.899,2,0.08,0.25
0,235,target,"[(1160, 782)]",[],[1],[0.5666666666666667],vertical,"(890.0, 262.0)",1.2,0.523,1,1295.005,2,0.08,0.25
0,236,target,"[(1139, 807)]",[],[1],[0.55],horizontal,"(890.0, 762.0)",0.6166666666666667,0.511,1,1300.557,2,0.08,0.25
0,237,target,"[(1172, 813)]",[],[1],[0.43333333333333335],vertical,"(390.0, 262.0)",0.8333333333333334,0.395,1,1305.556,3,0.06,0.25
0,238,target,"[(1166, 802)]",[],[1],[0.6333333333333333],horizontal,"(890.0, 262.0)",1.0333333333333332,0.587,1,1311.148,3,0.06,0.25
0,239,target,"[(1165, 793)]",[],[1],[0.48333333333333334],horizontal,"(390.0, 762.0)",1.2333333333333334,0.442,1,1316.881,3,0.06,0.25
0,240,target,"[(1165, 797)]",[],[1],[0.6],vertical,"(890.0, 262.0)",0.7666666666666666,0.557,1,1323.002,3,0.06,0.25
0,241,target,"[(1165, 803)]",[],[1],[0.5166666666666666],vertical,"(890.0, 762.0)",0.85,0.479,1,1328.698,3,0.06,0.25
0,242,target,"[(1160, 804)]",[],[1],[0.5166666666666666],horizontal,"(390.0, 262.0)",0.4666666666666667,0.478,1,1334.782,3,0.06,0.25
0,243,target,"[(1170, 807)]",[],[1],[0.7333333333333333],vertical,"(890.0, 762.0)",0.5666666666666667,0.688,1,1339.918,3,0.06,0.25
0,244,target,"[(1166, 802)]",[],[1],[0.4666666666666667],horizontal,"(890.0, 262.0)",0.8166666666666667,0.426,1,1345.575,3,0.06,0.25
0,245,target,"[(1134, 781)]",[],[1],[0.5833333333333334],horizontal,"(890.0, 262.0)",0.9833333333333333,0.543,1,1351.358,3,0.06,0.25
0,246,target,"[(1135, 824)]",[],[1],[0.15],vertical,"(890.0, 262.0)",0.4166666666666667,0.116,0,1357.566,0,0.06,0.25
0,247,target,"[(1136, 820)]",[],[1],[0.3],horizontal,"(390.0, 762.0)",1.3166666666666667,0.264,1,1364.233,1,0.06,0.25
0,248,target,"[(1136, 825)]",[],[1],[0.65],vertical,"(390.0, 262.0)",0.7666666666666666,0.608,1,1369.233,1,0.06,0.25
0,249,target,"[(1155, 830)]",[],[1],[0.36666666666666664],horizontal,"(390.0, 762.0)",1.2,0.329,1,1401.005,1,0.06,0.25
0,250,target,"[(1170, 808)]",[],[1],[],vertical,"(890.0, 262.0)",,"('cti', 1.406)",0,1406.58,0,0.08,0.25
0,251,target,"[(1131, 809)]",[],[1],[0.5333333333333333],vertical,"(890.0, 762.0)",1.0333333333333332,0.494,1,1411.227,1,0.08,0.25
0,252,target,"[(1152, 807)]",[],[1],[0.4166666666666667],vertical,"(890.0, 262.0)",1.4,0.377,1,1416.599,1,0.08,0.25
0,253,target,"[(1155, 790)]",[],[1],[0.6833333333333333],vertical,"(890.0, 262.0)",0.9166666666666666,0.645,1,1421.76,1,0.08,0.25
0,254,catch,"[(1175, 804)]",[],[1],[],vertical,"(890.0, 762.0)",1.7,nan,1,1426.826,2,0.08,0.25
0,255,catch,"[(1159, 802)]",[],[1],[],horizontal,"(390.0, 262.0)",1.7,nan,1,1432.467,2,0.08,0.25
0,256,target,"[(1160, 814)]",[],[1],[0.55],horizontal,"(390.0, 262.0)",0.8166666666666667,0.505,1,1438.398,2,0.08,0.25
0,257,target,"[(1171, 808)]",[],[1],[0.5166666666666666],vertical,"(390.0, 762.0)",0.7666666666666666,0.474,1,1443.516,2,0.08,0.25
0,258,catch,"[(1155, 807)]",[],[1],[],horizontal,"(890.0, 262.0)",1.7,nan,1,1448.964,3,0.08,0.25
0,259,target,"[(1151, 787)]",[],[1],[0.4666666666666667],horizontal,"(890.0, 262.0)",1.0833333333333333,0.424,1,1455.249,3,0.08,0.25
0,260,target,"[(1160, 790)]",[],[1],[0.13333333333333333],vertical,"(390.0, 262.0)",1.4333333333333333,0.1,0,1461.124,0,0.06,0.25
0,261,target,"[(1157, 817)]",[],[1],[0.5333333333333333],horizontal,"(890.0, 262.0)",1.0833333333333333,0.49,1,1466.031,1,0.04,0.25
0,262,catch,"[(1160, 779)]",[],[1],[0.03333333333333333],vertical,"(390.0, 762.0)",1.7,"0.019,nan",0,1470.788,0,0.06,0.25
0,263,catch,"[(1163, 815)]",[],[1],[0.03333333333333333],horizontal,"(890.0, 762.0)",1.7,"0.019,nan",0,1475.568,0,0.08,0.25
0,264,target,"[(1161, 812)]",[],[1],[0.3833333333333333],horizontal,"(390.0, 262.0)",1.35,0.343,1,1480.473,1,0.08,0.25
0,265,target,"[(1164, 787)]",[],[1],[0.85],horizontal,"(890.0, 762.0)",0.5,nan,0,1485.654,0,0.08,0.25
0,266,catch,"[(1137, 798)]",[],[1],[],horizontal,"(890.0, 262.0)",1.7,nan,1,1489.85,1,0.08,0.25
0,267,target,"[(1155, 812)]",[],[1],[0.55],vertical,"(890.0, 262.0)",0.8666666666666667,0.505,1,1495.567,1,0.08,0.25
0,268,target,"[(1160, 803)]",[],[1],[0.5],vertical,"(890.0, 262.0)",0.6,0.46,1,1500.183,1,0.08,0.25
0,269,target,"[(1159, 794)]",[],[1],[0.5666666666666667],vertical,"(390.0, 262.0)",0.5,0.523,1,1505.084,2,0.08,0.25
0,270,catch,"[(1180, 795)]",[],[1],[],horizontal,"(390.0, 262.0)",1.7,nan,1,1510.004,2,0.08,0.25
0,271,catch,"[(1158, 812)]",[],[1],[],horizontal,"(890.0, 262.0)",1.7,nan,1,1515.417,2,0.08,0.25
0,272,target,"[(1169, 798)]",[],[1],[0.55],vertical,"(890.0, 262.0)",0.4666666666666667,0.513,1,1521.061,2,0.08,0.25
0,273,target,"[(1157, 795)]",[],[1],[0.5666666666666667],vertical,"(890.0, 762.0)",0.9333333333333333,0.527,1,1526.15,3,0.08,0.25
0,274,target,"[(1160, 793)]",[],[1],[0.5333333333333333],vertical,"(890.0, 262.0)",0.6333333333333333,0.505,1,1532.332,3,0.08,0.25
0,275,catch,"[(1145, 791)]",[],[1],[],vertical,"(890.0, 762.0)",1.7,nan,1,1537.661,3,0.08,0.25
0,276,target,"[(1137, 796)]",[],[1],[0.6333333333333333],horizontal,"(890.0, 762.0)",0.9666666666666667,0.587,1,1543.334,3,0.08,0.25
0,277,target,"[(1152, 792)]",[],[1],[0.55],horizontal,"(890.0, 762.0)",1.3666666666666667,0.508,1,1548.661,3,0.08,0.25
0,278,target,"[(1159, 795)]",[],[1],[0.18333333333333332],horizontal,"(890.0, 262.0)",1.4166666666666667,0.15,0,1554.514,0,0.08,0.25
0,279,target,"[(1145, 813)]",[],[1],[0.5],vertical,"(890.0, 262.0)",1.0166666666666666,0.462,1,1559.015,1,0.06,0.25
0,280,target,"[(1170, 802)]",[],[1],[0.5333333333333333],vertical,"(890.0, 262.0)",1.05,0.493,1,1563.903,1,0.06,0.25
0,281,target,"[(1158, 798)]",[],[1],[0.6166666666666667],vertical,"(890.0, 762.0)",1.2166666666666666,0.576,1,1568.63,1,0.06,0.25
0,282,catch,"[(1157, 775)]",[],[1],[],horizontal,"(390.0, 262.0)",1.7,nan,1,1573.69,2,0.06,0.25
0,283,target,"[(1173, 796)]",[],[1],[0.6833333333333333],vertical,"(890.0, 762.0)",1.25,0.641,1,1579.084,2,0.06,0.25
0,284,target,"[(1159, 797)]",[],[1],[0.5166666666666666],horizontal,"(390.0, 262.0)",1.1666666666666667,0.478,1,1584.95,2,0.06,0.25
0,285,target,"[(1166, 799)]",[],[1],[0.5166666666666666],horizontal,"(890.0, 262.0)",0.36666666666666664,0.476,1,1590.599,2,0.06,0.25
0,286,target,"[(1171, 799)]",[],[1],[0.5833333333333334],horizontal,"(390.0, 762.0)",1.05,0.539,1,1595.409,3,0.06,0.25
0,287,target,"[(1137, 792)]",[],[1],[0.5166666666666666],vertical,"(390.0, 262.0)",0.8333333333333334,0.474,1,1601.149,3,0.06,0.25
0,288,target,"[(1141, 789)]",[],[1],[0.5166666666666666],vertical,"(890.0, 762.0)",0.9333333333333333,0.476,1,1606.236,3,0.06,0.25
0,289,target,"[(1160, 792)]",[],[1],[0.5333333333333333],horizontal,"(390.0, 762.0)",0.85,0.487,1,1611.617,3,0.06,0.25
0,290,target,"[(1158, 792)]",[],[1],[0.5333333333333333],vertical,"(390.0, 762.0)",0.35,0.491,1,1617.421,3,0.06,0.25
0,291,catch,"[(1136, 806)]",[],[1],[],vertical,"(390.0, 262.0)",1.7,nan,1,1622.293,3,0.06,0.25
0,292,target,"[(1153, 802)]",[],[1],[0.65],horizontal,"(890.0, 762.0)",0.8666666666666667,0.602,1,1628.083,3,0.06,0.25
0,293,target,"[(1158, 794)]",[],[1],[0.5666666666666667],vertical,"(390.0, 262.0)",0.5833333333333334,0.525,1,1634.234,3,0.06,0.25
0,294,target,"[(1161, 814)]",[],[1],[0.65],horizontal,"(890.0, 262.0)",0.9666666666666667,0.61,1,1639.686,3,0.06,0.25
0,295,catch,"[(1158, 821)]",[],[1],[],vertical,"(890.0, 762.0)",1.7,nan,1,1645.901,3,0.06,0.25
0,296,target,"[(1149, 816)]",[],[1],[0.4],horizontal,"(390.0, 762.0)",1.1833333333333333,0.371,1,1652.232,3,0.06,0.25
0,297,target,"[(1132, 803)]",[],[1],[0.6666666666666666],vertical,"(390.0, 762.0)",1.0,0.621,1,1658.353,3,0.06,0.25
0,298,target,"[(1151, 791)]",[],[1],[0.5333333333333333],horizontal,"(390.0, 762.0)",0.7833333333333333,0.495,1,1664.3,3,0.06,0.25
0,299,target,"[(1145, 782)]",[],[1],[0.6666666666666666],vertical,"(390.0, 762.0)",1.1833333333333333,0.623,1,1669.876,3,0.06,0.25
0,300,catch,"[(1141, 794)]",[],[1],[],vertical,"(890.0, 262.0)",1.7,nan,1,1676.094,3,0.04,0.25
0,301,catch,"[(1141, 788)]",[],[1],[],vertical,"(390.0, 262.0)",1.7,nan,1,1682.108,3,0.04,0.25
0,302,target,"[(1169, 795)]",[],[1],[0.5833333333333334],vertical,"(390.0, 762.0)",0.5,0.543,1,1688.194,3,0.04,0.25
0,303,target,"[(1145, 808)]",[],[1],[0.55],vertical,"(390.0, 262.0)",0.9166666666666666,0.511,1,1693.236,3,0.04,0.25
0,304,catch,"[(1137, 797)]",[],[1],[],vertical,"(390.0, 762.0)",,"('cti', 1.34),nan",0,1699.317,0,0.06,0.25
0,305,target,"[(1137, 818)]",[],[1],[0.6833333333333333],vertical,"(390.0, 762.0)",1.05,0.638,1,1704.16,1,0.06,0.25
0,306,target,"[(1139, 790)]",[],[1],[0.6166666666666667],horizontal,"(890.0, 762.0)",1.0666666666666667,0.571,1,1709.218,1,0.06,0.25
0,307,target,"[(1137, 802)]",[],[1],[0.7166666666666667],vertical,"(390.0, 762.0)",1.0333333333333332,0.675,1,1714.601,1,0.06,0.25
0,308,target,"[(1157, 793)]",[],[1],[0.3333333333333333],horizontal,"(890.0, 262.0)",1.5,0.293,1,1719.806,2,0.06,0.25
0,309,target,"[(1165, 795)]",[],[1],[0.6],horizontal,"(890.0, 762.0)",1.1166666666666667,0.557,1,1725.229,2,0.06,0.25
0,310,catch,"[(1157, 820)]",[],[1],[],vertical,"(890.0, 262.0)",1.7,nan,1,1730.743,2,0.06,0.25
0,311,target,"[(1170, 808)]",[],[1],[0.85],horizontal,"(890.0, 762.0)",0.5,nan,0,1736.717,0,0.06,0.25
0,312,catch,"[(1132, 811)]",[],[1],[],vertical,"(890.0, 262.0)",1.7,nan,1,1741.287,1,0.04,0.25
0,313,catch,"[(1160, 794)]",[],[1],[],horizontal,"(890.0, 762.0)",1.7,nan,1,1746.761,1,0.02,0.25
0,314,target,"[(1170, 808)]",[],[1],[0.7],vertical,"(890.0, 262.0)",1.0,0.659,1,1752.125,1,0.02,0.25
0,315,target,"[(1146, 806)]",[],[1],[0.5166666666666666],horizontal,"(390.0, 262.0)",0.6833333333333333,0.48,1,1757.044,2,0.02,0.25
0,316,catch,"[(1165, 808)]",[],[1],[],horizontal,"(890.0, 762.0)",1.7,nan,1,1762.2,2,0.02,0.25
0,317,target,"[(1185, 803)]",[],[1],[0.5833333333333334],vertical,"(390.0, 262.0)",0.55,0.54,1,1767.651,2,0.02,0.25
0,318,catch,"[(1160, 810)]",[],[1],[],vertical,"(390.0, 262.0)",,"('cti', 1.702),nan",0,1772.867,0,0.04,0.25
0,319,target,"[(1141, 821)]",[],[1],[0.18333333333333332],horizontal,"(390.0, 762.0)",0.85,0.152,0,1777.921,0,0.04,0.25
0,320,catch,"[(1115, 827)]",[],[1],[],horizontal,"(390.0, 262.0)",,"('cti', 1.55),nan",0,1782.451,0,0.06,0.25
0,321,catch,"[(1141, 803)]",[],[1],[],horizontal,"(890.0, 262.0)",1.7,nan,1,1787.25,1,0.06,0.25
0,322,target,"[(1171, 802)]",[],[1],[0.5333333333333333],vertical,"(390.0, 762.0)",0.85,0.494,1,1793.107,1,0.06,0.25
0,323,target,"[(1114, 808)]",[],[1],[0.5166666666666666],vertical,"(890.0, 762.0)",0.95,0.477,1,1797.612,1,0.06,0.25
0,324,target,"[(1172, 830)]",[],[1],[0.6333333333333333],horizontal,"(390.0, 762.0)",0.48333333333333334,0.592,1,1827.717,2,0.06,0.25
0,325,target,"[(1142, 797)]",[],[1],[0.5833333333333334],horizontal,"(390.0, 762.0)",1.1333333333333333,0.554,1,1832.923,2,0.06,0.25
0,326,catch,"[(1170, 801)]",[],[1],[],horizontal,"(390.0, 262.0)",,"('cti', 1.55),nan",0,1838.484,0,0.08,0.25
0,327,target,"[(1134, 810)]",[],[1],[0.6666666666666666],vertical,"(390.0, 762.0)",1.15,0.63,1,1843.502,1,0.08,0.25
0,328,target,"[(1170, 799)]",[],[1],[0.5166666666666666],vertical,"(390.0, 262.0)",1.1833333333333333,0.469,1,1848.652,1,0.08,0.25
0,329,target,"[(1170, 802)]",[],[1],[0.55],vertical,"(890.0, 262.0)",1.2666666666666666,0.51,1,1853.534,1,0.08,0.25
0,330,target,"[(1175, 794)]",[],[1],[0.55],horizontal,"(390.0, 762.0)",0.4666666666666667,0.515,1,1858.969,2,0.08,0.25
0,331,catch,"[(1164, 795)]",[],[1],[],horizontal,"(390.0, 262.0)",1.7,nan,1,1863.766,2,0.08,0.25
0,332,target,"[(1175, 807)]",[],[1],[0.6666666666666666],vertical,"(890.0, 262.0)",0.4166666666666667,0.625,1,1869.401,2,0.08,0.25
0,333,target,"[(1158, 809)]",[],[1],[0.5666666666666667],horizontal,"(390.0, 762.0)",0.5333333333333333,0.524,1,1874.235,2,0.08,0.25
0,334,catch,"[(1160, 802)]",[],[1],[],vertical,"(390.0, 762.0)",1.7,nan,1,1878.96,3,0.08,0.25
0,335,target,"[(1170, 797)]",[],[1],[0.5833333333333334],horizontal,"(390.0, 762.0)",0.6333333333333333,0.544,1,1885.176,3,0.08,0.25
0,336,catch,"[(1155, 796)]",[],[1],[],vertical,"(390.0, 262.0)",1.7,nan,1,1890.934,3,0.08,0.25
0,337,target,"[(1170, 805)]",[],[1],[0.36666666666666664],vertical,"(390.0, 762.0)",1.4666666666666666,0.328,1,1896.792,3,0.08,0.25
0,338,catch,"[(1156, 799)]",[],[1],[],horizontal,"(890.0, 762.0)",1.7,nan,1,1902.702,3,0.08,0.25
0,339,target,"[(1137, 807)]",[],[1],[0.6166666666666667],horizontal,"(890.0, 762.0)",0.9833333333333333,0.574,1,1909.101,3,0.08,0.25
0,340,target,"[(1156, 795)]",[],[1],[0.5333333333333333],horizontal,"(390.0, 762.0)",0.3833333333333333,0.493,1,1914.89,3,0.08,0.25
0,341,target,"[(1160, 799)]",[],[1],[0.6166666666666667],horizontal,"(890.0, 262.0)",0.4666666666666667,0.577,1,1920.372,3,0.08,0.25
0,342,catch,"[(1167, 797)]",[],[1],[],horizontal,"(890.0, 262.0)",,"('cti', 1.294),nan",0,1925.364,0,0.1,0.25
0,343,catch,"[(1131, 789)]",[],[1],[],vertical,"(890.0, 762.0)",1.7,nan,1,1929.901,1,0.1,0.25
0,344,catch,"[(1170, 826)]",[],[1],[],vertical,"(890.0, 262.0)",1.7,nan,1,1935.402,1,0.1,0.25
0,345,target,"[(1136, 810)]",[],[1],[0.55],vertical,"(390.0, 262.0)",1.0833333333333333,0.509,1,1940.355,1,0.1,0.25
0,346,target,"[(1170, 813)]",[],[1],[0.5],vertical,"(890.0, 262.0)",0.95,0.462,1,1945.262,2,0.1,0.25
0,347,target,"[(1194, 812)]",[],[1],[0.48333333333333334],horizontal,"(890.0, 262.0)",1.3,0.447,1,1950.323,2,0.1,0.25
0,348,target,"[(1170, 816)]",[],[1],[0.85],vertical,"(390.0, 762.0)",0.5333333333333333,nan,0,1955.735,0,0.1,0.25
0,349,target,"[(1135, 796)]",[],[1],[0.85],vertical,"(390.0, 762.0)",0.4166666666666667,nan,0,1959.832,0,0.1,0.25
0,350,catch,"[(1142, 800)]",[],[1],[0.03333333333333333],vertical,"(890.0, 262.0)",1.7,"0.019,nan",0,1964.419,0,0.12,0.25
0,351,target,"[(1146, 803)]",[],[1],[0.5666666666666667],vertical,"(390.0, 762.0)",1.2,0.524,1,1969.23,1,0.12,0.25
0,352,target,"[(1158, 797)]",[],[1],[0.55],vertical,"(890.0, 762.0)",0.6666666666666666,0.507,1,1974.201,1,0.12,0.25
0,353,target,"[(1165, 797)]",[],[1],[0.6],horizontal,"(890.0, 762.0)",0.9,0.551,1,1979.234,1,0.12,0.25
0,354,target,"[(1170, 798)]",[],[1],[0.5166666666666666],horizontal,"(890.0, 262.0)",1.35,0.479,1,1984.187,2,0.1,0.25
0,355,catch,"[(1153, 793)]",[],[1],[],vertical,"(390.0, 762.0)",1.7,nan,1,1990.183,2,0.1,0.25
0,356,target,"[(1137, 770)]",[],[1],[0.5166666666666666],vertical,"(890.0, 762.0)",0.75,0.476,1,1995.393,2,0.1,0.25
0,357,target,"[(1172, 803)]",[],[1],[0.65],vertical,"(390.0, 262.0)",1.1166666666666667,0.608,1,2000.818,2,0.1,0.25
0,358,target,"[(1172, 800)]",[],[1],[0.85],horizontal,"(390.0, 762.0)",0.7666666666666666,nan,0,2006.435,0,0.1,0.25
0,359,target,"[(1141, 805)]",[],[1],[0.85],vertical,"(390.0, 262.0)",0.75,nan,0,2010.935,0,0.1,0.25
