block,trial,trial_type,taps_start_loc_during_fix,taps_end_loc_during_fix,taps_on_lever_during_fix,taps_on_lever_s_during_fix,bar_orientation,target_xy,cti,rt,acc,time,pulses,fa_rate_recent100,actual_invalid_type
0,1,valid,"[(1194, 862)]",[],[1],[0.4166666666666667],vertical,"(890.0, 762.0)",1.4166666666666667,0.388,1,0.538,1,0.0,same
0,2,valid,"[(1088, 833)]",[],[1],[0.6],vertical,"(390.0, 262.0)",0.9666666666666667,0.568,1,10.581,1,0.0,same
0,3,valid,"[(1135, 779)]",[],[1],[0.5333333333333333],horizontal,"(890.0, 262.0)",0.35,0.498,1,169.682,1,0.0,same
0,4,valid,"[(1124, 754)]",[],[1],[0.5666666666666667],horizontal,"(890.0, 262.0)",0.7833333333333333,0.541,1,173.986,2,0.0,same
0,5,valid,"[(1126, 775)]",[],[1],[0.85],vertical,"(890.0, 762.0)",0.43333333333333335,nan,0,179.786,0,0.0,same
0,6,valid,"[(1124, 811)]",[],[1],[0.6166666666666667],horizontal,"(390.0, 262.0)",0.7,0.582,1,184.607,1,0.0,same
0,7,valid,"[(1140, 783)]",[],[1],[0.85],horizontal,"(890.0, 762.0)",0.6333333333333333,nan,0,189.752,0,0.0,same
0,8,valid,"[(1130, 791)]",[],[1],[0.5833333333333334],horizontal,"(390.0, 262.0)",0.7333333333333333,0.557,1,194.572,1,0.0,same
0,9,valid,"[(1135, 785)]",[],[1],[0.85],vertical,"(390.0, 762.0)",0.7666666666666666,nan,0,199.202,0,0.0,same
0,10,valid,"[(1135, 810)]",[],[1],[0.85],horizontal,"(890.0, 262.0)",0.8333333333333334,nan,0,203.685,0,0.0,same
0,11,valid,"[(1135, 808)]",[],[1],[0.85],vertical,"(890.0, 762.0)",0.6333333333333333,nan,0,208.298,0,0.0,same
0,12,valid,"[(1129, 828)]",[],[1],[0.85],horizontal,"(390.0, 762.0)",0.36666666666666664,nan,0,212.61,0,0.0,same
0,13,valid,"[(1125, 803)]",[],[1],[0.85],horizontal,"(890.0, 762.0)",0.8333333333333334,nan,0,217.132,0,0.0,same
0,14,valid,"[(1125, 833)]",[],[1],[0.5166666666666666],vertical,"(390.0, 262.0)",1.0833333333333333,0.486,1,221.798,1,0.0,same
0,15,catch,"[(1170, 798)]",[],[1],[],vertical,"(890.0, 262.0)",1.7,nan,1,231.328,1,0.0,same
0,16,valid,"[(1165, 800)]",[],[1],[0.5666666666666667],vertical,"(390.0, 262.0)",0.9166666666666666,0.537,1,236.271,1,0.0,same
0,17,valid,"[(1163, 811)]",[],[1],[0.55],vertical,"(890.0, 262.0)",1.2333333333333334,0.507,1,241.324,2,0.0,same
0,18,invalid_adjacent_other_bar,"[(1165, 799)]",[],[1],[0.5166666666666666],vertical,"(390.0, 762.0)",0.8,0.488,1,247.395,2,0.0,other
0,19,catch,"[(1165, 805)]",[],[1],[],horizontal,"(890.0, 262.0)",1.7,nan,1,252.719,2,0.0,same
0,20,valid,"[(1130, 823)]",[],[1],[0.4666666666666667],horizontal,"(890.0, 762.0)",0.8166666666666667,0.441,1,258.609,3,0.0,same
0,21,valid,"[(1160, 781)]",[],[1],[0.5],vertical,"(390.0, 262.0)",1.1666666666666667,0.472,1,264.397,3,0.0,same
0,22,valid,"[(1164, 815)]",[],[1],[0.6666666666666666],vertical,"(390.0, 762.0)",1.0666666666666667,0.637,1,270.31,3,0.0,same
0,23,catch,"[(1086, 788)]",[],[1],[],horizontal,"(890.0, 762.0)",1.7,nan,1,276.163,3,0.0,same
0,24,valid,"[(1160, 778)]",[],[1],[0.4666666666666667],vertical,"(890.0, 762.0)",1.1333333333333333,0.44,1,282.079,3,0.0,same
0,25,valid,"[(1145, 812)]",[],[1],[0.05],vertical,"(890.0, 262.0)",1.35,0.018,0,287.96,0,0.0,same
0,26,valid,"[(1124, 814)]",[],[1],[0.85],horizontal,"(390.0, 762.0)",0.8666666666666667,nan,0,292.603,0,0.0,same
0,27,valid,"[(1086, 799)]",[],[1],[0.6833333333333333],vertical,"(390.0, 262.0)",0.35,0.645,1,297.523,1,0.0,same
0,28,valid,"[(1170, 796)]",[],[1],[],vertical,"(890.0, 762.0)",,"('cti', 0.655)",0,302.243,0,0.0,same
0,29,invalid_adjacent_other_bar,"[(1160, 819)]",[],[1],[0.5666666666666667],horizontal,"(890.0, 762.0)",0.48333333333333334,0.531,1,305.941,1,0.0,other
0,30,invalid_adjacent_other_bar,"[(1169, 771)]",[],[1],[0.6666666666666666],horizontal,"(890.0, 762.0)",1.05,0.626,1,310.26,1,0.0,other
0,31,valid,"[(1145, 773)]",[],[1],[0.7833333333333333],horizontal,"(890.0, 762.0)",0.5166666666666666,0.732,1,315.542,1,0.0,same
0,32,valid,"[(1166, 785)]",[],[1],[0.6833333333333333],horizontal,"(890.0, 762.0)",0.8833333333333333,0.637,1,320.27,2,0.0,same
0,33,valid,"[(1165, 781)]",[],[1],[0.6333333333333333],horizontal,"(390.0, 262.0)",0.5166666666666666,0.592,1,326.139,2,0.0,same
0,34,catch,"[(1128, 794)]",[],[1],[0.03333333333333333],horizontal,"(390.0, 762.0)",1.7,"0.018,nan",0,330.876,0,0.029411764705882353,same
0,35,valid,"[(1160, 811)]",[],[1],[0.6],horizontal,"(390.0, 262.0)",1.0666666666666667,0.561,1,336.201,1,0.02857142857142857,same
0,36,valid,"[(1170, 805)]",[],[1],[0.6166666666666667],vertical,"(390.0, 762.0)",1.0,0.576,1,341.38,1,0.027777777777777776,same
0,37,invalid_same_bar,"[(1138, 815)]",[],[1],[0.75],horizontal,"(390.0, 262.0)",0.8,0.708,1,346.901,1,0.02702702702702703,same
0,38,catch,"[(1145, 803)]",[],[1],[],vertical,"(890.0, 762.0)",1.7,nan,1,352.359,2,0.02631578947368421,same
0,39,valid,"[(1167, 806)]",[],[1],[0.85],horizontal,"(390.0, 262.0)",0.4,nan,0,357.959,0,0.02564102564102564,same
0,40,valid,"[(1144, 794)]",[],[1],[0.5333333333333333],horizontal,"(390.0, 762.0)",0.45,0.491,1,362.392,1,0.025,same
0,41,valid,"[(1161, 785)]",[],[1],[0.65],vertical,"(390.0, 262.0)",1.3666666666666667,0.61,1,367.059,1,0.024390243902439025,same
0,42,valid,"[(1168, 808)]",[],[1],[0.5333333333333333],horizontal,"(890.0, 762.0)",1.15,0.499,1,372.776,1,0.023809523809523808,same
0,43,valid,"[(1160, 778)]",[],[1],[],vertical,"(890.0, 762.0)",,"('cti', 1.337)",0,378.276,0,0.023255813953488372,same
0,44,invalid_adjacent_other_bar,"[(1173, 806)]",[],[1],[0.4666666666666667],vertical,"(890.0, 262.0)",1.0,0.433,1,382.825,1,0.022727272727272728,other
0,45,valid,"[(1170, 785)]",[],[1],[],vertical,"(890.0, 262.0)",,"('fix', 0.461)",0,387.665,0,0.022222222222222223,same
0,46,invalid_adjacent_other_bar,"[(1141, 809)]",[],[1],[0.5166666666666666],horizontal,"(890.0, 262.0)",0.35,0.475,1,389.799,1,0.021739130434782608,other
0,47,invalid_adjacent_other_bar,"[(1170, 799)]",[],[1],[0.48333333333333334],horizontal,"(390.0, 762.0)",0.6333333333333333,0.446,1,394.321,1,0.02127659574468085,other
0,48,valid,"[(1165, 787)]",[],[1],[0.6],horizontal,"(390.0, 262.0)",0.35,0.561,1,399.197,1,0.020833333333333332,same
0,49,valid,"[(1145, 813)]",[],[1],[0.48333333333333334],horizontal,"(890.0, 762.0)",1.4333333333333333,0.439,1,403.542,2,0.02040816326530612,same
0,50,catch,"[(1175, 803)]",[],[1],[],vertical,"(890.0, 762.0)",1.7,nan,1,409.46,2,0.02,same
0,51,valid,"[(1160, 803)]",[],[1],[0.85],vertical,"(390.0, 262.0)",1.0166666666666666,nan,0,415.037,0,0.02,same
0,52,valid,"[(1115, 803)]",[],[1],[0.55],vertical,"(890.0, 262.0)",0.4666666666666667,0.511,1,420.102,1,0.02,same
0,53,valid,"[(1160, 810)]",[],[1],[0.5],vertical,"(890.0, 262.0)",1.3666666666666667,0.465,1,424.598,1,0.02,same
0,54,valid,"[(1160, 774)]",[],[1],[0.6],horizontal,"(390.0, 262.0)",0.8,0.56,1,429.91,1,0.02,same
0,55,valid,"[(1170, 813)]",[],[1],[0.48333333333333334],horizontal,"(890.0, 762.0)",0.9833333333333333,0.445,1,435.039,2,0.02,same
0,56,invalid_same_bar,"[(1150, 807)]",[],[1],"[0.85, 0.85]",vertical,"(390.0, 262.0)",0.65,"0.818,nan",0,440.37,0,0.02,same
0,57,valid,"[(1180, 819)]",[],[1],[0.43333333333333335],vertical,"(890.0, 762.0)",0.8833333333333333,0.401,1,444.908,1,0.02,same
0,58,catch,"[(1144, 779)]",[],[1],[],horizontal,"(890.0, 762.0)",,"('cti', 1.143),nan",0,449.737,0,0.04,same
0,59,valid,"[(1142, 814)]",[],[1],[0.5166666666666666],horizontal,"(390.0, 762.0)",1.1333333333333333,0.476,1,454.507,1,0.04,same
0,60,catch,"[(1191, 802)]",[],[1],[],vertical,"(890.0, 262.0)",1.7,nan,1,459.878,1,0.04,same
0,61,valid,"[(1166, 782)]",[],[1],[0.5],horizontal,"(890.0, 262.0)",1.1333333333333333,0.458,1,464.91,1,0.04,same
0,62,valid,"[(1137, 798)]",[],[1],[0.5333333333333333],vertical,"(890.0, 762.0)",1.0,0.496,1,469.676,2,0.04,same
0,63,valid,"[(1169, 799)]",[],[1],[0.85],vertical,"(390.0, 762.0)",1.3166666666666667,nan,0,474.859,0,0.04,same
0,64,valid,"[(1090, 803)]",[],[1],[0.85],horizontal,"(390.0, 762.0)",0.65,nan,0,480.16,0,0.04,same
0,65,valid,"[(1130, 794)]",[],[1],[0.65],vertical,"(890.0, 762.0)",0.7833333333333333,0.609,1,486.011,1,0.04,same
0,66,valid,"[(1162, 809)]",[],[1],[0.5333333333333333],vertical,"(890.0, 762.0)",0.8,0.5,1,491.543,1,0.04,same
0,67,valid,"[(1174, 779)]",[],[1],[0.4666666666666667],vertical,"(390.0, 762.0)",1.25,0.428,1,496.338,1,0.04,same
0,68,invalid_adjacent_other_bar,"[(1138, 795)]",[],[1],[0.43333333333333335],horizontal,"(890.0, 262.0)",1.45,0.392,1,501.343,2,0.04,other
0,69,valid,"[(1160, 792)]",[],[1],[0.5166666666666666],vertical,"(890.0, 762.0)",1.3333333333333333,0.479,1,507.492,2,0.04,same
0,70,valid,"[(1146, 800)]",[],[1],[0.6333333333333333],vertical,"(890.0, 262.0)",1.0833333333333333,0.592,1,513.39,2,0.04,same
0,71,catch,"[(1160, 808)]",[],[1],[],vertical,"(890.0, 262.0)",1.7,nan,1,519.092,3,0.04,same
0,72,valid,"[(1159, 771)]",[],[1],[0.6833333333333333],vertical,"(390.0, 262.0)",0.8,0.638,1,525.627,3,0.04,same
0,73,valid,"[(1170, 797)]",[],[1],[0.4666666666666667],horizontal,"(390.0, 262.0)",0.4666666666666667,0.428,1,531.592,3,0.04,same
0,74,valid,"[(1166, 787)]",[],[1],[0.48333333333333334],vertical,"(890.0, 262.0)",1.2,0.444,1,537.092,3,0.04,same
0,75,valid,"[(1166, 815)]",[],[1],[0.7333333333333333],horizontal,"(890.0, 762.0)",0.9166666666666666,0.691,1,542.926,3,0.04,same
0,76,valid,"[(1169, 797)]",[],[1],[0.4666666666666667],horizontal,"(390.0, 262.0)",1.5333333333333332,0.427,1,548.941,3,0.04,same
0,77,catch,"[(1169, 784)]",[],[1],[],horizontal,"(390.0, 262.0)",1.7,nan,1,555.75,3,0.04,same
0,78,valid,"[(1167, 803)]",[],[1],[0.4666666666666667],horizontal,"(390.0, 762.0)",0.65,0.43,1,561.925,3,0.04,same
0,79,valid,"[(1121, 814)]",[],[1],[0.5],vertical,"(890.0, 762.0)",0.43333333333333335,0.462,1,567.294,3,0.04,same
0,80,invalid_same_bar,"[(1091, 806)]",[],[1],[0.55],vertical,"(890.0, 262.0)",0.35,0.512,1,572.676,3,0.04,same
0,81,invalid_same_bar,"[(1160, 799)]",[],[1],[0.6166666666666667],vertical,"(390.0, 762.0)",0.6666666666666666,0.576,1,578.027,3,0.04,same
0,82,valid,"[(1160, 797)]",[],[1],[0.5],vertical,"(890.0, 762.0)",0.65,0.461,1,583.818,3,0.04,same
0,83,valid,"[(1170, 786)]",[],[1],[0.6],vertical,"(890.0, 762.0)",0.3833333333333333,0.56,1,589.625,3,0.04,same
0,84,valid,"[(1165, 800)]",[],[1],[0.55],vertical,"(390.0, 762.0)",1.2833333333333332,0.509,1,595.109,3,0.02,same
0,85,valid,"[(1160, 788)]",[],[1],[0.43333333333333335],vertical,"(390.0, 762.0)",1.5166666666666666,0.395,1,601.707,3,0.02,same
0,86,catch,"[(1170, 798)]",[],[1],[],horizontal,"(890.0, 262.0)",1.7,nan,1,608.209,3,0.02,same
0,87,valid,"[(1115, 787)]",[],[1],[0.5333333333333333],vertical,"(890.0, 762.0)",1.15,0.496,1,614.459,3,0.02,same
0,88,invalid_adjacent_other_bar,"[(1165, 786)]",[],[1],[0.4666666666666667],horizontal,"(890.0, 262.0)",0.6666666666666666,0.423,1,620.727,3,0.02,other
0,89,valid,"[(1145, 799)]",[],[1],[0.2833333333333333],horizontal,"(890.0, 262.0)",1.0833333333333333,0.252,1,626.206,3,0.02,same
0,90,valid,"[(1166, 798)]",[],[1],[0.5],vertical,"(890.0, 762.0)",0.55,0.466,1,632.277,3,0.02,same
0,91,valid,"[(1100, 868)]",[],[1],[0.5833333333333334],vertical,"(390.0, 762.0)",0.4166666666666667,0.549,1,637.799,3,0.02,same
0,92,valid,"[(1115, 809)]",[],[1],[0.65],vertical,"(890.0, 262.0)",1.2333333333333334,0.611,1,673.584,3,0.02,same
0,93,valid,"[(1135, 779)]",[],[1],[0.6],vertical,"(890.0, 262.0)",1.3,0.555,1,679.728,3,0.02,same
0,94,valid,"[(1162, 790)]",[],[1],[0.6],horizontal,"(890.0, 262.0)",1.15,0.56,1,685.709,3,0.02,same
0,95,valid,"[(1178, 788)]",[],[1],[0.5166666666666666],vertical,"(890.0, 762.0)",1.2666666666666666,0.481,1,691.528,3,0.02,same
0,96,valid,"[(1166, 789)]",[],[1],[0.5],vertical,"(890.0, 262.0)",1.45,0.457,1,697.394,3,0.02,same
0,97,valid,"[(1165, 772)]",[],[1],[0.6],vertical,"(890.0, 262.0)",1.3,0.556,1,703.411,3,0.02,same
0,98,valid,"[(1140, 786)]",[],[1],[0.65],horizontal,"(890.0, 262.0)",0.95,0.611,1,709.883,3,0.02,same
0,99,valid,"[(1145, 785)]",[],[1],[0.55],horizontal,"(890.0, 762.0)",0.6833333333333333,0.511,1,716.106,3,0.02,same
0,100,valid,"[(1141, 794)]",[],[1],[0.48333333333333334],vertical,"(890.0, 262.0)",0.85,0.443,1,721.472,3,0.02,same
0,101,catch,"[(1142, 824)]",[],[1],[],vertical,"(390.0, 762.0)",1.7,nan,1,727.437,3,0.02,same
0,102,valid,"[(1146, 792)]",[],[1],[0.5833333333333334],vertical,"(890.0, 262.0)",0.9333333333333333,0.54,1,733.844,3,0.02,same
0,103,catch,"[(1150, 800)]",[],[1],[],horizontal,"(890.0, 762.0)",1.7,nan,1,739.344,3,0.02,same
0,104,valid,"[(1160, 771)]",[],[1],[0.48333333333333334],horizontal,"(390.0, 262.0)",1.1166666666666667,0.441,1,745.198,3,0.02,same
0,105,valid,"[(1149, 778)]",[],[1],[0.25],horizontal,"(890.0, 262.0)",1.4,0.214,1,750.96,3,0.02,same
0,106,valid,"[(1183, 792)]",[],[1],[],horizontal,"(390.0, 262.0)",,"('fix', 0.235)",0,757.327,0,0.02,same
0,107,valid,"[(1100, 799)]",[],[1],[0.3333333333333333],horizontal,"(390.0, 762.0)",1.05,0.298,1,759.222,1,0.02,same
0,108,catch,"[(1145, 769)]",[],[1],[],horizontal,"(390.0, 262.0)",1.7,nan,1,764.511,1,0.0,same
0,109,valid,"[(1140, 778)]",[],[1],[0.5333333333333333],horizontal,"(390.0, 762.0)",0.35,0.491,1,770.263,1,0.0,same
0,110,catch,"[(1155, 759)]",[],[1],[],horizontal,"(890.0, 762.0)",1.7,nan,1,774.785,2,0.0,same
0,111,valid,"[(1144, 788)]",[],[1],[0.6],vertical,"(390.0, 762.0)",0.48333333333333334,0.557,1,780.283,2,0.0,same
0,112,valid,"[(1140, 778)]",[],[1],[0.85],horizontal,"(390.0, 262.0)",0.6166666666666667,nan,0,785.094,0,0.0,same
0,113,valid,"[(1159, 783)]",[],[1],[0.45],vertical,"(390.0, 262.0)",1.05,0.406,1,789.349,1,0.0,same
0,114,catch,"[(1140, 801)]",[],[1],[],vertical,"(890.0, 762.0)",1.7,nan,1,794.826,1,0.0,same
0,115,valid,"[(1161, 779)]",[],[1],[0.4666666666666667],horizontal,"(890.0, 262.0)",1.3833333333333333,0.424,1,800.276,1,0.0,same
0,116,valid,"[(1123, 782)]",[],[1],[0.5166666666666666],vertical,"(890.0, 262.0)",1.3333333333333333,0.481,1,806.094,2,0.0,same
0,117,valid,"[(1155, 769)]",[],[1],[0.5],horizontal,"(390.0, 762.0)",0.85,0.473,1,811.794,2,0.0,same
0,118,catch,"[(1135, 799)]",[],[1],[],vertical,"(390.0, 762.0)",1.7,nan,1,816.988,2,0.0,same
0,119,valid,"[(1163, 779)]",[],[1],[0.5166666666666666],horizontal,"(890.0, 262.0)",1.3,0.475,1,822.93,3,0.0,same
0,120,valid,"[(1160, 784)]",[],[1],[0.5],vertical,"(890.0, 262.0)",1.4833333333333334,0.459,1,829.394,3,0.0,same
0,121,valid,"[(1160, 795)]",[],[1],[0.5333333333333333],vertical,"(890.0, 762.0)",0.5166666666666666,0.492,1,836.083,3,0.0,same
0,122,valid,"[(1160, 782)]",[],[1],[0.4666666666666667],vertical,"(390.0, 262.0)",1.5166666666666666,0.428,1,842.011,3,0.0,same
0,123,catch,"[(1145, 799)]",[],[1],[],horizontal,"(390.0, 762.0)",1.7,nan,1,848.778,3,0.0,same
0,124,valid,"[(1144, 801)]",[],[1],[0.7],horizontal,"(890.0, 262.0)",1.05,0.653,1,854.946,3,0.0,same
0,125,valid,"[(1130, 799)]",[],[1],[0.5166666666666666],vertical,"(890.0, 762.0)",0.55,0.477,1,861.283,3,0.0,same
0,126,catch,"[(1145, 812)]",[],[1],[],vertical,"(390.0, 262.0)",1.7,nan,1,866.683,3,0.0,same
0,127,catch,"[(1126, 773)]",[],[1],[],vertical,"(390.0, 762.0)",1.7,nan,1,872.86,3,0.0,same
0,128,valid,"[(1134, 776)]",[],[1],[0.5333333333333333],vertical,"(890.0, 762.0)",1.1833333333333333,0.487,1,878.962,3,0.0,same
0,129,catch,"[(1166, 799)]",[],[1],[],vertical,"(390.0, 262.0)",1.7,nan,1,884.707,3,0.0,same
0,130,valid,"[(1135, 799)]",[],[1],[0.55],horizontal,"(390.0, 262.0)",0.5666666666666667,0.508,1,890.738,3,0.0,same
0,131,valid,"[(1150, 773)]",[],[1],[0.6333333333333333],horizontal,"(390.0, 262.0)",0.4166666666666667,0.588,1,895.986,3,0.0,same
0,132,valid,"[(1165, 789)]",[],[1],[0.5166666666666666],horizontal,"(890.0, 762.0)",0.6,0.477,1,901.218,3,0.0,same
0,133,valid,"[(1137, 761)]",[],[1],[0.85],vertical,"(390.0, 262.0)",0.75,nan,0,906.688,0,0.0,same
0,134,valid,"[(1090, 790)]",[],[1],[0.4666666666666667],vertical,"(890.0, 262.0)",0.6666666666666666,0.426,1,911.749,1,0.0,same
0,135,valid,"[(1145, 783)]",[],[1],[0.6],horizontal,"(390.0, 762.0)",1.05,0.561,1,916.628,1,0.0,same
0,136,valid,"[(1138, 789)]",[],[1],[0.6166666666666667],horizontal,"(390.0, 262.0)",1.1666666666666667,0.576,1,921.995,1,0.0,same
0,137,invalid_adjacent_other_bar,"[(1165, 791)]",[],[1],[0.5],horizontal,"(390.0, 762.0)",1.2666666666666666,0.452,1,927.44,2,0.0,other
0,138,catch,"[(1145, 790)]",[],[1],[],horizontal,"(390.0, 762.0)",1.7,nan,1,933.473,2,0.0,same
0,139,valid,"[(1130, 776)]",[],[1],[0.5166666666666666],vertical,"(890.0, 262.0)",0.4666666666666667,0.476,1,939.147,2,0.0,same
0,140,valid,"[(1140, 778)]",[],[1],[0.6833333333333333],horizontal,"(890.0, 762.0)",1.2333333333333334,0.635,1,944.369,3,0.0,same
0,141,catch,"[(1145, 787)]",[],[1],[],horizontal,"(390.0, 762.0)",1.7,nan,1,950.579,3,0.0,same
0,142,catch,"[(1169, 801)]",[],[1],[],horizontal,"(890.0, 762.0)",1.7,nan,1,956.912,3,0.0,same
0,143,valid,"[(1160, 783)]",[],[1],[0.55],horizontal,"(890.0, 262.0)",0.8833333333333333,0.507,1,963.091,3,0.0,same
0,144,catch,"[(1155, 781)]",[],[1],[],vertical,"(890.0, 262.0)",1.7,nan,1,968.878,3,0.0,same
0,145,invalid_adjacent_other_bar,"[(1136, 786)]",[],[1],[0.6333333333333333],vertical,"(390.0, 262.0)",0.8166666666666667,0.591,1,975.095,3,0.0,other
0,146,invalid_same_bar,"[(1169, 803)]",[],[1],[0.5166666666666666],vertical,"(890.0, 762.0)",1.3166666666666667,0.477,1,981.347,3,0.0,same
0,147,valid,"[(1146, 791)]",[],[1],[0.5],vertical,"(390.0, 262.0)",0.5666666666666667,0.458,1,987.465,3,0.0,same
0,148,valid,"[(1156, 782)]",[],[1],[0.65],vertical,"(890.0, 262.0)",0.6833333333333333,0.607,1,993.293,3,0.0,same
0,149,invalid_same_bar,"[(1159, 760)]",[],[1],[0.85],horizontal,"(890.0, 762.0)",0.7833333333333333,nan,0,999.16,0,0.0,same
0,150,catch,"[(1145, 774)]",[],[1],[],horizontal,"(890.0, 262.0)",1.7,nan,1,1004.087,1,0.0,same
0,151,valid,"[(1158, 796)]",[],[1],[0.6166666666666667],horizontal,"(890.0, 762.0)",0.8333333333333334,0.571,1,1009.677,1,0.0,same
0,152,valid,"[(1161, 794)]",[],[1],[0.85],horizontal,"(390.0, 762.0)",1.1333333333333333,nan,0,1015.079,0,0.0,same
0,153,valid,"[(1086, 796)]",[],[1],[0.6],vertical,"(890.0, 762.0)",0.7,0.561,1,1019.864,1,0.0,same
0,154,valid,"[(1165, 799)]",[],[1],[0.5],horizontal,"(390.0, 262.0)",1.3666666666666667,0.458,1,1024.452,1,0.0,same
0,155,valid,"[(1167, 787)]",[],[1],[0.21666666666666667],horizontal,"(390.0, 762.0)",0.95,0.182,0,1029.865,0,0.0,same
0,156,catch,"[(1160, 791)]",[],[1],[],horizontal,"(390.0, 262.0)",,"('cti', 1.509),nan",0,1034.345,0,0.02,same
0,157,valid,"[(1086, 803)]",[],[1],[0.5833333333333334],horizontal,"(890.0, 762.0)",1.45,0.542,1,1039.077,1,0.02,same
0,158,valid,"[(1168, 792)]",[],[1],[0.6],horizontal,"(390.0, 762.0)",0.45,0.557,1,1044.772,1,0.02,same
0,159,valid,"[(1140, 776)]",[],[1],[0.5166666666666666],vertical,"(390.0, 762.0)",0.65,0.473,1,1049.658,1,0.02,same
0,160,catch,"[(1111, 770)]",[],[1],[],horizontal,"(890.0, 262.0)",1.7,nan,1,1054.56,2,0.02,same
0,161,valid,"[(1145, 779)]",[],[1],[0.55],vertical,"(390.0, 262.0)",1.1666666666666667,0.504,1,1060.393,2,0.02,same
0,162,valid,"[(1140, 812)]",[],[1],[0.5166666666666666],horizontal,"(890.0, 262.0)",0.4,0.471,1,1065.693,2,0.02,same
0,163,valid,"[(1145, 798)]",[],[1],[0.5833333333333334],vertical,"(890.0, 762.0)",0.85,0.536,1,1070.583,3,0.02,same
0,164,valid,"[(1138, 779)]",[],[1],[0.65],horizontal,"(390.0, 762.0)",0.6,0.603,1,1076.494,3,0.02,same
0,165,catch,"[(1160, 779)]",[],[1],[],vertical,"(390.0, 762.0)",1.7,nan,1,1082.277,3,0.02,same
0,166,valid,"[(1140, 777)]",[],[1],[0.65],horizontal,"(390.0, 262.0)",1.05,0.609,1,1088.295,3,0.02,same
0,167,catch,"[(1142, 811)]",[],[1],[],vertical,"(390.0, 262.0)",1.7,nan,1,1094.322,3,0.02,same
0,168,invalid_same_bar,"[(1115, 784)]",[],[1],[0.5],vertical,"(890.0, 262.0)",0.4666666666666667,0.458,1,1100.163,3,0.02,same
0,169,catch,"[(1162, 770)]",[],[1],[],vertical,"(390.0, 762.0)",1.7,nan,1,1105.929,3,0.02,same
0,170,valid,"[(1155, 768)]",[],[1],[0.85],vertical,"(390.0, 262.0)",0.5,nan,0,1111.911,0,0.02,same
0,171,valid,"[(1127, 768)]",[],[1],[0.45],horizontal,"(890.0, 762.0)",1.4333333333333333,0.412,1,1116.785,1,0.02,same
0,172,invalid_same_bar,"[(1140, 789)]",[],[1],[0.85],horizontal,"(390.0, 262.0)",1.2833333333333332,nan,0,1122.596,0,0.02,same
0,173,valid,"[(1086, 814)]",[],[1],[],horizontal,"(890.0, 762.0)",,"('cti', 1.097)",0,1127.71,0,0.02,same
0,174,invalid_adjacent_other_bar,"[(1071, 803)]",[],[1],[0.5166666666666666],vertical,"(890.0, 762.0)",0.6833333333333333,0.48,1,1131.825,1,0.02,other
0,175,valid,"[(1115, 792)]",[],[1],[0.5166666666666666],vertical,"(390.0, 762.0)",0.9833333333333333,0.471,1,1151.679,1,0.02,same
0,176,valid,"[(1135, 800)]",[],[1],[0.55],vertical,"(890.0, 762.0)",1.4833333333333334,0.504,1,1156.579,1,0.02,same
0,177,catch,"[(1090, 823)]",[],[1],[],horizontal,"(890.0, 262.0)",1.7,nan,1,1162.27,2,0.02,same
0,178,catch,"[(1165, 792)]",[],[1],[],vertical,"(890.0, 762.0)",1.7,nan,1,1168.494,2,0.02,same
0,179,valid,"[(1174, 800)]",[],[1],[0.5333333333333333],horizontal,"(890.0, 262.0)",0.4666666666666667,0.492,1,1174.326,2,0.02,same
0,180,valid,"[(1185, 784)]",[],[1],[0.5833333333333334],horizontal,"(890.0, 762.0)",0.6666666666666666,0.542,1,1179.712,3,0.02,same
0,181,invalid_same_bar,"[(1150, 786)]",[],[1],[0.85],horizontal,"(390.0, 262.0)",1.1666666666666667,nan,0,1184.828,0,0.02,same
0,182,valid,"[(1120, 765)]",[],[1],[0.5833333333333334],horizontal,"(390.0, 262.0)",0.3833333333333333,0.542,1,1189.811,1,0.02,same
0,183,valid,"[(1158, 774)]",[],[1],[0.5333333333333333],horizontal,"(390.0, 762.0)",0.5833333333333334,0.491,1,1194.895,1,0.02,same
0,184,catch,"[(1139, 772)]",[],[1],[],horizontal,"(890.0, 262.0)",1.7,nan,1,1199.422,1,0.02,same
0,185,valid,"[(1140, 772)]",[],[1],[0.5],vertical,"(390.0, 262.0)",0.8333333333333334,0.457,1,1204.653,2,0.02,same
0,186,valid,"[(1141, 791)]",[],[1],[0.5166666666666666],horizontal,"(890.0, 262.0)",0.75,0.472,1,1210.529,2,0.02,same
0,187,valid,"[(1145, 783)]",[],[1],[0.55],horizontal,"(390.0, 762.0)",0.45,0.509,1,1215.957,2,0.02,same
0,188,invalid_adjacent_other_bar,"[(1135, 771)]",[],[1],[0.5166666666666666],vertical,"(390.0, 762.0)",1.2833333333333332,0.471,1,1220.867,3,0.02,other
0,189,catch,"[(1140, 778)]",[],[1],[],vertical,"(390.0, 262.0)",1.7,nan,1,1227.112,3,0.02,same
0,190,valid,"[(1165, 801)]",[],[1],[0.6333333333333333],vertical,"(890.0, 262.0)",0.8,0.584,1,1233.644,3,0.02,same
0,191,valid,"[(1135, 808)]",[],[1],[0.5166666666666666],vertical,"(890.0, 762.0)",0.85,0.477,1,1239.879,3,0.02,same
0,192,valid,"[(1135, 787)]",[],[1],[0.65],vertical,"(890.0, 262.0)",1.1833333333333333,0.603,1,1245.557,3,0.02,same
0,193,valid,"[(1140, 750), (1143, 820)]",[],"[0, 1]",[0.6833333333333333],vertical,"(890.0, 762.0)",0.8,0.641,1,1251.918,3,0.02,same
0,194,valid,"[(1160, 766)]",[],[1],[0.5333333333333333],horizontal,"(890.0, 762.0)",0.4666666666666667,0.491,1,1258.994,3,0.02,same
0,195,valid,"[(1155, 815)]",[],[1],[0.6],vertical,"(890.0, 262.0)",0.6333333333333333,0.552,1,1264.328,3,0.02,same
0,196,valid,"[(1142, 763)]",[],[1],[0.7666666666666666],horizontal,"(890.0, 762.0)",1.0166666666666666,0.719,1,1270.513,3,0.02,same
0,197,valid,"[(1144, 788)]",[],[1],[0.5833333333333334],horizontal,"(890.0, 262.0)",0.5,0.541,1,1277.144,3,0.02,same
0,198,valid,"[(1165, 787)]",[],[1],[0.48333333333333334],horizontal,"(890.0, 262.0)",1.3666666666666667,0.44,1,1282.389,3,0.02,same
0,199,valid,"[(1155, 781)]",[],[1],[0.85],horizontal,"(390.0, 262.0)",1.0333333333333332,nan,0,1288.928,0,0.02,same
0,200,valid,"[(1136, 802)]",[],[1],[0.5166666666666666],horizontal,"(890.0, 762.0)",0.5666666666666667,0.474,1,1293.624,1,0.02,same
0,201,valid,"[(1136, 773)]",[],[1],[0.6333333333333333],vertical,"(390.0, 762.0)",1.45,0.592,1,1298.423,1,0.02,same
0,202,valid,"[(1135, 751), (1111, 817)]",[],"[0, 1]",[0.55],vertical,"(390.0, 262.0)",0.55,0.505,1,1304.128,1,0.02,same
0,203,valid,"[(1142, 776)]",[],[1],[0.5],vertical,"(390.0, 262.0)",0.5333333333333333,0.462,1,1311.121,2,0.02,same
0,204,catch,"[(1121, 803)]",[],[1],[],vertical,"(890.0, 262.0)",1.7,nan,1,1316.157,2,0.02,same
0,205,valid,"[(1115, 784)]",[],[1],[0.85],vertical,"(390.0, 262.0)",0.95,nan,0,1322.13,0,0.02,same
0,206,valid,"[(1141, 794)]",[],[1],[0.5666666666666667],horizontal,"(890.0, 762.0)",1.2833333333333332,0.526,1,1327.178,1,0.0,same
0,207,catch,"[(1153, 796)]",[],[1],[],vertical,"(890.0, 262.0)",1.7,nan,1,1332.478,1,0.0,same
0,208,catch,"[(1110, 779)]",[],[1],[],horizontal,"(890.0, 262.0)",1.7,nan,1,1338.044,1,0.0,same
0,209,valid,"[(1142, 769)]",[],[1],[0.65],horizontal,"(890.0, 262.0)",0.45,0.602,1,1343.212,2,0.0,same
0,210,valid,"[(1160, 757)]",[],[1],[0.5666666666666667],horizontal,"(890.0, 262.0)",1.2833333333333332,0.525,1,1348.93,2,0.0,same
0,211,catch,"[(1140, 792)]",[],[1],[],horizontal,"(890.0, 762.0)",1.7,nan,1,1354.486,2,0.0,same
0,212,valid,"[(1130, 789)]",[],[1],[0.5833333333333334],vertical,"(890.0, 762.0)",1.2833333333333332,0.543,1,1360.783,3,0.0,same
0,213,valid,"[(1105, 824)]",[],[1],[0.55],vertical,"(890.0, 262.0)",0.7166666666666667,0.509,1,1367.012,3,0.0,same
0,214,valid,"[(1137, 784)]",[],[1],[0.6166666666666667],horizontal,"(890.0, 762.0)",1.0333333333333332,0.576,1,1372.614,3,0.0,same
0,215,catch,"[(1150, 774)]",[],[1],[],vertical,"(390.0, 762.0)",1.7,nan,1,1378.484,3,0.0,same
0,216,catch,"[(1155, 767)]",[],[1],[],vertical,"(390.0, 262.0)",1.7,nan,1,1384.989,3,0.0,same
0,217,catch,"[(1142, 788)]",[],[1],[],horizontal,"(390.0, 262.0)",1.7,nan,1,1390.941,3,0.0,same
0,218,catch,"[(1141, 772)]",[],[1],[],horizontal,"(390.0, 262.0)",1.7,nan,1,1396.606,3,0.0,same
0,219,valid,"[(1140, 771)]",[],[1],[0.6833333333333333],horizontal,"(390.0, 262.0)",0.5333333333333333,0.641,1,1402.915,3,0.0,same
0,220,invalid_adjacent_other_bar,"[(1156, 769)]",[],[1],[0.5666666666666667],vertical,"(390.0, 762.0)",0.8166666666666667,0.522,1,1408.196,3,0.0,other
0,221,catch,"[(1153, 783)]",[],[1],[],vertical,"(390.0, 762.0)",1.7,nan,1,1413.918,3,0.0,same
0,222,valid,"[(1140, 757)]",[],[1],[0.5833333333333334],vertical,"(390.0, 762.0)",0.9166666666666666,0.541,1,1420.295,3,0.0,same
0,223,valid,"[(1162, 774)]",[],[1],[0.5666666666666667],vertical,"(890.0, 262.0)",0.7333333333333333,0.537,1,1426.888,3,0.0,same
0,224,valid,"[(1136, 794)]",[],[1],[0.5166666666666666],vertical,"(890.0, 762.0)",0.43333333333333335,0.476,1,1432.679,3,0.0,same
0,225,catch,"[(1122, 804)]",[],[1],[],horizontal,"(890.0, 762.0)",1.7,nan,1,1438.012,3,0.0,same
0,226,valid,"[(1123, 814)]",[],[1],[0.85],horizontal,"(390.0, 262.0)",0.48333333333333334,nan,0,1444.579,0,0.0,same
0,227,valid,"[(1111, 863)]",[],[1],[0.5166666666666666],vertical,"(890.0, 762.0)",0.7833333333333333,0.475,1,1448.701,1,0.0,same
0,228,valid,"[(1087, 785)]",[],[1],[0.6],vertical,"(390.0, 262.0)",1.4833333333333334,0.556,1,1514.232,1,0.0,same
0,229,valid,"[(1140, 809)]",[],[1],[0.5666666666666667],horizontal,"(390.0, 762.0)",1.1833333333333333,0.534,1,1520.161,1,0.0,same
0,230,catch,"[(1146, 801)]",[],[1],[],horizontal,"(390.0, 262.0)",1.7,nan,1,1525.962,2,0.0,same
0,231,valid,"[(1137, 785)]",[],[1],[0.5666666666666667],vertical,"(390.0, 762.0)",0.9,0.534,1,1532.041,2,0.0,same
0,232,valid,"[(1148, 799)]",[],[1],[0.5333333333333333],vertical,"(890.0, 262.0)",1.1333333333333333,0.495,1,1537.688,2,0.0,same
0,233,valid,"[(1140, 773)]",[],[1],[0.6666666666666666],horizontal,"(390.0, 762.0)",1.25,0.621,1,1543.58,3,0.0,same
0,234,valid,"[(1163, 780)]",[],[1],[0.55],horizontal,"(890.0, 262.0)",0.75,0.507,1,1550.009,3,0.0,same
0,235,valid,"[(1167, 785)]",[],[1],[0.5666666666666667],horizontal,"(390.0, 762.0)",0.9,0.522,1,1555.406,3,0.0,same
0,236,valid,"[(1146, 768)]",[],[1],[0.55],horizontal,"(890.0, 762.0)",0.5,0.513,1,1561.497,3,0.0,same
0,237,valid,"[(1166, 783)]",[],[1],[0.55],horizontal,"(890.0, 262.0)",1.4166666666666667,0.511,1,1566.797,3,0.0,same
0,238,catch,"[(1139, 811)]",[],[1],[],vertical,"(890.0, 262.0)",1.7,nan,1,1573.067,3,0.0,same
0,239,valid,"[(1076, 837)]",[],[1],[0.6666666666666666],vertical,"(890.0, 262.0)",1.3833333333333333,0.625,1,1579.294,3,0.0,same
0,240,valid,"[(1165, 777)]",[],[1],[0.7],vertical,"(890.0, 762.0)",0.5833333333333334,0.65,1,1585.596,3,0.0,same
0,241,invalid_adjacent_other_bar,"[(1155, 786)]",[],[1],[0.43333333333333335],vertical,"(890.0, 262.0)",1.3833333333333333,0.406,1,1591.547,3,0.0,other
0,242,valid,"[(1145, 801)]",[],[1],[0.5833333333333334],horizontal,"(390.0, 762.0)",1.1166666666666667,0.541,1,1597.901,3,0.0,same
0,243,valid,"[(1162, 780)]",[],[1],[0.7],horizontal,"(890.0, 762.0)",1.0833333333333333,0.654,1,1603.879,3,0.0,same
0,244,valid,"[(1146, 786)]",[],[1],[0.5666666666666667],horizontal,"(390.0, 762.0)",0.75,0.525,1,1610.263,3,0.0,same
0,245,valid,"[(1140, 782)]",[],[1],[0.6333333333333333],vertical,"(890.0, 762.0)",0.6833333333333333,0.588,1,1616.38,3,0.0,same
0,246,catch,"[(1089, 831)]",[],[1],[],horizontal,"(390.0, 262.0)",1.7,nan,1,1622.551,3,0.0,same
0,247,valid,"[(1105, 779)]",[],[1],[0.6833333333333333],horizontal,"(890.0, 262.0)",1.2666666666666666,0.647,1,1629.264,3,0.0,same
0,248,valid,"[(1086, 817)]",[],[1],[0.85],vertical,"(390.0, 262.0)",0.5166666666666666,nan,0,1635.571,0,0.0,same
0,249,valid,"[(1086, 814)]",[],[1],[0.5333333333333333],horizontal,"(890.0, 262.0)",0.8333333333333334,0.489,1,1639.896,1,0.0,same
0,250,valid,"[(1166, 783)]",[],[1],[0.5833333333333334],vertical,"(390.0, 262.0)",0.85,0.544,1,1646.874,1,0.0,same
0,251,valid,"[(1084, 850)]",[],[1],[0.5333333333333333],vertical,"(390.0, 762.0)",1.0833333333333333,0.494,1,1652.3,1,0.0,same
0,252,valid,"[(1140, 809)]",[],[1],[0.6333333333333333],horizontal,"(390.0, 762.0)",1.2333333333333334,0.592,1,1663.431,2,0.0,same
0,253,valid,"[(1155, 779)]",[],[1],[0.7166666666666667],horizontal,"(890.0, 262.0)",1.4833333333333334,0.671,1,1669.332,2,0.0,same
0,254,catch,"[(1152, 794)]",[],[1],[],vertical,"(890.0, 762.0)",1.7,nan,1,1675.246,2,0.0,same
0,255,invalid_adjacent_other_bar,"[(1145, 794)]",[],[1],[0.85],horizontal,"(890.0, 262.0)",0.48333333333333334,nan,0,1681.003,0,0.0,other
0,256,catch,"[(1115, 824)]",[],[1],[],vertical,"(890.0, 762.0)",1.7,nan,1,1686.097,1,0.0,same
0,257,catch,"[(1141, 775)]",[],[1],[0.03333333333333333],horizontal,"(390.0, 762.0)",1.7,"0.018,nan",0,1691.648,0,0.02,same
0,258,valid,"[(1131, 763)]",[],[1],[0.55],vertical,"(890.0, 262.0)",0.8666666666666667,0.506,1,1696.331,1,0.02,same
0,259,valid,"[(1146, 790)]",[],[1],[0.55],vertical,"(890.0, 262.0)",0.45,0.508,1,1701.147,1,0.02,same
0,260,valid,"[(1150, 765)]",[],[1],[0.5833333333333334],horizontal,"(390.0, 762.0)",1.45,0.538,1,1705.746,1,0.02,same
0,261,valid,"[(1169, 773)]",[],[1],[0.5166666666666666],vertical,"(890.0, 762.0)",1.0333333333333332,0.482,1,1711.463,2,0.02,same
0,262,catch,"[(1141, 799)]",[],[1],[],horizontal,"(390.0, 762.0)",1.7,nan,1,1716.88,2,0.02,same
0,263,valid,"[(1145, 778)]",[],[1],[0.6333333333333333],horizontal,"(390.0, 762.0)",0.8666666666666667,0.596,1,1722.263,2,0.02,same
0,264,valid,"[(1166, 772)]",[],[1],[0.5333333333333333],horizontal,"(390.0, 762.0)",1.45,0.5,1,1727.738,3,0.02,same
0,265,invalid_same_bar,"[(1162, 766)]",[],[1],[0.5166666666666666],vertical,"(390.0, 762.0)",1.1666666666666667,0.481,1,1733.997,3,0.02,same
0,266,valid,"[(1137, 779)]",[],[1],[0.5833333333333334],vertical,"(390.0, 262.0)",1.35,0.54,1,1739.982,3,0.02,same
0,267,valid,"[(1140, 791)]",[],[1],[0.4666666666666667],horizontal,"(890.0, 262.0)",1.4666666666666666,0.425,1,1745.951,3,0.02,same
0,268,valid,"[(1140, 779)]",[],[1],[0.6166666666666667],horizontal,"(890.0, 762.0)",0.48333333333333334,0.569,1,1752.296,3,0.02,same
0,269,valid,"[(1120, 792)]",[],[1],[0.85],vertical,"(890.0, 262.0)",0.6166666666666667,nan,0,1757.571,0,0.02,same
0,270,valid,"[(1160, 803)]",[],[1],[0.85],vertical,"(390.0, 262.0)",0.7333333333333333,nan,0,1762.597,0,0.02,same
0,271,catch,"[(1128, 817)]",[],[1],[0.03333333333333333],horizontal,"(390.0, 262.0)",1.7,"0.021,nan",0,1766.831,0,0.04,same
0,272,valid,"[(1105, 885)]",[],[1],[0.6166666666666667],horizontal,"(890.0, 262.0)",0.5833333333333334,0.571,1,1771.963,1,0.04,same
0,273,valid,"[(1155, 767)]",[],[1],[0.5333333333333333],horizontal,"(890.0, 762.0)",0.7,0.493,1,1852.433,1,0.04,same
0,274,valid,"[(1110, 813)]",[],[1],[0.5166666666666666],vertical,"(890.0, 762.0)",1.1166666666666667,0.474,1,1857.464,1,0.04,same
0,275,valid,"[(1140, 815)]",[],[1],[0.5],vertical,"(390.0, 762.0)",0.5166666666666666,0.461,1,1862.679,2,0.04,same
0,276,invalid_adjacent_other_bar,"[(1160, 793)]",[],[1],[0.7666666666666666],vertical,"(390.0, 762.0)",1.1833333333333333,0.727,1,1867.915,2,0.04,other
0,277,invalid_same_bar,"[(1127, 802)]",[],[1],[0.5666666666666667],vertical,"(890.0, 262.0)",0.36666666666666664,0.522,1,1874.0,2,0.04,same
0,278,invalid_same_bar,"[(1145, 804)]",[],[1],[0.8],vertical,"(390.0, 762.0)",0.43333333333333335,0.75,1,1878.723,3,0.04,same
0,279,valid,"[(1150, 770)]",[],[1],[0.5166666666666666],horizontal,"(890.0, 262.0)",0.4,0.477,1,1883.976,3,0.04,same
0,280,catch,"[(1121, 761)]",[],[1],[],vertical,"(890.0, 262.0)",1.7,nan,1,1888.91,3,0.04,same
0,281,valid,"[(1160, 813)]",[],[1],[0.6666666666666666],vertical,"(390.0, 262.0)",0.9166666666666666,0.621,1,1894.816,3,0.04,same
0,282,invalid_adjacent_other_bar,"[(1165, 795)]",[],[1],[0.7166666666666667],vertical,"(390.0, 262.0)",0.7166666666666667,0.673,1,1900.837,3,0.04,other
0,283,catch,"[(1160, 786)]",[],[1],[],horizontal,"(390.0, 762.0)",1.7,nan,1,1906.891,3,0.04,same
0,284,catch,"[(1120, 814)]",[],[1],[],vertical,"(890.0, 762.0)",1.7,nan,1,1912.731,3,0.04,same
0,285,valid,"[(1165, 808)]",[],[1],[0.3],vertical,"(390.0, 262.0)",1.3,0.263,1,1919.215,3,0.04,same
0,286,catch,"[(1154, 759)]",[],[1],[],vertical,"(390.0, 262.0)",1.7,nan,1,1925.145,3,0.04,same
0,287,valid,"[(1162, 769)]",[],[1],[0.5166666666666666],horizontal,"(890.0, 762.0)",0.35,0.477,1,1931.231,3,0.04,same
0,288,invalid_same_bar,"[(1135, 808)]",[],[1],[0.5333333333333333],horizontal,"(390.0, 762.0)",0.9833333333333333,0.487,1,1936.448,3,0.04,same
0,289,valid,"[(1120, 794)]",[],[1],[0.7],vertical,"(390.0, 762.0)",1.4833333333333334,0.658,1,1942.697,3,0.04,same
0,290,valid,"[(1165, 792)]",[],[1],[0.5166666666666666],vertical,"(890.0, 262.0)",0.5833333333333334,0.473,1,1949.014,3,0.04,same
0,291,valid,"[(1140, 782)]",[],[1],[0.75],vertical,"(890.0, 262.0)",1.0666666666666667,0.701,1,1954.812,3,0.04,same
0,292,invalid_adjacent_other_bar,"[(1144, 792)]",[],[1],[0.5],horizontal,"(390.0, 762.0)",1.2166666666666666,0.458,1,1961.047,3,0.04,other
0,293,valid,"[(1145, 818)]",[],[1],[0.85],vertical,"(390.0, 762.0)",0.48333333333333334,nan,0,1967.159,0,0.04,same
0,294,valid,"[(1112, 821)]",[],[1],[0.65],horizontal,"(390.0, 762.0)",1.1333333333333333,0.608,1,1971.848,1,0.04,same
0,295,valid,"[(1150, 813)]",[],[1],[0.5666666666666667],vertical,"(890.0, 762.0)",0.36666666666666664,0.521,1,1977.734,1,0.04,same
0,296,valid,"[(1148, 801)]",[],[1],[0.6],horizontal,"(890.0, 762.0)",1.25,0.559,1,1981.973,1,0.04,same
0,297,valid,"[(1146, 782)]",[],[1],[0.43333333333333335],horizontal,"(890.0, 762.0)",1.4166666666666667,0.392,1,1987.647,2,0.04,same
0,298,valid,"[(1111, 820)]",[],[1],[0.2833333333333333],vertical,"(390.0, 262.0)",0.9,0.243,1,1993.715,2,0.04,same
0,299,valid,"[(1141, 796)]",[],[1],[0.5333333333333333],vertical,"(890.0, 762.0)",0.75,0.493,1,2001.092,2,0.04,same
0,300,valid,"[(1139, 773)]",[],[1],[0.5666666666666667],horizontal,"(890.0, 762.0)",0.48333333333333334,0.52,1,2006.065,3,0.04,same
0,301,valid,"[(1140, 813)]",[],[1],[0.6666666666666666],vertical,"(890.0, 262.0)",1.4333333333333333,0.627,1,2011.889,3,0.04,same
0,302,valid,"[(1140, 806)]",[],[1],[0.85],horizontal,"(390.0, 262.0)",1.15,nan,0,2018.193,0,0.04,same
0,303,valid,"[(1158, 813)]",[],[1],[0.5166666666666666],vertical,"(390.0, 762.0)",0.8833333333333333,0.478,1,2023.13,1,0.04,same
0,304,catch,"[(1160, 788)]",[],[1],[],vertical,"(890.0, 262.0)",1.7,nan,1,2028.097,1,0.04,same
0,305,valid,"[(1140, 774)]",[],[1],[0.85],vertical,"(890.0, 262.0)",0.7166666666666667,nan,0,2033.417,0,0.04,same
0,306,valid,"[(1140, 787)]",[],[1],[0.5333333333333333],horizontal,"(390.0, 262.0)",0.55,0.497,1,2038.31,1,0.04,same
0,307,catch,"[(1161, 794)]",[],[1],[],horizontal,"(390.0, 762.0)",1.7,nan,1,2042.964,1,0.02,same
0,308,catch,"[(1160, 796)]",[],[1],[],vertical,"(890.0, 762.0)",1.7,nan,1,2048.565,1,0.02,same
0,309,invalid_adjacent_other_bar,"[(1140, 795)]",[],[1],[0.6333333333333333],vertical,"(890.0, 262.0)",1.4333333333333333,0.59,1,2053.526,2,0.02,other
0,310,catch,"[(1140, 791)]",[],[1],[],horizontal,"(890.0, 262.0)",1.7,nan,1,2060.063,2,0.02,same
0,311,catch,"[(1146, 776)]",[],[1],[],horizontal,"(390.0, 262.0)",,"('cti', 1.593),nan",0,2065.424,0,0.04,same
0,312,invalid_adjacent_other_bar,"[(1151, 817)]",[],[1],[0.5333333333333333],vertical,"(390.0, 262.0)",1.2666666666666666,0.489,1,2070.414,1,0.04,other
0,313,valid,"[(1138, 794)]",[],[1],[0.85],vertical,"(390.0, 262.0)",0.75,nan,0,2075.919,0,0.04,same
0,314,valid,"[(1115, 813)]",[],[1],[0.5333333333333333],horizontal,"(890.0, 262.0)",0.85,0.484,1,2080.599,1,0.04,same
0,315,invalid_same_bar,"[(1141, 764)]",[],[1],[0.25],horizontal,"(390.0, 262.0)",1.0166666666666666,0.217,1,2085.75,1,0.04,same
0,316,catch,"[(1089, 793)]",[],[1],[],horizontal,"(390.0, 262.0)",1.7,nan,1,2090.648,1,0.04,same
0,317,valid,"[(1086, 843)]",[],[1],[0.48333333333333334],vertical,"(390.0, 262.0)",1.1166666666666667,0.443,1,2097.499,2,0.04,same
0,318,valid,"[(1140, 790)]",[],[1],[0.7],vertical,"(390.0, 762.0)",0.6,0.668,1,2103.133,2,0.04,same
0,319,valid,"[(1120, 818)]",[],[1],[0.5166666666666666],horizontal,"(890.0, 262.0)",0.4666666666666667,0.483,1,2108.548,2,0.04,same
0,320,valid,"[(1141, 767)]",[],[1],[0.5666666666666667],vertical,"(390.0, 262.0)",1.0333333333333332,0.523,1,2113.507,3,0.04,same
0,321,valid,"[(1160, 779)]",[],[1],[0.55],horizontal,"(390.0, 262.0)",0.35,0.515,1,2120.014,3,0.02,same
0,322,valid,"[(1160, 769)]",[],[1],[0.5666666666666667],vertical,"(890.0, 762.0)",0.9,0.528,1,2125.296,3,0.02,same
0,323,valid,"[(1169, 779)]",[],[1],[0.5333333333333333],vertical,"(390.0, 762.0)",0.75,0.499,1,2131.074,3,0.02,same
0,324,catch,"[(1161, 769)]",[],[1],[],horizontal,"(890.0, 762.0)",1.7,nan,1,2136.865,3,0.02,same
0,325,catch,"[(1164, 794)]",[],[1],[],horizontal,"(390.0, 262.0)",1.7,nan,1,2142.782,3,0.02,same
0,326,catch,"[(1138, 823)]",[],[1],[],horizontal,"(890.0, 262.0)",1.7,nan,1,2149.082,3,0.02,same
0,327,valid,"[(1140, 779)]",[],[1],[0.85],horizontal,"(390.0, 762.0)",0.8333333333333334,nan,0,2155.094,0,0.02,same
0,328,invalid_adjacent_other_bar,"[(1115, 799)]",[],[1],[0.5166666666666666],vertical,"(390.0, 262.0)",0.6833333333333333,0.482,1,2159.445,1,0.02,other
0,329,invalid_adjacent_other_bar,"[(1165, 791)]",[],[1],[0.5666666666666667],vertical,"(390.0, 262.0)",1.45,0.524,1,2164.382,1,0.02,other
0,330,catch,"[(1115, 783)]",[],[1],[],horizontal,"(890.0, 262.0)",1.7,nan,1,2170.227,1,0.02,same
0,331,valid,"[(1143, 764)]",[],[1],[0.5166666666666666],horizontal,"(390.0, 762.0)",0.35,0.478,1,2175.516,2,0.02,same
0,332,valid,"[(1139, 801)]",[],[1],[0.6],vertical,"(390.0, 762.0)",0.48333333333333334,0.554,1,2181.048,2,0.02,same
0,333,invalid_same_bar,"[(1135, 779)]",[],[1],[0.55],vertical,"(390.0, 762.0)",0.35,0.508,1,2186.268,2,0.02,same
0,334,catch,"[(1120, 790)]",[],[1],[],horizontal,"(890.0, 762.0)",1.7,nan,1,2191.26,3,0.02,same
0,335,catch,"[(1131, 813)]",[],[1],[],vertical,"(390.0, 262.0)",,"('cti', 1.359),nan",0,2197.469,0,0.04,same
0,336,valid,"[(1085, 855)]",[],[1],[0.6],vertical,"(890.0, 262.0)",0.85,0.559,1,2202.321,1,0.04,same
0,337,valid,"[(1130, 816)]",[],[1],[0.85],horizontal,"(390.0, 262.0)",0.9666666666666667,nan,0,2306.832,0,0.04,same
0,338,valid,"[(1146, 813)]",[],[1],[0.4166666666666667],vertical,"(390.0, 262.0)",0.7833333333333333,0.384,1,2311.665,1,0.04,same
0,339,valid,"[(1137, 781)]",[],[1],[0.48333333333333334],vertical,"(390.0, 762.0)",1.0666666666666667,0.444,1,2316.658,1,0.04,same
0,340,valid,"[(1158, 794)]",[],[1],[0.4666666666666667],vertical,"(390.0, 762.0)",1.3666666666666667,0.426,1,2321.149,1,0.04,same
0,341,catch,"[(1156, 796)]",[],[1],[],horizontal,"(890.0, 262.0)",1.7,nan,1,2326.982,2,0.04,same
0,342,valid,"[(1160, 766)]",[],[1],[0.5],vertical,"(890.0, 762.0)",1.0333333333333332,0.468,1,2332.332,2,0.04,same
0,343,catch,"[(1140, 799)]",[],[1],[],horizontal,"(890.0, 262.0)",1.7,nan,1,2338.049,2,0.04,same
0,344,valid,"[(1136, 812)]",[],[1],[0.85],vertical,"(390.0, 762.0)",1.5166666666666666,nan,0,2343.393,0,0.04,same
0,345,invalid_adjacent_other_bar,"[(1150, 793)]",[],[1],[0.5333333333333333],vertical,"(390.0, 262.0)",1.0666666666666667,0.495,1,2348.524,1,0.04,other
0,346,catch,"[(1145, 792)]",[],[1],[],vertical,"(890.0, 262.0)",1.7,nan,1,2353.725,1,0.04,same
0,347,catch,"[(1157, 770)]",[],[1],[],vertical,"(390.0, 762.0)",1.7,nan,1,2359.059,1,0.04,same
0,348,valid,"[(1140, 790)]",[],[1],[0.5333333333333333],horizontal,"(390.0, 262.0)",0.45,0.497,1,2364.099,2,0.04,same
0,349,catch,"[(1164, 764)]",[],[1],[],horizontal,"(890.0, 262.0)",1.7,nan,1,2369.2,2,0.04,same
0,350,valid,"[(1140, 819)]",[],[1],[0.85],horizontal,"(890.0, 262.0)",0.85,nan,0,2374.913,0,0.04,same
0,351,catch,"[(1143, 796)]",[],[1],[],horizontal,"(390.0, 262.0)",1.7,nan,1,2379.334,1,0.04,same
0,352,valid,"[(1150, 792)]",[],[1],[0.5833333333333334],vertical,"(390.0, 262.0)",1.0166666666666666,0.549,1,2384.518,1,0.04,same
0,353,valid,"[(1046, 823)]",[],[1],[],horizontal,"(390.0, 262.0)",,"('cti', 0.848)",0,2389.486,0,0.04,same
0,354,invalid_same_bar,"[(1132, 849)]",[],[1],[0.5666666666666667],horizontal,"(890.0, 262.0)",0.65,0.53,1,2396.816,1,0.04,same
0,355,valid,"[(1148, 796)]",[],[1],[0.5166666666666666],vertical,"(890.0, 262.0)",0.45,0.473,1,2445.193,1,0.04,same
0,356,valid,"[(1147, 799)]",[],[1],[0.7333333333333333],horizontal,"(890.0, 762.0)",0.8833333333333333,0.689,1,2450.132,1,0.04,same
0,357,valid,"[(1166, 776)]",[],[1],[0.5166666666666666],vertical,"(890.0, 762.0)",0.6166666666666667,0.474,1,2455.991,2,0.04,same
0,358,valid,"[(1134, 765)]",[],[1],[0.5666666666666667],vertical,"(390.0, 762.0)",1.45,0.528,1,2461.421,2,0.04,same
0,359,valid,"[(1174, 802)]",[],[1],[0.5333333333333333],vertical,"(890.0, 262.0)",1.1,0.496,1,2467.315,2,0.04,same
0,360,valid,"[(1130, 786)]",[],[1],[0.6333333333333333],horizontal,"(890.0, 262.0)",1.4666666666666666,0.589,1,2473.25,3,0.04,same
0,361,catch,"[(1139, 783)]",[],[1],[],vertical,"(390.0, 262.0)",1.7,nan,1,2479.732,3,0.02,same
0,362,invalid_same_bar,"[(1156, 795)]",[],[1],[0.85],vertical,"(390.0, 262.0)",0.45,nan,0,2485.642,0,0.02,same
0,363,catch,"[(1144, 798)]",[],[1],[],vertical,"(890.0, 762.0)",1.7,nan,1,2490.116,1,0.02,same
0,364,valid,"[(1138, 817)]",[],[1],[0.5666666666666667],horizontal,"(390.0, 762.0)",0.9666666666666667,0.527,1,2495.744,1,0.02,same
0,365,valid,"[(1161, 766)]",[],[1],[0.5333333333333333],horizontal,"(890.0, 262.0)",0.8666666666666667,0.493,1,2500.888,1,0.02,same
0,366,invalid_adjacent_other_bar,"[(1086, 810)]",[],[1],[0.55],horizontal,"(890.0, 762.0)",0.55,0.507,1,2505.634,2,0.02,other
0,367,invalid_same_bar,"[(1115, 785)]",[],[1],[0.5166666666666666],horizontal,"(890.0, 262.0)",0.5,0.478,1,2511.117,2,0.02,same
0,368,catch,"[(1131, 783)]",[],[1],[],vertical,"(390.0, 262.0)",,"('cti', 1.625),nan",0,2517.0,0,0.04,same
0,369,valid,"[(1137, 801)]",[],[1],[0.5333333333333333],horizontal,"(890.0, 762.0)",0.3833333333333333,0.497,1,2522.016,1,0.04,same
0,370,catch,"[(1131, 800)]",[],[1],[],horizontal,"(890.0, 762.0)",1.7,nan,1,2526.582,1,0.04,same
0,371,valid,"[(1160, 791)]",[],[1],[0.5666666666666667],vertical,"(890.0, 262.0)",1.1833333333333333,0.526,1,2532.201,1,0.04,same
0,372,valid,"[(1137, 765)]",[],[1],[0.5333333333333333],horizontal,"(390.0, 762.0)",0.8,0.493,1,2537.774,2,0.04,same
0,373,valid,"[(1173, 785)]",[],[1],[0.48333333333333334],horizontal,"(890.0, 762.0)",1.4333333333333333,0.442,1,2543.015,2,0.04,same
0,374,valid,"[(1170, 786)]",[],[1],[0.4666666666666667],horizontal,"(890.0, 262.0)",0.5666666666666667,0.427,1,2548.948,2,0.04,same
0,375,valid,"[(1125, 818)]",[],[1],[0.85],horizontal,"(390.0, 262.0)",1.4666666666666666,nan,0,2553.886,0,0.04,same
0,376,invalid_adjacent_other_bar,"[(1131, 805)]",[],[1],[0.5666666666666667],vertical,"(890.0, 762.0)",0.4,0.525,1,2559.45,1,0.04,other
0,377,invalid_adjacent_other_bar,"[(1086, 859)]",[],[1],[0.48333333333333334],vertical,"(390.0, 762.0)",1.1166666666666667,0.441,1,2564.232,1,0.04,other
0,378,valid,"[(1147, 816)]",[],[1],[0.5333333333333333],vertical,"(390.0, 262.0)",0.9,0.491,1,2569.916,1,0.04,same
0,379,valid,"[(1135, 787)]",[],[1],[0.6333333333333333],horizontal,"(890.0, 262.0)",0.9166666666666666,0.586,1,2575.016,2,0.04,same
0,380,invalid_same_bar,"[(1141, 790)]",[],[1],[0.5333333333333333],vertical,"(390.0, 262.0)",0.45,0.494,1,2580.966,2,0.04,same
0,381,valid,"[(1137, 778)]",[],[1],[0.5166666666666666],vertical,"(390.0, 262.0)",1.0,0.48,1,2585.934,2,0.04,same
0,382,valid,"[(1161, 800)]",[],[1],[0.5166666666666666],vertical,"(390.0, 762.0)",0.55,0.48,1,2591.867,3,0.04,same
0,383,valid,"[(1163, 787)]",[],[1],[0.65],horizontal,"(890.0, 762.0)",1.1666666666666667,0.61,1,2597.683,3,0.04,same
0,384,invalid_adjacent_other_bar,"[(1163, 798)]",[],[1],[0.5666666666666667],vertical,"(890.0, 762.0)",0.85,0.528,1,2603.632,3,0.04,other
0,385,valid,"[(1140, 760)]",[],[1],[0.75],vertical,"(390.0, 262.0)",1.4166666666666667,0.709,1,2609.441,3,0.02,same
0,386,valid,"[(1162, 777)]",[],[1],[0.5166666666666666],vertical,"(890.0, 762.0)",0.6666666666666666,0.48,1,2615.886,3,0.02,same
0,387,catch,"[(1165, 787)]",[],[1],[],vertical,"(390.0, 262.0)",1.7,nan,1,2621.6,3,0.02,same
0,388,valid,"[(1120, 809)]",[],[1],[0.48333333333333334],horizontal,"(890.0, 262.0)",0.5333333333333333,0.445,1,2627.652,3,0.02,same
0,389,catch,"[(1155, 807)]",[],[1],[],vertical,"(390.0, 262.0)",1.7,nan,1,2632.932,3,0.02,same
0,390,valid,"[(1161, 782)]",[],[1],[0.45],vertical,"(890.0, 262.0)",1.5333333333333332,0.41,1,2639.415,3,0.02,same
0,391,valid,"[(1160, 784)]",[],[1],[0.4666666666666667],vertical,"(890.0, 262.0)",1.3166666666666667,0.434,1,2645.677,3,0.02,same
0,392,valid,"[(1160, 793)]",[],[1],[0.6833333333333333],horizontal,"(390.0, 262.0)",0.8166666666666667,0.636,1,2652.131,3,0.02,same
0,393,valid,"[(1137, 799)]",[],[1],[0.48333333333333334],vertical,"(890.0, 762.0)",1.5166666666666666,0.447,1,2657.94,3,0.02,same
0,394,invalid_same_bar,"[(1160, 800)]",[],[1],[0.11666666666666667],horizontal,"(390.0, 262.0)",1.5333333333333332,0.085,0,2664.533,0,0.02,same
0,395,catch,"[(1136, 817)]",[],[1],[],horizontal,"(890.0, 762.0)",1.7,nan,1,2669.534,1,0.02,same
0,396,catch,"[(1170, 773)]",[],[1],[],horizontal,"(390.0, 762.0)",1.7,nan,1,2674.714,1,0.02,same
0,397,catch,"[(1140, 779)]",[],[1],[],vertical,"(390.0, 262.0)",1.7,nan,1,2679.915,1,0.02,same
0,398,valid,"[(1165, 806)]",[],[1],[0.5666666666666667],vertical,"(890.0, 762.0)",0.55,0.525,1,2684.99,2,0.02,same
0,399,valid,"[(1131, 806)]",[],[1],[0.6333333333333333],horizontal,"(890.0, 262.0)",1.1,0.592,1,2689.793,2,0.02,same
0,400,catch,"[(1159, 783)]",[],[1],[],horizontal,"(890.0, 262.0)",1.7,nan,1,2695.606,2,0.02,same
0,401,catch,"[(1115, 794)]",[],[1],[],vertical,"(390.0, 262.0)",,"('cti', 1.536),nan",0,2701.521,0,0.04,same
0,402,catch,"[(1143, 799)]",[],[1],[],horizontal,"(390.0, 762.0)",1.7,nan,1,2706.596,1,0.04,same
0,403,catch,"[(1166, 804)]",[],[1],[],horizontal,"(890.0, 262.0)",1.7,nan,1,2711.366,1,0.04,same
0,404,invalid_adjacent_other_bar,"[(1165, 802)]",[],[1],[0.65],vertical,"(390.0, 762.0)",1.4333333333333333,0.618,1,2716.577,1,0.04,other
0,405,valid,"[(1160, 794)]",[],[1],[0.5666666666666667],vertical,"(390.0, 762.0)",0.5666666666666667,0.527,1,2722.453,2,0.04,same
0,406,valid,"[(1149, 764)]",[],[1],[0.5],horizontal,"(890.0, 262.0)",0.6,0.462,1,2727.377,2,0.04,same
0,407,valid,"[(1085, 800)]",[],[1],[0.5],vertical,"(890.0, 262.0)",0.5333333333333333,0.46,1,2732.52,2,0.04,same
0,408,valid,"[(1155, 801)]",[],[1],[0.5833333333333334],vertical,"(390.0, 762.0)",0.8666666666666667,0.538,1,2737.902,3,0.04,same
0,409,valid,"[(1132, 781)]",[],[1],[0.5333333333333333],vertical,"(390.0, 762.0)",1.2333333333333334,0.496,1,2743.677,3,0.04,same
0,410,valid,"[(1166, 786)]",[],[1],[0.85],vertical,"(390.0, 762.0)",0.65,nan,0,2749.95,0,0.04,same
0,411,invalid_same_bar,"[(1110, 838)]",[],[1],[0.6166666666666667],vertical,"(890.0, 762.0)",1.2,0.574,1,2754.856,1,0.04,same
0,412,valid,"[(1165, 779)]",[],[1],[0.5],vertical,"(890.0, 262.0)",0.8666666666666667,0.462,1,2766.317,1,0.04,same
0,413,valid,"[(1138, 813)]",[],[1],[0.55],vertical,"(890.0, 762.0)",0.4,0.505,1,2771.416,1,0.04,same
0,414,valid,"[(1084, 800)]",[],[1],[0.5333333333333333],vertical,"(890.0, 762.0)",1.2,0.498,1,2776.233,2,0.04,same
0,415,valid,"[(1140, 783)]",[],[1],[0.5166666666666666],horizontal,"(390.0, 762.0)",1.0833333333333333,0.48,1,2781.883,2,0.04,same
0,416,valid,"[(1135, 777)]",[],[1],[0.5333333333333333],horizontal,"(390.0, 262.0)",0.9,0.492,1,2787.451,2,0.04,same
0,417,valid,"[(1135, 820)]",[],[1],[0.5333333333333333],horizontal,"(390.0, 762.0)",0.48333333333333334,0.498,1,2793.376,3,0.04,same
0,418,invalid_same_bar,"[(1150, 777)]",[],[1],[0.5],horizontal,"(890.0, 262.0)",0.8,0.457,1,2798.634,3,0.02,same
0,419,valid,"[(1131, 763)]",[],[1],[0.5333333333333333],vertical,"(890.0, 262.0)",0.4166666666666667,0.493,1,2804.324,3,0.02,same
0,420,catch,"[(1120, 815)]",[],[1],[],horizontal,"(890.0, 262.0)",1.7,"('cti', 1.688),nan",0,2809.897,0,0.04,same
0,421,catch,"[(1136, 789)]",[],[1],[],horizontal,"(390.0, 762.0)",1.7,nan,1,2817.417,1,0.04,same
0,422,valid,"[(1133, 813)]",[],[1],[0.5333333333333333],vertical,"(390.0, 262.0)",1.0833333333333333,0.492,1,2822.424,1,0.04,same
0,423,valid,"[(1155, 789)]",[],[1],[0.55],horizontal,"(890.0, 762.0)",1.25,0.517,1,2827.535,1,0.04,same
0,424,catch,"[(1150, 782)]",[],[1],[],vertical,"(890.0, 762.0)",1.7,nan,1,2832.894,2,0.04,same
0,425,valid,"[(1128, 769)]",[],[1],[0.5166666666666666],vertical,"(890.0, 762.0)",0.85,0.481,1,2838.684,2,0.04,same
0,426,valid,"[(1133, 759)]",[],[1],[0.6],horizontal,"(890.0, 762.0)",0.6,0.559,1,2844.15,2,0.04,same
0,427,valid,"[(1135, 791)]",[],[1],[0.5166666666666666],vertical,"(390.0, 262.0)",0.75,0.478,1,2849.584,3,0.04,same
0,428,valid,"[(1162, 793)]",[],[1],[0.5666666666666667],vertical,"(890.0, 262.0)",0.5,0.524,1,2855.306,3,0.04,same
0,429,catch,"[(1160, 765)]",[],[1],[],vertical,"(890.0, 262.0)",1.7,nan,1,2860.885,3,0.04,same
0,430,catch,"[(1169, 786)]",[],[1],[],vertical,"(890.0, 762.0)",1.7,nan,1,2866.851,3,0.04,same
0,431,invalid_adjacent_other_bar,"[(1159, 770)]",[],[1],[0.5333333333333333],horizontal,"(890.0, 262.0)",0.3833333333333333,0.493,1,2872.785,3,0.04,other
0,432,catch,"[(1135, 794)]",[],[1],[],vertical,"(390.0, 262.0)",1.7,nan,1,2877.985,3,0.04,same
0,433,valid,"[(1135, 808)]",[],[1],[0.55],horizontal,"(390.0, 762.0)",0.8333333333333334,0.514,1,2884.484,3,0.04,same
0,434,valid,"[(1136, 797)]",[],[1],[0.36666666666666664],horizontal,"(890.0, 262.0)",1.4333333333333333,0.335,1,2890.385,3,0.04,same
0,435,valid,"[(1166, 777)]",[],[1],[0.7166666666666667],vertical,"(890.0, 262.0)",0.35,0.671,1,2896.85,3,0.04,same
0,436,valid,"[(1135, 794)]",[],[1],[0.5],horizontal,"(890.0, 262.0)",0.5166666666666666,0.457,1,2901.985,3,0.04,same
0,437,catch,"[(1049, 859)]",[],[1],[],vertical,"(890.0, 262.0)",1.7,nan,1,2907.035,3,0.04,same
0,438,catch,"[(1076, 824)]",[],[1],[],vertical,"(890.0, 262.0)",1.7,nan,1,2913.088,3,0.04,same
0,439,valid,"[(1120, 807)]",[],[1],[0.5666666666666667],horizontal,"(890.0, 262.0)",0.85,0.525,1,2919.542,3,0.04,same
0,440,valid,"[(1133, 762)]",[],[1],[0.4666666666666667],horizontal,"(390.0, 762.0)",1.25,0.433,1,2925.044,3,0.04,same
0,441,valid,"[(1080, 850)]",[],[1],[0.6166666666666667],horizontal,"(890.0, 262.0)",1.15,0.569,1,2931.367,3,0.04,same
0,442,catch,"[(1169, 789)]",[],[1],[],horizontal,"(390.0, 262.0)",1.7,nan,1,2937.702,3,0.04,same
0,443,valid,"[(1139, 782)]",[],[1],[0.6166666666666667],horizontal,"(890.0, 762.0)",0.6333333333333333,0.576,1,2944.058,3,0.04,same
0,444,valid,"[(1135, 813)]",[],[1],[0.48333333333333334],vertical,"(890.0, 262.0)",0.5333333333333333,0.45,1,2949.702,3,0.04,same
0,445,valid,"[(1160, 791)]",[],[1],[0.5333333333333333],vertical,"(390.0, 762.0)",0.9333333333333333,0.497,1,2955.318,3,0.04,same
0,446,valid,"[(1130, 815)]",[],[1],[0.08333333333333333],vertical,"(390.0, 762.0)",1.3333333333333333,0.051,0,2960.919,0,0.04,same
0,447,valid,"[(1135, 795)]",[],[1],[0.43333333333333335],vertical,"(390.0, 262.0)",1.4833333333333334,0.401,1,2965.669,1,0.04,same
0,448,valid,"[(1140, 785)]",[],[1],[0.5333333333333333],vertical,"(890.0, 262.0)",0.7666666666666666,0.5,1,2971.417,1,0.04,same
0,449,valid,"[(1135, 758)]",[],[1],[0.5166666666666666],horizontal,"(890.0, 762.0)",1.35,0.471,1,2975.951,1,0.04,same
0,450,valid,"[(1120, 824)]",[],[1],[0.5666666666666667],horizontal,"(390.0, 762.0)",0.5333333333333333,0.529,1,2981.051,2,0.04,same
0,451,invalid_adjacent_other_bar,"[(1135, 792)]",[],[1],[0.55],horizontal,"(390.0, 762.0)",0.4166666666666667,0.507,1,2985.977,2,0.02,other
0,452,valid,"[(1160, 792)]",[],[1],[0.5166666666666666],horizontal,"(890.0, 262.0)",0.6333333333333333,0.479,1,2991.223,2,0.02,same
0,453,invalid_adjacent_other_bar,"[(1135, 777)]",[],[1],[0.5166666666666666],vertical,"(890.0, 262.0)",1.0,0.476,1,2997.127,3,0.02,other
0,454,valid,"[(1136, 795)]",[],[1],[0.6166666666666667],vertical,"(890.0, 262.0)",1.0833333333333333,0.587,1,3003.418,3,0.02,same
0,455,valid,"[(1105, 808)]",[],[1],[0.5333333333333333],vertical,"(890.0, 762.0)",0.4,0.497,1,3009.568,3,0.02,same
0,456,catch,"[(1133, 786)]",[],[1],[],vertical,"(390.0, 262.0)",1.7,nan,1,3015.123,3,0.02,same
0,457,invalid_adjacent_other_bar,"[(1133, 804)]",[],[1],[0.6333333333333333],horizontal,"(390.0, 762.0)",0.48333333333333334,0.6,1,3021.409,3,0.02,other
0,458,valid,"[(1135, 785)]",[],[1],[0.5666666666666667],vertical,"(390.0, 762.0)",1.3833333333333333,0.53,1,3027.198,3,0.02,same
0,459,catch,"[(1131, 772)]",[],[1],[],horizontal,"(390.0, 762.0)",1.7,nan,1,3033.534,3,0.02,same
0,460,valid,"[(1109, 779)]",[],[1],[0.6666666666666666],horizontal,"(390.0, 762.0)",1.0833333333333333,0.634,1,3039.651,3,0.02,same
0,461,valid,"[(1135, 790)]",[],[1],[0.85],vertical,"(390.0, 262.0)",1.2,nan,0,3046.418,0,0.02,same
0,462,catch,"[(1072, 838)]",[],[1],[],vertical,"(390.0, 262.0)",1.7,nan,1,3051.869,1,0.02,same
0,463,valid,"[(1135, 837)]",[],[1],[0.4666666666666667],vertical,"(890.0, 262.0)",1.0333333333333332,0.428,1,3138.406,1,0.02,same
0,464,invalid_same_bar,"[(1110, 817)]",[],[1],[0.5333333333333333],vertical,"(890.0, 262.0)",1.4,0.492,1,3143.468,1,0.02,same
0,465,invalid_same_bar,"[(1160, 770)]",[],[1],[0.6333333333333333],horizontal,"(890.0, 262.0)",0.4166666666666667,0.586,1,3149.25,2,0.02,same
0,466,valid,"[(1146, 814)]",[],[1],[0.85],vertical,"(390.0, 762.0)",0.8833333333333333,nan,0,3153.866,0,0.02,same
0,467,invalid_same_bar,"[(1145, 789)]",[],[1],[0.6],horizontal,"(390.0, 262.0)",1.1,0.559,1,3158.672,1,0.02,same
0,468,valid,"[(1170, 782)]",[],[1],[0.5833333333333334],horizontal,"(390.0, 762.0)",1.3833333333333333,0.546,1,3164.02,1,0.02,same
0,469,valid,"[(1124, 803)]",[],[1],[0.5833333333333334],vertical,"(890.0, 262.0)",0.8,0.544,1,3169.629,1,0.02,same
0,470,catch,"[(1155, 794)]",[],[1],[],vertical,"(390.0, 262.0)",1.7,nan,1,3174.102,2,0.0,same
0,471,valid,"[(1165, 794)]",[],[1],[0.48333333333333334],horizontal,"(890.0, 262.0)",1.4166666666666667,0.449,1,3179.623,2,0.0,same
0,472,catch,"[(1161, 790)]",[],[1],[],vertical,"(890.0, 262.0)",1.7,nan,1,3185.802,2,0.0,same
0,473,valid,"[(1160, 806)]",[],[1],[0.5666666666666667],horizontal,"(890.0, 262.0)",1.2,0.522,1,3191.335,3,0.0,same
0,474,valid,"[(1159, 759)]",[],[1],[0.55],vertical,"(890.0, 762.0)",1.05,0.507,1,3197.601,3,0.0,same
0,475,valid,"[(1164, 797)]",[],[1],[0.5666666666666667],horizontal,"(390.0, 762.0)",0.6333333333333333,0.527,1,3203.935,3,0.0,same
0,476,valid,"[(1140, 791)]",[],[1],[0.5333333333333333],horizontal,"(390.0, 762.0)",1.3833333333333333,0.492,1,3209.286,3,0.0,same
0,477,invalid_adjacent_other_bar,"[(1158, 818)]",[],[1],[0.6],vertical,"(390.0, 762.0)",0.45,0.562,1,3215.233,3,0.0,other
0,478,catch,"[(1125, 818)]",[],[1],[],vertical,"(390.0, 262.0)",,"('cti', 1.428),nan",0,3220.869,0,0.02,same
0,479,valid,"[(1135, 791)]",[],[1],[0.48333333333333334],horizontal,"(890.0, 262.0)",1.05,0.443,1,3225.6,1,0.02,same
0,480,catch,"[(1130, 783)]",[],[1],[],vertical,"(890.0, 262.0)",1.7,nan,1,3230.402,1,0.02,same
0,481,valid,"[(1090, 845)]",[],[1],[0.6833333333333333],vertical,"(890.0, 762.0)",0.6,0.647,1,3235.818,1,0.02,same
0,482,valid,"[(1138, 824)]",[],[1],[0.6],vertical,"(390.0, 762.0)",0.43333333333333335,0.558,1,3285.985,2,0.02,same
0,483,valid,"[(1136, 804)]",[],[1],[0.6166666666666667],horizontal,"(890.0, 262.0)",1.15,0.583,1,3291.15,2,0.02,same
0,484,catch,"[(1140, 794)]",[],[1],[],vertical,"(890.0, 262.0)",1.7,nan,1,3296.735,2,0.02,same
0,485,catch,"[(1163, 780)]",[],[1],[],horizontal,"(390.0, 762.0)",1.7,nan,1,3302.418,3,0.02,same
0,486,catch,"[(1161, 791)]",[],[1],[],vertical,"(390.0, 762.0)",1.7,nan,1,3308.737,3,0.02,same
0,487,invalid_adjacent_other_bar,"[(1160, 781)]",[],[1],[0.48333333333333334],vertical,"(890.0, 262.0)",1.5333333333333332,0.445,1,3315.021,3,0.02,other
0,488,catch,"[(1160, 795)]",[],[1],[],horizontal,"(390.0, 762.0)",1.7,nan,1,3321.326,3,0.02,same
0,489,invalid_same_bar,"[(1140, 805)]",[],[1],[0.5],vertical,"(890.0, 262.0)",1.2,0.462,1,3327.552,3,0.02,same
0,490,valid,"[(1144, 819)]",[],[1],[0.5666666666666667],horizontal,"(890.0, 262.0)",0.55,0.529,1,3333.403,3,0.02,same
0,491,valid,"[(1140, 778)]",[],[1],[0.6666666666666666],vertical,"(390.0, 762.0)",1.3666666666666667,0.62,1,3338.893,3,0.02,same
0,492,valid,"[(1160, 761)]",[],[1],[0.55],horizontal,"(390.0, 262.0)",0.75,0.511,1,3345.069,3,0.02,same
0,493,catch,"[(1153, 778)]",[],[1],[],horizontal,"(890.0, 262.0)",,"('cti', 1.679),nan",0,3351.042,0,0.04,same
0,494,valid,"[(1140, 803)]",[],[1],[0.4],horizontal,"(890.0, 762.0)",1.3333333333333333,0.359,1,3356.202,1,0.04,same
0,495,valid,"[(1165, 818)]",[],[1],[0.55],vertical,"(890.0, 762.0)",0.9166666666666666,0.511,1,3361.701,1,0.04,same
0,496,invalid_same_bar,"[(1095, 823)]",[],[1],[0.5333333333333333],vertical,"(890.0, 262.0)",0.3833333333333333,0.496,1,3366.684,1,0.04,same
0,497,invalid_same_bar,"[(1160, 784)]","[(1048, 902)]",[1],[0.48333333333333334],horizontal,"(890.0, 262.0)",,"('bar', 0.496)",0,3371.241,0,0.04,same
0,498,catch,"[(1076, 837)]",[],[1],[],horizontal,"(890.0, 762.0)",1.7,nan,1,3373.803,1,0.04,same
0,499,valid,"[(1135, 814)]",[],[1],[0.5166666666666666],vertical,"(890.0, 262.0)",1.15,0.474,1,3379.603,1,0.04,same
0,500,valid,"[(1173, 769)]",[],[1],[0.5333333333333333],horizontal,"(890.0, 262.0)",0.5833333333333334,0.499,1,3385.153,1,0.04,same
0,501,catch,"[(1135, 814)]",[],[1],[],vertical,"(390.0, 762.0)",1.7,nan,1,3390.186,2,0.04,same
0,502,catch,"[(1062, 853)]",[],[1],[],vertical,"(390.0, 762.0)",1.7,nan,1,3395.719,2,0.04,same
0,503,valid,"[(1140, 789)]",[],[1],[0.5166666666666666],vertical,"(390.0, 262.0)",1.4666666666666666,0.473,1,3401.41,2,0.04,same
0,504,valid,"[(1121, 826)]",[],[1],[0.35],vertical,"(890.0, 762.0)",0.36666666666666664,0.312,1,3407.135,3,0.04,same
0,505,catch,"[(1145, 788)]",[],[1],[],horizontal,"(390.0, 762.0)",1.7,nan,1,3412.745,3,0.04,same
0,506,valid,"[(1108, 769)]",[],[1],[0.5333333333333333],vertical,"(390.0, 262.0)",1.0,0.493,1,3418.635,3,0.04,same
0,507,catch,"[(1120, 799)]",[],[1],[],horizontal,"(390.0, 262.0)",,"('cti', 0.97),nan",0,3424.231,0,0.06,same
0,508,valid,"[(1130, 869)]",[],[1],[0.7833333333333333],horizontal,"(390.0, 762.0)",0.5833333333333334,0.736,1,3428.47,1,0.06,same
0,509,valid,"[(1128, 782)]",[],[1],[0.55],horizontal,"(890.0, 762.0)",1.1666666666666667,0.509,1,3812.32,1,0.06,same
0,510,valid,"[(1150, 794)]",[],[1],[0.8],vertical,"(390.0, 762.0)",0.5666666666666667,0.751,1,3817.684,1,0.06,same
0,511,valid,"[(1163, 782)]",[],[1],[0.4666666666666667],horizontal,"(890.0, 262.0)",1.4833333333333334,0.43,1,3822.688,2,0.06,same
0,512,valid,"[(1115, 820)]",[],[1],[0.65],horizontal,"(390.0, 762.0)",0.7,0.607,1,3828.416,2,0.06,same
0,513,catch,"[(1135, 774)]",[],[1],[],vertical,"(390.0, 262.0)",1.7,nan,1,3834.124,2,0.06,same
0,514,valid,"[(1145, 790)]",[],[1],[0.5],horizontal,"(390.0, 262.0)",0.4,0.459,1,3839.37,3,0.06,same
0,515,valid,"[(1173, 808)]",[],[1],[0.65],horizontal,"(390.0, 262.0)",1.3,0.601,1,3844.553,3,0.06,same
0,516,valid,"[(1171, 824)]",[],[1],[0.6166666666666667],horizontal,"(890.0, 762.0)",1.35,0.571,1,3850.931,3,0.06,same
0,517,catch,"[(1141, 816)]",[],[1],[],vertical,"(390.0, 262.0)",1.7,nan,1,3857.371,3,0.06,same
0,518,valid,"[(1145, 819)]",[],[1],[0.5166666666666666],horizontal,"(890.0, 762.0)",0.48333333333333334,0.473,1,3863.816,3,0.06,same
0,519,catch,"[(1011, 883)]","[(983, 901)]",[1],[0.95],vertical,"(390.0, 262.0)",,"('bar', 0.949),nan",0,3868.942,0,0.08,same
0,520,valid,"[(1120, 813)]",[],[1],[],vertical,"(890.0, 262.0)",,"('cti', 1.067)",0,3872.704,0,0.08,same
0,521,valid,"[(1139, 819)]",[],[1],[0.3833333333333333],horizontal,"(390.0, 762.0)",1.4666666666666666,0.344,1,3877.437,1,0.08,same
0,522,catch,"[(1174, 777)]",[],[1],[],horizontal,"(390.0, 762.0)",1.7,nan,1,3882.986,1,0.08,same
0,523,valid,"[(1175, 787)]",[],[1],[],horizontal,"(390.0, 762.0)",,"('cti', 1.352)",0,3887.847,0,0.08,same
0,524,valid,"[(1131, 787)]",[],[1],[0.48333333333333334],horizontal,"(390.0, 262.0)",0.7666666666666666,0.441,1,3892.705,1,0.08,same
0,525,catch,"[(1168, 761)]",[],[1],[],vertical,"(390.0, 762.0)",1.7,nan,1,3897.606,1,0.08,same
0,526,invalid_same_bar,"[(1170, 772)]",[],[1],[0.48333333333333334],horizontal,"(390.0, 262.0)",0.9166666666666666,0.447,1,3902.711,1,0.08,same
0,527,valid,"[(1140, 783)]",[],[1],[0.65],horizontal,"(890.0, 262.0)",1.1166666666666667,0.605,1,3907.396,2,0.08,same
0,528,valid,"[(1168, 784)]",[],[1],[0.4666666666666667],horizontal,"(890.0, 262.0)",1.4333333333333333,0.424,1,3913.075,2,0.06,same
0,529,catch,"[(1186, 789)]",[],[1],[],vertical,"(890.0, 262.0)",1.7,nan,1,3918.571,2,0.06,same
0,530,valid,"[(1172, 808)]",[],[1],[0.6],horizontal,"(890.0, 262.0)",0.8,0.557,1,3924.086,3,0.06,same
0,531,catch,"[(1170, 787)]",[],[1],[],vertical,"(890.0, 762.0)",1.7,nan,1,3930.124,3,0.06,same
0,532,invalid_adjacent_other_bar,"[(1178, 779)]",[],[1],[0.65],vertical,"(890.0, 762.0)",0.4,0.605,1,3936.491,3,0.06,other
0,533,invalid_adjacent_other_bar,"[(1175, 778)]",[],[1],[0.6],vertical,"(390.0, 762.0)",0.6333333333333333,0.555,1,3941.689,3,0.06,other
0,534,valid,"[(1165, 794)]",[],[1],[0.5333333333333333],horizontal,"(390.0, 762.0)",1.3166666666666667,0.492,1,3947.349,3,0.06,same
0,535,catch,"[(1170, 790)]",[],[1],[],vertical,"(390.0, 762.0)",1.7,nan,1,3953.84,3,0.06,same
0,536,valid,"[(1170, 793)]",[],[1],[0.5],horizontal,"(890.0, 762.0)",0.9333333333333333,0.462,1,3960.171,3,0.06,same
0,537,catch,"[(1135, 796)]",[],[1],[],vertical,"(390.0, 262.0)",1.7,nan,1,3965.988,3,0.06,same
0,538,catch,"[(1165, 772)]",[],[1],[],horizontal,"(890.0, 762.0)",,"('cti', 1.5),nan",0,3972.004,0,0.08,same
0,539,valid,"[(1117, 830)]",[],[1],[0.5166666666666666],horizontal,"(390.0, 762.0)",1.1333333333333333,0.477,1,3976.472,1,0.08,same
0,540,valid,"[(1138, 788)]",[],[1],[0.5833333333333334],horizontal,"(390.0, 762.0)",0.55,0.544,1,3981.905,1,0.08,same
0,541,valid,"[(1160, 752), (1120, 818)]",[],"[0, 1]",[0.45],horizontal,"(390.0, 762.0)",1.5333333333333332,0.415,1,3986.841,1,0.08,same
0,542,invalid_same_bar,"[(1160, 813)]",[],[1],[0.55],horizontal,"(390.0, 262.0)",0.7,0.503,1,3994.354,2,0.08,same
0,543,valid,"[(1115, 804)]",[],[1],[0.4666666666666667],vertical,"(890.0, 262.0)",1.4,0.429,1,3999.865,2,0.06,same
0,544,valid,"[(1111, 800)]",[],[1],[0.6333333333333333],vertical,"(390.0, 262.0)",0.9333333333333333,0.603,1,4005.553,2,0.06,same
0,545,catch,"[(1159, 794)]",[],[1],[],horizontal,"(390.0, 262.0)",1.7,nan,1,4011.287,3,0.06,same
0,546,valid,"[(1046, 888)]",[],[1],[0.8166666666666667],horizontal,"(390.0, 262.0)",0.7833333333333333,0.771,1,4017.238,3,0.06,same
0,547,valid,"[(1150, 806)]",[],[1],[0.6],horizontal,"(390.0, 262.0)",1.2833333333333332,0.553,1,4024.056,3,0.06,same
0,548,valid,"[(1086, 780)]",[],[1],[0.5166666666666666],horizontal,"(390.0, 262.0)",0.8,0.471,1,4030.157,3,0.06,same
0,549,catch,"[(1110, 794)]",[],[1],[],vertical,"(390.0, 762.0)",1.7,nan,1,4035.959,3,0.06,same
0,550,catch,"[(1086, 823)]",[],[1],[],vertical,"(890.0, 262.0)",1.7,nan,1,4042.439,3,0.06,same
0,551,catch,"[(1139, 798)]",[],[1],[],vertical,"(390.0, 262.0)",1.7,nan,1,4048.19,3,0.06,same
0,552,invalid_adjacent_other_bar,"[(1113, 825)]",[],[1],[0.5666666666666667],horizontal,"(890.0, 262.0)",1.2166666666666666,0.525,1,4054.521,3,0.06,other
0,553,catch,"[(1115, 791)]",[],[1],[],vertical,"(390.0, 762.0)",1.7,nan,1,4060.444,3,0.06,same
0,554,catch,"[(1111, 825)]",[],[1],[],vertical,"(890.0, 262.0)",1.7,nan,1,4066.705,3,0.06,same
0,555,valid,"[(1111, 828)]",[],[1],[0.7333333333333333],horizontal,"(890.0, 262.0)",1.3,0.686,1,4072.394,3,0.06,same
0,556,valid,"[(1130, 802)]",[],[1],[0.6333333333333333],vertical,"(890.0, 762.0)",0.55,0.582,1,4078.871,3,0.06,same
0,557,valid,"[(1120, 797)]",[],[1],[0.5333333333333333],horizontal,"(390.0, 762.0)",0.4166666666666667,0.492,1,4084.388,3,0.04,same
0,558,valid,"[(1129, 801)]",[],[1],[0.55],horizontal,"(890.0, 762.0)",0.75,0.504,1,4089.872,3,0.04,same
0,559,catch,"[(1136, 804)]",[],[1],[],horizontal,"(390.0, 262.0)",1.7,nan,1,4095.671,3,0.04,same
0,560,catch,"[(1120, 794)]",[],[1],[],vertical,"(890.0, 262.0)",1.7,nan,1,4101.984,3,0.04,same
0,561,catch,"[(1165, 796)]",[],[1],[],horizontal,"(390.0, 762.0)",1.7,nan,1,4107.871,3,0.04,same
0,562,valid,"[(1076, 862)]",[],[1],[0.85],horizontal,"(390.0, 262.0)",0.9666666666666667,nan,0,4113.866,0,0.04,same
0,563,valid,"[(1087, 818)]",[],[1],[0.55],vertical,"(890.0, 262.0)",1.0,0.506,1,4118.882,1,0.04,same
0,564,catch,"[(1115, 826)]",[],[1],[],horizontal,"(890.0, 262.0)",1.7,nan,1,4123.854,1,0.04,same
0,565,valid,"[(1115, 778)]",[],[1],[0.5333333333333333],vertical,"(390.0, 762.0)",1.2333333333333334,0.49,1,4129.004,1,0.04,same
0,566,valid,"[(1134, 792)]",[],[1],[0.7],horizontal,"(390.0, 262.0)",1.2166666666666666,0.658,1,4134.014,2,0.04,same
0,567,catch,"[(1117, 796)]",[],[1],[],horizontal,"(390.0, 762.0)",1.7,nan,1,4139.744,2,0.04,same
0,568,valid,"[(1135, 823)]",[],[1],[0.55],vertical,"(390.0, 262.0)",0.7,0.504,1,4145.589,2,0.04,same
0,569,catch,"[(1127, 807)]",[],[1],[],vertical,"(890.0, 762.0)",1.7,nan,1,4150.434,3,0.02,same
0,570,valid,"[(1110, 789)]",[],[1],[0.48333333333333334],vertical,"(890.0, 262.0)",0.5166666666666666,0.444,1,4156.689,3,0.02,same
0,571,valid,"[(1127, 782)]",[],[1],[0.5],vertical,"(390.0, 262.0)",0.7833333333333333,0.456,1,4161.955,3,0.02,same
0,572,valid,"[(1133, 811)]",[],[1],[0.55],horizontal,"(390.0, 762.0)",0.5,0.506,1,4167.172,3,0.02,same
0,573,valid,"[(1165, 780)]",[],[1],[0.6166666666666667],horizontal,"(890.0, 762.0)",0.6,0.583,1,4172.614,3,0.02,same
0,574,valid,"[(1137, 783)]",[],[1],[0.5166666666666666],horizontal,"(390.0, 262.0)",0.9833333333333333,0.479,1,4178.054,3,0.02,same
0,575,valid,"[(1158, 781)]",[],[1],[0.5333333333333333],horizontal,"(890.0, 762.0)",1.15,0.495,1,4184.123,3,0.02,same
0,576,valid,"[(1123, 821)]",[],[1],[0.45],vertical,"(390.0, 262.0)",1.5333333333333332,0.415,1,4190.049,3,0.02,same
0,577,valid,"[(1160, 799)]",[],[1],[0.55],vertical,"(390.0, 762.0)",1.4,0.504,1,4196.628,3,0.02,same
0,578,catch,"[(1089, 808)]",[],[1],[],vertical,"(390.0, 262.0)",1.7,nan,1,4202.487,3,0.02,same
0,579,invalid_adjacent_other_bar,"[(1137, 780)]",[],[1],[0.7333333333333333],vertical,"(890.0, 762.0)",1.0333333333333332,0.695,1,4208.814,3,0.02,other
0,580,valid,"[(1158, 796)]",[],[1],[0.6833333333333333],horizontal,"(390.0, 762.0)",1.4166666666666667,0.638,1,4214.805,3,0.02,same
0,581,valid,"[(1135, 808)]",[],[1],[0.4666666666666667],horizontal,"(890.0, 262.0)",1.4833333333333334,0.427,1,4221.576,3,0.02,same
0,582,catch,"[(1120, 785)]",[],[1],[],vertical,"(390.0, 762.0)",1.7,nan,1,4228.205,3,0.02,same
0,583,valid,"[(1140, 779)]",[],[1],[0.55],horizontal,"(890.0, 762.0)",1.4666666666666666,0.51,1,4234.438,3,0.02,same
0,584,valid,"[(1132, 814)]",[],[1],[0.7],horizontal,"(390.0, 762.0)",0.36666666666666664,0.654,1,4240.967,3,0.02,same
0,585,valid,"[(1135, 799)]",[],[1],[0.5166666666666666],vertical,"(890.0, 262.0)",0.48333333333333334,0.478,1,4246.373,3,0.02,same
0,586,valid,"[(1120, 793)]",[],[1],[0.5],horizontal,"(390.0, 262.0)",0.5333333333333333,0.465,1,4251.805,3,0.02,same
0,587,valid,"[(1134, 798)]",[],[1],[0.55],horizontal,"(390.0, 262.0)",1.1166666666666667,0.513,1,4257.556,3,0.02,same
0,588,catch,"[(1140, 789)]",[],[1],[],vertical,"(390.0, 762.0)",1.7,nan,1,4263.355,3,0.0,same
0,589,catch,"[(1130, 794)]",[],[1],[],vertical,"(890.0, 762.0)",1.7,nan,1,4269.463,3,0.0,same
0,590,catch,"[(1120, 791)]",[],[1],[],vertical,"(890.0, 762.0)",1.7,nan,1,4274.971,3,0.0,same
0,591,valid,"[(1130, 795)]",[],[1],[0.5333333333333333],horizontal,"(390.0, 262.0)",0.55,0.489,1,4280.922,3,0.0,same
0,592,valid,"[(1141, 823)]",[],[1],[0.5333333333333333],horizontal,"(890.0, 262.0)",1.3833333333333333,0.488,1,4286.423,3,0.0,same
0,593,valid,"[(1140, 795)]",[],[1],[0.7],horizontal,"(890.0, 262.0)",0.4666666666666667,0.657,1,4292.469,3,0.0,same
0,594,valid,"[(1133, 794)]",[],[1],[0.5833333333333334],horizontal,"(390.0, 762.0)",0.3833333333333333,0.539,1,4298.147,3,0.0,same
0,595,valid,"[(1135, 794)]",[],[1],[0.7],horizontal,"(390.0, 762.0)",1.2166666666666666,0.655,1,4303.464,3,0.0,same
0,596,valid,"[(1120, 794)]",[],[1],[0.6666666666666666],horizontal,"(390.0, 762.0)",1.1166666666666667,0.621,1,4309.963,3,0.0,same
0,597,valid,"[(1120, 822)]",[],[1],[0.5333333333333333],vertical,"(890.0, 762.0)",1.3333333333333333,0.492,1,4316.003,3,0.0,same
0,598,valid,"[(1130, 794)]",[],[1],[0.5333333333333333],vertical,"(890.0, 262.0)",0.9666666666666667,0.491,1,4322.423,3,0.0,same
0,599,valid,"[(1153, 772)]",[],[1],[0.5833333333333334],horizontal,"(390.0, 762.0)",1.25,0.543,1,4328.139,3,0.0,same
0,600,valid,"[(1168, 820)]",[],[1],[0.5333333333333333],horizontal,"(390.0, 762.0)",0.65,0.491,1,4334.169,3,0.0,same
0,601,invalid_adjacent_other_bar,"[(1141, 789)]",[],[1],[0.4166666666666667],vertical,"(390.0, 262.0)",1.4,0.376,1,4339.368,3,0.0,other
0,602,valid,"[(1135, 799)]",[],[1],[0.6166666666666667],vertical,"(890.0, 262.0)",0.4666666666666667,0.574,1,4345.472,3,0.0,same
0,603,valid,"[(1135, 790)]",[],[1],[0.5833333333333334],vertical,"(390.0, 762.0)",0.7833333333333333,0.538,1,4350.787,3,0.0,same
0,604,valid,"[(1124, 787)]",[],[1],[0.5],horizontal,"(390.0, 762.0)",1.1666666666666667,0.457,1,4356.199,3,0.0,same
0,605,valid,"[(1113, 819)]",[],[1],[0.5666666666666667],horizontal,"(390.0, 262.0)",1.2333333333333334,0.523,1,4362.552,3,0.0,same
0,606,valid,"[(1134, 790)]",[],[1],[0.65],horizontal,"(390.0, 262.0)",1.3,0.605,1,4368.939,3,0.0,same
0,607,valid,"[(1081, 846)]",[],[1],[0.5166666666666666],horizontal,"(390.0, 762.0)",0.6666666666666666,0.48,1,4375.007,3,0.0,same
0,608,valid,"[(1134, 806)]",[],[1],[0.5666666666666667],vertical,"(390.0, 762.0)",1.1333333333333333,0.526,1,4380.705,3,0.0,same
0,609,valid,"[(1132, 792)]",[],[1],[],vertical,"(890.0, 262.0)",,"('cti', 1.379)",0,4386.644,0,0.0,same
0,610,valid,"[(1090, 850)]",[],[1],[0.48333333333333334],vertical,"(890.0, 262.0)",1.2833333333333332,0.444,1,4391.355,1,0.0,same
0,611,valid,"[(1180, 787)]",[],[1],[],vertical,"(890.0, 762.0)",,"('cti', 0.373)",0,4431.393,0,0.0,same
0,612,valid,"[(1138, 824)]",[],[1],[0.5333333333333333],horizontal,"(390.0, 262.0)",0.7166666666666667,0.494,1,4434.573,1,0.0,same
0,613,valid,"[(1161, 774)]",[],[1],[0.5666666666666667],horizontal,"(390.0, 262.0)",0.9,0.523,1,4439.826,1,0.0,same
0,614,catch,"[(1165, 765)]",[],[1],[],horizontal,"(390.0, 262.0)",1.7,nan,1,4444.669,1,0.0,same
0,615,valid,"[(1139, 799)]",[],[1],[0.5666666666666667],vertical,"(390.0, 762.0)",0.4166666666666667,0.527,1,4449.7,2,0.0,same
0,616,catch,"[(1166, 794)]",[],[1],[],vertical,"(890.0, 762.0)",1.7,nan,1,4455.03,2,0.0,same
0,617,valid,"[(1144, 784)]",[],[1],[0.6833333333333333],horizontal,"(390.0, 262.0)",0.9333333333333333,0.635,1,4460.518,2,0.0,same
0,618,valid,"[(1140, 800)]",[],[1],[0.6],vertical,"(390.0, 262.0)",1.4333333333333333,0.562,1,4466.541,3,0.0,same
0,619,invalid_adjacent_other_bar,"[(1165, 782)]",[],[1],[0.65],horizontal,"(890.0, 762.0)",1.1833333333333333,0.604,1,4473.04,3,0.0,other
0,620,valid,"[(1157, 786)]",[],[1],[0.5333333333333333],vertical,"(390.0, 262.0)",0.5166666666666666,0.488,1,4479.351,3,0.0,same
0,621,valid,"[(1165, 790)]",[],[1],[0.55],horizontal,"(890.0, 762.0)",1.1333333333333333,0.504,1,4484.988,3,0.0,same
0,622,invalid_same_bar,"[(1183, 785)]",[],[1],[0.5666666666666667],horizontal,"(390.0, 762.0)",0.8666666666666667,0.525,1,4491.2,3,0.0,same
0,623,valid,"[(1168, 792)]",[],[1],[0.5333333333333333],vertical,"(890.0, 762.0)",1.2,0.492,1,4496.889,3,0.0,same
0,624,valid,"[(1164, 803)]",[],[1],[0.6],horizontal,"(890.0, 762.0)",1.35,0.562,1,4503.015,3,0.0,same
0,625,valid,"[(1135, 779)]",[],[1],[0.48333333333333334],vertical,"(390.0, 262.0)",0.48333333333333334,0.45,1,4509.48,3,0.0,same
0,626,catch,"[(1193, 797)]",[],[1],[],horizontal,"(890.0, 762.0)",1.7,nan,1,4514.44,3,0.0,same
0,627,valid,"[(1156, 779)]",[],[1],[0.55],horizontal,"(890.0, 762.0)",0.9666666666666667,0.507,1,4520.216,3,0.0,same
0,628,catch,"[(1140, 808)]",[],[1],[],horizontal,"(890.0, 262.0)",1.7,nan,1,4525.874,3,0.0,same
0,629,catch,"[(1151, 792)]",[],[1],[],horizontal,"(890.0, 762.0)",1.7,nan,1,4532.064,3,0.0,same
0,630,catch,"[(1156, 776)]",[],[1],[],horizontal,"(890.0, 262.0)",1.7,nan,1,4537.909,3,0.0,same
0,631,valid,"[(1159, 802)]",[],[1],[0.5333333333333333],vertical,"(890.0, 762.0)",0.7,0.49,1,4543.673,3,0.0,same
0,632,valid,"[(1156, 789)]",[],[1],[0.5],horizontal,"(890.0, 762.0)",0.5833333333333334,0.458,1,4549.085,3,0.0,same
0,633,valid,"[(1159, 793)]",[],[1],[0.55],vertical,"(390.0, 762.0)",0.45,0.503,1,4554.423,3,0.0,same
0,634,catch,"[(1155, 786)]",[],[1],[],vertical,"(390.0, 762.0)",1.7,nan,1,4559.989,3,0.0,same
0,635,valid,"[(1163, 779)]",[],[1],[0.6],vertical,"(390.0, 762.0)",1.2,0.555,1,4566.073,3,0.0,same
0,636,valid,"[(1155, 779)]",[],[1],[0.6833333333333333],horizontal,"(890.0, 262.0)",1.2666666666666666,0.639,1,4572.173,3,0.0,same
0,637,valid,"[(1159, 793)]",[],[1],[0.5166666666666666],horizontal,"(390.0, 762.0)",0.9,0.473,1,4578.389,3,0.0,same
0,638,valid,"[(1131, 784)]",[],[1],[0.5],vertical,"(390.0, 262.0)",0.48333333333333334,0.458,1,4584.39,3,0.0,same
0,639,catch,"[(1167, 786)]",[],[1],[],horizontal,"(390.0, 262.0)",,"('cti', 1.596),nan",0,4590.021,0,0.02,same
0,640,valid,"[(1109, 819)]",[],[1],[0.5166666666666666],horizontal,"(390.0, 762.0)",0.3833333333333333,0.477,1,4595.002,1,0.02,same
0,641,valid,"[(1086, 842)]",[],[1],[0.5833333333333334],horizontal,"(390.0, 762.0)",0.6833333333333333,0.542,1,4599.718,1,0.02,same
0,642,valid,"[(1145, 835)]",[],[1],[0.6],vertical,"(390.0, 762.0)",0.7666666666666666,0.565,1,5039.964,1,0.02,same
0,643,valid,"[(1090, 795)]",[],[1],[0.5666666666666667],horizontal,"(890.0, 262.0)",0.45,0.524,1,5044.977,2,0.02,same
0,644,valid,"[(1172, 806)]",[],[1],[0.5333333333333333],horizontal,"(390.0, 762.0)",1.4,0.493,1,5050.325,2,0.02,same
0,645,valid,"[(1143, 791)]",[],[1],[0.85],horizontal,"(390.0, 262.0)",0.9,nan,0,5056.39,0,0.02,same
0,646,catch,"[(1119, 824)]",[],[1],[],vertical,"(890.0, 762.0)",1.7,nan,1,5061.26,1,0.02,same
0,647,invalid_same_bar,"[(1168, 781)]",[],[1],[0.5333333333333333],vertical,"(390.0, 262.0)",0.4,0.495,1,5066.628,1,0.02,same
0,648,invalid_same_bar,"[(1163, 786)]",[],[1],[0.5166666666666666],vertical,"(890.0, 762.0)",0.7333333333333333,0.475,1,5070.908,1,0.02,same
0,649,invalid_same_bar,"[(1099, 826)]",[],[1],[0.6666666666666666],vertical,"(890.0, 262.0)",0.9,0.626,1,5075.83,2,0.02,same
0,650,valid,"[(1145, 786)]",[],[1],[0.5833333333333334],vertical,"(390.0, 262.0)",0.4166666666666667,0.545,1,5081.441,2,0.02,same
0,651,catch,"[(1155, 781)]",[],[1],[],horizontal,"(390.0, 762.0)",1.7,nan,1,5086.168,2,0.02,same
0,652,invalid_adjacent_other_bar,"[(1159, 800)]",[],[1],[0.5333333333333333],vertical,"(890.0, 262.0)",0.36666666666666664,0.489,1,5092.075,3,0.02,other
0,653,catch,"[(1165, 792)]",[],[1],[],vertical,"(390.0, 262.0)",1.7,nan,1,5097.459,3,0.02,same
0,654,invalid_adjacent_other_bar,"[(1170, 778)]",[],[1],[0.85],horizontal,"(390.0, 262.0)",1.1333333333333333,nan,0,5103.483,0,0.02,other
0,655,catch,"[(1160, 804)]",[],[1],[],vertical,"(390.0, 262.0)",1.7,nan,1,5108.328,1,0.02,same
0,656,valid,"[(1092, 796)]",[],[1],[0.85],vertical,"(390.0, 262.0)",0.5333333333333333,nan,0,5113.984,0,0.02,same
0,657,valid,"[(1140, 792)]",[],[1],[0.85],horizontal,"(390.0, 262.0)",0.9333333333333333,nan,0,5118.177,0,0.02,same
0,658,valid,"[(1170, 789)]",[],[1],[0.75],vertical,"(390.0, 762.0)",1.0,0.71,1,5122.905,1,0.02,same
0,659,valid,"[(1180, 802)]",[],[1],[0.55],horizontal,"(390.0, 762.0)",1.2666666666666666,0.511,1,5128.392,1,0.02,same
0,660,valid,"[(1122, 813)]",[],[1],[0.5166666666666666],horizontal,"(890.0, 262.0)",0.3833333333333333,0.475,1,5133.808,1,0.02,same
0,661,invalid_adjacent_other_bar,"[(1169, 789)]",[],[1],[0.6],horizontal,"(390.0, 762.0)",0.5666666666666667,0.564,1,5139.059,2,0.02,other
0,662,valid,"[(1164, 788)]",[],[1],[0.5],horizontal,"(390.0, 262.0)",0.6333333333333333,0.463,1,5144.03,2,0.02,same
0,663,valid,"[(1164, 783)]",[],[1],[0.5333333333333333],vertical,"(890.0, 762.0)",0.9333333333333333,0.492,1,5149.225,2,0.02,same
0,664,valid,"[(1083, 845)]",[],[1],[0.4666666666666667],horizontal,"(390.0, 762.0)",1.2666666666666666,0.425,1,5154.276,3,0.02,same
0,665,valid,"[(1178, 802)]",[],[1],[0.85],horizontal,"(890.0, 762.0)",0.4,nan,0,5161.296,0,0.02,same
0,666,valid,"[(1116, 798)]",[],[1],[0.5],horizontal,"(890.0, 262.0)",1.3166666666666667,0.458,1,5165.625,1,0.02,same
0,667,valid,"[(1141, 800)]",[],[1],[0.4],horizontal,"(890.0, 262.0)",1.4333333333333333,0.358,1,5171.184,1,0.02,same
0,668,valid,"[(1180, 799)]",[],[1],[0.5666666666666667],vertical,"(890.0, 262.0)",0.7,0.522,1,5176.809,1,0.02,same
0,669,valid,"[(1160, 809)]",[],[1],[0.5333333333333333],horizontal,"(390.0, 262.0)",0.9666666666666667,0.498,1,5181.952,2,0.02,same
0,670,valid,"[(1115, 807)]",[],[1],[0.5166666666666666],vertical,"(890.0, 262.0)",0.8666666666666667,0.477,1,5187.626,2,0.02,same
0,671,catch,"[(1157, 794)]",[],[1],[],vertical,"(390.0, 762.0)",1.7,nan,1,5193.176,2,0.02,same
0,672,valid,"[(1160, 806)]",[],[1],[0.5166666666666666],horizontal,"(390.0, 262.0)",0.7333333333333333,0.476,1,5199.038,3,0.02,same
0,673,valid,"[(1157, 798)]",[],[1],[0.4],horizontal,"(390.0, 762.0)",1.3166666666666667,0.36,1,5204.816,3,0.02,same
0,674,valid,"[(1180, 760)]",[],[1],[0.6333333333333333],vertical,"(890.0, 262.0)",0.5,0.59,1,5211.065,3,0.02,same
0,675,valid,"[(1165, 788)]",[],[1],[0.85],horizontal,"(390.0, 762.0)",0.85,nan,0,5216.525,0,0.02,same
0,676,valid,"[(1121, 813)]",[],[1],[0.45],vertical,"(890.0, 262.0)",1.2166666666666666,0.415,1,5221.158,1,0.02,same
0,677,catch,"[(1114, 854)]",[],[1],[],horizontal,"(390.0, 762.0)",1.7,nan,1,5226.309,1,0.02,same
0,678,valid,"[(1131, 831)]",[],[1],[0.55],vertical,"(390.0, 262.0)",1.3333333333333333,0.517,1,5635.4,1,0.02,same
0,679,valid,"[(1132, 818)]",[],[1],[0.85],horizontal,"(390.0, 762.0)",0.35,nan,0,5641.111,0,0.02,same
0,680,valid,"[(1135, 818)]",[],[1],[0.5166666666666666],vertical,"(890.0, 262.0)",0.9833333333333333,0.477,1,5645.477,1,0.02,same
0,681,valid,"[(1152, 808)]",[],[1],[0.5166666666666666],vertical,"(890.0, 762.0)",0.6833333333333333,0.484,1,5650.577,1,0.02,same
0,682,catch,"[(1140, 808)]",[],[1],[],vertical,"(890.0, 762.0)",1.7,nan,1,5655.013,1,0.02,same
0,683,catch,"[(1141, 823)]",[],[1],[],horizontal,"(390.0, 762.0)",1.7,nan,1,5660.278,2,0.02,same
0,684,valid,"[(1148, 794)]",[],[1],[0.85],horizontal,"(890.0, 762.0)",1.2333333333333334,nan,0,5666.348,0,0.02,same
0,685,catch,"[(1150, 795)]",[],[1],[],horizontal,"(390.0, 262.0)",1.7,nan,1,5671.068,1,0.02,same
0,686,valid,"[(1135, 776)]",[],[1],[0.45],vertical,"(390.0, 262.0)",1.5166666666666666,0.419,1,5676.195,1,0.02,same
0,687,valid,"[(1155, 794)]",[],[1],[0.85],vertical,"(390.0, 762.0)",0.5,nan,0,5681.702,0,0.02,same
0,688,catch,"[(1155, 808)]",[],[1],[],horizontal,"(890.0, 762.0)",,"('cti', 1.596),nan",0,5685.928,0,0.04,same
0,689,catch,"[(1162, 804)]",[],[1],[],horizontal,"(390.0, 262.0)",1.7,nan,1,5690.627,1,0.02,same
0,690,valid,"[(1155, 792)]",[],[1],[0.85],horizontal,"(390.0, 262.0)",1.15,nan,0,5695.56,0,0.02,same
0,691,invalid_same_bar,"[(1120, 797)]",[],[1],[0.6333333333333333],horizontal,"(890.0, 262.0)",0.36666666666666664,0.595,1,5700.427,1,0.02,same
0,692,valid,"[(1168, 779)]",[],[1],[0.4666666666666667],vertical,"(890.0, 262.0)",0.9166666666666666,0.434,1,5704.727,1,0.02,same
0,693,catch,"[(1162, 796)]",[],[1],[],vertical,"(890.0, 762.0)",1.7,nan,1,5709.475,1,0.02,same
0,694,valid,"[(1091, 800)]",[],[1],[0.5],horizontal,"(390.0, 262.0)",1.0833333333333333,0.462,1,5714.927,2,0.02,same
0,695,valid,"[(1155, 764)]",[],[1],[0.5],vertical,"(390.0, 762.0)",1.3666666666666667,0.463,1,5721.033,2,0.02,same
0,696,valid,"[(1138, 786)]",[],[1],[0.5],horizontal,"(390.0, 762.0)",1.3166666666666667,0.463,1,5726.727,2,0.02,same
0,697,valid,"[(1135, 794)]",[],[1],[0.5],horizontal,"(890.0, 762.0)",0.6666666666666666,0.459,1,5732.428,3,0.02,same
0,698,catch,"[(1170, 789)]",[],[1],[],vertical,"(890.0, 262.0)",1.7,nan,1,5737.868,3,0.02,same
0,699,valid,"[(1197, 792)]",[],[1],[0.5],vertical,"(390.0, 762.0)",1.0666666666666667,0.461,1,5743.998,3,0.02,same
0,700,valid,"[(1086, 802)]",[],[1],[0.48333333333333334],vertical,"(390.0, 262.0)",0.4666666666666667,0.446,1,5750.074,3,0.02,same
0,701,valid,"[(1123, 776)]",[],[1],[0.85],vertical,"(390.0, 762.0)",1.1833333333333333,nan,0,5754.994,0,0.02,same
0,702,invalid_same_bar,"[(1131, 802)]",[],[1],[0.5333333333333333],vertical,"(390.0, 262.0)",0.7166666666666667,0.495,1,5760.092,1,0.02,same
0,703,invalid_adjacent_other_bar,"[(1086, 789)]",[],[1],[0.5666666666666667],horizontal,"(890.0, 262.0)",1.35,0.525,1,5764.761,1,0.02,other
0,704,catch,"[(1170, 782)]",[],[1],[],horizontal,"(390.0, 762.0)",1.7,nan,1,5770.851,1,0.02,same
0,705,catch,"[(1137, 801)]",[],[1],[],vertical,"(390.0, 262.0)",1.7,nan,1,5776.146,2,0.02,same
0,706,catch,"[(1160, 785)]",[],[1],[],vertical,"(890.0, 262.0)",1.7,nan,1,5781.838,2,0.02,same
0,707,invalid_same_bar,"[(1086, 785)]",[],[1],[0.5166666666666666],vertical,"(890.0, 762.0)",0.8166666666666667,0.472,1,5787.365,2,0.02,same
0,708,valid,"[(1148, 789)]",[],[1],[0.6333333333333333],vertical,"(890.0, 762.0)",0.7833333333333333,0.595,1,5792.878,3,0.02,same
0,709,valid,"[(1165, 798)]",[],[1],[0.5166666666666666],vertical,"(390.0, 262.0)",0.8,0.479,1,5798.928,3,0.02,same
0,710,valid,"[(1116, 786)]",[],[1],[0.6833333333333333],horizontal,"(390.0, 262.0)",0.9833333333333333,0.637,1,5804.613,3,0.02,same
0,711,catch,"[(1170, 783)]",[],[1],[],vertical,"(890.0, 762.0)",1.7,nan,1,5810.345,3,0.02,same
0,712,valid,"[(1135, 828)]",[],[1],[],horizontal,"(890.0, 262.0)",,"('fix', 0.252)",0,5816.427,0,0.02,same
0,713,valid,"[(1141, 811)]",[],[1],[0.5166666666666666],vertical,"(890.0, 262.0)",1.4166666666666667,0.48,1,5818.444,1,0.02,same
0,714,valid,"[(1118, 813)]",[],[1],[0.5],vertical,"(390.0, 762.0)",0.7333333333333333,0.461,1,5823.527,1,0.02,same
0,715,catch,"[(1141, 800)]",[],[1],[],vertical,"(390.0, 262.0)",1.7,nan,1,5828.339,1,0.02,same
0,716,valid,"[(1135, 769)]",[],[1],[0.45],horizontal,"(890.0, 262.0)",1.25,0.412,1,5833.962,2,0.02,same
0,717,valid,"[(1145, 786)]",[],[1],[0.5],vertical,"(390.0, 762.0)",0.9166666666666666,0.459,1,5839.894,2,0.02,same
0,718,valid,"[(1115, 817)]",[],[1],[0.5166666666666666],horizontal,"(390.0, 762.0)",0.5166666666666666,0.481,1,5844.911,2,0.02,same
0,719,valid,"[(1166, 808)]",[],[1],[0.3833333333333333],horizontal,"(390.0, 262.0)",1.5,0.339,1,5849.934,3,0.02,same
0,720,valid,"[(1160, 782)]",[],[1],[0.5333333333333333],horizontal,"(890.0, 762.0)",0.5166666666666666,0.491,1,5856.512,3,0.02,same
0,721,catch,"[(1160, 794)]",[],[1],[],horizontal,"(390.0, 262.0)",1.7,nan,1,5861.526,3,0.02,same
0,722,valid,"[(1135, 795)]",[],[1],[0.4666666666666667],vertical,"(390.0, 762.0)",1.3,0.429,1,5867.37,3,0.02,same
0,723,valid,"[(1165, 783)]",[],[1],[0.5666666666666667],vertical,"(890.0, 262.0)",0.5333333333333333,0.525,1,5873.636,3,0.02,same
0,724,catch,"[(1165, 765)]",[],[1],[],horizontal,"(390.0, 262.0)",1.7,nan,1,5879.323,3,0.02,same
0,725,valid,"[(1160, 782)]",[],[1],[0.6166666666666667],vertical,"(890.0, 262.0)",1.0333333333333332,0.579,1,5885.655,3,0.02,same
0,726,catch,"[(1135, 808)]",[],[1],[],vertical,"(390.0, 762.0)",1.7,nan,1,5891.662,3,0.02,same
0,727,catch,"[(1160, 789)]",[],[1],[],horizontal,"(390.0, 762.0)",1.7,nan,1,5897.907,3,0.02,same
0,728,valid,"[(1135, 792)]",[],[1],[0.6333333333333333],horizontal,"(890.0, 262.0)",0.48333333333333334,0.6,1,5903.929,3,0.02,same
0,729,catch,"[(1150, 779)]",[],[1],[],horizontal,"(390.0, 262.0)",1.7,nan,1,5909.112,3,0.02,same
0,730,valid,"[(1169, 799)]",[],[1],[0.7666666666666666],horizontal,"(390.0, 262.0)",1.45,0.728,1,5914.943,3,0.02,same
0,731,valid,"[(1131, 815)]",[],[1],[0.5666666666666667],horizontal,"(890.0, 262.0)",1.3666666666666667,0.529,1,5921.745,3,0.02,same
0,732,valid,"[(1142, 789)]",[],[1],[0.5833333333333334],horizontal,"(890.0, 262.0)",0.5333333333333333,0.541,1,5928.212,3,0.02,same
0,733,valid,"[(1138, 797)]",[],[1],[0.48333333333333334],vertical,"(890.0, 262.0)",1.0666666666666667,0.444,1,5933.815,3,0.02,same
0,734,valid,"[(1135, 778)]",[],[1],[0.5333333333333333],horizontal,"(390.0, 262.0)",0.9333333333333333,0.498,1,5939.712,3,0.02,same
0,735,valid,"[(1162, 799)]",[],[1],[0.5833333333333334],vertical,"(890.0, 262.0)",1.1,0.535,1,5945.929,3,0.02,same
0,736,valid,"[(1102, 792)]",[],[1],[0.48333333333333334],horizontal,"(390.0, 262.0)",0.8166666666666667,0.446,1,5952.193,3,0.02,same
0,737,catch,"[(1124, 780)]",[],[1],[],vertical,"(390.0, 762.0)",1.7,nan,1,5957.654,3,0.02,same
0,738,catch,"[(1136, 778)]",[],[1],[],horizontal,"(390.0, 762.0)",1.7,nan,1,5963.912,3,0.0,same
0,739,catch,"[(1135, 804)]",[],[1],[],vertical,"(890.0, 262.0)",1.7,nan,1,5970.195,3,0.0,same
0,740,valid,"[(1140, 787)]",[],[1],[0.48333333333333334],horizontal,"(890.0, 262.0)",1.35,0.445,1,5976.102,3,0.0,same
0,741,catch,"[(1132, 790)]",[],[1],[],horizontal,"(890.0, 762.0)",1.7,nan,1,5982.029,3,0.0,same
0,742,valid,"[(1142, 785)]",[],[1],[0.5166666666666666],vertical,"(890.0, 762.0)",1.4833333333333334,0.481,1,5988.394,3,0.0,same
0,743,valid,"[(1138, 803)]",[],[1],[0.5333333333333333],vertical,"(890.0, 762.0)",0.8666666666666667,0.497,1,5994.629,3,0.0,same
0,744,valid,"[(1120, 818)]",[],[1],[0.5333333333333333],horizontal,"(890.0, 762.0)",1.05,0.493,1,6000.755,3,0.0,same
0,745,catch,"[(1140, 803)]",[],[1],[],horizontal,"(890.0, 762.0)",1.7,nan,1,6006.541,3,0.0,same
0,746,valid,"[(1140, 777)]",[],[1],"[0.85, 0.85]",horizontal,"(390.0, 762.0)",0.8833333333333333,"0.808,nan",0,6012.646,0,0.0,same
0,747,invalid_same_bar,"[(1089, 849)]",[],[1],[0.23333333333333334],horizontal,"(890.0, 262.0)",1.2833333333333332,0.2,1,6017.36,1,0.0,same
0,748,valid,"[(1148, 811)]",[],[1],[0.5],horizontal,"(890.0, 762.0)",0.7833333333333333,0.462,1,6137.968,1,0.0,same
0,749,catch,"[(1143, 791)]",[],[1],[],horizontal,"(890.0, 262.0)",1.7,nan,1,6143.052,1,0.0,same
0,750,valid,"[(1161, 799)]",[],[1],[0.7833333333333333],vertical,"(890.0, 762.0)",0.8,0.752,1,6148.379,2,0.0,same
0,751,invalid_same_bar,"[(1135, 792)]",[],[1],[0.5833333333333334],vertical,"(390.0, 262.0)",1.0666666666666667,0.545,1,6154.151,2,0.0,same
0,752,valid,"[(1162, 780)]",[],[1],[0.85],vertical,"(390.0, 262.0)",0.7166666666666667,nan,0,6159.731,0,0.0,same
0,753,valid,"[(1140, 790)]",[],[1],[0.48333333333333334],vertical,"(890.0, 262.0)",1.3833333333333333,0.454,1,6164.485,1,0.0,same
0,754,valid,"[(1142, 792)]",[],[1],[0.55],horizontal,"(390.0, 262.0)",0.4666666666666667,0.526,1,6169.568,1,0.0,same
0,755,valid,"[(1160, 778)]",[],[1],[0.5166666666666666],vertical,"(890.0, 262.0)",0.7833333333333333,0.48,1,6174.126,1,0.0,same
0,756,valid,"[(1160, 784)]",[],[1],[0.5166666666666666],vertical,"(890.0, 762.0)",1.5333333333333332,0.476,1,6179.243,2,0.0,same
0,757,valid,"[(1140, 820)]",[],[1],[0.5166666666666666],vertical,"(390.0, 762.0)",1.3,0.472,1,6185.103,2,0.0,same
0,758,valid,"[(1130, 809)]",[],[1],[0.65],vertical,"(390.0, 262.0)",1.1333333333333333,0.608,1,6190.629,2,0.0,same
0,759,valid,"[(1134, 800)]",[],[1],[0.5166666666666666],vertical,"(390.0, 762.0)",0.75,0.479,1,6196.373,3,0.0,same
0,760,valid,"[(1085, 825)]",[],[1],[0.5166666666666666],vertical,"(890.0, 262.0)",0.6833333333333333,0.483,1,6202.333,3,0.0,same
0,761,catch,"[(1131, 795)]",[],[1],[],vertical,"(390.0, 262.0)",1.7,nan,1,6228.463,3,0.0,same
0,762,valid,"[(1140, 789)]",[],[1],[0.85],horizontal,"(890.0, 762.0)",0.43333333333333335,nan,0,6234.495,0,0.0,same
0,763,valid,"[(1135, 779)]",[],[1],[0.4666666666666667],vertical,"(390.0, 262.0)",1.2666666666666666,0.427,1,6238.713,1,0.0,same
0,764,invalid_adjacent_other_bar,"[(1160, 805)]",[],[1],[0.4666666666666667],vertical,"(890.0, 762.0)",1.05,0.428,1,6244.087,1,0.0,other
0,765,catch,"[(1163, 794)]",[],[1],[],vertical,"(390.0, 762.0)",1.7,nan,1,6249.145,1,0.0,same
0,766,invalid_same_bar,"[(1160, 779)]",[],[1],[0.4666666666666667],vertical,"(890.0, 262.0)",1.5166666666666666,0.427,1,6254.692,2,0.0,same
0,767,catch,"[(1115, 823)]",[],[1],[],vertical,"(890.0, 762.0)",,"('cti', 1.411),nan",0,6260.201,0,0.02,same
0,768,invalid_adjacent_other_bar,"[(1134, 818)]",[],[1],[0.6333333333333333],vertical,"(390.0, 262.0)",0.9833333333333333,0.59,1,7160.937,1,0.02,other
0,769,valid,"[(1164, 790)]",[],[1],[0.6166666666666667],horizontal,"(390.0, 762.0)",0.9833333333333333,0.573,1,7166.349,1,0.02,same
0,770,invalid_adjacent_other_bar,"[(1140, 783)]",[],[1],[0.6333333333333333],horizontal,"(390.0, 262.0)",0.9,0.61,1,7171.515,1,0.02,other
0,771,valid,"[(1140, 801)]",[],[1],[0.5333333333333333],vertical,"(890.0, 262.0)",1.0,0.494,1,7176.824,2,0.02,same
0,772,catch,"[(1166, 799)]",[],[1],[],vertical,"(390.0, 762.0)",1.7,nan,1,7182.321,2,0.02,same
0,773,valid,"[(1170, 803)]",[],[1],[0.5333333333333333],vertical,"(890.0, 262.0)",0.9,0.492,1,7188.222,2,0.02,same
0,774,catch,"[(1133, 828)]",[],[1],[],horizontal,"(890.0, 762.0)",1.7,nan,1,7193.547,3,0.02,same
0,775,valid,"[(1180, 805)]",[],[1],[0.48333333333333334],vertical,"(390.0, 262.0)",0.9833333333333333,0.441,1,7199.733,3,0.02,same
0,776,valid,"[(1175, 803)]",[],[1],[0.5666666666666667],vertical,"(890.0, 762.0)",1.0,0.524,1,7205.65,3,0.02,same
0,777,valid,"[(1178, 769)]",[],[1],[0.7666666666666666],vertical,"(890.0, 762.0)",0.9,0.718,1,7211.915,3,0.02,same
0,778,catch,"[(1180, 783)]",[],[1],[],horizontal,"(390.0, 262.0)",1.7,nan,1,7217.949,3,0.02,same
0,779,catch,"[(1131, 813)]",[],[1],[],vertical,"(390.0, 762.0)",1.7,nan,1,7223.933,3,0.02,same
0,780,invalid_adjacent_other_bar,"[(1165, 756)]",[],[1],[0.5833333333333334],vertical,"(890.0, 262.0)",0.55,0.541,1,7229.733,3,0.02,other
0,781,valid,"[(1136, 781)]",[],[1],[0.6333333333333333],horizontal,"(890.0, 262.0)",1.0833333333333333,0.587,1,7234.831,3,0.02,same
0,782,valid,"[(1155, 774)]",[],[1],[0.4666666666666667],vertical,"(390.0, 262.0)",1.45,0.436,1,7240.833,3,0.02,same
0,783,valid,"[(1155, 791)]",[],[1],[0.5166666666666666],vertical,"(390.0, 262.0)",0.8666666666666667,0.472,1,7247.116,3,0.02,same
0,784,valid,"[(1146, 786)]",[],[1],[0.85],horizontal,"(390.0, 262.0)",1.0,nan,0,7252.924,0,0.02,same
0,785,catch,"[(1131, 806)]",[],[1],[],horizontal,"(390.0, 262.0)",1.7,nan,1,7257.812,1,0.02,same
0,786,valid,"[(1167, 783)]",[],[1],[0.4666666666666667],vertical,"(390.0, 262.0)",0.8333333333333334,0.43,1,7262.916,1,0.02,same
0,787,invalid_adjacent_other_bar,"[(1160, 789)]",[],[1],[0.4166666666666667],horizontal,"(890.0, 762.0)",0.85,0.383,1,7268.067,1,0.02,other
0,788,valid,"[(1168, 792)]",[],[1],[],horizontal,"(890.0, 762.0)",,"('cti', 0.78)",0,7273.05,0,0.02,same
0,789,catch,"[(1121, 808)]",[],[1],[],horizontal,"(390.0, 762.0)",1.7,nan,1,7277.383,1,0.02,same
0,790,valid,"[(1168, 787)]",[],[1],[0.65],horizontal,"(390.0, 762.0)",1.0666666666666667,0.609,1,7282.8,1,0.02,same
0,791,valid,"[(1183, 818)]",[],[1],[0.5166666666666666],horizontal,"(890.0, 262.0)",1.15,0.483,1,7288.056,1,0.02,same
0,792,invalid_same_bar,"[(1168, 799)]",[],[1],[0.85],vertical,"(890.0, 762.0)",0.8833333333333333,nan,0,7292.835,0,0.02,same
0,793,valid,"[(1155, 821)]",[],[1],[0.48333333333333334],vertical,"(390.0, 262.0)",0.4,0.444,1,7297.696,1,0.02,same
0,794,invalid_same_bar,"[(1136, 807)]",[],[1],[0.5166666666666666],horizontal,"(890.0, 262.0)",1.1666666666666667,0.476,1,7301.848,1,0.02,same
0,795,valid,"[(1174, 785)]",[],[1],[0.4666666666666667],vertical,"(890.0, 762.0)",1.2833333333333332,0.423,1,7307.449,1,0.02,same
0,796,valid,"[(1165, 774)]",[],[1],[0.4666666666666667],vertical,"(890.0, 262.0)",1.1,0.427,1,7312.923,2,0.02,same
0,797,valid,"[(1165, 799)]",[],[1],[],horizontal,"(390.0, 262.0)",,"('fix', 0.181)",0,7318.517,0,0.02,same
0,798,valid,"[(1092, 802)]",[],[1],[0.5333333333333333],vertical,"(890.0, 762.0)",1.25,0.495,1,7320.218,1,0.02,same
0,799,invalid_adjacent_other_bar,"[(1150, 779)]",[],[1],[0.5666666666666667],vertical,"(390.0, 262.0)",0.45,0.523,1,7325.967,1,0.02,other
0,800,valid,"[(1136, 792)]",[],[1],[0.5666666666666667],horizontal,"(390.0, 262.0)",1.1166666666666667,0.521,1,7330.731,1,0.02,same
0,801,valid,"[(1137, 773)]",[],[1],[0.5166666666666666],horizontal,"(890.0, 762.0)",0.7333333333333333,0.474,1,7335.815,2,0.02,same
0,802,valid,"[(1164, 782)]",[],[1],[0.5333333333333333],vertical,"(890.0, 262.0)",0.5666666666666667,0.494,1,7341.211,2,0.02,same
0,803,catch,"[(1161, 797)]",[],[1],[],horizontal,"(890.0, 762.0)",1.7,nan,1,7345.939,2,0.02,same
0,804,valid,"[(1125, 819)]",[],[1],[0.4666666666666667],horizontal,"(390.0, 262.0)",0.7666666666666666,0.427,1,7351.35,3,0.02,same
0,805,valid,"[(1170, 794)]",[],[1],[0.6333333333333333],vertical,"(390.0, 262.0)",1.4333333333333333,0.593,1,7356.916,3,0.02,same
0,806,catch,"[(1163, 796)]",[],[1],[],horizontal,"(390.0, 762.0)",1.7,nan,1,7362.841,3,0.02,same
0,807,valid,"[(1160, 824)]",[],[1],[0.4666666666666667],horizontal,"(390.0, 762.0)",0.8,0.425,1,7368.739,3,0.02,same
0,808,valid,"[(1096, 828)]",[],[1],[0.5],horizontal,"(390.0, 762.0)",0.8333333333333334,0.459,1,7373.957,3,0.02,same
0,809,valid,"[(1170, 793)]",[],[1],[0.5],vertical,"(890.0, 762.0)",0.8833333333333333,0.459,1,7379.889,3,0.02,same
0,810,catch,"[(1148, 787)]",[],[1],[],horizontal,"(390.0, 262.0)",1.7,nan,1,7385.2,3,0.02,same
0,811,invalid_same_bar,"[(1168, 813)]",[],[1],[0.25],horizontal,"(390.0, 762.0)",0.9666666666666667,0.216,1,7391.637,3,0.02,same
0,812,valid,"[(1165, 779)]",[],[1],[0.48333333333333334],horizontal,"(890.0, 762.0)",0.48333333333333334,0.442,1,7396.832,3,0.02,same
0,813,valid,"[(1146, 779)]",[],[1],[0.6],horizontal,"(890.0, 762.0)",0.9,0.554,1,7401.983,3,0.02,same
0,814,valid,"[(1178, 793)]",[],[1],[0.85],horizontal,"(890.0, 762.0)",0.5833333333333334,nan,0,7407.667,0,0.02,same
0,815,valid,"[(1101, 786)]",[],[1],[0.4666666666666667],horizontal,"(890.0, 762.0)",0.7666666666666666,0.437,1,7411.792,1,0.02,same
0,816,catch,"[(1130, 778)]",[],[1],[],horizontal,"(890.0, 762.0)",1.7,nan,1,7416.817,1,0.02,same
0,817,invalid_adjacent_other_bar,"[(1161, 800)]",[],[1],[0.5333333333333333],vertical,"(390.0, 262.0)",1.0666666666666667,0.49,1,7422.341,1,0.0,other
0,818,catch,"[(1155, 783)]",[],[1],[],horizontal,"(890.0, 262.0)",1.7,nan,1,7427.491,2,0.0,same
0,819,catch,"[(1160, 799)]",[],[1],[],vertical,"(390.0, 762.0)",1.7,nan,1,7432.884,2,0.0,same
0,820,valid,"[(1126, 794)]",[],[1],[0.85],vertical,"(890.0, 762.0)",0.8,nan,0,7438.195,0,0.0,same
0,821,catch,"[(1120, 797)]",[],[1],[],horizontal,"(890.0, 262.0)",1.7,nan,1,7443.15,1,0.0,same
0,822,catch,"[(1165, 790)]",[],[1],[],vertical,"(390.0, 762.0)",1.7,nan,1,7448.766,1,0.0,same
0,823,valid,"[(1135, 802)]",[],[1],[0.6166666666666667],horizontal,"(890.0, 762.0)",0.5833333333333334,0.578,1,7454.201,1,0.0,same
0,824,catch,"[(1096, 843)]",[],[1],[],vertical,"(390.0, 762.0)",,"('cti', 1.587),nan",0,7458.7,0,0.02,same
0,825,catch,"[(1145, 796)]",[],[1],[],horizontal,"(890.0, 262.0)",1.7,nan,1,7463.786,1,0.02,same
0,826,valid,"[(1127, 810)]",[],[1],[0.5166666666666666],horizontal,"(890.0, 762.0)",1.0666666666666667,0.473,1,7468.702,1,0.02,same
0,827,catch,"[(1180, 772)]",[],[1],[],vertical,"(890.0, 262.0)",1.7,nan,1,7476.158,1,0.02,same
0,828,valid,"[(1168, 783)]",[],[1],[0.5166666666666666],vertical,"(390.0, 762.0)",0.75,0.473,1,7481.55,2,0.02,same
0,829,valid,"[(1165, 786)]",[],[1],[0.5666666666666667],vertical,"(890.0, 762.0)",0.8,0.522,1,7486.514,2,0.02,same
0,830,valid,"[(1160, 780)]",[],[1],[0.5166666666666666],horizontal,"(390.0, 762.0)",0.6333333333333333,0.476,1,7491.7,2,0.02,same
0,831,valid,"[(1143, 793)]",[],[1],[0.65],vertical,"(390.0, 262.0)",1.1833333333333333,0.605,1,7497.127,3,0.02,same
0,832,catch,"[(1164, 818)]",[],[1],[],horizontal,"(890.0, 762.0)",1.7,nan,1,7503.127,3,0.02,same
0,833,valid,"[(1164, 768)]",[],[1],[0.48333333333333334],horizontal,"(890.0, 262.0)",0.6666666666666666,0.445,1,7509.45,3,0.02,same
0,834,invalid_adjacent_other_bar,"[(1165, 807)]",[],[1],[0.6333333333333333],vertical,"(390.0, 262.0)",0.43333333333333335,0.593,1,7515.133,3,0.02,other
0,835,catch,"[(1115, 819)]",[],[1],[],horizontal,"(390.0, 262.0)",1.7,nan,1,7520.817,3,0.02,same
0,836,catch,"[(1170, 798)]",[],[1],[],vertical,"(390.0, 762.0)",1.7,nan,1,7526.801,3,0.02,same
0,837,invalid_same_bar,"[(1160, 810)]",[],[1],[0.55],horizontal,"(390.0, 262.0)",0.95,0.507,1,7533.018,3,0.02,same
0,838,catch,"[(1112, 825)]",[],[1],[],horizontal,"(390.0, 762.0)",1.7,nan,1,7538.877,3,0.02,same
0,839,valid,"[(1165, 809)]",[],[1],[0.5],vertical,"(890.0, 762.0)",0.8333333333333334,0.462,1,7544.818,3,0.02,same
0,840,valid,"[(1149, 804)]",[],[1],[0.4666666666666667],vertical,"(890.0, 762.0)",0.85,0.427,1,7550.367,3,0.02,same
0,841,valid,"[(1135, 780)]",[],[1],[0.5666666666666667],vertical,"(390.0, 262.0)",1.3333333333333333,0.528,1,7555.784,3,0.02,same
0,842,catch,"[(1126, 783)]",[],[1],[],horizontal,"(390.0, 762.0)",,"('cti', 1.615),nan",0,7561.85,0,0.04,same
0,843,valid,"[(1160, 785)]",[],[1],[0.5],horizontal,"(890.0, 262.0)",1.3333333333333333,0.461,1,7566.784,1,0.04,same
0,844,valid,"[(1153, 779)]",[],[1],[0.5333333333333333],horizontal,"(390.0, 262.0)",1.4833333333333334,0.496,1,7572.118,1,0.04,same
0,845,valid,"[(1160, 819)]",[],[1],[0.5666666666666667],horizontal,"(890.0, 262.0)",1.2666666666666666,0.525,1,7577.383,1,0.04,same
0,846,valid,"[(1165, 773)]",[],[1],[0.6166666666666667],vertical,"(890.0, 762.0)",1.3333333333333333,0.569,1,7583.067,2,0.04,same
0,847,valid,"[(1157, 773)]",[],[1],[0.5166666666666666],horizontal,"(890.0, 262.0)",0.4166666666666667,0.474,1,7588.718,2,0.04,same
0,848,catch,"[(1134, 791)]",[],[1],[],horizontal,"(890.0, 762.0)",1.7,nan,1,7593.583,2,0.04,same
0,849,valid,"[(1165, 767)]",[],[1],[0.5333333333333333],horizontal,"(390.0, 762.0)",1.4833333333333334,0.487,1,7599.684,3,0.04,same
0,850,valid,"[(1160, 796)]",[],[1],[0.55],horizontal,"(390.0, 762.0)",0.7166666666666667,0.505,1,7606.064,3,0.04,same
0,851,catch,"[(1160, 803)]",[],[1],[],horizontal,"(390.0, 762.0)",,"('cti', 1.537),nan",0,7612.056,0,0.06,same
0,852,invalid_same_bar,"[(1090, 842)]",[],[1],[0.48333333333333334],vertical,"(890.0, 262.0)",1.5,0.438,1,7616.717,1,0.06,same
0,853,valid,"[(1126, 801)]",[],[1],[0.5166666666666666],vertical,"(390.0, 762.0)",0.5,0.478,1,7622.0,1,0.06,same
0,854,valid,"[(1160, 818)]",[],[1],[0.45],horizontal,"(890.0, 262.0)",1.3166666666666667,0.409,1,7626.428,1,0.06,same
0,855,invalid_adjacent_other_bar,"[(1086, 793)]",[],[1],[0.6333333333333333],vertical,"(890.0, 762.0)",1.1333333333333333,0.59,1,7631.651,2,0.06,other
0,856,valid,"[(1131, 812)]",[],[1],[0.85],horizontal,"(390.0, 762.0)",1.0333333333333332,nan,0,7637.65,0,0.06,same
0,857,valid,"[(1092, 818)]",[],[1],[0.5],horizontal,"(890.0, 762.0)",0.6333333333333333,0.455,1,7642.184,1,0.06,same
