block,trial,trial_type,taps_start_loc_during_fix,taps_end_loc_during_fix,taps_on_lever_during_fix,taps_on_lever_s_during_fix,bar_orientation,target_xy,cti,rt,acc,time,pulses
0,1,target,"[(1080, 798)]",[],[1],[0.4],horizontal,"(390.0, 262.0)",0.816666667,0.374,1,0.461,1
0,2,catch,"[(1061, 868)]",[],[1],[],horizontal,"(890.0, 762.0)",1.266666667,nan,1,204.755,1
0,3,catch,"[(1052, 817)]",[],[1],[],horizontal,"(890.0, 262.0)",1.65,nan,1,245.192,1
0,4,target,"[(392, 585), (1093, 823)]",[],"[0, 1]",[0.85],vertical,"(890.0, 262.0)",0.766666667,nan,0,250.442,0
0,5,target,"[(1083, 847)]",[],[1],[0.4],horizontal,"(390.0, 762.0)",1.616666667,0.361,1,271.231,1
0,6,catch,"[(901, 673), (1061, 810)]",[],"[0, 1]",[],vertical,"(390.0, 262.0)",1.566666667,nan,1,282.191,1
0,7,target,"[(1069, 797)]",[],[1],[0.85],vertical,"(390.0, 262.0)",1,nan,0,288.49,0
0,8,catch,"[(1062, 798)]",[],[1],[],horizontal,"(890.0, 762.0)",1.516666667,nan,1,293.091,1
0,9,target,"[(1081, 815)]",[],[1],[0.48333333333333334],horizontal,"(390.0, 262.0)",1.25,0.442,1,297.623,1
0,10,target,"[(1092, 812)]",[],[1],[0.85],horizontal,"(890.0, 262.0)",1.333333333,nan,0,302.225,0
0,11,target,"[(1070, 822)]",[],[1],[0.5666666666666667],vertical,"(890.0, 262.0)",1.15,0.535,1,307.564,1
0,12,target,"[(1079, 816)]",[],[1],[0.85],horizontal,"(890.0, 762.0)",1.15,nan,0,316.292,0
0,13,target,"[(1075, 799)]",[],[1],[0.85],vertical,"(890.0, 762.0)",0.95,nan,0,321.156,0
0,14,target,"[(1069, 795)]",[],[1],[0.85],vertical,"(390.0, 262.0)",1.25,nan,0,325.781,0
0,15,target,"[(1077, 785)]",[],[1],[0.85],vertical,"(390.0, 262.0)",0.983333333,nan,0,330.843,0
0,16,target,"[(1061, 802)]",[],[1],[0.85],vertical,"(890.0, 262.0)",1.033333333,nan,0,335.236,0
0,17,target,"[(1067, 789)]",[],[1],[0.85],vertical,"(890.0, 262.0)",0.533333333,nan,0,353.104,0
0,18,target,"[(1042, 830)]",[],[1],[0.7],horizontal,"(890.0, 262.0)",1.116666667,0.656,1,357.025,1
0,19,target,"[(1059, 812)]",[],[1],[0.6833333333333333],vertical,"(390.0, 762.0)",0.516666667,0.637,1,361.749,1
0,20,target,"[(1077, 820)]",[],[1],[0.5333333333333333],vertical,"(390.0, 762.0)",1.383333333,0.488,1,366.348,1
0,21,target,"[(1064, 822)]",[],[1],[0.85],vertical,"(890.0, 762.0)",0.816666667,nan,0,371.015,0
0,22,target,"[(1061, 815)]",[],[1],[0.85],vertical,"(390.0, 262.0)",1.066666667,nan,0,375.699,0
0,23,target,"[(1063, 796)]",[],[1],[0.5666666666666667],horizontal,"(890.0, 762.0)",1.45,0.524,1,380.81,1
0,24,target,"[(1073, 809)]",[],[1],[0.4666666666666667],vertical,"(890.0, 262.0)",1.5,0.423,1,385.702,1
0,25,target,"[(1051, 795)]",[],[1],[0.6333333333333333],horizontal,"(390.0, 262.0)",1.116666667,0.592,1,390.582,1
0,26,target,"[(1079, 792)]",[],[1],[0.48333333333333334],vertical,"(390.0, 262.0)",0.5,0.449,1,395.873,2
0,27,target,"[(1071, 790)]",[],[1],[0.7333333333333333],vertical,"(890.0, 762.0)",1.55,0.693,1,400.655,2
0,28,target,"[(1065, 797)]",[],[1],[0.6166666666666667],vertical,"(890.0, 262.0)",1.183333333,0.568,1,406.026,2
0,29,target,"[(1087, 802)]",[],[1],[0.6333333333333333],horizontal,"(390.0, 262.0)",0.516666667,0.595,1,411.366,2
0,30,catch,"[(1085, 800)]",[],[1],[],horizontal,"(890.0, 762.0)",1.683333333,nan,1,416.04,2
0,31,target,"[(1073, 835)]",[],[1],[0.85],vertical,"(890.0, 262.0)",0.7,nan,0,421.443,0
0,32,catch,"[(1079, 802)]",[],[1],[],horizontal,"(390.0, 762.0)",1.183333333,nan,1,426.411,1
0,33,target,"[(1063, 811)]",[],[1],[0.6833333333333333],horizontal,"(390.0, 262.0)",1.616666667,0.646,1,430.771,1
0,34,target,"[(1062, 802)]",[],[1],[0.85],horizontal,"(390.0, 262.0)",0.85,nan,0,436.625,0
0,35,target,"[(541, 378), (1055, 866)]",[],"[0, 1]",[0.6833333333333333],horizontal,"(890.0, 262.0)",1.683333333,0.641,1,442.061,1
0,36,target,"[(1061, 837)]",[],[1],[0.5],horizontal,"(890.0, 262.0)",1.383333333,0.466,1,463.601,1
0,37,target,"[(1071, 817)]",[],[1],[0.6333333333333333],vertical,"(390.0, 762.0)",1.25,0.596,1,468.309,1
0,38,target,"[(1061, 821)]",[],[1],[0.85],vertical,"(890.0, 762.0)",1.3,nan,0,473.351,0
0,39,catch,"[(1048, 818)]",[],[1],[],vertical,"(890.0, 262.0)",1.183333333,nan,1,478.992,1
0,40,target,"[(1076, 799)]",[],[1],[0.5],horizontal,"(890.0, 262.0)",1.066666667,0.465,1,483.259,1
0,41,target,"[(1082, 784)]",[],[1],[0.85],vertical,"(890.0, 262.0)",0.75,nan,0,487.534,0
0,42,target,"[(1075, 815)]",[],[1],[0.5833333333333334],vertical,"(390.0, 262.0)",0.7,0.545,1,492.081,1
0,43,catch,"[(1085, 787)]",[],[1],[],vertical,"(390.0, 762.0)",1.6,nan,1,496.442,1
0,44,target,"[(1058, 830)]",[],[1],[0.6333333333333333],horizontal,"(390.0, 762.0)",0.75,0.595,1,501.21,1
0,45,target,"[(1077, 807)]",[],[1],[0.7],horizontal,"(390.0, 762.0)",1.1,0.659,1,505.292,2
0,46,target,"[(1072, 811)]",[],[1],[0.5333333333333333],horizontal,"(890.0, 262.0)",1.416666667,0.492,1,510.292,2
0,47,target,"[(1066, 817)]",[],[1],[0.5],horizontal,"(390.0, 762.0)",1.4,0.466,1,515.661,2
0,48,target,"[(1098, 809)]",[],[1],[0.7166666666666667],horizontal,"(390.0, 262.0)",1.116666667,0.673,1,520.942,2
0,49,target,"[(1081, 821)]",[],[1],[0.75],vertical,"(390.0, 762.0)",1.05,0.714,1,525.927,2
0,50,target,"[(1071, 807)]",[],[1],[0.6333333333333333],vertical,"(890.0, 262.0)",0.883333333,0.597,1,531.355,3
0,51,target,"[(1086, 820)]",[],[1],[0.5666666666666667],horizontal,"(390.0, 262.0)",1.066666667,0.53,1,536.62,3
0,52,target,"[(1061, 827)]",[],[1],[0.5666666666666667],vertical,"(890.0, 762.0)",0.916666667,0.523,1,541.887,3
0,53,target,"[(1061, 801)]",[],[1],[0.55],horizontal,"(890.0, 262.0)",1.133333333,0.513,1,547.109,3
0,54,target,"[(1079, 807)]",[],[1],[0.5333333333333333],vertical,"(890.0, 762.0)",1.266666667,0.495,1,552.195,3
0,55,target,"[(1068, 806)]",[],[1],[0.13333333333333333],horizontal,"(890.0, 762.0)",1.45,0.102,0,557.917,0
0,56,target,"[(1080, 802)]",[],[1],[0.6166666666666667],vertical,"(890.0, 762.0)",0.9,0.579,1,562.651,1
0,57,target,"[(1061, 789)]",[],[1],[0.55],vertical,"(890.0, 262.0)",0.883333333,0.516,1,567.417,1
0,58,target,"[(1066, 808)]",[],[1],[0.5666666666666667],vertical,"(890.0, 262.0)",0.683333333,0.54,1,571.591,1
0,59,target,"[(1088, 820)]",[],[1],[0.85],vertical,"(890.0, 262.0)",1.283333333,nan,0,576.357,0
0,60,target,"[(1061, 831)]",[],[1],[0.65],horizontal,"(390.0, 762.0)",1.416666667,0.618,1,581.667,1
0,61,target,"[(1081, 808)]",[],[1],[0.6666666666666666],vertical,"(390.0, 262.0)",0.85,0.62,1,586.494,1
0,62,target,"[(1079, 815)]",[],[1],[0.85],horizontal,"(890.0, 262.0)",1.483333333,nan,0,590.675,0
0,63,target,"[(1064, 826)]",[],[1],[0.8333333333333334],vertical,"(890.0, 262.0)",1.25,0.799,1,596.313,1
0,64,target,"[(1080, 804)]",[],[1],[0.55],horizontal,"(390.0, 262.0)",0.683333333,0.512,1,601.744,1
0,65,catch,"[(1081, 824)]",[],[1],[],horizontal,"(890.0, 262.0)",1.2,nan,1,606.16,1
0,66,target,"[(1082, 802)]",[],[1],[0.85],vertical,"(390.0, 762.0)",0.766666667,nan,0,610.309,0
0,67,target,"[(1073, 803)]",[],[1],[0.85],vertical,"(390.0, 262.0)",1.116666667,nan,0,615.021,0
0,68,target,"[(1067, 812)]",[],[1],[0.5666666666666667],horizontal,"(390.0, 262.0)",1.133333333,0.525,1,619.843,1
0,69,target,"[(1068, 821)]",[],[1],[0.8166666666666667],vertical,"(890.0, 262.0)",0.883333333,0.77,1,624.618,1
0,70,target,"[(1056, 822)]",[],[1],[0.5166666666666666],vertical,"(390.0, 762.0)",0.983333333,0.479,1,631.044,1
0,71,target,"[(1067, 791)]",[],[1],[0.75],horizontal,"(390.0, 262.0)",1.1,0.703,1,636.027,2
0,72,target,"[(1082, 790)]",[],[1],[0.5833333333333334],vertical,"(390.0, 262.0)",0.766666667,0.534,1,641.487,2
0,73,target,"[(1079, 801)]",[],[1],[0.7],horizontal,"(390.0, 762.0)",0.65,0.656,1,645.945,2
0,74,target,"[(1075, 796)]",[],[1],[0.48333333333333334],vertical,"(890.0, 262.0)",1.183333333,0.446,1,650.875,2
0,75,target,"[(1075, 804)]",[],[1],[0.31666666666666665],vertical,"(890.0, 262.0)",1.483333333,0.277,1,656.11,2
0,76,target,"[(1072, 781)]",[],[1],[0.5666666666666667],horizontal,"(390.0, 762.0)",1.4,0.523,1,661.11,3
0,77,target,"[(1076, 795)]",[],[1],[0.45],vertical,"(890.0, 262.0)",1.45,0.411,1,666.914,3
0,78,target,"[(1078, 793)]",[],[1],[0.25],horizontal,"(390.0, 262.0)",1.45,0.221,1,672.494,3
0,79,target,"[(1068, 806)]",[],[1],[0.43333333333333335],horizontal,"(890.0, 262.0)",1.483333333,0.397,1,678.077,3
0,80,target,"[(1059, 805)]",[],[1],[0.6833333333333333],horizontal,"(890.0, 262.0)",0.9,0.64,1,683.71,3
0,81,target,"[(1073, 821)]",[],[1],[0.6833333333333333],vertical,"(390.0, 762.0)",1.233333333,0.646,1,689.453,3
0,82,target,"[(1080, 797)]",[],[1],[0.5166666666666666],horizontal,"(390.0, 262.0)",0.916666667,0.477,1,695.187,3
0,83,target,"[(1056, 799)]",[],[1],[0.7],horizontal,"(890.0, 762.0)",0.883333333,0.659,1,700.16,3
0,84,target,"[(1075, 789)]",[],[1],[0.5],horizontal,"(390.0, 762.0)",1.416666667,0.46,1,705.639,3
0,85,target,"[(1081, 780)]",[],[1],[0.55],horizontal,"(390.0, 262.0)",1,0.506,1,711.693,3
0,86,target,"[(1075, 797)]",[],[1],[],vertical,"(390.0, 262.0)",,"('cti', 1.57)",0,717.205,0
0,87,target,"[(1061, 811)]",[],[1],[0.85],vertical,"(890.0, 262.0)",0.95,nan,0,722.171,0
0,88,target,"[(1064, 802)]",[],[1],[0.5333333333333333],horizontal,"(890.0, 762.0)",0.783333333,0.494,1,727.098,1
0,89,target,"[(1061, 803)]",[],[1],[0.85],vertical,"(390.0, 762.0)",0.65,nan,0,731.335,0
0,90,catch,"[(1073, 802)]",[],[1],[],vertical,"(390.0, 262.0)",1.316666667,nan,1,736.22,1
0,91,target,"[(1075, 796)]",[],[1],[0.7166666666666667],horizontal,"(890.0, 262.0)",1.266666667,0.672,1,740.58,1
0,92,catch,"[(1058, 802)]",[],[1],[],vertical,"(390.0, 262.0)",1.65,nan,1,745.295,1
0,93,target,"[(1080, 797)]",[],[1],[0.8166666666666667],horizontal,"(890.0, 262.0)",0.666666667,0.777,1,750.11,2
0,94,target,"[(1060, 820)]",[],[1],[0.5833333333333334],horizontal,"(390.0, 762.0)",0.816666667,0.541,1,755.01,2
0,95,target,"[(1064, 819)]",[],[1],[0.85],horizontal,"(890.0, 262.0)",1.166666667,nan,0,759.885,0
0,96,target,"[(1054, 810)]",[],[1],[0.6166666666666667],vertical,"(890.0, 762.0)",0.616666667,0.575,1,765.071,1
0,97,target,"[(1058, 786)]",[],[1],[0.6166666666666667],vertical,"(390.0, 262.0)",0.7,0.57,1,769.785,1
0,98,target,"[(1075, 791)]",[],[1],[0.7],vertical,"(390.0, 762.0)",0.683333333,0.655,1,773.78,1
0,99,target,"[(1071, 818)]",[],[1],[0.48333333333333334],vertical,"(890.0, 262.0)",0.516666667,0.448,1,778.178,2
0,100,target,"[(1080, 790)]",[],[1],[0.5666666666666667],horizontal,"(390.0, 762.0)",0.85,0.525,1,782.994,2
0,101,target,"[(1080, 799)]",[],[1],[0.55],vertical,"(390.0, 762.0)",0.75,0.508,1,788.02,2
0,102,target,"[(1078, 776)]",[],[1],[0.48333333333333334],vertical,"(890.0, 262.0)",1.066666667,0.446,1,792.433,2
0,103,target,"[(1080, 787)]",[],[1],[0.75],vertical,"(390.0, 762.0)",1.033333333,0.704,1,797.344,2
0,104,target,"[(1076, 786)]",[],[1],[0.4],horizontal,"(390.0, 262.0)",1.366666667,0.365,1,802.628,3
0,105,target,"[(1080, 795)]",[],[1],[0.2],vertical,"(890.0, 762.0)",1.466666667,0.164,1,808.165,3
0,106,target,"[(1076, 803)]",[],[1],[0.6166666666666667],vertical,"(390.0, 262.0)",1.333333333,0.578,1,813.813,3
0,107,target,"[(1081, 789)]",[],[1],[0.65],horizontal,"(890.0, 762.0)",0.683333333,0.606,1,819.411,3
0,108,catch,"[(1076, 797)]",[],[1],[],vertical,"(390.0, 762.0)",1.583333333,nan,1,824.394,3
0,109,target,"[(1071, 797)]",[],[1],[0.5],horizontal,"(890.0, 262.0)",0.666666667,0.459,1,829.843,3
0,110,catch,"[(1056, 797)]",[],[1],[],vertical,"(890.0, 762.0)",,"('cti', 1.539),nan",0,835.058,0
0,111,target,"[(1064, 796)]",[],[1],[0.55],horizontal,"(390.0, 262.0)",0.75,0.509,1,839.696,1
0,112,catch,"[(1060, 800)]",[],[1],[],vertical,"(390.0, 262.0)",1.55,nan,1,843.898,1
0,113,target,"[(1047, 804)]",[],[1],[0.6166666666666667],vertical,"(390.0, 262.0)",1.366666667,0.573,1,849.274,1
0,114,target,"[(1074, 797)]",[],[1],[0.5166666666666666],vertical,"(890.0, 262.0)",0.983333333,0.473,1,854.145,2
0,115,target,"[(1065, 792)]",[],[1],[0.6],vertical,"(390.0, 762.0)",0.683333333,0.56,1,858.932,2
0,116,target,"[(1056, 788)]",[],[1],[0.6166666666666667],horizontal,"(390.0, 262.0)",1.316666667,0.572,1,863.95,2
0,117,target,"[(1065, 792)]",[],[1],[0.85],horizontal,"(390.0, 262.0)",1.116666667,nan,0,869.144,0
0,118,target,"[(1062, 795)]",[],[1],[0.7666666666666666],vertical,"(890.0, 262.0)",1.616666667,0.724,1,873.614,1
0,119,catch,"[(1067, 778)]",[],[1],[],vertical,"(890.0, 762.0)",1.183333333,nan,1,878.597,1
0,120,target,"[(1049, 812)]",[],[1],[0.55],vertical,"(390.0, 762.0)",1.366666667,0.505,1,883.018,1
0,121,target,"[(1077, 787)]",[],[1],[0.4666666666666667],horizontal,"(890.0, 762.0)",1.6,0.427,1,888.028,2
0,122,catch,"[(1085, 793)]",[],[1],[],horizontal,"(890.0, 762.0)",1.283333333,nan,1,893.329,2
0,123,target,"[(1077, 799)]",[],[1],[0.6333333333333333],horizontal,"(390.0, 262.0)",0.983333333,0.586,1,898.17,2
0,124,target,"[(1083, 790)]",[],[1],[0.7833333333333333],horizontal,"(390.0, 262.0)",0.6,0.74,1,903.302,2
0,125,target,"[(1082, 787)]",[],[1],[0.25],horizontal,"(890.0, 762.0)",1.533333333,0.217,1,907.548,2
0,126,target,"[(1078, 810)]",[],[1],[],horizontal,"(390.0, 762.0)",,"('cti', 1.587)",0,912.283,0
0,127,target,"[(1068, 799)]",[],[1],[0.5833333333333334],vertical,"(390.0, 762.0)",1.2,0.544,1,917.196,1
0,128,target,"[(1074, 795)]",[],[1],[0.5],horizontal,"(890.0, 262.0)",1.266666667,0.463,1,922.212,1
0,129,target,"[(1073, 813)]",[],[1],[0.5],vertical,"(890.0, 762.0)",1.633333333,0.458,1,927.091,1
0,130,target,"[(1082, 795)]",[],[1],[0.55],horizontal,"(890.0, 762.0)",0.816666667,0.511,1,932.071,2
0,131,target,"[(1082, 795)]",[],[1],[0.5],vertical,"(890.0, 262.0)",1.15,0.464,1,936.902,2
0,132,catch,"[(1077, 797)]",[],[1],[],vertical,"(390.0, 262.0)",1.433333333,nan,1,942.093,2
0,133,target,"[(1088, 791)]",[],[1],[0.6],vertical,"(390.0, 762.0)",0.866666667,0.561,1,946.969,2
0,134,catch,"[(1077, 790)]",[],[1],[],vertical,"(890.0, 762.0)",1.383333333,nan,1,951.744,2
0,135,target,"[(1075, 810)]",[],[1],[0.3833333333333333],vertical,"(890.0, 762.0)",1.55,0.342,1,956.355,3
0,136,catch,"[(1058, 797)]",[],[1],[],horizontal,"(890.0, 262.0)",1.166666667,nan,1,961.878,3
0,137,target,"[(1075, 788)]",[],[1],[0.5],horizontal,"(890.0, 762.0)",1.35,0.462,1,966.878,3
0,138,target,"[(1080, 793)]",[],[1],[0.25],vertical,"(890.0, 262.0)",1.683333333,0.217,1,972.595,3
0,139,target,"[(1079, 788)]",[],[1],[0.5666666666666667],vertical,"(390.0, 762.0)",0.9,0.53,1,978.362,3
0,140,target,"[(1066, 786)]",[],[1],[0.21666666666666667],horizontal,"(390.0, 762.0)",1.633333333,0.186,1,983.409,3
0,141,target,"[(1082, 797)]",[],[1],[0.48333333333333334],vertical,"(890.0, 262.0)",1.233333333,0.448,1,989.052,3
0,142,target,"[(1073, 793)]",[],[1],[0.4166666666666667],vertical,"(890.0, 262.0)",0.9,0.38,1,994.513,3
0,143,target,"[(1069, 793)]",[],[1],[0.55],vertical,"(890.0, 262.0)",1.15,0.505,1,999.862,3
0,144,target,"[(1075, 798)]",[],[1],[0.21666666666666667],vertical,"(890.0, 762.0)",1.333333333,0.181,1,1005.612,3
0,145,target,"[(1078, 790)]",[],[1],[0.55],horizontal,"(390.0, 262.0)",0.966666667,0.511,1,1010.71,3
0,146,target,"[(1080, 797)]",[],[1],[0.5166666666666666],vertical,"(890.0, 262.0)",0.883333333,0.475,1,1015.696,3
0,147,target,"[(1085, 803)]",[],[1],[0.43333333333333335],horizontal,"(890.0, 262.0)",1.4,0.393,1,1021.18,3
0,148,target,"[(1059, 780)]",[],[1],[0.3],horizontal,"(890.0, 262.0)",1.016666667,0.264,1,1027.072,3
0,149,target,"[(1079, 790)]",[],[1],[0.48333333333333334],horizontal,"(390.0, 262.0)",1.316666667,0.451,1,1032.513,3
0,150,target,"[(1083, 776)]",[],[1],[0.5666666666666667],horizontal,"(390.0, 762.0)",1.033333333,0.531,1,1037.954,3
0,151,target,"[(1082, 792)]",[],[1],[0.55],vertical,"(890.0, 762.0)",0.7,0.508,1,1043.674,3
0,152,target,"[(1076, 786)]",[],[1],[0.6],vertical,"(890.0, 262.0)",1.183333333,0.556,1,1048.847,3
0,153,target,"[(1075, 791)]",[],[1],[],horizontal,"(890.0, 262.0)",,"('cti', 1.636)",0,1054.313,0
0,154,target,"[(1080, 799)]",[],[1],[0.7166666666666667],vertical,"(890.0, 262.0)",1.183333333,0.672,1,1058.807,1
0,155,target,"[(1082, 805)]",[],[1],[0.5833333333333334],horizontal,"(390.0, 262.0)",0.716666667,0.548,1,1063.379,1
0,156,target,"[(1058, 789)]",[],[1],[0.55],vertical,"(890.0, 762.0)",1.016666667,0.52,1,1067.556,1
0,157,target,"[(1066, 807)]",[],[1],[],vertical,"(890.0, 762.0)",,"('cti', 1.556)",0,1072.611,0
0,158,target,"[(1080, 803)]",[],[1],"[0.85, 0.85]",horizontal,"(890.0, 262.0)",0.533333333,"0.805,nan",0,1077.194,0
0,159,target,"[(1104, 792)]",[],[1],[0.6166666666666667],horizontal,"(390.0, 262.0)",0.683333333,0.572,1,1081.596,1
0,160,target,"[(1096, 797)]",[],[1],[0.55],vertical,"(890.0, 262.0)",0.533333333,0.508,1,1086.298,1
0,161,target,"[(1074, 786)]",[],[1],[0.4166666666666667],vertical,"(390.0, 262.0)",1.416666667,0.379,1,1090.546,1
0,162,target,"[(1070, 797)]",[],[1],[0.31666666666666665],vertical,"(390.0, 762.0)",1.383333333,0.28,1,1095.773,2
0,163,target,"[(1106, 806)]",[],[1],[0.08333333333333333],vertical,"(390.0, 262.0)",1.2,0.05,0,1100.813,0
0,164,target,"[(1080, 795)]",[],[1],[0.5666666666666667],horizontal,"(890.0, 762.0)",1.5,0.533,1,1105.29,1
0,165,target,"[(1077, 792)]",[],[1],[0.48333333333333334],vertical,"(890.0, 262.0)",1,0.448,1,1110.491,1
0,166,target,"[(1082, 797)]",[],[1],[0.5],vertical,"(890.0, 262.0)",1.05,0.464,1,1115.124,1
0,167,target,"[(1063, 804)]",[],[1],[0.5833333333333334],horizontal,"(390.0, 762.0)",0.55,0.542,1,1119.721,2
0,168,target,"[(1104, 789)]",[],[1],[0.4666666666666667],vertical,"(890.0, 262.0)",1.466666667,0.427,1,1124.713,2
0,169,target,"[(1080, 802)]",[],[1],[0.5666666666666667],vertical,"(390.0, 762.0)",0.833333333,0.526,1,1129.929,2
0,170,target,"[(1086, 801)]",[],[1],[0.5333333333333333],vertical,"(390.0, 762.0)",1.133333333,0.492,1,1134.713,2
0,171,target,"[(1067, 794)]",[],[1],[0.6666666666666666],vertical,"(890.0, 762.0)",0.85,0.629,1,1139.747,2
0,172,target,"[(1080, 807)]",[],[1],[0.55],horizontal,"(890.0, 262.0)",1.066666667,0.514,1,1144.491,3
0,173,target,"[(1069, 800)]",[],[1],[0.5333333333333333],horizontal,"(390.0, 762.0)",1.4,0.494,1,1149.757,3
0,174,target,"[(1077, 783)]",[],[1],[0.5333333333333333],vertical,"(890.0, 262.0)",0.65,0.493,1,1155.163,3
0,175,catch,"[(1076, 801)]",[],[1],[],horizontal,"(890.0, 262.0)",,"('cti', 1.558),nan",0,1160.546,0
0,176,target,"[(1080, 777)]",[],[1],[0.5166666666666666],vertical,"(890.0, 262.0)",0.65,0.475,1,1165.554,1
0,177,target,"[(1065, 782)]",[],[1],[0.7166666666666667],vertical,"(390.0, 762.0)",0.65,0.674,1,1169.63,1
0,178,catch,"[(1081, 795)]",[],[1],[],horizontal,"(890.0, 762.0)",1.633333333,nan,1,1173.863,1
0,179,target,"[(1104, 803)]",[],[1],[0.48333333333333334],vertical,"(390.0, 262.0)",1.533333333,0.444,1,1178.781,2
0,180,target,"[(1085, 783)]",[],[1],[0.65],horizontal,"(390.0, 762.0)",0.533333333,0.602,1,1184.414,2
0,181,target,"[(1068, 789)]",[],[1],[0.5666666666666667],horizontal,"(390.0, 762.0)",0.866666667,0.523,1,1189.214,2
0,182,target,"[(1063, 764)]",[],[1],[0.2833333333333333],horizontal,"(890.0, 762.0)",1.383333333,0.253,1,1194.198,2
0,183,target,"[(1080, 793)]",[],[1],[0.2],horizontal,"(890.0, 262.0)",1.6,0.165,1,1199.645,2
0,184,target,"[(1066, 794)]",[],[1],[0.65],vertical,"(390.0, 262.0)",0.6,0.614,1,1204.747,3
0,185,target,"[(1075, 798)]",[],[1],[0.48333333333333334],vertical,"(390.0, 262.0)",1.566666667,0.446,1,1209.811,3
0,186,target,"[(1084, 792)]",[],[1],[0.6166666666666667],horizontal,"(890.0, 762.0)",0.566666667,0.571,1,1215.951,3
0,187,target,"[(1082, 777)]",[],[1],[0.1],horizontal,"(390.0, 262.0)",1.65,0.069,0,1221.119,0
0,188,target,"[(1084, 849)]",[],[1],[0.6166666666666667],horizontal,"(890.0, 262.0)",1.166666667,0.571,1,1225.885,1
0,189,target,"[(1070, 800)]",[],[1],[0.6],vertical,"(890.0, 262.0)",0.783333333,0.56,1,1243.89,1
0,190,target,"[(1058, 794)]",[],[1],[0.26666666666666666],horizontal,"(390.0, 762.0)",1.516666667,0.23,1,1248.754,1
0,191,target,"[(1070, 797)]",[],[1],[0.2833333333333333],vertical,"(890.0, 762.0)",1.566666667,0.245,1,1254.03,2
0,192,target,"[(1069, 792)]",[],[1],[0.5666666666666667],vertical,"(390.0, 762.0)",0.85,0.528,1,1259.461,2
0,193,target,"[(1090, 765)]",[],[1],[0.3],vertical,"(890.0, 262.0)",1.55,0.262,1,1264.53,2
0,194,target,"[(1081, 806)]",[],[1],[0.3333333333333333],horizontal,"(890.0, 762.0)",1.45,0.296,1,1269.532,2
0,195,target,"[(1079, 794)]",[],[1],[0.5166666666666666],horizontal,"(890.0, 262.0)",0.583333333,0.473,1,1274.514,2
0,196,target,"[(1080, 799)]",[],[1],[0.5166666666666666],horizontal,"(390.0, 762.0)",1.333333333,0.477,1,1279.397,3
0,197,target,"[(1099, 767)]",[],[1],[0.5666666666666667],horizontal,"(390.0, 262.0)",0.883333333,0.53,1,1284.631,3
0,198,target,"[(1080, 794)]",[],[1],[0.6833333333333333],horizontal,"(390.0, 762.0)",0.766666667,0.641,1,1289.664,3
0,199,target,"[(1068, 773)]",[],[1],[],horizontal,"(390.0, 262.0)",,"('cti', 1.363)",0,1295.115,0
0,200,target,"[(1065, 798)]",[],[1],[0.5666666666666667],vertical,"(890.0, 762.0)",1.383333333,0.525,1,1299.781,1
0,201,target,"[(1064, 797)]",[],[1],[0.7166666666666667],horizontal,"(890.0, 762.0)",1.05,0.677,1,1304.715,1
0,202,target,"[(1064, 792)]",[],[1],[0.6],horizontal,"(890.0, 262.0)",0.833333333,0.562,1,1309.781,1
0,203,target,"[(1063, 786)]",[],[1],[0.55],vertical,"(390.0, 262.0)",1.583333333,0.511,1,1313.88,2
0,204,target,"[(1069, 780)]",[],[1],[0.5166666666666666],vertical,"(390.0, 262.0)",1.033333333,0.475,1,1319.45,2
0,205,target,"[(1081, 792)]",[],[1],[],horizontal,"(390.0, 262.0)",,"('cti', 1.323)",0,1324.682,0
0,206,catch,"[(1080, 798)]",[],[1],[],vertical,"(890.0, 262.0)",1.583333333,nan,1,1329.347,1
0,207,target,"[(1085, 769)]",[],[1],[0.48333333333333334],horizontal,"(890.0, 762.0)",1.233333333,0.446,1,1333.915,1
0,208,target,"[(1071, 774)]",[],[1],[0.5833333333333334],horizontal,"(390.0, 762.0)",1.1,0.548,1,1339.028,1
0,209,target,"[(1075, 792)]",[],[1],[0.5333333333333333],vertical,"(390.0, 262.0)",0.866666667,0.49,1,1343.448,2
0,210,target,"[(1093, 779)]",[],[1],[0.5166666666666666],vertical,"(390.0, 262.0)",0.8,0.476,1,1348.071,2
0,211,target,"[(1079, 786)]",[],[1],[0.2],vertical,"(890.0, 762.0)",1.466666667,0.17,1,1352.544,2
0,212,catch,"[(1075, 798)]",[],[1],[],vertical,"(390.0, 762.0)",1.583333333,nan,1,1357.698,2
0,213,target,"[(1070, 792)]",[],[1],[0.05],horizontal,"(390.0, 262.0)",1.583333333,0.02,0,1362.809,0
0,214,catch,"[(1080, 795)]",[],[1],[],vertical,"(390.0, 762.0)",1.5,nan,1,1367.605,1
0,215,target,"[(1080, 793)]",[],[1],[0.5833333333333334],vertical,"(890.0, 262.0)",0.516666667,0.543,1,1372.378,1
0,216,target,"[(1075, 807)]",[],[1],[0.3333333333333333],vertical,"(390.0, 262.0)",1.683333333,0.295,1,1376.648,1
0,217,target,"[(1062, 805)]",[],[1],[0.6833333333333333],horizontal,"(390.0, 762.0)",0.8,0.643,1,1381.699,2
0,218,target,"[(1090, 783)]",[],[1],[0.5666666666666667],horizontal,"(390.0, 762.0)",0.833333333,0.527,1,1386.904,2
0,219,target,"[(1080, 792)]",[],[1],[0.5333333333333333],vertical,"(890.0, 762.0)",0.65,0.489,1,1391.771,2
0,220,target,"[(1085, 779)]",[],[1],[],vertical,"(890.0, 262.0)",,"('cti', 1.497)",0,1396.368,0
0,221,catch,"[(1070, 803)]",[],[1],[],horizontal,"(390.0, 762.0)",1.233333333,nan,1,1401.224,1
0,222,target,"[(1083, 800)]",[],[1],[0.6833333333333333],vertical,"(890.0, 262.0)",0.783333333,0.639,1,1405.615,1
0,223,target,"[(1065, 792)]",[],[1],[0.55],horizontal,"(390.0, 762.0)",0.55,0.512,1,1410.115,1
0,224,target,"[(1080, 798)]",[],[1],[0.4666666666666667],vertical,"(890.0, 262.0)",0.833333333,0.427,1,1414.389,2
0,225,target,"[(1079, 788)]",[],[1],[0.5333333333333333],vertical,"(890.0, 262.0)",0.833333333,0.491,1,1419.388,2
0,226,target,"[(1088, 791)]",[],[1],[0.5833333333333334],horizontal,"(890.0, 262.0)",0.85,0.538,1,1423.665,2
0,227,target,"[(1093, 796)]",[],[1],[0.5833333333333334],horizontal,"(890.0, 262.0)",0.65,0.547,1,1428.488,2
0,228,target,"[(1081, 798)]",[],[1],[0.16666666666666666],horizontal,"(890.0, 762.0)",1.366666667,0.134,0,1433.196,0
0,229,target,"[(1099, 797)]",[],[1],[0.5833333333333334],vertical,"(390.0, 262.0)",0.983333333,0.542,1,1437.998,1
0,230,target,"[(1078, 792)]",[],[1],[0.5333333333333333],horizontal,"(890.0, 262.0)",0.95,0.491,1,1442.428,1
0,231,target,"[(1112, 785)]",[],[1],[0.85],vertical,"(890.0, 262.0)",0.816666667,nan,0,1446.548,0
0,232,target,"[(1075, 792)]",[],[1],[0.5666666666666667],vertical,"(390.0, 262.0)",1.183333333,0.53,1,1451.469,1
0,233,target,"[(1088, 792)]",[],[1],[0.5],horizontal,"(390.0, 262.0)",1.266666667,0.458,1,1456.132,1
0,234,target,"[(1075, 795)]",[],[1],[0.7833333333333333],vertical,"(390.0, 262.0)",1.033333333,0.736,1,1460.698,1
0,235,target,"[(1063, 802)]",[],[1],[0.3833333333333333],vertical,"(390.0, 762.0)",1.316666667,0.346,1,1465.732,2
0,236,target,"[(1104, 781)]",[],[1],[0.48333333333333334],horizontal,"(890.0, 262.0)",1.016666667,0.443,1,1470.832,2
0,237,target,"[(1080, 795)]",[],[1],[0.36666666666666664],vertical,"(890.0, 762.0)",1.25,0.325,1,1475.875,2
0,238,target,"[(1065, 792)]",[],[1],[0.4166666666666667],vertical,"(390.0, 262.0)",1.316666667,0.377,1,1480.603,2
0,239,target,"[(1075, 802)]",[],[1],[0.6666666666666666],vertical,"(890.0, 762.0)",0.566666667,0.63,1,1485.448,2
0,240,target,"[(1084, 787)]",[],[1],[0.6],horizontal,"(390.0, 762.0)",1.016666667,0.562,1,1489.826,3
0,241,catch,"[(1083, 802)]",[],[1],[],vertical,"(390.0, 262.0)",1.5,nan,1,1494.844,3
0,242,target,"[(1079, 807)]",[],[1],[0.65],vertical,"(390.0, 262.0)",0.55,0.607,1,1500.399,3
0,243,target,"[(1080, 806)]",[],[1],[0.5333333333333333],vertical,"(390.0, 762.0)",1.033333333,0.49,1,1505.359,3
0,244,target,"[(1071, 802)]",[],[1],[0.6166666666666667],vertical,"(890.0, 762.0)",0.616666667,0.578,1,1510.62,3
0,245,catch,"[(1103, 806)]",[],[1],[],vertical,"(890.0, 262.0)",1.333333333,nan,1,1515.841,3
0,246,target,"[(1077, 807)]",[],[1],[0.48333333333333334],vertical,"(390.0, 762.0)",1.366666667,0.441,1,1520.8,3
0,247,target,"[(1084, 792)]",[],[1],[0.5666666666666667],horizontal,"(890.0, 762.0)",0.816666667,0.53,1,1526.516,3
0,248,target,"[(1071, 804)]",[],[1],[0.6666666666666666],vertical,"(390.0, 762.0)",0.75,0.624,1,1531.882,3
0,249,catch,"[(1064, 798)]",[],[1],[],horizontal,"(390.0, 262.0)",,"('cti', 1.218),nan",0,1536.912,0
0,250,target,"[(1067, 797)]",[],[1],[0.7166666666666667],vertical,"(390.0, 762.0)",1.016666667,0.675,1,1541.367,1
0,251,target,"[(1071, 788)]",[],[1],[0.7166666666666667],horizontal,"(890.0, 262.0)",0.516666667,0.673,1,1545.831,1
0,252,target,"[(1082, 799)]",[],[1],[0.4666666666666667],horizontal,"(390.0, 762.0)",1.283333333,0.427,1,1549.882,1
0,253,target,"[(1075, 792)]",[],[1],[0.6833333333333333],vertical,"(390.0, 762.0)",0.733333333,0.637,1,1554.387,2
0,254,target,"[(1082, 766)]",[],[1],[],vertical,"(390.0, 262.0)",,"('cti', 1.594)",0,1559.233,0
0,255,target,"[(1095, 802)]",[],[1],[0.6],horizontal,"(390.0, 762.0)",1.05,0.566,1,1563.85,1
0,256,target,"[(1071, 792)]",[],[1],[0.13333333333333333],horizontal,"(390.0, 762.0)",1.65,0.099,0,1568.333,0
0,257,target,"[(1080, 799)]",[],[1],[0.5166666666666666],horizontal,"(390.0, 262.0)",1.25,0.479,1,1572.943,1
0,258,target,"[(1081, 792)]",[],[1],[0.31666666666666665],vertical,"(390.0, 762.0)",1.45,0.279,1,1577.691,1
0,259,target,"[(1071, 796)]",[],[1],[0.6],horizontal,"(890.0, 762.0)",0.8,0.555,1,1582.048,1
0,260,target,"[(1097, 796)]",[],[1],[0.55],vertical,"(890.0, 762.0)",1.483333333,0.514,1,1586.309,2
0,261,target,"[(1102, 765)]",[],[1],[0.23333333333333334],horizontal,"(890.0, 262.0)",1.4,0.198,1,1591.669,2
0,262,target,"[(1075, 797)]",[],[1],[0.36666666666666664],vertical,"(390.0, 762.0)",1.4,0.335,1,1596.781,2
0,263,catch,"[(1073, 809)]",[],[1],[],vertical,"(390.0, 262.0)",1.55,nan,1,1602.039,2
0,264,target,"[(1046, 776)]",[],[1],[0.5166666666666666],vertical,"(890.0, 262.0)",1.133333333,0.487,1,1607.117,2
0,265,target,"[(1080, 792)]",[],[1],[0.85],vertical,"(390.0, 762.0)",0.683333333,nan,0,1612.038,0
0,266,target,"[(1085, 784)]",[],[1],[0.85],horizontal,"(390.0, 762.0)",0.716666667,nan,0,1616.607,0
0,267,catch,"[(1057, 797)]",[],[1],[],horizontal,"(890.0, 762.0)",1.316666667,nan,1,1621.198,1
0,268,target,"[(1069, 806)]",[],[1],[0.4666666666666667],horizontal,"(890.0, 262.0)",1.166666667,0.431,1,1653.928,1
0,269,target,"[(1074, 797)]",[],[1],[0.6166666666666667],horizontal,"(390.0, 762.0)",1.133333333,0.573,1,1658.816,1
0,270,target,"[(1075, 794)]",[],[1],[0.2833333333333333],horizontal,"(890.0, 762.0)",1.566666667,0.247,1,1663.882,2
0,271,target,"[(1085, 802)]",[],[1],[0.5166666666666666],vertical,"(890.0, 762.0)",0.8,0.483,1,1669.083,2
0,272,target,"[(1087, 795)]",[],[1],[0.6166666666666667],horizontal,"(390.0, 262.0)",1.116666667,0.582,1,1673.649,2
0,273,target,"[(1103, 801)]",[],[1],[0.43333333333333335],vertical,"(390.0, 262.0)",1.25,0.397,1,1678.46,2
0,274,catch,"[(1080, 806)]",[],[1],[],horizontal,"(390.0, 762.0)",,"('cti', 1.61),nan",0,1683.3,0
0,275,target,"[(1075, 798)]",[],[1],[0.6166666666666667],horizontal,"(390.0, 762.0)",0.616666667,0.576,1,1688.063,1
0,276,target,"[(1077, 800)]",[],[1],[0.48333333333333334],horizontal,"(890.0, 762.0)",0.9,0.446,1,1692.437,1
0,277,target,"[(1063, 782)]",[],[1],[0.6166666666666667],horizontal,"(890.0, 762.0)",0.633333333,0.574,1,1696.728,1
0,278,target,"[(1072, 783)]",[],[1],[0.7833333333333333],vertical,"(390.0, 262.0)",0.933333333,0.743,1,1701.043,2
0,279,target,"[(1043, 802)]",[],[1],[0.6333333333333333],horizontal,"(890.0, 762.0)",0.766666667,0.596,1,1705.951,2
0,280,target,"[(1077, 815)]",[],[1],[0.3],horizontal,"(390.0, 262.0)",1.433333333,0.26,1,1715.763,2
0,281,target,"[(1059, 792)]",[],[1],[0.3833333333333333],horizontal,"(390.0, 762.0)",1.366666667,0.347,1,1721.591,2
0,282,target,"[(1085, 802)]",[],[1],[0.5333333333333333],vertical,"(890.0, 762.0)",0.633333333,0.492,1,1726.65,2
0,283,target,"[(1097, 802)]",[],[1],[0.45],vertical,"(890.0, 262.0)",1.3,0.417,1,1731.39,3
0,284,target,"[(1056, 798)]",[],[1],[0.26666666666666666],vertical,"(890.0, 762.0)",1.316666667,0.23,1,1736.682,3
0,285,target,"[(1045, 794)]",[],[1],[0.5666666666666667],horizontal,"(390.0, 762.0)",0.866666667,0.525,1,1741.984,3
0,286,target,"[(1071, 799)]",[],[1],[0.5666666666666667],vertical,"(890.0, 262.0)",1.25,0.529,1,1747.672,3
0,287,target,"[(1071, 798)]",[],[1],[0.85],horizontal,"(890.0, 262.0)",1.65,"('cti', 1.64),nan",0,1753.334,0
0,288,target,"[(1099, 807)]",[],[1],[0.31666666666666665],horizontal,"(890.0, 762.0)",1.616666667,0.283,1,1759.038,1
0,289,catch,"[(1064, 797)]",[],[1],[],horizontal,"(390.0, 262.0)",1.5,nan,1,1764.078,1
0,290,target,"[(1085, 801)]",[],[1],[0.6333333333333333],vertical,"(390.0, 762.0)",0.833333333,0.591,1,1769.052,1
0,291,target,"[(1079, 796)]",[],[1],[0.55],horizontal,"(390.0, 762.0)",0.966666667,0.509,1,1773.435,2
0,292,target,"[(1075, 797)]",[],[1],[0.13333333333333333],horizontal,"(390.0, 262.0)",1.366666667,0.103,0,1778.534,0
0,293,target,"[(1058, 802)]",[],[1],[0.5166666666666666],horizontal,"(390.0, 262.0)",1.666666667,0.477,1,1783.327,1
0,294,target,"[(1098, 795)]",[],[1],[0.3833333333333333],vertical,"(890.0, 762.0)",1.3,0.346,1,1788.486,1
0,295,target,"[(1080, 782)]",[],[1],[0.65],horizontal,"(390.0, 262.0)",0.95,0.608,1,1793.307,1
0,296,target,"[(1080, 792)]",[],[1],[0.5333333333333333],horizontal,"(390.0, 262.0)",0.916666667,0.494,1,1797.613,2
0,297,target,"[(1080, 807)]",[],[1],[],vertical,"(890.0, 262.0)",,"('cti', 1.503)",0,1802.642,0
0,298,catch,"[(1073, 794)]",[],[1],[],vertical,"(390.0, 762.0)",1.266666667,nan,1,1807.601,1
0,299,target,"[(1085, 808)]",[],[1],[0.85],horizontal,"(390.0, 762.0)",0.633333333,nan,0,1812.251,0
0,300,target,"[(1077, 786)]",[],[1],[0.5166666666666666],vertical,"(390.0, 762.0)",1.35,0.485,1,1817.085,1
0,301,target,"[(1062, 776)]",[],[1],[0.5833333333333334],horizontal,"(890.0, 762.0)",1.466666667,0.552,1,1821.967,1
0,302,target,"[(1059, 802)]",[],[1],[0.6166666666666667],vertical,"(390.0, 762.0)",0.8,0.577,1,1827.001,1
0,303,target,"[(1070, 785)]",[],[1],[0.55],vertical,"(890.0, 762.0)",0.6,0.513,1,1831.451,2
0,304,target,"[(1081, 784)]",[],[1],[0.65],horizontal,"(390.0, 762.0)",0.75,0.607,1,1835.849,2
0,305,target,"[(1073, 787)]",[],[1],[0.5666666666666667],horizontal,"(390.0, 262.0)",1.166666667,0.52,1,1840.452,2
0,306,target,"[(1060, 787)]",[],[1],[0.35],vertical,"(390.0, 762.0)",1.416666667,0.31,1,1845.573,2
0,307,catch,"[(1075, 798)]",[],[1],[],horizontal,"(390.0, 762.0)",1.266666667,nan,1,1850.865,2
0,308,target,"[(1081, 801)]",[],[1],[0.5833333333333334],vertical,"(890.0, 762.0)",0.616666667,0.545,1,1855.817,3
0,309,target,"[(1061, 842)]",[],[1],[0.13333333333333333],vertical,"(390.0, 262.0)",0.983333333,0.103,0,1860.722,0
0,310,target,"[(1065, 799)]",[],[1],[0.6166666666666667],vertical,"(390.0, 762.0)",0.966666667,0.571,1,1865.269,1
0,311,target,"[(1056, 786)]",[],[1],[0.6166666666666667],vertical,"(390.0, 262.0)",0.95,0.579,1,1869.618,1
0,312,target,"[(1071, 794)]",[],[1],[0.5833333333333334],horizontal,"(390.0, 762.0)",0.816666667,0.545,1,1874.368,1
0,313,target,"[(1063, 779)]",[],[1],[0.7833333333333333],horizontal,"(390.0, 262.0)",0.533333333,0.745,1,1878.651,2
0,314,target,"[(1073, 800)]",[],[1],[0.6],vertical,"(890.0, 762.0)",1,0.564,1,1883.234,2
0,315,target,"[(1084, 783)]",[],[1],[0.85],horizontal,"(390.0, 262.0)",0.95,nan,0,1888.568,0
0,316,target,"[(1067, 792)]",[],[1],[0.85],horizontal,"(390.0, 262.0)",1.1,nan,0,1893.25,0
0,317,target,"[(1073, 803)]",[],[1],[0.55],vertical,"(890.0, 262.0)",1.033333333,0.515,1,1898.185,1
0,318,target,"[(1075, 795)]",[],[1],[0.3333333333333333],vertical,"(890.0, 762.0)",1.483333333,0.298,1,1902.418,1
0,319,target,"[(1067, 785)]",[],[1],[0.5166666666666666],vertical,"(890.0, 262.0)",1.066666667,0.485,1,1907.184,1
0,320,target,"[(1052, 804)]",[],[1],[0.85],vertical,"(390.0, 762.0)",0.55,nan,0,1911.953,0
0,321,target,"[(1067, 803)]",[],[1],[0.5166666666666666],horizontal,"(890.0, 762.0)",1.483333333,0.474,1,1916.208,1
0,322,catch,"[(1072, 797)]",[],[1],[],horizontal,"(890.0, 762.0)",1.45,nan,1,1921.124,1
0,323,target,"[(1072, 793)]",[],[1],[0.5666666666666667],horizontal,"(390.0, 262.0)",1.133333333,0.529,1,1925.518,1
0,324,target,"[(1075, 799)]",[],[1],[0.6833333333333333],vertical,"(390.0, 262.0)",1.183333333,0.639,1,1929.805,2
0,325,target,"[(1080, 792)]",[],[1],[0.5],horizontal,"(390.0, 262.0)",0.816666667,0.461,1,1934.732,2
0,326,target,"[(1080, 792)]",[],[1],[0.4666666666666667],vertical,"(890.0, 762.0)",1.65,0.43,1,1939.652,2
0,327,target,"[(1080, 804)]",[],[1],[0.31666666666666665],vertical,"(890.0, 762.0)",1.4,0.282,1,1945.288,2
0,328,target,"[(1076, 797)]",[],[1],[0.85],vertical,"(390.0, 262.0)",1,nan,0,1950.603,0
0,329,catch,"[(1080, 799)]",[],[1],[],vertical,"(890.0, 262.0)",1.516666667,nan,1,1955.515,1
0,330,target,"[(1074, 799)]",[],[1],[0.5833333333333334],horizontal,"(890.0, 762.0)",1.316666667,0.542,1,1960.319,1
0,331,target,"[(1100, 794)]",[],[1],[0.6166666666666667],vertical,"(890.0, 262.0)",0.85,0.577,1,1965.5,1
0,332,catch,"[(1075, 797)]",[],[1],[],vertical,"(890.0, 262.0)",1.5,nan,1,1969.838,2
0,333,target,"[(1066, 780)]",[],[1],[0.43333333333333335],vertical,"(890.0, 762.0)",1.433333333,0.398,1,1974.595,2
0,334,target,"[(1087, 781)]",[],[1],[0.3833333333333333],horizontal,"(390.0, 762.0)",1.483333333,0.349,1,1979.553,2
0,335,target,"[(1085, 795)]",[],[1],[0.85],vertical,"(390.0, 762.0)",0.733333333,nan,0,1984.818,0
0,336,target,"[(1046, 798)]",[],[1],[0.65],vertical,"(390.0, 762.0)",1.466666667,0.612,1,1989.035,1
0,337,target,"[(1073, 795)]",[],[1],[0.45],horizontal,"(390.0, 762.0)",1.483333333,0.408,1,1995.517,1
0,338,target,"[(1086, 806)]",[],[1],[0.5833333333333334],vertical,"(890.0, 762.0)",0.966666667,0.543,1,2000.439,1
0,339,catch,"[(1075, 794)]",[],[1],[],vertical,"(890.0, 762.0)",1.15,nan,1,2005.247,2
0,340,catch,"[(1095, 798)]",[],[1],[],horizontal,"(390.0, 262.0)",1.216666667,nan,1,2009.719,2
0,341,target,"[(1058, 777)]",[],[1],[0.6333333333333333],vertical,"(390.0, 762.0)",0.866666667,0.586,1,2014.535,2
0,342,target,"[(1103, 795)]",[],[1],[0.4666666666666667],vertical,"(890.0, 762.0)",1.566666667,0.435,1,2019.445,2
0,343,target,"[(1080, 799)]",[],[1],[0.85],vertical,"(390.0, 262.0)",0.6,nan,0,2024.771,0
0,344,target,"[(1072, 811)]",[],[1],[0.5833333333333334],vertical,"(890.0, 762.0)",0.866666667,0.542,1,2028.902,1
0,345,target,"[(1076, 790)]",[],[1],[0.4666666666666667],vertical,"(890.0, 262.0)",0.75,0.429,1,2033.436,1
0,346,target,"[(1077, 801)]",[],[1],[0.55],vertical,"(390.0, 762.0)",0.883333333,0.511,1,2037.553,1
0,347,target,"[(1080, 793)]",[],[1],[0.7666666666666666],vertical,"(390.0, 762.0)",1.066666667,0.727,1,2042.035,2
0,348,target,"[(1091, 792)]",[],[1],[0.48333333333333334],vertical,"(390.0, 762.0)",1.233333333,0.443,1,2047.355,2
0,349,target,"[(1066, 781)]",[],[1],[0.13333333333333333],vertical,"(390.0, 762.0)",1.633333333,0.102,0,2052.731,0
0,350,catch,"[(1080, 805)]",[],[1],[],horizontal,"(390.0, 762.0)",1.466666667,nan,1,2057.42,1
0,351,target,"[(1080, 803)]",[],[1],[0.3833333333333333],vertical,"(890.0, 262.0)",1.466666667,0.349,1,2062.167,1
0,352,target,"[(1090, 792)]",[],[1],[0.13333333333333333],horizontal,"(390.0, 262.0)",1.516666667,0.1,0,2067.284,0
0,353,target,"[(1079, 793)]",[],[1],[0.55],vertical,"(890.0, 262.0)",1.4,0.506,1,2072.094,1
0,354,target,"[(1089, 791)]",[],[1],[0.65],vertical,"(390.0, 762.0)",1.283333333,0.605,1,2076.905,1
0,355,target,"[(1084, 799)]",[],[1],[0.8],horizontal,"(890.0, 762.0)",1.016666667,0.754,1,2081.52,1
0,356,target,"[(1092, 778)]",[],[1],[0.7],vertical,"(390.0, 762.0)",1.2,0.668,1,2086.051,2
0,357,target,"[(1105, 803)]",[],[1],[0.45],vertical,"(890.0, 262.0)",1.516666667,0.413,1,2091.196,2
0,358,target,"[(1092, 778)]",[],[1],[0.2833333333333333],horizontal,"(890.0, 262.0)",1.516666667,0.248,1,2096.581,2
0,359,catch,"[(1088, 792)]",[],[1],[],vertical,"(890.0, 762.0)",1.55,nan,1,2102.002,2
0,360,target,"[(1104, 792)]",[],[1],[0.25],vertical,"(890.0, 762.0)",1.666666667,0.217,1,2106.82,2
0,361,target,"[(1066, 782)]",[],[1],[0.5166666666666666],vertical,"(890.0, 262.0)",1.35,0.486,1,2111.992,3
0,362,target,"[(1085, 798)]",[],[1],[0.5833333333333334],vertical,"(390.0, 762.0)",1.233333333,0.543,1,2117.501,3
0,363,target,"[(1084, 782)]",[],[1],[0.4666666666666667],vertical,"(890.0, 762.0)",1.366666667,0.43,1,2123.021,3
0,364,target,"[(1065, 788)]",[],[1],[0.5333333333333333],vertical,"(890.0, 262.0)",1.25,0.491,1,2128.562,3
0,365,target,"[(1085, 786)]",[],[1],[0.13333333333333333],horizontal,"(390.0, 762.0)",1.166666667,0.099,0,2133.897,0
0,366,target,"[(1075, 792)]",[],[1],[0.5833333333333334],horizontal,"(890.0, 262.0)",0.6,0.54,1,2138.603,1
0,367,target,"[(1086, 789)]",[],[1],[0.5],vertical,"(890.0, 262.0)",0.733333333,0.461,1,2142.853,1
0,368,target,"[(1099, 797)]",[],[1],[0.5166666666666666],horizontal,"(390.0, 262.0)",0.95,0.493,1,2147.186,1
0,369,target,"[(1079, 772)]",[],[1],[0.6],horizontal,"(890.0, 762.0)",0.766666667,0.565,1,2151.869,2
0,370,target,"[(1107, 787)]",[],[1],[0.6666666666666666],horizontal,"(390.0, 262.0)",0.933333333,0.62,1,2156.748,2
0,371,target,"[(1088, 797)]",[],[1],[0.48333333333333334],horizontal,"(390.0, 262.0)",1.55,0.441,1,2161.546,2
0,372,target,"[(1078, 797)]",[],[1],[0.6166666666666667],horizontal,"(890.0, 762.0)",0.783333333,0.572,1,2166.704,2
0,373,target,"[(1072, 797)]",[],[1],[0.65],vertical,"(890.0, 762.0)",1.033333333,0.605,1,2171.87,2
0,374,target,"[(1085, 803)]",[],[1],[0.55],vertical,"(890.0, 762.0)",0.55,0.505,1,2177.386,3
0,375,target,"[(1077, 787)]",[],[1],[0.3333333333333333],vertical,"(890.0, 762.0)",1.216666667,0.295,1,2182.619,3
0,376,target,"[(1087, 789)]",[],[1],[0.36666666666666664],vertical,"(390.0, 262.0)",1.516666667,0.325,1,2188.02,3
0,377,catch,"[(1088, 792)]",[],[1],[],vertical,"(390.0, 762.0)",1.433333333,nan,1,2193.354,3
0,378,target,"[(1082, 788)]",[],[1],[0.5166666666666666],horizontal,"(890.0, 262.0)",0.633333333,0.481,1,2198.525,3
0,379,target,"[(1080, 802)]",[],[1],[0.6833333333333333],vertical,"(390.0, 762.0)",1.4,0.644,1,2203.45,3
0,380,target,"[(1075, 781)]",[],[1],[0.48333333333333334],vertical,"(390.0, 762.0)",1.25,0.446,1,2209.12,3
0,381,catch,"[(1080, 779)]",[],[1],[],vertical,"(890.0, 262.0)",1.45,nan,1,2214.715,3
0,382,target,"[(1081, 781)]",[],[1],[0.5166666666666666],horizontal,"(890.0, 262.0)",0.516666667,0.48,1,2220.121,3
0,383,catch,"[(1081, 787)]",[],[1],[],horizontal,"(890.0, 762.0)",1.2,nan,1,2225.175,3
0,384,target,"[(1082, 773)]",[],[1],[0.36666666666666664],horizontal,"(390.0, 762.0)",1.466666667,0.329,1,2230.249,3
0,385,target,"[(1073, 790)]",[],[1],[0.5166666666666666],vertical,"(890.0, 262.0)",0.85,0.483,1,2235.902,3
0,386,target,"[(1086, 781)]",[],[1],[0.11666666666666667],horizontal,"(390.0, 762.0)",1.683333333,0.086,0,2241.07,0
0,387,target,"[(1061, 797)]",[],[1],[0.6],vertical,"(390.0, 762.0)",0.683333333,0.557,1,2245.738,1
0,388,target,"[(1077, 793)]",[],[1],[0.85],horizontal,"(890.0, 262.0)",0.9,nan,0,2249.887,0
0,389,target,"[(1050, 799)]",[],[1],[0.26666666666666666],horizontal,"(390.0, 262.0)",1.65,0.232,1,2254.743,1
0,390,target,"[(1069, 799)]",[],[1],[0.5333333333333333],vertical,"(890.0, 762.0)",0.616666667,0.498,1,2260.587,1
0,391,target,"[(1082, 789)]",[],[1],[0.21666666666666667],vertical,"(390.0, 762.0)",1.683333333,0.185,1,2264.699,1
0,392,target,"[(1087, 796)]",[],[1],[0.6333333333333333],horizontal,"(390.0, 262.0)",0.866666667,0.593,1,2269.919,2
0,393,target,"[(1080, 792)]",[],[1],[0.3],vertical,"(390.0, 762.0)",1.4,0.265,1,2274.502,2
0,394,target,"[(1098, 798)]",[],[1],[0.6166666666666667],vertical,"(390.0, 262.0)",0.9,0.577,1,2279.994,2
0,395,target,"[(1082, 782)]",[],[1],[0.85],horizontal,"(890.0, 262.0)",0.516666667,nan,0,2284.67,0
0,396,catch,"[(1067, 785)]",[],[1],[],vertical,"(890.0, 762.0)",1.216666667,nan,1,2288.804,1
0,397,target,"[(1070, 778)]",[],[1],[0.4166666666666667],vertical,"(390.0, 262.0)",1.366666667,0.38,1,2294.87,1
0,398,target,"[(1081, 779)]",[],[1],[0.4],vertical,"(890.0, 262.0)",1.466666667,0.359,1,2299.937,1
0,399,target,"[(1065, 763)]",[],[1],[0.43333333333333335],vertical,"(890.0, 262.0)",1.35,0.397,1,2304.622,2
0,400,target,"[(1080, 792)]",[],[1],[0.5833333333333334],horizontal,"(390.0, 762.0)",0.816666667,0.544,1,2309.813,2
0,401,target,"[(1082, 800)]",[],[1],[0.6],horizontal,"(390.0, 762.0)",0.95,0.557,1,2314.605,2
0,402,target,"[(1088, 798)]",[],[1],[0.45],vertical,"(390.0, 762.0)",1.333333333,0.411,1,2319.381,2
0,403,target,"[(1098, 801)]",[],[1],[0.5666666666666667],horizontal,"(390.0, 262.0)",1.1,0.529,1,2324.837,2
0,404,target,"[(1058, 790)]",[],[1],[0.2],vertical,"(890.0, 762.0)",1.483333333,0.161,1,2329.671,3
0,405,target,"[(1083, 785)]",[],[1],[0.48333333333333334],vertical,"(390.0, 262.0)",1.283333333,0.445,1,2335.201,3
0,406,catch,"[(1083, 791)]",[],[1],[],horizontal,"(390.0, 762.0)",1.683333333,nan,1,2340.455,3
0,407,target,"[(1080, 797)]",[],[1],[0.1],horizontal,"(890.0, 262.0)",1.666666667,0.067,0,2345.916,0
0,408,target,"[(1072, 802)]",[],[1],[0.65],horizontal,"(390.0, 262.0)",0.716666667,0.606,1,2350.674,1
0,409,target,"[(1083, 791)]",[],[1],[0.2833333333333333],vertical,"(390.0, 262.0)",1.5,0.248,1,2355.126,1
0,410,catch,"[(1085, 780)]",[],[1],[],vertical,"(890.0, 762.0)",1.35,nan,1,2359.755,1
0,411,target,"[(1052, 769)]",[],[1],[0.5666666666666667],horizontal,"(890.0, 262.0)",0.75,0.522,1,2364.279,2
0,412,target,"[(1080, 797)]",[],[1],[0.4],horizontal,"(890.0, 262.0)",1.1,0.367,1,2369.204,2
0,413,target,"[(1061, 787)]",[],[1],[0.31666666666666665],horizontal,"(890.0, 762.0)",1.233333333,0.286,1,2374.488,2
0,414,target,"[(1064, 797)]",[],[1],[0.48333333333333334],vertical,"(390.0, 762.0)",1.25,0.443,1,2379.345,2
0,415,target,"[(1074, 778)]",[],[1],[0.85],vertical,"(390.0, 262.0)",1.683333333,"('cti', 1.682),nan",0,2384.621,0
0,416,target,"[(1081, 807)]",[],[1],[0.55],vertical,"(390.0, 762.0)",1.233333333,0.511,1,2390.037,1
0,417,target,"[(1084, 778)]",[],[1],[0.6333333333333333],horizontal,"(890.0, 262.0)",0.616666667,0.594,1,2394.882,1
0,418,target,"[(1082, 797)]",[],[1],[0.5666666666666667],vertical,"(390.0, 262.0)",0.55,0.526,1,2398.89,1
0,419,target,"[(1057, 773)]",[],[1],[0.65],horizontal,"(890.0, 762.0)",0.566666667,0.611,1,2402.963,2
0,420,target,"[(1080, 802)]",[],[1],[0.45],horizontal,"(890.0, 762.0)",1.25,0.411,1,2407.22,2
0,421,target,"[(1078, 801)]",[],[1],[0.5],horizontal,"(390.0, 762.0)",1,0.46,1,2412.286,2
0,422,target,"[(1086, 788)]",[],[1],"[0.85, 0.85]",horizontal,"(890.0, 762.0)",0.5,"0.818,nan",0,2417.212,0
0,423,target,"[(1099, 786)]",[],[1],[0.55],horizontal,"(390.0, 262.0)",1.3,0.506,1,2421.31,1
0,424,target,"[(1090, 799)]",[],[1],[0.45],horizontal,"(390.0, 262.0)",1.383333333,0.411,1,2425.908,1
0,425,target,"[(1084, 798)]",[],[1],[0.26666666666666666],vertical,"(390.0, 262.0)",1.4,0.23,1,2430.889,1
0,426,target,"[(1080, 797)]",[],[1],[0.5],vertical,"(890.0, 762.0)",1.4,0.457,1,2435.956,2
0,427,target,"[(1103, 801)]",[],[1],[0.5],horizontal,"(390.0, 262.0)",0.9,0.468,1,2441.539,2
0,428,target,"[(1081, 789)]",[],[1],[0.85],horizontal,"(390.0, 762.0)",0.9,nan,0,2446.239,0
0,429,target,"[(1069, 800)]",[],[1],[0.7166666666666667],horizontal,"(890.0, 262.0)",1.566666667,0.676,1,2451.071,1
0,430,target,"[(1079, 765)]",[],[1],[0.5166666666666666],horizontal,"(890.0, 262.0)",0.8,0.479,1,2456.419,1
0,431,target,"[(1075, 782)]",[],[1],[0.6333333333333333],vertical,"(890.0, 262.0)",0.666666667,0.59,1,2461.122,1
0,432,target,"[(1080, 787)]",[],[1],[0.5],horizontal,"(390.0, 762.0)",1.1,0.465,1,2465.405,2
0,433,target,"[(1080, 777)]",[],[1],[0.3],horizontal,"(890.0, 762.0)",1.4,0.264,1,2470.525,2
0,434,target,"[(1104, 799)]",[],[1],[0.43333333333333335],vertical,"(390.0, 762.0)",1.316666667,0.392,1,2475.634,2
0,435,target,"[(1081, 803)]",[],[1],[0.1],vertical,"(390.0, 762.0)",1.533333333,0.066,0,2480.905,0
0,436,target,"[(1080, 802)]",[],[1],[0.5833333333333334],horizontal,"(890.0, 262.0)",0.55,0.545,1,2485.967,1
0,437,target,"[(1086, 796)]",[],[1],[0.5333333333333333],horizontal,"(890.0, 262.0)",0.85,0.495,1,2489.859,1
0,438,target,"[(1081, 798)]",[],[1],[0.5333333333333333],vertical,"(890.0, 262.0)",1.366666667,0.495,1,2494.272,1
0,439,target,"[(1080, 772)]",[],[1],[0.4666666666666667],vertical,"(390.0, 762.0)",1.466666667,0.431,1,2499.588,2
0,440,target,"[(1080, 795)]",[],[1],[0.25],horizontal,"(890.0, 762.0)",1.4,0.217,1,2504.955,2
0,441,target,"[(1075, 769)]",[],[1],[0.08333333333333333],vertical,"(390.0, 762.0)",1.633333333,0.051,0,2510.257,0
0,442,target,"[(1068, 834)]",[],[1],[0.85],vertical,"(890.0, 762.0)",1.05,nan,0,2515.388,0
0,443,target,"[(1059, 801)]",[],[1],[0.6666666666666666],vertical,"(890.0, 262.0)",1.166666667,0.622,1,3711.749,1
0,444,target,"[(1080, 803)]",[],[1],[0.4166666666666667],vertical,"(890.0, 762.0)",1.283333333,0.375,1,3716.548,1
0,445,target,"[(1077, 782)]",[],[1],[],vertical,"(390.0, 762.0)",,"('cti', 1.186)",0,3721.235,0
0,446,target,"[(1080, 777)]",[],[1],[0.5666666666666667],vertical,"(890.0, 262.0)",0.883333333,0.528,1,3725.54,1
0,447,target,"[(1061, 758)]",[],[1],[0.45],horizontal,"(390.0, 762.0)",1.45,0.413,1,3730.363,1
0,448,target,"[(1061, 807)]",[],[1],[0.5666666666666667],vertical,"(890.0, 262.0)",0.55,0.529,1,3735.013,1
0,449,target,"[(1071, 821)]",[],[1],[0.35],vertical,"(390.0, 762.0)",1.283333333,0.314,1,3739.329,2
0,450,target,"[(1072, 783)]",[],[1],[0.48333333333333334],horizontal,"(390.0, 262.0)",1.15,0.451,1,3744.789,2
0,451,target,"[(1063, 804)]",[],[1],[],vertical,"(390.0, 262.0)",,"('cti', 1.316)",0,3750.057,0
0,452,target,"[(1075, 787)]",[],[1],[0.6],horizontal,"(890.0, 762.0)",1.033333333,0.559,1,3754.889,1
0,453,target,"[(1077, 782)]",[],[1],[0.5833333333333334],horizontal,"(390.0, 262.0)",0.966666667,0.549,1,3759.82,1
0,454,target,"[(1090, 790)]",[],[1],[0.5],vertical,"(890.0, 262.0)",1.333333333,0.472,1,3764.192,1
0,455,target,"[(1080, 770)]",[],[1],[0.5833333333333334],horizontal,"(390.0, 762.0)",1.1,0.537,1,3769.052,2
0,456,target,"[(1102, 782)]",[],[1],[],vertical,"(890.0, 762.0)",,"('cti', 1.583)",0,3774.38,0
0,457,target,"[(1062, 799)]",[],[1],[0.6833333333333333],horizontal,"(390.0, 262.0)",0.5,0.642,1,3779.249,1
0,458,target,"[(1040, 799)]",[],[1],[0.5833333333333334],horizontal,"(390.0, 762.0)",0.95,0.544,1,3784.463,1
0,459,target,"[(1058, 774)]",[],[1],[0.6666666666666666],horizontal,"(390.0, 762.0)",1.1,0.625,1,3788.812,1
0,460,target,"[(1062, 790)]",[],[1],[0.55],horizontal,"(890.0, 762.0)",0.883333333,0.51,1,3793.83,2
0,461,target,"[(1077, 785)]",[],[1],[0.5333333333333333],vertical,"(390.0, 762.0)",1.033333333,0.498,1,3798.883,2
0,462,target,"[(1070, 792)]",[],[1],[0.5],vertical,"(890.0, 262.0)",0.533333333,0.457,1,3803.7,2
0,463,target,"[(1077, 798)]",[],[1],[0.6166666666666667],vertical,"(390.0, 762.0)",0.766666667,0.579,1,3808.247,2
0,464,catch,"[(1064, 790)]",[],[1],[],vertical,"(890.0, 262.0)",1.3,nan,1,3812.907,2
0,465,target,"[(1074, 790)]",[],[1],[0.25],vertical,"(390.0, 762.0)",1.216666667,0.22,1,3817.411,3
0,466,target,"[(1063, 802)]",[],[1],[0.5166666666666666],vertical,"(390.0, 262.0)",1.033333333,0.484,1,3822.859,3
0,467,target,"[(1080, 785)]",[],[1],[0.6],vertical,"(890.0, 762.0)",0.816666667,0.568,1,3828.033,3
0,468,target,"[(1063, 761)]",[],[1],[0.8166666666666667],vertical,"(890.0, 262.0)",0.533333333,0.774,1,3833.464,3
0,469,target,"[(1065, 774)]",[],[1],[0.36666666666666664],horizontal,"(890.0, 762.0)",1.133333333,0.328,1,3838.814,3
0,470,target,"[(1085, 795)]",[],[1],[0.06666666666666667],horizontal,"(390.0, 762.0)",1.316666667,0.037,0,3843.879,0
0,471,target,"[(1064, 802)]",[],[1],[0.6],vertical,"(390.0, 762.0)",0.733333333,0.568,1,3848.447,1
0,472,target,"[(1072, 777)]",[],[1],[0.5],vertical,"(390.0, 262.0)",0.933333333,0.46,1,3853.296,1
0,473,target,"[(1055, 781)]",[],[1],[0.45],vertical,"(390.0, 762.0)",1.3,0.407,1,3857.394,1
0,474,catch,"[(1067, 785)]",[],[1],[],vertical,"(390.0, 262.0)",1.3,nan,1,3864.275,2
0,475,target,"[(1080, 782)]",[],[1],[0.85],horizontal,"(390.0, 762.0)",0.5,nan,0,3869.347,0
0,476,target,"[(1065, 795)]",[],[1],[0.5166666666666666],horizontal,"(890.0, 762.0)",0.833333333,0.478,1,3873.964,1
0,477,target,"[(1032, 795)]",[],[1],[0.5666666666666667],horizontal,"(390.0, 762.0)",1.466666667,0.53,1,3878.732,1
0,478,catch,"[(1031, 801)]",[],[1],[],vertical,"(890.0, 262.0)",1.466666667,nan,1,3883.715,1
0,479,target,"[(1040, 802)]",[],[1],[0.5166666666666666],vertical,"(890.0, 762.0)",1.316666667,0.483,1,3888.282,2
0,480,target,"[(1075, 794)]",[],[1],[0.55],horizontal,"(390.0, 262.0)",0.583333333,0.517,1,3893.529,2
0,481,target,"[(1098, 795)]",[],[1],[0.48333333333333334],vertical,"(890.0, 262.0)",0.75,0.446,1,3898.088,2
0,482,target,"[(1090, 783)]",[],[1],[0.18333333333333332],vertical,"(890.0, 762.0)",1.483333333,0.149,0,3902.689,0
0,483,target,"[(1080, 786)]",[],[1],[0.5],vertical,"(390.0, 262.0)",1.4,0.467,1,3907.632,1
0,484,target,"[(1061, 795)]",[],[1],[0.5],horizontal,"(390.0, 762.0)",0.866666667,0.468,1,3912.401,1
0,485,target,"[(1069, 766)]",[],[1],[0.5666666666666667],vertical,"(890.0, 762.0)",0.75,0.536,1,3916.734,1
0,486,target,"[(1065, 791)]",[],[1],[0.4666666666666667],horizontal,"(890.0, 762.0)",1.4,0.434,1,3921.081,2
0,487,target,"[(1077, 794)]",[],[1],[0.5333333333333333],horizontal,"(390.0, 262.0)",1.366666667,0.498,1,3926.592,2
0,488,target,"[(1045, 767)]",[],[1],[0.6],vertical,"(390.0, 762.0)",0.716666667,0.565,1,3931.863,2
0,489,target,"[(1075, 802)]",[],[1],[0.4666666666666667],vertical,"(890.0, 762.0)",1.25,0.429,1,3936.815,2
0,490,target,"[(1061, 774)]",[],[1],[0.7833333333333333],horizontal,"(390.0, 762.0)",0.733333333,0.747,1,3942.537,2
0,491,target,"[(1061, 783)]",[],[1],[0.08333333333333333],horizontal,"(390.0, 762.0)",1.616666667,0.05,0,3947.525,0
0,492,target,"[(1065, 778)]",[],[1],[0.5666666666666667],horizontal,"(890.0, 262.0)",0.766666667,0.534,1,3952.191,1
0,493,catch,"[(1081, 798)]",[],[1],[],horizontal,"(890.0, 262.0)",1.566666667,nan,1,3956.113,1
0,494,catch,"[(1085, 782)]",[],[1],[],horizontal,"(390.0, 262.0)",1.333333333,nan,1,3960.815,1
0,495,target,"[(1080, 792)]",[],[1],[0.5333333333333333],vertical,"(390.0, 762.0)",1.2,0.495,1,3964.832,2
0,496,target,"[(1079, 764)]",[],[1],[0.6],horizontal,"(890.0, 762.0)",0.55,0.562,1,3969.883,2
0,497,target,"[(1070, 790)]",[],[1],[0.36666666666666664],vertical,"(890.0, 762.0)",1.6,0.331,1,3974.182,2
0,498,target,"[(1089, 792)]",[],[1],[0.55],horizontal,"(390.0, 262.0)",0.7,0.508,1,3979.6,2
0,499,target,"[(1062, 765)]",[],[1],[0.5833333333333334],vertical,"(890.0, 762.0)",0.933333333,0.545,1,3984.461,2
0,500,target,"[(1081, 776)]",[],[1],[0.5],horizontal,"(890.0, 262.0)",0.6,0.461,1,3989.58,3
0,501,target,"[(1051, 792)]",[],[1],[0.5833333333333334],horizontal,"(890.0, 262.0)",0.85,0.544,1,3994.708,3
0,502,target,"[(1079, 788)]",[],[1],[0.55],horizontal,"(390.0, 262.0)",0.816666667,0.507,1,3999.742,3
0,503,target,"[(1080, 760)]",[],[1],[0.85],vertical,"(890.0, 262.0)",0.5,nan,0,4005.448,0
0,504,catch,"[(1036, 804)]",[],[1],[],vertical,"(890.0, 762.0)",1.6,nan,1,4009.699,1
0,505,target,"[(1085, 778)]",[],[1],[0.85],vertical,"(890.0, 762.0)",0.866666667,nan,0,4014.664,0
0,506,target,"[(1061, 795)]",[],[1],[0.6333333333333333],vertical,"(890.0, 262.0)",1.25,0.594,1,4018.983,1
0,507,target,"[(1075, 782)]",[],[1],[0.55],horizontal,"(890.0, 762.0)",1.083333333,0.511,1,4024.078,1
0,508,target,"[(1079, 791)]",[],[1],[0.43333333333333335],horizontal,"(390.0, 762.0)",1.55,0.393,1,4028.947,1
0,509,target,"[(1079, 779)]",[],[1],[],horizontal,"(390.0, 762.0)",,"('cti', 1.626)",0,4033.524,0
0,510,target,"[(1114, 802)]",[],[1],[0.6166666666666667],vertical,"(390.0, 762.0)",1.433333333,0.575,1,4037.893,1
0,511,target,"[(1082, 781)]",[],[1],[0.5666666666666667],vertical,"(890.0, 762.0)",1.45,0.528,1,4042.548,1
0,512,target,"[(1059, 770)]",[],[1],[0.3],vertical,"(390.0, 762.0)",1.516666667,0.263,1,4047.583,1
0,513,catch,"[(1071, 773)]",[],[1],[],vertical,"(890.0, 762.0)",1.45,nan,1,4052.298,2
0,514,target,"[(1059, 790)]",[],[1],[0.35],vertical,"(390.0, 262.0)",1.033333333,0.308,1,4056.883,2
0,515,target,"[(1075, 783)]",[],[1],[],vertical,"(390.0, 262.0)",,"('cti', 1.157)",0,4061.933,0
0,516,target,"[(1095, 777)]",[],[1],[0.48333333333333334],vertical,"(890.0, 262.0)",1.533333333,0.45,1,4065.892,1
0,517,catch,"[(1075, 773)]",[],[1],[],horizontal,"(390.0, 262.0)",1.35,nan,1,4070.513,1
0,518,target,"[(1078, 772)]",[],[1],[0.5],horizontal,"(390.0, 262.0)",1.383333333,0.457,1,4074.944,1
0,519,target,"[(1070, 771)]",[],[1],[0.5166666666666666],horizontal,"(390.0, 262.0)",1.283333333,0.476,1,4080.08,2
0,520,target,"[(1077, 783)]",[],[1],[0.35],horizontal,"(390.0, 262.0)",1.366666667,0.31,1,4085.283,2
0,521,target,"[(1078, 782)]",[],[1],[0.5166666666666666],vertical,"(890.0, 262.0)",0.6,0.482,1,4090.306,2
0,522,target,"[(1078, 786)]",[],[1],[0.5],vertical,"(390.0, 762.0)",1.266666667,0.463,1,4094.9,2
0,523,target,"[(1066, 777)]",[],[1],[0.11666666666666667],horizontal,"(390.0, 762.0)",1.6,0.086,0,4100.199,0
0,524,target,"[(1079, 791)]",[],[1],[0.5333333333333333],vertical,"(390.0, 762.0)",1.583333333,0.502,1,4104.643,1
0,525,target,"[(1062, 777)]",[],[1],[0.48333333333333334],horizontal,"(390.0, 262.0)",0.9,0.449,1,4109.933,1
0,526,target,"[(1075, 789)]",[],[1],[0.5166666666666666],vertical,"(390.0, 762.0)",1.65,0.476,1,4114.701,1
0,527,target,"[(1076, 802)]",[],[1],[0.5333333333333333],horizontal,"(390.0, 762.0)",0.7,0.489,1,4119.983,2
0,528,target,"[(1085, 761)]",[],[1],[0.6],horizontal,"(890.0, 262.0)",0.866666667,0.564,1,4124.857,2
0,529,catch,"[(1061, 770)]",[],[1],[],horizontal,"(390.0, 762.0)",1.516666667,nan,1,4129.549,2
0,530,target,"[(1079, 777)]",[],[1],[0.18333333333333332],vertical,"(890.0, 262.0)",1.416666667,0.149,0,4134.639,0
0,531,target,"[(1080, 778)]",[],[1],[0.5],horizontal,"(890.0, 262.0)",1.083333333,0.469,1,4139.483,1
0,532,target,"[(1065, 772)]",[],[1],[0.55],vertical,"(390.0, 762.0)",0.933333333,0.514,1,4143.957,1
0,533,target,"[(1058, 778)]",[],[1],[0.85],vertical,"(390.0, 262.0)",1.65,"('cti', 1.667),nan",0,4148.309,0
0,534,target,"[(1081, 780)]",[],[1],[0.6833333333333333],horizontal,"(890.0, 262.0)",0.716666667,0.64,1,4153.899,1
0,535,target,"[(1072, 779)]",[],[1],[0.5333333333333333],vertical,"(390.0, 262.0)",0.85,0.5,1,4157.866,1
0,536,target,"[(1061, 782)]",[],[1],[0.85],horizontal,"(390.0, 262.0)",1.266666667,"('cti', 1.282),nan",0,4162.114,0
0,537,target,"[(1066, 765)]",[],[1],[0.6833333333333333],horizontal,"(390.0, 262.0)",1.333333333,0.646,1,4167.632,1
0,538,target,"[(1077, 790)]",[],[1],[0.7666666666666666],vertical,"(390.0, 262.0)",0.783333333,0.736,1,4172.9,1
0,539,target,"[(1039, 782)]",[],[1],[0.7333333333333333],horizontal,"(390.0, 762.0)",0.516666667,0.699,1,4177.45,1
0,540,target,"[(1074, 791)]",[],[1],[0.48333333333333334],horizontal,"(390.0, 262.0)",1.283333333,0.454,1,4181.967,2
0,541,target,"[(1061, 789)]",[],[1],[0.25],horizontal,"(890.0, 262.0)",1.333333333,0.215,1,4187.267,2
0,542,target,"[(1077, 791)]",[],[1],[0.5166666666666666],horizontal,"(890.0, 262.0)",0.933333333,0.476,1,4192.459,2
0,543,target,"[(1081, 788)]",[],[1],[0.3333333333333333],horizontal,"(890.0, 262.0)",1.233333333,0.298,1,4197,2
0,544,target,"[(1063, 777)]",[],[1],[0.36666666666666664],vertical,"(890.0, 762.0)",1.3,0.331,1,4201.999,2
0,545,target,"[(1078, 782)]",[],[1],[],vertical,"(890.0, 262.0)",,"('cti', 1.668)",0,4207.138,0
0,546,target,"[(1080, 781)]",[],[1],[0.85],horizontal,"(390.0, 262.0)",0.666666667,nan,0,4211.849,0
0,547,target,"[(1062, 801)]",[],[1],[0.5666666666666667],horizontal,"(390.0, 262.0)",0.766666667,0.519,1,4216.634,1
0,548,target,"[(1012, 831)]",[],[1],[0.65],horizontal,"(890.0, 262.0)",1.283333333,0.613,1,4256.918,1
0,549,target,"[(1079, 791)]",[],[1],[0.4666666666666667],vertical,"(890.0, 762.0)",1.6,0.43,1,4261.713,1
0,550,target,"[(1095, 803)]",[],[1],[0.25],vertical,"(890.0, 262.0)",1.333333333,0.215,1,4267.093,2
0,551,target,"[(1090, 796)]",[],[1],[0.7],vertical,"(390.0, 762.0)",0.566666667,0.659,1,4272.232,2
0,552,target,"[(1093, 795)]",[],[1],[0.25],horizontal,"(890.0, 762.0)",1.3,0.218,1,4276.706,2
0,553,target,"[(1100, 776)]",[],[1],[0.5833333333333334],vertical,"(890.0, 762.0)",1.116666667,0.542,1,4281.624,2
0,554,target,"[(1108, 760)]",[],[1],[0.85],vertical,"(390.0, 762.0)",1.1,nan,0,4286.967,0
0,555,target,"[(1065, 816)]",[],[1],[0.5333333333333333],horizontal,"(390.0, 262.0)",1.183333333,0.491,1,4291.867,1
0,556,target,"[(1058, 798)]",[],[1],[0.6333333333333333],horizontal,"(890.0, 762.0)",0.5,0.593,1,4299.751,1
0,557,target,"[(1052, 796)]",[],[1],[0.85],vertical,"(890.0, 762.0)",0.833333333,nan,0,4303.926,0
0,558,target,"[(1081, 782)]",[],[1],[0.85],horizontal,"(390.0, 262.0)",1.083333333,nan,0,4308.453,0
0,559,target,"[(1047, 786)]",[],[1],[0.55],vertical,"(390.0, 762.0)",1.616666667,0.512,1,4313.767,1
0,560,target,"[(1085, 789)]",[],[1],[0.85],vertical,"(890.0, 762.0)",1.616666667,nan,0,4322.384,0
0,561,target,"[(508, 457), (1065, 373), (896, 664), (154, 201), (862, 438), (926, 211), (934, 497), (862, 211), (796, 146), (798, 152), (800, 152), (803, 149), (802, 150), (801, 151), (891, 186), (899, 176), (910, 196), (918, 206), (1074, 889)]",[],"[0, 0, 0, 0, 0, 0, 0, 0, 0, 0, 0, 0, 0, 0, 0, 0, 0, 0, 1]",[0.3833333333333333],vertical,"(390.0, 762.0)",1.216666667,0.344,1,4327.684,1
0,1,catch,"[(1041, 827)]",[],[1],[],horizontal,"(890.0, 262.0)",1.183333333,nan,1,0.075,1
0,2,target,"[(1041, 832)]",[],[1],[0.85],vertical,"(390.0, 262.0)",0.75,nan,0,2544.721,0
0,3,target,"[(1056, 839)]",[],[1],[0.48333333333333334],vertical,"(890.0, 762.0)",1.533333333,0.446,1,2549.404,1
0,4,target,"[(1061, 816)]",[],[1],[0.7333333333333333],horizontal,"(890.0, 262.0)",0.733333333,0.689,1,2562.287,1
0,5,target,"[(1074, 837)]",[],[1],[0.6833333333333333],horizontal,"(890.0, 762.0)",0.616666667,0.638,1,2566.721,1
0,6,target,"[(1040, 806)]",[],[1],[0.2],horizontal,"(890.0, 762.0)",1.583333333,0.165,1,2571.221,2
0,7,target,"[(1090, 798)]",[],[1],[0.31666666666666665],vertical,"(890.0, 762.0)",1.283333333,0.281,1,2576.804,2
0,8,target,"[(1093, 797)]",[],[1],[0.65],horizontal,"(390.0, 262.0)",1.25,0.611,1,2582.321,2
0,9,target,"[(1082, 791)]",[],[1],[0.7666666666666666],horizontal,"(390.0, 762.0)",1.033333333,0.717,1,2587.599,2
0,10,target,"[(1081, 795)]",[],[1],[0.7166666666666667],vertical,"(390.0, 262.0)",0.583333333,0.671,1,2593.078,2
0,11,target,"[(1079, 787)]",[],[1],[0.6166666666666667],vertical,"(890.0, 262.0)",1.416666667,0.574,1,2597.553,3
0,12,target,"[(1081, 802)]",[],[1],[0.8166666666666667],horizontal,"(390.0, 762.0)",1.633333333,0.784,1,2603.131,3
0,13,target,"[(1103, 810)]",[],[1],[0.85],horizontal,"(890.0, 262.0)",1.516666667,nan,0,2609.771,0
0,14,target,"[(1102, 781)]",[],[1],[0.85],horizontal,"(890.0, 762.0)",0.9,nan,0,2615.282,0
0,15,catch,"[(1094, 794)]",[],[1],[],vertical,"(390.0, 762.0)",1.166666667,nan,1,2620.396,1
0,16,target,"[(1084, 791)]",[],[1],[0.6333333333333333],vertical,"(890.0, 762.0)",0.65,0.589,1,2624.314,1
0,17,target,"[(1080, 831)]",[],[1],[0.31666666666666665],vertical,"(890.0, 262.0)",1.433333333,0.277,1,2628.637,1
0,18,target,"[(1097, 820)]",[],[1],[0.25],horizontal,"(890.0, 262.0)",1.566666667,0.22,1,2633.538,2
0,19,target,"[(1085, 807)]",[],[1],[0.7166666666666667],vertical,"(390.0, 262.0)",1.066666667,0.675,1,2638.77,2
0,20,target,"[(1070, 778)]",[],[1],[0.6333333333333333],vertical,"(890.0, 262.0)",0.866666667,0.6,1,2644.502,2
0,21,catch,"[(1080, 790)]",[],[1],[],vertical,"(890.0, 262.0)",1.216666667,nan,1,2649.755,2
0,22,target,"[(1066, 778)]",[],[1],[0.5333333333333333],vertical,"(390.0, 262.0)",0.533333333,0.492,1,2654.672,2
0,23,target,"[(1090, 806)]",[],[1],[0.3833333333333333],horizontal,"(390.0, 262.0)",1.4,0.346,1,2659.386,3
0,24,target,"[(1097, 807)]",[],[1],[0.36666666666666664],vertical,"(890.0, 262.0)",1.216666667,0.33,1,2665.022,3
0,25,target,"[(1084, 789)]",[],[1],[0.11666666666666667],vertical,"(390.0, 262.0)",1.583333333,0.082,0,2670.805,0
0,26,target,"[(1078, 816)]",[],[1],[0.6166666666666667],horizontal,"(390.0, 762.0)",0.7,0.574,1,2675.638,1
0,27,target,"[(1075, 808)]",[],[1],[0.5833333333333334],vertical,"(890.0, 262.0)",1.083333333,0.543,1,2680.109,1
0,28,catch,"[(1083, 796)]",[],[1],[],horizontal,"(390.0, 762.0)",1.233333333,nan,1,2684.687,1
0,29,target,"[(1081, 799)]",[],[1],[0.8],vertical,"(890.0, 762.0)",0.533333333,0.754,1,2688.804,2
0,30,catch,"[(1073, 809)]",[],[1],[],horizontal,"(890.0, 262.0)",1.6,nan,1,2693.872,2
0,31,target,"[(1070, 801)]",[],[1],[0.85],horizontal,"(390.0, 762.0)",0.5,nan,0,2699.272,0
0,32,target,"[(1080, 793)]",[],[1],[0.5666666666666667],vertical,"(890.0, 262.0)",0.55,0.526,1,2703.522,1
0,33,catch,"[(1104, 818)]",[],[1],[],horizontal,"(390.0, 762.0)",1.45,nan,1,2707.338,1
0,34,target,"[(1060, 826)]",[],[1],[0.85],horizontal,"(390.0, 762.0)",0.9,nan,0,2711.73,0
0,35,target,"[(1079, 806)]",[],[1],[0.85],vertical,"(390.0, 762.0)",0.883333333,nan,0,2716.872,0
0,36,target,"[(1073, 816)]",[],[1],[0.6833333333333333],vertical,"(890.0, 762.0)",0.633333333,0.649,1,2721.922,1
0,37,target,"[(1085, 783)]",[],[1],[0.11666666666666667],vertical,"(390.0, 262.0)",1.55,0.087,0,2726.371,0
0,38,target,"[(1087, 812)]",[],[1],[0.85],horizontal,"(890.0, 262.0)",1.35,nan,0,2730.805,0
0,39,target,"[(1075, 809)]",[],[1],[0.6],horizontal,"(390.0, 762.0)",0.966666667,0.557,1,2736.204,1
0,40,target,"[(1075, 782)]",[],[1],[0.6],horizontal,"(890.0, 262.0)",0.65,0.556,1,2740.539,1
0,41,target,"[(1071, 783)]",[],[1],[0.6833333333333333],vertical,"(390.0, 762.0)",0.5,0.644,1,2744.788,1
0,42,target,"[(1073, 776)]",[],[1],[0.8],horizontal,"(890.0, 762.0)",0.9,0.76,1,2749.122,2
0,43,target,"[(1092, 790)]",[],[1],[],horizontal,"(390.0, 262.0)",,"('cti', 1.292)",0,2753.926,0
0,44,target,"[(1080, 799)]",[],[1],[0.5833333333333334],vertical,"(890.0, 762.0)",1.133333333,0.54,1,2758.523,1
0,45,target,"[(1060, 781)]",[],[1],[0.6333333333333333],vertical,"(390.0, 262.0)",0.516666667,0.596,1,2762.821,1
0,46,target,"[(1076, 808)]",[],[1],[0.55],vertical,"(890.0, 262.0)",1.45,0.513,1,2766.88,1
0,47,target,"[(1090, 813)]",[],[1],[0.5833333333333334],vertical,"(390.0, 262.0)",1.2,0.546,1,2771.872,2
0,48,target,"[(1074, 786)]",[],[1],[0.5833333333333334],horizontal,"(890.0, 762.0)",0.933333333,0.543,1,2776.936,2
0,49,target,"[(1076, 802)]",[],[1],[0.75],horizontal,"(890.0, 762.0)",0.833333333,0.71,1,2782.206,2
0,50,target,"[(1084, 792)]",[],[1],[0.06666666666666667],vertical,"(390.0, 262.0)",1.633333333,0.036,0,2787.524,0
0,51,catch,"[(1110, 780)]",[],[1],[],horizontal,"(390.0, 262.0)",1.5,nan,1,2792.067,1
0,52,catch,"[(1074, 794)]",[],[1],[],horizontal,"(390.0, 762.0)",1.166666667,nan,1,2796.422,1
0,53,target,"[(1063, 799)]",[],[1],[0.6166666666666667],horizontal,"(390.0, 762.0)",0.716666667,0.575,1,2800.371,1
0,54,target,"[(1065, 803)]",[],[1],"[0.85, 0.85]",vertical,"(890.0, 762.0)",0.516666667,"0.797,nan",0,2804.844,0
0,55,target,"[(1079, 772)]",[],[1],[0.6166666666666667],vertical,"(390.0, 262.0)",1.4,0.572,1,2809.389,1
0,56,target,"[(1092, 796)]",[],[1],[0.85],vertical,"(390.0, 262.0)",1.583333333,nan,0,2814.452,0
0,57,target,"[(1062, 806)]",[],[1],[0.85],vertical,"(890.0, 262.0)",1.333333333,nan,0,2819.894,0
0,58,catch,"[(1060, 780)]",[],[1],[],horizontal,"(890.0, 762.0)",1.55,nan,1,2824.826,1
0,59,target,"[(1090, 798)]",[],[1],[0.5833333333333334],horizontal,"(390.0, 762.0)",1.133333333,0.547,1,2829.473,1
0,60,target,"[(1068, 818)]",[],[1],[0.2833333333333333],horizontal,"(390.0, 262.0)",1.4,0.25,1,2834.322,1
0,61,target,"[(1093, 796)]",[],[1],[0.85],horizontal,"(390.0, 762.0)",0.883333333,nan,0,2839.539,0
0,62,target,"[(1075, 791)]",[],[1],"[0.85, 0.85]",horizontal,"(390.0, 262.0)",1.2,"0.802,nan",0,2844.555,0
0,63,target,"[(1091, 798)]",[],[1],[0.65],horizontal,"(890.0, 262.0)",1.266666667,0.606,1,2849.773,1
0,64,target,"[(1104, 796)]",[],[1],[0.65],horizontal,"(890.0, 762.0)",0.716666667,0.604,1,2854.789,1
0,65,target,"[(1065, 784)]",[],[1],[0.5],horizontal,"(390.0, 762.0)",1.433333333,0.464,1,2858.923,1
0,66,target,"[(1083, 783)]",[],[1],[0.5833333333333334],horizontal,"(390.0, 762.0)",0.583333333,0.541,1,2863.822,2
0,67,target,"[(1083, 793)]",[],[1],[],horizontal,"(390.0, 262.0)",,"('cti', 1.333)",0,2868.397,0
0,68,target,"[(1096, 782)]",[],[1],[0.5333333333333333],horizontal,"(890.0, 762.0)",1.166666667,0.489,1,2873.04,1
0,69,target,"[(1083, 798)]",[],[1],[0.7],horizontal,"(890.0, 262.0)",0.6,0.658,1,2877.273,1
0,70,target,"[(1085, 797)]",[],[1],[0.4666666666666667],vertical,"(390.0, 762.0)",1.166666667,0.427,1,2881.978,1
0,71,target,"[(1090, 804)]",[],[1],[0.5666666666666667],vertical,"(890.0, 762.0)",1.016666667,0.525,1,2886.79,2
0,72,target,"[(1075, 791)]",[],[1],[0.7333333333333333],vertical,"(390.0, 762.0)",0.55,0.698,1,2891.756,2
0,73,catch,"[(1082, 800)]",[],[1],[],horizontal,"(390.0, 762.0)",1.45,nan,1,2896.23,2
0,74,target,"[(1086, 796)]",[],[1],[0.5833333333333334],horizontal,"(390.0, 262.0)",0.95,0.549,1,2900.889,2
0,75,target,"[(1085, 793)]",[],[1],[0.85],vertical,"(390.0, 762.0)",0.616666667,nan,0,2905.89,0
0,76,catch,"[(1071, 787)]",[],[1],[],horizontal,"(890.0, 762.0)",1.683333333,nan,1,2910.306,1
0,77,target,"[(1062, 779)]",[],[1],[0.5666666666666667],vertical,"(390.0, 262.0)",1.266666667,0.528,1,2915.38,1
0,78,target,"[(1074, 798)]",[],[1],[0.36666666666666664],vertical,"(390.0, 262.0)",1.6,0.33,1,2920.363,1
0,79,target,"[(1072, 796)]",[],[1],[0.5833333333333334],vertical,"(890.0, 262.0)",1.383333333,0.544,1,2925.478,2
0,80,target,"[(1092, 793)]",[],[1],[0.5333333333333333],vertical,"(390.0, 262.0)",0.516666667,0.499,1,2930.777,2
0,81,target,"[(1080, 782)]",[],[1],[0.6666666666666666],horizontal,"(390.0, 762.0)",0.933333333,0.621,1,2935.297,2
0,82,target,"[(1067, 780)]",[],[1],[0.5333333333333333],horizontal,"(890.0, 262.0)",0.716666667,0.494,1,2940.576,2
0,83,target,"[(1082, 799)]",[],[1],[0.5333333333333333],horizontal,"(390.0, 762.0)",1.2,0.489,1,2945.264,2
0,84,target,"[(1059, 782)]",[],[1],[0.5833333333333334],horizontal,"(890.0, 762.0)",1.133333333,0.536,1,2950.186,3
0,85,target,"[(1095, 796)]",[],[1],[0.48333333333333334],horizontal,"(390.0, 262.0)",1.166666667,0.443,1,2955.896,3
0,86,catch,"[(1084, 797)]",[],[1],[],vertical,"(890.0, 762.0)",1.366666667,nan,1,2961.21,3
0,87,target,"[(1065, 807)]",[],[1],[0.4],horizontal,"(390.0, 262.0)",1.483333333,0.366,1,2966.672,3
0,88,target,"[(1083, 807)]",[],[1],[0.55],vertical,"(390.0, 762.0)",1.383333333,0.508,1,2972.256,3
0,89,target,"[(1093, 783)]",[],[1],[0.45],vertical,"(390.0, 762.0)",1.25,0.411,1,2977.973,3
0,90,target,"[(1086, 792)]",[],[1],[0.4666666666666667],horizontal,"(890.0, 262.0)",1.633333333,0.423,1,2983.648,3
0,91,target,"[(1085, 785)]",[],[1],[0.6833333333333333],vertical,"(890.0, 762.0)",0.783333333,0.639,1,2989.273,3
0,92,target,"[(1083, 795)]",[],[1],[0.75],vertical,"(890.0, 762.0)",0.733333333,0.707,1,2994.332,3
0,93,catch,"[(1082, 799)]",[],[1],[],vertical,"(890.0, 762.0)",1.6,nan,1,2999.724,3
0,94,target,"[(1080, 787)]",[],[1],[0.5833333333333334],horizontal,"(890.0, 262.0)",0.95,0.541,1,3004.85,3
0,95,target,"[(1081, 790)]",[],[1],[0.55],horizontal,"(390.0, 762.0)",0.916666667,0.507,1,3010.541,3
0,96,catch,"[(1088, 794)]",[],[1],[],horizontal,"(890.0, 762.0)",1.316666667,nan,1,3016.173,3
0,97,target,"[(1062, 792)]",[],[1],[0.55],vertical,"(890.0, 762.0)",1.05,0.51,1,3021.255,3
0,98,target,"[(1075, 821)]",[],[1],[0.6333333333333333],vertical,"(890.0, 262.0)",1,0.593,1,3026.724,3
0,99,target,"[(1081, 785)]",[],[1],[0.45],vertical,"(890.0, 262.0)",1.25,0.413,1,3032.424,3
0,100,target,"[(1080, 783)]",[],[1],[0.6333333333333333],vertical,"(890.0, 262.0)",0.866666667,0.603,1,3037.791,3
0,101,target,"[(1081, 784)]",[],[1],[0.6166666666666667],horizontal,"(390.0, 262.0)",1.316666667,0.574,1,3043.257,3
0,102,target,"[(1064, 796)]",[],[1],[],horizontal,"(390.0, 262.0)",,"('cti', 1.05)",0,3048.757,0
0,103,target,"[(1081, 802)]",[],[1],[0.5833333333333334],horizontal,"(890.0, 262.0)",0.75,0.543,1,3053.324,1
0,104,catch,"[(1065, 806)]",[],[1],[],horizontal,"(390.0, 762.0)",1.7,nan,1,3057.723,1
0,105,target,"[(1065, 790)]",[],[1],[0.7166666666666667],horizontal,"(390.0, 262.0)",1.016666667,0.673,1,3062.708,1
0,106,target,"[(1095, 770)]",[],[1],[0.4166666666666667],horizontal,"(890.0, 262.0)",1.133333333,0.379,1,3067.342,2
0,107,target,"[(1082, 782)]",[],[1],[0.65],vertical,"(390.0, 762.0)",0.616666667,0.609,1,3072.374,2
0,108,target,"[(1077, 795)]",[],[1],[0.5333333333333333],horizontal,"(890.0, 762.0)",0.733333333,0.497,1,3076.908,2
0,109,target,"[(1079, 787)]",[],[1],[0.35],horizontal,"(890.0, 762.0)",1.216666667,0.318,1,3081.307,2
0,110,target,"[(1072, 789)]",[],[1],[0.5],horizontal,"(890.0, 762.0)",0.75,0.461,1,3086.146,2
0,111,target,"[(1075, 806)]",[],[1],[0.5666666666666667],vertical,"(890.0, 762.0)",0.633333333,0.523,1,3090.94,3
0,112,target,"[(1078, 778)]",[],[1],[0.5666666666666667],horizontal,"(890.0, 262.0)",1.1,0.529,1,3096.086,3
0,113,target,"[(1079, 779)]",[],[1],[0.7],horizontal,"(890.0, 762.0)",0.516666667,0.66,1,3101.335,3
0,114,catch,"[(1061, 790)]",[],[1],[],vertical,"(390.0, 762.0)",1.6,nan,1,3106.298,3
0,115,target,"[(1074, 804)]",[],[1],[0.48333333333333334],vertical,"(890.0, 262.0)",1.083333333,0.444,1,3112.6,3
0,116,target,"[(1068, 803)]",[],[1],[0.25],horizontal,"(390.0, 262.0)",1.533333333,0.216,1,3118.375,3
0,117,target,"[(1062, 785)]",[],[1],[],horizontal,"(390.0, 762.0)",,"('cti', 1.317)",0,3124.028,0
0,118,target,"[(1078, 781)]",[],[1],[0.35],vertical,"(390.0, 262.0)",1.283333333,0.317,1,3128.591,1
0,119,target,"[(1061, 839)]",[],[1],[0.85],horizontal,"(890.0, 762.0)",1.5,nan,0,3133.542,0
0,120,target,"[(1080, 813)]",[],[1],[0.36666666666666664],horizontal,"(390.0, 262.0)",1.45,0.332,1,3191.974,1
0,121,target,"[(1080, 821)]",[],[1],[0.85],horizontal,"(390.0, 262.0)",0.783333333,nan,0,3196.609,0
0,122,catch,"[(1075, 813)]",[],[1],[],horizontal,"(890.0, 262.0)",1.5,nan,1,3200.975,1
0,123,catch,"[(1077, 802)]",[],[1],[],horizontal,"(890.0, 262.0)",1.166666667,nan,1,3205.5,1
0,124,target,"[(1066, 798)]",[],[1],[0.6],vertical,"(390.0, 762.0)",0.516666667,0.56,1,3209.392,1
0,125,target,"[(1062, 796)]",[],[1],[0.36666666666666664],horizontal,"(890.0, 762.0)",1.183333333,0.328,1,3213.741,2
0,126,target,"[(1075, 786)]",[],[1],[0.5333333333333333],horizontal,"(890.0, 762.0)",0.75,0.49,1,3218.893,2
0,127,target,"[(1077, 795)]",[],[1],[0.6666666666666666],vertical,"(390.0, 262.0)",0.616666667,0.634,1,3223.661,2
0,128,target,"[(1077, 791)]",[],[1],[],horizontal,"(890.0, 762.0)",,"('cti', 1.381)",0,3228.659,0
0,129,target,"[(1077, 795)]",[],[1],[0.5166666666666666],vertical,"(390.0, 262.0)",0.85,0.484,1,3233.409,1
0,130,target,"[(1077, 791)]",[],[1],[0.7166666666666667],vertical,"(390.0, 762.0)",0.766666667,0.671,1,3237.548,1
0,131,target,"[(1080, 791)]",[],[1],[0.25],horizontal,"(890.0, 762.0)",1.616666667,0.216,1,3242.359,1
0,132,target,"[(1065, 777)]",[],[1],[0.5333333333333333],vertical,"(390.0, 762.0)",1.133333333,0.493,1,3247.174,2
0,133,target,"[(1085, 766)]",[],[1],[0.5833333333333334],vertical,"(890.0, 762.0)",0.583333333,0.541,1,3252.282,2
0,134,target,"[(1093, 770)]",[],[1],[0.36666666666666664],horizontal,"(890.0, 262.0)",1.2,0.327,1,3257.026,2
0,135,target,"[(1082, 784)]",[],[1],[],vertical,"(390.0, 762.0)",,"('cti', 1.446)",0,3261.939,0
0,136,target,"[(1085, 796)]",[],[1],[0.25],horizontal,"(390.0, 762.0)",1.483333333,0.218,1,3266.75,1
0,137,target,"[(1095, 780)]",[],[1],[0.5833333333333334],horizontal,"(390.0, 762.0)",0.633333333,0.548,1,3271.889,1
0,138,target,"[(1104, 794)]",[],[1],[0.48333333333333334],vertical,"(390.0, 262.0)",1.166666667,0.446,1,3276.426,1
0,139,target,"[(1077, 779)]",[],[1],[0.48333333333333334],horizontal,"(390.0, 762.0)",1.216666667,0.441,1,3281.26,2
0,140,target,"[(1083, 781)]",[],[1],[0.6166666666666667],vertical,"(390.0, 762.0)",0.75,0.576,1,3286.676,2
0,141,target,"[(1082, 775)]",[],[1],[0.5666666666666667],vertical,"(390.0, 762.0)",0.983333333,0.531,1,3291.49,2
0,142,catch,"[(1081, 790)]",[],[1],[],horizontal,"(890.0, 762.0)",1.366666667,nan,1,3296.392,2
0,143,target,"[(1091, 782)]",[],[1],[0.7666666666666666],vertical,"(890.0, 762.0)",0.55,0.729,1,3301.458,2
0,144,target,"[(1090, 780)]",[],[1],[0.31666666666666665],horizontal,"(890.0, 262.0)",1.4,0.281,1,3306.192,3
0,145,target,"[(1081, 785)]",[],[1],[],vertical,"(390.0, 762.0)",,"('cti', 1.275)",0,3311.826,0
0,146,target,"[(1065, 794)]",[],[1],[0.5666666666666667],horizontal,"(890.0, 262.0)",1.166666667,0.522,1,3316.385,1
0,147,target,"[(1075, 800)]",[],[1],[0.6333333333333333],vertical,"(390.0, 762.0)",0.533333333,0.594,1,3321.308,1
0,148,catch,"[(1064, 766)]",[],[1],[],vertical,"(390.0, 262.0)",1.416666667,nan,1,3325.434,1
0,149,catch,"[(1063, 793)]",[],[1],[],vertical,"(390.0, 762.0)",1.483333333,nan,1,3329.558,2
0,150,target,"[(1032, 806)]",[],[1],[0.5333333333333333],vertical,"(890.0, 262.0)",1.05,0.497,1,3334.359,2
0,151,target,"[(1066, 796)]",[],[1],[0.65],vertical,"(390.0, 262.0)",0.883333333,0.606,1,3339.338,2
0,152,target,"[(1076, 807)]",[],[1],[0.6333333333333333],vertical,"(890.0, 262.0)",0.85,0.599,1,3344.576,2
0,153,target,"[(1067, 789)]",[],[1],[0.05],vertical,"(890.0, 262.0)",1.316666667,0.019,0,3349.526,0
0,154,target,"[(1064, 792)]",[],[1],[0.5166666666666666],vertical,"(390.0, 262.0)",0.816666667,0.474,1,3354.043,1
0,155,target,"[(1067, 806)]",[],[1],[0.7333333333333333],vertical,"(390.0, 762.0)",0.783333333,0.688,1,3358.375,1
0,156,target,"[(1063, 772)]",[],[1],[],vertical,"(890.0, 762.0)",,"('cti', 1.157)",0,3363.073,0
0,157,catch,"[(1058, 791)]",[],[1],[0.03333333333333333],vertical,"(890.0, 262.0)",1.616666667,"0.019,nan",0,3367.802,0
0,158,catch,"[(1070, 765)]",[],[1],[],vertical,"(890.0, 762.0)",1.166666667,nan,1,3372.943,1
0,159,target,"[(1066, 800)]",[],[1],[0.6],horizontal,"(890.0, 762.0)",1.233333333,0.562,1,3376.993,1
0,160,target,"[(1066, 793)]",[],[1],[0.55],horizontal,"(390.0, 262.0)",0.5,0.509,1,3382.035,1
0,161,target,"[(1081, 790)]",[],[1],[0.7],vertical,"(390.0, 762.0)",0.866666667,0.659,1,3386.393,2
0,162,target,"[(1089, 792)]",[],[1],[0.6333333333333333],horizontal,"(890.0, 762.0)",0.916666667,0.596,1,3391.23,2
0,163,target,"[(1071, 785)]",[],[1],[0.6166666666666667],vertical,"(890.0, 762.0)",0.616666667,0.574,1,3396.043,2
0,164,target,"[(1080, 799)]",[],[1],[0.4],horizontal,"(890.0, 262.0)",1.216666667,0.364,1,3400.603,2
0,165,target,"[(1066, 788)]",[],[1],[0.55],vertical,"(390.0, 762.0)",0.933333333,0.507,1,3405.377,2
0,166,catch,"[(1085, 798)]",[],[1],[],horizontal,"(890.0, 262.0)",,"('cti', 1.418),nan",0,3410.302,0
0,167,target,"[(1088, 777)]",[],[1],[0.5333333333333333],horizontal,"(390.0, 762.0)",0.866666667,0.49,1,3414.762,1
0,168,target,"[(1062, 786)]",[],[1],[0.65],vertical,"(390.0, 262.0)",0.766666667,0.617,1,3419.031,1
0,169,target,"[(1077, 794)]",[],[1],[],vertical,"(890.0, 762.0)",,"('cti', 0.492)",0,3423.11,0
0,170,target,"[(1037, 807)]",[],[1],[0.5166666666666666],vertical,"(890.0, 262.0)",1.016666667,0.475,1,3427.001,1
0,171,target,"[(1079, 802)]",[],[1],[0.6166666666666667],vertical,"(890.0, 762.0)",0.733333333,0.575,1,3431.377,1
0,172,target,"[(1103, 795)]",[],[1],[0.6166666666666667],vertical,"(390.0, 262.0)",1,0.572,1,3435.598,1
0,173,target,"[(1062, 778)]",[],[1],[0.18333333333333332],horizontal,"(390.0, 762.0)",1.533333333,0.149,0,3439.993,0
0,174,target,"[(1059, 800)]",[],[1],[0.5833333333333334],horizontal,"(390.0, 762.0)",0.966666667,0.539,1,3444.643,1
0,175,catch,"[(1099, 792)]",[],[1],[],horizontal,"(890.0, 262.0)",1.166666667,nan,1,3449.522,1
0,176,target,"[(1059, 793)]",[],[1],[0.5833333333333334],horizontal,"(890.0, 262.0)",0.766666667,0.541,1,3453.56,1
0,177,target,"[(1079, 782)]",[],[1],[0.5166666666666666],horizontal,"(890.0, 762.0)",1.2,0.473,1,3457.877,2
0,178,target,"[(1079, 813)]",[],[1],[0.5666666666666667],horizontal,"(390.0, 262.0)",1.083333333,0.522,1,3463.374,2
0,179,catch,"[(1108, 789)]",[],[1],[],vertical,"(390.0, 762.0)",1.45,nan,1,3468.477,2
0,180,target,"[(1075, 782)]",[],[1],[0.5166666666666666],horizontal,"(390.0, 762.0)",1.283333333,0.478,1,3473.533,2
0,181,target,"[(1061, 775)]",[],[1],[0.8],horizontal,"(890.0, 762.0)",0.6,0.752,1,3478.736,2
0,182,target,"[(1077, 783)]",[],[1],[0.5333333333333333],vertical,"(890.0, 762.0)",0.633333333,0.493,1,3483.291,3
0,183,target,"[(1082, 782)]",[],[1],[0.5833333333333334],vertical,"(890.0, 762.0)",0.916666667,0.542,1,3488.576,3
0,184,target,"[(1068, 796)]",[],[1],[0.4666666666666667],horizontal,"(390.0, 762.0)",1.3,0.425,1,3494.008,3
0,185,target,"[(1071, 776)]",[],[1],[0.3833333333333333],vertical,"(390.0, 762.0)",1.233333333,0.347,1,3499.396,3
0,186,target,"[(1082, 805)]",[],[1],[0.2],vertical,"(390.0, 262.0)",1.316666667,0.165,1,3504.527,3
0,187,target,"[(1066, 801)]",[],[1],[0.6],vertical,"(890.0, 762.0)",0.866666667,0.559,1,3509.844,3
0,188,target,"[(1063, 770)]",[],[1],[0.15],vertical,"(390.0, 262.0)",1.516666667,0.118,0,3515.236,0
0,189,catch,"[(1080, 768)]",[],[1],[],vertical,"(390.0, 762.0)",1.516666667,nan,1,3519.428,1
0,190,target,"[(1069, 788)]",[],[1],[0.55],vertical,"(890.0, 762.0)",0.766666667,0.508,1,3523.968,1
0,191,target,"[(1061, 791)]",[],[1],[0.5333333333333333],horizontal,"(390.0, 762.0)",1.266666667,0.5,1,3528.626,1
0,192,target,"[(1087, 792)]",[],[1],[0.55],horizontal,"(890.0, 262.0)",0.516666667,0.508,1,3533.418,2
0,193,target,"[(1095, 793)]",[],[1],[0.4],vertical,"(890.0, 262.0)",1.55,0.36,1,3537.891,2
0,194,catch,"[(1094, 802)]",[],[1],[],vertical,"(390.0, 762.0)",1.533333333,nan,1,3542.975,2
0,195,target,"[(1081, 792)]",[],[1],[0.5166666666666666],horizontal,"(390.0, 262.0)",0.9,0.475,1,3547.86,2
0,196,target,"[(1090, 792)]",[],[1],[0.5166666666666666],horizontal,"(890.0, 262.0)",1.133333333,0.474,1,3552.944,2
0,197,target,"[(1078, 776)]",[],[1],[0.3],horizontal,"(890.0, 762.0)",1.283333333,0.262,1,3557.959,3
0,198,target,"[(1080, 787)]",[],[1],[0.5333333333333333],vertical,"(890.0, 262.0)",1.083333333,0.494,1,3563.077,3
0,199,catch,"[(1085, 789)]",[],[1],[],vertical,"(390.0, 262.0)",1.583333333,"('cti', 1.576),nan",0,3568.596,0
0,200,catch,"[(1083, 787)]",[],[1],[],vertical,"(390.0, 762.0)",1.55,nan,1,3573.378,1
0,201,target,"[(1085, 796)]",[],[1],[0.7166666666666667],vertical,"(890.0, 762.0)",0.983333333,0.667,1,3577.706,1
0,202,target,"[(1077, 778)]",[],[1],[0.21666666666666667],horizontal,"(890.0, 762.0)",1.333333333,0.183,1,3582.03,1
0,203,target,"[(1084, 794)]",[],[1],[0.5166666666666666],vertical,"(890.0, 262.0)",1.016666667,0.476,1,3586.847,2
0,204,catch,"[(1090, 783)]",[],[1],[],horizontal,"(390.0, 762.0)",1.466666667,nan,1,3591.676,2
0,205,target,"[(1085, 798)]",[],[1],[0.6],vertical,"(390.0, 762.0)",0.983333333,0.561,1,3596.372,2
0,206,target,"[(1080, 786)]",[],[1],[0.5833333333333334],vertical,"(390.0, 262.0)",0.516666667,0.554,1,3601.444,2
0,207,target,"[(1083, 782)]",[],[1],[0.5833333333333334],vertical,"(390.0, 262.0)",0.75,0.542,1,3605.961,2
0,208,target,"[(1073, 801)]",[],[1],[0.65],vertical,"(390.0, 762.0)",0.6,0.607,1,3610.878,3
0,209,catch,"[(1090, 776)]",[],[1],[],horizontal,"(890.0, 762.0)",,"('cti', 1.496),nan",0,3615.794,0
0,210,target,"[(1085, 784)]",[],[1],[0.6333333333333333],vertical,"(390.0, 262.0)",0.933333333,0.588,1,3620.563,1
0,211,target,"[(1091, 781)]",[],[1],[0.06666666666666667],horizontal,"(890.0, 262.0)",1.65,0.035,0,3625.578,0
0,212,target,"[(1081, 791)]",[],[1],[],vertical,"(390.0, 762.0)",,"('cti', 1.553)",0,3630.394,0
0,213,target,"[(1107, 782)]",[],[1],[0.5833333333333334],vertical,"(890.0, 262.0)",1.6,0.544,1,3635.184,1
0,214,target,"[(1082, 794)]",[],[1],[0.5666666666666667],vertical,"(390.0, 762.0)",0.983333333,0.528,1,3640.078,1
0,215,target,"[(1080, 790)]",[],[1],[0.55],vertical,"(390.0, 262.0)",1.083333333,0.518,1,3644.799,1
0,216,target,"[(1104, 785)]",[],[1],[0.26666666666666666],vertical,"(890.0, 762.0)",1.516666667,0.233,1,3649.511,2
0,217,target,"[(1099, 803)]",[],[1],[0.5],vertical,"(390.0, 762.0)",1.183333333,0.465,1,3654.527,2
0,218,target,"[(1080, 793)]",[],[1],[0.35],horizontal,"(890.0, 262.0)",1.45,0.319,1,3659.496,2
0,219,catch,"[(1062, 797)]",[],[1],[],horizontal,"(890.0, 762.0)",,"('cti', 1.508),nan",0,3664.955,0
0,220,target,"[(1077, 797)]",[],[1],[0.4666666666666667],horizontal,"(890.0, 762.0)",1.6,0.436,1,3669.463,1
0,221,target,"[(1056, 776)]",[],[1],[0.85],horizontal,"(890.0, 762.0)",0.533333333,nan,0,3674.445,0
0,222,target,"[(1082, 790)]",[],[1],[0.5166666666666666],horizontal,"(390.0, 762.0)",1.3,0.476,1,3678.962,1
0,223,target,"[(1106, 796)]",[],[1],[0.21666666666666667],horizontal,"(890.0, 762.0)",1.55,0.184,1,3684.044,1
0,224,target,"[(1070, 799)]",[],[1],[0.5333333333333333],vertical,"(890.0, 762.0)",0.5,0.497,1,3688.676,1
0,225,target,"[(1081, 797)]",[],[1],[0.5166666666666666],horizontal,"(390.0, 262.0)",1.183333333,0.472,1,3692.938,2
0,226,target,"[(1075, 798)]",[],[1],[0.85],horizontal,"(890.0, 262.0)",1.616666667,"('cti', 1.6),nan",0,3698.249,0
0,227,target,"[(1080, 789)]",[],[1],[0.5166666666666666],vertical,"(890.0, 262.0)",0.866666667,0.474,1,3703.61,1
0,228,target,"[(1080, 787)]",[],[1],[0.55],horizontal,"(390.0, 762.0)",1.483333333,0.51,1,3708.019,1
0,229,target,"[(1064, 761)]",[],[1],[0.1],horizontal,"(890.0, 762.0)",1.633333333,0.069,0,3712.694,0
0,230,target,"[(1106, 801)]",[],[1],[0.6],horizontal,"(390.0, 262.0)",0.716666667,0.56,1,3718.188,1
0,231,target,"[(1106, 785)]",[],[1],[0.6333333333333333],horizontal,"(390.0, 262.0)",0.883333333,0.587,1,3722.62,1
0,232,target,"[(1079, 793)]",[],[1],[0.48333333333333334],vertical,"(390.0, 262.0)",1.233333333,0.443,1,3726.924,1
0,233,target,"[(1056, 790)]",[],[1],[0.35],vertical,"(390.0, 262.0)",1.35,0.317,1,3731.995,2
0,234,target,"[(1076, 787)]",[],[1],[0.4],horizontal,"(890.0, 762.0)",1.116666667,0.36,1,3737.261,2
0,235,target,"[(1109, 795)]",[],[1],[0.13333333333333333],vertical,"(390.0, 762.0)",1.516666667,0.102,0,3742.292,0
0,236,target,"[(1074, 768)]",[],[1],[0.5833333333333334],horizontal,"(390.0, 762.0)",0.766666667,0.543,1,3746.728,1
0,237,target,"[(1072, 790)]",[],[1],[0.85],vertical,"(390.0, 762.0)",0.75,nan,0,3751.428,0
0,238,target,"[(1104, 790)]",[],[1],[0.55],vertical,"(390.0, 262.0)",1.216666667,0.51,1,3755.879,1
0,239,target,"[(1071, 786)]",[],[1],[0.5666666666666667],horizontal,"(890.0, 762.0)",0.933333333,0.527,1,3760.596,1
0,240,target,"[(1069, 796)]",[],[1],[0.5666666666666667],horizontal,"(890.0, 762.0)",1.183333333,0.525,1,3765.661,1
0,241,target,"[(1077, 791)]",[],[1],[0.3333333333333333],vertical,"(390.0, 262.0)",1.516666667,0.294,1,3770.344,2
0,242,target,"[(1071, 790)]",[],[1],[0.2833333333333333],vertical,"(890.0, 262.0)",1.55,0.248,1,3775.462,2
0,243,target,"[(1076, 794)]",[],[1],[0.85],vertical,"(890.0, 262.0)",0.8,nan,0,3780.912,0
0,244,target,"[(1090, 795)]",[],[1],[0.18333333333333332],vertical,"(390.0, 262.0)",1.666666667,0.15,1,3785.702,1
0,245,target,"[(1066, 785)]",[],[1],[0.6],vertical,"(390.0, 762.0)",1.083333333,0.56,1,3790.809,1
0,246,target,"[(1072, 795)]",[],[1],[0.75],vertical,"(390.0, 762.0)",1.016666667,0.706,1,3795.516,1
0,247,target,"[(1068, 795)]",[],[1],[0.6333333333333333],vertical,"(890.0, 262.0)",1.45,0.592,1,3800.555,2
0,248,target,"[(1071, 797)]",[],[1],[0.6],vertical,"(890.0, 762.0)",0.733333333,0.559,1,3805.591,2
0,249,target,"[(1061, 787)]",[],[1],[0.5166666666666666],vertical,"(390.0, 262.0)",1.3,0.482,1,3810.146,2
0,250,target,"[(1071, 799)]",[],[1],[0.5666666666666667],vertical,"(390.0, 262.0)",0.966666667,0.523,1,3815.708,2
0,251,target,"[(1081, 792)]",[],[1],[0.85],vertical,"(390.0, 762.0)",1.616666667,"('cti', 1.604),nan",0,3820.987,0
0,252,target,"[(1104, 792)]",[],[1],[0.7166666666666667],horizontal,"(390.0, 262.0)",0.55,0.677,1,3826.707,1
0,253,target,"[(1103, 786)]",[],[1],[0.5],vertical,"(390.0, 262.0)",1.283333333,0.463,1,3831.041,1
0,254,catch,"[(1088, 803)]",[],[1],[],vertical,"(390.0, 762.0)",1.366666667,nan,1,3835.596,1
0,255,target,"[(1081, 786)]",[],[1],[0.4666666666666667],vertical,"(390.0, 762.0)",1.366666667,0.432,1,3840.395,2
0,256,target,"[(1086, 799)]",[],[1],[0.5333333333333333],horizontal,"(390.0, 262.0)",1.166666667,0.491,1,3845.864,2
0,257,target,"[(1110, 778)]",[],[1],[0.6166666666666667],horizontal,"(390.0, 762.0)",0.65,0.572,1,3851.308,2
0,258,target,"[(1082, 785)]",[],[1],[0.4166666666666667],vertical,"(890.0, 262.0)",1.433333333,0.379,1,3856.196,2
0,259,target,"[(1040, 792)]",[],[1],[0.6],vertical,"(390.0, 262.0)",1.066666667,0.555,1,3861.161,2
0,260,target,"[(1072, 787)]",[],[1],[0.6],horizontal,"(890.0, 762.0)",0.666666667,0.558,1,3866.46,3
0,261,target,"[(1059, 799)]",[],[1],[0.3833333333333333],horizontal,"(390.0, 762.0)",1.333333333,0.344,1,3871.318,3
0,262,target,"[(1065, 782)]",[],[1],[0.5],vertical,"(890.0, 262.0)",1.5,0.46,1,3876.975,3
0,263,target,"[(1104, 761)]",[],[1],[0.55],horizontal,"(890.0, 262.0)",1.033333333,0.505,1,3882.675,3
0,264,target,"[(1069, 786)]",[],[1],[0.2],horizontal,"(890.0, 262.0)",1.516666667,0.166,1,3887.994,3
0,265,target,"[(1077, 787)]",[],[1],[0.6],horizontal,"(890.0, 262.0)",0.683333333,0.56,1,3893.113,3
0,266,target,"[(1079, 786)]",[],[1],[0.7166666666666667],vertical,"(390.0, 262.0)",1.066666667,0.673,1,3898.03,3
0,267,target,"[(1087, 803)]",[],[1],[0.6],vertical,"(390.0, 762.0)",1.15,0.555,1,3903.529,3
0,268,target,"[(1077, 793)]",[],[1],[0.6166666666666667],vertical,"(390.0, 762.0)",0.916666667,0.569,1,3909.049,3
0,269,target,"[(1061, 783)]",[],[1],[0.6833333333333333],horizontal,"(890.0, 762.0)",0.983333333,0.643,1,3914.333,3
0,270,target,"[(1085, 802)]",[],[1],[0.5666666666666667],horizontal,"(390.0, 762.0)",0.9,0.524,1,3919.667,3
0,271,target,"[(1080, 781)]",[],[1],[0.3333333333333333],vertical,"(890.0, 762.0)",1.4,0.297,1,3925.246,3
0,272,target,"[(1058, 771)]",[],[1],[0.85],vertical,"(390.0, 262.0)",0.6,nan,0,3930.747,0
0,273,target,"[(1079, 803)]",[],[1],[0.5666666666666667],vertical,"(890.0, 762.0)",0.783333333,0.523,1,3935.145,1
0,274,target,"[(1072, 791)]",[],[1],[0.65],horizontal,"(890.0, 262.0)",0.95,0.603,1,3939.788,1
0,275,target,"[(1077, 805)]",[],[1],[0.4666666666666667],horizontal,"(390.0, 762.0)",1.083333333,0.422,1,3944.918,1
0,276,target,"[(1059, 776)]",[],[1],[0.2],vertical,"(390.0, 762.0)",1.6,0.167,1,3949.749,2
0,277,target,"[(1083, 778)]",[],[1],[0.5666666666666667],horizontal,"(390.0, 762.0)",0.666666667,0.523,1,3954.646,2
0,278,target,"[(1083, 786)]",[],[1],[0.5833333333333334],vertical,"(890.0, 762.0)",0.55,0.543,1,3959.444,2
0,279,target,"[(1080, 793)]",[],[1],[0.48333333333333334],horizontal,"(390.0, 762.0)",0.966666667,0.441,1,3964.367,2
0,280,target,"[(1085, 788)]",[],[1],[0.35],vertical,"(890.0, 262.0)",1.283333333,0.305,1,3969.464,2
0,281,target,"[(1077, 792)]",[],[1],[0.5666666666666667],horizontal,"(390.0, 262.0)",0.85,0.527,1,3974.53,3
0,282,target,"[(1081, 770)]",[],[1],[0.6333333333333333],horizontal,"(390.0, 762.0)",0.866666667,0.599,1,3980.047,3
0,283,target,"[(1077, 807)]",[],[1],[0.5333333333333333],vertical,"(890.0, 262.0)",0.933333333,0.486,1,3985.047,3
0,284,target,"[(1078, 799)]",[],[1],[0.75],vertical,"(890.0, 762.0)",1.016666667,0.706,1,3990.341,3
0,285,target,"[(1061, 790)]",[],[1],[0.5666666666666667],horizontal,"(890.0, 762.0)",0.633333333,0.524,1,3995.622,3
0,286,catch,"[(1080, 799)]",[],[1],[],vertical,"(890.0, 762.0)",,"('cti', 1.478),nan",0,4000.845,0
0,287,target,"[(1080, 796)]",[],[1],[0.18333333333333332],vertical,"(390.0, 762.0)",1.35,0.147,0,4005.473,0
0,288,target,"[(1065, 796)]",[],[1],[0.5166666666666666],vertical,"(390.0, 762.0)",1.2,0.473,1,4010.33,1
0,289,target,"[(1063, 775)]",[],[1],[0.2],horizontal,"(890.0, 262.0)",1.516666667,0.168,1,4015.513,1
0,290,catch,"[(1073, 791)]",[],[1],[],horizontal,"(390.0, 762.0)",1.416666667,nan,1,4020.336,1
0,291,target,"[(1064, 782)]",[],[1],[0.25],horizontal,"(390.0, 762.0)",1.55,0.215,1,4024.951,2
0,292,target,"[(1077, 779)]",[],[1],[0.6],vertical,"(890.0, 262.0)",0.866666667,0.551,1,4029.83,2
0,293,target,"[(1077, 782)]",[],[1],[0.6333333333333333],vertical,"(890.0, 262.0)",0.733333333,0.589,1,4035.181,2
0,294,target,"[(1071, 803)]",[],[1],[0.43333333333333335],vertical,"(890.0, 762.0)",1.066666667,0.391,1,4039.863,2
0,295,target,"[(1084, 797)]",[],[1],[0.5666666666666667],vertical,"(390.0, 262.0)",0.6,0.523,1,4045.03,2
0,296,target,"[(1080, 782)]",[],[1],[0.55],vertical,"(890.0, 762.0)",1.233333333,0.503,1,4049.781,3
0,297,target,"[(1076, 803)]",[],[1],[0.5],horizontal,"(890.0, 262.0)",0.55,0.462,1,4055.592,3
0,298,target,"[(1061, 762)]",[],[1],[0.06666666666666667],vertical,"(890.0, 762.0)",1.433333333,0.035,0,4060.631,0
0,299,target,"[(1061, 799)]",[],[1],[0.55],vertical,"(390.0, 262.0)",1.416666667,0.513,1,4065.031,1
0,300,target,"[(1090, 785)]",[],[1],[0.31666666666666665],horizontal,"(390.0, 262.0)",1.6,0.276,1,4070.296,1
0,301,catch,"[(1075, 776)]",[],[1],[],vertical,"(390.0, 262.0)",1.35,nan,1,4075.03,1
0,302,target,"[(1075, 794)]",[],[1],[0.6],horizontal,"(890.0, 262.0)",0.733333333,0.559,1,4079.613,2
0,303,target,"[(1084, 786)]",[],[1],[],vertical,"(390.0, 762.0)",,"('cti', 1.588)",0,4084.565,0
0,304,target,"[(1080, 786)]",[],[1],[0.5333333333333333],horizontal,"(890.0, 262.0)",1.25,0.494,1,4089.31,1
0,305,target,"[(1085, 805)]",[],[1],[0.65],horizontal,"(390.0, 762.0)",0.866666667,0.603,1,4094.156,1
0,306,target,"[(1087, 790)]",[],[1],[0.5166666666666666],horizontal,"(890.0, 762.0)",0.766666667,0.475,1,4098.567,1
0,307,target,"[(1071, 782)]",[],[1],[0.5166666666666666],vertical,"(890.0, 262.0)",0.516666667,0.479,1,4103.006,2
0,308,target,"[(1069, 777)]",[],[1],[0.65],vertical,"(890.0, 262.0)",0.916666667,0.606,1,4107.779,2
0,309,target,"[(1098, 811)]",[],[1],[0.5833333333333334],vertical,"(390.0, 262.0)",1.166666667,0.541,1,4112.756,2
0,310,target,"[(1077, 800)]",[],[1],[0.4],horizontal,"(890.0, 762.0)",1.216666667,0.359,1,4117.776,2
0,311,target,"[(1085, 791)]",[],[1],[0.6833333333333333],horizontal,"(390.0, 262.0)",0.733333333,0.637,1,4122.79,2
0,312,target,"[(1078, 785)]",[],[1],[0.5666666666666667],horizontal,"(890.0, 762.0)",1.016666667,0.524,1,4127.421,3
0,313,target,"[(1098, 785)]",[],[1],[0.3833333333333333],horizontal,"(390.0, 262.0)",1.35,0.345,1,4132.66,3
0,314,target,"[(1078, 777)]",[],[1],[0.3833333333333333],horizontal,"(390.0, 762.0)",1.333333333,0.344,1,4137.766,3
0,315,target,"[(1079, 778)]",[],[1],[0.5666666666666667],horizontal,"(890.0, 762.0)",1.05,0.519,1,4143.281,3
0,316,target,"[(1064, 786)]",[],[1],[],horizontal,"(890.0, 262.0)",,"('cti', 1.506)",0,4148.65,0
0,317,target,"[(1077, 787)]",[],[1],[0.4],vertical,"(890.0, 762.0)",1.266666667,0.359,1,4152.923,1
0,318,target,"[(1075, 783)]",[],[1],[0.36666666666666664],horizontal,"(890.0, 762.0)",1.266666667,0.329,1,4157.762,1
0,319,target,"[(1059, 787)]",[],[1],[0.55],vertical,"(390.0, 262.0)",1.1,0.512,1,4162.695,1
0,320,target,"[(1075, 789)]",[],[1],[0.5333333333333333],horizontal,"(390.0, 762.0)",0.966666667,0.495,1,4167.469,2
0,321,target,"[(1048, 773)]",[],[1],[0.7833333333333333],vertical,"(890.0, 762.0)",0.883333333,0.738,1,4172.744,2
0,322,target,"[(1095, 799)]",[],[1],[0.13333333333333333],vertical,"(890.0, 262.0)",1.5,0.098,0,4177.965,0
0,323,target,"[(1091, 786)]",[],[1],[0.65],horizontal,"(890.0, 262.0)",0.75,0.606,1,4182.93,1
0,324,target,"[(1085, 770)]",[],[1],[0.26666666666666666],vertical,"(390.0, 262.0)",1.5,0.227,1,4187.634,1
0,325,target,"[(1082, 773)]",[],[1],[0.5666666666666667],horizontal,"(390.0, 762.0)",0.766666667,0.523,1,4192.606,1
0,326,target,"[(1060, 775)]",[],[1],[0.6333333333333333],vertical,"(890.0, 762.0)",0.5,0.587,1,4197.068,2
0,327,catch,"[(1084, 795)]",[],[1],[],vertical,"(390.0, 762.0)",1.6,nan,1,4201.666,2
0,328,target,"[(1065, 768)]",[],[1],[0.5666666666666667],horizontal,"(890.0, 762.0)",0.866666667,0.527,1,4206.831,2
0,329,target,"[(1062, 765)]",[],[1],[0.06666666666666667],horizontal,"(890.0, 262.0)",1.516666667,0.036,0,4211.657,0
0,330,target,"[(1061, 807)]",[],[1],[0.4166666666666667],horizontal,"(890.0, 762.0)",1.216666667,0.377,1,4216.316,1
0,331,target,"[(1077, 794)]",[],[1],[0.3833333333333333],vertical,"(890.0, 762.0)",1.233333333,0.341,1,4221.025,1
0,332,catch,"[(1075, 795)]",[],[1],[],horizontal,"(890.0, 762.0)",1.433333333,nan,1,4225.538,1
0,333,target,"[(1081, 797)]",[],[1],[0.6833333333333333],vertical,"(390.0, 762.0)",1.166666667,0.639,1,4229.802,2
0,334,target,"[(1079, 794)]",[],[1],[0.43333333333333335],horizontal,"(890.0, 262.0)",0.95,0.388,1,4235.297,2
0,335,target,"[(1081, 778)]",[],[1],[0.5833333333333334],horizontal,"(390.0, 762.0)",0.95,0.541,1,4240.337,2
0,336,target,"[(1077, 782)]",[],[1],[0.5166666666666666],horizontal,"(890.0, 762.0)",1.216666667,0.476,1,4245.682,2
0,337,target,"[(1084, 798)]",[],[1],[0.5333333333333333],horizontal,"(390.0, 262.0)",1,0.49,1,4250.849,2
0,338,target,"[(1070, 787)]",[],[1],[0.2],horizontal,"(390.0, 762.0)",1.4,0.169,1,4255.548,3
0,339,target,"[(1072, 773)]",[],[1],[0.15],horizontal,"(890.0, 262.0)",1.633333333,0.119,0,4260.981,0
0,340,target,"[(1074, 798)]",[],[1],[0.55],vertical,"(390.0, 262.0)",1.15,0.503,1,4265.798,1
0,341,target,"[(1071, 780)]",[],[1],[0.6],vertical,"(890.0, 762.0)",0.583333333,0.566,1,4270.4,1
0,342,target,"[(1060, 782)]",[],[1],[0.8166666666666667],horizontal,"(390.0, 262.0)",0.533333333,0.766,1,4274.4,1
0,343,target,"[(1090, 795)]",[],[1],[0.6833333333333333],horizontal,"(390.0, 762.0)",0.5,0.636,1,4278.666,2
0,344,target,"[(1079, 777)]",[],[1],[0.06666666666666667],vertical,"(390.0, 762.0)",1.483333333,0.036,0,4283.298,0
0,345,target,"[(1061, 792)]",[],[1],[0.4],vertical,"(890.0, 762.0)",1.6,0.362,1,4288.017,1
0,346,target,"[(1064, 806)]",[],[1],[0.5666666666666667],vertical,"(390.0, 262.0)",0.65,0.525,1,4333.531,1
0,347,target,"[(1067, 800)]",[],[1],[],vertical,"(890.0, 762.0)",,"('cti', 1.236)",0,4337.99,0
0,348,target,"[(1057, 787)]",[],[1],[0.5],vertical,"(890.0, 762.0)",1.333333333,0.46,1,4342.846,1
0,349,target,"[(1082, 798)]",[],[1],[0.7333333333333333],horizontal,"(390.0, 762.0)",0.533333333,0.686,1,4347.933,1
0,350,target,"[(1062, 796)]",[],[1],[0.5666666666666667],vertical,"(390.0, 762.0)",1.033333333,0.528,1,4351.815,1
0,351,target,"[(1072, 776)]",[],[1],[],vertical,"(890.0, 262.0)",,"('cti', 1.288)",0,4356.265,0
0,352,target,"[(1085, 779)]",[],[1],[0.8166666666666667],horizontal,"(890.0, 762.0)",1.283333333,0.769,1,4361.077,1
0,353,target,"[(1075, 777)]",[],[1],[0.6666666666666666],vertical,"(390.0, 762.0)",0.566666667,0.621,1,4365.849,1
0,354,target,"[(1080, 774)]",[],[1],[0.5666666666666667],horizontal,"(890.0, 762.0)",0.766666667,0.526,1,4370.098,1
0,355,target,"[(1066, 787)]",[],[1],[0.5666666666666667],horizontal,"(390.0, 762.0)",0.933333333,0.524,1,4374.42,2
0,356,catch,"[(1075, 784)]",[],[1],[],horizontal,"(890.0, 262.0)",,"('cti', 1.355),nan",0,4379.249,0
0,357,target,"[(1078, 785)]",[],[1],[0.48333333333333334],horizontal,"(390.0, 762.0)",1.416666667,0.442,1,4383.588,1
0,358,target,"[(1075, 798)]",[],[1],[0.7166666666666667],vertical,"(890.0, 762.0)",0.633333333,0.668,1,4388.833,1
0,359,target,"[(1063, 800)]",[],[1],[0.6333333333333333],horizontal,"(890.0, 262.0)",1,0.59,1,4393.001,1
0,360,target,"[(1104, 794)]",[],[1],[0.5166666666666666],horizontal,"(890.0, 762.0)",0.966666667,0.477,1,4397.816,2
0,361,target,"[(1068, 795)]",[],[1],[0.5666666666666667],vertical,"(390.0, 762.0)",1.5,0.524,1,4402.512,2
0,362,target,"[(1059, 770)]",[],[1],[0.55],horizontal,"(890.0, 262.0)",0.55,0.51,1,4407.57,2
0,363,target,"[(1080, 778)]",[],[1],[0.55],vertical,"(890.0, 762.0)",1.2,0.504,1,4412.104,2
0,364,target,"[(1060, 785)]",[],[1],[0.5],vertical,"(390.0, 262.0)",1.6,0.459,1,4417.573,2
0,365,target,"[(1060, 807)]",[],[1],[0.7],vertical,"(390.0, 262.0)",1.216666667,0.649,1,4423.32,3
0,366,target,"[(1069, 798)]",[],[1],[0.7833333333333333],horizontal,"(390.0, 762.0)",0.65,0.735,1,4428.749,3
0,367,target,"[(1060, 795)]",[],[1],[0.6166666666666667],horizontal,"(890.0, 762.0)",0.766666667,0.572,1,4434.016,3
0,368,target,"[(1075, 769)]",[],[1],[0.55],horizontal,"(890.0, 762.0)",0.616666667,0.511,1,4439.566,3
0,369,target,"[(1080, 774)]",[],[1],[0.6],horizontal,"(890.0, 762.0)",1.1,0.553,1,4444.661,3
0,370,target,"[(1081, 782)]",[],[1],[0.6],horizontal,"(890.0, 762.0)",0.683333333,0.558,1,4449.917,3
0,371,target,"[(1074, 794)]",[],[1],[0.3833333333333333],horizontal,"(390.0, 762.0)",1.166666667,0.342,1,4454.907,3
0,372,target,"[(1079, 796)]",[],[1],[0.6333333333333333],horizontal,"(390.0, 262.0)",1.633333333,0.587,1,4460.703,3
0,373,target,"[(1077, 788)]",[],[1],[0.5],horizontal,"(890.0, 262.0)",0.95,0.461,1,4466.387,3
0,374,catch,"[(1085, 805)]",[],[1],[],horizontal,"(390.0, 262.0)",1.2,nan,1,4471.284,3
0,375,target,"[(1079, 796)]",[],[1],[0.15],vertical,"(890.0, 762.0)",1.383333333,0.118,0,4476.522,0
0,376,target,"[(1051, 821)]",[],[1],[0.5833333333333334],horizontal,"(390.0, 262.0)",1,0.54,1,4481.127,1
0,377,catch,"[(1061, 789)]",[],[1],[],vertical,"(390.0, 762.0)",1.6,nan,1,4486.467,1
0,378,target,"[(1060, 796)]",[],[1],[0.5],vertical,"(890.0, 262.0)",1.583333333,0.459,1,4491.21,1
0,379,catch,"[(1071, 792)]",[],[1],[],horizontal,"(890.0, 762.0)",1.15,nan,1,4496.467,2
0,380,target,"[(1076, 786)]",[],[1],[0.5333333333333333],vertical,"(890.0, 762.0)",1.416666667,0.497,1,4500.883,2
0,381,target,"[(1061, 797)]",[],[1],[0.55],vertical,"(890.0, 262.0)",1.1,0.506,1,4506.562,2
0,382,catch,"[(1065, 798)]",[],[1],[],vertical,"(390.0, 262.0)",1.3,nan,1,4511.6,2
0,383,target,"[(1080, 812)]",[],[1],[0.5],vertical,"(890.0, 262.0)",1.1,0.454,1,4516.642,2
0,384,target,"[(1075, 801)]",[],[1],[0.18333333333333332],horizontal,"(890.0, 262.0)",1.683333333,0.146,0,4521.498,0
0,385,target,"[(1074, 806)]",[],[1],[0.6],vertical,"(390.0, 262.0)",0.6,0.554,1,4526.112,1
0,386,target,"[(1076, 793)]",[],[1],[0.25],horizontal,"(890.0, 262.0)",1.316666667,0.215,1,4530.35,1
0,387,target,"[(1063, 785)]",[],[1],[0.8333333333333334],vertical,"(890.0, 762.0)",0.583333333,0.78,1,4535.249,1
0,388,target,"[(1075, 800)]",[],[1],"[0.85, 0.85]",vertical,"(390.0, 762.0)",0.666666667,"0.805,nan",0,4539.97,0
0,389,target,"[(1072, 797)]",[],[1],[0.7],horizontal,"(390.0, 762.0)",0.883333333,0.653,1,4544.548,1
0,390,target,"[(1060, 811)]",[],[1],[0.48333333333333334],vertical,"(390.0, 762.0)",1.583333333,0.438,1,4548.982,1
0,391,target,"[(1059, 776)]",[],[1],[0.21666666666666667],vertical,"(890.0, 762.0)",1.5,0.182,1,4553.884,1
