block,practice,trial,change_interval_s,change_interval_frames,taps_start_time_during_fix,taps_end_time_during_fix,taps_start_loc_during_fix,taps_end_loc_during_fix,taps_on_lever_during_fix,taps_on_lever_frame_during_fix,taps_on_lever_s_during_fix,fix_xy,bar_orientation,target_xy,cti,rt,acc,time
1,True,1,0.828,49,[],[],"[(1222, 961), (1110, 1023), (1190, 881)]",[],"[0, 0, 1]",[],[],"[640.0, 512.0]",vertical,"(390.0, 262.0)",[],[0],0,0.363
1,True,2,0.539,32,[],[157450],"[(658, 960), (1032, 615), (1193, 889)]","[(1176, 922)]","[0, 0, 1]",[29],[0.48333333333333334],"[640.0, 512.0]",vertical,"(890.0, 762.0)",[],[0],0,144.232
1,True,3,0.76,45,[],[],"[(1203, 874)]",[],[1],[],[],"[640.0, 512.0]",vertical,"(390.0, 262.0)",[],[0],0,148.664
1,True,4,1.157,69,[],[],"[(672, 847), (648, 711), (1183, 883)]",[],"[0, 0, 1]",[5],[0.08333333333333333],"[640.0, 512.0]",horizontal,"(390.0, 262.0)",[1.1666666666666667],[0.053],1,151.982
1,False,1,1.074,64,[],[],"[(1174, 903)]",[],[1],[],[],"[640.0, 512.0]",horizontal,"(890.0, 762.0)",[],[0],0,156.91
1,False,2,1.156,69,[],[173115],"[(1202, 865)]","[(1150, 910)]",[1],[69],[1.15],"[640.0, 512.0]",vertical,"(890.0, 262.0)",[],"[0, 0]",0,161.222
1,False,3,0.879,52,[],[],"[(653, 547), (288, 490), (1137, 879)]",[],"[0, 0, 1]",[],[],"[640.0, 512.0]",horizontal,"(890.0, 262.0)",[],[0],0,165.071
1,False,4,0.535,32,[],[],"[(538, 668), (684, 966), (328, 508), (1148, 879)]",[],"[0, 0, 0, 1]",[34],[0.5666666666666667],"[640.0, 512.0]",vertical,"(890.0, 262.0)",[1.0166666666666666],[0.528],1,169.818
1,False,5,0.779,46,[],[],"[(1200, 875)]",[],[1],[],[],"[640.0, 512.0]",horizontal,"(890.0, 262.0)",[],[0],0,176.285
1,False,6,0.628,37,[],[],"[(972, 807), (1202, 879)]",[],"[0, 1]",[33],[0.55],"[640.0, 512.0]",horizontal,"(390.0, 762.0)",[0.7],[0.507],1,178.11
1,False,7,0.773,46,[],[],"[(1136, 867)]",[],[1],[],[],"[640.0, 512.0]",horizontal,"(390.0, 762.0)",[],[0],0,181.976
1,False,8,0.689,41,[],[196884],"[(1196, 882)]","[(1179, 897)]",[1],[33],[0.55],"[640.0, 512.0]",vertical,"(390.0, 762.0)",[],[0],0,185.588
1,False,9,1.087,65,[],[],"[(628, 812), (556, 913), (1197, 863)]",[],"[0, 0, 1]",[14],[0.23333333333333334],"[640.0, 512.0]",horizontal,"(390.0, 262.0)",[0.9166666666666666],[0.199],1,188.089
1,False,10,0.92,55,[],[],"[(1195, 889)]",[],[1],[40],[0.6666666666666666],"[640.0, 512.0]",horizontal,"(390.0, 762.0)",[1.4833333333333334],[0.625],1,193.119
1,False,11,0.641,38,[],[],"[(1226, 870)]",[],[1],[31],[0.5166666666666666],"[640.0, 512.0]",horizontal,"(390.0, 262.0)",[0.8333333333333334],[0.479],1,198.378
1,False,12,0.584,35,[],[],"[(1190, 859)]",[],[1],[33],[0.55],"[640.0, 512.0]",horizontal,"(890.0, 762.0)",[0.85],[0.509],1,202.381
1,False,13,0.92,55,[],[],"[(1160, 862)]",[],[1],[],[],"[640.0, 512.0]",vertical,"(890.0, 262.0)",[],[0],0,206.24
1,False,14,0.533,31,[],[],"[(1213, 866)]",[],[1],[7],[0.11666666666666667],"[640.0, 512.0]",vertical,"(390.0, 762.0)",[1.5166666666666666],[0.082],1,208.235
1,False,15,0.603,36,[],[],"[(1204, 876)]",[],[1],[31],[0.5166666666666666],"[640.0, 512.0]",vertical,"(390.0, 762.0)",[1.5166666666666666],[0.476],1,212.363
1,False,16,1.063,63,[],[],"[(1190, 874)]",[],[1],[34],[0.5666666666666667],"[640.0, 512.0]",vertical,"(890.0, 762.0)",[0.7166666666666667],[0.524],1,217.17
1,False,17,1.187,71,[],[232762],"[(1176, 864)]","[(1129, 885)]",[1],[25],[0.4166666666666667],"[640.0, 512.0]",vertical,"(390.0, 262.0)",[],[0],0,221.542
1,False,18,1.029,61,[],[],"[(532, 673), (1190, 876)]",[],"[0, 1]",[33],[0.55],"[640.0, 512.0]",vertical,"(390.0, 762.0)",[0.65],[0.504],1,223.959
1,False,19,1.112,66,[],[],"[(1207, 856)]",[],[1],[33],[0.55],"[640.0, 512.0]",horizontal,"(890.0, 262.0)",[1.6],[0.505],1,229.99
1,False,20,1.065,63,[],[],"[(1215, 861)]",[],[1],[31],[0.5166666666666666],"[640.0, 512.0]",horizontal,"(390.0, 262.0)",[1.2666666666666666],[0.473],1,235.039
1,False,21,1.137,68,[],[],"[(1190, 857)]",[],[1],[35],[0.5833333333333334],"[640.0, 512.0]",horizontal,"(390.0, 262.0)",[0.7833333333333333],[0.543],1,239.736
1,False,22,0.685,41,[],[],"[(1190, 858)]",[],[1],[41],[0.6833333333333333],"[640.0, 512.0]",horizontal,"(890.0, 262.0)",[0.5333333333333333],[0.633],1,244.096
1,False,23,1.114,66,[],[],"[(1193, 879)]",[],[1],[],[],"[640.0, 512.0]",vertical,"(890.0, 762.0)",[],[0],0,247.913
1,False,24,1.019,61,[],[],"[(1233, 862), (1196, 863)]",[],"[0, 1]",[],[],"[640.0, 512.0]",horizontal,"(390.0, 262.0)",[],[0],0,251.614
1,False,25,1.161,69,[],[],"[(1221, 868)]",[],[1],[51],[0.85],"[640.0, 512.0]",horizontal,"(390.0, 262.0)",[1.1333333333333333],[0.801],0,257.12
1,False,26,0.743,44,[],[],"[(922, 652), (1233, 868), (1189, 860)]",[],"[0, 0, 1]",[],[],"[640.0, 512.0]",horizontal,"(390.0, 262.0)",[],[0],0,262.215
1,False,27,0.554,33,[],[],"[(1226, 859)]",[],[1],[33],[0.55],"[640.0, 512.0]",vertical,"(390.0, 262.0)",[0.5666666666666667],[0.512],1,267.943
1,False,28,1.011,60,[],[],"[(1172, 872)]",[],[1],[36],[0.6],"[640.0, 512.0]",horizontal,"(890.0, 262.0)",[1.5666666666666667],[0.56],1,271.584
1,False,29,0.685,41,[],[],"[(1200, 866)]",[],[1],[12],[0.2],"[640.0, 512.0]",horizontal,"(390.0, 262.0)",[1.6666666666666667],[0.164],1,276.802
1,False,30,1.153,69,[],[293441],"[(1147, 875)]","[(1143, 890)]",[1],[66],[1.1],"[640.0, 512.0]",vertical,"(890.0, 762.0)",[],[0],0,281.418
1,False,31,0.927,55,[],[],"[(1221, 870)]",[],[1],[25],[0.4166666666666667],"[640.0, 512.0]",vertical,"(390.0, 262.0)",[0.9],[0.386],1,284.652
1,False,32,1.001,60,[],[],"[(1192, 870)]",[],[1],[43],[0.7166666666666667],"[640.0, 512.0]",horizontal,"(390.0, 762.0)",[1.1333333333333333],[0.675],1,288.804
1,False,33,1.119,67,[],[],"[(1196, 869)]",[],[1],[33],[0.55],"[640.0, 512.0]",vertical,"(390.0, 262.0)",[0.8166666666666667],[0.509],1,293.622
1,False,34,1.183,70,[],[],"[(1192, 865)]",[],[1],[],[],"[640.0, 512.0]",horizontal,"(890.0, 762.0)",[],[0],0,298.228
1,False,35,0.988,59,[],[],"[(1196, 875)]",[],[1],[27],[0.45],"[640.0, 512.0]",vertical,"(390.0, 762.0)",[1.5166666666666666],[0.41],1,302.202
1,False,36,0.562,33,[],[],"[(1197, 886)]",[],[1],[31],[0.5166666666666666],"[640.0, 512.0]",horizontal,"(890.0, 762.0)",[1.2166666666666666],[0.481],1,307.048
1,False,37,0.79,47,[],[],"[(1179, 858)]",[],[1],[],[],"[640.0, 512.0]",vertical,"(890.0, 762.0)",[],[0],0,311.156
1,False,38,1.048,62,[],[326183],"[(1190, 855)]","[(1177, 873)]",[1],[32],[0.5333333333333333],"[640.0, 512.0]",vertical,"(390.0, 762.0)",[],[0],0,314.845
1,False,39,1.008,60,[],[],"[(1242, 870), (1141, 871)]",[],"[0, 1]",[32],[0.5333333333333333],"[640.0, 512.0]",vertical,"(890.0, 262.0)",[0.5166666666666666],[0.493],1,317.386
1,False,40,0.67,40,[],[],"[(1218, 882)]",[],[1],[51],[0.85],"[640.0, 512.0]",horizontal,"(390.0, 762.0)",[0.9166666666666666],[0.807],0,323.781
1,False,41,0.637,38,[],[],"[(1130, 865)]",[],[1],[],[],"[640.0, 512.0]",horizontal,"(390.0, 262.0)",[],[0],0,328.147
1,False,42,0.959,57,[],[],"[(1172, 865)]",[],[1],[37],[0.6166666666666667],"[640.0, 512.0]",vertical,"(390.0, 262.0)",[1.0166666666666666],[0.577],1,332.357
1,False,43,0.998,59,[],[],"[(1200, 875)]",[],[1],[33],[0.55],"[640.0, 512.0]",vertical,"(890.0, 762.0)",[1.1666666666666667],[0.514],1,337.15
1,False,44,1.054,63,[],[],"[(1203, 879)]",[],[1],[33],[0.55],"[640.0, 512.0]",horizontal,"(890.0, 762.0)",[1.3666666666666667],[0.507],1,341.833
1,False,45,0.698,41,[],[],"[(1196, 875)]",[],[1],[51],[0.85],"[640.0, 512.0]",vertical,"(890.0, 262.0)",[1.4833333333333334],[0.809],0,346.653
1,False,46,1.188,71,[],[],"[(1197, 876)]",[],[1],[],[],"[640.0, 512.0]",vertical,"(390.0, 262.0)",[],[0],0,351.457
1,False,47,0.757,45,[],[],"[(1227, 875)]",[],[1],[31],[0.5166666666666666],"[640.0, 512.0]",horizontal,"(390.0, 762.0)",[1.1],[0.478],1,363.5
1,False,48,0.61,36,[],[],"[(1190, 875)]",[],[1],[51],[0.85],"[640.0, 512.0]",horizontal,"(390.0, 762.0)",[1.2],[0.803],0,367.722
1,False,49,0.55,33,[],[],"[(1197, 862)]",[],[1],[31],[0.5166666666666666],"[640.0, 512.0]",horizontal,"(890.0, 762.0)",[1.5666666666666667],[0.482],1,372.21
1,False,50,1.079,64,[],[],"[(1177, 858)]",[],[1],[27],[0.45],"[640.0, 512.0]",horizontal,"(390.0, 262.0)",[1.3666666666666667],[0.417],1,376.727
1,False,51,0.754,45,[],[],"[(1141, 850)]",[],[1],[33],[0.55],"[640.0, 512.0]",horizontal,"(890.0, 762.0)",[1.4833333333333334],[0.507],1,381.619
1,False,52,1.08,64,[],[],"[(1182, 865)]",[],[1],[41],[0.6833333333333333],"[640.0, 512.0]",horizontal,"(890.0, 262.0)",[0.5833333333333334],[0.64],1,386.635
1,False,53,0.555,33,[],[],"[(1218, 866)]",[],[1],[27],[0.45],"[640.0, 512.0]",horizontal,"(390.0, 262.0)",[1.15],[0.409],1,390.985
1,False,54,0.752,45,[],[],"[(1178, 884)]",[],[1],[51],[0.85],"[640.0, 512.0]",vertical,"(390.0, 762.0)",[1.5333333333333332],[0.799],0,394.983
1,False,55,1.167,70,[],[],"[(1136, 900)]",[],[1],[32],[0.5333333333333333],"[640.0, 512.0]",vertical,"(890.0, 762.0)",[0.7],[0.488],1,400.044
1,False,56,0.578,34,[],[],"[(1176, 866)]",[],[1],[31],[0.5166666666666666],"[640.0, 512.0]",vertical,"(890.0, 762.0)",[1.2833333333333332],[0.477],1,407.14
1,False,57,1.064,63,[],[],"[(1196, 878)]",[],[1],[35],[0.5833333333333334],"[640.0, 512.0]",horizontal,"(890.0, 262.0)",[0.5],[0.541],1,411.307
1,False,58,0.688,41,[],[],"[(1176, 880)]",[],[1],[51],[0.85],"[640.0, 512.0]",horizontal,"(390.0, 762.0)",[0.7666666666666666],[0.807],0,415.28
1,False,59,1.047,62,[],[],"[(1196, 872)]",[],[1],[33],[0.55],"[640.0, 512.0]",vertical,"(890.0, 762.0)",[1.4166666666666667],[0.511],1,419.605
1,False,60,1.137,68,[],[],"[(1190, 876)]",[],[1],[51],[0.85],"[640.0, 512.0]",vertical,"(390.0, 762.0)",[1.5],[0.802],0,424.474
2,False,61,0.982,58,[],[],"[(1204, 872)]",[],[1],[51],[0.85],"[640.0, 512.0]",vertical,"(390.0, 762.0)",[0.7833333333333333],[0.803],0,429.933
2,False,62,0.966,57,[],[],"[(1166, 864)]",[],[1],[51],[0.85],"[640.0, 512.0]",vertical,"(390.0, 762.0)",[0.8166666666666667],[0.809],0,434.485
2,False,63,0.72,43,[],[],"[(1195, 862)]",[],[1],[47],[0.7833333333333333],"[640.0, 512.0]",vertical,"(390.0, 762.0)",[1.2],[0.744],1,439.134
2,False,64,0.875,52,[],[],"[(1167, 874)]",[],[1],[],[],"[640.0, 512.0]",vertical,"(890.0, 762.0)",[],[0],0,443.794
2,False,65,0.72,43,[],[],"[(1203, 855)]",[],[1],[8],[0.13333333333333333],"[640.0, 512.0]",vertical,"(890.0, 762.0)",[0.9166666666666666],[0.099],1,447.5
2,False,66,1.024,61,[],[],"[(1180, 874)]",[],[1],[51],[0.85],"[640.0, 512.0]",vertical,"(390.0, 762.0)",[0.5666666666666667],[0.807],0,451.176
2,False,67,0.644,38,[],[],"[(1247, 881), (1190, 867)]",[],"[0, 1]",[32],[0.5333333333333333],"[640.0, 512.0]",vertical,"(390.0, 262.0)",[1.0833333333333333],[0.494],1,455.794
2,False,68,0.991,59,[],[],"[(1177, 867)]",[],[1],[51],[0.85],"[640.0, 512.0]",vertical,"(390.0, 762.0)",[1.0333333333333332],[0.802],0,463.224
2,False,69,1.168,70,[],[],"[(1193, 874)]",[],[1],[41],[0.6833333333333333],"[640.0, 512.0]",vertical,"(390.0, 762.0)",[1.1166666666666667],[0.643],1,468.045
2,False,70,0.882,52,[],[],"[(1217, 865)]",[],[1],[51],[0.85],"[640.0, 512.0]",vertical,"(390.0, 762.0)",[0.5],[0.816],0,472.967
2,False,71,0.776,46,[],[],"[(1188, 889)]",[],[1],[51],[0.85],"[640.0, 512.0]",horizontal,"(390.0, 262.0)",[1.6333333333333333],[0.805],0,477.191
2,False,72,1.004,60,[],[],"[(1170, 870)]",[],[1],[32],[0.5333333333333333],"[640.0, 512.0]",vertical,"(890.0, 762.0)",[1.65],[0.493],1,482.46
2,False,73,1.059,63,[],[],"[(1188, 868)]",[],[1],[31],[0.5166666666666666],"[640.0, 512.0]",horizontal,"(890.0, 262.0)",[1.3833333333333333],[0.474],1,489.767
2,False,74,0.96,57,[],[],"[(1225, 869)]",[],[1],[51],[0.85],"[640.0, 512.0]",vertical,"(890.0, 262.0)",[1.5],[0.804],0,494.746
2,False,75,0.834,50,[],[],"[(1195, 860)]",[],[1],[23],[0.3833333333333333],"[640.0, 512.0]",horizontal,"(890.0, 262.0)",[1.1833333333333333],[0.347],1,500.024
2,False,76,0.688,41,[],[],"[(1188, 877)]",[],[1],[44],[0.7333333333333333],"[640.0, 512.0]",vertical,"(890.0, 762.0)",[1.6166666666666667],[0.69],1,504.338
2,False,77,0.754,45,[],[],"[(1180, 862)]",[],[1],[51],[0.85],"[640.0, 512.0]",vertical,"(890.0, 762.0)",[0.6666666666666666],[0.803],0,509.219
2,False,78,0.608,36,[],[],"[(1178, 864)]",[],[1],[51],[0.85],"[640.0, 512.0]",vertical,"(890.0, 762.0)",[1.55],[0.804],0,513.435
2,False,79,1.073,64,[],[],"[(1203, 873)]",[],[1],[51],[0.85],"[640.0, 512.0]",horizontal,"(390.0, 762.0)",[1.4333333333333333],[0.808],0,518.408
2,False,80,1.095,65,[],[],"[(1186, 875)]",[],[1],[32],[0.5333333333333333],"[640.0, 512.0]",horizontal,"(390.0, 262.0)",[0.9666666666666667],[0.493],1,523.634
2,False,81,1.03,61,[],[],"[(1148, 871)]",[],[1],[29],[0.48333333333333334],"[640.0, 512.0]",horizontal,"(890.0, 262.0)",[1.65],[0.439],1,528.256
2,False,82,1.023,61,[],[],"[(1178, 863)]",[],[1],[51],[0.85],"[640.0, 512.0]",vertical,"(390.0, 762.0)",[1.0333333333333332],[0.799],0,533.308
2,False,83,0.989,59,[],[],"[(1208, 872)]",[],[1],[32],[0.5333333333333333],"[640.0, 512.0]",horizontal,"(890.0, 262.0)",[0.6],[0.493],1,538.207
2,False,84,1.164,69,[],[],"[(1185, 885)]",[],[1],[40],[0.6666666666666666],"[640.0, 512.0]",vertical,"(390.0, 762.0)",[0.9833333333333333],[0.622],1,542.323
2,False,85,0.602,36,[],[],"[(1188, 874)]",[],[1],[51],[0.85],"[640.0, 512.0]",vertical,"(890.0, 262.0)",[1.3],[0.8],0,546.992
2,False,86,1.058,63,[],[],"[(1220, 877)]",[],[1],[35],[0.5833333333333334],"[640.0, 512.0]",vertical,"(390.0, 262.0)",[0.6333333333333333],[0.543],1,551.607
2,False,87,1.081,64,[],[],"[(1189, 875)]",[],[1],[34],[0.5666666666666667],"[640.0, 512.0]",horizontal,"(890.0, 762.0)",[1.6833333333333333],[0.527],1,555.889
2,False,88,0.632,37,[],[],"[(1177, 863)]",[],[1],[],[],"[640.0, 512.0]",vertical,"(390.0, 762.0)",[],[0],0,560.989
2,False,89,1.092,65,[],[],"[(1152, 851)]",[],[1],[36],[0.6],"[640.0, 512.0]",horizontal,"(390.0, 762.0)",[0.6833333333333333],[0.562],1,564.729
2,False,90,0.98,58,[],[],"[(1193, 882)]",[],[1],[31],[0.5166666666666666],"[640.0, 512.0]",horizontal,"(890.0, 262.0)",[0.6666666666666666],[0.471],1,569.955
2,False,91,1.043,62,[],[],"[(1203, 887)]",[],[1],[34],[0.5666666666666667],"[640.0, 512.0]",horizontal,"(390.0, 762.0)",[0.6833333333333333],[0.524],1,573.927
2,False,92,0.805,48,[],[],"[(1184, 862)]",[],[1],[51],[0.85],"[640.0, 512.0]",horizontal,"(390.0, 762.0)",[1.3833333333333333],[0.802],0,578.032
2,False,93,1.118,67,[],[],"[(1183, 878)]",[],[1],[32],[0.5333333333333333],"[640.0, 512.0]",horizontal,"(390.0, 762.0)",[1.35],[0.487],1,583.096
2,False,94,0.772,46,[],[],"[(1178, 854)]",[],[1],[51],[0.85],"[640.0, 512.0]",vertical,"(890.0, 262.0)",[1.4833333333333334],[0.804],0,587.853
2,False,95,0.909,54,[],[],"[(1178, 862)]",[],[1],[39],[0.65],"[640.0, 512.0]",horizontal,"(390.0, 762.0)",[0.6],[0.608],1,592.858
2,False,96,0.978,58,[],[],"[(1194, 878)]",[],[1],[31],[0.5166666666666666],"[640.0, 512.0]",horizontal,"(890.0, 762.0)",[0.65],[0.486],1,597.021
2,False,97,0.83,49,[],[],"[(1190, 868)]",[],[1],[51],[0.85],"[640.0, 512.0]",horizontal,"(390.0, 262.0)",[0.5833333333333334],[0.803],0,601.073
2,False,98,0.603,36,[],[],"[(1177, 883)]",[],[1],[32],[0.5333333333333333],"[640.0, 512.0]",horizontal,"(390.0, 762.0)",[1.2333333333333334],[0.494],1,605.34
2,False,99,1.082,64,[],[],"[(1192, 870)]",[],[1],[37],[0.6166666666666667],"[640.0, 512.0]",vertical,"(890.0, 262.0)",[0.6],[0.572],1,611.466
2,False,100,0.576,34,[],[],"[(1190, 868)]",[],[1],[31],[0.5166666666666666],"[640.0, 512.0]",vertical,"(390.0, 262.0)",[0.7166666666666667],[0.476],1,615.768
2,False,101,0.889,53,[],[],"[(1193, 871)]",[],[1],[33],[0.55],"[640.0, 512.0]",vertical,"(890.0, 262.0)",[1.1166666666666667],[0.508],1,619.438
2,False,102,0.592,35,[],[],"[(1196, 860)]",[],[1],[27],[0.45],"[640.0, 512.0]",horizontal,"(390.0, 262.0)",[1.5833333333333333],[0.407],1,623.819
2,False,103,0.618,37,[],[],"[(1190, 871)]",[],[1],[32],[0.5333333333333333],"[640.0, 512.0]",vertical,"(390.0, 762.0)",[1.2333333333333334],[0.49],1,628.404
2,False,104,1.094,65,[],[],"[(1178, 858)]",[],[1],[34],[0.5666666666666667],"[640.0, 512.0]",vertical,"(390.0, 762.0)",[0.5666666666666667],[0.529],1,632.706
2,False,105,1.064,63,[],[],"[(1174, 869)]",[],[1],[34],[0.5666666666666667],"[640.0, 512.0]",horizontal,"(890.0, 262.0)",[1.4333333333333333],[0.528],1,636.92
2,False,106,0.996,59,[],[],"[(1184, 857)]",[],[1],[35],[0.5833333333333334],"[640.0, 512.0]",vertical,"(390.0, 762.0)",[0.7333333333333333],[0.541],1,641.869
2,False,107,1.031,61,[],[],"[(1193, 875)]",[],[1],[34],[0.5666666666666667],"[640.0, 512.0]",horizontal,"(390.0, 262.0)",[0.5166666666666666],[0.527],1,646.17
2,False,108,0.863,51,[],[],"[(1194, 864)]",[],[1],[31],[0.5166666666666666],"[640.0, 512.0]",horizontal,"(890.0, 262.0)",[1.5166666666666666],[0.476],1,650.169
2,False,109,0.584,35,[],[],"[(1174, 855)]",[],[1],[34],[0.5666666666666667],"[640.0, 512.0]",vertical,"(390.0, 762.0)",[0.9333333333333333],[0.525],1,655.037
2,False,110,0.631,37,[],[],"[(1195, 870)]",[],[1],[35],[0.5833333333333334],"[640.0, 512.0]",vertical,"(890.0, 262.0)",[1.0833333333333333],[0.541],1,659.135
2,False,111,1.138,68,[],[],"[(1153, 867)]",[],[1],[32],[0.5333333333333333],"[640.0, 512.0]",vertical,"(890.0, 762.0)",[0.6166666666666667],[0.491],1,663.255
2,False,112,1.073,64,[],[],"[(1213, 873)]",[],[1],[34],[0.5666666666666667],"[640.0, 512.0]",horizontal,"(390.0, 262.0)",[0.8833333333333333],[0.527],1,667.502
2,False,113,0.544,32,[],[],"[(1181, 871)]",[],[1],[51],[0.85],"[640.0, 512.0]",vertical,"(390.0, 262.0)",[1.0],[0.798],0,671.961
2,False,114,0.568,34,[],[],"[(1193, 865)]",[],[1],[51],[0.85],"[640.0, 512.0]",horizontal,"(890.0, 762.0)",[0.7833333333333333],[0.805],0,676.275
2,False,115,1.122,67,[],[],"[(1218, 880)]",[],[1],[51],[0.85],"[640.0, 512.0]",horizontal,"(890.0, 762.0)",[1.0],[0.806],0,680.473
2,False,116,1.174,70,[],[],"[(1245, 870), (1217, 860)]",[],"[0, 1]",[51],[0.85],"[640.0, 512.0]",vertical,"(390.0, 762.0)",[1.3],[0.802],0,685.354
2,False,117,0.663,39,[],[],"[(1172, 852)]",[],[1],[36],[0.6],"[640.0, 512.0]",horizontal,"(390.0, 762.0)",[0.8166666666666667],[0.559],1,691.759
2,False,118,0.525,31,[],[],"[(1193, 860)]",[],[1],[51],[0.85],"[640.0, 512.0]",horizontal,"(390.0, 762.0)",[1.5666666666666667],[0.808],0,695.889
2,False,119,0.845,50,[],[],"[(1180, 862)]",[],[1],[39],[0.65],"[640.0, 512.0]",horizontal,"(890.0, 762.0)",[1.0166666666666666],[0.608],1,700.786
2,False,120,0.745,44,[],[],"[(1164, 871)]",[],[1],[36],[0.6],"[640.0, 512.0]",vertical,"(390.0, 262.0)",[0.7166666666666667],[0.557],1,705.236
3,False,121,1.012,60,[],[],"[(1163, 866)]",[],[1],[33],[0.55],"[640.0, 512.0]",horizontal,"(390.0, 762.0)",[1.3],[0.508],1,709.152
3,False,122,0.761,45,[],[],"[(1171, 868)]",[],[1],[33],[0.55],"[640.0, 512.0]",horizontal,"(890.0, 762.0)",[1.5166666666666666],[0.514],1,713.839
3,False,123,1.172,70,[],[],"[(1150, 870)]",[],[1],[31],[0.5166666666666666],"[640.0, 512.0]",vertical,"(890.0, 762.0)",[1.55],[0.475],1,718.653
3,False,124,0.819,49,[],[],"[(1131, 867)]",[],[1],[40],[0.6666666666666666],"[640.0, 512.0]",horizontal,"(390.0, 262.0)",[1.2],[0.621],1,723.798
3,False,125,1.119,67,[],[],"[(1142, 855)]",[],[1],[33],[0.55],"[640.0, 512.0]",vertical,"(890.0, 762.0)",[0.9166666666666666],[0.506],1,728.296
3,False,126,0.525,31,[],[],"[(1172, 875)]",[],[1],[33],[0.55],"[640.0, 512.0]",horizontal,"(390.0, 762.0)",[1.6166666666666667],[0.508],1,732.774
3,False,127,0.804,48,[],[],"[(1129, 857)]",[],[1],[37],[0.6166666666666667],"[640.0, 512.0]",vertical,"(890.0, 262.0)",[0.9666666666666667],[0.576],1,737.458
3,False,128,0.954,57,[],[],"[(1179, 863)]",[],[1],[33],[0.55],"[640.0, 512.0]",vertical,"(890.0, 762.0)",[1.6666666666666667],[0.51],1,741.649
3,False,129,1.181,70,[],[],"[(1178, 867)]",[],[1],[35],[0.5833333333333334],"[640.0, 512.0]",horizontal,"(890.0, 262.0)",[0.85],[0.548],1,746.825
3,False,130,0.9,54,[],[],"[(1200, 878)]",[],[1],[6],[0.1],"[640.0, 512.0]",vertical,"(390.0, 262.0)",[1.5833333333333333],[0.066],1,751.441
3,False,131,0.92,55,[],[],"[(1191, 875)]",[],[1],[31],[0.5166666666666666],"[640.0, 512.0]",vertical,"(890.0, 262.0)",[1.2],[0.476],1,755.868
3,False,132,0.509,30,[],[],"[(1188, 873)]",[],[1],[43],[0.7166666666666667],"[640.0, 512.0]",vertical,"(890.0, 762.0)",[1.3],[0.671],1,760.348
3,False,133,1.024,61,[],[],"[(1180, 849)]",[],[1],[39],[0.65],"[640.0, 512.0]",horizontal,"(390.0, 762.0)",[0.6333333333333333],[0.603],1,764.829
3,False,134,0.742,44,[],[],"[(1188, 865)]",[],[1],[30],[0.5],"[640.0, 512.0]",horizontal,"(890.0, 262.0)",[1.25],[0.457],1,768.962
3,False,135,1.12,67,[],[],"[(1153, 872)]",[],[1],[34],[0.5666666666666667],"[640.0, 512.0]",vertical,"(890.0, 762.0)",[1.0],[0.526],1,773.44
3,False,136,0.907,54,[],[],"[(1142, 875)]",[],[1],[32],[0.5333333333333333],"[640.0, 512.0]",vertical,"(890.0, 762.0)",[0.7833333333333333],[0.492],1,778.124
3,False,137,1.182,70,[],[],"[(1174, 859)]",[],[1],[33],[0.55],"[640.0, 512.0]",vertical,"(890.0, 262.0)",[1.3166666666666667],[0.51],1,782.232
3,False,138,0.581,34,[],[],"[(1154, 862)]",[],[1],[34],[0.5666666666666667],"[640.0, 512.0]",vertical,"(390.0, 762.0)",[1.4],[0.523],1,787.192
3,False,139,1.089,65,[],[],"[(1168, 874)]",[],[1],[],[],"[640.0, 512.0]",horizontal,"(890.0, 262.0)",[],[0],0,791.541
3,False,140,0.954,57,[],[],"[(1194, 862)]",[],[1],[32],[0.5333333333333333],"[640.0, 512.0]",horizontal,"(390.0, 262.0)",[1.5],[0.485],1,795.587
3,False,141,0.721,43,[],[],"[(1174, 870)]",[],[1],[34],[0.5666666666666667],"[640.0, 512.0]",horizontal,"(890.0, 262.0)",[1.5166666666666666],[0.523],1,800.559
3,False,142,0.699,41,[],[],"[(1170, 873)]",[],[1],[45],[0.75],"[640.0, 512.0]",horizontal,"(890.0, 262.0)",[0.6166666666666667],[0.707],1,805.197
3,False,143,0.883,52,[],[],"[(1203, 865)]",[],[1],[40],[0.6666666666666666],"[640.0, 512.0]",horizontal,"(890.0, 762.0)",[1.2166666666666666],[0.62],1,809.168
3,False,144,0.621,37,[],[],"[(1172, 884)]",[],[1],[35],[0.5833333333333334],"[640.0, 512.0]",horizontal,"(890.0, 762.0)",[1.6833333333333333],[0.54],1,813.948
3,False,145,0.747,44,[],[],"[(1177, 872)]",[],[1],[32],[0.5333333333333333],"[640.0, 512.0]",vertical,"(890.0, 262.0)",[1.6],[0.492],1,818.699
3,False,146,0.511,30,[],[],"[(1172, 862)]",[],[1],[31],[0.5166666666666666],"[640.0, 512.0]",horizontal,"(890.0, 262.0)",[1.0166666666666666],[0.475],1,823.445
3,False,147,0.979,58,[],[],"[(1185, 859)]",[],[1],[32],[0.5333333333333333],"[640.0, 512.0]",horizontal,"(890.0, 762.0)",[0.8833333333333333],[0.49],1,827.365
3,False,148,1.121,67,[],[],"[(1176, 865)]",[],[1],[34],[0.5666666666666667],"[640.0, 512.0]",horizontal,"(390.0, 262.0)",[1.0333333333333332],[0.52],1,831.549
3,False,149,0.513,30,[],[],"[(1203, 870)]",[],[1],[32],[0.5333333333333333],"[640.0, 512.0]",vertical,"(390.0, 762.0)",[1.1333333333333333],[0.505],1,836.218
3,False,150,0.636,38,[],[],"[(1184, 872)]",[],[1],[32],[0.5333333333333333],"[640.0, 512.0]",horizontal,"(390.0, 262.0)",[0.6],[0.492],1,840.437
3,False,151,0.939,56,[],[],"[(1172, 871)]",[],[1],[45],[0.75],"[640.0, 512.0]",horizontal,"(890.0, 262.0)",[0.5333333333333333],[0.701],1,844.128
3,False,152,0.57,34,[],[],"[(1196, 865)]",[],[1],[33],[0.55],"[640.0, 512.0]",vertical,"(890.0, 762.0)",[1.0333333333333332],[0.507],1,848.19
3,False,153,0.547,32,[],[],"[(1178, 861)]",[],[1],[34],[0.5666666666666667],"[640.0, 512.0]",vertical,"(890.0, 762.0)",[0.8666666666666667],[0.516],1,852.372
3,False,154,0.715,42,[],[],"[(1177, 870)]",[],[1],[32],[0.5333333333333333],"[640.0, 512.0]",vertical,"(890.0, 262.0)",[1.2166666666666666],[0.489],1,856.136
3,False,155,1.185,71,[],[],"[(1174, 875)]",[],[1],[39],[0.65],"[640.0, 512.0]",horizontal,"(890.0, 762.0)",[1.05],[0.604],1,860.509
3,False,156,0.965,57,[],[],"[(1172, 879)]",[],[1],[29],[0.48333333333333334],"[640.0, 512.0]",horizontal,"(390.0, 262.0)",[1.0],[0.438],1,865.404
3,False,157,0.662,39,[],[],"[(1174, 866)]",[],[1],[18],[0.3],"[640.0, 512.0]",vertical,"(890.0, 262.0)",[1.2666666666666666],[0.264],1,869.715
3,False,158,0.789,47,[],[],"[(1173, 865)]",[],[1],[31],[0.5166666666666666],"[640.0, 512.0]",vertical,"(890.0, 262.0)",[0.8833333333333333],[0.478],1,873.825
3,False,159,0.808,48,[],[],"[(1172, 865)]",[],[1],[33],[0.55],"[640.0, 512.0]",vertical,"(890.0, 762.0)",[1.25],[0.511],1,877.987
3,False,160,0.879,52,[],[],"[(1166, 865)]",[],[1],[35],[0.5833333333333334],"[640.0, 512.0]",horizontal,"(890.0, 762.0)",[1.0333333333333332],[0.538],1,882.498
3,False,161,0.842,50,[],[],"[(1178, 867)]",[],[1],[34],[0.5666666666666667],"[640.0, 512.0]",vertical,"(890.0, 762.0)",[1.2166666666666666],[0.52],1,886.777
3,False,162,0.811,48,[],[],"[(1170, 863)]",[],[1],[43],[0.7166666666666667],"[640.0, 512.0]",vertical,"(390.0, 262.0)",[1.0833333333333333],[0.67],1,891.288
3,False,163,1.063,63,[],[],"[(1157, 868)]",[],[1],[34],[0.5666666666666667],"[640.0, 512.0]",horizontal,"(890.0, 762.0)",[1.5833333333333333],[0.522],1,895.844
3,False,164,0.803,48,[],[],"[(1166, 865)]",[],[1],[34],[0.5666666666666667],"[640.0, 512.0]",vertical,"(890.0, 262.0)",[1.45],[0.522],1,901.02
3,False,165,0.567,34,[],[],"[(1166, 875)]",[],[1],[30],[0.5],"[640.0, 512.0]",horizontal,"(890.0, 262.0)",[1.6666666666666667],[0.46],1,905.649
3,False,166,0.907,54,[],[],"[(1142, 864)]",[],[1],[33],[0.55],"[640.0, 512.0]",horizontal,"(390.0, 762.0)",[1.2333333333333334],[0.51],1,910.214
3,False,167,1.026,61,[],[],"[(1133, 865)]",[],[1],[34],[0.5666666666666667],"[640.0, 512.0]",vertical,"(390.0, 762.0)",[0.6333333333333333],[0.525],1,914.79
3,False,168,1.161,69,[],[],"[(1160, 855)]",[],[1],[34],[0.5666666666666667],"[640.0, 512.0]",horizontal,"(390.0, 762.0)",[0.6833333333333333],[0.521],1,918.925
3,False,169,0.891,53,[],[],"[(1153, 860)]",[],[1],[30],[0.5],"[640.0, 512.0]",vertical,"(390.0, 262.0)",[1.35],[0.459],1,923.322
3,False,170,1.129,67,[],[],"[(1174, 865)]",[],[1],[34],[0.5666666666666667],"[640.0, 512.0]",vertical,"(390.0, 762.0)",[1.1833333333333333],[0.522],1,928.068
3,False,171,0.703,42,[],[],"[(1197, 869)]",[],[1],[34],[0.5666666666666667],"[640.0, 512.0]",horizontal,"(890.0, 262.0)",[0.9],[0.527],1,932.92
3,False,172,0.793,47,[],[],"[(1167, 862)]",[],[1],[32],[0.5333333333333333],"[640.0, 512.0]",horizontal,"(390.0, 262.0)",[0.8666666666666667],[0.489],1,937.074
3,False,173,1.127,67,[],[],"[(1160, 872)]",[],[1],[35],[0.5833333333333334],"[640.0, 512.0]",vertical,"(890.0, 262.0)",[0.9333333333333333],[0.536],1,941.11
3,False,174,0.537,32,[],[],"[(1177, 869)]",[],[1],[32],[0.5333333333333333],"[640.0, 512.0]",vertical,"(890.0, 262.0)",[1.6833333333333333],[0.496],1,945.775
3,False,175,1.074,64,[],[],"[(1185, 855)]",[],[1],[33],[0.55],"[640.0, 512.0]",vertical,"(390.0, 262.0)",[1.2333333333333334],[0.519],1,950.375
3,False,176,0.979,58,[],[],"[(1172, 865)]",[],[1],[41],[0.6833333333333333],"[640.0, 512.0]",horizontal,"(890.0, 262.0)",[0.6666666666666666],[0.642],1,955.215
3,False,177,1.151,69,[],[],"[(1219, 852)]",[],[1],[37],[0.6166666666666667],"[640.0, 512.0]",vertical,"(890.0, 762.0)",[0.7333333333333333],[0.574],1,959.454
3,False,178,1.127,67,[],[],"[(1160, 859)]",[],[1],[32],[0.5333333333333333],"[640.0, 512.0]",horizontal,"(390.0, 262.0)",[0.8166666666666667],[0.492],1,963.819
3,False,179,0.701,42,[],[],"[(1123, 846)]",[],[1],[32],[0.5333333333333333],"[640.0, 512.0]",horizontal,"(890.0, 762.0)",[0.8666666666666667],[0.491],1,968.32
3,False,180,0.652,39,[],[],"[(1189, 860)]",[],[1],[32],[0.5333333333333333],"[640.0, 512.0]",vertical,"(390.0, 762.0)",[1.5166666666666666],[0.496],1,972.391
4,False,181,0.906,54,[],[],"[(1170, 856)]",[],[1],[33],[0.55],"[640.0, 512.0]",vertical,"(390.0, 262.0)",[0.6333333333333333],[0.51],1,976.99
4,False,182,1.083,64,[],[],"[(1174, 862)]",[],[1],[34],[0.5666666666666667],"[640.0, 512.0]",horizontal,"(890.0, 762.0)",[1.3833333333333333],[0.523],1,981.111
4,False,183,0.608,36,[],[],"[(1172, 865)]",[],[1],[34],[0.5666666666666667],"[640.0, 512.0]",vertical,"(890.0, 262.0)",[0.5],[0.527],1,986.027
4,False,184,0.839,50,[],[],"[(1176, 860)]",[],[1],[33],[0.55],"[640.0, 512.0]",horizontal,"(890.0, 762.0)",[0.8166666666666667],[0.512],1,989.687
4,False,185,1.121,67,[],[],"[(1172, 868)]",[],[1],[37],[0.6166666666666667],"[640.0, 512.0]",horizontal,"(390.0, 762.0)",[0.6666666666666666],[0.572],1,993.907
4,False,186,0.749,44,[],[],"[(1180, 858)]",[],[1],[35],[0.5833333333333334],"[640.0, 512.0]",horizontal,"(890.0, 262.0)",[1.4166666666666667],[0.538],1,998.326
4,False,187,0.66,39,[],[],"[(1153, 881)]",[],[1],[39],[0.65],"[640.0, 512.0]",vertical,"(890.0, 262.0)",[0.55],[0.606],1,1003.057
4,False,188,0.913,54,[],[],"[(1174, 871)]",[],[1],[32],[0.5333333333333333],"[640.0, 512.0]",vertical,"(890.0, 762.0)",[1.2833333333333332],[0.498],1,1006.902
4,False,189,1.025,61,[],[],"[(1171, 876)]",[],[1],[33],[0.55],"[640.0, 512.0]",vertical,"(390.0, 762.0)",[0.9166666666666666],[0.504],1,1011.436
4,False,190,0.735,44,[],[],"[(1170, 870)]",[],[1],[34],[0.5666666666666667],"[640.0, 512.0]",vertical,"(890.0, 762.0)",[0.9],[0.529],1,1015.914
4,False,191,1.191,71,[],[],"[(1148, 865)]",[],[1],[38],[0.6333333333333333],"[640.0, 512.0]",horizontal,"(390.0, 762.0)",[0.8833333333333333],[0.585],1,1019.973
4,False,192,1.161,69,[],[],"[(1185, 865)]",[],[1],[39],[0.65],"[640.0, 512.0]",vertical,"(390.0, 762.0)",[1.45],[0.608],1,1024.691
4,False,193,0.813,48,[],[],"[(1171, 875)]",[],[1],[42],[0.7],"[640.0, 512.0]",vertical,"(890.0, 262.0)",[0.8],[0.654],1,1029.938
4,False,194,0.858,51,[],[],"[(1177, 870)]",[],[1],[41],[0.6833333333333333],"[640.0, 512.0]",vertical,"(890.0, 762.0)",[1.1166666666666667],[0.635],1,1034.124
4,False,195,0.708,42,[],[],"[(1172, 861)]",[],[1],[34],[0.5666666666666667],"[640.0, 512.0]",vertical,"(390.0, 262.0)",[1.3],[0.526],1,1038.619
4,False,196,0.992,59,[],[],"[(1162, 884)]",[],[1],[32],[0.5333333333333333],"[640.0, 512.0]",vertical,"(390.0, 262.0)",[1.6166666666666667],[0.491],1,1043.108
4,False,197,0.672,40,[],[],"[(1154, 855)]",[],[1],[29],[0.48333333333333334],"[640.0, 512.0]",vertical,"(890.0, 262.0)",[1.1666666666666667],[0.443],1,1048.225
4,False,198,0.529,31,[],[],"[(1176, 879)]",[],[1],[],[],"[640.0, 512.0]",horizontal,"(890.0, 262.0)",[],[0],0,1052.492
4,False,199,0.97,58,[],[],"[(1206, 860)]",[],[1],[33],[0.55],"[640.0, 512.0]",horizontal,"(890.0, 762.0)",[1.35],[0.506],1,1056.424
4,False,200,0.629,37,[],[],"[(1166, 880)]",[],[1],[],[],"[640.0, 512.0]",vertical,"(890.0, 262.0)",[],[0],0,1061.291
4,False,201,1.186,71,[],[],"[(1256, 914), (1220, 865)]",[],"[0, 1]",[34],[0.5666666666666667],"[640.0, 512.0]",vertical,"(890.0, 262.0)",[0.5333333333333333],[0.522],1,1064.278
4,False,202,0.626,37,[],[],"[(1185, 872)]",[],[1],[36],[0.6],"[640.0, 512.0]",horizontal,"(890.0, 262.0)",[0.95],[0.554],1,1108.567
4,False,203,0.893,53,[],[],"[(1166, 882)]",[],[1],[33],[0.55],"[640.0, 512.0]",vertical,"(890.0, 262.0)",[1.3166666666666667],[0.507],1,1112.647
4,False,204,0.726,43,[],[],"[(1166, 885)]",[],[1],[37],[0.6166666666666667],"[640.0, 512.0]",horizontal,"(390.0, 762.0)",[1.0166666666666666],[0.574],1,1169.621
4,False,205,1.054,63,[],[],"[(1154, 879)]",[],[1],[30],[0.5],"[640.0, 512.0]",horizontal,"(390.0, 762.0)",[1.6666666666666667],[0.464],1,1173.942
4,False,206,1.066,63,[],[],"[(1117, 866)]",[],[1],[35],[0.5833333333333334],"[640.0, 512.0]",vertical,"(890.0, 762.0)",[1.1833333333333333],[0.539],1,1179.174
4,False,207,0.661,39,[],[],"[(1166, 874)]",[],[1],[37],[0.6166666666666667],"[640.0, 512.0]",vertical,"(390.0, 762.0)",[1.05],[0.581],1,1183.866
4,False,208,0.62,37,[],[],"[(1142, 876)]",[],[1],[33],[0.55],"[640.0, 512.0]",vertical,"(390.0, 762.0)",[1.1666666666666667],[0.514],1,1188.053
4,False,209,0.962,57,[],[],"[(1175, 870)]",[],[1],[35],[0.5833333333333334],"[640.0, 512.0]",horizontal,"(390.0, 262.0)",[1.2333333333333334],[0.539],1,1192.387
4,False,210,0.645,38,[],[],"[(1173, 870)]",[],[1],[32],[0.5333333333333333],"[640.0, 512.0]",horizontal,"(890.0, 762.0)",[0.6333333333333333],[0.5],1,1197.071
4,False,211,1.176,70,[],[],"[(1194, 854)]",[],[1],[23],[0.3833333333333333],"[640.0, 512.0]",vertical,"(390.0, 262.0)",[1.1833333333333333],[0.348],1,1200.708
4,False,212,0.783,46,[],[],"[(1184, 898)]",[],[1],[35],[0.5833333333333334],"[640.0, 512.0]",horizontal,"(890.0, 762.0)",[1.55],[0.546],1,1205.373
4,False,213,0.753,45,[],[],"[(1174, 868)]",[],[1],[35],[0.5833333333333334],"[640.0, 512.0]",vertical,"(390.0, 762.0)",[0.7666666666666666],[0.547],1,1210.588
4,False,214,0.537,32,[],[],"[(1168, 877)]",[],[1],[32],[0.5333333333333333],"[640.0, 512.0]",horizontal,"(390.0, 262.0)",[0.8333333333333334],[0.492],1,1214.652
4,False,215,0.764,45,[],[],"[(1173, 876)]",[],[1],[34],[0.5666666666666667],"[640.0, 512.0]",vertical,"(390.0, 762.0)",[1.2166666666666666],[0.532],1,1218.523
4,False,216,0.615,36,[],[],"[(1183, 876)]",[],[1],[37],[0.6166666666666667],"[640.0, 512.0]",vertical,"(890.0, 262.0)",[1.3333333333333333],[0.572],1,1223.054
4,False,217,0.502,30,[],[],"[(1173, 890)]",[],[1],[33],[0.55],"[640.0, 512.0]",vertical,"(890.0, 762.0)",[0.6833333333333333],[0.507],1,1227.549
4,False,218,0.849,50,[],[],"[(1165, 847)]",[],[1],[34],[0.5666666666666667],"[640.0, 512.0]",vertical,"(390.0, 762.0)",[0.5833333333333334],[0.524],1,1231.287
4,False,219,0.794,47,[],[],"[(1168, 873)]",[],[1],[33],[0.55],"[640.0, 512.0]",vertical,"(390.0, 262.0)",[1.55],[0.512],1,1235.314
4,False,220,1.03,61,[],[],"[(1171, 879)]",[],[1],[35],[0.5833333333333334],"[640.0, 512.0]",vertical,"(390.0, 262.0)",[0.75],[0.543],1,1240.243
4,False,221,0.644,38,[],[],"[(1173, 882)]",[],[1],[],[],"[640.0, 512.0]",vertical,"(390.0, 262.0)",[],[0],0,1244.421
4,False,222,0.894,53,[],[],"[(1160, 849)]",[],[1],[35],[0.5833333333333334],"[640.0, 512.0]",horizontal,"(890.0, 262.0)",[1.3],[0.533],1,1248.571
4,False,223,0.837,50,[],[],"[(1176, 883)]",[],[1],[33],[0.55],"[640.0, 512.0]",vertical,"(390.0, 262.0)",[0.8333333333333334],[0.506],1,1254.442
4,False,224,0.695,41,[],[],"[(1160, 863)]",[],[1],[35],[0.5833333333333334],"[640.0, 512.0]",horizontal,"(890.0, 762.0)",[1.3],[0.543],1,1258.651
4,False,225,1.09,65,[],[],"[(1166, 861)]",[],[1],[36],[0.6],"[640.0, 512.0]",horizontal,"(890.0, 762.0)",[1.1166666666666667],[0.558],1,1263.27
4,False,226,0.834,50,[],[],"[(1166, 870)]",[],[1],[34],[0.5666666666666667],"[640.0, 512.0]",horizontal,"(390.0, 762.0)",[1.0333333333333332],[0.521],1,1268.02
4,False,227,0.706,42,[],[],"[(1184, 903)]",[],[1],[36],[0.6],"[640.0, 512.0]",vertical,"(390.0, 262.0)",[0.6666666666666666],[0.556],1,1272.24
4,False,228,1.079,64,[],[],"[(1178, 875)]",[],[1],[41],[0.6833333333333333],"[640.0, 512.0]",horizontal,"(890.0, 762.0)",[1.4333333333333333],[0.641],1,1291.559
4,False,229,1.0,60,[],[],"[(1183, 864)]",[],[1],[30],[0.5],"[640.0, 512.0]",vertical,"(890.0, 262.0)",[1.6333333333333333],[0.461],1,1296.702
4,False,230,0.682,40,[],[],"[(1184, 862)]",[],[1],[34],[0.5666666666666667],"[640.0, 512.0]",horizontal,"(390.0, 762.0)",[1.6666666666666667],[0.523],1,1301.725
4,False,231,0.915,54,[],[],"[(1186, 861)]",[],[1],[33],[0.55],"[640.0, 512.0]",vertical,"(390.0, 262.0)",[0.7833333333333333],[0.506],1,1306.505
4,False,232,0.921,55,[],[],"[(1123, 871)]",[],[1],[32],[0.5333333333333333],"[640.0, 512.0]",horizontal,"(890.0, 762.0)",[0.7833333333333333],[0.495],1,1310.648
4,False,233,1.009,60,[],[],"[(1172, 854)]",[],[1],[33],[0.55],"[640.0, 512.0]",vertical,"(390.0, 762.0)",[1.4666666666666666],[0.509],1,1314.714
4,False,234,0.515,30,[],[],"[(1157, 850)]",[],[1],[33],[0.55],"[640.0, 512.0]",horizontal,"(390.0, 262.0)",[0.9833333333333333],[0.505],1,1319.671
4,False,235,0.961,57,[],[],"[(1153, 861)]",[],[1],[36],[0.6],"[640.0, 512.0]",horizontal,"(390.0, 262.0)",[1.0],[0.559],1,1323.608
4,False,236,0.678,40,[],[],"[(1166, 875)]",[],[1],[31],[0.5166666666666666],"[640.0, 512.0]",horizontal,"(390.0, 262.0)",[1.45],[0.479],1,1328.198
4,False,237,0.891,53,[],[],"[(1168, 869)]",[],[1],[35],[0.5833333333333334],"[640.0, 512.0]",horizontal,"(390.0, 762.0)",[1.0],[0.539],1,1332.783
4,False,238,0.978,58,[],[],"[(1180, 854)]",[],[1],[32],[0.5333333333333333],"[640.0, 512.0]",vertical,"(890.0, 262.0)",[0.7666666666666666],[0.499],1,1337.13
4,False,239,1.012,60,[],[],"[(1183, 865)]",[],[1],[35],[0.5833333333333334],"[640.0, 512.0]",horizontal,"(390.0, 762.0)",[1.0833333333333333],[0.541],1,1341.403
4,False,240,1.082,64,[],[],"[(1160, 872)]",[],[1],[34],[0.5666666666666667],"[640.0, 512.0]",horizontal,"(390.0, 762.0)",[1.2166666666666666],[0.527],1,1345.99
5,False,241,0.8,48,[],[],"[(1166, 864)]",[],[1],[32],[0.5333333333333333],"[640.0, 512.0]",vertical,"(390.0, 762.0)",[1.5],[0.492],1,1350.794
5,False,242,0.794,47,[],[],"[(1150, 864)]",[],[1],[27],[0.45],"[640.0, 512.0]",vertical,"(390.0, 262.0)",[0.9166666666666666],[0.415],1,1355.771
5,False,243,0.571,34,[],[],"[(1147, 851)]",[],[1],[35],[0.5833333333333334],"[640.0, 512.0]",vertical,"(890.0, 762.0)",[1.05],[0.546],1,1359.907
5,False,244,0.694,41,[],[],"[(1157, 860)]",[],[1],[37],[0.6166666666666667],"[640.0, 512.0]",vertical,"(890.0, 762.0)",[1.6333333333333333],[0.571],1,1364.131
5,False,245,1.067,64,[],[],"[(1160, 876)]",[],[1],[33],[0.55],"[640.0, 512.0]",vertical,"(390.0, 762.0)",[1.15],[0.512],1,1368.958
5,False,246,0.941,56,[],[],"[(1182, 865)]",[],[1],[31],[0.5166666666666666],"[640.0, 512.0]",horizontal,"(390.0, 262.0)",[0.8833333333333333],[0.473],1,1373.725
5,False,247,0.865,51,[],[],"[(1168, 878)]",[],[1],[16],[0.26666666666666666],"[640.0, 512.0]",horizontal,"(890.0, 262.0)",[1.6166666666666667],[0.233],1,1377.881
5,False,248,0.877,52,[],[],"[(1172, 878)]",[],[1],[33],[0.55],"[640.0, 512.0]",vertical,"(390.0, 262.0)",[1.0],[0.51],1,1382.583
5,False,249,0.772,46,[],[],"[(1168, 852)]",[],[1],[36],[0.6],"[640.0, 512.0]",vertical,"(890.0, 762.0)",[1.2833333333333332],[0.56],1,1386.864
5,False,250,0.893,53,[],[],"[(1190, 867)]",[],[1],[34],[0.5666666666666667],"[640.0, 512.0]",vertical,"(390.0, 262.0)",[1.0666666666666667],[0.525],1,1391.411
5,False,251,1.111,66,[],[],"[(1120, 878)]",[],[1],[5],[0.08333333333333333],"[640.0, 512.0]",vertical,"(390.0, 262.0)",[1.4166666666666667],[0.05],1,1395.837
5,False,252,1.048,62,[],[],"[(1179, 857)]",[],[1],[37],[0.6166666666666667],"[640.0, 512.0]",horizontal,"(890.0, 762.0)",[1.6166666666666667],[0.572],1,1400.792
5,False,253,0.58,34,[],[],"[(1196, 879)]",[],[1],[11],[0.18333333333333332],"[640.0, 512.0]",horizontal,"(890.0, 262.0)",[1.4333333333333333],[0.151],1,1405.988
5,False,254,0.578,34,[],[],"[(1166, 869)]",[],[1],[37],[0.6166666666666667],"[640.0, 512.0]",horizontal,"(890.0, 762.0)",[1.5666666666666667],[0.575],1,1410.191
5,False,255,0.928,55,[],[],"[(1178, 854)]",[],[1],[35],[0.5833333333333334],"[640.0, 512.0]",vertical,"(390.0, 262.0)",[1.35],[0.544],1,1414.907
5,False,256,0.713,42,[],[],"[(1185, 868)]",[],[1],[40],[0.6666666666666666],"[640.0, 512.0]",vertical,"(890.0, 262.0)",[0.5166666666666666],[0.615],1,1419.816
5,False,257,0.564,33,[],[],"[(1176, 865)]",[],[1],[32],[0.5333333333333333],"[640.0, 512.0]",vertical,"(890.0, 762.0)",[1.2666666666666666],[0.493],1,1423.571
5,False,258,0.625,37,[],[],"[(1196, 852)]",[],[1],[34],[0.5666666666666667],"[640.0, 512.0]",horizontal,"(890.0, 762.0)",[1.5],[0.523],1,1428.051
5,False,259,0.593,35,[],[],"[(1129, 870)]",[],[1],[33],[0.55],"[640.0, 512.0]",horizontal,"(390.0, 262.0)",[1.2333333333333334],[0.507],1,1432.651
5,False,260,0.927,55,[],[],"[(1196, 875)]",[],[1],[33],[0.55],"[640.0, 512.0]",horizontal,"(390.0, 262.0)",[1.1166666666666667],[0.51],1,1436.917
5,False,261,0.988,59,[],[],"[(1178, 877)]",[],[1],[35],[0.5833333333333334],"[640.0, 512.0]",horizontal,"(890.0, 762.0)",[1.4166666666666667],[0.552],1,1441.516
5,False,262,1.088,65,[],[],"[(1178, 879)]",[],[1],[22],[0.36666666666666664],"[640.0, 512.0]",horizontal,"(390.0, 262.0)",[1.55],[0.329],1,1446.571
5,False,263,0.72,43,[],[],"[(1164, 864)]",[],[1],[38],[0.6333333333333333],"[640.0, 512.0]",vertical,"(890.0, 262.0)",[0.85],[0.584],1,1451.477
5,False,264,0.966,57,[],[],"[(1186, 880)]",[],[1],[33],[0.55],"[640.0, 512.0]",horizontal,"(390.0, 762.0)",[1.1666666666666667],[0.511],1,1455.557
5,False,265,0.98,58,[],[],"[(1191, 872)]",[],[1],[34],[0.5666666666666667],"[640.0, 512.0]",horizontal,"(390.0, 262.0)",[0.6666666666666666],[0.523],1,1460.329
5,False,266,0.503,30,[],[],"[(1203, 866)]",[],[1],[31],[0.5166666666666666],"[640.0, 512.0]",vertical,"(890.0, 262.0)",[0.6666666666666666],[0.474],1,1464.506
5,False,267,1.176,70,[],[],"[(1183, 853)]",[],[1],[34],[0.5666666666666667],"[640.0, 512.0]",vertical,"(890.0, 762.0)",[1.6166666666666667],[0.526],1,1468.04
5,False,268,0.836,50,[],[],"[(1158, 855)]",[],[1],[],[],"[640.0, 512.0]",vertical,"(890.0, 262.0)",[],[0],0,1473.219
5,False,269,0.561,33,[],[],"[(1172, 885)]",[],[1],[33],[0.55],"[640.0, 512.0]",horizontal,"(890.0, 762.0)",[0.5666666666666667],[0.511],1,1477.481
5,False,270,1.033,61,[],[],"[(1183, 855)]",[],[1],[34],[0.5666666666666667],"[640.0, 512.0]",horizontal,"(390.0, 762.0)",[0.7666666666666666],[0.523],1,1481.01
5,False,271,0.572,34,[],[],"[(1196, 882)]",[],[1],[33],[0.55],"[640.0, 512.0]",vertical,"(890.0, 762.0)",[1.3],[0.505],1,1485.288
5,False,272,0.691,41,[],[],"[(1172, 859)]",[],[1],[32],[0.5333333333333333],"[640.0, 512.0]",horizontal,"(890.0, 262.0)",[0.5666666666666667],[0.49],1,1489.594
5,False,273,0.98,58,[],[],"[(1203, 881)]",[],[1],[36],[0.6],"[640.0, 512.0]",vertical,"(890.0, 762.0)",[1.0333333333333332],[0.555],1,1493.36
5,False,274,0.78,46,[],[],"[(1184, 859)]",[],[1],[35],[0.5833333333333334],"[640.0, 512.0]",horizontal,"(390.0, 762.0)",[0.6833333333333333],[0.546],1,1497.821
5,False,275,0.872,52,[],[],"[(1172, 875)]",[],[1],[34],[0.5666666666666667],"[640.0, 512.0]",vertical,"(890.0, 762.0)",[1.3],[0.525],1,1501.691
5,False,276,0.939,56,[],[],"[(1191, 861)]",[],[1],[32],[0.5333333333333333],"[640.0, 512.0]",horizontal,"(390.0, 262.0)",[1.5166666666666666],[0.492],1,1506.32
5,False,277,0.894,53,[],[],"[(1221, 881)]",[],[1],[32],[0.5333333333333333],"[640.0, 512.0]",horizontal,"(390.0, 762.0)",[1.6333333333333333],[0.496],1,1511.276
5,False,278,0.533,31,[],[],"[(1182, 870)]",[],[1],[33],[0.55],"[640.0, 512.0]",horizontal,"(390.0, 762.0)",[1.6],[0.507],1,1516.34
5,False,279,0.761,45,[],[],"[(1178, 866)]",[],[1],[21],[0.35],"[640.0, 512.0]",horizontal,"(390.0, 262.0)",[1.4333333333333333],[0.312],1,1520.858
5,False,280,0.825,49,[],[],"[(1166, 875)]",[],[1],[32],[0.5333333333333333],"[640.0, 512.0]",vertical,"(890.0, 262.0)",[1.3166666666666667],[0.493],1,1525.186
5,False,281,0.822,49,[],[],"[(1177, 860)]",[],[1],[10],[0.16666666666666666],"[640.0, 512.0]",horizontal,"(390.0, 262.0)",[1.6666666666666667],[0.131],1,1529.939
5,False,282,0.733,43,[],[],"[(1165, 860)]",[],[1],[34],[0.5666666666666667],"[640.0, 512.0]",horizontal,"(890.0, 762.0)",[0.85],[0.531],1,1534.476
5,False,283,0.949,56,[],[],"[(1189, 874)]",[],[1],[35],[0.5833333333333334],"[640.0, 512.0]",vertical,"(890.0, 762.0)",[1.4666666666666666],[0.54],1,1538.492
5,False,284,0.815,48,[],[],"[(1161, 856)]",[],[1],[36],[0.6],"[640.0, 512.0]",vertical,"(390.0, 762.0)",[0.9],[0.559],1,1543.522
5,False,285,1.04,62,[],[],"[(1153, 858)]",[],[1],[35],[0.5833333333333334],"[640.0, 512.0]",horizontal,"(390.0, 762.0)",[0.8666666666666667],[0.538],1,1547.795
5,False,286,1.067,64,[],[],"[(1183, 884)]",[],[1],[40],[0.6666666666666666],"[640.0, 512.0]",vertical,"(890.0, 762.0)",[1.0],[0.622],1,1552.244
5,False,287,0.943,56,[],[],"[(1183, 863)]",[],[1],[33],[0.55],"[640.0, 512.0]",vertical,"(890.0, 762.0)",[1.3166666666666667],[0.508],1,1556.811
5,False,288,1.176,70,[],[],"[(1186, 868)]",[],[1],[30],[0.5],"[640.0, 512.0]",horizontal,"(890.0, 262.0)",[0.8333333333333334],[0.458],1,1561.477
5,False,289,1.099,65,[],[],"[(1172, 873)]",[],[1],[13],[0.21666666666666667],"[640.0, 512.0]",horizontal,"(390.0, 262.0)",[1.2166666666666666],[0.183],1,1565.841
5,False,290,0.652,39,[],[],"[(1166, 859)]",[],[1],[33],[0.55],"[640.0, 512.0]",horizontal,"(890.0, 762.0)",[0.6],[0.513],1,1570.37
5,False,291,1.064,63,[],[],"[(1174, 855)]",[],[1],[29],[0.48333333333333334],"[640.0, 512.0]",vertical,"(390.0, 262.0)",[1.7],[0.441],1,1574.009
5,False,292,0.925,55,[],[],"[(1186, 856)]",[],[1],[34],[0.5666666666666667],"[640.0, 512.0]",horizontal,"(890.0, 762.0)",[0.9166666666666666],[0.524],1,1579.139
5,False,293,0.696,41,[],[],"[(1182, 885)]",[],[1],[33],[0.55],"[640.0, 512.0]",horizontal,"(390.0, 762.0)",[1.65],[0.509],1,1583.391
5,False,294,0.905,54,[],[],"[(1183, 869)]",[],[1],[33],[0.55],"[640.0, 512.0]",horizontal,"(890.0, 762.0)",[0.8666666666666667],[0.51],1,1588.125
5,False,295,1.163,69,[],[],"[(1174, 881)]",[],[1],[29],[0.48333333333333334],"[640.0, 512.0]",horizontal,"(890.0, 262.0)",[1.2166666666666666],[0.443],1,1592.427
5,False,296,0.637,38,[],[],"[(1184, 879)]",[],[1],[34],[0.5666666666666667],"[640.0, 512.0]",horizontal,"(390.0, 262.0)",[1.2166666666666666],[0.523],1,1597.105
5,False,297,0.776,46,[],[],"[(1168, 862)]",[],[1],[35],[0.5833333333333334],"[640.0, 512.0]",horizontal,"(390.0, 762.0)",[1.6666666666666667],[0.544],1,1601.365
5,False,298,0.963,57,[],[],"[(1183, 869)]",[],[1],[35],[0.5833333333333334],"[640.0, 512.0]",horizontal,"(390.0, 762.0)",[0.9666666666666667],[0.545],1,1606.353
5,False,299,0.803,48,[],[],"[(1178, 863)]",[],[1],[34],[0.5666666666666667],"[640.0, 512.0]",vertical,"(390.0, 762.0)",[0.9166666666666666],[0.523],1,1610.743
5,False,300,0.609,36,[],[],"[(1168, 860)]",[],[1],[33],[0.55],"[640.0, 512.0]",vertical,"(890.0, 762.0)",[1.65],[0.515],1,1614.842
6,False,301,1.141,68,[],[],"[(1179, 848)]",[],[1],[37],[0.6166666666666667],"[640.0, 512.0]",horizontal,"(890.0, 762.0)",[0.6833333333333333],[0.573],1,1619.499
6,False,302,0.623,37,[],[],"[(1148, 851)]",[],[1],[34],[0.5666666666666667],"[640.0, 512.0]",horizontal,"(390.0, 762.0)",[0.6833333333333333],[0.528],1,1623.823
6,False,303,0.633,37,[],[],"[(1123, 860)]",[],[1],[39],[0.65],"[640.0, 512.0]",horizontal,"(390.0, 762.0)",[0.5666666666666667],[0.605],1,1627.669
6,False,304,0.862,51,[],[],"[(1135, 876)]",[],[1],[35],[0.5833333333333334],"[640.0, 512.0]",vertical,"(390.0, 262.0)",[0.65],[0.537],1,1631.417
6,False,305,0.817,49,[],[],"[(1166, 870)]",[],[1],[37],[0.6166666666666667],"[640.0, 512.0]",horizontal,"(890.0, 762.0)",[1.3666666666666667],[0.574],1,1635.341
6,False,306,0.894,53,[],[],"[(1148, 893)]",[],[1],[43],[0.7166666666666667],"[640.0, 512.0]",vertical,"(890.0, 262.0)",[1.4],[0.666],1,1640.094
6,False,307,0.571,34,[],[],"[(1160, 841)]",[],[1],[35],[0.5833333333333334],"[640.0, 512.0]",vertical,"(890.0, 762.0)",[1.6],[0.54],1,1663.364
6,False,308,0.519,31,[],[],"[(1160, 850)]",[],[1],[33],[0.55],"[640.0, 512.0]",horizontal,"(890.0, 762.0)",[1.1833333333333333],[0.508],1,1667.981
6,False,309,0.694,41,[],[],"[(1175, 861)]",[],[1],[33],[0.55],"[640.0, 512.0]",horizontal,"(390.0, 262.0)",[0.7666666666666666],[0.513],1,1672.116
6,False,310,0.9,54,[],[],"[(1176, 873)]",[],[1],[],[],"[640.0, 512.0]",vertical,"(390.0, 262.0)",[],[0],0,1675.992
6,False,311,0.994,59,[],[],"[(1166, 835)]",[],[1],[35],[0.5833333333333334],"[640.0, 512.0]",vertical,"(390.0, 262.0)",[0.7166666666666667],[0.544],1,1679.897
6,False,312,0.585,35,[],[],"[(1178, 846)]",[],[1],[37],[0.6166666666666667],"[640.0, 512.0]",horizontal,"(390.0, 262.0)",[0.55],[0.576],1,1692.65
6,False,313,0.964,57,[],[],"[(1166, 862)]",[],[1],[33],[0.55],"[640.0, 512.0]",vertical,"(390.0, 762.0)",[1.05],[0.511],1,1696.427
6,False,314,1.196,71,[],[],"[(1154, 877)]",[],[1],[33],[0.55],"[640.0, 512.0]",vertical,"(890.0, 762.0)",[0.5666666666666667],[0.515],1,1700.888
6,False,315,0.932,55,[],[],"[(1184, 872)]",[],[1],[],[],"[640.0, 512.0]",vertical,"(390.0, 762.0)",[],[0],0,1705.052
6,False,316,0.519,31,[],[],"[(1186, 876)]",[],[1],[36],[0.6],"[640.0, 512.0]",vertical,"(390.0, 262.0)",[0.6666666666666666],[0.559],1,1709.037
6,False,317,0.636,38,[],[],"[(1176, 869)]",[],[1],[33],[0.55],"[640.0, 512.0]",horizontal,"(390.0, 762.0)",[0.8],[0.515],1,1712.767
6,False,318,0.988,59,[],[],"[(1178, 854)]",[],[1],[34],[0.5666666666666667],"[640.0, 512.0]",vertical,"(390.0, 762.0)",[1.1166666666666667],[0.526],1,1716.603
6,False,319,0.664,39,[],[],"[(1178, 867)]",[],[1],[],[],"[640.0, 512.0]",vertical,"(390.0, 262.0)",[],[0],0,1721.292
6,False,320,0.795,47,[],[],"[(1184, 851)]",[],[1],[42],[0.7],"[640.0, 512.0]",vertical,"(890.0, 762.0)",[1.0333333333333332],[0.649],1,1725.403
6,False,321,0.698,41,[],[],"[(1178, 874)]",[],[1],[32],[0.5333333333333333],"[640.0, 512.0]",horizontal,"(890.0, 262.0)",[0.8833333333333333],[0.495],1,1729.92
6,False,322,0.555,33,[],[],"[(1196, 917)]",[],[1],[33],[0.55],"[640.0, 512.0]",vertical,"(390.0, 762.0)",[0.9833333333333333],[0.506],1,1733.99
6,False,323,0.671,40,[],[],"[(1123, 885)]",[],[1],[35],[0.5833333333333334],"[640.0, 512.0]",horizontal,"(890.0, 262.0)",[1.3833333333333333],[0.544],1,1944.835
6,False,324,1.05,63,[],[],"[(1160, 890)]",[],[1],[8],[0.13333333333333333],"[640.0, 512.0]",vertical,"(890.0, 262.0)",[1.6333333333333333],[0.1],1,1949.453
6,False,325,0.905,54,[],[],"[(1153, 894)]",[],[1],[35],[0.5833333333333334],"[640.0, 512.0]",horizontal,"(890.0, 762.0)",[0.5333333333333333],[0.54],1,1954.109
6,False,326,1.15,69,[],[],"[(1166, 877)]",[],[1],[13],[0.21666666666666667],"[640.0, 512.0]",horizontal,"(890.0, 262.0)",[0.9333333333333333],[0.182],1,1958.438
6,False,327,0.529,31,[],[],"[(1187, 878)]",[],[1],[37],[0.6166666666666667],"[640.0, 512.0]",horizontal,"(890.0, 762.0)",[0.85],[0.576],1,1962.729
6,False,328,0.58,34,[],[],"[(1131, 881)]",[],[1],[35],[0.5833333333333334],"[640.0, 512.0]",horizontal,"(390.0, 762.0)",[1.0833333333333333],[0.543],1,1977.472
6,False,329,1.082,64,[],[],"[(1124, 876)]",[],[1],[33],[0.55],"[640.0, 512.0]",horizontal,"(890.0, 262.0)",[0.9166666666666666],[0.506],1,1981.755
6,False,330,0.808,48,[],[],"[(1190, 886)]",[],[1],[35],[0.5833333333333334],"[640.0, 512.0]",horizontal,"(390.0, 762.0)",[0.75],[0.543],1,1986.137
6,False,331,0.842,50,[],[2001172],"[(1166, 886)]","[(1166, 886)]",[1],[12],[0.2],"[640.0, 512.0]",vertical,"(390.0, 762.0)",[],[0],0,1990.117
6,False,332,1.182,70,[],[],"[(1177, 903)]",[],[1],[],[],"[640.0, 512.0]",vertical,"(390.0, 762.0)",[],[0],0,1992.376
6,False,333,1.184,71,[],[],"[(867, 1014), (859, 863), (1208, 880)]",[],"[0, 0, 1]",[51],[0.85],"[640.0, 512.0]",horizontal,"(890.0, 762.0)",[1.2333333333333334],[0.804],0,1995.812
6,False,334,0.746,44,[],[],"[(1203, 878)]",[],[1],[51],[0.85],"[640.0, 512.0]",vertical,"(390.0, 762.0)",[0.9],[0.796],0,2004.608
6,False,335,0.993,59,[],[],"[(1152, 879)]",[],[1],[35],[0.5833333333333334],"[640.0, 512.0]",vertical,"(890.0, 762.0)",[1.6833333333333333],[0.544],1,2009.289
6,False,336,1.048,62,[],[],"[(1190, 883)]",[],[1],[51],[0.85],"[640.0, 512.0]",horizontal,"(890.0, 762.0)",[1.3333333333333333],[0.802],0,2014.327
6,False,337,0.568,34,[],[],"[(1196, 884)]",[],[1],[51],[0.85],"[640.0, 512.0]",horizontal,"(390.0, 762.0)",[0.85],[0.802],0,2019.31
6,False,338,0.743,44,[],[],"[(1166, 856)]",[],[1],[51],[0.85],"[640.0, 512.0]",horizontal,"(390.0, 262.0)",[0.7166666666666667],[0.806],0,2023.526
6,False,339,1.122,67,[],[],"[(1183, 865)]",[],[1],[37],[0.6166666666666667],"[640.0, 512.0]",horizontal,"(890.0, 762.0)",[0.8833333333333333],[0.568],1,2028.389
6,False,340,0.69,41,[],[],"[(1188, 889)]",[],[1],[35],[0.5833333333333334],"[640.0, 512.0]",horizontal,"(890.0, 262.0)",[1.1666666666666667],[0.542],1,2035.354
6,False,341,1.111,66,[],[],"[(1176, 865)]",[],[1],[39],[0.65],"[640.0, 512.0]",horizontal,"(890.0, 762.0)",[1.2],[0.608],1,2039.654
6,False,342,1.175,70,[],[],"[(1184, 876)]",[],[1],[41],[0.6833333333333333],"[640.0, 512.0]",vertical,"(890.0, 762.0)",[1.5333333333333332],[0.637],1,2044.956
6,False,343,0.746,44,[],[],"[(1207, 865)]",[],[1],[38],[0.6333333333333333],"[640.0, 512.0]",vertical,"(890.0, 262.0)",[1.65],[0.598],1,2050.209
6,False,344,1.195,71,[],[],"[(1203, 885)]",[],[1],[51],[0.85],"[640.0, 512.0]",vertical,"(390.0, 762.0)",[1.0],[0.803],0,2055.212
6,False,345,1.137,68,[],[],"[(1148, 894)]",[],[1],[36],[0.6],"[640.0, 512.0]",horizontal,"(390.0, 762.0)",[0.7833333333333333],[0.553],1,2060.222
6,False,346,1.133,67,[],[],"[(1136, 908)]",[],[1],[41],[0.6833333333333333],"[640.0, 512.0]",horizontal,"(390.0, 262.0)",[1.4166666666666667],[0.644],1,2099.238
6,False,347,0.888,53,[],[],"[(1160, 884)]",[],[1],[38],[0.6333333333333333],"[640.0, 512.0]",horizontal,"(890.0, 762.0)",[1.1],[0.59],1,2104.623
6,False,348,0.854,51,[],[],"[(1129, 871)]",[],[1],[39],[0.65],"[640.0, 512.0]",vertical,"(890.0, 262.0)",[0.8833333333333333],[0.603],1,2109.211
6,False,349,0.671,40,[],[],"[(1136, 877)]",[],[1],[51],[0.85],"[640.0, 512.0]",vertical,"(890.0, 762.0)",[1.3333333333333333],[0.8],0,2113.428
6,False,350,0.976,58,[],[],"[(1172, 892)]",[],[1],[3],[0.05],"[640.0, 512.0]",vertical,"(390.0, 262.0)",[1.35],[0.019],1,2118.154
6,False,351,0.827,49,[],[],"[(718, 558), (780, 810), (440, 629), (855, 822), (684, 629), (672, 529), (1168, 884)]",[],"[0, 0, 0, 0, 0, 0, 1]",[30],[0.5],"[640.0, 512.0]",vertical,"(890.0, 762.0)",[1.5833333333333333],[0.46],1,2122.758
6,False,352,0.83,49,[],[],"[(1166, 875)]",[],[1],[34],[0.5666666666666667],"[640.0, 512.0]",horizontal,"(890.0, 262.0)",[1.65],[0.528],1,2139.823
6,False,353,0.905,54,[],[],"[(721, 856), (1183, 872)]",[],"[0, 1]",[42],[0.7],"[640.0, 512.0]",vertical,"(390.0, 262.0)",[0.65],[0.657],1,2144.774
6,False,354,0.608,36,[],[],"[(1167, 864)]",[],[1],[40],[0.6666666666666666],"[640.0, 512.0]",vertical,"(890.0, 262.0)",[0.7],[0.625],1,2149.038
6,False,355,1.083,64,[],[],"[(1178, 864)]",[],[1],[7],[0.11666666666666667],"[640.0, 512.0]",vertical,"(390.0, 262.0)",[1.5166666666666666],[0.084],1,2153.005
6,False,356,1.108,66,[],[],"[(1146, 869)]",[],[1],[31],[0.5166666666666666],"[640.0, 512.0]",vertical,"(890.0, 262.0)",[0.9666666666666667],[0.473],1,2157.645
6,False,357,0.628,37,[],[],"[(1172, 859)]",[],[1],[47],[0.7833333333333333],"[640.0, 512.0]",vertical,"(390.0, 262.0)",[0.9],[0.733],1,2162.245
6,False,358,0.723,43,[],[],"[(1155, 902)]",[],[1],[],[],"[640.0, 512.0]",vertical,"(890.0, 262.0)",[],[0],0,2166.569
6,False,359,0.536,32,[],[],"[(1199, 850)]",[],[1],[44],[0.7333333333333333],"[640.0, 512.0]",horizontal,"(390.0, 762.0)",[1.1666666666666667],[0.691],1,2170.607
6,False,360,0.864,51,[],[],"[(1183, 876)]",[],[1],[35],[0.5833333333333334],"[640.0, 512.0]",horizontal,"(390.0, 762.0)",[1.6166666666666667],[0.541],1,2174.952
7,False,361,0.548,32,[],[],"[(1188, 853)]",[],[1],[5],[0.08333333333333333],"[640.0, 512.0]",horizontal,"(390.0, 262.0)",[1.2166666666666666],[0.052],1,2179.904
7,False,362,1.126,67,[],[],"[(1148, 902)]",[],[1],[33],[0.55],"[640.0, 512.0]",vertical,"(390.0, 262.0)",[1.6666666666666667],[0.507],1,2183.735
7,False,363,0.637,38,[],[],"[(1138, 870)]",[],[1],[51],[0.85],"[640.0, 512.0]",vertical,"(890.0, 762.0)",[1.3166666666666667],[0.807],0,2189.206
7,False,364,0.993,59,[],[],"[(1136, 889)]",[],[1],[40],[0.6666666666666666],"[640.0, 512.0]",vertical,"(890.0, 762.0)",[0.9666666666666667],[0.624],1,2194.044
7,False,365,1.012,60,[],[],"[(1178, 858)]",[],[1],[35],[0.5833333333333334],"[640.0, 512.0]",horizontal,"(390.0, 762.0)",[1.1166666666666667],[0.541],1,2198.686
7,False,366,0.958,57,[],[],"[(714, 860), (1191, 860)]",[],"[0, 1]",[],[],"[640.0, 512.0]",horizontal,"(390.0, 262.0)",[],[0],0,2203.337
7,False,367,0.733,43,[],[],"[(1215, 869)]",[],[1],[34],[0.5666666666666667],"[640.0, 512.0]",horizontal,"(890.0, 762.0)",[1.1],[0.523],1,2211.082
7,False,368,1.138,68,[],[],"[(1209, 888)]",[],[1],[51],[0.85],"[640.0, 512.0]",horizontal,"(890.0, 762.0)",[1.5],[0.818],0,2215.344
7,False,369,1.091,65,[],[2236089],"[(1178, 874)]","[(1116, 880)]",[1],[46],[0.7666666666666666],"[640.0, 512.0]",horizontal,"(890.0, 262.0)",[],[0],0,2220.734
7,False,370,0.93,55,[],[],"[(1170, 870)]",[],[1],[34],[0.5666666666666667],"[640.0, 512.0]",horizontal,"(890.0, 262.0)",[0.6],[0.526],1,2227.289
7,False,371,0.759,45,[],[],"[(1202, 880)]",[],[1],[40],[0.6666666666666666],"[640.0, 512.0]",vertical,"(390.0, 762.0)",[1.6166666666666667],[0.618],1,2232.002
7,False,372,0.574,34,[],[],"[(1170, 855)]",[],[1],[38],[0.6333333333333333],"[640.0, 512.0]",vertical,"(390.0, 762.0)",[1.4166666666666667],[0.593],1,2236.963
7,False,373,0.57,34,[],[],"[(1170, 855)]",[],[1],[35],[0.5833333333333334],"[640.0, 512.0]",vertical,"(890.0, 262.0)",[0.6166666666666667],[0.552],1,2241.491
7,False,374,0.613,36,[],[],"[(1170, 894)]",[],[1],[48],[0.8],"[640.0, 512.0]",horizontal,"(890.0, 762.0)",[1.3666666666666667],[0.755],1,2245.095
7,False,375,0.616,36,[],[],"[(1184, 875)]",[],[1],[51],[0.85],"[640.0, 512.0]",vertical,"(390.0, 262.0)",[1.1333333333333333],[0.8],0,2249.703
7,False,376,0.86,51,[],[],"[(1182, 860)]",[],[1],[36],[0.6],"[640.0, 512.0]",horizontal,"(390.0, 762.0)",[1.6],[0.56],1,2254.113
7,False,377,0.794,47,[],[],"[(1167, 855)]",[],[1],[51],[0.85],"[640.0, 512.0]",horizontal,"(890.0, 262.0)",[0.6333333333333333],[0.803],0,2259.013
7,False,378,1.184,71,[],[],"[(1162, 882)]",[],[1],[41],[0.6833333333333333],"[640.0, 512.0]",vertical,"(890.0, 762.0)",[1.3166666666666667],[0.637],1,2263.21
7,False,379,0.671,40,[],[],"[(1143, 860)]",[],[1],[34],[0.5666666666666667],"[640.0, 512.0]",horizontal,"(890.0, 262.0)",[0.9333333333333333],[0.528],1,2268.704
7,False,380,0.506,30,[],[],"[(1240, 872), (1221, 859)]",[],"[0, 1]",[35],[0.5833333333333334],"[640.0, 512.0]",vertical,"(890.0, 262.0)",[0.5],[0.542],1,2272.835
7,False,381,1.072,64,[],[],"[(1142, 867)]",[],[1],[51],[0.85],"[640.0, 512.0]",horizontal,"(390.0, 762.0)",[0.8],[0.8],0,2277.876
7,False,382,1.053,63,[],[],"[(1153, 903)]",[],[1],[34],[0.5666666666666667],"[640.0, 512.0]",vertical,"(390.0, 262.0)",[0.95],[0.533],1,2282.433
7,False,383,1.104,66,[],[],"[(1184, 864)]",[],[1],[51],[0.85],"[640.0, 512.0]",vertical,"(890.0, 762.0)",[0.8166666666666667],[0.808],0,2286.974
7,False,384,0.723,43,[],[],"[(1210, 856)]",[],[1],[36],[0.6],"[640.0, 512.0]",vertical,"(390.0, 262.0)",[1.1166666666666667],[0.559],1,2291.751
7,False,385,1.015,60,[],[],"[(1169, 887)]",[],[1],[36],[0.6],"[640.0, 512.0]",horizontal,"(390.0, 762.0)",[1.3],[0.554],1,2296.034
7,False,386,1.19,71,[],[],"[(1173, 877)]",[],[1],[33],[0.55],"[640.0, 512.0]",horizontal,"(390.0, 762.0)",[1.2166666666666666],[0.507],1,2300.766
7,False,387,1.033,61,[],[],"[(1153, 886)]",[],[1],[51],[0.85],"[640.0, 512.0]",horizontal,"(890.0, 262.0)",[0.6666666666666666],[0.795],0,2305.601
7,False,388,0.689,41,[],[],"[(1116, 860)]",[],[1],[35],[0.5833333333333334],"[640.0, 512.0]",horizontal,"(390.0, 262.0)",[1.0833333333333333],[0.538],1,2309.984
7,False,389,0.655,39,[],[],"[(1193, 862)]",[],[1],[51],[0.85],"[640.0, 512.0]",horizontal,"(390.0, 262.0)",[0.8833333333333333],[0.806],0,2314.18
7,False,390,1.148,68,[],[],"[(1193, 859)]",[],[1],[32],[0.5333333333333333],"[640.0, 512.0]",vertical,"(890.0, 262.0)",[0.8333333333333334],[0.496],1,2318.621
7,False,391,1.109,66,[],[],"[(1157, 864)]",[],[1],[35],[0.5833333333333334],"[640.0, 512.0]",horizontal,"(890.0, 262.0)",[1.25],[0.541],1,2323.068
7,False,392,0.849,50,[],[],"[(1178, 865)]",[],[1],[38],[0.6333333333333333],"[640.0, 512.0]",vertical,"(890.0, 762.0)",[1.5333333333333332],[0.596],1,2328.042
7,False,393,0.62,37,[],[],"[(1204, 865)]",[],[1],[35],[0.5833333333333334],"[640.0, 512.0]",horizontal,"(390.0, 762.0)",[1.0666666666666667],[0.542],1,2332.96
7,False,394,0.598,35,[],[],"[(1170, 883)]",[],[1],[33],[0.55],"[640.0, 512.0]",horizontal,"(390.0, 262.0)",[0.5166666666666666],[0.519],1,2337.28
7,False,395,0.999,59,[],[],"[(1189, 855)]",[],[1],[51],[0.85],"[640.0, 512.0]",vertical,"(390.0, 762.0)",[0.5],[0.805],0,2340.861
7,False,396,1.002,60,[],[],"[(1187, 876)]",[],[1],[51],[0.85],"[640.0, 512.0]",vertical,"(390.0, 262.0)",[0.8333333333333334],[0.81],0,2345.179
7,False,397,0.925,55,[],[],"[(1199, 860)]",[],[1],[37],[0.6166666666666667],"[640.0, 512.0]",vertical,"(390.0, 762.0)",[1.2],[0.572],1,2349.874
7,False,398,1.082,64,[],[],"[(1123, 879)]",[],[1],[30],[0.5],"[640.0, 512.0]",vertical,"(390.0, 262.0)",[0.9166666666666666],[0.461],1,2354.506
7,False,399,0.884,53,[],[],"[(1178, 860)]",[],[1],[33],[0.55],"[640.0, 512.0]",vertical,"(890.0, 762.0)",[0.8666666666666667],[0.509],1,2361.438
7,False,400,1.13,67,[],[],"[(1191, 898)]",[],[1],[35],[0.5833333333333334],"[640.0, 512.0]",horizontal,"(390.0, 762.0)",[0.8],[0.544],1,2365.829
7,False,401,0.604,36,[],[],"[(1183, 860)]",[],[1],[51],[0.85],"[640.0, 512.0]",vertical,"(890.0, 762.0)",[1.3166666666666667],[0.804],0,2370.471
7,False,402,0.711,42,[],[],"[(1267, 968), (1233, 881), (1227, 850)]",[],"[0, 0, 1]",[33],[0.55],"[640.0, 512.0]",vertical,"(390.0, 262.0)",[0.7666666666666666],[0.513],1,2375.174
7,False,403,0.959,57,[],[],"[(1177, 860)]",[],[1],[35],[0.5833333333333334],"[640.0, 512.0]",horizontal,"(890.0, 262.0)",[1.15],[0.543],1,2390.952
7,False,404,0.604,36,[],[],"[(1178, 850)]",[],[1],[37],[0.6166666666666667],"[640.0, 512.0]",horizontal,"(890.0, 762.0)",[0.9666666666666667],[0.575],1,2395.607
7,False,405,1.145,68,[],[],"[(1183, 836)]",[],[1],[40],[0.6666666666666666],"[640.0, 512.0]",horizontal,"(390.0, 762.0)",[0.8666666666666667],[0.631],1,2399.756
7,False,406,0.683,40,[],[],"[(1167, 863)]",[],[1],[39],[0.65],"[640.0, 512.0]",horizontal,"(890.0, 262.0)",[0.7],[0.606],1,2404.462
7,False,407,0.706,42,[],[],"[(1212, 859)]",[],[1],[38],[0.6333333333333333],"[640.0, 512.0]",horizontal,"(390.0, 762.0)",[0.6333333333333333],[0.593],1,2408.456
7,False,408,0.84,50,[],[],"[(1170, 860)]",[],[1],[35],[0.5833333333333334],"[640.0, 512.0]",vertical,"(390.0, 762.0)",[1.2166666666666666],[0.549],1,2412.375
7,False,409,0.936,56,[],[],"[(1131, 858)]",[],[1],[51],[0.85],"[640.0, 512.0]",vertical,"(890.0, 262.0)",[1.55],[0.803],0,2416.973
7,False,410,1.144,68,[],[],"[(1219, 851)]",[],[1],[37],[0.6166666666666667],"[640.0, 512.0]",vertical,"(390.0, 762.0)",[0.5],[0.573],1,2422.388
7,False,411,0.952,57,[],[],"[(1147, 865)]",[],[1],[42],[0.7],"[640.0, 512.0]",horizontal,"(890.0, 762.0)",[1.3],[0.653],1,2426.602
7,False,412,1.021,61,[],[],"[(1160, 865)]",[],[1],[42],[0.7],"[640.0, 512.0]",horizontal,"(390.0, 262.0)",[0.8],[0.661],1,2431.527
7,False,413,0.7,42,[],[],"[(1156, 861)]",[],[1],[51],[0.85],"[640.0, 512.0]",vertical,"(390.0, 762.0)",[1.6],[0.803],0,2436.076
7,False,414,1.022,61,[],[],"[(1137, 864)]",[],[1],[34],[0.5666666666666667],"[640.0, 512.0]",horizontal,"(890.0, 262.0)",[0.65],[0.523],1,2441.269
7,False,415,0.902,54,[],[],"[(1190, 870)]",[],[1],[51],[0.85],"[640.0, 512.0]",vertical,"(390.0, 762.0)",[0.8833333333333333],[0.806],0,2445.241
7,False,416,0.729,43,[],[],"[(1195, 858)]",[],[1],[37],[0.6166666666666667],"[640.0, 512.0]",horizontal,"(890.0, 262.0)",[1.4833333333333334],[0.574],1,2449.852
7,False,417,0.838,50,[],[],"[(1163, 873)]",[],[1],[37],[0.6166666666666667],"[640.0, 512.0]",vertical,"(890.0, 262.0)",[0.8833333333333333],[0.575],1,2456.721
7,False,418,0.978,58,[],[],"[(1148, 860)]",[],[1],[33],[0.55],"[640.0, 512.0]",vertical,"(890.0, 262.0)",[1.35],[0.508],1,2461.188
7,False,419,1.004,60,[],[],"[(1184, 888)]",[],[1],[43],[0.7166666666666667],"[640.0, 512.0]",horizontal,"(890.0, 262.0)",[1.0166666666666666],[0.677],1,2466.091
7,False,420,1.075,64,[],[],"[(1174, 866)]",[],[1],[37],[0.6166666666666667],"[640.0, 512.0]",horizontal,"(390.0, 262.0)",[1.1333333333333333],[0.573],1,2470.74
8,False,421,0.75,45,[],[],"[(1184, 875)]",[],[1],[36],[0.6],"[640.0, 512.0]",vertical,"(390.0, 262.0)",[1.4333333333333333],[0.563],1,2475.529
8,False,422,0.982,58,[],[],"[(1188, 856)]",[],[1],[33],[0.55],"[640.0, 512.0]",horizontal,"(890.0, 762.0)",[0.8833333333333333],[0.516],1,2480.174
8,False,423,1.084,65,[],[],"[(1191, 845)]",[],[1],[38],[0.6333333333333333],"[640.0, 512.0]",vertical,"(390.0, 762.0)",[1.65],[0.586],1,2484.609
8,False,424,0.592,35,[],[],"[(1194, 877)]",[],[1],[38],[0.6333333333333333],"[640.0, 512.0]",vertical,"(890.0, 762.0)",[1.0333333333333332],[0.589],1,2489.879
8,False,425,0.602,36,[],[],"[(1184, 865)]",[],[1],[34],[0.5666666666666667],"[640.0, 512.0]",vertical,"(890.0, 262.0)",[1.3],[0.529],1,2494.194
8,False,426,0.576,34,[],[],"[(1150, 864)]",[],[1],[39],[0.65],"[640.0, 512.0]",vertical,"(390.0, 762.0)",[1.0666666666666667],[0.613],1,2498.662
8,False,427,0.816,48,[],[],"[(1170, 879)]",[],[1],[],[],"[640.0, 512.0]",vertical,"(390.0, 762.0)",[],[0],0,2502.922
8,False,428,0.855,51,[],[],"[(1170, 870)]",[],[1],[35],[0.5833333333333334],"[640.0, 512.0]",horizontal,"(390.0, 762.0)",[1.3833333333333333],[0.538],1,2507.158
8,False,429,0.79,47,[],[],"[(1123, 870)]",[],[1],[],[],"[640.0, 512.0]",vertical,"(390.0, 262.0)",[],[0],0,2512.694
8,False,430,0.925,55,[],[],"[(1172, 841)]",[],[1],[31],[0.5166666666666666],"[640.0, 512.0]",vertical,"(890.0, 262.0)",[0.7166666666666667],[0.474],1,2517.559
8,False,431,0.517,31,[],[],"[(1178, 873)]",[],[1],[45],[0.75],"[640.0, 512.0]",horizontal,"(890.0, 262.0)",[1.2833333333333332],[0.702],1,2521.878
8,False,432,0.859,51,[],[],"[(1146, 860)]",[],[1],[37],[0.6166666666666667],"[640.0, 512.0]",vertical,"(390.0, 762.0)",[0.8666666666666667],[0.574],1,2526.392
8,False,433,0.551,33,[],[],"[(1143, 865)]",[],[1],[36],[0.6],"[640.0, 512.0]",vertical,"(890.0, 762.0)",[1.0],[0.554],1,2531.162
8,False,434,0.531,31,[],[],"[(1130, 870)]",[],[1],[51],[0.85],"[640.0, 512.0]",horizontal,"(390.0, 262.0)",[1.2166666666666666],[0.8],0,2535.177
8,False,435,0.849,50,[],[],"[(1180, 851)]",[],[1],[42],[0.7],"[640.0, 512.0]",horizontal,"(390.0, 762.0)",[1.0666666666666667],[0.655],1,2539.608
8,False,436,1.151,69,[],[],"[(1136, 862)]",[],[1],[51],[0.85],"[640.0, 512.0]",vertical,"(390.0, 762.0)",[1.4666666666666666],[0.805],0,2543.979
8,False,437,0.801,48,[],[],"[(1194, 877)]",[],[1],[32],[0.5333333333333333],"[640.0, 512.0]",vertical,"(890.0, 262.0)",[0.6666666666666666],[0.493],1,2549.515
8,False,438,0.646,38,[],[],"[(1160, 859)]",[],[1],[51],[0.85],"[640.0, 512.0]",horizontal,"(390.0, 762.0)",[1.15],[0.796],0,2553.308
8,False,439,0.644,38,[],[],"[(1233, 852), (1233, 860), (1166, 850)]",[],"[0, 0, 1]",[32],[0.5333333333333333],"[640.0, 512.0]",vertical,"(890.0, 262.0)",[1.2833333333333332],[0.49],1,2557.806
8,False,440,0.899,53,[],[],"[(1160, 852)]",[],[1],[51],[0.85],"[640.0, 512.0]",horizontal,"(390.0, 262.0)",[1.1833333333333333],[0.807],0,2571.359
8,False,441,0.525,31,[],[],"[(1193, 864)]",[],[1],[36],[0.6],"[640.0, 512.0]",horizontal,"(890.0, 262.0)",[0.5333333333333333],[0.562],1,2576.106
8,False,442,1.059,63,[],[],"[(1188, 863)]",[],[1],[35],[0.5833333333333334],"[640.0, 512.0]",vertical,"(390.0, 262.0)",[1.0333333333333332],[0.54],1,2579.714
8,False,443,0.588,35,[],[],"[(1159, 860)]",[],[1],[33],[0.55],"[640.0, 512.0]",horizontal,"(890.0, 262.0)",[0.8333333333333334],[0.51],1,2584.344
8,False,444,1.182,70,[],[],"[(1178, 872)]",[],[1],[14],[0.23333333333333334],"[640.0, 512.0]",vertical,"(390.0, 262.0)",[1.3833333333333333],[0.199],1,2588.126
8,False,445,0.705,42,[],[],"[(1170, 858)]",[],[1],[39],[0.65],"[640.0, 512.0]",horizontal,"(390.0, 262.0)",[1.6666666666666667],[0.607],1,2592.812
8,False,446,0.576,34,[],[],"[(1190, 862)]",[],[1],[51],[0.85],"[640.0, 512.0]",horizontal,"(390.0, 262.0)",[1.0833333333333333],[0.805],0,2597.796
8,False,447,0.911,54,[],[],"[(1168, 866)]",[],[1],[35],[0.5833333333333334],"[640.0, 512.0]",horizontal,"(890.0, 762.0)",[0.5666666666666667],[0.542],1,2602.284
8,False,448,1.166,69,[],[],"[(1184, 862)]",[],[1],[31],[0.5166666666666666],"[640.0, 512.0]",horizontal,"(890.0, 262.0)",[1.6333333333333333],[0.482],1,2606.277
8,False,449,0.662,39,[],[],"[(1190, 862)]",[],[1],[51],[0.85],"[640.0, 512.0]",vertical,"(890.0, 262.0)",[1.05],[0.804],0,2611.483
8,False,450,0.632,37,[],[],"[(1149, 861)]",[],[1],[51],[0.85],"[640.0, 512.0]",vertical,"(890.0, 762.0)",[1.0333333333333332],[0.805],0,2616.977
8,False,451,0.797,47,[],[],"[(1150, 863)]",[],[1],[40],[0.6666666666666666],"[640.0, 512.0]",vertical,"(890.0, 262.0)",[0.8833333333333333],[0.623],1,2621.642
8,False,452,0.662,39,[],[],"[(1196, 879)]",[],[1],[22],[0.36666666666666664],"[640.0, 512.0]",horizontal,"(390.0, 762.0)",[0.9666666666666667],[0.329],1,2626.511
8,False,453,1.187,71,[],[],"[(1190, 864)]",[],[1],[51],[0.85],"[640.0, 512.0]",horizontal,"(890.0, 262.0)",[0.95],[0.805],0,2631.059
8,False,454,1.011,60,[],[],"[(1188, 865)]",[],[1],[33],[0.55],"[640.0, 512.0]",horizontal,"(390.0, 762.0)",[0.6],[0.512],1,2636.628
8,False,455,0.502,30,[],[],"[(1166, 875)]",[],[1],[37],[0.6166666666666667],"[640.0, 512.0]",horizontal,"(890.0, 262.0)",[1.6166666666666667],[0.583],1,2644.847
8,False,456,0.506,30,[],[],"[(1184, 888)]",[],[1],[34],[0.5666666666666667],"[640.0, 512.0]",horizontal,"(890.0, 762.0)",[0.55],[0.53],1,2649.974
8,False,457,0.946,56,[],[],"[(1186, 882)]",[],[1],[51],[0.85],"[640.0, 512.0]",horizontal,"(890.0, 262.0)",[1.2833333333333332],[0.804],0,2654.026
8,False,458,1.171,70,[],[],"[(1184, 871)]",[],[1],[32],[0.5333333333333333],"[640.0, 512.0]",vertical,"(890.0, 762.0)",[0.7],[0.492],1,2659.376
8,False,459,0.641,38,[],[],"[(1184, 885)]",[],[1],[32],[0.5333333333333333],"[640.0, 512.0]",vertical,"(390.0, 262.0)",[1.45],[0.497],1,2663.797
8,False,460,0.539,32,[],[],"[(1175, 878)]",[],[1],[33],[0.55],"[640.0, 512.0]",vertical,"(890.0, 262.0)",[1.6166666666666667],[0.509],1,2668.629
8,False,461,0.913,54,[],[],"[(1190, 877)]",[],[1],[34],[0.5666666666666667],"[640.0, 512.0]",vertical,"(890.0, 762.0)",[1.3166666666666667],[0.521],1,2673.776
8,False,462,0.892,53,[],[],"[(1142, 880)]",[],[1],[33],[0.55],"[640.0, 512.0]",horizontal,"(390.0, 262.0)",[0.5666666666666667],[0.51],1,2679.13
8,False,463,0.63,37,[],[],"[(1189, 879)]",[],[1],[37],[0.6166666666666667],"[640.0, 512.0]",horizontal,"(890.0, 262.0)",[1.3833333333333333],[0.577],1,2683.607
8,False,464,1.033,61,[],[],"[(1178, 878)]",[],[1],[37],[0.6166666666666667],"[640.0, 512.0]",vertical,"(390.0, 762.0)",[0.8833333333333333],[0.574],1,2688.51
8,False,465,0.963,57,[],[],"[(1181, 882)]",[],[1],[36],[0.6],"[640.0, 512.0]",vertical,"(390.0, 262.0)",[0.7333333333333333],[0.565],1,2693.294
8,False,466,1.055,63,[],[],"[(1178, 885)]",[],[1],[32],[0.5333333333333333],"[640.0, 512.0]",horizontal,"(890.0, 262.0)",[1.6833333333333333],[0.494],1,2698.009
8,False,467,0.927,55,[],[],"[(1181, 871)]",[],[1],[37],[0.6166666666666667],"[640.0, 512.0]",horizontal,"(390.0, 262.0)",[0.6],[0.568],1,2703.392
8,False,468,0.778,46,[],[],"[(1178, 875)]",[],[1],[33],[0.55],"[640.0, 512.0]",horizontal,"(390.0, 262.0)",[0.55],[0.507],1,2707.928
8,False,469,1.05,63,[],[],"[(1178, 889)]",[],[1],[35],[0.5833333333333334],"[640.0, 512.0]",horizontal,"(390.0, 762.0)",[0.65],[0.541],1,2712.641
8,False,470,1.0,60,[],[],"[(1175, 895)]",[],[1],[41],[0.6833333333333333],"[640.0, 512.0]",vertical,"(390.0, 762.0)",[1.05],[0.645],1,2717.61
8,False,471,0.679,40,[],[],"[(1178, 876)]",[],[1],[42],[0.7],"[640.0, 512.0]",vertical,"(390.0, 262.0)",[0.95],[0.653],1,2722.527
8,False,472,0.524,31,[],[],"[(1172, 877)]",[],[1],[34],[0.5666666666666667],"[640.0, 512.0]",horizontal,"(890.0, 762.0)",[1.2],[0.533],1,2727.147
8,False,473,0.547,32,[],[],"[(1171, 877)]",[],[1],[32],[0.5333333333333333],"[640.0, 512.0]",horizontal,"(890.0, 762.0)",[0.7166666666666667],[0.49],1,2731.678
8,False,474,0.927,55,[],[],"[(1166, 871)]",[],[1],[33],[0.55],"[640.0, 512.0]",horizontal,"(890.0, 762.0)",[1.65],[0.503],1,2735.777
8,False,475,0.851,51,[],[],"[(1183, 888)]",[],[1],[41],[0.6833333333333333],"[640.0, 512.0]",vertical,"(390.0, 762.0)",[0.9333333333333333],[0.636],1,2740.996
8,False,476,0.757,45,[],[],"[(1150, 871)]",[],[1],[23],[0.3833333333333333],"[640.0, 512.0]",horizontal,"(390.0, 262.0)",[1.4],[0.346],1,2745.572
8,False,477,1.112,66,[],[],"[(1178, 889)]",[],[1],[40],[0.6666666666666666],"[640.0, 512.0]",vertical,"(390.0, 262.0)",[1.3],[0.619],1,2750.241
8,False,478,0.818,49,[],[],"[(1185, 879)]",[],[1],[28],[0.4666666666666667],"[640.0, 512.0]",horizontal,"(390.0, 262.0)",[1.2666666666666666],[0.435],1,2755.536
8,False,479,0.657,39,[],[],"[(1170, 873)]",[],[1],[40],[0.6666666666666666],"[640.0, 512.0]",horizontal,"(390.0, 762.0)",[1.6666666666666667],[0.619],1,2760.175
8,False,480,0.984,59,[],[],"[(1172, 873)]",[],[1],[34],[0.5666666666666667],"[640.0, 512.0]",horizontal,"(890.0, 762.0)",[0.7333333333333333],[0.526],1,2765.247
9,False,481,0.838,50,[],[],"[(1180, 884)]",[],[1],[37],[0.6166666666666667],"[640.0, 512.0]",horizontal,"(390.0, 262.0)",[1.6166666666666667],[0.58],1,2769.795
9,False,482,1.074,64,[],[],"[(1174, 886)]",[],[1],[37],[0.6166666666666667],"[640.0, 512.0]",vertical,"(390.0, 762.0)",[0.7833333333333333],[0.57],1,2774.878
9,False,483,0.715,42,[],[],"[(1179, 879)]",[],[1],[51],[0.85],"[640.0, 512.0]",horizontal,"(390.0, 262.0)",[1.5],[0.796],0,2779.548
9,False,484,0.794,47,[],[],"[(777, 370), (1174, 865)]",[],"[0, 1]",[38],[0.6333333333333333],"[640.0, 512.0]",vertical,"(890.0, 262.0)",[0.6833333333333333],[0.585],1,2784.759
9,False,485,1.093,65,[],[],"[(1180, 880)]",[],[1],[34],[0.5666666666666667],"[640.0, 512.0]",vertical,"(890.0, 262.0)",[1.3833333333333333],[0.527],1,2796.042
9,False,486,0.594,35,[],[],"[(1200, 875)]",[],[1],[32],[0.5333333333333333],"[640.0, 512.0]",vertical,"(890.0, 262.0)",[1.6166666666666667],[0.495],1,2801.126
9,False,487,0.808,48,[],[],"[(1177, 867)]",[],[1],[36],[0.6],"[640.0, 512.0]",horizontal,"(890.0, 262.0)",[0.9333333333333333],[0.557],1,2806.015
9,False,488,0.686,41,[],[],"[(1199, 871)]",[],[1],[32],[0.5333333333333333],"[640.0, 512.0]",vertical,"(890.0, 262.0)",[1.0833333333333333],[0.486],1,2810.58
9,False,489,0.774,46,[],[],"[(1180, 887)]",[],[1],[36],[0.6],"[640.0, 512.0]",vertical,"(890.0, 262.0)",[0.6333333333333333],[0.551],1,2815.013
9,False,490,1.073,64,[],[],"[(1190, 884)]",[],[1],[27],[0.45],"[640.0, 512.0]",horizontal,"(390.0, 262.0)",[1.2666666666666666],[0.409],1,2819.074
9,False,491,0.975,58,[],[],"[(1196, 882)]",[],[1],[35],[0.5833333333333334],"[640.0, 512.0]",vertical,"(390.0, 762.0)",[1.4833333333333334],[0.537],1,2824.039
9,False,492,1.106,66,[],[],"[(1179, 874)]",[],[1],[],[],"[640.0, 512.0]",horizontal,"(890.0, 262.0)",[],[0],0,2829.246
9,False,493,0.724,43,[],[],"[(1184, 886)]",[],[1],[35],[0.5833333333333334],"[640.0, 512.0]",horizontal,"(890.0, 762.0)",[0.9333333333333333],[0.538],1,2833.96
9,False,494,0.87,52,[],[],"[(1175, 892)]",[],[1],[33],[0.55],"[640.0, 512.0]",horizontal,"(890.0, 262.0)",[1.4166666666666667],[0.505],1,2838.346
9,False,495,0.783,46,[],[],"[(1185, 884)]",[],[1],[36],[0.6],"[640.0, 512.0]",vertical,"(890.0, 762.0)",[1.6666666666666667],[0.558],1,2843.224
9,False,496,0.759,45,[],[],"[(1183, 890)]",[],[1],[36],[0.6],"[640.0, 512.0]",horizontal,"(390.0, 762.0)",[1.6833333333333333],[0.554],1,2848.278
9,False,497,0.536,32,[],[],"[(1195, 881)]",[],[1],[34],[0.5666666666666667],"[640.0, 512.0]",horizontal,"(390.0, 762.0)",[1.0166666666666666],[0.523],1,2853.541
9,False,498,0.828,49,[],[],"[(1180, 898)]",[],[1],[42],[0.7],"[640.0, 512.0]",vertical,"(390.0, 762.0)",[0.55],[0.655],1,2858.027
9,False,499,1.072,64,[],[],"[(1180, 892)]",[],[1],[35],[0.5833333333333334],"[640.0, 512.0]",vertical,"(390.0, 262.0)",[0.95],[0.543],1,2862.467
9,False,500,0.86,51,[],[],"[(1190, 876)]",[],[1],[34],[0.5666666666666667],"[640.0, 512.0]",horizontal,"(390.0, 262.0)",[0.8166666666666667],[0.522],1,2867.213
9,False,501,0.6,36,[],[],"[(1180, 865)]",[],[1],[32],[0.5333333333333333],"[640.0, 512.0]",vertical,"(390.0, 762.0)",[1.0666666666666667],[0.491],1,2871.552
9,False,502,0.645,38,[],[],"[(1183, 875)]",[],[1],[37],[0.6166666666666667],"[640.0, 512.0]",horizontal,"(890.0, 762.0)",[0.75],[0.583],1,2875.831
9,False,503,0.833,49,[],[],"[(1190, 875)]",[],[1],[34],[0.5666666666666667],"[640.0, 512.0]",horizontal,"(890.0, 262.0)",[1.3666666666666667],[0.522],1,2880.225
9,False,504,1.073,64,[],[],"[(1196, 877)]",[],[1],[40],[0.6666666666666666],"[640.0, 512.0]",horizontal,"(390.0, 762.0)",[1.0],[0.627],1,2885.267
9,False,505,0.846,50,[],[],"[(1184, 898)]",[],[1],[35],[0.5833333333333334],"[640.0, 512.0]",horizontal,"(390.0, 262.0)",[1.0833333333333333],[0.539],1,2890.064
9,False,506,0.629,37,[],[],"[(1179, 889)]",[],[1],[36],[0.6],"[640.0, 512.0]",horizontal,"(390.0, 262.0)",[0.5],[0.554],1,2894.574
9,False,507,1.102,66,[],[],"[(1195, 892)]",[],[1],[33],[0.55],"[640.0, 512.0]",horizontal,"(890.0, 262.0)",[1.6333333333333333],[0.506],1,2898.553
9,False,508,1.131,67,[],[],"[(1180, 884)]",[],[1],[34],[0.5666666666666667],"[640.0, 512.0]",vertical,"(890.0, 262.0)",[1.15],[0.528],1,2904.045
9,False,509,0.724,43,[],[],"[(1182, 875)]",[],[1],[31],[0.5166666666666666],"[640.0, 512.0]",vertical,"(890.0, 262.0)",[1.3833333333333333],[0.477],1,2908.925
9,False,510,0.879,52,[],[],"[(1188, 865)]",[],[1],[43],[0.7166666666666667],"[640.0, 512.0]",horizontal,"(390.0, 262.0)",[1.0],[0.669],1,2913.754
9,False,511,0.568,34,[],[],"[(1116, 874)]",[],[1],[14],[0.23333333333333334],"[640.0, 512.0]",horizontal,"(390.0, 762.0)",[0.7833333333333333],[0.199],1,2918.526
9,False,512,0.615,36,[],[],"[(934, 961), (1172, 881)]",[],"[0, 1]",[47],[0.7833333333333333],"[640.0, 512.0]",vertical,"(390.0, 262.0)",[0.95],[0.736],1,2922.412
9,False,513,0.844,50,[],[],"[(927, 867), (1125, 881)]",[],"[0, 1]",[33],[0.55],"[640.0, 512.0]",horizontal,"(390.0, 262.0)",[1.4833333333333334],[0.506],1,2927.24
9,False,514,0.945,56,[],[],"[(1208, 876)]",[],[1],[50],[0.8333333333333334],"[640.0, 512.0]",horizontal,"(890.0, 762.0)",[0.8833333333333333],[0.793],1,2932.463
9,False,515,0.505,30,[],[],"[(1183, 888)]",[],[1],[51],[0.85],"[640.0, 512.0]",horizontal,"(390.0, 762.0)",[1.1],[0.805],0,2937.341
9,False,516,0.922,55,[],[],"[(1172, 889)]",[],[1],[36],[0.6],"[640.0, 512.0]",horizontal,"(890.0, 762.0)",[1.1333333333333333],[0.552],1,2941.947
9,False,517,1.147,68,[],[],"[(1163, 889)]",[],[1],[31],[0.5166666666666666],"[640.0, 512.0]",horizontal,"(390.0, 262.0)",[1.55],[0.475],1,2946.833
9,False,518,0.945,56,[],[],"[(1183, 878)]",[],[1],[38],[0.6333333333333333],"[640.0, 512.0]",vertical,"(390.0, 762.0)",[1.6],[0.586],1,2952.155
9,False,519,0.794,47,[],[],"[(1124, 898)]",[],[1],[35],[0.5833333333333334],"[640.0, 512.0]",horizontal,"(890.0, 762.0)",[1.65],[0.538],1,2957.461
9,False,520,1.019,61,[],[],"[(1178, 884)]",[],[1],[36],[0.6],"[640.0, 512.0]",horizontal,"(390.0, 762.0)",[1.1666666666666667],[0.555],1,2962.629
9,False,521,1.108,66,[],[],"[(1196, 888)]",[],[1],[36],[0.6],"[640.0, 512.0]",horizontal,"(890.0, 762.0)",[1.0666666666666667],[0.555],1,2967.425
9,False,522,1.02,61,[],[],"[(1176, 889)]",[],[1],[51],[0.85],"[640.0, 512.0]",horizontal,"(890.0, 762.0)",[1.5333333333333332],[0.796],0,2972.298
9,False,523,0.642,38,[],[],"[(1168, 881)]",[],[1],[39],[0.65],"[640.0, 512.0]",vertical,"(390.0, 262.0)",[1.0833333333333333],[0.608],1,2977.812
9,False,524,0.832,49,[],[],"[(1123, 869)]",[],[1],[51],[0.85],"[640.0, 512.0]",horizontal,"(390.0, 262.0)",[1.1666666666666667],[0.801],0,2994.202
9,False,525,1.083,64,[],[],"[(1139, 851)]",[],[1],[51],[0.85],"[640.0, 512.0]",horizontal,"(390.0, 762.0)",[0.5333333333333333],[0.803],0,2999.294
9,False,526,0.754,45,[],[],"[(1223, 840)]",[],[1],[36],[0.6],"[640.0, 512.0]",vertical,"(890.0, 762.0)",[1.4333333333333333],[0.556],1,3003.484
9,False,527,0.576,34,[],[],"[(1170, 876)]",[],[1],[51],[0.85],"[640.0, 512.0]",horizontal,"(890.0, 262.0)",[0.5],[0.795],0,3018.643
9,False,528,0.928,55,[],[],"[(1165, 862)]",[],[1],[51],[0.85],"[640.0, 512.0]",horizontal,"(390.0, 262.0)",[0.6833333333333333],[0.795],0,3022.726
9,False,529,0.759,45,[],[],"[(1149, 869)]",[],[1],[51],[0.85],"[640.0, 512.0]",vertical,"(390.0, 762.0)",[0.5333333333333333],[0.804],0,3027.076
9,False,530,1.115,66,[],[],"[(1113, 861)]",[],[1],[39],[0.65],"[640.0, 512.0]",horizontal,"(390.0, 762.0)",[1.5666666666666667],[0.606],1,3031.517
9,False,531,1.136,68,[],[],"[(1152, 902)]",[],[1],[45],[0.75],"[640.0, 512.0]",horizontal,"(390.0, 762.0)",[1.6166666666666667],[0.701],1,3225.296
9,False,532,1.044,62,[],[],"[(1177, 901)]",[],[1],[51],[0.85],"[640.0, 512.0]",vertical,"(390.0, 262.0)",[0.7166666666666667],[0.802],0,3230.807
9,False,533,0.82,49,[],[],"[(1133, 885)]",[],[1],[51],[0.85],"[640.0, 512.0]",horizontal,"(890.0, 262.0)",[1.65],[0.819],0,3235.705
9,False,534,0.579,34,[],[],"[(1117, 882)]",[],[1],[34],[0.5666666666666667],"[640.0, 512.0]",vertical,"(890.0, 262.0)",[1.0666666666666667],[0.526],1,3240.843
9,False,535,0.623,37,[],[],"[(1175, 885)]",[],[1],[38],[0.6333333333333333],"[640.0, 512.0]",horizontal,"(890.0, 762.0)",[0.7333333333333333],[0.59],1,3250.599
9,False,536,1.001,60,[],[],"[(1178, 876)]",[],[1],[34],[0.5666666666666667],"[640.0, 512.0]",vertical,"(890.0, 262.0)",[1.4166666666666667],[0.524],1,3254.599
9,False,537,1.031,61,[],[],"[(1168, 876)]",[],[1],[35],[0.5833333333333334],"[640.0, 512.0]",vertical,"(890.0, 262.0)",[1.2666666666666666],[0.541],1,3259.656
9,False,538,1.018,61,[],[],"[(1168, 876)]",[],[1],[35],[0.5833333333333334],"[640.0, 512.0]",horizontal,"(890.0, 762.0)",[0.7333333333333333],[0.542],1,3264.652
9,False,539,0.959,57,[],[],"[(1143, 885)]",[],[1],[36],[0.6],"[640.0, 512.0]",vertical,"(890.0, 762.0)",[1.3333333333333333],[0.558],1,3269.075
9,False,540,1.135,68,[],[],"[(1195, 875)]",[],[1],[17],[0.2833333333333333],"[640.0, 512.0]",horizontal,"(390.0, 262.0)",[1.3833333333333333],[0.247],1,3274.13
10,False,541,0.595,35,[],[],"[(1148, 883)]",[],[1],[44],[0.7333333333333333],"[640.0, 512.0]",vertical,"(390.0, 762.0)",[0.55],[0.687],1,3278.98
10,False,542,0.79,47,[],[],"[(1143, 884)]",[],[1],[40],[0.6666666666666666],"[640.0, 512.0]",vertical,"(890.0, 262.0)",[0.65],[0.622],1,3282.842
10,False,543,0.753,45,[],[],"[(1141, 875)]",[],[1],[35],[0.5833333333333334],"[640.0, 512.0]",vertical,"(390.0, 262.0)",[1.3166666666666667],[0.539],1,3287.078
10,False,544,0.865,51,[],[],"[(1172, 855)]",[],[1],[40],[0.6666666666666666],"[640.0, 512.0]",vertical,"(890.0, 262.0)",[1.55],[0.621],1,3291.832
10,False,545,1.04,62,[],[],"[(1166, 884)]",[],[1],[34],[0.5666666666666667],"[640.0, 512.0]",horizontal,"(890.0, 262.0)",[1.3833333333333333],[0.528],1,3297.127
10,False,546,0.568,34,[],[],"[(1159, 881)]",[],[1],[34],[0.5666666666666667],"[640.0, 512.0]",horizontal,"(390.0, 262.0)",[1.4833333333333334],[0.528],1,3302.487
10,False,547,1.038,62,[],[],"[(1143, 879)]",[],[1],[39],[0.65],"[640.0, 512.0]",horizontal,"(890.0, 762.0)",[1.5833333333333333],[0.609],1,3307.348
10,False,548,0.724,43,[],[],"[(1148, 870)]",[],[1],[37],[0.6166666666666667],"[640.0, 512.0]",horizontal,"(390.0, 762.0)",[0.5833333333333334],[0.573],1,3312.864
10,False,549,0.746,44,[],[],"[(1174, 884)]",[],[1],[37],[0.6166666666666667],"[640.0, 512.0]",vertical,"(390.0, 762.0)",[1.2],[0.573],1,3316.849
10,False,550,0.759,45,[],[],"[(1147, 874)]",[],[1],[34],[0.5666666666666667],"[640.0, 512.0]",vertical,"(890.0, 762.0)",[1.3166666666666667],[0.524],1,3321.447
10,False,551,0.903,54,[],[],"[(1177, 880)]",[],[1],[43],[0.7166666666666667],"[640.0, 512.0]",horizontal,"(890.0, 262.0)",[1.4],[0.673],1,3326.376
10,False,552,1.191,71,[],[],"[(1148, 870)]",[],[1],[35],[0.5833333333333334],"[640.0, 512.0]",horizontal,"(890.0, 762.0)",[0.7166666666666667],[0.542],1,3331.525
10,False,553,1.028,61,[],[],"[(1136, 881)]",[],[1],[32],[0.5333333333333333],"[640.0, 512.0]",horizontal,"(890.0, 262.0)",[1.1166666666666667],[0.491],1,3336.041
10,False,554,0.577,34,[],[],"[(1170, 880)]",[],[1],[50],[0.8333333333333334],"[640.0, 512.0]",horizontal,"(890.0, 262.0)",[1.6],[0.788],1,3340.829
10,False,555,0.909,54,[],[],"[(1167, 885)]",[],[1],[31],[0.5166666666666666],"[640.0, 512.0]",horizontal,"(390.0, 262.0)",[1.55],[0.482],1,3345.994
10,False,556,0.958,57,[],[],"[(1209, 874)]",[],[1],[35],[0.5833333333333334],"[640.0, 512.0]",horizontal,"(890.0, 762.0)",[0.9],[0.537],1,3351.215
10,False,557,0.984,59,[],[],"[(1172, 884)]",[],[1],[44],[0.7333333333333333],"[640.0, 512.0]",vertical,"(390.0, 262.0)",[1.4666666666666666],[0.706],1,3355.834
10,False,558,0.866,51,[],[],"[(1190, 886)]",[],[1],[34],[0.5666666666666667],"[640.0, 512.0]",horizontal,"(890.0, 262.0)",[0.55],[0.524],1,3361.181
10,False,559,1.061,63,[],[],"[(1231, 872), (1231, 873), (1229, 885)]",[],"[0, 0, 1]",[35],[0.5833333333333334],"[640.0, 512.0]",horizontal,"(890.0, 762.0)",[0.85],[0.547],1,3365.462
10,False,560,0.92,55,[],[],"[(1178, 889)]",[],[1],[39],[0.65],"[640.0, 512.0]",horizontal,"(890.0, 262.0)",[1.2833333333333332],[0.606],1,3372.811
10,False,561,0.678,40,[],[],"[(1175, 887)]",[],[1],[51],[0.85],"[640.0, 512.0]",horizontal,"(390.0, 762.0)",[0.6],[0.801],0,3377.811
10,False,562,1.014,60,[],[],"[(1168, 892)]",[],[1],[51],[0.85],"[640.0, 512.0]",horizontal,"(390.0, 762.0)",[0.65],[0.805],0,3381.985
10,False,563,0.926,55,[],[],"[(1199, 870)]",[],[1],[51],[0.85],"[640.0, 512.0]",horizontal,"(890.0, 762.0)",[0.8333333333333334],[0.797],0,3386.133
10,False,564,1.155,69,[],[],"[(1196, 879)]",[],[1],[35],[0.5833333333333334],"[640.0, 512.0]",vertical,"(390.0, 762.0)",[1.0],[0.536],1,3391.645
10,False,565,1.014,60,[],[],"[(1177, 873)]",[],[1],[38],[0.6333333333333333],"[640.0, 512.0]",horizontal,"(890.0, 262.0)",[0.55],[0.589],1,3396.189
10,False,566,0.659,39,[],[],"[(1213, 875)]",[],[1],[51],[0.85],"[640.0, 512.0]",vertical,"(890.0, 262.0)",[1.2666666666666666],[0.808],0,3400.528
10,False,567,0.625,37,[],[],"[(1173, 885)]",[],[1],[51],[0.85],"[640.0, 512.0]",vertical,"(890.0, 262.0)",[1.0333333333333332],[0.805],0,3405.216
10,False,568,0.728,43,[],[],"[(1192, 863)]",[],[1],[51],[0.85],"[640.0, 512.0]",vertical,"(890.0, 262.0)",[1.1166666666666667],[0.801],0,3409.629
10,False,569,0.68,40,[],[],"[(1130, 882)]",[],[1],[36],[0.6],"[640.0, 512.0]",horizontal,"(890.0, 262.0)",[1.6],[0.558],1,3414.229
10,False,570,0.785,47,[],[],"[(1192, 882)]",[],[1],[51],[0.85],"[640.0, 512.0]",vertical,"(890.0, 262.0)",[0.9666666666666667],[0.804],0,3419.059
10,False,571,0.785,47,[],[],"[(1142, 880)]",[],[1],[51],[0.85],"[640.0, 512.0]",vertical,"(890.0, 762.0)",[0.5],[0.802],0,3423.658
10,False,572,1.176,70,[],[],"[(1141, 880)]",[],[1],[38],[0.6333333333333333],"[640.0, 512.0]",horizontal,"(890.0, 762.0)",[1.4],[0.594],1,3427.941
10,False,573,1.112,66,[],[],"[(1163, 879)]",[],[1],[46],[0.7666666666666666],"[640.0, 512.0]",vertical,"(890.0, 762.0)",[1.0666666666666667],[0.722],1,3433.06
10,False,574,1.143,68,[],[],"[(1179, 893)]",[],[1],[51],[0.85],"[640.0, 512.0]",horizontal,"(890.0, 762.0)",[1.0333333333333332],[0.802],0,3438.127
10,False,575,0.663,39,[],[],"[(1136, 880)]",[],[1],[36],[0.6],"[640.0, 512.0]",horizontal,"(890.0, 762.0)",[1.6333333333333333],[0.556],1,3443.282
10,False,576,0.757,45,[],[],"[(1167, 883)]",[],[1],[51],[0.85],"[640.0, 512.0]",horizontal,"(890.0, 762.0)",[1.4833333333333334],[0.803],0,3453.709
10,False,577,0.968,58,[],[],"[(1115, 880)]",[],[1],[51],[0.85],"[640.0, 512.0]",horizontal,"(890.0, 262.0)",[1.3666666666666667],[0.811],0,3458.861
10,False,578,0.851,51,[],[],"[(1122, 866)]",[],[1],[38],[0.6333333333333333],"[640.0, 512.0]",horizontal,"(390.0, 762.0)",[0.7666666666666666],[0.588],1,3479.662
10,False,579,1.116,66,[],[],"[(1093, 856)]",[],[1],[51],[0.85],"[640.0, 512.0]",horizontal,"(390.0, 262.0)",[1.3166666666666667],[0.809],0,3484.081
10,False,580,0.676,40,[],[],"[(1142, 856)]",[],[1],[51],[0.85],"[640.0, 512.0]",horizontal,"(890.0, 762.0)",[1.4666666666666666],[0.801],0,3499.863
10,False,581,0.839,50,[],[],"[(1106, 883)]",[],[1],[51],[0.85],"[640.0, 512.0]",horizontal,"(390.0, 762.0)",[0.7333333333333333],[0.801],0,3504.787
10,False,582,0.819,49,[],[],"[(1172, 870)]",[],[1],[51],[0.85],"[640.0, 512.0]",horizontal,"(890.0, 262.0)",[1.0333333333333332],[0.803],0,3509.337
10,False,583,0.809,48,[],[],"[(1190, 956), (1209, 1009), (1130, 855)]",[],"[0, 0, 1]",[28],[0.4666666666666667],"[640.0, 512.0]",vertical,"(890.0, 762.0)",[0.6666666666666666],[0.427],1,3514.118
10,False,584,0.634,38,[],[],"[(1116, 890)]",[],[1],[38],[0.6333333333333333],"[640.0, 512.0]",vertical,"(890.0, 762.0)",[0.8],[0.586],1,3545.083
10,False,585,0.928,55,[],[],"[(1170, 872)]",[],[1],[51],[0.85],"[640.0, 512.0]",vertical,"(390.0, 762.0)",[0.9666666666666667],"[0, 0.803]",0,3549.305
10,False,586,0.951,57,[],[],"[(1160, 869)]",[],[1],[],[],"[640.0, 512.0]",vertical,"(890.0, 762.0)",[],[0],0,3554.026
10,False,587,1.031,61,[],[3569608],"[(1194, 863)]","[(1099, 892)]",[1],[7],[0.11666666666666667],"[640.0, 512.0]",horizontal,"(890.0, 262.0)",[],[0],0,3557.232
10,False,588,0.899,53,[],[],"[(1129, 903)]",[],[1],[35],[0.5833333333333334],"[640.0, 512.0]",vertical,"(890.0, 262.0)",[1.55],[0.538],1,3560.824
10,False,589,0.966,57,[],[],"[(1137, 875)]",[],[1],[33],[0.55],"[640.0, 512.0]",vertical,"(890.0, 262.0)",[0.7],[0.514],1,3565.833
10,False,590,0.855,51,[],[],"[(1190, 870)]",[],[1],[37],[0.6166666666666667],"[640.0, 512.0]",horizontal,"(390.0, 762.0)",[0.7333333333333333],[0.571],1,3570.126
10,False,591,0.656,39,[],[],"[(1230, 879)]",[],[1],[],[],"[640.0, 512.0]",horizontal,"(390.0, 762.0)",[],[0],0,3574.217
10,False,592,0.63,37,[],[],"[(1227, 868)]",[],[1],[],[],"[640.0, 512.0]",horizontal,"(390.0, 762.0)",[],[0],0,3576.413
10,False,593,1.015,60,[],[],"[(1264, 975), (1214, 876)]",[],"[0, 1]",[51],[0.85],"[640.0, 512.0]",vertical,"(890.0, 762.0)",[1.4833333333333334],[0.807],0,3578.146
10,False,594,1.094,65,[],[],"[(1020, 980), (1195, 851)]",[],"[0, 1]",[],[],"[640.0, 512.0]",vertical,"(890.0, 762.0)",[],[0],0,3583.448
10,False,595,0.883,52,[],[],"[(1186, 872)]",[],[1],[41],[0.6833333333333333],"[640.0, 512.0]",vertical,"(390.0, 762.0)",[0.95],[0.64],1,3588.26
10,False,596,1.01,60,[],[],"[(1162, 875)]",[],[1],[51],[0.85],"[640.0, 512.0]",horizontal,"(390.0, 262.0)",[1.5833333333333333],[0.797],0,3592.845
10,False,597,1.039,62,[],[],"[(1051, 849)]",[],[1],[39],[0.65],"[640.0, 512.0]",vertical,"(390.0, 762.0)",[1.1],[0.601],1,3598.287
10,False,598,0.764,45,[],[],"[(1208, 849)]",[],[1],[],[],"[640.0, 512.0]",vertical,"(390.0, 762.0)",[],[0],0,3606.993
10,False,599,0.882,52,[],[],"[(1215, 863)]",[],[1],[],[],"[640.0, 512.0]",vertical,"(390.0, 762.0)",[],[0],0,3609.131
10,False,600,1.07,64,[],[],"[(1208, 864)]",[],[1],[],[],"[640.0, 512.0]",vertical,"(890.0, 262.0)",[],[0],0,3610.916
11,False,601,0.816,48,[],[],"[(1190, 990), (1196, 971), (1190, 853)]",[],"[0, 0, 1]",[],[],"[640.0, 512.0]",vertical,"(390.0, 762.0)",[],[0],0,3612.687
11,False,602,0.521,31,[],[],"[(1193, 850)]",[],[1],[51],[0.85],"[640.0, 512.0]",horizontal,"(890.0, 762.0)",[0.8],[0.803],0,3629.606
11,False,603,0.635,38,[],[],"[(1196, 871)]",[],[1],[51],[0.85],"[640.0, 512.0]",horizontal,"(890.0, 262.0)",[1.35],[0.807],0,3633.816
11,False,604,0.767,46,[],[],"[(1252, 976), (1203, 880)]",[],"[0, 1]",[38],[0.6333333333333333],"[640.0, 512.0]",horizontal,"(890.0, 762.0)",[1.0833333333333333],[0.593],1,3638.601
11,False,605,0.828,49,[],[],"[(1187, 886)]",[],[1],[51],[0.85],"[640.0, 512.0]",vertical,"(390.0, 262.0)",[1.1333333333333333],[0.809],0,3646.366
11,False,606,0.987,59,[],[],"[(1249, 864), (1186, 861)]",[],"[0, 1]",[51],[0.85],"[640.0, 512.0]",horizontal,"(390.0, 262.0)",[1.6833333333333333],[0.8],0,3651.236
11,False,607,0.899,53,[],[],"[(1069, 882)]",[],[1],[51],[0.85],"[640.0, 512.0]",vertical,"(890.0, 762.0)",[1.55],[0.812],0,3659.409
11,False,608,0.864,51,[],[],"[(1084, 849)]",[],[1],[51],[0.85],"[640.0, 512.0]",vertical,"(390.0, 262.0)",[1.1666666666666667],[0.8],0,3693.558
11,False,609,0.644,38,[],[],"[(1137, 850)]",[],[1],[51],[0.85],"[640.0, 512.0]",horizontal,"(390.0, 762.0)",[0.8],[0.799],0,3705.04
11,False,610,0.985,59,[],[],"[(1140, 876)]",[],[1],[51],[0.85],"[640.0, 512.0]",vertical,"(390.0, 762.0)",[1.5833333333333333],[0.812],0,3710.985
11,False,611,0.602,36,[],[],"[(757, 766), (703, 969), (1070, 839)]",[],"[0, 0, 1]",[35],[0.5833333333333334],"[640.0, 512.0]",horizontal,"(890.0, 262.0)",[1.4666666666666666],[0.539],1,3716.483
11,False,612,1.058,63,[],[],"[(1113, 903)]",[],[1],[38],[0.6333333333333333],"[640.0, 512.0]",vertical,"(390.0, 762.0)",[1.0666666666666667],[0.592],1,3747.629
11,False,613,0.774,46,[],[],"[(1191, 894)]",[],[1],[51],[0.85],"[640.0, 512.0]",vertical,"(390.0, 762.0)",[0.7166666666666667],[0.799],0,3752.413
11,False,614,0.867,52,[],[],"[(1136, 891)]",[],[1],[51],[0.85],"[640.0, 512.0]",vertical,"(890.0, 262.0)",[1.2666666666666666],[0.8],0,3756.911
11,False,615,1.173,70,[],[],"[(1115, 872)]",[],[1],[51],[0.85],"[640.0, 512.0]",horizontal,"(890.0, 262.0)",[0.8333333333333334],[0.799],0,3761.8
11,False,616,0.74,44,[],[],"[(1118, 851)]",[],[1],[51],[0.85],"[640.0, 512.0]",horizontal,"(390.0, 262.0)",[0.6833333333333333],[0.814],0,3767.833
11,False,617,1.03,61,[],[],"[(1112, 889)]",[],[1],[51],[0.85],"[640.0, 512.0]",horizontal,"(890.0, 262.0)",[0.7],[0.798],0,3774.868
11,False,618,0.796,47,[],[],"[(1196, 866)]",[],[1],[39],[0.65],"[640.0, 512.0]",vertical,"(390.0, 762.0)",[1.4666666666666666],[0.599],1,3783.867
11,False,619,0.607,36,[],[],"[(1138, 878)]",[],[1],[51],[0.85],"[640.0, 512.0]",vertical,"(890.0, 262.0)",[0.6166666666666667],[0.797],0,3788.828
11,False,620,1.1,66,[],[],"[(1154, 879)]",[],[1],[51],[0.85],"[640.0, 512.0]",vertical,"(890.0, 262.0)",[0.85],[0.802],0,3793.037
11,False,621,1.029,61,[],[],"[(1187, 869)]",[],[1],[51],[0.85],"[640.0, 512.0]",horizontal,"(890.0, 762.0)",[0.5],[0.795],0,3797.727
11,False,622,0.835,50,[],[],"[(1196, 868)]",[],[1],[],[],"[640.0, 512.0]",horizontal,"(890.0, 262.0)",[],[0],0,3813.542
11,False,623,1.006,60,[],[],"[(1111, 856)]",[],[1],[39],[0.65],"[640.0, 512.0]",horizontal,"(390.0, 762.0)",[1.5166666666666666],[0.599],1,4875.504
11,False,624,0.85,51,[],[],"[(1127, 889)]",[],[1],[39],[0.65],"[640.0, 512.0]",horizontal,"(390.0, 762.0)",[1.4],[0.618],1,4880.602
11,False,625,0.824,49,[],[],"[(1190, 896)]",[],[1],[40],[0.6666666666666666],"[640.0, 512.0]",horizontal,"(390.0, 262.0)",[1.0],[0.63],1,4885.751
11,False,626,0.557,33,[],[],"[(1140, 854)]",[],[1],[34],[0.5666666666666667],"[640.0, 512.0]",horizontal,"(890.0, 262.0)",[0.85],[0.525],1,4890.345
11,False,627,0.828,49,[],[],"[(1190, 896)]",[],[1],[34],[0.5666666666666667],"[640.0, 512.0]",vertical,"(890.0, 762.0)",[1.5166666666666666],[0.532],1,4894.244
11,False,628,1.019,61,[],[],"[(1205, 892)]",[],[1],[45],[0.75],"[640.0, 512.0]",vertical,"(390.0, 762.0)",[1.35],[0.7],1,4899.193
11,False,629,0.953,57,[],[],"[(1147, 879)]",[],[1],[43],[0.7166666666666667],"[640.0, 512.0]",horizontal,"(390.0, 762.0)",[1.2333333333333334],[0.673],1,4904.552
11,False,630,0.535,32,[],[],"[(1148, 881)]",[],[1],[51],[0.85],"[640.0, 512.0]",vertical,"(890.0, 262.0)",[0.6333333333333333],[0.804],0,4909.606
11,False,631,0.534,32,[],[],"[(1144, 880)]",[],[1],[30],[0.5],"[640.0, 512.0]",vertical,"(890.0, 262.0)",[0.7166666666666667],[0.457],1,4913.673
11,False,632,0.783,46,[],[],"[(1196, 885)]",[],[1],[31],[0.5166666666666666],"[640.0, 512.0]",vertical,"(390.0, 262.0)",[1.5333333333333332],[0.473],1,4917.539
11,False,633,1.028,61,[],[],"[(1196, 899)]",[],[1],[35],[0.5833333333333334],"[640.0, 512.0]",vertical,"(390.0, 762.0)",[0.7],[0.542],1,4922.436
11,False,634,0.504,30,[],[],"[(1145, 876)]",[],[1],[51],[0.85],"[640.0, 512.0]",vertical,"(390.0, 262.0)",[1.05],[0.804],0,4927.019
11,False,635,0.506,30,[],[],"[(1198, 898)]",[],[1],[33],[0.55],"[640.0, 512.0]",vertical,"(890.0, 762.0)",[1.6833333333333333],[0.507],1,4931.42
11,False,636,0.575,34,[],[],"[(1192, 879)]",[],[1],[38],[0.6333333333333333],"[640.0, 512.0]",vertical,"(390.0, 762.0)",[0.55],[0.595],1,4936.616
11,False,637,0.683,40,[],[],"[(1188, 880)]",[],[1],[51],[0.85],"[640.0, 512.0]",vertical,"(390.0, 262.0)",[0.5],[0.801],0,4940.458
11,False,638,0.891,53,[],[],"[(1136, 869)]",[],[1],[34],[0.5666666666666667],"[640.0, 512.0]",vertical,"(390.0, 762.0)",[1.15],[0.525],1,4944.555
11,False,639,0.961,57,[],[],"[(1146, 889)]",[],[1],[33],[0.55],"[640.0, 512.0]",vertical,"(890.0, 262.0)",[1.3833333333333333],[0.509],1,4949.252
11,False,640,1.125,67,[],[],"[(1194, 885)]",[],[1],[38],[0.6333333333333333],"[640.0, 512.0]",horizontal,"(390.0, 762.0)",[0.6166666666666667],[0.589],1,4954.251
11,False,641,1.188,71,[],[],"[(1148, 882)]",[],[1],[33],[0.55],"[640.0, 512.0]",vertical,"(390.0, 262.0)",[0.8666666666666667],[0.517],1,4958.785
11,False,642,0.567,34,[],[],"[(1142, 875)]",[],[1],[33],[0.55],"[640.0, 512.0]",vertical,"(390.0, 262.0)",[1.15],[0.512],1,4963.562
11,False,643,0.751,45,[],[],"[(1214, 872)]",[],[1],[31],[0.5166666666666666],"[640.0, 512.0]",vertical,"(890.0, 262.0)",[1.1666666666666667],[0.474],1,4967.916
11,False,644,0.848,50,[],[],"[(1148, 866)]",[],[1],[35],[0.5833333333333334],"[640.0, 512.0]",vertical,"(390.0, 762.0)",[0.9],[0.538],1,4972.435
11,False,645,0.52,31,[],[],"[(1196, 869)]",[],[1],[51],[0.85],"[640.0, 512.0]",horizontal,"(390.0, 262.0)",[0.8666666666666667],[0.801],0,4976.982
11,False,646,1.042,62,[],[],"[(1143, 892)]",[],[1],[31],[0.5166666666666666],"[640.0, 512.0]",vertical,"(890.0, 262.0)",[1.4166666666666667],[0.477],1,4981.386
11,False,647,0.619,37,[],[],"[(1196, 875)]",[],[1],[33],[0.55],"[640.0, 512.0]",vertical,"(390.0, 762.0)",[1.2166666666666666],[0.505],1,4986.266
11,False,648,0.508,30,[],[],"[(1148, 906)]",[],[1],[33],[0.55],"[640.0, 512.0]",horizontal,"(390.0, 262.0)",[1.0666666666666667],[0.505],1,4990.764
11,False,649,0.994,59,[],[],"[(1192, 884)]",[],[1],[34],[0.5666666666666667],"[640.0, 512.0]",horizontal,"(390.0, 762.0)",[1.1666666666666667],[0.521],1,4994.953
11,False,650,0.736,44,[],[],"[(1148, 899)]",[],[1],[32],[0.5333333333333333],"[640.0, 512.0]",horizontal,"(390.0, 262.0)",[1.3],[0.489],1,4999.69
11,False,651,1.039,62,[],[],"[(1196, 887)]",[],[1],[34],[0.5666666666666667],"[640.0, 512.0]",vertical,"(890.0, 262.0)",[1.4666666666666666],[0.527],1,5004.415
11,False,652,0.598,35,[],[],"[(1153, 890)]",[],[1],[31],[0.5166666666666666],"[640.0, 512.0]",vertical,"(890.0, 262.0)",[0.6333333333333333],[0.472],1,5009.615
11,False,653,0.872,52,[],[],"[(1196, 888)]",[],[1],[32],[0.5333333333333333],"[640.0, 512.0]",vertical,"(390.0, 262.0)",[1.2333333333333334],[0.49],1,5013.515
11,False,654,0.594,35,[],[],"[(1196, 893)]",[],[1],[32],[0.5333333333333333],"[640.0, 512.0]",vertical,"(890.0, 262.0)",[0.8666666666666667],[0.494],1,5018.336
11,False,655,0.729,43,[],[],"[(1143, 894)]",[],[1],[33],[0.55],"[640.0, 512.0]",horizontal,"(890.0, 262.0)",[1.5833333333333333],[0.505],1,5022.547
11,False,656,0.883,52,[],[],"[(1148, 892)]",[],[1],[33],[0.55],"[640.0, 512.0]",horizontal,"(390.0, 262.0)",[1.1],[0.508],1,5027.552
11,False,657,0.949,56,[],[],"[(1196, 879)]",[],[1],[33],[0.55],"[640.0, 512.0]",vertical,"(390.0, 762.0)",[0.6166666666666667],[0.507],1,5032.27
11,False,658,1.045,62,[],[],"[(1194, 887)]",[],[1],[51],[0.85],"[640.0, 512.0]",horizontal,"(390.0, 762.0)",[1.6],[0.805],0,5036.441
11,False,659,0.699,41,[],[],"[(1053, 872)]",[],[1],[35],[0.5833333333333334],"[640.0, 512.0]",vertical,"(890.0, 762.0)",[1.4666666666666666],[0.542],1,5041.969
11,False,660,0.867,52,[],[],"[(1196, 881)]",[],[1],[51],[0.85],"[640.0, 512.0]",horizontal,"(390.0, 762.0)",[1.5166666666666666],[0.802],0,5051.256
12,False,661,0.685,41,[],[],"[(1116, 873)]",[],[1],[51],[0.85],"[640.0, 512.0]",vertical,"(890.0, 762.0)",[0.5],[0.805],0,5056.605
12,False,662,1.124,67,[],[],"[(1126, 856)]",[],[1],[42],[0.7],"[640.0, 512.0]",vertical,"(890.0, 762.0)",[1.2833333333333332],[0.655],1,5060.47
12,False,663,0.745,44,[],[],"[(1192, 873)]",[],[1],[51],[0.85],"[640.0, 512.0]",vertical,"(890.0, 262.0)",[1.0666666666666667],[0.806],0,5070.967
12,False,664,1.034,62,[],[],"[(1206, 867)]",[],[1],[41],[0.6833333333333333],"[640.0, 512.0]",horizontal,"(390.0, 762.0)",[1.4],[0.639],1,5075.72
12,False,665,1.073,64,[],[],"[(1220, 879)]",[],[1],[51],[0.85],"[640.0, 512.0]",vertical,"(390.0, 762.0)",[0.8833333333333333],[0.802],0,5082.301
12,False,666,0.661,39,[],[],"[(1106, 868)]",[],[1],[51],[0.85],"[640.0, 512.0]",horizontal,"(390.0, 262.0)",[0.6666666666666666],[0.799],0,5087.086
12,False,667,0.87,52,[],[],"[(1166, 861)]",[],[1],[37],[0.6166666666666667],"[640.0, 512.0]",horizontal,"(390.0, 762.0)",[1.3166666666666667],[0.573],1,5091.2
12,False,668,1.113,66,[],[],"[(1208, 887)]",[],[1],[51],[0.85],"[640.0, 512.0]",horizontal,"(890.0, 262.0)",[0.6166666666666667],[0.801],0,5097.331
12,False,669,0.836,50,[],[],"[(1121, 872)]",[],[1],[51],[0.85],"[640.0, 512.0]",horizontal,"(890.0, 762.0)",[0.6333333333333333],[0.802],0,5101.916
