block,trial,trial_type,taps_start_loc_during_fix,taps_end_loc_during_fix,taps_on_lever_during_fix,taps_on_lever_s_during_fix,bar_orientation,target_xy,cti,rt,acc,time,pulses,fa_rate_recent100,actual_invalid_type
0,1,catch,"[(1061, 863)]",[],[1],[],horizontal,"(890.0, 762.0)",1.7,nan,1,0.465,1,0.0,same
0,2,valid,"[(1100, 835)]",[],[1],[0.5833333333333334],horizontal,"(390.0, 262.0)",0.7,0.549,1,9.074,1,0.0,same
0,3,valid,"[(1132, 813)]",[],[1],[0.6],horizontal,"(390.0, 762.0)",0.48333333333333334,0.569,1,255.126,1,0.0,same
0,4,valid,"[(1125, 797)]",[],[1],[0.6333333333333333],vertical,"(390.0, 762.0)",0.45,0.599,1,259.777,2,0.0,same
0,5,valid,"[(1161, 794)]",[],[1],[0.85],horizontal,"(890.0, 262.0)",0.45,nan,0,264.676,0,0.0,same
0,6,invalid_same_bar,"[(1122, 772)]",[],[1],[0.5666666666666667],horizontal,"(390.0, 762.0)",0.9,0.534,1,268.899,1,0.0,same
0,7,invalid_adjacent_other_bar,"[(1137, 773)]",[],[1],[0.48333333333333334],vertical,"(890.0, 762.0)",0.8666666666666667,0.442,1,274.067,1,0.0,other
0,8,valid,"[(1174, 794)]",[],[1],[0.5333333333333333],vertical,"(390.0, 262.0)",0.8,0.494,1,278.679,1,0.0,same
0,9,valid,"[(1155, 774)]",[],[1],[0.5166666666666666],vertical,"(390.0, 762.0)",0.7166666666666667,0.479,1,283.245,2,0.0,same
0,10,valid,"[(1163, 778)]",[],[1],[0.7833333333333333],horizontal,"(890.0, 262.0)",0.95,0.732,1,288.351,2,0.0,same
0,11,catch,"[(1160, 803)]",[],[1],[],horizontal,"(390.0, 262.0)",1.7,nan,1,293.954,2,0.0,same
0,12,valid,"[(1159, 775)]",[],[1],[0.85],vertical,"(890.0, 762.0)",0.6166666666666667,nan,0,299.899,0,0.0,same
0,13,catch,"[(1138, 794)]",[],[1],[],vertical,"(390.0, 762.0)",1.7,nan,1,304.792,1,0.0,same
0,14,valid,"[(1160, 780)]",[],[1],[0.85],vertical,"(390.0, 762.0)",0.36666666666666664,nan,0,310.36,0,0.0,same
0,15,valid,"[(1150, 790)]",[],[1],[0.55],vertical,"(890.0, 762.0)",0.5333333333333333,0.507,1,314.594,1,0.0,same
0,16,valid,"[(1154, 794)]",[],[1],[0.5333333333333333],horizontal,"(890.0, 762.0)",0.6833333333333333,0.485,1,319.531,1,0.0,same
0,17,valid,"[(1155, 808)]",[],[1],[0.6],horizontal,"(390.0, 262.0)",0.6333333333333333,0.558,1,324.171,1,0.0,same
0,18,catch,"[(1159, 803)]",[],[1],[],vertical,"(890.0, 762.0)",1.7,nan,1,328.878,2,0.0,same
0,19,catch,"[(1138, 789)]",[],[1],[],horizontal,"(890.0, 762.0)",1.7,nan,1,334.393,2,0.0,same
0,20,invalid_adjacent_other_bar,"[(1170, 802)]",[],[1],[0.6],horizontal,"(890.0, 762.0)",0.8833333333333333,0.555,1,339.976,2,0.0,other
0,21,catch,"[(1159, 794)]",[],[1],[],vertical,"(890.0, 262.0)",1.7,nan,1,345.26,3,0.0,same
0,22,valid,"[(1156, 811)]",[],[1],[0.6666666666666666],vertical,"(390.0, 262.0)",1.3,0.626,1,351.101,3,0.0,same
0,23,catch,"[(1149, 803)]",[],[1],[],vertical,"(390.0, 262.0)",1.7,nan,1,357.351,3,0.0,same
0,24,catch,"[(1168, 787)]",[],[1],[],vertical,"(390.0, 262.0)",1.7,nan,1,363.521,3,0.0,same
0,25,catch,"[(1137, 764)]",[],[1],[],vertical,"(890.0, 762.0)",1.7,nan,1,369.171,3,0.0,same
0,26,catch,"[(1140, 775)]",[],[1],[],horizontal,"(890.0, 262.0)",1.7,nan,1,374.912,3,0.0,same
0,27,valid,"[(1162, 771)]",[],[1],[0.5833333333333334],horizontal,"(390.0, 262.0)",0.5833333333333334,0.543,1,381.077,3,0.0,same
0,28,valid,"[(1162, 797)]",[],[1],[0.6333333333333333],vertical,"(390.0, 762.0)",0.8166666666666667,0.587,1,386.609,3,0.0,same
0,29,catch,"[(1167, 799)]",[],[1],[],vertical,"(890.0, 262.0)",1.7,nan,1,392.393,3,0.0,same
0,30,valid,"[(1157, 806)]",[],[1],[0.5833333333333334],vertical,"(890.0, 262.0)",1.2166666666666666,0.539,1,398.608,3,0.0,same
0,31,valid,"[(1159, 789)]",[],[1],[0.85],horizontal,"(390.0, 762.0)",0.6,nan,0,404.356,0,0.0,same
0,32,valid,"[(1157, 845)]",[],[1],[0.4666666666666667],vertical,"(890.0, 762.0)",1.0666666666666667,0.43,1,408.56,1,0.0,same
0,33,valid,"[(1152, 784)]",[],[1],[0.6333333333333333],vertical,"(890.0, 262.0)",1.1166666666666667,0.591,1,418.948,1,0.0,same
0,34,valid,"[(1160, 780)]",[],[1],[0.6833333333333333],horizontal,"(390.0, 262.0)",1.1166666666666667,0.635,1,424.367,1,0.0,same
0,35,valid,"[(1163, 769)]",[],[1],[0.5833333333333334],horizontal,"(890.0, 762.0)",1.1833333333333333,0.538,1,429.821,2,0.0,same
0,36,valid,"[(1171, 794)]",[],[1],[0.55],vertical,"(390.0, 762.0)",0.5333333333333333,0.506,1,435.255,2,0.0,same
0,37,valid,"[(1172, 782)]",[],[1],[0.5],horizontal,"(890.0, 262.0)",1.1666666666666667,0.455,1,440.397,2,0.0,same
0,38,catch,"[(1159, 790)]",[],[1],[],vertical,"(390.0, 262.0)",1.7,nan,1,446.171,3,0.0,same
0,39,valid,"[(1160, 774)]",[],[1],[0.6833333333333333],horizontal,"(390.0, 262.0)",0.75,0.641,1,452.494,3,0.0,same
0,40,catch,"[(1131, 782)]",[],[1],[],vertical,"(890.0, 762.0)",1.7,nan,1,458.671,3,0.0,same
0,41,catch,"[(1157, 794)]",[],[1],[],vertical,"(390.0, 762.0)",1.7,nan,1,464.9,3,0.0,same
0,42,catch,"[(1151, 788)]",[],[1],[],vertical,"(390.0, 762.0)",1.7,nan,1,470.84,3,0.0,same
0,43,valid,"[(1163, 778)]",[],[1],[0.55],horizontal,"(890.0, 262.0)",0.43333333333333335,0.509,1,476.864,3,0.0,same
0,44,valid,"[(1155, 775)]",[],[1],[0.6],horizontal,"(890.0, 762.0)",0.5166666666666666,0.556,1,482.065,3,0.0,same
0,45,valid,"[(1158, 794)]",[],[1],[0.65],horizontal,"(390.0, 762.0)",1.3166666666666667,0.605,1,487.665,3,0.0,same
0,46,valid,"[(1170, 803)]",[],[1],[0.5666666666666667],vertical,"(390.0, 262.0)",0.55,0.522,1,493.864,3,0.0,same
0,47,catch,"[(1127, 783)]",[],[1],[],vertical,"(890.0, 262.0)",1.7,nan,1,499.248,3,0.0,same
0,48,valid,"[(1160, 784)]",[],[1],[0.65],vertical,"(390.0, 762.0)",1.2166666666666666,0.608,1,505.478,3,0.0,same
0,49,valid,"[(1160, 779)]",[],[1],[0.85],vertical,"(390.0, 262.0)",1.45,nan,0,512.371,0,0.0,same
0,50,valid,"[(1159, 774)]",[],[1],[0.6],vertical,"(890.0, 262.0)",1.5166666666666666,0.554,1,517.243,1,0.0,same
0,51,valid,"[(1160, 775)]",[],[1],[0.85],horizontal,"(890.0, 762.0)",0.8,nan,0,522.814,0,0.0,same
0,52,invalid_same_bar,"[(1160, 806)]",[],[1],[0.85],vertical,"(890.0, 262.0)",0.48333333333333334,nan,0,527.441,0,0.0,same
0,53,valid,"[(1133, 762)]",[],[1],[0.5833333333333334],horizontal,"(390.0, 262.0)",0.75,0.548,1,531.651,1,0.0,same
0,54,invalid_same_bar,"[(1171, 768)]",[],[1],[0.5666666666666667],horizontal,"(390.0, 762.0)",1.35,0.526,1,536.584,1,0.0,same
0,55,valid,"[(1185, 788)]",[],[1],[0.6],horizontal,"(890.0, 262.0)",1.4,0.551,1,541.91,1,0.0,same
0,56,invalid_adjacent_other_bar,"[(1160, 770)]",[],[1],[0.5666666666666667],horizontal,"(890.0, 762.0)",0.5166666666666666,0.525,1,547.444,2,0.0,other
0,57,valid,"[(1160, 783)]",[],[1],[0.6333333333333333],horizontal,"(390.0, 762.0)",0.35,0.59,1,552.362,2,0.0,same
0,58,valid,"[(1159, 786)]",[],[1],[0.5333333333333333],vertical,"(390.0, 262.0)",0.36666666666666664,0.493,1,557.46,2,0.0,same
0,59,valid,"[(1155, 773)]",[],[1],[0.7833333333333333],vertical,"(890.0, 262.0)",1.2666666666666666,0.737,1,562.628,3,0.0,same
0,60,invalid_adjacent_other_bar,"[(1159, 762)]",[],[1],[0.8],vertical,"(890.0, 262.0)",1.2666666666666666,0.751,1,569.335,3,0.0,other
0,61,valid,"[(1177, 774)]",[],[1],[0.85],vertical,"(890.0, 762.0)",1.4833333333333334,nan,0,575.326,0,0.0,same
0,62,catch,"[(1121, 774)]",[],[1],[],vertical,"(390.0, 262.0)",1.7,nan,1,580.793,1,0.0,same
0,63,valid,"[(1165, 763)]",[],[1],[0.5666666666666667],vertical,"(390.0, 262.0)",1.5,0.53,1,586.558,1,0.0,same
0,64,valid,"[(1160, 770)]",[],[1],[0.5666666666666667],horizontal,"(890.0, 262.0)",0.8833333333333333,0.525,1,592.098,1,0.0,same
0,65,valid,"[(1155, 795)]",[],[1],[0.8333333333333334],horizontal,"(390.0, 762.0)",0.9166666666666666,0.786,1,596.952,2,0.0,same
0,66,catch,"[(1156, 773)]",[],[1],[],vertical,"(890.0, 262.0)",1.7,nan,1,602.521,2,0.0,same
0,67,invalid_adjacent_other_bar,"[(1159, 762)]",[],[1],[0.36666666666666664],horizontal,"(390.0, 762.0)",1.4,0.327,1,608.09,2,0.0,other
0,68,valid,"[(1157, 782)]",[],[1],[0.85],horizontal,"(890.0, 262.0)",0.9,nan,0,613.926,0,0.0,same
0,69,valid,"[(1156, 773)]",[],[1],[0.6333333333333333],horizontal,"(890.0, 262.0)",0.5,0.588,1,618.673,1,0.0,same
0,70,catch,"[(1156, 773)]",[],[1],[],vertical,"(390.0, 762.0)",1.7,nan,1,623.355,1,0.0,same
0,71,catch,"[(1155, 771)]",[],[1],[],horizontal,"(890.0, 262.0)",1.7,nan,1,628.532,1,0.0,same
0,72,catch,"[(1155, 775)]",[],[1],[],vertical,"(390.0, 762.0)",1.7,nan,1,634.043,2,0.0,same
0,73,valid,"[(1159, 776)]",[],[1],[0.8166666666666667],horizontal,"(390.0, 262.0)",0.5333333333333333,0.77,1,639.584,2,0.0,same
0,74,invalid_adjacent_other_bar,"[(1160, 786)]",[],[1],[0.6666666666666666],vertical,"(890.0, 762.0)",0.43333333333333335,0.628,1,644.818,2,0.0,other
0,75,valid,"[(1164, 789)]",[],[1],[0.55],vertical,"(890.0, 262.0)",1.1166666666666667,0.516,1,649.677,3,0.0,same
0,76,valid,"[(1155, 779)]",[],[1],[0.6166666666666667],horizontal,"(890.0, 262.0)",0.8666666666666667,0.579,1,655.418,3,0.0,same
0,77,catch,"[(1160, 774)]",[],[1],[],vertical,"(390.0, 262.0)",1.7,nan,1,661.411,3,0.0,same
0,78,valid,"[(1129, 781)]",[],[1],[0.48333333333333334],vertical,"(890.0, 262.0)",0.6,0.448,1,667.533,3,0.0,same
0,79,valid,"[(1157, 786)]",[],[1],[0.7],horizontal,"(890.0, 262.0)",0.6333333333333333,0.653,1,672.996,3,0.0,same
0,80,valid,"[(1159, 779)]",[],[1],[0.6],horizontal,"(390.0, 262.0)",0.48333333333333334,0.559,1,678.727,3,0.0,same
0,81,valid,"[(1159, 796)]",[],[1],[0.5666666666666667],horizontal,"(390.0, 762.0)",0.4166666666666667,0.534,1,683.844,3,0.0,same
0,82,valid,"[(1156, 791)]",[],[1],[0.5666666666666667],vertical,"(890.0, 262.0)",0.8666666666666667,0.524,1,689.562,3,0.0,same
0,83,valid,"[(1160, 772)]",[],[1],[0.6333333333333333],horizontal,"(390.0, 762.0)",1.05,0.59,1,695.294,3,0.0,same
0,84,catch,"[(1126, 788)]",[],[1],[],horizontal,"(390.0, 762.0)",1.7,nan,1,701.83,3,0.0,same
0,85,valid,"[(1122, 792)]",[],[1],[0.6166666666666667],vertical,"(390.0, 762.0)",1.2333333333333334,0.573,1,708.183,3,0.0,same
0,86,valid,"[(1121, 808)]",[],[1],[0.85],vertical,"(890.0, 762.0)",0.85,nan,0,714.645,0,0.0,same
0,87,catch,"[(1121, 779)]",[],[1],[],vertical,"(890.0, 262.0)",1.7,nan,1,719.224,1,0.0,same
0,88,invalid_adjacent_other_bar,"[(1136, 776)]",[],[1],[0.85],vertical,"(390.0, 262.0)",1.4666666666666666,nan,0,724.39,0,0.0,other
0,89,catch,"[(1155, 783)]",[],[1],[],vertical,"(890.0, 762.0)",1.7,nan,1,729.511,1,0.0,same
0,90,valid,"[(1160, 790)]",[],[1],[0.7333333333333333],vertical,"(390.0, 762.0)",0.4666666666666667,0.696,1,734.474,1,0.0,same
0,91,valid,"[(1132, 781)]",[],[1],[0.6833333333333333],vertical,"(890.0, 762.0)",0.7166666666666667,0.636,1,739.344,1,0.0,same
0,92,catch,"[(1124, 800)]",[],[1],[],horizontal,"(890.0, 762.0)",,"('cti', 1.129),nan",0,744.327,0,0.02,same
0,93,catch,"[(1165, 789)]",[],[1],[],vertical,"(890.0, 262.0)",1.7,nan,1,749.31,1,0.02,same
0,94,invalid_same_bar,"[(1169, 776)]",[],[1],[0.5833333333333334],horizontal,"(390.0, 262.0)",0.6833333333333333,0.544,1,754.644,1,0.02,same
0,95,valid,"[(1121, 788)]",[],[1],[0.65],vertical,"(890.0, 262.0)",1.5,0.604,1,759.158,1,0.02,same
0,96,catch,"[(1123, 769)]",[],[1],[],vertical,"(890.0, 262.0)",1.7,nan,1,765.338,2,0.02,same
0,97,valid,"[(1128, 767)]",[],[1],[0.6333333333333333],vertical,"(390.0, 262.0)",0.4666666666666667,0.591,1,770.786,2,0.02,same
0,98,valid,"[(1159, 810)]",[],[1],[],horizontal,"(390.0, 762.0)",,"('cti', 0.458)",0,775.328,0,0.02,same
0,99,valid,"[(1131, 783)]",[],[1],[0.5333333333333333],vertical,"(890.0, 762.0)",0.8333333333333334,0.488,1,779.327,1,0.02,same
0,100,valid,"[(1131, 802)]",[],[1],[0.5333333333333333],horizontal,"(890.0, 262.0)",0.95,0.493,1,784.033,1,0.02,same
0,101,catch,"[(1167, 790)]",[],[1],[],horizontal,"(390.0, 762.0)",1.7,nan,1,789.361,1,0.02,same
0,102,catch,"[(1172, 803)]",[],[1],[],horizontal,"(890.0, 262.0)",1.7,nan,1,794.528,2,0.02,same
0,103,valid,"[(1131, 789)]",[],[1],[0.6333333333333333],horizontal,"(890.0, 762.0)",0.9833333333333333,0.592,1,800.455,2,0.02,same
0,104,valid,"[(1164, 786)]",[],[1],[0.5666666666666667],vertical,"(390.0, 762.0)",1.4333333333333333,0.531,1,805.981,2,0.02,same
0,105,valid,"[(1158, 783)]",[],[1],[0.7],vertical,"(890.0, 762.0)",1.4833333333333334,0.654,1,811.719,3,0.02,same
0,106,valid,"[(1164, 779)]",[],[1],[0.75],horizontal,"(390.0, 762.0)",1.4666666666666666,0.711,1,818.744,3,0.02,same
0,107,catch,"[(1131, 789)]",[],[1],[],horizontal,"(890.0, 762.0)",1.7,nan,1,825.161,3,0.02,same
0,108,valid,"[(1175, 812)]",[],[1],[0.6333333333333333],horizontal,"(890.0, 762.0)",0.5833333333333334,0.593,1,831.268,3,0.02,same
0,109,valid,"[(1161, 775)]",[],[1],[0.7333333333333333],vertical,"(390.0, 262.0)",0.3833333333333333,0.699,1,837.089,3,0.02,same
0,110,catch,"[(1165, 776)]",[],[1],[],vertical,"(890.0, 762.0)",1.7,nan,1,842.677,3,0.02,same
0,111,valid,"[(1160, 759)]",[],[1],[0.48333333333333334],vertical,"(390.0, 762.0)",0.4,0.441,1,848.96,3,0.02,same
0,112,catch,"[(1163, 787)]",[],[1],[],horizontal,"(390.0, 762.0)",1.7,nan,1,854.362,3,0.02,same
0,113,catch,"[(1163, 789)]",[],[1],[],vertical,"(890.0, 262.0)",1.7,nan,1,860.327,3,0.02,same
0,114,catch,"[(1165, 777)]",[],[1],[],vertical,"(890.0, 262.0)",1.7,nan,1,866.556,3,0.02,same
0,115,valid,"[(1165, 776)]",[],[1],[0.85],horizontal,"(890.0, 762.0)",1.3,nan,0,872.986,0,0.02,same
0,116,invalid_adjacent_other_bar,"[(1142, 770)]",[],[1],[0.85],vertical,"(390.0, 262.0)",0.75,nan,0,878.444,0,0.02,other
0,117,valid,"[(1139, 769)]",[],[1],[0.5],horizontal,"(390.0, 762.0)",0.7,0.461,1,883.093,1,0.02,same
0,118,valid,"[(1160, 766)]",[],[1],[0.4666666666666667],horizontal,"(390.0, 762.0)",0.65,0.426,1,887.529,1,0.02,same
0,119,valid,"[(1165, 785)]",[],[1],[0.6833333333333333],horizontal,"(390.0, 762.0)",0.9833333333333333,0.642,1,891.877,1,0.02,same
0,120,invalid_adjacent_other_bar,"[(1159, 794)]",[],[1],[0.85],horizontal,"(890.0, 762.0)",0.6,nan,0,897.444,0,0.02,other
0,121,invalid_adjacent_other_bar,"[(1138, 774)]",[],[1],[0.4666666666666667],vertical,"(890.0, 762.0)",1.0666666666666667,0.432,1,901.944,1,0.02,other
0,122,valid,"[(1160, 789)]",[],[1],[0.5],vertical,"(890.0, 762.0)",1.4666666666666666,0.46,1,907.315,1,0.02,same
0,123,valid,"[(1163, 778)]",[],[1],[0.5166666666666666],horizontal,"(390.0, 762.0)",0.65,0.478,1,912.793,1,0.02,same
0,124,valid,"[(1131, 803)]",[],[1],[0.5166666666666666],vertical,"(890.0, 762.0)",0.8666666666666667,0.473,1,917.678,2,0.02,same
0,125,catch,"[(1157, 782)]",[],[1],[0.03333333333333333],horizontal,"(890.0, 762.0)",1.7,"0.019,nan",0,922.959,0,0.04,same
0,126,valid,"[(1141, 795)]",[],[1],[0.6],horizontal,"(890.0, 762.0)",0.5666666666666667,0.559,1,928.028,1,0.04,same
0,127,valid,"[(1166, 774)]",[],[1],[0.5],horizontal,"(890.0, 762.0)",1.3,0.463,1,932.68,1,0.04,same
0,128,valid,"[(1165, 790)]",[],[1],[0.5666666666666667],horizontal,"(390.0, 262.0)",0.5833333333333334,0.526,1,938.248,1,0.04,same
0,129,invalid_adjacent_other_bar,"[(1165, 779)]",[],[1],[0.5166666666666666],horizontal,"(390.0, 762.0)",1.4166666666666667,0.486,1,942.975,2,0.04,other
0,130,valid,"[(1163, 777)]",[],[1],[0.5166666666666666],horizontal,"(390.0, 762.0)",0.65,0.476,1,948.608,2,0.04,same
0,131,valid,"[(1165, 783)]",[],[1],[0.5333333333333333],horizontal,"(390.0, 262.0)",1.2333333333333334,0.498,1,953.706,2,0.04,same
0,132,valid,"[(1160, 778)]",[],[1],[0.85],vertical,"(390.0, 762.0)",0.6,nan,0,959.191,0,0.04,same
0,133,valid,"[(1129, 774)]",[],[1],[0.6333333333333333],vertical,"(890.0, 262.0)",0.9333333333333333,0.591,1,963.876,1,0.04,same
0,134,valid,"[(1131, 759)]",[],[1],[0.5],horizontal,"(390.0, 262.0)",0.65,0.458,1,969.493,1,0.04,same
0,135,catch,"[(1167, 769)]",[],[1],[],vertical,"(890.0, 262.0)",1.7,nan,1,974.361,1,0.04,same
0,136,valid,"[(1164, 788)]",[],[1],[0.85],horizontal,"(390.0, 262.0)",1.5,nan,0,980.061,0,0.04,same
0,137,valid,"[(1125, 773)]",[],[1],[0.55],horizontal,"(890.0, 262.0)",1.1666666666666667,0.512,1,985.81,1,0.04,same
0,138,valid,"[(1165, 782)]",[],[1],[0.4666666666666667],horizontal,"(390.0, 762.0)",1.2666666666666666,0.426,1,991.35,1,0.04,same
0,139,valid,"[(1160, 779)]",[],[1],[0.55],vertical,"(390.0, 762.0)",1.45,0.514,1,996.428,1,0.04,same
0,140,valid,"[(1174, 781)]",[],[1],[0.5166666666666666],vertical,"(390.0, 762.0)",1.25,0.48,1,1002.138,2,0.04,same
0,141,valid,"[(1165, 799)]",[],[1],[0.85],horizontal,"(390.0, 262.0)",0.8833333333333333,nan,0,1007.909,0,0.04,same
0,142,valid,"[(1135, 777)]",[],[1],[0.85],horizontal,"(390.0, 262.0)",0.7666666666666666,nan,0,1012.996,0,0.02,same
0,143,valid,"[(1131, 776)]",[],[1],[0.6833333333333333],vertical,"(890.0, 762.0)",1.5,0.645,1,1017.596,1,0.02,same
0,144,valid,"[(1164, 764)]",[],[1],[0.7],horizontal,"(890.0, 762.0)",1.0833333333333333,0.66,1,1023.395,1,0.02,same
0,145,valid,"[(1185, 764)]",[],[1],[0.5166666666666666],vertical,"(890.0, 262.0)",0.4666666666666667,0.473,1,1028.784,1,0.02,same
0,146,valid,"[(1149, 774)]",[],[1],[0.85],horizontal,"(890.0, 762.0)",0.8166666666666667,nan,0,1033.346,0,0.02,same
0,147,valid,"[(1131, 752), (1136, 777)]",[],"[0, 1]",[0.5166666666666666],vertical,"(890.0, 262.0)",1.4833333333333334,0.471,1,1038.285,1,0.02,same
0,148,catch,"[(1185, 770)]",[],[1],[],horizontal,"(390.0, 762.0)",1.7,nan,1,1045.843,1,0.02,same
0,149,valid,"[(1132, 763)]",[],[1],[0.4666666666666667],vertical,"(890.0, 762.0)",1.4166666666666667,0.435,1,1050.911,1,0.02,same
0,150,valid,"[(1163, 768)]",[],[1],[0.6833333333333333],vertical,"(390.0, 762.0)",0.85,0.639,1,1056.743,2,0.02,same
0,151,catch,"[(1170, 769)]",[],[1],[],vertical,"(890.0, 762.0)",1.7,nan,1,1062.195,2,0.02,same
0,152,valid,"[(1166, 774)]",[],[1],[0.5333333333333333],vertical,"(390.0, 762.0)",0.7,0.504,1,1067.763,2,0.02,same
0,153,catch,"[(1131, 789)]",[],[1],[],vertical,"(890.0, 262.0)",1.7,nan,1,1073.265,3,0.02,same
0,154,catch,"[(1165, 773)]",[],[1],[],vertical,"(890.0, 262.0)",1.7,nan,1,1079.211,3,0.02,same
0,155,catch,"[(1183, 766)]",[],[1],[],vertical,"(890.0, 262.0)",1.7,nan,1,1085.393,3,0.02,same
0,156,valid,"[(1165, 789)]",[],[1],[0.55],horizontal,"(890.0, 762.0)",0.4,0.51,1,1091.378,3,0.02,same
0,157,valid,"[(1160, 783)]",[],[1],[0.6333333333333333],horizontal,"(390.0, 262.0)",0.9833333333333333,0.589,1,1096.777,3,0.02,same
0,158,valid,"[(1153, 783)]",[],[1],[0.5666666666666667],horizontal,"(390.0, 762.0)",1.0,0.528,1,1102.963,3,0.02,same
0,159,valid,"[(1131, 773)]",[],[1],[0.75],vertical,"(390.0, 262.0)",1.1333333333333333,0.709,1,1108.688,3,0.02,same
0,160,valid,"[(1172, 770)]",[],[1],[0.5166666666666666],vertical,"(890.0, 762.0)",0.6,0.479,1,1115.246,3,0.02,same
0,161,valid,"[(1167, 769)]",[],[1],[0.6666666666666666],vertical,"(890.0, 762.0)",1.0166666666666666,0.627,1,1120.458,3,0.02,same
0,162,catch,"[(1155, 765)]",[],[1],[],horizontal,"(890.0, 762.0)",,"('cti', 1.249),nan",0,1126.905,0,0.04,same
0,163,valid,"[(1160, 769)]",[],[1],[0.85],horizontal,"(890.0, 262.0)",0.8166666666666667,nan,0,1131.441,0,0.04,same
0,164,catch,"[(1132, 777)]",[],[1],[],vertical,"(390.0, 762.0)",1.7,nan,1,1136.033,1,0.04,same
0,165,catch,"[(1135, 755)]",[],[1],[],horizontal,"(890.0, 262.0)",1.7,nan,1,1141.413,1,0.04,same
0,166,catch,"[(1158, 774)]",[],[1],[],vertical,"(390.0, 762.0)",1.7,nan,1,1146.742,1,0.04,same
0,167,catch,"[(1134, 769)]",[],[1],[],vertical,"(890.0, 762.0)",1.7,nan,1,1151.844,2,0.04,same
0,168,valid,"[(1158, 756)]",[],[1],[0.48333333333333334],vertical,"(890.0, 262.0)",1.15,0.451,1,1158.012,2,0.04,same
0,169,valid,"[(1156, 774)]",[],[1],[0.6],horizontal,"(890.0, 762.0)",0.35,0.566,1,1163.496,2,0.04,same
0,170,valid,"[(1157, 762)]",[],[1],[0.5833333333333334],vertical,"(890.0, 762.0)",0.55,0.543,1,1168.668,3,0.04,same
0,171,valid,"[(1159, 766)]",[],[1],[0.7833333333333333],horizontal,"(890.0, 262.0)",1.1166666666666667,0.737,1,1174.729,3,0.04,same
0,172,valid,"[(1159, 772)]",[],[1],[0.5],horizontal,"(390.0, 262.0)",0.55,0.46,1,1181.012,3,0.04,same
0,173,valid,"[(1131, 779)]",[],[1],[0.4666666666666667],vertical,"(890.0, 262.0)",1.3,0.433,1,1186.141,3,0.04,same
0,174,catch,"[(1136, 777)]",[],[1],[],vertical,"(890.0, 262.0)",1.7,nan,1,1192.363,3,0.04,same
0,175,valid,"[(1158, 782)]",[],[1],[0.48333333333333334],horizontal,"(390.0, 762.0)",0.5333333333333333,0.446,1,1198.19,3,0.02,same
0,176,valid,"[(1155, 783)]",[],[1],[0.85],horizontal,"(890.0, 762.0)",0.8,nan,0,1203.929,0,0.02,same
0,177,valid,"[(1127, 784)]",[],[1],[0.6166666666666667],horizontal,"(390.0, 762.0)",0.7166666666666667,0.577,1,1209.079,1,0.02,same
0,178,valid,"[(1116, 786)]",[],[1],[0.55],horizontal,"(390.0, 262.0)",1.4,0.507,1,1214.095,1,0.02,same
0,179,catch,"[(1158, 774)]",[],[1],[],horizontal,"(390.0, 762.0)",1.7,nan,1,1222.805,1,0.02,same
0,180,valid,"[(1166, 766)]",[],[1],[0.5333333333333333],horizontal,"(890.0, 762.0)",0.5833333333333334,0.493,1,1228.245,2,0.02,same
0,181,valid,"[(1132, 775)]",[],[1],[0.5],horizontal,"(390.0, 262.0)",1.05,0.462,1,1233.526,2,0.02,same
0,182,catch,"[(1132, 770)]",[],[1],[],vertical,"(890.0, 762.0)",1.7,nan,1,1238.696,2,0.02,same
0,183,valid,"[(1131, 787)]",[],[1],[0.5666666666666667],horizontal,"(390.0, 762.0)",1.2666666666666666,0.543,1,1244.16,3,0.02,same
0,184,valid,"[(1129, 785)]",[],[1],[0.5333333333333333],vertical,"(390.0, 262.0)",0.48333333333333334,0.493,1,1250.229,3,0.02,same
0,185,valid,"[(1170, 796)]",[],[1],[0.6666666666666666],horizontal,"(390.0, 762.0)",0.95,0.623,1,1255.795,3,0.02,same
0,186,catch,"[(1157, 777)]",[],[1],[],vertical,"(390.0, 762.0)",1.7,nan,1,1262.098,3,0.02,same
0,187,valid,"[(1143, 768)]",[],[1],[0.5],horizontal,"(390.0, 262.0)",1.0333333333333332,0.457,1,1268.569,3,0.02,same
0,188,valid,"[(1132, 780)]",[],[1],[0.75],vertical,"(890.0, 262.0)",0.4,0.709,1,1274.629,3,0.02,same
0,189,valid,"[(1132, 765)]",[],[1],[0.55],vertical,"(890.0, 262.0)",1.1333333333333333,0.513,1,1280.597,3,0.02,same
0,190,catch,"[(1160, 784)]",[],[1],[],vertical,"(890.0, 262.0)",1.7,nan,1,1286.785,3,0.02,same
0,191,valid,"[(1131, 768)]",[],[1],[0.5166666666666666],vertical,"(890.0, 762.0)",1.05,0.478,1,1292.678,3,0.02,same
0,192,valid,"[(1137, 773)]",[],[1],[0.5166666666666666],horizontal,"(890.0, 762.0)",0.8666666666666667,0.474,1,1298.663,3,0.02,same
0,193,valid,"[(1153, 761)]",[],[1],[0.45],vertical,"(890.0, 262.0)",0.8,0.42,1,1304.602,3,0.02,same
0,194,catch,"[(1165, 769)]",[],[1],[],horizontal,"(890.0, 762.0)",1.7,nan,1,1310.035,3,0.02,same
0,195,catch,"[(1162, 777)]",[],[1],[],vertical,"(390.0, 262.0)",1.7,nan,1,1316.154,3,0.02,same
0,196,catch,"[(1178, 773)]",[],[1],[],vertical,"(390.0, 262.0)",1.7,nan,1,1322.462,3,0.02,same
0,197,valid,"[(1161, 759)]",[],[1],[0.5166666666666666],vertical,"(890.0, 262.0)",0.5166666666666666,0.479,1,1328.966,3,0.02,same
0,198,valid,"[(1129, 778)]",[],[1],[0.4666666666666667],vertical,"(890.0, 762.0)",1.3166666666666667,0.424,1,1334.547,3,0.02,same
0,199,valid,"[(1126, 776)]",[],[1],[0.6833333333333333],horizontal,"(390.0, 262.0)",0.6666666666666666,0.643,1,1340.58,3,0.02,same
0,200,catch,"[(1131, 774)]",[],[1],[],vertical,"(890.0, 262.0)",1.7,nan,1,1346.325,3,0.02,same
0,201,valid,"[(1167, 789)]",[],[1],[0.5166666666666666],vertical,"(390.0, 762.0)",1.25,0.472,1,1352.831,3,0.02,same
0,202,valid,"[(1164, 780)]",[],[1],[0.5166666666666666],horizontal,"(890.0, 762.0)",0.9333333333333333,0.475,1,1358.715,3,0.02,same
0,203,catch,"[(1164, 757)]",[],[1],[],vertical,"(890.0, 262.0)",1.7,nan,1,1364.229,3,0.02,same
0,204,valid,"[(1163, 773)]",[],[1],[0.5333333333333333],horizontal,"(390.0, 762.0)",0.43333333333333335,0.492,1,1370.664,3,0.02,same
0,205,valid,"[(1131, 788)]",[],[1],[0.5666666666666667],vertical,"(890.0, 762.0)",1.3666666666666667,0.523,1,1376.13,3,0.02,same
0,206,valid,"[(1148, 778)]",[],[1],[0.55],vertical,"(890.0, 762.0)",1.2166666666666666,0.51,1,1382.663,3,0.02,same
0,207,valid,"[(1160, 770)]",[],[1],[0.6],vertical,"(390.0, 762.0)",1.4833333333333334,0.556,1,1389.244,3,0.02,same
0,208,valid,"[(1131, 761)]",[],[1],[0.5166666666666666],vertical,"(390.0, 762.0)",1.3166666666666667,0.479,1,1395.8,3,0.02,same
0,209,catch,"[(1131, 787)]",[],[1],[],horizontal,"(890.0, 262.0)",1.7,nan,1,1401.98,3,0.02,same
0,210,valid,"[(1160, 777)]",[],[1],[0.5166666666666666],vertical,"(890.0, 262.0)",1.0833333333333333,0.475,1,1408.28,3,0.02,same
0,211,catch,"[(1159, 778)]",[],[1],[],horizontal,"(390.0, 262.0)",1.7,nan,1,1413.912,3,0.02,same
0,212,invalid_adjacent_other_bar,"[(1131, 757)]",[],[1],[0.55],vertical,"(390.0, 762.0)",0.8333333333333334,0.505,1,1420.359,3,0.0,other
0,213,valid,"[(1166, 760)]",[],[1],[0.6666666666666666],vertical,"(390.0, 262.0)",1.1666666666666667,0.625,1,1425.863,3,0.0,same
0,214,catch,"[(1121, 823)]",[],[1],[],vertical,"(390.0, 262.0)",1.7,nan,1,1432.364,3,0.0,same
0,215,valid,"[(1165, 778)]",[],[1],[0.85],vertical,"(890.0, 762.0)",0.7,nan,0,1443.876,0,0.0,same
0,216,valid,"[(1164, 766)]",[],[1],[0.55],vertical,"(390.0, 262.0)",0.45,0.517,1,1448.598,1,0.0,same
0,217,catch,"[(1162, 780)]",[],[1],[],horizontal,"(890.0, 762.0)",1.7,nan,1,1453.025,1,0.0,same
0,218,valid,"[(1160, 761)]",[],[1],[0.55],horizontal,"(390.0, 262.0)",0.43333333333333335,0.505,1,1458.072,1,0.0,same
0,219,invalid_adjacent_other_bar,"[(1129, 773)]",[],[1],[0.85],vertical,"(890.0, 762.0)",1.3333333333333333,nan,0,1462.663,0,0.0,other
0,220,valid,"[(1146, 754)]",[],[1],[0.6],horizontal,"(390.0, 262.0)",0.75,0.558,1,1468.13,1,0.0,same
0,221,valid,"[(1164, 786)]",[],[1],[0.85],horizontal,"(390.0, 262.0)",1.1666666666666667,nan,0,1473.063,0,0.0,same
0,222,valid,"[(1165, 789)]",[],[1],[0.85],vertical,"(890.0, 262.0)",0.6333333333333333,nan,0,1478.08,0,0.0,same
0,223,valid,"[(1124, 764)]",[],[1],[0.6666666666666666],horizontal,"(390.0, 762.0)",0.6,0.626,1,1482.929,1,0.0,same
0,224,catch,"[(1140, 789)]",[],[1],[],vertical,"(390.0, 762.0)",1.7,nan,1,1488.12,1,0.0,same
0,225,catch,"[(1155, 783)]",[],[1],[],vertical,"(890.0, 262.0)",1.7,nan,1,1493.28,1,0.0,same
0,226,valid,"[(1156, 755)]",[],[1],[0.5],vertical,"(890.0, 262.0)",0.36666666666666664,0.462,1,1498.497,2,0.0,same
0,227,valid,"[(1160, 779)]",[],[1],[0.5666666666666667],horizontal,"(390.0, 762.0)",1.2666666666666666,0.523,1,1503.196,2,0.0,same
0,228,valid,"[(1165, 804)]",[],[1],[0.85],vertical,"(390.0, 262.0)",1.15,nan,0,1509.254,0,0.0,same
0,229,valid,"[(1162, 799)]",[],[1],[0.6166666666666667],horizontal,"(890.0, 262.0)",0.4,0.576,1,1514.563,1,0.0,same
0,230,valid,"[(1160, 764)]",[],[1],[0.7666666666666666],vertical,"(390.0, 762.0)",0.8333333333333334,0.722,1,1519.249,1,0.0,same
0,231,invalid_adjacent_other_bar,"[(1165, 773)]",[],[1],[0.5166666666666666],vertical,"(890.0, 262.0)",1.2333333333333334,0.471,1,1524.111,1,0.0,other
0,232,valid,"[(1142, 783)]",[],[1],[0.7833333333333333],vertical,"(890.0, 262.0)",0.9333333333333333,0.734,1,1529.23,2,0.0,same
0,233,valid,"[(1126, 792)]",[],[1],[0.5666666666666667],vertical,"(390.0, 762.0)",0.45,0.526,1,1534.759,2,0.0,same
0,234,valid,"[(1155, 785)]",[],[1],[0.5],horizontal,"(390.0, 762.0)",1.0833333333333333,0.462,1,1539.603,2,0.0,same
0,235,valid,"[(1128, 794)]",[],[1],[0.55],horizontal,"(890.0, 262.0)",0.95,0.514,1,1545.122,3,0.0,same
0,236,catch,"[(1165, 782)]",[],[1],[],horizontal,"(390.0, 262.0)",1.7,nan,1,1551.346,3,0.0,same
0,237,catch,"[(1166, 785)]",[],[1],[],horizontal,"(390.0, 762.0)",1.7,nan,1,1557.628,3,0.0,same
0,238,valid,"[(1170, 778)]",[],[1],[0.5333333333333333],horizontal,"(390.0, 762.0)",1.4666666666666666,0.494,1,1564.129,3,0.0,same
0,239,valid,"[(1126, 774)]",[],[1],[0.6166666666666667],horizontal,"(390.0, 762.0)",0.43333333333333335,0.57,1,1570.496,3,0.0,same
0,240,valid,"[(1165, 756)]",[],[1],[0.85],horizontal,"(890.0, 762.0)",1.2166666666666666,nan,0,1575.734,0,0.0,same
0,241,valid,"[(1131, 767)]",[],[1],[0.6],horizontal,"(390.0, 262.0)",1.4166666666666667,0.557,1,1580.924,1,0.0,same
0,242,catch,"[(1133, 780)]",[],[1],[],horizontal,"(390.0, 262.0)",1.7,nan,1,1586.727,1,0.0,same
0,243,valid,"[(1162, 767)]",[],[1],[0.85],horizontal,"(390.0, 762.0)",0.4166666666666667,nan,0,1592.254,0,0.0,same
0,244,valid,"[(1161, 765)]",[],[1],[0.85],vertical,"(390.0, 262.0)",0.9166666666666666,nan,0,1596.413,0,0.0,same
0,245,valid,"[(1138, 761)]",[],[1],[0.5833333333333334],vertical,"(890.0, 762.0)",0.48333333333333334,0.537,1,1601.296,1,0.0,same
0,246,invalid_same_bar,"[(1126, 794)]",[],[1],[0.55],horizontal,"(390.0, 262.0)",1.0666666666666667,0.505,1,1605.414,1,0.0,same
0,247,valid,"[(1137, 773)]",[],[1],[0.6833333333333333],vertical,"(390.0, 762.0)",1.4166666666666667,0.631,1,1610.781,1,0.0,same
0,248,valid,"[(1146, 764)]",[],[1],[0.75],vertical,"(890.0, 762.0)",1.2833333333333332,0.704,1,1616.449,2,0.0,same
0,249,valid,"[(1146, 764)]",[],[1],[0.85],vertical,"(390.0, 762.0)",1.4333333333333333,nan,0,1621.935,0,0.0,same
0,250,valid,"[(1081, 788)]",[],[1],[0.5666666666666667],vertical,"(390.0, 762.0)",0.43333333333333335,0.524,1,1626.926,1,0.0,same
0,251,valid,"[(1165, 779)]",[],[1],[0.5666666666666667],vertical,"(890.0, 262.0)",0.4666666666666667,0.525,1,1636.811,1,0.0,same
0,252,catch,"[(1128, 782)]",[],[1],[],vertical,"(390.0, 262.0)",1.7,nan,1,1641.195,1,0.0,same
0,253,valid,"[(1128, 789)]",[],[1],[0.5333333333333333],vertical,"(390.0, 762.0)",1.0,0.49,1,1646.638,2,0.0,same
0,254,valid,"[(1161, 788)]",[],[1],[0.7333333333333333],vertical,"(890.0, 262.0)",0.5166666666666666,0.691,1,1651.68,2,0.0,same
0,255,catch,"[(1156, 787)]",[],[1],[],horizontal,"(890.0, 762.0)",1.7,nan,1,1656.998,2,0.0,same
0,256,valid,"[(1136, 761)]",[],[1],[0.5166666666666666],horizontal,"(390.0, 762.0)",1.1166666666666667,0.47,1,1662.414,3,0.0,same
0,257,valid,"[(1128, 772)]",[],[1],[0.5333333333333333],horizontal,"(890.0, 262.0)",0.65,0.499,1,1668.747,3,0.0,same
0,258,valid,"[(1126, 774)]",[],[1],[0.6666666666666666],horizontal,"(890.0, 762.0)",0.9166666666666666,0.621,1,1674.229,3,0.0,same
0,259,valid,"[(1165, 791)]",[],[1],[0.5666666666666667],vertical,"(390.0, 262.0)",0.5,0.52,1,1680.34,3,0.0,same
0,260,valid,"[(1131, 765)]",[],[1],[0.5],vertical,"(890.0, 262.0)",0.5666666666666667,0.459,1,1685.597,3,0.0,same
0,261,valid,"[(1161, 760)]",[],[1],[0.5833333333333334],vertical,"(890.0, 762.0)",0.36666666666666664,0.541,1,1691.043,3,0.0,same
0,262,catch,"[(1155, 766)]",[],[1],[],horizontal,"(390.0, 762.0)",1.7,nan,1,1696.593,3,0.0,same
0,263,valid,"[(1160, 778)]",[],[1],[0.6333333333333333],horizontal,"(890.0, 762.0)",0.75,0.59,1,1702.778,3,0.0,same
0,264,valid,"[(1166, 764)]",[],[1],[0.5],vertical,"(890.0, 262.0)",0.6833333333333333,0.461,1,1708.764,3,0.0,same
0,265,valid,"[(1156, 778)]",[],[1],[0.6166666666666667],horizontal,"(390.0, 262.0)",0.8833333333333333,0.575,1,1714.291,3,0.0,same
0,266,valid,"[(1128, 776)]",[],[1],[0.5333333333333333],horizontal,"(390.0, 762.0)",0.5166666666666666,0.491,1,1720.582,3,0.0,same
0,267,catch,"[(1131, 769)]",[],[1],[],horizontal,"(890.0, 262.0)",1.7,nan,1,1726.347,3,0.0,same
0,268,valid,"[(1158, 761)]",[],[1],[0.85],horizontal,"(890.0, 762.0)",0.36666666666666664,nan,0,1732.964,0,0.0,same
0,269,valid,"[(1071, 818)]",[],[1],[0.5833333333333334],vertical,"(390.0, 762.0)",1.4,0.543,1,1737.399,1,0.0,same
0,270,invalid_same_bar,"[(1130, 766)]",[],[1],[0.85],vertical,"(390.0, 262.0)",0.9833333333333333,nan,0,1743.868,0,0.0,same
0,271,catch,"[(1151, 760)]",[],[1],[],vertical,"(390.0, 762.0)",1.7,nan,1,1748.946,1,0.0,same
0,272,valid,"[(1165, 769)]",[],[1],[0.5833333333333334],vertical,"(890.0, 762.0)",1.0666666666666667,0.538,1,1754.297,1,0.0,same
0,273,valid,"[(1126, 764)]",[],[1],[0.5166666666666666],horizontal,"(890.0, 262.0)",1.4833333333333334,0.469,1,1759.264,1,0.0,same
0,274,valid,"[(1165, 755)]",[],[1],[0.5666666666666667],horizontal,"(890.0, 262.0)",0.9333333333333333,0.522,1,1765.13,2,0.0,same
0,275,valid,"[(1160, 775)]",[],[1],[0.7333333333333333],horizontal,"(890.0, 262.0)",0.9666666666666667,0.688,1,1770.808,2,0.0,same
0,276,valid,"[(1131, 765)]",[],[1],[0.5833333333333334],vertical,"(390.0, 262.0)",0.9833333333333333,0.541,1,1776.518,2,0.0,same
0,277,valid,"[(1130, 778)]",[],[1],[0.5833333333333334],horizontal,"(390.0, 262.0)",0.5,0.54,1,1782.225,3,0.0,same
0,278,valid,"[(1169, 772)]",[],[1],[0.65],vertical,"(890.0, 762.0)",1.15,0.603,1,1788.214,3,0.0,same
0,279,valid,"[(1170, 777)]",[],[1],[0.5166666666666666],horizontal,"(390.0, 762.0)",0.55,0.476,1,1794.56,3,0.0,same
0,280,valid,"[(1163, 785)]",[],[1],[0.6666666666666666],horizontal,"(890.0, 762.0)",0.4666666666666667,0.63,1,1799.73,3,0.0,same
0,281,catch,"[(1151, 766)]",[],[1],[],vertical,"(890.0, 762.0)",1.7,nan,1,1805.531,3,0.0,same
0,282,invalid_adjacent_other_bar,"[(1161, 775)]",[],[1],[0.6],horizontal,"(890.0, 762.0)",0.45,0.562,1,1811.914,3,0.0,other
0,283,valid,"[(1126, 775)]",[],[1],[0.65],horizontal,"(390.0, 762.0)",0.8166666666666667,0.606,1,1817.058,3,0.0,same
0,284,valid,"[(1128, 783)]",[],[1],[0.6333333333333333],horizontal,"(890.0, 262.0)",1.25,0.588,1,1822.965,3,0.0,same
0,285,catch,"[(1155, 770)]",[],[1],[],horizontal,"(890.0, 762.0)",1.7,nan,1,1829.379,3,0.0,same
0,286,invalid_adjacent_other_bar,"[(1131, 780)]",[],[1],[0.85],vertical,"(890.0, 762.0)",1.1,nan,0,1835.93,0,0.0,other
0,287,valid,"[(1128, 772)]",[],[1],"[0.85, 0.85]",vertical,"(390.0, 762.0)",1.3166666666666667,"0.802,nan",0,1841.25,0,0.0,same
0,288,catch,"[(1136, 779)]",[],[1],[],vertical,"(890.0, 262.0)",1.7,nan,1,1846.109,1,0.0,same
0,289,valid,"[(1175, 778)]",[],[1],[0.7],horizontal,"(890.0, 762.0)",1.0,0.658,1,1851.465,1,0.0,same
0,290,catch,"[(1160, 789)]",[],[1],[],horizontal,"(390.0, 262.0)",1.7,nan,1,1856.364,1,0.0,same
0,291,valid,"[(1170, 776)]",[],[1],[0.55],vertical,"(390.0, 262.0)",1.25,0.502,1,1861.814,2,0.0,same
0,292,catch,"[(1160, 795)]",[],[1],[],vertical,"(890.0, 262.0)",1.7,nan,1,1867.714,2,0.0,same
0,293,valid,"[(1131, 754)]",[],[1],[0.85],vertical,"(890.0, 262.0)",0.36666666666666664,nan,0,1873.697,0,0.0,same
0,294,catch,"[(1130, 765)]",[],[1],[],horizontal,"(390.0, 262.0)",1.7,nan,1,1877.614,1,0.0,same
0,295,invalid_same_bar,"[(1132, 752), (1119, 770)]",[],"[0, 1]",[0.6666666666666666],vertical,"(390.0, 762.0)",0.65,0.617,1,1882.914,1,0.0,same
0,296,valid,"[(1157, 772)]",[],[1],[0.5333333333333333],vertical,"(890.0, 762.0)",0.36666666666666664,0.498,1,1889.514,1,0.0,same
0,297,catch,"[(1152, 769)]",[],[1],[],horizontal,"(890.0, 262.0)",1.7,nan,1,1894.234,2,0.0,same
0,298,valid,"[(1134, 759)]",[],[1],[0.6333333333333333],vertical,"(390.0, 762.0)",0.8,0.597,1,1900.314,2,0.0,same
0,299,catch,"[(1163, 748), (1121, 810)]",[],"[0, 1]",[],vertical,"(390.0, 762.0)",1.7,nan,1,1905.944,2,0.0,same
0,300,valid,"[(1134, 768)]",[],[1],[0.65],vertical,"(890.0, 762.0)",0.85,0.605,1,1912.881,3,0.0,same
0,301,valid,"[(1154, 794)]",[],[1],[0.55],vertical,"(890.0, 762.0)",0.7166666666666667,0.507,1,1918.655,3,0.0,same
0,302,valid,"[(1126, 799)]",[],[1],[0.55],vertical,"(890.0, 762.0)",0.6166666666666667,0.508,1,1924.157,3,0.0,same
0,303,valid,"[(1119, 797)]",[],[1],[0.85],vertical,"(390.0, 762.0)",1.4333333333333333,nan,0,1929.965,0,0.0,same
0,304,invalid_same_bar,"[(1121, 766)]",[],[1],[0.6333333333333333],horizontal,"(390.0, 762.0)",0.4,0.596,1,1935.478,1,0.0,same
0,305,valid,"[(1126, 761)]",[],[1],[0.85],horizontal,"(390.0, 762.0)",1.4166666666666667,nan,0,1940.215,0,0.0,same
0,306,valid,"[(1157, 774)]",[],[1],[0.5666666666666667],horizontal,"(390.0, 762.0)",0.9666666666666667,0.533,1,1945.631,1,0.0,same
0,307,valid,"[(1126, 779)]",[],[1],[0.6333333333333333],vertical,"(390.0, 762.0)",1.1333333333333333,0.589,1,1950.803,1,0.0,same
0,308,valid,"[(1131, 770)]",[],[1],[0.6333333333333333],horizontal,"(390.0, 262.0)",1.2166666666666666,0.602,1,1956.213,1,0.0,same
0,309,valid,"[(1154, 769)]",[],[1],[0.6],horizontal,"(890.0, 762.0)",1.2833333333333332,0.567,1,1961.79,2,0.0,same
0,310,valid,"[(1126, 774)]",[],[1],[0.05],vertical,"(390.0, 262.0)",1.5333333333333332,0.018,0,1967.541,0,0.0,same
0,311,valid,"[(1116, 776)]",[],[1],[0.6166666666666667],vertical,"(390.0, 262.0)",1.35,0.575,1,1972.347,1,0.0,same
0,312,catch,"[(1170, 855)]",[],[1],[],vertical,"(390.0, 262.0)",1.7,nan,1,1978.277,1,0.0,same
0,313,invalid_adjacent_other_bar,"[(1150, 774)]",[],[1],[0.55],horizontal,"(390.0, 262.0)",0.36666666666666664,0.509,1,2033.86,1,0.0,other
0,314,valid,"[(1134, 778)]",[],[1],[0.48333333333333334],vertical,"(890.0, 262.0)",0.7333333333333333,0.445,1,2038.484,2,0.0,same
0,315,valid,"[(1160, 789)]",[],[1],[0.4666666666666667],horizontal,"(890.0, 262.0)",1.4,0.433,1,2043.497,2,0.0,same
0,316,valid,"[(1137, 794)]",[],[1],[0.5333333333333333],horizontal,"(890.0, 762.0)",1.0833333333333333,0.492,1,2049.215,2,0.0,same
0,317,valid,"[(1131, 773)]",[],[1],[0.48333333333333334],horizontal,"(390.0, 762.0)",0.6833333333333333,0.445,1,2055.18,3,0.0,same
0,318,valid,"[(1167, 785)]",[],[1],[0.7666666666666666],horizontal,"(890.0, 762.0)",1.0333333333333332,0.72,1,2060.631,3,0.0,same
0,319,valid,"[(1131, 774)]",[],[1],[0.65],horizontal,"(390.0, 762.0)",1.2333333333333334,0.61,1,2066.954,3,0.0,same
0,320,valid,"[(1165, 780)]",[],[1],[0.7],horizontal,"(390.0, 762.0)",1.0166666666666666,0.659,1,2073.569,3,0.0,same
0,321,valid,"[(1165, 772)]",[],[1],[0.48333333333333334],vertical,"(390.0, 762.0)",1.1666666666666667,0.44,1,2079.884,3,0.0,same
0,322,catch,"[(1172, 754)]",[],[1],[],vertical,"(890.0, 762.0)",1.7,nan,1,2085.673,3,0.0,same
0,323,valid,"[(1171, 798)]",[],[1],[0.5],vertical,"(890.0, 262.0)",1.25,0.46,1,2091.594,3,0.0,same
0,324,valid,"[(1160, 781)]",[],[1],[0.6166666666666667],horizontal,"(390.0, 762.0)",1.4166666666666667,0.58,1,2097.638,3,0.0,same
0,325,valid,"[(1119, 810)]",[],[1],[0.7833333333333333],horizontal,"(890.0, 762.0)",0.9,0.74,1,2104.15,3,0.0,same
0,326,valid,"[(1137, 790)]",[],[1],[0.5666666666666667],horizontal,"(890.0, 262.0)",1.0833333333333333,0.525,1,2110.594,3,0.0,same
0,327,catch,"[(1165, 763)]",[],[1],[],horizontal,"(890.0, 262.0)",1.7,nan,1,2116.917,3,0.0,same
0,328,valid,"[(1160, 774)]",[],[1],[0.6],vertical,"(390.0, 762.0)",1.4,0.561,1,2122.582,3,0.0,same
0,329,valid,"[(1165, 769)]",[],[1],[0.5],vertical,"(390.0, 262.0)",0.7333333333333333,0.461,1,2129.258,3,0.0,same
0,330,valid,"[(1160, 759)]",[],[1],[0.5333333333333333],horizontal,"(390.0, 262.0)",0.5,0.492,1,2134.749,3,0.0,same
0,331,valid,"[(1160, 759)]",[],[1],[0.5833333333333334],vertical,"(390.0, 262.0)",1.2166666666666666,0.546,1,2140.316,3,0.0,same
0,332,valid,"[(1165, 767)]",[],[1],[0.5],vertical,"(890.0, 262.0)",1.0166666666666666,0.457,1,2146.281,3,0.0,same
0,333,invalid_same_bar,"[(1164, 757)]",[],[1],[0.4666666666666667],vertical,"(390.0, 262.0)",0.48333333333333334,0.431,1,2152.117,3,0.0,same
0,334,valid,"[(1160, 743), (1116, 813)]",[],"[0, 1]",[0.5666666666666667],horizontal,"(390.0, 762.0)",1.3333333333333333,0.538,1,2157.37,3,0.0,same
0,335,valid,"[(1160, 785)]",[],[1],[0.6333333333333333],vertical,"(390.0, 762.0)",1.2666666666666666,0.601,1,2166.089,3,0.0,same
0,336,valid,"[(1166, 769)]",[],[1],[0.5],vertical,"(890.0, 262.0)",0.6333333333333333,0.462,1,2172.288,3,0.0,same
0,337,valid,"[(1138, 755)]",[],[1],[0.5333333333333333],vertical,"(390.0, 262.0)",0.7333333333333333,0.495,1,2177.789,3,0.0,same
0,338,valid,"[(1159, 787)]",[],[1],[0.5666666666666667],horizontal,"(390.0, 262.0)",1.4,0.534,1,2183.857,3,0.0,same
0,339,valid,"[(1165, 768)]",[],[1],[0.5333333333333333],horizontal,"(890.0, 762.0)",0.8166666666666667,0.491,1,2190.463,3,0.0,same
0,340,catch,"[(1132, 785)]",[],[1],[],vertical,"(390.0, 762.0)",1.7,nan,1,2195.98,3,0.0,same
0,341,catch,"[(1160, 792)]",[],[1],[],horizontal,"(890.0, 762.0)",1.7,nan,1,2202.448,3,0.0,same
0,342,valid,"[(1131, 794)]",[],[1],[0.5166666666666666],vertical,"(890.0, 262.0)",1.4333333333333333,0.479,1,2208.357,3,0.0,same
0,343,valid,"[(1161, 777)]",[],[1],[0.85],vertical,"(890.0, 762.0)",0.8833333333333333,nan,0,2214.682,0,0.0,same
0,344,valid,"[(1128, 785)]",[],[1],[0.65],vertical,"(890.0, 262.0)",0.6166666666666667,0.605,1,2219.077,1,0.0,same
0,345,valid,"[(1131, 759)]",[],[1],[0.6166666666666667],horizontal,"(890.0, 262.0)",0.5833333333333334,0.583,1,2224.099,1,0.0,same
0,346,valid,"[(1163, 783)]",[],[1],[0.85],vertical,"(890.0, 262.0)",0.6666666666666666,nan,0,2229.065,0,0.0,same
0,347,valid,"[(1159, 757)]",[],[1],[],vertical,"(890.0, 262.0)",,"('cti', 0.08)",0,2233.548,0,0.0,same
0,348,valid,"[(1123, 816)]",[],[1],[0.6],horizontal,"(390.0, 762.0)",1.3333333333333333,0.562,1,2236.532,1,0.0,same
0,349,valid,"[(1132, 789)]",[],[1],[0.5],horizontal,"(390.0, 262.0)",0.4,0.461,1,2243.082,1,0.0,same
0,350,invalid_same_bar,"[(1160, 772)]",[],[1],[0.5833333333333334],vertical,"(890.0, 762.0)",0.4166666666666667,0.552,1,2247.543,1,0.0,same
0,351,catch,"[(1165, 773)]",[],[1],[],horizontal,"(890.0, 262.0)",1.7,nan,1,2252.205,2,0.0,same
0,352,catch,"[(1137, 749), (1107, 794)]",[],"[0, 1]",[],vertical,"(390.0, 262.0)",1.7,nan,1,2257.616,2,0.0,same
0,353,catch,"[(1132, 804)]",[],[1],[],horizontal,"(390.0, 762.0)",1.7,nan,1,2264.662,2,0.0,same
0,354,catch,"[(1115, 764)]",[],[1],[],vertical,"(890.0, 262.0)",1.7,nan,1,2270.564,3,0.0,same
0,355,valid,"[(1131, 768)]",[],[1],[0.6166666666666667],horizontal,"(390.0, 762.0)",0.5166666666666666,0.579,1,2276.516,3,0.0,same
0,356,catch,"[(1160, 759)]",[],[1],[],horizontal,"(390.0, 762.0)",1.7,nan,1,2281.91,3,0.0,same
0,357,valid,"[(1126, 760)]",[],[1],[0.7166666666666667],vertical,"(390.0, 762.0)",1.2666666666666666,0.679,1,2287.656,3,0.0,same
0,358,valid,"[(1137, 760)]",[],[1],[0.6],vertical,"(390.0, 762.0)",1.3333333333333333,0.562,1,2294.364,3,0.0,same
0,359,valid,"[(1131, 768)]",[],[1],[0.5333333333333333],horizontal,"(890.0, 762.0)",0.7333333333333333,0.493,1,2300.864,3,0.0,same
0,360,valid,"[(1132, 787)]",[],[1],[0.5666666666666667],vertical,"(390.0, 762.0)",0.6333333333333333,0.529,1,2306.568,3,0.0,same
0,361,valid,"[(1158, 743), (1126, 815)]",[],"[0, 1]",[0.5166666666666666],horizontal,"(390.0, 762.0)",1.2333333333333334,0.474,1,2311.864,3,0.0,same
0,362,valid,"[(1165, 759)]",[],[1],[0.6166666666666667],vertical,"(890.0, 762.0)",1.3166666666666667,0.573,1,2319.782,3,0.0,same
0,363,valid,"[(1131, 766)]",[],[1],[0.7],vertical,"(390.0, 762.0)",1.4333333333333333,0.657,1,2326.004,3,0.0,same
0,364,invalid_same_bar,"[(1136, 776)]",[],[1],[0.48333333333333334],vertical,"(890.0, 762.0)",1.2333333333333334,0.443,1,2332.15,3,0.0,same
0,365,valid,"[(1164, 772)]",[],[1],[0.48333333333333334],vertical,"(890.0, 762.0)",0.8333333333333334,0.446,1,2338.023,3,0.0,same
0,366,valid,"[(1161, 771)]",[],[1],[0.5333333333333333],vertical,"(890.0, 262.0)",0.4166666666666667,0.493,1,2343.35,3,0.0,same
0,367,catch,"[(1132, 775)]",[],[1],[],vertical,"(390.0, 262.0)",1.7,nan,1,2348.716,3,0.0,same
0,368,invalid_same_bar,"[(1144, 784)]",[],[1],[0.25],horizontal,"(890.0, 762.0)",1.4166666666666667,0.215,1,2354.983,3,0.0,same
0,369,invalid_same_bar,"[(1161, 778)]",[],[1],[0.6166666666666667],vertical,"(890.0, 262.0)",0.8666666666666667,0.574,1,2361.515,3,0.0,same
0,370,valid,"[(1159, 753), (1135, 817)]",[],"[0, 1]",[0.6],horizontal,"(390.0, 262.0)",1.4333333333333333,0.555,1,2367.8,3,0.0,same
0,371,catch,"[(1126, 777)]",[],[1],[],vertical,"(390.0, 762.0)",1.7,nan,1,2375.0,3,0.0,same
0,372,valid,"[(1160, 783)]",[],[1],[0.85],horizontal,"(890.0, 762.0)",1.1333333333333333,nan,0,2381.357,0,0.0,same
0,373,invalid_adjacent_other_bar,"[(1134, 776)]",[],[1],[0.85],horizontal,"(390.0, 262.0)",0.65,nan,0,2386.348,0,0.0,other
0,374,valid,"[(1132, 768)]",[],[1],[0.5333333333333333],horizontal,"(890.0, 262.0)",0.9166666666666666,0.492,1,2390.797,1,0.0,same
0,375,valid,"[(1135, 777)]",[],[1],[0.5666666666666667],vertical,"(390.0, 262.0)",0.75,0.525,1,2395.869,1,0.0,same
0,376,valid,"[(1156, 782)]",[],[1],[0.85],vertical,"(390.0, 762.0)",1.3666666666666667,nan,0,2401.083,0,0.0,same
0,377,valid,"[(1160, 759)]",[],[1],[0.7],horizontal,"(390.0, 262.0)",1.0166666666666666,0.658,1,2406.233,1,0.0,same
0,378,valid,"[(1138, 764)]",[],[1],[0.7333333333333333],vertical,"(890.0, 762.0)",0.95,0.69,1,2411.083,1,0.0,same
0,379,valid,"[(1131, 777)]",[],[1],[0.5333333333333333],vertical,"(890.0, 762.0)",0.5,0.491,1,2416.65,1,0.0,same
0,380,valid,"[(1160, 769)]",[],[1],[0.75],horizontal,"(890.0, 262.0)",0.6166666666666667,0.709,1,2420.877,2,0.0,same
0,381,valid,"[(1131, 774)]",[],[1],[0.6166666666666667],vertical,"(390.0, 762.0)",0.7833333333333333,0.578,1,2426.399,2,0.0,same
0,382,catch,"[(1131, 770)]",[],[1],[],vertical,"(390.0, 262.0)",1.7,"('cti', 1.698),nan",0,2431.949,0,0.02,same
0,383,valid,"[(1131, 786)]",[],[1],[0.7166666666666667],vertical,"(890.0, 262.0)",1.2,0.675,1,2436.816,1,0.02,same
0,384,valid,"[(1135, 769)]",[],[1],[0.6666666666666666],vertical,"(890.0, 762.0)",1.0,0.625,1,2442.333,1,0.02,same
0,385,valid,"[(1156, 776)]",[],[1],[0.55],vertical,"(890.0, 762.0)",0.8333333333333334,0.511,1,2447.714,1,0.02,same
0,386,valid,"[(1158, 792)]",[],[1],[0.55],vertical,"(390.0, 762.0)",1.5333333333333332,0.506,1,2452.367,2,0.02,same
0,387,catch,"[(1157, 782)]",[],[1],[],vertical,"(890.0, 762.0)",1.7,nan,1,2458.833,2,0.02,same
0,388,valid,"[(1160, 794)]",[],[1],[0.5],vertical,"(890.0, 762.0)",1.1166666666666667,0.459,1,2464.682,2,0.02,same
0,389,invalid_adjacent_other_bar,"[(1160, 763)]",[],[1],[0.55],horizontal,"(390.0, 762.0)",0.55,0.507,1,2470.233,3,0.02,other
0,390,valid,"[(1132, 783)]",[],[1],[0.85],vertical,"(390.0, 762.0)",1.1166666666666667,nan,0,2475.884,0,0.02,same
0,391,valid,"[(1116, 756)]",[],[1],[0.7166666666666667],vertical,"(390.0, 762.0)",1.1833333333333333,0.677,1,2480.687,1,0.02,same
0,392,catch,"[(1135, 750), (1121, 803)]",[],"[0, 1]",[],vertical,"(390.0, 762.0)",1.7,nan,1,2486.55,1,0.02,same
0,393,catch,"[(1150, 754)]",[],[1],[],horizontal,"(890.0, 762.0)",,"('cti', 1.651),nan",0,2493.3,0,0.04,same
0,394,valid,"[(1134, 795)]",[],[1],[0.5166666666666666],vertical,"(890.0, 262.0)",0.7333333333333333,0.473,1,2498.017,1,0.04,same
0,395,valid,"[(1157, 769)]",[],[1],[0.5666666666666667],horizontal,"(890.0, 262.0)",0.43333333333333335,0.522,1,2503.05,1,0.04,same
0,396,valid,"[(1126, 782)]",[],[1],[0.5333333333333333],horizontal,"(890.0, 762.0)",0.8666666666666667,0.494,1,2507.849,1,0.04,same
0,397,invalid_adjacent_other_bar,"[(1126, 797)]",[],[1],[0.5166666666666666],horizontal,"(390.0, 762.0)",1.05,0.477,1,2512.566,2,0.04,other
0,398,valid,"[(1151, 781)]",[],[1],[0.85],vertical,"(890.0, 262.0)",0.9833333333333333,nan,0,2518.081,0,0.04,same
0,399,valid,"[(1084, 803)]",[],[1],[0.48333333333333334],horizontal,"(390.0, 262.0)",1.1666666666666667,0.446,1,2523.516,1,0.04,same
0,400,valid,"[(1122, 772)]",[],[1],[0.6666666666666666],vertical,"(390.0, 762.0)",0.36666666666666664,0.627,1,2530.057,1,0.04,same
0,401,catch,"[(1132, 771)]",[],[1],[],horizontal,"(390.0, 762.0)",1.7,nan,1,2535.078,1,0.04,same
0,402,valid,"[(1151, 784)]",[],[1],[0.5666666666666667],vertical,"(390.0, 262.0)",0.3833333333333333,0.531,1,2540.624,2,0.04,same
0,403,invalid_same_bar,"[(1121, 797)]",[],[1],[],horizontal,"(890.0, 262.0)",,"('cti', 1.357)",0,2545.447,0,0.04,same
0,404,catch,"[(1087, 858)]",[],[1],[],vertical,"(390.0, 262.0)",1.7,nan,1,2550.712,1,0.04,same
0,405,valid,"[(1132, 778)]",[],[1],[0.7166666666666667],vertical,"(390.0, 762.0)",1.4833333333333334,0.668,1,3025.567,1,0.04,same
0,406,catch,"[(1131, 798)]",[],[1],[],vertical,"(390.0, 262.0)",1.7,nan,1,3031.167,1,0.04,same
0,407,valid,"[(1135, 796)]",[],[1],[0.7333333333333333],vertical,"(890.0, 762.0)",0.7333333333333333,0.688,1,3036.818,2,0.04,same
0,408,valid,"[(1103, 785)]",[],[1],[0.85],vertical,"(890.0, 762.0)",0.43333333333333335,nan,0,3042.225,0,0.04,same
0,409,valid,"[(1136, 799)]",[],[1],[0.85],vertical,"(390.0, 762.0)",0.8,nan,0,3046.442,0,0.04,same
0,410,valid,"[(1067, 821)]",[],[1],[0.85],vertical,"(890.0, 262.0)",0.4666666666666667,nan,0,3051.396,0,0.04,same
0,411,valid,"[(1126, 819)]",[],[1],[0.5333333333333333],vertical,"(390.0, 762.0)",0.6,0.495,1,3057.338,1,0.04,same
0,412,catch,"[(1112, 768)]",[],[1],[],vertical,"(390.0, 762.0)",1.7,nan,1,3075.664,1,0.04,same
0,413,invalid_same_bar,"[(1131, 785)]",[],[1],[0.7],vertical,"(390.0, 762.0)",1.5166666666666666,0.657,1,3080.851,1,0.04,same
0,414,invalid_adjacent_other_bar,"[(1128, 791)]",[],[1],[0.85],vertical,"(390.0, 762.0)",1.25,nan,0,3086.841,0,0.04,other
0,415,invalid_same_bar,"[(1128, 806)]",[],[1],[0.5],vertical,"(390.0, 762.0)",0.85,0.467,1,3091.852,1,0.04,same
0,416,catch,"[(1105, 832)]",[],[1],[],vertical,"(890.0, 762.0)",1.7,nan,1,3096.892,1,0.04,same
0,417,invalid_adjacent_other_bar,"[(1125, 797)]",[],[1],[0.85],vertical,"(390.0, 262.0)",0.7333333333333333,nan,0,3102.357,0,0.04,other
0,418,valid,"[(1126, 813)]",[],[1],[0.55],vertical,"(890.0, 262.0)",0.5166666666666666,0.508,1,3106.776,1,0.04,same
0,419,valid,"[(1130, 817)]",[],[1],[0.65],horizontal,"(390.0, 262.0)",0.5666666666666667,0.609,1,3111.545,1,0.04,same
0,420,valid,"[(1131, 761)]",[],[1],[0.5333333333333333],horizontal,"(890.0, 262.0)",0.45,0.492,1,3116.102,1,0.04,same
0,421,valid,"[(1126, 799)]",[],[1],[0.48333333333333334],vertical,"(390.0, 262.0)",0.8333333333333334,0.437,1,3120.834,2,0.04,same
0,422,valid,"[(1131, 776)]",[],[1],[0.5333333333333333],horizontal,"(890.0, 262.0)",1.1833333333333333,0.492,1,3126.259,2,0.04,same
0,423,valid,"[(1081, 826)]",[],[1],[0.48333333333333334],horizontal,"(890.0, 762.0)",1.45,0.445,1,3131.58,2,0.04,same
0,424,invalid_same_bar,"[(1153, 791)]","[(1130, 801)]",[1],[0.11666666666666667],vertical,"(390.0, 762.0)",,"('bar', 0.133)",0,3137.918,0,0.04,same
0,425,catch,"[(1132, 795)]",[],[1],[],vertical,"(390.0, 762.0)",1.7,nan,1,3140.252,1,0.04,same
0,426,valid,"[(1125, 808)]",[],[1],[0.08333333333333333],vertical,"(390.0, 262.0)",0.4166666666666667,0.052,0,3145.651,0,0.04,same
0,427,catch,"[(1134, 808)]",[],[1],[],horizontal,"(390.0, 762.0)",1.7,nan,1,3149.8,1,0.04,same
0,428,valid,"[(1140, 762)]",[],[1],[0.4666666666666667],vertical,"(390.0, 262.0)",1.4166666666666667,0.427,1,3155.204,1,0.04,same
0,429,valid,"[(1131, 794)]",[],[1],[0.5166666666666666],horizontal,"(390.0, 262.0)",0.7,0.476,1,3160.558,1,0.04,same
0,430,catch,"[(1136, 782)]",[],[1],[],vertical,"(890.0, 762.0)",,"('fix', 0.394),nan",0,3165.633,0,0.06,same
0,431,catch,"[(1132, 808)]",[],[1],[],vertical,"(390.0, 762.0)",1.7,nan,1,3167.617,1,0.06,same
0,432,valid,"[(1152, 794)]",[],[1],[0.5666666666666667],horizontal,"(390.0, 262.0)",0.5333333333333333,0.521,1,3172.978,1,0.04,same
0,433,valid,"[(1140, 804)]",[],[1],[0.5833333333333334],horizontal,"(890.0, 762.0)",0.8333333333333334,0.544,1,3177.601,1,0.04,same
0,434,valid,"[(1131, 804)]",[],[1],[0.7666666666666666],horizontal,"(890.0, 762.0)",1.15,0.722,1,3182.465,2,0.04,same
0,435,valid,"[(1086, 832)]",[],[1],[0.5166666666666666],horizontal,"(890.0, 762.0)",1.35,0.483,1,3188.55,2,0.04,same
0,436,invalid_same_bar,"[(1145, 803)]",[],[1],[0.48333333333333334],vertical,"(890.0, 262.0)",1.2666666666666666,0.442,1,3195.172,2,0.04,same
0,437,valid,"[(1086, 803)]",[],[1],[0.48333333333333334],vertical,"(390.0, 762.0)",1.0833333333333333,0.445,1,3200.669,3,0.04,same
0,438,valid,"[(1121, 831)]",[],[1],[0.85],horizontal,"(890.0, 762.0)",1.2666666666666666,nan,0,3207.057,0,0.04,same
0,439,valid,"[(1121, 773)]",[],[1],[0.5333333333333333],horizontal,"(890.0, 762.0)",0.5833333333333334,0.495,1,3212.05,1,0.04,same
0,440,valid,"[(1111, 790)]","[(1008, 885)]",[1],[0.5833333333333334],vertical,"(390.0, 762.0)",,"('bar', 0.599)",0,3216.42,0,0.04,same
0,441,valid,"[(1130, 794)]",[],[1],[0.55],vertical,"(390.0, 762.0)",0.9666666666666667,0.51,1,3219.369,1,0.04,same
0,442,valid,"[(1092, 795)]",[],[1],[0.5166666666666666],vertical,"(390.0, 762.0)",0.6833333333333333,0.48,1,3224.268,1,0.04,same
0,443,valid,"[(1131, 774)]",[],[1],[0.6333333333333333],vertical,"(890.0, 262.0)",0.7833333333333333,0.597,1,3229.096,1,0.02,same
0,444,catch,"[(1131, 790)]",[],[1],[],horizontal,"(390.0, 762.0)",,"('cti', 1.496),nan",0,3233.851,0,0.04,same
0,445,valid,"[(1081, 778)]","[(1034, 873)]",[1],[0.55],vertical,"(890.0, 262.0)",,"('bar', 0.558)",0,3238.669,0,0.04,same
0,446,valid,"[(1130, 777)]",[],[1],[0.45],horizontal,"(890.0, 262.0)",1.2833333333333332,0.408,1,3241.383,1,0.04,same
0,447,valid,"[(1108, 799)]",[],[1],[0.48333333333333334],vertical,"(390.0, 762.0)",1.5333333333333332,0.443,1,3247.085,1,0.04,same
0,448,catch,"[(1146, 810)]",[],[1],[],horizontal,"(390.0, 262.0)",1.7,nan,1,3252.602,1,0.04,same
0,449,catch,"[(1111, 799)]",[],[1],[],horizontal,"(890.0, 762.0)",1.7,nan,1,3258.019,2,0.04,same
0,450,valid,"[(1154, 781)]",[],[1],[0.6333333333333333],vertical,"(890.0, 262.0)",0.4166666666666667,0.602,1,3263.608,2,0.04,same
0,451,valid,"[(1128, 779)]",[],[1],[0.5],vertical,"(890.0, 762.0)",0.7,0.459,1,3268.954,2,0.04,same
0,452,valid,"[(1133, 786)]",[],[1],[0.5],vertical,"(390.0, 762.0)",0.7,0.465,1,3273.969,3,0.04,same
0,453,valid,"[(1132, 780)]",[],[1],[0.6333333333333333],vertical,"(390.0, 262.0)",1.2666666666666666,0.592,1,3279.544,3,0.04,same
0,454,valid,"[(1131, 786)]",[],[1],[0.6333333333333333],horizontal,"(390.0, 762.0)",0.8666666666666667,0.596,1,3285.752,3,0.04,same
0,455,valid,"[(1159, 778)]",[],[1],[0.18333333333333332],horizontal,"(890.0, 262.0)",1.2166666666666666,0.153,0,3292.236,0,0.04,same
0,456,invalid_adjacent_other_bar,"[(1111, 786)]",[],[1],[0.8],horizontal,"(890.0, 762.0)",0.4166666666666667,0.759,1,3296.602,1,0.04,other
0,457,catch,"[(1131, 749), (1131, 798)]",[],"[0, 1]",[],vertical,"(390.0, 262.0)",1.7,nan,1,3301.756,1,0.04,same
0,458,valid,"[(1126, 773)]",[],[1],[0.6],horizontal,"(390.0, 762.0)",0.9166666666666666,0.559,1,3309.335,1,0.04,same
0,459,valid,"[(1116, 809)]",[],[1],[0.5166666666666666],vertical,"(890.0, 262.0)",0.5,0.484,1,3314.234,2,0.04,same
0,460,valid,"[(1131, 815)]",[],[1],[0.4666666666666667],horizontal,"(390.0, 262.0)",0.7666666666666666,0.431,1,3319.12,2,0.04,same
0,461,invalid_adjacent_other_bar,"[(1159, 763)]",[],[1],[0.65],vertical,"(390.0, 262.0)",1.4166666666666667,0.618,1,3323.868,2,0.04,other
0,462,valid,"[(1155, 794)]",[],[1],[0.65],vertical,"(890.0, 262.0)",0.35,0.609,1,3329.918,3,0.04,same
0,463,catch,"[(1155, 757)]",[],[1],[],horizontal,"(890.0, 762.0)",1.7,nan,1,3335.884,3,0.04,same
0,464,valid,"[(1135, 782)]",[],[1],[0.6333333333333333],vertical,"(390.0, 262.0)",1.2166666666666666,0.601,1,3341.569,3,0.04,same
0,465,valid,"[(1110, 825)]",[],[1],[0.2],horizontal,"(390.0, 262.0)",1.2333333333333334,0.168,0,3347.995,0,0.04,same
0,466,catch,"[(1118, 776)]",[],[1],[],horizontal,"(890.0, 262.0)",,"('cti', 1.666),nan",0,3352.703,0,0.06,same
0,467,valid,"[(1134, 768)]",[],[1],[0.48333333333333334],horizontal,"(890.0, 262.0)",1.45,0.451,1,3357.22,1,0.06,same
0,468,valid,"[(1156, 764)]",[],[1],[0.4666666666666667],vertical,"(890.0, 762.0)",0.5,0.433,1,3364.268,1,0.06,same
0,469,valid,"[(1130, 783)]",[],[1],[0.5166666666666666],horizontal,"(390.0, 762.0)",0.35,0.48,1,3368.869,1,0.06,same
0,470,valid,"[(1157, 790)]",[],[1],[0.5166666666666666],horizontal,"(390.0, 762.0)",1.35,0.475,1,3373.268,2,0.06,same
0,471,catch,"[(1131, 803)]",[],[1],[],vertical,"(390.0, 262.0)",1.7,nan,1,3379.383,2,0.06,same
0,472,catch,"[(1133, 772)]",[],[1],[],vertical,"(390.0, 762.0)",1.7,nan,1,3385.029,2,0.06,same
0,473,catch,"[(1131, 793)]",[],[1],[],vertical,"(890.0, 762.0)",1.7,nan,1,3390.986,3,0.06,same
0,474,valid,"[(1159, 765)]",[],[1],[0.85],vertical,"(890.0, 762.0)",0.75,nan,0,3397.298,0,0.06,same
0,475,catch,"[(1131, 776)]",[],[1],[],vertical,"(390.0, 262.0)",1.7,nan,1,3402.108,1,0.06,same
0,476,valid,"[(1126, 791)]",[],[1],[0.65],horizontal,"(890.0, 762.0)",1.1666666666666667,0.603,1,3407.252,1,0.06,same
0,477,valid,"[(1167, 776)]",[],[1],[0.5166666666666666],horizontal,"(890.0, 262.0)",0.65,0.477,1,3412.436,1,0.06,same
0,478,valid,"[(1131, 772)]",[],[1],[0.48333333333333334],horizontal,"(890.0, 262.0)",1.2,0.449,1,3417.057,2,0.06,same
0,479,invalid_adjacent_other_bar,"[(1137, 802)]",[],[1],[0.55],horizontal,"(390.0, 762.0)",1.2,0.513,1,3422.276,2,0.06,other
0,480,valid,"[(1123, 819)]",[],[1],[0.48333333333333334],horizontal,"(890.0, 262.0)",0.7166666666666667,0.442,1,3428.234,2,0.04,same
0,481,catch,"[(1160, 774)]",[],[1],[],vertical,"(390.0, 762.0)",1.7,nan,1,3433.505,3,0.04,same
0,482,catch,"[(1151, 777)]",[],[1],[],vertical,"(890.0, 262.0)",1.7,nan,1,3439.214,3,0.04,same
0,483,valid,"[(1160, 785)]",[],[1],[0.5166666666666666],vertical,"(890.0, 262.0)",0.8,0.475,1,3445.177,3,0.04,same
0,484,catch,"[(1165, 786)]",[],[1],[],horizontal,"(390.0, 262.0)",1.7,nan,1,3451.048,3,0.04,same
0,485,invalid_same_bar,"[(1156, 750), (1136, 832)]",[],"[0, 1]",[0.85],horizontal,"(390.0, 262.0)",0.3833333333333333,nan,0,3456.702,0,0.04,same
0,486,valid,"[(1087, 789)]",[],[1],[0.48333333333333334],horizontal,"(890.0, 762.0)",0.7333333333333333,0.444,1,3462.435,1,0.04,same
0,487,valid,"[(1135, 780)]",[],[1],[0.5166666666666666],horizontal,"(890.0, 262.0)",0.7833333333333333,0.481,1,3466.729,1,0.04,same
0,488,valid,"[(1145, 794)]",[],[1],[0.7333333333333333],vertical,"(390.0, 762.0)",0.5666666666666667,0.689,1,3471.892,1,0.04,same
0,489,valid,"[(1132, 770)]",[],[1],[0.6666666666666666],horizontal,"(890.0, 762.0)",1.4,0.622,1,3476.998,2,0.04,same
0,490,valid,"[(1155, 795)]",[],[1],[0.5166666666666666],horizontal,"(890.0, 262.0)",0.8166666666666667,0.474,1,3483.369,2,0.04,same
0,491,valid,"[(1131, 761)]",[],[1],[0.5333333333333333],horizontal,"(890.0, 762.0)",1.25,0.492,1,3488.46,2,0.04,same
0,492,valid,"[(1169, 776)]",[],[1],[0.48333333333333334],horizontal,"(390.0, 762.0)",0.8166666666666667,0.443,1,3494.244,3,0.04,same
0,493,valid,"[(1148, 792)]",[],[1],[0.5166666666666666],horizontal,"(390.0, 762.0)",1.25,0.476,1,3499.669,3,0.04,same
0,494,valid,"[(1158, 773)]",[],[1],[0.5833333333333334],horizontal,"(390.0, 262.0)",1.3833333333333333,0.544,1,3506.105,3,0.02,same
0,495,valid,"[(1162, 770)]",[],[1],[0.48333333333333334],vertical,"(390.0, 762.0)",1.0666666666666667,0.443,1,3512.535,3,0.02,same
0,496,valid,"[(1157, 794)]",[],[1],[0.5],vertical,"(890.0, 762.0)",1.0,0.46,1,3518.287,3,0.02,same
0,497,catch,"[(1140, 799)]",[],[1],[],vertical,"(390.0, 762.0)",1.7,nan,1,3524.119,3,0.02,same
0,498,invalid_same_bar,"[(1118, 778)]",[],[1],[0.85],vertical,"(890.0, 762.0)",1.4166666666666667,nan,0,3530.402,0,0.02,same
0,499,valid,"[(1131, 773)]",[],[1],[0.5],horizontal,"(890.0, 262.0)",0.7333333333333333,0.463,1,3536.288,1,0.02,same
0,500,valid,"[(1137, 787)]",[],[1],[0.48333333333333334],vertical,"(890.0, 262.0)",0.5166666666666666,0.445,1,3541.136,1,0.02,same
0,501,catch,"[(1129, 813)]",[],[1],[],vertical,"(890.0, 762.0)",1.7,nan,1,3545.813,1,0.02,same
0,502,valid,"[(1154, 783)]",[],[1],[0.55],horizontal,"(390.0, 762.0)",1.0,0.513,1,3551.277,2,0.02,same
0,503,valid,"[(1115, 823)]",[],[1],[0.48333333333333334],horizontal,"(890.0, 762.0)",0.6666666666666666,0.445,1,3556.912,2,0.02,same
0,504,valid,"[(1145, 779)]",[],[1],[0.5333333333333333],horizontal,"(890.0, 262.0)",1.0,0.495,1,3561.593,2,0.02,same
0,505,valid,"[(1133, 772)]",[],[1],[0.48333333333333334],horizontal,"(890.0, 262.0)",0.48333333333333334,0.442,1,3567.03,3,0.02,same
0,506,valid,"[(1132, 783)]",[],[1],[0.5333333333333333],horizontal,"(390.0, 262.0)",1.35,0.493,1,3572.72,3,0.02,same
0,507,valid,"[(1153, 779)]",[],[1],[0.5],horizontal,"(890.0, 762.0)",1.4666666666666666,0.455,1,3579.014,3,0.02,same
0,508,valid,"[(1127, 779)]",[],[1],[0.5],vertical,"(890.0, 762.0)",0.48333333333333334,0.457,1,3585.736,3,0.02,same
0,509,valid,"[(1128, 773)]",[],[1],[0.48333333333333334],vertical,"(890.0, 762.0)",0.7166666666666667,0.443,1,3591.104,3,0.02,same
0,510,valid,"[(1128, 768)]",[],[1],[0.5833333333333334],vertical,"(890.0, 762.0)",0.36666666666666664,0.54,1,3596.67,3,0.02,same
0,511,valid,"[(1131, 776)]",[],[1],[0.4666666666666667],horizontal,"(390.0, 262.0)",0.8666666666666667,0.421,1,3602.27,3,0.02,same
0,512,valid,"[(1111, 773)]",[],[1],[0.5333333333333333],vertical,"(390.0, 762.0)",1.25,0.494,1,3607.77,3,0.02,same
0,513,invalid_same_bar,"[(1116, 779)]",[],[1],[0.6333333333333333],vertical,"(890.0, 762.0)",1.2166666666666666,0.586,1,3613.768,3,0.02,same
0,514,valid,"[(1131, 809)]",[],[1],[0.5333333333333333],vertical,"(390.0, 262.0)",0.9,0.495,1,3620.402,3,0.02,same
0,515,invalid_same_bar,"[(1160, 772)]",[],[1],[0.55],vertical,"(890.0, 262.0)",0.8,0.511,1,3626.403,3,0.02,same
0,516,valid,"[(1132, 776)]",[],[1],[0.5833333333333334],horizontal,"(390.0, 762.0)",0.65,0.539,1,3632.319,3,0.0,same
0,517,invalid_same_bar,"[(1157, 765)]",[],[1],[0.7166666666666667],vertical,"(390.0, 262.0)",0.9666666666666667,0.672,1,3637.837,3,0.0,same
0,518,catch,"[(1131, 799)]",[],[1],[],vertical,"(890.0, 262.0)",1.7,nan,1,3644.02,3,0.0,same
0,519,valid,"[(1159, 784)]",[],[1],[0.48333333333333334],vertical,"(390.0, 762.0)",0.5166666666666666,0.441,1,3650.019,3,0.0,same
0,520,valid,"[(1131, 764)]",[],[1],[0.6333333333333333],horizontal,"(890.0, 262.0)",1.0833333333333333,0.596,1,3655.504,3,0.0,same
0,521,valid,"[(1131, 764)]",[],[1],[0.85],vertical,"(890.0, 762.0)",0.7166666666666667,nan,0,3661.602,0,0.0,same
0,522,valid,"[(1083, 869)]",[],[1],[0.85],horizontal,"(390.0, 762.0)",0.95,nan,0,3665.914,0,0.0,same
0,523,valid,"[(1127, 828)]",[],[1],[0.65],vertical,"(390.0, 262.0)",1.4666666666666666,0.604,1,3839.588,1,0.0,same
0,524,catch,"[(1126, 783)]",[],[1],[],vertical,"(890.0, 262.0)",1.7,nan,1,3846.098,1,0.0,same
0,525,catch,"[(1151, 769)]",[],[1],[],vertical,"(390.0, 262.0)",1.7,nan,1,3851.212,1,0.0,same
0,526,valid,"[(1086, 856)]",[],[1],[0.6],vertical,"(890.0, 262.0)",1.1666666666666667,0.556,1,3856.636,2,0.0,same
0,527,valid,"[(1112, 766)]",[],[1],[0.6],horizontal,"(390.0, 762.0)",1.0666666666666667,0.553,1,3867.753,2,0.0,same
0,528,catch,"[(1150, 777)]",[],[1],[],horizontal,"(390.0, 262.0)",1.7,nan,1,3873.714,2,0.0,same
0,529,catch,"[(1151, 790)]",[],[1],[],horizontal,"(890.0, 762.0)",1.7,nan,1,3879.688,3,0.0,same
0,530,valid,"[(1126, 791)]",[],[1],[0.5166666666666666],horizontal,"(390.0, 762.0)",0.6833333333333333,0.471,1,3885.87,3,0.0,same
0,531,valid,"[(1122, 799)]",[],[1],[0.6666666666666666],vertical,"(390.0, 262.0)",1.4666666666666666,0.623,1,3891.2,3,0.0,same
0,532,valid,"[(1156, 783)]",[],[1],[0.6166666666666667],horizontal,"(890.0, 262.0)",0.9666666666666667,0.569,1,3897.858,3,0.0,same
0,533,valid,"[(1156, 766)]",[],[1],[0.5333333333333333],horizontal,"(890.0, 262.0)",0.9666666666666667,0.489,1,3904.166,3,0.0,same
0,534,valid,"[(1166, 805)]",[],[1],[0.85],vertical,"(890.0, 262.0)",0.36666666666666664,nan,0,3909.737,0,0.0,same
0,535,valid,"[(1101, 798)]",[],[1],[0.5666666666666667],vertical,"(390.0, 262.0)",0.7,0.525,1,3914.048,1,0.0,same
0,536,valid,"[(1122, 812)]",[],[1],[0.48333333333333334],vertical,"(390.0, 262.0)",0.7666666666666666,0.436,1,3918.659,1,0.0,same
0,537,valid,"[(1135, 777)]",[],[1],[0.6333333333333333],horizontal,"(890.0, 262.0)",1.3833333333333333,0.59,1,3923.564,1,0.0,same
0,538,catch,"[(1155, 789)]",[],[1],[],vertical,"(390.0, 762.0)",1.7,nan,1,3928.887,2,0.0,same
0,539,valid,"[(1133, 763)]","[(1058, 848)]",[1],[0.26666666666666666],vertical,"(390.0, 262.0)",,"('bar', 0.279)",0,3934.48,0,0.0,same
0,540,valid,"[(1120, 806)]",[],[1],[0.5333333333333333],horizontal,"(390.0, 762.0)",0.43333333333333335,0.49,1,3936.838,1,0.0,same
0,541,valid,"[(1166, 779)]",[],[1],[0.5166666666666666],vertical,"(390.0, 262.0)",0.9166666666666666,0.475,1,3940.936,1,0.0,same
0,542,valid,"[(1134, 776)]",[],[1],[0.5666666666666667],vertical,"(890.0, 262.0)",1.5333333333333332,0.523,1,3946.122,1,0.0,same
0,543,valid,"[(1133, 784)]",[],[1],[0.5166666666666666],vertical,"(890.0, 762.0)",1.05,0.474,1,3952.207,2,0.0,same
0,544,valid,"[(1138, 799)]",[],[1],[0.7],horizontal,"(390.0, 762.0)",1.05,0.653,1,3958.386,2,0.0,same
0,545,catch,"[(1130, 791)]",[],[1],[],horizontal,"(890.0, 262.0)",1.7,nan,1,3963.866,2,0.0,same
0,546,valid,"[(1157, 782)]",[],[1],[0.5],vertical,"(890.0, 762.0)",0.8833333333333333,0.46,1,3970.112,3,0.0,same
0,547,catch,"[(1137, 794)]",[],[1],[],vertical,"(390.0, 762.0)",1.7,nan,1,3975.828,3,0.0,same
0,548,valid,"[(1159, 801)]",[],[1],[0.5333333333333333],vertical,"(390.0, 262.0)",1.35,0.486,1,3982.18,3,0.0,same
0,549,valid,"[(1154, 774)]",[],[1],[0.55],vertical,"(890.0, 762.0)",0.9666666666666667,0.51,1,3988.534,3,0.0,same
0,550,catch,"[(1136, 794)]",[],[1],[],vertical,"(390.0, 762.0)",1.7,nan,1,3993.97,3,0.0,same
0,551,valid,"[(1155, 768)]",[],[1],[0.5],horizontal,"(890.0, 262.0)",0.75,0.455,1,4000.447,3,0.0,same
0,552,catch,"[(1157, 786)]",[],[1],[],vertical,"(890.0, 262.0)",1.7,nan,1,4005.804,3,0.0,same
0,553,catch,"[(1168, 779)]",[],[1],[],vertical,"(890.0, 762.0)",1.7,nan,1,4011.938,3,0.0,same
0,554,valid,"[(1130, 776)]",[],[1],[0.4666666666666667],horizontal,"(890.0, 262.0)",0.55,0.428,1,4018.208,3,0.0,same
0,555,valid,"[(1175, 766)]",[],[1],[0.5],horizontal,"(890.0, 262.0)",1.25,0.464,1,4023.278,3,0.0,same
0,556,catch,"[(1131, 782)]",[],[1],[],horizontal,"(390.0, 262.0)",1.7,nan,1,4029.071,3,0.0,same
0,557,valid,"[(1125, 781)]",[],[1],[0.5166666666666666],horizontal,"(390.0, 262.0)",0.65,0.477,1,4035.27,3,0.0,same
0,558,valid,"[(1135, 779)]",[],[1],[0.5333333333333333],horizontal,"(390.0, 762.0)",0.95,0.496,1,4040.828,3,0.0,same
0,559,valid,"[(1158, 776)]",[],[1],[0.5666666666666667],horizontal,"(390.0, 262.0)",1.1166666666666667,0.525,1,4046.454,3,0.0,same
0,560,valid,"[(1157, 769)]",[],[1],[0.5],vertical,"(390.0, 262.0)",1.2166666666666666,0.457,1,4052.495,3,0.0,same
0,561,valid,"[(1180, 782)]",[],[1],[0.5],vertical,"(890.0, 262.0)",0.65,0.458,1,4058.405,3,0.0,same
0,562,valid,"[(1151, 763)]",[],[1],[0.5666666666666667],vertical,"(390.0, 762.0)",1.5,0.538,1,4063.696,3,0.0,same
0,563,invalid_same_bar,"[(1175, 764)]",[],[1],[0.85],horizontal,"(390.0, 262.0)",1.3666666666666667,nan,0,4070.055,0,0.0,same
0,564,valid,"[(1111, 776)]",[],[1],[0.48333333333333334],vertical,"(390.0, 262.0)",1.2166666666666666,0.445,1,4075.163,1,0.0,same
0,565,catch,"[(1112, 762)]",[],[1],[],horizontal,"(890.0, 762.0)",1.7,nan,1,4080.804,1,0.0,same
0,566,valid,"[(1175, 770)]",[],[1],[0.85],vertical,"(390.0, 262.0)",1.3166666666666667,nan,0,4085.968,0,0.0,same
0,567,valid,"[(1116, 770)]",[],[1],[0.5666666666666667],vertical,"(890.0, 262.0)",1.25,0.52,1,4090.911,1,0.0,same
0,568,invalid_adjacent_other_bar,"[(1165, 748), (1136, 784)]",[],"[0, 1]",[0.6333333333333333],vertical,"(390.0, 262.0)",0.6333333333333333,0.587,1,4096.222,1,0.0,other
0,569,valid,"[(1159, 751), (1076, 799)]",[],"[0, 1]",[0.5666666666666667],vertical,"(890.0, 762.0)",0.9666666666666667,0.528,1,4102.346,1,0.0,same
0,570,valid,"[(1141, 789)]",[],[1],[0.7166666666666667],vertical,"(390.0, 762.0)",1.0,0.673,1,4109.734,2,0.0,same
0,571,invalid_adjacent_other_bar,"[(1131, 783)]",[],[1],[0.6333333333333333],horizontal,"(890.0, 762.0)",0.36666666666666664,0.591,1,4115.494,2,0.0,other
0,572,catch,"[(1136, 765)]",[],[1],[],vertical,"(890.0, 262.0)",1.7,nan,1,4120.682,2,0.0,same
0,573,valid,"[(1132, 779)]",[],[1],[0.5833333333333334],horizontal,"(390.0, 762.0)",1.05,0.546,1,4126.136,3,0.0,same
0,574,invalid_adjacent_other_bar,"[(1137, 799)]",[],[1],[0.5166666666666666],vertical,"(890.0, 262.0)",1.0333333333333332,0.476,1,4132.233,3,0.0,other
0,575,catch,"[(1146, 776)]",[],[1],[],horizontal,"(390.0, 262.0)",1.7,nan,1,4138.054,3,0.0,same
0,576,valid,"[(1126, 801)]",[],[1],[0.5666666666666667],horizontal,"(390.0, 262.0)",0.5666666666666667,0.527,1,4144.255,3,0.0,same
0,577,catch,"[(1109, 774)]",[],[1],[],horizontal,"(390.0, 262.0)",1.7,nan,1,4150.072,3,0.0,same
0,578,catch,"[(1125, 792)]",[],[1],[],vertical,"(390.0, 762.0)",1.7,nan,1,4156.239,3,0.0,same
0,579,catch,"[(1146, 774)]",[],[1],[],horizontal,"(890.0, 262.0)",1.7,nan,1,4162.126,3,0.0,same
0,580,valid,"[(1132, 770)]",[],[1],[0.85],horizontal,"(890.0, 762.0)",0.7833333333333333,nan,0,4168.214,0,0.0,same
0,581,valid,"[(1124, 779)]",[],[1],[0.48333333333333334],vertical,"(890.0, 262.0)",0.55,0.442,1,4172.438,1,0.0,same
0,582,catch,"[(1155, 776)]",[],[1],[],horizontal,"(390.0, 262.0)",1.7,nan,1,4177.56,1,0.0,same
0,583,valid,"[(1143, 766)]",[],[1],[0.55],horizontal,"(890.0, 262.0)",0.5333333333333333,0.513,1,4182.755,1,0.0,same
0,584,valid,"[(1128, 764)]",[],[1],[0.5833333333333334],vertical,"(390.0, 262.0)",0.6833333333333333,0.546,1,4187.771,2,0.0,same
0,585,valid,"[(1156, 779)]",[],[1],[0.65],horizontal,"(890.0, 262.0)",1.0666666666666667,0.609,1,4192.625,2,0.0,same
0,586,valid,"[(1163, 767)]",[],[1],[0.45],vertical,"(390.0, 262.0)",0.7166666666666667,0.412,1,4198.653,2,0.0,same
0,587,valid,"[(1131, 815)]",[],[1],[0.5166666666666666],horizontal,"(390.0, 762.0)",1.4166666666666667,0.476,1,4203.56,3,0.0,same
0,588,catch,"[(1158, 775)]",[],[1],[],vertical,"(390.0, 762.0)",1.7,nan,1,4210.242,3,0.0,same
0,589,valid,"[(1136, 764)]",[],[1],[0.5],vertical,"(390.0, 262.0)",0.4666666666666667,0.459,1,4216.254,3,0.0,same
0,590,valid,"[(1161, 768)]",[],[1],[0.48333333333333334],horizontal,"(390.0, 262.0)",0.5666666666666667,0.446,1,4221.338,3,0.0,same
0,591,valid,"[(1158, 765)]",[],[1],[0.5833333333333334],vertical,"(390.0, 762.0)",1.3,0.545,1,4226.986,3,0.0,same
0,592,valid,"[(1142, 775)]",[],[1],[0.5166666666666666],vertical,"(890.0, 262.0)",0.9666666666666667,0.483,1,4233.088,3,0.0,same
0,593,valid,"[(1160, 773)]",[],[1],[0.48333333333333334],vertical,"(890.0, 262.0)",0.3833333333333333,0.441,1,4238.825,3,0.0,same
0,594,catch,"[(1180, 770)]",[],[1],[],vertical,"(890.0, 762.0)",1.7,nan,1,4243.877,3,0.0,same
0,595,valid,"[(1142, 789)]",[],[1],[0.6],horizontal,"(390.0, 762.0)",0.9333333333333333,0.56,1,4249.966,3,0.0,same
0,596,valid,"[(1155, 778)]",[],[1],[0.6333333333333333],horizontal,"(390.0, 262.0)",1.1166666666666667,0.592,1,4256.0,3,0.0,same
0,597,valid,"[(1165, 770)]",[],[1],[0.65],vertical,"(390.0, 762.0)",1.25,0.61,1,4262.254,3,0.0,same
0,598,invalid_same_bar,"[(1136, 762)]",[],[1],[0.55],vertical,"(890.0, 262.0)",0.9166666666666666,0.508,1,4268.505,3,0.0,same
0,599,valid,"[(1144, 777)]",[],[1],[0.75],horizontal,"(890.0, 762.0)",1.25,0.705,1,4274.322,3,0.0,same
0,600,valid,"[(1160, 773)]",[],[1],[0.5333333333333333],vertical,"(390.0, 762.0)",0.48333333333333334,0.492,1,4280.503,3,0.0,same
0,601,valid,"[(1169, 780)]",[],[1],[0.55],horizontal,"(390.0, 262.0)",1.2333333333333334,0.511,1,4285.925,3,0.0,same
0,602,valid,"[(1132, 770)]",[],[1],[0.5666666666666667],vertical,"(390.0, 262.0)",1.0833333333333333,0.527,1,4292.078,3,0.0,same
0,603,catch,"[(1096, 788)]",[],[1],[],horizontal,"(890.0, 762.0)",1.7,nan,1,4298.099,3,0.0,same
0,604,valid,"[(1134, 773)]",[],[1],[0.65],horizontal,"(890.0, 262.0)",0.9166666666666666,0.61,1,4308.529,3,0.0,same
0,605,valid,"[(1067, 859)]",[],[1],[0.5666666666666667],horizontal,"(890.0, 262.0)",1.25,0.527,1,4314.469,3,0.0,same
0,606,valid,"[(1142, 781)]",[],[1],[0.48333333333333334],horizontal,"(390.0, 762.0)",0.36666666666666664,0.441,1,4320.504,3,0.0,same
0,607,catch,"[(1165, 793)]",[],[1],[],vertical,"(890.0, 762.0)",1.7,nan,1,4325.405,3,0.0,same
0,608,valid,"[(1166, 779)]",[],[1],[0.7],horizontal,"(390.0, 762.0)",1.05,0.668,1,4331.294,3,0.0,same
0,609,valid,"[(1170, 775)]",[],[1],[0.85],vertical,"(890.0, 762.0)",0.35,nan,0,4337.374,0,0.0,same
0,610,catch,"[(1097, 807)]",[],[1],[],vertical,"(390.0, 262.0)",1.7,nan,1,4341.365,1,0.0,same
0,611,valid,"[(1116, 782)]",[],[1],[0.4666666666666667],vertical,"(890.0, 262.0)",1.4666666666666666,0.431,1,4347.155,1,0.0,same
0,612,catch,"[(1113, 811)]",[],[1],[],vertical,"(890.0, 262.0)",1.7,nan,1,4352.858,1,0.0,same
0,613,invalid_adjacent_other_bar,"[(1107, 776)]",[],[1],[0.43333333333333335],vertical,"(390.0, 262.0)",1.5166666666666666,0.393,1,4358.721,2,0.0,other
0,614,valid,"[(1136, 770)]",[],[1],[0.6333333333333333],horizontal,"(890.0, 262.0)",0.35,0.607,1,4364.372,2,0.0,same
0,615,valid,"[(1126, 767)]","[(1043, 850)]",[1],[0.15],horizontal,"(390.0, 762.0)",,"('bar', 0.164)",0,4369.372,0,0.0,same
0,616,valid,"[(1116, 800)]",[],[1],[0.85],vertical,"(390.0, 762.0)",0.5833333333333334,nan,0,4371.871,0,0.0,same
0,617,catch,"[(1086, 816)]",[],[1],[],horizontal,"(390.0, 262.0)",1.7,nan,1,4402.761,1,0.0,same
0,618,valid,"[(1117, 773)]",[],[1],[0.5833333333333334],vertical,"(890.0, 762.0)",0.48333333333333334,0.541,1,4408.297,1,0.0,same
0,619,valid,"[(1126, 777)]",[],[1],[0.5833333333333334],horizontal,"(890.0, 762.0)",1.3666666666666667,0.544,1,4413.032,1,0.0,same
0,620,valid,"[(1146, 770)]",[],[1],[0.7166666666666667],horizontal,"(390.0, 262.0)",1.45,0.675,1,4418.521,2,0.0,same
0,621,valid,"[(1123, 748), (1121, 812)]",[],"[0, 1]",[0.7166666666666667],vertical,"(890.0, 262.0)",1.05,0.676,1,4424.93,2,0.0,same
0,622,catch,"[(1117, 752), (1107, 824)]",[],"[0, 1]",[],vertical,"(890.0, 762.0)",1.7,nan,1,4431.769,2,0.0,same
0,623,valid,"[(1131, 765)]",[],[1],[],vertical,"(890.0, 762.0)",,"('fix', 0.641)",0,4438.173,0,0.0,same
0,624,invalid_same_bar,"[(1160, 774)]",[],[1],[0.7666666666666666],vertical,"(890.0, 262.0)",0.75,0.726,1,4440.4,1,0.0,same
0,625,valid,"[(1131, 794)]",[],[1],[0.4666666666666667],vertical,"(890.0, 262.0)",0.4666666666666667,0.435,1,4445.156,1,0.0,same
0,626,valid,"[(1120, 759)]",[],[1],[0.85],vertical,"(390.0, 762.0)",0.6666666666666666,nan,0,4449.755,0,0.0,same
0,627,valid,"[(1126, 808)]",[],[1],[0.85],vertical,"(390.0, 762.0)",1.0166666666666666,nan,0,4453.889,0,0.0,same
0,628,valid,"[(1120, 778)]",[],[1],[0.6333333333333333],horizontal,"(890.0, 762.0)",1.2166666666666666,0.599,1,4460.606,1,0.0,same
0,629,valid,"[(1140, 772)]",[],[1],[0.85],vertical,"(390.0, 262.0)",1.4,nan,0,4466.006,0,0.0,same
0,630,invalid_adjacent_other_bar,"[(1085, 777)]",[],[1],[0.85],vertical,"(390.0, 262.0)",0.5833333333333334,nan,0,4471.238,0,0.0,other
0,631,valid,"[(1107, 782)]",[],[1],[0.6166666666666667],horizontal,"(390.0, 762.0)",1.15,0.575,1,4475.906,1,0.0,same
0,632,valid,"[(1092, 803)]",[],[1],[0.5833333333333334],horizontal,"(890.0, 262.0)",1.4833333333333334,0.546,1,4481.964,1,0.0,same
0,633,valid,"[(1126, 786)]",[],[1],[0.6166666666666667],horizontal,"(390.0, 262.0)",0.9833333333333333,0.577,1,4487.601,1,0.0,same
0,634,valid,"[(1156, 777)]",[],[1],[0.6],horizontal,"(890.0, 762.0)",1.1833333333333333,0.554,1,4492.737,2,0.0,same
0,635,catch,"[(1132, 774)]",[],[1],[],vertical,"(390.0, 262.0)",1.7,nan,1,4498.757,2,0.0,same
0,636,valid,"[(1156, 770)]",[],[1],[0.6166666666666667],vertical,"(390.0, 762.0)",1.0333333333333332,0.573,1,4504.556,2,0.0,same
0,637,valid,"[(1160, 765)]",[],[1],[0.65],horizontal,"(890.0, 262.0)",1.5166666666666666,0.61,1,4510.339,3,0.0,same
0,638,valid,"[(1163, 783)]",[],[1],[0.5333333333333333],vertical,"(390.0, 262.0)",1.3666666666666667,0.495,1,4516.484,3,0.0,same
0,639,valid,"[(1126, 776)]",[],[1],[0.48333333333333334],vertical,"(890.0, 762.0)",1.3666666666666667,0.447,1,4522.451,3,0.0,same
0,640,valid,"[(1129, 799)]",[],[1],[0.5833333333333334],vertical,"(390.0, 262.0)",0.65,0.543,1,4529.055,3,0.0,same
0,641,valid,"[(1126, 764)]",[],[1],[0.5333333333333333],horizontal,"(390.0, 762.0)",1.05,0.499,1,4534.839,3,0.0,same
0,642,catch,"[(1160, 780)]",[],[1],[],horizontal,"(390.0, 262.0)",1.7,nan,1,4540.315,3,0.0,same
0,643,invalid_same_bar,"[(1122, 787)]",[],[1],[0.5333333333333333],vertical,"(390.0, 762.0)",0.7,0.492,1,4546.571,3,0.0,same
0,644,valid,"[(1159, 799)]",[],[1],[0.5],vertical,"(390.0, 762.0)",0.4,0.473,1,4552.247,3,0.0,same
0,645,valid,"[(1126, 780)]",[],[1],[0.85],vertical,"(390.0, 762.0)",0.5833333333333334,nan,0,4557.328,0,0.0,same
0,646,valid,"[(1097, 789)]",[],[1],[0.6166666666666667],vertical,"(890.0, 762.0)",1.15,0.574,1,4561.694,1,0.0,same
0,647,valid,"[(1131, 783)]",[],[1],[0.5666666666666667],vertical,"(890.0, 762.0)",1.0166666666666666,0.532,1,4567.24,1,0.0,same
0,648,valid,"[(1131, 771)]",[],[1],[0.48333333333333334],vertical,"(390.0, 762.0)",0.55,0.443,1,4572.131,1,0.0,same
0,649,valid,"[(1136, 786)]",[],[1],[0.5166666666666666],vertical,"(390.0, 262.0)",1.35,0.484,1,4576.239,2,0.0,same
0,650,catch,"[(1146, 767)]",[],[1],[],vertical,"(390.0, 262.0)",1.7,nan,1,4581.794,2,0.0,same
0,651,invalid_same_bar,"[(1121, 773)]",[],[1],[0.5],horizontal,"(890.0, 262.0)",0.5833333333333334,0.468,1,4587.433,2,0.0,same
0,652,catch,"[(1116, 777)]",[],[1],[],horizontal,"(390.0, 762.0)",1.7,nan,1,4592.817,3,0.0,same
0,653,valid,"[(1132, 780)]",[],[1],[0.5333333333333333],horizontal,"(390.0, 262.0)",0.36666666666666664,0.492,1,4599.025,3,0.0,same
0,654,valid,"[(1126, 782)]",[],[1],[0.5166666666666666],vertical,"(390.0, 262.0)",1.4666666666666666,0.479,1,4604.465,3,0.0,same
0,655,invalid_adjacent_other_bar,"[(1162, 776)]",[],[1],[0.5],horizontal,"(890.0, 762.0)",0.5833333333333334,0.457,1,4610.994,3,0.0,other
0,656,catch,"[(1127, 787)]",[],[1],[],vertical,"(890.0, 262.0)",1.7,nan,1,4616.301,3,0.0,same
0,657,catch,"[(1143, 777)]",[],[1],[],horizontal,"(890.0, 762.0)",1.7,nan,1,4622.322,3,0.0,same
0,658,valid,"[(1132, 774)]",[],[1],[0.4166666666666667],vertical,"(890.0, 762.0)",1.4,0.378,1,4628.289,3,0.0,same
0,659,valid,"[(1160, 769)]",[],[1],[0.48333333333333334],horizontal,"(890.0, 262.0)",0.5,0.451,1,4634.611,3,0.0,same
0,660,valid,"[(1146, 769)]",[],[1],[0.5166666666666666],horizontal,"(390.0, 762.0)",1.4,0.481,1,4639.822,3,0.0,same
0,661,catch,"[(1155, 764)]",[],[1],[],vertical,"(890.0, 762.0)",1.7,nan,1,4645.989,3,0.0,same
0,662,catch,"[(1129, 777)]",[],[1],[],vertical,"(890.0, 762.0)",1.7,nan,1,4652.246,3,0.0,same
0,663,valid,"[(1160, 771)]",[],[1],[0.5],vertical,"(390.0, 762.0)",0.4166666666666667,0.465,1,4658.472,3,0.0,same
0,664,invalid_adjacent_other_bar,"[(1159, 762)]",[],[1],[0.6166666666666667],vertical,"(390.0, 262.0)",0.6166666666666667,0.582,1,4663.835,3,0.0,other
0,665,valid,"[(1137, 769)]",[],[1],[0.85],horizontal,"(390.0, 762.0)",0.43333333333333335,nan,0,4669.656,0,0.0,same
0,666,invalid_same_bar,"[(1126, 764)]",[],[1],[0.85],vertical,"(390.0, 762.0)",0.75,nan,0,4674.122,0,0.0,same
0,667,catch,"[(1116, 784)]",[],[1],[],vertical,"(390.0, 762.0)",1.7,nan,1,4678.767,1,0.0,same
0,668,valid,"[(1126, 773)]",[],[1],[0.5333333333333333],vertical,"(390.0, 762.0)",1.3333333333333333,0.497,1,4683.972,1,0.0,same
0,669,valid,"[(1150, 767)]",[],[1],[0.85],vertical,"(890.0, 762.0)",0.5333333333333333,nan,0,4689.34,0,0.0,same
0,670,valid,"[(1116, 769)]",[],[1],[0.7833333333333333],vertical,"(390.0, 762.0)",1.2666666666666666,0.743,1,4693.656,1,0.0,same
0,671,invalid_adjacent_other_bar,"[(1153, 761)]",[],[1],[0.5],vertical,"(390.0, 262.0)",0.6333333333333333,0.459,1,4699.092,1,0.0,other
0,672,catch,"[(1116, 796)]",[],[1],[],horizontal,"(890.0, 762.0)",1.7,nan,1,4703.319,1,0.0,same
0,673,valid,"[(1126, 757)]",[],[1],[0.5166666666666666],horizontal,"(890.0, 262.0)",1.15,0.475,1,4708.54,2,0.0,same
0,674,valid,"[(1129, 789)]",[],[1],[0.6333333333333333],vertical,"(390.0, 762.0)",0.4666666666666667,0.589,1,4714.657,2,0.0,same
0,675,catch,"[(1126, 776)]",[],[1],[],horizontal,"(390.0, 262.0)",1.7,nan,1,4719.739,2,0.0,same
0,676,invalid_same_bar,"[(1111, 789)]",[],[1],[0.7],vertical,"(390.0, 762.0)",0.7666666666666666,0.658,1,4725.624,3,0.0,same
0,677,invalid_adjacent_other_bar,"[(1126, 766)]",[],[1],[0.7333333333333333],horizontal,"(390.0, 262.0)",1.1,0.686,1,4732.168,3,0.0,other
0,678,catch,"[(1155, 770)]",[],[1],[],vertical,"(390.0, 262.0)",1.7,nan,1,4738.523,3,0.0,same
0,679,valid,"[(1121, 788)]",[],[1],[0.6],vertical,"(390.0, 762.0)",1.5333333333333332,0.558,1,4744.727,3,0.0,same
0,680,valid,"[(1122, 782)]",[],[1],[0.5833333333333334],vertical,"(390.0, 262.0)",1.4833333333333334,0.542,1,4751.548,3,0.0,same
0,681,invalid_adjacent_other_bar,"[(1131, 776)]",[],[1],[0.6166666666666667],horizontal,"(390.0, 262.0)",1.4833333333333334,0.577,1,4758.245,3,0.0,other
0,682,valid,"[(1137, 779)]",[],[1],[0.5333333333333333],horizontal,"(390.0, 762.0)",1.25,0.493,1,4764.824,3,0.0,same
0,683,valid,"[(1121, 771)]",[],[1],[0.6166666666666667],vertical,"(890.0, 762.0)",0.5333333333333333,0.576,1,4770.811,3,0.0,same
0,684,valid,"[(1123, 785)]",[],[1],[0.5333333333333333],horizontal,"(890.0, 262.0)",1.0666666666666667,0.486,1,4776.424,3,0.0,same
0,685,valid,"[(1122, 779)]",[],[1],[0.5666666666666667],vertical,"(390.0, 762.0)",1.5333333333333332,0.529,1,4782.194,3,0.0,same
0,686,valid,"[(1116, 779)]",[],[1],[0.85],horizontal,"(390.0, 762.0)",1.0,nan,0,4788.39,0,0.0,same
0,687,catch,"[(1111, 779)]",[],[1],[],vertical,"(390.0, 262.0)",1.7,nan,1,4793.757,1,0.0,same
0,688,valid,"[(1126, 748), (1106, 827)]",[],"[0, 1]",[0.6333333333333333],vertical,"(390.0, 262.0)",0.6666666666666666,0.6,1,4801.406,1,0.0,same
0,689,invalid_same_bar,"[(1130, 752), (1119, 815)]",[],"[0, 1]",[0.7166666666666667],vertical,"(390.0, 762.0)",0.7333333333333333,0.674,1,4808.041,1,0.0,same
0,690,invalid_same_bar,"[(1126, 783)]",[],[1],[0.5],vertical,"(890.0, 762.0)",1.45,0.464,1,4813.709,2,0.0,same
0,691,catch,"[(1117, 799)]",[],[1],[],vertical,"(390.0, 762.0)",1.7,nan,1,4819.375,2,0.0,same
0,692,invalid_same_bar,"[(1160, 774)]",[],[1],[0.55],horizontal,"(890.0, 762.0)",1.4,0.512,1,4825.008,2,0.0,same
0,693,valid,"[(1111, 787)]",[],[1],[0.6],horizontal,"(390.0, 262.0)",1.15,0.559,1,4831.257,3,0.0,same
0,694,valid,"[(1123, 779)]",[],[1],[0.5166666666666666],vertical,"(390.0, 262.0)",0.9833333333333333,0.475,1,4837.423,3,0.0,same
0,695,valid,"[(1132, 762)]",[],[1],[0.75],horizontal,"(890.0, 762.0)",1.15,0.717,1,4843.391,3,0.0,same
0,696,invalid_same_bar,"[(1160, 759)]",[],[1],[0.65],vertical,"(890.0, 762.0)",0.4166666666666667,0.608,1,4849.663,3,0.0,same
0,697,valid,"[(1160, 764)]",[],[1],[0.6333333333333333],vertical,"(890.0, 762.0)",1.0833333333333333,0.591,1,4855.425,3,0.0,same
0,698,catch,"[(1121, 796)]",[],[1],[],vertical,"(890.0, 762.0)",1.7,nan,1,4861.422,3,0.0,same
0,699,catch,"[(1126, 769)]",[],[1],[],horizontal,"(390.0, 762.0)",1.7,nan,1,4867.14,3,0.0,same
0,700,catch,"[(1123, 793)]",[],[1],[],vertical,"(890.0, 762.0)",1.7,nan,1,4872.822,3,0.0,same
0,701,valid,"[(1122, 782)]",[],[1],[0.55],horizontal,"(890.0, 762.0)",0.4,0.507,1,4878.755,3,0.0,same
0,702,valid,"[(1121, 756)]",[],[1],[0.5333333333333333],vertical,"(890.0, 762.0)",0.8833333333333333,0.492,1,4884.07,3,0.0,same
0,703,valid,"[(1161, 774)]",[],[1],[0.5666666666666667],vertical,"(890.0, 762.0)",1.2166666666666666,0.521,1,4889.467,3,0.0,same
0,704,valid,"[(1151, 768)]",[],[1],[0.6],vertical,"(890.0, 762.0)",1.3333333333333333,0.563,1,4895.629,3,0.0,same
0,705,invalid_same_bar,"[(1126, 780)]",[],[1],[0.6166666666666667],vertical,"(390.0, 762.0)",0.9333333333333333,0.575,1,4901.69,3,0.0,same
0,706,catch,"[(1147, 785)]",[],[1],[],vertical,"(890.0, 262.0)",1.7,nan,1,4907.617,3,0.0,same
0,707,catch,"[(1123, 787)]",[],[1],[],vertical,"(890.0, 262.0)",1.7,nan,1,4914.123,3,0.0,same
0,708,catch,"[(1121, 767)]",[],[1],[],horizontal,"(890.0, 762.0)",1.7,nan,1,4920.39,3,0.0,same
0,709,valid,"[(1126, 774)]",[],[1],[0.85],horizontal,"(890.0, 762.0)",0.8166666666666667,nan,0,4926.325,0,0.0,same
0,710,valid,"[(1101, 860)]",[],[1],[0.6166666666666667],vertical,"(390.0, 762.0)",1.3166666666666667,0.572,1,4931.188,1,0.0,same
0,711,valid,"[(1141, 795)]",[],[1],[0.7833333333333333],horizontal,"(890.0, 262.0)",1.0,0.735,1,5077.206,1,0.0,same
0,712,catch,"[(1126, 789)]",[],[1],[],horizontal,"(390.0, 762.0)",1.7,nan,1,5082.677,1,0.0,same
0,713,catch,"[(1160, 782)]",[],[1],[],vertical,"(390.0, 262.0)",1.7,nan,1,5087.718,2,0.0,same
0,714,catch,"[(1129, 773)]",[],[1],[],horizontal,"(890.0, 262.0)",1.7,nan,1,5093.2,2,0.0,same
0,715,valid,"[(1151, 777)]",[],[1],[0.65],vertical,"(890.0, 262.0)",0.85,0.602,1,5099.274,2,0.0,same
0,716,invalid_adjacent_other_bar,"[(1158, 781)]",[],[1],[0.5],horizontal,"(390.0, 262.0)",0.7333333333333333,0.453,1,5104.508,3,0.0,other
0,717,catch,"[(1160, 776)]",[],[1],[],horizontal,"(890.0, 762.0)",,"('cti', 1.106),nan",0,5109.783,0,0.02,same
0,718,valid,"[(1134, 771)]",[],[1],[0.48333333333333334],horizontal,"(890.0, 762.0)",1.1333333333333333,0.44,1,5114.215,1,0.02,same
0,719,valid,"[(1146, 766)]",[],[1],[0.4],vertical,"(390.0, 262.0)",1.0166666666666666,0.36,1,5119.691,1,0.02,same
0,720,valid,"[(1126, 785)]",[],[1],[0.6],vertical,"(890.0, 262.0)",0.9333333333333333,0.556,1,5124.707,1,0.02,same
0,721,valid,"[(1132, 796)]",[],[1],[0.5166666666666666],vertical,"(390.0, 762.0)",1.15,0.471,1,5130.157,2,0.02,same
0,722,valid,"[(1155, 786)]",[],[1],[0.5166666666666666],horizontal,"(390.0, 762.0)",0.36666666666666664,0.476,1,5135.458,2,0.02,same
0,723,valid,"[(1154, 783)]",[],[1],[0.65],horizontal,"(390.0, 262.0)",1.45,0.607,1,5140.504,2,0.02,same
0,724,valid,"[(1135, 779)]",[],[1],[0.4666666666666667],horizontal,"(390.0, 762.0)",1.0666666666666667,0.421,1,5146.223,3,0.02,same
0,725,valid,"[(1151, 779)]",[],[1],[],horizontal,"(390.0, 262.0)",,"('cti', 0.194)",0,5152.147,0,0.02,same
0,726,valid,"[(1134, 769)]",[],[1],[0.55],horizontal,"(890.0, 262.0)",0.8333333333333334,0.508,1,5155.525,1,0.02,same
0,727,catch,"[(1168, 779)]",[],[1],[],vertical,"(390.0, 262.0)",1.7,nan,1,5160.378,1,0.02,same
0,728,valid,"[(1121, 792)]",[],[1],[0.85],horizontal,"(390.0, 262.0)",0.35,nan,0,5165.959,0,0.02,same
0,729,valid,"[(1131, 764)]",[],[1],[0.85],vertical,"(390.0, 762.0)",0.36666666666666664,nan,0,5169.942,0,0.02,same
0,730,invalid_same_bar,"[(1087, 785)]",[],[1],[0.85],horizontal,"(390.0, 262.0)",1.2166666666666666,nan,0,5173.974,0,0.02,same
0,731,valid,"[(1141, 792)]",[],[1],[0.48333333333333334],horizontal,"(390.0, 762.0)",0.5166666666666666,0.448,1,5178.819,1,0.02,same
0,732,valid,"[(1133, 793)]",[],[1],[0.55],horizontal,"(890.0, 262.0)",1.0166666666666666,0.517,1,5183.513,1,0.02,same
0,733,valid,"[(1162, 774)]",[],[1],[0.5333333333333333],vertical,"(390.0, 262.0)",0.8166666666666667,0.496,1,5188.425,1,0.02,same
0,734,invalid_adjacent_other_bar,"[(1130, 774)]",[],[1],[0.5833333333333334],horizontal,"(390.0, 762.0)",1.1333333333333333,0.538,1,5193.48,2,0.02,other
0,735,valid,"[(1131, 778)]",[],[1],[0.48333333333333334],vertical,"(390.0, 762.0)",0.9,0.443,1,5198.967,2,0.02,same
0,736,catch,"[(1147, 793)]",[],[1],[],vertical,"(390.0, 262.0)",1.7,nan,1,5203.941,2,0.02,same
0,737,catch,"[(1135, 813)]",[],[1],[],horizontal,"(390.0, 762.0)",1.7,nan,1,5209.33,3,0.02,same
0,738,valid,"[(1145, 787)]",[],[1],[0.85],vertical,"(390.0, 262.0)",1.3,nan,0,5215.837,0,0.02,same
0,739,valid,"[(1137, 777)]",[],[1],[0.5],vertical,"(890.0, 262.0)",0.43333333333333335,0.458,1,5220.807,1,0.02,same
0,740,valid,"[(1132, 778)]",[],[1],[0.5],horizontal,"(890.0, 762.0)",1.0,0.464,1,5224.857,1,0.02,same
0,741,catch,"[(1145, 782)]",[],[1],[],vertical,"(890.0, 762.0)",1.7,nan,1,5229.775,1,0.02,same
0,742,valid,"[(1160, 778)]",[],[1],[0.7166666666666667],vertical,"(390.0, 262.0)",0.45,0.677,1,5235.408,2,0.02,same
0,743,valid,"[(1137, 790)]",[],[1],[0.65],horizontal,"(890.0, 262.0)",0.6166666666666667,0.601,1,5240.903,2,0.02,same
0,744,catch,"[(1131, 779)]",[],[1],[],horizontal,"(390.0, 262.0)",,"('cti', 0.275),nan",0,5246.076,0,0.04,same
0,745,valid,"[(1121, 784)]",[],[1],[0.5666666666666667],vertical,"(390.0, 762.0)",0.9333333333333333,0.52,1,5249.26,1,0.04,same
0,746,valid,"[(1160, 775)]",[],[1],[0.55],vertical,"(890.0, 762.0)",0.9333333333333333,0.505,1,5254.557,1,0.04,same
0,747,catch,"[(1127, 783)]",[],[1],[],vertical,"(390.0, 262.0)",1.7,nan,1,5259.434,1,0.04,same
0,748,valid,"[(1131, 769)]",[],[1],[0.4666666666666667],vertical,"(890.0, 262.0)",0.8,0.433,1,5264.981,2,0.04,same
0,749,valid,"[(1155, 777)]",[],[1],[0.6666666666666666],horizontal,"(890.0, 262.0)",0.9166666666666666,0.626,1,5270.474,2,0.04,same
0,750,valid,"[(1132, 788)]",[],[1],[0.5666666666666667],vertical,"(390.0, 262.0)",0.8833333333333333,0.522,1,5275.574,2,0.04,same
0,751,valid,"[(1126, 791)]",[],[1],[0.5333333333333333],vertical,"(390.0, 762.0)",1.3,0.494,1,5280.824,3,0.04,same
0,752,valid,"[(1156, 791)]",[],[1],[0.5],vertical,"(890.0, 262.0)",1.1,0.459,1,5287.324,3,0.04,same
0,753,catch,"[(1159, 769)]",[],[1],[],horizontal,"(890.0, 762.0)",1.7,nan,1,5292.925,3,0.04,same
0,754,valid,"[(1131, 778)]",[],[1],[0.85],vertical,"(890.0, 262.0)",0.5833333333333334,nan,0,5298.907,0,0.04,same
0,755,catch,"[(1131, 764)]",[],[1],[],horizontal,"(890.0, 762.0)",1.7,nan,1,5303.557,1,0.04,same
0,756,catch,"[(1116, 794)]",[],[1],[],horizontal,"(890.0, 762.0)",1.7,nan,1,5308.531,1,0.04,same
0,757,catch,"[(1129, 782)]",[],[1],[],horizontal,"(890.0, 262.0)",,"('cti', 1.246),nan",0,5314.017,0,0.06,same
0,758,valid,"[(1159, 784)]",[],[1],[0.55],vertical,"(390.0, 762.0)",1.05,0.514,1,5318.658,1,0.06,same
0,759,valid,"[(1132, 777)]",[],[1],[0.55],vertical,"(390.0, 762.0)",0.9666666666666667,0.52,1,5324.182,1,0.06,same
0,760,valid,"[(1159, 785)]",[],[1],[0.55],vertical,"(390.0, 762.0)",1.0,0.508,1,5329.023,1,0.06,same
0,761,catch,"[(1155, 797)]",[],[1],[],vertical,"(890.0, 762.0)",1.7,nan,1,5333.809,2,0.06,same
0,762,valid,"[(1116, 783)]",[],[1],[0.5833333333333334],vertical,"(390.0, 762.0)",0.5333333333333333,0.541,1,5339.341,2,0.06,same
0,763,valid,"[(1146, 778)]",[],[1],[0.5166666666666666],horizontal,"(390.0, 762.0)",1.2166666666666666,0.48,1,5344.141,2,0.06,same
0,764,catch,"[(1133, 781)]",[],[1],[],horizontal,"(890.0, 762.0)",1.7,nan,1,5349.941,3,0.06,same
0,765,catch,"[(1175, 782)]",[],[1],[],horizontal,"(390.0, 762.0)",1.7,nan,1,5356.149,3,0.06,same
0,766,catch,"[(1127, 779)]",[],[1],[],vertical,"(890.0, 762.0)",1.7,nan,1,5362.08,3,0.06,same
0,767,valid,"[(1131, 790)]",[],[1],[0.5666666666666667],horizontal,"(390.0, 262.0)",1.1166666666666667,0.524,1,5368.192,3,0.04,same
0,768,valid,"[(1134, 791)]",[],[1],[0.48333333333333334],horizontal,"(890.0, 762.0)",0.35,0.446,1,5374.545,3,0.04,same
0,769,valid,"[(1155, 779)]",[],[1],[0.55],horizontal,"(890.0, 762.0)",0.3833333333333333,0.505,1,5379.725,3,0.04,same
0,770,valid,"[(1129, 794)]",[],[1],[0.6],vertical,"(390.0, 762.0)",0.9,0.564,1,5385.025,3,0.04,same
0,771,valid,"[(1135, 779)]",[],[1],[0.45],vertical,"(890.0, 762.0)",1.4333333333333333,0.416,1,5390.917,3,0.04,same
0,772,catch,"[(1116, 792)]",[],[1],[],horizontal,"(390.0, 762.0)",1.7,nan,1,5397.409,3,0.04,same
0,773,valid,"[(1132, 784)]",[],[1],[0.5666666666666667],horizontal,"(390.0, 762.0)",0.7166666666666667,0.534,1,5403.189,3,0.04,same
0,774,valid,"[(1156, 781)]",[],[1],[0.75],horizontal,"(390.0, 762.0)",0.35,0.714,1,5408.975,3,0.04,same
0,775,catch,"[(1146, 788)]",[],[1],[],horizontal,"(890.0, 762.0)",1.7,nan,1,5414.491,3,0.04,same
0,776,valid,"[(1162, 770)]",[],[1],[0.48333333333333334],vertical,"(390.0, 762.0)",0.65,0.45,1,5421.225,3,0.04,same
0,777,catch,"[(1134, 798)]",[],[1],[],vertical,"(890.0, 762.0)",1.7,nan,1,5426.521,3,0.04,same
0,778,valid,"[(1118, 785)]",[],[1],[0.5333333333333333],vertical,"(890.0, 762.0)",0.9666666666666667,0.5,1,5433.091,3,0.04,same
0,779,invalid_adjacent_other_bar,"[(1141, 769)]",[],[1],[0.5333333333333333],horizontal,"(390.0, 762.0)",0.65,0.5,1,5439.153,3,0.04,other
0,780,catch,"[(1126, 781)]",[],[1],[],vertical,"(890.0, 262.0)",1.7,nan,1,5444.708,3,0.04,same
0,781,catch,"[(1126, 788)]",[],[1],[],horizontal,"(390.0, 262.0)",1.7,nan,1,5450.663,3,0.04,same
0,782,valid,"[(1134, 784)]",[],[1],[0.5],vertical,"(390.0, 262.0)",0.7166666666666667,0.452,1,5456.734,3,0.04,same
0,783,valid,"[(1160, 782)]",[],[1],[0.55],vertical,"(390.0, 262.0)",1.3166666666666667,0.511,1,5462.309,3,0.04,same
0,784,valid,"[(1131, 774)]",[],[1],[0.43333333333333335],horizontal,"(390.0, 262.0)",1.4666666666666666,0.399,1,5468.495,3,0.04,same
0,785,catch,"[(1141, 777)]",[],[1],[],vertical,"(890.0, 762.0)",1.7,nan,1,5474.458,3,0.04,same
0,786,catch,"[(1136, 783)]",[],[1],[],horizontal,"(390.0, 762.0)",1.7,nan,1,5480.59,3,0.04,same
0,787,valid,"[(1163, 768)]",[],[1],[0.5333333333333333],vertical,"(390.0, 762.0)",0.95,0.495,1,5486.697,3,0.04,same
0,788,valid,"[(1137, 792)]",[],[1],[0.45],horizontal,"(390.0, 762.0)",1.2333333333333334,0.415,1,5492.212,3,0.04,same
0,789,catch,"[(1132, 784)]",[],[1],[],vertical,"(390.0, 762.0)",1.7,nan,1,5498.508,3,0.04,same
0,790,invalid_adjacent_other_bar,"[(1131, 771)]",[],[1],[0.5],vertical,"(390.0, 762.0)",0.5,0.464,1,5504.908,3,0.04,other
0,791,valid,"[(1160, 778)]",[],[1],[0.6333333333333333],vertical,"(890.0, 762.0)",1.4333333333333333,0.589,1,5510.195,3,0.04,same
0,792,valid,"[(1112, 779)]",[],[1],[0.5],vertical,"(390.0, 262.0)",0.4166666666666667,0.461,1,5516.192,3,0.04,same
0,793,catch,"[(1135, 782)]",[],[1],[],horizontal,"(390.0, 762.0)",1.7,nan,1,5521.19,3,0.04,same
0,794,valid,"[(1118, 808)]",[],[1],[0.48333333333333334],vertical,"(390.0, 762.0)",0.6166666666666667,0.446,1,5527.1,3,0.02,same
0,795,invalid_adjacent_other_bar,"[(1140, 765)]",[],[1],[0.85],vertical,"(390.0, 262.0)",1.45,nan,0,5532.734,0,0.02,other
0,796,catch,"[(1118, 793)]",[],[1],[],vertical,"(390.0, 262.0)",1.7,nan,1,5537.874,1,0.02,same
0,797,valid,"[(1130, 778)]",[],[1],[0.5166666666666666],horizontal,"(390.0, 262.0)",0.65,0.481,1,5543.484,1,0.02,same
0,798,valid,"[(1123, 776)]",[],[1],[0.55],vertical,"(390.0, 262.0)",1.4,0.509,1,5548.587,1,0.02,same
0,799,catch,"[(1123, 774)]",[],[1],[],vertical,"(390.0, 262.0)",1.7,nan,1,5554.188,2,0.02,same
0,800,valid,"[(1132, 782)]",[],[1],[0.85],vertical,"(390.0, 762.0)",1.2833333333333332,"('cti', 1.28),nan",0,5560.345,0,0.02,same
0,801,valid,"[(1125, 832)]",[],[1],[0.6666666666666666],horizontal,"(390.0, 262.0)",0.7666666666666666,0.619,1,5565.625,1,0.02,same
0,802,catch,"[(1162, 785)]",[],[1],[],vertical,"(390.0, 762.0)",1.7,nan,1,6378.861,1,0.02,same
0,803,valid,"[(1127, 786)]",[],[1],[0.6333333333333333],horizontal,"(390.0, 262.0)",0.9333333333333333,0.588,1,6383.777,1,0.02,same
0,804,valid,"[(1160, 779)]",[],[1],[0.5333333333333333],horizontal,"(890.0, 762.0)",0.9166666666666666,0.493,1,6389.095,2,0.02,same
0,805,catch,"[(1146, 774)]",[],[1],[],vertical,"(390.0, 262.0)",1.7,nan,1,6394.812,2,0.02,same
0,806,catch,"[(1137, 774)]",[],[1],[],horizontal,"(890.0, 262.0)",1.7,nan,1,6400.303,2,0.02,same
0,807,valid,"[(1161, 791)]",[],[1],[0.85],vertical,"(390.0, 762.0)",0.35,nan,0,6406.462,0,0.0,same
0,808,invalid_adjacent_other_bar,"[(1115, 781)]",[],[1],[0.5333333333333333],vertical,"(890.0, 762.0)",0.65,0.494,1,6410.822,1,0.0,other
0,809,valid,"[(1174, 769)]",[],[1],[0.55],vertical,"(890.0, 762.0)",0.55,0.506,1,6415.878,1,0.0,same
0,810,catch,"[(1132, 783)]",[],[1],[],horizontal,"(390.0, 262.0)",1.7,nan,1,6420.182,1,0.0,same
0,811,catch,"[(1157, 794)]",[],[1],[],horizontal,"(890.0, 262.0)",1.7,nan,1,6425.562,2,0.0,same
0,812,valid,"[(1165, 762)]",[],[1],[0.48333333333333334],horizontal,"(390.0, 262.0)",0.5666666666666667,0.446,1,6431.09,2,0.0,same
0,813,valid,"[(1146, 778)]",[],[1],[0.2833333333333333],horizontal,"(890.0, 762.0)",1.5166666666666666,0.244,1,6436.243,2,0.0,same
0,814,invalid_adjacent_other_bar,"[(1111, 792)]",[],[1],[0.5],horizontal,"(890.0, 262.0)",0.85,0.455,1,6442.276,3,0.0,other
0,815,valid,"[(1174, 779)]",[],[1],[0.5333333333333333],horizontal,"(890.0, 262.0)",1.3666666666666667,0.489,1,6448.074,3,0.0,same
0,816,catch,"[(1180, 773)]",[],[1],[],vertical,"(390.0, 762.0)",1.7,nan,1,6454.261,3,0.0,same
0,817,invalid_same_bar,"[(1147, 758)]",[],[1],[0.5833333333333334],horizontal,"(890.0, 262.0)",1.2,0.54,1,6460.215,3,0.0,same
0,818,catch,"[(1162, 777)]",[],[1],[],vertical,"(890.0, 762.0)",1.7,nan,1,6466.095,3,0.0,same
0,819,valid,"[(1135, 802)]",[],[1],[0.6333333333333333],vertical,"(390.0, 762.0)",0.5,0.591,1,6472.046,3,0.0,same
0,820,valid,"[(1175, 779)]",[],[1],[0.5166666666666666],horizontal,"(890.0, 762.0)",0.7,0.473,1,6477.463,3,0.0,same
0,821,catch,"[(1170, 777)]",[],[1],[],vertical,"(390.0, 262.0)",1.7,nan,1,6482.652,3,0.0,same
0,822,valid,"[(1133, 775)]",[],[1],[0.5333333333333333],vertical,"(890.0, 762.0)",0.65,0.497,1,6488.911,3,0.0,same
0,823,catch,"[(1152, 755)]",[],[1],[],vertical,"(890.0, 762.0)",1.7,nan,1,6494.503,3,0.0,same
0,824,valid,"[(1157, 777)]",[],[1],[0.4666666666666667],vertical,"(390.0, 762.0)",0.55,0.428,1,6500.359,3,0.0,same
0,825,catch,"[(1164, 784)]",[],[1],[],vertical,"(890.0, 762.0)",1.7,nan,1,6505.47,3,0.0,same
0,826,valid,"[(1131, 808)]",[],[1],[0.6333333333333333],horizontal,"(890.0, 762.0)",1.1666666666666667,0.591,1,6511.644,3,0.0,same
0,827,invalid_same_bar,"[(1160, 780)]",[],[1],[0.4666666666666667],horizontal,"(390.0, 762.0)",1.5166666666666666,0.426,1,6517.698,3,0.0,same
0,828,invalid_same_bar,"[(1160, 787)]",[],[1],[0.4666666666666667],horizontal,"(890.0, 262.0)",0.9666666666666667,0.437,1,6524.124,3,0.0,same
0,829,catch,"[(1160, 788)]",[],[1],[],vertical,"(890.0, 762.0)",1.7,nan,1,6529.656,3,0.0,same
0,830,invalid_adjacent_other_bar,"[(1135, 788)]",[],[1],[0.65],horizontal,"(390.0, 762.0)",0.4166666666666667,0.609,1,6535.369,3,0.0,other
0,831,catch,"[(1163, 772)]",[],[1],[],vertical,"(390.0, 262.0)",1.7,nan,1,6540.691,3,0.0,same
0,832,valid,"[(1165, 752), (1105, 798)]",[],"[0, 1]",[0.7],vertical,"(890.0, 262.0)",0.5166666666666666,0.652,1,6546.411,3,0.0,same
0,833,catch,"[(1132, 766)]",[],[1],[],vertical,"(890.0, 762.0)",1.7,nan,1,6553.97,3,0.0,same
0,834,valid,"[(1121, 794)]",[],[1],[0.5],horizontal,"(890.0, 762.0)",1.25,0.462,1,6560.228,3,0.0,same
0,835,valid,"[(1137, 777)]",[],[1],[0.48333333333333334],horizontal,"(890.0, 262.0)",0.5833333333333334,0.442,1,6566.144,3,0.0,same
0,836,invalid_adjacent_other_bar,"[(1131, 785)]",[],[1],[0.5],vertical,"(390.0, 762.0)",0.65,0.461,1,6571.73,3,0.0,other
0,837,valid,"[(1131, 774)]",[],[1],[0.6333333333333333],horizontal,"(890.0, 262.0)",0.65,0.594,1,6577.228,3,0.0,same
0,838,valid,"[(1158, 782)]",[],[1],[0.5],vertical,"(890.0, 762.0)",1.1,0.461,1,6583.145,3,0.0,same
0,839,invalid_adjacent_other_bar,"[(1155, 753), (1090, 805)]",[],"[0, 1]",[0.85],vertical,"(390.0, 262.0)",0.35,nan,0,6588.886,0,0.0,other
0,840,catch,"[(1121, 778)]",[],[1],[],horizontal,"(890.0, 262.0)",1.7,nan,1,6595.005,1,0.0,same
0,841,valid,"[(1166, 775)]",[],[1],[0.5666666666666667],vertical,"(390.0, 762.0)",1.3,0.528,1,6600.253,1,0.0,same
0,842,valid,"[(1112, 759)]",[],[1],[0.85],horizontal,"(390.0, 762.0)",0.4666666666666667,nan,0,6605.403,0,0.0,same
0,843,valid,"[(1109, 766)]",[],[1],[0.48333333333333334],horizontal,"(390.0, 762.0)",1.3333333333333333,0.445,1,6609.384,1,0.0,same
0,844,valid,"[(1155, 773)]",[],[1],[0.5333333333333333],horizontal,"(390.0, 762.0)",1.45,0.491,1,6614.652,1,0.0,same
0,845,catch,"[(1126, 747), (1121, 792)]",[],"[0, 1]",[],horizontal,"(390.0, 762.0)",1.7,nan,1,6619.724,1,0.0,same
0,846,invalid_same_bar,"[(1141, 774)]",[],[1],[0.6333333333333333],horizontal,"(890.0, 262.0)",0.8333333333333334,0.591,1,6626.234,2,0.0,same
0,847,valid,"[(1141, 792)]",[],[1],[0.55],horizontal,"(390.0, 262.0)",1.3166666666666667,0.505,1,6631.929,2,0.0,same
0,848,valid,"[(1136, 794)]",[],[1],[0.6166666666666667],horizontal,"(890.0, 262.0)",0.35,0.578,1,6637.352,2,0.0,same
0,849,valid,"[(1136, 772)]",[],[1],[0.6],vertical,"(890.0, 262.0)",0.9333333333333333,0.557,1,6642.295,3,0.0,same
0,850,valid,"[(1126, 769)]",[],[1],[0.4666666666666667],vertical,"(890.0, 762.0)",1.2666666666666666,0.425,1,6648.358,3,0.0,same
0,851,catch,"[(1169, 770)]",[],[1],[],horizontal,"(390.0, 762.0)",1.7,nan,1,6654.218,3,0.0,same
0,852,valid,"[(1135, 770)]",[],[1],[0.5833333333333334],horizontal,"(390.0, 762.0)",1.1666666666666667,0.537,1,6660.013,3,0.0,same
0,853,valid,"[(1141, 810)]",[],[1],[0.85],vertical,"(390.0, 262.0)",0.7666666666666666,nan,0,6666.445,0,0.0,same
0,854,valid,"[(1134, 782)]",[],[1],[0.85],horizontal,"(390.0, 762.0)",1.4833333333333334,nan,0,6670.994,0,0.0,same
0,855,valid,"[(1123, 769)]",[],[1],[0.55],vertical,"(390.0, 262.0)",0.5333333333333333,0.512,1,6676.345,1,0.0,same
0,856,valid,"[(1131, 778)]",[],[1],[0.5333333333333333],horizontal,"(390.0, 762.0)",1.4833333333333334,0.496,1,6681.185,1,0.0,same
0,857,catch,"[(1160, 794)]",[],[1],[],vertical,"(890.0, 762.0)",1.7,nan,1,6686.295,1,0.0,same
0,858,catch,"[(1129, 789)]",[],[1],[],horizontal,"(890.0, 762.0)",1.7,nan,1,6691.278,2,0.0,same
0,859,valid,"[(1070, 827)]",[],[1],[0.6333333333333333],vertical,"(390.0, 762.0)",0.5666666666666667,0.586,1,6697.18,2,0.0,same
0,860,valid,"[(1115, 794)]",[],[1],[0.5666666666666667],vertical,"(890.0, 762.0)",0.6833333333333333,0.525,1,6702.613,2,0.0,same
0,861,invalid_adjacent_other_bar,"[(1132, 787)]",[],[1],[0.5666666666666667],horizontal,"(890.0, 262.0)",1.3,0.527,1,6707.98,3,0.0,other
0,862,valid,"[(1126, 783)]",[],[1],[0.85],vertical,"(890.0, 262.0)",0.5,nan,0,6714.132,0,0.0,same
0,863,valid,"[(1077, 776)]",[],[1],[0.5166666666666666],vertical,"(390.0, 762.0)",0.65,0.474,1,6718.613,1,0.0,same
0,864,valid,"[(1123, 779)]",[],[1],[0.5833333333333334],vertical,"(390.0, 762.0)",1.25,0.547,1,6723.579,1,0.0,same
0,865,catch,"[(1145, 779)]",[],[1],[],vertical,"(890.0, 762.0)",1.7,nan,1,6729.062,1,0.0,same
0,866,catch,"[(1081, 849)]",[],[1],[],horizontal,"(390.0, 262.0)",1.7,nan,1,6734.079,2,0.0,same
