block,trial,trial_type,taps_start_loc_during_fix,taps_end_loc_during_fix,taps_on_lever_during_fix,taps_on_lever_s_during_fix,bar_orientation,target_xy,cti,rt,acc,time,pulses
0,1,catch,"[(1059, 829)]",[],[1],[],vertical,"(890.0, 262.0)",1.6,nan,1,0.434,1
0,2,catch,"[(1001, 802), (1045, 854)]",[],"[0, 1]",[],vertical,"(390.0, 762.0)",1.6,nan,1,12.763,1
0,3,target,"[(1041, 825)]",[],[1],[0.5333333333333333],horizontal,"(890.0, 262.0)",0.8666666666666667,0.49,1,471.971,2
0,4,target,"[(1061, 791)]",[],[1],[0.3],vertical,"(390.0, 762.0)",1.3333333333333333,0.263,1,477.351,2
0,5,target,"[(1036, 768)]",[],[1],[0.5666666666666667],horizontal,"(890.0, 762.0)",0.5833333333333334,0.524,1,482.641,2
0,6,target,"[(1052, 793)]",[],[1],[0.31666666666666665],vertical,"(890.0, 262.0)",1.3166666666666667,0.276,1,487.762,2
0,7,catch,"[(1056, 761)]",[],[1],[],horizontal,"(390.0, 262.0)",1.6,nan,1,493.379,3
0,8,target,"[(1041, 786)]",[],[1],[0.16666666666666666],vertical,"(390.0, 762.0)",1.55,0.135,0,498.846,0
0,9,target,"[(1039, 791)]",[],[1],[0.85],vertical,"(390.0, 762.0)",0.7666666666666666,nan,0,503.662,0
0,10,target,"[(1033, 782)]",[],[1],[0.85],horizontal,"(890.0, 762.0)",0.8666666666666667,nan,0,508.246,0
0,11,target,"[(1053, 795)]",[],[1],[0.55],horizontal,"(390.0, 262.0)",0.7666666666666666,0.508,1,512.962,1
0,12,target,"[(1053, 791)]",[],[1],[0.5833333333333334],horizontal,"(390.0, 262.0)",0.9,0.545,1,518.247,1
0,13,target,"[(1037, 796)]",[],[1],[0.48333333333333334],vertical,"(890.0, 762.0)",1.2833333333333332,0.439,1,523.488,2
0,14,target,"[(1032, 762)]",[],[1],[0.75],vertical,"(390.0, 762.0)",1.2333333333333334,0.712,1,529.207,2
0,15,target,"[(1045, 770)]",[],[1],[0.45],horizontal,"(890.0, 262.0)",1.3333333333333333,0.416,1,534.876,2
0,16,target,"[(1038, 786)]",[],[1],[0.6666666666666666],vertical,"(390.0, 762.0)",1.05,0.622,1,540.563,2
0,17,target,"[(1033, 753), (1035, 824)]",[],"[0, 1]",[0.5833333333333334],horizontal,"(890.0, 762.0)",1.0666666666666667,0.539,1,545.946,3
0,18,target,"[(1041, 808)]",[],[1],[0.4166666666666667],horizontal,"(890.0, 762.0)",1.4,0.382,1,552.529,3
0,19,target,"[(1033, 796)]",[],[1],[0.65],horizontal,"(390.0, 262.0)",1.2833333333333332,0.608,1,558.698,3
0,20,target,"[(1052, 796)]",[],[1],[0.7666666666666666],vertical,"(890.0, 762.0)",1.0166666666666666,0.715,1,564.73,3
0,21,target,"[(1037, 772)]",[],[1],[0.5666666666666667],vertical,"(890.0, 262.0)",0.9166666666666666,0.525,1,570.895,3
0,22,target,"[(1045, 781)]",[],[1],[0.6833333333333333],vertical,"(890.0, 762.0)",1.0333333333333332,0.65,1,576.664,3
0,23,target,"[(1034, 782)]",[],[1],[0.55],vertical,"(390.0, 762.0)",1.35,0.511,1,582.763,3
0,24,target,"[(1049, 787)]",[],[1],[0.5833333333333334],horizontal,"(390.0, 262.0)",1.2166666666666666,0.54,1,588.652,3
0,25,target,"[(1036, 786)]",[],[1],[0.7833333333333333],vertical,"(390.0, 762.0)",0.6666666666666666,0.737,1,594.664,3
0,26,target,"[(1060, 777)]",[],[1],[0.5],vertical,"(890.0, 262.0)",0.9,0.458,1,600.547,3
0,27,target,"[(1052, 770)]",[],[1],[0.7],horizontal,"(390.0, 262.0)",0.95,0.665,1,606.296,3
0,28,catch,"[(1036, 792)]",[],[1],[],vertical,"(390.0, 262.0)",1.6,nan,1,612.274,3
0,29,target,"[(1037, 772)]",[],[1],[0.45],vertical,"(890.0, 262.0)",1.2333333333333334,0.407,1,618.28,3
0,30,target,"[(1041, 776)]",[],[1],[0.35],vertical,"(390.0, 262.0)",1.45,0.312,1,624.397,3
0,31,target,"[(1052, 770)]",[],[1],[0.85],vertical,"(390.0, 262.0)",1.1333333333333333,nan,0,630.347,0
0,32,target,"[(1040, 803)]",[],[1],[0.6],horizontal,"(390.0, 762.0)",1.4666666666666666,0.567,1,635.164,1
0,33,catch,"[(1053, 791)]",[],[1],[],horizontal,"(390.0, 262.0)",1.6,nan,1,640.521,1
0,34,target,"[(1038, 773)]",[],[1],[0.35],vertical,"(890.0, 262.0)",1.2833333333333332,0.314,1,645.297,2
0,35,target,"[(1049, 773)]",[],[1],[0.6],horizontal,"(890.0, 762.0)",0.8833333333333333,0.556,1,650.764,2
0,36,target,"[(1037, 768)]",[],[1],[0.6166666666666667],horizontal,"(390.0, 262.0)",1.0333333333333332,0.573,1,655.746,2
0,37,target,"[(1053, 786)]",[],[1],[0.35],horizontal,"(390.0, 262.0)",1.5,0.314,1,661.19,2
0,38,target,"[(1041, 782)]",[],[1],[0.21666666666666667],vertical,"(890.0, 262.0)",1.55,0.187,0,666.847,0
0,39,target,"[(1028, 795)]",[],[1],[0.5666666666666667],horizontal,"(890.0, 262.0)",0.7,0.526,1,671.963,1
0,40,target,"[(1029, 777)]",[],[1],[0.6166666666666667],horizontal,"(390.0, 262.0)",0.75,0.577,1,676.219,1
0,41,target,"[(1037, 774)]",[],[1],[0.3833333333333333],vertical,"(890.0, 762.0)",1.5,0.35,1,680.767,2
0,42,target,"[(1041, 778)]",[],[1],[0.5666666666666667],horizontal,"(890.0, 262.0)",0.7166666666666667,0.523,1,686.514,2
0,43,target,"[(1042, 781)]",[],[1],[0.85],horizontal,"(390.0, 762.0)",0.7333333333333333,nan,0,691.113,0
0,44,target,"[(1029, 766)]",[],[1],[0.75],horizontal,"(390.0, 262.0)",0.9166666666666666,0.712,1,695.869,1
0,45,target,"[(1041, 789)]",[],[1],[0.55],horizontal,"(890.0, 762.0)",0.8666666666666667,0.511,1,700.497,1
0,46,catch,"[(1037, 786)]",[],[1],[],horizontal,"(890.0, 762.0)",1.6,nan,1,705.363,2
0,47,target,"[(1056, 793)]",[],[1],[0.75],horizontal,"(390.0, 262.0)",1.0833333333333333,0.701,1,710.978,2
0,48,target,"[(1056, 767)]",[],[1],[0.48333333333333334],horizontal,"(890.0, 762.0)",1.2333333333333334,0.445,1,716.711,2
0,49,target,"[(1045, 784)]",[],[1],[0.65],vertical,"(390.0, 262.0)",0.6,0.603,1,722.13,2
0,50,target,"[(1045, 787)]",[],[1],[0.65],vertical,"(390.0, 762.0)",0.8166666666666667,0.613,1,727.429,3
0,51,target,"[(1037, 756)]",[],[1],[0.2],horizontal,"(390.0, 262.0)",1.5166666666666666,0.169,0,733.164,0
0,52,target,"[(1038, 791)]",[],[1],[0.25],vertical,"(390.0, 262.0)",1.4166666666666667,0.215,1,738.053,1
0,53,target,"[(1037, 756)]",[],[1],[0.5166666666666666],horizontal,"(390.0, 262.0)",1.2,0.475,1,742.913,1
0,54,target,"[(1054, 772)]",[],[1],[0.7333333333333333],vertical,"(390.0, 762.0)",0.95,0.689,1,748.103,2
0,55,target,"[(1049, 781)]",[],[1],[0.5666666666666667],vertical,"(890.0, 762.0)",0.8,0.52,1,753.514,2
0,56,catch,"[(1037, 786)]",[],[1],[],vertical,"(390.0, 762.0)",1.6,nan,1,758.504,2
0,57,target,"[(1037, 806)]",[],[1],[0.6666666666666666],horizontal,"(390.0, 762.0)",0.5833333333333334,0.62,1,763.907,2
0,58,catch,"[(1035, 777)]",[],[1],[],horizontal,"(390.0, 262.0)",,"('cti', 1.408),nan",0,804.147,0
0,59,target,"[(1040, 796)]",[],[1],[0.35],vertical,"(890.0, 762.0)",0.5666666666666667,0.318,1,808.666,1
0,60,target,"[(1045, 789)]",[],[1],[0.7666666666666666],vertical,"(390.0, 262.0)",0.6666666666666666,0.725,1,813.326,1
0,61,target,"[(1037, 772)]",[],[1],[],horizontal,"(390.0, 762.0)",,"('cti', 1.042)",0,818.513,0
0,62,target,"[(1037, 785)]",[],[1],[0.6333333333333333],horizontal,"(390.0, 262.0)",0.8,0.599,1,823.059,1
0,63,target,"[(1066, 794)]",[],[1],[0.85],horizontal,"(890.0, 762.0)",0.8333333333333334,nan,0,827.598,0
0,64,catch,"[(1029, 806)]",[],[1],[],horizontal,"(890.0, 262.0)",1.6,nan,1,831.94,1
0,65,target,"[(1038, 778)]",[],[1],[0.5166666666666666],horizontal,"(890.0, 262.0)",0.9166666666666666,0.481,1,836.546,1
0,66,target,"[(1037, 782)]",[],[1],[0.7333333333333333],horizontal,"(390.0, 262.0)",0.9166666666666666,0.694,1,840.863,2
0,67,target,"[(1055, 778)]",[],[1],[0.75],horizontal,"(890.0, 762.0)",0.6833333333333333,0.704,1,846.363,2
0,68,target,"[(1040, 781)]",[],[1],[0.55],vertical,"(890.0, 262.0)",0.6666666666666666,0.508,1,851.965,2
0,69,target,"[(1037, 765)]",[],[1],[0.6666666666666666],vertical,"(890.0, 262.0)",0.65,0.627,1,857.382,2
0,70,target,"[(1045, 781)]",[],[1],[0.6666666666666666],horizontal,"(390.0, 262.0)",0.55,0.63,1,862.447,3
0,71,target,"[(1045, 780)]",[],[1],[0.5833333333333334],vertical,"(890.0, 762.0)",0.5333333333333333,0.543,1,868.135,3
0,72,target,"[(1045, 786)]",[],[1],[0.7166666666666667],horizontal,"(890.0, 262.0)",1.1666666666666667,0.676,1,873.293,3
0,73,target,"[(1031, 782)]",[],[1],[0.6166666666666667],vertical,"(390.0, 262.0)",1.4,0.575,1,879.245,3
0,74,target,"[(1039, 776)]",[],[1],[0.6666666666666666],vertical,"(890.0, 262.0)",0.6833333333333333,0.621,1,885.212,3
0,75,target,"[(1053, 771)]",[],[1],[0.6166666666666667],vertical,"(390.0, 262.0)",0.8,0.58,1,890.714,3
0,76,target,"[(1052, 786)]",[],[1],[0.3333333333333333],horizontal,"(390.0, 762.0)",1.4166666666666667,0.297,1,896.365,3
0,77,catch,"[(1035, 785)]",[],[1],[],vertical,"(890.0, 762.0)",1.6,nan,1,902.663,3
0,78,catch,"[(1032, 769)]",[],[1],[],vertical,"(890.0, 762.0)",1.6,nan,1,908.633,3
0,79,catch,"[(1045, 777)]",[],[1],[],vertical,"(890.0, 762.0)",1.6,nan,1,914.532,3
0,80,target,"[(1037, 799)]",[],[1],[0.85],horizontal,"(390.0, 262.0)",0.55,nan,0,920.247,0
0,81,target,"[(1029, 791)]",[],[1],[0.36666666666666664],horizontal,"(890.0, 762.0)",1.4666666666666666,0.335,1,924.847,1
0,82,target,"[(1029, 777)]",[],[1],[0.26666666666666666],horizontal,"(890.0, 762.0)",1.45,0.229,1,929.965,1
0,83,target,"[(1053, 781)]",[],[1],[0.5833333333333334],vertical,"(390.0, 762.0)",1.2666666666666666,0.542,1,935.247,2
0,84,target,"[(1041, 769)]",[],[1],[0.5833333333333334],horizontal,"(390.0, 262.0)",1.5833333333333333,0.538,1,940.88,2
0,85,target,"[(1055, 781)]",[],[1],[0.6],horizontal,"(890.0, 262.0)",1.3166666666666667,0.56,1,946.449,2
0,86,target,"[(1057, 796)]",[],[1],[0.18333333333333332],horizontal,"(390.0, 762.0)",1.5,0.148,0,952.014,0
0,87,target,"[(1038, 787)]",[],[1],[0.55],horizontal,"(890.0, 762.0)",1.1166666666666667,0.508,1,956.915,1
0,88,target,"[(1036, 787)]",[],[1],[0.6],vertical,"(390.0, 262.0)",1.1666666666666667,0.557,1,962.097,1
0,89,catch,"[(1041, 802)]",[],[1],[],horizontal,"(390.0, 262.0)",1.6,nan,1,967.581,2
0,90,target,"[(1042, 786)]",[],[1],[0.5333333333333333],vertical,"(890.0, 262.0)",1.3833333333333333,0.492,1,973.402,2
0,91,target,"[(1037, 776)]",[],[1],[0.25],vertical,"(890.0, 762.0)",1.55,0.213,1,978.981,2
0,92,target,"[(1038, 775)]",[],[1],[0.21666666666666667],vertical,"(890.0, 762.0)",1.5666666666666667,0.185,0,984.402,0
0,93,target,"[(1035, 789)]",[],[1],[0.7166666666666667],vertical,"(890.0, 762.0)",0.5166666666666666,0.679,1,989.07,1
0,94,target,"[(1040, 782)]",[],[1],[0.3],horizontal,"(390.0, 262.0)",1.45,0.266,1,993.698,1
0,95,catch,"[(1055, 788)]",[],[1],[],horizontal,"(890.0, 262.0)",1.6,nan,1,999.167,2
0,96,target,"[(1059, 770)]",[],[1],[0.55],vertical,"(390.0, 262.0)",1.25,0.504,1,1004.548,2
0,97,target,"[(1045, 801)]",[],[1],[0.85],horizontal,"(890.0, 762.0)",0.6333333333333333,nan,0,1009.63,0
0,98,target,"[(1029, 776)]",[],[1],[0.5333333333333333],vertical,"(890.0, 262.0)",1.2833333333333332,0.489,1,1013.948,1
0,99,target,"[(1034, 797)]",[],[1],[0.5833333333333334],horizontal,"(390.0, 262.0)",1.1166666666666667,0.544,1,1018.898,1
0,100,target,"[(1037, 772)]",[],[1],[0.5333333333333333],horizontal,"(890.0, 262.0)",1.1833333333333333,0.492,1,1024.352,2
0,101,target,"[(1041, 790)]",[],[1],[0.85],horizontal,"(390.0, 262.0)",0.6333333333333333,nan,0,1029.981,0
0,102,target,"[(1040, 818)]",[],[1],[0.85],horizontal,"(390.0, 762.0)",0.6333333333333333,nan,0,1034.416,0
0,103,target,"[(1038, 800)]",[],[1],[0.6666666666666666],horizontal,"(390.0, 762.0)",0.85,0.623,1,1040.182,1
0,104,target,"[(1061, 791)]",[],[1],[0.35],vertical,"(890.0, 262.0)",1.5333333333333332,0.31,1,1044.874,1
0,105,target,"[(1047, 774)]",[],[1],[0.75],vertical,"(390.0, 762.0)",0.6833333333333333,0.701,1,1050.167,2
0,106,target,"[(1057, 776)]",[],[1],[0.55],horizontal,"(890.0, 262.0)",0.6833333333333333,0.509,1,1055.522,2
0,107,target,"[(1057, 787)]",[],[1],[0.36666666666666664],horizontal,"(890.0, 262.0)",1.4833333333333334,0.331,1,1060.591,2
0,108,target,"[(1052, 783)]",[],[1],[0.48333333333333334],vertical,"(890.0, 762.0)",1.25,0.439,1,1066.348,2
0,109,target,"[(1057, 792)]",[],[1],[0.5333333333333333],horizontal,"(890.0, 262.0)",0.5,0.491,1,1072.245,3
0,110,target,"[(1044, 790)]",[],[1],[0.6666666666666666],horizontal,"(890.0, 762.0)",0.85,0.622,1,1077.349,3
0,111,target,"[(1037, 780)]",[],[1],[0.5666666666666667],vertical,"(890.0, 262.0)",1.35,0.526,1,1082.798,3
0,112,target,"[(1038, 792)]",[],[1],[0.3],vertical,"(390.0, 262.0)",1.5166666666666666,0.263,1,1088.821,3
0,113,target,"[(1035, 774)]",[],[1],[0.35],horizontal,"(890.0, 262.0)",1.4666666666666666,0.311,1,1094.747,3
0,114,target,"[(1036, 765)]",[],[1],[0.6],vertical,"(390.0, 262.0)",1.05,0.559,1,1100.798,3
0,115,target,"[(1033, 771)]",[],[1],[0.5166666666666666],horizontal,"(890.0, 262.0)",1.0166666666666666,0.471,1,1106.347,3
0,116,target,"[(1041, 760)]",[],[1],[0.7],horizontal,"(390.0, 762.0)",1.0666666666666667,0.655,1,1112.381,3
0,117,catch,"[(1039, 781)]",[],[1],[],vertical,"(890.0, 762.0)",1.6,nan,1,1118.357,3
0,118,target,"[(1037, 787)]",[],[1],[0.85],horizontal,"(890.0, 262.0)",0.6166666666666667,nan,0,1124.486,0
0,119,target,"[(1037, 786)]",[],[1],[0.6166666666666667],vertical,"(890.0, 262.0)",0.9666666666666667,0.576,1,1128.984,1
0,120,target,"[(1036, 782)]",[],[1],[0.5833333333333334],horizontal,"(890.0, 262.0)",1.5833333333333333,0.542,1,1133.882,1
0,121,target,"[(1056, 806)]",[],[1],[0.6333333333333333],horizontal,"(890.0, 262.0)",1.0,0.591,1,1139.014,2
0,122,target,"[(1056, 781)]",[],[1],[0.65],horizontal,"(390.0, 262.0)",0.8166666666666667,0.601,1,1144.165,2
0,123,target,"[(1052, 766)]",[],[1],[0.65],vertical,"(890.0, 762.0)",0.85,0.609,1,1149.597,2
0,124,target,"[(1035, 786)]",[],[1],[0.85],horizontal,"(890.0, 262.0)",0.55,nan,0,1154.631,0
0,125,target,"[(1036, 781)]",[],[1],[0.6833333333333333],horizontal,"(390.0, 262.0)",1.0666666666666667,0.638,1,1159.399,1
0,126,target,"[(1037, 782)]",[],[1],[],horizontal,"(390.0, 762.0)",,"('cti', 1.089)",0,1164.349,0
0,127,target,"[(1058, 776)]",[],[1],[0.5333333333333333],horizontal,"(390.0, 262.0)",0.7333333333333333,0.491,1,1168.92,1
0,128,target,"[(1033, 769)]",[],[1],[0.65],horizontal,"(890.0, 262.0)",0.9333333333333333,0.601,1,1173.549,1
0,129,target,"[(1033, 776)]",[],[1],[0.4],horizontal,"(890.0, 262.0)",1.5833333333333333,0.364,1,1178.632,2
0,130,target,"[(1037, 782)]",[],[1],[0.85],horizontal,"(890.0, 762.0)",0.8166666666666667,nan,0,1184.27,0
0,131,catch,"[(1035, 785)]",[],[1],[],horizontal,"(390.0, 262.0)",,"('cti', 1.453),nan",0,1189.167,0
0,132,target,"[(1033, 781)]",[],[1],[0.7],horizontal,"(890.0, 762.0)",0.8833333333333333,0.657,1,1193.931,1
0,133,target,"[(1035, 790)]",[],[1],[0.85],vertical,"(890.0, 762.0)",0.7333333333333333,nan,0,1198.561,0
0,134,target,"[(1037, 779)]",[],[1],[0.7],vertical,"(390.0, 262.0)",0.6166666666666667,0.653,1,1203.182,1
0,135,target,"[(1037, 770)]",[],[1],[0.5],horizontal,"(390.0, 762.0)",1.25,0.459,1,1207.49,1
0,136,catch,"[(1055, 779)]",[],[1],[],vertical,"(890.0, 262.0)",1.6,nan,1,1213.128,2
0,137,catch,"[(1030, 798)]",[],[1],[],vertical,"(390.0, 262.0)",1.6,nan,1,1218.829,2
0,138,target,"[(1062, 777)]",[],[1],[0.6166666666666667],vertical,"(890.0, 262.0)",1.2833333333333332,0.569,1,1223.851,2
0,139,target,"[(1037, 778)]",[],[1],[0.48333333333333334],vertical,"(890.0, 762.0)",1.4333333333333333,0.441,1,1229.349,2
0,140,target,"[(1034, 764)]",[],[1],[0.6333333333333333],horizontal,"(890.0, 762.0)",0.8666666666666667,0.586,1,1235.213,3
0,141,target,"[(1035, 781)]",[],[1],[0.5],vertical,"(390.0, 762.0)",1.2666666666666666,0.462,1,1241.149,3
0,142,target,"[(1038, 771)]",[],[1],[0.85],horizontal,"(890.0, 262.0)",0.7,nan,0,1247.165,0
0,143,target,"[(1038, 803)]",[],[1],[0.55],vertical,"(890.0, 762.0)",0.9,0.51,1,1251.625,1
0,144,target,"[(1038, 788)]",[],[1],[0.06666666666666667],vertical,"(390.0, 762.0)",1.5833333333333333,0.037,0,1256.815,0
0,145,target,"[(1037, 791)]",[],[1],[0.6833333333333333],horizontal,"(390.0, 762.0)",0.5666666666666667,0.637,1,1261.494,1
0,146,target,"[(1041, 771)]",[],[1],[0.5666666666666667],vertical,"(890.0, 262.0)",1.1166666666666667,0.525,1,1266.315,1
0,147,target,"[(1049, 781)]",[],[1],[0.65],horizontal,"(890.0, 262.0)",0.9833333333333333,0.604,1,1271.548,2
0,148,target,"[(1036, 785)]",[],[1],[0.48333333333333334],vertical,"(890.0, 762.0)",1.2666666666666666,0.449,1,1277.113,2
0,149,target,"[(1041, 798)]",[],[1],[0.85],horizontal,"(890.0, 762.0)",0.7333333333333333,nan,0,1282.632,0
0,150,catch,"[(1037, 792)]",[],[1],[],vertical,"(890.0, 262.0)",1.6,nan,1,1287.249,1
0,151,target,"[(1037, 776)]",[],[1],[0.8333333333333334],vertical,"(890.0, 262.0)",1.15,0.78,1,1292.232,1
0,152,target,"[(1037, 781)]",[],[1],[0.5],horizontal,"(390.0, 262.0)",1.55,0.458,1,1297.191,2
0,153,catch,"[(1040, 771)]",[],[1],[],vertical,"(890.0, 262.0)",1.6,nan,1,1302.848,2
0,154,target,"[(1057, 769)]",[],[1],[0.35],horizontal,"(890.0, 762.0)",1.55,0.312,1,1308.098,2
0,155,target,"[(1036, 772)]",[],[1],[],vertical,"(390.0, 762.0)",,"('cti', 1.39)",0,1313.414,0
0,156,catch,"[(1033, 780)]",[],[1],[],vertical,"(890.0, 262.0)",1.6,nan,1,1318.207,1
0,157,target,"[(1033, 765)]",[],[1],[0.7166666666666667],vertical,"(890.0, 262.0)",1.15,0.678,1,1323.323,1
0,158,target,"[(1041, 781)]",[],[1],[0.6333333333333333],horizontal,"(890.0, 262.0)",0.7166666666666667,0.591,1,1328.259,2
0,159,catch,"[(1037, 776)]",[],[1],[],horizontal,"(390.0, 262.0)",1.6,nan,1,1333.281,2
0,160,target,"[(1045, 772)]",[],[1],[0.5666666666666667],horizontal,"(390.0, 262.0)",1.0,0.523,1,1338.899,2
0,161,target,"[(1037, 782)]",[],[1],[0.5166666666666666],horizontal,"(390.0, 762.0)",1.2333333333333334,0.471,1,1344.156,2
0,162,catch,"[(1045, 784)]",[],[1],[],horizontal,"(390.0, 762.0)",1.6,nan,1,1349.297,3
0,163,target,"[(1038, 776)]",[],[1],[0.55],vertical,"(890.0, 262.0)",1.2833333333333332,0.511,1,1355.12,3
0,164,catch,"[(1040, 786)]",[],[1],[],horizontal,"(390.0, 762.0)",1.6,nan,1,1360.814,3
0,165,target,"[(1038, 789)]",[],[1],[0.85],vertical,"(390.0, 762.0)",0.6833333333333333,nan,0,1366.114,0
0,166,target,"[(1028, 783)]",[],[1],[0.6666666666666666],vertical,"(390.0, 262.0)",1.0,0.622,1,1370.817,1
0,167,target,"[(1049, 792)]",[],[1],[0.6],vertical,"(890.0, 262.0)",0.65,0.557,1,1375.981,1
0,168,target,"[(1041, 781)]",[],[1],[0.1],vertical,"(390.0, 262.0)",1.5166666666666666,0.069,0,1380.347,0
0,169,catch,"[(1017, 791)]",[],[1],[],vertical,"(390.0, 262.0)",1.6,nan,1,1385.065,1
0,170,target,"[(1029, 805)]",[],[1],[0.3],horizontal,"(390.0, 762.0)",1.15,0.265,1,1390.898,1
0,171,target,"[(1023, 797)]",[],[1],[0.85],vertical,"(390.0, 262.0)",0.55,nan,0,1396.216,0
0,172,target,"[(1017, 783)]",[],[1],[0.65],vertical,"(390.0, 262.0)",0.7166666666666667,0.611,1,1400.865,1
0,173,target,"[(1033, 777)]",[],[1],[0.5333333333333333],horizontal,"(890.0, 262.0)",1.1,0.495,1,1405.983,1
0,174,target,"[(1036, 786)]",[],[1],[0.5833333333333334],horizontal,"(890.0, 262.0)",1.2166666666666666,0.537,1,1411.176,2
0,175,target,"[(1045, 785)]",[],[1],[0.85],horizontal,"(390.0, 262.0)",0.7166666666666667,nan,0,1416.681,0
0,176,target,"[(1029, 792)]",[],[1],[0.85],horizontal,"(390.0, 262.0)",0.75,nan,0,1421.315,0
0,177,target,"[(1037, 860)]",[],[1],[0.31666666666666665],vertical,"(390.0, 262.0)",1.55,0.285,1,1426.432,1
0,178,catch,"[(1037, 798)]",[],[1],[],vertical,"(390.0, 762.0)",,"('cti', 1.548),nan",0,1561.465,0
0,179,target,"[(992, 786), (1033, 806)]",[],"[0, 1]",[0.6333333333333333],horizontal,"(390.0, 262.0)",0.7166666666666667,0.591,1,1566.49,1
0,180,target,"[(1024, 809)]",[],[1],[0.75],horizontal,"(390.0, 262.0)",0.9666666666666667,0.705,1,1575.257,1
0,181,target,"[(1041, 782)]",[],[1],[0.6166666666666667],horizontal,"(390.0, 262.0)",1.3,0.57,1,1580.265,2
0,182,target,"[(1037, 799)]",[],[1],[0.75],horizontal,"(890.0, 262.0)",1.0,0.708,1,1585.951,2
0,183,target,"[(1049, 761)]",[],[1],[0.5666666666666667],vertical,"(890.0, 762.0)",1.1333333333333333,0.525,1,1591.665,2
0,184,target,"[(1017, 796)]",[],[1],[0.6166666666666667],horizontal,"(390.0, 262.0)",0.75,0.582,1,1597.191,2
0,185,target,"[(1029, 802)]",[],[1],[0.85],horizontal,"(890.0, 762.0)",0.65,nan,0,1603.365,0
0,186,catch,"[(1024, 791)]",[],[1],[],vertical,"(890.0, 262.0)",1.6,nan,1,1607.915,1
0,187,target,"[(1035, 821)]",[],[1],[0.65],vertical,"(890.0, 762.0)",0.95,0.604,1,1612.869,1
0,188,target,"[(1037, 787)]",[],[1],[0.6],horizontal,"(890.0, 262.0)",0.7833333333333333,0.561,1,1618.351,2
0,189,catch,"[(1055, 794)]",[],[1],[],vertical,"(890.0, 762.0)",1.6,nan,1,1623.866,2
0,190,target,"[(1037, 785)]",[],[1],[0.23333333333333334],vertical,"(390.0, 762.0)",1.4666666666666666,0.197,0,1629.183,0
0,191,target,"[(1037, 803)]",[],[1],[0.7166666666666667],horizontal,"(390.0, 262.0)",0.6833333333333333,0.665,1,1634.068,1
0,192,target,"[(1034, 752), (1037, 794)]",[],"[0, 1]",[0.5833333333333334],horizontal,"(390.0, 762.0)",1.05,0.54,1,1638.801,1
0,193,target,"[(1053, 781)]",[],[1],[0.5833333333333334],vertical,"(390.0, 762.0)",0.9166666666666666,0.541,1,1644.966,2
0,194,target,"[(1054, 803)]",[],[1],[0.7],vertical,"(890.0, 262.0)",0.5666666666666667,0.66,1,1650.135,2
0,195,catch,"[(1033, 785)]",[],[1],[],vertical,"(390.0, 762.0)",1.6,nan,1,1655.183,2
0,196,target,"[(1057, 821)]",[],[1],[0.6333333333333333],vertical,"(390.0, 762.0)",0.6833333333333333,0.582,1,1660.444,2
0,197,target,"[(1033, 781)]",[],[1],[0.6166666666666667],horizontal,"(390.0, 762.0)",1.0666666666666667,0.576,1,1665.265,3
0,198,catch,"[(1059, 818)]",[],[1],[],horizontal,"(890.0, 262.0)",,"('cti', 1.097),nan",0,1670.712,0
0,199,catch,"[(1001, 792), (1037, 791)]",[],"[0, 1]",[],horizontal,"(890.0, 762.0)",,"('cti', 1.281),nan",0,1675.099,0
0,200,target,"[(1035, 798)]",[],[1],[0.7],horizontal,"(390.0, 262.0)",1.1,0.661,1,1681.201,1
0,201,target,"[(1037, 790)]",[],[1],[0.7],vertical,"(890.0, 262.0)",0.6666666666666666,0.654,1,1686.649,1
0,202,catch,"[(1040, 781)]",[],[1],[],horizontal,"(390.0, 262.0)",,"('cti', 1.566),nan",0,1691.316,0
0,203,target,"[(1000, 839), (1037, 816)]",[],"[0, 1]",[0.7166666666666667],horizontal,"(890.0, 262.0)",0.5,0.676,1,1696.142,1
0,204,target,"[(1037, 777)]",[],[1],[0.3833333333333333],vertical,"(390.0, 762.0)",1.3833333333333333,0.347,1,1705.566,1
0,205,catch,"[(1041, 800)]",[],[1],[],horizontal,"(390.0, 262.0)",1.6,nan,1,1711.099,2
0,206,target,"[(1056, 790)]",[],[1],[0.6333333333333333],vertical,"(890.0, 762.0)",1.0333333333333332,0.594,1,1716.549,2
0,207,target,"[(1055, 789)]",[],[1],[0.5333333333333333],vertical,"(890.0, 262.0)",0.8833333333333333,0.488,1,1721.927,2
0,208,target,"[(1049, 779)]",[],[1],[0.3333333333333333],horizontal,"(890.0, 262.0)",1.4166666666666667,0.296,1,1727.238,2
0,209,target,"[(1039, 790)]",[],[1],[0.65],horizontal,"(390.0, 262.0)",0.8,0.611,1,1732.926,3
0,210,target,"[(1058, 804)]",[],[1],[0.6333333333333333],horizontal,"(890.0, 762.0)",0.8666666666666667,0.591,1,1738.449,3
0,211,target,"[(1037, 801)]",[],[1],[0.6333333333333333],vertical,"(890.0, 262.0)",0.8,0.588,1,1743.782,3
0,212,target,"[(1033, 789)]",[],[1],[0.6],vertical,"(390.0, 262.0)",0.9833333333333333,0.556,1,1749.684,3
0,213,catch,"[(1046, 778)]",[],[1],[],horizontal,"(890.0, 762.0)",1.6,nan,1,1755.716,3
0,214,target,"[(1038, 772)]",[],[1],[0.85],vertical,"(390.0, 762.0)",0.75,nan,0,1761.746,0
0,215,target,"[(1032, 796)]",[],[1],[0.5666666666666667],horizontal,"(890.0, 262.0)",1.3666666666666667,0.525,1,1766.282,1
0,216,target,"[(1046, 781)]",[],[1],[0.7833333333333333],vertical,"(390.0, 262.0)",1.3,0.738,1,1771.401,1
0,217,target,"[(1038, 786)]",[],[1],[0.5666666666666667],horizontal,"(390.0, 762.0)",1.05,0.533,1,1776.662,2
0,218,target,"[(1051, 782)]",[],[1],[0.6833333333333333],horizontal,"(390.0, 762.0)",0.6166666666666667,0.639,1,1782.217,2
0,219,target,"[(1054, 797)]",[],[1],[0.5],horizontal,"(390.0, 762.0)",1.3666666666666667,0.464,1,1786.816,2
0,220,target,"[(1051, 770)]",[],[1],[0.85],horizontal,"(890.0, 762.0)",0.6833333333333333,nan,0,1792.261,0
0,221,target,"[(1034, 784)]",[],[1],[0.6],vertical,"(890.0, 762.0)",0.65,0.563,1,1796.781,1
0,222,target,"[(1052, 771)]",[],[1],[0.21666666666666667],vertical,"(390.0, 762.0)",1.5666666666666667,0.183,0,1801.6,0
0,223,target,"[(1032, 785)]",[],[1],[0.6333333333333333],vertical,"(890.0, 762.0)",0.8,0.592,1,1806.599,1
0,224,target,"[(1037, 779)]",[],[1],[0.2],vertical,"(890.0, 262.0)",1.5666666666666667,0.169,0,1811.42,0
0,225,target,"[(1037, 784)]",[],[1],[0.55],horizontal,"(390.0, 762.0)",1.5,0.517,1,1816.633,1
0,226,target,"[(1055, 772)]",[],[1],[0.5666666666666667],vertical,"(390.0, 762.0)",1.2333333333333334,0.526,1,1821.765,1
0,227,target,"[(1039, 781)]",[],[1],[0.2833333333333333],horizontal,"(890.0, 262.0)",0.95,0.243,1,1827.179,2
0,228,target,"[(1041, 793)]",[],[1],[0.5333333333333333],horizontal,"(890.0, 262.0)",1.3,0.494,1,1831.733,2
0,229,target,"[(1037, 783)]",[],[1],[0.43333333333333335],vertical,"(390.0, 762.0)",1.2833333333333332,0.393,1,1836.934,2
0,230,target,"[(1038, 790)]",[],[1],[0.85],horizontal,"(390.0, 762.0)",0.75,nan,0,1842.193,0
0,231,target,"[(1031, 785)]",[],[1],[0.4666666666666667],horizontal,"(890.0, 262.0)",1.5666666666666667,0.43,1,1846.749,1
0,232,target,"[(1045, 791)]",[],[1],[0.6],horizontal,"(890.0, 262.0)",1.0166666666666666,0.558,1,1852.311,1
0,233,target,"[(1054, 783)]",[],[1],[0.08333333333333333],horizontal,"(390.0, 762.0)",1.6,0.053,0,1856.934,0
0,234,catch,"[(1059, 790)]",[],[1],[],vertical,"(390.0, 262.0)",1.6,nan,1,1861.599,1
0,235,target,"[(1038, 791)]",[],[1],[0.6],vertical,"(890.0, 262.0)",1.1333333333333333,0.559,1,1866.617,1
0,236,target,"[(1038, 782)]",[],[1],[0.5833333333333334],horizontal,"(890.0, 762.0)",0.6333333333333333,0.543,1,1871.666,2
0,237,target,"[(1037, 778)]",[],[1],[0.6333333333333333],horizontal,"(390.0, 262.0)",0.6166666666666667,0.589,1,1876.2,2
0,238,target,"[(1043, 783)]",[],[1],[0.13333333333333333],horizontal,"(390.0, 762.0)",1.45,0.1,0,1881.184,0
0,239,target,"[(1035, 789)]",[],[1],[0.7333333333333333],vertical,"(390.0, 762.0)",0.5666666666666667,0.691,1,1886.035,1
0,240,catch,"[(1053, 771)]",[],[1],[],horizontal,"(890.0, 262.0)",1.6,nan,1,1890.834,1
0,241,target,"[(1041, 786)]",[],[1],[0.3833333333333333],horizontal,"(390.0, 762.0)",0.7833333333333333,0.343,1,1895.963,2
0,242,target,"[(1058, 783)]",[],[1],[0.6666666666666666],horizontal,"(390.0, 262.0)",0.5333333333333333,0.622,1,1900.934,2
0,243,target,"[(1036, 795)]",[],[1],[0.5833333333333334],horizontal,"(890.0, 262.0)",0.7166666666666667,0.538,1,1906.109,2
0,244,target,"[(1052, 782)]",[],[1],[0.2833333333333333],horizontal,"(390.0, 762.0)",1.3666666666666667,0.247,1,1910.976,2
0,245,catch,"[(1034, 785)]",[],[1],[],horizontal,"(890.0, 262.0)",,"('cti', 1.434),nan",0,1916.549,0
0,246,target,"[(1037, 803)]",[],[1],[0.5166666666666666],horizontal,"(390.0, 762.0)",1.3666666666666667,0.48,1,1921.441,1
0,247,target,"[(1039, 792)]",[],[1],[0.85],horizontal,"(890.0, 762.0)",0.6833333333333333,nan,0,1926.521,0
0,248,target,"[(1027, 787)]",[],[1],[0.65],vertical,"(890.0, 262.0)",0.8166666666666667,0.604,1,1930.951,1
0,249,target,"[(1052, 775)]",[],[1],[0.65],vertical,"(390.0, 762.0)",0.8166666666666667,0.604,1,1936.433,1
0,250,catch,"[(1041, 784)]",[],[1],[],vertical,"(890.0, 262.0)",1.6,nan,1,1941.166,2
0,251,target,"[(1039, 777)]",[],[1],[0.5],vertical,"(390.0, 262.0)",1.3833333333333333,0.455,1,1946.155,2
0,252,target,"[(1057, 773)]",[],[1],[0.6],horizontal,"(890.0, 262.0)",0.5,0.557,1,1951.713,2
0,253,target,"[(1046, 780)]",[],[1],[0.85],horizontal,"(390.0, 262.0)",0.7166666666666667,nan,0,1956.411,0
0,254,catch,"[(1019, 780)]",[],[1],[],horizontal,"(390.0, 262.0)",1.6,nan,1,1960.666,1
0,255,target,"[(1039, 794)]",[],[1],[0.5],horizontal,"(890.0, 262.0)",1.0833333333333333,0.454,1,1965.544,1
0,256,target,"[(1040, 789)]",[],[1],[0.55],vertical,"(890.0, 762.0)",0.9833333333333333,0.505,1,1970.377,2
0,257,target,"[(1053, 782)]",[],[1],[0.7333333333333333],horizontal,"(390.0, 762.0)",0.85,0.682,1,1975.735,2
0,258,target,"[(1055, 787)]",[],[1],[0.85],vertical,"(890.0, 262.0)",0.7333333333333333,nan,0,1981.053,0
0,259,target,"[(1037, 796)]",[],[1],[0.85],horizontal,"(390.0, 262.0)",1.0166666666666666,nan,0,1985.517,0
0,260,target,"[(1017, 808)]",[],[1],[0.45],vertical,"(390.0, 262.0)",1.3,0.408,1,2004.35,1
0,261,catch,"[(1036, 812)]",[],[1],[],horizontal,"(890.0, 262.0)",1.6,nan,1,2009.177,1
0,262,target,"[(1035, 761)]",[],[1],[0.5833333333333334],vertical,"(390.0, 262.0)",0.5833333333333334,0.536,1,2014.017,2
0,263,target,"[(1025, 777)]",[],[1],[0.26666666666666666],horizontal,"(890.0, 262.0)",1.4833333333333334,0.227,1,2018.909,2
0,264,target,"[(1057, 778)]",[],[1],[0.85],horizontal,"(390.0, 262.0)",0.7333333333333333,nan,0,2024.684,0
0,265,target,"[(1038, 782)]",[],[1],[0.7],horizontal,"(890.0, 762.0)",1.5833333333333333,0.656,1,2029.167,1
0,266,target,"[(1055, 773)]",[],[1],[0.55],horizontal,"(890.0, 262.0)",1.15,0.505,1,2034.445,1
0,267,target,"[(1041, 786)]",[],[1],[0.5833333333333334],vertical,"(390.0, 762.0)",0.9,0.541,1,2039.737,2
0,268,target,"[(1037, 762)]",[],[1],[0.4666666666666667],horizontal,"(390.0, 262.0)",1.3,0.427,1,2045.083,2
0,269,catch,"[(1054, 765)]",[],[1],[],vertical,"(890.0, 262.0)",1.6,nan,1,2050.735,2
0,270,catch,"[(1038, 760)]",[],[1],[],horizontal,"(390.0, 762.0)",1.6,nan,1,2056.367,2
0,271,target,"[(1033, 790)]",[],[1],[0.6666666666666666],vertical,"(390.0, 762.0)",1.0333333333333332,0.622,1,2062.216,3
0,272,target,"[(1041, 789)]",[],[1],[0.3333333333333333],vertical,"(390.0, 262.0)",1.1333333333333333,0.293,1,2068.434,3
0,273,target,"[(1033, 779)]",[],[1],[0.55],horizontal,"(390.0, 262.0)",1.0,0.517,1,2074.014,3
0,274,catch,"[(1040, 786)]",[],[1],[],horizontal,"(890.0, 262.0)",1.6,nan,1,2079.814,3
0,275,target,"[(1021, 754)]",[],[1],[0.4166666666666667],horizontal,"(390.0, 262.0)",1.4666666666666666,0.378,1,2086.13,3
0,276,target,"[(1067, 803)]",[],[1],[0.35],horizontal,"(890.0, 262.0)",1.4666666666666666,0.312,1,2092.371,3
0,277,target,"[(1041, 781)]",[],[1],[0.85],horizontal,"(390.0, 262.0)",0.5333333333333333,nan,0,2098.419,0
0,278,target,"[(1030, 785)]",[],[1],[0.6],vertical,"(390.0, 762.0)",0.95,0.555,1,2102.901,1
0,279,target,"[(1033, 758)]",[],[1],[0.2833333333333333],horizontal,"(890.0, 762.0)",1.5,0.246,1,2107.985,1
0,280,target,"[(1052, 766)]",[],[1],[0.31666666666666665],horizontal,"(390.0, 262.0)",1.4333333333333333,0.277,1,2113.1,2
0,281,target,"[(1065, 755)]",[],[1],[0.6],vertical,"(390.0, 762.0)",1.4333333333333333,0.563,1,2118.65,2
0,282,target,"[(1068, 775)]",[],[1],[0.5833333333333334],horizontal,"(390.0, 762.0)",0.7666666666666666,0.536,1,2124.323,2
0,283,target,"[(1021, 762)]",[],[1],[0.4],horizontal,"(390.0, 762.0)",1.4833333333333334,0.366,1,2128.733,2
0,284,target,"[(1035, 775)]",[],[1],[0.5166666666666666],vertical,"(390.0, 262.0)",1.2666666666666666,0.477,1,2134.317,3
0,285,target,"[(1033, 781)]",[],[1],[0.55],vertical,"(390.0, 262.0)",1.35,0.509,1,2140.633,3
0,286,target,"[(1033, 773)]",[],[1],[0.5666666666666667],horizontal,"(890.0, 262.0)",0.5,0.523,1,2146.349,3
0,287,target,"[(1033, 779)]",[],[1],[0.85],horizontal,"(890.0, 262.0)",0.75,nan,0,2152.059,0
0,288,target,"[(1017, 778)]",[],[1],[0.85],horizontal,"(390.0, 262.0)",0.55,nan,0,2156.541,0
0,289,catch,"[(1022, 776)]",[],[1],[],horizontal,"(390.0, 262.0)",1.6,nan,1,2160.745,1
0,290,target,"[(1052, 779)]",[],[1],[0.5333333333333333],horizontal,"(390.0, 262.0)",1.2,0.49,1,2165.496,1
0,291,catch,"[(1053, 763)]",[],[1],[],vertical,"(390.0, 262.0)",1.6,nan,1,2169.999,2
0,292,target,"[(1050, 779)]",[],[1],[0.5333333333333333],vertical,"(390.0, 262.0)",1.0,0.491,1,2175.226,2
0,293,target,"[(1039, 781)]",[],[1],[0.5166666666666666],horizontal,"(890.0, 262.0)",0.6666666666666666,0.474,1,2180.233,2
0,294,catch,"[(1045, 786)]",[],[1],[],vertical,"(390.0, 262.0)",1.6,nan,1,2185.301,2
0,295,catch,"[(1037, 780)]",[],[1],[],horizontal,"(390.0, 762.0)",1.6,nan,1,2190.68,3
0,296,target,"[(1037, 783)]",[],[1],[0.26666666666666666],vertical,"(890.0, 762.0)",1.4,0.234,1,2196.3,3
0,297,catch,"[(1036, 776)]",[],[1],[],vertical,"(390.0, 262.0)",1.6,nan,1,2202.056,3
0,298,target,"[(1030, 787)]",[],[1],[0.4666666666666667],vertical,"(390.0, 262.0)",1.4166666666666667,0.427,1,2207.659,3
0,299,target,"[(1036, 777)]",[],[1],[0.5],horizontal,"(890.0, 262.0)",1.2666666666666666,0.457,1,2213.518,3
0,300,target,"[(1033, 779)]",[],[1],[0.85],horizontal,"(890.0, 262.0)",0.8333333333333334,nan,0,2219.571,0
0,301,target,"[(1036, 781)]",[],[1],[0.65],horizontal,"(890.0, 762.0)",0.95,0.604,1,2224.025,1
0,302,target,"[(1033, 786)]",[],[1],[0.85],horizontal,"(890.0, 762.0)",0.5333333333333333,nan,0,2229.185,0
0,303,catch,"[(1009, 798)]",[],[1],[],horizontal,"(390.0, 262.0)",1.6,nan,1,2233.684,1
0,304,target,"[(1023, 806)]",[],[1],[0.85],vertical,"(390.0, 262.0)",0.85,nan,0,2240.25,0
0,305,catch,"[(1037, 835)]",[],[1],[],vertical,"(890.0, 762.0)",1.6,nan,1,2244.884,1
0,306,catch,"[(1031, 786)]",[],[1],[],horizontal,"(390.0, 262.0)",1.6,nan,1,3962.921,1
0,307,target,"[(747, 390), (859, 371), (184, 573), (868, 469), (864, 591), (262, 341), (872, 420), (1037, 855)]",[],"[0, 0, 0, 0, 0, 0, 0, 1]",[0.6833333333333333],horizontal,"(390.0, 262.0)",1.2666666666666666,0.643,1,3967.555,2
0,308,target,"[(1017, 824)]",[],[1],[0.55],vertical,"(390.0, 262.0)",1.1,0.507,1,9483.891,2
0,309,target,"[(1017, 790)]",[],[1],[0.85],horizontal,"(890.0, 762.0)",0.55,nan,0,9489.371,0
0,310,target,"[(1027, 801)]",[],[1],[0.6],vertical,"(390.0, 762.0)",0.9,0.557,1,9493.846,1
0,311,target,"[(1037, 812)]",[],[1],[0.5666666666666667],horizontal,"(390.0, 262.0)",0.9,0.533,1,9499.136,1
0,312,catch,"[(1037, 793)]",[],[1],[],vertical,"(390.0, 762.0)",,"('cti', 1.546),nan",0,9504.268,0
0,313,target,"[(1033, 796)]",[],[1],[0.45],horizontal,"(390.0, 262.0)",1.55,0.408,1,9509.153,1
0,314,target,"[(1037, 800)]",[],[1],[0.4166666666666667],vertical,"(390.0, 262.0)",1.4166666666666667,0.376,1,9514.421,1
0,315,target,"[(1035, 796)]",[],[1],[0.4],horizontal,"(890.0, 762.0)",1.3333333333333333,0.357,1,9519.552,2
0,316,target,"[(1033, 802)]",[],[1],[0.3],vertical,"(890.0, 762.0)",1.5,0.263,1,9525.22,2
0,317,target,"[(1028, 798)]",[],[1],[0.6333333333333333],vertical,"(890.0, 762.0)",1.0833333333333333,0.59,1,9530.89,2
0,318,target,"[(1052, 811)]",[],[1],[0.25],horizontal,"(390.0, 762.0)",1.4166666666666667,0.214,1,9536.438,2
0,319,target,"[(1047, 802)]",[],[1],[0.7],horizontal,"(890.0, 262.0)",1.0333333333333332,0.658,1,9541.903,3
0,320,target,"[(1047, 806)]",[],[1],[0.75],horizontal,"(390.0, 762.0)",0.95,0.705,1,9548.188,3
0,321,target,"[(1035, 802)]",[],[1],[0.7],vertical,"(390.0, 762.0)",0.8,0.651,1,9554.43,3
0,322,target,"[(1066, 809)]",[],[1],[0.5833333333333334],horizontal,"(390.0, 262.0)",1.45,0.541,1,9560.153,3
0,323,target,"[(1052, 802)]",[],[1],[0.6666666666666666],vertical,"(390.0, 262.0)",0.8166666666666667,0.623,1,9566.071,3
0,324,target,"[(1057, 806)]",[],[1],[0.85],vertical,"(390.0, 762.0)",1.2333333333333334,"('cti', 1.224),nan",0,9571.937,0
0,325,target,"[(1033, 808)]",[],[1],[0.85],horizontal,"(390.0, 762.0)",0.6333333333333333,nan,0,9577.438,0
0,326,target,"[(1021, 835)]",[],[1],[0.7],vertical,"(390.0, 262.0)",1.4833333333333334,0.653,1,9581.921,1
0,327,target,"[(1036, 799)]",[],[1],[0.48333333333333334],horizontal,"(390.0, 762.0)",1.1666666666666667,0.443,1,9587.421,1
0,328,target,"[(1059, 797)]",[],[1],[0.5333333333333333],vertical,"(890.0, 762.0)",1.2166666666666666,0.494,1,9592.703,2
0,329,target,"[(1054, 817)]",[],[1],[0.85],horizontal,"(390.0, 762.0)",0.5166666666666666,nan,0,9598.036,0
0,330,target,"[(1032, 808)]",[],[1],[0.85],horizontal,"(390.0, 262.0)",0.6166666666666667,nan,0,9602.688,0
0,331,target,"[(1036, 810)]",[],[1],[0.7],horizontal,"(890.0, 262.0)",0.8166666666666667,0.661,1,9607.404,1
0,332,target,"[(1040, 796)]",[],[1],[0.31666666666666665],horizontal,"(390.0, 262.0)",1.4333333333333333,0.277,1,9612.37,1
0,333,target,"[(1037, 802)]",[],[1],[0.85],vertical,"(890.0, 762.0)",1.1166666666666667,nan,0,9617.404,0
0,334,target,"[(1036, 792)]",[],[1],[0.6666666666666666],horizontal,"(890.0, 762.0)",1.0666666666666667,0.618,1,9622.055,1
0,335,catch,"[(1037, 795)]",[],[1],[],vertical,"(390.0, 262.0)",1.6,nan,1,9627.237,1
0,336,target,"[(1052, 790)]",[],[1],[0.55],horizontal,"(890.0, 262.0)",0.5166666666666666,0.505,1,9632.054,2
0,337,target,"[(1044, 793)]",[],[1],[0.25],horizontal,"(890.0, 762.0)",1.45,0.209,1,9637.221,2
0,338,target,"[(1036, 797)]",[],[1],[0.55],horizontal,"(890.0, 762.0)",0.7333333333333333,0.507,1,9642.721,2
0,339,target,"[(1017, 788)]",[],[1],[0.55],horizontal,"(890.0, 762.0)",0.8666666666666667,0.51,1,9647.837,2
0,340,target,"[(1018, 789)]",[],[1],[0.6],horizontal,"(890.0, 762.0)",1.15,0.56,1,9653.288,3
0,341,target,"[(1038, 782)]",[],[1],[0.36666666666666664],vertical,"(890.0, 262.0)",0.9,0.327,1,9659.561,3
0,342,catch,"[(1045, 818)]",[],[1],[],vertical,"(390.0, 262.0)",1.6,nan,1,9664.787,3
0,343,target,"[(1052, 844)]",[],[1],[0.85],vertical,"(890.0, 262.0)",0.8833333333333333,nan,0,9765.82,0
0,344,catch,"[(1024, 796)]",[],[1],[],horizontal,"(390.0, 762.0)",,"('cti', 1.258),nan",0,9770.398,0
0,345,target,"[(1021, 806)]",[],[1],[0.55],horizontal,"(390.0, 262.0)",1.1333333333333333,0.511,1,9774.52,1
0,346,target,"[(1034, 793)]",[],[1],[0.25],horizontal,"(390.0, 762.0)",1.3166666666666667,0.213,1,9779.703,1
0,347,target,"[(1037, 787)]",[],[1],[0.55],horizontal,"(890.0, 262.0)",0.75,0.503,1,9784.795,2
0,348,target,"[(1027, 776)]",[],[1],[0.5833333333333334],vertical,"(890.0, 762.0)",0.8166666666666667,0.542,1,9789.877,2
0,349,catch,"[(1036, 786)]",[],[1],[0.03333333333333333],vertical,"(390.0, 762.0)",1.6,"0.02,nan",0,9794.855,0
0,350,target,"[(1037, 778)]",[],[1],[0.2833333333333333],vertical,"(390.0, 262.0)",1.35,0.246,1,9799.503,1
0,351,target,"[(1038, 791)]",[],[1],[0.7],vertical,"(390.0, 762.0)",0.6833333333333333,0.658,1,9804.647,1
0,352,target,"[(1038, 774)]",[],[1],[0.6333333333333333],horizontal,"(890.0, 762.0)",1.0166666666666666,0.583,1,9809.062,2
0,353,target,"[(1055, 797)]",[],[1],[0.6833333333333333],vertical,"(890.0, 262.0)",0.7833333333333333,0.643,1,9814.666,2
0,354,target,"[(1041, 795)]",[],[1],[0.5],vertical,"(390.0, 762.0)",1.1666666666666667,0.462,1,9819.936,2
0,355,catch,"[(1039, 786)]",[],[1],[],vertical,"(390.0, 262.0)",1.6,"('cti', 1.588),nan",0,9824.967,0
0,356,catch,"[(1038, 813)]",[],[1],[],horizontal,"(390.0, 262.0)",1.6,nan,1,9829.826,1
0,357,catch,"[(1039, 826)]",[],[1],[],vertical,"(890.0, 762.0)",1.6,nan,1,9834.341,1
0,358,target,"[(1036, 784)]",[],[1],[0.45],vertical,"(890.0, 262.0)",1.3333333333333333,0.409,1,9839.271,2
0,359,target,"[(1041, 786)]",[],[1],[0.7333333333333333],vertical,"(390.0, 262.0)",0.55,0.682,1,9844.721,2
0,360,target,"[(1041, 786)]",[],[1],[0.7333333333333333],vertical,"(390.0, 762.0)",0.7166666666666667,0.685,1,9849.871,2
0,361,catch,"[(1037, 794)]",[],[1],[],horizontal,"(890.0, 762.0)",1.6,nan,1,9855.005,2
0,362,target,"[(1036, 770)]",[],[1],[0.85],vertical,"(390.0, 762.0)",0.65,nan,0,9860.375,0
0,363,target,"[(1021, 804)]",[],[1],[0.45],vertical,"(890.0, 762.0)",1.2833333333333332,0.408,1,9864.929,1
0,364,target,"[(1039, 795)]",[],[1],[0.36666666666666664],vertical,"(390.0, 762.0)",1.2333333333333334,0.33,1,9869.971,1
0,365,target,"[(1037, 782)]",[],[1],[0.6166666666666667],vertical,"(890.0, 762.0)",0.75,0.57,1,9875.272,2
0,366,target,"[(1030, 778)]",[],[1],[0.85],vertical,"(890.0, 762.0)",0.5333333333333333,nan,0,9880.604,0
0,367,target,"[(1021, 803)]",[],[1],[0.75],vertical,"(390.0, 262.0)",0.5833333333333334,0.706,1,9885.305,1
0,368,target,"[(1038, 795)]",[],[1],[],vertical,"(390.0, 262.0)",,"('cti', 1.532)",0,9889.904,0
0,369,target,"[(1037, 791)]",[],[1],[0.3333333333333333],horizontal,"(390.0, 762.0)",0.8666666666666667,0.3,1,9894.434,1
0,370,catch,"[(1041, 797)]",[],[1],[],vertical,"(390.0, 262.0)",1.6,"('cti', 1.589),nan",0,9899.144,0
0,371,target,"[(1037, 790)]",[],[1],[0.16666666666666666],vertical,"(890.0, 262.0)",1.5666666666666667,0.134,0,9903.971,0
0,372,target,"[(1033, 781)]",[],[1],[0.35],vertical,"(390.0, 762.0)",1.2833333333333332,0.309,1,9908.738,1
0,373,target,"[(1037, 804)]",[],[1],[0.5833333333333334],vertical,"(890.0, 262.0)",1.0333333333333332,0.541,1,9913.822,1
0,374,target,"[(1042, 799)]",[],[1],[0.6166666666666667],horizontal,"(890.0, 262.0)",0.5666666666666667,0.573,1,9918.789,2
0,375,target,"[(1036, 806)]",[],[1],[0.5666666666666667],vertical,"(890.0, 262.0)",0.9166666666666666,0.524,1,9924.022,2
0,376,target,"[(1040, 779)]",[],[1],[0.85],horizontal,"(890.0, 762.0)",0.5666666666666667,nan,0,9929.321,0
0,377,catch,"[(1019, 808)]",[],[1],[],vertical,"(890.0, 262.0)",1.6,nan,1,9933.605,1
0,378,target,"[(1052, 791)]",[],[1],[0.4],vertical,"(890.0, 762.0)",1.3333333333333333,0.363,1,9938.819,1
0,379,catch,"[(1049, 792)]",[],[1],[],vertical,"(890.0, 262.0)",1.6,nan,1,9944.188,2
0,380,target,"[(1052, 792)]",[],[1],[0.6833333333333333],horizontal,"(390.0, 762.0)",0.7833333333333333,0.634,1,9949.578,2
0,381,target,"[(1037, 783)]",[],[1],[0.5666666666666667],horizontal,"(890.0, 262.0)",0.65,0.524,1,9954.599,2
0,382,catch,"[(1041, 793)]",[],[1],[],vertical,"(390.0, 262.0)",,"('cti', 1.525),nan",0,9959.789,0
0,383,target,"[(1037, 790)]",[],[1],[],horizontal,"(390.0, 762.0)",,"('cti', 1.123)",0,9964.689,0
0,384,target,"[(1029, 791)]",[],[1],[0.08333333333333333],vertical,"(890.0, 762.0)",1.5666666666666667,0.051,0,9968.772,0
0,385,target,"[(1035, 798)]",[],[1],[0.4666666666666667],horizontal,"(390.0, 762.0)",1.25,0.428,1,9973.513,1
0,386,catch,"[(1040, 787)]",[],[1],[],horizontal,"(390.0, 762.0)",,"('cti', 1.13),nan",0,9978.621,0
0,387,target,"[(1049, 800)]",[],[1],[0.7166666666666667],horizontal,"(890.0, 262.0)",0.6833333333333333,0.671,1,9983.104,1
0,388,target,"[(1043, 798)]",[],[1],[0.6166666666666667],vertical,"(390.0, 262.0)",1.0,0.58,1,9987.638,1
0,389,target,"[(1047, 798)]",[],[1],[0.2],horizontal,"(890.0, 262.0)",1.3166666666666667,0.168,0,9992.788,0
0,390,catch,"[(1022, 788)]",[],[1],[],vertical,"(390.0, 262.0)",1.6,nan,1,9997.739,1
0,391,target,"[(1037, 778)]",[],[1],[0.5833333333333334],horizontal,"(390.0, 762.0)",0.8666666666666667,0.551,1,10002.721,1
0,392,target,"[(1051, 793)]",[],[1],[0.2],vertical,"(390.0, 262.0)",1.45,0.17,0,10007.8,0
0,393,target,"[(1021, 781)]",[],[1],[0.7],horizontal,"(890.0, 262.0)",0.7,0.664,1,10012.722,1
0,394,target,"[(1038, 761)]",[],[1],[0.5166666666666666],vertical,"(890.0, 762.0)",0.8666666666666667,0.478,1,10017.258,1
0,395,target,"[(1036, 786)]",[],[1],[0.45],vertical,"(890.0, 762.0)",1.1833333333333333,0.42,1,10021.953,2
0,396,target,"[(1036, 780)]",[],[1],[0.16666666666666666],vertical,"(390.0, 762.0)",1.1333333333333333,0.135,0,10027.538,0
0,397,target,"[(1018, 768)]",[],[1],[0.5666666666666667],vertical,"(890.0, 762.0)",0.6833333333333333,0.52,1,10032.071,1
0,398,target,"[(1035, 781)]",[],[1],[0.06666666666666667],vertical,"(390.0, 262.0)",1.1666666666666667,0.038,0,10036.82,0
0,399,target,"[(1028, 783)]",[],[1],[0.5333333333333333],vertical,"(890.0, 262.0)",1.2833333333333332,0.49,1,10041.472,1
0,400,target,"[(1033, 791)]",[],[1],[],vertical,"(390.0, 762.0)",,"('cti', 1.451)",0,10046.372,0
0,401,target,"[(1035, 796)]",[],[1],[],vertical,"(390.0, 762.0)",,"('cti', 1.207)",0,10051.021,0
0,402,target,"[(1037, 794)]",[],[1],[0.7],vertical,"(390.0, 762.0)",0.5666666666666667,0.661,1,10055.341,1
0,403,target,"[(1042, 783)]",[],[1],[0.43333333333333335],horizontal,"(890.0, 762.0)",1.25,0.395,1,10060.153,1
0,404,target,"[(1045, 792)]",[],[1],[0.06666666666666667],horizontal,"(390.0, 262.0)",1.3,0.037,0,10065.244,0
0,405,target,"[(1040, 802)]",[],[1],[0.6166666666666667],vertical,"(390.0, 262.0)",1.35,0.575,1,10069.722,1
0,406,target,"[(1037, 794)]",[],[1],[0.5833333333333334],vertical,"(890.0, 762.0)",0.8,0.543,1,10074.739,1
0,407,target,"[(1052, 786)]",[],[1],[0.85],vertical,"(390.0, 762.0)",0.5166666666666666,nan,0,10079.705,0
0,408,target,"[(1017, 806)]",[],[1],[0.43333333333333335],vertical,"(390.0, 262.0)",1.2666666666666666,0.394,1,10083.838,1
0,409,target,"[(1035, 800)]",[],[1],[0.6],vertical,"(390.0, 262.0)",0.9666666666666667,0.558,1,10089.105,1
0,410,catch,"[(1037, 782)]",[],[1],[],vertical,"(390.0, 762.0)",,"('cti', 1.418),nan",0,10094.221,0
0,411,target,"[(1030, 796)]",[],[1],[0.11666666666666667],vertical,"(890.0, 762.0)",1.2333333333333334,0.084,0,10098.984,0
0,412,target,"[(1033, 792)]",[],[1],[0.85],vertical,"(890.0, 762.0)",0.6333333333333333,nan,0,10103.671,0
0,413,target,"[(1017, 786)]",[],[1],[0.85],vertical,"(390.0, 762.0)",0.6833333333333333,nan,0,10108.489,0
0,414,target,"[(1032, 786)]",[],[1],[0.6],vertical,"(890.0, 762.0)",1.05,0.558,1,10112.739,1
0,415,target,"[(1034, 811)]",[],[1],[0.5333333333333333],vertical,"(890.0, 262.0)",1.2666666666666666,0.493,1,10117.506,1
0,416,catch,"[(1036, 780)]",[],[1],[],horizontal,"(390.0, 762.0)",,"('cti', 1.044),nan",0,10122.405,0
0,417,target,"[(1028, 796)]",[],[1],[0.65],horizontal,"(890.0, 762.0)",1.0833333333333333,0.608,1,10126.688,1
0,418,target,"[(1033, 784)]",[],[1],[0.55],vertical,"(390.0, 262.0)",0.6666666666666666,0.51,1,10131.606,1
0,419,target,"[(1030, 766)]",[],[1],[0.3833333333333333],vertical,"(390.0, 262.0)",1.4333333333333333,0.346,1,10136.523,2
0,420,target,"[(1040, 795)]",[],[1],[0.48333333333333334],vertical,"(390.0, 262.0)",1.2833333333333332,0.446,1,10141.889,2
0,421,target,"[(1040, 781)]",[],[1],[0.3833333333333333],vertical,"(890.0, 262.0)",1.4666666666666666,0.341,1,10147.222,2
0,422,target,"[(1031, 791)]",[],[1],[0.5833333333333334],vertical,"(390.0, 262.0)",1.2333333333333334,0.535,1,10152.74,2
0,423,target,"[(1038, 795)]",[],[1],[0.31666666666666665],horizontal,"(890.0, 762.0)",1.45,0.281,1,10158.556,3
0,424,target,"[(1034, 791)]",[],[1],[0.85],vertical,"(890.0, 262.0)",0.5166666666666666,nan,0,10164.688,0
0,425,target,"[(1018, 809)]",[],[1],[0.5666666666666667],vertical,"(890.0, 262.0)",0.6333333333333333,0.527,1,10169.388,1
0,426,target,"[(1037, 794)]",[],[1],[0.6333333333333333],horizontal,"(390.0, 762.0)",0.6333333333333333,0.594,1,10173.639,1
0,427,target,"[(1053, 784)]",[],[1],[0.5333333333333333],horizontal,"(890.0, 262.0)",1.1833333333333333,0.493,1,10177.989,2
0,428,catch,"[(1035, 783)]",[],[1],[],vertical,"(890.0, 262.0)",1.6,nan,1,10183.39,2
0,429,target,"[(1029, 829)]",[],[1],[0.2833333333333333],horizontal,"(890.0, 262.0)",1.5,0.242,1,10189.003,2
0,430,target,"[(1037, 781)]",[],[1],[0.7],vertical,"(390.0, 762.0)",1.1166666666666667,0.652,1,10194.606,2
0,431,target,"[(1035, 778)]",[],[1],[0.85],horizontal,"(890.0, 762.0)",0.7666666666666666,nan,0,10199.938,0
0,432,target,"[(1021, 788)]",[],[1],[0.75],horizontal,"(890.0, 762.0)",1.0833333333333333,0.7,1,10204.389,1
0,433,target,"[(1033, 776)]",[],[1],[0.26666666666666666],horizontal,"(390.0, 762.0)",1.5,0.229,1,10209.581,1
0,434,target,"[(1024, 782)]",[],[1],[0.7333333333333333],vertical,"(890.0, 762.0)",0.9,0.684,1,10214.639,2
0,435,target,"[(1056, 782)]",[],[1],[0.3333333333333333],horizontal,"(890.0, 762.0)",1.5,0.292,1,10220.422,2
0,436,target,"[(1038, 787)]",[],[1],[0.35],vertical,"(890.0, 762.0)",1.4833333333333334,0.317,1,10225.755,2
0,437,catch,"[(1051, 796)]",[],[1],[],vertical,"(390.0, 762.0)",1.6,nan,1,10231.622,2
0,438,catch,"[(1033, 783)]",[],[1],[],horizontal,"(890.0, 762.0)",1.6,nan,1,10237.156,3
0,439,target,"[(1055, 776)]",[],[1],[0.6333333333333333],horizontal,"(390.0, 762.0)",0.6166666666666667,0.594,1,10243.039,3
0,440,target,"[(1043, 777)]",[],[1],[0.25],horizontal,"(890.0, 762.0)",1.3833333333333333,0.218,1,10248.754,3
0,441,target,"[(1023, 789)]",[],[1],[0.6],vertical,"(390.0, 262.0)",1.1166666666666667,0.557,1,10254.522,3
0,442,target,"[(1033, 777)]",[],[1],[0.36666666666666664],horizontal,"(890.0, 262.0)",1.2166666666666666,0.33,1,10260.52,3
0,443,target,"[(1031, 790)]",[],[1],[0.6333333333333333],horizontal,"(890.0, 262.0)",0.5666666666666667,0.588,1,10266.022,3
0,444,catch,"[(1037, 786)]",[],[1],[],vertical,"(890.0, 262.0)",1.6,nan,1,10271.353,3
0,445,target,"[(1021, 777)]",[],[1],[0.55],horizontal,"(890.0, 762.0)",1.0166666666666666,0.514,1,10277.222,3
0,446,target,"[(1033, 786)]",[],[1],[0.5333333333333333],vertical,"(390.0, 762.0)",1.15,0.494,1,10282.954,3
0,447,target,"[(1029, 777)]",[],[1],[0.1],vertical,"(890.0, 762.0)",1.55,0.068,0,10288.976,0
0,448,target,"[(1033, 786)]",[],[1],[0.5666666666666667],horizontal,"(890.0, 762.0)",0.8833333333333333,0.53,1,10294.072,1
0,449,target,"[(1037, 786)]",[],[1],[0.4666666666666667],horizontal,"(390.0, 262.0)",1.55,0.429,1,10299.124,1
0,450,target,"[(1036, 791)]",[],[1],[0.21666666666666667],vertical,"(390.0, 262.0)",1.25,0.185,0,10304.624,0
0,451,target,"[(1037, 791)]",[],[1],[0.1],vertical,"(390.0, 262.0)",1.05,0.067,0,10309.356,0
0,452,target,"[(1009, 801)]",[],[1],[0.85],horizontal,"(890.0, 762.0)",0.6166666666666667,nan,0,10313.723,0
0,453,catch,"[(1015, 803)]",[],[1],[],vertical,"(390.0, 762.0)",1.6,nan,1,10318.682,1
0,454,target,"[(1044, 798)]",[],[1],[0.35],horizontal,"(390.0, 762.0)",1.4833333333333334,0.319,1,10323.94,1
0,455,target,"[(1036, 781)]",[],[1],[0.2],vertical,"(390.0, 762.0)",1.5666666666666667,0.168,0,10328.938,0
0,456,target,"[(1033, 789)]",[],[1],[0.7],vertical,"(890.0, 262.0)",0.9,0.656,1,10333.372,1
0,457,target,"[(1037, 784)]",[],[1],[0.5833333333333334],vertical,"(890.0, 762.0)",1.1166666666666667,0.543,1,10338.455,1
0,458,target,"[(1013, 771)]",[],[1],[0.7333333333333333],horizontal,"(390.0, 262.0)",0.9,0.7,1,10343.857,2
0,459,target,"[(1029, 786)]",[],[1],[0.3833333333333333],vertical,"(890.0, 762.0)",1.45,0.346,1,10349.322,2
0,460,catch,"[(1027, 799)]",[],[1],[],vertical,"(390.0, 262.0)",1.6,nan,1,10354.672,2
0,461,target,"[(1021, 770)]",[],[1],[0.43333333333333335],vertical,"(890.0, 762.0)",1.35,0.399,1,10360.24,2
0,462,target,"[(1057, 786)]",[],[1],[0.7],vertical,"(890.0, 762.0)",1.1333333333333333,0.656,1,10365.522,3
0,463,target,"[(1043, 791)]",[],[1],[0.75],vertical,"(390.0, 262.0)",0.65,0.708,1,10371.175,3
0,464,catch,"[(1025, 784)]",[],[1],[],horizontal,"(390.0, 262.0)",1.6,nan,1,10376.69,3
0,465,target,"[(1023, 783)]",[],[1],[0.6166666666666667],vertical,"(390.0, 262.0)",0.6833333333333333,0.568,1,10382.522,3
0,466,target,"[(996, 788), (1035, 833)]",[],"[0, 1]",[0.23333333333333334],vertical,"(390.0, 262.0)",1.4166666666666667,0.197,0,10388.44,0
0,467,catch,"[(1041, 800)]",[],[1],[],horizontal,"(890.0, 762.0)",1.6,nan,1,10394.623,1
0,468,target,"[(1033, 786)]",[],[1],[0.5333333333333333],horizontal,"(890.0, 262.0)",1.2333333333333334,0.496,1,10399.456,1
0,469,catch,"[(1033, 776)]",[],[1],[],vertical,"(890.0, 762.0)",1.6,nan,1,10404.255,2
0,470,catch,"[(1033, 786)]",[],[1],[],vertical,"(890.0, 262.0)",1.6,nan,1,10409.622,2
0,471,target,"[(1036, 778)]",[],[1],[0.18333333333333332],vertical,"(890.0, 762.0)",1.2,0.151,0,10414.889,0
0,472,target,"[(1023, 784)]",[],[1],[0.7166666666666667],vertical,"(390.0, 262.0)",0.7666666666666666,0.673,1,10419.538,1
0,473,target,"[(1037, 777)]",[],[1],[0.7833333333333333],vertical,"(390.0, 262.0)",0.8666666666666667,0.731,1,10424.257,1
0,474,target,"[(1040, 788)]",[],[1],[0.6333333333333333],vertical,"(890.0, 762.0)",0.5166666666666666,0.588,1,10429.45,2
0,475,target,"[(1038, 791)]",[],[1],[],horizontal,"(390.0, 762.0)",,"('cti', 1.501)",0,10434.522,0
0,476,target,"[(1040, 798)]",[],[1],[0.5666666666666667],vertical,"(390.0, 262.0)",1.05,0.526,1,10439.197,1
0,477,target,"[(1024, 781)]",[],[1],[0.85],horizontal,"(390.0, 762.0)",0.6833333333333333,nan,0,10444.18,0
0,478,catch,"[(1026, 791)]",[],[1],[],horizontal,"(890.0, 762.0)",1.6,nan,1,10448.747,1
0,479,target,"[(1038, 790)]",[],[1],[0.6333333333333333],vertical,"(890.0, 262.0)",1.2166666666666666,0.59,1,10453.937,1
0,480,target,"[(1034, 787)]",[],[1],[0.5333333333333333],vertical,"(390.0, 262.0)",0.8666666666666667,0.491,1,10458.708,2
0,481,target,"[(1028, 782)]",[],[1],[0.6166666666666667],horizontal,"(390.0, 262.0)",0.55,0.573,1,10463.856,2
0,482,target,"[(1041, 778)]",[],[1],[0.3833333333333333],vertical,"(390.0, 262.0)",1.4333333333333333,0.34,1,10468.673,2
0,483,target,"[(1040, 778)]",[],[1],[0.6333333333333333],horizontal,"(890.0, 262.0)",0.9,0.593,1,10474.356,2
0,484,catch,"[(1036, 785)]",[],[1],[],horizontal,"(390.0, 762.0)",1.6,nan,1,10479.593,3
0,485,target,"[(1038, 785)]",[],[1],[0.7833333333333333],vertical,"(890.0, 262.0)",0.7,0.737,1,10485.356,3
0,486,target,"[(1049, 793)]",[],[1],[0.5166666666666666],horizontal,"(390.0, 762.0)",1.15,0.471,1,10490.925,3
0,487,target,"[(1041, 775)]",[],[1],[0.3333333333333333],vertical,"(890.0, 762.0)",1.5833333333333333,0.301,1,10496.707,3
0,488,catch,"[(1045, 787)]",[],[1],[],horizontal,"(890.0, 762.0)",1.6,nan,1,10502.607,3
0,489,target,"[(1037, 796)]",[],[1],[0.6666666666666666],vertical,"(890.0, 762.0)",0.8,0.617,1,10508.274,3
0,490,target,"[(1038, 773)]",[],[1],[0.3],horizontal,"(390.0, 762.0)",1.3666666666666667,0.262,1,10513.549,3
0,491,target,"[(1041, 773)]",[],[1],[0.5666666666666667],horizontal,"(390.0, 262.0)",1.0833333333333333,0.522,1,10519.589,3
0,492,target,"[(1053, 782)]",[],[1],[0.85],horizontal,"(890.0, 262.0)",0.5,nan,0,10525.589,0
0,493,target,"[(1037, 776)]",[],[1],[0.6],vertical,"(890.0, 762.0)",0.5333333333333333,0.562,1,10529.59,1
0,494,target,"[(1038, 770)]",[],[1],[0.6333333333333333],horizontal,"(390.0, 762.0)",0.7666666666666666,0.584,1,10534.156,1
0,495,target,"[(1040, 783)]",[],[1],[0.4],vertical,"(890.0, 762.0)",1.2,0.362,1,10538.696,2
0,496,catch,"[(1038, 776)]",[],[1],[],vertical,"(890.0, 762.0)",1.6,nan,1,10543.811,2
0,497,catch,"[(1024, 789)]",[],[1],[],vertical,"(890.0, 262.0)",1.6,nan,1,10549.484,2
0,498,target,"[(1037, 779)]",[],[1],[0.5833333333333334],horizontal,"(890.0, 262.0)",1.1166666666666667,0.538,1,10554.823,2
0,499,target,"[(1037, 793)]",[],[1],[0.7666666666666666],horizontal,"(890.0, 762.0)",0.9833333333333333,0.718,1,10560.073,3
0,500,target,"[(1037, 784)]",[],[1],[0.65],horizontal,"(890.0, 762.0)",0.9333333333333333,0.607,1,10566.222,3
0,501,target,"[(1037, 787)]",[],[1],[0.35],vertical,"(890.0, 262.0)",1.3166666666666667,0.311,1,10571.519,3
0,502,target,"[(1040, 782)]",[],[1],[0.6666666666666666],horizontal,"(890.0, 262.0)",0.7666666666666666,0.62,1,10577.439,3
0,503,target,"[(1043, 798)]",[],[1],[0.13333333333333333],horizontal,"(890.0, 762.0)",1.5666666666666667,0.099,0,10583.057,0
0,504,target,"[(1022, 790)]",[],[1],[0.31666666666666665],horizontal,"(890.0, 262.0)",1.5333333333333332,0.278,1,10587.606,1
0,505,target,"[(1040, 788)]",[],[1],[0.55],horizontal,"(890.0, 262.0)",0.7666666666666666,0.504,1,10592.94,1
0,506,target,"[(1035, 790)]",[],[1],[0.2833333333333333],horizontal,"(390.0, 762.0)",1.3,0.249,1,10597.456,2
0,507,target,"[(1040, 782)]",[],[1],[0.55],horizontal,"(890.0, 762.0)",1.1666666666666667,0.512,1,10602.941,2
0,508,target,"[(1040, 779)]",[],[1],[0.6833333333333333],horizontal,"(390.0, 762.0)",0.5166666666666666,0.653,1,10608.107,2
0,509,target,"[(1045, 780)]",[],[1],[0.6],vertical,"(390.0, 262.0)",0.95,0.56,1,10613.056,2
0,510,target,"[(1037, 781)]",[],[1],[0.6333333333333333],horizontal,"(890.0, 262.0)",0.8166666666666667,0.587,1,10618.525,3
0,511,catch,"[(1035, 773)]",[],[1],[],horizontal,"(890.0, 262.0)",1.6,nan,1,10624.262,3
0,512,target,"[(1005, 775)]",[],[1],[0.45],horizontal,"(390.0, 262.0)",1.4,0.412,1,10630.349,3
0,513,target,"[(1040, 788)]",[],[1],[0.6],vertical,"(390.0, 262.0)",0.75,0.558,1,10636.185,3
0,514,target,"[(993, 786), (1037, 807)]",[],"[0, 1]",[0.6],vertical,"(890.0, 262.0)",1.2333333333333334,0.551,1,10641.734,3
0,515,catch,"[(1037, 786)]",[],[1],[],vertical,"(890.0, 762.0)",,"('cti', 1.197),nan",0,10648.829,0
0,516,catch,"[(1041, 795)]",[],[1],[],horizontal,"(390.0, 262.0)",1.6,nan,1,10653.406,1
0,517,target,"[(1044, 795)]",[],[1],[0.5333333333333333],horizontal,"(390.0, 262.0)",0.6833333333333333,0.488,1,10658.123,1
0,518,target,"[(1041, 781)]",[],[1],[0.85],vertical,"(390.0, 762.0)",0.6166666666666667,nan,0,10663.039,0
0,519,target,"[(1050, 815)]",[],[1],[0.05],horizontal,"(390.0, 762.0)",1.55,0.019,0,10667.308,0
0,520,target,"[(1031, 818)]",[],[1],[0.6666666666666666],vertical,"(890.0, 762.0)",0.7166666666666667,0.622,1,10693.64,1
0,521,target,"[(1037, 786)]",[],[1],[0.2833333333333333],vertical,"(390.0, 262.0)",1.3833333333333333,0.248,1,10698.641,1
0,522,target,"[(1027, 783)]",[],[1],[0.6166666666666667],horizontal,"(890.0, 262.0)",0.7833333333333333,0.564,1,10703.74,2
0,523,target,"[(1043, 785)]",[],[1],[0.5],horizontal,"(390.0, 762.0)",0.6666666666666666,0.457,1,10708.978,2
0,524,target,"[(1041, 794)]",[],[1],[0.5],horizontal,"(890.0, 262.0)",1.5333333333333332,0.461,1,10714.091,2
0,525,target,"[(1036, 788)]",[],[1],[0.8],vertical,"(390.0, 762.0)",0.6166666666666667,0.755,1,10719.855,2
0,526,target,"[(1032, 807)]",[],[1],[0.6166666666666667],vertical,"(390.0, 262.0)",0.6333333333333333,0.573,1,10725.241,3
0,527,catch,"[(1029, 795)]",[],[1],[],horizontal,"(890.0, 262.0)",,"('cti', 1.122),nan",0,10730.373,0
0,528,target,"[(1042, 802)]",[],[1],[0.8],vertical,"(390.0, 762.0)",0.7666666666666666,0.75,1,10734.815,1
0,529,target,"[(1033, 805)]",[],[1],[0.5],vertical,"(390.0, 762.0)",1.3,0.459,1,10739.656,1
0,530,target,"[(1030, 795)]",[],[1],[0.6],vertical,"(390.0, 762.0)",0.65,0.559,1,10744.641,2
0,531,target,"[(1038, 781)]",[],[1],[0.15],vertical,"(890.0, 262.0)",1.5333333333333332,0.12,0,10749.455,0
0,532,target,"[(1050, 790)]",[],[1],[0.85],horizontal,"(890.0, 762.0)",0.55,nan,0,10754.49,0
0,533,target,"[(997, 790), (1036, 814)]",[],"[0, 1]",[],vertical,"(390.0, 762.0)",,"('cti', 1.507)",0,10759.24,0
0,534,target,"[(1038, 790)]",[],[1],[0.4],horizontal,"(390.0, 762.0)",1.1833333333333333,0.362,1,10766.116,1
0,535,target,"[(1038, 802)]",[],[1],[0.6333333333333333],vertical,"(890.0, 762.0)",0.8,0.586,1,10771.269,1
0,536,target,"[(1055, 792)]",[],[1],[0.31666666666666665],vertical,"(390.0, 262.0)",1.2666666666666666,0.278,1,10775.956,2
0,537,target,"[(1041, 788)]",[],[1],[0.48333333333333334],horizontal,"(890.0, 762.0)",1.3333333333333333,0.447,1,10781.035,2
0,538,target,"[(1063, 795)]",[],[1],[0.6333333333333333],horizontal,"(890.0, 762.0)",0.65,0.594,1,10786.79,2
0,539,target,"[(1054, 814)]",[],[1],[0.6],horizontal,"(390.0, 262.0)",1.0166666666666666,0.554,1,10791.685,2
0,540,target,"[(1035, 799)]",[],[1],[0.85],horizontal,"(890.0, 762.0)",0.55,nan,0,10797.418,0
0,541,catch,"[(1016, 795)]",[],[1],[],vertical,"(390.0, 762.0)",1.6,nan,1,10801.907,1
0,542,target,"[(1037, 794)]",[],[1],[0.4166666666666667],horizontal,"(890.0, 262.0)",1.3166666666666667,0.379,1,10806.801,1
0,543,target,"[(1021, 751), (1037, 802)]",[],"[0, 1]",[0.15],vertical,"(890.0, 762.0)",1.4,0.117,0,10811.824,0
0,544,target,"[(1038, 784)]",[],[1],[0.15],vertical,"(390.0, 762.0)",1.5833333333333333,0.116,0,10817.591,0
0,545,target,"[(1032, 785)]",[],[1],[0.4666666666666667],horizontal,"(390.0, 262.0)",1.2166666666666666,0.43,1,10822.174,1
0,546,target,"[(1038, 791)]",[],[1],[0.5833333333333334],vertical,"(890.0, 762.0)",0.7,0.545,1,10827.31,1
0,547,target,"[(1040, 767)]",[],[1],[0.75],vertical,"(390.0, 262.0)",0.7333333333333333,0.702,1,10832.674,2
0,548,target,"[(1037, 797)]",[],[1],[0.55],horizontal,"(390.0, 262.0)",0.8333333333333334,0.51,1,10837.776,2
0,549,catch,"[(1037, 796)]",[],[1],[],horizontal,"(390.0, 262.0)",1.6,nan,1,10842.981,2
0,550,target,"[(1044, 789)]",[],[1],[0.4166666666666667],horizontal,"(890.0, 762.0)",1.25,0.377,1,10848.14,2
0,551,catch,"[(1038, 793)]",[],[1],[],horizontal,"(890.0, 762.0)",1.6,nan,1,10853.457,3
0,552,target,"[(1038, 798)]",[],[1],[0.5833333333333334],horizontal,"(390.0, 262.0)",1.1166666666666667,0.542,1,10859.386,3
0,553,target,"[(1037, 792)]",[],[1],[0.8333333333333334],vertical,"(390.0, 762.0)",0.65,0.8,1,10865.041,3
0,554,target,"[(1039, 791)]",[],[1],[0.5833333333333334],horizontal,"(890.0, 262.0)",0.5,0.553,1,10870.474,3
0,555,target,"[(1040, 789)]",[],[1],[0.85],vertical,"(390.0, 262.0)",0.6166666666666667,nan,0,10875.572,0
0,556,target,"[(1046, 794)]",[],[1],[0.75],vertical,"(390.0, 762.0)",0.5333333333333333,0.712,1,10879.973,1
0,557,target,"[(1037, 791)]",[],[1],[0.48333333333333334],horizontal,"(390.0, 262.0)",1.4166666666666667,0.441,1,10884.807,1
0,558,catch,"[(1054, 788)]",[],[1],[],horizontal,"(890.0, 262.0)",1.6,nan,1,10889.841,2
0,559,catch,"[(1021, 802)]",[],[1],[],horizontal,"(890.0, 262.0)",,"('cti', 1.463),nan",0,10895.045,0
0,560,target,"[(1040, 792)]",[],[1],[0.6166666666666667],vertical,"(890.0, 262.0)",1.3,0.576,1,10899.738,1
0,561,catch,"[(1057, 791)]",[],[1],[],horizontal,"(890.0, 262.0)",1.6,nan,1,10904.813,1
0,562,target,"[(1037, 792)]",[],[1],[0.7],vertical,"(390.0, 262.0)",0.7333333333333333,0.656,1,10909.453,2
0,563,catch,"[(1040, 791)]",[],[1],[],vertical,"(390.0, 262.0)",,"('cti', 1.236),nan",0,10914.823,0
0,564,target,"[(1033, 796)]",[],[1],"[0.85, 0.85]",vertical,"(390.0, 762.0)",0.8333333333333334,"0.8,nan",0,10919.058,0
0,565,catch,"[(1052, 799)]",[],[1],[],horizontal,"(390.0, 762.0)",,"('cti', 1.301),nan",0,10923.9,0
0,566,target,"[(1060, 795)]",[],[1],[0.2833333333333333],vertical,"(890.0, 762.0)",1.45,0.249,1,10927.923,1
0,567,target,"[(1024, 794)]",[],[1],[0.85],horizontal,"(390.0, 762.0)",0.8166666666666667,nan,0,10932.857,0
0,568,target,"[(1040, 802)]",[],[1],[0.5833333333333334],horizontal,"(390.0, 762.0)",1.1166666666666667,0.538,1,10937.844,1
0,569,target,"[(1040, 786)]",[],[1],[0.3333333333333333],horizontal,"(390.0, 262.0)",1.45,0.297,1,10942.831,1
0,570,target,"[(1036, 786)]",[],[1],[0.85],horizontal,"(890.0, 762.0)",0.5333333333333333,nan,0,10947.907,0
0,571,target,"[(1040, 797)]",[],[1],[0.4666666666666667],vertical,"(890.0, 262.0)",1.2333333333333334,0.427,1,10952.126,1
0,572,target,"[(1037, 784)]",[],[1],[0.6833333333333333],horizontal,"(890.0, 762.0)",0.8166666666666667,0.641,1,10957.256,1
0,573,target,"[(1037, 797)]",[],[1],[0.85],horizontal,"(390.0, 762.0)",1.1333333333333333,nan,0,10962.39,0
0,574,target,"[(1037, 787)]",[],[1],[0.48333333333333334],vertical,"(890.0, 762.0)",1.25,0.441,1,10966.993,1
0,575,target,"[(1061, 797)]",[],[1],[0.4],horizontal,"(390.0, 762.0)",1.3,0.361,1,10972.058,1
0,576,target,"[(1057, 796)]",[],[1],[0.65],horizontal,"(890.0, 762.0)",1.0833333333333333,0.608,1,10977.241,2
0,577,target,"[(1040, 791)]",[],[1],[0.5],vertical,"(890.0, 762.0)",1.3,0.464,1,10982.525,2
0,578,target,"[(1049, 792)]",[],[1],[0.5666666666666667],horizontal,"(390.0, 262.0)",1.0333333333333332,0.53,1,10988.189,2
0,579,target,"[(1037, 807)]",[],[1],[0.85],vertical,"(390.0, 762.0)",0.55,nan,0,10993.678,0
0,580,target,"[(1041, 799)]",[],[1],[0.85],vertical,"(890.0, 762.0)",0.75,nan,0,10998.057,0
0,581,target,"[(1019, 785)]",[],[1],[0.6],vertical,"(890.0, 762.0)",0.8,0.56,1,11002.99,1
0,582,target,"[(1044, 751), (1014, 824)]",[],"[0, 1]",[0.2833333333333333],horizontal,"(390.0, 262.0)",1.35,0.247,1,11007.574,1
0,583,target,"[(1041, 798)]",[],[1],[0.5333333333333333],horizontal,"(390.0, 762.0)",1.3333333333333333,0.498,1,11014.158,2
0,584,target,"[(1033, 795)]",[],[1],[0.1],horizontal,"(390.0, 762.0)",1.3666666666666667,0.068,0,11019.29,0
0,585,target,"[(1039, 790)]",[],[1],[0.7333333333333333],horizontal,"(890.0, 262.0)",0.8166666666666667,0.692,1,11024.142,1
0,586,catch,"[(1036, 786)]",[],[1],[],horizontal,"(390.0, 762.0)",1.6,nan,1,11028.991,1
0,587,target,"[(1043, 789)]",[],[1],[0.21666666666666667],horizontal,"(890.0, 762.0)",1.5,0.181,0,11033.758,0
0,588,target,"[(1035, 795)]",[],[1],[0.5666666666666667],vertical,"(390.0, 762.0)",0.9666666666666667,0.524,1,11038.453,1
0,589,target,"[(1052, 792)]",[],[1],[0.5],vertical,"(890.0, 262.0)",0.95,0.462,1,11043.224,1
0,590,target,"[(1040, 772)]",[],[1],[0.6666666666666666],vertical,"(390.0, 762.0)",0.5166666666666666,0.62,1,11047.736,2
0,591,target,"[(1040, 776)]",[],[1],[0.85],horizontal,"(890.0, 762.0)",0.5333333333333333,nan,0,11052.559,0
0,592,target,"[(1036, 792)]",[],[1],[0.55],vertical,"(890.0, 262.0)",1.2,0.513,1,11056.875,1
0,593,target,"[(1044, 787)]",[],[1],[0.48333333333333334],vertical,"(390.0, 262.0)",0.7666666666666666,0.444,1,11061.833,1
0,594,target,"[(1041, 765)]",[],[1],[0.18333333333333332],vertical,"(390.0, 762.0)",1.5166666666666666,0.148,0,11066.774,0
0,595,target,"[(1040, 786)]",[],[1],[0.6166666666666667],horizontal,"(390.0, 262.0)",0.7166666666666667,0.58,1,11071.508,1
0,596,target,"[(1046, 765)]",[],[1],[0.6833333333333333],horizontal,"(390.0, 762.0)",0.9166666666666666,0.652,1,11076.082,1
0,597,target,"[(989, 786), (1052, 805)]",[],"[0, 1]",[0.36666666666666664],horizontal,"(390.0, 262.0)",1.2666666666666666,0.33,1,11081.042,2
0,598,target,"[(1052, 788)]",[],[1],[0.85],vertical,"(390.0, 762.0)",0.6,nan,0,11087.975,0
0,599,target,"[(1017, 785)]",[],[1],[0.5833333333333334],horizontal,"(890.0, 262.0)",1.5166666666666666,0.54,1,11092.308,1
0,600,target,"[(1044, 806)]",[],[1],[0.6666666666666666],horizontal,"(890.0, 262.0)",0.9833333333333333,0.624,1,11097.61,1
0,601,target,"[(1041, 780)]",[],[1],[0.2833333333333333],vertical,"(390.0, 762.0)",1.55,0.248,1,11102.442,2
0,602,target,"[(1044, 780)]",[],[1],[0.45],horizontal,"(390.0, 762.0)",0.9333333333333333,0.406,1,11108.074,2
0,603,target,"[(1033, 811)]",[],[1],[0.45],horizontal,"(390.0, 762.0)",0.8333333333333334,0.409,1,11113.674,2
0,604,catch,"[(1033, 790)]",[],[1],[],vertical,"(890.0, 262.0)",1.6,nan,1,11119.642,2
0,605,target,"[(1037, 800)]",[],[1],[0.2],vertical,"(890.0, 762.0)",1.4333333333333333,0.17,0,11125.053,0
0,606,catch,"[(1033, 788)]",[],[1],[],horizontal,"(890.0, 262.0)",1.6,nan,1,11129.874,1
0,607,target,"[(1037, 783)]",[],[1],[0.55],horizontal,"(390.0, 262.0)",0.85,0.513,1,11134.957,1
0,608,target,"[(1037, 769)]",[],[1],[0.5666666666666667],vertical,"(890.0, 262.0)",0.95,0.528,1,11139.989,2
0,609,target,"[(1042, 787)]",[],[1],[0.6333333333333333],vertical,"(390.0, 762.0)",0.6166666666666667,0.593,1,11145.008,2
0,610,target,"[(1022, 806)]",[],[1],[0.5333333333333333],horizontal,"(890.0, 262.0)",0.9,0.495,1,11149.527,2
0,611,target,"[(1032, 793)]",[],[1],[0.5666666666666667],horizontal,"(390.0, 762.0)",1.1333333333333333,0.532,1,11154.592,2
0,612,catch,"[(1033, 791)]",[],[1],[],horizontal,"(890.0, 262.0)",1.6,nan,1,11160.058,3
0,613,target,"[(1033, 790)]",[],[1],[0.3833333333333333],horizontal,"(890.0, 262.0)",1.55,0.351,1,11165.914,3
0,614,target,"[(1034, 787)]",[],[1],[0.35],horizontal,"(390.0, 262.0)",1.3833333333333333,0.318,1,11172.091,3
0,615,target,"[(1032, 806)]",[],[1],[0.85],vertical,"(390.0, 262.0)",0.7,nan,0,11178.057,0
0,616,target,"[(1023, 821)]",[],[1],[0.35],vertical,"(390.0, 262.0)",1.2666666666666666,0.312,1,11220.174,1
0,617,target,"[(1017, 807)]",[],[1],[0.5333333333333333],vertical,"(390.0, 262.0)",1.1,0.49,1,11225.058,1
0,618,target,"[(1025, 788)]",[],[1],[0.5],vertical,"(390.0, 262.0)",0.9666666666666667,0.464,1,11229.775,2
0,619,target,"[(1021, 804)]",[],[1],[0.6],horizontal,"(890.0, 262.0)",0.9,0.559,1,11234.826,2
0,620,target,"[(1029, 797)]",[],[1],[0.5333333333333333],horizontal,"(890.0, 262.0)",0.65,0.488,1,11239.812,2
0,621,target,"[(1052, 795)]",[],[1],[0.5666666666666667],horizontal,"(890.0, 762.0)",0.9333333333333333,0.522,1,11245.074,2
0,622,target,"[(1033, 796)]",[],[1],[0.5333333333333333],vertical,"(890.0, 262.0)",1.1666666666666667,0.495,1,11250.292,3
0,623,target,"[(1034, 807)]",[],[1],[0.85],horizontal,"(390.0, 262.0)",0.8666666666666667,nan,0,11256.391,0
0,624,target,"[(1026, 797)]",[],[1],[0.75],horizontal,"(890.0, 262.0)",0.7,0.705,1,11260.992,1
0,625,target,"[(1029, 776)]",[],[1],[0.7166666666666667],vertical,"(890.0, 762.0)",0.5666666666666667,0.671,1,11265.392,1
0,626,target,"[(1030, 796)]",[],[1],[0.85],vertical,"(390.0, 762.0)",0.9,nan,0,11270.142,0
0,627,target,"[(1033, 779)]",[],[1],[0.6833333333333333],vertical,"(890.0, 262.0)",0.5833333333333334,0.641,1,11275.241,1
0,628,target,"[(1050, 791)]",[],[1],[0.6],horizontal,"(390.0, 262.0)",0.7833333333333333,0.556,1,11280.249,1
0,629,catch,"[(1034, 786)]",[],[1],[0.03333333333333333],vertical,"(390.0, 262.0)",1.6,"0.018,nan",0,11284.694,0
0,630,target,"[(1031, 792)]",[],[1],[0.6833333333333333],horizontal,"(390.0, 762.0)",0.9,0.639,1,11289.344,1
0,631,target,"[(1045, 794)]",[],[1],[0.6166666666666667],vertical,"(890.0, 262.0)",1.0,0.58,1,11294.125,1
0,632,target,"[(1034, 799)]",[],[1],[0.5666666666666667],vertical,"(890.0, 262.0)",0.9,0.524,1,11299.008,2
0,633,target,"[(1033, 796)]",[],[1],[0.2],horizontal,"(890.0, 762.0)",1.5166666666666666,0.166,0,11304.191,0
0,634,target,"[(1038, 795)]",[],[1],[0.5666666666666667],horizontal,"(890.0, 262.0)",1.1833333333333333,0.524,1,11308.942,1
0,635,target,"[(1036, 776)]",[],[1],[0.6],vertical,"(890.0, 262.0)",0.9333333333333333,0.558,1,11313.843,1
0,636,target,"[(1029, 778)]",[],[1],[0.6333333333333333],vertical,"(890.0, 262.0)",1.1,0.591,1,11318.392,2
0,637,target,"[(1029, 779)]",[],[1],[0.21666666666666667],vertical,"(890.0, 762.0)",1.4166666666666667,0.179,0,11323.775,0
0,638,target,"[(1037, 789)]",[],[1],[0.85],horizontal,"(390.0, 262.0)",0.6,nan,0,11328.774,0
0,639,target,"[(1041, 804)]",[],[1],[0.75],horizontal,"(890.0, 262.0)",0.5666666666666667,0.707,1,11333.658,1
0,640,target,"[(1052, 781)]",[],[1],[0.6],vertical,"(390.0, 762.0)",0.8833333333333333,0.555,1,11338.443,1
0,641,catch,"[(1033, 792)]",[],[1],[],horizontal,"(390.0, 262.0)",,"('cti', 1.509),nan",0,11343.342,0
0,642,catch,"[(1045, 802)]",[],[1],[],vertical,"(890.0, 262.0)",1.6,nan,1,11348.237,1
0,643,target,"[(1052, 796)]",[],[1],[0.06666666666666667],horizontal,"(390.0, 762.0)",1.5666666666666667,0.035,0,11353.193,0
0,644,catch,"[(1033, 807)]",[],[1],[],vertical,"(890.0, 762.0)",1.6,nan,1,11357.879,1
0,645,target,"[(1036, 816)]",[],[1],[0.85],horizontal,"(890.0, 262.0)",1.0166666666666666,nan,0,11362.683,0
0,646,target,"[(1045, 797)]",[],[1],[0.85],vertical,"(390.0, 762.0)",0.7333333333333333,nan,0,11367.29,0
0,647,catch,"[(1025, 792)]",[],[1],[],vertical,"(390.0, 262.0)",1.6,nan,1,11372.06,1
0,648,catch,"[(1042, 781)]",[],[1],[],horizontal,"(390.0, 762.0)",1.6,"('cti', 1.612),nan",0,11376.787,0
0,649,target,"[(1038, 796)]",[],[1],[0.5333333333333333],vertical,"(890.0, 762.0)",0.9333333333333333,0.488,1,11381.658,1
0,650,catch,"[(1017, 791)]",[],[1],[],vertical,"(390.0, 262.0)",1.6,nan,1,11386.343,1
0,651,target,"[(1041, 824)]",[],[1],[0.7166666666666667],horizontal,"(890.0, 262.0)",0.7166666666666667,0.666,1,11391.476,2
0,652,target,"[(1017, 796)]",[],[1],[0.6166666666666667],horizontal,"(890.0, 762.0)",1.35,0.576,1,11396.575,2
0,653,target,"[(1038, 800)]",[],[1],[0.6166666666666667],vertical,"(390.0, 262.0)",1.1,0.569,1,11402.259,2
0,654,target,"[(1033, 803)]",[],[1],[0.6166666666666667],vertical,"(890.0, 762.0)",1.55,0.567,1,11407.976,2
0,655,target,"[(1029, 779)]",[],[1],[0.85],horizontal,"(390.0, 762.0)",0.7166666666666667,nan,0,11413.842,0
0,656,target,"[(1034, 795)]",[],[1],[0.5833333333333334],vertical,"(390.0, 262.0)",1.4333333333333333,0.538,1,11418.598,1
0,657,target,"[(1029, 805)]",[],[1],[0.4666666666666667],horizontal,"(890.0, 262.0)",1.35,0.431,1,11423.909,1
0,658,target,"[(1045, 796)]",[],[1],[0.5333333333333333],vertical,"(890.0, 762.0)",1.2166666666666666,0.494,1,11486.243,2
0,659,target,"[(1052, 820)]",[],[1],[0.65],horizontal,"(890.0, 262.0)",0.5,0.603,1,11491.549,2
0,660,target,"[(1051, 805)]",[],[1],[0.85],vertical,"(390.0, 762.0)",0.5666666666666667,nan,0,11496.541,0
0,661,target,"[(1021, 796)]",[],[1],[0.5666666666666667],vertical,"(890.0, 262.0)",0.9166666666666666,0.526,1,11500.806,1
0,662,target,"[(1053, 782)]",[],[1],[0.45],horizontal,"(890.0, 762.0)",1.3333333333333333,0.412,1,11505.791,1
0,663,target,"[(1034, 789)]",[],[1],[0.18333333333333332],horizontal,"(390.0, 762.0)",1.5666666666666667,0.151,0,11511.027,0
0,664,target,"[(1031, 799)]",[],[1],[0.8333333333333334],vertical,"(390.0, 762.0)",1.5833333333333333,0.784,1,11515.643,1
0,665,target,"[(1021, 807)]",[],[1],[0.6],vertical,"(390.0, 762.0)",0.95,0.552,1,11521.351,1
0,666,target,"[(1039, 799)]",[],[1],[0.6333333333333333],horizontal,"(390.0, 262.0)",1.0,0.587,1,11526.085,2
0,667,target,"[(1057, 795)]",[],[1],[0.45],vertical,"(390.0, 262.0)",1.1666666666666667,0.407,1,11531.217,2
0,668,target,"[(1052, 789)]",[],[1],[0.85],vertical,"(890.0, 762.0)",0.7,nan,0,11536.908,0
0,669,target,"[(998, 791), (1031, 799)]",[],"[0, 1]",[0.75],vertical,"(890.0, 762.0)",1.0,0.705,1,11541.274,1
0,670,target,"[(1033, 797)]",[],[1],[0.45],vertical,"(890.0, 762.0)",1.45,0.413,1,11548.308,1
0,671,catch,"[(1035, 784)]",[],[1],[],vertical,"(390.0, 762.0)",1.6,nan,1,11553.492,2
0,672,target,"[(1035, 791)]",[],[1],[0.45],horizontal,"(890.0, 262.0)",0.7333333333333333,0.408,1,11558.509,2
0,673,target,"[(1049, 796)]",[],[1],[0.65],vertical,"(890.0, 762.0)",0.75,0.605,1,11563.627,2
0,674,target,"[(1054, 796)]",[],[1],[0.48333333333333334],horizontal,"(890.0, 762.0)",1.3,0.439,1,11568.783,2
0,675,target,"[(1037, 796)]",[],[1],[0.6],horizontal,"(890.0, 762.0)",0.55,0.556,1,11574.143,3
0,676,target,"[(1041, 791)]",[],[1],[0.85],horizontal,"(890.0, 262.0)",0.6,nan,0,11579.025,0
0,677,target,"[(1034, 791)]",[],[1],[0.5166666666666666],vertical,"(390.0, 262.0)",1.25,0.477,1,11583.327,1
0,678,target,"[(1026, 792)]",[],[1],[0.7166666666666667],vertical,"(890.0, 262.0)",1.25,0.674,1,11588.926,1
0,679,target,"[(997, 806), (1012, 802)]",[],"[0, 1]",[0.15],horizontal,"(890.0, 262.0)",1.4833333333333334,0.117,0,11594.143,0
0,680,target,"[(1056, 811)]",[],[1],[0.35],vertical,"(390.0, 262.0)",1.4666666666666666,0.314,1,14390.399,1
0,681,catch,"[(1052, 823)]",[],[1],[],horizontal,"(890.0, 262.0)",,"('cti', 1.245),nan",0,14415.122,0
0,682,target,"[(1049, 839)]",[],[1],[0.48333333333333334],horizontal,"(890.0, 262.0)",1.4833333333333334,0.445,1,14419.675,1
0,683,target,"[(1032, 792)]",[],[1],[0.85],vertical,"(390.0, 262.0)",1.4333333333333333,"('cti', 1.427),nan",0,14427.884,0
0,684,target,"[(1030, 790)]",[],[1],[0.3833333333333333],vertical,"(390.0, 262.0)",1.4666666666666666,0.343,1,14432.983,1
0,685,target,"[(1052, 803)]",[],[1],[0.45],vertical,"(890.0, 262.0)",1.2,0.411,1,14438.251,1
0,686,target,"[(1061, 801)]",[],[1],[0.6333333333333333],vertical,"(390.0, 762.0)",0.9833333333333333,0.588,1,14443.091,2
0,687,target,"[(1052, 792)]",[],[1],[0.5333333333333333],vertical,"(890.0, 762.0)",1.0333333333333332,0.489,1,14448.079,2
0,688,target,"[(1056, 796)]",[],[1],[0.55],horizontal,"(390.0, 262.0)",0.9166666666666666,0.507,1,14453.116,2
0,689,target,"[(994, 799), (1030, 808)]",[],"[0, 1]",[0.65],horizontal,"(390.0, 762.0)",0.7166666666666667,0.604,1,14458.149,2
0,690,target,"[(1029, 796)]",[],[1],[0.36666666666666664],vertical,"(890.0, 762.0)",1.0666666666666667,0.33,1,14467.29,3
0,691,target,"[(1051, 812)]",[],[1],[0.5333333333333333],vertical,"(390.0, 262.0)",0.6,0.491,1,14473.067,3
0,692,target,"[(1038, 832)]",[],[1],[0.5],horizontal,"(890.0, 762.0)",1.2,0.459,1,14478.348,3
0,693,target,"[(1022, 765)]",[],[1],[0.15],horizontal,"(390.0, 262.0)",1.3166666666666667,0.118,0,14484.369,0
0,694,target,"[(1052, 790)]",[],[1],[0.43333333333333335],vertical,"(390.0, 262.0)",1.2333333333333334,0.39,1,14488.9,1
0,695,target,"[(1032, 783)]",[],[1],[0.15],vertical,"(890.0, 762.0)",1.5,0.119,0,14493.967,0
0,696,target,"[(1037, 803)]",[],[1],[0.5666666666666667],horizontal,"(890.0, 762.0)",0.5,0.523,1,14498.335,1
0,697,target,"[(1063, 806)]",[],[1],[0.5333333333333333],horizontal,"(890.0, 262.0)",1.0666666666666667,0.491,1,14502.533,1
0,698,target,"[(1053, 769)]",[],[1],[0.3833333333333333],vertical,"(890.0, 262.0)",1.2333333333333334,0.342,1,14506.917,2
0,699,target,"[(1045, 793)]",[],[1],[0.6333333333333333],vertical,"(390.0, 762.0)",0.8,0.593,1,14511.851,2
0,700,target,"[(1034, 803)]",[],[1],[0.23333333333333334],vertical,"(890.0, 762.0)",1.4833333333333334,0.2,1,14516.784,2
0,701,target,"[(1052, 807)]",[],[1],[],vertical,"(890.0, 762.0)",,"('cti', 1.29)",0,14521.901,0
0,702,target,"[(1033, 779)]",[],[1],[0.2833333333333333],horizontal,"(390.0, 262.0)",1.5166666666666666,0.247,1,14526.034,1
0,703,target,"[(1040, 802)]",[],[1],[0.7666666666666666],vertical,"(390.0, 762.0)",0.7333333333333333,0.724,1,14531.083,1
0,704,catch,"[(1057, 783)]",[],[1],[],vertical,"(890.0, 762.0)",,"('cti', 1.548),nan",0,14535.903,0
0,705,target,"[(1040, 776)]",[],[1],[0.5666666666666667],vertical,"(890.0, 762.0)",0.5,0.524,1,14540.601,1
0,706,target,"[(1021, 773)]",[],[1],[0.2],vertical,"(890.0, 762.0)",1.5833333333333333,0.171,0,14544.463,0
0,707,target,"[(1030, 796)]",[],[1],[0.6],horizontal,"(390.0, 762.0)",0.6833333333333333,0.557,1,14549.167,1
0,708,target,"[(1053, 796)]",[],[1],[0.6],vertical,"(390.0, 262.0)",0.8666666666666667,0.557,1,14553.383,1
0,709,target,"[(1033, 772)]",[],[1],[],horizontal,"(890.0, 762.0)",,"('cti', 1.045)",0,14557.776,0
0,710,target,"[(1052, 798)]",[],[1],[0.6166666666666667],vertical,"(890.0, 262.0)",0.9,0.586,1,14561.918,1
0,711,target,"[(1046, 799)]",[],[1],[0.85],vertical,"(390.0, 262.0)",0.6333333333333333,nan,0,14566.35,0
0,712,target,"[(1049, 796)]",[],[1],[0.36666666666666664],horizontal,"(390.0, 262.0)",0.9333333333333333,0.329,1,14570.55,1
0,713,target,"[(1035, 784)]",[],[1],[0.6],horizontal,"(390.0, 262.0)",1.1666666666666667,0.559,1,14575.301,1
0,714,target,"[(1029, 797)]",[],[1],[0.1],vertical,"(390.0, 762.0)",1.4333333333333333,0.068,0,14580.101,0
0,715,target,"[(1048, 787)]",[],[1],[0.85],vertical,"(390.0, 762.0)",1.5666666666666667,"('cti', 1.558),nan",0,14584.418,0
0,716,catch,"[(1035, 837)]",[],[1],[],vertical,"(390.0, 762.0)",1.6,nan,1,14590.067,1
0,717,target,"[(1052, 802)]",[],[1],[],vertical,"(390.0, 762.0)",,"('cti', 1.15)",0,14594.983,0
0,718,target,"[(1049, 789)]",[],[1],[0.5],horizontal,"(890.0, 262.0)",1.4333333333333333,0.462,1,14599.383,1
0,719,catch,"[(1051, 791)]",[],[1],[],vertical,"(890.0, 262.0)",,"('cti', 1.511),nan",0,14605.018,0
0,720,target,"[(1034, 782)]",[],[1],[0.43333333333333335],vertical,"(890.0, 262.0)",1.25,0.4,1,14609.693,1
0,721,target,"[(1046, 791)]",[],[1],[0.6166666666666667],vertical,"(890.0, 762.0)",0.85,0.573,1,14614.486,1
0,722,target,"[(1051, 791)]",[],[1],[0.3833333333333333],vertical,"(390.0, 262.0)",1.1333333333333333,0.35,1,14619.151,2
0,723,target,"[(1037, 789)]",[],[1],[0.2],vertical,"(890.0, 762.0)",1.4666666666666666,0.171,0,14624.362,0
0,724,target,"[(1033, 791)]",[],[1],[0.26666666666666666],vertical,"(890.0, 762.0)",0.9666666666666667,0.231,1,14628.605,1
0,725,target,"[(1012, 773)]",[],[1],[0.6833333333333333],vertical,"(890.0, 262.0)",0.6833333333333333,0.641,1,14633.319,1
0,726,target,"[(1038, 785)]",[],[1],[0.05],horizontal,"(890.0, 262.0)",1.3333333333333333,0.02,0,14637.702,0
0,727,target,"[(1054, 775)]",[],[1],[0.6833333333333333],vertical,"(390.0, 262.0)",0.5166666666666666,0.641,1,14642.541,1
0,728,target,"[(1053, 783)]",[],[1],[0.55],vertical,"(890.0, 762.0)",0.65,0.512,1,14646.99,1
0,729,target,"[(1054, 791)]",[],[1],[0.3833333333333333],horizontal,"(890.0, 262.0)",1.1833333333333333,0.35,1,14650.901,2
0,730,target,"[(1047, 781)]",[],[1],[0.5666666666666667],horizontal,"(390.0, 262.0)",1.05,0.528,1,14656.284,2
0,731,target,"[(1028, 790)]",[],[1],[0.5333333333333333],horizontal,"(390.0, 262.0)",0.7666666666666666,0.495,1,14661.467,2
0,732,target,"[(1046, 792)]",[],[1],[0.55],vertical,"(890.0, 762.0)",0.8666666666666667,0.507,1,14666.417,2
0,733,catch,"[(1039, 790)]",[],[1],[],vertical,"(390.0, 762.0)",1.6,nan,1,14671.308,3
0,734,target,"[(1054, 796)]",[],[1],[0.55],vertical,"(390.0, 262.0)",0.75,0.514,1,14676.851,3
0,735,target,"[(1046, 786)]",[],[1],[0.4666666666666667],horizontal,"(390.0, 262.0)",1.2166666666666666,0.43,1,14682.101,3
0,736,target,"[(1040, 781)]",[],[1],[0.48333333333333334],vertical,"(890.0, 762.0)",0.9833333333333333,0.444,1,14687.751,3
0,737,target,"[(1021, 786)]",[],[1],[0.45],horizontal,"(890.0, 762.0)",1.5666666666666667,0.415,1,14693.614,3
0,738,target,"[(1037, 783)]",[],[1],[0.85],horizontal,"(390.0, 762.0)",0.5333333333333333,nan,0,14699.484,0
0,739,target,"[(1033, 796)]",[],[1],[0.65],vertical,"(890.0, 762.0)",0.7,0.606,1,14703.6,1
0,740,catch,"[(1035, 787)]",[],[1],[],vertical,"(890.0, 262.0)",1.6,nan,1,14708.488,1
0,741,target,"[(1036, 786)]",[],[1],[0.5],vertical,"(390.0, 762.0)",1.25,0.457,1,14713.518,2
0,742,target,"[(1038, 793)]",[],[1],[0.6166666666666667],horizontal,"(890.0, 262.0)",0.7166666666666667,0.572,1,14719.171,2
0,743,catch,"[(1034, 770)]",[],[1],[],horizontal,"(890.0, 762.0)",1.6,nan,1,14724.351,2
0,744,target,"[(1031, 798)]",[],[1],[0.4],vertical,"(890.0, 262.0)",1.1666666666666667,0.369,1,14729.719,2
0,745,target,"[(1037, 785)]",[],[1],[0.5],horizontal,"(390.0, 762.0)",1.1666666666666667,0.468,1,14735.417,3
0,746,target,"[(1041, 799)]",[],[1],[0.48333333333333334],horizontal,"(390.0, 762.0)",1.1,0.444,1,14741.101,3
0,747,target,"[(1037, 774)]",[],[1],[0.85],horizontal,"(890.0, 762.0)",0.65,nan,0,14746.775,0
0,748,target,"[(1019, 779)]",[],[1],[0.35],vertical,"(890.0, 262.0)",1.4666666666666666,0.314,1,14751.452,1
0,749,target,"[(1037, 777)]",[],[1],[0.5333333333333333],horizontal,"(390.0, 262.0)",0.5833333333333334,0.49,1,14756.506,1
0,750,target,"[(1037, 793)]",[],[1],[0.2833333333333333],horizontal,"(390.0, 262.0)",0.9166666666666666,0.247,1,14760.701,2
0,751,target,"[(1041, 788)]",[],[1],[0.75],horizontal,"(890.0, 762.0)",0.5833333333333334,0.703,1,14766.099,2
0,752,target,"[(1024, 816)]",[],[1],[0.16666666666666666],horizontal,"(390.0, 262.0)",1.5833333333333333,0.136,0,14771.178,0
0,753,target,"[(1036, 773)]",[],[1],[0.7166666666666667],horizontal,"(390.0, 762.0)",0.5166666666666666,0.664,1,14776.201,1
0,754,target,"[(1033, 773)]",[],[1],[0.5833333333333334],vertical,"(890.0, 262.0)",0.7833333333333333,0.538,1,14781.018,1
0,755,target,"[(1046, 771)]",[],[1],[0.5666666666666667],horizontal,"(890.0, 762.0)",1.25,0.525,1,14785.966,2
0,756,catch,"[(1037, 798)]",[],[1],[],horizontal,"(890.0, 762.0)",,"('cti', 1.429),nan",0,14791.634,0
0,757,target,"[(1029, 782)]",[],[1],[0.85],horizontal,"(890.0, 762.0)",1.0333333333333332,nan,0,14796.4,0
0,758,target,"[(1025, 799)]",[],[1],[0.5333333333333333],vertical,"(890.0, 262.0)",1.3666666666666667,0.492,1,14801.13,1
0,759,target,"[(1047, 789)]",[],[1],[0.85],horizontal,"(390.0, 262.0)",1.0166666666666666,nan,0,14806.228,0
0,760,target,"[(1022, 785)]",[],[1],[0.5666666666666667],horizontal,"(390.0, 262.0)",0.7166666666666667,0.529,1,14810.701,1
0,761,target,"[(1035, 801)]",[],[1],[0.5666666666666667],horizontal,"(390.0, 762.0)",0.9,0.52,1,14815.134,1
0,762,target,"[(1054, 778)]",[],[1],[0.55],vertical,"(890.0, 762.0)",0.85,0.504,1,14819.848,2
0,763,target,"[(1033, 794)]",[],[1],[0.48333333333333334],vertical,"(390.0, 262.0)",1.2,0.442,1,14824.768,2
0,764,target,"[(1030, 791)]",[],[1],[0.3833333333333333],vertical,"(890.0, 762.0)",1.4833333333333334,0.346,1,14829.777,2
0,765,target,"[(1033, 791)]",[],[1],[0.85],vertical,"(390.0, 762.0)",0.65,nan,0,14835.585,0
0,766,target,"[(1019, 791)]",[],[1],[0.85],horizontal,"(890.0, 762.0)",0.5166666666666666,nan,0,14839.868,0
0,767,target,"[(1021, 796)]",[],[1],[0.85],vertical,"(390.0, 262.0)",1.5,"('cti', 1.491),nan",0,14844.477,0
0,768,target,"[(1030, 806)]",[],[1],[0.5166666666666666],horizontal,"(890.0, 262.0)",0.55,0.481,1,14850.168,1
0,769,target,"[(1025, 794)]",[],[1],[0.3833333333333333],horizontal,"(890.0, 262.0)",1.2666666666666666,0.347,1,14854.767,1
0,770,catch,"[(1043, 793)]",[],[1],[],vertical,"(890.0, 262.0)",1.6,nan,1,14859.602,2
0,771,target,"[(1053, 782)]",[],[1],[0.2],horizontal,"(390.0, 262.0)",1.5666666666666667,0.171,0,14865.084,0
0,772,target,"[(1031, 794)]",[],[1],[0.65],vertical,"(890.0, 262.0)",0.65,0.608,1,14869.67,1
0,773,target,"[(1035, 776)]",[],[1],[0.6166666666666667],vertical,"(890.0, 262.0)",1.5333333333333332,0.576,1,14874.279,1
0,774,catch,"[(1030, 791)]",[],[1],[],vertical,"(890.0, 262.0)",,"('cti', 1.473),nan",0,14879.469,0
0,775,target,"[(1035, 766)]",[],[1],[0.65],vertical,"(890.0, 762.0)",0.85,0.603,1,14883.786,1
0,776,target,"[(1036, 775)]",[],[1],[0.4666666666666667],vertical,"(390.0, 762.0)",0.7,0.432,1,14888.618,1
0,777,target,"[(1038, 791)]",[],[1],[0.3333333333333333],vertical,"(390.0, 262.0)",1.35,0.297,1,14893.367,2
0,778,catch,"[(1037, 786)]",[],[1],[],vertical,"(890.0, 262.0)",1.6,nan,1,14898.802,2
0,779,target,"[(1047, 792)]",[],[1],[0.18333333333333332],vertical,"(390.0, 262.0)",1.5166666666666666,0.149,0,14904.167,0
0,780,target,"[(1032, 793)]",[],[1],[0.6333333333333333],horizontal,"(390.0, 762.0)",0.9166666666666666,0.588,1,14908.652,1
0,781,target,"[(1021, 798)]",[],[1],[0.5],vertical,"(390.0, 262.0)",1.3666666666666667,0.462,1,14913.451,1
0,782,catch,"[(1017, 788)]",[],[1],[],horizontal,"(890.0, 262.0)",1.6,nan,1,14918.335,2
0,783,target,"[(1046, 798)]",[],[1],[0.7166666666666667],horizontal,"(890.0, 262.0)",0.8666666666666667,0.673,1,14923.592,2
0,784,target,"[(1035, 791)]",[],[1],[0.6333333333333333],horizontal,"(890.0, 762.0)",0.9333333333333333,0.592,1,14928.801,2
0,785,target,"[(1047, 792)]",[],[1],[0.55],vertical,"(890.0, 762.0)",0.95,0.509,1,14933.82,2
0,786,target,"[(1018, 791)]",[],[1],[0.6666666666666666],vertical,"(890.0, 762.0)",1.1,0.625,1,14938.851,3
0,787,target,"[(1036, 783)]",[],[1],[0.6],vertical,"(890.0, 262.0)",1.15,0.556,1,14944.599,3
0,788,target,"[(1035, 781)]",[],[1],[0.6],horizontal,"(390.0, 262.0)",0.9,0.562,1,14950.618,3
0,789,catch,"[(1036, 808)]",[],[1],[],horizontal,"(390.0, 262.0)",,"('cti', 0.954),nan",0,14956.558,0
0,790,target,"[(1038, 767)]",[],[1],[0.6666666666666666],horizontal,"(890.0, 762.0)",0.7333333333333333,0.622,1,14961.034,1
0,791,catch,"[(1024, 786)]",[],[1],[],vertical,"(390.0, 762.0)",1.6,nan,1,14965.433,1
0,792,target,"[(1032, 824)]",[],[1],[0.55],horizontal,"(890.0, 262.0)",0.85,0.508,1,14969.952,2
0,793,target,"[(1032, 791)]",[],[1],[],horizontal,"(390.0, 262.0)",,"('cti', 0.999)",0,14978.484,0
0,794,catch,"[(1017, 777)]",[],[1],[],vertical,"(890.0, 762.0)",1.6,nan,1,14982.846,1
0,795,target,"[(1026, 768)]",[],[1],[0.7],horizontal,"(390.0, 762.0)",0.5,0.655,1,14987.928,1
0,796,target,"[(1048, 786)]",[],[1],[0.36666666666666664],vertical,"(390.0, 262.0)",1.4,0.328,1,14992.187,2
0,797,target,"[(1033, 779)]",[],[1],[0.85],horizontal,"(390.0, 262.0)",0.5833333333333334,nan,0,14997.439,0
0,798,target,"[(1025, 804)]",[],[1],[0.5666666666666667],vertical,"(890.0, 262.0)",0.7,0.523,1,15001.811,1
0,799,target,"[(1038, 794)]",[],[1],[0.11666666666666667],vertical,"(890.0, 762.0)",1.55,0.082,0,15006.455,0
0,800,catch,"[(1028, 770)]",[],[1],[],horizontal,"(890.0, 762.0)",1.6,nan,1,15011.253,1
0,801,target,"[(1036, 790)]",[],[1],[0.85],horizontal,"(890.0, 262.0)",0.7666666666666666,nan,0,15016.392,0
0,802,target,"[(1028, 776)]",[],[1],[0.13333333333333333],vertical,"(390.0, 262.0)",1.55,0.1,0,15020.85,0
0,803,target,"[(1017, 796)]",[],[1],[0.48333333333333334],horizontal,"(390.0, 762.0)",1.0166666666666666,0.443,1,15025.627,1
0,804,target,"[(1040, 788)]",[],[1],[0.6666666666666666],vertical,"(390.0, 762.0)",0.5333333333333333,0.621,1,15032.74,1
0,805,target,"[(1040, 788)]",[],[1],[0.65],vertical,"(890.0, 262.0)",1.0,0.607,1,15037.335,2
0,806,catch,"[(1036, 783)]",[],[1],[],vertical,"(390.0, 762.0)",,"('cti', 1.551),nan",0,15042.418,0
0,807,target,"[(1036, 782)]",[],[1],[0.2833333333333333],vertical,"(890.0, 762.0)",1.4833333333333334,0.25,1,15046.985,1
0,808,target,"[(1038, 783)]",[],[1],[0.18333333333333332],vertical,"(890.0, 262.0)",1.25,0.154,0,15052.118,0
0,809,target,"[(1049, 787)]",[],[1],[0.16666666666666666],vertical,"(390.0, 762.0)",1.0333333333333332,0.135,0,15056.701,0
0,810,target,"[(1008, 778)]",[],[1],[0.5166666666666666],vertical,"(390.0, 762.0)",1.5166666666666666,0.483,1,15061.018,1
0,811,target,"[(1038, 788)]",[],[1],[0.36666666666666664],vertical,"(890.0, 762.0)",1.1666666666666667,0.328,1,15066.218,1
0,812,target,"[(1033, 796)]",[],[1],[0.6833333333333333],horizontal,"(390.0, 762.0)",0.7166666666666667,0.643,1,15071.248,2
0,813,target,"[(1042, 796)]",[],[1],[0.5333333333333333],vertical,"(890.0, 262.0)",0.5166666666666666,0.492,1,15076.202,2
0,814,target,"[(1046, 782)]",[],[1],[0.26666666666666666],horizontal,"(390.0, 762.0)",1.4166666666666667,0.231,1,15080.935,2
0,815,target,"[(1035, 806)]",[],[1],[0.3833333333333333],horizontal,"(390.0, 762.0)",1.1666666666666667,0.345,1,15086.211,2
0,816,target,"[(1035, 767)]",[],[1],[0.43333333333333335],horizontal,"(890.0, 262.0)",1.2,0.397,1,15091.785,3
0,817,target,"[(1034, 786)]",[],[1],[0.5666666666666667],horizontal,"(890.0, 262.0)",1.05,0.527,1,15097.465,3
0,818,catch,"[(1022, 781)]",[],[1],[],horizontal,"(390.0, 262.0)",,"('cti', 0.614),nan",0,15103.073,0
0,819,target,"[(1015, 796)]",[],[1],[0.45],horizontal,"(890.0, 262.0)",0.85,0.41,1,15106.891,1
0,820,target,"[(1052, 794)]",[],[1],[],horizontal,"(390.0, 762.0)",,"('cti', 1.266)",0,15111.467,0
0,821,target,"[(1037, 801)]",[],[1],[0.5333333333333333],horizontal,"(390.0, 262.0)",1.0166666666666666,0.491,1,15116.177,1
0,822,target,"[(1049, 796)]",[],[1],[0.5333333333333333],vertical,"(390.0, 262.0)",1.05,0.487,1,15120.785,1
0,823,catch,"[(1035, 782)]",[],[1],[],vertical,"(390.0, 762.0)",1.6,nan,1,15125.537,2
0,824,target,"[(1035, 789)]",[],[1],[0.5833333333333334],vertical,"(390.0, 762.0)",0.8166666666666667,0.543,1,15130.652,2
0,825,target,"[(1036, 799)]",[],[1],[0.6833333333333333],vertical,"(890.0, 262.0)",0.9833333333333333,0.633,1,15135.769,2
0,826,target,"[(1044, 783)]",[],[1],[0.2],vertical,"(890.0, 262.0)",1.55,0.171,0,15141.018,0
0,827,target,"[(1029, 791)]",[],[1],[0.3],vertical,"(890.0, 762.0)",1.4666666666666666,0.261,1,15145.819,1
0,828,target,"[(1021, 782)]",[],[1],[0.36666666666666664],vertical,"(890.0, 262.0)",1.4333333333333333,0.333,1,15150.636,1
0,829,target,"[(1035, 785)]",[],[1],[0.5333333333333333],vertical,"(390.0, 262.0)",0.85,0.501,1,15155.886,2
0,830,target,"[(1037, 772)]",[],[1],[0.45],vertical,"(890.0, 762.0)",1.2666666666666666,0.415,1,15160.98,2
0,831,target,"[(1038, 795)]",[],[1],[0.55],vertical,"(390.0, 262.0)",1.2,0.506,1,15166.801,2
0,832,target,"[(1009, 786)]",[],[1],[0.55],vertical,"(390.0, 262.0)",0.8833333333333333,0.51,1,15172.58,2
0,833,target,"[(1033, 801)]",[],[1],[],horizontal,"(390.0, 262.0)",,"('cti', 1.134)",0,15177.35,0
0,834,target,"[(1034, 790)]",[],[1],[0.55],horizontal,"(890.0, 762.0)",0.8166666666666667,0.512,1,15182.017,1
0,835,target,"[(1019, 781)]",[],[1],[0.85],horizontal,"(390.0, 262.0)",0.8666666666666667,nan,0,15186.732,0
0,836,target,"[(1035, 796)]",[],[1],[0.6166666666666667],horizontal,"(390.0, 762.0)",1.2666666666666666,0.572,1,15191.051,1
0,837,catch,"[(1035, 782)]",[],[1],[],horizontal,"(890.0, 262.0)",1.6,nan,1,15195.852,1
0,838,target,"[(1022, 796)]",[],[1],[0.5666666666666667],vertical,"(390.0, 262.0)",0.5,0.53,1,15200.514,2
0,839,target,"[(1033, 790)]",[],[1],[0.5333333333333333],horizontal,"(890.0, 762.0)",1.0833333333333333,0.499,1,15205.536,2
0,840,target,"[(1035, 791)]",[],[1],[0.6],vertical,"(390.0, 762.0)",0.95,0.559,1,15210.55,2
0,841,catch,"[(1033, 800)]",[],[1],[],vertical,"(390.0, 762.0)",,"('cti', 1.13),nan",0,15216.119,0
0,842,target,"[(1032, 794)]",[],[1],[0.55],vertical,"(890.0, 262.0)",0.7666666666666666,0.514,1,15220.785,1
0,843,target,"[(1033, 778)]",[],[1],[0.85],horizontal,"(390.0, 262.0)",0.5666666666666667,nan,0,15225.019,0
0,844,target,"[(1010, 786)]",[],[1],[0.6166666666666667],horizontal,"(390.0, 262.0)",1.3166666666666667,0.585,1,15229.519,1
0,845,target,"[(1054, 801)]",[],[1],[0.85],horizontal,"(890.0, 762.0)",0.5666666666666667,nan,0,15234.585,0
0,846,catch,"[(1039, 793)]",[],[1],[],horizontal,"(890.0, 762.0)",1.6,nan,1,15238.609,1
0,847,target,"[(1054, 795)]",[],[1],[0.4],vertical,"(390.0, 762.0)",1.25,0.365,1,15243.769,1
0,848,target,"[(1034, 791)]",[],[1],[0.5666666666666667],vertical,"(890.0, 262.0)",0.7333333333333333,0.527,1,15248.863,2
0,849,target,"[(1034, 799)]",[],[1],[0.4166666666666667],horizontal,"(390.0, 762.0)",1.0833333333333333,0.374,1,15253.787,2
0,850,target,"[(1036, 796)]",[],[1],[],vertical,"(390.0, 762.0)",,"('cti', 1.528)",0,15259.269,0
0,851,target,"[(1033, 804)]",[],[1],[0.6],horizontal,"(890.0, 762.0)",0.9,0.557,1,15264.16,1
0,852,target,"[(1034, 786)]",[],[1],[0.4],horizontal,"(390.0, 262.0)",1.45,0.365,1,15268.692,1
0,853,target,"[(1004, 790), (1017, 800)]",[],"[0, 1]",[0.5833333333333334],vertical,"(390.0, 262.0)",0.7,0.541,1,15273.819,2
0,854,target,"[(1033, 777)]",[],[1],[0.5],vertical,"(390.0, 262.0)",0.6666666666666666,0.459,1,15282.551,2
0,855,target,"[(1051, 774)]",[],[1],[0.1],horizontal,"(390.0, 762.0)",1.4666666666666666,0.067,0,15287.418,0
0,856,target,"[(1013, 806)]",[],[1],[],vertical,"(390.0, 262.0)",,"('cti', 1.154)",0,15291.836,0
0,857,target,"[(1025, 776)]",[],[1],[0.6],vertical,"(890.0, 762.0)",0.8,0.56,1,15299.018,1
0,858,target,"[(1037, 768)]",[],[1],[0.6333333333333333],horizontal,"(890.0, 762.0)",0.7333333333333333,0.597,1,15303.611,1
0,859,target,"[(1036, 776)]",[],[1],[0.43333333333333335],vertical,"(890.0, 262.0)",1.1,0.392,1,15308.052,2
0,860,target,"[(1037, 778)]",[],[1],[0.5333333333333333],vertical,"(890.0, 262.0)",0.5666666666666667,0.494,1,15313.488,2
0,861,catch,"[(1043, 769)]",[],[1],[],vertical,"(390.0, 762.0)",1.6,nan,1,15318.401,2
0,862,target,"[(1036, 798)]",[],[1],[0.85],vertical,"(890.0, 762.0)",1.0666666666666667,nan,0,15323.953,0
