block,practice,trial,change_interval_s,change_interval_frames,taps_start_time_during_fix,taps_end_time_during_fix,taps_start_loc_during_fix,taps_end_loc_during_fix,taps_on_lever_during_fix,taps_on_lever_frame_during_fix,taps_on_lever_s_during_fix,fix_xy,bar_orientation,target_xy,cti,rt,acc,time
1,True,1,0.647,38,[],[],"[(1138, 842)]",[],[1],[59],[0.9833333333333333],"[640.0, 512.0]",horizontal,"(390.0, 262.0)",[1.25],[0.335],1,0.443
1,True,2,0.849,50,[],[],"[(7, 238), (1172, 878)]",[],"[0, 1]",[100],[1.6666666666666667],"[640.0, 512.0]",vertical,"(390.0, 262.0)",[0.9166666666666666],[0.808],0,9.147
1,True,3,1.373,82,[],[],"[(1170, 868)]",[],[1],[113],[1.8833333333333333],"[640.0, 512.0]",horizontal,"(890.0, 262.0)",[1.6666666666666667],[0.49],1,79.29
1,True,4,1.287,77,[],[],"[(1192, 880)]",[],[1],[127],[2.1166666666666667],"[640.0, 512.0]",vertical,"(390.0, 762.0)",[0.85],[0.802],0,84.355
1,False,1,0.951,57,[],[],"[(1218, 920)]",[],[1],[87],[1.45],"[640.0, 512.0]",horizontal,"(890.0, 262.0)",[1.5],[0.475],1,88.895
1,False,2,1.328,79,[],[],"[(1192, 902)]",[],[1],[114],[1.9],"[640.0, 512.0]",horizontal,"(390.0, 262.0)",[1.4666666666666666],[0.551],1,94.162
1,False,3,1.332,79,[],[],"[(1170, 896)]",[],[1],[129],[2.15],"[640.0, 512.0]",horizontal,"(890.0, 762.0)",[1.0833333333333333],[0.805],0,99.036
1,False,4,1.337,80,[],[],"[(1227, 901)]",[],[1],[116],[1.9333333333333333],"[640.0, 512.0]",horizontal,"(390.0, 262.0)",[1.6833333333333333],[0.588],1,103.831
1,False,5,1.116,66,[],[],"[(1166, 900)]",[],[1],[104],[1.7333333333333334],"[640.0, 512.0]",horizontal,"(390.0, 762.0)",[1.55],[0.618],1,109.294
1,False,6,0.361,21,[],[],"[(1215, 902)]",[],[1],[55],[0.9166666666666666],"[640.0, 512.0]",vertical,"(890.0, 262.0)",[1.5333333333333332],[0.547],1,114.157
1,False,7,0.48,28,[],[],"[(1178, 879)]",[],[1],[78],[1.3],"[640.0, 512.0]",vertical,"(890.0, 762.0)",[1.3333333333333333],[0.814],0,118.13
1,False,8,1.16,69,[],[181498],"[(1122, 875)]","[(1128, 889)]",[1],[33],[0.55],"[640.0, 512.0]",vertical,"(390.0, 262.0)",[],[0],0,122.352
1,False,9,0.836,50,[],[],"[(1252, 890), (1153, 878)]",[],"[0, 1]",[84],[1.4],"[640.0, 512.0]",vertical,"(390.0, 262.0)",[0.8833333333333333],[0.545],1,125.012
1,False,10,0.954,57,[],[],"[(1182, 881)]",[],[1],[102],[1.7],"[640.0, 512.0]",vertical,"(390.0, 762.0)",[0.5],[0.74],1,130.905
1,False,11,0.449,26,[],[],"[(1152, 885)]",[],[1],[61],[1.0166666666666666],"[640.0, 512.0]",horizontal,"(890.0, 262.0)",[1.2833333333333332],[0.565],1,134.733
1,False,12,0.355,21,[],[],"[(1137, 885)]",[],[1],[57],[0.95],"[640.0, 512.0]",vertical,"(390.0, 262.0)",[1.0],[0.577],1,143.524
1,False,13,1.014,60,[],[],"[(1192, 879)]",[],[1],[94],[1.5666666666666667],"[640.0, 512.0]",horizontal,"(390.0, 762.0)",[1.4166666666666667],[0.551],1,147.049
1,False,14,0.887,53,[],[],"[(1164, 891)]",[],[1],[90],[1.5],"[640.0, 512.0]",horizontal,"(890.0, 262.0)",[1.5333333333333332],[0.596],1,151.686
1,False,15,1.065,63,[],[],"[(1172, 880)]",[],[1],[99],[1.65],"[640.0, 512.0]",vertical,"(890.0, 762.0)",[1.1166666666666667],[0.59],1,156.325
1,False,16,1.027,61,[],[],"[(1136, 893)]",[],[1],[95],[1.5833333333333333],"[640.0, 512.0]",horizontal,"(890.0, 262.0)",[0.6833333333333333],[0.55],1,168.824
1,False,17,1.164,69,[],[],"[(1117, 880)]",[],[1],[100],[1.6666666666666667],"[640.0, 512.0]",horizontal,"(890.0, 262.0)",[0.9666666666666667],[0.503],1,172.619
1,False,18,0.67,40,[],[],"[(1111, 882)]",[],[1],[72],[1.2],"[640.0, 512.0]",horizontal,"(390.0, 262.0)",[1.3333333333333333],[0.515],1,176.948
1,False,19,0.486,29,[],[],"[(1162, 881)]",[],[1],[65],[1.0833333333333333],"[640.0, 512.0]",vertical,"(390.0, 762.0)",[0.7333333333333333],[0.581],1,181.049
1,False,20,0.43,25,[],[],"[(1147, 894)]",[],[1],[57],[0.95],"[640.0, 512.0]",vertical,"(890.0, 262.0)",[1.5833333333333333],[0.515],1,184.387
1,False,21,0.847,50,[],[],"[(1141, 889)]",[],[1],[95],[1.5833333333333333],"[640.0, 512.0]",vertical,"(390.0, 762.0)",[1.0666666666666667],[0.729],1,188.512
1,False,22,0.996,59,[],[],"[(1129, 904)]",[],[1],[91],[1.5166666666666666],"[640.0, 512.0]",horizontal,"(890.0, 262.0)",[0.8],[0.518],1,192.734
1,False,23,0.957,57,[],[],"[(1166, 882)]",[],[1],[92],[1.5333333333333332],"[640.0, 512.0]",vertical,"(890.0, 762.0)",[1.3333333333333333],[0.561],1,196.69
1,False,24,0.326,19,[],[],"[(1167, 889)]",[],[1],[54],[0.9],"[640.0, 512.0]",horizontal,"(890.0, 762.0)",[1.6333333333333333],[0.558],1,201.111
1,False,25,0.951,57,[],[],"[(1164, 885)]",[],[1],[93],[1.55],"[640.0, 512.0]",vertical,"(390.0, 762.0)",[0.8],[0.579],1,205.163
1,False,26,0.869,52,[],[],"[(1162, 884)]",[],[1],[90],[1.5],"[640.0, 512.0]",vertical,"(890.0, 262.0)",[1.6666666666666667],[0.614],1,209.03
1,False,27,1.438,86,[],[],"[(1136, 875)]",[],[1],[117],[1.95],"[640.0, 512.0]",horizontal,"(390.0, 262.0)",[0.9],[0.493],1,213.764
1,False,28,1.273,76,[],[],"[(1173, 889)]",[],[1],[109],[1.8166666666666667],"[640.0, 512.0]",horizontal,"(390.0, 762.0)",[1.3666666666666667],[0.521],1,218.096
1,False,29,1.177,70,[],[],"[(1188, 878)]",[],[1],[120],[2.0],"[640.0, 512.0]",horizontal,"(390.0, 262.0)",[1.0833333333333333],[0.805],0,222.779
1,False,30,1.052,63,[],[],"[(1132, 878)]",[],[1],[113],[1.8833333333333333],"[640.0, 512.0]",vertical,"(390.0, 762.0)",[0.6166666666666667],[0.801],0,227.383
1,False,31,1.253,75,[],[],"[(1148, 870)]",[],[1],[111],[1.8499999999999999],"[640.0, 512.0]",vertical,"(390.0, 762.0)",[0.9],[0.578],1,232.242
1,False,32,1.161,69,[],[],"[(1194, 877)]",[],[1],[103],[1.7166666666666666],"[640.0, 512.0]",horizontal,"(390.0, 762.0)",[1.6],[0.545],1,236.534
1,False,33,1.423,85,[],[],"[(1142, 881)]",[],[1],[135],[2.25],"[640.0, 512.0]",horizontal,"(890.0, 762.0)",[1.25],[0.81],0,241.368
1,False,34,0.906,54,[],[],"[(1142, 892)]",[],[1],[104],[1.7333333333333334],"[640.0, 512.0]",vertical,"(390.0, 262.0)",[1.0166666666666666],[0.805],0,246.441
1,False,35,0.467,28,[],[],"[(1148, 898)]",[],[1],[78],[1.3],"[640.0, 512.0]",horizontal,"(390.0, 762.0)",[1.05],[0.807],0,250.974
1,False,36,1.146,68,[],[],"[(1133, 890)]",[],[1],[118],[1.9666666666666666],"[640.0, 512.0]",vertical,"(390.0, 262.0)",[1.3833333333333333],[0.803],0,276.521
1,False,37,0.595,35,[],[],"[(1135, 897)]",[],[1],[85],[1.4166666666666667],"[640.0, 512.0]",horizontal,"(390.0, 262.0)",[0.75],[0.805],0,282.377
1,False,38,0.391,23,[],[],"[(1144, 881)]",[],[1],[],[],"[640.0, 512.0]",vertical,"(890.0, 262.0)",[],[0],0,287.082
1,False,39,0.653,39,[],[],"[(1141, 928)]",[],[1],[89],[1.4833333333333334],"[640.0, 512.0]",horizontal,"(390.0, 262.0)",[0.9333333333333333],[0.806],0,293.276
1,False,40,0.765,45,[],[],"[(1093, 898)]",[],[1],[75],[1.25],"[640.0, 512.0]",vertical,"(890.0, 262.0)",[1.0833333333333333],[0.481],1,300.742
1,False,41,1.198,71,[],[],"[(1202, 894)]",[],[1],[121],[2.0166666666666666],"[640.0, 512.0]",horizontal,"(390.0, 762.0)",[1.4333333333333333],[0.81],0,305.147
1,False,42,1.204,72,[],[],"[(1204, 889)]",[],[1],[113],[1.8833333333333333],"[640.0, 512.0]",vertical,"(390.0, 262.0)",[1.25],[0.663],1,310.13
1,False,43,1.067,64,[],[],"[(1196, 871)]",[],[1],[98],[1.6333333333333333],"[640.0, 512.0]",horizontal,"(390.0, 262.0)",[1.2],[0.546],1,314.778
1,False,44,1.337,80,[],[],"[(1190, 872)]",[],[1],[128],[2.1333333333333333],"[640.0, 512.0]",horizontal,"(890.0, 762.0)",[0.6833333333333333],[0.77],1,319.164
1,False,45,0.711,42,[],[],"[(1172, 887)]",[],[1],[92],[1.5333333333333332],"[640.0, 512.0]",horizontal,"(890.0, 262.0)",[0.8],[0.807],0,323.518
1,False,46,1.28,76,[],[],"[(1184, 858)]",[],[1],[109],[1.8166666666666667],"[640.0, 512.0]",horizontal,"(890.0, 262.0)",[0.8],[0.527],1,327.442
1,False,47,0.394,23,[],[],"[(1177, 885)]",[],[1],[73],[1.2166666666666666],"[640.0, 512.0]",vertical,"(890.0, 762.0)",[0.85],[0.798],0,331.616
1,False,48,1.033,61,[],[],"[(1204, 887)]",[],[1],[111],[1.8499999999999999],"[640.0, 512.0]",horizontal,"(890.0, 762.0)",[1.65],[0.805],0,335.207
1,False,49,0.918,55,[],[],"[(1166, 846)]",[],[1],[90],[1.5],"[640.0, 512.0]",horizontal,"(390.0, 762.0)",[1.0833333333333333],[0.555],1,340.226
1,False,50,0.401,24,[],[],"[(1154, 881)]",[],[1],[74],[1.2333333333333334],"[640.0, 512.0]",horizontal,"(890.0, 262.0)",[0.9833333333333333],[0.81],0,347.613
1,False,51,0.436,26,[],[],"[(1173, 885)]",[],[1],[76],[1.2666666666666666],"[640.0, 512.0]",horizontal,"(390.0, 762.0)",[1.0833333333333333],[0.803],0,351.354
1,False,52,0.771,46,[],[],"[(1032, 891)]",[],[1],[96],[1.6],"[640.0, 512.0]",horizontal,"(890.0, 262.0)",[0.9833333333333333],[0.806],0,366.8
1,False,53,0.856,51,[],[],"[(1164, 870)]",[],[1],[89],[1.4833333333333334],"[640.0, 512.0]",vertical,"(390.0, 262.0)",[1.15],[0.605],1,371.044
1,False,54,1.272,76,[],[],"[(1172, 870)]",[],[1],[107],[1.7833333333333332],"[640.0, 512.0]",vertical,"(890.0, 262.0)",[1.2],[0.495],1,376.614
1,False,55,0.72,43,[],[],"[(1172, 877)]",[],[1],[88],[1.4666666666666666],"[640.0, 512.0]",horizontal,"(390.0, 762.0)",[1.25],[0.723],1,381.147
1,False,56,0.65,39,[],[],"[(1168, 877)]",[],[1],[76],[1.2666666666666666],"[640.0, 512.0]",vertical,"(390.0, 762.0)",[1.25],[0.589],1,385.409
1,False,57,0.976,58,[],[],"[(1166, 887)]",[],[1],[108],[1.8],"[640.0, 512.0]",vertical,"(890.0, 762.0)",[0.9833333333333333],[0.807],0,389.469
1,False,58,0.959,57,[],[],"[(1109, 868)]",[],[1],[107],[1.7833333333333332],"[640.0, 512.0]",horizontal,"(390.0, 262.0)",[1.5333333333333332],[0.803],0,393.776
1,False,59,0.698,41,[],[],"[(1172, 873)]",[],[1],[91],[1.5166666666666666],"[640.0, 512.0]",horizontal,"(890.0, 762.0)",[0.6666666666666666],[0.809],0,399.321
1,False,60,1.404,84,[],[],"[(1205, 902)]",[],[1],[134],[2.2333333333333334],"[640.0, 512.0]",horizontal,"(890.0, 262.0)",[1.2333333333333334],[0.797],0,403.141
2,False,61,0.992,59,[],[],"[(1123, 857)]",[],[1],[109],[1.8166666666666667],"[640.0, 512.0]",vertical,"(890.0, 762.0)",[1.0333333333333332],[0.809],0,408.144
2,False,62,0.413,24,[],[],"[(1184, 885)]",[],[1],[59],[0.9833333333333333],"[640.0, 512.0]",horizontal,"(890.0, 762.0)",[1.15],[0.559],1,415.968
2,False,63,1.277,76,[],[],"[(1196, 880)]",[],[1],[115],[1.9166666666666667],"[640.0, 512.0]",vertical,"(390.0, 262.0)",[0.6333333333333333],[0.624],1,419.736
2,False,64,0.755,45,[],[],"[(1190, 843)]",[],[1],[82],[1.3666666666666667],"[640.0, 512.0]",horizontal,"(390.0, 262.0)",[1.2],[0.585],1,423.874
2,False,65,1.233,73,[],[],"[(1162, 874)]",[],[1],[108],[1.8],"[640.0, 512.0]",horizontal,"(390.0, 262.0)",[1.4333333333333333],[0.56],1,427.961
2,False,66,0.965,57,[],[],"[(1166, 874)]",[],[1],[93],[1.55],"[640.0, 512.0]",vertical,"(390.0, 262.0)",[0.8833333333333333],[0.572],1,432.703
2,False,67,1.218,73,[],[],"[(1160, 874)]",[],[1],[111],[1.8499999999999999],"[640.0, 512.0]",horizontal,"(890.0, 262.0)",[0.5333333333333333],[0.609],1,436.693
2,False,68,0.639,38,[],[],"[(1160, 869)]",[],[1],[88],[1.4666666666666666],"[640.0, 512.0]",vertical,"(890.0, 762.0)",[1.65],[0.803],0,443.263
2,False,69,0.597,35,[],[],"[(1160, 885)]",[],[1],[85],[1.4166666666666667],"[640.0, 512.0]",horizontal,"(390.0, 762.0)",[0.9666666666666667],[0.808],0,447.978
2,False,70,0.795,47,[],[],"[(1160, 877)]",[],[1],[97],[1.6166666666666667],"[640.0, 512.0]",horizontal,"(890.0, 762.0)",[0.6],[0.798],0,452.103
2,False,71,0.662,39,[],[],"[(1208, 880)]",[],[1],[89],[1.4833333333333334],"[640.0, 512.0]",horizontal,"(890.0, 762.0)",[0.9666666666666667],[0.8],0,457.427
2,False,72,0.353,21,[],[],"[(1160, 856)]",[],[1],[59],[0.9833333333333333],"[640.0, 512.0]",horizontal,"(390.0, 262.0)",[0.6833333333333333],[0.606],1,461.366
2,False,73,0.688,41,[],[],"[(1184, 884)]",[],[1],[91],[1.5166666666666666],"[640.0, 512.0]",horizontal,"(390.0, 762.0)",[0.7833333333333333],[0.801],0,468.21
2,False,74,1.021,61,[],[],"[(1214, 889)]",[],[1],[95],[1.5833333333333333],"[640.0, 512.0]",horizontal,"(390.0, 262.0)",[1.5166666666666666],[0.539],1,472.081
2,False,75,0.874,52,[],[],"[(1178, 868)]",[],[1],[102],[1.7],"[640.0, 512.0]",vertical,"(390.0, 262.0)",[0.7166666666666667],[0.802],0,476.713
2,False,76,1.307,78,[],[],"[(1156, 898)]",[],[1],[128],[2.1333333333333333],"[640.0, 512.0]",vertical,"(890.0, 262.0)",[0.5833333333333334],[0.803],0,480.713
2,False,77,0.42,25,[],[],"[(1162, 875)]",[],[1],[75],[1.25],"[640.0, 512.0]",horizontal,"(890.0, 262.0)",[0.85],[0.8],0,496.299
2,False,78,0.345,20,[],[],"[(1177, 888)]",[],[1],[70],[1.1666666666666667],"[640.0, 512.0]",vertical,"(890.0, 762.0)",[1.3333333333333333],[0.811],0,502.181
2,False,79,0.441,26,[],[],"[(1158, 864)]",[],[1],[61],[1.0166666666666666],"[640.0, 512.0]",vertical,"(390.0, 762.0)",[0.9833333333333333],[0.556],1,506.229
2,False,80,1.291,77,[],[],"[(1148, 875)]",[],[1],[111],[1.8499999999999999],"[640.0, 512.0]",vertical,"(890.0, 762.0)",[1.4],[0.547],1,509.862
2,False,81,0.355,21,[],[],"[(1148, 870)]",[],[1],[55],[0.9166666666666666],"[640.0, 512.0]",vertical,"(390.0, 262.0)",[1.4333333333333333],[0.543],1,514.662
2,False,82,0.665,39,[],[],"[(1172, 875)]",[],[1],[75],[1.25],"[640.0, 512.0]",vertical,"(390.0, 762.0)",[1.35],[0.577],1,518.632
2,False,83,1.108,66,[],[],"[(1117, 866)]",[],[1],[116],[1.9333333333333333],"[640.0, 512.0]",vertical,"(890.0, 762.0)",[0.7833333333333333],[0.804],0,522.742
2,False,84,1.068,64,[],[],"[(1114, 862)]",[],[1],[114],[1.9],"[640.0, 512.0]",vertical,"(890.0, 762.0)",[1.65],[0.803],0,526.997
2,False,85,0.725,43,[],[],"[(1196, 884)]",[],[1],[76],[1.2666666666666666],"[640.0, 512.0]",horizontal,"(390.0, 262.0)",[1.4833333333333334],[0.524],1,535.644
2,False,86,0.345,20,[],[],"[(1202, 866)]",[],[1],[65],[1.0833333333333333],"[640.0, 512.0]",vertical,"(890.0, 762.0)",[1.1666666666666667],[0.726],1,539.943
2,False,87,0.709,42,[],[],"[(1214, 846)]",[],[1],[92],[1.5333333333333332],"[640.0, 512.0]",vertical,"(390.0, 762.0)",[0.9166666666666666],[0.804],0,543.731
2,False,88,0.518,31,[],[],"[(1160, 866)]",[],[1],[61],[1.0166666666666666],"[640.0, 512.0]",horizontal,"(890.0, 262.0)",[1.45],[0.476],1,547.728
2,False,89,0.916,54,[],[],"[(1172, 866)]",[],[1],[89],[1.4833333333333334],"[640.0, 512.0]",horizontal,"(390.0, 762.0)",[0.65],[0.556],1,552.513
2,False,90,0.708,42,[],[],"[(1172, 880)]",[],[1],[76],[1.2666666666666666],"[640.0, 512.0]",vertical,"(890.0, 262.0)",[1.1833333333333333],[0.538],1,556.396
2,False,91,0.902,54,[],[],"[(1190, 885)]",[],[1],[104],[1.7333333333333334],"[640.0, 512.0]",vertical,"(390.0, 262.0)",[1.15],[0.8],0,560.365
2,False,92,0.334,20,[],[],"[(1215, 881)]",[],[1],[57],[0.95],"[640.0, 512.0]",horizontal,"(890.0, 762.0)",[1.6166666666666667],[0.59],1,564.792
2,False,93,0.468,28,[],[],"[(1154, 889)]",[],[1],[72],[1.2],"[640.0, 512.0]",horizontal,"(890.0, 762.0)",[0.5666666666666667],[0.708],1,568.844
2,False,94,0.871,52,[],[],"[(1169, 877)]",[],[1],[85],[1.4166666666666667],"[640.0, 512.0]",horizontal,"(890.0, 762.0)",[1.5166666666666666],[0.524],1,572.7
2,False,95,1.12,67,[],[],"[(1172, 854)]",[],[1],[117],[1.95],"[640.0, 512.0]",vertical,"(890.0, 762.0)",[1.2333333333333334],[0.805],0,577.312
2,False,96,0.861,51,[],[],"[(1153, 869)]",[],[1],[86],[1.4333333333333333],"[640.0, 512.0]",horizontal,"(890.0, 262.0)",[1.15],[0.561],1,582.079
2,False,97,0.582,34,[],[],"[(1166, 872)]",[],[1],[84],[1.4],"[640.0, 512.0]",horizontal,"(890.0, 262.0)",[1.5833333333333333],[0.804],0,587.605
2,False,98,1.06,63,[],[],"[(1123, 874)]",[],[1],[97],[1.6166666666666667],"[640.0, 512.0]",vertical,"(890.0, 262.0)",[0.75],[0.542],1,592.174
2,False,99,0.914,54,[],[],"[(1160, 873)]",[],[1],[104],[1.7333333333333334],"[640.0, 512.0]",horizontal,"(890.0, 262.0)",[1.35],[0.805],0,596.286
2,False,100,1.111,66,[],[],"[(1118, 887)]",[],[1],[116],[1.9333333333333333],"[640.0, 512.0]",vertical,"(390.0, 262.0)",[0.7833333333333333],[0.805],0,600.977
2,False,101,1.339,80,[],[],"[(1157, 882)]",[],[1],[116],[1.9333333333333333],"[640.0, 512.0]",vertical,"(890.0, 262.0)",[0.9833333333333333],[0.573],1,605.798
2,False,102,1.429,85,[],[],"[(1162, 875)]",[],[1],[116],[1.9333333333333333],"[640.0, 512.0]",vertical,"(390.0, 262.0)",[1.2666666666666666],[0.492],1,610.526
2,False,103,1.199,71,[],[],"[(1170, 889)]",[],[1],[105],[1.75],"[640.0, 512.0]",horizontal,"(890.0, 762.0)",[0.75],[0.545],1,615.336
2,False,104,0.897,53,[],[],"[(1172, 866)]",[],[1],[88],[1.4666666666666666],"[640.0, 512.0]",horizontal,"(390.0, 262.0)",[1.3],[0.559],1,619.377
2,False,105,0.924,55,[],[],"[(1153, 871)]",[],[1],[102],[1.7],"[640.0, 512.0]",horizontal,"(390.0, 262.0)",[1.4333333333333333],[0.756],1,623.811
2,False,106,1.186,71,[],[],"[(1160, 857)]",[],[1],[113],[1.8833333333333333],"[640.0, 512.0]",horizontal,"(390.0, 262.0)",[0.6333333333333333],[0.673],1,628.484
2,False,107,0.384,23,[],[],"[(1160, 871)]",[],[1],[62],[1.0333333333333332],"[640.0, 512.0]",vertical,"(390.0, 262.0)",[0.8666666666666667],[0.624],1,632.559
2,False,108,0.524,31,[],[],"[(1160, 859)]",[],[1],[66],[1.1],"[640.0, 512.0]",vertical,"(890.0, 762.0)",[1.1833333333333333],[0.557],1,636.032
2,False,109,0.714,42,[],[],"[(1166, 905)]",[],[1],[92],[1.5333333333333332],"[640.0, 512.0]",horizontal,"(890.0, 262.0)",[0.8666666666666667],[0.803],0,639.949
2,False,110,1.276,76,[],[],"[(1046, 909)]",[],[1],[105],[1.75],"[640.0, 512.0]",horizontal,"(390.0, 262.0)",[1.4333333333333333],[0.462],1,682.705
2,False,111,0.561,33,[],[],"[(1181, 885)]",[],[1],[68],[1.1333333333333333],"[640.0, 512.0]",vertical,"(890.0, 262.0)",[1.0166666666666666],[0.556],1,694.776
2,False,112,0.601,36,[],[],"[(1208, 873)]",[],[1],[68],[1.1333333333333333],"[640.0, 512.0]",horizontal,"(890.0, 262.0)",[0.5333333333333333],[0.51],1,698.494
2,False,113,0.837,50,[],[],"[(1160, 870)]",[],[1],[100],[1.6666666666666667],"[640.0, 512.0]",horizontal,"(390.0, 262.0)",[0.8333333333333334],[0.805],0,701.66
2,False,114,0.696,41,[],[],"[(1191, 876)]",[],[1],[72],[1.2],"[640.0, 512.0]",horizontal,"(890.0, 262.0)",[1.0333333333333332],[0.495],1,705.849
2,False,115,0.971,58,[],[],"[(1167, 880)]",[],[1],[108],[1.8],"[640.0, 512.0]",vertical,"(390.0, 762.0)",[0.9],[0.807],0,709.614
2,False,116,0.95,57,[],[],"[(1121, 866)]",[],[1],[107],[1.7833333333333332],"[640.0, 512.0]",vertical,"(390.0, 262.0)",[1.0166666666666666],[0.804],0,713.822
2,False,117,0.964,57,[],[],"[(1123, 879)]",[],[1],[107],[1.7833333333333332],"[640.0, 512.0]",horizontal,"(890.0, 262.0)",[0.6833333333333333],[0.803],0,718.209
2,False,118,0.511,30,[],[],"[(1203, 871)]",[],[1],[63],[1.05],"[640.0, 512.0]",vertical,"(390.0, 262.0)",[0.9166666666666666],[0.523],1,722.525
2,False,119,0.565,33,[],[],"[(1193, 870)]",[],[1],[83],[1.3833333333333333],"[640.0, 512.0]",vertical,"(890.0, 262.0)",[1.3833333333333333],[0.821],0,726.013
2,False,120,0.736,44,[],[],"[(1196, 873)]",[],[1],[94],[1.5666666666666667],"[640.0, 512.0]",vertical,"(390.0, 262.0)",[1.0],[0.8],0,730.434
3,False,121,1.164,69,[],[],"[(1142, 872)]",[],[1],[97],[1.6166666666666667],"[640.0, 512.0]",horizontal,"(390.0, 262.0)",[0.5666666666666667],[0.444],1,734.503
3,False,122,0.667,40,[],[],"[(1142, 875)]",[],[1],[73],[1.2166666666666666],"[640.0, 512.0]",vertical,"(390.0, 262.0)",[0.5],[0.526],1,747.043
3,False,123,1.404,84,[],[],"[(1143, 880)]",[],[1],[93],[1.55],"[640.0, 512.0]",horizontal,"(390.0, 262.0)",[1.0833333333333333],[0.134],1,750.355
3,False,124,0.809,48,[],[],"[(1178, 861)]",[],[1],[98],[1.6333333333333333],"[640.0, 512.0]",horizontal,"(390.0, 262.0)",[1.2166666666666666],[0.803],0,754.519
3,False,125,1.224,73,[],[],"[(1015, 889), (1166, 875)]",[],"[0, 1]",[123],[2.05],"[640.0, 512.0]",horizontal,"(390.0, 262.0)",[0.8833333333333333],[0.814],0,758.946
3,False,126,1.272,76,[],[],"[(1225, 885)]",[],[1],[120],[2.0],"[640.0, 512.0]",horizontal,"(390.0, 762.0)",[0.9666666666666667],[0.707],1,773.793
3,False,127,1.34,80,[],[],"[(1148, 887)]",[],[1],[130],[2.1666666666666665],"[640.0, 512.0]",horizontal,"(390.0, 762.0)",[1.6833333333333333],[0.805],0,778.283
3,False,128,0.674,40,[],[],"[(1166, 887)]",[],[1],[78],[1.3],"[640.0, 512.0]",vertical,"(390.0, 762.0)",[0.8333333333333334],[0.604],1,783.666
3,False,129,1.341,80,[],[],"[(1227, 880)]",[],[1],[114],[1.9],"[640.0, 512.0]",horizontal,"(390.0, 762.0)",[1.05],[0.546],1,787.422
3,False,130,1.379,82,[],[],"[(1213, 889)]",[],[1],[132],[2.2],"[640.0, 512.0]",vertical,"(390.0, 762.0)",[1.0666666666666667],[0.809],0,791.953
3,False,131,1.269,76,[],[],"[(1118, 883)]",[],[1],[126],[2.1],"[640.0, 512.0]",vertical,"(390.0, 762.0)",[0.9833333333333333],[0.802],0,796.74
3,False,132,0.397,23,[],[],"[(1202, 875)]",[],[1],[61],[1.0166666666666666],"[640.0, 512.0]",vertical,"(390.0, 762.0)",[0.9666666666666667],[0.605],1,801.567
3,False,133,1.406,84,[],[],"[(1166, 875)]",[],[1],[134],[2.2333333333333334],"[640.0, 512.0]",horizontal,"(390.0, 262.0)",[0.7666666666666666],[0.802],0,805.049
3,False,134,0.633,37,[],[],"[(1167, 869)]",[],[1],[74],[1.2333333333333334],"[640.0, 512.0]",vertical,"(390.0, 762.0)",[1.0],[0.584],1,809.603
3,False,135,0.744,44,[],[],"[(1166, 870)]",[],[1],[94],[1.5666666666666667],"[640.0, 512.0]",horizontal,"(890.0, 762.0)",[0.7333333333333333],[0.809],0,813.473
3,False,136,0.593,35,[],[],"[(1172, 873)]",[],[1],[76],[1.2666666666666666],"[640.0, 512.0]",vertical,"(390.0, 262.0)",[1.55],[0.658],1,817.376
3,False,137,0.508,30,[],[],"[(1203, 889)]",[],[1],"[80, 80]","[1.3333333333333333, 1.3333333333333333]","[640.0, 512.0]",horizontal,"(390.0, 762.0)",[0.5166666666666666],"[0.809, 0.809]",0,822.816
3,False,138,1.088,65,[],[],"[(1162, 873)]",[],[1],[115],[1.9166666666666667],"[640.0, 512.0]",vertical,"(890.0, 762.0)",[1.5166666666666666],[0.812],0,826.194
3,False,139,0.354,21,[],[],"[(1208, 865)]",[],[1],[53],[0.8833333333333333],"[640.0, 512.0]",vertical,"(890.0, 262.0)",[1.6333333333333333],[0.511],1,831.646
3,False,140,1.064,63,[],[],"[(1163, 879)]",[],[1],[113],[1.8833333333333333],"[640.0, 512.0]",horizontal,"(890.0, 762.0)",[0.8333333333333334],[0.805],0,835.721
3,False,141,1.445,86,[],[],"[(1194, 880)]",[],[1],[122],[2.033333333333333],"[640.0, 512.0]",vertical,"(390.0, 762.0)",[0.9333333333333333],[0.577],1,840.091
3,False,142,1.343,80,[],[],"[(1154, 883)]",[],[1],[112],[1.8666666666666667],"[640.0, 512.0]",vertical,"(390.0, 762.0)",[1.5833333333333333],[0.522],1,844.589
3,False,143,1.061,63,[],[],"[(1163, 875)]",[],[1],[106],[1.7666666666666666],"[640.0, 512.0]",vertical,"(390.0, 262.0)",[0.6166666666666667],[0.693],1,849.561
3,False,144,0.602,36,[],[],"[(1150, 871)]",[],[1],[73],[1.2166666666666666],"[640.0, 512.0]",horizontal,"(390.0, 762.0)",[1.1833333333333333],[0.586],1,853.477
3,False,145,0.392,23,[],[],"[(1150, 888)]",[],[1],[73],[1.2166666666666666],"[640.0, 512.0]",vertical,"(390.0, 762.0)",[1.0666666666666667],[0.806],0,857.465
3,False,146,1.432,85,[],[],"[(1183, 873)]",[],[1],[135],[2.25],"[640.0, 512.0]",horizontal,"(890.0, 262.0)",[1.1],[0.799],0,861.292
3,False,147,1.327,79,[],[],"[(1184, 873)]",[],[1],[129],[2.15],"[640.0, 512.0]",vertical,"(890.0, 762.0)",[0.8],[0.805],0,866.063
3,False,148,1.002,60,[],[],"[(1177, 877)]",[],[1],[110],[1.8333333333333333],"[640.0, 512.0]",vertical,"(390.0, 262.0)",[1.4333333333333333],[0.803],0,870.511
3,False,149,0.881,52,[],[],"[(1165, 896)]",[],[1],[85],[1.4166666666666667],"[640.0, 512.0]",horizontal,"(390.0, 762.0)",[1.2166666666666666],[0.527],1,875.267
3,False,150,0.549,32,[],[],"[(1144, 876)]",[],[1],[70],[1.1666666666666667],"[640.0, 512.0]",vertical,"(390.0, 262.0)",[0.7333333333333333],[0.614],1,910.664
3,False,151,0.544,32,[],[],"[(1147, 872)]",[],[1],[63],[1.05],"[640.0, 512.0]",horizontal,"(890.0, 262.0)",[1.2333333333333334],[0.494],1,914.136
3,False,152,0.759,45,[],[],"[(1178, 881)]",[],[1],[80],[1.3333333333333333],"[640.0, 512.0]",vertical,"(390.0, 262.0)",[0.85],[0.557],1,917.934
3,False,153,0.492,29,[],[],"[(1117, 864)]",[],[1],[68],[1.1333333333333333],"[640.0, 512.0]",horizontal,"(890.0, 762.0)",[1.5666666666666667],[0.625],1,921.589
3,False,154,1.338,80,[],[],"[(1147, 885)]",[],[1],[110],[1.8333333333333333],"[640.0, 512.0]",vertical,"(890.0, 262.0)",[0.7],[0.479],1,925.858
3,False,155,1.268,76,[],[],"[(1137, 859)]",[],[1],[105],[1.75],"[640.0, 512.0]",vertical,"(890.0, 262.0)",[0.9],[0.463],1,929.945
3,False,156,1.321,79,[],[],"[(1149, 863)]",[],[1],[113],[1.8833333333333333],"[640.0, 512.0]",vertical,"(890.0, 762.0)",[0.8833333333333333],[0.541],1,934.143
3,False,157,0.814,48,[],[],"[(1153, 874)]",[],[1],[82],[1.3666666666666667],"[640.0, 512.0]",horizontal,"(890.0, 762.0)",[1.6833333333333333],[0.545],1,938.409
3,False,158,1.091,65,[],[],"[(1147, 866)]",[],[1],[104],[1.7333333333333334],"[640.0, 512.0]",vertical,"(390.0, 762.0)",[1.25],[0.624],1,942.959
3,False,159,1.071,64,[],[],"[(1146, 885)]",[],[1],[102],[1.7],"[640.0, 512.0]",horizontal,"(890.0, 762.0)",[1.0666666666666667],[0.607],1,948.587
3,False,160,1.21,72,[],[],"[(1173, 885)]",[],[1],[103],[1.7166666666666666],"[640.0, 512.0]",horizontal,"(890.0, 262.0)",[1.1833333333333333],[0.496],1,952.832
3,False,161,1.228,73,[],[],"[(1172, 859)]",[],[1],[111],[1.8499999999999999],"[640.0, 512.0]",horizontal,"(390.0, 262.0)",[1.5166666666666666],[0.604],1,957.222
3,False,162,1.459,87,[],[],"[(1177, 881)]",[],[1],[119],[1.9833333333333334],"[640.0, 512.0]",horizontal,"(890.0, 262.0)",[0.65],[0.515],1,962.094
3,False,163,1.197,71,[],[],"[(1148, 885)]",[],[1],[111],[1.8499999999999999],"[640.0, 512.0]",vertical,"(890.0, 762.0)",[0.6166666666666667],[0.657],1,966.228
3,False,164,1.446,86,[],[],"[(1155, 885)]",[],[1],[125],[2.0833333333333335],"[640.0, 512.0]",vertical,"(390.0, 762.0)",[0.6],[0.621],1,970.233
3,False,165,0.735,44,[],[],"[(1117, 885)]",[],[1],[83],[1.3833333333333333],"[640.0, 512.0]",vertical,"(390.0, 762.0)",[1.25],[0.625],1,974.483
3,False,166,0.772,46,[],[],"[(1123, 884)]",[],[1],[82],[1.3666666666666667],"[640.0, 512.0]",vertical,"(390.0, 762.0)",[0.8166666666666667],[0.574],1,978.695
3,False,167,0.572,34,[],[],"[(1148, 866)]",[],[1],[69],[1.15],"[640.0, 512.0]",vertical,"(890.0, 762.0)",[1.0],[0.56],1,982.416
3,False,168,0.651,39,[],[],"[(1149, 889)]",[],[1],[76],[1.2666666666666666],"[640.0, 512.0]",horizontal,"(890.0, 262.0)",[1.6],[0.593],1,986.101
3,False,169,0.437,26,[],[],"[(1131, 870)]",[],[1],[61],[1.0166666666666666],"[640.0, 512.0]",horizontal,"(890.0, 762.0)",[1.0666666666666667],[0.562],1,990.478
3,False,170,0.587,35,[],[],"[(1133, 865)]",[],[1],[67],[1.1166666666666667],"[640.0, 512.0]",vertical,"(890.0, 262.0)",[0.6333333333333333],[0.514],1,994.183
3,False,171,1.116,66,[],[],"[(1153, 871)]",[],[1],[99],[1.65],"[640.0, 512.0]",vertical,"(390.0, 262.0)",[0.8833333333333333],[0.523],1,997.566
3,False,172,0.939,56,[],[],"[(1166, 868)]",[],[1],[88],[1.4666666666666666],"[640.0, 512.0]",vertical,"(390.0, 762.0)",[1.6166666666666667],[0.51],1,1001.608
3,False,173,1.213,72,[],[],"[(1148, 873)]",[],[1],[108],[1.8],"[640.0, 512.0]",horizontal,"(890.0, 762.0)",[1.0],[0.577],1,1006.193
3,False,174,0.47,28,[],[],"[(1169, 878)]",[],[1],[62],[1.0333333333333332],"[640.0, 512.0]",vertical,"(390.0, 762.0)",[1.3333333333333333],[0.538],1,1010.472
3,False,175,0.39,23,[],[],"[(1147, 885)]",[],[1],[63],[1.05],"[640.0, 512.0]",horizontal,"(390.0, 762.0)",[0.5333333333333333],[0.64],1,1014.35
3,False,176,1.266,75,[],[],"[(1153, 881)]",[],[1],[111],[1.8499999999999999],"[640.0, 512.0]",horizontal,"(390.0, 262.0)",[1.2],[0.574],1,1017.859
3,False,177,1.192,71,[],[],"[(1146, 872)]",[],[1],[108],[1.8],"[640.0, 512.0]",vertical,"(390.0, 762.0)",[0.5666666666666667],[0.589],1,1022.431
3,False,178,0.622,37,[],[],"[(1160, 880)]",[],[1],[72],[1.2],"[640.0, 512.0]",vertical,"(390.0, 262.0)",[1.3666666666666667],[0.554],1,1026.368
3,False,179,1.319,79,[],[],"[(1123, 875)]",[],[1],[113],[1.8833333333333333],"[640.0, 512.0]",horizontal,"(390.0, 262.0)",[0.65],[0.541],1,1030.523
3,False,180,0.807,48,[],[],"[(1160, 866)]",[],[1],[79],[1.3166666666666667],"[640.0, 512.0]",horizontal,"(890.0, 262.0)",[0.9833333333333333],[0.488],1,1034.571
4,False,181,1.239,74,[],[],"[(1163, 872)]",[],[1],[108],[1.8],"[640.0, 512.0]",horizontal,"(390.0, 762.0)",[0.6833333333333333],[0.542],1,1038.418
4,False,182,0.816,48,[],[],"[(1148, 878)]",[],[1],[79],[1.3166666666666667],"[640.0, 512.0]",vertical,"(390.0, 762.0)",[1.55],[0.5],1,1042.429
4,False,183,0.411,24,[],[],"[(1123, 889)]",[],[1],[57],[0.95],"[640.0, 512.0]",vertical,"(390.0, 262.0)",[1.1],[0.534],1,1046.815
4,False,184,1.467,88,[],[],"[(1148, 879)]",[],[1],[123],[2.05],"[640.0, 512.0]",horizontal,"(390.0, 762.0)",[0.5],[0.555],1,1050.416
4,False,185,0.67,40,[],[],"[(1144, 875)]",[],[1],[73],[1.2166666666666666],"[640.0, 512.0]",horizontal,"(890.0, 762.0)",[1.4666666666666666],[0.525],1,1054.518
4,False,186,1.087,65,[],[],"[(1162, 886)]",[],[1],[102],[1.7],"[640.0, 512.0]",vertical,"(390.0, 262.0)",[1.6666666666666667],[0.589],1,1058.784
4,False,187,0.587,35,[],[],"[(1161, 866)]",[],[1],[77],[1.2833333333333332],"[640.0, 512.0]",horizontal,"(390.0, 262.0)",[1.65],[0.67],1,1063.611
4,False,188,0.456,27,[],[],"[(1123, 851)]",[],[1],[58],[0.9666666666666667],"[640.0, 512.0]",vertical,"(390.0, 262.0)",[1.65],[0.49],1,1068.077
4,False,189,1.468,88,[],[],"[(1166, 879)]",[],[1],[116],[1.9333333333333333],"[640.0, 512.0]",vertical,"(890.0, 262.0)",[0.7833333333333333],[0.443],1,1072.281
4,False,190,1.431,85,[],[],"[(1180, 866)]",[],[1],[123],[2.05],"[640.0, 512.0]",vertical,"(390.0, 262.0)",[0.6833333333333333],[0.604],1,1076.532
4,False,191,0.473,28,[],[],"[(1148, 885)]",[],[1],[57],[0.95],"[640.0, 512.0]",vertical,"(390.0, 262.0)",[1.4833333333333334],[0.462],1,1080.799
4,False,192,1.171,70,[],[],"[(1178, 869)]",[],[1],[109],[1.8166666666666667],"[640.0, 512.0]",vertical,"(390.0, 762.0)",[0.9],[0.622],1,1084.774
4,False,193,1.113,66,[],[],"[(1178, 870)]",[],[1],[103],[1.7166666666666666],"[640.0, 512.0]",horizontal,"(890.0, 762.0)",[1.6833333333333333],[0.59],1,1088.995
4,False,194,1.4,84,[],[],"[(1159, 886)]",[],[1],[115],[1.9166666666666667],"[640.0, 512.0]",horizontal,"(390.0, 262.0)",[1.6666666666666667],[0.489],1,1093.885
4,False,195,0.679,40,[],[],"[(1180, 868)]",[],[1],[74],[1.2333333333333334],"[640.0, 512.0]",horizontal,"(890.0, 762.0)",[0.75],[0.541],1,1099.0
4,False,196,1.483,88,[],[],"[(1166, 882)]",[],[1],[121],[2.0166666666666666],"[640.0, 512.0]",vertical,"(890.0, 262.0)",[0.7666666666666666],[0.525],1,1102.496
4,False,197,0.689,41,[],[],"[(1170, 870)]",[],[1],[74],[1.2333333333333334],"[640.0, 512.0]",horizontal,"(890.0, 762.0)",[0.5666666666666667],[0.532],1,1106.833
4,False,198,1.281,76,[],[],"[(1181, 879)]",[],[1],[109],[1.8166666666666667],"[640.0, 512.0]",vertical,"(890.0, 762.0)",[1.0833333333333333],[0.519],1,1110.155
4,False,199,0.763,45,[],[],"[(1194, 869)]",[],[1],[78],[1.3],"[640.0, 512.0]",horizontal,"(390.0, 262.0)",[1.1833333333333333],[0.532],1,1114.568
4,False,200,0.326,19,[],[],"[(1166, 899)]",[],[1],[53],[0.8833333333333333],"[640.0, 512.0]",horizontal,"(890.0, 762.0)",[1.5333333333333332],[0.55],1,1118.566
4,False,201,0.909,54,[],[],"[(1181, 876)]",[],[1],[82],[1.3666666666666667],"[640.0, 512.0]",horizontal,"(890.0, 262.0)",[1.4666666666666666],[0.443],1,1122.547
4,False,202,0.916,54,[],[],"[(1190, 870)]",[],[1],[80],[1.3333333333333333],"[640.0, 512.0]",vertical,"(390.0, 262.0)",[1.3833333333333333],[0.417],1,1126.9
4,False,203,0.65,39,[],[],"[(1155, 851)]",[],[1],[72],[1.2],"[640.0, 512.0]",horizontal,"(390.0, 262.0)",[1.1666666666666667],[0.531],1,1131.1
4,False,204,1.251,75,[],[],"[(1194, 867)]",[],[1],[109],[1.8166666666666667],"[640.0, 512.0]",horizontal,"(390.0, 762.0)",[0.6],[0.542],1,1135.051
4,False,205,0.448,26,[],[],"[(1184, 868)]",[],[1],[63],[1.05],"[640.0, 512.0]",horizontal,"(390.0, 762.0)",[0.9833333333333333],[0.589],1,1139.001
4,False,206,0.946,56,[],[],"[(1153, 873)]",[],[1],[92],[1.5333333333333332],"[640.0, 512.0]",horizontal,"(890.0, 762.0)",[0.9166666666666666],[0.571],1,1142.529
4,False,207,1.254,75,[],[],"[(1196, 875)]",[],[1],[108],[1.8],"[640.0, 512.0]",vertical,"(390.0, 262.0)",[1.0833333333333333],[0.52],1,1146.49
4,False,208,1.245,74,[],[],"[(1107, 882)]",[],[1],[104],[1.7333333333333334],"[640.0, 512.0]",vertical,"(890.0, 262.0)",[1.2333333333333334],[0.474],1,1150.879
4,False,209,1.484,89,[],[],"[(1123, 877)]",[],[1],[115],[1.9166666666666667],"[640.0, 512.0]",vertical,"(390.0, 262.0)",[1.5833333333333333],[0.414],1,1155.417
4,False,210,0.458,27,[],[],"[(1120, 884)]",[],[1],[60],[1.0],"[640.0, 512.0]",vertical,"(890.0, 262.0)",[0.5666666666666667],[0.533],1,1160.475
4,False,211,1.466,87,[],[],"[(1142, 879)]",[],[1],[117],[1.95],"[640.0, 512.0]",horizontal,"(390.0, 762.0)",[0.9],[0.476],1,1163.607
4,False,212,1.047,62,[],[],"[(1166, 872)]",[],[1],[104],[1.7333333333333334],"[640.0, 512.0]",vertical,"(390.0, 262.0)",[0.6666666666666666],[0.666],1,1168.011
4,False,213,0.535,32,[],[],"[(1117, 883)]",[],[1],[70],[1.1666666666666667],"[640.0, 512.0]",horizontal,"(890.0, 262.0)",[1.6166666666666667],[0.605],1,1171.893
4,False,214,0.936,56,[],[],"[(1148, 856)]",[],[1],[101],[1.6833333333333333],"[640.0, 512.0]",vertical,"(390.0, 762.0)",[1.1],[0.722],1,1176.251
4,False,215,1.367,82,[],[],"[(1105, 903)]",[],[1],[115],[1.9166666666666667],"[640.0, 512.0]",horizontal,"(390.0, 762.0)",[0.7333333333333333],[0.528],1,1180.601
4,False,216,1.003,60,[],[],"[(1113, 876)]",[],[1],[92],[1.5333333333333332],"[640.0, 512.0]",horizontal,"(890.0, 262.0)",[1.3833333333333333],[0.505],1,1190.225
4,False,217,0.369,22,[],[],"[(1129, 881)]",[],[1],[59],[0.9833333333333333],"[640.0, 512.0]",vertical,"(890.0, 262.0)",[1.4333333333333333],[0.59],1,1195.233
4,False,218,0.958,57,[],[],"[(1153, 889)]",[],[1],[],[],"[640.0, 512.0]",vertical,"(890.0, 262.0)",[],[0],0,1199.193
4,False,219,0.587,35,[],[],"[(1177, 880)]",[],[1],[69],[1.15],"[640.0, 512.0]",vertical,"(390.0, 262.0)",[1.1],[0.542],1,1203.345
4,False,220,1.46,87,[],[],"[(1148, 875)]",[],[1],[120],[2.0],"[640.0, 512.0]",horizontal,"(390.0, 262.0)",[0.7333333333333333],[0.527],1,1207.131
4,False,221,1.32,79,[],[],"[(1140, 882)]",[],[1],[113],[1.8833333333333333],"[640.0, 512.0]",vertical,"(890.0, 762.0)",[1.4833333333333334],[0.539],1,1211.385
4,False,222,1.061,63,[],[],"[(1166, 873)]",[],[1],[95],[1.5833333333333333],"[640.0, 512.0]",horizontal,"(390.0, 262.0)",[0.8666666666666667],[0.508],1,1216.28
4,False,223,0.923,55,[],[],"[(1190, 884)]",[],[1],[90],[1.5],"[640.0, 512.0]",horizontal,"(390.0, 262.0)",[0.7333333333333333],[0.567],1,1220.278
4,False,224,0.924,55,[],[],"[(1144, 885)]",[],[1],[91],[1.5166666666666666],"[640.0, 512.0]",vertical,"(390.0, 762.0)",[0.5833333333333334],[0.584],1,1224.034
4,False,225,1.288,77,[],[],"[(1166, 861)]",[],[1],[112],[1.8666666666666667],"[640.0, 512.0]",vertical,"(390.0, 262.0)",[1.0166666666666666],[0.559],1,1227.651
4,False,226,0.455,27,[],[],"[(1151, 880)]",[],[1],[63],[1.05],"[640.0, 512.0]",vertical,"(390.0, 762.0)",[0.65],[0.576],1,1232.049
4,False,227,1.47,88,[],[],"[(1136, 880)]",[],[1],[112],[1.8666666666666667],"[640.0, 512.0]",horizontal,"(390.0, 762.0)",[1.4333333333333333],[0.381],1,1235.317
4,False,228,0.723,43,[],[],"[(1148, 880)]",[],[1],[80],[1.3333333333333333],"[640.0, 512.0]",horizontal,"(390.0, 262.0)",[0.95],[0.589],1,1240.174
4,False,229,1.438,86,[],[],"[(1123, 864)]",[],[1],[136],[2.2666666666666666],"[640.0, 512.0]",horizontal,"(390.0, 262.0)",[1.5333333333333332],[0.802],0,1244.134
4,False,230,0.863,51,[],[],"[(1171, 932)]",[],[1],[101],[1.6833333333333333],"[640.0, 512.0]",horizontal,"(890.0, 262.0)",[1.4333333333333333],[0.806],0,1251.148
4,False,231,0.811,48,[],[],"[(1174, 938)]",[],[1],[98],[1.6333333333333333],"[640.0, 512.0]",horizontal,"(890.0, 762.0)",[1.6833333333333333],[0.801],0,1296.84
4,False,232,1.31,78,[],[],"[(1172, 917)]",[],[1],[110],[1.8333333333333333],"[640.0, 512.0]",vertical,"(390.0, 762.0)",[0.8166666666666667],[0.508],1,1343.165
4,False,233,1.316,78,[],[],"[(1169, 924)]",[],[1],[109],[1.8166666666666667],"[640.0, 512.0]",vertical,"(390.0, 762.0)",[0.65],[0.496],1,1357.484
4,False,234,1.149,68,[],[],"[(1166, 919)]",[],[1],[97],[1.6166666666666667],"[640.0, 512.0]",horizontal,"(890.0, 262.0)",[1.4],[0.458],1,1361.568
4,False,235,1.465,87,[1425462],[1425462],"[(1177, 937), (1179, 925)]","[(1179, 925)]","[1, 1]",[18],[0.3],"[640.0, 512.0]",horizontal,"(390.0, 762.0)",[],[0],0,1366.279
4,False,236,1.029,61,[],[],"[(1185, 942)]",[],[1],[111],[1.8499999999999999],"[640.0, 512.0]",horizontal,"(890.0, 762.0)",[1.0666666666666667],[0.807],0,1368.971
4,False,237,0.995,59,[],[],"[(1187, 941)]",[],[1],[109],[1.8166666666666667],"[640.0, 512.0]",horizontal,"(890.0, 762.0)",[1.2833333333333332],[0.806],0,1374.423
4,False,238,0.942,56,[],[],"[(1159, 928)]",[],[1],[],[],"[640.0, 512.0]",vertical,"(890.0, 762.0)",[],[0],0,1382.77
4,False,239,0.691,41,[],[],"[(1158, 907)]",[],[1],[75],[1.25],"[640.0, 512.0]",horizontal,"(390.0, 762.0)",[0.8833333333333333],[0.54],1,1387.146
4,False,240,1.275,76,[],[],"[(1178, 940)]",[],[1],[126],[2.1],"[640.0, 512.0]",vertical,"(890.0, 762.0)",[0.55],[0.81],0,1400.036
5,False,241,0.377,22,[],[],"[(1163, 920)]",[],[1],[59],[0.9833333333333333],"[640.0, 512.0]",horizontal,"(390.0, 762.0)",[1.2833333333333332],[0.596],1,1405.833
5,False,242,0.683,40,[],[],"[(1168, 924)]",[],[1],[70],[1.1666666666666667],"[640.0, 512.0]",vertical,"(390.0, 262.0)",[1.5166666666666666],[0.474],1,1411.635
5,False,243,0.585,35,[],[],"[(1177, 945)]",[],[1],[85],[1.4166666666666667],"[640.0, 512.0]",vertical,"(390.0, 262.0)",[0.8833333333333333],[0.814],0,1418.846
5,False,244,0.823,49,[],[],"[(1166, 925)]",[],[1],[81],[1.35],"[640.0, 512.0]",horizontal,"(890.0, 762.0)",[0.9833333333333333],[0.51],1,1423.349
5,False,245,1.073,64,[],[1487346],"[(1179, 939)]","[(1171, 939)]",[1],[15],[0.25],"[640.0, 512.0]",horizontal,"(890.0, 762.0)",[],[0],0,1427.368
5,False,246,1.452,87,[],[],"[(1186, 953), (1165, 921)]",[],"[0, 1]",[],[],"[640.0, 512.0]",vertical,"(890.0, 762.0)",[],[0],0,1430.852
5,False,247,1.087,65,[],[],"[(1162, 919)]",[],[1],[115],[1.9166666666666667],"[640.0, 512.0]",vertical,"(390.0, 262.0)",[0.7666666666666666],[0.803],0,1438.792
5,False,248,0.603,36,[],[],"[(1180, 941)]",[],[1],[67],[1.1166666666666667],"[640.0, 512.0]",vertical,"(390.0, 262.0)",[0.8666666666666667],[0.501],1,1447.659
5,False,249,0.551,33,[],[],"[(1170, 924)]",[],[1],[82],[1.3666666666666667],"[640.0, 512.0]",horizontal,"(890.0, 262.0)",[0.8833333333333333],[0.789],1,1453.418
5,False,250,0.779,46,[],[],"[(1186, 951), (1178, 940)]",[],"[0, 1]",[96],[1.6],"[640.0, 512.0]",horizontal,"(890.0, 262.0)",[0.5166666666666666],[0.808],0,1457.284
5,False,251,0.525,31,[],[],"[(1187, 949), (1175, 939)]",[],"[0, 1]",[81],[1.35],"[640.0, 512.0]",vertical,"(390.0, 762.0)",[1.4],[0.806],0,1465.744
5,False,252,1.103,66,[],[],"[(1179, 943)]",[],[1],[99],[1.65],"[640.0, 512.0]",horizontal,"(890.0, 762.0)",[0.95],[0.522],1,1474.612
5,False,253,0.888,53,[],[],"[(1099, 885)]",[],[1],[94],[1.5666666666666667],"[640.0, 512.0]",horizontal,"(390.0, 762.0)",[1.0166666666666666],[0.657],1,1482.898
5,False,254,0.386,23,[],[],"[(1131, 872)]",[],[1],[58],[0.9666666666666667],"[640.0, 512.0]",vertical,"(890.0, 262.0)",[1.45],[0.558],1,1488.181
5,False,255,0.636,38,[],[],"[(1162, 880)]",[],[1],[72],[1.2],"[640.0, 512.0]",horizontal,"(390.0, 762.0)",[1.5666666666666667],[0.543],1,1492.167
5,False,256,0.685,41,[],[],"[(1154, 875)]",[],[1],[91],[1.5166666666666666],"[640.0, 512.0]",horizontal,"(890.0, 762.0)",[0.5166666666666666],[0.804],0,1500.135
5,False,257,0.533,31,[],[],"[(1119, 861)]",[],[1],[69],[1.15],"[640.0, 512.0]",vertical,"(390.0, 762.0)",[0.7333333333333333],[0.616],1,1505.725
5,False,258,0.615,36,[],[],"[(1139, 870)]",[],[1],[79],[1.3166666666666667],"[640.0, 512.0]",vertical,"(390.0, 762.0)",[0.9333333333333333],[0.688],1,1510.243
5,False,259,0.332,19,[],[],"[(1160, 877)]",[],[1],[69],[1.15],"[640.0, 512.0]",vertical,"(390.0, 762.0)",[0.8166666666666667],[0.803],0,1513.985
5,False,260,0.885,53,[],[],"[(1136, 875)]",[],[1],[103],[1.7166666666666666],"[640.0, 512.0]",vertical,"(890.0, 262.0)",[0.7],[0.8],0,1517.492
5,False,261,0.433,25,[],[],"[(1156, 883)]",[],[1],[62],[1.0333333333333332],"[640.0, 512.0]",vertical,"(390.0, 262.0)",[1.6166666666666667],[0.592],1,1521.615
5,False,262,0.845,50,[],[],"[(1155, 889)]",[],[1],[82],[1.3666666666666667],"[640.0, 512.0]",horizontal,"(390.0, 262.0)",[1.0666666666666667],[0.509],1,1526.332
5,False,263,1.347,80,[],[],"[(1172, 880)]",[],[1],[115],[1.9166666666666667],"[640.0, 512.0]",vertical,"(390.0, 762.0)",[0.6],[0.563],1,1530.385
5,False,264,1.349,80,[],[],"[(1141, 889)]",[],[1],[118],[1.9666666666666666],"[640.0, 512.0]",horizontal,"(890.0, 262.0)",[0.7],[0.604],1,1534.443
5,False,265,1.305,78,[],[],"[(1157, 885)]",[],[1],[112],[1.8666666666666667],"[640.0, 512.0]",vertical,"(890.0, 262.0)",[1.4166666666666667],[0.538],1,1542.196
5,False,266,1.269,76,[],[],"[(1165, 871)]",[],[1],[107],[1.7833333333333332],"[640.0, 512.0]",vertical,"(390.0, 762.0)",[1.5166666666666666],[0.49],1,1548.786
5,False,267,1.03,61,[],[],"[(1154, 885)]",[],[1],[95],[1.5833333333333333],"[640.0, 512.0]",vertical,"(890.0, 262.0)",[1.4],[0.548],1,1553.65
5,False,268,1.441,86,[],[],"[(1171, 865)]",[],[1],[],[],"[640.0, 512.0]",horizontal,"(890.0, 262.0)",[],[0],0,1558.166
5,False,269,1.276,76,[],[],"[(1129, 863)]",[],[1],[108],[1.8],"[640.0, 512.0]",horizontal,"(390.0, 762.0)",[1.2833333333333332],[0.511],1,1562.513
5,False,270,0.333,19,[],[],"[(1153, 861)]",[],[1],[60],[1.0],"[640.0, 512.0]",horizontal,"(390.0, 762.0)",[1.3],[0.654],1,1571.601
5,False,271,0.333,19,[],[],"[(1189, 877)]",[],[1],[69],[1.15],"[640.0, 512.0]",vertical,"(390.0, 762.0)",[1.1333333333333333],[0.798],0,1575.37
5,False,272,0.378,22,[],[],"[(1153, 871)]",[],[1],[72],[1.2],"[640.0, 512.0]",vertical,"(890.0, 262.0)",[1.0833333333333333],[0.805],0,1579.163
5,False,273,1.013,60,[],[],"[(1167, 869)]",[],[1],[96],[1.6],"[640.0, 512.0]",horizontal,"(390.0, 762.0)",[0.5],[0.578],1,1583.875
5,False,274,1.282,76,[],[],"[(1129, 857)]",[],[1],[109],[1.8166666666666667],"[640.0, 512.0]",horizontal,"(890.0, 762.0)",[1.1166666666666667],[0.526],1,1597.892
5,False,275,0.386,23,[],[],"[(1172, 863)]",[],[1],[57],[0.95],"[640.0, 512.0]",vertical,"(890.0, 762.0)",[1.3666666666666667],[0.543],1,1602.433
5,False,276,0.825,49,[],[],"[(1190, 869)]",[],[1],[83],[1.3833333333333333],"[640.0, 512.0]",vertical,"(390.0, 762.0)",[1.2],[0.544],1,1606.293
5,False,277,0.96,57,[],[],"[(1162, 861)]",[],[1],[91],[1.5166666666666666],"[640.0, 512.0]",horizontal,"(890.0, 762.0)",[1.35],[0.546],1,1610.4
5,False,278,1.209,72,[],[],"[(1148, 867)]",[],[1],[104],[1.7333333333333334],"[640.0, 512.0]",horizontal,"(890.0, 762.0)",[1.1],[0.51],1,1614.788
5,False,279,1.409,84,[],[],"[(1191, 879)]",[],[1],[116],[1.9333333333333333],"[640.0, 512.0]",horizontal,"(390.0, 262.0)",[1.1333333333333333],[0.508],1,1619.178
5,False,280,1.108,66,[],[],"[(1184, 875)]",[],[1],[99],[1.65],"[640.0, 512.0]",vertical,"(390.0, 262.0)",[1.1333333333333333],[0.525],1,1623.729
5,False,281,1.389,83,[],[],"[(1154, 861)]",[],[1],[114],[1.9],"[640.0, 512.0]",vertical,"(890.0, 262.0)",[1.15],[0.493],1,1628.023
5,False,282,0.615,36,[],[],"[(1195, 880)]",[],[1],[68],[1.1333333333333333],"[640.0, 512.0]",horizontal,"(390.0, 762.0)",[1.2],[0.511],1,1632.571
5,False,283,0.728,43,[],[],"[(1136, 859)]",[],[1],[77],[1.2833333333333332],"[640.0, 512.0]",vertical,"(390.0, 262.0)",[1.4666666666666666],[0.54],1,1636.4
5,False,284,1.381,82,[],[],"[(1123, 869)]",[],[1],[118],[1.9666666666666666],"[640.0, 512.0]",horizontal,"(390.0, 762.0)",[1.0166666666666666],[0.573],1,1641.547
5,False,285,0.981,58,[],[],"[(1172, 869)]",[],[1],[92],[1.5333333333333332],"[640.0, 512.0]",horizontal,"(890.0, 762.0)",[1.6166666666666667],[0.546],1,1646.129
5,False,286,1.316,78,[],[],"[(1169, 864)]",[],[1],[114],[1.9],"[640.0, 512.0]",vertical,"(890.0, 262.0)",[0.9],[0.572],1,1650.787
5,False,287,0.36,21,[],[],"[(1167, 859)]",[],[1],[54],[0.9],"[640.0, 512.0]",horizontal,"(390.0, 762.0)",[1.45],[0.525],1,1655.091
5,False,288,0.325,19,[],[],"[(1160, 863)]",[],[1],[53],[0.8833333333333333],"[640.0, 512.0]",vertical,"(890.0, 262.0)",[0.5166666666666666],[0.543],1,1658.918
5,False,289,0.621,37,[],[],"[(1166, 867)]",[],[1],[81],[1.35],"[640.0, 512.0]",horizontal,"(890.0, 262.0)",[1.3666666666666667],[0.704],1,1661.867
5,False,290,1.483,88,[],[],"[(1153, 883)]",[],[1],[118],[1.9666666666666666],"[640.0, 512.0]",horizontal,"(890.0, 262.0)",[0.8833333333333333],[0.477],1,1666.114
5,False,291,0.741,44,[],[],"[(1172, 894)]",[],[1],[77],[1.2833333333333332],"[640.0, 512.0]",vertical,"(890.0, 762.0)",[1.2],[0.523],1,1670.524
5,False,292,1.287,77,[],[],"[(1164, 867)]",[],[1],[107],[1.7833333333333332],"[640.0, 512.0]",horizontal,"(890.0, 762.0)",[1.3833333333333333],[0.478],1,1674.549
5,False,293,0.692,41,[],[],"[(1148, 868)]",[],[1],[73],[1.2166666666666666],"[640.0, 512.0]",horizontal,"(890.0, 262.0)",[0.85],[0.512],1,1679.325
5,False,294,0.937,56,[],[],"[(1166, 876)]",[],[1],[86],[1.4333333333333333],"[640.0, 512.0]",horizontal,"(890.0, 262.0)",[1.4666666666666666],[0.475],1,1682.953
5,False,295,0.824,49,[],[],"[(1148, 880)]",[],[1],[85],[1.4166666666666667],"[640.0, 512.0]",vertical,"(890.0, 262.0)",[0.6166666666666667],[0.572],1,1687.463
5,False,296,0.464,27,[],[],"[(1166, 864)]",[],[1],[67],[1.1166666666666667],"[640.0, 512.0]",horizontal,"(390.0, 762.0)",[1.5666666666666667],[0.642],1,1691.094
5,False,297,0.559,33,[],[],"[(1160, 870)]",[],[1],[71],[1.1833333333333333],"[640.0, 512.0]",vertical,"(390.0, 762.0)",[1.0833333333333333],[0.604],1,1695.381
5,False,298,1.168,70,[],[],"[(1174, 876)]",[],[1],[102],[1.7],"[640.0, 512.0]",horizontal,"(390.0, 262.0)",[1.1],[0.515],1,1699.166
5,False,299,1.433,85,[],[],"[(1142, 885)]",[],[1],[123],[2.05],"[640.0, 512.0]",vertical,"(390.0, 762.0)",[0.5166666666666666],[0.611],1,1703.519
5,False,300,1.124,67,[],[],"[(1111, 873)]",[],[1],[98],[1.6333333333333333],"[640.0, 512.0]",horizontal,"(890.0, 762.0)",[1.65],[0.495],1,1707.618
6,False,301,1.122,67,[],[],"[(1140, 881)]",[],[1],[104],[1.7333333333333334],"[640.0, 512.0]",vertical,"(390.0, 762.0)",[0.9666666666666667],[0.59],1,1712.487
6,False,302,0.33,19,[],[],"[(1117, 863)]",[],[1],[55],[0.9166666666666666],"[640.0, 512.0]",horizontal,"(390.0, 762.0)",[1.45],[0.58],1,1716.778
6,False,303,1.009,60,[],[],"[(1150, 877)]",[],[1],[98],[1.6333333333333333],"[640.0, 512.0]",horizontal,"(890.0, 762.0)",[0.5833333333333334],[0.611],1,1720.737
6,False,304,1.212,72,[],[],"[(1116, 885)]",[],[1],[106],[1.7666666666666666],"[640.0, 512.0]",horizontal,"(890.0, 762.0)",[0.9166666666666666],[0.545],1,1724.569
6,False,305,1.013,60,[],[],"[(1178, 864)]",[],[1],[97],[1.6166666666666667],"[640.0, 512.0]",horizontal,"(890.0, 762.0)",[0.7666666666666666],[0.597],1,1728.829
6,False,306,0.926,55,[],[],"[(1178, 871)]",[],[1],[87],[1.45],"[640.0, 512.0]",vertical,"(390.0, 262.0)",[0.9666666666666667],[0.507],1,1732.733
6,False,307,1.192,71,[],[],"[(1146, 863)]",[],[1],[112],[1.8666666666666667],"[640.0, 512.0]",horizontal,"(390.0, 262.0)",[0.9666666666666667],[0.651],1,1736.704
6,False,308,1.167,70,[],[],"[(1142, 861)]",[],[1],[106],[1.7666666666666666],"[640.0, 512.0]",horizontal,"(890.0, 762.0)",[0.5166666666666666],[0.573],1,1741.13
6,False,309,1.408,84,[],[],"[(1178, 866)]",[],[1],[116],[1.9333333333333333],"[640.0, 512.0]",horizontal,"(890.0, 262.0)",[1.25],[0.518],1,1744.965
6,False,310,1.202,72,[],[],"[(1148, 875)]",[],[1],[104],[1.7333333333333334],"[640.0, 512.0]",vertical,"(890.0, 262.0)",[0.6666666666666666],[0.513],1,1749.739
6,False,311,0.486,29,[],[],"[(1183, 865)]",[],[1],[61],[1.0166666666666666],"[640.0, 512.0]",vertical,"(890.0, 762.0)",[1.1666666666666667],[0.515],1,1753.698
6,False,312,0.372,22,[],[],"[(1142, 865)]",[],[1],[54],[0.9],"[640.0, 512.0]",horizontal,"(890.0, 262.0)",[1.0],[0.506],1,1757.446
6,False,313,0.945,56,[],[],"[(1184, 864)]",[],[1],[93],[1.55],"[640.0, 512.0]",horizontal,"(390.0, 762.0)",[0.5166666666666666],[0.593],1,1760.941
6,False,314,0.7,42,[],[],"[(1131, 887)]",[],[1],[75],[1.25],"[640.0, 512.0]",vertical,"(390.0, 762.0)",[0.9],[0.528],1,1764.522
6,False,315,0.434,26,[],[],"[(1166, 854)]",[],[1],[60],[1.0],"[640.0, 512.0]",horizontal,"(890.0, 262.0)",[1.4],[0.537],1,1768.26
6,False,316,0.614,36,[],[],"[(1148, 866)]",[],[1],[56],[0.9333333333333333],"[640.0, 512.0]",horizontal,"(390.0, 262.0)",[1.5333333333333332],[0.313],1,1772.263
6,False,317,0.674,40,[],[],"[(1148, 892)]",[],[1],[76],[1.2666666666666666],"[640.0, 512.0]",horizontal,"(390.0, 262.0)",[0.6],[0.574],1,1776.242
6,False,318,0.89,53,[],[],"[(1136, 875)]",[],[1],[93],[1.55],"[640.0, 512.0]",vertical,"(890.0, 262.0)",[0.5],[0.643],1,1779.642
6,False,319,1.351,81,[],[],"[(1139, 893)]",[],[1],[],[],"[640.0, 512.0]",vertical,"(390.0, 262.0)",[],[0],0,1783.237
6,False,320,0.484,29,[],[],"[(1133, 879)]",[],[1],[60],[1.0],"[640.0, 512.0]",horizontal,"(890.0, 262.0)",[1.4166666666666667],[0.494],1,1787.382
6,False,321,1.368,82,[],[],"[(1174, 853)]",[],[1],[127],[2.1166666666666667],"[640.0, 512.0]",vertical,"(890.0, 262.0)",[0.7333333333333333],[0.734],1,1791.706
6,False,322,1.377,82,[],[],"[(1139, 861)]",[],[1],[117],[1.95],"[640.0, 512.0]",horizontal,"(890.0, 762.0)",[1.15],[0.556],1,1796.099
6,False,323,1.022,61,[],[],"[(1112, 861)]",[],[1],[92],[1.5333333333333332],"[640.0, 512.0]",horizontal,"(390.0, 762.0)",[1.4833333333333334],[0.498],1,1800.74
6,False,324,0.636,38,[],[],"[(1157, 886)]",[],[1],[72],[1.2],"[640.0, 512.0]",vertical,"(390.0, 262.0)",[0.8],[0.544],1,1805.331
6,False,325,0.92,55,[],[],"[(1171, 858)]",[],[1],[91],[1.5166666666666666],"[640.0, 512.0]",vertical,"(890.0, 262.0)",[0.6],[0.577],1,1808.98
6,False,326,0.572,34,[],[],"[(1148, 873)]",[],[1],[67],[1.1166666666666667],"[640.0, 512.0]",horizontal,"(390.0, 262.0)",[1.2166666666666666],[0.523],1,1812.667
6,False,327,0.912,54,[],[],"[(1123, 868)]",[],[1],[98],[1.6333333333333333],"[640.0, 512.0]",horizontal,"(390.0, 262.0)",[1.2333333333333334],[0.709],1,1816.779
6,False,328,0.543,32,[],[],"[(1160, 866)]",[],[1],[79],[1.3166666666666667],"[640.0, 512.0]",vertical,"(890.0, 762.0)",[1.15],[0.756],1,1821.235
6,False,329,1.109,66,[],[],"[(1153, 887)]",[],[1],[88],[1.4666666666666666],"[640.0, 512.0]",vertical,"(390.0, 262.0)",[1.45],[0.346],1,1825.27
6,False,330,0.433,25,[],[],"[(1146, 887)]",[],[1],[60],[1.0],"[640.0, 512.0]",vertical,"(890.0, 262.0)",[0.6],[0.56],1,1831.234
6,False,331,1.478,88,[],[],"[(1125, 880)]",[],[1],[126],[2.1],"[640.0, 512.0]",vertical,"(890.0, 762.0)",[1.5666666666666667],[0.606],1,1834.418
6,False,332,0.532,31,[],[],"[(1145, 889)]",[],[1],"[81, 81]","[1.35, 1.35]","[640.0, 512.0]",horizontal,"(890.0, 262.0)",[0.5],"[0.806, 0.806]",0,1839.647
6,False,333,1.286,77,[],[],"[(1183, 870)]",[],[1],[88],[1.4666666666666666],"[640.0, 512.0]",vertical,"(890.0, 262.0)",[0.9666666666666667],[0.168],1,1843.031
6,False,334,0.791,47,[],[],"[(1133, 868)]",[],[1],[86],[1.4333333333333333],"[640.0, 512.0]",vertical,"(390.0, 762.0)",[1.5166666666666666],[0.625],1,1846.989
6,False,335,0.933,55,[],[],"[(1132, 867)]",[],[1],[85],[1.4166666666666667],"[640.0, 512.0]",vertical,"(890.0, 262.0)",[1.65],[0.474],1,1851.586
6,False,336,1.185,71,[],[],"[(1144, 861)]",[],[1],[109],[1.8166666666666667],"[640.0, 512.0]",vertical,"(890.0, 762.0)",[0.8666666666666667],[0.603],1,1856.179
6,False,337,1.006,60,[],[],"[(1186, 899)]",[],[1],[95],[1.5833333333333333],"[640.0, 512.0]",horizontal,"(890.0, 762.0)",[1.0666666666666667],[0.563],1,1860.422
6,False,338,0.625,37,[],[],"[(1184, 863)]",[],[1],[87],[1.45],"[640.0, 512.0]",vertical,"(890.0, 262.0)",[0.8833333333333333],[0.802],0,1880.018
6,False,339,0.395,23,[],[],"[(1205, 880)]",[],[1],[54],[0.9],"[640.0, 512.0]",vertical,"(390.0, 262.0)",[1.0],[0.488],1,1883.859
6,False,340,0.94,56,[],[],"[(1130, 875)]",[],[1],[88],[1.4666666666666666],"[640.0, 512.0]",vertical,"(390.0, 262.0)",[0.7],[0.511],1,1887.26
6,False,341,0.712,42,[],[],"[(1184, 858)]",[],[1],[78],[1.3],"[640.0, 512.0]",vertical,"(390.0, 762.0)",[0.85],[0.579],1,1890.949
6,False,342,0.332,19,[],[],"[(1156, 880)]",[],[1],[51],[0.85],"[640.0, 512.0]",vertical,"(890.0, 762.0)",[1.45],[0.513],1,1894.614
6,False,343,0.457,27,[],[],"[(1150, 880)]",[],[1],[61],[1.0166666666666666],"[640.0, 512.0]",horizontal,"(890.0, 262.0)",[0.7666666666666666],[0.542],1,1898.446
6,False,344,0.634,38,[],[],"[(1148, 871)]",[],[1],[73],[1.2166666666666666],"[640.0, 512.0]",horizontal,"(390.0, 762.0)",[0.75],[0.56],1,1901.747
6,False,345,0.456,27,[],[],"[(1148, 862)]",[],[1],[64],[1.0666666666666667],"[640.0, 512.0]",vertical,"(890.0, 762.0)",[0.5],[0.586],1,1905.253
6,False,346,0.662,39,[],[],"[(1166, 875)]",[],[1],[71],[1.1833333333333333],"[640.0, 512.0]",horizontal,"(390.0, 262.0)",[1.2666666666666666],[0.509],1,1908.334
6,False,347,0.627,37,[],[],"[(1170, 874)]",[],[1],[69],[1.15],"[640.0, 512.0]",vertical,"(390.0, 762.0)",[1.5833333333333333],[0.505],1,1912.32
6,False,348,0.946,56,[],[],"[(1142, 884)]",[],[1],[88],[1.4666666666666666],"[640.0, 512.0]",vertical,"(390.0, 762.0)",[0.6666666666666666],[0.509],1,1919.299
6,False,349,0.969,58,[],[],"[(1144, 846)]",[],[1],[99],[1.65],"[640.0, 512.0]",vertical,"(390.0, 262.0)",[1.2833333333333332],[0.655],1,1922.921
6,False,350,0.757,45,[],[],"[(1172, 866)]",[],[1],[60],[1.0],"[640.0, 512.0]",horizontal,"(890.0, 262.0)",[1.5333333333333332],[0.234],1,1927.431
6,False,351,0.86,51,[],[],"[(1184, 882)]",[],[1],[80],[1.3333333333333333],"[640.0, 512.0]",vertical,"(390.0, 262.0)",[1.6333333333333333],[0.458],1,1931.514
6,False,352,0.351,21,[],[],"[(1136, 870)]",[],[1],[52],[0.8666666666666667],"[640.0, 512.0]",horizontal,"(890.0, 762.0)",[1.5166666666666666],[0.493],1,1935.973
6,False,353,1.393,83,[],[],"[(1208, 870)]",[],[1],[102],[1.7],"[640.0, 512.0]",vertical,"(390.0, 262.0)",[0.7166666666666667],[0.293],1,1939.867
6,False,354,0.43,25,[],[],"[(1178, 858)]",[],[1],[62],[1.0333333333333332],"[640.0, 512.0]",horizontal,"(890.0, 762.0)",[1.5],[0.594],1,1943.799
6,False,355,1.479,88,[],[],"[(1140, 880)]",[],[1],[98],[1.6333333333333333],"[640.0, 512.0]",horizontal,"(390.0, 762.0)",[1.3666666666666667],[0.149],1,1947.891
6,False,356,0.677,40,[],[],"[(1143, 866)]",[],[1],[72],[1.2],"[640.0, 512.0]",vertical,"(390.0, 762.0)",[1.3666666666666667],[0.507],1,1952.464
6,False,357,1.231,73,[],[],"[(1202, 879)]",[],[1],[],[],"[640.0, 512.0]",vertical,"(390.0, 262.0)",[],[0],0,1956.568
6,False,358,0.708,42,[],[],"[(1209, 857)]",[],[1],[72],[1.2],"[640.0, 512.0]",vertical,"(390.0, 262.0)",[1.2333333333333334],[0.475],1,1960.87
6,False,359,0.658,39,[],[],"[(1133, 861)]",[],[1],[83],[1.3833333333333333],"[640.0, 512.0]",vertical,"(890.0, 262.0)",[1.3333333333333333],[0.701],1,1964.792
6,False,360,0.639,38,[],[],"[(1202, 861)]",[],[1],[84],[1.4],"[640.0, 512.0]",vertical,"(890.0, 762.0)",[0.7166666666666667],[0.732],1,1969.088
7,False,361,1.243,74,[],[],"[(1178, 871)]",[],[1],[90],[1.5],"[640.0, 512.0]",vertical,"(890.0, 262.0)",[1.5166666666666666],[0.25],1,1972.718
7,False,362,0.828,49,[],[],"[(1184, 873)]",[],[1],[78],[1.3],"[640.0, 512.0]",vertical,"(390.0, 262.0)",[1.6166666666666667],[0.463],1,1977.255
7,False,363,0.96,57,[],[],"[(1117, 870)]",[],[1],[88],[1.4666666666666666],"[640.0, 512.0]",horizontal,"(890.0, 262.0)",[0.5833333333333334],[0.491],1,1981.67
7,False,364,1.465,87,[],[],"[(1173, 868)]",[],[1],[],[],"[640.0, 512.0]",vertical,"(390.0, 262.0)",[],[0],0,1985.288
7,False,365,1.104,66,[],[],"[(1209, 851)]",[],[1],[102],[1.7],"[640.0, 512.0]",horizontal,"(890.0, 762.0)",[0.6166666666666667],[0.568],1,1989.275
7,False,366,0.357,21,[],[],"[(1184, 874)]",[],[1],[55],[0.9166666666666666],"[640.0, 512.0]",horizontal,"(390.0, 262.0)",[1.6833333333333333],[0.537],1,1993.117
7,False,367,0.95,57,[],[],"[(1156, 870)]",[],[1],[],[],"[640.0, 512.0]",vertical,"(890.0, 262.0)",[],[0],0,1997.226
7,False,368,0.962,57,[],[],"[(1129, 889)]",[],[1],[94],[1.5666666666666667],"[640.0, 512.0]",vertical,"(890.0, 762.0)",[0.5333333333333333],[0.588],1,2001.181
7,False,369,0.509,30,[],[],"[(1142, 880)]",[],[1],[63],[1.05],"[640.0, 512.0]",vertical,"(390.0, 262.0)",[0.5666666666666667],[0.523],1,2007.999
7,False,370,0.302,18,[],[],"[(1129, 881)]",[],[1],[67],[1.1166666666666667],"[640.0, 512.0]",horizontal,"(390.0, 762.0)",[1.0666666666666667],[0.787],1,2011.157
7,False,371,0.539,32,[],[],"[(1163, 881)]",[],[1],[77],[1.2833333333333332],"[640.0, 512.0]",horizontal,"(890.0, 262.0)",[1.6],[0.721],1,2016.738
7,False,372,1.175,70,[],[],"[(1178, 880)]",[],[1],[105],[1.75],"[640.0, 512.0]",horizontal,"(890.0, 762.0)",[0.8166666666666667],[0.557],1,2021.107
7,False,373,1.169,70,[],[],"[(1148, 877)]",[],[1],[101],[1.6833333333333333],"[640.0, 512.0]",vertical,"(390.0, 262.0)",[1.0333333333333332],[0.491],1,2025.155
7,False,374,0.43,25,[],[],"[(1172, 887)]",[],[1],[64],[1.0666666666666667],"[640.0, 512.0]",vertical,"(890.0, 762.0)",[0.6833333333333333],[0.622],1,2029.426
7,False,375,0.37,22,[],[],"[(1173, 886)]",[],[1],[59],[0.9833333333333333],"[640.0, 512.0]",horizontal,"(390.0, 762.0)",[0.6666666666666666],[0.588],1,2032.741
7,False,376,1.348,80,[],[],"[(1113, 889)]",[],[1],[113],[1.8833333333333333],"[640.0, 512.0]",vertical,"(890.0, 762.0)",[1.0833333333333333],[0.523],1,2035.936
7,False,377,1.072,64,[],[],"[(1145, 870)]",[],[1],[112],[1.8666666666666667],"[640.0, 512.0]",horizontal,"(390.0, 262.0)",[0.9],[0.771],1,2040.396
7,False,378,0.368,22,[],[],"[(1142, 872)]",[],[1],[56],[0.9333333333333333],"[640.0, 512.0]",horizontal,"(390.0, 262.0)",[1.0666666666666667],[0.54],1,2044.703
7,False,379,1.117,67,[],[],"[(1142, 866)]",[],[1],[102],[1.7],"[640.0, 512.0]",horizontal,"(390.0, 262.0)",[1.0],[0.558],1,2048.248
7,False,380,0.346,20,[],[],"[(1176, 871)]",[],[1],[63],[1.05],"[640.0, 512.0]",horizontal,"(890.0, 262.0)",[1.6],[0.689],1,2052.547
7,False,381,1.277,76,[],[],"[(1133, 872)]",[],[1],[108],[1.8],"[640.0, 512.0]",vertical,"(390.0, 262.0)",[1.1],[0.504],1,2056.63
7,False,382,1.245,74,[],[],"[(1153, 867)]",[],[1],[108],[1.8],"[640.0, 512.0]",vertical,"(890.0, 762.0)",[0.8833333333333333],[0.539],1,2061.112
7,False,383,0.957,57,[],[],"[(1208, 882)]",[],[1],[94],[1.5666666666666667],"[640.0, 512.0]",vertical,"(890.0, 762.0)",[0.7333333333333333],[0.59],1,2065.327
7,False,384,0.506,30,[],[],"[(1136, 909)]",[],[1],[80],[1.3333333333333333],"[640.0, 512.0]",vertical,"(390.0, 762.0)",[1.3333333333333333],[0.8],0,2069.185
7,False,385,0.503,30,[],[2219751],"[(321, 838), (1129, 848)]","[(1086, 884)]","[0, 1]",[11],[0.18333333333333332],"[640.0, 512.0]",vertical,"(890.0, 762.0)",[],[0],0,2152.382
7,False,386,0.817,49,[],[],"[(1195, 859)]",[],[1],[99],[1.65],"[640.0, 512.0]",vertical,"(390.0, 762.0)",[1.2],[0.805],0,2163.25
7,False,387,1.418,85,[],[2230184],"[(1050, 842)]","[(1066, 847)]",[1],[11],[0.18333333333333332],"[640.0, 512.0]",horizontal,"(890.0, 762.0)",[],[0],0,2167.615
7,False,388,1.047,62,[],[],"[(1135, 904)]",[],[1],[],[],"[640.0, 512.0]",horizontal,"(890.0, 262.0)",[],[0],0,2173.683
7,False,389,0.648,38,[],[],"[(1181, 856)]",[],[1],[88],[1.4666666666666666],"[640.0, 512.0]",vertical,"(890.0, 762.0)",[1.0666666666666667],[0.802],0,2177.133
7,False,390,1.231,73,[],[2250966],"[(1035, 855)]","[(1033, 863)]",[1],[11],[0.18333333333333332],"[640.0, 512.0]",vertical,"(390.0, 262.0)",[],[0],0,2181.223
7,False,391,1.279,76,[],[],"[(1168, 849)]",[],[1],[],[],"[640.0, 512.0]",horizontal,"(390.0, 262.0)",[],[0],0,2194.472
7,False,392,0.368,22,[],[],"[(1142, 886)]",[],[1],[57],[0.95],"[640.0, 512.0]",horizontal,"(390.0, 262.0)",[0.7166666666666667],[0.553],1,2198.237
7,False,393,0.941,56,[],[],"[(1150, 878)]",[],[1],[106],[1.7666666666666666],"[640.0, 512.0]",horizontal,"(390.0, 762.0)",[0.8166666666666667],[0.798],0,2201.834
7,False,394,1.368,82,[],[],"[(1160, 896)]",[],[1],[132],[2.2],"[640.0, 512.0]",horizontal,"(390.0, 762.0)",[0.5833333333333334],[0.809],0,2205.932
7,False,395,0.528,31,[],[],"[(1160, 902)]",[],[1],[74],[1.2333333333333334],"[640.0, 512.0]",horizontal,"(390.0, 262.0)",[1.1],[0.686],1,2216.666
7,False,396,0.8,48,[],[],"[(1135, 866)]",[],[1],[98],[1.6333333333333333],"[640.0, 512.0]",vertical,"(890.0, 762.0)",[0.5166666666666666],[0.799],0,2239.617
7,False,397,0.724,43,[],[],"[(1153, 882)]",[],[1],[93],[1.55],"[640.0, 512.0]",horizontal,"(390.0, 262.0)",[1.2333333333333334],[0.803],0,2243.419
7,False,398,1.315,78,[],[],"[(1130, 868)]",[],[1],[112],[1.8666666666666667],"[640.0, 512.0]",horizontal,"(890.0, 262.0)",[1.0],[0.544],1,2247.771
7,False,399,1.449,86,[],[],"[(1124, 875)]",[],[1],[107],[1.7833333333333332],"[640.0, 512.0]",vertical,"(390.0, 262.0)",[1.6833333333333333],[0.328],1,2252.142
7,False,400,0.311,18,[],[],"[(1142, 904)]",[],[1],[55],[0.9166666666666666],"[640.0, 512.0]",horizontal,"(890.0, 762.0)",[0.6],[0.587],1,2257.086
7,False,401,0.955,57,[],[],"[(1144, 894)]",[],[1],[107],[1.7833333333333332],"[640.0, 512.0]",vertical,"(390.0, 262.0)",[1.1833333333333333],[0.801],0,2260.541
7,False,402,0.47,28,[],[],"[(1115, 881)]",[],[1],[76],[1.2666666666666666],"[640.0, 512.0]",vertical,"(390.0, 262.0)",[1.2],[0.776],1,2265.163
7,False,403,0.378,22,[],[],"[(1130, 897)]",[],[1],[65],[1.0833333333333333],"[640.0, 512.0]",vertical,"(390.0, 262.0)",[1.0333333333333332],[0.686],1,2270.704
7,False,404,0.446,26,[],[],"[(1143, 859)]",[],[1],[62],[1.0333333333333332],"[640.0, 512.0]",horizontal,"(390.0, 762.0)",[1.15],[0.58],1,2274.338
7,False,405,0.476,28,[],[],"[(1148, 885)]",[],[1],[64],[1.0666666666666667],"[640.0, 512.0]",horizontal,"(390.0, 762.0)",[1.0166666666666666],[0.572],1,2278.184
7,False,406,1.123,67,[],[],"[(1141, 865)]",[],[1],[99],[1.65],"[640.0, 512.0]",horizontal,"(890.0, 262.0)",[0.9833333333333333],[0.51],1,2281.871
7,False,407,1.346,80,[],[],"[(1142, 874)]",[],[1],[114],[1.9],"[640.0, 512.0]",vertical,"(890.0, 762.0)",[0.6],[0.553],1,2286.07
7,False,408,0.33,19,[],[],"[(1102, 882)]",[],[1],[50],[0.8333333333333334],"[640.0, 512.0]",vertical,"(390.0, 262.0)",[1.3166666666666667],[0.491],1,2290.23
7,False,409,1.042,62,[],[],"[(1133, 866)]",[],[1],[],[],"[640.0, 512.0]",vertical,"(890.0, 262.0)",[],[0],0,2294.254
7,False,410,0.706,42,[],[],"[(1098, 899)]",[],[1],[75],[1.25],"[640.0, 512.0]",vertical,"(390.0, 262.0)",[1.5166666666666666],[0.524],1,2298.268
7,False,411,0.44,26,[],[],"[(1125, 870)]",[],[1],[68],[1.1333333333333333],"[640.0, 512.0]",vertical,"(890.0, 762.0)",[1.1666666666666667],[0.675],1,2302.689
7,False,412,0.726,43,[],[],"[(1132, 867)]",[],[1],[80],[1.3333333333333333],"[640.0, 512.0]",horizontal,"(890.0, 762.0)",[1.1166666666666667],[0.598],1,2306.6
7,False,413,0.64,38,[],[],"[(1136, 859)]",[],[1],[73],[1.2166666666666666],"[640.0, 512.0]",vertical,"(890.0, 262.0)",[0.6],[0.554],1,2310.62
7,False,414,1.054,63,[],[],"[(1190, 860)]",[],[1],[102],[1.7],"[640.0, 512.0]",horizontal,"(390.0, 762.0)",[1.3666666666666667],[0.623],1,2314.005
7,False,415,0.68,40,[],[],"[(1134, 866)]",[],[1],[65],[1.0833333333333333],"[640.0, 512.0]",vertical,"(890.0, 262.0)",[1.1333333333333333],[0.393],1,2318.549
7,False,416,0.86,51,[],[],"[(1145, 866)]",[],[1],[84],[1.4],"[640.0, 512.0]",vertical,"(390.0, 762.0)",[1.2],[0.528],1,2322.767
7,False,417,1.003,60,[],[],"[(1117, 867)]",[],[1],[90],[1.5],"[640.0, 512.0]",vertical,"(890.0, 262.0)",[1.2666666666666666],[0.472],1,2327.038
7,False,418,0.472,28,[],[],"[(1154, 880)]",[],[1],[60],[1.0],"[640.0, 512.0]",horizontal,"(390.0, 762.0)",[1.4666666666666666],[0.506],1,2331.42
7,False,419,1.28,76,[],[],"[(1154, 864)]",[],[1],[102],[1.7],"[640.0, 512.0]",horizontal,"(390.0, 762.0)",[1.0166666666666666],[0.409],1,2335.439
7,False,420,0.78,46,[],[],"[(1131, 875)]",[],[1],[84],[1.4],"[640.0, 512.0]",vertical,"(890.0, 762.0)",[0.6666666666666666],[0.611],1,2339.667
8,False,421,0.724,43,[],[],"[(1160, 870)]",[],[1],[74],[1.2333333333333334],"[640.0, 512.0]",vertical,"(390.0, 262.0)",[1.25],[0.49],1,2343.313
8,False,422,0.566,33,[],[],"[(1117, 864)]",[],[1],[65],[1.0833333333333333],"[640.0, 512.0]",vertical,"(390.0, 262.0)",[1.0833333333333333],[0.509],1,2347.339
8,False,423,1.009,60,[],[],"[(1154, 854)]",[],[1],[91],[1.5166666666666666],"[640.0, 512.0]",vertical,"(890.0, 762.0)",[1.5833333333333333],[0.494],1,2351.871
8,False,424,0.361,21,[],[],"[(1191, 856)]",[],[1],[53],[0.8833333333333333],"[640.0, 512.0]",vertical,"(390.0, 262.0)",[1.5666666666666667],[0.514],1,2356.485
8,False,425,0.506,30,[],[],"[(1190, 862)]",[],[1],[63],[1.05],"[640.0, 512.0]",vertical,"(390.0, 262.0)",[0.6333333333333333],[0.528],1,2360.439
8,False,426,0.893,53,[],[],"[(1134, 857)]",[],[1],[83],[1.3833333333333333],"[640.0, 512.0]",vertical,"(890.0, 762.0)",[1.5166666666666666],[0.475],1,2363.655
8,False,427,1.007,60,[],[],"[(1153, 871)]",[],[1],[86],[1.4333333333333333],"[640.0, 512.0]",vertical,"(890.0, 262.0)",[1.05],[0.409],1,2368.136
8,False,428,1.226,73,[],[],"[(1114, 878)]",[],[1],[107],[1.7833333333333332],"[640.0, 512.0]",vertical,"(390.0, 762.0)",[0.8166666666666667],[0.537],1,2372.275
8,False,429,0.613,36,[],[],"[(1153, 879)]",[],[1],[64],[1.0666666666666667],"[640.0, 512.0]",horizontal,"(890.0, 262.0)",[1.6833333333333333],[0.444],1,2376.456
8,False,430,1.021,61,[],[],"[(1150, 867)]",[],[1],[93],[1.55],"[640.0, 512.0]",vertical,"(390.0, 262.0)",[0.8666666666666667],[0.507],1,2380.77
8,False,431,0.804,48,[],[],"[(1148, 848)]",[],[1],[85],[1.4166666666666667],"[640.0, 512.0]",vertical,"(390.0, 762.0)",[1.4333333333333333],[0.589],1,2384.756
8,False,432,1.118,67,[],[],"[(1080, 887)]",[],[1],[104],[1.7333333333333334],"[640.0, 512.0]",horizontal,"(390.0, 262.0)",[0.95],[0.589],1,2389.122
8,False,433,1.347,80,[],[],"[(1080, 875)]",[],[1],[111],[1.8499999999999999],"[640.0, 512.0]",vertical,"(390.0, 262.0)",[1.1],[0.484],1,2393.437
8,False,434,0.57,34,[],[],"[(1129, 884)]",[],[1],[68],[1.1333333333333333],"[640.0, 512.0]",horizontal,"(390.0, 262.0)",[1.1833333333333333],[0.537],1,2400.583
8,False,435,1.014,60,[],[],"[(1148, 851)]",[],[1],[95],[1.5833333333333333],"[640.0, 512.0]",vertical,"(390.0, 762.0)",[1.0333333333333332],[0.558],1,2404.455
8,False,436,1.334,80,[],[],"[(1147, 870)]",[],[1],[126],[2.1],"[640.0, 512.0]",vertical,"(890.0, 262.0)",[0.5833333333333334],[0.733],1,2408.618
8,False,437,0.714,42,[],[],"[(1148, 860)]",[],[1],[76],[1.2666666666666666],"[640.0, 512.0]",vertical,"(890.0, 262.0)",[0.6833333333333333],[0.538],1,2412.785
8,False,438,0.498,29,[],[],"[(1136, 889)]",[],[1],[62],[1.0333333333333332],"[640.0, 512.0]",horizontal,"(890.0, 262.0)",[1.1666666666666667],[0.525],1,2416.235
8,False,439,1.421,85,[],[],"[(1170, 856)]",[],[1],[132],[2.2],"[640.0, 512.0]",vertical,"(890.0, 762.0)",[0.7333333333333333],[0.75],1,2420.007
8,False,440,1.466,87,[],[],"[(1147, 859)]",[],[1],[119],[1.9833333333333334],"[640.0, 512.0]",horizontal,"(890.0, 262.0)",[0.5333333333333333],[0.501],1,2424.438
8,False,441,0.543,32,[],[],"[(1166, 872)]",[],[1],[63],[1.05],"[640.0, 512.0]",horizontal,"(890.0, 262.0)",[1.5333333333333332],[0.497],1,2428.485
8,False,442,1.063,63,[],[],"[(1148, 866)]",[],[1],[113],[1.8833333333333333],"[640.0, 512.0]",horizontal,"(390.0, 262.0)",[1.15],[0.804],0,2432.622
8,False,443,1.4,84,[],[2572929],"[(1215, 845)]","[(1193, 870)]",[1],[30],[0.5],"[640.0, 512.0]",vertical,"(390.0, 262.0)",[],[0],0,2437.196
8,False,444,1.399,83,[],[],"[(1145, 889)]",[],[1],[],[],"[640.0, 512.0]",horizontal,"(890.0, 762.0)",[],[0],0,2516.429
8,False,445,0.843,50,[],[],"[(1153, 899)]",[],[1],[98],[1.6333333333333333],"[640.0, 512.0]",vertical,"(890.0, 762.0)",[0.5666666666666667],[0.766],1,2520.222
8,False,446,0.879,52,[],[],"[(1074, 889)]",[],[1],[85],[1.4166666666666667],"[640.0, 512.0]",vertical,"(890.0, 762.0)",[0.95],[0.523],1,2524.343
8,False,447,1.333,79,[],[],"[(1147, 899)]",[],[1],[111],[1.8499999999999999],"[640.0, 512.0]",vertical,"(890.0, 762.0)",[1.65],[0.508],1,2528.499
8,False,448,1.147,68,[],[],"[(1148, 871)]",[],[1],[101],[1.6833333333333333],"[640.0, 512.0]",horizontal,"(890.0, 762.0)",[0.9666666666666667],[0.524],1,2533.525
8,False,449,1.248,74,[],[],"[(1165, 881)]",[],[1],[110],[1.8333333333333333],"[640.0, 512.0]",horizontal,"(390.0, 762.0)",[1.25],[0.573],1,2537.692
8,False,450,0.503,30,[],[],"[(1142, 852)]",[],[1],[62],[1.0333333333333332],"[640.0, 512.0]",horizontal,"(890.0, 762.0)",[1.5666666666666667],[0.504],1,2542.288
8,False,451,1.274,76,[],[],"[(1155, 883)]",[],[1],[107],[1.7833333333333332],"[640.0, 512.0]",vertical,"(390.0, 762.0)",[1.3166666666666667],[0.494],1,2546.457
8,False,452,1.124,67,[],[],"[(1137, 851)]",[],[1],[99],[1.65],"[640.0, 512.0]",vertical,"(390.0, 262.0)",[0.9666666666666667],[0.509],1,2551.193
8,False,453,0.601,36,[],[],"[(1129, 877)]",[],[1],[68],[1.1333333333333333],"[640.0, 512.0]",vertical,"(390.0, 762.0)",[1.4833333333333334],[0.504],1,2555.433
8,False,454,0.725,43,[],[],"[(1092, 899)]",[],[1],[91],[1.5166666666666666],"[640.0, 512.0]",horizontal,"(390.0, 262.0)",[0.9],[0.771],1,2561.086
8,False,455,0.977,58,[],[],"[(1130, 857)]",[],[1],[],[],"[640.0, 512.0]",vertical,"(890.0, 762.0)",[],[0],0,2565.142
8,False,456,1.033,61,[],[],"[(1166, 889)]",[],[1],[80],[1.3333333333333333],"[640.0, 512.0]",horizontal,"(390.0, 262.0)",[0.8166666666666667],[0.293],1,2568.486
8,False,457,0.463,27,[],[],"[(1113, 875)]",[],[1],[60],[1.0],"[640.0, 512.0]",horizontal,"(890.0, 262.0)",[1.5],[0.527],1,2583.618
8,False,458,1.329,79,[],[],"[(1166, 863)]",[],[1],[112],[1.8666666666666667],"[640.0, 512.0]",horizontal,"(390.0, 762.0)",[1.3333333333333333],[0.524],1,2587.714
8,False,459,1.031,61,[],[],"[(1160, 866)]",[],[1],[111],[1.8499999999999999],"[640.0, 512.0]",horizontal,"(390.0, 262.0)",[0.8666666666666667],[0.805],0,2592.402
8,False,460,0.821,49,[],[],"[(1147, 862)]",[],[1],[72],[1.2],"[640.0, 512.0]",horizontal,"(890.0, 762.0)",[0.95],[0.364],1,2597.14
8,False,461,0.544,32,[],[],"[(1163, 879)]",[],[1],[65],[1.0833333333333333],"[640.0, 512.0]",horizontal,"(890.0, 262.0)",[0.8166666666666667],[0.524],1,2600.874
8,False,462,0.501,30,[],[],"[(1148, 879)]",[],[1],[67],[1.1166666666666667],"[640.0, 512.0]",horizontal,"(890.0, 762.0)",[0.7666666666666666],[0.584],1,2604.328
8,False,463,1.079,64,[],[],"[(1145, 888)]",[],[1],[],[],"[640.0, 512.0]",vertical,"(390.0, 762.0)",[],[0],0,2607.737
8,False,464,0.426,25,[],[],"[(1142, 904)]",[],[1],[68],[1.1333333333333333],"[640.0, 512.0]",horizontal,"(890.0, 762.0)",[1.0666666666666667],[0.68],1,2610.838
8,False,465,1.129,67,[],[],"[(1099, 879)]",[],[1],[98],[1.6333333333333333],"[640.0, 512.0]",horizontal,"(390.0, 262.0)",[1.6666666666666667],[0.49],1,2657.472
8,False,466,0.65,39,[],[],"[(1111, 875)]",[],[1],[72],[1.2],"[640.0, 512.0]",vertical,"(390.0, 762.0)",[0.8833333333333333],[0.524],1,2662.467
8,False,467,0.842,50,[],[],"[(1147, 893)]",[],[1],[81],[1.35],"[640.0, 512.0]",vertical,"(390.0, 262.0)",[1.6166666666666667],[0.496],1,2667.449
8,False,468,0.414,24,[],[],"[(1106, 875)]",[],[1],[72],[1.2],"[640.0, 512.0]",vertical,"(890.0, 762.0)",[0.6166666666666667],[0.77],1,2671.901
8,False,469,0.65,39,[],[],"[(1099, 885)]",[],[1],[78],[1.3],"[640.0, 512.0]",horizontal,"(390.0, 762.0)",[0.6666666666666666],[0.628],1,2675.367
8,False,470,0.346,20,[],[],"[(1118, 896)]",[],[1],[51],[0.85],"[640.0, 512.0]",vertical,"(390.0, 762.0)",[1.6833333333333333],[0.489],1,2678.887
8,False,471,0.476,28,[],[],"[(1129, 892)]",[],[1],[60],[1.0],"[640.0, 512.0]",vertical,"(890.0, 262.0)",[1.2833333333333332],[0.511],1,2682.927
8,False,472,0.913,54,[],[],"[(1129, 866)]",[],[1],[88],[1.4666666666666666],"[640.0, 512.0]",horizontal,"(890.0, 762.0)",[0.75],[0.541],1,2686.727
8,False,473,0.378,22,[],[],"[(1170, 854)]",[],[1],[52],[0.8666666666666667],"[640.0, 512.0]",horizontal,"(390.0, 262.0)",[1.5333333333333332],[0.48],1,2690.456
8,False,474,0.552,33,[],[],"[(1196, 870)]",[],[1],[67],[1.1166666666666667],"[640.0, 512.0]",vertical,"(890.0, 262.0)",[1.65],[0.535],1,2694.374
8,False,475,1.219,73,[],[],"[(1086, 874)]",[],[1],[94],[1.5666666666666667],"[640.0, 512.0]",vertical,"(890.0, 262.0)",[1.05],[0.326],1,2698.653
8,False,476,0.751,45,[],[],"[(1148, 856)]",[],[1],[77],[1.2833333333333332],"[640.0, 512.0]",horizontal,"(890.0, 762.0)",[1.0],[0.51],1,2702.887
8,False,477,0.903,54,[],[],"[(1117, 873)]",[],[1],[65],[1.0833333333333333],"[640.0, 512.0]",horizontal,"(890.0, 762.0)",[1.45],[0.167],1,2706.656
8,False,478,0.612,36,[],[],"[(1147, 886)]",[],[1],[74],[1.2333333333333334],"[640.0, 512.0]",horizontal,"(390.0, 262.0)",[0.5333333333333333],[0.602],1,2710.756
8,False,479,1.042,62,[],[],"[(1117, 870)]",[],[1],[112],[1.8666666666666667],"[640.0, 512.0]",vertical,"(390.0, 262.0)",[0.75],[0.808],0,2714.058
8,False,480,1.072,64,[],[],"[(1142, 887)]",[],[1],[93],[1.55],"[640.0, 512.0]",horizontal,"(390.0, 762.0)",[1.1166666666666667],[0.46],1,2718.218
9,False,481,0.662,39,[],[],"[(1105, 877)]",[],[1],[89],[1.4833333333333334],"[640.0, 512.0]",horizontal,"(390.0, 262.0)",[0.9333333333333333],[0.802],0,2744.519
9,False,482,1.42,85,[],[],"[(1118, 859)]",[],[1],[],[],"[640.0, 512.0]",horizontal,"(390.0, 762.0)",[],[0],0,2748.524
9,False,483,0.459,27,[],[],"[(1172, 870)]",[],[1],[60],[1.0],"[640.0, 512.0]",horizontal,"(390.0, 762.0)",[1.1833333333333333],[0.522],1,2754.124
9,False,484,1.024,61,[],[],"[(1160, 875)]",[],[1],[88],[1.4666666666666666],"[640.0, 512.0]",vertical,"(390.0, 762.0)",[1.6666666666666667],[0.421],1,2757.838
9,False,485,0.373,22,[],[],"[(1121, 866)]",[],[1],[58],[0.9666666666666667],"[640.0, 512.0]",horizontal,"(390.0, 262.0)",[0.5],[0.572],1,2762.436
9,False,486,0.533,31,[],[],"[(1098, 872)]",[],[1],[60],[1.0],"[640.0, 512.0]",horizontal,"(890.0, 262.0)",[0.9666666666666667],[0.465],1,2765.457
9,False,487,1.445,86,[],[],"[(1173, 865)]",[],[1],[],[],"[640.0, 512.0]",horizontal,"(890.0, 262.0)",[],[0],0,2768.957
9,False,488,0.483,28,[],[],"[(1151, 862)]",[],[1],[61],[1.0166666666666666],"[640.0, 512.0]",vertical,"(890.0, 762.0)",[1.6166666666666667],[0.528],1,2772.424
9,False,489,0.602,36,[],[],"[(1156, 856)]",[],[1],[71],[1.1833333333333333],"[640.0, 512.0]",vertical,"(390.0, 762.0)",[0.8833333333333333],[0.559],1,2777.355
9,False,490,1.244,74,[],[],"[(1135, 855)]",[],[1],[114],[1.9],"[640.0, 512.0]",vertical,"(390.0, 262.0)",[1.2],[0.646],1,2780.952
9,False,491,1.188,71,[],[],"[(1141, 880)]",[],[1],[99],[1.65],"[640.0, 512.0]",vertical,"(390.0, 262.0)",[0.9333333333333333],[0.444],1,2785.632
9,False,492,1.483,88,[],[],"[(1150, 861)]",[],[1],[119],[1.9833333333333334],"[640.0, 512.0]",vertical,"(390.0, 762.0)",[0.8833333333333333],[0.492],1,2789.757
9,False,493,1.089,65,[],[],"[(989, 865), (1166, 852)]",[],"[0, 1]",[97],[1.6166666666666667],"[640.0, 512.0]",vertical,"(390.0, 762.0)",[0.6833333333333333],[0.506],1,2794.127
9,False,494,0.98,58,[],[],"[(1133, 859)]",[],[1],[89],[1.4833333333333334],"[640.0, 512.0]",vertical,"(390.0, 262.0)",[0.7833333333333333],[0.493],1,2799.178
9,False,495,0.574,34,[],[],"[(1178, 856)]",[],[1],[69],[1.15],"[640.0, 512.0]",horizontal,"(890.0, 762.0)",[0.65],[0.554],1,2803.023
9,False,496,1.374,82,[],[],"[(1130, 870)]",[],[1],[114],[1.9],"[640.0, 512.0]",horizontal,"(390.0, 762.0)",[1.4333333333333333],[0.503],1,2806.33
9,False,497,0.928,55,[],[],"[(1156, 861)]",[],[1],[],[],"[640.0, 512.0]",horizontal,"(890.0, 762.0)",[],[0],0,2811.155
9,False,498,1.26,75,[],[],"[(1188, 866)]",[],[1],[98],[1.6333333333333333],"[640.0, 512.0]",horizontal,"(390.0, 262.0)",[1.2666666666666666],[0.362],1,2815.091
9,False,499,1.267,76,[],[],"[(1183, 866)]",[],[1],[81],[1.35],"[640.0, 512.0]",horizontal,"(390.0, 262.0)",[1.3833333333333333],[0.068],1,2819.52
9,False,500,1.423,85,[],[],"[(1153, 861)]",[],[1],[],[],"[640.0, 512.0]",horizontal,"(390.0, 262.0)",[],[0],0,2823.75
9,False,501,1.382,82,[],[],"[(1147, 850)]",[],[1],[116],[1.9333333333333333],"[640.0, 512.0]",vertical,"(390.0, 762.0)",[1.3666666666666667],[0.536],1,2827.957
9,False,502,1.31,78,[],[],"[(1130, 864)]",[],[1],[],[],"[640.0, 512.0]",horizontal,"(890.0, 262.0)",[],[0],0,2832.829
9,False,503,1.395,83,[],[],"[(1177, 859)]",[],[1],[113],[1.8833333333333333],"[640.0, 512.0]",vertical,"(890.0, 262.0)",[0.9833333333333333],[0.482],1,2836.288
9,False,504,1.314,78,[],[],"[(1193, 867)]",[],[1],[116],[1.9333333333333333],"[640.0, 512.0]",vertical,"(390.0, 762.0)",[0.8166666666666667],[0.604],1,2840.672
9,False,505,0.454,27,[],[],"[(1177, 870)]",[],[1],[60],[1.0],"[640.0, 512.0]",horizontal,"(890.0, 762.0)",[1.6333333333333333],[0.526],1,2844.927
9,False,506,1.395,83,[],[],"[(1178, 853)]",[],[1],[110],[1.8333333333333333],"[640.0, 512.0]",vertical,"(890.0, 262.0)",[0.5833333333333334],[0.432],1,2849.058
9,False,507,0.651,39,[],[],"[(1147, 867)]",[],[1],[76],[1.2666666666666666],"[640.0, 512.0]",vertical,"(890.0, 762.0)",[0.5333333333333333],[0.583],1,2852.92
9,False,508,1.404,84,[],[],"[(1151, 850)]",[],[1],[],[],"[640.0, 512.0]",vertical,"(890.0, 262.0)",[],[0],0,2856.224
9,False,509,1.076,64,[],[],"[(1178, 867)]",[],[1],[97],[1.6166666666666667],"[640.0, 512.0]",vertical,"(890.0, 762.0)",[1.4166666666666667],[0.526],1,2860.374
9,False,510,1.206,72,[],[],"[(1178, 854)]",[],[1],[106],[1.7666666666666666],"[640.0, 512.0]",vertical,"(890.0, 262.0)",[0.5833333333333334],[0.54],1,2864.889
9,False,511,0.442,26,[],[],"[(1153, 893)]",[],[1],[54],[0.9],"[640.0, 512.0]",horizontal,"(890.0, 262.0)",[1.4333333333333333],[0.446],1,2868.773
9,False,512,1.414,84,[],[],"[(1166, 861)]",[],[1],[93],[1.55],"[640.0, 512.0]",vertical,"(390.0, 762.0)",[1.65],[0.137],1,2872.616
9,False,513,0.366,21,[],[],"[(1153, 839)]",[],[1],[55],[0.9166666666666666],"[640.0, 512.0]",vertical,"(890.0, 762.0)",[1.5166666666666666],[0.538],1,2877.312
9,False,514,0.459,27,[],[],"[(1160, 875)]",[],[1],[59],[0.9833333333333333],"[640.0, 512.0]",vertical,"(390.0, 262.0)",[0.55],[0.507],1,2881.294
9,False,515,1.442,86,[],[],"[(1136, 870)]",[],[1],[118],[1.9666666666666666],"[640.0, 512.0]",vertical,"(390.0, 262.0)",[0.75],[0.507],1,2884.356
9,False,516,1.313,78,[],[],"[(1119, 875)]",[],[1],[110],[1.8333333333333333],"[640.0, 512.0]",vertical,"(390.0, 762.0)",[1.4833333333333334],[0.501],1,2888.601
9,False,517,0.794,47,[],[],"[(1160, 866)]",[],[1],[84],[1.4],"[640.0, 512.0]",vertical,"(890.0, 762.0)",[0.7833333333333333],[0.586],1,2893.545
9,False,518,1.135,68,[],[],"[(1080, 883)]",[],[1],[96],[1.6],"[640.0, 512.0]",vertical,"(890.0, 262.0)",[1.1333333333333333],[0.442],1,2897.21
9,False,519,0.524,31,[],[],"[(1123, 867)]",[],[1],[73],[1.2166666666666666],"[640.0, 512.0]",horizontal,"(390.0, 262.0)",[1.05],[0.676],1,2901.487
9,False,520,1.193,71,[],[],"[(1117, 861)]",[],[1],[100],[1.6666666666666667],"[640.0, 512.0]",vertical,"(890.0, 262.0)",[1.4333333333333333],[0.457],1,2905.309
9,False,521,1.135,68,[],[],"[(1107, 876)]",[],[1],[101],[1.6833333333333333],"[640.0, 512.0]",horizontal,"(390.0, 762.0)",[1.2333333333333334],[0.519],1,2909.929
9,False,522,1.455,87,[],[],"[(1158, 856)]",[],[1],[121],[2.0166666666666666],"[640.0, 512.0]",vertical,"(890.0, 262.0)",[0.75],[0.543],1,2914.424
9,False,523,1.015,60,[],[],"[(1184, 880)]",[],[1],[],[],"[640.0, 512.0]",horizontal,"(890.0, 762.0)",[],[0],0,2918.79
9,False,524,0.727,43,[],[],"[(1172, 846)]",[],[1],[78],[1.3],"[640.0, 512.0]",horizontal,"(390.0, 762.0)",[0.8],[0.555],1,2922.685
9,False,525,1.111,66,[],[],"[(1123, 873)]",[],[1],[99],[1.65],"[640.0, 512.0]",horizontal,"(890.0, 762.0)",[0.8666666666666667],[0.526],1,2926.299
9,False,526,0.803,48,[],[],"[(1136, 860)]",[],[1],[71],[1.1833333333333333],"[640.0, 512.0]",vertical,"(390.0, 262.0)",[1.6833333333333333],[0.367],1,2930.567
9,False,527,1.316,78,[],[],"[(1129, 864)]",[],[1],[],[],"[640.0, 512.0]",vertical,"(890.0, 262.0)",[],[0],0,2934.969
9,False,528,1.011,60,[],[],"[(1196, 846)]",[],[1],[],[],"[640.0, 512.0]",horizontal,"(390.0, 262.0)",[],[0],0,2939.207
9,False,529,0.731,43,[],[],"[(1123, 852)]",[],[1],[77],[1.2833333333333332],"[640.0, 512.0]",horizontal,"(390.0, 762.0)",[1.4666666666666666],[0.538],1,2943.068
9,False,530,1.304,78,[],[],"[(1077, 874)]",[],[1],[111],[1.8499999999999999],"[640.0, 512.0]",horizontal,"(390.0, 262.0)",[1.0666666666666667],[0.522],1,2947.937
9,False,531,0.681,40,[],[],"[(1150, 863)]",[],[1],[73],[1.2166666666666666],"[640.0, 512.0]",vertical,"(390.0, 762.0)",[1.1333333333333333],[0.527],1,2952.39
9,False,532,0.563,33,[],[],"[(1131, 880)]",[],[1],[67],[1.1166666666666667],"[640.0, 512.0]",horizontal,"(390.0, 762.0)",[0.7],[0.536],1,2956.302
9,False,533,1.297,77,[],[],"[(1128, 874)]",[],[1],[109],[1.8166666666666667],"[640.0, 512.0]",horizontal,"(890.0, 262.0)",[0.75],[0.504],1,2959.664
9,False,534,0.866,51,[],[],"[(1129, 859)]",[],[1],[96],[1.6],"[640.0, 512.0]",vertical,"(390.0, 262.0)",[0.9333333333333333],[0.719],1,2963.768
9,False,535,1.382,82,[],[],"[(1155, 866)]",[],[1],[117],[1.95],"[640.0, 512.0]",horizontal,"(390.0, 262.0)",[0.9666666666666667],[0.563],1,2967.794
9,False,536,0.357,21,[],[],"[(1142, 837)]",[],[1],[54],[0.9],"[640.0, 512.0]",vertical,"(390.0, 762.0)",[1.3666666666666667],[0.526],1,2972.253
9,False,537,1.268,76,[],[],"[(1160, 856)]",[],[1],[108],[1.8],"[640.0, 512.0]",horizontal,"(890.0, 762.0)",[1.1166666666666667],[0.507],1,2976.105
9,False,538,0.432,25,[],[],"[(1196, 845)]",[],[1],[61],[1.0166666666666666],"[640.0, 512.0]",horizontal,"(390.0, 762.0)",[0.65],[0.568],1,2980.491
9,False,539,1.061,63,[],[],"[(1129, 864)]",[],[1],[97],[1.6166666666666667],"[640.0, 512.0]",vertical,"(390.0, 762.0)",[1.65],[0.537],1,2983.666
9,False,540,0.696,41,[],[],"[(1154, 865)]",[],[1],[72],[1.2],"[640.0, 512.0]",horizontal,"(890.0, 762.0)",[1.4666666666666666],[0.487],1,2988.392
10,False,541,0.604,36,[],[],"[(1162, 854)]",[],[1],[71],[1.1833333333333333],"[640.0, 512.0]",horizontal,"(890.0, 762.0)",[0.7666666666666666],[0.554],1,2992.524
10,False,542,1.232,73,[],[],"[(1117, 861)]",[],[1],[106],[1.7666666666666666],"[640.0, 512.0]",vertical,"(890.0, 262.0)",[0.9333333333333333],[0.525],1,2995.95
10,False,543,0.823,49,[],[],"[(1184, 865)]",[],[1],[79],[1.3166666666666667],"[640.0, 512.0]",vertical,"(890.0, 262.0)",[1.2666666666666666],[0.473],1,3000.186
10,False,544,0.851,51,[],[],"[(1100, 864)]",[],[1],[91],[1.5166666666666666],"[640.0, 512.0]",vertical,"(890.0, 762.0)",[1.4666666666666666],[0.637],1,3004.255
10,False,545,1.227,73,[],[],"[(1157, 868)]",[],[1],[84],[1.4],"[640.0, 512.0]",horizontal,"(390.0, 262.0)",[1.5666666666666667],[0.165],1,3008.744
10,False,546,1.113,66,[],[],"[(1136, 860)]",[],[1],[102],[1.7],"[640.0, 512.0]",vertical,"(890.0, 762.0)",[1.0333333333333332],[0.572],1,3013.183
10,False,547,0.541,32,[],[],"[(1155, 851)]",[],[1],[63],[1.05],"[640.0, 512.0]",horizontal,"(390.0, 262.0)",[0.8333333333333334],[0.49],1,3017.448
10,False,548,0.988,59,[],[],"[(1148, 866)]",[],[1],[91],[1.5166666666666666],"[640.0, 512.0]",vertical,"(390.0, 762.0)",[1.2],[0.516],1,3020.852
10,False,549,1.47,88,[],[],"[(1172, 868)]",[],[1],[125],[2.0833333333333335],"[640.0, 512.0]",vertical,"(890.0, 262.0)",[0.95],[0.587],1,3025.087
10,False,550,0.308,18,[],[],"[(1103, 868)]",[],[1],[59],[0.9833333333333333],"[640.0, 512.0]",vertical,"(390.0, 762.0)",[1.1833333333333333],[0.656],1,3029.592
10,False,551,0.712,42,[],[],"[(1123, 851)]",[],[1],[77],[1.2833333333333332],"[640.0, 512.0]",vertical,"(390.0, 262.0)",[0.6],[0.552],1,3033.319
10,False,552,0.962,57,[],[],"[(1131, 875)]",[],[1],[89],[1.4833333333333334],"[640.0, 512.0]",vertical,"(390.0, 762.0)",[1.4166666666666667],[0.51],1,3036.759
10,False,553,1.055,63,[],[],"[(1133, 863)]",[],[1],[96],[1.6],"[640.0, 512.0]",horizontal,"(390.0, 262.0)",[1.1833333333333333],[0.523],1,3041.18
10,False,554,0.777,46,[],[],"[(1162, 875)]",[],[1],[80],[1.3333333333333333],"[640.0, 512.0]",horizontal,"(390.0, 762.0)",[0.7833333333333333],[0.538],1,3045.502
10,False,555,0.363,21,[],[],"[(1102, 879)]",[],[1],[54],[0.9],"[640.0, 512.0]",vertical,"(390.0, 262.0)",[1.3166666666666667],[0.521],1,3049.089
10,False,556,0.563,33,[],[],"[(1142, 863)]",[],[1],[66],[1.1],"[640.0, 512.0]",vertical,"(890.0, 762.0)",[1.0],[0.529],1,3052.84
10,False,557,0.696,41,[],[],"[(1111, 870)]",[],[1],[83],[1.3833333333333333],"[640.0, 512.0]",vertical,"(890.0, 262.0)",[0.75],[0.675],1,3056.46
10,False,558,0.442,26,[],[],"[(1150, 871)]",[],[1],[56],[0.9333333333333333],"[640.0, 512.0]",vertical,"(890.0, 262.0)",[1.2666666666666666],[0.478],1,3060.097
10,False,559,1.057,63,[],[],"[(1123, 866)]",[],[1],[93],[1.55],"[640.0, 512.0]",horizontal,"(890.0, 262.0)",[1.2333333333333334],[0.472],1,3063.808
10,False,560,0.475,28,[],[],"[(1130, 869)]",[],[1],[69],[1.15],"[640.0, 512.0]",vertical,"(890.0, 762.0)",[0.55],[0.653],1,3068.106
10,False,561,0.827,49,[],[],"[(1130, 863)]",[],[1],[82],[1.3666666666666667],"[640.0, 512.0]",vertical,"(390.0, 262.0)",[0.75],[0.519],1,3071.324
10,False,562,1.089,65,[],[],"[(1160, 861)]",[],[1],[97],[1.6166666666666667],"[640.0, 512.0]",horizontal,"(390.0, 762.0)",[0.9333333333333333],[0.508],1,3075.025
10,False,563,1.202,72,[],[],"[(1129, 872)]",[],[1],[105],[1.75],"[640.0, 512.0]",horizontal,"(390.0, 762.0)",[0.7],[0.521],1,3079.087
10,False,564,1.082,64,[],[],"[(1164, 873)]",[],[1],[102],[1.7],"[640.0, 512.0]",horizontal,"(890.0, 762.0)",[0.7333333333333333],[0.61],1,3083.019
10,False,565,1.199,71,[],[],"[(1129, 856)]",[],[1],[106],[1.7666666666666666],"[640.0, 512.0]",vertical,"(890.0, 762.0)",[0.95],[0.558],1,3086.949
10,False,566,1.299,77,[],[],"[(1157, 863)]",[],[1],[106],[1.7666666666666666],"[640.0, 512.0]",horizontal,"(890.0, 262.0)",[0.55],[0.46],1,3091.368
10,False,567,1.276,76,[],[],"[(1130, 866)]",[],[1],[119],[1.9833333333333334],"[640.0, 512.0]",vertical,"(390.0, 762.0)",[1.1166666666666667],[0.687],1,3095.251
10,False,568,1.002,60,[],[],"[(1129, 863)]",[],[1],[91],[1.5166666666666666],"[640.0, 512.0]",horizontal,"(890.0, 262.0)",[0.8333333333333334],[0.495],1,3099.854
10,False,569,0.569,34,[],[],"[(1186, 868)]",[],[1],[70],[1.1666666666666667],"[640.0, 512.0]",horizontal,"(890.0, 262.0)",[0.6333333333333333],[0.574],1,3103.774
10,False,570,0.506,30,[],[],"[(1117, 854)]",[],[1],[63],[1.05],"[640.0, 512.0]",horizontal,"(890.0, 762.0)",[1.3166666666666667],[0.522],1,3107.074
10,False,571,0.677,40,[],[],"[(1117, 875)]",[],[1],[83],[1.3833333333333333],"[640.0, 512.0]",horizontal,"(390.0, 262.0)",[0.9833333333333333],[0.683],1,3111.01
10,False,572,1.199,71,[],[],"[(1133, 866)]",[],[1],[104],[1.7333333333333334],"[640.0, 512.0]",vertical,"(890.0, 262.0)",[0.9],[0.52],1,3114.917
10,False,573,0.696,41,[],[],"[(1121, 880)]",[],[1],[77],[1.2833333333333332],"[640.0, 512.0]",horizontal,"(390.0, 262.0)",[0.85],[0.574],1,3119.068
10,False,574,1.143,68,[],[],"[(1110, 873)]",[],[1],[101],[1.6833333333333333],"[640.0, 512.0]",horizontal,"(890.0, 762.0)",[0.5833333333333334],[0.523],1,3122.692
10,False,575,1.434,86,[],[],"[(1119, 868)]",[],[1],[120],[2.0],"[640.0, 512.0]",horizontal,"(390.0, 262.0)",[0.6333333333333333],[0.54],1,3133.673
10,False,576,0.944,56,[],[],"[(1123, 865)]",[],[1],[88],[1.4666666666666666],"[640.0, 512.0]",vertical,"(890.0, 262.0)",[0.8166666666666667],[0.507],1,3137.946
10,False,577,0.978,58,[],[],"[(1148, 866)]",[],[1],[93],[1.55],"[640.0, 512.0]",horizontal,"(390.0, 762.0)",[1.2333333333333334],[0.552],1,3141.721
10,False,578,1.28,76,[],[],"[(1153, 866)]",[],[1],[109],[1.8166666666666667],"[640.0, 512.0]",vertical,"(890.0, 262.0)",[0.8],[0.523],1,3146.013
10,False,579,0.385,23,[],[],"[(1168, 858)]",[],[1],[58],[0.9666666666666667],"[640.0, 512.0]",horizontal,"(390.0, 762.0)",[0.8166666666666667],[0.558],1,3150.099
10,False,580,0.669,40,[],[],"[(1109, 863)]",[],[1],[69],[1.15],"[640.0, 512.0]",vertical,"(390.0, 262.0)",[1.45],[0.461],1,3153.408
10,False,581,0.718,43,[],[],"[(1116, 882)]",[],[1],[77],[1.2833333333333332],"[640.0, 512.0]",horizontal,"(390.0, 762.0)",[0.8333333333333334],[0.538],1,3157.526
10,False,582,0.967,58,[],[],"[(1123, 872)]",[],[1],[90],[1.5],"[640.0, 512.0]",horizontal,"(890.0, 262.0)",[0.6666666666666666],[0.504],1,3161.192
10,False,583,0.427,25,[],[],"[(1172, 875)]",[],[1],[59],[0.9833333333333333],"[640.0, 512.0]",horizontal,"(390.0, 262.0)",[0.8166666666666667],[0.538],1,3164.91
10,False,584,1.372,82,[],[],"[(1148, 871)]",[],[1],[],[],"[640.0, 512.0]",vertical,"(890.0, 262.0)",[],[0],0,3168.206
10,False,585,1.277,76,[],[],"[(1184, 866)]",[],[1],[97],[1.6166666666666667],"[640.0, 512.0]",vertical,"(390.0, 262.0)",[1.5666666666666667],[0.328],1,3172.631
10,False,586,1.438,86,[],[],"[(1109, 871)]",[],[1],[120],[2.0],"[640.0, 512.0]",horizontal,"(890.0, 762.0)",[0.8333333333333334],[0.544],1,3177.302
10,False,587,1.151,69,[],[],"[(1105, 871)]",[],[1],[102],[1.7],"[640.0, 512.0]",vertical,"(890.0, 762.0)",[1.3833333333333333],[0.521],1,3181.8
10,False,588,1.262,75,[],[],"[(1136, 862)]",[],[1],[106],[1.7666666666666666],"[640.0, 512.0]",horizontal,"(390.0, 262.0)",[0.6166666666666667],[0.493],1,3186.509
10,False,589,0.402,24,[],[],"[(1122, 851)]",[],[1],[55],[0.9166666666666666],"[640.0, 512.0]",vertical,"(890.0, 262.0)",[0.6833333333333333],[0.497],1,3238.82
10,False,590,0.402,24,[],[],"[(1157, 867)]",[],[1],[62],[1.0333333333333332],"[640.0, 512.0]",horizontal,"(890.0, 262.0)",[1.6333333333333333],[0.602],1,3242.053
10,False,591,1.27,76,[],[],"[(1099, 877)]",[],[1],[108],[1.8],"[640.0, 512.0]",horizontal,"(890.0, 762.0)",[1.0666666666666667],[0.508],1,3246.208
10,False,592,1.395,83,[],[],"[(1131, 872)]",[],[1],[115],[1.9166666666666667],"[640.0, 512.0]",horizontal,"(390.0, 262.0)",[0.75],[0.51],1,3250.948
10,False,593,0.556,33,[],[],"[(1144, 873)]",[],[1],[70],[1.1666666666666667],"[640.0, 512.0]",vertical,"(390.0, 762.0)",[0.9833333333333333],[0.589],1,3255.107
10,False,594,0.965,57,[],[],"[(1161, 872)]",[],[1],[90],[1.5],"[640.0, 512.0]",horizontal,"(390.0, 262.0)",[1.3],[0.525],1,3258.809
10,False,595,0.646,38,[],[],"[(1177, 880)]",[],[1],[72],[1.2],"[640.0, 512.0]",horizontal,"(390.0, 762.0)",[0.6166666666666667],[0.539],1,3263.142
10,False,596,1.22,73,[],[],"[(1093, 875)]",[],[1],[123],[2.05],"[640.0, 512.0]",horizontal,"(890.0, 762.0)",[0.7666666666666666],[0.799],0,3266.475
10,False,597,1.166,69,[],[],"[(1148, 870)]",[],[1],[105],[1.75],"[640.0, 512.0]",vertical,"(390.0, 762.0)",[0.85],[0.571],1,3270.858
10,False,598,0.978,58,[],[],"[(1121, 856)]",[],[1],[90],[1.5],"[640.0, 512.0]",horizontal,"(390.0, 762.0)",[0.8333333333333334],[0.51],1,3275.176
10,False,599,0.844,50,[],[],"[(1099, 848)]",[],[1],[82],[1.3666666666666667],"[640.0, 512.0]",horizontal,"(890.0, 762.0)",[1.25],[0.504],1,3279.092
10,False,600,1.479,88,[],[],"[(1190, 861)]",[],[1],[120],[2.0],"[640.0, 512.0]",horizontal,"(390.0, 762.0)",[0.8833333333333333],[0.511],1,3283.32
11,False,601,1.444,86,[],[],"[(1135, 877)]",[],[1],[119],[1.9833333333333334],"[640.0, 512.0]",horizontal,"(390.0, 762.0)",[0.65],[0.529],1,3287.72
11,False,602,0.351,21,[],[],"[(1148, 872)]",[],[1],[65],[1.0833333333333333],"[640.0, 512.0]",horizontal,"(890.0, 262.0)",[1.6],[0.705],1,3291.881
11,False,603,1.306,78,[],[],"[(1184, 847)]",[],[1],[119],[1.9833333333333334],"[640.0, 512.0]",horizontal,"(390.0, 762.0)",[0.7166666666666667],[0.654],1,3296.079
11,False,604,0.904,54,[],[],"[(1105, 860)]",[],[1],[89],[1.4833333333333334],"[640.0, 512.0]",vertical,"(890.0, 262.0)",[0.65],[0.556],1,3300.364
11,False,605,1.32,79,[],[],"[(1105, 890)]",[],[1],[113],[1.8833333333333333],"[640.0, 512.0]",horizontal,"(890.0, 762.0)",[1.0666666666666667],[0.544],1,3304.035
11,False,606,1.309,78,[],[],"[(1153, 858)]",[],[1],[113],[1.8833333333333333],"[640.0, 512.0]",vertical,"(390.0, 262.0)",[0.6833333333333333],[0.564],1,3308.548
11,False,607,0.328,19,[],[],"[(1129, 871)]",[],[1],[53],[0.8833333333333333],"[640.0, 512.0]",vertical,"(890.0, 262.0)",[0.8],[0.542],1,3312.674
11,False,608,0.697,41,[],[],"[(1105, 861)]",[],[1],[76],[1.2666666666666666],"[640.0, 512.0]",horizontal,"(890.0, 262.0)",[1.3833333333333333],[0.556],1,3315.967
11,False,609,1.145,68,[],[],"[(1109, 871)]",[],[1],[75],[1.25],"[640.0, 512.0]",horizontal,"(390.0, 762.0)",[1.6666666666666667],[0.099],1,3320.157
11,False,610,1.213,72,[],[],"[(1113, 875)]",[],[1],[74],[1.2333333333333334],"[640.0, 512.0]",vertical,"(390.0, 262.0)",[1.15],[0.017],1,3324.707
11,False,611,0.816,48,[],[],"[(1112, 846)]",[],[1],[76],[1.2666666666666666],"[640.0, 512.0]",horizontal,"(390.0, 762.0)",[1.6666666666666667],[0.446],1,3328.992
11,False,612,0.965,57,[],[],"[(1128, 866)]",[],[1],[90],[1.5],"[640.0, 512.0]",vertical,"(390.0, 762.0)",[1.2],[0.524],1,3333.526
11,False,613,0.332,19,[],[],"[(1129, 881)]",[],[1],[55],[0.9166666666666666],"[640.0, 512.0]",vertical,"(890.0, 762.0)",[0.65],[0.571],1,3337.808
11,False,614,1.143,68,[],[],"[(1099, 872)]",[],[1],[77],[1.2833333333333332],"[640.0, 512.0]",horizontal,"(890.0, 762.0)",[1.5833333333333333],[0.133],1,3340.942
11,False,615,0.609,36,[],[],"[(1122, 876)]",[],[1],[67],[1.1166666666666667],"[640.0, 512.0]",horizontal,"(390.0, 262.0)",[1.4166666666666667],[0.491],1,3345.393
11,False,616,1.449,86,[],[],"[(1130, 877)]",[],[1],[110],[1.8333333333333333],"[640.0, 512.0]",vertical,"(390.0, 262.0)",[1.1166666666666667],[0.378],1,3349.6
11,False,617,1.207,72,[],[],"[(1129, 867)]",[],[1],[105],[1.75],"[640.0, 512.0]",vertical,"(390.0, 762.0)",[1.25],[0.527],1,3354.072
11,False,618,0.927,55,[],[],"[(1147, 871)]",[],[1],[93],[1.55],"[640.0, 512.0]",horizontal,"(390.0, 762.0)",[0.6],[0.603],1,3358.62
11,False,619,0.438,26,[],[],"[(1133, 876)]",[],[1],[67],[1.1166666666666667],"[640.0, 512.0]",horizontal,"(390.0, 262.0)",[0.7666666666666666],[0.649],1,3362.26
11,False,620,0.969,58,[],[],"[(1146, 876)]",[],[1],[91],[1.5166666666666666],"[640.0, 512.0]",horizontal,"(390.0, 762.0)",[0.5833333333333334],[0.523],1,3365.704
11,False,621,0.861,51,[],[],"[(1090, 886)]",[],[1],[82],[1.3666666666666667],"[640.0, 512.0]",vertical,"(890.0, 762.0)",[1.2833333333333332],[0.492],1,3369.342
11,False,622,0.464,27,[],[],"[(1129, 872)]",[],[1],[63],[1.05],"[640.0, 512.0]",horizontal,"(390.0, 762.0)",[0.95],[0.575],1,3373.558
11,False,623,0.409,24,[],[],"[(1165, 878)]",[],[1],[56],[0.9333333333333333],"[640.0, 512.0]",horizontal,"(890.0, 262.0)",[0.9166666666666666],[0.501],1,3377.092
11,False,624,0.668,40,[],[],"[(1129, 872)]",[],[1],[],[],"[640.0, 512.0]",horizontal,"(390.0, 262.0)",[],[0],0,3380.454
11,False,625,1.421,85,[],[],"[(1117, 892)]",[],[1],[],[],"[640.0, 512.0]",horizontal,"(890.0, 762.0)",[],[0],0,3384.012
11,False,626,0.445,26,[],[],"[(1106, 871)]",[],[1],[61],[1.0166666666666666],"[640.0, 512.0]",vertical,"(890.0, 262.0)",[0.9333333333333333],[0.556],1,3391.338
11,False,627,0.896,53,[],[],"[(1105, 880)]",[],[1],[86],[1.4333333333333333],"[640.0, 512.0]",horizontal,"(890.0, 262.0)",[1.0833333333333333],[0.526],1,3394.872
11,False,628,0.333,19,[],[],"[(1184, 846)]",[],[1],[51],[0.85],"[640.0, 512.0]",horizontal,"(390.0, 262.0)",[1.3333333333333333],[0.51],1,3398.98
11,False,629,0.52,31,[],[],"[(1105, 855)]",[],[1],[60],[1.0],"[640.0, 512.0]",vertical,"(390.0, 262.0)",[1.6333333333333333],[0.461],1,3402.65
11,False,630,0.768,46,[],[],"[(1096, 898)]",[],[1],[79],[1.3166666666666667],"[640.0, 512.0]",vertical,"(890.0, 762.0)",[0.9333333333333333],[0.524],1,3406.886
11,False,631,0.564,33,[],[],"[(1148, 871)]",[],[1],[76],[1.2666666666666666],"[640.0, 512.0]",vertical,"(390.0, 262.0)",[1.1166666666666667],[0.687],1,3410.741
11,False,632,1.342,80,[],[],"[(1100, 866)]",[],[1],[111],[1.8499999999999999],"[640.0, 512.0]",horizontal,"(890.0, 762.0)",[0.9833333333333333],[0.485],1,3414.645
11,False,633,1.036,62,[],[],"[(1129, 887)]",[],[1],[91],[1.5166666666666666],"[640.0, 512.0]",vertical,"(390.0, 262.0)",[0.6166666666666667],[0.46],1,3419.073
11,False,634,0.948,56,[],[],"[(1136, 866)]",[],[1],[98],[1.6333333333333333],"[640.0, 512.0]",vertical,"(890.0, 762.0)",[0.65],[0.666],1,3422.722
11,False,635,0.854,51,[],[],"[(1117, 871)]",[],[1],[82],[1.3666666666666667],"[640.0, 512.0]",vertical,"(390.0, 762.0)",[1.4666666666666666],[0.493],1,3426.558
11,False,636,0.57,34,[],[],"[(1123, 871)]",[],[1],[63],[1.05],"[640.0, 512.0]",vertical,"(890.0, 262.0)",[1.2166666666666666],[0.462],1,3430.93
11,False,637,1.286,77,[],[],"[(1163, 862)]",[],[1],[],[],"[640.0, 512.0]",horizontal,"(890.0, 262.0)",[],[0],0,3434.859
11,False,638,0.802,48,[],[],"[(1106, 869)]",[],[1],[81],[1.35],"[640.0, 512.0]",horizontal,"(890.0, 762.0)",[0.7666666666666666],[0.527],1,3438.322
11,False,639,0.499,29,[],[],"[(1131, 869)]",[],[1],[63],[1.05],"[640.0, 512.0]",horizontal,"(390.0, 262.0)",[0.8666666666666667],[0.54],1,3442.773
11,False,640,0.546,32,[],[],"[(1153, 877)]",[],[1],[68],[1.1333333333333333],"[640.0, 512.0]",horizontal,"(890.0, 262.0)",[0.7333333333333333],[0.57],1,3446.259
11,False,641,0.32,19,[],[],"[(1123, 867)]",[],[1],[51],[0.85],"[640.0, 512.0]",vertical,"(390.0, 262.0)",[0.8],[0.504],1,3449.694
11,False,642,1.403,84,[],[],"[(1099, 893)]",[],[1],[121],[2.0166666666666666],"[640.0, 512.0]",vertical,"(890.0, 762.0)",[1.4333333333333333],[0.592],1,3452.885
11,False,643,0.838,50,[],[],"[(1104, 844)]",[],[1],[81],[1.35],"[640.0, 512.0]",horizontal,"(390.0, 762.0)",[0.6833333333333333],[0.49],1,3458.066
11,False,644,0.564,33,[],[],"[(1123, 865)]",[],[1],[65],[1.0833333333333333],"[640.0, 512.0]",horizontal,"(890.0, 762.0)",[1.0166666666666666],[0.504],1,3463.221
11,False,645,0.647,38,[],[],"[(1135, 888)]",[],[1],[68],[1.1333333333333333],"[640.0, 512.0]",horizontal,"(390.0, 262.0)",[1.3333333333333333],[0.474],1,3466.829
11,False,646,1.408,84,[],[],"[(1111, 865)]",[],[1],[111],[1.8499999999999999],"[640.0, 512.0]",horizontal,"(390.0, 262.0)",[1.3666666666666667],[0.427],1,3470.831
11,False,647,0.891,53,[],[],"[(1129, 862)]",[],[1],[85],[1.4166666666666667],"[640.0, 512.0]",vertical,"(390.0, 762.0)",[1.1666666666666667],[0.504],1,3475.568
11,False,648,1.384,83,[],[],"[(1113, 849)]",[],[1],[87],[1.45],"[640.0, 512.0]",horizontal,"(890.0, 262.0)",[1.0166666666666666],[0.05],1,3479.721
11,False,649,0.622,37,[],[],"[(1136, 872)]",[],[1],[69],[1.15],"[640.0, 512.0]",vertical,"(390.0, 262.0)",[1.1666666666666667],[0.508],1,3483.771
11,False,650,0.78,46,[],[],"[(1142, 867)]",[],[1],[79],[1.3166666666666667],"[640.0, 512.0]",horizontal,"(390.0, 262.0)",[1.4333333333333333],[0.526],1,3487.726
11,False,651,1.472,88,[],[],"[(1172, 860)]",[],[1],[112],[1.8666666666666667],"[640.0, 512.0]",vertical,"(390.0, 262.0)",[0.7833333333333333],[0.381],1,3492.047
11,False,652,1.357,81,[],[],"[(1181, 848)]",[],[1],[],[],"[640.0, 512.0]",vertical,"(390.0, 762.0)",[],[0],0,3496.368
11,False,653,1.233,73,[],[],"[(1166, 897)]",[],[1],[],[],"[640.0, 512.0]",vertical,"(890.0, 762.0)",[],[0],0,3499.434
11,False,654,1.287,77,[],[],"[(1172, 869)]",[],[1],[93],[1.55],"[640.0, 512.0]",vertical,"(390.0, 262.0)",[1.0166666666666666],[0.254],1,3508.227
11,False,655,1.105,66,[],[],"[(1148, 875)]",[],[1],[],[],"[640.0, 512.0]",horizontal,"(890.0, 262.0)",[],[0],0,3512.287
11,False,656,0.734,44,[],[],"[(1099, 856)]",[],[1],[78],[1.3],"[640.0, 512.0]",horizontal,"(390.0, 262.0)",[0.5666666666666667],[0.543],1,3515.699
11,False,657,0.821,49,[],[],"[(1153, 862)]",[],[1],[99],[1.65],"[640.0, 512.0]",vertical,"(890.0, 762.0)",[0.5333333333333333],[0.798],0,3519.437
11,False,658,1.373,82,[],[],"[(1130, 889)]",[],[1],[114],[1.9],"[640.0, 512.0]",vertical,"(890.0, 762.0)",[0.7],[0.527],1,3523.19
11,False,659,0.751,45,[],[],"[(1143, 889)]",[],[1],[77],[1.2833333333333332],"[640.0, 512.0]",vertical,"(890.0, 762.0)",[1.4],[0.512],1,3531.879
11,False,660,0.714,42,[],[],"[(1115, 884)]",[],[1],[73],[1.2166666666666666],"[640.0, 512.0]",horizontal,"(890.0, 762.0)",[1.0166666666666666],[0.488],1,3536.155
12,False,661,0.574,34,[],[],"[(1178, 879)]",[],[1],[65],[1.0833333333333333],"[640.0, 512.0]",vertical,"(890.0, 762.0)",[1.6833333333333333],[0.495],1,3539.926
12,False,662,0.612,36,[],[],"[(1153, 869)]",[],[1],[69],[1.15],"[640.0, 512.0]",vertical,"(390.0, 262.0)",[1.1333333333333333],[0.526],1,3544.203
12,False,663,1.133,67,[],[],"[(1135, 880)]",[],[1],[103],[1.7166666666666666],"[640.0, 512.0]",vertical,"(390.0, 762.0)",[0.8833333333333333],[0.572],1,3548.004
12,False,664,0.398,23,[],[],"[(1099, 889)]",[],[1],[54],[0.9],"[640.0, 512.0]",horizontal,"(890.0, 762.0)",[1.3833333333333333],[0.5],1,3552.191
