block,trial,trial_type,taps_start_loc_during_fix,taps_end_loc_during_fix,taps_on_lever_during_fix,taps_on_lever_s_during_fix,bar_orientation,target_xy,cti,rt,acc,time,pulses,fa_rate_recent100,p_catch
0,1,catch,"[(1012, 842)]",[],[1],[],horizontal,"(390.0, 262.0)",1.6,nan,1,0.531,1,0.0,0.1
0,2,target,"[(1056, 806)]",[],[1],[0.5833333333333334],horizontal,"(890.0, 762.0)",0.7666666666666666,0.558,1,309.487,1,0.0,0.1
0,3,target,"[(1056, 807)]",[],[1],[0.85],horizontal,"(890.0, 762.0)",0.5166666666666666,nan,0,314.637,0,0.0,0.1
0,4,target,"[(1051, 841)]",[],[1],[0.85],vertical,"(890.0, 762.0)",0.75,nan,0,319.041,0,0.0,0.1
0,5,target,"[(1030, 837)]",[],[1],[0.85],horizontal,"(890.0, 762.0)",0.9666666666666667,nan,0,324.364,0,0.0,0.1
0,6,target,"[(1036, 792)]",[],[1],[0.6333333333333333],horizontal,"(390.0, 762.0)",0.7166666666666667,0.608,1,331.345,1,0.0,0.1
0,7,target,"[(1052, 804)]",[],[1],[0.85],horizontal,"(390.0, 262.0)",0.9833333333333333,nan,0,336.4,0,0.0,0.1
0,8,target,"[(1037, 806)]",[],[1],[0.3833333333333333],horizontal,"(390.0, 762.0)",1.4666666666666666,0.352,1,341.174,1,0.0,0.1
0,9,target,"[(1052, 802)]",[],[1],[0.85],vertical,"(390.0, 262.0)",1.0833333333333333,nan,0,346.501,0,0.0,0.1
0,10,target,"[(1017, 789)]",[],[1],[0.48333333333333334],vertical,"(890.0, 762.0)",1.35,0.454,1,351.375,1,0.0,0.1
0,11,target,"[(1028, 785)]",[],[1],[0.85],vertical,"(890.0, 762.0)",0.75,nan,0,356.324,0,0.0,0.1
0,12,target,"[(1027, 779)]",[],[1],[0.6333333333333333],horizontal,"(890.0, 262.0)",0.6166666666666667,0.605,1,361.087,1,0.0,0.1
0,13,target,"[(1058, 796)]",[],[1],[0.48333333333333334],vertical,"(390.0, 262.0)",1.3166666666666667,0.457,1,365.903,1,0.0,0.1
0,14,catch,"[(1051, 781)]",[],[1],[],horizontal,"(390.0, 262.0)",1.6,nan,1,370.931,1,0.0,0.1
0,15,target,"[(1019, 784)]",[],[1],[0.5166666666666666],vertical,"(890.0, 262.0)",1.3,0.47,1,376.062,2,0.0,0.1
0,16,target,"[(1021, 759)]",[],[1],[0.48333333333333334],horizontal,"(890.0, 762.0)",1.1833333333333333,0.455,1,381.429,2,0.0,0.1
0,17,target,"[(1021, 795)]",[],[1],[0.08333333333333333],vertical,"(390.0, 262.0)",1.3166666666666667,0.051,0,386.92,0,0.0,0.1
0,18,target,"[(1029, 811)]",[],[1],[0.3],vertical,"(890.0, 262.0)",1.5,0.272,1,393.758,1,0.0,0.1
0,19,target,"[(995, 854), (1016, 816)]",[],"[0, 1]",[0.4666666666666667],vertical,"(390.0, 762.0)",1.1833333333333333,0.424,1,398.711,1,0.0,0.1
0,20,target,"[(1035, 786)]",[],[1],[0.85],horizontal,"(390.0, 762.0)",0.43333333333333335,nan,0,405.991,0,0.0,0.1
0,21,target,"[(1000, 761), (1041, 800)]",[],"[0, 1]",[0.5166666666666666],vertical,"(890.0, 262.0)",0.9333333333333333,0.475,1,410.54,1,0.0,0.1
0,22,target,"[(1049, 785)]",[],[1],[0.48333333333333334],horizontal,"(890.0, 262.0)",0.95,0.458,1,416.628,1,0.0,0.1
0,23,target,"[(1039, 781)]",[],[1],[0.6166666666666667],vertical,"(390.0, 762.0)",0.5333333333333333,0.584,1,421.341,1,0.0,0.1
0,24,target,"[(1059, 786)]",[],[1],[0.4666666666666667],vertical,"(890.0, 262.0)",1.1166666666666667,0.44,1,425.907,2,0.0,0.1
0,25,target,"[(1039, 786)]",[],[1],[0.06666666666666667],horizontal,"(890.0, 762.0)",1.5166666666666666,0.036,0,431.239,0,0.0,0.1
0,26,target,"[(1045, 791)]",[],[1],[0.48333333333333334],vertical,"(890.0, 262.0)",0.8,0.441,1,436.028,1,0.0,0.1
0,27,catch,"[(1043, 778)]",[],[1],[],horizontal,"(390.0, 762.0)",1.6,nan,1,440.771,1,0.0,0.1
0,28,target,"[(1038, 771)]",[],[1],[0.5],vertical,"(890.0, 762.0)",1.3666666666666667,0.465,1,445.577,1,0.0,0.1
0,29,catch,"[(1041, 767)]",[],[1],[],vertical,"(390.0, 762.0)",1.6,nan,1,450.624,2,0.0,0.1
0,30,target,"[(1043, 768)]",[],[1],[0.5666666666666667],horizontal,"(390.0, 262.0)",0.65,0.528,1,455.842,2,0.0,0.1
0,31,target,"[(1017, 838)]",[],[1],[0.6666666666666666],horizontal,"(890.0, 762.0)",0.95,0.615,1,460.599,2,0.0,0.1
0,32,target,"[(1045, 801)]",[],[1],[0.55],horizontal,"(390.0, 262.0)",0.6666666666666666,0.51,1,509.435,2,0.0,0.1
0,33,target,"[(1024, 803)]",[],[1],[0.55],vertical,"(890.0, 762.0)",0.8333333333333334,0.508,1,514.56,3,0.0,0.1
0,34,target,"[(1034, 794)]",[],[1],[0.4666666666666667],vertical,"(390.0, 262.0)",1.2333333333333334,0.428,1,520.827,3,0.0,0.1
0,35,target,"[(1029, 813)]",[],[1],[0.5333333333333333],vertical,"(890.0, 762.0)",0.9833333333333333,0.497,1,526.976,3,0.0,0.1
0,36,target,"[(1028, 820)]",[],[1],[0.55],vertical,"(390.0, 762.0)",0.5,0.506,1,533.077,3,0.0,0.1
0,37,target,"[(1034, 798)]",[],[1],[0.4666666666666667],vertical,"(890.0, 262.0)",1.1,0.43,1,539.393,3,0.0,0.1
0,38,target,"[(1032, 803)]",[],[1],[],vertical,"(390.0, 762.0)",,"('cti', 1.09)",0,545.443,0,0.02631578947368421,0.1
0,39,target,"[(1030, 779)]",[],[1],[0.18333333333333332],vertical,"(390.0, 762.0)",1.0166666666666666,0.146,0,549.552,0,0.02564102564102564,0.1
0,40,target,"[(1012, 800)]",[],[1],[0.65],horizontal,"(890.0, 262.0)",0.6666666666666666,0.617,1,553.494,1,0.025,0.1
0,41,target,"[(1026, 811)]",[],[1],[0.5],horizontal,"(390.0, 762.0)",1.2833333333333332,0.467,1,558.466,1,0.024390243902439025,0.1
0,42,target,"[(1025, 807)]",[],[1],[0.2],vertical,"(390.0, 762.0)",1.4333333333333333,0.169,0,563.427,0,0.023809523809523808,0.1
0,43,target,"[(1032, 776)]",[],[1],[0.55],horizontal,"(890.0, 762.0)",0.8666666666666667,0.51,1,568.681,1,0.023255813953488372,0.1
0,44,target,"[(1025, 773)]",[],[1],[0.5833333333333334],horizontal,"(390.0, 762.0)",0.9833333333333333,0.541,1,573.742,1,0.022727272727272728,0.1
0,45,target,"[(1009, 801)]",[],[1],[0.5666666666666667],horizontal,"(890.0, 262.0)",1.2,0.527,1,578.599,1,0.022222222222222223,0.1
0,46,target,"[(1036, 828)]",[],[1],[0.48333333333333334],vertical,"(890.0, 762.0)",0.7166666666666667,0.442,1,584.144,2,0.021739130434782608,0.1
0,47,target,"[(1025, 783)]",[],[1],[0.6333333333333333],vertical,"(390.0, 762.0)",0.45,0.602,1,589.634,2,0.02127659574468085,0.1
0,48,target,"[(1021, 764)]",[],[1],[0.5166666666666666],horizontal,"(390.0, 262.0)",1.0666666666666667,0.477,1,594.36,2,0.020833333333333332,0.1
0,49,target,"[(1057, 789)]",[],[1],[0.16666666666666666],vertical,"(890.0, 762.0)",1.45,0.131,0,599.44,0,0.02040816326530612,0.1
0,50,target,"[(1033, 819)]",[],[1],[0.5333333333333333],vertical,"(890.0, 762.0)",0.6,0.498,1,603.944,1,0.02,0.1
0,51,target,"[(1033, 803)]",[],[1],[0.85],vertical,"(390.0, 762.0)",0.5333333333333333,nan,0,608.163,0,0.02,0.1
0,52,target,"[(1032, 796)]",[],[1],[0.5166666666666666],vertical,"(390.0, 762.0)",0.5333333333333333,0.483,1,612.273,1,0.02,0.1
0,53,target,"[(1037, 770)]",[],[1],[0.6333333333333333],horizontal,"(890.0, 262.0)",0.4666666666666667,0.601,1,616.647,1,0.02,0.1
0,54,catch,"[(1009, 812)]",[],[1],[],vertical,"(890.0, 262.0)",1.6,"('cti', 1.603),nan",0,621.128,0,0.04,0.1
0,55,target,"[(1038, 803)]",[],[1],[0.5833333333333334],vertical,"(390.0, 262.0)",0.4166666666666667,0.551,1,626.093,1,0.04,0.1
0,56,target,"[(1038, 786)]",[],[1],[0.55],vertical,"(890.0, 762.0)",0.7166666666666667,0.519,1,630.143,1,0.04,0.1
0,57,target,"[(1043, 776)]",[],[1],[0.26666666666666666],horizontal,"(390.0, 262.0)",1.45,0.234,1,634.643,1,0.04,0.1
0,58,catch,"[(1037, 794)]",[],[1],[],vertical,"(390.0, 262.0)",1.6,nan,1,639.448,2,0.04,0.1
0,59,target,"[(1034, 788)]",[],[1],[0.4],vertical,"(890.0, 262.0)",1.2833333333333332,0.361,1,644.787,2,0.04,0.1
0,60,target,"[(1037, 789)]",[],[1],[0.85],horizontal,"(890.0, 762.0)",0.4,nan,0,649.81,0,0.04,0.1
0,61,target,"[(1002, 786), (1033, 819)]",[],"[0, 1]",[0.1],vertical,"(890.0, 762.0)",1.5333333333333332,0.069,0,654.127,0,0.04,0.1
0,62,target,"[(1021, 785)]",[],[1],[0.15],horizontal,"(390.0, 262.0)",1.5333333333333332,0.118,0,662.914,0,0.04,0.1
0,63,target,"[(1024, 796)]",[],[1],[0.6],horizontal,"(390.0, 762.0)",0.35,0.558,1,667.617,1,0.04,0.1
0,64,target,"[(996, 787), (1007, 814)]",[],"[0, 1]",[0.6833333333333333],horizontal,"(390.0, 262.0)",0.35,0.643,1,672.043,1,0.04,0.1
0,65,target,"[(1030, 786)]",[],[1],[],horizontal,"(390.0, 762.0)",,"('cti', 1.454)",0,678.593,0,0.06,0.1
0,66,target,"[(1036, 783)]",[],[1],[0.55],vertical,"(890.0, 762.0)",1.3,0.508,1,683.276,1,0.06,0.1
0,67,target,"[(1033, 787)]",[],[1],[0.55],horizontal,"(390.0, 762.0)",0.65,0.508,1,688.205,1,0.06,0.1
0,68,target,"[(1033, 765)]",[],[1],[0.6166666666666667],vertical,"(890.0, 762.0)",0.5833333333333334,0.572,1,692.794,1,0.06,0.1
0,69,target,"[(1024, 763)]",[],[1],[0.85],horizontal,"(390.0, 262.0)",0.8833333333333333,nan,0,696.977,0,0.06,0.1
0,70,target,"[(1004, 786), (1012, 790)]",[],"[0, 1]",[0.5166666666666666],vertical,"(890.0, 762.0)",0.7,0.475,1,701.566,1,0.06,0.1
0,71,target,"[(1023, 805)]",[],[1],[0.85],vertical,"(890.0, 762.0)",0.4166666666666667,nan,0,707.663,0,0.06,0.1
0,72,target,"[(1016, 794)]",[],[1],[0.6],horizontal,"(390.0, 262.0)",0.5166666666666666,0.567,1,711.798,1,0.06,0.1
0,73,target,"[(1033, 789)]",[],[1],[0.7333333333333333],vertical,"(890.0, 262.0)",1.2666666666666666,0.688,1,716.183,1,0.06,0.1
0,74,target,"[(1034, 774)]",[],[1],[0.6166666666666667],horizontal,"(890.0, 762.0)",1.3333333333333333,0.573,1,721.462,1,0.06,0.1
0,75,target,"[(1027, 786)]",[],[1],[0.8],horizontal,"(390.0, 262.0)",1.0833333333333333,0.758,1,726.404,2,0.06,0.1
0,76,target,"[(1002, 825), (1033, 789)]",[],"[0, 1]",[0.11666666666666667],vertical,"(390.0, 262.0)",1.3833333333333333,0.083,0,732.011,0,0.06,0.1
0,77,target,"[(1014, 812)]",[],[1],[0.5333333333333333],horizontal,"(390.0, 762.0)",0.6666666666666666,0.489,1,739.027,1,0.06,0.1
0,78,target,"[(1022, 781)]",[],[1],[0.65],horizontal,"(390.0, 762.0)",0.8833333333333333,0.608,1,743.946,1,0.06,0.1
0,79,target,"[(1019, 784)]",[],[1],[0.3833333333333333],vertical,"(390.0, 762.0)",1.5166666666666666,0.343,1,748.844,1,0.06,0.1
0,80,target,"[(1030, 778)]",[],[1],[0.65],vertical,"(890.0, 262.0)",1.0,0.607,1,753.945,2,0.06,0.1
0,81,target,"[(1034, 772)]",[],[1],[0.6],horizontal,"(890.0, 762.0)",1.5,0.566,1,759.377,2,0.06,0.1
0,82,target,"[(1013, 776)]",[],[1],[0.85],horizontal,"(390.0, 262.0)",0.9166666666666666,nan,0,765.516,0,0.06,0.1
0,83,target,"[(985, 798), (1002, 794), (1030, 797)]",[],"[0, 0, 1]",[0.85],vertical,"(390.0, 762.0)",0.4666666666666667,nan,0,770.178,0,0.06,0.1
0,84,target,"[(1010, 800)]",[],[1],[0.85],vertical,"(890.0, 262.0)",1.05,nan,0,777.477,0,0.06,0.1
0,85,catch,"[(1016, 820)]",[],[1],[],vertical,"(890.0, 262.0)",1.6,nan,1,782.345,1,0.06,0.1
0,86,target,"[(1026, 793)]",[],[1],[0.5166666666666666],horizontal,"(890.0, 262.0)",1.2166666666666666,0.476,1,790.761,1,0.06,0.1
0,87,target,"[(1033, 791)]",[],[1],[0.85],vertical,"(890.0, 762.0)",0.75,nan,0,795.718,0,0.06,0.1
0,88,target,"[(1008, 805)]",[],[1],[0.5166666666666666],horizontal,"(390.0, 762.0)",1.3,0.481,1,800.565,1,0.04,0.1
0,89,target,"[(1033, 784)]",[],[1],[0.6833333333333333],vertical,"(890.0, 762.0)",0.7166666666666667,0.636,1,805.677,1,0.04,0.1
0,90,target,"[(1038, 786)]",[],[1],[0.5],vertical,"(390.0, 762.0)",1.4666666666666666,0.457,1,810.417,1,0.04,0.1
0,91,target,"[(1021, 773)]",[],[1],[0.6833333333333333],horizontal,"(890.0, 262.0)",1.0833333333333333,0.638,1,815.93,2,0.04,0.1
0,92,target,"[(1060, 778)]",[],[1],[0.48333333333333334],horizontal,"(890.0, 762.0)",1.3,0.441,1,821.076,2,0.04,0.1
0,93,target,"[(1038, 766)]",[],[1],[0.5833333333333334],vertical,"(390.0, 262.0)",1.4333333333333333,0.551,1,826.344,2,0.04,0.1
0,94,catch,"[(1038, 775)]",[],[1],[],horizontal,"(890.0, 762.0)",1.6,nan,1,831.592,2,0.04,0.1
0,95,target,"[(1041, 788)]",[],[1],[0.3],horizontal,"(390.0, 262.0)",1.4333333333333333,0.266,1,837.044,3,0.04,0.1
0,96,target,"[(1033, 781)]",[],[1],[0.85],horizontal,"(390.0, 262.0)",0.5833333333333334,nan,0,842.795,0,0.04,0.1
0,97,target,"[(991, 812), (1024, 825)]",[],"[0, 1]",[0.5166666666666666],horizontal,"(890.0, 762.0)",1.3666666666666667,0.478,1,846.947,1,0.04,0.1
0,98,target,"[(1010, 784)]",[],[1],[0.26666666666666666],horizontal,"(390.0, 762.0)",1.3333333333333333,0.233,1,853.6,1,0.04,0.1
0,99,target,"[(1020, 773)]",[],[1],[0.6166666666666667],horizontal,"(390.0, 762.0)",0.5,0.569,1,858.588,1,0.04,0.1
0,100,target,"[(1033, 770)]",[],[1],[0.48333333333333334],vertical,"(390.0, 262.0)",1.25,0.442,1,863.078,2,0.04,0.1
0,101,target,"[(1049, 782)]",[],[1],[0.5166666666666666],horizontal,"(890.0, 262.0)",0.7333333333333333,0.484,1,868.394,2,0.04,0.1
0,102,catch,"[(1035, 802)]",[],[1],[],horizontal,"(890.0, 262.0)",1.6,nan,1,873.228,2,0.04,0.1
0,103,target,"[(1045, 771)]",[],[1],[0.25],horizontal,"(390.0, 762.0)",1.4166666666666667,0.214,1,878.903,2,0.04,0.1
0,104,target,"[(1049, 791)]",[],[1],[0.6666666666666666],vertical,"(390.0, 762.0)",0.5333333333333333,0.623,1,884.077,3,0.02,0.1
0,105,target,"[(1025, 765)]",[],[1],[0.6],horizontal,"(390.0, 762.0)",0.6,0.557,1,889.523,3,0.02,0.1
0,106,catch,"[(1009, 798)]",[],[1],[],horizontal,"(390.0, 262.0)",,"('cti', 1.543),nan",0,894.661,0,0.04,0.1
0,107,target,"[(1021, 791)]",[],[1],[0.5666666666666667],horizontal,"(390.0, 262.0)",1.05,0.529,1,899.395,1,0.04,0.1
0,108,target,"[(1009, 812)]",[],[1],[0.4166666666666667],vertical,"(890.0, 262.0)",1.5333333333333332,0.373,1,904.112,1,0.04,0.1
0,109,target,"[(1017, 782)]",[],[1],[0.5666666666666667],horizontal,"(390.0, 262.0)",0.36666666666666664,0.522,1,914.728,1,0.04,0.1
0,110,target,"[(1009, 775)]",[],[1],[0.5166666666666666],vertical,"(390.0, 262.0)",1.15,0.476,1,918.929,2,0.04,0.1
0,111,target,"[(1036, 764)]",[],[1],[0.16666666666666666],horizontal,"(390.0, 262.0)",1.4666666666666666,0.132,0,924.488,0,0.04,0.1
0,112,catch,"[(1035, 801)]",[],[1],[],vertical,"(890.0, 762.0)",1.6,nan,1,929.338,1,0.04,0.1
0,113,target,"[(1021, 805)]",[],[1],[0.85],vertical,"(390.0, 762.0)",0.5166666666666666,nan,0,933.794,0,0.04,0.1
0,114,catch,"[(1030, 765)]",[],[1],[],horizontal,"(390.0, 762.0)",1.6,nan,1,938.445,1,0.04,0.1
0,115,target,"[(1033, 766)]",[],[1],[0.7666666666666666],vertical,"(890.0, 762.0)",0.4,0.713,1,943.195,1,0.02,0.1
0,116,target,"[(1021, 769)]",[],[1],[0.5166666666666666],vertical,"(390.0, 262.0)",0.8833333333333333,0.47,1,947.445,1,0.02,0.1
0,117,catch,"[(1038, 804)]",[],[1],[],vertical,"(890.0, 262.0)",1.6,nan,1,951.786,2,0.02,0.1
0,118,target,"[(1058, 766)]",[],[1],[0.5666666666666667],horizontal,"(890.0, 262.0)",0.95,0.525,1,956.928,2,0.02,0.1
0,119,catch,"[(1039, 764)]",[],[1],[],vertical,"(890.0, 762.0)",1.6,nan,1,961.896,2,0.02,0.1
0,120,target,"[(1021, 770)]",[],[1],[0.5166666666666666],vertical,"(890.0, 262.0)",0.5666666666666667,0.475,1,967.379,2,0.02,0.1
0,121,target,"[(1057, 775)]",[],[1],[0.5333333333333333],vertical,"(390.0, 762.0)",1.0,0.495,1,972.145,3,0.02,0.1
0,122,target,"[(1037, 770)]",[],[1],[0.85],vertical,"(390.0, 762.0)",0.65,nan,0,977.528,0,0.02,0.1
0,123,target,"[(1025, 780)]",[],[1],[0.5],vertical,"(890.0, 262.0)",0.6666666666666666,0.467,1,981.769,1,0.02,0.1
0,124,target,"[(1030, 792)]",[],[1],[0.5666666666666667],vertical,"(390.0, 762.0)",0.36666666666666664,0.52,1,986.43,1,0.02,0.1
0,125,target,"[(1009, 816)]",[],[1],[0.26666666666666666],horizontal,"(890.0, 762.0)",1.4833333333333334,0.229,1,990.678,1,0.02,0.1
0,126,target,"[(1023, 765)]",[],[1],[0.21666666666666667],horizontal,"(390.0, 762.0)",1.4,0.183,0,995.629,0,0.02,0.1
0,127,target,"[(1025, 756)]",[],[1],[0.5666666666666667],vertical,"(890.0, 262.0)",0.45,0.525,1,1000.064,1,0.02,0.1
0,128,target,"[(1018, 782)]",[],[1],[0.6166666666666667],vertical,"(390.0, 262.0)",0.7833333333333333,0.575,1,1004.512,1,0.02,0.1
0,129,catch,"[(1030, 764)]",[],[1],[],horizontal,"(390.0, 762.0)",,"('cti', 1.534),nan",0,1009.416,0,0.04,0.1
0,130,target,"[(1033, 800)]",[],[1],[0.5666666666666667],horizontal,"(890.0, 762.0)",0.7666666666666666,0.523,1,1013.962,1,0.04,0.1
0,131,target,"[(1033, 795)]",[],[1],[0.6],horizontal,"(890.0, 762.0)",0.6666666666666666,0.554,1,1018.45,1,0.04,0.1
0,132,target,"[(1021, 762)]",[],[1],[0.6666666666666666],vertical,"(390.0, 762.0)",0.7,0.618,1,1022.878,1,0.04,0.1
0,133,target,"[(1031, 768)]",[],[1],[0.6333333333333333],horizontal,"(890.0, 762.0)",0.7333333333333333,0.584,1,1027.595,2,0.04,0.1
0,134,catch,"[(1033, 761)]",[],[1],[],vertical,"(890.0, 762.0)",,"('cti', 1.564),nan",0,1032.678,0,0.06,0.1
0,135,target,"[(1029, 763)]",[],[1],[0.65],horizontal,"(390.0, 762.0)",0.4166666666666667,0.603,1,1037.361,1,0.06,0.1
0,136,target,"[(1022, 757)]",[],[1],[0.5],horizontal,"(890.0, 762.0)",0.85,0.459,1,1041.538,1,0.06,0.1
0,137,target,"[(1039, 765)]",[],[1],[0.85],horizontal,"(390.0, 762.0)",0.4166666666666667,nan,0,1046.078,0,0.06,0.1
0,138,target,"[(1029, 805)]",[],[1],[0.55],vertical,"(890.0, 262.0)",0.43333333333333335,0.505,1,1050.402,1,0.06,0.1
0,139,target,"[(1021, 766)]",[],[1],[0.5166666666666666],vertical,"(390.0, 762.0)",0.7666666666666666,0.473,1,1059.706,1,0.06,0.1
0,140,target,"[(1048, 796)]",[],[1],[0.6166666666666667],horizontal,"(890.0, 262.0)",0.8666666666666667,0.576,1,1064.034,1,0.06,0.1
0,141,target,"[(1035, 781)]",[],[1],[0.4666666666666667],horizontal,"(890.0, 762.0)",1.3333333333333333,0.431,1,1069.002,2,0.06,0.1
0,142,target,"[(1046, 768)]",[],[1],[0.5333333333333333],vertical,"(390.0, 262.0)",1.1833333333333333,0.487,1,1074.353,2,0.06,0.1
0,143,catch,"[(1030, 782)]",[],[1],[],horizontal,"(890.0, 762.0)",1.6,nan,1,1079.529,2,0.06,0.1
0,144,target,"[(1035, 765)]",[],[1],[0.55],horizontal,"(890.0, 762.0)",0.9333333333333333,0.503,1,1084.868,2,0.06,0.1
0,145,target,"[(1049, 795)]",[],[1],[0.6166666666666667],vertical,"(890.0, 762.0)",0.5333333333333333,0.57,1,1089.941,3,0.06,0.1
0,146,catch,"[(1041, 782)]",[],[1],[],horizontal,"(390.0, 762.0)",1.6,nan,1,1095.35,3,0.06,0.1
0,147,target,"[(1030, 785)]",[],[1],[0.5833333333333334],vertical,"(890.0, 762.0)",0.48333333333333334,0.537,1,1101.024,3,0.06,0.1
0,148,catch,"[(1036, 766)]",[],[1],[],horizontal,"(890.0, 762.0)",1.6,nan,1,1105.973,3,0.06,0.1
0,149,target,"[(1024, 778)]",[],[1],[0.55],vertical,"(890.0, 762.0)",0.4166666666666667,0.51,1,1111.429,3,0.06,0.1
0,150,target,"[(1040, 800)]",[],[1],[0.55],horizontal,"(390.0, 262.0)",0.6333333333333333,0.508,1,1116.041,3,0.06,0.1
0,151,target,"[(1049, 768)]",[],[1],[0.6166666666666667],vertical,"(390.0, 762.0)",0.95,0.573,1,1121.648,3,0.06,0.1
0,152,target,"[(1041, 764)]",[],[1],[],horizontal,"(890.0, 262.0)",,"('cti', 1.111)",0,1127.029,0,0.08,0.1
0,153,target,"[(1031, 795)]",[],[1],[0.43333333333333335],horizontal,"(390.0, 262.0)",1.2833333333333332,0.395,1,1131.219,1,0.08,0.1
0,154,catch,"[(1021, 764)]",[],[1],[],horizontal,"(890.0, 262.0)",1.6,nan,1,1136.062,1,0.08,0.1
0,155,target,"[(1037, 776)]",[],[1],[0.7666666666666666],horizontal,"(390.0, 262.0)",0.48333333333333334,0.719,1,1140.565,1,0.08,0.1
0,156,target,"[(1039, 770)]",[],[1],[0.45],horizontal,"(390.0, 762.0)",0.9666666666666667,0.409,1,1145.291,2,0.06,0.1
0,157,target,"[(1037, 770)]",[],[1],[0.25],vertical,"(390.0, 762.0)",1.3833333333333333,0.218,1,1150.647,2,0.06,0.1
0,158,target,"[(1040, 776)]",[],[1],[0.5166666666666666],vertical,"(890.0, 762.0)",0.9,0.471,1,1155.813,2,0.06,0.1
0,159,target,"[(1041, 777)]",[],[1],[0.3833333333333333],vertical,"(890.0, 262.0)",1.3,0.34,1,1161.011,2,0.06,0.1
0,160,target,"[(1049, 773)]",[],[1],[0.1],horizontal,"(390.0, 262.0)",1.2666666666666666,0.067,0,1166.229,0,0.06,0.1
0,161,target,"[(1041, 805)]",[],[1],[0.6666666666666666],vertical,"(390.0, 262.0)",0.5166666666666666,0.624,1,1170.904,1,0.06,0.1
0,162,target,"[(1021, 772)]",[],[1],[0.15],horizontal,"(390.0, 262.0)",1.3,0.117,0,1175.604,0,0.06,0.1
0,163,catch,"[(1034, 806)]",[],[1],[],horizontal,"(890.0, 262.0)",1.6,nan,1,1180.428,1,0.06,0.1
0,164,target,"[(1052, 765)]",[],[1],[0.7833333333333333],horizontal,"(890.0, 762.0)",0.9833333333333333,0.731,1,1185.778,1,0.06,0.1
0,165,catch,"[(1033, 781)]",[],[1],[],horizontal,"(390.0, 762.0)",,"('cti', 0.916),nan",0,1190.556,0,0.08,0.1
0,166,target,"[(1033, 786)]",[],[1],[0.43333333333333335],vertical,"(390.0, 262.0)",1.3833333333333333,0.391,1,1194.896,1,0.08,0.1
0,167,target,"[(1032, 768)]",[],[1],[0.5166666666666666],horizontal,"(890.0, 262.0)",1.2666666666666666,0.481,1,1200.128,1,0.08,0.1
0,168,target,"[(1033, 780)]",[],[1],[0.5166666666666666],horizontal,"(390.0, 262.0)",0.8166666666666667,0.475,1,1205.274,1,0.08,0.1
0,169,target,"[(1045, 786)]",[],[1],[0.5333333333333333],vertical,"(890.0, 262.0)",0.85,0.495,1,1210.274,2,0.08,0.1
0,170,target,"[(1057, 786)]",[],[1],[0.5166666666666666],horizontal,"(890.0, 262.0)",0.6666666666666666,0.472,1,1215.395,2,0.08,0.1
0,171,target,"[(1033, 809)]",[],[1],[0.5333333333333333],vertical,"(890.0, 762.0)",0.9,0.491,1,1220.409,2,0.08,0.1
0,172,target,"[(1039, 788)]",[],[1],[0.5166666666666666],horizontal,"(390.0, 762.0)",1.1,0.476,1,1225.54,2,0.08,0.1
0,173,target,"[(1029, 781)]",[],[1],[0.5333333333333333],vertical,"(890.0, 762.0)",1.1,0.491,1,1230.878,3,0.08,0.1
0,174,target,"[(1031, 766)]",[],[1],[0.7],horizontal,"(390.0, 262.0)",1.0166666666666666,0.654,1,1236.712,3,0.08,0.1
0,175,target,"[(1030, 771)]",[],[1],[0.5333333333333333],horizontal,"(890.0, 762.0)",0.9333333333333333,0.492,1,1242.369,3,0.08,0.1
0,176,target,"[(1057, 807)]",[],[1],[0.2833333333333333],horizontal,"(890.0, 762.0)",0.95,0.246,1,1248.095,3,0.08,0.1
0,177,catch,"[(1041, 772)]",[],[1],[0.03333333333333333],horizontal,"(890.0, 762.0)",1.6,"0.019,nan",0,1253.679,0,0.1,0.2
0,178,catch,"[(1037, 771)]",[],[1],[],horizontal,"(890.0, 262.0)",1.6,nan,1,1257.981,1,0.1,0.2
0,179,target,"[(1021, 769)]",[],[1],[0.48333333333333334],horizontal,"(390.0, 262.0)",1.2666666666666666,0.445,1,1262.587,1,0.08,0.1
0,180,target,"[(1047, 773)]",[],[1],[0.5],horizontal,"(890.0, 762.0)",0.8666666666666667,0.459,1,1267.808,1,0.08,0.1
0,181,target,"[(1053, 772)]",[],[1],[0.55],vertical,"(390.0, 262.0)",0.6833333333333333,0.512,1,1272.571,2,0.08,0.1
0,182,target,"[(1035, 767)]",[],[1],[0.3833333333333333],vertical,"(390.0, 762.0)",1.2666666666666666,0.353,1,1277.47,2,0.08,0.1
0,183,target,"[(1021, 769)]",[],[1],[0.7666666666666666],horizontal,"(890.0, 762.0)",0.5333333333333333,0.719,1,1282.888,2,0.08,0.1
0,184,target,"[(1021, 776)]",[],[1],[0.5333333333333333],horizontal,"(890.0, 262.0)",0.65,0.493,1,1288.342,2,0.06,0.1
0,185,target,"[(1025, 757)]",[],[1],[0.5833333333333334],horizontal,"(390.0, 762.0)",0.9,0.542,1,1293.902,3,0.06,0.1
0,186,target,"[(1057, 787)]",[],[1],[0.5833333333333334],horizontal,"(890.0, 762.0)",0.85,0.538,1,1299.596,3,0.06,0.1
0,187,target,"[(1032, 772)]",[],[1],[0.6833333333333333],vertical,"(890.0, 762.0)",0.4666666666666667,0.637,1,1304.912,3,0.06,0.1
0,188,target,"[(1037, 770)]",[],[1],[0.85],horizontal,"(390.0, 262.0)",0.5166666666666666,nan,0,1310.272,0,0.06,0.1
0,189,catch,"[(1019, 785)]",[],[1],[],horizontal,"(390.0, 262.0)",,"('cti', 1.559),nan",0,1314.934,0,0.08,0.1
0,190,target,"[(1033, 781)]",[],[1],[0.85],vertical,"(890.0, 762.0)",1.15,nan,0,1319.628,0,0.08,0.1
0,191,target,"[(1018, 799)]",[],[1],[0.6166666666666667],vertical,"(390.0, 762.0)",0.4666666666666667,0.573,1,1324.496,1,0.08,0.1
0,192,target,"[(1030, 773)]",[],[1],[0.5666666666666667],horizontal,"(890.0, 262.0)",0.4,0.528,1,1334.67,1,0.08,0.1
0,193,target,"[(1029, 781)]",[],[1],[0.35],vertical,"(390.0, 762.0)",1.4333333333333333,0.306,1,1338.831,1,0.08,0.1
0,194,catch,"[(1060, 811)]",[],[1],[],horizontal,"(890.0, 762.0)",,"('cti', 1.571),nan",0,1343.646,0,0.1,0.2
0,195,target,"[(1032, 806)]",[],[1],[0.85],vertical,"(390.0, 762.0)",0.5166666666666666,nan,0,1391.396,0,0.1,0.2
0,196,target,"[(1021, 806)]",[],[1],[0.6333333333333333],horizontal,"(390.0, 762.0)",0.9166666666666666,0.59,1,1395.763,1,0.1,0.2
0,197,catch,"[(1031, 777)]",[],[1],[],horizontal,"(390.0, 262.0)",1.6,nan,1,1400.508,1,0.1,0.2
0,198,target,"[(1029, 805)]",[],[1],[0.6333333333333333],horizontal,"(890.0, 262.0)",0.4166666666666667,0.592,1,1405.128,1,0.1,0.2
0,199,target,"[(1031, 795)]",[],[1],[0.5833333333333334],vertical,"(890.0, 262.0)",1.0333333333333332,0.545,1,1409.729,2,0.1,0.2
0,200,target,"[(1031, 789)]",[],[1],[0.15],horizontal,"(390.0, 762.0)",1.4666666666666666,0.122,0,1415.328,0,0.1,0.2
0,201,target,"[(1029, 781)]",[],[1],[0.5],horizontal,"(890.0, 262.0)",0.55,0.462,1,1420.029,1,0.1,0.2
0,202,target,"[(1017, 784)]",[],[1],[0.7333333333333333],vertical,"(390.0, 762.0)",0.5166666666666666,0.682,1,1424.613,1,0.08,0.1
0,203,target,"[(1043, 778)]",[],[1],[0.4],vertical,"(890.0, 262.0)",1.4,0.361,1,1429.13,1,0.08,0.1
0,204,target,"[(1029, 761)]",[],[1],[0.55],horizontal,"(390.0, 262.0)",0.5333333333333333,0.503,1,1434.624,2,0.08,0.1
0,205,target,"[(1021, 766)]",[],[1],[0.85],horizontal,"(390.0, 762.0)",0.7666666666666666,nan,0,1439.287,0,0.08,0.1
0,206,target,"[(1023, 806)]",[],[1],[0.23333333333333334],vertical,"(390.0, 762.0)",1.0833333333333333,0.201,1,1443.606,1,0.08,0.1
0,207,target,"[(1009, 806)]","[(996, 824)]",[1],[0.31666666666666665],horizontal,"(890.0, 262.0)",,"('bar', 0.327)",0,1448.401,0,0.08,0.1
0,208,target,"[(1013, 826)]",[],[1],[0.55],horizontal,"(890.0, 762.0)",0.7666666666666666,0.509,1,1450.829,1,0.08,0.1
0,209,target,"[(1033, 795)]",[],[1],[0.55],horizontal,"(390.0, 262.0)",0.4,0.505,1,1743.985,1,0.08,0.1
0,210,target,"[(1033, 795)]",[],[1],[0.21666666666666667],vertical,"(890.0, 762.0)",1.45,0.18,0,1748.227,0,0.08,0.1
0,211,target,"[(1033, 789)]",[],[1],[0.6333333333333333],vertical,"(390.0, 762.0)",0.9833333333333333,0.594,1,1753.148,1,0.08,0.1
0,212,target,"[(1036, 758)]",[],[1],[0.6333333333333333],vertical,"(390.0, 762.0)",0.35,0.603,1,1758.598,1,0.08,0.1
0,213,target,"[(1033, 766)]",[],[1],[0.5166666666666666],horizontal,"(390.0, 262.0)",1.4166666666666667,0.471,1,1762.592,1,0.08,0.1
0,214,target,"[(1030, 775)]",[],[1],[0.5],vertical,"(390.0, 262.0)",0.5666666666666667,0.459,1,1767.98,2,0.08,0.1
0,215,target,"[(1023, 801)]",[],[1],[0.7],horizontal,"(890.0, 762.0)",0.6333333333333333,0.658,1,1773.019,2,0.06,0.1
0,216,catch,"[(1031, 780)]",[],[1],[],horizontal,"(890.0, 762.0)",1.6,nan,1,1778.344,2,0.06,0.1
0,217,target,"[(1037, 774)]",[],[1],[0.13333333333333333],vertical,"(390.0, 262.0)",1.3833333333333333,0.103,0,1783.198,0,0.06,0.1
0,218,target,"[(1017, 839)]",[],[1],[0.6166666666666667],horizontal,"(890.0, 262.0)",0.85,0.578,1,1787.854,1,0.06,0.1
0,219,target,"[(1053, 781)]",[],[1],[0.21666666666666667],horizontal,"(390.0, 262.0)",1.5166666666666666,0.182,0,1792.612,0,0.06,0.1
0,220,target,"[(1037, 806)]",[],[1],[0.6],horizontal,"(890.0, 762.0)",0.8833333333333333,0.556,1,1797.413,1,0.06,0.1
0,221,catch,"[(1034, 761)]",[],[1],[],vertical,"(890.0, 262.0)",1.6,nan,1,1802.265,1,0.06,0.1
0,222,catch,"[(1057, 766)]",[],[1],[],vertical,"(390.0, 762.0)",1.6,nan,1,1807.364,1,0.06,0.1
0,223,target,"[(1055, 759)]",[],[1],[0.7166666666666667],horizontal,"(390.0, 762.0)",0.7333333333333333,0.672,1,1812.252,2,0.06,0.1
0,224,target,"[(1037, 776)]",[],[1],[0.6166666666666667],vertical,"(390.0, 262.0)",0.6,0.593,1,1817.496,2,0.06,0.1
0,225,target,"[(1017, 784)]",[],[1],[0.31666666666666665],vertical,"(890.0, 762.0)",1.3,0.28,1,1822.564,2,0.06,0.1
0,226,target,"[(1021, 768)]",[],[1],[0.15],vertical,"(390.0, 762.0)",1.4833333333333334,0.122,0,1828.115,0,0.06,0.1
0,227,target,"[(1033, 791)]",[],[1],[0.26666666666666666],horizontal,"(390.0, 262.0)",1.2333333333333334,0.23,1,1832.614,1,0.04,0.1
0,228,target,"[(1029, 761)]",[],[1],[0.55],horizontal,"(890.0, 762.0)",0.6666666666666666,0.509,1,1837.598,1,0.04,0.1
0,229,target,"[(1033, 770)]",[],[1],[0.5333333333333333],vertical,"(890.0, 762.0)",0.6166666666666667,0.494,1,1842.231,1,0.04,0.1
0,230,target,"[(1057, 790)]",[],[1],[0.5],horizontal,"(890.0, 262.0)",1.15,0.463,1,1846.897,2,0.04,0.1
0,231,target,"[(1049, 775)]",[],[1],[0.3],vertical,"(390.0, 762.0)",1.2833333333333332,0.263,1,1851.93,2,0.04,0.1
0,232,target,"[(1046, 782)]",[],[1],[0.31666666666666665],horizontal,"(890.0, 762.0)",1.5166666666666666,0.28,1,1856.946,2,0.04,0.1
0,233,target,"[(1037, 772)]",[],[1],[0.5333333333333333],vertical,"(890.0, 762.0)",1.0,0.492,1,1862.28,2,0.04,0.1
0,234,target,"[(1055, 810)]",[],[1],[0.6666666666666666],horizontal,"(390.0, 262.0)",1.05,0.627,1,1867.223,3,0.04,0.1
0,235,target,"[(1037, 772)]",[],[1],[0.5333333333333333],vertical,"(890.0, 762.0)",0.6666666666666666,0.493,1,1873.097,3,0.04,0.1
0,236,target,"[(1050, 791)]",[],[1],[0.16666666666666666],horizontal,"(890.0, 262.0)",1.35,0.134,0,1878.157,0,0.04,0.1
0,237,target,"[(1022, 788)]",[],[1],[0.5666666666666667],vertical,"(890.0, 262.0)",0.36666666666666664,0.52,1,1882.817,1,0.04,0.1
0,238,target,"[(1029, 781)]",[],[1],[0.55],vertical,"(890.0, 262.0)",0.85,0.512,1,1886.881,1,0.04,0.1
0,239,target,"[(1036, 773)]",[],[1],[],horizontal,"(890.0, 262.0)",,"('cti', 1.232)",0,1891.617,0,0.04,0.1
0,240,target,"[(1037, 792)]",[],[1],[0.5333333333333333],horizontal,"(890.0, 762.0)",1.1666666666666667,0.5,1,1896.349,1,0.04,0.1
0,241,target,"[(1033, 773)]",[],[1],[0.5833333333333334],vertical,"(890.0, 762.0)",0.6333333333333333,0.539,1,1901.554,1,0.04,0.1
0,242,target,"[(1037, 772)]",[],[1],[0.65],horizontal,"(390.0, 762.0)",0.6833333333333333,0.608,1,1905.981,1,0.04,0.1
0,243,target,"[(1037, 801)]",[],[1],[0.5666666666666667],horizontal,"(890.0, 762.0)",0.8,0.527,1,1910.715,2,0.04,0.1
0,244,target,"[(1021, 773)]",[],[1],[0.7166666666666667],horizontal,"(390.0, 762.0)",0.36666666666666664,0.674,1,1915.715,2,0.02,0.1
0,245,target,"[(1021, 773)]",[],[1],[0.5666666666666667],vertical,"(890.0, 762.0)",1.3666666666666667,0.525,1,1920.547,2,0.02,0.1
0,246,target,"[(1058, 794)]",[],[1],[0.5166666666666666],horizontal,"(390.0, 262.0)",0.9833333333333333,0.484,1,1925.831,2,0.02,0.1
0,247,target,"[(1035, 786)]",[],[1],[0.5833333333333334],vertical,"(890.0, 262.0)",0.45,0.544,1,1931.362,3,0.02,0.1
0,248,target,"[(1046, 786)]",[],[1],[0.16666666666666666],horizontal,"(890.0, 262.0)",1.4,0.132,0,1936.514,0,0.02,0.1
0,249,target,"[(1021, 811)]",[],[1],[0.11666666666666667],vertical,"(390.0, 762.0)",1.45,0.084,0,1940.982,0,0.02,0.1
0,250,target,"[(1041, 788)]",[],[1],[0.3],horizontal,"(390.0, 762.0)",1.3,0.264,1,1945.619,1,0.02,0.1
0,251,target,"[(1033, 786)]",[],[1],[0.31666666666666665],vertical,"(890.0, 762.0)",1.5166666666666666,0.279,1,1950.638,1,0.02,0.1
0,252,target,"[(1021, 787)]",[],[1],[0.55],horizontal,"(890.0, 762.0)",0.7666666666666666,0.518,1,1955.437,1,0.02,0.1
0,253,target,"[(1065, 798)]",[],[1],[0.4166666666666667],horizontal,"(890.0, 262.0)",1.2666666666666666,0.38,1,1960.182,2,0.02,0.1
0,254,target,"[(1024, 760)]",[],[1],[0.6],vertical,"(890.0, 762.0)",0.8,0.559,1,1965.394,2,0.02,0.1
0,255,target,"[(1017, 748), (1012, 828)]",[],"[0, 1]",[0.5666666666666667],horizontal,"(890.0, 762.0)",1.1166666666666667,0.526,1,1970.215,2,0.02,0.1
0,256,target,"[(1021, 775)]",[],[1],[0.5166666666666666],horizontal,"(890.0, 262.0)",0.9333333333333333,0.48,1,1976.679,2,0.02,0.1
0,257,target,"[(1033, 766)]",[],[1],[0.6166666666666667],vertical,"(890.0, 262.0)",0.5833333333333334,0.583,1,1981.531,3,0.02,0.1
0,258,target,"[(1033, 767)]",[],[1],[0.45],horizontal,"(890.0, 762.0)",1.2,0.414,1,1987.348,3,0.02,0.1
0,259,target,"[(1021, 764)]",[],[1],[0.5333333333333333],horizontal,"(890.0, 762.0)",0.8333333333333334,0.489,1,1993.115,3,0.02,0.1
0,260,target,"[(1036, 786)]",[],[1],[0.5666666666666667],vertical,"(390.0, 762.0)",0.55,0.53,1,1998.801,3,0.02,0.1
0,261,target,"[(1037, 767)]",[],[1],[0.55],horizontal,"(390.0, 262.0)",0.9833333333333333,0.51,1,2004.385,3,0.02,0.1
0,262,target,"[(1046, 774)]",[],[1],[0.5166666666666666],horizontal,"(890.0, 262.0)",0.5666666666666667,0.481,1,2010.366,3,0.02,0.1
0,263,target,"[(1041, 769)]",[],[1],[],vertical,"(390.0, 262.0)",,"('cti', 1.152)",0,2015.479,0,0.04,0.1
0,264,target,"[(1021, 795)]",[],[1],[0.18333333333333332],vertical,"(390.0, 762.0)",1.4333333333333333,0.152,0,2020.033,0,0.04,0.1
0,265,target,"[(1027, 774)]",[],[1],[0.85],horizontal,"(390.0, 262.0)",0.9666666666666667,nan,0,2024.848,0,0.04,0.1
0,266,target,"[(1021, 776)]",[],[1],[0.55],horizontal,"(390.0, 262.0)",0.5166666666666666,0.513,1,2029.262,1,0.04,0.1
0,267,target,"[(1057, 786)]",[],[1],[0.5666666666666667],horizontal,"(390.0, 762.0)",0.7333333333333333,0.524,1,2033.621,1,0.04,0.1
0,268,target,"[(1019, 766)]",[],[1],[0.5333333333333333],vertical,"(890.0, 762.0)",0.7666666666666666,0.497,1,2038.075,1,0.04,0.1
0,269,catch,"[(1053, 772)]",[],[1],[],vertical,"(390.0, 262.0)",,"('cti', 1.497),nan",0,2042.398,0,0.06,0.1
0,270,target,"[(1032, 791)]",[],[1],[0.48333333333333334],horizontal,"(890.0, 262.0)",0.8666666666666667,0.443,1,2047.365,1,0.06,0.1
0,271,target,"[(1033, 757)]",[],[1],[0.45],vertical,"(390.0, 262.0)",1.45,0.407,1,2052.797,1,0.06,0.1
0,272,catch,"[(1032, 760)]",[],[1],[],vertical,"(890.0, 762.0)",1.6,nan,1,2057.892,1,0.06,0.1
0,273,target,"[(1057, 801)]",[],[1],[0.5333333333333333],horizontal,"(890.0, 262.0)",0.4666666666666667,0.49,1,2062.845,2,0.06,0.1
0,274,target,"[(1037, 775)]",[],[1],[0.36666666666666664],vertical,"(390.0, 262.0)",1.2,0.334,1,2067.696,2,0.06,0.1
0,275,target,"[(1017, 771)]",[],[1],[0.5333333333333333],horizontal,"(390.0, 262.0)",1.15,0.495,1,2073.247,2,0.06,0.1
0,276,target,"[(1033, 757)]",[],[1],[0.3833333333333333],horizontal,"(890.0, 262.0)",1.3833333333333333,0.344,1,2078.769,2,0.06,0.1
0,277,target,"[(1017, 786)]",[],[1],[0.5333333333333333],horizontal,"(890.0, 762.0)",0.5166666666666666,0.496,1,2084.264,3,0.06,0.1
0,278,target,"[(1039, 767)]",[],[1],[0.5],horizontal,"(390.0, 262.0)",1.1166666666666667,0.468,1,2089.521,3,0.06,0.1
0,279,target,"[(1033, 774)]",[],[1],[0.5666666666666667],vertical,"(890.0, 762.0)",0.48333333333333334,0.525,1,2095.253,3,0.06,0.1
0,280,target,"[(1033, 761)]",[],[1],[0.5833333333333334],horizontal,"(890.0, 762.0)",0.5666666666666667,0.547,1,2100.609,3,0.06,0.1
0,281,target,"[(1039, 784)]",[],[1],[0.5166666666666666],horizontal,"(890.0, 762.0)",1.0833333333333333,0.476,1,2105.831,3,0.06,0.1
0,282,target,"[(1036, 773)]",[],[1],[0.7166666666666667],horizontal,"(390.0, 262.0)",0.5666666666666667,0.666,1,2111.565,3,0.06,0.1
0,283,target,"[(1033, 772)]",[],[1],[0.55],horizontal,"(890.0, 262.0)",0.6,0.51,1,2117.031,3,0.06,0.1
0,284,target,"[(1033, 772)]",[],[1],[0.21666666666666667],vertical,"(890.0, 762.0)",1.3833333333333333,0.182,0,2121.866,0,0.06,0.1
0,285,catch,"[(1027, 787)]",[],[1],[],vertical,"(390.0, 762.0)",1.6,nan,1,2126.709,1,0.06,0.1
0,286,target,"[(1036, 772)]",[],[1],[0.6166666666666667],vertical,"(890.0, 762.0)",0.9,0.573,1,2131.771,1,0.06,0.1
0,287,target,"[(1037, 769)]",[],[1],[0.65],horizontal,"(390.0, 262.0)",1.0333333333333332,0.612,1,2136.843,1,0.06,0.1
0,288,target,"[(1018, 764)]",[],[1],[0.55],horizontal,"(390.0, 262.0)",1.4333333333333333,0.509,1,2142.035,2,0.06,0.1
0,289,target,"[(1054, 786)]",[],[1],[0.55],vertical,"(890.0, 262.0)",0.9166666666666666,0.51,1,2147.811,2,0.04,0.1
0,290,target,"[(1031, 769)]",[],[1],[0.2833333333333333],vertical,"(890.0, 262.0)",1.4833333333333334,0.249,1,2152.729,2,0.04,0.1
0,291,target,"[(1037, 771)]",[],[1],[0.4666666666666667],horizontal,"(890.0, 262.0)",1.2666666666666666,0.425,1,2157.932,2,0.04,0.1
0,292,target,"[(1040, 766)]",[],[1],[0.5666666666666667],horizontal,"(390.0, 762.0)",0.5833333333333334,0.527,1,2163.064,3,0.04,0.1
0,293,target,"[(1025, 754)]",[],[1],[0.5166666666666666],vertical,"(390.0, 262.0)",1.3333333333333333,0.478,1,2168.137,3,0.04,0.1
0,294,target,"[(1035, 774)]",[],[1],[0.7333333333333333],vertical,"(390.0, 762.0)",0.4,0.691,1,2174.032,3,0.04,0.1
0,295,catch,"[(1022, 765)]",[],[1],[],horizontal,"(390.0, 762.0)",,"('cti', 1.201),nan",0,2179.348,0,0.06,0.1
0,296,target,"[(1025, 819)]",[],[1],[0.6166666666666667],vertical,"(390.0, 262.0)",0.5166666666666666,0.571,1,2183.916,1,0.06,0.1
0,297,target,"[(1031, 776)]",[],[1],[0.5833333333333334],vertical,"(390.0, 262.0)",0.9166666666666666,0.545,1,2188.549,1,0.06,0.1
0,298,target,"[(1030, 760)]",[],[1],[0.5],vertical,"(390.0, 762.0)",0.9166666666666666,0.459,1,2193.349,1,0.06,0.1
0,299,target,"[(1029, 779)]",[],[1],[0.55],vertical,"(390.0, 762.0)",1.0,0.509,1,2198.166,2,0.06,0.1
0,300,target,"[(1028, 760)]",[],[1],[0.5333333333333333],vertical,"(890.0, 262.0)",0.36666666666666664,0.491,1,2203.676,2,0.06,0.1
0,301,target,"[(1042, 777)]",[],[1],[0.65],vertical,"(390.0, 262.0)",0.95,0.604,1,2208.298,2,0.06,0.1
0,302,target,"[(1033, 778)]",[],[1],[0.5333333333333333],horizontal,"(390.0, 262.0)",0.36666666666666664,0.491,1,2213.898,2,0.06,0.1
0,303,catch,"[(1023, 760)]",[],[1],[],vertical,"(390.0, 262.0)",,"('cti', 1.208),nan",0,2218.291,0,0.08,0.1
0,304,target,"[(1022, 790)]",[],[1],[0.43333333333333335],vertical,"(390.0, 762.0)",1.1166666666666667,0.394,1,2222.399,1,0.08,0.1
0,305,target,"[(1022, 791)]",[],[1],[0.6333333333333333],vertical,"(390.0, 262.0)",0.5833333333333334,0.591,1,2227.257,1,0.08,0.1
0,306,target,"[(1021, 746), (1034, 813)]",[],"[0, 1]",[0.7],vertical,"(890.0, 762.0)",1.0,0.651,1,2232.131,1,0.08,0.1
0,307,target,"[(1035, 797)]",[],[1],[0.3333333333333333],horizontal,"(890.0, 262.0)",1.2666666666666666,0.297,1,2238.337,2,0.08,0.1
0,308,target,"[(1034, 768)]",[],[1],[0.7],horizontal,"(390.0, 262.0)",0.4166666666666667,0.656,1,2243.964,2,0.08,0.1
0,309,target,"[(1033, 769)]",[],[1],[0.11666666666666667],vertical,"(890.0, 262.0)",1.5166666666666666,0.084,0,2249.181,0,0.08,0.1
0,310,target,"[(1033, 776)]",[],[1],[0.48333333333333334],horizontal,"(390.0, 762.0)",1.2833333333333332,0.44,1,2253.814,1,0.08,0.1
0,311,target,"[(1036, 780)]",[],[1],[0.65],vertical,"(390.0, 262.0)",0.85,0.602,1,2259.149,1,0.08,0.1
0,312,target,"[(1018, 756)]",[],[1],[0.48333333333333334],vertical,"(390.0, 262.0)",1.3666666666666667,0.447,1,2263.666,1,0.08,0.1
0,313,target,"[(1032, 747), (1025, 818)]",[],"[0, 1]",[0.16666666666666666],vertical,"(390.0, 762.0)",1.4333333333333333,0.134,0,2268.716,0,0.06,0.1
0,314,target,"[(1030, 789)]",[],[1],[0.21666666666666667],vertical,"(390.0, 762.0)",1.35,0.178,0,2275.116,0,0.06,0.1
0,315,target,"[(995, 825), (1057, 816)]",[],"[0, 1]",[0.45],vertical,"(390.0, 262.0)",1.15,0.408,1,2279.682,1,0.06,0.1
0,316,target,"[(1030, 762)]",[],[1],[0.3],vertical,"(890.0, 262.0)",1.3833333333333333,0.264,1,2293.555,1,0.06,0.1
0,317,target,"[(1049, 789)]",[],[1],[0.6166666666666667],horizontal,"(890.0, 762.0)",0.6,0.572,1,2298.552,1,0.06,0.1
0,318,target,"[(1029, 786)]",[],[1],[0.3333333333333333],horizontal,"(390.0, 762.0)",1.2666666666666666,0.296,1,2303.399,2,0.06,0.1
0,319,target,"[(1047, 786)]",[],[1],[0.5166666666666666],horizontal,"(890.0, 762.0)",0.85,0.473,1,2308.895,2,0.04,0.1
0,320,target,"[(1057, 786)]",[],[1],[0.5333333333333333],horizontal,"(390.0, 262.0)",0.45,0.489,1,2314.154,2,0.04,0.1
0,321,target,"[(1032, 755)]",[],[1],[0.5833333333333334],horizontal,"(390.0, 262.0)",0.5666666666666667,0.539,1,2318.805,2,0.04,0.1
0,322,target,"[(1025, 779)]",[],[1],[0.5333333333333333],horizontal,"(890.0, 262.0)",0.9666666666666667,0.494,1,2323.749,3,0.04,0.1
0,323,target,"[(1035, 781)]",[],[1],[0.5666666666666667],horizontal,"(890.0, 262.0)",0.85,0.524,1,2329.116,3,0.04,0.1
0,324,target,"[(1044, 790)]",[],[1],[0.13333333333333333],horizontal,"(890.0, 762.0)",1.5166666666666666,0.1,0,2334.683,0,0.04,0.1
0,325,target,"[(1021, 782)]",[],[1],[0.6333333333333333],vertical,"(890.0, 262.0)",1.0666666666666667,0.59,1,2339.687,1,0.04,0.1
0,326,target,"[(1032, 778)]",[],[1],[0.85],horizontal,"(390.0, 262.0)",0.48333333333333334,nan,0,2344.725,0,0.04,0.1
0,327,target,"[(1015, 810)]",[],[1],[0.6333333333333333],horizontal,"(890.0, 762.0)",1.1,0.588,1,2348.649,1,0.04,0.1
0,328,target,"[(1025, 795)]",[],[1],[0.6333333333333333],vertical,"(890.0, 262.0)",0.5833333333333334,0.589,1,2354.041,1,0.04,0.1
0,329,target,"[(1033, 764)]",[],[1],[0.5166666666666666],vertical,"(890.0, 262.0)",0.6333333333333333,0.489,1,2358.3,1,0.04,0.1
0,330,target,"[(1029, 766)]",[],[1],[0.45],vertical,"(890.0, 262.0)",1.2666666666666666,0.408,1,2362.591,2,0.04,0.1
0,331,target,"[(1050, 813)]",[],[1],[0.4],vertical,"(890.0, 262.0)",0.9333333333333333,0.361,1,2368.481,2,0.04,0.1
0,332,target,"[(1057, 766)]",[],[1],[0.48333333333333334],horizontal,"(890.0, 262.0)",0.55,0.455,1,2373.933,2,0.04,0.1
0,333,target,"[(1048, 799)]",[],[1],[0.6833333333333333],vertical,"(390.0, 262.0)",0.6666666666666666,0.639,1,2378.581,2,0.04,0.1
0,334,target,"[(1039, 766)]",[],[1],[0.55],vertical,"(390.0, 762.0)",0.9,0.507,1,2383.639,3,0.04,0.1
0,335,target,"[(1032, 786)]",[],[1],[0.55],vertical,"(390.0, 762.0)",0.4666666666666667,0.509,1,2389.098,3,0.04,0.1
0,336,target,"[(1038, 765)]",[],[1],[0.5333333333333333],vertical,"(890.0, 262.0)",0.9166666666666666,0.49,1,2394.515,3,0.04,0.1
0,337,target,"[(1057, 774)]",[],[1],[0.35],vertical,"(890.0, 262.0)",1.3833333333333333,0.31,1,2400.139,3,0.04,0.1
0,338,target,"[(1049, 775)]",[],[1],[0.5166666666666666],vertical,"(390.0, 262.0)",0.4666666666666667,0.477,1,2405.849,3,0.04,0.1
0,339,target,"[(1032, 777)]",[],[1],[],horizontal,"(390.0, 762.0)",,"('cti', 1.284)",0,2410.954,0,0.06,0.1
0,340,catch,"[(1044, 787)]",[],[1],[],horizontal,"(890.0, 262.0)",1.6,nan,1,2415.565,1,0.06,0.1
0,341,target,"[(1040, 782)]",[],[1],[0.6666666666666666],horizontal,"(890.0, 762.0)",0.9833333333333333,0.623,1,2420.77,1,0.06,0.1
0,342,target,"[(1038, 786)]",[],[1],[0.5],vertical,"(390.0, 762.0)",1.1666666666666667,0.452,1,2425.432,1,0.06,0.1
0,343,target,"[(1035, 777)]",[],[1],[0.5333333333333333],vertical,"(890.0, 762.0)",0.5,0.488,1,2430.824,2,0.06,0.1
0,344,catch,"[(1024, 767)]",[],[1],[],vertical,"(390.0, 262.0)",1.6,nan,1,2435.315,2,0.06,0.1
0,345,target,"[(1041, 776)]",[],[1],[0.55],horizontal,"(390.0, 262.0)",1.0666666666666667,0.511,1,2440.776,2,0.04,0.1
0,346,target,"[(1028, 796)]",[],[1],[0.65],horizontal,"(890.0, 762.0)",0.6666666666666666,0.609,1,2446.1,2,0.04,0.1
0,347,target,"[(1029, 804)]",[],[1],[0.36666666666666664],vertical,"(390.0, 762.0)",1.3833333333333333,0.329,1,2451.448,3,0.04,0.1
0,348,target,"[(1033, 772)]",[],[1],[0.6166666666666667],vertical,"(890.0, 762.0)",0.8333333333333334,0.571,1,2457.161,3,0.04,0.1
0,349,target,"[(1033, 768)]",[],[1],[0.55],vertical,"(890.0, 762.0)",1.3166666666666667,0.503,1,2462.565,3,0.04,0.1
0,350,target,"[(1029, 781)]",[],[1],[0.5333333333333333],horizontal,"(890.0, 262.0)",0.9833333333333333,0.491,1,2468.342,3,0.04,0.1
0,351,target,"[(1052, 780)]",[],[1],[0.5333333333333333],vertical,"(390.0, 262.0)",0.35,0.495,1,2473.944,3,0.04,0.1
0,352,target,"[(1029, 789)]",[],[1],[0.5166666666666666],horizontal,"(890.0, 762.0)",1.25,0.481,1,2478.916,3,0.04,0.1
0,353,target,"[(1013, 803)]",[],[1],[0.6666666666666666],vertical,"(390.0, 262.0)",0.7333333333333333,0.616,1,2484.731,3,0.02,0.1
0,354,target,"[(1029, 776)]",[],[1],[0.5333333333333333],vertical,"(890.0, 762.0)",0.8833333333333333,0.494,1,2490.5,3,0.02,0.1
0,355,target,"[(1035, 767)]",[],[1],[0.48333333333333334],vertical,"(390.0, 762.0)",1.0333333333333332,0.445,1,2496.502,3,0.02,0.1
0,356,target,"[(1033, 766)]",[],[1],[0.5333333333333333],vertical,"(390.0, 262.0)",0.5166666666666666,0.495,1,2502.475,3,0.02,0.1
0,357,target,"[(1021, 778)]",[],[1],[0.5166666666666666],horizontal,"(890.0, 762.0)",0.95,0.479,1,2507.532,3,0.02,0.1
0,358,target,"[(1032, 787)]",[],[1],[0.5666666666666667],horizontal,"(890.0, 262.0)",1.0333333333333332,0.519,1,2512.865,3,0.02,0.1
0,359,target,"[(1045, 788)]",[],[1],[0.06666666666666667],horizontal,"(390.0, 762.0)",1.45,0.037,0,2518.373,0,0.02,0.1
0,360,target,"[(1040, 795)]",[],[1],[0.4166666666666667],horizontal,"(890.0, 762.0)",1.35,0.376,1,2522.794,1,0.02,0.1
0,361,target,"[(1034, 789)]",[],[1],[0.5333333333333333],horizontal,"(390.0, 262.0)",1.0166666666666666,0.49,1,2527.945,1,0.02,0.1
0,362,target,"[(1037, 762)]",[],[1],[0.65],vertical,"(390.0, 762.0)",0.5166666666666666,0.615,1,2532.524,1,0.02,0.1
0,363,target,"[(1052, 782)]",[],[1],[0.5333333333333333],vertical,"(890.0, 762.0)",0.7,0.502,1,2536.678,2,0.02,0.1
0,364,target,"[(1037, 785)]",[],[1],[0.7333333333333333],horizontal,"(890.0, 262.0)",0.65,0.684,1,2541.899,2,0.02,0.1
0,365,target,"[(1035, 784)]",[],[1],[0.6166666666666667],vertical,"(390.0, 262.0)",0.7333333333333333,0.571,1,2546.982,2,0.02,0.1
0,366,target,"[(1045, 791)]",[],[1],[0.5833333333333334],horizontal,"(390.0, 262.0)",1.1666666666666667,0.541,1,2552.337,2,0.02,0.1
0,367,target,"[(1037, 773)]",[],[1],[0.5333333333333333],horizontal,"(390.0, 262.0)",0.7166666666666667,0.491,1,2557.731,3,0.02,0.1
0,368,target,"[(1040, 790)]",[],[1],[0.5666666666666667],vertical,"(390.0, 262.0)",0.6666666666666666,0.521,1,2563.145,3,0.02,0.1
0,369,target,"[(1045, 762)]",[],[1],[0.26666666666666666],vertical,"(390.0, 762.0)",1.3833333333333333,0.23,1,2568.254,3,0.02,0.1
0,370,target,"[(1040, 776)]",[],[1],[0.85],vertical,"(390.0, 762.0)",0.8,nan,0,2574.237,0,0.02,0.1
0,371,target,"[(1015, 773)]",[],[1],[0.55],horizontal,"(890.0, 762.0)",1.0333333333333332,0.501,1,2578.881,1,0.02,0.1
0,372,target,"[(1041, 774)]",[],[1],[0.3],horizontal,"(390.0, 762.0)",1.4166666666666667,0.264,1,2583.882,1,0.02,0.1
0,373,target,"[(1045, 752), (1033, 823)]",[],"[0, 1]",[0.6],horizontal,"(890.0, 262.0)",0.75,0.562,1,2588.806,1,0.02,0.1
0,374,target,"[(1029, 795)]",[],[1],[0.65],horizontal,"(390.0, 762.0)",0.4166666666666667,0.604,1,2594.205,2,0.02,0.1
0,375,target,"[(1041, 778)]",[],[1],[0.26666666666666666],vertical,"(390.0, 262.0)",1.2666666666666666,0.232,1,2599.27,2,0.02,0.1
0,376,target,"[(1036, 769)]",[],[1],[0.6166666666666667],horizontal,"(390.0, 762.0)",0.5166666666666666,0.575,1,2604.582,2,0.02,0.1
0,377,catch,"[(1054, 786)]",[],[1],[],horizontal,"(890.0, 262.0)",,"('cti', 1.55),nan",0,2609.423,0,0.04,0.1
0,378,target,"[(1036, 799)]",[],[1],[],horizontal,"(890.0, 762.0)",,"('cti', 1.403)",0,2614.428,0,0.06,0.1
0,379,target,"[(1041, 793)]",[],[1],[],horizontal,"(390.0, 762.0)",,"('cti', 1.429)",0,2619.266,0,0.08,0.1
0,380,target,"[(1034, 799)]",[],[1],[0.36666666666666664],horizontal,"(890.0, 262.0)",1.3333333333333333,0.327,1,2623.9,1,0.08,0.1
0,381,target,"[(1037, 763)]",[],[1],[0.45],vertical,"(390.0, 262.0)",1.4,0.408,1,2629.113,1,0.08,0.1
0,382,target,"[(1041, 791)]",[],[1],[0.5166666666666666],vertical,"(390.0, 762.0)",0.55,0.476,1,2634.149,1,0.08,0.1
0,383,target,"[(1034, 792)]",[],[1],[0.35],horizontal,"(890.0, 262.0)",1.2833333333333332,0.312,1,2638.361,2,0.08,0.1
0,384,target,"[(1040, 789)]",[],[1],[0.4166666666666667],vertical,"(890.0, 762.0)",1.2666666666666666,0.38,1,2643.933,2,0.08,0.1
0,385,target,"[(1024, 778)]",[],[1],[0.6333333333333333],horizontal,"(890.0, 762.0)",1.1833333333333333,0.587,1,2649.646,2,0.08,0.1
0,386,target,"[(1029, 807)]",[],[1],[0.48333333333333334],horizontal,"(890.0, 262.0)",1.1666666666666667,0.443,1,2655.037,2,0.08,0.1
0,387,target,"[(1038, 796)]",[],[1],[0.5],vertical,"(890.0, 262.0)",1.0,0.465,1,2660.691,3,0.08,0.1
0,388,target,"[(1032, 770)]",[],[1],[0.6666666666666666],vertical,"(390.0, 262.0)",0.8,0.621,1,2666.35,3,0.08,0.1
0,389,target,"[(1040, 789)]",[],[1],[0.5666666666666667],vertical,"(890.0, 262.0)",1.0666666666666667,0.532,1,2671.663,3,0.06,0.1
0,390,target,"[(1025, 763)]",[],[1],[0.4],horizontal,"(390.0, 262.0)",1.2,0.367,1,2677.066,3,0.06,0.1
0,391,target,"[(1021, 772)]",[],[1],[0.5833333333333334],vertical,"(390.0, 762.0)",0.4166666666666667,0.543,1,2682.884,3,0.06,0.1
0,392,target,"[(1035, 777)]",[],[1],[0.5],vertical,"(890.0, 762.0)",1.35,0.464,1,2687.542,3,0.06,0.1
0,393,target,"[(1041, 786)]",[],[1],[0.5166666666666666],horizontal,"(890.0, 762.0)",0.95,0.478,1,2693.183,3,0.06,0.1
0,394,target,"[(1047, 786)]",[],[1],[0.6],vertical,"(390.0, 762.0)",0.48333333333333334,0.554,1,2698.9,3,0.06,0.1
0,395,target,"[(1017, 767)]",[],[1],[0.5666666666666667],horizontal,"(890.0, 762.0)",0.9,0.524,1,2703.983,3,0.06,0.1
0,396,target,"[(1037, 776)]",[],[1],[0.48333333333333334],vertical,"(890.0, 762.0)",1.1666666666666667,0.44,1,2709.174,3,0.06,0.1
0,397,target,"[(1058, 769)]",[],[1],[0.5166666666666666],vertical,"(890.0, 762.0)",1.1166666666666667,0.475,1,2715.199,3,0.06,0.1
0,398,target,"[(1026, 766)]",[],[1],[0.6],horizontal,"(390.0, 262.0)",0.9,0.555,1,2720.969,3,0.06,0.1
0,399,target,"[(1033, 826)]",[],[1],[0.48333333333333334],vertical,"(390.0, 262.0)",1.5333333333333332,0.447,1,2726.333,3,0.06,0.1
0,400,target,"[(1033, 813)]",[],[1],[0.6833333333333333],horizontal,"(890.0, 262.0)",0.5166666666666666,0.634,1,2756.892,3,0.06,0.1
0,401,catch,"[(1041, 792)]",[],[1],[],vertical,"(890.0, 762.0)",1.6,nan,1,2762.018,3,0.06,0.1
0,402,target,"[(1038, 787)]",[],[1],[0.85],vertical,"(390.0, 262.0)",0.65,nan,0,2767.448,0,0.06,0.1
0,403,target,"[(1044, 793)]",[],[1],[0.5],vertical,"(890.0, 262.0)",0.7333333333333333,0.462,1,2771.748,1,0.06,0.1
0,404,target,"[(1040, 778)]",[],[1],[0.4],vertical,"(390.0, 262.0)",1.4333333333333333,0.372,1,2776.65,1,0.06,0.1
0,405,target,"[(1039, 754)]",[],[1],[0.2833333333333333],vertical,"(390.0, 762.0)",1.4333333333333333,0.248,1,2782.017,1,0.06,0.1
0,406,target,"[(1043, 789)]",[],[1],[0.4],vertical,"(390.0, 762.0)",1.3,0.361,1,2786.782,2,0.06,0.1
0,407,target,"[(1047, 773)]",[],[1],[0.3],horizontal,"(390.0, 762.0)",1.3666666666666667,0.265,1,2792.567,2,0.06,0.1
0,408,catch,"[(1042, 776)]",[],[1],[],horizontal,"(890.0, 762.0)",,"('cti', 1.528),nan",0,2797.851,0,0.08,0.1
0,409,target,"[(1033, 791)]",[],[1],[0.5666666666666667],horizontal,"(390.0, 762.0)",0.5833333333333334,0.528,1,2802.851,1,0.08,0.1
0,410,target,"[(1041, 791)]",[],[1],[0.55],vertical,"(390.0, 262.0)",0.7166666666666667,0.504,1,2807.316,1,0.08,0.1
0,411,target,"[(1034, 762)]",[],[1],[0.08333333333333333],horizontal,"(390.0, 262.0)",1.4666666666666666,0.048,0,2812.061,0,0.08,0.1
0,412,target,"[(1055, 803)]",[],[1],[0.6666666666666666],vertical,"(890.0, 762.0)",0.43333333333333335,0.62,1,2816.776,1,0.08,0.1
0,413,catch,"[(1041, 777)]",[],[1],[],horizontal,"(390.0, 762.0)",1.6,nan,1,2820.898,1,0.08,0.1
0,414,target,"[(1038, 788)]",[],[1],[0.6666666666666666],vertical,"(890.0, 762.0)",1.05,0.627,1,2825.787,1,0.08,0.1
0,415,target,"[(1022, 760)]",[],[1],[0.5666666666666667],horizontal,"(390.0, 262.0)",1.0,0.527,1,2831.113,2,0.08,0.1
0,416,target,"[(1054, 795)]",[],[1],[0.5666666666666667],horizontal,"(390.0, 262.0)",0.6833333333333333,0.53,1,2836.115,2,0.08,0.1
0,417,target,"[(1033, 792)]",[],[1],[0.35],horizontal,"(890.0, 262.0)",0.9,0.319,1,2840.965,2,0.08,0.1
0,418,target,"[(1034, 790)]",[],[1],[0.23333333333333334],vertical,"(390.0, 262.0)",1.1166666666666667,0.199,0,2846.409,0,0.08,0.1
0,419,target,"[(1017, 796)]",[],[1],[0.5166666666666666],horizontal,"(390.0, 762.0)",1.2333333333333334,0.476,1,2850.816,1,0.08,0.1
0,420,target,"[(1043, 802)]",[],[1],[0.2],horizontal,"(390.0, 762.0)",1.4833333333333334,0.167,0,2855.65,0,0.08,0.1
0,421,target,"[(1021, 796)]",[],[1],[0.5666666666666667],vertical,"(890.0, 762.0)",0.6333333333333333,0.528,1,2860.751,1,0.08,0.1
0,422,target,"[(1038, 794)]",[],[1],[0.48333333333333334],horizontal,"(890.0, 262.0)",0.7666666666666666,0.445,1,2865.404,1,0.08,0.1
0,423,target,"[(1022, 796)]",[],[1],[0.55],horizontal,"(390.0, 762.0)",0.8166666666666667,0.508,1,2870.187,1,0.08,0.1
0,424,target,"[(1033, 768)]",[],[1],[0.5833333333333334],vertical,"(890.0, 262.0)",0.35,0.54,1,2875.908,2,0.08,0.1
0,425,target,"[(1034, 772)]",[],[1],[0.5333333333333333],horizontal,"(890.0, 262.0)",1.5,0.497,1,2880.746,2,0.08,0.1
0,426,target,"[(1021, 772)]",[],[1],[0.4],horizontal,"(390.0, 762.0)",1.2,0.364,1,2886.098,2,0.08,0.1
0,427,target,"[(1054, 797)]",[],[1],[0.26666666666666666],vertical,"(390.0, 262.0)",1.2833333333333332,0.228,1,2891.424,2,0.06,0.1
0,428,target,"[(1039, 782)]",[],[1],[0.5333333333333333],vertical,"(390.0, 762.0)",0.3833333333333333,0.488,1,2897.112,3,0.04,0.1
0,429,target,"[(1038, 774)]",[],[1],[0.5],horizontal,"(390.0, 262.0)",1.0833333333333333,0.466,1,2902.12,3,0.02,0.1
0,430,target,"[(1055, 770)]",[],[1],[0.5],vertical,"(890.0, 762.0)",1.0,0.462,1,2907.409,3,0.02,0.1
0,431,target,"[(1033, 762)]",[],[1],[0.55],vertical,"(390.0, 762.0)",1.2666666666666666,0.506,1,2912.9,3,0.02,0.1
0,432,target,"[(1039, 803)]",[],[1],[0.3833333333333333],horizontal,"(390.0, 262.0)",0.9333333333333333,0.345,1,2918.651,3,0.02,0.1
0,433,target,"[(1037, 803)]",[],[1],[0.2],vertical,"(390.0, 262.0)",1.5,0.168,0,2924.535,0,0.02,0.1
0,434,target,"[(1035, 801)]",[],[1],[0.5166666666666666],vertical,"(890.0, 762.0)",0.6,0.471,1,2929.096,1,0.02,0.1
0,435,catch,"[(997, 791), (1017, 811)]",[],"[0, 1]",[],horizontal,"(890.0, 762.0)",1.6,nan,1,2933.025,1,0.02,0.1
0,436,target,"[(1021, 776)]",[],[1],[0.55],horizontal,"(890.0, 262.0)",0.8166666666666667,0.51,1,2938.833,1,0.02,0.1
0,437,target,"[(1033, 778)]",[],[1],[0.7166666666666667],horizontal,"(390.0, 762.0)",0.5,0.675,1,2943.255,2,0.02,0.1
0,438,target,"[(1043, 781)]",[],[1],[0.4166666666666667],horizontal,"(890.0, 262.0)",1.1166666666666667,0.375,1,2947.935,2,0.02,0.1
0,439,target,"[(1033, 790)]",[],[1],[0.35],vertical,"(890.0, 762.0)",1.3166666666666667,0.311,1,2953.301,2,0.02,0.1
0,440,target,"[(1028, 801)]",[],[1],[0.5666666666666667],horizontal,"(890.0, 762.0)",0.5333333333333333,0.53,1,2958.35,2,0.02,0.1
0,441,target,"[(1035, 782)]",[],[1],[0.5],horizontal,"(890.0, 262.0)",0.8333333333333334,0.458,1,2963.452,3,0.02,0.1
0,442,target,"[(1044, 777)]",[],[1],[0.25],horizontal,"(390.0, 262.0)",1.4833333333333334,0.21,1,2968.934,3,0.02,0.1
0,443,target,"[(1035, 776)]",[],[1],[0.18333333333333332],horizontal,"(890.0, 262.0)",1.45,0.149,0,2974.8,0,0.02,0.1
0,444,target,"[(1033, 785)]",[],[1],[0.3333333333333333],horizontal,"(890.0, 762.0)",1.25,0.301,1,2979.4,1,0.02,0.1
0,445,target,"[(1024, 762)]",[],[1],[0.6666666666666666],horizontal,"(390.0, 262.0)",0.6,0.622,1,2984.621,1,0.02,0.1
0,446,target,"[(1017, 763)]",[],[1],[0.5166666666666666],horizontal,"(390.0, 262.0)",0.35,0.484,1,2989.156,1,0.02,0.1
0,447,target,"[(1034, 757)]",[],[1],[0.65],horizontal,"(890.0, 262.0)",0.5833333333333334,0.604,1,2993.154,2,0.02,0.1
0,448,target,"[(1035, 790)]",[],[1],[0.36666666666666664],vertical,"(890.0, 762.0)",1.3166666666666667,0.331,1,2998.338,2,0.02,0.1
0,449,target,"[(1038, 778)]",[],[1],[0.55],vertical,"(890.0, 762.0)",1.0833333333333333,0.509,1,3003.968,2,0.02,0.1
0,450,target,"[(1036, 786)]",[],[1],[0.45],horizontal,"(390.0, 762.0)",1.3666666666666667,0.412,1,3009.326,2,0.02,0.1
0,451,catch,"[(1033, 801)]",[],[1],[],vertical,"(390.0, 762.0)",1.6,nan,1,3014.718,3,0.02,0.1
0,452,catch,"[(1036, 785)]",[],[1],[],vertical,"(390.0, 762.0)",1.6,nan,1,3020.33,3,0.02,0.1
0,453,target,"[(1026, 779)]",[],[1],[0.6333333333333333],vertical,"(890.0, 762.0)",0.8666666666666667,0.594,1,3026.151,3,0.02,0.1
0,454,target,"[(1041, 773)]",[],[1],[0.31666666666666665],vertical,"(390.0, 762.0)",1.2166666666666666,0.277,1,3031.614,3,0.02,0.1
0,455,target,"[(1033, 772)]",[],[1],[0.5666666666666667],horizontal,"(890.0, 762.0)",1.1,0.529,1,3037.486,3,0.02,0.1
0,456,target,"[(1033, 793)]",[],[1],[0.43333333333333335],vertical,"(390.0, 762.0)",1.1666666666666667,0.396,1,3043.194,3,0.02,0.1
0,457,target,"[(1057, 769)]",[],[1],[0.21666666666666667],horizontal,"(890.0, 262.0)",1.4666666666666666,0.184,0,3049.052,0,0.02,0.1
0,458,target,"[(1042, 781)]",[],[1],[0.5833333333333334],vertical,"(890.0, 762.0)",0.35,0.547,1,3053.535,1,0.0,0.1
0,459,target,"[(1034, 761)]",[],[1],[0.5666666666666667],vertical,"(390.0, 762.0)",1.25,0.53,1,3057.735,1,0.0,0.1
0,460,target,"[(1029, 778)]",[],[1],[0.2],horizontal,"(890.0, 262.0)",1.4666666666666666,0.17,0,3062.684,0,0.0,0.1
0,461,target,"[(1033, 793)]",[],[1],[0.5333333333333333],horizontal,"(390.0, 262.0)",1.3666666666666667,0.492,1,3067.212,1,0.0,0.1
0,462,target,"[(1024, 764)]",[],[1],[0.5333333333333333],horizontal,"(890.0, 762.0)",1.0166666666666666,0.5,1,3072.48,1,0.0,0.1
0,463,target,"[(1055, 783)]",[],[1],[0.85],horizontal,"(390.0, 262.0)",0.5,nan,0,3077.1,0,0.0,0.1
0,464,target,"[(1008, 795)]",[],[1],[0.5833333333333334],horizontal,"(890.0, 262.0)",0.6666666666666666,0.542,1,3081.299,1,0.0,0.1
0,465,target,"[(1045, 766)]",[],[1],[0.55],horizontal,"(890.0, 262.0)",0.9666666666666667,0.512,1,3085.853,1,0.0,0.1
0,466,target,"[(1023, 770)]",[],[1],[0.5333333333333333],vertical,"(390.0, 762.0)",1.3333333333333333,0.496,1,3090.752,1,0.0,0.1
0,467,catch,"[(1052, 776)]",[],[1],[],vertical,"(890.0, 762.0)",1.6,nan,1,3096.016,2,0.0,0.1
0,468,target,"[(1029, 777)]",[],[1],[0.4],vertical,"(390.0, 262.0)",1.1666666666666667,0.365,1,3101.424,2,0.0,0.1
0,469,target,"[(1030, 794)]",[],[1],[0.4166666666666667],horizontal,"(390.0, 762.0)",1.1833333333333333,0.374,1,3107.035,2,0.0,0.1
0,470,target,"[(1030, 776)]",[],[1],[0.36666666666666664],horizontal,"(390.0, 762.0)",1.2166666666666666,0.332,1,3112.349,2,0.0,0.1
0,471,target,"[(1040, 804)]",[],[1],[0.5],vertical,"(390.0, 262.0)",0.9666666666666667,0.459,1,3117.918,3,0.0,0.1
0,472,target,"[(1033, 793)]",[],[1],[0.5],vertical,"(390.0, 262.0)",1.1833333333333333,0.463,1,3123.451,3,0.0,0.1
0,473,target,"[(1033, 771)]",[],[1],[0.55],vertical,"(390.0, 762.0)",1.0666666666666667,0.51,1,3129.018,3,0.0,0.1
0,474,target,"[(1035, 794)]",[],[1],[0.6],horizontal,"(390.0, 262.0)",0.48333333333333334,0.553,1,3134.74,3,0.0,0.1
0,475,catch,"[(1012, 803)]",[],[1],[],horizontal,"(390.0, 262.0)",,"('cti', 0.994),nan",0,3140.29,0,0.02,0.1
0,476,target,"[(1022, 795)]",[],[1],[0.26666666666666666],horizontal,"(890.0, 262.0)",1.4,0.233,1,3151.417,1,0.02,0.1
0,477,target,"[(996, 774), (1021, 796)]",[],"[0, 1]",[0.5],horizontal,"(890.0, 262.0)",1.2333333333333334,0.461,1,3156.379,1,0.02,0.1
0,478,target,"[(1031, 773)]",[],[1],[0.6333333333333333],vertical,"(890.0, 762.0)",0.8333333333333334,0.59,1,3162.783,1,0.02,0.1
0,479,target,"[(1054, 789)]",[],[1],[0.5666666666666667],horizontal,"(390.0, 762.0)",0.5,0.528,1,3167.451,2,0.02,0.1
0,480,target,"[(1053, 802)]",[],[1],[0.65],vertical,"(390.0, 762.0)",0.9,0.608,1,3172.051,2,0.02,0.1
0,481,target,"[(1033, 763)]",[],[1],[0.6166666666666667],horizontal,"(390.0, 762.0)",0.7333333333333333,0.573,1,3177.477,2,0.02,0.1
0,482,target,"[(1057, 791)]",[],[1],[0.5833333333333334],vertical,"(390.0, 762.0)",0.55,0.545,1,3182.899,2,0.02,0.1
0,483,target,"[(1033, 769)]",[],[1],[0.7],horizontal,"(390.0, 762.0)",0.75,0.661,1,3187.827,3,0.02,0.1
0,484,target,"[(1021, 780)]",[],[1],[0.4666666666666667],horizontal,"(390.0, 262.0)",1.45,0.427,1,3193.068,3,0.02,0.1
0,485,target,"[(1021, 774)]",[],[1],[0.5333333333333333],horizontal,"(890.0, 262.0)",0.5166666666666666,0.494,1,3198.735,3,0.02,0.1
0,486,target,"[(1041, 769)]",[],[1],[0.5166666666666666],vertical,"(890.0, 262.0)",0.8833333333333333,0.481,1,3204.084,3,0.02,0.1
0,487,target,"[(1040, 777)]",[],[1],[0.5],horizontal,"(390.0, 262.0)",0.8,0.47,1,3209.467,3,0.02,0.1
0,488,target,"[(1031, 785)]",[],[1],[0.5166666666666666],vertical,"(890.0, 262.0)",0.5166666666666666,0.476,1,3215.22,3,0.02,0.1
0,489,target,"[(1037, 785)]",[],[1],[0.6166666666666667],horizontal,"(390.0, 762.0)",0.55,0.582,1,3220.202,3,0.02,0.1
0,490,catch,"[(1035, 783)]",[],[1],[],horizontal,"(390.0, 762.0)",,"('cti', 1.44),nan",0,3225.735,0,0.04,0.1
0,491,target,"[(1032, 786)]",[],[1],[0.6666666666666666],horizontal,"(890.0, 762.0)",0.9833333333333333,0.626,1,3230.58,1,0.04,0.1
0,492,target,"[(1033, 769)]",[],[1],[0.5166666666666666],vertical,"(390.0, 262.0)",0.6333333333333333,0.475,1,3235.735,1,0.04,0.1
0,493,target,"[(1056, 786)]",[],[1],[0.2],horizontal,"(390.0, 762.0)",1.45,0.17,0,3240.085,0,0.04,0.1
0,494,target,"[(1029, 788)]",[],[1],[0.5666666666666667],horizontal,"(390.0, 762.0)",0.4666666666666667,0.533,1,3244.969,1,0.04,0.1
0,495,target,"[(1033, 768)]",[],[1],[0.6],vertical,"(390.0, 262.0)",0.6666666666666666,0.559,1,3249.501,1,0.04,0.1
0,496,target,"[(1017, 765)]",[],[1],[0.6666666666666666],vertical,"(890.0, 762.0)",0.7166666666666667,0.633,1,3253.923,1,0.04,0.1
0,497,target,"[(1033, 775)]",[],[1],[0.3],horizontal,"(390.0, 762.0)",0.8166666666666667,0.267,1,3258.486,2,0.04,0.1
0,498,target,"[(1035, 778)]",[],[1],[],horizontal,"(890.0, 762.0)",,"('cti', 0.591)",0,3263.82,0,0.06,0.1
0,499,target,"[(1032, 771)]",[],[1],[0.55],horizontal,"(890.0, 762.0)",0.8833333333333333,0.512,1,3267.872,1,0.06,0.1
0,500,target,"[(1033, 779)]",[],[1],[0.6333333333333333],vertical,"(890.0, 762.0)",0.65,0.595,1,3272.969,1,0.06,0.1
0,501,target,"[(1017, 792)]",[],[1],[0.6166666666666667],horizontal,"(890.0, 762.0)",0.6166666666666667,0.577,1,3277.602,1,0.06,0.1
0,502,target,"[(1031, 794)]",[],[1],[0.3],horizontal,"(390.0, 262.0)",1.3,0.262,1,3282.303,2,0.06,0.1
0,503,catch,"[(1033, 751), (1033, 833)]",[],"[0, 1]",[],vertical,"(390.0, 762.0)",1.6,nan,1,3287.769,2,0.06,0.1
0,504,target,"[(1037, 791)]",[],[1],[0.18333333333333332],vertical,"(890.0, 762.0)",1.4166666666666667,0.147,0,3294.242,0,0.06,0.1
0,505,target,"[(1029, 778)]",[],[1],[0.85],vertical,"(390.0, 262.0)",0.9,nan,0,3299.201,0,0.06,0.1
0,506,target,"[(1000, 791), (1022, 833)]",[],"[0, 1]",[0.5333333333333333],horizontal,"(390.0, 762.0)",0.8,0.496,1,3303.718,1,0.06,0.1
0,507,target,"[(1044, 807)]",[],[1],[0.16666666666666666],horizontal,"(890.0, 762.0)",1.4666666666666666,0.133,0,3386.38,0,0.06,0.1
0,508,catch,"[(1033, 809)]",[],[1],[],vertical,"(390.0, 262.0)",1.6,nan,1,3390.901,1,0.06,0.1
0,509,catch,"[(1039, 795)]",[],[1],[],vertical,"(890.0, 762.0)",1.6,nan,1,3395.642,1,0.06,0.1
0,510,target,"[(1055, 792)]",[],[1],[0.31666666666666665],horizontal,"(890.0, 262.0)",1.4166666666666667,0.279,1,3400.318,1,0.06,0.1
0,511,catch,"[(1035, 816)]",[],[1],[],vertical,"(390.0, 262.0)",,"('cti', 1.242),nan",0,3405.496,0,0.08,0.1
0,512,target,"[(1040, 796)]",[],[1],[0.3833333333333333],horizontal,"(890.0, 262.0)",1.3666666666666667,0.343,1,3409.904,1,0.08,0.1
0,513,target,"[(1035, 773)]",[],[1],[0.5833333333333334],horizontal,"(390.0, 262.0)",1.15,0.537,1,3415.04,1,0.08,0.1
0,514,target,"[(1025, 796)]",[],[1],[0.5333333333333333],vertical,"(890.0, 762.0)",1.1833333333333333,0.491,1,3420.318,1,0.08,0.1
0,515,target,"[(1048, 796)]",[],[1],[0.6166666666666667],horizontal,"(890.0, 762.0)",0.3833333333333333,0.567,1,3425.326,2,0.08,0.1
0,516,target,"[(1054, 795)]",[],[1],[0.5833333333333334],horizontal,"(390.0, 762.0)",0.5666666666666667,0.538,1,3430.329,2,0.08,0.1
0,517,target,"[(1057, 791)]",[],[1],[0.5833333333333334],vertical,"(390.0, 762.0)",0.6666666666666666,0.535,1,3435.187,2,0.08,0.1
0,518,target,"[(1040, 765)]",[],[1],[0.35],horizontal,"(890.0, 262.0)",1.4166666666666667,0.312,1,3440.4,2,0.08,0.1
0,519,target,"[(1029, 769)]",[],[1],[0.55],vertical,"(890.0, 762.0)",0.9833333333333333,0.504,1,3446.351,3,0.08,0.1
0,520,target,"[(1038, 782)]",[],[1],[0.85],horizontal,"(390.0, 262.0)",0.6166666666666667,nan,0,3452.388,0,0.08,0.1
0,521,target,"[(1028, 796)]",[],[1],[0.31666666666666665],horizontal,"(390.0, 262.0)",1.4666666666666666,0.278,1,3456.403,1,0.08,0.1
0,522,target,"[(1042, 761)]",[],[1],[0.5166666666666666],horizontal,"(390.0, 262.0)",0.5,0.48,1,3461.668,1,0.08,0.1
0,523,target,"[(1052, 781)]",[],[1],[0.6833333333333333],vertical,"(890.0, 762.0)",0.85,0.644,1,3466.074,1,0.08,0.1
0,524,target,"[(1054, 786)]",[],[1],[0.7166666666666667],vertical,"(390.0, 262.0)",0.5166666666666666,0.669,1,3470.886,2,0.08,0.1
0,525,catch,"[(1024, 786)]",[],[1],[],vertical,"(890.0, 762.0)",1.6,nan,1,3476.324,2,0.06,0.1
0,526,target,"[(1039, 787)]",[],[1],[0.5833333333333334],horizontal,"(390.0, 762.0)",0.35,0.543,1,3481.486,2,0.06,0.1
0,527,target,"[(1044, 781)]",[],[1],[0.5833333333333334],horizontal,"(390.0, 262.0)",0.7833333333333333,0.547,1,3486.12,2,0.06,0.1
0,528,target,"[(1042, 798)]",[],[1],[0.5],vertical,"(890.0, 262.0)",0.9166666666666666,0.459,1,3491.506,3,0.06,0.1
0,529,target,"[(1041, 786)]",[],[1],[0.6333333333333333],vertical,"(890.0, 262.0)",0.7333333333333333,0.588,1,3496.852,3,0.06,0.1
0,530,target,"[(1037, 777)]",[],[1],[0.5666666666666667],vertical,"(890.0, 762.0)",0.8,0.527,1,3502.017,3,0.06,0.1
0,531,target,"[(1042, 760)]",[],[1],[0.6],horizontal,"(390.0, 762.0)",0.5833333333333334,0.557,1,3507.324,3,0.06,0.1
0,532,target,"[(1057, 795)]",[],[1],[0.5833333333333334],vertical,"(890.0, 262.0)",0.6666666666666666,0.544,1,3512.736,3,0.06,0.1
0,533,catch,"[(1045, 761)]",[],[1],[],vertical,"(890.0, 262.0)",1.6,nan,1,3518.018,3,0.06,0.1
0,534,target,"[(1040, 770)]",[],[1],[0.65],horizontal,"(890.0, 262.0)",1.1666666666666667,0.608,1,3523.684,3,0.06,0.1
0,535,target,"[(1021, 763)]",[],[1],[0.48333333333333334],vertical,"(890.0, 762.0)",1.3,0.44,1,3529.336,3,0.06,0.1
0,536,target,"[(1040, 786)]",[],[1],[0.7],vertical,"(390.0, 762.0)",0.5333333333333333,0.653,1,3535.157,3,0.06,0.1
0,537,target,"[(1037, 774)]",[],[1],[0.5833333333333334],horizontal,"(390.0, 262.0)",0.65,0.541,1,3540.505,3,0.06,0.1
0,538,target,"[(1041, 796)]",[],[1],[0.6166666666666667],vertical,"(890.0, 762.0)",1.1166666666666667,0.573,1,3545.719,3,0.06,0.1
0,539,target,"[(1038, 774)]",[],[1],[0.3333333333333333],horizontal,"(890.0, 762.0)",1.05,0.293,1,3551.853,3,0.06,0.1
0,540,target,"[(1038, 779)]",[],[1],[0.4666666666666667],vertical,"(390.0, 262.0)",1.0833333333333333,0.439,1,3557.752,3,0.04,0.1
0,541,target,"[(1021, 771)]",[],[1],[0.5666666666666667],horizontal,"(890.0, 262.0)",1.3666666666666667,0.522,1,3563.239,3,0.04,0.1
0,542,target,"[(1057, 792)]",[],[1],[0.4166666666666667],vertical,"(390.0, 262.0)",1.25,0.378,1,3569.036,3,0.04,0.1
0,543,target,"[(1036, 770)]",[],[1],[0.48333333333333334],horizontal,"(390.0, 762.0)",1.1333333333333333,0.443,1,3574.785,3,0.04,0.1
0,544,target,"[(1017, 764)]",[],[1],[0.85],horizontal,"(890.0, 762.0)",0.5333333333333333,nan,0,3580.186,0,0.04,0.1
0,545,target,"[(1021, 783)]",[],[1],[0.55],vertical,"(890.0, 762.0)",1.0,0.504,1,3584.97,1,0.04,0.1
0,546,target,"[(1062, 784)]",[],[1],[0.55],horizontal,"(890.0, 262.0)",0.55,0.508,1,3589.521,1,0.04,0.1
0,547,target,"[(1038, 780)]",[],[1],[0.5666666666666667],vertical,"(890.0, 762.0)",0.8,0.531,1,3593.937,1,0.04,0.1
0,548,target,"[(1047, 773)]",[],[1],[0.5666666666666667],vertical,"(890.0, 262.0)",0.5666666666666667,0.521,1,3598.285,2,0.02,0.1
0,549,target,"[(1054, 773)]",[],[1],[0.5666666666666667],vertical,"(390.0, 762.0)",0.5833333333333334,0.52,1,3603.519,2,0.02,0.1
0,550,target,"[(1058, 770)]",[],[1],[0.18333333333333332],vertical,"(890.0, 762.0)",1.5,0.149,0,3608.524,0,0.02,0.1
0,551,target,"[(1037, 810)]",[],[1],[0.5666666666666667],horizontal,"(890.0, 262.0)",0.8,0.523,1,3613.093,1,0.02,0.1
0,552,target,"[(1035, 790)]",[],[1],[0.5833333333333334],horizontal,"(890.0, 762.0)",0.6333333333333333,0.557,1,3617.352,1,0.02,0.1
0,553,target,"[(1041, 780)]",[],[1],[0.6166666666666667],horizontal,"(390.0, 262.0)",0.6833333333333333,0.571,1,3622.163,1,0.02,0.1
0,554,target,"[(1041, 795)]",[],[1],[0.5333333333333333],vertical,"(890.0, 762.0)",0.9666666666666667,0.49,1,3626.715,2,0.02,0.1
0,555,target,"[(1040, 791)]",[],[1],[0.7166666666666667],vertical,"(390.0, 762.0)",0.6333333333333333,0.674,1,3631.758,2,0.02,0.1
0,556,target,"[(1038, 786)]",[],[1],[0.5],vertical,"(390.0, 262.0)",1.1833333333333333,0.453,1,3636.485,2,0.02,0.1
0,557,target,"[(1036, 773)]",[],[1],[0.5666666666666667],vertical,"(390.0, 762.0)",1.0666666666666667,0.524,1,3642.127,2,0.02,0.1
0,558,target,"[(1057, 798)]",[],[1],[0.6333333333333333],horizontal,"(890.0, 762.0)",0.3833333333333333,0.585,1,3647.836,3,0.02,0.1
0,559,target,"[(1037, 792)]",[],[1],[0.5],horizontal,"(390.0, 262.0)",0.9833333333333333,0.454,1,3652.97,3,0.02,0.1
0,560,catch,"[(1044, 777)]",[],[1],[],vertical,"(890.0, 762.0)",1.6,nan,1,3658.926,3,0.02,0.1
0,561,target,"[(1045, 774)]",[],[1],[0.6166666666666667],vertical,"(890.0, 762.0)",0.8833333333333333,0.573,1,3664.337,3,0.0,0.1
0,562,target,"[(1033, 761)]",[],[1],[0.5166666666666666],vertical,"(390.0, 762.0)",0.9666666666666667,0.476,1,3669.774,3,0.0,0.1
0,563,target,"[(1037, 767)]",[],[1],[0.5166666666666666],vertical,"(390.0, 262.0)",0.7333333333333333,0.473,1,3675.184,3,0.0,0.1
0,564,target,"[(1037, 770)]",[],[1],[0.5333333333333333],vertical,"(890.0, 262.0)",1.15,0.489,1,3680.853,3,0.0,0.1
0,565,target,"[(1058, 796)]",[],[1],[0.6166666666666667],vertical,"(890.0, 262.0)",0.4666666666666667,0.57,1,3686.269,3,0.0,0.1
0,566,target,"[(1025, 793)]",[],[1],[0.5333333333333333],horizontal,"(890.0, 262.0)",0.65,0.489,1,3691.902,3,0.0,0.1
0,567,target,"[(1041, 777)]",[],[1],[0.55],horizontal,"(390.0, 262.0)",0.4666666666666667,0.504,1,3697.446,3,0.0,0.1
0,568,target,"[(1052, 773)]",[],[1],[0.5],horizontal,"(390.0, 262.0)",1.1666666666666667,0.459,1,3702.42,3,0.0,0.1
0,569,target,"[(1059, 769)]",[],[1],[0.55],vertical,"(390.0, 262.0)",1.0333333333333332,0.512,1,3708.093,3,0.0,0.1
0,570,catch,"[(1041, 782)]",[],[1],[0.03333333333333333],horizontal,"(890.0, 762.0)",1.6,"0.019,nan",0,3714.085,0,0.02,0.1
0,571,target,"[(1040, 790)]",[],[1],[0.5833333333333334],horizontal,"(890.0, 762.0)",1.1333333333333333,0.537,1,3718.877,1,0.02,0.1
0,572,target,"[(1041, 796)]",[],[1],[0.2833333333333333],horizontal,"(390.0, 762.0)",1.35,0.245,1,3724.008,1,0.02,0.1
0,573,target,"[(1021, 769)]",[],[1],[0.5],vertical,"(890.0, 262.0)",1.2,0.463,1,3729.22,1,0.02,0.1
0,574,target,"[(1041, 777)]",[],[1],[0.55],vertical,"(390.0, 262.0)",1.5166666666666666,0.505,1,3733.992,2,0.02,0.1
0,575,target,"[(1052, 775)]",[],[1],[0.18333333333333332],vertical,"(390.0, 762.0)",1.4833333333333334,0.151,0,3739.312,0,0.02,0.1
0,576,target,"[(1017, 791)]",[],[1],[0.6666666666666666],vertical,"(390.0, 262.0)",1.3,0.625,1,3744.013,1,0.02,0.1
0,577,target,"[(1075, 816)]",[],[1],[0.75],vertical,"(390.0, 262.0)",0.5166666666666666,0.697,1,3756.099,1,0.02,0.1
0,578,target,"[(1013, 832)]",[],[1],[0.55],vertical,"(390.0, 762.0)",1.3333333333333333,0.518,1,3761.289,1,0.02,0.1
0,579,target,"[(1049, 811)]",[],[1],[0.4666666666666667],vertical,"(390.0, 262.0)",1.15,0.425,1,3767.038,2,0.02,0.1
0,580,target,"[(1038, 809)]",[],[1],[0.7],vertical,"(390.0, 762.0)",0.85,0.662,1,3772.796,2,0.02,0.1
0,581,target,"[(1048, 778)]",[],[1],[0.85],vertical,"(390.0, 262.0)",1.4666666666666666,nan,0,3778.096,0,0.02,0.1
0,582,target,"[(1014, 808)]",[],[1],[0.7666666666666666],vertical,"(390.0, 262.0)",1.0166666666666666,0.717,1,3783.068,1,0.02,0.1
0,583,target,"[(1035, 782)]",[],[1],[0.5833333333333334],horizontal,"(890.0, 762.0)",1.0,0.542,1,3788.16,1,0.02,0.1
0,584,target,"[(1035, 782)]",[],[1],[0.5833333333333334],horizontal,"(390.0, 262.0)",0.5,0.543,1,3793.035,1,0.02,0.1
0,585,target,"[(1057, 797)]",[],[1],[0.4666666666666667],horizontal,"(390.0, 262.0)",1.3,0.436,1,3797.67,2,0.02,0.1
0,586,catch,"[(1040, 785)]",[],[1],[],horizontal,"(390.0, 262.0)",1.6,nan,1,3803.153,2,0.02,0.1
0,587,target,"[(1049, 779)]",[],[1],[0.6666666666666666],horizontal,"(390.0, 762.0)",0.7,0.624,1,3808.319,2,0.02,0.1
0,588,target,"[(1056, 786)]",[],[1],[0.5],horizontal,"(390.0, 762.0)",1.2833333333333332,0.455,1,3813.343,2,0.02,0.1
0,589,target,"[(1034, 801)]",[],[1],[0.5],horizontal,"(890.0, 262.0)",0.8666666666666667,0.464,1,3818.653,3,0.02,0.1
0,590,target,"[(1025, 770)]",[],[1],[0.6833333333333333],vertical,"(890.0, 762.0)",0.5833333333333334,0.638,1,3824.22,3,0.02,0.1
0,591,target,"[(1057, 776)]",[],[1],[0.65],horizontal,"(890.0, 262.0)",0.5333333333333333,0.607,1,3829.462,3,0.02,0.1
0,592,target,"[(1033, 766)]",[],[1],[0.6],vertical,"(890.0, 262.0)",0.8,0.563,1,3834.987,3,0.02,0.1
0,593,target,"[(1053, 768)]",[],[1],[0.55],vertical,"(890.0, 762.0)",0.85,0.507,1,3840.436,3,0.02,0.1
0,594,catch,"[(1057, 776)]",[],[1],[],vertical,"(890.0, 762.0)",1.6,nan,1,3845.553,3,0.02,0.1
0,595,target,"[(1024, 767)]",[],[1],[0.2833333333333333],vertical,"(890.0, 762.0)",1.35,0.245,1,3851.503,3,0.02,0.1
0,596,target,"[(1041, 752), (1011, 809)]",[],"[0, 1]",[0.4666666666666667],vertical,"(390.0, 762.0)",1.25,0.428,1,3857.47,3,0.02,0.1
0,597,target,"[(1033, 776)]",[],[1],[0.45],horizontal,"(390.0, 262.0)",0.8166666666666667,0.412,1,3865.121,3,0.02,0.1
0,598,target,"[(1048, 768)]",[],[1],[0.85],vertical,"(890.0, 762.0)",0.55,nan,0,3870.835,0,0.02,0.1
0,599,target,"[(1033, 790)]",[],[1],[0.4666666666666667],horizontal,"(390.0, 262.0)",1.2333333333333334,0.423,1,3874.953,1,0.02,0.1
0,600,target,"[(1041, 769)]",[],[1],[0.5333333333333333],horizontal,"(390.0, 262.0)",1.4333333333333333,0.492,1,3880.4,1,0.02,0.1
0,601,target,"[(1037, 773)]",[],[1],[0.65],horizontal,"(890.0, 262.0)",0.7333333333333333,0.607,1,3885.448,1,0.02,0.1
0,602,catch,"[(1050, 768)]",[],[1],[],vertical,"(390.0, 262.0)",1.6,nan,1,3890.136,2,0.02,0.1
0,603,catch,"[(1035, 785)]",[],[1],[],vertical,"(890.0, 762.0)",,"('cti', 1.567),nan",0,3895.85,0,0.04,0.1
0,604,catch,"[(1013, 837)]",[],[1],[],vertical,"(890.0, 762.0)",1.6,nan,1,3900.727,1,0.04,0.1
0,605,target,"[(997, 850), (1037, 777)]",[],"[0, 1]",[0.5833333333333334],vertical,"(390.0, 262.0)",0.9833333333333333,0.547,1,3919.036,1,0.04,0.1
0,606,target,"[(1029, 783)]",[],[1],[0.5333333333333333],horizontal,"(890.0, 762.0)",1.1,0.493,1,3925.87,1,0.04,0.1
0,607,target,"[(1037, 780)]",[],[1],[0.65],vertical,"(390.0, 762.0)",0.8166666666666667,0.603,1,3930.62,2,0.04,0.1
0,608,target,"[(1037, 778)]",[],[1],[0.7333333333333333],vertical,"(390.0, 762.0)",0.5333333333333333,0.688,1,3935.737,2,0.04,0.1
0,609,target,"[(1032, 803)]",[],[1],[0.5833333333333334],horizontal,"(390.0, 762.0)",0.4666666666666667,0.535,1,3940.47,2,0.04,0.1
0,610,target,"[(1037, 806)]",[],[1],[0.65],horizontal,"(890.0, 762.0)",0.7333333333333333,0.603,1,3945.855,2,0.04,0.1
0,611,target,"[(1033, 786)]",[],[1],[0.11666666666666667],horizontal,"(390.0, 262.0)",1.2833333333333332,0.084,0,3951.103,0,0.04,0.1
0,612,target,"[(1029, 786)]",[],[1],[0.6666666666666666],horizontal,"(390.0, 262.0)",0.6166666666666667,0.627,1,3955.787,1,0.04,0.1
0,613,target,"[(1033, 789)]",[],[1],[0.43333333333333335],vertical,"(890.0, 762.0)",1.2833333333333332,0.392,1,3960.554,1,0.04,0.1
0,614,target,"[(1033, 782)]",[],[1],[0.5166666666666666],vertical,"(890.0, 762.0)",1.05,0.47,1,3965.321,1,0.04,0.1
0,615,target,"[(1056, 785)]",[],[1],[0.11666666666666667],vertical,"(390.0, 762.0)",1.15,0.083,0,3970.303,0,0.04,0.1
0,616,target,"[(1038, 796)]",[],[1],[0.5666666666666667],vertical,"(390.0, 762.0)",0.6833333333333333,0.522,1,3974.762,1,0.04,0.1
0,617,target,"[(1034, 768)]",[],[1],[0.5833333333333334],vertical,"(890.0, 762.0)",1.1166666666666667,0.537,1,3979.486,1,0.04,0.1
0,618,target,"[(1054, 784)]",[],[1],[0.6],horizontal,"(890.0, 262.0)",0.6333333333333333,0.555,1,3984.434,1,0.04,0.1
0,619,target,"[(1034, 780)]",[],[1],[0.26666666666666666],horizontal,"(390.0, 262.0)",1.5333333333333332,0.234,1,3989.47,2,0.04,0.1
0,620,target,"[(1037, 782)]",[],[1],[],horizontal,"(390.0, 762.0)",,"('cti', 1.219)",0,3995.455,0,0.04,0.1
0,621,target,"[(1020, 786)]",[],[1],[0.5666666666666667],vertical,"(890.0, 762.0)",1.2666666666666666,0.527,1,4000.088,1,0.04,0.1
0,622,catch,"[(1037, 799)]",[],[1],[],horizontal,"(390.0, 762.0)",1.6,nan,1,4005.454,1,0.04,0.1
0,623,target,"[(1033, 777)]",[],[1],[0.5666666666666667],horizontal,"(890.0, 762.0)",0.95,0.521,1,4010.227,1,0.04,0.1
0,624,target,"[(1017, 765)]",[],[1],[0.7166666666666667],vertical,"(390.0, 262.0)",1.0,0.671,1,4015.04,2,0.04,0.1
0,625,target,"[(996, 799), (1026, 815)]",[],"[0, 1]",[0.5333333333333333],vertical,"(890.0, 262.0)",0.3833333333333333,0.501,1,4020.476,2,0.04,0.1
0,626,target,"[(1029, 814)]",[],[1],[0.43333333333333335],vertical,"(890.0, 762.0)",1.5333333333333332,0.396,1,4034.246,2,0.04,0.1
0,627,target,"[(1018, 785)]",[],[1],[0.7],vertical,"(890.0, 762.0)",0.6333333333333333,0.661,1,4039.721,2,0.04,0.1
0,628,target,"[(1037, 803)]",[],[1],[0.7],horizontal,"(390.0, 762.0)",0.7833333333333333,0.663,1,4044.672,3,0.04,0.1
0,629,target,"[(1037, 771)]",[],[1],[0.31666666666666665],horizontal,"(890.0, 262.0)",1.3666666666666667,0.281,1,4050.56,3,0.04,0.1
0,630,target,"[(1057, 796)]",[],[1],[0.1],horizontal,"(390.0, 262.0)",1.4833333333333334,0.067,0,4056.335,0,0.04,0.1
0,631,target,"[(1033, 782)]",[],[1],[0.5166666666666666],horizontal,"(890.0, 262.0)",1.2666666666666666,0.476,1,4060.554,1,0.04,0.1
0,632,target,"[(1037, 778)]",[],[1],[0.5333333333333333],vertical,"(390.0, 762.0)",0.65,0.501,1,4065.419,1,0.04,0.1
0,633,target,"[(1045, 797)]",[],[1],[0.6],vertical,"(390.0, 762.0)",1.0166666666666666,0.561,1,4070.422,1,0.04,0.1
0,634,target,"[(1021, 786)]",[],[1],[0.23333333333333334],horizontal,"(890.0, 262.0)",1.0666666666666667,0.194,0,4075.742,0,0.04,0.1
0,635,target,"[(1040, 782)]",[],[1],[0.6],vertical,"(890.0, 762.0)",0.8666666666666667,0.555,1,4080.542,1,0.04,0.1
0,636,catch,"[(1036, 766)]",[],[1],[],horizontal,"(390.0, 762.0)",1.6,nan,1,4085.541,1,0.04,0.1
0,637,target,"[(1037, 776)]",[],[1],[0.5333333333333333],horizontal,"(890.0, 262.0)",0.9833333333333333,0.497,1,4090.594,1,0.04,0.1
0,638,target,"[(1051, 798)]",[],[1],[0.6166666666666667],vertical,"(390.0, 262.0)",0.4166666666666667,0.586,1,4095.384,2,0.04,0.1
0,639,target,"[(1040, 785)]",[],[1],[0.6],horizontal,"(390.0, 762.0)",1.0333333333333332,0.552,1,4100.076,2,0.04,0.1
0,640,target,"[(1021, 796)]",[],[1],[0.55],vertical,"(890.0, 762.0)",1.1,0.509,1,4105.655,2,0.04,0.1
0,641,target,"[(1034, 803)]",[],[1],[0.55],vertical,"(390.0, 762.0)",0.45,0.506,1,4111.437,2,0.04,0.1
0,642,target,"[(1048, 794)]",[],[1],[0.85],horizontal,"(390.0, 762.0)",1.3166666666666667,nan,0,4116.23,0,0.04,0.1
0,643,target,"[(1031, 796)]",[],[1],[0.5333333333333333],vertical,"(890.0, 262.0)",1.2666666666666666,0.499,1,4120.988,1,0.04,0.1
0,644,target,"[(1019, 790)]",[],[1],[0.6166666666666667],vertical,"(890.0, 262.0)",1.0333333333333332,0.585,1,4126.156,1,0.04,0.1
0,645,catch,"[(1061, 796)]",[],[1],[],horizontal,"(390.0, 262.0)",1.6,nan,1,4131.403,1,0.04,0.1
0,646,catch,"[(1037, 791)]",[],[1],[],horizontal,"(890.0, 262.0)",1.6,nan,1,4136.83,2,0.04,0.1
0,647,target,"[(1040, 769)]",[],[1],[0.5],vertical,"(390.0, 262.0)",1.2833333333333332,0.457,1,4142.488,2,0.04,0.1
0,648,target,"[(1061, 809)]",[],[1],[0.5833333333333334],horizontal,"(890.0, 262.0)",0.4166666666666667,0.543,1,4148.025,2,0.04,0.1
0,649,target,"[(1037, 799)]",[],[1],[0.3],horizontal,"(390.0, 262.0)",1.0,0.264,1,4152.812,2,0.04,0.1
0,650,target,"[(1037, 766)]",[],[1],[0.48333333333333334],vertical,"(390.0, 262.0)",0.7,0.453,1,4158.072,3,0.04,0.1
0,651,target,"[(1033, 781)]",[],[1],[0.5666666666666667],vertical,"(890.0, 262.0)",0.55,0.524,1,4163.587,3,0.04,0.1
0,652,target,"[(1036, 765)]",[],[1],[0.45],horizontal,"(390.0, 762.0)",1.4,0.412,1,4169.161,3,0.04,0.1
0,653,target,"[(1025, 768)]",[],[1],[0.65],vertical,"(890.0, 762.0)",1.0166666666666666,0.606,1,4174.798,3,0.02,0.1
0,654,target,"[(1033, 766)]",[],[1],[0.85],horizontal,"(390.0, 262.0)",0.6666666666666666,nan,0,4180.671,0,0.02,0.1
0,655,catch,"[(1033, 796)]",[],[1],[],horizontal,"(890.0, 262.0)",1.6,nan,1,4185.355,1,0.02,0.1
0,656,target,"[(1033, 757)]",[],[1],[0.36666666666666664],horizontal,"(890.0, 262.0)",1.5166666666666666,0.327,1,4190.637,1,0.02,0.1
0,657,target,"[(1035, 791)]",[],[1],[0.6833333333333333],horizontal,"(890.0, 262.0)",0.7166666666666667,0.646,1,4195.872,1,0.02,0.1
0,658,target,"[(1036, 771)]",[],[1],[0.75],vertical,"(890.0, 762.0)",0.45,0.709,1,4201.098,2,0.02,0.1
0,659,target,"[(1042, 795)]",[],[1],[0.5833333333333334],vertical,"(890.0, 762.0)",0.6333333333333333,0.538,1,4206.354,2,0.02,0.1
0,660,target,"[(1038, 768)]",[],[1],[0.4],horizontal,"(390.0, 262.0)",1.25,0.365,1,4211.154,2,0.02,0.1
0,661,target,"[(1025, 770)]",[],[1],[0.5],horizontal,"(390.0, 262.0)",0.9833333333333333,0.47,1,4216.788,2,0.02,0.1
0,662,catch,"[(1054, 772)]",[],[1],[],vertical,"(390.0, 762.0)",1.6,nan,1,4222.205,3,0.02,0.1
0,663,target,"[(1034, 763)]",[],[1],[0.85],horizontal,"(390.0, 262.0)",0.7166666666666667,nan,0,4227.755,0,0.02,0.1
0,664,target,"[(1026, 772)]",[],[1],[0.35],horizontal,"(390.0, 262.0)",1.3833333333333333,0.311,1,4232.271,1,0.02,0.1
0,665,target,"[(1025, 772)]",[],[1],[0.7333333333333333],vertical,"(890.0, 762.0)",0.9666666666666667,0.695,1,4237.771,1,0.02,0.1
0,666,catch,"[(1037, 791)]",[],[1],[],horizontal,"(890.0, 262.0)",1.6,nan,1,4243.139,1,0.02,0.1
0,667,target,"[(1032, 793)]",[],[1],[0.6166666666666667],vertical,"(890.0, 762.0)",0.8166666666666667,0.577,1,4248.261,2,0.02,0.1
0,668,target,"[(1032, 791)]",[],[1],[0.65],vertical,"(390.0, 762.0)",0.8833333333333333,0.617,1,4253.446,2,0.02,0.1
0,669,target,"[(1041, 778)]",[],[1],[0.7333333333333333],vertical,"(890.0, 762.0)",0.6,0.695,1,4258.539,2,0.02,0.1
0,670,target,"[(1037, 768)]",[],[1],[0.3833333333333333],vertical,"(890.0, 262.0)",1.35,0.342,1,4263.504,2,0.0,0.1
0,671,catch,"[(1033, 796)]",[],[1],[],vertical,"(890.0, 762.0)",1.6,nan,1,4269.216,3,0.0,0.1
0,672,target,"[(1033, 793)]",[],[1],[0.5],horizontal,"(890.0, 262.0)",1.0,0.465,1,4274.957,3,0.0,0.1
0,673,target,"[(1033, 798)]",[],[1],[0.5333333333333333],horizontal,"(890.0, 762.0)",1.2333333333333334,0.493,1,4280.732,3,0.0,0.1
0,674,target,"[(1021, 783)]",[],[1],[0.6333333333333333],vertical,"(890.0, 762.0)",0.6166666666666667,0.592,1,4286.321,3,0.0,0.1
0,675,target,"[(1037, 778)]",[],[1],[0.7166666666666667],vertical,"(890.0, 762.0)",0.6,0.673,1,4291.609,3,0.0,0.1
0,676,target,"[(1029, 775)]",[],[1],[0.5833333333333334],vertical,"(890.0, 762.0)",0.35,0.54,1,4296.919,3,0.0,0.1
0,677,target,"[(1033, 792)]",[],[1],[0.5833333333333334],horizontal,"(890.0, 262.0)",0.75,0.553,1,4302.06,3,0.0,0.1
0,678,target,"[(1047, 771)]",[],[1],[],horizontal,"(890.0, 762.0)",,"('cti', 1.25)",0,4307.639,0,0.02,0.1
0,679,catch,"[(1038, 806)]",[],[1],[],horizontal,"(890.0, 762.0)",1.6,nan,1,4312.263,1,0.02,0.1
0,680,catch,"[(1029, 788)]",[],[1],[],horizontal,"(890.0, 262.0)",1.6,nan,1,4317.341,1,0.02,0.1
0,681,target,"[(1036, 767)]",[],[1],[0.4666666666666667],vertical,"(390.0, 762.0)",1.25,0.428,1,4322.139,1,0.02,0.1
0,682,target,"[(1030, 763)]",[],[1],[0.6166666666666667],horizontal,"(390.0, 262.0)",0.7333333333333333,0.574,1,4327.539,2,0.02,0.1
0,683,target,"[(1038, 808)]",[],[1],[0.5333333333333333],vertical,"(390.0, 262.0)",0.6833333333333333,0.492,1,4332.572,2,0.02,0.1
0,684,target,"[(1034, 794)]",[],[1],[0.5666666666666667],vertical,"(890.0, 762.0)",1.0333333333333332,0.54,1,4337.354,2,0.02,0.1
0,685,target,"[(1042, 786)]",[],[1],[0.5],horizontal,"(390.0, 262.0)",1.25,0.46,1,4342.641,2,0.02,0.1
0,686,target,"[(1055, 778)]",[],[1],[0.48333333333333334],vertical,"(390.0, 262.0)",1.25,0.441,1,4347.771,3,0.02,0.1
0,687,target,"[(1031, 777)]",[],[1],[0.65],vertical,"(890.0, 762.0)",0.7833333333333333,0.617,1,4353.401,3,0.02,0.1
0,688,target,"[(1036, 781)]",[],[1],[0.5333333333333333],vertical,"(890.0, 262.0)",0.6166666666666667,0.491,1,4358.706,3,0.02,0.1
0,689,target,"[(1024, 791)]",[],[1],[0.55],vertical,"(890.0, 262.0)",0.9333333333333333,0.509,1,4364.054,3,0.02,0.1
0,690,target,"[(1033, 805)]",[],[1],[0.6166666666666667],vertical,"(890.0, 762.0)",0.7666666666666666,0.576,1,4370.043,3,0.02,0.1
0,691,catch,"[(1023, 799)]",[],[1],[],vertical,"(890.0, 262.0)",,"('cti', 1.559),nan",0,4375.334,0,0.04,0.1
0,692,target,"[(1032, 791)]",[],[1],[0.6333333333333333],vertical,"(390.0, 262.0)",0.75,0.593,1,4380.188,1,0.04,0.1
0,693,target,"[(1032, 777)]",[],[1],[0.4666666666666667],horizontal,"(390.0, 262.0)",1.2333333333333334,0.429,1,4384.605,1,0.04,0.1
0,694,target,"[(1029, 791)]",[],[1],[0.5333333333333333],horizontal,"(390.0, 262.0)",0.9833333333333333,0.492,1,4389.603,1,0.04,0.1
0,695,catch,"[(1034, 765)]",[],[1],[],vertical,"(390.0, 762.0)",1.6,"('cti', 1.579),nan",0,4394.421,0,0.06,0.1
0,696,target,"[(1025, 819)]",[],[1],[0.6],vertical,"(390.0, 262.0)",0.48333333333333334,0.553,1,4399.071,1,0.06,0.1
0,697,target,"[(1040, 825)]",[],[1],[0.5166666666666666],vertical,"(390.0, 762.0)",0.9333333333333333,0.478,1,5527.86,1,0.06,0.1
0,698,target,"[(1034, 791)]",[],[1],[0.48333333333333334],horizontal,"(890.0, 262.0)",0.6166666666666667,0.449,1,5532.768,1,0.06,0.1
0,699,target,"[(1005, 809)]",[],[1],[0.5833333333333334],vertical,"(390.0, 762.0)",0.95,0.559,1,5536.954,2,0.06,0.1
0,700,target,"[(1037, 791)]",[],[1],[],vertical,"(390.0, 262.0)",,"('cti', 1.338)",0,5542.783,0,0.08,0.1
0,701,target,"[(1037, 791)]",[],[1],[0.35],vertical,"(390.0, 262.0)",1.4,0.31,1,5547.194,1,0.08,0.1
0,702,target,"[(1052, 790)]",[],[1],[],vertical,"(390.0, 762.0)",,"('cti', 1.362)",0,5552.564,0,0.1,0.2
0,703,target,"[(1042, 791)]",[],[1],[0.55],horizontal,"(390.0, 762.0)",1.2,0.505,1,5557.326,1,0.1,0.2
0,704,target,"[(1038, 791)]",[],[1],[0.5],horizontal,"(890.0, 762.0)",1.0,0.457,1,5561.958,1,0.1,0.2
0,705,target,"[(1049, 791)]",[],[1],[0.5833333333333334],vertical,"(890.0, 762.0)",1.0666666666666667,0.537,1,5567.009,1,0.1,0.2
0,706,target,"[(1052, 792)]",[],[1],[0.5666666666666667],vertical,"(890.0, 762.0)",0.8833333333333333,0.521,1,5571.891,2,0.1,0.2
0,707,catch,"[(1043, 790)]",[],[1],[],vertical,"(390.0, 762.0)",,"('cti', 1.487),nan",0,5576.959,0,0.12,0.2
0,708,target,"[(1036, 786)]",[],[1],[0.3833333333333333],horizontal,"(890.0, 262.0)",1.4333333333333333,0.346,1,5581.442,1,0.12,0.2
0,709,target,"[(1033, 775)]",[],[1],[0.45],vertical,"(890.0, 762.0)",1.45,0.411,1,5586.691,1,0.12,0.2
0,710,target,"[(1052, 789)]",[],[1],[0.7],horizontal,"(890.0, 262.0)",0.43333333333333335,0.661,1,5592.008,1,0.12,0.2
0,711,target,"[(1055, 790)]",[],[1],[0.5333333333333333],vertical,"(390.0, 262.0)",0.5833333333333334,0.495,1,5596.627,2,0.12,0.2
0,712,target,"[(1054, 790)]",[],[1],[0.65],vertical,"(890.0, 262.0)",0.9333333333333333,0.609,1,5601.558,2,0.12,0.2
0,713,target,"[(1017, 793)]",[],[1],[0.2],horizontal,"(390.0, 262.0)",1.3333333333333333,0.171,0,5606.841,0,0.12,0.2
0,714,catch,"[(1041, 780)]",[],[1],[],vertical,"(390.0, 262.0)",1.6,nan,1,5611.235,1,0.12,0.2
0,715,target,"[(1054, 781)]",[],[1],[0.4166666666666667],horizontal,"(390.0, 762.0)",1.2833333333333332,0.375,1,5616.293,1,0.12,0.2
0,716,catch,"[(1052, 786)]",[],[1],[],vertical,"(890.0, 762.0)",1.6,nan,1,5621.009,1,0.12,0.2
0,717,target,"[(1033, 786)]",[],[1],[0.18333333333333332],vertical,"(390.0, 262.0)",1.4333333333333333,0.151,0,5625.55,0,0.12,0.2
0,718,catch,"[(1029, 795)]",[],[1],[],vertical,"(890.0, 762.0)",1.6,nan,1,5630.109,1,0.12,0.2
0,719,target,"[(1033, 780)]",[],[1],[0.26666666666666666],vertical,"(390.0, 762.0)",1.3666666666666667,0.226,1,5635.059,1,0.12,0.2
0,720,target,"[(1053, 764)]",[],[1],[0.3],horizontal,"(390.0, 762.0)",1.4333333333333333,0.261,1,5639.859,1,0.12,0.2
0,721,catch,"[(1032, 763)]",[],[1],[],vertical,"(890.0, 762.0)",,"('cti', 1.531),nan",0,5644.472,0,0.14,0.2
0,722,target,"[(1017, 766)]",[],[1],[0.5166666666666666],vertical,"(890.0, 262.0)",0.3833333333333333,0.473,1,5649.192,1,0.14,0.2
0,723,target,"[(1052, 782)]",[],[1],[0.6],vertical,"(890.0, 262.0)",0.43333333333333335,0.558,1,5653.525,1,0.14,0.2
0,724,target,"[(1045, 775)]",[],[1],[0.3333333333333333],horizontal,"(390.0, 262.0)",1.2166666666666666,0.303,1,5657.522,1,0.14,0.2
0,725,target,"[(1034, 777)]",[],[1],[0.55],vertical,"(890.0, 762.0)",0.9333333333333333,0.515,1,5662.107,2,0.14,0.2
0,726,target,"[(1034, 768)]",[],[1],[0.5833333333333334],horizontal,"(890.0, 262.0)",0.45,0.541,1,5667.425,2,0.14,0.2
0,727,target,"[(1037, 796)]",[],[1],[0.5833333333333334],horizontal,"(390.0, 262.0)",0.36666666666666664,0.545,1,5672.142,2,0.14,0.2
0,728,target,"[(1029, 757)]",[],[1],[0.55],vertical,"(890.0, 262.0)",0.8666666666666667,0.504,1,5676.558,2,0.12,0.2
0,729,target,"[(1029, 788)]",[],[1],[0.5166666666666666],horizontal,"(390.0, 762.0)",0.7333333333333333,0.48,1,5681.492,3,0.12,0.2
0,730,target,"[(1055, 775)]",[],[1],[0.5166666666666666],horizontal,"(890.0, 762.0)",0.8666666666666667,0.478,1,5687.007,3,0.12,0.2
0,731,target,"[(1055, 781)]",[],[1],[],vertical,"(390.0, 262.0)",,"('cti', 1.473)",0,5692.552,0,0.14,0.2
0,732,target,"[(1030, 771)]",[],[1],[0.6],vertical,"(390.0, 262.0)",1.3166666666666667,0.564,1,5697.026,1,0.14,0.2
0,733,target,"[(1037, 744), (1041, 825)]",[],"[0, 1]",[0.6333333333333333],horizontal,"(890.0, 262.0)",0.4666666666666667,0.593,1,5702.076,1,0.14,0.2
0,734,target,"[(1053, 764)]",[],[1],[0.3],vertical,"(390.0, 262.0)",1.2333333333333334,0.263,1,5707.826,1,0.14,0.2
0,735,catch,"[(1036, 766)]",[],[1],[],horizontal,"(390.0, 262.0)",1.6,nan,1,5712.784,2,0.14,0.2
0,736,target,"[(1049, 768)]",[],[1],[0.5333333333333333],vertical,"(890.0, 762.0)",0.8666666666666667,0.508,1,5717.71,2,0.14,0.2
0,737,target,"[(1043, 791)]",[],[1],[0.31666666666666665],vertical,"(390.0, 262.0)",1.3333333333333333,0.28,1,5723.227,2,0.14,0.2
0,738,target,"[(1053, 774)]",[],[1],[0.5666666666666667],vertical,"(390.0, 262.0)",0.5333333333333333,0.528,1,5728.476,2,0.14,0.2
0,739,target,"[(1054, 774)]",[],[1],[0.5],horizontal,"(390.0, 762.0)",0.8833333333333333,0.46,1,5733.576,3,0.14,0.2
0,740,target,"[(1052, 787)]",[],[1],[0.5333333333333333],vertical,"(890.0, 262.0)",0.6,0.49,1,5739.21,3,0.14,0.2
0,741,catch,"[(1031, 769)]",[],[1],[],vertical,"(890.0, 762.0)",1.6,nan,1,5744.419,3,0.12,0.2
0,742,target,"[(1034, 768)]",[],[1],[0.5166666666666666],horizontal,"(390.0, 262.0)",0.8833333333333333,0.476,1,5749.934,3,0.12,0.2
0,743,target,"[(1049, 766)]",[],[1],[0.5833333333333334],vertical,"(390.0, 262.0)",0.95,0.545,1,5755.144,3,0.12,0.2
0,744,target,"[(1054, 776)]",[],[1],[0.5333333333333333],horizontal,"(890.0, 262.0)",1.1166666666666667,0.49,1,5760.424,3,0.12,0.2
0,745,catch,"[(1046, 764)]",[],[1],[],horizontal,"(890.0, 762.0)",1.6,nan,1,5765.76,3,0.1,0.2
0,746,catch,"[(1038, 779)]",[],[1],[],vertical,"(890.0, 262.0)",,"('cti', 1.539),nan",0,5771.271,0,0.12,0.2
0,747,target,"[(1040, 768)]",[],[1],[0.85],horizontal,"(390.0, 762.0)",0.8,nan,0,5775.704,0,0.12,0.2
0,748,target,"[(1014, 781)]",[],[1],[0.5],horizontal,"(390.0, 262.0)",1.45,0.457,1,5780.409,1,0.12,0.2
0,749,target,"[(1035, 777)]",[],[1],[0.3333333333333333],vertical,"(390.0, 762.0)",0.9166666666666666,0.297,1,5785.66,1,0.12,0.2
0,750,target,"[(1052, 767)]",[],[1],[0.35],horizontal,"(890.0, 762.0)",1.3833333333333333,0.312,1,5790.243,1,0.1,0.2
0,751,target,"[(1042, 762)]",[],[1],[0.6666666666666666],vertical,"(890.0, 262.0)",0.3833333333333333,0.625,1,5795.112,2,0.1,0.2
0,752,target,"[(1031, 763)]",[],[1],[0.31666666666666665],vertical,"(390.0, 262.0)",1.15,0.278,1,5799.95,2,0.08,0.1
0,753,target,"[(1041, 760)]",[],[1],[0.5833333333333334],horizontal,"(890.0, 262.0)",1.05,0.541,1,5805.282,2,0.08,0.1
0,754,target,"[(1042, 781)]",[],[1],[0.5333333333333333],horizontal,"(890.0, 262.0)",0.35,0.493,1,5810.572,2,0.08,0.1
0,755,target,"[(1057, 772)]",[],[1],[0.5],vertical,"(890.0, 262.0)",1.3166666666666667,0.461,1,5814.794,3,0.08,0.1
0,756,target,"[(1052, 765)]",[],[1],[0.55],vertical,"(390.0, 762.0)",1.05,0.503,1,5820.404,3,0.08,0.1
0,757,target,"[(1052, 755)]",[],[1],[0.13333333333333333],horizontal,"(890.0, 262.0)",1.5,0.103,0,5826.101,0,0.06,0.1
0,758,target,"[(1034, 767)]",[],[1],[0.6],horizontal,"(390.0, 262.0)",0.5,0.552,1,5830.895,1,0.06,0.1
0,759,target,"[(1030, 763)]",[],[1],[],horizontal,"(890.0, 262.0)",,"('cti', 1.159)",0,5835.315,0,0.08,0.1
0,760,target,"[(1037, 777)]",[],[1],[0.6333333333333333],horizontal,"(890.0, 262.0)",0.7333333333333333,0.59,1,5839.937,1,0.08,0.1
0,761,target,"[(1054, 758)]",[],[1],[0.55],horizontal,"(390.0, 262.0)",0.75,0.51,1,5844.777,1,0.08,0.1
0,762,target,"[(1037, 769)]",[],[1],[0.45],horizontal,"(890.0, 762.0)",1.3166666666666667,0.408,1,5849.085,1,0.08,0.1
0,763,target,"[(1050, 786)]",[],[1],[0.5],vertical,"(890.0, 262.0)",1.1666666666666667,0.457,1,5853.826,2,0.08,0.1
0,764,target,"[(1053, 760)]",[],[1],[0.6166666666666667],horizontal,"(890.0, 762.0)",0.8166666666666667,0.575,1,5859.088,2,0.08,0.1
0,765,target,"[(1052, 786)]",[],[1],[0.6333333333333333],vertical,"(890.0, 262.0)",1.0833333333333333,0.588,1,5864.006,2,0.08,0.1
0,766,target,"[(1039, 763)]",[],[1],[0.3333333333333333],horizontal,"(390.0, 262.0)",1.3333333333333333,0.301,1,5869.242,2,0.08,0.1
0,767,catch,"[(1029, 761)]",[],[1],[0.03333333333333333],vertical,"(890.0, 262.0)",1.6,"0.018,nan",0,5874.505,0,0.1,0.2
0,768,target,"[(1033, 791)]",[],[1],[0.7],vertical,"(890.0, 762.0)",0.6333333333333333,0.653,1,5879.326,1,0.1,0.2
0,769,target,"[(1037, 775)]",[],[1],[0.5666666666666667],vertical,"(390.0, 262.0)",0.8,0.52,1,5884.108,1,0.1,0.2
0,770,catch,"[(1048, 770)]",[],[1],[],horizontal,"(890.0, 762.0)",1.6,nan,1,5888.943,1,0.1,0.2
0,771,target,"[(1042, 788)]",[],[1],[0.5],horizontal,"(390.0, 262.0)",0.9833333333333333,0.457,1,5893.944,2,0.08,0.1
0,772,target,"[(1050, 780)]",[],[1],[0.6],horizontal,"(890.0, 262.0)",0.55,0.552,1,5899.226,2,0.08,0.1
0,773,target,"[(1034, 763)]",[],[1],[0.16666666666666666],horizontal,"(390.0, 762.0)",1.45,0.134,0,5904.095,0,0.08,0.1
0,774,catch,"[(1018, 758)]",[],[1],[],vertical,"(890.0, 762.0)",1.6,nan,1,5908.76,1,0.08,0.1
0,775,target,"[(1040, 764)]",[],[1],[0.4666666666666667],vertical,"(890.0, 262.0)",1.3333333333333333,0.424,1,5913.792,1,0.08,0.1
0,776,target,"[(1052, 757)]",[],[1],[0.55],vertical,"(390.0, 262.0)",1.15,0.505,1,5918.814,1,0.08,0.1
0,777,target,"[(1033, 757)]",[],[1],[0.5],vertical,"(890.0, 262.0)",1.2333333333333334,0.464,1,5923.592,2,0.08,0.1
0,778,target,"[(1024, 773)]",[],[1],[0.4666666666666667],horizontal,"(390.0, 762.0)",1.1666666666666667,0.425,1,5929.097,2,0.08,0.1
0,779,target,"[(1053, 757)]",[],[1],[0.55],horizontal,"(890.0, 262.0)",0.43333333333333335,0.512,1,5934.517,2,0.08,0.1
0,780,target,"[(1046, 767)]",[],[1],[0.5833333333333334],horizontal,"(890.0, 762.0)",1.2833333333333332,0.54,1,5939.398,2,0.08,0.1
0,781,target,"[(1035, 779)]",[],[1],[0.6666666666666666],horizontal,"(390.0, 262.0)",0.43333333333333335,0.621,1,5944.826,3,0.06,0.1
0,782,target,"[(1047, 776)]",[],[1],[],vertical,"(390.0, 762.0)",,"('cti', 0.961)",0,5950.343,0,0.08,0.1
0,783,target,"[(1030, 786)]",[],[1],[0.43333333333333335],horizontal,"(890.0, 762.0)",1.3166666666666667,0.398,1,5954.51,1,0.08,0.1
0,784,target,"[(1037, 746), (1033, 810)]",[],"[0, 1]",[0.5166666666666666],horizontal,"(890.0, 762.0)",1.3833333333333333,0.469,1,5959.294,1,0.08,0.1
0,785,target,"[(1033, 782)]",[],[1],[0.3],horizontal,"(890.0, 762.0)",1.4333333333333333,0.257,1,5965.364,1,0.08,0.1
0,786,target,"[(1035, 764)]",[],[1],[0.31666666666666665],vertical,"(890.0, 262.0)",1.35,0.278,1,5970.559,2,0.08,0.1
0,787,target,"[(1038, 816)]",[],[1],[0.5666666666666667],vertical,"(390.0, 262.0)",0.6,0.524,1,5975.7,2,0.08,0.1
0,788,target,"[(1015, 791)]",[],[1],[0.45],horizontal,"(890.0, 762.0)",1.3,0.41,1,5980.33,2,0.08,0.1
0,789,target,"[(1040, 763)]",[],[1],[0.26666666666666666],horizontal,"(890.0, 262.0)",1.3833333333333333,0.228,1,5985.542,2,0.08,0.1
0,790,target,"[(1037, 766)]",[],[1],[0.11666666666666667],vertical,"(890.0, 762.0)",1.5333333333333332,0.083,0,5991.159,0,0.08,0.1
0,791,target,"[(1029, 766)]",[],[1],[0.55],vertical,"(890.0, 762.0)",0.8833333333333333,0.507,1,5996.148,1,0.08,0.1
0,792,target,"[(1026, 791)]",[],[1],[0.6666666666666666],horizontal,"(390.0, 262.0)",1.3,0.619,1,6001.069,1,0.08,0.1
0,793,target,"[(1037, 743), (1011, 796)]",[],"[0, 1]",[0.5],vertical,"(390.0, 262.0)",0.7833333333333333,0.463,1,6006.742,1,0.08,0.1
0,794,target,"[(1049, 788)]",[],[1],[0.25],vertical,"(390.0, 262.0)",1.5333333333333332,0.21,1,6012.726,2,0.08,0.1
0,795,target,"[(1046, 762)]",[],[1],[0.35],horizontal,"(390.0, 762.0)",1.2166666666666666,0.314,1,6018.609,2,0.08,0.1
0,796,target,"[(1034, 765)]",[],[1],[0.43333333333333335],horizontal,"(890.0, 262.0)",1.4,0.392,1,6024.176,2,0.06,0.1
0,797,target,"[(997, 825), (1014, 804)]",[],"[0, 1]",[0.65],horizontal,"(890.0, 262.0)",0.5833333333333334,0.606,1,6029.468,2,0.06,0.1
0,798,catch,"[(1029, 773)]",[],[1],[],vertical,"(890.0, 762.0)",1.6,nan,1,6037.885,3,0.06,0.1
0,799,target,"[(1034, 766)]",[],[1],[0.5666666666666667],horizontal,"(390.0, 262.0)",0.7166666666666667,0.53,1,6043.526,3,0.06,0.1
0,800,target,"[(1037, 772)]",[],[1],[0.5666666666666667],vertical,"(390.0, 762.0)",0.8166666666666667,0.526,1,6048.86,3,0.06,0.1
0,801,target,"[(1031, 761)]",[],[1],[0.6666666666666666],horizontal,"(890.0, 262.0)",0.5166666666666666,0.623,1,6054.34,3,0.06,0.1
0,802,target,"[(1041, 768)]",[],[1],[0.3833333333333333],horizontal,"(390.0, 262.0)",1.3,0.341,1,6059.429,3,0.06,0.1
0,803,target,"[(1019, 766)]",[],[1],[0.6],horizontal,"(390.0, 262.0)",0.43333333333333335,0.557,1,6064.994,3,0.06,0.1
0,804,target,"[(1033, 786)]",[],[1],[0.5],horizontal,"(390.0, 262.0)",1.1666666666666667,0.453,1,6070.242,3,0.06,0.1
0,805,target,"[(1050, 770)]",[],[1],[0.5],vertical,"(890.0, 262.0)",1.1666666666666667,0.459,1,6075.604,3,0.06,0.1
0,806,target,"[(1050, 772)]",[],[1],[0.6],horizontal,"(890.0, 762.0)",0.5,0.558,1,6080.943,3,0.06,0.1
0,807,target,"[(1040, 766)]",[],[1],[],vertical,"(890.0, 762.0)",,"('cti', 1.431)",0,6086.46,0,0.08,0.1
0,808,target,"[(1009, 766)]",[],[1],[0.4666666666666667],horizontal,"(390.0, 762.0)",0.9666666666666667,0.427,1,6091.076,1,0.08,0.1
0,809,target,"[(1036, 769)]",[],[1],[0.5],vertical,"(390.0, 762.0)",0.9666666666666667,0.46,1,6095.868,1,0.06,0.1
0,810,target,"[(1041, 751), (1022, 795)]",[],"[0, 1]",[0.6666666666666666],vertical,"(890.0, 762.0)",0.45,0.621,1,6100.578,1,0.06,0.1
0,811,target,"[(1033, 756)]",[],[1],[0.35],horizontal,"(890.0, 262.0)",1.3333333333333333,0.312,1,6106.04,2,0.06,0.1
0,812,target,"[(1051, 772)]",[],[1],[0.6],horizontal,"(390.0, 262.0)",1.0166666666666666,0.557,1,6111.411,2,0.06,0.1
0,813,target,"[(1037, 759)]",[],[1],[0.26666666666666666],horizontal,"(890.0, 762.0)",1.3666666666666667,0.228,1,6116.711,2,0.06,0.1
0,814,target,"[(1033, 747), (1023, 816)]",[],"[0, 1]",[0.08333333333333333],horizontal,"(390.0, 762.0)",1.5333333333333332,0.05,0,6121.693,0,0.06,0.1
0,815,target,"[(1031, 766)]",[],[1],[0.48333333333333334],horizontal,"(390.0, 262.0)",0.7666666666666666,0.442,1,6127.678,1,0.06,0.1
0,816,target,"[(1045, 755)]",[],[1],[0.5333333333333333],vertical,"(890.0, 262.0)",0.8833333333333333,0.486,1,6132.243,1,0.06,0.1
0,817,target,"[(1045, 791)]",[],[1],[0.43333333333333335],horizontal,"(390.0, 262.0)",1.4666666666666666,0.395,1,6136.814,1,0.04,0.1
0,818,target,"[(1042, 768)]",[],[1],[0.35],horizontal,"(390.0, 262.0)",1.3833333333333333,0.311,1,6141.777,2,0.04,0.1
0,819,target,"[(1049, 770)]",[],[1],[0.5833333333333334],vertical,"(890.0, 262.0)",1.15,0.541,1,6147.27,2,0.04,0.1
0,820,target,"[(1040, 786)]",[],[1],[0.5],horizontal,"(890.0, 262.0)",0.6,0.458,1,6152.361,2,0.04,0.1
0,821,target,"[(1015, 756)]",[],[1],[0.5166666666666666],horizontal,"(890.0, 262.0)",1.0333333333333332,0.474,1,6156.943,2,0.04,0.1
0,822,target,"[(1053, 803)]",[],[1],[0.7166666666666667],horizontal,"(890.0, 762.0)",0.5333333333333333,0.679,1,6162.076,3,0.04,0.1
0,823,target,"[(1021, 752), (1025, 794)]",[],"[0, 1]",[],vertical,"(390.0, 262.0)",,"('cti', 1.242)",0,6167.708,0,0.06,0.1
0,824,target,"[(1005, 785)]",[],[1],[0.55],vertical,"(390.0, 262.0)",1.1833333333333333,0.504,1,6173.696,1,0.06,0.1
0,825,target,"[(1036, 780)]",[],[1],[0.43333333333333335],vertical,"(890.0, 262.0)",1.3166666666666667,0.391,1,6178.71,1,0.06,0.1
0,826,catch,"[(1038, 767)]",[],[1],[0.03333333333333333],vertical,"(390.0, 762.0)",1.6,"0.019,nan",0,6183.736,0,0.08,0.1
0,827,target,"[(1036, 770)]",[],[1],[0.6166666666666667],vertical,"(390.0, 262.0)",0.65,0.567,1,6188.66,1,0.08,0.1
0,828,target,"[(1021, 791)]",[],[1],[0.5],vertical,"(390.0, 762.0)",1.0,0.46,1,6193.061,1,0.08,0.1
0,829,target,"[(1022, 759)]",[],[1],[0.5833333333333334],horizontal,"(890.0, 762.0)",1.15,0.538,1,6198.494,1,0.08,0.1
0,830,target,"[(1040, 767)]",[],[1],[0.5333333333333333],vertical,"(890.0, 262.0)",1.05,0.49,1,6203.678,2,0.08,0.1
0,831,catch,"[(1038, 768)]",[],[1],[],vertical,"(890.0, 762.0)",1.6,nan,1,6209.21,2,0.08,0.1
0,832,target,"[(1050, 772)]",[],[1],[0.55],horizontal,"(890.0, 762.0)",0.85,0.51,1,6214.46,2,0.06,0.1
0,833,target,"[(1047, 755)]",[],[1],[0.15],horizontal,"(890.0, 262.0)",0.7666666666666666,0.118,0,6219.594,0,0.06,0.1
0,834,target,"[(1045, 773)]",[],[1],[0.43333333333333335],vertical,"(390.0, 762.0)",1.0666666666666667,0.395,1,6223.994,1,0.06,0.1
0,835,target,"[(1041, 794)]",[],[1],[0.5666666666666667],horizontal,"(890.0, 262.0)",0.6166666666666667,0.533,1,6228.744,1,0.06,0.1
0,836,target,"[(1016, 787)]",[],[1],[0.5333333333333333],horizontal,"(890.0, 762.0)",0.95,0.493,1,6232.855,1,0.06,0.1
0,837,target,"[(1000, 770), (1014, 799)]",[],"[0, 1]",[0.18333333333333332],vertical,"(890.0, 762.0)",1.4,0.148,0,6237.492,0,0.06,0.1
0,838,target,"[(1041, 849)]",[],[1],[0.5166666666666666],vertical,"(390.0, 262.0)",1.05,0.477,1,6243.698,1,0.06,0.1
0,839,target,"[(1037, 816)]",[],[1],[0.5833333333333334],vertical,"(390.0, 262.0)",1.0333333333333332,0.545,1,6320.021,1,0.06,0.1
0,840,target,"[(1033, 766)]",[],[1],[0.48333333333333334],vertical,"(890.0, 762.0)",1.45,0.449,1,6324.928,1,0.06,0.1
