block,trial,trial_type,taps_start_loc_during_fix,taps_end_loc_during_fix,taps_on_lever_during_fix,taps_on_lever_s_during_fix,bar_orientation,target_xy,cti,rt,acc,time,pulses,fa_rate_recent100,actual_invalid_type
0,1,valid,"[(1108, 828)]",[],[1],[0.5666666666666667],horizontal,"(390.0, 262.0)",0.5833333333333334,0.535,1,0.499,1,0.0,same
0,2,catch,"[(1160, 809)]",[],[1],[],vertical,"(390.0, 262.0)",1.7,nan,1,596.244,1,0.0,same
0,3,valid,"[(1165, 783)]",[],[1],[0.85],horizontal,"(390.0, 262.0)",0.35,nan,0,601.719,0,0.0,same
0,4,valid,"[(1136, 755)]","[(1076, 795)]",[1],[0.08333333333333333],vertical,"(890.0, 262.0)",,"('bar', 0.1)",0,605.936,0,0.0,same
0,5,valid,"[(1086, 867)]",[],[1],[0.6166666666666667],vertical,"(390.0, 262.0)",0.5,0.574,1,608.264,1,0.0,same
0,6,valid,"[(1120, 803)]",[],[1],[0.85],horizontal,"(390.0, 762.0)",0.7166666666666667,nan,0,868.188,0,0.0,same
0,7,valid,"[(1134, 794)]",[],[1],[0.5833333333333334],horizontal,"(390.0, 762.0)",1.3333333333333333,0.546,1,872.451,1,0.0,same
0,8,catch,"[(1162, 783)]",[],[1],[],horizontal,"(390.0, 262.0)",1.7,nan,1,878.914,1,0.0,same
0,9,valid,"[(1175, 804)]",[],[1],[0.6333333333333333],vertical,"(390.0, 262.0)",1.0833333333333333,0.588,1,884.48,1,0.0,same
0,10,catch,"[(1137, 774)]",[],[1],[],vertical,"(390.0, 762.0)",1.7,nan,1,889.859,2,0.0,same
0,11,catch,"[(1165, 769)]",[],[1],[],horizontal,"(890.0, 262.0)",1.7,nan,1,896.097,2,0.0,same
0,12,invalid_adjacent_other_bar,"[(1175, 805)]",[],[1],[0.55],vertical,"(890.0, 262.0)",0.8333333333333334,0.509,1,901.35,2,0.0,other
0,13,catch,"[(1180, 793)]",[],[1],[],vertical,"(390.0, 762.0)",1.7,nan,1,906.699,2,0.0,same
0,14,valid,"[(1168, 785)]",[],[1],[0.85],vertical,"(890.0, 762.0)",0.9,nan,0,912.682,0,0.0,same
0,15,valid,"[(1140, 764)]",[],[1],[0.6],vertical,"(390.0, 762.0)",0.8666666666666667,0.558,1,917.737,1,0.0,same
0,16,catch,"[(1166, 760)]",[],[1],[],horizontal,"(890.0, 762.0)",1.7,nan,1,922.494,1,0.0,same
0,17,valid,"[(1165, 804)]",[],[1],[0.48333333333333334],vertical,"(890.0, 262.0)",0.7166666666666667,0.442,1,927.799,1,0.0,same
0,18,valid,"[(1179, 793)]",[],[1],[0.5666666666666667],vertical,"(890.0, 762.0)",1.25,0.525,1,932.584,2,0.0,same
0,19,valid,"[(1180, 777)]",[],[1],[0.6833333333333333],vertical,"(390.0, 762.0)",0.8333333333333334,0.641,1,938.316,2,0.0,same
0,20,catch,"[(1166, 804)]",[],[1],[],horizontal,"(890.0, 762.0)",1.7,nan,1,943.564,2,0.0,same
0,21,valid,"[(1163, 807)]",[],[1],[0.6],vertical,"(390.0, 762.0)",1.0833333333333333,0.555,1,949.667,2,0.0,same
0,22,valid,"[(1135, 789)]",[],[1],[0.85],vertical,"(390.0, 762.0)",0.35,nan,0,955.7,0,0.0,same
0,23,valid,"[(1089, 798)]",[],[1],[0.48333333333333334],vertical,"(890.0, 262.0)",0.36666666666666664,0.44,1,959.683,1,0.0,same
0,24,valid,"[(1165, 791)]",[],[1],[0.5],vertical,"(890.0, 262.0)",0.45,0.46,1,964.466,1,0.0,same
0,25,valid,"[(1160, 790)]",[],[1],[0.48333333333333334],horizontal,"(890.0, 262.0)",1.2833333333333332,0.443,1,968.918,1,0.0,same
0,26,invalid_same_bar,"[(1168, 791)]",[],[1],[0.5],horizontal,"(890.0, 762.0)",1.0666666666666667,0.46,1,973.999,2,0.0,same
0,27,valid,"[(1170, 792)]",[],[1],[0.5333333333333333],horizontal,"(390.0, 762.0)",1.1,0.49,1,979.796,2,0.0,same
0,28,catch,"[(1158, 809)]",[],[1],[],vertical,"(890.0, 762.0)",1.7,nan,1,985.151,2,0.0,same
0,29,catch,"[(1164, 816)]",[],[1],[],horizontal,"(390.0, 762.0)",1.7,nan,1,991.394,2,0.0,same
0,30,valid,"[(1164, 825)]",[],[1],[0.48333333333333334],vertical,"(890.0, 262.0)",0.75,0.444,1,996.965,3,0.0,same
0,31,valid,"[(1169, 782)]",[],[1],[0.5666666666666667],horizontal,"(390.0, 262.0)",0.55,0.524,1,1002.314,3,0.0,same
0,32,catch,"[(1163, 797)]",[],[1],[],horizontal,"(390.0, 762.0)",1.7,nan,1,1007.517,3,0.0,same
0,33,catch,"[(1165, 777)]",[],[1],[],horizontal,"(390.0, 262.0)",1.7,nan,1,1013.433,3,0.0,same
0,34,valid,"[(1162, 786)]",[],[1],[0.5166666666666666],horizontal,"(390.0, 262.0)",0.5333333333333333,0.472,1,1019.666,3,0.0,same
0,35,valid,"[(1168, 783)]",[],[1],[0.6333333333333333],vertical,"(390.0, 762.0)",1.3,0.591,1,1024.716,3,0.0,same
0,36,catch,"[(1160, 788)]",[],[1],[],vertical,"(890.0, 762.0)",1.7,nan,1,1031.205,3,0.0,same
0,37,catch,"[(1170, 787)]",[],[1],[],vertical,"(390.0, 762.0)",1.7,nan,1,1037.233,3,0.0,same
0,38,invalid_same_bar,"[(1172, 796)]",[],[1],[0.85],vertical,"(390.0, 762.0)",1.3166666666666667,nan,0,1043.15,0,0.0,same
0,39,catch,"[(1135, 780)]",[],[1],[],horizontal,"(890.0, 262.0)",1.7,nan,1,1048.249,1,0.0,same
0,40,catch,"[(1154, 791)]",[],[1],[],horizontal,"(390.0, 762.0)",1.7,nan,1,1053.1,1,0.0,same
0,41,valid,"[(1168, 782)]",[],[1],[0.6833333333333333],vertical,"(390.0, 762.0)",0.8,0.64,1,1058.367,1,0.0,same
0,42,valid,"[(1164, 789)]",[],[1],[0.7833333333333333],horizontal,"(890.0, 762.0)",0.85,0.739,1,1063.117,2,0.0,same
0,43,valid,"[(1175, 771)]",[],[1],[0.5666666666666667],horizontal,"(890.0, 262.0)",1.05,0.53,1,1068.532,2,0.0,same
0,44,catch,"[(1169, 799)]",[],[1],[],vertical,"(390.0, 762.0)",1.7,nan,1,1073.749,2,0.0,same
0,45,valid,"[(1166, 802)]",[],[1],[0.6666666666666666],horizontal,"(390.0, 762.0)",0.9333333333333333,0.63,1,1079.97,2,0.0,same
0,46,valid,"[(1171, 786)]",[],[1],[0.7333333333333333],vertical,"(890.0, 762.0)",0.55,0.69,1,1085.969,3,0.0,same
0,47,valid,"[(1178, 794)]",[],[1],[0.6333333333333333],horizontal,"(890.0, 262.0)",0.7666666666666666,0.587,1,1091.659,3,0.0,same
0,48,valid,"[(1180, 796)]",[],[1],[0.5166666666666666],vertical,"(890.0, 762.0)",1.1666666666666667,0.482,1,1097.716,3,0.0,same
0,49,valid,"[(1164, 792)]",[],[1],[0.7166666666666667],vertical,"(890.0, 762.0)",0.6,0.671,1,1103.663,3,0.0,same
0,50,valid,"[(1157, 801)]",[],[1],[0.5333333333333333],vertical,"(890.0, 262.0)",0.6333333333333333,0.493,1,1109.316,3,0.0,same
0,51,invalid_same_bar,"[(1161, 786)]",[],[1],[0.26666666666666666],horizontal,"(890.0, 762.0)",1.4833333333333334,0.233,1,1114.764,3,0.0,same
0,52,valid,"[(1176, 796)]",[],[1],[0.5166666666666666],vertical,"(890.0, 762.0)",1.4333333333333333,0.476,1,1120.559,3,0.0,same
0,53,catch,"[(1165, 792)]",[],[1],[],horizontal,"(390.0, 762.0)",1.7,nan,1,1126.655,3,0.0,same
0,54,valid,"[(1166, 758)]",[],[1],[0.65],horizontal,"(390.0, 262.0)",1.4166666666666667,0.606,1,1132.881,3,0.0,same
0,55,invalid_adjacent_other_bar,"[(1142, 782)]",[],[1],[0.85],vertical,"(390.0, 262.0)",0.8333333333333334,nan,0,1139.45,0,0.0,other
0,56,valid,"[(1159, 797)]",[],[1],[0.5],vertical,"(390.0, 262.0)",0.6,0.455,1,1144.181,1,0.0,same
0,57,catch,"[(1165, 790)]",[],[1],[],vertical,"(390.0, 762.0)",1.7,nan,1,1148.484,1,0.0,same
0,58,valid,"[(1168, 789)]",[],[1],[0.65],vertical,"(890.0, 262.0)",0.4166666666666667,0.607,1,1153.83,1,0.0,same
0,59,valid,"[(1180, 804)]",[],[1],[0.6166666666666667],horizontal,"(890.0, 762.0)",1.1333333333333333,0.572,1,1158.65,2,0.0,same
0,60,valid,"[(1165, 794)]",[],[1],[0.55],vertical,"(890.0, 262.0)",0.43333333333333335,0.507,1,1164.482,2,0.0,same
0,61,catch,"[(1166, 795)]",[],[1],[],horizontal,"(890.0, 762.0)",1.7,nan,1,1169.758,2,0.0,same
0,62,valid,"[(1164, 809)]",[],[1],[0.55],vertical,"(890.0, 762.0)",1.25,0.508,1,1175.607,2,0.0,same
0,63,catch,"[(1160, 799)]",[],[1],[],horizontal,"(890.0, 262.0)",1.7,nan,1,1181.684,3,0.0,same
0,64,valid,"[(1163, 806)]",[],[1],[0.5333333333333333],horizontal,"(890.0, 262.0)",1.2166666666666666,0.5,1,1187.635,3,0.0,same
0,65,valid,"[(1163, 786)]",[],[1],[0.5333333333333333],vertical,"(390.0, 262.0)",1.55,0.492,1,1193.351,3,0.0,same
0,66,valid,"[(1169, 791)]",[],[1],[0.48333333333333334],vertical,"(890.0, 762.0)",1.3666666666666667,0.445,1,1199.589,3,0.0,same
0,67,catch,"[(1170, 800)]",[],[1],[],horizontal,"(890.0, 262.0)",1.7,nan,1,1205.72,3,0.0,same
0,68,valid,"[(1175, 799)]",[],[1],[0.65],horizontal,"(390.0, 762.0)",0.7666666666666666,0.618,1,1211.967,3,0.0,same
0,69,invalid_adjacent_other_bar,"[(1179, 790)]",[],[1],[0.5166666666666666],horizontal,"(390.0, 262.0)",0.4166666666666667,0.475,1,1217.934,3,0.0,other
0,70,valid,"[(1165, 802)]",[],[1],[0.6],horizontal,"(390.0, 262.0)",1.1,0.559,1,1223.132,3,0.0,same
0,71,valid,"[(1164, 786)]",[],[1],[0.5666666666666667],horizontal,"(890.0, 762.0)",0.43333333333333335,0.518,1,1229.052,3,0.0,same
0,72,valid,"[(1155, 806)]",[],[1],[0.75],vertical,"(890.0, 262.0)",0.6166666666666667,0.703,1,1234.188,3,0.0,same
0,73,catch,"[(1172, 778)]",[],[1],[],horizontal,"(390.0, 762.0)",1.7,nan,1,1240.365,3,0.0,same
0,74,valid,"[(1168, 777)]",[],[1],[0.6],horizontal,"(390.0, 762.0)",0.36666666666666664,0.555,1,1246.74,3,0.0,same
0,75,catch,"[(1180, 791)]",[],[1],[],horizontal,"(890.0, 262.0)",1.7,nan,1,1252.333,3,0.0,same
0,76,valid,"[(1152, 790)]",[],[1],[0.5833333333333334],vertical,"(390.0, 262.0)",0.9833333333333333,0.545,1,1258.117,3,0.0,same
0,77,valid,"[(1180, 792)]",[],[1],[0.7],vertical,"(890.0, 262.0)",0.5333333333333333,0.652,1,1263.947,3,0.0,same
0,78,valid,"[(1166, 808)]",[],[1],[0.48333333333333334],horizontal,"(890.0, 262.0)",1.3166666666666667,0.444,1,1269.477,3,0.0,same
0,79,valid,"[(1170, 802)]",[],[1],[0.5666666666666667],vertical,"(390.0, 262.0)",0.85,0.526,1,1275.967,3,0.0,same
0,80,valid,"[(1165, 775)]",[],[1],[0.5833333333333334],horizontal,"(390.0, 262.0)",0.5833333333333334,0.541,1,1281.785,3,0.0,same
0,81,valid,"[(1168, 777)]",[],[1],[0.65],vertical,"(890.0, 262.0)",0.7166666666666667,0.607,1,1287.101,3,0.0,same
0,82,valid,"[(1162, 784)]",[],[1],[0.5166666666666666],vertical,"(890.0, 762.0)",0.85,0.475,1,1292.934,3,0.0,same
0,83,valid,"[(1133, 778)]",[],[1],[0.5666666666666667],horizontal,"(390.0, 262.0)",1.3333333333333333,0.521,1,1299.021,3,0.0,same
0,84,valid,"[(1167, 785)]",[],[1],[0.5],horizontal,"(890.0, 762.0)",0.5166666666666666,0.458,1,1305.343,3,0.0,same
0,85,valid,"[(1175, 817)]",[],[1],[0.85],horizontal,"(390.0, 762.0)",0.8833333333333333,nan,0,1310.852,0,0.0,same
0,86,valid,"[(1125, 791)]",[],[1],[0.5666666666666667],horizontal,"(390.0, 762.0)",1.1666666666666667,0.529,1,1315.634,1,0.0,same
0,87,catch,"[(1165, 785)]",[],[1],[],horizontal,"(390.0, 262.0)",1.7,nan,1,1320.75,1,0.0,same
0,88,valid,"[(1163, 791)]",[],[1],[0.5333333333333333],vertical,"(890.0, 762.0)",1.2833333333333332,0.492,1,1325.717,1,0.0,same
0,89,catch,"[(1173, 785)]",[],[1],[],vertical,"(890.0, 262.0)",1.7,nan,1,1331.491,2,0.0,same
0,90,valid,"[(1175, 796)]",[],[1],[0.6333333333333333],vertical,"(890.0, 762.0)",0.7166666666666667,0.593,1,1337.467,2,0.0,same
0,91,catch,"[(1165, 790)]",[],[1],[],horizontal,"(890.0, 262.0)",1.7,nan,1,1342.75,2,0.0,same
0,92,valid,"[(1160, 802)]",[],[1],[0.4666666666666667],vertical,"(890.0, 262.0)",0.9,0.426,1,1348.379,2,0.0,same
0,93,valid,"[(1170, 803)]",[],[1],[0.6166666666666667],horizontal,"(390.0, 762.0)",0.3833333333333333,0.572,1,1353.73,3,0.0,same
0,94,catch,"[(1165, 782)]",[],[1],[],vertical,"(390.0, 262.0)",1.7,nan,1,1359.573,3,0.0,same
0,95,valid,"[(1175, 794)]",[],[1],[0.6666666666666666],horizontal,"(390.0, 262.0)",0.6,0.624,1,1365.458,3,0.0,same
0,96,valid,"[(1168, 782)]",[],[1],[0.5333333333333333],horizontal,"(390.0, 762.0)",1.3333333333333333,0.488,1,1371.355,3,0.0,same
0,97,valid,"[(1165, 812)]",[],[1],[0.5166666666666666],horizontal,"(890.0, 262.0)",1.2666666666666666,0.48,1,1377.59,3,0.0,same
0,98,valid,"[(1163, 786)]",[],[1],[0.6166666666666667],horizontal,"(390.0, 762.0)",1.1,0.574,1,1384.182,3,0.0,same
0,99,valid,"[(1165, 800)]",[],[1],[0.7166666666666667],vertical,"(390.0, 762.0)",0.9833333333333333,0.672,1,1389.917,3,0.0,same
0,100,valid,"[(1165, 786)]",[],[1],[0.7666666666666666],vertical,"(390.0, 762.0)",1.3333333333333333,0.719,1,1395.796,3,0.0,same
0,101,valid,"[(1158, 816)]",[],[1],[0.5166666666666666],horizontal,"(890.0, 762.0)",0.7833333333333333,0.479,1,1402.413,3,0.0,same
0,102,valid,"[(1131, 809)]",[],[1],[0.85],vertical,"(890.0, 262.0)",1.15,nan,0,1409.018,0,0.0,same
0,103,valid,"[(1131, 775)]",[],[1],[0.85],horizontal,"(890.0, 762.0)",1.15,nan,0,1413.759,0,0.0,same
0,104,valid,"[(1132, 797)]",[],[1],[0.7166666666666667],horizontal,"(890.0, 262.0)",0.6333333333333333,0.671,1,1419.305,1,0.0,same
0,105,catch,"[(1165, 811)]",[],[1],[],vertical,"(890.0, 762.0)",1.7,nan,1,1424.45,1,0.0,same
0,106,catch,"[(1166, 802)]",[],[1],[],vertical,"(890.0, 262.0)",1.7,nan,1,1429.73,1,0.0,same
0,107,catch,"[(1167, 771)]",[],[1],[],vertical,"(390.0, 262.0)",1.7,nan,1,1435.101,2,0.0,same
0,108,catch,"[(1190, 796)]",[],[1],[],horizontal,"(390.0, 262.0)",1.7,nan,1,1440.9,2,0.0,same
0,109,invalid_same_bar,"[(1165, 793)]",[],[1],[0.7166666666666667],horizontal,"(890.0, 762.0)",1.0166666666666666,0.671,1,1446.768,2,0.0,same
0,110,valid,"[(1170, 795)]",[],[1],[0.5833333333333334],vertical,"(390.0, 262.0)",0.6333333333333333,0.539,1,1452.255,2,0.0,same
0,111,valid,"[(1170, 778)]",[],[1],[0.5666666666666667],horizontal,"(390.0, 262.0)",0.43333333333333335,0.524,1,1457.602,3,0.0,same
0,112,catch,"[(1180, 791)]",[],[1],[],vertical,"(890.0, 262.0)",1.7,nan,1,1462.638,3,0.0,same
0,113,valid,"[(1165, 782)]",[],[1],[0.85],vertical,"(390.0, 762.0)",0.4166666666666667,nan,0,1468.751,0,0.0,same
0,114,valid,"[(1135, 826)]",[],[1],[0.6333333333333333],horizontal,"(390.0, 762.0)",0.5833333333333334,0.586,1,1472.99,1,0.0,same
0,115,valid,"[(1170, 784)]",[],[1],[0.85],vertical,"(390.0, 762.0)",0.9166666666666666,nan,0,1481.286,0,0.0,same
0,116,valid,"[(1160, 792)]",[],[1],[0.6833333333333333],vertical,"(390.0, 762.0)",1.4333333333333333,0.637,1,1485.871,1,0.0,same
0,117,valid,"[(1184, 782)]",[],[1],[0.65],horizontal,"(390.0, 762.0)",1.25,0.602,1,1491.894,1,0.0,same
0,118,valid,"[(1163, 782)]",[],[1],[0.55],vertical,"(890.0, 762.0)",0.5666666666666667,0.515,1,1496.908,1,0.0,same
0,119,catch,"[(1161, 807)]",[],[1],[],horizontal,"(890.0, 762.0)",1.7,nan,1,1501.484,2,0.0,same
0,120,valid,"[(1169, 787)]",[],[1],[0.6166666666666667],vertical,"(390.0, 762.0)",0.35,0.574,1,1507.465,2,0.0,same
0,121,valid,"[(1175, 782)]",[],[1],[0.5833333333333334],horizontal,"(390.0, 262.0)",1.2,0.544,1,1512.372,2,0.0,same
0,122,invalid_same_bar,"[(1160, 787)]",[],[1],[0.6],vertical,"(890.0, 762.0)",1.4666666666666666,0.557,1,1518.551,2,0.0,same
0,123,valid,"[(1175, 802)]",[],[1],[0.5],vertical,"(890.0, 762.0)",1.1,0.461,1,1524.441,3,0.0,same
0,124,valid,"[(1168, 770)]",[],[1],[0.48333333333333334],horizontal,"(890.0, 762.0)",0.4,0.442,1,1530.634,3,0.0,same
0,125,valid,"[(1190, 786)]",[],[1],[0.85],vertical,"(890.0, 262.0)",0.7,nan,0,1535.752,0,0.0,same
0,126,catch,"[(1148, 795)]",[],[1],[],vertical,"(390.0, 262.0)",1.7,nan,1,1540.335,1,0.0,same
0,127,invalid_adjacent_other_bar,"[(1135, 791)]",[],[1],[0.5],vertical,"(890.0, 262.0)",1.3833333333333333,0.46,1,1545.401,1,0.0,other
0,128,valid,"[(1165, 798)]",[],[1],[0.5666666666666667],vertical,"(890.0, 762.0)",1.25,0.523,1,1550.867,1,0.0,same
0,129,catch,"[(1175, 798)]",[],[1],[],horizontal,"(890.0, 262.0)",1.7,nan,1,1556.152,2,0.0,same
0,130,catch,"[(1178, 783)]",[],[1],[],vertical,"(390.0, 762.0)",1.7,nan,1,1561.79,2,0.0,same
0,131,catch,"[(1170, 792)]",[],[1],[],vertical,"(890.0, 762.0)",1.7,nan,1,1567.285,2,0.0,same
0,132,valid,"[(1170, 794)]",[],[1],[0.5666666666666667],horizontal,"(890.0, 262.0)",0.7666666666666666,0.521,1,1573.061,2,0.0,same
0,133,valid,"[(1174, 809)]",[],[1],[0.6333333333333333],horizontal,"(390.0, 762.0)",1.2,0.588,1,1578.801,3,0.0,same
0,134,valid,"[(1170, 817)]",[],[1],[0.6166666666666667],vertical,"(390.0, 262.0)",1.0,0.58,1,1584.885,3,0.0,same
0,135,invalid_same_bar,"[(1170, 789)]",[],[1],[0.5],vertical,"(390.0, 262.0)",0.7666666666666666,0.459,1,1591.102,3,0.0,same
0,136,valid,"[(1165, 782)]",[],[1],[0.6666666666666666],vertical,"(890.0, 762.0)",1.3666666666666667,0.621,1,1596.333,3,0.0,same
0,137,valid,"[(1180, 784)]",[],[1],[0.5333333333333333],vertical,"(390.0, 762.0)",0.8,0.49,1,1602.235,3,0.0,same
0,138,invalid_same_bar,"[(1165, 790)]",[],[1],[0.5166666666666666],horizontal,"(390.0, 262.0)",0.9,0.473,1,1608.093,3,0.0,same
0,139,valid,"[(1170, 791)]",[],[1],[0.6666666666666666],vertical,"(890.0, 762.0)",0.8833333333333333,0.621,1,1614.2,3,0.0,same
0,140,catch,"[(1178, 803)]",[],[1],[],horizontal,"(390.0, 762.0)",1.7,nan,1,1619.969,3,0.0,same
0,141,valid,"[(1168, 782)]",[],[1],[0.5833333333333334],vertical,"(890.0, 762.0)",0.6333333333333333,0.542,1,1626.203,3,0.0,same
0,142,catch,"[(1168, 772)]",[],[1],[],vertical,"(390.0, 262.0)",1.7,nan,1,1631.519,3,0.0,same
0,143,catch,"[(1158, 793)]",[],[1],[],horizontal,"(390.0, 262.0)",1.7,nan,1,1637.118,3,0.0,same
0,144,catch,"[(1174, 791)]",[],[1],[],vertical,"(390.0, 762.0)",1.7,nan,1,1643.123,3,0.0,same
0,145,valid,"[(1145, 795)]",[],[1],[0.7333333333333333],horizontal,"(390.0, 762.0)",0.9,0.687,1,1649.468,3,0.0,same
0,146,invalid_adjacent_other_bar,"[(1174, 791)]",[],[1],[0.55],horizontal,"(890.0, 262.0)",1.2333333333333334,0.509,1,1655.341,3,0.0,other
0,147,invalid_same_bar,"[(1162, 791)]",[],[1],[0.55],vertical,"(890.0, 762.0)",0.8666666666666667,0.512,1,1661.573,3,0.0,same
0,148,valid,"[(1156, 785)]",[],[1],[0.85],vertical,"(390.0, 762.0)",1.4166666666666667,nan,0,1667.485,0,0.0,same
0,149,catch,"[(1145, 811)]",[],[1],[],vertical,"(890.0, 262.0)",1.7,nan,1,1672.686,1,0.0,same
0,150,valid,"[(1138, 772)]",[],[1],[0.85],vertical,"(390.0, 262.0)",1.4166666666666667,nan,0,1677.655,0,0.0,same
0,151,catch,"[(1131, 796)]",[],[1],[],vertical,"(890.0, 762.0)",1.7,nan,1,1682.97,1,0.0,same
0,152,valid,"[(1160, 795)]",[],[1],[0.6],vertical,"(890.0, 262.0)",1.35,0.563,1,1688.661,1,0.0,same
0,153,valid,"[(1155, 787)]",[],[1],[0.5],horizontal,"(890.0, 262.0)",0.7166666666666667,0.457,1,1694.467,1,0.0,same
0,154,valid,"[(1154, 791)]",[],[1],[0.6],horizontal,"(890.0, 262.0)",0.75,0.56,1,1699.189,2,0.0,same
0,155,valid,"[(1148, 784)]",[],[1],[0.5666666666666667],vertical,"(890.0, 762.0)",1.0833333333333333,0.521,1,1704.432,2,0.0,same
0,156,valid,"[(1164, 788)]",[],[1],[0.65],horizontal,"(890.0, 762.0)",1.15,0.606,1,1709.645,2,0.0,same
0,157,valid,"[(1175, 804)]",[],[1],[0.5166666666666666],vertical,"(390.0, 262.0)",0.5,0.478,1,1715.221,2,0.0,same
0,158,valid,"[(1165, 816)]",[],[1],[0.5166666666666666],vertical,"(390.0, 262.0)",1.2833333333333332,0.478,1,1720.3,3,0.0,same
0,159,valid,"[(1175, 809)]",[],[1],[0.5166666666666666],horizontal,"(890.0, 262.0)",1.4,0.472,1,1726.882,3,0.0,same
0,160,valid,"[(1175, 806)]",[],[1],[0.85],horizontal,"(890.0, 762.0)",0.3833333333333333,nan,0,1733.08,0,0.0,same
0,161,valid,"[(1145, 781)]",[],[1],[0.85],vertical,"(390.0, 762.0)",0.9833333333333333,nan,0,1737.496,0,0.0,same
0,162,valid,"[(1128, 786)]",[],[1],[0.55],horizontal,"(390.0, 262.0)",1.3,0.509,1,1742.351,1,0.0,same
0,163,invalid_same_bar,"[(1165, 781)]",[],[1],[0.85],horizontal,"(390.0, 762.0)",1.2,nan,0,1747.93,0,0.0,same
0,164,valid,"[(1123, 825)]",[],[1],[0.5333333333333333],horizontal,"(890.0, 762.0)",0.9166666666666666,0.492,1,1753.015,1,0.0,same
0,165,invalid_adjacent_other_bar,"[(1157, 794)]",[],[1],[0.85],horizontal,"(390.0, 762.0)",0.6166666666666667,nan,0,2341.421,0,0.0,other
0,166,valid,"[(1153, 799)]",[],[1],[0.85],horizontal,"(390.0, 262.0)",0.65,nan,0,2346.063,0,0.0,same
0,167,valid,"[(1127, 820)]",[],[1],[0.5166666666666666],horizontal,"(390.0, 262.0)",0.9333333333333333,0.473,1,2350.822,1,0.0,same
0,168,invalid_same_bar,"[(1165, 795)]",[],[1],[0.55],vertical,"(890.0, 762.0)",1.4333333333333333,0.507,1,2355.588,1,0.0,same
0,169,valid,"[(1168, 792)]",[],[1],[0.7],horizontal,"(890.0, 262.0)",0.5,0.655,1,2360.988,1,0.0,same
0,170,invalid_same_bar,"[(1166, 781)]",[],[1],[0.55],horizontal,"(890.0, 262.0)",1.0833333333333333,0.512,1,2366.104,2,0.0,same
0,171,invalid_adjacent_other_bar,"[(1179, 792)]",[],[1],[0.5],horizontal,"(390.0, 262.0)",0.4,0.469,1,2371.722,2,0.0,other
0,172,valid,"[(1169, 791)]",[],[1],[],horizontal,"(390.0, 762.0)",,"('cti', 0.57)",0,2376.488,0,0.0,same
0,173,valid,"[(1137, 786)]",[],[1],[0.65],vertical,"(390.0, 762.0)",1.4666666666666666,0.614,1,2380.454,1,0.0,same
0,174,valid,"[(1193, 785)]",[],[1],[0.5333333333333333],vertical,"(890.0, 762.0)",1.05,0.49,1,2386.315,1,0.0,same
0,175,invalid_same_bar,"[(1170, 783)]",[],[1],[0.85],horizontal,"(390.0, 262.0)",0.6333333333333333,nan,0,2391.448,0,0.0,same
0,176,valid,"[(1136, 787)]",[],[1],[0.85],vertical,"(390.0, 762.0)",1.5,nan,0,2396.137,0,0.0,same
0,177,valid,"[(1121, 798)]",[],[1],[0.85],vertical,"(890.0, 262.0)",0.6,nan,0,2401.299,0,0.0,same
0,178,catch,"[(1112, 780)]",[],[1],[],vertical,"(390.0, 262.0)",1.7,nan,1,2406.121,1,0.0,same
0,179,valid,"[(1169, 799)]",[],[1],[0.85],vertical,"(390.0, 762.0)",0.65,nan,0,2410.906,0,0.0,same
0,180,valid,"[(1091, 790)]",[],[1],[0.85],vertical,"(390.0, 762.0)",1.3,nan,0,2415.739,0,0.0,same
0,181,valid,"[(1130, 782)]",[],[1],[0.5333333333333333],horizontal,"(890.0, 762.0)",0.85,0.494,1,2421.139,1,0.0,same
0,182,valid,"[(1177, 796)]",[],[1],[0.6333333333333333],vertical,"(890.0, 262.0)",1.3,0.593,1,2425.921,1,0.0,same
0,183,valid,"[(1161, 797)]",[],[1],[0.85],vertical,"(390.0, 262.0)",0.9666666666666667,nan,0,2431.353,0,0.0,same
0,184,valid,"[(1127, 762)]",[],[1],[0.6],vertical,"(390.0, 262.0)",0.6333333333333333,0.559,1,2436.403,1,0.0,same
0,185,catch,"[(1160, 774)]",[],[1],[],horizontal,"(890.0, 762.0)",1.7,nan,1,2440.92,1,0.0,same
0,186,valid,"[(1160, 769)]",[],[1],[0.85],horizontal,"(390.0, 262.0)",0.48333333333333334,nan,0,2446.306,0,0.0,same
0,187,valid,"[(1092, 853)]",[],[1],[0.5166666666666666],vertical,"(890.0, 262.0)",1.3666666666666667,0.478,1,2450.756,1,0.0,same
0,188,catch,"[(1146, 781)]",[],[1],[],horizontal,"(890.0, 262.0)",1.7,nan,1,2461.116,1,0.0,same
0,189,valid,"[(1164, 774)]",[],[1],[0.5333333333333333],horizontal,"(890.0, 262.0)",1.2833333333333332,0.49,1,2466.088,1,0.0,same
0,190,valid,"[(1143, 762)]",[],[1],[0.6],vertical,"(890.0, 762.0)",0.4666666666666667,0.558,1,2471.444,2,0.0,same
0,191,valid,"[(1165, 791)]",[],[1],[0.7666666666666666],horizontal,"(890.0, 762.0)",0.8,0.719,1,2476.49,2,0.0,same
0,192,invalid_same_bar,"[(1168, 782)]",[],[1],[0.55],horizontal,"(890.0, 262.0)",1.25,0.504,1,2482.088,2,0.0,same
0,193,valid,"[(1158, 799)]",[],[1],[0.5333333333333333],vertical,"(890.0, 762.0)",1.2333333333333334,0.493,1,2487.938,2,0.0,same
0,194,valid,"[(1158, 803)]",[],[1],[0.85],vertical,"(390.0, 762.0)",0.5166666666666666,nan,0,2493.687,0,0.0,same
0,195,catch,"[(1090, 769)]",[],[1],[],horizontal,"(890.0, 262.0)",1.7,nan,1,2498.447,1,0.0,same
0,196,valid,"[(1167, 795)]",[],[1],[0.45],horizontal,"(890.0, 762.0)",1.45,0.412,1,2503.597,1,0.0,same
0,197,invalid_adjacent_other_bar,"[(1158, 772)]",[],[1],[0.5666666666666667],horizontal,"(390.0, 762.0)",1.25,0.521,1,2509.188,1,0.0,other
0,198,valid,"[(1162, 792)]",[],[1],[0.65],horizontal,"(890.0, 762.0)",0.4166666666666667,0.606,1,2514.623,2,0.0,same
0,199,valid,"[(1175, 786)]",[],[1],[0.55],horizontal,"(890.0, 262.0)",0.5833333333333334,0.507,1,2519.372,2,0.0,same
0,200,valid,"[(1130, 822)]",[],[1],[0.6166666666666667],horizontal,"(890.0, 262.0)",0.6,0.572,1,2524.489,2,0.0,same
0,201,catch,"[(1169, 808)]",[],[1],[],vertical,"(890.0, 262.0)",1.7,nan,1,2529.589,2,0.0,same
0,202,invalid_adjacent_other_bar,"[(1170, 781)]",[],[1],[0.5],horizontal,"(390.0, 262.0)",0.4,0.46,1,2535.023,3,0.0,other
0,203,valid,"[(1167, 793)]",[],[1],[0.5],vertical,"(890.0, 262.0)",1.1666666666666667,0.466,1,2540.288,3,0.0,same
0,204,valid,"[(1175, 767)]",[],[1],[0.5],vertical,"(390.0, 262.0)",0.6833333333333333,0.457,1,2546.139,3,0.0,same
0,205,valid,"[(1162, 790)]",[],[1],[],horizontal,"(890.0, 762.0)",,"('cti', 1.124)",0,2551.668,0,0.0,same
0,206,invalid_same_bar,"[(1130, 782)]",[],[1],[0.85],vertical,"(890.0, 262.0)",1.3333333333333333,nan,0,2555.746,0,0.0,same
0,207,valid,"[(1115, 796)]",[],[1],[0.6666666666666666],horizontal,"(890.0, 762.0)",0.4,0.617,1,2560.838,1,0.0,same
0,208,valid,"[(1138, 801)]",[],[1],[0.85],horizontal,"(390.0, 762.0)",0.9,nan,0,2565.114,0,0.0,same
0,209,catch,"[(1086, 759)]",[],[1],[],vertical,"(890.0, 762.0)",1.7,nan,1,2569.699,1,0.0,same
0,210,valid,"[(1121, 811)]",[],[1],[0.5166666666666666],vertical,"(890.0, 762.0)",0.8333333333333334,0.477,1,2575.995,1,0.0,same
0,211,valid,"[(1109, 828)]",[],[1],[0.5],horizontal,"(390.0, 262.0)",0.5833333333333334,0.456,1,2581.233,1,0.0,same
0,212,valid,"[(1136, 790)]",[],[1],[0.85],vertical,"(390.0, 262.0)",0.8333333333333334,nan,0,2586.288,0,0.0,same
0,213,catch,"[(1150, 790)]",[],[1],[],vertical,"(890.0, 262.0)",1.7,nan,1,2591.158,1,0.0,same
0,214,valid,"[(1164, 785)]",[],[1],[0.5],vertical,"(390.0, 762.0)",0.3833333333333333,0.459,1,2596.387,1,0.0,same
0,215,invalid_adjacent_other_bar,"[(1170, 793)]",[],[1],[0.85],horizontal,"(390.0, 762.0)",0.5333333333333333,nan,0,2600.45,0,0.0,other
0,216,valid,"[(1126, 770)]",[],[1],[0.48333333333333334],horizontal,"(890.0, 262.0)",1.3666666666666667,0.438,1,2604.978,1,0.0,same
0,217,valid,"[(1170, 782)]",[],[1],[0.6833333333333333],horizontal,"(390.0, 762.0)",1.3666666666666667,0.651,1,2610.69,1,0.0,same
0,218,valid,"[(1143, 795)]",[],[1],[0.48333333333333334],vertical,"(890.0, 762.0)",1.4333333333333333,0.442,1,2616.255,1,0.0,same
0,219,catch,"[(1153, 791)]",[],[1],[],vertical,"(890.0, 262.0)",1.7,nan,1,2621.427,2,0.0,same
0,220,valid,"[(1166, 795)]",[],[1],[0.5],vertical,"(390.0, 762.0)",1.0333333333333332,0.459,1,2627.201,2,0.0,same
0,221,invalid_same_bar,"[(1156, 772)]",[],[1],[0.85],horizontal,"(390.0, 262.0)",1.3,nan,0,2632.272,0,0.0,same
0,222,valid,"[(1125, 787)]",[],[1],[0.5333333333333333],horizontal,"(390.0, 262.0)",0.43333333333333335,0.49,1,2637.504,1,0.0,same
0,223,catch,"[(1150, 790)]",[],[1],[],vertical,"(890.0, 262.0)",1.7,nan,1,2642.056,1,0.0,same
0,224,catch,"[(1131, 753), (1087, 810)]",[],"[0, 1]",[],horizontal,"(890.0, 762.0)",1.7,nan,1,2647.464,1,0.0,same
0,225,valid,"[(1164, 778)]",[],[1],[0.6166666666666667],horizontal,"(890.0, 262.0)",1.55,0.575,1,2653.273,2,0.0,same
0,226,invalid_adjacent_other_bar,"[(1165, 794)]",[],[1],[0.55],horizontal,"(390.0, 762.0)",0.8,0.511,1,2659.011,2,0.0,other
0,227,valid,"[(1167, 799)]",[],[1],[0.5833333333333334],horizontal,"(390.0, 262.0)",0.8333333333333334,0.537,1,2664.222,2,0.0,same
0,228,valid,"[(1145, 788)]",[],[1],[0.5],vertical,"(890.0, 762.0)",0.7333333333333333,0.455,1,2669.774,2,0.0,same
0,229,valid,"[(1131, 803)]",[],[1],[0.5],horizontal,"(390.0, 762.0)",0.9,0.459,1,2674.687,3,0.0,same
0,230,catch,"[(1169, 778)]",[],[1],[],horizontal,"(890.0, 262.0)",1.7,nan,1,2680.123,3,0.0,same
0,231,catch,"[(1165, 797)]",[],[1],[],horizontal,"(890.0, 762.0)",1.7,nan,1,2686.177,3,0.0,same
0,232,valid,"[(1157, 796)]",[],[1],[0.6666666666666666],horizontal,"(890.0, 262.0)",1.4666666666666666,0.623,1,2692.258,3,0.0,same
0,233,valid,"[(1175, 787)]",[],[1],[0.5833333333333334],horizontal,"(390.0, 762.0)",1.3,0.541,1,2698.941,3,0.0,same
0,234,valid,"[(1134, 777)]",[],[1],[0.5],vertical,"(390.0, 762.0)",1.0666666666666667,0.458,1,2705.167,3,0.0,same
0,235,valid,"[(1167, 788)]",[],[1],[0.5166666666666666],vertical,"(390.0, 762.0)",0.45,0.477,1,2711.106,3,0.0,same
0,236,catch,"[(1164, 786)]",[],[1],[],horizontal,"(390.0, 762.0)",1.7,nan,1,2716.34,3,0.0,same
0,237,valid,"[(1131, 778)]",[],[1],[0.6],vertical,"(390.0, 262.0)",0.4,0.555,1,2722.314,3,0.0,same
0,238,catch,"[(1138, 802)]",[],[1],[],vertical,"(390.0, 762.0)",1.7,nan,1,2727.625,3,0.0,same
0,239,valid,"[(1148, 799)]",[],[1],[0.65],vertical,"(890.0, 262.0)",1.2333333333333334,0.609,1,2733.439,3,0.0,same
0,240,valid,"[(1177, 804)]",[],[1],[0.55],vertical,"(890.0, 262.0)",0.6666666666666666,0.505,1,2739.594,3,0.0,same
0,241,valid,"[(1165, 794)]",[],[1],[0.6166666666666667],vertical,"(390.0, 762.0)",1.2333333333333334,0.575,1,2745.024,3,0.0,same
0,242,valid,"[(1156, 797)]",[],[1],[0.6833333333333333],horizontal,"(390.0, 762.0)",1.4333333333333333,0.637,1,2751.372,3,0.0,same
0,243,invalid_adjacent_other_bar,"[(1160, 786)]",[],[1],[0.5333333333333333],horizontal,"(890.0, 762.0)",1.5166666666666666,0.487,1,2758.09,3,0.0,other
0,244,valid,"[(1157, 796)]",[],[1],[0.85],vertical,"(390.0, 262.0)",0.8833333333333333,nan,0,2764.873,0,0.0,same
0,245,valid,"[(1139, 765)]",[],[1],[0.65],horizontal,"(390.0, 262.0)",1.5333333333333332,0.606,1,2769.557,1,0.0,same
0,246,valid,"[(1166, 775)]",[],[1],[0.5166666666666666],vertical,"(890.0, 762.0)",1.0833333333333333,0.471,1,2774.891,1,0.0,same
0,247,valid,"[(1164, 812)]",[],[1],[0.5],vertical,"(390.0, 762.0)",0.4166666666666667,0.463,1,2780.249,1,0.0,same
0,248,catch,"[(1169, 797)]",[],[1],[],vertical,"(390.0, 262.0)",1.7,nan,1,2784.525,2,0.0,same
0,249,invalid_same_bar,"[(1169, 786)]",[],[1],[0.5333333333333333],horizontal,"(890.0, 762.0)",0.5166666666666666,0.501,1,2790.589,2,0.0,same
0,250,valid,"[(1167, 794)]",[],[1],[0.6166666666666667],horizontal,"(390.0, 262.0)",0.9,0.58,1,2795.458,2,0.0,same
0,251,valid,"[(1167, 794)]",[],[1],[0.6666666666666666],vertical,"(890.0, 762.0)",0.6166666666666667,0.627,1,2800.755,2,0.0,same
0,252,valid,"[(1175, 764)]",[],[1],[0.65],horizontal,"(890.0, 762.0)",0.7833333333333333,0.604,1,2806.047,3,0.0,same
0,253,valid,"[(1165, 801)]",[],[1],[0.5333333333333333],vertical,"(390.0, 762.0)",0.7666666666666666,0.491,1,2811.849,3,0.0,same
0,254,valid,"[(1170, 807)]",[],[1],[0.5],horizontal,"(890.0, 762.0)",0.5166666666666666,0.454,1,2817.095,3,0.0,same
0,255,valid,"[(1165, 791)]",[],[1],[0.4666666666666667],horizontal,"(390.0, 262.0)",1.45,0.427,1,2822.009,3,0.0,same
0,256,valid,"[(1165, 780)]",[],[1],[0.85],vertical,"(390.0, 262.0)",1.4833333333333334,nan,0,2827.996,0,0.0,same
0,257,valid,"[(1131, 797)]",[],[1],[0.6166666666666667],vertical,"(390.0, 762.0)",0.85,0.574,1,2833.145,1,0.0,same
0,258,valid,"[(1134, 805)]",[],[1],[0.6166666666666667],vertical,"(390.0, 262.0)",1.2333333333333334,0.571,1,2837.973,1,0.0,same
0,259,catch,"[(1167, 807)]",[],[1],[],vertical,"(390.0, 762.0)",1.7,nan,1,2843.898,1,0.0,same
0,260,valid,"[(1163, 796)]",[],[1],[0.55],vertical,"(390.0, 262.0)",1.0833333333333333,0.511,1,2849.446,2,0.0,same
0,261,valid,"[(1161, 809)]",[],[1],[0.5],horizontal,"(890.0, 762.0)",1.15,0.455,1,2854.826,2,0.0,same
0,262,valid,"[(1160, 796)]",[],[1],[0.85],horizontal,"(390.0, 262.0)",0.36666666666666664,nan,0,2860.336,0,0.0,same
0,263,invalid_adjacent_other_bar,"[(1091, 766)]",[],[1],[0.5833333333333334],vertical,"(890.0, 262.0)",1.5166666666666666,0.539,1,2864.378,1,0.0,other
0,264,invalid_same_bar,"[(1166, 798)]",[],[1],[0.5833333333333334],vertical,"(890.0, 762.0)",0.9166666666666666,0.542,1,2869.724,1,0.0,same
0,265,valid,"[(1131, 800)]",[],[1],[0.5666666666666667],horizontal,"(890.0, 762.0)",0.8,0.521,1,2875.057,1,0.0,same
0,266,valid,"[(1155, 801)]",[],[1],[0.55],vertical,"(390.0, 762.0)",1.3333333333333333,0.506,1,2879.912,2,0.0,same
0,267,valid,"[(1156, 785)]",[],[1],[0.5],horizontal,"(890.0, 262.0)",0.55,0.464,1,2885.617,2,0.0,same
0,268,invalid_same_bar,"[(1167, 784)]",[],[1],[0.5166666666666666],horizontal,"(890.0, 262.0)",1.1166666666666667,0.474,1,2890.243,2,0.0,same
0,269,catch,"[(1155, 808)]",[],[1],[],horizontal,"(390.0, 762.0)",1.7,nan,1,2896.19,2,0.0,same
0,270,valid,"[(1178, 791)]",[],[1],[0.5833333333333334],horizontal,"(890.0, 762.0)",0.6833333333333333,0.548,1,2902.19,3,0.0,same
0,271,valid,"[(1143, 792)]",[],[1],[0.5],vertical,"(890.0, 762.0)",0.65,0.458,1,2907.873,3,0.0,same
0,272,valid,"[(1141, 777)]",[],[1],[0.85],horizontal,"(390.0, 262.0)",1.0833333333333333,nan,0,2912.98,0,0.0,same
0,273,valid,"[(1106, 792)]",[],[1],[0.5],horizontal,"(890.0, 262.0)",0.3833333333333333,0.457,1,2918.307,1,0.0,same
0,274,valid,"[(1163, 777)]",[],[1],[0.5666666666666667],horizontal,"(890.0, 762.0)",0.5,0.526,1,2923.074,1,0.0,same
0,275,valid,"[(1141, 797)]",[],[1],[0.6166666666666667],horizontal,"(390.0, 762.0)",1.2,0.571,1,2927.407,1,0.0,same
0,276,valid,"[(1164, 779)]",[],[1],[0.6833333333333333],vertical,"(390.0, 762.0)",1.1166666666666667,0.638,1,2932.995,2,0.0,same
0,277,invalid_same_bar,"[(1165, 803)]",[],[1],[0.6],horizontal,"(890.0, 262.0)",0.8,0.553,1,2938.991,2,0.0,same
0,278,valid,"[(1165, 793)]",[],[1],[0.5166666666666666],horizontal,"(890.0, 762.0)",1.0333333333333332,0.479,1,2944.378,2,0.0,same
0,279,valid,"[(1165, 787)]",[],[1],[0.6333333333333333],vertical,"(390.0, 762.0)",0.6833333333333333,0.591,1,2949.734,2,0.0,same
0,280,catch,"[(1166, 796)]",[],[1],[],horizontal,"(890.0, 762.0)",1.7,nan,1,2954.79,3,0.0,same
0,281,valid,"[(1121, 800)]",[],[1],[0.6833333333333333],vertical,"(390.0, 262.0)",1.2166666666666666,0.641,1,2960.633,3,0.0,same
0,282,valid,"[(1133, 816)]",[],[1],[0.6666666666666666],horizontal,"(390.0, 262.0)",0.8666666666666667,0.622,1,2968.879,3,0.0,same
0,283,catch,"[(1165, 782)]",[],[1],[],horizontal,"(890.0, 762.0)",1.7,nan,1,2975.076,3,0.0,same
0,284,valid,"[(1163, 777)]",[],[1],[0.85],horizontal,"(890.0, 762.0)",1.3333333333333333,nan,0,2981.341,0,0.0,same
0,285,catch,"[(1132, 798)]",[],[1],[],vertical,"(890.0, 262.0)",1.7,nan,1,2986.439,1,0.0,same
0,286,catch,"[(1164, 808)]",[],[1],[],horizontal,"(390.0, 262.0)",1.7,nan,1,2991.89,1,0.0,same
0,287,valid,"[(1136, 782)]",[],[1],[0.5],vertical,"(890.0, 262.0)",1.05,0.46,1,2997.341,1,0.0,same
0,288,catch,"[(1161, 782)]",[],[1],[],vertical,"(390.0, 262.0)",1.7,nan,1,3002.508,2,0.0,same
0,289,valid,"[(1149, 815)]",[],[1],[0.6],horizontal,"(390.0, 262.0)",0.7333333333333333,0.559,1,3008.217,2,0.0,same
0,290,valid,"[(1141, 823)]",[],[1],[0.6166666666666667],vertical,"(890.0, 762.0)",1.45,0.57,1,3013.807,2,0.0,same
0,291,valid,"[(1134, 797)]",[],[1],[0.5666666666666667],horizontal,"(390.0, 262.0)",1.0666666666666667,0.527,1,3019.791,2,0.0,same
0,292,valid,"[(1106, 807)]",[],[1],[0.85],horizontal,"(390.0, 762.0)",1.35,nan,0,3025.541,0,0.0,same
0,293,catch,"[(1089, 787)]",[],[1],[],horizontal,"(890.0, 762.0)",1.7,nan,1,3030.706,1,0.0,same
0,294,valid,"[(1135, 776)]",[],[1],[0.5333333333333333],vertical,"(890.0, 762.0)",0.85,0.492,1,3035.844,1,0.0,same
0,295,valid,"[(1165, 789)]",[],[1],[0.85],vertical,"(390.0, 262.0)",0.4,nan,0,3040.797,0,0.0,same
0,296,valid,"[(1130, 808)]",[],[1],[0.6],horizontal,"(390.0, 762.0)",0.8166666666666667,0.556,1,3044.694,1,0.0,same
0,297,valid,"[(1161, 801)]",[],[1],[0.5333333333333333],vertical,"(890.0, 762.0)",1.3,0.492,1,3049.516,1,0.0,same
0,298,valid,"[(1152, 797)]",[],[1],[0.5333333333333333],vertical,"(390.0, 762.0)",0.43333333333333335,0.49,1,3055.181,1,0.0,same
0,299,catch,"[(1142, 788)]",[],[1],[],horizontal,"(890.0, 762.0)",1.7,nan,1,3059.457,2,0.0,same
0,300,invalid_adjacent_other_bar,"[(1164, 796)]",[],[1],[0.85],vertical,"(390.0, 262.0)",1.1,nan,0,3065.474,0,0.0,other
0,301,catch,"[(1135, 779)]",[],[1],[],vertical,"(390.0, 262.0)",1.7,nan,1,3070.02,1,0.0,same
0,302,valid,"[(1155, 798)]",[],[1],[0.5],vertical,"(890.0, 262.0)",0.4666666666666667,0.458,1,3075.1,1,0.0,same
0,303,catch,"[(1165, 782)]",[],[1],[],horizontal,"(890.0, 762.0)",1.7,nan,1,3079.59,1,0.0,same
0,304,valid,"[(1136, 786)]",[],[1],[0.85],horizontal,"(390.0, 262.0)",1.0,nan,0,3084.493,0,0.0,same
0,305,valid,"[(1148, 786)]",[],[1],[0.5],horizontal,"(390.0, 262.0)",0.6,0.456,1,3089.54,1,0.0,same
0,306,valid,"[(1115, 819)]",[],[1],[0.85],horizontal,"(390.0, 762.0)",1.0333333333333332,nan,0,3094.366,0,0.0,same
0,307,catch,"[(1116, 794)]",[],[1],[],horizontal,"(890.0, 762.0)",1.7,nan,1,3099.058,1,0.0,same
0,308,invalid_adjacent_other_bar,"[(1138, 798)]",[],[1],[0.6666666666666666],vertical,"(890.0, 262.0)",1.55,0.625,1,3104.07,1,0.0,other
0,309,valid,"[(1161, 777)]",[],[1],[0.6833333333333333],horizontal,"(890.0, 762.0)",1.35,0.64,1,3109.94,1,0.0,same
0,310,valid,"[(1165, 805)]",[],[1],[0.5333333333333333],horizontal,"(890.0, 262.0)",0.5833333333333334,0.493,1,3115.563,2,0.0,same
0,311,valid,"[(1131, 817)]",[],[1],[0.85],horizontal,"(390.0, 762.0)",0.8,nan,0,3120.413,0,0.0,same
0,312,catch,"[(1077, 794)]",[],[1],[],horizontal,"(390.0, 762.0)",1.7,nan,1,3125.142,1,0.0,same
0,313,valid,"[(1128, 810)]",[],[1],[0.7666666666666666],vertical,"(890.0, 762.0)",1.1,0.716,1,3130.741,1,0.0,same
0,314,valid,"[(1167, 804)]",[],[1],[0.6166666666666667],horizontal,"(890.0, 762.0)",1.15,0.575,1,3135.827,1,0.0,same
0,315,catch,"[(1141, 796)]",[],[1],[],horizontal,"(390.0, 262.0)",1.7,nan,1,3140.835,2,0.0,same
0,316,invalid_adjacent_other_bar,"[(1115, 806)]",[],[1],[0.85],vertical,"(890.0, 762.0)",0.7166666666666667,nan,0,3146.948,0,0.0,other
0,317,valid,"[(1111, 782)]",[],[1],[0.6],vertical,"(890.0, 762.0)",1.0666666666666667,0.573,1,3151.321,1,0.0,same
0,318,valid,"[(1136, 810)]",[],[1],[0.5666666666666667],vertical,"(890.0, 762.0)",1.3,0.523,1,3156.575,1,0.0,same
0,319,invalid_same_bar,"[(1137, 806)]",[],[1],[0.48333333333333334],horizontal,"(890.0, 262.0)",1.0333333333333332,0.44,1,3162.106,1,0.0,same
0,320,catch,"[(1160, 772)]",[],[1],[],horizontal,"(890.0, 762.0)",1.7,nan,1,3166.909,2,0.0,same
0,321,valid,"[(1140, 796)]",[],[1],[0.55],vertical,"(390.0, 262.0)",0.8,0.506,1,3172.808,2,0.0,same
0,322,invalid_same_bar,"[(1135, 815)]",[],[1],[0.65],horizontal,"(890.0, 762.0)",1.2166666666666666,0.605,1,3177.933,2,0.0,same
0,323,valid,"[(1135, 803)]",[],[1],[0.45],vertical,"(390.0, 262.0)",0.6166666666666667,0.41,1,3183.475,2,0.0,same
0,324,valid,"[(1165, 791)]",[],[1],[0.5],horizontal,"(390.0, 762.0)",0.8666666666666667,0.456,1,3188.631,3,0.0,same
0,325,valid,"[(1164, 798)]",[],[1],[0.5333333333333333],horizontal,"(390.0, 762.0)",1.2333333333333334,0.489,1,3194.024,3,0.0,same
0,326,valid,"[(1162, 782)]",[],[1],[0.55],vertical,"(890.0, 262.0)",1.4666666666666666,0.51,1,3200.009,3,0.0,same
0,327,valid,"[(1165, 813)]",[],[1],[0.5166666666666666],horizontal,"(890.0, 762.0)",1.0833333333333333,0.478,1,3205.876,3,0.0,same
0,328,valid,"[(1154, 777)]",[],[1],[0.48333333333333334],vertical,"(890.0, 262.0)",0.7333333333333333,0.453,1,3212.174,3,0.0,same
0,329,catch,"[(1165, 799)]",[],[1],[],horizontal,"(390.0, 762.0)",1.7,nan,1,3217.549,3,0.0,same
0,330,catch,"[(1151, 790)]",[],[1],[],vertical,"(390.0, 262.0)",1.7,nan,1,3223.858,3,0.0,same
0,331,catch,"[(1165, 801)]",[],[1],[],horizontal,"(390.0, 262.0)",1.7,nan,1,3230.196,3,0.0,same
0,332,valid,"[(1165, 786)]",[],[1],[0.5833333333333334],vertical,"(890.0, 762.0)",1.4333333333333333,0.533,1,3236.559,3,0.0,same
0,333,valid,"[(1120, 805)]",[],[1],[0.85],vertical,"(390.0, 262.0)",1.5166666666666666,nan,0,3242.717,0,0.0,same
0,334,valid,"[(1124, 786)]",[],[1],[0.75],horizontal,"(390.0, 762.0)",1.35,0.707,1,3248.259,1,0.0,same
0,335,valid,"[(1165, 798)]",[],[1],[0.65],horizontal,"(390.0, 262.0)",1.4833333333333334,0.607,1,3254.169,1,0.0,same
0,336,valid,"[(1135, 803)]",[],[1],"[0.85, 0.85]",horizontal,"(390.0, 262.0)",0.6666666666666666,"0.796,nan",0,3259.582,0,0.0,same
0,337,valid,"[(1121, 775)]",[],[1],[0.5666666666666667],horizontal,"(890.0, 762.0)",0.9666666666666667,0.523,1,3264.192,1,0.0,same
0,338,valid,"[(1157, 794)]",[],[1],[0.5333333333333333],vertical,"(890.0, 262.0)",0.75,0.491,1,3268.918,1,0.0,same
0,339,catch,"[(1161, 803)]",[],[1],[],horizontal,"(390.0, 262.0)",1.7,nan,1,3273.206,1,0.0,same
0,340,valid,"[(1138, 813)]",[],[1],[0.5],vertical,"(890.0, 262.0)",0.8,0.457,1,3277.992,2,0.0,same
0,341,catch,"[(1103, 831)]",[],[1],[],vertical,"(390.0, 762.0)",1.7,nan,1,3283.252,2,0.0,same
0,342,invalid_same_bar,"[(1138, 785)]",[],[1],[0.6333333333333333],horizontal,"(390.0, 762.0)",0.7166666666666667,0.592,1,3289.578,2,0.0,same
0,343,invalid_adjacent_other_bar,"[(1136, 805)]",[],[1],[0.5833333333333334],horizontal,"(390.0, 762.0)",1.1833333333333333,0.536,1,3295.109,2,0.0,other
0,344,invalid_same_bar,"[(1162, 787)]",[],[1],[0.5166666666666666],horizontal,"(890.0, 262.0)",1.1166666666666667,0.476,1,3300.887,3,0.0,same
0,345,catch,"[(1163, 800)]",[],[1],[],horizontal,"(390.0, 762.0)",1.7,nan,1,3307.049,3,0.0,same
0,346,valid,"[(1135, 797)]",[],[1],[0.5333333333333333],horizontal,"(390.0, 262.0)",0.6166666666666667,0.488,1,3313.259,3,0.0,same
0,347,valid,"[(1165, 782)]",[],[1],[0.5166666666666666],horizontal,"(390.0, 762.0)",1.05,0.474,1,3318.821,3,0.0,same
0,348,valid,"[(1160, 811)]",[],[1],[0.75],vertical,"(390.0, 262.0)",0.6833333333333333,0.701,1,3324.307,3,0.0,same
0,349,invalid_same_bar,"[(1165, 796)]",[],[1],[0.85],horizontal,"(390.0, 262.0)",1.3,nan,0,3330.276,0,0.0,same
0,350,valid,"[(1120, 799)]",[],[1],[0.5166666666666666],vertical,"(890.0, 762.0)",0.5166666666666666,0.477,1,3335.31,1,0.0,same
0,351,valid,"[(1105, 827)]",[],[1],[0.4666666666666667],vertical,"(890.0, 762.0)",1.2,0.428,1,3340.371,1,0.0,same
0,352,invalid_adjacent_other_bar,"[(1160, 806)]",[],[1],[0.5666666666666667],vertical,"(390.0, 262.0)",1.1,0.541,1,3646.669,1,0.0,other
0,353,valid,"[(1163, 796)]",[],[1],[0.5666666666666667],vertical,"(890.0, 262.0)",1.0666666666666667,0.541,1,3651.527,2,0.0,same
0,354,catch,"[(1161, 791)]",[],[1],[],horizontal,"(890.0, 762.0)",1.7,nan,1,3657.244,2,0.0,same
0,355,catch,"[(1169, 793)]",[],[1],[],horizontal,"(390.0, 262.0)",1.7,nan,1,3662.777,2,0.0,same
0,356,valid,"[(1163, 775)]",[],[1],[0.65],horizontal,"(890.0, 762.0)",0.5833333333333334,0.627,1,3668.872,2,0.0,same
0,357,catch,"[(1139, 809)]",[],[1],[],horizontal,"(890.0, 762.0)",1.7,nan,1,3673.64,3,0.0,same
0,358,catch,"[(1164, 797)]",[],[1],[],horizontal,"(890.0, 762.0)",1.7,nan,1,3679.95,3,0.0,same
0,359,valid,"[(1164, 786)]",[],[1],[0.5833333333333334],vertical,"(890.0, 262.0)",0.55,0.542,1,3686.341,3,0.0,same
0,360,valid,"[(1165, 787)]",[],[1],[0.5166666666666666],vertical,"(890.0, 262.0)",1.4333333333333333,0.477,1,3691.226,3,0.0,same
0,361,catch,"[(1161, 792)]",[],[1],[],vertical,"(890.0, 762.0)",1.7,nan,1,3697.833,3,0.0,same
0,362,valid,"[(1163, 777)]",[],[1],[0.6333333333333333],horizontal,"(390.0, 262.0)",0.6833333333333333,0.592,1,3704.019,3,0.0,same
0,363,catch,"[(1156, 782)]",[],[1],[],vertical,"(890.0, 262.0)",1.7,nan,1,3709.833,3,0.0,same
0,364,valid,"[(1162, 766)]",[],[1],[0.6333333333333333],horizontal,"(390.0, 262.0)",0.9833333333333333,0.591,1,3715.84,3,0.0,same
0,365,valid,"[(1145, 800)]",[],[1],[0.5],vertical,"(890.0, 262.0)",1.1166666666666667,0.459,1,3721.651,3,0.0,same
0,366,valid,"[(1127, 789)]",[],[1],[0.4666666666666667],horizontal,"(890.0, 762.0)",1.3833333333333333,0.425,1,3727.327,3,0.0,same
0,367,catch,"[(1160, 807)]",[],[1],[],vertical,"(890.0, 262.0)",1.7,nan,1,3733.857,3,0.0,same
0,368,valid,"[(1163, 803)]",[],[1],[0.5],horizontal,"(890.0, 762.0)",0.48333333333333334,0.466,1,3740.13,3,0.0,same
0,369,valid,"[(1120, 814)]",[],[1],[0.5166666666666666],vertical,"(890.0, 262.0)",0.9666666666666667,0.483,1,3745.668,3,0.0,same
0,370,catch,"[(1163, 789)]",[],[1],[],vertical,"(390.0, 762.0)",1.7,nan,1,3751.392,3,0.0,same
0,371,catch,"[(1158, 789)]",[],[1],[],horizontal,"(390.0, 262.0)",1.7,nan,1,3757.494,3,0.0,same
0,372,valid,"[(1161, 792)]",[],[1],[0.6],horizontal,"(390.0, 762.0)",1.2166666666666666,0.564,1,3763.226,3,0.0,same
0,373,valid,"[(1163, 777)]",[],[1],[0.5166666666666666],horizontal,"(890.0, 762.0)",1.3333333333333333,0.475,1,3769.211,3,0.0,same
0,374,valid,"[(1164, 788)]",[],[1],[0.6],vertical,"(890.0, 762.0)",0.7,0.559,1,3775.01,3,0.0,same
0,375,valid,"[(1165, 791)]",[],[1],[0.5166666666666666],horizontal,"(890.0, 262.0)",0.8333333333333334,0.484,1,3780.721,3,0.0,same
0,376,valid,"[(1141, 806)]",[],[1],[0.5666666666666667],horizontal,"(890.0, 262.0)",0.8666666666666667,0.526,1,3786.093,3,0.0,same
0,377,invalid_same_bar,"[(1168, 785)]",[],[1],[0.5333333333333333],horizontal,"(890.0, 762.0)",0.5833333333333334,0.486,1,3791.577,3,0.0,same
0,378,valid,"[(1156, 780)]",[],[1],[0.85],vertical,"(390.0, 262.0)",1.0666666666666667,nan,0,3797.36,0,0.0,same
0,379,catch,"[(1135, 780)]",[],[1],[],horizontal,"(390.0, 762.0)",1.7,nan,1,3802.133,1,0.0,same
0,380,valid,"[(1138, 831)]",[],[1],[0.55],vertical,"(890.0, 262.0)",1.45,0.508,1,3807.326,1,0.0,same
0,381,catch,"[(1160, 768)]",[],[1],[],horizontal,"(390.0, 762.0)",1.7,nan,1,3813.077,1,0.0,same
0,382,catch,"[(1137, 830)]",[],[1],[],vertical,"(390.0, 262.0)",1.7,nan,1,3818.481,2,0.0,same
0,383,valid,"[(1160, 796)]",[],[1],[0.6166666666666667],horizontal,"(390.0, 762.0)",0.8166666666666667,0.573,1,3824.158,2,0.0,same
0,384,valid,"[(1170, 815)]",[],[1],[0.6333333333333333],vertical,"(390.0, 262.0)",0.45,0.59,1,3829.743,2,0.0,same
0,385,catch,"[(1150, 798)]",[],[1],[],horizontal,"(890.0, 762.0)",1.7,nan,1,3834.91,2,0.0,same
0,386,valid,"[(1163, 806)]",[],[1],[0.55],vertical,"(390.0, 762.0)",1.45,0.508,1,3840.894,3,0.0,same
0,387,valid,"[(1137, 802)]",[],[1],[0.48333333333333334],horizontal,"(890.0, 262.0)",0.7833333333333333,0.439,1,3847.392,3,0.0,same
0,388,valid,"[(1131, 798)]",[],[1],[0.5166666666666666],vertical,"(890.0, 762.0)",0.5,0.475,1,3852.515,3,0.0,same
0,389,valid,"[(1135, 790)]",[],[1],[0.48333333333333334],vertical,"(890.0, 262.0)",1.0833333333333333,0.444,1,3857.899,3,0.0,same
0,390,valid,"[(1140, 792)]",[],[1],[0.5166666666666666],horizontal,"(390.0, 262.0)",1.1,0.478,1,3863.461,3,0.0,same
0,391,valid,"[(1166, 778)]",[],[1],[0.6333333333333333],vertical,"(890.0, 262.0)",0.9833333333333333,0.584,1,3869.093,3,0.0,same
0,392,catch,"[(1160, 790)]",[],[1],[],horizontal,"(890.0, 762.0)",1.7,nan,1,3875.059,3,0.0,same
0,393,valid,"[(1164, 805)]",[],[1],[0.5166666666666666],horizontal,"(890.0, 262.0)",1.2166666666666666,0.47,1,3880.894,3,0.0,same
0,394,valid,"[(1139, 768)]",[],[1],[0.85],vertical,"(390.0, 262.0)",1.4666666666666666,nan,0,3887.01,0,0.0,same
0,395,valid,"[(1087, 829)]",[],[1],[0.6],vertical,"(390.0, 262.0)",1.5333333333333332,0.555,1,3892.383,1,0.0,same
0,396,valid,"[(1175, 792)]",[],[1],[0.5666666666666667],vertical,"(390.0, 262.0)",0.6666666666666666,0.53,1,3900.127,1,0.0,same
0,397,catch,"[(1165, 792)]",[],[1],[],horizontal,"(390.0, 762.0)",1.7,nan,1,3905.067,1,0.0,same
0,398,catch,"[(1132, 790)]",[],[1],[],vertical,"(390.0, 762.0)",,"('cti', 1.259),nan",0,3910.019,0,0.02,same
0,399,valid,"[(1117, 824)]","[(1018, 964)]",[1],[0.18333333333333332],horizontal,"(890.0, 262.0)",,"('bar', 0.193)",0,3914.069,0,0.02,same
0,400,invalid_adjacent_other_bar,"[(1091, 824)]",[],[1],[0.55],horizontal,"(390.0, 262.0)",1.1333333333333333,0.509,1,4861.491,1,0.02,other
0,401,valid,"[(1156, 772)]",[],[1],[0.5],horizontal,"(890.0, 762.0)",0.35,0.458,1,6454.659,1,0.02,same
0,402,catch,"[(1135, 796)]",[],[1],[],horizontal,"(890.0, 262.0)",1.7,nan,1,6458.981,1,0.02,same
0,403,catch,"[(1129, 792)]",[],[1],[],horizontal,"(890.0, 262.0)",1.7,nan,1,6464.104,2,0.02,same
0,404,valid,"[(1166, 791)]",[],[1],[0.4666666666666667],horizontal,"(890.0, 262.0)",0.9166666666666666,0.424,1,6470.237,2,0.02,same
0,405,valid,"[(1130, 789)]",[],[1],[0.6166666666666667],horizontal,"(890.0, 762.0)",0.48333333333333334,0.572,1,6475.15,2,0.02,same
0,406,valid,"[(1165, 803)]",[],[1],[0.85],vertical,"(890.0, 262.0)",0.7666666666666666,nan,0,6480.324,0,0.02,same
0,407,catch,"[(1124, 777)]",[],[1],[],horizontal,"(390.0, 762.0)",1.7,nan,1,6484.713,1,0.02,same
0,408,valid,"[(1165, 770)]",[],[1],[0.55],horizontal,"(390.0, 262.0)",1.0666666666666667,0.507,1,6489.87,1,0.02,same
0,409,valid,"[(1169, 769)]",[],[1],[0.5833333333333334],horizontal,"(390.0, 262.0)",1.5,0.54,1,6494.926,1,0.02,same
0,410,valid,"[(1175, 783)]",[],[1],[0.85],vertical,"(390.0, 262.0)",0.8166666666666667,nan,0,6500.221,0,0.02,same
0,411,catch,"[(1131, 762)]",[],[1],[],horizontal,"(390.0, 262.0)",,"('cti', 1.569),nan",0,6505.046,0,0.04,same
0,412,catch,"[(1125, 787)]",[],[1],[],vertical,"(390.0, 762.0)",1.7,nan,1,6509.679,1,0.04,same
0,413,invalid_adjacent_other_bar,"[(1165, 779)]",[],[1],[0.5333333333333333],horizontal,"(890.0, 262.0)",0.8,0.493,1,6514.976,1,0.04,other
0,414,valid,"[(1153, 772)]",[],[1],[0.85],horizontal,"(890.0, 262.0)",0.6333333333333333,nan,0,6519.286,0,0.04,same
0,415,valid,"[(1125, 785)]",[],[1],[0.7166666666666667],vertical,"(890.0, 262.0)",0.4666666666666667,0.671,1,6523.856,1,0.04,same
0,416,valid,"[(1165, 782)]",[],[1],[0.6],vertical,"(390.0, 262.0)",0.6833333333333333,0.554,1,6528.738,1,0.04,same
0,417,catch,"[(1175, 796)]",[],[1],[],horizontal,"(390.0, 262.0)",1.7,nan,1,6533.555,1,0.04,same
0,418,valid,"[(1165, 792)]",[],[1],[0.5],vertical,"(390.0, 262.0)",0.8833333333333333,0.458,1,6538.716,2,0.04,same
0,419,valid,"[(1133, 784)]",[],[1],[0.4666666666666667],vertical,"(890.0, 262.0)",0.9666666666666667,0.428,1,6544.127,2,0.04,same
0,420,valid,"[(1167, 791)]",[],[1],[0.48333333333333334],horizontal,"(890.0, 262.0)",0.48333333333333334,0.44,1,6549.388,2,0.04,same
0,421,valid,"[(1170, 793)]",[],[1],[0.5833333333333334],horizontal,"(390.0, 762.0)",0.65,0.54,1,6554.08,2,0.04,same
0,422,catch,"[(1165, 800)]",[],[1],[],vertical,"(390.0, 762.0)",1.7,nan,1,6559.297,3,0.04,same
0,423,valid,"[(1165, 773)]",[],[1],[0.5],horizontal,"(890.0, 262.0)",1.0833333333333333,0.464,1,6565.859,3,0.04,same
0,424,valid,"[(1169, 786)]",[],[1],[0.5166666666666666],horizontal,"(390.0, 762.0)",1.25,0.475,1,6572.054,3,0.04,same
0,425,catch,"[(1166, 775)]",[],[1],[],vertical,"(890.0, 762.0)",1.7,nan,1,6578.456,3,0.04,same
0,426,invalid_adjacent_other_bar,"[(1158, 765)]",[],[1],[0.5833333333333334],horizontal,"(890.0, 762.0)",1.5166666666666666,0.544,1,6584.613,3,0.04,other
0,427,catch,"[(1162, 792)]",[],[1],[],horizontal,"(890.0, 262.0)",1.7,nan,1,6591.164,3,0.04,same
0,428,catch,"[(1160, 797)]",[],[1],[],vertical,"(390.0, 262.0)",1.7,nan,1,6596.739,3,0.04,same
0,429,catch,"[(1165, 796)]",[],[1],[],vertical,"(890.0, 262.0)",1.7,nan,1,6603.071,3,0.04,same
0,430,valid,"[(1146, 820)]",[],[1],[0.5166666666666666],horizontal,"(390.0, 762.0)",0.8,0.474,1,6609.189,3,0.04,same
0,431,invalid_same_bar,"[(1161, 796)]",[],[1],[0.5],vertical,"(890.0, 262.0)",1.0,0.462,1,6615.627,3,0.04,same
0,432,valid,"[(1164, 783)]",[],[1],[0.4166666666666667],vertical,"(890.0, 762.0)",0.9,0.38,1,6621.554,3,0.04,same
0,433,valid,"[(1165, 792)]",[],[1],[0.5333333333333333],vertical,"(890.0, 262.0)",1.5166666666666666,0.493,1,6627.571,3,0.04,same
0,434,valid,"[(1166, 792)]",[],[1],[0.85],vertical,"(390.0, 762.0)",0.9833333333333333,nan,0,6633.965,0,0.04,same
0,435,valid,"[(1126, 795)]",[],[1],[0.48333333333333334],horizontal,"(890.0, 762.0)",1.2666666666666666,0.444,1,6638.53,1,0.04,same
0,436,valid,"[(1160, 762)]",[],[1],[0.6333333333333333],horizontal,"(890.0, 262.0)",0.3833333333333333,0.594,1,6643.872,1,0.04,same
0,437,catch,"[(1160, 763)]",[],[1],[],horizontal,"(890.0, 262.0)",1.7,nan,1,6648.539,1,0.04,same
0,438,valid,"[(1160, 800)]",[],[1],[0.48333333333333334],horizontal,"(890.0, 262.0)",1.2833333333333332,0.443,1,6653.388,2,0.04,same
0,439,valid,"[(1172, 791)]",[],[1],[0.5],vertical,"(890.0, 262.0)",1.4333333333333333,0.463,1,6659.163,2,0.04,same
0,440,valid,"[(1150, 800)]",[],[1],[0.55],horizontal,"(890.0, 262.0)",0.6166666666666667,0.515,1,6664.837,2,0.04,same
0,441,valid,"[(1160, 796)]",[],[1],[0.5333333333333333],vertical,"(390.0, 262.0)",0.5833333333333334,0.495,1,6669.866,2,0.04,same
0,442,catch,"[(1167, 796)]",[],[1],[],vertical,"(890.0, 262.0)",1.7,nan,1,6674.671,3,0.04,same
0,443,valid,"[(1161, 765)]",[],[1],[0.7666666666666666],vertical,"(390.0, 262.0)",0.75,0.727,1,6680.838,3,0.04,same
0,444,valid,"[(1160, 788)]",[],[1],[0.6166666666666667],vertical,"(890.0, 262.0)",1.4,0.573,1,6686.643,3,0.04,same
0,445,valid,"[(1162, 796)]",[],[1],[0.5333333333333333],vertical,"(390.0, 762.0)",0.8,0.489,1,6692.721,3,0.04,same
0,446,valid,"[(1163, 784)]",[],[1],[0.85],horizontal,"(390.0, 762.0)",0.7666666666666666,nan,0,6698.639,0,0.04,same
0,447,valid,"[(1116, 778)]",[],[1],[0.85],horizontal,"(890.0, 262.0)",0.8,nan,0,6702.991,0,0.04,same
0,448,catch,"[(1110, 839)]",[],[1],[],horizontal,"(390.0, 262.0)",1.7,nan,1,6707.855,1,0.02,same
0,449,catch,"[(1129, 782)]",[],[1],[],vertical,"(390.0, 762.0)",1.7,nan,1,6713.505,1,0.02,same
0,450,valid,"[(1168, 802)]",[],[1],[0.5],horizontal,"(890.0, 762.0)",1.4166666666666667,0.461,1,6718.445,1,0.02,same
0,451,invalid_adjacent_other_bar,"[(1159, 771)]",[],[1],[0.7],horizontal,"(890.0, 762.0)",1.3833333333333333,0.649,1,6724.229,2,0.02,other
0,452,valid,"[(1164, 788)]",[],[1],[0.8333333333333334],vertical,"(390.0, 762.0)",0.7333333333333333,0.781,1,6729.806,2,0.02,same
0,453,invalid_adjacent_other_bar,"[(1160, 792)]",[],[1],[0.5],horizontal,"(890.0, 762.0)",0.9166666666666666,0.466,1,6735.357,2,0.02,other
0,454,catch,"[(1134, 790)]",[],[1],[],vertical,"(390.0, 262.0)",1.7,nan,1,6740.773,2,0.02,same
0,455,valid,"[(1138, 827)]",[],[1],[0.85],horizontal,"(390.0, 762.0)",1.0666666666666667,nan,0,6746.358,0,0.02,same
0,456,valid,"[(1135, 770)]",[],[1],[0.5166666666666666],horizontal,"(890.0, 762.0)",1.2666666666666666,0.484,1,6751.288,1,0.02,same
0,457,valid,"[(1160, 816)]",[],[1],[0.5666666666666667],vertical,"(890.0, 762.0)",0.7,0.521,1,6756.639,1,0.02,same
0,458,valid,"[(1165, 806)]",[],[1],[0.85],vertical,"(390.0, 762.0)",0.4166666666666667,nan,0,6761.338,0,0.02,same
0,459,catch,"[(1126, 778)]",[],[1],[],horizontal,"(890.0, 262.0)",1.7,nan,1,6765.407,1,0.02,same
0,460,valid,"[(1170, 802)]",[],[1],[0.5333333333333333],horizontal,"(890.0, 262.0)",1.1,0.494,1,6770.756,1,0.02,same
0,461,valid,"[(1164, 771)]",[],[1],[0.6],horizontal,"(390.0, 262.0)",0.8,0.562,1,6775.996,1,0.0,same
0,462,valid,"[(1160, 791)]",[],[1],[0.6333333333333333],horizontal,"(890.0, 762.0)",0.5833333333333334,0.591,1,6781.139,2,0.0,same
0,463,invalid_adjacent_other_bar,"[(1163, 801)]",[],[1],[0.5166666666666666],horizontal,"(890.0, 762.0)",1.0333333333333332,0.474,1,6786.65,2,0.0,other
0,464,valid,"[(1180, 768)]",[],[1],[0.6333333333333333],horizontal,"(390.0, 262.0)",1.35,0.595,1,6791.923,2,0.0,same
0,465,valid,"[(1160, 799)]",[],[1],[0.5],horizontal,"(390.0, 762.0)",0.9833333333333333,0.455,1,6797.588,2,0.0,same
0,466,invalid_same_bar,"[(1163, 808)]",[],[1],[0.85],horizontal,"(890.0, 762.0)",0.6166666666666667,nan,0,6802.622,0,0.0,same
0,467,catch,"[(1136, 767)]",[],[1],[],horizontal,"(890.0, 262.0)",1.7,nan,1,6807.456,1,0.0,same
0,468,valid,"[(1173, 775)]",[],[1],[0.5333333333333333],vertical,"(390.0, 762.0)",0.7,0.495,1,6813.006,1,0.0,same
0,469,valid,"[(1163, 778)]",[],[1],[0.7833333333333333],vertical,"(390.0, 762.0)",1.1166666666666667,0.735,1,6817.415,1,0.0,same
0,470,valid,"[(1149, 770)]",[],[1],[0.55],vertical,"(890.0, 262.0)",0.43333333333333335,0.512,1,6822.972,2,0.0,same
0,471,valid,"[(1162, 786)]",[],[1],[0.6833333333333333],horizontal,"(890.0, 262.0)",0.43333333333333335,0.634,1,6827.573,2,0.0,same
0,472,catch,"[(1160, 775)]",[],[1],[],horizontal,"(890.0, 262.0)",1.7,nan,1,6832.355,2,0.0,same
0,473,invalid_adjacent_other_bar,"[(1172, 800)]",[],[1],[0.65],horizontal,"(390.0, 762.0)",1.4833333333333334,0.605,1,6837.673,2,0.0,other
0,474,catch,"[(1161, 777)]",[],[1],[],vertical,"(390.0, 262.0)",1.7,nan,1,6843.405,3,0.0,same
0,475,valid,"[(1161, 783)]",[],[1],[0.55],horizontal,"(390.0, 762.0)",1.1833333333333333,0.512,1,6849.055,3,0.0,same
0,476,catch,"[(1163, 779)]",[],[1],[],horizontal,"(390.0, 762.0)",1.7,nan,1,6855.256,3,0.0,same
0,477,valid,"[(1160, 790)]",[],[1],[0.5166666666666666],horizontal,"(890.0, 262.0)",0.48333333333333334,0.477,1,6861.489,3,0.0,same
0,478,invalid_adjacent_other_bar,"[(1160, 782)]",[],[1],[0.5166666666666666],vertical,"(390.0, 262.0)",1.3833333333333333,0.473,1,6866.489,3,0.0,other
0,479,valid,"[(1161, 798)]",[],[1],[0.5166666666666666],horizontal,"(890.0, 762.0)",0.8833333333333333,0.478,1,6872.44,3,0.0,same
0,480,catch,"[(1172, 799)]",[],[1],[],vertical,"(390.0, 762.0)",1.7,nan,1,6878.355,3,0.0,same
0,481,valid,"[(1160, 768)]",[],[1],[0.6166666666666667],horizontal,"(390.0, 262.0)",1.1666666666666667,0.573,1,6884.399,3,0.0,same
0,482,valid,"[(1160, 795)]",[],[1],[0.6],vertical,"(890.0, 262.0)",1.5166666666666666,0.558,1,6890.579,3,0.0,same
0,483,valid,"[(1164, 775)]",[],[1],[0.5666666666666667],horizontal,"(890.0, 762.0)",0.95,0.524,1,6897.023,3,0.0,same
0,484,invalid_adjacent_other_bar,"[(1167, 789)]",[],[1],[0.6166666666666667],horizontal,"(890.0, 762.0)",1.4333333333333333,0.573,1,6902.657,3,0.0,other
0,485,catch,"[(1160, 768)]",[],[1],[],vertical,"(390.0, 262.0)",,"('cti', 1.342),nan",0,6908.921,0,0.02,same
0,486,valid,"[(1129, 801)]",[],[1],[0.5833333333333334],horizontal,"(890.0, 262.0)",0.48333333333333334,0.537,1,6913.657,1,0.02,same
0,487,invalid_adjacent_other_bar,"[(1140, 790)]",[],[1],[0.6],vertical,"(890.0, 762.0)",0.95,0.564,1,6917.955,1,0.02,other
0,488,catch,"[(1161, 782)]",[],[1],[],vertical,"(890.0, 762.0)",1.7,nan,1,6923.223,1,0.02,same
0,489,valid,"[(1159, 807)]",[],[1],[0.85],horizontal,"(390.0, 762.0)",0.5,nan,0,6928.251,0,0.02,same
0,490,valid,"[(1137, 779)]",[],[1],[0.7333333333333333],vertical,"(890.0, 262.0)",0.6333333333333333,0.686,1,6932.857,1,0.02,same
0,491,valid,"[(1152, 796)]",[],[1],[0.5333333333333333],horizontal,"(890.0, 762.0)",0.8333333333333334,0.495,1,6937.362,1,0.02,same
0,492,valid,"[(1160, 814)]",[],[1],[0.55],vertical,"(390.0, 762.0)",0.7,0.508,1,6941.789,1,0.02,same
0,493,valid,"[(1170, 757)]",[],[1],[0.5333333333333333],vertical,"(390.0, 762.0)",0.5333333333333333,0.499,1,6946.829,2,0.02,same
0,494,valid,"[(1157, 793)]",[],[1],[0.6166666666666667],horizontal,"(890.0, 262.0)",1.2166666666666666,0.57,1,6951.576,2,0.02,same
0,495,valid,"[(1166, 821)]",[],[1],[0.6166666666666667],vertical,"(390.0, 262.0)",1.4833333333333334,0.575,1,6957.36,2,0.02,same
0,496,valid,"[(1155, 806)]",[],[1],[0.5],vertical,"(890.0, 762.0)",1.3,0.462,1,6963.629,2,0.02,same
0,497,valid,"[(1169, 791)]",[],[1],[0.55],horizontal,"(890.0, 762.0)",0.7333333333333333,0.514,1,6969.241,3,0.02,same
0,498,valid,"[(1157, 806)]",[],[1],[0.6],horizontal,"(390.0, 762.0)",1.25,0.56,1,6974.907,3,0.02,same
0,499,catch,"[(1160, 777)]",[],[1],[],horizontal,"(890.0, 762.0)",1.7,nan,1,6981.024,3,0.02,same
0,500,valid,"[(1160, 767)]",[],[1],[0.6333333333333333],vertical,"(890.0, 762.0)",0.75,0.598,1,6987.249,3,0.02,same
0,501,valid,"[(1162, 781)]",[],[1],[0.5],vertical,"(890.0, 262.0)",1.4166666666666667,0.457,1,6993.207,3,0.02,same
0,502,catch,"[(1158, 785)]",[],[1],[],horizontal,"(890.0, 262.0)",1.7,nan,1,6999.073,3,0.02,same
0,503,valid,"[(1165, 762)]",[],[1],[0.5333333333333333],horizontal,"(390.0, 262.0)",0.6833333333333333,0.498,1,7005.507,3,0.02,same
0,504,invalid_adjacent_other_bar,"[(1165, 796)]",[],[1],[0.85],vertical,"(890.0, 762.0)",0.75,nan,0,7011.274,0,0.02,other
0,505,catch,"[(1132, 776)]",[],[1],[],horizontal,"(890.0, 762.0)",1.7,nan,1,7015.755,1,0.02,same
0,506,valid,"[(1132, 799)]",[],[1],[0.85],horizontal,"(890.0, 262.0)",0.5166666666666666,nan,0,7021.167,0,0.02,same
0,507,valid,"[(1096, 776)]",[],[1],[0.55],vertical,"(890.0, 762.0)",1.15,0.51,1,7025.39,1,0.02,same
0,508,catch,"[(1166, 819)]",[],[1],[],horizontal,"(390.0, 262.0)",1.7,nan,1,7030.415,1,0.02,same
0,509,valid,"[(1161, 773)]",[],[1],[0.5833333333333334],vertical,"(390.0, 762.0)",0.5,0.536,1,7035.723,1,0.02,same
0,510,valid,"[(1144, 796)]",[],[1],[0.5166666666666666],vertical,"(390.0, 762.0)",0.6833333333333333,0.475,1,7039.851,2,0.02,same
0,511,valid,"[(1162, 788)]",[],[1],[0.45],vertical,"(890.0, 262.0)",0.35,0.412,1,7044.974,2,0.02,same
0,512,valid,"[(1162, 821)]",[],[1],[0.5],vertical,"(390.0, 762.0)",0.5666666666666667,0.458,1,7049.964,2,0.02,same
0,513,valid,"[(1161, 766)]",[],[1],[0.6666666666666666],horizontal,"(890.0, 762.0)",0.6833333333333333,0.62,1,7055.123,2,0.02,same
0,514,valid,"[(1147, 798)]",[],[1],[0.6166666666666667],horizontal,"(390.0, 762.0)",0.4666666666666667,0.576,1,7060.036,3,0.02,same
0,515,invalid_same_bar,"[(1160, 787)]",[],[1],[0.5166666666666666],horizontal,"(890.0, 762.0)",1.45,0.474,1,7065.642,3,0.02,same
0,516,valid,"[(1165, 777)]",[],[1],[0.5333333333333333],vertical,"(390.0, 262.0)",0.6,0.489,1,7072.357,3,0.02,same
0,517,catch,"[(1160, 784)]",[],[1],[],horizontal,"(390.0, 762.0)",1.7,nan,1,7077.647,3,0.02,same
0,518,valid,"[(1165, 793)]",[],[1],[0.5166666666666666],vertical,"(390.0, 262.0)",0.4166666666666667,0.475,1,7083.656,3,0.02,same
0,519,valid,"[(1164, 789)]",[],[1],[0.5333333333333333],horizontal,"(890.0, 262.0)",0.36666666666666664,0.496,1,7088.891,3,0.02,same
0,520,valid,"[(1165, 780)]",[],[1],[0.5666666666666667],vertical,"(390.0, 762.0)",1.0166666666666666,0.526,1,7094.306,3,0.02,same
0,521,invalid_same_bar,"[(1148, 805)]",[],[1],[0.4666666666666667],vertical,"(890.0, 262.0)",0.65,0.43,1,7100.358,3,0.02,same
0,522,catch,"[(1135, 782)]",[],[1],[],vertical,"(390.0, 262.0)",1.7,nan,1,7105.905,3,0.02,same
0,523,valid,"[(1161, 792)]",[],[1],[0.5666666666666667],horizontal,"(390.0, 762.0)",1.0666666666666667,0.523,1,7112.252,3,0.02,same
0,524,valid,"[(1132, 789)]",[],[1],[0.5666666666666667],vertical,"(390.0, 262.0)",0.7166666666666667,0.527,1,7118.341,3,0.02,same
0,525,valid,"[(1165, 782)]",[],[1],[0.48333333333333334],vertical,"(890.0, 262.0)",0.9,0.443,1,7123.657,3,0.02,same
0,526,valid,"[(1165, 772)]",[],[1],[0.6666666666666666],vertical,"(890.0, 262.0)",0.9666666666666667,0.632,1,7129.457,3,0.02,same
0,527,valid,"[(1165, 776)]",[],[1],[0.5333333333333333],vertical,"(890.0, 762.0)",1.2166666666666666,0.488,1,7135.311,3,0.02,same
0,528,valid,"[(1160, 787)]",[],[1],[0.48333333333333334],horizontal,"(890.0, 262.0)",0.8666666666666667,0.447,1,7141.422,3,0.02,same
0,529,valid,"[(1163, 783)]",[],[1],[0.6],horizontal,"(390.0, 762.0)",1.2833333333333332,0.556,1,7147.213,3,0.02,same
0,530,catch,"[(1165, 777)]",[],[1],[],horizontal,"(890.0, 762.0)",1.7,"('cti', 1.678),nan",0,7153.107,0,0.04,same
0,531,catch,"[(1118, 816)]",[],[1],[],horizontal,"(890.0, 762.0)",1.7,nan,1,7157.907,1,0.04,same
0,532,valid,"[(1160, 781)]",[],[1],[0.55],horizontal,"(390.0, 262.0)",0.65,0.507,1,7164.057,1,0.04,same
0,533,valid,"[(1166, 800)]",[],[1],[0.5166666666666666],vertical,"(890.0, 762.0)",0.85,0.478,1,7169.147,1,0.04,same
0,534,valid,"[(1164, 783)]",[],[1],[0.5166666666666666],vertical,"(890.0, 262.0)",0.36666666666666664,0.475,1,7174.021,2,0.04,same
0,535,valid,"[(1140, 806)]",[],[1],[0.6166666666666667],vertical,"(890.0, 262.0)",0.8666666666666667,0.574,1,7178.925,2,0.02,same
0,536,catch,"[(1150, 792)]",[],[1],[],vertical,"(890.0, 262.0)",1.7,nan,1,7184.773,2,0.02,same
0,537,valid,"[(1135, 811)]",[],[1],[0.6666666666666666],vertical,"(390.0, 262.0)",1.3666666666666667,0.629,1,7190.035,2,0.02,same
0,538,valid,"[(1132, 790)]",[],[1],[0.55],vertical,"(890.0, 762.0)",1.1333333333333333,0.506,1,7196.712,3,0.02,same
0,539,catch,"[(1135, 790)]",[],[1],[],horizontal,"(390.0, 262.0)",1.7,nan,1,7203.241,3,0.02,same
0,540,invalid_same_bar,"[(1152, 788)]",[],[1],[0.5833333333333334],horizontal,"(890.0, 262.0)",0.9833333333333333,0.543,1,7209.077,3,0.02,same
0,541,invalid_same_bar,"[(1160, 772)]",[],[1],[0.75],vertical,"(890.0, 762.0)",1.0666666666666667,0.704,1,7214.641,3,0.02,same
0,542,invalid_adjacent_other_bar,"[(1162, 785)]",[],[1],[0.5833333333333334],vertical,"(890.0, 762.0)",1.1166666666666667,0.54,1,7221.075,3,0.02,other
0,543,invalid_same_bar,"[(1162, 781)]",[],[1],[0.5333333333333333],vertical,"(390.0, 762.0)",1.2666666666666666,0.496,1,7227.458,3,0.02,same
0,544,valid,"[(1165, 777)]",[],[1],[0.6833333333333333],horizontal,"(390.0, 762.0)",1.2666666666666666,0.651,1,7233.658,3,0.02,same
0,545,invalid_adjacent_other_bar,"[(1160, 795)]",[],[1],[0.5333333333333333],horizontal,"(390.0, 762.0)",0.65,0.494,1,7239.69,3,0.02,other
0,546,invalid_same_bar,"[(1144, 808)]",[],[1],[0.6],horizontal,"(390.0, 262.0)",0.43333333333333335,0.557,1,7245.007,3,0.02,same
0,547,catch,"[(1135, 789)]",[],[1],[],horizontal,"(390.0, 762.0)",1.7,nan,1,7250.376,3,0.02,same
0,548,invalid_same_bar,"[(1165, 791)]",[],[1],[0.6333333333333333],horizontal,"(890.0, 262.0)",0.7333333333333333,0.59,1,7256.636,3,0.02,same
0,549,catch,"[(1114, 811)]",[],[1],[],horizontal,"(390.0, 262.0)",1.7,nan,1,7261.809,3,0.02,same
0,550,valid,"[(1159, 802)]",[],[1],[0.5],horizontal,"(890.0, 762.0)",0.5833333333333334,0.46,1,7268.01,3,0.02,same
0,551,valid,"[(1138, 796)]",[],[1],[0.85],horizontal,"(390.0, 762.0)",0.6833333333333333,nan,0,7273.182,0,0.02,same
0,552,valid,"[(1130, 792)]",[],[1],[0.5666666666666667],horizontal,"(890.0, 762.0)",1.4666666666666666,0.524,1,7277.991,1,0.02,same
0,553,catch,"[(1165, 787)]",[],[1],[],vertical,"(390.0, 762.0)",1.7,nan,1,7283.374,1,0.02,same
0,554,valid,"[(1163, 762)]",[],[1],[0.85],vertical,"(390.0, 762.0)",1.2166666666666666,nan,0,7288.489,0,0.02,same
0,555,valid,"[(1125, 800)]",[],[1],[0.5],vertical,"(890.0, 262.0)",0.7166666666666667,0.453,1,7293.174,1,0.02,same
0,556,valid,"[(1162, 807)]",[],[1],[0.5333333333333333],horizontal,"(390.0, 762.0)",0.7,0.499,1,7297.516,1,0.02,same
0,557,catch,"[(1160, 793)]",[],[1],[],horizontal,"(390.0, 262.0)",1.7,nan,1,7302.257,1,0.02,same
0,558,valid,"[(1150, 786)]",[],[1],[0.6],horizontal,"(890.0, 762.0)",1.3,0.558,1,7307.701,2,0.02,same
0,559,catch,"[(1162, 780)]",[],[1],[],vertical,"(390.0, 762.0)",1.7,nan,1,7313.413,2,0.02,same
0,560,valid,"[(1158, 783)]",[],[1],[0.6333333333333333],horizontal,"(390.0, 262.0)",0.6166666666666667,0.588,1,7318.733,2,0.02,same
0,561,valid,"[(1155, 803)]",[],[1],[0.55],horizontal,"(390.0, 262.0)",0.5333333333333333,0.505,1,7323.997,2,0.02,same
0,562,valid,"[(1130, 820)]",[],[1],[0.6],vertical,"(890.0, 262.0)",1.3,0.555,1,7328.859,3,0.02,same
0,563,valid,"[(1140, 807)]",[],[1],[0.48333333333333334],vertical,"(890.0, 762.0)",1.1166666666666667,0.44,1,7335.097,3,0.02,same
0,564,valid,"[(1180, 794)]",[],[1],[0.85],horizontal,"(390.0, 762.0)",1.0333333333333332,nan,0,7340.874,0,0.02,same
0,565,catch,"[(1129, 792)]",[],[1],[],vertical,"(390.0, 262.0)",1.7,nan,1,7345.577,1,0.02,same
0,566,invalid_adjacent_other_bar,"[(1150, 769)]",[],[1],[0.5166666666666666],vertical,"(890.0, 262.0)",0.8666666666666667,0.475,1,7350.732,1,0.02,other
0,567,valid,"[(1165, 775)]",[],[1],[0.65],horizontal,"(390.0, 262.0)",0.45,0.603,1,7355.21,1,0.02,same
0,568,valid,"[(1140, 814)]",[],[1],[0.7],horizontal,"(890.0, 762.0)",0.5666666666666667,0.654,1,7359.859,2,0.02,same
0,569,valid,"[(1174, 798)]",[],[1],[0.5],vertical,"(390.0, 262.0)",0.7166666666666667,0.465,1,7364.991,2,0.02,same
0,570,valid,"[(1165, 776)]",[],[1],[0.5833333333333334],vertical,"(390.0, 262.0)",0.9,0.542,1,7369.957,2,0.02,same
0,571,catch,"[(1160, 787)]",[],[1],[],vertical,"(390.0, 262.0)",1.7,nan,1,7375.479,2,0.02,same
0,572,invalid_same_bar,"[(1164, 821)]",[],[1],[0.7333333333333333],horizontal,"(390.0, 262.0)",1.35,0.687,1,7381.304,3,0.02,same
0,573,catch,"[(1162, 779)]",[],[1],[],vertical,"(890.0, 762.0)",1.7,nan,1,7387.741,3,0.02,same
0,574,invalid_same_bar,"[(1156, 792)]",[],[1],[0.6666666666666666],horizontal,"(390.0, 262.0)",0.9,0.623,1,7393.936,3,0.02,same
0,575,valid,"[(1162, 787)]",[],[1],[0.6],horizontal,"(890.0, 262.0)",1.0666666666666667,0.553,1,7400.009,3,0.02,same
0,576,invalid_same_bar,"[(1165, 779)]",[],[1],[0.85],horizontal,"(390.0, 262.0)",1.25,nan,0,7406.241,0,0.02,same
0,577,valid,"[(1140, 780)]",[],[1],[0.5166666666666666],vertical,"(390.0, 262.0)",0.7,0.484,1,7410.942,1,0.02,same
0,578,valid,"[(1164, 807)]",[],[1],[0.5],vertical,"(890.0, 262.0)",1.1166666666666667,0.46,1,7415.748,1,0.02,same
0,579,catch,"[(1167, 796)]",[],[1],[],horizontal,"(390.0, 762.0)",1.7,nan,1,7420.589,1,0.02,same
0,580,valid,"[(1140, 782)]",[],[1],[0.5],horizontal,"(390.0, 262.0)",0.5833333333333334,0.456,1,7425.841,2,0.0,same
0,581,valid,"[(1146, 801)]",[],[1],[0.85],vertical,"(390.0, 762.0)",0.4666666666666667,nan,0,7431.192,0,0.0,same
0,582,catch,"[(1121, 797)]",[],[1],[],horizontal,"(390.0, 762.0)",1.7,nan,1,7435.156,1,0.0,same
0,583,catch,"[(1137, 788)]",[],[1],[],vertical,"(390.0, 762.0)",1.7,nan,1,7440.025,1,0.0,same
0,584,valid,"[(1135, 808)]",[],[1],[0.6],vertical,"(390.0, 762.0)",0.6666666666666666,0.558,1,7445.425,1,0.0,same
0,585,catch,"[(1132, 795)]",[],[1],[],vertical,"(390.0, 762.0)",1.7,nan,1,7450.042,2,0.0,same
0,586,valid,"[(1147, 774)]",[],[1],[0.85],horizontal,"(390.0, 762.0)",0.85,nan,0,7455.375,0,0.0,same
0,587,valid,"[(1120, 777)]",[],[1],[0.85],vertical,"(390.0, 762.0)",0.65,nan,0,7460.271,0,0.0,same
0,588,valid,"[(1090, 792)]",[],[1],[0.5333333333333333],horizontal,"(390.0, 262.0)",1.0666666666666667,0.491,1,7465.026,1,0.0,same
0,589,invalid_same_bar,"[(1153, 783)]",[],[1],[0.7333333333333333],vertical,"(390.0, 762.0)",0.8666666666666667,0.695,1,7470.141,1,0.0,same
0,590,catch,"[(1164, 784)]",[],[1],[],horizontal,"(890.0, 262.0)",1.7,nan,1,7475.156,1,0.0,same
0,591,valid,"[(1137, 788)]",[],[1],[0.5],horizontal,"(390.0, 762.0)",0.6333333333333333,0.458,1,7480.595,2,0.0,same
0,592,valid,"[(1160, 786)]",[],[1],[0.55],horizontal,"(390.0, 762.0)",1.2833333333333332,0.507,1,7485.791,2,0.0,same
0,593,valid,"[(1165, 777)]",[],[1],[0.5166666666666666],horizontal,"(390.0, 762.0)",0.9,0.474,1,7491.624,2,0.0,same
0,594,valid,"[(1146, 789)]",[],[1],[0.85],vertical,"(390.0, 762.0)",0.5833333333333334,nan,0,7496.775,0,0.0,same
0,595,valid,"[(1095, 786)]",[],[1],[0.5833333333333334],horizontal,"(390.0, 762.0)",1.2666666666666666,0.552,1,7500.758,1,0.0,same
0,596,valid,"[(1169, 791)]",[],[1],[0.5333333333333333],vertical,"(390.0, 762.0)",0.9166666666666666,0.492,1,7509.94,1,0.0,same
0,597,catch,"[(1138, 830)]",[],[1],[],vertical,"(890.0, 762.0)",1.7,nan,1,7514.911,1,0.0,same
0,598,catch,"[(1150, 796)]",[],[1],[],horizontal,"(890.0, 262.0)",1.7,nan,1,7520.135,2,0.0,same
0,599,invalid_same_bar,"[(1125, 846)]",[],[1],[0.31666666666666665],horizontal,"(390.0, 262.0)",0.35,0.28,1,7525.552,2,0.0,same
0,600,valid,"[(1135, 775)]",[],[1],[0.4],vertical,"(890.0, 762.0)",1.5166666666666666,0.366,1,7530.959,2,0.0,same
0,601,valid,"[(1100, 825)]",[],[1],[0.5833333333333334],vertical,"(390.0, 262.0)",0.75,0.543,1,7536.825,2,0.0,same
0,602,valid,"[(1179, 807)]",[],[1],[0.5],horizontal,"(890.0, 762.0)",0.5166666666666666,0.458,1,7611.825,3,0.0,same
0,603,catch,"[(1177, 774)]",[],[1],[],horizontal,"(390.0, 762.0)",1.7,nan,1,7617.626,3,0.0,same
0,604,valid,"[(1178, 782)]",[],[1],[0.48333333333333334],vertical,"(890.0, 262.0)",0.9,0.44,1,7623.49,3,0.0,same
0,605,catch,"[(1181, 785)]",[],[1],[],horizontal,"(890.0, 262.0)",1.7,nan,1,7629.176,3,0.0,same
0,606,valid,"[(1136, 839)]",[],[1],[0.6666666666666666],vertical,"(390.0, 262.0)",0.43333333333333335,0.623,1,7635.309,3,0.0,same
0,607,catch,"[(1161, 788)]",[],[1],[],horizontal,"(890.0, 762.0)",1.7,nan,1,7641.41,3,0.0,same
0,608,valid,"[(1149, 813)]",[],[1],[0.55],vertical,"(890.0, 762.0)",0.8666666666666667,0.502,1,7647.467,3,0.0,same
0,609,valid,"[(1156, 807)]",[],[1],[0.48333333333333334],vertical,"(390.0, 262.0)",1.1166666666666667,0.442,1,7652.898,3,0.0,same
0,610,catch,"[(1091, 812)]",[],[1],[],vertical,"(390.0, 762.0)",1.7,nan,1,7658.675,3,0.0,same
0,611,valid,"[(1160, 809)]",[],[1],[0.5166666666666666],vertical,"(390.0, 262.0)",1.3833333333333333,0.486,1,9239.352,3,0.0,same
0,612,valid,"[(1135, 781)]",[],[1],[0.6],vertical,"(890.0, 762.0)",1.0166666666666666,0.557,1,9245.933,3,0.0,same
0,613,valid,"[(1155, 777)]",[],[1],[0.85],vertical,"(890.0, 262.0)",0.4,nan,0,9251.828,0,0.0,same
0,614,valid,"[(1135, 794)]",[],[1],[0.5333333333333333],horizontal,"(890.0, 762.0)",1.4666666666666666,0.494,1,9255.815,1,0.0,same
0,615,invalid_adjacent_other_bar,"[(1141, 798)]",[],[1],[0.6166666666666667],horizontal,"(890.0, 762.0)",1.1333333333333333,0.579,1,9261.451,1,0.0,other
0,616,invalid_adjacent_other_bar,"[(1132, 793)]",[],[1],[0.5166666666666666],horizontal,"(390.0, 262.0)",0.7166666666666667,0.476,1,9266.604,1,0.0,other
0,617,catch,"[(1166, 773)]",[],[1],[],vertical,"(890.0, 262.0)",1.7,nan,1,9271.451,2,0.0,same
0,618,catch,"[(1134, 794)]",[],[1],[],horizontal,"(890.0, 262.0)",1.7,nan,1,9277.432,2,0.0,same
0,619,valid,"[(1174, 808)]",[],[1],[0.85],vertical,"(890.0, 762.0)",0.9333333333333333,nan,0,9283.015,0,0.0,same
0,620,valid,"[(1148, 797)]",[],[1],[0.65],vertical,"(890.0, 262.0)",1.05,0.605,1,9287.983,1,0.0,same
0,621,valid,"[(1166, 799)]",[],[1],[0.5833333333333334],horizontal,"(390.0, 762.0)",1.1666666666666667,0.543,1,9293.509,1,0.0,same
0,622,catch,"[(1134, 766)]",[],[1],[],horizontal,"(890.0, 762.0)",1.7,nan,1,9298.898,1,0.0,same
0,623,valid,"[(1166, 784)]",[],[1],[0.85],vertical,"(890.0, 762.0)",0.8333333333333334,nan,0,9304.486,0,0.0,same
0,624,catch,"[(1088, 812)]",[],[1],[],vertical,"(390.0, 262.0)",,"('cti', 0.427),nan",0,9308.977,0,0.02,same
0,625,valid,"[(1123, 832)]",[],[1],[0.5833333333333334],horizontal,"(390.0, 762.0)",0.6166666666666667,0.542,1,9320.449,1,0.02,same
0,626,invalid_same_bar,"[(1149, 786)]",[],[1],[0.5166666666666666],vertical,"(890.0, 762.0)",0.7,0.478,1,9325.08,1,0.02,same
0,627,valid,"[(1146, 786)]",[],[1],[0.85],vertical,"(390.0, 762.0)",1.2333333333333334,nan,0,9330.103,0,0.02,same
0,628,catch,"[(1123, 801)]",[],[1],[],vertical,"(890.0, 762.0)",1.7,nan,1,9335.25,1,0.02,same
0,629,catch,"[(1147, 785)]","[(1077, 808)]",[1],[0.03333333333333333],horizontal,"(890.0, 262.0)",,"('bar', 0.052),nan",0,9340.532,0,0.04,same
0,630,valid,"[(1070, 817)]",[],[1],[0.85],horizontal,"(390.0, 262.0)",0.6833333333333333,nan,0,9342.666,0,0.04,same
0,631,catch,"[(1098, 814)]",[],[1],[],vertical,"(890.0, 762.0)",1.7,nan,1,9348.248,1,0.04,same
0,632,valid,"[(1133, 811)]",[],[1],[0.5166666666666666],vertical,"(890.0, 762.0)",1.1666666666666667,0.476,1,9354.049,1,0.04,same
0,633,valid,"[(1132, 810)]",[],[1],[0.6333333333333333],horizontal,"(890.0, 762.0)",1.0166666666666666,0.593,1,9359.666,1,0.04,same
0,634,catch,"[(1160, 798)]",[],[1],[],vertical,"(390.0, 762.0)",1.7,nan,1,9364.75,2,0.04,same
0,635,valid,"[(1149, 801)]",[],[1],[0.65],horizontal,"(390.0, 762.0)",0.85,0.603,1,9370.705,2,0.04,same
0,636,valid,"[(1154, 800)]",[],[1],[0.85],horizontal,"(390.0, 262.0)",1.25,nan,0,9375.915,0,0.04,same
0,637,valid,"[(1137, 783)]",[],[1],[0.85],vertical,"(890.0, 262.0)",0.35,nan,0,9381.339,0,0.04,same
0,638,invalid_adjacent_other_bar,"[(1090, 860)]",[],[1],[],vertical,"(890.0, 762.0)",,"('fix', 0.642)",0,9385.732,0,0.04,other
0,639,catch,"[(1031, 931)]",[],[1],[],vertical,"(890.0, 762.0)",,"('fix', 0.334),nan",0,9391.499,0,0.06,same
0,640,valid,"[(1108, 816)]",[],[1],[0.85],vertical,"(890.0, 262.0)",0.6833333333333333,nan,0,9394.447,0,0.06,same
0,641,valid,"[(1095, 814)]",[],[1],[0.85],vertical,"(390.0, 762.0)",0.6,nan,0,9399.214,0,0.06,same
0,642,valid,"[(1121, 797)]",[],[1],[0.85],vertical,"(390.0, 262.0)",0.5333333333333333,nan,0,9404.762,0,0.06,same
0,643,valid,"[(1119, 795)]",[],[1],[0.55],horizontal,"(390.0, 262.0)",0.6666666666666666,0.508,1,9409.367,1,0.06,same
0,644,valid,"[(1131, 795)]",[],[1],[0.55],vertical,"(890.0, 262.0)",0.85,0.506,1,9414.216,1,0.06,same
0,645,valid,"[(1153, 773)]",[],[1],[0.85],horizontal,"(390.0, 262.0)",1.1666666666666667,nan,0,9419.248,0,0.06,same
0,646,valid,"[(1120, 801)]",[],[1],[0.85],horizontal,"(890.0, 762.0)",1.5166666666666666,nan,0,9424.632,0,0.06,same
0,647,valid,"[(1138, 799)]",[],[1],[0.85],horizontal,"(390.0, 262.0)",0.43333333333333335,nan,0,9430.117,0,0.06,same
0,648,valid,"[(1121, 790)]",[],[1],[0.6666666666666666],vertical,"(890.0, 262.0)",1.4333333333333333,0.626,1,9434.464,1,0.06,same
0,649,valid,"[(1167, 773)]",[],[1],[0.5333333333333333],vertical,"(890.0, 762.0)",0.36666666666666664,0.492,1,9439.886,1,0.06,same
0,650,catch,"[(1163, 777)]",[],[1],[],horizontal,"(390.0, 262.0)",1.7,nan,1,9444.367,1,0.06,same
0,651,valid,"[(1160, 795)]",[],[1],[0.65],horizontal,"(890.0, 762.0)",0.9,0.606,1,9449.564,2,0.06,same
0,652,valid,"[(1142, 778)]",[],[1],[0.55],horizontal,"(890.0, 262.0)",1.5166666666666666,0.519,1,9454.78,2,0.06,same
0,653,valid,"[(1165, 794)]",[],[1],[0.85],vertical,"(390.0, 262.0)",1.4333333333333333,nan,0,9460.623,0,0.06,same
0,654,catch,"[(1163, 792)]",[],[1],[],vertical,"(890.0, 762.0)",1.7,nan,1,9465.6,1,0.06,same
0,655,catch,"[(1166, 792)]",[],[1],[],horizontal,"(390.0, 762.0)",1.7,nan,1,9471.05,1,0.06,same
0,656,valid,"[(1157, 782)]",[],[1],[0.65],vertical,"(390.0, 262.0)",0.9833333333333333,0.606,1,9476.082,1,0.06,same
0,657,valid,"[(1165, 799)]",[],[1],[0.6666666666666666],horizontal,"(890.0, 262.0)",1.5333333333333332,0.624,1,9481.341,2,0.06,same
0,658,invalid_adjacent_other_bar,"[(1142, 791)]",[],[1],[0.6833333333333333],horizontal,"(890.0, 762.0)",1.3666666666666667,0.639,1,9487.319,2,0.06,other
0,659,valid,"[(1155, 786)]",[],[1],[0.8333333333333334],vertical,"(390.0, 762.0)",1.5333333333333332,0.791,1,9493.379,2,0.06,same
0,660,catch,"[(1133, 776)]",[],[1],[],horizontal,"(390.0, 762.0)",1.7,nan,1,9499.673,2,0.06,same
0,661,valid,"[(1165, 778)]",[],[1],[0.5166666666666666],horizontal,"(890.0, 262.0)",1.1,0.479,1,9505.333,3,0.06,same
0,662,catch,"[(1155, 794)]",[],[1],[],horizontal,"(390.0, 262.0)",1.7,nan,1,9511.25,3,0.06,same
0,663,valid,"[(1164, 774)]",[],[1],[0.5166666666666666],vertical,"(890.0, 762.0)",1.4,0.48,1,9517.331,3,0.06,same
0,664,valid,"[(1160, 780)]",[],[1],[0.6833333333333333],horizontal,"(890.0, 762.0)",1.3,0.641,1,9523.7,3,0.06,same
0,665,invalid_same_bar,"[(1156, 781)]",[],[1],[0.85],vertical,"(390.0, 762.0)",0.9833333333333333,nan,0,9529.831,0,0.06,same
0,666,valid,"[(1151, 799)]",[],[1],[0.6],horizontal,"(390.0, 262.0)",0.55,0.565,1,9534.666,1,0.06,same
0,667,invalid_same_bar,"[(1158, 784)]",[],[1],[0.5833333333333334],horizontal,"(390.0, 762.0)",1.2833333333333332,0.547,1,9539.593,1,0.06,same
0,668,valid,"[(1142, 777)]",[],[1],[0.5833333333333334],vertical,"(890.0, 262.0)",0.7666666666666666,0.551,1,9544.949,1,0.06,same
0,669,valid,"[(1162, 773)]",[],[1],[0.5166666666666666],vertical,"(890.0, 762.0)",0.8,0.484,1,9549.455,2,0.06,same
0,670,valid,"[(1158, 764)]",[],[1],[0.4666666666666667],vertical,"(890.0, 262.0)",1.5166666666666666,0.43,1,9554.362,2,0.06,same
0,671,catch,"[(1154, 777)]",[],[1],[],vertical,"(890.0, 262.0)",1.7,nan,1,9560.419,2,0.06,same
0,672,valid,"[(1166, 776)]",[],[1],[0.5166666666666666],vertical,"(390.0, 762.0)",0.5166666666666666,0.485,1,9566.216,2,0.06,same
0,673,valid,"[(1170, 789)]",[],[1],[0.85],vertical,"(390.0, 262.0)",1.3666666666666667,nan,0,9570.917,0,0.06,same
0,674,catch,"[(1143, 771)]",[],[1],[],vertical,"(390.0, 262.0)",1.7,nan,1,9576.533,1,0.04,same
0,675,valid,"[(1160, 784)]",[],[1],[0.85],horizontal,"(890.0, 762.0)",0.75,nan,0,9582.001,0,0.04,same
0,676,valid,"[(1126, 786)]",[],[1],[0.5666666666666667],horizontal,"(890.0, 262.0)",1.1833333333333333,0.524,1,9586.686,1,0.04,same
0,677,valid,"[(1168, 796)]",[],[1],[0.75],vertical,"(390.0, 262.0)",1.5166666666666666,0.705,1,9591.716,1,0.04,same
0,678,catch,"[(1159, 796)]",[],[1],[],vertical,"(390.0, 762.0)",1.7,nan,1,9597.384,1,0.04,same
0,679,valid,"[(1115, 811)]",[],[1],[0.85],vertical,"(390.0, 262.0)",0.5,nan,0,9602.95,0,0.02,same
0,680,catch,"[(1115, 803)]",[],[1],[],vertical,"(890.0, 762.0)",1.7,nan,1,9607.157,1,0.02,same
0,681,invalid_same_bar,"[(1164, 791)]",[],[1],[0.85],vertical,"(390.0, 762.0)",0.6833333333333333,nan,0,9612.538,0,0.02,same
0,682,valid,"[(1137, 796)]",[],[1],[0.48333333333333334],vertical,"(890.0, 762.0)",0.43333333333333335,0.445,1,9617.266,1,0.02,same
0,683,catch,"[(1137, 760)]",[],[1],[],vertical,"(390.0, 762.0)",1.7,nan,1,9621.881,1,0.02,same
0,684,valid,"[(1158, 769)]",[],[1],[0.85],horizontal,"(390.0, 762.0)",0.7666666666666666,nan,0,9627.299,0,0.02,same
0,685,invalid_adjacent_other_bar,"[(1167, 795)]",[],[1],[0.6333333333333333],horizontal,"(390.0, 762.0)",0.4666666666666667,0.603,1,9632.037,1,0.02,other
0,686,valid,"[(1155, 785)]",[],[1],[0.5666666666666667],vertical,"(390.0, 262.0)",1.3166666666666667,0.531,1,9636.731,1,0.02,same
0,687,valid,"[(1135, 792)]",[],[1],[0.06666666666666667],vertical,"(390.0, 762.0)",1.25,0.034,0,9642.179,0,0.02,same
0,688,valid,"[(1140, 772)]",[],[1],[0.6],horizontal,"(890.0, 262.0)",0.9666666666666667,0.556,1,9646.486,1,0.02,same
0,689,valid,"[(1160, 797)]",[],[1],[0.5166666666666666],horizontal,"(890.0, 762.0)",0.48333333333333334,0.481,1,9651.9,1,0.0,same
0,690,invalid_adjacent_other_bar,"[(1165, 791)]",[],[1],[0.6166666666666667],horizontal,"(390.0, 762.0)",0.9166666666666666,0.574,1,9656.595,1,0.0,other
0,691,catch,"[(1166, 767)]",[],[1],[],vertical,"(390.0, 762.0)",1.7,nan,1,9661.568,2,0.0,same
0,692,valid,"[(1164, 778)]",[],[1],[0.55],horizontal,"(890.0, 262.0)",1.1166666666666667,0.513,1,9667.391,2,0.0,same
0,693,catch,"[(1165, 798)]",[],[1],[],vertical,"(890.0, 262.0)",1.7,nan,1,9672.894,2,0.0,same
0,694,invalid_adjacent_other_bar,"[(1163, 804)]",[],[1],[0.85],vertical,"(890.0, 262.0)",1.4,nan,0,9679.159,0,0.0,other
0,695,valid,"[(1140, 802)]",[],[1],[0.85],horizontal,"(390.0, 262.0)",1.2333333333333334,nan,0,9684.892,0,0.0,same
0,696,catch,"[(1131, 798)]",[],[1],[],horizontal,"(390.0, 262.0)",1.7,nan,1,9689.917,1,0.0,same
0,697,catch,"[(1136, 791)]",[],[1],[],horizontal,"(390.0, 762.0)",1.7,nan,1,9695.026,1,0.0,same
0,698,catch,"[(1090, 821)]",[],[1],[],horizontal,"(390.0, 762.0)",1.7,nan,1,9700.034,1,0.0,same
0,699,catch,"[(1126, 795)]",[],[1],[],vertical,"(390.0, 262.0)",1.7,nan,1,9705.539,2,0.0,same
0,700,valid,"[(1086, 839)]",[],[1],[0.5],horizontal,"(390.0, 762.0)",0.35,0.457,1,9711.315,2,0.0,same
0,701,valid,"[(1130, 809)]",[],[1],[0.5666666666666667],vertical,"(890.0, 762.0)",0.5,0.528,1,10045.283,2,0.0,same
0,702,catch,"[(1135, 782)]",[],[1],[],horizontal,"(890.0, 762.0)",1.7,nan,1,10050.022,2,0.0,same
0,703,catch,"[(1132, 798)]",[],[1],[],horizontal,"(390.0, 262.0)",1.7,nan,1,10055.452,3,0.0,same
0,704,invalid_adjacent_other_bar,"[(1163, 782)]",[],[1],[0.5166666666666666],horizontal,"(390.0, 262.0)",1.3333333333333333,0.478,1,10061.801,3,0.0,other
0,705,valid,"[(1131, 792)]",[],[1],[0.5],vertical,"(890.0, 762.0)",1.1333333333333333,0.458,1,10068.064,3,0.0,same
0,706,valid,"[(1146, 778)]",[],[1],[0.5333333333333333],vertical,"(890.0, 762.0)",1.05,0.499,1,10073.734,3,0.0,same
0,707,valid,"[(1148, 778)]",[],[1],[0.48333333333333334],vertical,"(390.0, 262.0)",0.6666666666666666,0.448,1,10079.419,3,0.0,same
0,708,catch,"[(1143, 809)]",[],[1],[],vertical,"(890.0, 762.0)",1.7,nan,1,10084.419,3,0.0,same
0,709,valid,"[(1162, 795)]",[],[1],[0.6166666666666667],horizontal,"(890.0, 262.0)",0.9833333333333333,0.576,1,10090.694,3,0.0,same
0,710,valid,"[(1155, 792)]",[],[1],[0.7166666666666667],vertical,"(890.0, 762.0)",1.5333333333333332,0.672,1,10096.862,3,0.0,same
0,711,invalid_same_bar,"[(1162, 804)]",[],[1],[0.6666666666666666],vertical,"(390.0, 262.0)",1.5166666666666666,0.623,1,10103.65,3,0.0,same
0,712,catch,"[(1140, 774)]",[],[1],[],vertical,"(390.0, 262.0)",1.7,nan,1,10110.334,3,0.0,same
0,713,valid,"[(1164, 786)]",[],[1],[0.5333333333333333],horizontal,"(890.0, 262.0)",1.35,0.492,1,10116.529,3,0.0,same
0,714,valid,"[(1166, 791)]",[],[1],[0.6166666666666667],vertical,"(390.0, 762.0)",0.35,0.577,1,10122.955,3,0.0,same
0,715,valid,"[(1151, 788)]",[],[1],[0.5333333333333333],vertical,"(890.0, 762.0)",1.1666666666666667,0.488,1,10128.368,3,0.0,same
0,716,valid,"[(1155, 799)]",[],[1],[0.5666666666666667],vertical,"(390.0, 262.0)",1.4333333333333333,0.527,1,10134.542,3,0.0,same
0,717,valid,"[(1160, 783)]",[],[1],[0.55],vertical,"(390.0, 262.0)",0.8833333333333333,0.505,1,10140.768,3,0.0,same
0,718,valid,"[(1161, 777)]",[],[1],[0.55],vertical,"(390.0, 262.0)",1.5333333333333332,0.505,1,10146.608,3,0.0,same
0,719,valid,"[(1162, 806)]",[],[1],[0.48333333333333334],horizontal,"(890.0, 262.0)",0.4666666666666667,0.442,1,10152.558,3,0.0,same
0,720,valid,"[(1170, 798)]",[],[1],[0.6166666666666667],horizontal,"(390.0, 262.0)",1.0833333333333333,0.582,1,10158.002,3,0.0,same
0,721,valid,"[(1132, 786)]",[],[1],[0.5],vertical,"(390.0, 262.0)",0.7,0.458,1,10164.091,3,0.0,same
0,722,invalid_adjacent_other_bar,"[(1169, 799)]",[],[1],[0.85],vertical,"(390.0, 762.0)",0.8,nan,0,10169.699,0,0.0,other
0,723,valid,"[(1140, 796)]",[],[1],[0.6],vertical,"(890.0, 762.0)",0.5166666666666666,0.556,1,10174.664,1,0.0,same
0,724,catch,"[(1146, 803)]",[],[1],[],vertical,"(390.0, 762.0)",1.7,nan,1,10178.92,1,0.0,same
0,725,invalid_same_bar,"[(1145, 763)]",[],[1],[0.85],vertical,"(390.0, 762.0)",0.4166666666666667,nan,0,10184.002,0,0.0,same
0,726,valid,"[(1126, 798)]",[],[1],[0.5833333333333334],horizontal,"(890.0, 762.0)",0.35,0.543,1,10188.102,1,0.0,same
0,727,invalid_same_bar,"[(1148, 774)]",[],[1],[0.5666666666666667],horizontal,"(390.0, 262.0)",0.9833333333333333,0.53,1,10192.803,1,0.0,same
0,728,valid,"[(1165, 791)]",[],[1],[0.5833333333333334],horizontal,"(390.0, 762.0)",0.9833333333333333,0.538,1,10197.636,1,0.0,same
0,729,valid,"[(1171, 802)]",[],[1],[0.85],vertical,"(390.0, 762.0)",0.55,nan,0,10202.551,0,0.0,same
0,730,catch,"[(1144, 783)]",[],[1],[],vertical,"(390.0, 262.0)",1.7,nan,1,10207.037,1,0.0,same
0,731,catch,"[(1131, 784)]",[],[1],[],vertical,"(890.0, 262.0)",1.7,nan,1,10212.418,1,0.0,same
0,732,catch,"[(1125, 811)]",[],[1],[],horizontal,"(890.0, 762.0)",1.7,nan,1,10217.385,1,0.0,same
0,733,valid,"[(1136, 773)]",[],[1],[0.5],vertical,"(890.0, 762.0)",1.4333333333333333,0.458,1,10222.893,2,0.0,same
0,734,catch,"[(1174, 791)]",[],[1],[],vertical,"(390.0, 762.0)",,"('fix', 0.37),nan",0,10228.961,0,0.02,same
0,735,catch,"[(1101, 815)]",[],[1],[],vertical,"(390.0, 262.0)",1.7,nan,1,10230.97,1,0.02,same
0,736,valid,"[(1150, 783)]",[],[1],[0.5166666666666666],horizontal,"(890.0, 262.0)",0.9666666666666667,0.476,1,10236.152,1,0.02,same
0,737,valid,"[(1140, 772)]",[],[1],[0.85],vertical,"(890.0, 262.0)",1.3666666666666667,nan,0,10241.187,0,0.02,same
0,738,invalid_same_bar,"[(1136, 774)]",[],[1],[0.5833333333333334],vertical,"(390.0, 762.0)",0.85,0.541,1,10246.453,1,0.02,same
0,739,valid,"[(1133, 790)]",[],[1],[0.6],horizontal,"(890.0, 262.0)",1.1,0.557,1,10251.285,1,0.02,same
0,740,invalid_same_bar,"[(1136, 787)]",[],[1],[0.55],horizontal,"(390.0, 762.0)",0.6833333333333333,0.513,1,10256.238,1,0.02,same
0,741,valid,"[(1168, 805)]",[],[1],[0.6333333333333333],vertical,"(390.0, 762.0)",1.0,0.599,1,10260.702,2,0.02,same
0,742,catch,"[(1164, 795)]",[],[1],[],horizontal,"(890.0, 262.0)",1.7,nan,1,10266.402,2,0.02,same
0,743,valid,"[(1131, 775)]",[],[1],[0.5],vertical,"(390.0, 262.0)",0.45,0.461,1,10272.136,2,0.02,same
0,744,valid,"[(1140, 785)]",[],[1],[0.6],horizontal,"(390.0, 762.0)",1.2,0.56,1,10276.904,2,0.02,same
0,745,valid,"[(1161, 777)]",[],[1],[0.85],vertical,"(890.0, 262.0)",0.45,nan,0,10282.584,0,0.02,same
0,746,valid,"[(1115, 812)]",[],[1],[0.7],horizontal,"(390.0, 262.0)",0.8666666666666667,0.657,1,10287.249,1,0.02,same
0,747,invalid_same_bar,"[(1168, 795)]",[],[1],[],vertical,"(390.0, 762.0)",,"('fix', 0.396)",0,10298.398,0,0.02,same
0,748,valid,"[(1119, 774)]",[],[1],[0.85],horizontal,"(390.0, 262.0)",1.5333333333333332,nan,0,10300.472,0,0.02,same
0,749,valid,"[(1070, 793)]",[],[1],[0.6166666666666667],horizontal,"(890.0, 762.0)",1.25,0.571,1,10305.82,1,0.02,same
0,750,valid,"[(1165, 793)]",[],[1],[0.85],vertical,"(390.0, 262.0)",1.3333333333333333,nan,0,10311.176,0,0.02,same
0,751,catch,"[(1127, 783)]",[],[1],[],vertical,"(890.0, 262.0)",1.7,nan,1,10316.236,1,0.02,same
0,752,invalid_same_bar,"[(1140, 781)]",[],[1],[0.85],vertical,"(890.0, 262.0)",0.5833333333333334,nan,0,10321.501,0,0.02,same
0,753,valid,"[(1135, 772)]",[],[1],[0.7],vertical,"(890.0, 762.0)",1.2833333333333332,0.658,1,10325.787,1,0.02,same
0,754,valid,"[(1142, 793)]",[],[1],[0.55],vertical,"(390.0, 762.0)",1.3333333333333333,0.513,1,10331.087,1,0.02,same
0,755,valid,"[(1136, 797)]",[],[1],[0.5333333333333333],vertical,"(890.0, 262.0)",0.7333333333333333,0.498,1,10336.485,1,0.02,same
0,756,catch,"[(1140, 790)]",[],[1],[],horizontal,"(890.0, 762.0)",1.7,nan,1,10341.669,2,0.02,same
0,757,valid,"[(1166, 795)]",[],[1],[0.6333333333333333],horizontal,"(890.0, 262.0)",0.7,0.592,1,10347.47,2,0.02,same
0,758,invalid_same_bar,"[(1160, 796)]",[],[1],[0.7333333333333333],horizontal,"(890.0, 762.0)",1.4333333333333333,0.688,1,10352.986,2,0.02,same
0,759,catch,"[(1155, 792)]",[],[1],[],vertical,"(890.0, 262.0)",1.7,nan,1,10359.202,2,0.02,same
0,760,valid,"[(1164, 789)]",[],[1],[0.7166666666666667],vertical,"(390.0, 762.0)",1.05,0.672,1,10364.569,3,0.02,same
0,761,valid,"[(1165, 772)]",[],[1],[0.7166666666666667],vertical,"(890.0, 762.0)",1.45,0.674,1,10370.902,3,0.02,same
0,762,valid,"[(1171, 784)]",[],[1],[0.65],horizontal,"(390.0, 762.0)",1.15,0.616,1,10377.119,3,0.02,same
0,763,valid,"[(1161, 776)]",[],[1],[0.5333333333333333],horizontal,"(390.0, 262.0)",0.8333333333333334,0.492,1,10383.469,3,0.02,same
0,764,valid,"[(1150, 777)]",[],[1],[0.5333333333333333],horizontal,"(890.0, 262.0)",0.9666666666666667,0.495,1,10389.285,3,0.02,same
0,765,catch,"[(1163, 791)]",[],[1],[],horizontal,"(390.0, 262.0)",1.7,nan,1,10395.069,3,0.02,same
0,766,valid,"[(1165, 779)]",[],[1],[0.5166666666666666],horizontal,"(890.0, 762.0)",1.35,0.477,1,10401.353,3,0.02,same
0,767,invalid_adjacent_other_bar,"[(1160, 781)]",[],[1],[0.5333333333333333],horizontal,"(390.0, 762.0)",0.9333333333333333,0.498,1,10407.642,3,0.02,other
0,768,valid,"[(1167, 779)]",[],[1],[0.5666666666666667],horizontal,"(390.0, 762.0)",1.25,0.521,1,10413.168,3,0.02,same
0,769,valid,"[(1163, 801)]",[],[1],[0.5],vertical,"(890.0, 262.0)",0.3833333333333333,0.461,1,10419.487,3,0.02,same
0,770,invalid_adjacent_other_bar,"[(1137, 766)]",[],[1],[0.5833333333333334],horizontal,"(890.0, 762.0)",0.9,0.545,1,10425.053,3,0.02,other
0,771,valid,"[(1165, 789)]",[],[1],[0.85],vertical,"(390.0, 262.0)",1.2833333333333332,nan,0,10431.086,0,0.02,same
0,772,valid,"[(1134, 786)]",[],[1],[0.7333333333333333],vertical,"(390.0, 262.0)",1.3166666666666667,0.691,1,10436.544,1,0.02,same
0,773,valid,"[(1155, 790)]",[],[1],[0.55],vertical,"(890.0, 262.0)",1.3333333333333333,0.511,1,10442.308,1,0.02,same
0,774,valid,"[(1156, 784)]",[],[1],[0.5333333333333333],vertical,"(890.0, 262.0)",0.4666666666666667,0.502,1,10447.52,1,0.02,same
0,775,catch,"[(1161, 796)]",[],[1],[],horizontal,"(390.0, 762.0)",1.7,nan,1,10452.171,2,0.02,same
0,776,valid,"[(1165, 774)]",[],[1],[0.65],vertical,"(390.0, 762.0)",1.25,0.61,1,10457.953,2,0.02,same
0,777,invalid_adjacent_other_bar,"[(1166, 782)]",[],[1],[0.6833333333333333],vertical,"(890.0, 262.0)",1.2333333333333334,0.64,1,10463.503,2,0.02,other
0,778,invalid_same_bar,"[(1163, 779)]",[],[1],[0.5833333333333334],vertical,"(390.0, 262.0)",1.5,0.539,1,10469.62,2,0.02,same
0,779,valid,"[(1166, 807)]",[],[1],[0.5333333333333333],horizontal,"(390.0, 262.0)",0.55,0.5,1,10475.314,3,0.02,same
0,780,catch,"[(1158, 789)]",[],[1],[],vertical,"(890.0, 762.0)",1.7,nan,1,10480.787,3,0.02,same
0,781,invalid_same_bar,"[(1157, 762)]",[],[1],[0.65],vertical,"(390.0, 762.0)",1.0666666666666667,0.611,1,10486.573,3,0.02,same
0,782,valid,"[(1167, 795)]",[],[1],[0.8],vertical,"(890.0, 262.0)",1.3,0.759,1,10492.462,3,0.02,same
0,783,valid,"[(1160, 778)]",[],[1],[0.4666666666666667],horizontal,"(890.0, 262.0)",1.0333333333333332,0.433,1,10499.003,3,0.02,same
0,784,valid,"[(1165, 784)]",[],[1],[0.55],vertical,"(890.0, 262.0)",0.95,0.515,1,10504.837,3,0.0,same
0,785,catch,"[(1150, 789)]",[],[1],[],vertical,"(390.0, 262.0)",,"('cti', 1.524),nan",0,10510.752,0,0.02,same
0,786,valid,"[(1145, 786)]",[],[1],[0.5],horizontal,"(890.0, 262.0)",1.1,0.458,1,10515.702,1,0.02,same
0,787,catch,"[(1150, 775)]",[],[1],[],vertical,"(890.0, 262.0)",1.7,nan,1,10520.674,1,0.02,same
0,788,valid,"[(1165, 800)]",[],[1],[0.55],vertical,"(890.0, 762.0)",0.3833333333333333,0.509,1,10525.57,1,0.02,same
0,789,catch,"[(1135, 773)]",[],[1],[],vertical,"(890.0, 762.0)",1.7,nan,1,10529.804,2,0.02,same
0,790,valid,"[(1160, 784)]",[],[1],[0.55],vertical,"(390.0, 762.0)",1.0833333333333333,0.506,1,10535.403,2,0.02,same
0,791,invalid_adjacent_other_bar,"[(1168, 788)]",[],[1],[0.5833333333333334],horizontal,"(890.0, 262.0)",0.8666666666666667,0.535,1,10540.953,2,0.02,other
0,792,invalid_same_bar,"[(1178, 806)]",[],[1],[0.5166666666666666],horizontal,"(890.0, 262.0)",1.5166666666666666,0.474,1,10546.365,2,0.02,same
0,793,catch,"[(1142, 807)]",[],[1],[],vertical,"(890.0, 762.0)",1.7,nan,1,10552.288,3,0.02,same
0,794,valid,"[(1163, 777)]",[],[1],[0.5833333333333334],vertical,"(890.0, 762.0)",1.4,0.544,1,10558.887,3,0.02,same
0,795,valid,"[(1165, 797)]",[],[1],[0.5333333333333333],horizontal,"(390.0, 762.0)",1.4833333333333334,0.497,1,10565.046,3,0.02,same
0,796,valid,"[(1165, 794)]",[],[1],[0.5166666666666666],vertical,"(390.0, 262.0)",1.0833333333333333,0.474,1,10571.358,3,0.02,same
0,797,valid,"[(1135, 768)]",[],[1],[0.5333333333333333],vertical,"(890.0, 262.0)",0.8,0.494,1,10577.453,3,0.02,same
0,798,valid,"[(1157, 786)]",[],[1],[0.55],horizontal,"(890.0, 762.0)",1.3833333333333333,0.513,1,10583.118,3,0.02,same
0,799,valid,"[(1161, 788)]",[],[1],[0.65],vertical,"(890.0, 262.0)",0.7666666666666666,0.61,1,10589.036,3,0.02,same
0,800,valid,"[(1169, 799)]",[],[1],[0.5666666666666667],vertical,"(390.0, 762.0)",0.45,0.525,1,10594.979,3,0.02,same
0,801,catch,"[(1137, 772)]",[],[1],[],horizontal,"(890.0, 262.0)",1.7,nan,1,10600.555,3,0.02,same
0,802,valid,"[(1164, 803)]",[],[1],[0.6833333333333333],vertical,"(390.0, 262.0)",1.4833333333333334,0.641,1,10606.465,3,0.02,same
0,803,valid,"[(1174, 781)]",[],[1],[0.85],horizontal,"(390.0, 262.0)",1.4833333333333334,nan,0,10613.038,0,0.02,same
0,804,valid,"[(1138, 795)]",[],[1],[0.6],horizontal,"(390.0, 262.0)",1.1833333333333333,0.563,1,10618.587,1,0.02,same
0,805,valid,"[(1115, 782)]",[],[1],[0.6166666666666667],horizontal,"(390.0, 762.0)",1.1333333333333333,0.576,1,10624.071,1,0.02,same
0,806,catch,"[(1163, 795)]",[],[1],[],vertical,"(390.0, 262.0)",1.7,nan,1,10629.071,1,0.02,same
0,807,invalid_same_bar,"[(1133, 766)]",[],[1],[0.85],horizontal,"(390.0, 262.0)",0.4,nan,0,10634.155,0,0.02,same
0,808,valid,"[(1128, 771)]",[],[1],[0.8],vertical,"(890.0, 262.0)",1.1,0.76,1,10638.805,1,0.02,same
0,809,invalid_same_bar,"[(1087, 833)]",[],[1],[0.5666666666666667],horizontal,"(890.0, 762.0)",1.0666666666666667,0.52,1,10644.402,1,0.02,same
0,810,valid,"[(1157, 809)]",[],[1],[0.6333333333333333],horizontal,"(390.0, 762.0)",1.2,0.587,1,16039.691,1,0.02,same
0,811,valid,"[(1136, 811)]",[],[1],[0.5333333333333333],horizontal,"(890.0, 262.0)",0.4166666666666667,0.489,1,16044.909,2,0.02,same
0,812,valid,"[(1120, 805)]",[],[1],[0.5666666666666667],vertical,"(390.0, 762.0)",0.8833333333333333,0.53,1,16050.342,2,0.02,same
0,813,valid,"[(1160, 781)]",[],[1],[0.48333333333333334],horizontal,"(890.0, 262.0)",0.9666666666666667,0.446,1,16055.532,2,0.02,same
0,814,catch,"[(1140, 800)]",[],[1],[],horizontal,"(390.0, 262.0)",1.7,nan,1,16060.741,2,0.02,same
0,815,valid,"[(1163, 792)]",[],[1],[0.5666666666666667],horizontal,"(390.0, 762.0)",0.8333333333333334,0.522,1,16066.658,3,0.02,same
0,816,valid,"[(1163, 778)]",[],[1],[0.7666666666666666],vertical,"(390.0, 262.0)",1.0333333333333332,0.724,1,16072.555,3,0.02,same
0,817,valid,"[(1164, 772)]",[],[1],[0.65],vertical,"(390.0, 762.0)",0.75,0.606,1,16078.371,3,0.02,same
0,818,catch,"[(1160, 772)]",[],[1],[],horizontal,"(390.0, 762.0)",1.7,nan,1,16084.18,3,0.02,same
0,819,valid,"[(1148, 779)]",[],[1],[0.5166666666666666],vertical,"(390.0, 262.0)",1.4666666666666666,0.472,1,16090.19,3,0.02,same
0,820,invalid_adjacent_other_bar,"[(1164, 778)]",[],[1],[0.5333333333333333],horizontal,"(390.0, 262.0)",1.5333333333333332,0.493,1,16096.485,3,0.02,other
0,821,catch,"[(1142, 776)]",[],[1],[],vertical,"(390.0, 762.0)",1.7,nan,1,16102.791,3,0.02,same
0,822,valid,"[(1163, 795)]",[],[1],[0.5166666666666666],horizontal,"(890.0, 262.0)",0.5833333333333334,0.474,1,16108.858,3,0.02,same
0,823,catch,"[(1161, 792)]",[],[1],[],horizontal,"(890.0, 262.0)",1.7,nan,1,16114.099,3,0.02,same
0,824,valid,"[(1140, 772)]",[],[1],[0.5],vertical,"(890.0, 262.0)",1.0333333333333332,0.461,1,16120.33,3,0.02,same
0,825,valid,"[(1163, 772)]",[],[1],[0.5],vertical,"(890.0, 762.0)",1.35,0.459,1,16125.813,3,0.02,same
0,826,valid,"[(1157, 801)]",[],[1],[0.5],vertical,"(390.0, 762.0)",0.8,0.465,1,16132.153,3,0.02,same
0,827,catch,"[(1162, 786)]",[],[1],[],horizontal,"(390.0, 762.0)",1.7,nan,1,16137.599,3,0.02,same
0,828,valid,"[(1145, 782)]",[],[1],[0.85],horizontal,"(390.0, 762.0)",0.43333333333333335,nan,0,16143.51,0,0.02,same
0,829,catch,"[(1098, 774)]",[],[1],[],horizontal,"(390.0, 262.0)",1.7,nan,1,16147.813,1,0.02,same
0,830,valid,"[(1137, 771)]",[],[1],[0.5],vertical,"(390.0, 262.0)",0.7166666666666667,0.46,1,16153.045,1,0.02,same
0,831,valid,"[(1137, 774)]",[],[1],[0.5666666666666667],vertical,"(390.0, 262.0)",1.5333333333333332,0.523,1,16157.824,1,0.02,same
0,832,valid,"[(1145, 782)]",[],[1],[0.7333333333333333],vertical,"(390.0, 762.0)",1.3833333333333333,0.685,1,16163.227,2,0.02,same
0,833,invalid_adjacent_other_bar,"[(1159, 776)]",[],[1],[0.6],vertical,"(390.0, 262.0)",1.0,0.557,1,16169.231,2,0.02,other
0,834,valid,"[(1139, 779)]",[],[1],[0.5833333333333334],horizontal,"(890.0, 262.0)",0.55,0.543,1,16174.933,2,0.02,same
0,835,valid,"[(1145, 776)]",[],[1],[0.6333333333333333],horizontal,"(390.0, 262.0)",0.45,0.593,1,16179.809,2,0.0,same
0,836,valid,"[(1160, 801)]",[],[1],[0.5],horizontal,"(890.0, 262.0)",0.5333333333333333,0.464,1,16184.688,3,0.0,same
0,837,valid,"[(1148, 776)]",[],[1],[0.5833333333333334],horizontal,"(390.0, 762.0)",0.4,0.541,1,16190.029,3,0.0,same
0,838,valid,"[(1161, 777)]",[],[1],[0.5333333333333333],vertical,"(390.0, 762.0)",1.15,0.489,1,16195.191,3,0.0,same
0,839,catch,"[(1155, 782)]",[],[1],[],vertical,"(390.0, 762.0)",1.7,nan,1,16201.07,3,0.0,same
0,840,valid,"[(1134, 780)]",[],[1],[0.5833333333333334],horizontal,"(890.0, 262.0)",1.4666666666666666,0.539,1,16206.925,3,0.0,same
0,841,valid,"[(1164, 778)]",[],[1],[0.85],vertical,"(390.0, 262.0)",1.2833333333333332,nan,0,16213.341,0,0.0,same
0,842,valid,"[(1150, 800)]",[],[1],[0.5666666666666667],vertical,"(390.0, 762.0)",0.5333333333333333,0.525,1,16218.447,1,0.0,same
0,843,valid,"[(1138, 796)]",[],[1],[0.6333333333333333],vertical,"(390.0, 762.0)",1.1666666666666667,0.59,1,16223.426,1,0.0,same
0,844,valid,"[(1169, 788)]",[],[1],[0.7],vertical,"(390.0, 262.0)",1.5333333333333332,0.66,1,16228.574,1,0.0,same
0,845,catch,"[(1156, 787)]",[],[1],[],vertical,"(890.0, 762.0)",1.7,nan,1,16234.443,2,0.0,same
0,846,catch,"[(1150, 789)]",[],[1],[],horizontal,"(890.0, 762.0)",1.7,nan,1,16240.528,2,0.0,same
0,847,valid,"[(1139, 784)]",[],[1],[0.36666666666666664],vertical,"(890.0, 262.0)",1.35,0.328,1,16246.334,2,0.0,same
0,848,valid,"[(1140, 786)]",[],[1],[0.5166666666666666],vertical,"(890.0, 262.0)",0.9166666666666666,0.477,1,16251.467,2,0.0,same
0,849,valid,"[(1125, 801)]",[],[1],[0.6166666666666667],vertical,"(390.0, 262.0)",0.9833333333333333,0.57,1,16256.537,3,0.0,same
0,850,catch,"[(1135, 794)]",[],[1],[],vertical,"(390.0, 262.0)",1.7,nan,1,16262.263,3,0.0,same
0,851,catch,"[(1123, 773)]",[],[1],[],vertical,"(890.0, 262.0)",1.7,nan,1,16268.293,3,0.0,same
0,852,invalid_adjacent_other_bar,"[(1134, 777)]",[],[1],[0.6333333333333333],vertical,"(390.0, 262.0)",0.5,0.593,1,16274.51,3,0.0,other
0,853,valid,"[(1144, 782)]",[],[1],[0.6333333333333333],vertical,"(890.0, 262.0)",0.36666666666666664,0.592,1,16280.154,3,0.0,same
0,854,valid,"[(1137, 769)]",[],[1],[0.5333333333333333],vertical,"(890.0, 762.0)",0.6166666666666667,0.491,1,16285.126,3,0.0,same
0,855,valid,"[(1136, 801)]",[],[1],[0.5],horizontal,"(890.0, 262.0)",0.7166666666666667,0.457,1,16290.406,3,0.0,same
0,856,valid,"[(1135, 784)]",[],[1],[0.5333333333333333],vertical,"(390.0, 262.0)",0.6833333333333333,0.491,1,16296.01,3,0.0,same
0,857,valid,"[(1132, 786)]",[],[1],[0.85],horizontal,"(390.0, 762.0)",0.5166666666666666,nan,0,16301.442,0,0.0,same
0,858,valid,"[(1096, 791)]",[],[1],[0.75],horizontal,"(890.0, 262.0)",0.45,0.705,1,16305.959,1,0.0,same
0,859,valid,"[(1130, 804)]",[],[1],[0.5333333333333333],horizontal,"(390.0, 762.0)",1.35,0.498,1,16311.543,1,0.0,same
0,860,valid,"[(1090, 802)]",[],[1],[0.08333333333333333],vertical,"(390.0, 262.0)",0.5333333333333333,0.051,0,16316.726,0,0.0,same
0,861,valid,"[(1111, 780)]",[],[1],[0.5],horizontal,"(890.0, 762.0)",1.4,0.458,1,16320.509,1,0.0,same
0,862,invalid_same_bar,"[(1136, 775)]",[],[1],[0.5833333333333334],horizontal,"(890.0, 262.0)",1.4833333333333334,0.541,1,16326.088,1,0.0,same
0,863,catch,"[(1133, 800)]",[],[1],[],horizontal,"(390.0, 762.0)",1.7,nan,1,16331.712,1,0.0,same
0,864,valid,"[(1146, 803)]",[],[1],[0.5166666666666666],vertical,"(890.0, 262.0)",1.2,0.474,1,16337.059,2,0.0,same
0,865,valid,"[(1138, 787)]",[],[1],[0.5333333333333333],vertical,"(890.0, 262.0)",0.8666666666666667,0.492,1,16342.313,2,0.0,same
0,866,catch,"[(1136, 789)]",[],[1],[],vertical,"(890.0, 262.0)",1.7,nan,1,16348.009,2,0.0,same
0,867,valid,"[(1131, 806)]",[],[1],[0.5666666666666667],horizontal,"(890.0, 762.0)",1.4333333333333333,0.524,1,16353.2,2,0.0,same
