block,trial,trial_type,taps_start_loc_during_fix,taps_end_loc_during_fix,taps_on_lever_during_fix,taps_on_lever_s_during_fix,bar_orientation,target_xy,cti,rt,acc,time,pulses
0,1,target,"[(1077, 888)]",[],[1],[0.45],horizontal,"(390.0, 762.0)",1.5166666666666666,0.416,1,0.065,1
0,2,target,"[(1077, 887)]",[],[1],[0.45],horizontal,"(890.0, 262.0)",1.3666666666666667,0.414,1,6.065,1
0,3,target,"[(344, 837), (1064, 287), (1060, 353), (1088, 417), (1017, 969), (1013, 985), (1027, 948), (361, 619), (1009, 979), (1024, 980), (1001, 973), (1013, 960), (1028, 954), (1033, 982), (1021, 960), (997, 960), (1032, 945), (404, 501), (1028, 958), (1013, 967), (1035, 955), (472, 597), (1011, 970), (661, 645), (1029, 937)]",[],"[0, 0, 0, 0, 0, 0, 0, 0, 0, 0, 0, 0, 0, 0, 0, 0, 0, 0, 0, 0, 0, 0, 0, 0, 1]",[],vertical,"(390.0, 262.0)",,"('cti', 1.28)",0,11.062,0
0,4,catch,"[(1039, 965), (1041, 970), (1038, 954), (358, 372), (1014, 957), (1040, 975), (1011, 975), (539, 580), (1005, 983), (550, 495), (1005, 970), (1001, 928), (1019, 961), (573, 468), (602, 668), (1014, 975), (945, 841), (1030, 916)]",[],"[0, 0, 0, 0, 0, 0, 0, 0, 0, 0, 0, 0, 0, 0, 0, 0, 0, 1]",[],vertical,"(890.0, 762.0)",,"('fix', 0.051),nan",0,6798.873,0
0,5,target,"[(1013, 975), (1025, 939)]",[],"[0, 1]",[0.5166666666666666],vertical,"(390.0, 762.0)",0.6833333333333333,0.48,1,6841.379,1
0,6,target,"[(1052, 942)]",[],[1],[0.85],vertical,"(890.0, 762.0)",0.9333333333333333,nan,0,6847.773,0
0,7,target,"[(1036, 963), (1022, 956), (549, 691), (1017, 955), (566, 554), (1003, 965), (1033, 953), (514, 500), (1003, 922), (993, 969), (1028, 964), (1021, 945), (1014, 967), (1020, 965), (1005, 967), (1033, 928)]",[],"[0, 0, 0, 0, 0, 0, 0, 0, 0, 0, 0, 0, 0, 0, 0, 1]",[0.85],vertical,"(390.0, 762.0)",0.6166666666666667,nan,0,6852.256,0
0,8,target,"[(1033, 951), (1029, 962), (1033, 932)]",[],"[0, 0, 1]",[0.06666666666666667],vertical,"(390.0, 762.0)",1.6,0.036,0,6900.623,0
0,9,target,"[(1033, 940)]",[],[1],[0.5],horizontal,"(890.0, 262.0)",0.5833333333333334,0.454,1,6908.613,1
0,10,target,"[(1029, 947), (1037, 951), (1021, 941)]",[],"[0, 0, 1]",[0.6333333333333333],horizontal,"(890.0, 762.0)",1.4,0.589,1,6912.81,1
0,11,target,"[(1039, 924)]",[],[1],[0.3833333333333333],vertical,"(390.0, 762.0)",1.6666666666666667,0.345,1,6920.951,1
0,12,target,"[(1036, 951), (1033, 949), (1032, 970), (432, 587), (1029, 919)]",[],"[0, 0, 0, 0, 1]",[0.5166666666666666],vertical,"(390.0, 262.0)",0.7,0.472,1,6926.106,2
0,13,target,"[(1032, 955), (1029, 949), (1040, 964), (386, 530), (1001, 964), (1030, 954), (1005, 980), (1001, 987), (540, 576), (948, 844), (1035, 986), (416, 468), (1033, 963), (1040, 923)]",[],"[0, 0, 0, 0, 0, 0, 0, 0, 0, 0, 0, 0, 0, 1]",[0.45],vertical,"(390.0, 762.0)",1.1666666666666667,0.412,1,6935.395,1
0,14,target,"[(1056, 965), (1050, 973), (1026, 963), (357, 551), (1033, 977), (1005, 981), (452, 424), (1005, 969), (1013, 970), (1040, 935)]",[],"[0, 0, 0, 0, 0, 0, 0, 0, 0, 1]",[0.5333333333333333],vertical,"(390.0, 262.0)",0.7833333333333333,0.495,1,6962.733,1
0,15,target,"[(1040, 947), (1019, 937)]",[],"[0, 1]",[0.16666666666666666],horizontal,"(390.0, 762.0)",1.4333333333333333,0.133,0,6981.423,0
0,16,catch,"[(1058, 937)]",[],[1],[],horizontal,"(390.0, 262.0)",,"('cti', 1.477),nan",0,6987.759,0
0,17,target,"[(1048, 950), (420, 598), (1048, 958), (518, 478), (1033, 949), (1021, 938)]",[],"[0, 0, 0, 0, 0, 1]",[0.7333333333333333],horizontal,"(890.0, 762.0)",1.15,0.691,1,6992.489,1
0,18,target,"[(1033, 966), (1025, 938)]",[],"[0, 1]",[0.5],horizontal,"(890.0, 762.0)",1.4333333333333333,0.468,1,7001.825,1
0,19,target,"[(1041, 957), (1056, 934)]",[],"[0, 1]",[0.65],vertical,"(890.0, 762.0)",0.6666666666666666,0.61,1,7008.04,1
0,20,target,"[(1049, 939)]",[],[1],[],horizontal,"(890.0, 262.0)",,"('cti', 1.499)",0,7015.242,0
0,21,target,"[(1052, 942)]",[],[1],[0.6833333333333333],vertical,"(390.0, 762.0)",0.5166666666666666,0.65,1,7020.465,1
0,22,target,"[(1037, 959), (1038, 958), (1018, 957), (1001, 971), (1025, 972), (1019, 948), (998, 975), (1001, 972), (1023, 921)]",[],"[0, 0, 0, 0, 0, 0, 0, 0, 1]",[0.6],vertical,"(390.0, 762.0)",0.85,0.555,1,7025.26,1
0,23,target,"[(1041, 934)]",[],[1],[0.85],horizontal,"(890.0, 762.0)",0.7666666666666666,nan,0,7045.177,0
0,24,target,"[(1056, 952), (1025, 966), (1029, 945), (1037, 953), (1021, 916)]",[],"[0, 0, 0, 0, 1]",[0.5333333333333333],horizontal,"(390.0, 262.0)",1.4,0.503,1,7049.624,1
0,25,target,"[(1037, 949), (1040, 970), (1025, 959), (1005, 967), (1029, 921)]",[],"[0, 0, 0, 0, 1]",[0.6166666666666667],horizontal,"(390.0, 762.0)",0.7833333333333333,0.579,1,7060.474,1
0,26,target,"[(1029, 957), (1035, 958), (1021, 955), (1005, 962), (1013, 957), (997, 953), (1023, 956), (1002, 944), (435, 425), (1002, 972), (999, 934), (1052, 928)]",[],"[0, 0, 0, 0, 0, 0, 0, 0, 0, 0, 0, 1]",[0.4666666666666667],vertical,"(390.0, 262.0)",1.35,0.437,1,7074.457,1
0,27,target,"[(1040, 963), (1021, 955), (353, 468), (1012, 974), (1001, 947), (1016, 940)]",[],"[0, 0, 0, 0, 0, 1]",[0.5666666666666667],vertical,"(390.0, 262.0)",0.9333333333333333,0.524,1,7120.025,2
0,28,target,"[(1037, 970), (1034, 953), (1025, 949), (1017, 958), (1001, 960), (1021, 934)]",[],"[0, 0, 0, 0, 0, 1]",[0.06666666666666667],vertical,"(890.0, 262.0)",1.6833333333333333,0.035,0,7131.05,0
0,29,target,"[(1041, 936)]",[],[1],[0.4666666666666667],horizontal,"(890.0, 262.0)",0.85,0.432,1,7144.091,1
0,30,target,"[(1052, 952), (1009, 935)]",[],"[0, 1]",[0.6333333333333333],vertical,"(390.0, 762.0)",0.5166666666666666,0.595,1,7148.92,1
0,31,target,"[(1045, 967), (1015, 963), (1008, 956), (1025, 950), (1001, 948), (1003, 980), (1001, 959), (503, 516), (1033, 969), (1005, 957), (1008, 950), (1025, 970), (569, 429), (1025, 953), (491, 398), (1015, 977), (495, 603), (1028, 950), (356, 495), (1023, 975), (1025, 966), (1028, 961), (485, 727), (1001, 932), (1013, 962), (452, 533), (1008, 948), (1024, 969), (455, 328), (1037, 931)]",[],"[0, 0, 0, 0, 0, 0, 0, 0, 0, 0, 0, 0, 0, 0, 0, 0, 0, 0, 0, 0, 0, 0, 0, 0, 0, 0, 0, 0, 0, 1]",[0.6],vertical,"(390.0, 762.0)",1.0666666666666667,0.557,1,7154.923,1
0,32,target,"[(1041, 960), (1005, 961), (1035, 986), (1021, 986), (420, 428), (1028, 956), (1033, 908)]",[],"[0, 0, 0, 0, 0, 0, 1]",[0.5166666666666666],horizontal,"(390.0, 762.0)",0.9,0.471,1,7275.743,2
0,33,target,"[(1033, 960), (1017, 948), (432, 775), (1002, 930), (1020, 953), (1021, 925)]",[],"[0, 0, 0, 0, 0, 1]",[0.5],vertical,"(390.0, 262.0)",1.3,0.467,1,7285.654,1
0,34,target,"[(1040, 943)]",[],[1],[0.4666666666666667],horizontal,"(890.0, 762.0)",1.4,0.429,1,7296.081,1
0,35,target,"[(1029, 936)]",[],[1],[0.6],horizontal,"(390.0, 762.0)",0.5666666666666667,0.558,1,7301.565,1
0,36,target,"[(1040, 943)]",[],[1],[0.5333333333333333],vertical,"(390.0, 762.0)",1.1833333333333333,0.495,1,7306.584,3
0,37,target,"[(1037, 956), (1001, 959), (520, 500), (1029, 951), (1025, 946), (1022, 962), (1033, 956), (542, 376), (539, 445), (1029, 925)]",[],"[0, 0, 0, 0, 0, 0, 0, 0, 0, 1]",[0.48333333333333334],vertical,"(390.0, 262.0)",1.0833333333333333,0.441,1,7312.476,1
0,38,target,"[(1037, 950), (1025, 952), (489, 443), (998, 959), (1009, 927)]",[],"[0, 0, 0, 0, 1]",[0.5166666666666666],horizontal,"(890.0, 262.0)",0.5833333333333334,0.478,1,7325.334,1
0,39,target,"[(997, 954), (499, 544), (998, 962), (1005, 937)]",[],"[0, 0, 0, 1]",[0.48333333333333334],vertical,"(890.0, 762.0)",1.25,0.449,1,7333.926,1
0,40,target,"[(1029, 944)]",[],[1],[0.48333333333333334],vertical,"(890.0, 262.0)",0.6166666666666667,0.448,1,7341.481,2
0,41,target,"[(1021, 966), (997, 937), (1008, 932)]",[],"[0, 0, 1]",[0.5],horizontal,"(890.0, 762.0)",1.0666666666666667,0.459,1,7347.2,1
0,42,target,"[(1025, 956), (1031, 902)]",[],"[0, 1]",[0.5333333333333333],horizontal,"(390.0, 762.0)",1.1666666666666667,0.491,1,7356.077,1
0,43,target,"[(1041, 954), (1013, 943)]",[],"[0, 1]",[0.5833333333333334],vertical,"(890.0, 762.0)",1.1,0.544,1,7362.447,1
0,44,target,"[(1019, 932)]",[],[1],[0.6833333333333333],vertical,"(890.0, 262.0)",0.7666666666666666,0.642,1,7368.779,3
0,45,target,"[(1030, 977), (1041, 974), (400, 533), (1029, 959), (1030, 965), (1023, 913)]",[],"[0, 0, 0, 0, 0, 1]",[0.2833333333333333],horizontal,"(890.0, 762.0)",1.45,0.25,1,7374.826,1
0,46,target,"[(1024, 959), (1021, 923)]",[],"[0, 1]",[0.43333333333333335],horizontal,"(390.0, 762.0)",1.4666666666666666,0.399,1,7384.476,1
0,47,target,"[(1027, 952), (1001, 953), (1004, 946), (1025, 917)]",[],"[0, 0, 0, 1]",[0.5166666666666666],horizontal,"(890.0, 762.0)",0.75,0.481,1,7390.747,1
0,48,target,"[(1035, 927)]",[],[1],[0.5666666666666667],vertical,"(890.0, 762.0)",1.0666666666666667,0.528,1,7399.611,2
0,49,target,"[(1043, 966), (1020, 945), (1029, 948), (552, 417), (1013, 944)]",[],"[0, 0, 0, 0, 1]",[],horizontal,"(390.0, 262.0)",,"('cti', 1.112)",0,7405.328,0
0,50,target,"[(1021, 938)]",[],[1],[0.5],horizontal,"(890.0, 262.0)",0.5666666666666667,0.459,1,7413.426,1
0,51,target,"[(1029, 923)]",[],[1],[0.85],vertical,"(890.0, 762.0)",0.5833333333333334,nan,0,7418.105,0
0,52,target,"[(1035, 942)]",[],[1],[0.7333333333333333],vertical,"(890.0, 262.0)",0.9333333333333333,0.689,1,7422.963,1
0,53,target,"[(1018, 941)]",[],[1],[0.6],horizontal,"(390.0, 762.0)",0.6833333333333333,0.564,1,7427.968,1
0,54,target,"[(1021, 943)]",[],[1],[0.5],horizontal,"(390.0, 262.0)",1.1833333333333333,0.458,1,7432.676,1
0,55,target,"[(1029, 931)]",[],[1],[0.6666666666666666],horizontal,"(390.0, 762.0)",0.8333333333333334,0.624,1,7437.926,2
0,56,target,"[(1033, 922)]",[],[1],[0.5],horizontal,"(390.0, 262.0)",1.0166666666666666,0.462,1,7443.144,1
0,57,target,"[(1030, 951), (1022, 933)]",[],"[0, 1]",[0.3833333333333333],vertical,"(390.0, 262.0)",1.3333333333333333,0.344,1,7448.01,1
0,58,target,"[(1027, 938)]",[],[1],[0.48333333333333334],horizontal,"(890.0, 262.0)",0.8666666666666667,0.443,1,7454.844,1
0,59,target,"[(1032, 939)]",[],[1],[0.5333333333333333],horizontal,"(890.0, 762.0)",1.1833333333333333,0.493,1,7460.061,3
0,60,target,"[(1053, 932)]",[],[1],[0.21666666666666667],horizontal,"(390.0, 762.0)",1.35,0.181,1,7466.253,1
0,61,target,"[(1030, 938)]",[],[1],[0.2833333333333333],vertical,"(890.0, 762.0)",1.6,0.247,1,7471.643,1
0,62,target,"[(1029, 942)]",[],[1],[0.6],vertical,"(390.0, 262.0)",1.1666666666666667,0.557,1,7477.227,1
0,63,target,"[(1027, 937)]",[],[1],[0.55],vertical,"(390.0, 762.0)",1.2166666666666666,0.509,1,7482.579,2
0,64,target,"[(1024, 944)]",[],[1],[0.5166666666666666],horizontal,"(890.0, 262.0)",0.75,0.471,1,7488.192,1
0,65,target,"[(1040, 958), (1029, 969), (378, 519), (1025, 925)]",[],"[0, 0, 0, 1]",[0.6333333333333333],horizontal,"(890.0, 262.0)",1.5666666666666667,0.588,1,7493.478,1
0,66,target,"[(1030, 936)]",[],[1],[0.45],horizontal,"(390.0, 262.0)",1.6333333333333333,0.408,1,7501.404,1
0,67,target,"[(1029, 941)]",[],[1],[0.5333333333333333],horizontal,"(890.0, 262.0)",0.75,0.5,1,7507.011,3
0,68,target,"[(1034, 986), (1025, 948), (1025, 935)]",[],"[0, 0, 1]",[0.7],vertical,"(890.0, 262.0)",1.2,0.661,1,7512.395,1
0,69,target,"[(1021, 948), (1004, 932), (480, 482), (1025, 929)]",[],"[0, 0, 0, 1]",[],vertical,"(890.0, 762.0)",,"('fix', 0.117)",0,7520.719,0
0,70,target,"[(1031, 916)]",[],[1],[0.5833333333333334],horizontal,"(390.0, 762.0)",0.9333333333333333,0.546,1,7524.645,1
0,71,target,"[(1026, 932)]",[],[1],[0.5],horizontal,"(890.0, 262.0)",1.0666666666666667,0.456,1,7530.71,1
0,72,target,"[(1029, 955), (1029, 916)]",[],"[0, 1]",[0.6],horizontal,"(390.0, 262.0)",0.9666666666666667,0.557,1,7536.249,1
0,73,target,"[(1025, 933)]",[],[1],[0.6],horizontal,"(390.0, 262.0)",0.9,0.567,1,7542.053,2
0,74,target,"[(1028, 938)]",[],[1],[0.25],horizontal,"(390.0, 762.0)",1.6833333333333333,0.221,1,7547.675,1
0,75,target,"[(1025, 932)]",[],[1],[0.5],horizontal,"(390.0, 762.0)",1.3333333333333333,0.456,1,7552.787,1
0,76,target,"[(1024, 923)]",[],[1],[0.5166666666666666],vertical,"(890.0, 762.0)",1.1,0.483,1,7557.723,1
0,77,catch,"[(1037, 930)]",[],[1],[],vertical,"(890.0, 762.0)",1.3666666666666667,nan,1,7562.549,3
0,78,target,"[(1022, 980), (1025, 970), (1017, 938)]",[],"[0, 0, 1]",[0.6166666666666667],vertical,"(390.0, 762.0)",1.3666666666666667,0.57,1,7568.328,1
0,79,target,"[(1025, 940)]",[],[1],[0.85],horizontal,"(390.0, 262.0)",0.7666666666666666,nan,0,7576.928,0
0,80,target,"[(1023, 966), (432, 510), (1013, 947), (495, 520), (1029, 950), (558, 478), (1021, 933)]",[],"[0, 0, 0, 0, 0, 0, 1]",[0.5333333333333333],vertical,"(890.0, 262.0)",1.45,0.501,1,7581.745,1
0,81,target,"[(1021, 942)]",[],[1],[0.5333333333333333],vertical,"(390.0, 762.0)",1.1166666666666667,0.49,1,7590.661,1
0,82,target,"[(1020, 920)]",[],[1],[0.5166666666666666],horizontal,"(890.0, 262.0)",1.05,0.486,1,7596.109,1
0,83,target,"[(1002, 949), (1018, 923)]",[],"[0, 1]",[0.31666666666666665],vertical,"(890.0, 762.0)",1.6333333333333333,0.279,1,7601.344,2
0,84,target,"[(1026, 945), (1029, 951), (1035, 966), (1022, 953), (1030, 958), (1028, 953), (1013, 966), (1027, 927)]",[],"[0, 0, 0, 0, 0, 0, 0, 1]",[],horizontal,"(390.0, 762.0)",,"('fix', 0.197)",0,7608.508,0
0,85,target,"[(1028, 922)]",[],[1],[0.4666666666666667],vertical,"(890.0, 262.0)",0.8333333333333334,0.432,1,7623.009,1
0,86,target,"[(1029, 932)]",[],[1],[0.5166666666666666],vertical,"(890.0, 262.0)",1.4666666666666666,0.471,1,7627.578,1
0,87,target,"[(1025, 947), (1021, 933)]",[],"[0, 1]",[0.48333333333333334],horizontal,"(390.0, 262.0)",1.6166666666666667,0.444,1,7632.861,1
0,88,target,"[(1020, 936)]",[],[1],[0.2833333333333333],vertical,"(890.0, 262.0)",1.65,0.246,1,7639.243,2
0,89,target,"[(1056, 924)]",[],[1],[0.1],vertical,"(390.0, 762.0)",1.5666666666666667,0.066,0,7645.45,0
0,90,target,"[(1037, 927)]",[],[1],[0.45],vertical,"(390.0, 262.0)",1.6,0.41,1,7650.23,1
0,91,target,"[(1033, 946), (1025, 939)]",[],"[0, 1]",[0.5333333333333333],horizontal,"(390.0, 262.0)",0.9666666666666667,0.493,1,7655.611,1
0,92,target,"[(1032, 932)]",[],[1],[0.7166666666666667],vertical,"(390.0, 762.0)",0.5333333333333333,0.67,1,7662.262,1
0,93,target,"[(1030, 924)]",[],[1],[0.6],vertical,"(390.0, 762.0)",0.8166666666666667,0.553,1,7667.202,2
0,94,target,"[(1025, 939)]",[],[1],[0.6166666666666667],vertical,"(390.0, 762.0)",0.6333333333333333,0.58,1,7672.417,1
0,95,target,"[(1029, 933)]",[],[1],[0.6166666666666667],vertical,"(390.0, 762.0)",1.2166666666666666,0.577,1,7677.078,1
0,96,target,"[(1033, 912)]",[],[1],[0.13333333333333333],vertical,"(390.0, 762.0)",1.4833333333333334,0.099,0,7682.494,0
0,97,target,"[(1052, 911)]",[],[1],[0.5666666666666667],vertical,"(890.0, 762.0)",0.7,0.528,1,7687.228,1
0,98,catch,"[(1025, 924)]",[],[1],[],horizontal,"(390.0, 762.0)",1.55,nan,1,7691.945,1
0,99,target,"[(1040, 944)]",[],[1],[0.45],vertical,"(390.0, 762.0)",1.3,0.407,1,7697.096,1
0,100,target,"[(1025, 932)]",[],[1],[0.5833333333333334],horizontal,"(890.0, 762.0)",0.5333333333333333,0.545,1,7702.345,2
0,101,target,"[(1043, 923)]",[],[1],[0.6666666666666666],horizontal,"(890.0, 762.0)",0.9666666666666667,0.629,1,7707.195,1
0,102,target,"[(1034, 932)]",[],[1],[],vertical,"(890.0, 262.0)",,"('cti', 1.095)",0,7712.163,0
0,103,target,"[(1049, 904)]",[],[1],[0.7166666666666667],vertical,"(890.0, 262.0)",0.9333333333333333,0.677,1,7716.695,1
0,104,catch,"[(1034, 921)]",[],[1],[],vertical,"(890.0, 262.0)",1.5666666666666667,nan,1,7721.395,1
0,105,target,"[(1034, 951), (1029, 941)]",[],"[0, 1]",[0.5],horizontal,"(890.0, 762.0)",1.3833333333333333,0.463,1,7725.878,1
0,106,catch,"[(1022, 936)]",[],[1],[],vertical,"(390.0, 762.0)",1.5333333333333332,nan,1,7732.279,2
0,107,target,"[(1037, 926)]",[],[1],[0.45],horizontal,"(890.0, 762.0)",1.3,0.412,1,7738.146,1
0,108,target,"[(1044, 936)]",[],[1],[0.3833333333333333],vertical,"(390.0, 262.0)",1.4333333333333333,0.351,1,7743.128,1
0,109,target,"[(1051, 933)]",[],[1],[0.7166666666666667],vertical,"(890.0, 762.0)",1.0166666666666666,0.685,1,7748.928,1
0,110,target,"[(1043, 939)]",[],[1],[0.5833333333333334],horizontal,"(390.0, 762.0)",0.65,0.55,1,7754.03,3
0,111,target,"[(1053, 921)]",[],[1],[0.7],horizontal,"(390.0, 262.0)",1.1833333333333333,0.658,1,7759.378,1
0,112,target,"[(1022, 931)]",[],[1],[0.31666666666666665],vertical,"(890.0, 762.0)",1.2666666666666666,0.277,1,7764.663,1
0,113,target,"[(1059, 897)]",[],[1],[0.5833333333333334],vertical,"(890.0, 762.0)",0.5833333333333334,0.54,1,7769.549,1
0,114,target,"[(1040, 916)]",[],[1],[0.5333333333333333],horizontal,"(390.0, 762.0)",0.7833333333333333,0.501,1,7774.03,2
0,115,target,"[(1021, 938)]",[],[1],[0.6833333333333333],horizontal,"(890.0, 762.0)",0.75,0.651,1,7779.361,1
0,116,catch,"[(1020, 931)]",[],[1],[],vertical,"(890.0, 762.0)",1.5166666666666666,nan,1,7784.287,1
0,117,catch,"[(1029, 936)]",[],[1],[],vertical,"(890.0, 762.0)",1.2,nan,1,7789.473,1
0,118,target,"[(1045, 919)]",[],[1],[0.36666666666666664],horizontal,"(390.0, 762.0)",1.1666666666666667,0.331,1,7794.644,3
0,119,target,"[(1058, 944)]",[],[1],[0.5166666666666666],horizontal,"(890.0, 762.0)",0.8166666666666667,0.487,1,7800.13,1
0,120,target,"[(1021, 932)]",[],[1],[0.5666666666666667],vertical,"(890.0, 262.0)",0.95,0.529,1,7804.801,1
0,121,target,"[(1025, 939)]",[],[1],[0.48333333333333334],vertical,"(890.0, 762.0)",0.9833333333333333,0.443,1,7810.033,1
0,122,target,"[(1029, 932)]",[],[1],[0.5833333333333334],horizontal,"(390.0, 262.0)",1.0833333333333333,0.552,1,7815.396,2
0,123,target,"[(1060, 902)]",[],[1],[0.5333333333333333],horizontal,"(390.0, 262.0)",0.55,0.5,1,7820.879,1
0,124,target,"[(1040, 919)]",[],[1],[0.3],vertical,"(390.0, 762.0)",1.5,0.267,1,7825.453,1
0,125,target,"[(1042, 918)]",[],[1],[0.48333333333333334],horizontal,"(890.0, 262.0)",0.8166666666666667,0.452,1,7830.537,1
0,126,target,"[(1022, 908)]",[],[1],[0.5666666666666667],vertical,"(890.0, 762.0)",0.9,0.535,1,7835.223,3
0,127,target,"[(1061, 912)]",[],[1],[0.5333333333333333],horizontal,"(890.0, 762.0)",0.9833333333333333,0.491,1,7841.367,1
0,128,target,"[(1045, 906)]",[],[1],[0.5],vertical,"(890.0, 262.0)",0.6333333333333333,0.459,1,7846.323,1
0,129,catch,"[(1025, 927)]",[],[1],[0.03333333333333333],vertical,"(390.0, 762.0)",1.65,"0.019,nan",0,7850.73,0
0,130,target,"[(1021, 931)]",[],[1],[0.55],vertical,"(390.0, 262.0)",0.5833333333333334,0.507,1,7855.499,1
0,131,target,"[(1046, 920)]",[],[1],[0.5833333333333334],horizontal,"(390.0, 262.0)",0.5,0.545,1,7862.03,1
0,132,target,"[(1056, 905)]",[],[1],[0.2833333333333333],vertical,"(390.0, 762.0)",1.0,0.243,1,7866.546,1
0,133,target,"[(1043, 910)]",[],[1],[0.6],vertical,"(890.0, 762.0)",0.7666666666666666,0.566,1,7871.513,2
0,134,target,"[(1021, 926)]",[],[1],[0.55],vertical,"(390.0, 762.0)",0.6166666666666667,0.51,1,7876.812,1
0,135,target,"[(1052, 889)]",[],[1],[0.5833333333333334],horizontal,"(390.0, 262.0)",0.5333333333333333,0.552,1,7881.67,1
0,136,target,"[(1056, 925)]",[],[1],[0.5166666666666666],vertical,"(390.0, 262.0)",0.6833333333333333,0.481,1,7886.529,1
0,137,target,"[(1054, 896)]",[],[1],[0.21666666666666667],horizontal,"(890.0, 762.0)",1.15,0.187,1,7891.321,3
0,138,target,"[(1025, 948), (1040, 922)]",[],"[0, 1]",[0.31666666666666665],vertical,"(890.0, 762.0)",1.6166666666666667,0.279,1,7896.531,1
0,139,target,"[(1042, 927)]",[],[1],[0.5],horizontal,"(890.0, 262.0)",1.5333333333333332,0.461,1,7903.064,1
0,140,target,"[(1029, 908)]",[],[1],[0.5166666666666666],horizontal,"(890.0, 262.0)",0.9333333333333333,0.474,1,7908.07,1
0,141,target,"[(1060, 893)]",[],[1],[0.2],horizontal,"(390.0, 762.0)",1.5333333333333332,0.164,1,7913.115,2
0,142,target,"[(1041, 888)]",[],[1],[0.8333333333333334],horizontal,"(890.0, 262.0)",1.0166666666666666,0.792,1,7918.347,1
0,143,target,"[(1042, 915)]",[],[1],[0.3],horizontal,"(890.0, 262.0)",1.3833333333333333,0.262,1,7923.539,1
0,144,target,"[(1036, 907)]",[],[1],[0.6166666666666667],vertical,"(390.0, 762.0)",0.55,0.573,1,7928.791,1
0,145,target,"[(1036, 915)]",[],[1],[0.7166666666666667],horizontal,"(390.0, 262.0)",0.5,0.669,1,7933.563,3
0,146,target,"[(1044, 906)]",[],[1],[0.5],vertical,"(890.0, 262.0)",1.1666666666666667,0.469,1,7938.879,1
0,147,catch,"[(1030, 889)]",[],[1],[],vertical,"(390.0, 762.0)",,"('cti', 1.216),nan",0,7943.686,0
0,148,target,"[(1056, 888)]",[],[1],[0.5833333333333334],vertical,"(890.0, 262.0)",0.6,0.548,1,7948.146,1
0,149,target,"[(1040, 906)]",[],[1],[0.45],vertical,"(890.0, 262.0)",0.7166666666666667,0.417,1,7952.663,1
0,150,catch,"[(1029, 923)]",[],[1],[],vertical,"(390.0, 262.0)",1.2333333333333334,nan,1,7957.447,1
0,151,target,"[(1045, 903)]",[],[1],[0.55],vertical,"(890.0, 762.0)",0.6,0.509,1,7961.963,2
0,152,target,"[(1029, 928)]",[],[1],[0.5],horizontal,"(890.0, 262.0)",1.1,0.458,1,7966.964,1
0,153,target,"[(1037, 911)]",[],[1],[0.55],vertical,"(390.0, 262.0)",0.9,0.507,1,7972.022,1
0,154,target,"[(1039, 905)]",[],[1],[0.3833333333333333],horizontal,"(890.0, 762.0)",1.0666666666666667,0.345,1,7977.267,1
0,155,target,"[(1033, 893)]",[],[1],[0.5166666666666666],vertical,"(390.0, 262.0)",0.7833333333333333,0.477,1,7982.102,3
0,156,target,"[(1055, 908)]",[],[1],[0.6],horizontal,"(890.0, 762.0)",0.5333333333333333,0.557,1,7987.789,1
0,157,target,"[(1029, 915)]",[],[1],[0.5833333333333334],vertical,"(390.0, 762.0)",0.9,0.54,1,7992.325,1
0,158,target,"[(1057, 909)]",[],[1],[0.45],horizontal,"(390.0, 762.0)",1.6,0.413,1,7996.964,1
0,159,catch,"[(1029, 883)]",[],[1],[],horizontal,"(390.0, 762.0)",,"('cti', 1.272),nan",0,8002.077,0
0,160,target,"[(1037, 959), (1025, 914)]",[],"[0, 1]",[0.5833333333333334],horizontal,"(390.0, 762.0)",0.8,0.548,1,8006.647,1
0,161,catch,"[(1045, 906)]",[],[1],[],horizontal,"(890.0, 762.0)",1.6166666666666667,nan,1,8020.213,1
0,162,target,"[(1030, 928)]",[],[1],[0.5],horizontal,"(890.0, 762.0)",0.9,0.461,1,8025.131,1
0,163,target,"[(1036, 912)]",[],[1],[0.5],horizontal,"(890.0, 262.0)",1.1666666666666667,0.458,1,8030.314,2
0,164,target,"[(1042, 896)]",[],[1],[0.55],horizontal,"(390.0, 262.0)",1.1666666666666667,0.51,1,8035.279,1
0,165,target,"[(1029, 915)]",[],[1],[],vertical,"(890.0, 262.0)",,"('cti', 1.492)",0,8039.827,0
0,166,target,"[(1045, 904)]",[],[1],[0.5],horizontal,"(890.0, 762.0)",1.3,0.459,1,8044.664,1
0,167,target,"[(1048, 915)]",[],[1],[0.5333333333333333],horizontal,"(890.0, 262.0)",0.5833333333333334,0.489,1,8049.681,1
0,168,target,"[(1028, 910)]",[],[1],[0.21666666666666667],horizontal,"(390.0, 262.0)",1.2333333333333334,0.184,1,8054.391,1
0,169,target,"[(1056, 906)]",[],[1],[0.55],horizontal,"(390.0, 262.0)",0.5,0.513,1,8059.781,2
0,170,target,"[(1037, 914)]",[],[1],[0.5166666666666666],vertical,"(890.0, 262.0)",0.75,0.483,1,8064.701,1
0,171,target,"[(1029, 908)]",[],[1],[0.5166666666666666],horizontal,"(890.0, 762.0)",0.9833333333333333,0.477,1,8069.479,1
0,172,target,"[(1028, 904)]",[],[1],[0.7166666666666667],vertical,"(890.0, 262.0)",0.5333333333333333,0.676,1,8075.052,1
0,173,target,"[(1025, 901)]",[],[1],[0.48333333333333334],vertical,"(390.0, 262.0)",1.0,0.44,1,8079.377,3
0,174,target,"[(1056, 902)]",[],[1],[0.55],horizontal,"(890.0, 762.0)",0.9333333333333333,0.511,1,8085.512,1
0,175,target,"[(1029, 896)]",[],[1],[0.5166666666666666],vertical,"(390.0, 262.0)",0.8666666666666667,0.485,1,8089.932,1
0,176,target,"[(1033, 922)]",[],[1],[0.18333333333333332],horizontal,"(890.0, 262.0)",1.2666666666666666,0.153,1,8094.727,1
0,177,target,"[(1020, 898)]",[],[1],[0.85],horizontal,"(390.0, 262.0)",1.2333333333333334,"('cti', 1.231),nan",0,8099.93,0
0,178,target,"[(1042, 911)]",[],[1],[],vertical,"(890.0, 762.0)",,"('cti', 1.633)",0,8105.702,0
0,179,catch,"[(1056, 912)]",[],[1],[],horizontal,"(390.0, 262.0)",1.5666666666666667,nan,1,8110.613,1
0,180,target,"[(1040, 902)]",[],[1],[0.3333333333333333],vertical,"(890.0, 262.0)",1.3666666666666667,0.3,1,8115.172,1
0,181,target,"[(1043, 896)]",[],[1],[0.3333333333333333],vertical,"(390.0, 262.0)",1.35,0.295,1,8120.496,1
0,182,target,"[(1041, 906)]",[],[1],[0.45],horizontal,"(390.0, 262.0)",1.2166666666666666,0.417,1,8125.564,2
0,183,target,"[(1040, 893)]",[],[1],[0.3333333333333333],horizontal,"(890.0, 262.0)",1.4,0.294,1,8130.956,1
0,184,target,"[(1036, 919)]",[],[1],[0.5333333333333333],vertical,"(390.0, 762.0)",0.65,0.505,1,8135.912,1
0,185,target,"[(1040, 918)]",[],[1],[0.43333333333333335],horizontal,"(890.0, 262.0)",1.2833333333333332,0.395,1,8141.076,1
0,186,target,"[(1039, 907)]",[],[1],[0.2833333333333333],vertical,"(890.0, 262.0)",1.45,0.251,1,8145.881,3
0,187,target,"[(1059, 888)]",[],[1],[0.48333333333333334],vertical,"(390.0, 262.0)",1.0166666666666666,0.445,1,8152.143,1
0,188,target,"[(1040, 909)]",[],[1],[0.43333333333333335],vertical,"(390.0, 762.0)",1.25,0.398,1,8157.127,1
0,189,target,"[(1040, 915)]",[],[1],[0.5],horizontal,"(390.0, 262.0)",0.55,0.462,1,8162.214,1
0,190,target,"[(1033, 907)]",[],[1],[0.5333333333333333],horizontal,"(390.0, 762.0)",1.0666666666666667,0.493,1,8166.682,2
0,191,target,"[(1029, 889)]",[],[1],[0.21666666666666667],horizontal,"(390.0, 762.0)",1.4166666666666667,0.183,1,8172.149,1
0,192,target,"[(1029, 884)]",[],[1],[0.21666666666666667],vertical,"(390.0, 762.0)",1.5833333333333333,0.188,1,8177.134,1
0,193,target,"[(1037, 899)]",[],[1],[0.85],vertical,"(390.0, 762.0)",1.5333333333333332,"('cti', 1.522),nan",0,8181.931,0
0,194,target,"[(1056, 910)]",[],[1],[0.5166666666666666],vertical,"(890.0, 762.0)",1.5333333333333332,0.474,1,8187.359,1
0,195,target,"[(1043, 911)]",[],[1],[0.85],horizontal,"(390.0, 762.0)",1.6666666666666667,"('cti', 1.653),nan",0,8192.647,0
0,196,catch,"[(1058, 910)]",[],[1],[],vertical,"(890.0, 262.0)",1.55,nan,1,8198.514,1
0,197,target,"[(1040, 929)]",[],[1],[0.55],horizontal,"(390.0, 262.0)",1.15,0.51,1,8203.207,1
0,198,target,"[(1039, 907)]",[],[1],[0.85],horizontal,"(390.0, 262.0)",1.6833333333333333,"('cti', 1.665),nan",0,8208.542,0
0,199,target,"[(1037, 907)]",[],[1],[0.85],vertical,"(390.0, 262.0)",0.5,nan,0,8213.766,0
0,200,target,"[(1017, 911)]",[],[1],[0.6166666666666667],horizontal,"(890.0, 262.0)",0.8333333333333334,0.573,1,8218.049,1
0,201,target,"[(1038, 909)]",[],[1],[0.6],horizontal,"(890.0, 262.0)",0.8166666666666667,0.561,1,8224.131,1
0,202,catch,"[(1030, 901)]",[],[1],[],vertical,"(390.0, 762.0)",1.3666666666666667,nan,1,8229.122,1
0,203,target,"[(1037, 919)]",[],[1],[0.5666666666666667],horizontal,"(390.0, 262.0)",0.5833333333333334,0.526,1,8233.666,2
0,204,target,"[(1039, 899)]",[],[1],[0.5],horizontal,"(390.0, 262.0)",0.7333333333333333,0.461,1,8239.116,1
0,205,target,"[(1039, 896)]",[],[1],[0.48333333333333334],vertical,"(890.0, 262.0)",1.3,0.445,1,8243.798,1
0,206,target,"[(1037, 917)]",[],[1],[0.7166666666666667],horizontal,"(390.0, 262.0)",0.5333333333333333,0.683,1,8248.52,1
0,207,catch,"[(1037, 898)]",[],[1],[],horizontal,"(390.0, 762.0)",1.3833333333333333,nan,1,8253.283,3
0,208,target,"[(1033, 923)]",[],[1],[0.43333333333333335],vertical,"(890.0, 262.0)",1.0166666666666666,0.398,1,8258.661,1
0,209,target,"[(1039, 911)]",[],[1],[0.48333333333333334],horizontal,"(890.0, 262.0)",1.0,0.447,1,8264.115,1
0,210,catch,"[(1039, 904)]",[],[1],[],horizontal,"(890.0, 262.0)",1.1666666666666667,nan,1,8269.301,1
0,211,catch,"[(1041, 915)]",[],[1],[],vertical,"(390.0, 262.0)",,"('cti', 1.408),nan",0,8273.797,0
0,212,target,"[(1057, 884)]",[],[1],[],vertical,"(890.0, 762.0)",,"('cti', 1.625)",0,8278.448,0
0,213,target,"[(1052, 912)]",[],[1],[0.6333333333333333],vertical,"(390.0, 262.0)",1.0166666666666666,0.587,1,8283.337,1
0,214,target,"[(1028, 920)]",[],[1],[0.55],horizontal,"(890.0, 762.0)",1.0833333333333333,0.507,1,8288.55,1
0,215,target,"[(1056, 878)]",[],[1],[0.13333333333333333],vertical,"(390.0, 762.0)",1.55,0.101,0,8294.078,0
0,216,target,"[(1076, 898)]",[],[1],[0.3],horizontal,"(390.0, 762.0)",1.3333333333333333,0.264,1,8298.964,1
0,217,target,"[(1037, 932)]",[],[1],[0.55],horizontal,"(890.0, 762.0)",0.5666666666666667,0.509,1,8303.757,1
0,218,target,"[(1037, 899)]",[],[1],[0.1],vertical,"(390.0, 262.0)",1.4833333333333334,0.067,0,8308.685,0
0,219,target,"[(1040, 899)]",[],[1],[0.5333333333333333],vertical,"(890.0, 762.0)",1.2,0.495,1,8313.245,1
0,220,target,"[(1029, 913)]",[],[1],[0.3833333333333333],horizontal,"(890.0, 762.0)",1.35,0.348,1,8318.402,1
0,221,target,"[(1037, 896)]",[],[1],[0.45],horizontal,"(390.0, 262.0)",1.0333333333333332,0.412,1,8323.766,1
0,222,target,"[(1040, 906)]",[],[1],[0.4666666666666667],horizontal,"(890.0, 262.0)",1.1333333333333333,0.427,1,8328.929,2
0,223,target,"[(1029, 889)]",[],[1],[0.3333333333333333],horizontal,"(890.0, 762.0)",1.25,0.299,1,8334.549,1
0,224,target,"[(1039, 894)]",[],[1],[],horizontal,"(890.0, 262.0)",,"('cti', 1.532)",0,8339.9,0
0,225,target,"[(1061, 905)]",[],[1],[0.5166666666666666],vertical,"(890.0, 262.0)",0.7333333333333333,0.473,1,8344.432,1
0,226,target,"[(1037, 897)]",[],[1],[0.5],vertical,"(390.0, 262.0)",0.9833333333333333,0.458,1,8349.078,1
0,227,catch,"[(1060, 885)]",[],[1],[],vertical,"(390.0, 262.0)",1.4166666666666667,nan,1,8353.867,1
0,228,target,"[(1033, 919)]",[],[1],[],vertical,"(390.0, 262.0)",,"('cti', 1.628)",0,8358.466,0
0,229,catch,"[(1040, 905)]",[],[1],[],vertical,"(390.0, 262.0)",1.4833333333333334,nan,1,8363.528,1
0,230,target,"[(1052, 903)]",[],[1],[0.5],horizontal,"(390.0, 762.0)",1.1333333333333333,0.464,1,8368.236,1
0,231,target,"[(1057, 909)]",[],[1],[0.5],vertical,"(390.0, 262.0)",0.7333333333333333,0.459,1,8373.017,1
0,232,target,"[(1042, 923)]",[],[1],[0.85],vertical,"(890.0, 262.0)",0.7833333333333333,nan,0,8378.185,0
0,233,target,"[(1033, 916)]",[],[1],[0.55],horizontal,"(890.0, 262.0)",1.2833333333333332,0.509,1,8382.583,1
0,234,target,"[(1030, 891)]",[],[1],[0.48333333333333334],horizontal,"(890.0, 262.0)",0.75,0.445,1,8387.55,1
0,235,target,"[(1021, 921)]",[],[1],[0.5833333333333334],horizontal,"(890.0, 262.0)",1.0333333333333332,0.543,1,8392.457,1
0,236,catch,"[(1025, 914)]",[],[1],[],horizontal,"(890.0, 762.0)",1.5,nan,1,8397.384,2
0,237,target,"[(1036, 903)]",[],[1],[0.5333333333333333],vertical,"(890.0, 262.0)",0.95,0.491,1,8402.596,1
0,238,target,"[(1042, 907)]",[],[1],[0.3833333333333333],horizontal,"(390.0, 762.0)",1.2333333333333334,0.347,1,8407.683,1
0,239,target,"[(1046, 922)]",[],[1],[0.6833333333333333],horizontal,"(890.0, 762.0)",0.9833333333333333,0.64,1,8412.532,1
0,240,target,"[(1040, 923)]",[],[1],[],horizontal,"(390.0, 262.0)",,"('cti', 0.69)",0,8417.984,0
0,241,target,"[(1041, 921)]",[],[1],[0.11666666666666667],horizontal,"(390.0, 262.0)",1.5833333333333333,0.084,0,8421.946,0
0,242,target,"[(1052, 882)]",[],[1],[0.55],vertical,"(390.0, 762.0)",0.75,0.508,1,8426.7,1
0,243,target,"[(1036, 917)]",[],[1],[0.43333333333333335],vertical,"(890.0, 262.0)",1.4833333333333334,0.396,1,8431.231,1
0,244,target,"[(1042, 899)]",[],[1],[0.3333333333333333],horizontal,"(390.0, 262.0)",1.1666666666666667,0.297,1,8436.801,1
0,245,target,"[(1039, 893)]",[],[1],[0.05],vertical,"(390.0, 762.0)",1.5666666666666667,0.02,0,8441.85,0
0,246,catch,"[(1041, 878)]",[],[1],[],vertical,"(390.0, 262.0)",1.3666666666666667,nan,1,8446.516,1
0,247,target,"[(1033, 915)]",[],[1],[0.08333333333333333],vertical,"(890.0, 762.0)",1.5833333333333333,0.052,0,8450.983,0
0,248,catch,"[(1040, 908)]",[],[1],[],vertical,"(390.0, 762.0)",1.45,nan,1,8455.183,1
0,249,target,"[(1029, 926)]",[],[1],[0.4666666666666667],vertical,"(890.0, 262.0)",1.6666666666666667,0.425,1,8460.313,1
0,250,target,"[(1033, 910)]",[],[1],[0.4666666666666667],horizontal,"(390.0, 262.0)",1.2,0.426,1,8466.484,1
0,251,target,"[(1036, 915)]",[],[1],[0.6166666666666667],vertical,"(890.0, 262.0)",0.7833333333333333,0.576,1,8471.485,2
0,252,target,"[(1038, 916)]",[],[1],[0.4666666666666667],vertical,"(890.0, 262.0)",1.5,0.425,1,8476.484,1
0,253,target,"[(1045, 897)]",[],[1],[0.18333333333333332],horizontal,"(390.0, 762.0)",1.5333333333333332,0.152,1,8481.783,1
0,254,target,"[(1039, 909)]",[],[1],[0.5166666666666666],horizontal,"(390.0, 262.0)",0.9666666666666667,0.475,1,8486.987,1
0,255,target,"[(1048, 891)]",[],[1],[0.3],horizontal,"(890.0, 762.0)",1.4,0.262,1,8492.263,3
0,256,target,"[(1029, 932)]",[],[1],[0.5833333333333334],vertical,"(390.0, 762.0)",0.7833333333333333,0.543,1,8498.2,1
0,257,target,"[(1037, 903)]",[],[1],[],horizontal,"(890.0, 262.0)",,"('cti', 1.187)",0,8503.334,0
0,258,target,"[(1033, 922)]",[],[1],[0.1],horizontal,"(390.0, 262.0)",1.3833333333333333,0.066,0,8507.883,0
0,259,target,"[(1044, 921)]",[],[1],[0.36666666666666664],horizontal,"(390.0, 262.0)",1.6166666666666667,0.33,1,8512.817,1
0,260,target,"[(1060, 898)]",[],[1],[0.48333333333333334],vertical,"(890.0, 262.0)",1.1833333333333333,0.445,1,8517.8,1
0,261,target,"[(1043, 914)]",[],[1],[0.55],horizontal,"(890.0, 262.0)",0.5,0.508,1,8522.916,1
0,262,target,"[(1035, 900)]",[],[1],[0.5833333333333334],horizontal,"(390.0, 762.0)",0.8166666666666667,0.542,1,8527.284,2
0,263,target,"[(1049, 902)]",[],[1],[0.5],horizontal,"(890.0, 762.0)",1.0333333333333332,0.461,1,8532.309,1
0,264,target,"[(1047, 921)]",[],[1],[0.6166666666666667],horizontal,"(390.0, 262.0)",0.6666666666666666,0.576,1,8537.466,1
0,265,target,"[(1025, 931)]",[],[1],[0.3333333333333333],horizontal,"(890.0, 262.0)",1.2333333333333334,0.294,1,8541.957,1
0,266,target,"[(1042, 899)]",[],[1],[0.5666666666666667],vertical,"(390.0, 762.0)",1.0333333333333332,0.523,1,8548.076,3
0,267,target,"[(1029, 936)]",[],[1],[],vertical,"(890.0, 762.0)",,"('cti', 1.574)",0,8553.798,0
0,268,target,"[(1040, 905)]",[],[1],[0.7166666666666667],horizontal,"(890.0, 262.0)",0.8833333333333333,0.673,1,8558.912,1
0,269,target,"[(1048, 903)]",[],[1],[0.25],vertical,"(390.0, 262.0)",1.3166666666666667,0.214,1,8564.092,1
0,270,target,"[(1050, 889)]",[],[1],[0.3333333333333333],vertical,"(390.0, 762.0)",1.45,0.297,1,8568.95,1
0,271,target,"[(1048, 938)]",[],[1],[0.6833333333333333],vertical,"(390.0, 262.0)",0.55,0.643,1,8574.459,2
0,272,target,"[(1037, 892)]",[],[1],[0.5166666666666666],horizontal,"(890.0, 762.0)",0.9,0.472,1,8579.26,1
0,273,target,"[(1026, 900)]",[],[1],[0.85],horizontal,"(390.0, 762.0)",0.5666666666666667,nan,0,8584.093,0
0,274,target,"[(1033, 928)]",[],[1],[0.45],horizontal,"(390.0, 262.0)",1.45,0.408,1,8588.483,1
0,275,catch,"[(1033, 899)]",[],[1],[],horizontal,"(890.0, 262.0)",1.45,nan,1,8593.684,1
0,276,target,"[(1029, 903)]",[],[1],[0.6],vertical,"(390.0, 262.0)",1.2,0.558,1,8598.411,1
0,277,target,"[(1037, 921)]",[],[1],[0.3],vertical,"(390.0, 762.0)",1.45,0.263,1,8603.359,2
0,278,target,"[(1048, 879)]",[],[1],[0.48333333333333334],horizontal,"(890.0, 762.0)",1.1333333333333333,0.443,1,8609.968,1
0,279,target,"[(1029, 905)]",[],[1],[0.48333333333333334],horizontal,"(890.0, 262.0)",1.0333333333333332,0.445,1,8615.234,1
0,280,target,"[(1040, 917)]",[],[1],[],horizontal,"(390.0, 762.0)",,"('cti', 1.232)",0,8620.117,0
0,281,target,"[(1029, 938)]",[],[1],[0.55],vertical,"(390.0, 262.0)",1.1166666666666667,0.508,1,8624.919,1
0,282,target,"[(1042, 910)]",[],[1],[],vertical,"(390.0, 262.0)",,"('cti', 1.375)",0,8629.888,0
0,283,target,"[(1040, 926)]",[],[1],[0.21666666666666667],vertical,"(390.0, 762.0)",1.3333333333333333,0.184,1,8634.946,1
0,284,target,"[(1057, 899)]",[],[1],[0.6166666666666667],vertical,"(890.0, 262.0)",0.5166666666666666,0.573,1,8640.133,1
0,285,target,"[(1029, 908)]",[],[1],[0.48333333333333334],horizontal,"(890.0, 762.0)",1.0666666666666667,0.446,1,8644.318,1
0,286,target,"[(1033, 909)]",[],[1],[],vertical,"(890.0, 262.0)",,"('cti', 1.451)",0,8649.668,0
0,287,target,"[(1033, 907)]",[],[1],[0.2833333333333333],horizontal,"(890.0, 762.0)",1.5666666666666667,0.243,1,8654.546,1
0,288,target,"[(1024, 918)]",[],[1],[0.55],horizontal,"(390.0, 762.0)",0.6666666666666666,0.511,1,8659.667,1
0,289,target,"[(1025, 921)]",[],[1],[0.5333333333333333],vertical,"(890.0, 262.0)",0.6666666666666666,0.493,1,8664.402,1
0,290,target,"[(1029, 894)]",[],[1],[0.5166666666666666],vertical,"(390.0, 262.0)",0.5,0.474,1,8669.067,2
0,291,catch,"[(1043, 894)]",[],[1],[],vertical,"(390.0, 262.0)",1.1833333333333333,nan,1,8673.801,1
0,292,target,"[(1033, 916)]",[],[1],[0.35],vertical,"(390.0, 262.0)",1.65,0.316,1,8678.373,1
0,293,target,"[(1028, 901)]",[],[1],[0.5],horizontal,"(890.0, 762.0)",0.9166666666666666,0.46,1,8683.302,1
0,294,target,"[(1023, 893)]",[],[1],[0.6666666666666666],vertical,"(390.0, 762.0)",0.5,0.626,1,8688.328,3
0,295,target,"[(1025, 917)]",[],[1],[0.5333333333333333],vertical,"(890.0, 762.0)",1.3333333333333333,0.495,1,8693.895,1
0,296,target,"[(1037, 905)]",[],[1],[0.7],horizontal,"(890.0, 762.0)",0.6166666666666667,0.655,1,8699.437,1
0,297,catch,"[(1034, 904)]",[],[1],[],vertical,"(890.0, 762.0)",1.5,nan,1,8703.817,1
0,298,target,"[(619, 513), (468, 365), (1000, 962), (1001, 942), (507, 403), (1030, 961), (1042, 968), (1029, 940)]",[],"[0, 0, 0, 0, 0, 0, 0, 1]",[0.5333333333333333],vertical,"(390.0, 262.0)",1.2666666666666666,0.495,1,8708.815,2
0,299,target,"[(1032, 953), (590, 399), (1029, 953), (1016, 960), (1014, 929)]",[],"[0, 0, 0, 0, 1]",[],horizontal,"(390.0, 262.0)",,"('cti', 1.299)",0,11052.794,0
0,300,target,"[(1033, 933)]",[],[1],[0.5333333333333333],horizontal,"(890.0, 762.0)",1.1666666666666667,0.49,1,11061.665,1
0,301,target,"[(1028, 934)]",[],[1],[0.2],vertical,"(890.0, 262.0)",0.95,0.166,1,11066.666,1
0,302,target,"[(1001, 935), (1018, 906)]",[],"[0, 1]",[],horizontal,"(890.0, 762.0)",,"('cti', 1.609)",0,11070.849,0
0,303,target,"[(1025, 941)]",[],[1],[0.18333333333333332],horizontal,"(890.0, 762.0)",1.5,0.151,1,11078.615,1
0,304,target,"[(1023, 921)]",[],[1],[0.55],horizontal,"(890.0, 762.0)",0.6666666666666666,0.507,1,11083.826,1
0,305,catch,"[(1001, 885), (1017, 935)]","[(1032, 940)]","[0, 1]",[0.08333333333333333],horizontal,"(890.0, 262.0)",,"('bar', 0.101),nan",0,11088.366,0
0,306,target,"[(1029, 927)]",[],[1],[0.55],vertical,"(390.0, 262.0)",1.1666666666666667,0.509,1,11091.016,1
0,307,target,"[(1009, 892)]",[],[1],[0.45],vertical,"(390.0, 262.0)",1.35,0.414,1,11095.751,1
0,308,target,"[(1041, 903)]",[],[1],[],vertical,"(890.0, 762.0)",,"('cti', 1.055)",0,11100.787,0
0,309,target,"[(1032, 905)]",[],[1],[0.5],horizontal,"(390.0, 262.0)",0.6833333333333333,0.459,1,11105.372,1
0,310,catch,"[(1029, 921)]",[],[1],[],vertical,"(390.0, 262.0)",1.4,nan,1,11109.982,1
0,311,target,"[(1033, 897)]",[],[1],[0.5666666666666667],vertical,"(390.0, 762.0)",0.75,0.527,1,11115.3,1
0,312,target,"[(1035, 900)]",[],[1],[0.31666666666666665],vertical,"(890.0, 762.0)",1.55,0.277,1,11119.817,2
0,313,target,"[(1021, 905)]",[],[1],[0.6833333333333333],vertical,"(390.0, 262.0)",0.9666666666666667,0.643,1,11125.866,1
0,314,target,"[(1032, 905)]",[],[1],[0.55],vertical,"(390.0, 262.0)",0.6,0.512,1,11130.817,1
0,315,target,"[(1024, 899)]",[],[1],[0.7166666666666667],horizontal,"(390.0, 262.0)",0.5333333333333333,0.678,1,11135.634,1
0,316,target,"[(1034, 899)]",[],[1],[],horizontal,"(390.0, 762.0)",,"('cti', 1.493)",0,11140.06,0
0,317,target,"[(1032, 911)]",[],[1],[0.5166666666666666],horizontal,"(390.0, 262.0)",0.95,0.477,1,11144.535,1
0,318,target,"[(1052, 891)]",[],[1],[0.2833333333333333],horizontal,"(890.0, 762.0)",1.25,0.244,1,11149.338,1
0,319,target,"[(1042, 916)]",[],[1],[0.5833333333333334],horizontal,"(390.0, 762.0)",1.0333333333333332,0.544,1,11154.406,1
0,320,catch,"[(1033, 903)]",[],[1],[],vertical,"(390.0, 762.0)",,"('cti', 1.612),nan",0,11159.187,0
0,321,target,"[(1033, 923)]",[],[1],[0.6666666666666666],vertical,"(390.0, 762.0)",0.7833333333333333,0.63,1,11163.917,1
0,322,target,"[(1038, 889)]",[],[1],[0.55],horizontal,"(390.0, 762.0)",0.9833333333333333,0.514,1,11168.544,1
0,323,target,"[(1045, 894)]",[],[1],[0.55],vertical,"(390.0, 762.0)",1.0833333333333333,0.519,1,11173.357,1
0,324,target,"[(1041, 914)]",[],[1],[0.26666666666666666],vertical,"(390.0, 262.0)",1.3666666666666667,0.235,1,11178.25,2
0,325,catch,"[(1047, 888)]",[],[1],[],vertical,"(890.0, 762.0)",1.4666666666666666,"('cti', 1.466),nan",0,11183.812,0
0,326,target,"[(1040, 931)]",[],[1],[0.6833333333333333],vertical,"(390.0, 762.0)",1.0666666666666667,0.647,1,11188.389,1
0,327,target,"[(1044, 872)]",[],[1],[],vertical,"(390.0, 262.0)",,"('cti', 0.59)",0,11193.371,0
0,328,target,"[(1002, 924), (1005, 948), (1001, 933), (981, 956), (1022, 907)]",[],"[0, 0, 0, 0, 1]",[],vertical,"(890.0, 762.0)",,"('fix', 0.083)",0,11197.15,0
0,329,target,"[(1001, 948), (1015, 889)]",[],"[0, 1]",[0.5],vertical,"(890.0, 262.0)",0.5333333333333333,0.464,1,11203.146,1
0,330,catch,"[(1033, 905)]",[],[1],[],horizontal,"(390.0, 262.0)",1.4333333333333333,nan,1,11211.186,1
0,331,target,"[(1029, 912)]",[],[1],[0.85],vertical,"(890.0, 262.0)",0.7166666666666667,nan,0,11215.801,0
0,332,target,"[(1045, 902)]",[],[1],[0.5166666666666666],horizontal,"(390.0, 762.0)",1.5666666666666667,0.475,1,11220.65,1
0,333,target,"[(1045, 896)]",[],[1],[0.6666666666666666],horizontal,"(390.0, 762.0)",0.5333333333333333,0.62,1,11225.977,1
0,334,target,"[(1025, 899)]",[],[1],[0.06666666666666667],horizontal,"(890.0, 262.0)",0.65,0.035,0,11230.754,0
0,335,target,"[(1038, 899)]",[],[1],[0.75],vertical,"(390.0, 262.0)",0.7166666666666667,0.706,1,11235.097,1
0,336,catch,"[(1040, 896)]",[],[1],[],vertical,"(890.0, 762.0)",,"('cti', 1.644),nan",0,11240.082,0
0,337,target,"[(1033, 916)]",[],[1],[0.5166666666666666],vertical,"(390.0, 262.0)",1.4166666666666667,0.477,1,11244.6,1
0,338,catch,"[(1021, 893)]",[],[1],[],vertical,"(890.0, 762.0)",1.35,nan,1,11249.802,1
0,339,target,"[(1040, 904)]",[],[1],[0.65],vertical,"(890.0, 762.0)",0.9,0.61,1,11254.91,1
0,340,target,"[(1030, 906)]",[],[1],[],vertical,"(890.0, 262.0)",,"('cti', 0.526)",0,11259.838,0
0,341,catch,"[(1005, 914)]",[],[1],[],vertical,"(390.0, 762.0)",1.15,nan,1,11264.054,1
0,342,target,"[(1033, 897)]",[],[1],[0.5],vertical,"(890.0, 262.0)",1.2666666666666666,0.468,1,11269.935,1
0,343,target,"[(1025, 894)]",[],[1],[0.48333333333333334],vertical,"(890.0, 762.0)",1.6666666666666667,0.444,1,11275.197,1
0,344,target,"[(1040, 894)]",[],[1],[0.4],vertical,"(390.0, 262.0)",1.3,0.365,1,11280.85,2
0,345,target,"[(1040, 892)]",[],[1],[0.43333333333333335],vertical,"(390.0, 762.0)",1.1166666666666667,0.396,1,11286.165,1
0,346,target,"[(1040, 884)]",[],[1],[],horizontal,"(390.0, 762.0)",,"('cti', 1.469)",0,11290.883,0
0,347,target,"[(1027, 890)]",[],[1],[0.5],horizontal,"(390.0, 262.0)",0.9166666666666666,0.461,1,11295.951,1
0,348,target,"[(1037, 880)]",[],[1],[0.7833333333333333],horizontal,"(390.0, 262.0)",0.8166666666666667,0.737,1,11300.984,1
0,349,target,"[(1039, 898)]",[],[1],[0.11666666666666667],vertical,"(390.0, 762.0)",1.5333333333333332,0.086,0,11305.9,0
0,350,target,"[(1028, 932)]",[],[1],[0.55],vertical,"(890.0, 262.0)",1.1166666666666667,0.504,1,11310.668,1
0,351,target,"[(1033, 859)]",[],[1],[0.5166666666666666],vertical,"(390.0, 262.0)",0.5833333333333334,0.481,1,11315.421,1
0,352,target,"[(1029, 907)]",[],[1],[0.5],horizontal,"(890.0, 762.0)",0.8333333333333334,0.468,1,11319.852,1
0,353,target,"[(1037, 892)]",[],[1],[0.4666666666666667],vertical,"(890.0, 762.0)",1.1333333333333333,0.426,1,11324.768,2
0,354,target,"[(1045, 896)]",[],[1],[],horizontal,"(890.0, 762.0)",,"('cti', 1.502)",0,11329.884,0
0,355,target,"[(1036, 894)]",[],[1],[0.5333333333333333],vertical,"(390.0, 762.0)",1.0833333333333333,0.497,1,11334.517,1
0,356,catch,"[(1030, 892)]",[],[1],[],vertical,"(890.0, 762.0)",,"('cti', 1.3),nan",0,11339.604,0
0,357,target,"[(1034, 923)]",[],[1],[0.5833333333333334],horizontal,"(890.0, 262.0)",0.6,0.538,1,11344.191,1
0,358,target,"[(1033, 900)]",[],[1],[0.25],horizontal,"(890.0, 762.0)",1.65,0.217,1,11348.568,1
0,359,catch,"[(210, 855), (1032, 950), (1002, 939), (527, 478), (1003, 914), (1004, 884), (1020, 932), (1030, 954)]","[(1000, 986)]","[0, 0, 0, 0, 0, 0, 1, 0]",[0.0],vertical,"(390.0, 262.0)",,"('bar', 2.807),nan",0,11353.596,0
0,360,catch,"[(1007, 937)]",[],[1],[],vertical,"(890.0, 762.0)",1.4833333333333334,nan,1,11963.739,1
0,361,target,"[(1028, 935)]",[],[1],[],vertical,"(390.0, 762.0)",,"('cti', 1.538)",0,11975.126,0
0,362,target,"[(1035, 942)]",[],[1],[0.26666666666666666],vertical,"(890.0, 262.0)",1.6166666666666667,0.231,1,11979.871,1
0,363,catch,"[(1037, 927)]",[],[1],[],horizontal,"(390.0, 262.0)",,"('cti', 1.302),nan",0,11984.938,0
0,364,target,"[(1033, 926)]",[],[1],[0.4],horizontal,"(890.0, 762.0)",1.5333333333333332,0.356,1,11989.484,1
0,365,target,"[(1019, 931)]",[],[1],[0.5166666666666666],horizontal,"(890.0, 262.0)",0.85,0.476,1,11994.326,1
0,366,target,"[(1037, 908)]",[],[1],[0.65],vertical,"(890.0, 762.0)",0.6,0.598,1,11998.685,1
0,367,target,"[(1040, 907)]",[],[1],[0.43333333333333335],vertical,"(890.0, 262.0)",1.2,0.394,1,12003.509,2
0,368,target,"[(1037, 896)]",[],[1],[0.7],vertical,"(390.0, 762.0)",0.55,0.656,1,12008.606,1
0,369,target,"[(1032, 909)]",[],[1],[0.5166666666666666],vertical,"(890.0, 262.0)",1.4666666666666666,0.484,1,12012.971,1
0,370,target,"[(1040, 898)]",[],[1],[0.06666666666666667],vertical,"(390.0, 262.0)",1.25,0.037,0,12018.095,0
0,371,target,"[(1035, 939)]",[],[1],[0.5166666666666666],horizontal,"(890.0, 262.0)",0.55,0.47,1,12022.838,1
0,372,target,"[(1021, 928)]",[],[1],[0.5333333333333333],vertical,"(890.0, 762.0)",0.5833333333333334,0.491,1,12027.184,1
0,373,target,"[(1023, 920)]",[],[1],[0.5666666666666667],vertical,"(390.0, 762.0)",1.1333333333333333,0.526,1,12032.012,1
0,374,target,"[(1032, 909)]",[],[1],[0.55],horizontal,"(890.0, 262.0)",1.2833333333333332,0.51,1,12036.922,2
0,375,catch,"[(1031, 898)]",[],[1],[],horizontal,"(390.0, 262.0)",1.4166666666666667,nan,1,12042.605,1
0,376,catch,"[(1040, 922)]",[],[1],[],vertical,"(890.0, 762.0)",1.65,nan,1,12047.806,1
0,377,target,"[(1044, 918)]",[],[1],[0.5666666666666667],horizontal,"(890.0, 262.0)",1.3666666666666667,0.523,1,12053.244,1
0,378,catch,"[(1037, 921)]",[],[1],[],vertical,"(390.0, 262.0)",1.4,nan,1,12059.089,3
0,379,target,"[(1030, 926)]",[],[1],[0.85],horizontal,"(890.0, 262.0)",1.0333333333333332,nan,0,12064.951,0
0,380,target,"[(1036, 935)]",[],[1],[0.3833333333333333],vertical,"(390.0, 762.0)",1.5666666666666667,0.347,1,12069.756,1
0,381,target,"[(1032, 918)]",[],[1],[0.5666666666666667],horizontal,"(390.0, 262.0)",0.55,0.519,1,12075.084,1
0,382,target,"[(1033, 917)]",[],[1],[0.5833333333333334],horizontal,"(890.0, 762.0)",1.1666666666666667,0.536,1,12079.839,1
0,383,target,"[(1017, 905)]",[],[1],[0.48333333333333334],horizontal,"(890.0, 762.0)",1.6,0.442,1,12085.322,2
0,384,catch,"[(1040, 905)]",[],[1],[],vertical,"(390.0, 762.0)",1.4833333333333334,nan,1,12091.037,1
0,385,target,"[(1040, 918)]",[],[1],[0.5],horizontal,"(390.0, 762.0)",1.1833333333333333,0.473,1,12095.655,1
0,386,target,"[(1037, 895)]",[],[1],[0.5833333333333334],vertical,"(390.0, 762.0)",0.8,0.542,1,12100.784,1
0,387,target,"[(1027, 937)]",[],[1],[0.5333333333333333],vertical,"(390.0, 262.0)",0.6166666666666667,0.492,1,12105.256,3
0,388,target,"[(1035, 879)]",[],[1],[0.6333333333333333],horizontal,"(390.0, 762.0)",0.7833333333333333,0.592,1,12110.44,1
0,389,target,"[(1029, 905)]",[],[1],[0.4666666666666667],vertical,"(390.0, 762.0)",0.7666666666666666,0.424,1,12115.16,1
0,390,target,"[(1045, 909)]",[],[1],[0.5],horizontal,"(890.0, 262.0)",0.9666666666666667,0.456,1,12119.887,1
0,391,target,"[(1025, 904)]",[],[1],[0.2833333333333333],vertical,"(890.0, 762.0)",1.5333333333333332,0.246,1,12124.389,2
0,392,target,"[(1017, 906)]",[],[1],[0.6],horizontal,"(390.0, 262.0)",1.0666666666666667,0.559,1,12130.19,1
0,393,target,"[(1039, 910)]",[],[1],[0.6],vertical,"(390.0, 762.0)",0.6666666666666666,0.556,1,12135.24,1
0,394,catch,"[(1027, 914)]",[],[1],[],vertical,"(390.0, 762.0)",,"('cti', 1.242),nan",0,12139.739,0
0,395,target,"[(1039, 908)]",[],[1],[0.5666666666666667],vertical,"(890.0, 762.0)",0.9833333333333333,0.524,1,12144.327,1
0,396,target,"[(1040, 910)]",[],[1],[0.5333333333333333],vertical,"(390.0, 262.0)",1.2166666666666666,0.491,1,12149.041,1
0,397,target,"[(1021, 912)]",[],[1],[],horizontal,"(390.0, 262.0)",,"('cti', 0.932)",0,12153.974,0
0,398,target,"[(1037, 922)]",[],[1],[0.55],vertical,"(890.0, 762.0)",0.55,0.514,1,12158.306,1
0,399,target,"[(1030, 904)]",[],[1],[0.55],vertical,"(890.0, 262.0)",1.3,0.505,1,12162.9,1
0,400,target,"[(1033, 909)]",[],[1],[0.55],vertical,"(890.0, 762.0)",0.7166666666666667,0.508,1,12167.794,1
0,401,target,"[(1028, 907)]",[],[1],[0.05],vertical,"(390.0, 262.0)",1.6166666666666667,0.019,0,12172.487,0
0,402,target,"[(1037, 919)]",[],[1],[0.5833333333333334],vertical,"(890.0, 762.0)",0.95,0.537,1,12177.207,1
0,403,target,"[(1025, 894)]",[],[1],[0.85],vertical,"(890.0, 762.0)",0.7,nan,0,12181.83,0
0,404,target,"[(1015, 939)]",[],[1],[0.5],vertical,"(390.0, 762.0)",1.2833333333333332,0.46,1,12186.292,1
0,405,target,"[(1040, 901)]",[],[1],[0.55],horizontal,"(890.0, 762.0)",1.2,0.506,1,12196.577,1
0,406,target,"[(1025, 895)]",[],[1],[0.65],vertical,"(890.0, 262.0)",0.9,0.604,1,12201.811,1
0,407,target,"[(1036, 901)]",[],[1],[0.48333333333333334],vertical,"(390.0, 262.0)",1.55,0.445,1,12206.606,2
0,408,target,"[(1040, 914)]",[],[1],[0.6166666666666667],vertical,"(390.0, 762.0)",1.0166666666666666,0.573,1,12212.473,1
0,409,target,"[(1040, 918)]",[],[1],[0.5333333333333333],vertical,"(890.0, 762.0)",1.0833333333333333,0.49,1,12217.541,1
0,410,catch,"[(1019, 929)]",[],[1],[],horizontal,"(890.0, 762.0)",1.6166666666666667,nan,1,12222.492,1
0,411,target,"[(1021, 904)]",[],[1],[0.55],vertical,"(390.0, 762.0)",0.6666666666666666,0.509,1,12227.455,3
0,412,target,"[(1029, 910)]",[],[1],[0.6333333333333333],horizontal,"(890.0, 762.0)",0.6,0.597,1,12232.698,1
0,413,target,"[(1024, 927)]",[],[1],[0.45],horizontal,"(390.0, 762.0)",1.0833333333333333,0.412,1,12237.191,1
0,414,target,"[(1041, 910)]",[],[1],[0.55],vertical,"(890.0, 762.0)",0.9,0.51,1,12242.191,1
0,415,target,"[(1026, 923)]",[],[1],[0.5166666666666666],vertical,"(390.0, 262.0)",0.9666666666666667,0.473,1,12247.005,2
0,416,target,"[(1028, 899)]",[],[1],[0.5666666666666667],horizontal,"(890.0, 262.0)",0.7666666666666666,0.529,1,12252.067,1
0,417,target,"[(1024, 916)]",[],[1],[0.6666666666666666],horizontal,"(890.0, 762.0)",0.7,0.623,1,12257.135,1
0,418,catch,"[(1013, 895)]",[],[1],[],horizontal,"(390.0, 762.0)",1.2333333333333334,nan,1,12261.874,1
0,419,target,"[(997, 931), (989, 932), (991, 935), (506, 508), (1019, 939)]",[],"[0, 0, 0, 0, 1]",[],horizontal,"(390.0, 262.0)",,"('fix', 0.232)",0,12266.156,0
0,420,catch,"[(1033, 939)]",[],[1],[],vertical,"(390.0, 262.0)",,"('cti', 1.479),nan",0,12271.295,0
0,421,target,"[(1039, 899)]",[],[1],[0.5166666666666666],horizontal,"(390.0, 262.0)",0.5,0.484,1,12275.827,1
0,422,target,"[(1021, 907)]",[],[1],[0.15],vertical,"(890.0, 262.0)",1.45,0.115,0,12280.465,0
0,423,catch,"[(1036, 933)]",[],[1],[],horizontal,"(890.0, 262.0)",1.5333333333333332,nan,1,12285.498,1
0,424,target,"[(1037, 896)]",[],[1],[0.6166666666666667],horizontal,"(890.0, 262.0)",0.8833333333333333,0.574,1,12290.157,1
0,425,target,"[(1032, 910)]",[],[1],[0.5],vertical,"(890.0, 262.0)",0.9333333333333333,0.461,1,12295.207,1
0,426,target,"[(1029, 899)]",[],[1],[0.6166666666666667],vertical,"(390.0, 762.0)",0.85,0.581,1,12299.923,2
0,427,target,"[(1016, 910)]",[],[1],[0.43333333333333335],horizontal,"(390.0, 762.0)",1.2333333333333334,0.391,1,12305.362,1
0,428,target,"[(1039, 927)]",[],[1],[0.55],vertical,"(390.0, 762.0)",0.5,0.501,1,12309.925,1
0,429,catch,"[(1045, 914)]",[],[1],[0.03333333333333333],horizontal,"(390.0, 762.0)",1.5833333333333333,"0.018,nan",0,12314.957,0
0,430,target,"[(1000, 932), (1023, 932)]",[],"[0, 1]",[],horizontal,"(390.0, 262.0)",,"('cti', 0.504)",0,12319.591,0
0,431,target,"[(1009, 964), (1025, 914)]",[],"[0, 1]",[0.55],vertical,"(390.0, 762.0)",1.5,0.506,1,12325.666,1
0,432,target,"[(1024, 910)]",[],[1],[0.25],vertical,"(890.0, 762.0)",1.6333333333333333,0.218,1,12332.057,1
0,433,catch,"[(1041, 923)]",[],[1],[],horizontal,"(890.0, 262.0)",1.6666666666666667,nan,1,12337.45,1
0,434,target,"[(1017, 904)]",[],[1],[0.5333333333333333],horizontal,"(390.0, 262.0)",1.35,0.491,1,12342.42,2
0,435,target,"[(1042, 902)]",[],[1],[0.5833333333333334],horizontal,"(390.0, 762.0)",1.1166666666666667,0.541,1,12348.14,1
0,436,catch,"[(1037, 886)]",[],[1],[],vertical,"(890.0, 262.0)",1.55,nan,1,12353.624,1
0,437,target,"[(1030, 909)]",[],[1],[0.23333333333333334],vertical,"(890.0, 762.0)",1.6166666666666667,0.202,1,12358.43,1
0,438,target,"[(1042, 904)]",[],[1],[0.5666666666666667],horizontal,"(390.0, 262.0)",1.1,0.524,1,12363.7,3
0,439,target,"[(1042, 911)]",[],[1],[0.43333333333333335],vertical,"(890.0, 762.0)",1.2166666666666666,0.394,1,12369.477,1
0,440,target,"[(1043, 876)]",[],[1],[0.55],horizontal,"(890.0, 262.0)",0.65,0.51,1,12374.664,1
0,441,target,"[(1036, 910)]",[],[1],[0.5],horizontal,"(390.0, 262.0)",1.1666666666666667,0.463,1,12378.973,1
0,442,target,"[(1040, 902)]",[],[1],[],horizontal,"(890.0, 762.0)",,"('cti', 1.164)",0,12384.157,0
0,443,target,"[(1034, 911)]",[],[1],[0.5666666666666667],horizontal,"(890.0, 262.0)",0.5,0.524,1,12388.313,1
0,444,target,"[(1027, 907)]",[],[1],[0.35],horizontal,"(390.0, 262.0)",1.3833333333333333,0.31,1,12392.899,1
0,445,target,"[(1044, 913)]",[],[1],[0.3333333333333333],vertical,"(390.0, 762.0)",1.3166666666666667,0.298,1,12398.123,1
0,446,target,"[(1037, 898)]",[],[1],[0.5],horizontal,"(890.0, 262.0)",0.9333333333333333,0.46,1,12403.173,2
0,447,target,"[(1013, 896)]",[],[1],[0.45],vertical,"(890.0, 262.0)",1.55,0.409,1,12408.166,1
0,448,catch,"[(1031, 910)]",[],[1],[],horizontal,"(390.0, 762.0)",1.4,nan,1,12413.519,1
0,449,target,"[(1029, 902)]",[],[1],[0.18333333333333332],horizontal,"(890.0, 762.0)",1.5833333333333333,0.151,1,12418.091,1
0,450,target,"[(1029, 900)]",[],[1],[0.75],vertical,"(390.0, 762.0)",0.7666666666666666,0.699,1,12423.007,3
0,451,target,"[(1022, 895)]",[],[1],[0.5833333333333334],vertical,"(390.0, 262.0)",1.5166666666666666,0.538,1,12428.652,1
0,452,target,"[(1034, 915)]",[],[1],[0.6333333333333333],horizontal,"(890.0, 762.0)",0.75,0.588,1,12433.759,1
0,453,target,"[(1017, 900)]",[],[1],[0.23333333333333334],vertical,"(890.0, 762.0)",1.5166666666666666,0.198,1,12438.407,1
0,454,target,"[(1030, 884)]",[],[1],[0.5166666666666666],vertical,"(390.0, 762.0)",0.5666666666666667,0.475,1,12443.82,2
0,455,target,"[(1039, 886)]",[],[1],[0.55],vertical,"(390.0, 762.0)",0.9166666666666666,0.511,1,12448.791,1
0,456,catch,"[(1040, 912)]",[],[1],[],horizontal,"(390.0, 262.0)",,"('cti', 1.409),nan",0,12453.476,0
0,457,target,"[(1025, 906)]",[],[1],[0.7],vertical,"(890.0, 762.0)",0.85,0.656,1,12458.286,1
0,458,target,"[(1033, 903)]",[],[1],[0.5166666666666666],horizontal,"(890.0, 762.0)",1.2166666666666666,0.473,1,12465.118,1
0,459,target,"[(1025, 890)]",[],[1],[],vertical,"(390.0, 762.0)",,"('cti', 1.177)",0,12470.342,0
0,460,catch,"[(1028, 917)]",[],[1],[],horizontal,"(890.0, 762.0)",1.4333333333333333,nan,1,12475.042,1
0,461,target,"[(1042, 922)]",[],[1],[0.23333333333333334],horizontal,"(890.0, 762.0)",1.6666666666666667,0.198,1,12479.676,1
0,462,target,"[(1030, 903)]",[],[1],[0.6],vertical,"(890.0, 262.0)",0.6,0.555,1,12484.891,1
0,463,target,"[(1040, 894)]",[],[1],[0.5166666666666666],horizontal,"(890.0, 262.0)",0.9833333333333333,0.476,1,12489.426,2
0,464,target,"[(1040, 876)]",[],[1],[0.36666666666666664],vertical,"(390.0, 762.0)",1.4333333333333333,0.327,1,12494.291,1
0,465,target,"[(1042, 922)]",[],[1],[0.11666666666666667],vertical,"(390.0, 762.0)",1.6666666666666667,0.085,0,12499.61,0
0,466,target,"[(1035, 917)]",[],[1],[0.5833333333333334],horizontal,"(890.0, 262.0)",0.5666666666666667,0.541,1,12504.234,1
0,467,target,"[(1042, 882)]",[],[1],[0.5666666666666667],horizontal,"(890.0, 762.0)",1.0666666666666667,0.514,1,12508.811,1
0,468,catch,"[(1041, 896)]",[],[1],[],vertical,"(390.0, 762.0)",1.2333333333333334,nan,1,12513.874,1
0,469,target,"[(1033, 925)]",[],[1],[0.6],horizontal,"(390.0, 262.0)",0.95,0.557,1,12518.625,2
0,470,target,"[(1045, 881)]",[],[1],[0.08333333333333333],vertical,"(390.0, 262.0)",1.65,0.05,0,12523.841,0
0,471,target,"[(1041, 923)]",[],[1],[0.5166666666666666],horizontal,"(890.0, 762.0)",1.3166666666666667,0.47,1,12528.474,1
0,472,target,"[(1021, 916)]",[],[1],[0.55],horizontal,"(890.0, 262.0)",0.85,0.51,1,12533.582,1
0,473,target,"[(1043, 880)]",[],[1],[0.6666666666666666],horizontal,"(390.0, 262.0)",0.5333333333333333,0.625,1,12538.104,1
0,474,target,"[(1030, 916)]",[],[1],[0.5666666666666667],horizontal,"(890.0, 262.0)",0.6833333333333333,0.526,1,12542.575,2
0,475,target,"[(1042, 908)]",[],[1],[0.6],vertical,"(390.0, 262.0)",0.5666666666666667,0.557,1,12547.698,1
0,476,target,"[(1042, 910)]",[],[1],[],horizontal,"(390.0, 762.0)",,"('cti', 1.447)",0,12552.508,0
0,477,target,"[(1042, 913)]",[],[1],[0.35],vertical,"(890.0, 262.0)",1.4333333333333333,0.312,1,12557.141,1
0,478,target,"[(1038, 886)]",[],[1],[0.6333333333333333],vertical,"(890.0, 762.0)",0.5,0.59,1,12562.225,1
0,479,target,"[(1049, 885)]",[],[1],[0.45],horizontal,"(890.0, 262.0)",1.55,0.409,1,12566.475,1
0,480,target,"[(1030, 914)]",[],[1],[0.5333333333333333],vertical,"(890.0, 262.0)",1.3333333333333333,0.492,1,12571.79,2
0,481,catch,"[(1042, 911)]",[],[1],[],horizontal,"(890.0, 262.0)",1.2,nan,1,12577.175,1
0,482,target,"[(1043, 904)]",[],[1],[0.55],vertical,"(390.0, 262.0)",1.55,0.504,1,12582.16,1
0,483,catch,"[(1030, 896)]",[],[1],[],horizontal,"(890.0, 262.0)",1.2166666666666666,nan,1,12587.443,1
0,484,target,"[(1041, 932)]",[],[1],[0.5833333333333334],horizontal,"(890.0, 262.0)",0.9833333333333333,0.536,1,12592.033,3
0,485,target,"[(1025, 916)]",[],[1],[0.36666666666666664],vertical,"(890.0, 262.0)",1.4333333333333333,0.328,1,12597.438,1
0,486,target,"[(1052, 896)]",[],[1],[0.5],horizontal,"(890.0, 262.0)",1.1166666666666667,0.464,1,12602.475,1
0,487,target,"[(1052, 907)]",[],[1],[0.5],horizontal,"(390.0, 262.0)",1.05,0.464,1,12607.445,1
0,488,target,"[(1040, 895)]",[],[1],[0.55],horizontal,"(390.0, 762.0)",1.05,0.504,1,12612.326,2
0,489,target,"[(1045, 893)]",[],[1],[0.5833333333333334],vertical,"(890.0, 262.0)",0.9666666666666667,0.536,1,12617.229,1
0,490,target,"[(1040, 906)]",[],[1],[0.16666666666666666],horizontal,"(390.0, 762.0)",1.2666666666666666,0.136,0,12622.189,0
0,491,target,"[(1029, 916)]",[],[1],[0.13333333333333333],vertical,"(890.0, 762.0)",1.65,0.101,0,12627.242,0
0,492,target,"[(1033, 926)]",[],[1],[0.4666666666666667],horizontal,"(890.0, 762.0)",1.6,0.424,1,12632.209,1
0,493,target,"[(1029, 908)]",[],[1],[0.5],horizontal,"(390.0, 762.0)",1.4166666666666667,0.46,1,12637.888,1
0,494,target,"[(1026, 905)]",[],[1],[0.48333333333333334],vertical,"(890.0, 262.0)",1.25,0.44,1,12643.176,1
0,495,target,"[(1037, 906)]",[],[1],[0.5333333333333333],vertical,"(890.0, 762.0)",0.6333333333333333,0.492,1,12648.092,2
0,496,catch,"[(1040, 909)]",[],[1],[],vertical,"(890.0, 762.0)",1.65,nan,1,12653.1,1
0,497,target,"[(1038, 898)]",[],[1],[0.5666666666666667],vertical,"(890.0, 762.0)",0.9666666666666667,0.527,1,12657.826,1
0,498,target,"[(1035, 903)]",[],[1],[0.3],horizontal,"(390.0, 762.0)",1.2166666666666666,0.264,1,12662.709,1
0,499,target,"[(1042, 910)]",[],[1],[0.75],vertical,"(890.0, 262.0)",0.6833333333333333,0.703,1,12667.836,3
0,500,target,"[(1031, 888)]",[],[1],[0.6833333333333333],horizontal,"(390.0, 262.0)",0.6,0.646,1,12673.893,1
0,501,target,"[(1029, 899)]",[],[1],[0.6],vertical,"(390.0, 762.0)",0.5333333333333333,0.553,1,12678.395,1
0,502,target,"[(1042, 898)]",[],[1],[],vertical,"(890.0, 262.0)",,"('cti', 1.436)",0,12683.268,0
0,503,target,"[(1028, 910)]",[],[1],[0.7],vertical,"(890.0, 762.0)",0.55,0.654,1,12687.776,1
0,504,target,"[(1037, 909)]",[],[1],[0.5],vertical,"(890.0, 262.0)",0.7333333333333333,0.457,1,12692.104,1
0,505,target,"[(1029, 887)]",[],[1],[0.5],vertical,"(890.0, 262.0)",0.9,0.461,1,12696.742,1
0,506,target,"[(1034, 902)]",[],[1],[0.65],horizontal,"(390.0, 762.0)",0.6166666666666667,0.608,1,12701.293,2
0,507,target,"[(1040, 926)]",[],[1],[0.6],vertical,"(890.0, 762.0)",0.9,0.553,1,12706.481,1
0,508,target,"[(1029, 886)]",[],[1],[0.6166666666666667],vertical,"(390.0, 762.0)",0.9333333333333333,0.572,1,12711.254,1
0,509,target,"[(1042, 908)]",[],[1],[0.48333333333333334],vertical,"(390.0, 262.0)",1.0,0.44,1,12716.064,1
0,510,catch,"[(1040, 893)]",[],[1],[],horizontal,"(890.0, 262.0)",1.4166666666666667,nan,1,12720.643,3
0,511,target,"[(1025, 912)]",[],[1],[0.5],horizontal,"(890.0, 262.0)",1.6,0.459,1,12726.425,1
0,512,target,"[(1033, 899)]",[],[1],[0.6166666666666667],vertical,"(390.0, 262.0)",1.1166666666666667,0.568,1,12731.758,1
0,513,target,"[(1032, 905)]",[],[1],[0.5833333333333334],horizontal,"(890.0, 762.0)",0.9,0.538,1,12736.75,1
0,514,target,"[(1028, 892)]",[],[1],[0.5166666666666666],horizontal,"(890.0, 262.0)",1.0,0.479,1,12741.636,2
0,515,target,"[(1041, 901)]",[],[1],[0.5833333333333334],vertical,"(390.0, 262.0)",1.0833333333333333,0.544,1,12746.842,1
0,516,target,"[(1028, 913)]",[],[1],[0.6166666666666667],vertical,"(890.0, 762.0)",1.0666666666666667,0.572,1,12752.043,1
0,517,target,"[(1043, 905)]",[],[1],[0.18333333333333332],vertical,"(390.0, 762.0)",1.4333333333333333,0.152,1,12757.428,1
0,518,target,"[(1043, 885)]",[],[1],[0.55],horizontal,"(890.0, 762.0)",1.3833333333333333,0.506,1,12762.243,3
0,519,target,"[(1036, 897)]",[],[1],[0.5833333333333334],horizontal,"(890.0, 762.0)",0.65,0.54,1,12767.97,1
0,520,target,"[(1026, 929)]",[],[1],[0.13333333333333333],horizontal,"(890.0, 762.0)",1.45,0.102,0,12772.611,0
0,521,target,"[(1036, 910)]",[],[1],[0.85],horizontal,"(890.0, 762.0)",0.6166666666666667,nan,0,12777.277,0
0,522,target,"[(1041, 939)]",[],[1],[0.43333333333333335],vertical,"(390.0, 262.0)",1.4166666666666667,0.396,1,12781.785,1
0,523,target,"[(1040, 891)]",[],[1],[0.55],horizontal,"(390.0, 262.0)",1.4833333333333334,0.508,1,12787.308,1
0,524,target,"[(1045, 892)]",[],[1],[0.6166666666666667],horizontal,"(390.0, 762.0)",0.95,0.572,1,12792.293,1
0,525,catch,"[(1042, 890)]",[],[1],[],vertical,"(390.0, 762.0)",1.2833333333333332,nan,1,12797.094,2
0,526,target,"[(1033, 887)]",[],[1],[0.5666666666666667],horizontal,"(890.0, 762.0)",0.5333333333333333,0.522,1,12802.27,1
0,527,target,"[(1029, 906)]",[],[1],[0.75],horizontal,"(390.0, 262.0)",0.5666666666666667,0.706,1,12807.077,1
0,528,target,"[(1037, 911)]",[],[1],[0.5],horizontal,"(390.0, 262.0)",1.1666666666666667,0.462,1,12811.46,1
0,529,target,"[(1045, 916)]",[],[1],[],horizontal,"(390.0, 762.0)",,"('cti', 1.545)",0,12816.178,0
0,530,catch,"[(1033, 932)]",[],[1],[],vertical,"(890.0, 262.0)",1.6166666666666667,nan,1,12820.915,1
0,531,target,"[(1029, 933)]",[],[1],[0.5333333333333333],vertical,"(390.0, 262.0)",1.1333333333333333,0.486,1,12825.692,1
0,532,target,"[(1007, 903)]",[],[1],[0.6],horizontal,"(890.0, 762.0)",1.0833333333333333,0.557,1,12830.677,1
0,533,catch,"[(1040, 884)]",[],[1],[],horizontal,"(890.0, 262.0)",,"('cti', 1.548),nan",0,12835.292,0
0,534,target,"[(1035, 928)]",[],[1],[0.5833333333333334],vertical,"(890.0, 762.0)",1.6166666666666667,0.541,1,12839.526,1
0,535,target,"[(1030, 896)]",[],[1],[0.5],vertical,"(890.0, 262.0)",0.5,0.464,1,12844.997,1
0,536,target,"[(1040, 912)]",[],[1],[0.6166666666666667],vertical,"(890.0, 262.0)",0.6166666666666667,0.577,1,12849.546,1
0,537,catch,"[(1033, 881)]",[],[1],[],horizontal,"(890.0, 262.0)",1.4333333333333333,nan,1,12854.174,2
0,538,target,"[(1029, 880)]",[],[1],[0.1],vertical,"(890.0, 262.0)",1.5333333333333332,0.069,0,12859.727,0
0,539,target,"[(1026, 943)]",[],[1],[0.5],horizontal,"(890.0, 262.0)",1.4666666666666666,0.457,1,12864.479,1
0,540,target,"[(1037, 889)]",[],[1],[0.3],horizontal,"(890.0, 762.0)",1.4333333333333333,0.263,1,12870.06,1
0,541,catch,"[(1041, 897)]",[],[1],[],vertical,"(390.0, 762.0)",1.6666666666666667,nan,1,12874.97,1
0,542,catch,"[(1025, 905)]",[],[1],[],vertical,"(890.0, 262.0)",1.1833333333333333,nan,1,12879.84,2
0,543,target,"[(1037, 895)]",[],[1],[0.7333333333333333],vertical,"(890.0, 262.0)",0.9333333333333333,0.688,1,12884.914,1
0,544,target,"[(1025, 884)]",[],[1],[0.3333333333333333],vertical,"(390.0, 262.0)",1.5666666666666667,0.295,1,12890.077,1
0,545,target,"[(1044, 897)]",[],[1],[0.5333333333333333],vertical,"(890.0, 762.0)",0.75,0.491,1,12895.522,1
0,546,target,"[(1030, 896)]",[],[1],[0.4666666666666667],vertical,"(390.0, 262.0)",1.4,0.429,1,12899.648,3
0,547,target,"[(1040, 886)]",[],[1],[0.5166666666666666],horizontal,"(890.0, 262.0)",0.75,0.471,1,12906.111,1
0,548,target,"[(1020, 903)]",[],[1],[0.5333333333333333],vertical,"(890.0, 762.0)",0.5333333333333333,0.49,1,12910.886,1
0,549,target,"[(1040, 910)]",[],[1],[0.5833333333333334],horizontal,"(390.0, 762.0)",0.9833333333333333,0.543,1,12915.564,1
0,550,target,"[(1020, 887)]",[],[1],[0.5833333333333334],vertical,"(890.0, 762.0)",1.2333333333333334,0.542,1,12920.627,2
0,551,target,"[(1030, 898)]",[],[1],[0.55],horizontal,"(890.0, 262.0)",0.6333333333333333,0.505,1,12926.247,1
0,552,target,"[(1047, 905)]",[],[1],[0.21666666666666667],horizontal,"(890.0, 762.0)",1.5,0.181,1,12931.114,1
0,553,target,"[(1033, 915)]",[],[1],[0.15],horizontal,"(890.0, 262.0)",1.6,0.117,0,12935.955,0
0,554,target,"[(1004, 959), (1031, 961), (443, 716), (1009, 959), (998, 936), (1006, 932)]",[],"[0, 0, 0, 0, 0, 1]",[0.85],horizontal,"(390.0, 762.0)",0.5833333333333334,nan,0,12941.243,0
0,555,target,"[(1032, 946), (997, 953), (563, 508), (1007, 948), (998, 958), (1003, 955), (946, 959), (1001, 960), (426, 526), (1007, 958), (562, 580), (511, 675), (566, 679), (1026, 932)]",[],"[0, 0, 0, 0, 0, 0, 0, 0, 0, 0, 0, 0, 0, 1]",[0.6166666666666667],vertical,"(390.0, 762.0)",1.2666666666666666,0.572,1,13093.765,1
0,556,target,"[(1036, 945), (1021, 917)]",[],"[0, 1]",[0.6166666666666667],horizontal,"(390.0, 762.0)",0.6166666666666667,0.57,1,13110.125,1
0,557,target,"[(1009, 900)]",[],[1],[0.4166666666666667],vertical,"(890.0, 262.0)",1.4333333333333333,0.378,1,13116.699,1
0,558,target,"[(1025, 888)]",[],[1],[0.5833333333333334],vertical,"(390.0, 762.0)",1.4166666666666667,0.545,1,13122.304,2
0,559,target,"[(1040, 894)]",[],[1],[0.06666666666666667],horizontal,"(390.0, 262.0)",1.6166666666666667,0.036,0,13127.828,0
0,560,target,"[(1033, 888)]",[],[1],[0.5333333333333333],horizontal,"(890.0, 762.0)",1.3,0.494,1,13132.696,1
0,561,target,"[(1031, 921)]",[],[1],[0.6],vertical,"(890.0, 762.0)",0.7333333333333333,0.558,1,13137.846,1
0,562,target,"[(1040, 893)]",[],[1],[0.5333333333333333],vertical,"(390.0, 762.0)",1.1666666666666667,0.492,1,13142.879,1
0,563,target,"[(1009, 920)]",[],[1],[0.45],vertical,"(890.0, 762.0)",1.2333333333333334,0.412,1,13148.086,2
0,564,target,"[(1029, 903)]",[],[1],[0.6666666666666666],horizontal,"(390.0, 762.0)",0.5666666666666667,0.621,1,13160.415,1
0,565,target,"[(1033, 900)]",[],[1],[0.5166666666666666],vertical,"(890.0, 262.0)",0.7166666666666667,0.474,1,13165.237,1
0,566,target,"[(1013, 887)]",[],[1],[0.5333333333333333],vertical,"(390.0, 262.0)",0.65,0.49,1,13169.874,1
0,567,target,"[(1037, 889)]",[],[1],[0.5166666666666666],vertical,"(890.0, 262.0)",0.95,0.472,1,13174.245,3
0,568,target,"[(1026, 915)]",[],[1],[0.75],vertical,"(890.0, 762.0)",1.6333333333333333,0.702,1,13180.076,1
0,569,target,"[(1032, 914)]",[],[1],[0.85],horizontal,"(890.0, 262.0)",0.5,nan,0,13185.681,0
0,570,target,"[(1021, 928)]",[],[1],[0.5333333333333333],horizontal,"(890.0, 262.0)",0.6166666666666667,0.493,1,13189.815,1
0,571,target,"[(1034, 896)]",[],[1],[0.43333333333333335],vertical,"(390.0, 262.0)",1.5166666666666666,0.399,1,13194.197,1
0,572,target,"[(1030, 900)]",[],[1],[0.5833333333333334],horizontal,"(390.0, 762.0)",0.9666666666666667,0.542,1,13199.55,1
0,573,target,"[(1025, 896)]",[],[1],[0.55],vertical,"(890.0, 262.0)",0.5,0.502,1,13204.032,2
0,574,target,"[(1029, 904)]",[],[1],[0.5833333333333334],horizontal,"(390.0, 762.0)",1.1666666666666667,0.539,1,13209.062,1
0,575,target,"[(1038, 908)]",[],[1],[0.5666666666666667],horizontal,"(390.0, 262.0)",0.9333333333333333,0.526,1,13214.201,1
0,576,target,"[(1017, 909)]",[],[1],[0.5],horizontal,"(890.0, 262.0)",1.0666666666666667,0.458,1,13218.967,1
0,577,catch,"[(1029, 887)]","[(1035, 922)]",[1],[0.5166666666666666],horizontal,"(390.0, 262.0)",,"('bar', 0.525),nan",0,13224.028,0
0,578,target,"[(1033, 939)]",[],[1],[0.8],horizontal,"(390.0, 262.0)",0.9666666666666667,0.751,1,13226.789,1
0,579,target,"[(1033, 904)]",[],[1],[0.85],vertical,"(390.0, 262.0)",1.2666666666666666,nan,0,13232.238,0
0,580,target,"[(1033, 899)]",[],[1],[0.6],vertical,"(890.0, 762.0)",0.5166666666666666,0.56,1,13237.388,1
0,581,target,"[(1026, 899)]",[],[1],[0.75],vertical,"(890.0, 762.0)",0.9666666666666667,0.704,1,13241.867,1
0,582,catch,"[(1038, 875)]",[],[1],[],horizontal,"(890.0, 262.0)",1.2,nan,1,13247.117,1
0,583,target,"[(1013, 905)]",[],[1],[0.5166666666666666],horizontal,"(390.0, 262.0)",0.55,0.475,1,13251.981,2
0,584,target,"[(1052, 899)]",[],[1],[0.06666666666666667],vertical,"(390.0, 262.0)",1.35,0.036,0,13256.647,0
0,585,target,"[(1035, 921)]",[],[1],[0.4],horizontal,"(890.0, 262.0)",1.1666666666666667,0.36,1,13261.337,1
0,586,target,"[(994, 873), (1017, 937)]",[],"[0, 1]",[0.5833333333333334],horizontal,"(890.0, 262.0)",1.1,0.543,1,13266.464,1
0,587,target,"[(1040, 884)]",[],[1],[0.75],horizontal,"(890.0, 762.0)",1.0,0.705,1,13272.668,1
0,588,target,"[(1040, 881)]",[],[1],[0.5333333333333333],horizontal,"(390.0, 762.0)",0.6,0.493,1,13277.682,2
0,589,target,"[(1037, 914)]",[],[1],[0.3333333333333333],horizontal,"(390.0, 762.0)",1.5666666666666667,0.296,1,13282.471,1
0,590,target,"[(1038, 907)]",[],[1],[0.6333333333333333],horizontal,"(890.0, 762.0)",1.05,0.593,1,13287.351,1
0,591,target,"[(1037, 893)]",[],[1],[0.6666666666666666],horizontal,"(390.0, 762.0)",0.5166666666666666,0.624,1,13292.413,1
0,592,target,"[(1029, 895)]",[],[1],[0.35],horizontal,"(390.0, 762.0)",1.3166666666666667,0.311,1,13297.003,3
0,593,target,"[(1026, 907)]",[],[1],[0.5666666666666667],horizontal,"(890.0, 762.0)",1.0166666666666666,0.522,1,13302.414,1
0,594,target,"[(1027, 868)]",[],[1],[0.7],vertical,"(390.0, 762.0)",0.95,0.656,1,13307.546,1
0,595,target,"[(1025, 891)]",[],[1],[0.5666666666666667],vertical,"(890.0, 262.0)",0.8833333333333333,0.525,1,13312.363,1
0,596,catch,"[(1030, 894)]",[],[1],[],vertical,"(890.0, 762.0)",1.2833333333333332,nan,1,13317.23,2
0,597,target,"[(1030, 859)]",[],[1],[0.08333333333333333],horizontal,"(390.0, 762.0)",1.6833333333333333,0.052,0,13322.063,0
0,598,target,"[(1030, 910)]",[],[1],[0.5666666666666667],vertical,"(890.0, 262.0)",1.3833333333333333,0.527,1,13326.814,1
0,599,target,"[(1029, 887)]",[],[1],[0.85],horizontal,"(890.0, 762.0)",0.8833333333333333,nan,0,13332.025,0
0,600,target,"[(1022, 924)]",[],[1],[0.4166666666666667],vertical,"(390.0, 762.0)",1.6166666666666667,0.383,1,13336.919,1
0,601,target,"[(1033, 895)]",[],[1],[0.5666666666666667],horizontal,"(390.0, 762.0)",1.0833333333333333,0.526,1,13342.414,1
0,602,target,"[(1029, 891)]",[],[1],[0.55],horizontal,"(890.0, 762.0)",0.55,0.508,1,13347.231,1
0,603,target,"[(1057, 850)]",[],[1],[0.55],vertical,"(890.0, 762.0)",1.0,0.514,1,13351.48,2
0,604,catch,"[(1006, 933)]",[],[1],[],vertical,"(390.0, 262.0)",1.4666666666666666,nan,1,13356.863,1
0,605,catch,"[(1029, 893)]",[],[1],[],vertical,"(390.0, 262.0)",1.1833333333333333,nan,1,13362.133,1
0,606,target,"[(1033, 900)]",[],[1],[0.55],horizontal,"(390.0, 762.0)",0.9166666666666666,0.515,1,13366.583,1
0,607,target,"[(1038, 883)]",[],[1],[0.7333333333333333],vertical,"(890.0, 262.0)",0.6166666666666667,0.69,1,13371.364,3
0,608,target,"[(1029, 872)]",[],[1],[0.6333333333333333],vertical,"(390.0, 762.0)",1.6333333333333333,0.594,1,13377.2,1
0,609,target,"[(1031, 884)]",[],[1],[0.5166666666666666],horizontal,"(890.0, 762.0)",1.3833333333333333,0.477,1,13382.373,1
0,610,target,"[(1033, 896)]",[],[1],[0.75],horizontal,"(390.0, 262.0)",0.9166666666666666,0.706,1,13387.648,1
0,611,target,"[(1025, 881)]",[],[1],[],horizontal,"(390.0, 262.0)",,"('fix', 0.196)",0,13392.764,0
0,612,target,"[(1023, 905)]",[],[1],[0.3833333333333333],vertical,"(390.0, 762.0)",1.5166666666666666,0.344,1,13394.581,1
0,613,target,"[(1035, 897)]",[],[1],[0.7333333333333333],horizontal,"(890.0, 762.0)",0.5166666666666666,0.689,1,13405.135,1
0,614,target,"[(1021, 879)]",[],[1],[0.75],vertical,"(390.0, 262.0)",0.6833333333333333,0.704,1,13409.829,1
0,615,target,"[(1033, 900)]",[],[1],[0.6166666666666667],vertical,"(890.0, 762.0)",0.7166666666666667,0.574,1,13414.797,2
0,616,target,"[(1029, 910)]",[],[1],[0.5],horizontal,"(890.0, 762.0)",1.1666666666666667,0.459,1,13419.897,1
0,617,target,"[(1038, 903)]",[],[1],[0.55],vertical,"(390.0, 262.0)",1.05,0.51,1,13425.021,1
0,618,target,"[(1025, 861)]",[],[1],[0.5666666666666667],vertical,"(390.0, 762.0)",0.55,0.525,1,13429.733,1
0,619,target,"[(1006, 917)]",[],[1],[0.55],vertical,"(390.0, 262.0)",0.7,0.511,1,13434.013,3
0,620,target,"[(1038, 891)]",[],[1],[0.08333333333333333],horizontal,"(390.0, 262.0)",1.65,0.052,0,13439.837,0
0,621,target,"[(1032, 913)]",[],[1],[0.5666666666666667],horizontal,"(390.0, 762.0)",0.5,0.531,1,13444.625,1
0,622,target,"[(1036, 910)]",[],[1],[0.85],vertical,"(390.0, 762.0)",0.8333333333333334,nan,0,13449.197,0
0,623,target,"[(997, 932), (1030, 899)]",[],"[0, 1]",[0.6833333333333333],horizontal,"(390.0, 762.0)",0.8666666666666667,0.643,1,13453.915,1
0,624,target,"[(1017, 910)]",[],[1],[0.7666666666666666],horizontal,"(890.0, 762.0)",1.1333333333333333,0.719,1,13460.797,1
0,625,target,"[(1040, 904)]",[],[1],[0.05],horizontal,"(390.0, 762.0)",1.6833333333333333,0.02,0,13465.793,0
0,626,target,"[(1015, 905)]",[],[1],[0.7],vertical,"(890.0, 262.0)",1.0833333333333333,0.653,1,13470.832,1
0,627,target,"[(1039, 902)]",[],[1],[0.6166666666666667],horizontal,"(890.0, 262.0)",0.9166666666666666,0.575,1,13476.181,1
0,628,target,"[(1025, 902)]",[],[1],[0.4666666666666667],vertical,"(890.0, 262.0)",1.2,0.424,1,13481.211,1
0,629,target,"[(1040, 889)]",[],[1],[0.6],vertical,"(890.0, 762.0)",1.2666666666666666,0.56,1,13486.564,2
0,630,target,"[(1047, 873)]",[],[1],[0.7666666666666666],vertical,"(890.0, 762.0)",0.6,0.718,1,13491.947,1
0,631,target,"[(1031, 903)]",[],[1],[0.5166666666666666],horizontal,"(890.0, 762.0)",1.2333333333333334,0.479,1,13496.832,1
0,632,target,"[(1029, 903)]",[],[1],[0.5166666666666666],vertical,"(890.0, 262.0)",0.6833333333333333,0.472,1,13502.003,1
0,633,target,"[(1033, 885)]",[],[1],[0.55],vertical,"(890.0, 262.0)",1.4,0.509,1,13506.714,3
0,634,target,"[(1033, 870)]",[],[1],[0.48333333333333334],horizontal,"(890.0, 262.0)",1.5666666666666667,0.449,1,13513.041,1
0,635,target,"[(1031, 889)]",[],[1],[0.6833333333333333],vertical,"(390.0, 262.0)",0.9333333333333333,0.649,1,13518.067,1
0,636,target,"[(1032, 897)]",[],[1],[0.5333333333333333],vertical,"(890.0, 762.0)",1.4666666666666666,0.495,1,13523.196,1
0,637,target,"[(1042, 906)]",[],[1],[0.65],horizontal,"(390.0, 262.0)",0.6,0.609,1,13528.146,2
0,638,target,"[(1028, 898)]",[],[1],[0.8],vertical,"(390.0, 762.0)",0.9,0.755,1,13533.264,1
0,639,target,"[(1040, 906)]",[],[1],[0.31666666666666665],horizontal,"(390.0, 762.0)",1.3166666666666667,0.28,1,13538.074,1
0,640,target,"[(1040, 896)]",[],[1],[0.6333333333333333],horizontal,"(390.0, 762.0)",0.5833333333333334,0.591,1,13542.963,1
0,641,target,"[(1029, 896)]",[],[1],[0.5666666666666667],horizontal,"(390.0, 262.0)",0.8,0.521,1,13547.696,3
0,642,catch,"[(787, 914), (1013, 923)]",[],"[0, 1]",[],vertical,"(390.0, 262.0)",1.4,nan,1,13553.203,1
0,643,target,"[(1028, 916)]",[],[1],[0.06666666666666667],horizontal,"(890.0, 262.0)",1.5166666666666666,0.037,0,13557.948,0
0,644,target,"[(1033, 930)]",[],[1],[0.5],vertical,"(890.0, 262.0)",1.3666666666666667,0.464,1,13562.599,1
0,645,target,"[(1024, 912)]",[],[1],[0.6],vertical,"(390.0, 262.0)",0.5833333333333334,0.558,1,13567.775,1
0,646,target,"[(1045, 889)]",[],[1],[0.5833333333333334],vertical,"(390.0, 762.0)",0.7,0.552,1,13572.272,1
0,647,target,"[(1020, 915)]",[],[1],[0.5333333333333333],vertical,"(390.0, 262.0)",1.5833333333333333,0.498,1,13577.131,2
0,648,target,"[(1033, 898)]",[],[1],[0.3333333333333333],horizontal,"(390.0, 262.0)",1.55,0.293,1,13583.03,1
0,649,target,"[(1001, 923), (1023, 949), (993, 929), (991, 952), (1000, 948), (1001, 957), (991, 924), (998, 939), (1002, 933), (999, 953), (1021, 930)]",[],"[0, 0, 0, 0, 0, 0, 0, 0, 0, 0, 1]",[0.5833333333333334],vertical,"(890.0, 762.0)",1.5166666666666666,0.536,1,13588.292,1
0,650,target,"[(1025, 916)]",[],[1],[0.85],vertical,"(890.0, 762.0)",1.2166666666666666,nan,0,16143.249,0
0,651,target,"[(370, 625), (997, 946), (1000, 905), (1031, 920)]",[],"[0, 0, 0, 1]",[0.5333333333333333],horizontal,"(390.0, 762.0)",1.3666666666666667,0.496,1,16148.264,1
0,652,target,"[(1029, 922)]",[],[1],[0.5333333333333333],horizontal,"(890.0, 262.0)",0.8166666666666667,0.491,1,16161.499,1
0,653,target,"[(1026, 902)]",[],[1],[0.55],vertical,"(390.0, 262.0)",1.15,0.503,1,16166.461,1
0,654,target,"[(1031, 899)]",[],[1],[0.85],vertical,"(390.0, 262.0)",0.7333333333333333,nan,0,16171.748,0
0,655,target,"[(1033, 902)]",[],[1],[0.55],vertical,"(890.0, 762.0)",0.5833333333333334,0.522,1,16176.33,1
0,656,target,"[(1022, 903)]",[],[1],[0.55],horizontal,"(390.0, 762.0)",0.9166666666666666,0.502,1,16180.651,1
0,657,target,"[(1029, 917)]",[],[1],[0.5],vertical,"(390.0, 262.0)",1.6666666666666667,0.457,1,16185.71,1
0,658,target,"[(1044, 910)]",[],[1],[0.8166666666666667],vertical,"(890.0, 762.0)",0.5333333333333333,0.769,1,16191.032,2
0,659,target,"[(1040, 919)]",[],[1],[0.5],horizontal,"(390.0, 262.0)",1.1,0.456,1,16196.55,1
0,660,target,"[(1040, 893)]",[],[1],[0.55],horizontal,"(390.0, 762.0)",1.2333333333333334,0.502,1,16201.746,1
0,661,target,"[(1032, 912)]",[],[1],[0.85],vertical,"(390.0, 762.0)",1.65,nan,0,16206.619,0
0,662,target,"[(1033, 914)]",[],[1],[0.31666666666666665],vertical,"(390.0, 262.0)",1.4166666666666667,0.285,1,16211.882,1
0,663,catch,"[(1037, 893)]",[],[1],[],vertical,"(890.0, 762.0)",1.35,nan,1,16217.316,1
0,664,target,"[(1031, 892)]",[],[1],[0.6333333333333333],horizontal,"(390.0, 762.0)",0.7,0.589,1,16221.943,1
0,665,target,"[(1033, 890)]",[],[1],[0.5],horizontal,"(890.0, 262.0)",0.6833333333333333,0.462,1,16226.798,2
0,666,target,"[(1049, 874)]",[],[1],[0.5333333333333333],horizontal,"(890.0, 762.0)",0.7166666666666667,0.491,1,16231.686,1
0,667,target,"[(1033, 898)]",[],[1],[0.6333333333333333],vertical,"(890.0, 762.0)",1.2833333333333332,0.588,1,16236.481,1
0,668,target,"[(1034, 907)]",[],[1],[0.13333333333333333],vertical,"(890.0, 262.0)",1.6,0.097,0,16241.652,0
0,669,target,"[(1025, 905)]",[],[1],[0.75],horizontal,"(390.0, 762.0)",1.1666666666666667,0.703,1,16246.499,1
0,670,target,"[(1033, 880)]",[],[1],[0.25],horizontal,"(390.0, 262.0)",1.6333333333333333,0.219,1,16251.569,1
0,671,target,"[(1028, 890)]",[],[1],[0.85],horizontal,"(390.0, 262.0)",0.5,nan,0,16256.849,0
0,672,target,"[(1017, 919)]",[],[1],[0.85],vertical,"(890.0, 262.0)",0.5166666666666666,nan,0,16261.046,0
0,673,target,"[(1031, 916)]",[],[1],[0.85],vertical,"(890.0, 262.0)",1.15,nan,0,16266.295,0
0,674,target,"[(1021, 899)]",[],[1],[0.6833333333333333],horizontal,"(890.0, 762.0)",0.95,0.638,1,16271.315,1
0,675,target,"[(1024, 895)]",[],[1],[0.5833333333333334],vertical,"(890.0, 762.0)",0.9666666666666667,0.545,1,16276.726,1
0,676,target,"[(1033, 915)]",[],[1],[0.6],horizontal,"(890.0, 262.0)",0.55,0.561,1,16281.281,1
0,677,target,"[(1029, 888)]",[],[1],[0.5833333333333334],vertical,"(390.0, 262.0)",0.5666666666666667,0.536,1,16286.052,2
0,678,target,"[(1043, 899)]",[],[1],[0.85],vertical,"(890.0, 762.0)",1.1833333333333333,nan,0,16291.315,0
0,679,target,"[(1029, 916)]",[],[1],[0.5166666666666666],horizontal,"(890.0, 262.0)",0.75,0.487,1,16296.092,1
0,680,catch,"[(1036, 900)]",[],[1],[],vertical,"(390.0, 762.0)",1.6666666666666667,nan,1,16300.997,1
0,681,catch,"[(1038, 910)]",[],[1],[],vertical,"(890.0, 762.0)",1.3,nan,1,16305.961,1
0,682,target,"[(1038, 885)]",[],[1],[0.6333333333333333],vertical,"(390.0, 762.0)",0.9,0.589,1,16310.901,2
0,683,target,"[(1040, 896)]",[],[1],[0.48333333333333334],vertical,"(390.0, 762.0)",1.0,0.44,1,16316.269,1
0,684,target,"[(1039, 896)]",[],[1],[0.6],vertical,"(390.0, 762.0)",1.1666666666666667,0.554,1,16321.391,1
0,685,target,"[(1056, 907)]",[],[1],[0.5833333333333334],vertical,"(890.0, 762.0)",0.7666666666666666,0.537,1,16326.416,1
0,686,target,"[(1033, 918)]",[],[1],[0.6833333333333333],vertical,"(390.0, 762.0)",1.05,0.641,1,16331.2,3
0,687,target,"[(1035, 890)]",[],[1],[0.5333333333333333],vertical,"(390.0, 262.0)",0.6833333333333333,0.494,1,16338.709,1
0,688,target,"[(1037, 890)]",[],[1],[0.5166666666666666],vertical,"(890.0, 262.0)",1.3833333333333333,0.475,1,16342.923,1
0,689,target,"[(1033, 893)]",[],[1],[0.55],horizontal,"(890.0, 762.0)",0.6333333333333333,0.501,1,16347.832,1
0,690,catch,"[(1030, 877)]",[],[1],[],vertical,"(890.0, 762.0)",1.5666666666666667,nan,1,16352.508,2
0,691,target,"[(1028, 896)]",[],[1],[0.5833333333333334],horizontal,"(390.0, 762.0)",1.45,0.54,1,16358.016,1
0,692,target,"[(1038, 902)]",[],[1],[0.6166666666666667],horizontal,"(890.0, 762.0)",0.5,0.574,1,16363.048,1
0,693,target,"[(1028, 892)]",[],[1],[0.13333333333333333],horizontal,"(390.0, 262.0)",1.6,0.098,0,16367.8,0
0,694,target,"[(1032, 915)]",[],[1],[0.6],horizontal,"(390.0, 762.0)",1.3833333333333333,0.555,1,16372.765,1
0,695,target,"[(1033, 901)]",[],[1],[0.35],vertical,"(390.0, 262.0)",1.6666666666666667,0.31,1,16377.738,1
0,696,target,"[(1030, 907)]",[],[1],[0.11666666666666667],horizontal,"(890.0, 262.0)",1.4833333333333334,0.083,0,16383.237,0
0,697,target,"[(1027, 943)]",[],[1],[0.85],vertical,"(390.0, 762.0)",1.2833333333333332,nan,0,16388.315,0
0,698,target,"[(1033, 948), (1106, 917)]",[],"[0, 1]",[0.5833333333333334],horizontal,"(890.0, 762.0)",1.1166666666666667,0.543,1,16394.1,1
0,699,target,"[(1094, 827)]",[],[1],[0.36666666666666664],horizontal,"(390.0, 262.0)",1.6666666666666667,0.328,1,16421.395,1
0,700,catch,"[(1134, 889)]",[],[1],[],vertical,"(390.0, 262.0)",1.15,nan,1,16426.648,1
0,701,target,"[(1159, 866)]",[],[1],[0.85],vertical,"(890.0, 762.0)",0.9166666666666666,nan,0,16458.266,0
0,702,catch,"[(1132, 838)]",[],[1],[],vertical,"(890.0, 262.0)",1.3,nan,1,16557.3,1
0,703,target,"[(1093, 844)]",[],[1],[0.4166666666666667],vertical,"(890.0, 262.0)",0.7166666666666667,0.382,1,16561.583,1
0,704,target,"[(1089, 849)]",[],[1],[0.4166666666666667],vertical,"(390.0, 762.0)",0.6,0.378,1,16566.251,1
0,705,target,"[(1068, 863)]",[],[1],[0.36666666666666664],vertical,"(890.0, 262.0)",1.45,0.328,1,16570.634,2
0,706,catch,"[(462, 648), (1023, 863)]",[],"[0, 1]",[],vertical,"(390.0, 262.0)",1.3166666666666667,nan,1,16578.983,1
0,707,target,"[(311, 134), (436, 490), (479, 592), (464, 657), (429, 673), (392, 597), (349, 317), (472, 619), (388, 549), (428, 52), (357, 252), (329, 281), (262, 621), (361, 457), (464, 430), (504, 338), (377, 516), (248, 230), (345, 619), (381, 614), (450, 533), (348, 570), (356, 672), (234, 279), (187, 590), (396, 478), (401, 41), (1084, 903)]",[],"[0, 0, 0, 0, 0, 0, 0, 0, 0, 0, 0, 0, 0, 0, 0, 0, 0, 0, 0, 0, 0, 0, 0, 0, 0, 0, 0, 1]",[0.4],horizontal,"(390.0, 262.0)",1.5666666666666667,0.358,1,17447.915,1
0,708,target,"[(302, 641), (837, 957), (540, 565), (531, 754), (1025, 975), (993, 940), (1014, 913)]",[],"[0, 0, 0, 0, 0, 0, 1]",[],horizontal,"(390.0, 262.0)",,"('cti', 0.406)",0,17688.522,0
0,709,target,"[(1032, 970), (409, 683), (1032, 889)]",[],"[0, 0, 1]",[0.85],vertical,"(390.0, 762.0)",0.7,nan,0,20007.521,0
0,710,target,"[(1030, 908)]",[],[1],[],vertical,"(890.0, 762.0)",,"('cti', 1.102)",0,20014.104,0
0,711,target,"[(1029, 918)]",[],[1],[0.85],vertical,"(890.0, 262.0)",0.8333333333333334,nan,0,20018.911,0
0,712,target,"[(1034, 913)]",[],[1],[0.5333333333333333],horizontal,"(390.0, 262.0)",0.75,0.491,1,20023.939,1
0,713,target,"[(1037, 899)]",[],[1],[0.6333333333333333],horizontal,"(390.0, 762.0)",0.7,0.59,1,20028.189,1
0,714,target,"[(1039, 906)]",[],[1],[0.5166666666666666],horizontal,"(390.0, 262.0)",0.5833333333333334,0.474,1,20032.742,1
0,715,target,"[(1038, 893)]",[],[1],[0.55],vertical,"(390.0, 762.0)",0.6833333333333333,0.504,1,20037.306,2
0,716,target,"[(1038, 914)]",[],[1],[0.4666666666666667],vertical,"(390.0, 262.0)",1.2166666666666666,0.426,1,20042.371,1
0,717,catch,"[(1037, 888)]",[],[1],[],vertical,"(390.0, 262.0)",1.45,nan,1,20047.571,1
0,718,target,"[(1049, 893)]",[],[1],[0.11666666666666667],horizontal,"(390.0, 262.0)",1.5833333333333333,0.086,0,20052.604,0
0,719,target,"[(1040, 915)]",[],[1],[0.5666666666666667],horizontal,"(890.0, 262.0)",1.4666666666666666,0.525,1,20057.472,1
0,720,target,"[(1037, 897)]",[],[1],[0.5666666666666667],vertical,"(390.0, 262.0)",0.7333333333333333,0.528,1,20063.02,1
0,721,target,"[(1036, 907)]",[],[1],[0.6833333333333333],horizontal,"(890.0, 262.0)",0.5333333333333333,0.64,1,20067.314,1
0,722,catch,"[(1060, 910)]",[],[1],[],vertical,"(390.0, 762.0)",1.2166666666666666,nan,1,20072.356,2
0,723,target,"[(1049, 909)]",[],[1],[0.18333333333333332],horizontal,"(890.0, 762.0)",1.2833333333333332,0.152,1,20077.727,1
0,724,target,"[(1042, 892)]",[],[1],[0.2],vertical,"(890.0, 762.0)",1.5666666666666667,0.169,1,20082.955,1
0,725,target,"[(1034, 884)]",[],[1],[0.5333333333333333],vertical,"(890.0, 762.0)",1.1,0.492,1,20087.941,1
0,726,target,"[(1052, 885)]",[],[1],[0.48333333333333334],vertical,"(890.0, 262.0)",0.5833333333333334,0.448,1,20092.66,3
0,727,target,"[(1044, 926)]",[],[1],[0.6],vertical,"(390.0, 762.0)",1.05,0.554,1,20098.021,1
0,728,target,"[(1040, 939)]",[],[1],[0.6166666666666667],vertical,"(890.0, 762.0)",0.9166666666666666,0.569,1,20102.86,1
0,729,catch,"[(1038, 910)]",[],[1],[],horizontal,"(390.0, 262.0)",,"('cti', 1.294),nan",0,20108.041,0
0,730,target,"[(1033, 954), (1031, 946), (366, 608), (1029, 960), (404, 353), (1013, 954), (1029, 927)]",[],"[0, 0, 0, 0, 0, 0, 1]",[0.55],vertical,"(890.0, 262.0)",0.9166666666666666,0.51,1,20112.988,1
0,731,catch,"[(1014, 902)]",[],[1],[],vertical,"(390.0, 762.0)",1.35,nan,1,20123.79,1
0,732,target,"[(1038, 919)]",[],[1],[0.6166666666666667],vertical,"(390.0, 762.0)",0.7,0.57,1,20128.75,1
0,733,target,"[(1040, 900)]",[],[1],[0.85],vertical,"(390.0, 262.0)",0.7833333333333333,nan,0,20133.725,0
0,734,target,"[(1033, 921)]",[],[1],[0.55],vertical,"(390.0, 762.0)",0.9666666666666667,0.512,1,20138.234,1
0,735,target,"[(1030, 884)]",[],[1],[0.43333333333333335],vertical,"(390.0, 762.0)",1.55,0.395,1,20142.929,1
0,736,target,"[(1028, 899)]",[],[1],[0.3333333333333333],vertical,"(890.0, 762.0)",1.2666666666666666,0.294,1,20147.768,1
0,737,catch,"[(1044, 882)]",[],[1],[],vertical,"(890.0, 262.0)",1.1666666666666667,nan,1,20152.641,2
0,738,target,"[(1029, 908)]",[],[1],[0.85],horizontal,"(890.0, 262.0)",1.3166666666666667,nan,0,20157.765,0
0,739,target,"[(1035, 915)]",[],[1],[],horizontal,"(390.0, 762.0)",,"('cti', 1.121)",0,20162.639,0
0,740,target,"[(1038, 914)]",[],[1],[0.85],horizontal,"(890.0, 262.0)",1.6,"('cti', 1.583),nan",0,20166.834,0
0,741,target,"[(1025, 916)]",[],[1],[0.6333333333333333],horizontal,"(390.0, 762.0)",1.1166666666666667,0.593,1,20172.456,1
0,742,target,"[(1026, 890)]",[],[1],[0.85],horizontal,"(890.0, 762.0)",0.8666666666666667,nan,0,20177.739,0
0,743,target,"[(1034, 921)]",[],[1],[0.5166666666666666],horizontal,"(890.0, 762.0)",1.2833333333333332,0.476,1,20182.389,1
0,744,target,"[(1040, 901)]",[],[1],[0.2],horizontal,"(890.0, 762.0)",1.5,0.165,1,20187.505,1
0,745,target,"[(1043, 895)]",[],[1],[0.75],vertical,"(390.0, 762.0)",0.85,0.708,1,20192.914,1
0,746,target,"[(1034, 886)]",[],[1],[0.26666666666666666],horizontal,"(890.0, 762.0)",1.6833333333333333,0.231,1,20197.814,2
0,747,target,"[(1029, 895)]",[],[1],[0.7166666666666667],vertical,"(890.0, 762.0)",0.8,0.674,1,20203.689,1
0,748,target,"[(1040, 910)]",[],[1],[0.43333333333333335],horizontal,"(390.0, 762.0)",1.2833333333333332,0.396,1,20208.902,1
0,749,target,"[(1053, 900)]",[],[1],[0.05],vertical,"(890.0, 262.0)",1.6,0.02,0,20214.024,0
0,750,target,"[(1033, 927)]",[],[1],[0.5166666666666666],vertical,"(390.0, 762.0)",1.2166666666666666,0.473,1,20218.689,1
0,751,target,"[(1033, 887)]",[],[1],[0.5166666666666666],vertical,"(890.0, 262.0)",1.3166666666666667,0.478,1,20223.65,1
0,752,target,"[(1035, 888)]",[],[1],[0.6166666666666667],vertical,"(390.0, 762.0)",0.9666666666666667,0.569,1,20228.581,1
0,753,target,"[(1033, 898)]",[],[1],[0.5833333333333334],vertical,"(390.0, 262.0)",1.1833333333333333,0.546,1,20233.684,2
0,754,catch,"[(1027, 895)]",[],[1],[],horizontal,"(390.0, 262.0)",1.3,nan,1,20239.084,1
0,755,catch,"[(1035, 910)]",[],[1],[],horizontal,"(390.0, 262.0)",,"('cti', 1.601),nan",0,20243.906,0
0,756,target,"[(1040, 914)]",[],[1],[0.4166666666666667],horizontal,"(890.0, 262.0)",1.1833333333333333,0.382,1,20249.038,1
0,757,target,"[(1040, 893)]",[],[1],[0.6],horizontal,"(890.0, 762.0)",0.7166666666666667,0.556,1,20254.347,1
0,758,target,"[(1034, 869)]",[],[1],[],vertical,"(890.0, 262.0)",,"('cti', 1.227)",0,20258.991,0
0,759,target,"[(1037, 909)]",[],[1],[0.6],vertical,"(390.0, 262.0)",1.2333333333333334,0.557,1,20263.344,1
0,760,target,"[(1028, 881)]",[],[1],[0.15],horizontal,"(390.0, 262.0)",1.5666666666666667,0.118,0,20268.056,0
0,761,target,"[(1045, 906)]",[],[1],[0.5333333333333333],horizontal,"(890.0, 262.0)",1.4666666666666666,0.491,1,20273.221,1
0,762,target,"[(1040, 894)]",[],[1],[0.5333333333333333],horizontal,"(890.0, 262.0)",1.1166666666666667,0.493,1,20278.506,1
0,763,target,"[(1033, 890)]",[],[1],[0.5833333333333334],horizontal,"(890.0, 762.0)",1.25,0.546,1,20283.255,1
0,764,catch,"[(1036, 907)]",[],[1],[],horizontal,"(890.0, 262.0)",1.7,nan,1,20288.1,2
0,765,target,"[(1033, 890)]",[],[1],[0.5333333333333333],vertical,"(390.0, 262.0)",1.4833333333333334,0.49,1,20293.712,1
0,766,target,"[(1029, 892)]",[],[1],[0.43333333333333335],horizontal,"(390.0, 262.0)",1.3833333333333333,0.394,1,20299.34,1
0,767,target,"[(1038, 913)]",[],[1],[0.6],vertical,"(390.0, 762.0)",1.2833333333333332,0.556,1,20304.768,1
0,768,target,"[(1037, 906)]",[],[1],[0.45],vertical,"(890.0, 262.0)",0.95,0.413,1,20309.845,3
0,769,catch,"[(1033, 893)]",[],[1],[],horizontal,"(390.0, 262.0)",1.6833333333333333,nan,1,20315.032,1
0,770,target,"[(1031, 903)]",[],[1],[0.5333333333333333],vertical,"(890.0, 762.0)",1.0333333333333332,0.492,1,20320.307,1
0,771,target,"[(1037, 878)]",[],[1],[0.55],horizontal,"(890.0, 762.0)",1.0666666666666667,0.509,1,20325.807,1
0,772,target,"[(1033, 892)]",[],[1],[0.5166666666666666],vertical,"(390.0, 262.0)",0.7666666666666666,0.479,1,20330.532,2
0,773,target,"[(1037, 882)]",[],[1],[0.35],vertical,"(890.0, 262.0)",1.3333333333333333,0.309,1,20335.274,1
0,774,target,"[(1056, 886)]",[],[1],[0.5166666666666666],vertical,"(390.0, 262.0)",0.55,0.474,1,20340.324,1
0,775,target,"[(1036, 871)]",[],[1],[0.5],horizontal,"(890.0, 262.0)",1.3333333333333333,0.46,1,20344.458,1
0,776,target,"[(1049, 902)]",[],[1],[0.5666666666666667],horizontal,"(890.0, 762.0)",1.1666666666666667,0.526,1,20349.564,3
0,777,target,"[(1056, 878)]",[],[1],[0.6],vertical,"(390.0, 262.0)",0.95,0.557,1,20355.384,1
0,778,target,"[(1038, 899)]",[],[1],[0.5666666666666667],vertical,"(390.0, 262.0)",0.5833333333333334,0.523,1,20360.103,1
0,779,target,"[(1037, 905)]",[],[1],[0.3833333333333333],vertical,"(890.0, 262.0)",1.5,0.344,1,20364.435,1
0,780,target,"[(1037, 898)]",[],[1],[0.5333333333333333],vertical,"(390.0, 262.0)",0.6833333333333333,0.491,1,20369.997,2
0,781,target,"[(1037, 898)]",[],[1],[0.6166666666666667],horizontal,"(390.0, 762.0)",0.5333333333333333,0.571,1,20375.009,1
0,782,target,"[(1056, 897)]",[],[1],[0.5],horizontal,"(890.0, 262.0)",0.7833333333333333,0.458,1,20379.256,1
0,783,target,"[(1033, 878)]",[],[1],[0.2833333333333333],horizontal,"(890.0, 262.0)",1.3333333333333333,0.249,1,20383.694,1
0,784,target,"[(1037, 891)]",[],[1],[0.5],vertical,"(890.0, 762.0)",0.65,0.46,1,20388.552,3
0,785,target,"[(1033, 903)]",[],[1],[0.5],horizontal,"(890.0, 762.0)",1.2166666666666666,0.465,1,20394.223,1
0,786,target,"[(1029, 882)]",[],[1],[],vertical,"(390.0, 762.0)",,"('cti', 1.13)",0,20399.04,0
0,787,target,"[(1055, 906)]",[],[1],[0.7166666666666667],horizontal,"(390.0, 762.0)",0.5,0.673,1,20403.553,1
0,788,target,"[(1033, 889)]",[],[1],[0.45],horizontal,"(390.0, 262.0)",1.4,0.408,1,20408.424,1
0,789,target,"[(1032, 885)]",[],[1],[0.6166666666666667],vertical,"(390.0, 762.0)",0.9166666666666666,0.576,1,20413.95,1
0,790,target,"[(1034, 879)]",[],[1],[0.3833333333333333],horizontal,"(390.0, 262.0)",1.4833333333333334,0.341,1,20418.748,2
0,791,target,"[(1039, 894)]",[],[1],[0.5833333333333334],vertical,"(890.0, 762.0)",0.7166666666666667,0.542,1,20424.456,1
0,792,target,"[(1037, 889)]",[],[1],[0.16666666666666666],horizontal,"(390.0, 262.0)",1.1166666666666667,0.133,0,20429.051,0
0,793,target,"[(1037, 905)]",[],[1],[0.3833333333333333],horizontal,"(890.0, 762.0)",1.55,0.352,1,20433.308,1
0,794,catch,"[(1043, 901)]",[],[1],[],vertical,"(390.0, 762.0)",1.5333333333333332,nan,1,20438.843,1
0,795,target,"[(1041, 893)]",[],[1],[0.5666666666666667],vertical,"(890.0, 262.0)",0.5833333333333334,0.523,1,20443.475,1
0,796,target,"[(1038, 893)]",[],[1],[0.5333333333333333],horizontal,"(390.0, 262.0)",0.6666666666666666,0.493,1,20447.663,2
0,797,target,"[(1037, 901)]",[],[1],[0.43333333333333335],vertical,"(390.0, 762.0)",0.8166666666666667,0.397,1,20453.105,1
0,798,target,"[(1037, 896)]",[],[1],[0.5833333333333334],horizontal,"(890.0, 762.0)",0.8,0.54,1,20457.975,1
0,799,target,"[(1040, 885)]",[],[1],[0.5166666666666666],vertical,"(890.0, 262.0)",0.5833333333333334,0.478,1,20462.375,1
0,800,target,"[(1038, 881)]",[],[1],[0.36666666666666664],vertical,"(890.0, 762.0)",1.4666666666666666,0.331,1,20466.674,3
0,801,target,"[(1040, 899)]",[],[1],[],vertical,"(390.0, 262.0)",,"('cti', 1.347)",0,20472.907,0
0,802,target,"[(1045, 917)]",[],[1],[0.5333333333333333],vertical,"(390.0, 262.0)",0.9833333333333333,0.492,1,20477.274,1
0,803,target,"[(1040, 903)]",[],[1],[0.5666666666666667],horizontal,"(390.0, 262.0)",0.7166666666666667,0.523,1,20482.3,1
0,804,target,"[(1037, 878)]",[],[1],[0.5833333333333334],vertical,"(890.0, 262.0)",1.1,0.541,1,20486.441,1
0,805,target,"[(1033, 905)]",[],[1],[0.5],vertical,"(890.0, 762.0)",0.8666666666666667,0.464,1,20491.328,2
0,806,target,"[(1026, 892)]",[],[1],[0.5166666666666666],vertical,"(890.0, 762.0)",1.1666666666666667,0.478,1,20496.342,1
0,807,catch,"[(1038, 898)]",[],[1],[],vertical,"(390.0, 762.0)",1.65,"('cti', 1.644),nan",0,20501.361,0
0,808,target,"[(1034, 916)]",[],[1],[0.5833333333333334],horizontal,"(390.0, 762.0)",0.8833333333333333,0.54,1,20506.265,1
0,809,target,"[(1029, 890)]",[],[1],[0.7333333333333333],horizontal,"(890.0, 762.0)",0.9833333333333333,0.692,1,20510.658,1
0,810,catch,"[(1037, 890)]",[],[1],[],vertical,"(890.0, 762.0)",,"('cti', 1.6),nan",0,20515.44,0
0,811,target,"[(1040, 921)]",[],[1],[0.5166666666666666],vertical,"(390.0, 762.0)",0.7833333333333333,0.478,1,20520.293,1
0,812,target,"[(1037, 905)]",[],[1],[0.55],horizontal,"(390.0, 262.0)",0.7166666666666667,0.514,1,20525.016,1
0,813,target,"[(1042, 899)]",[],[1],[0.85],vertical,"(390.0, 762.0)",1.65,nan,0,20529.477,0
0,814,target,"[(1033, 916)]",[],[1],[0.5333333333333333],horizontal,"(390.0, 762.0)",1.1166666666666667,0.499,1,20535.204,1
0,815,target,"[(1031, 889)]",[],[1],[0.5166666666666666],horizontal,"(890.0, 262.0)",0.7,0.48,1,20539.725,1
0,816,target,"[(1038, 896)]",[],[1],[0.3833333333333333],vertical,"(890.0, 762.0)",1.55,0.345,1,20544.609,1
0,817,target,"[(1033, 882)]",[],[1],[0.5833333333333334],vertical,"(390.0, 262.0)",1.0333333333333332,0.536,1,20549.765,2
0,818,target,"[(1050, 895)]",[],[1],[0.45],horizontal,"(390.0, 262.0)",1.4166666666666667,0.416,1,20555.159,1
0,819,target,"[(1057, 875)]",[],[1],[0.7],horizontal,"(390.0, 762.0)",0.8333333333333334,0.656,1,20560.293,1
0,820,target,"[(1040, 888)]",[],[1],[0.7],vertical,"(890.0, 762.0)",0.9,0.658,1,20565.136,1
0,821,target,"[(1058, 878)]",[],[1],[0.3833333333333333],vertical,"(390.0, 262.0)",1.3,0.35,1,20569.992,3
0,822,target,"[(1033, 932)]",[],[1],[0.65],horizontal,"(890.0, 762.0)",0.7166666666666667,0.606,1,20576.292,1
0,823,target,"[(1027, 915)]",[],[1],[0.5333333333333333],horizontal,"(390.0, 262.0)",0.5166666666666666,0.495,1,20580.826,1
0,824,target,"[(1037, 905)]",[],[1],[0.43333333333333335],vertical,"(890.0, 762.0)",1.6,0.395,1,20585.475,1
0,825,target,"[(1040, 887)]",[],[1],[0.85],vertical,"(390.0, 262.0)",1.5,nan,0,20590.781,0
0,826,target,"[(1033, 895)]",[],[1],[0.85],vertical,"(890.0, 262.0)",1.0333333333333332,nan,0,20595.976,0
0,827,target,"[(1033, 926)]",[],[1],[0.7833333333333333],horizontal,"(890.0, 262.0)",0.5666666666666667,0.746,1,20601.037,1
0,828,target,"[(1035, 889)]",[],[1],[0.5166666666666666],horizontal,"(890.0, 762.0)",1.2833333333333332,0.474,1,20605.623,1
0,829,target,"[(1038, 905)]",[],[1],[0.8166666666666667],horizontal,"(890.0, 762.0)",0.6666666666666666,0.77,1,20610.627,1
0,830,target,"[(1039, 893)]",[],[1],[0.4],horizontal,"(890.0, 762.0)",1.4833333333333334,0.37,1,20615.514,2
0,831,target,"[(1040, 905)]",[],[1],[0.7],horizontal,"(890.0, 262.0)",0.95,0.659,1,20621.321,1
0,832,target,"[(1038, 890)]",[],[1],[0.8166666666666667],horizontal,"(390.0, 262.0)",0.6,0.771,1,20626.436,1
0,833,target,"[(1029, 901)]",[],[1],[0.55],horizontal,"(890.0, 762.0)",1.2166666666666666,0.507,1,20631.059,1
0,834,target,"[(1029, 898)]",[],[1],[0.6333333333333333],vertical,"(390.0, 762.0)",1.1,0.589,1,20636.045,3
0,835,target,"[(1034, 895)]",[],[1],[0.6833333333333333],horizontal,"(390.0, 762.0)",0.8,0.637,1,20642.01,1
0,836,target,"[(1037, 905)]",[],[1],[0.65],vertical,"(890.0, 262.0)",0.5,0.606,1,20646.797,1
0,837,target,"[(1041, 905)]",[],[1],[0.5],vertical,"(890.0, 262.0)",1.3333333333333333,0.46,1,20651.238,1
0,838,catch,"[(1052, 912)]",[],[1],[],vertical,"(890.0, 762.0)",1.6666666666666667,nan,1,20656.189,2
0,839,target,"[(1041, 908)]",[],[1],[0.48333333333333334],horizontal,"(890.0, 262.0)",1.45,0.44,1,20661.324,1
0,840,target,"[(1037, 905)]",[],[1],[0.6833333333333333],vertical,"(390.0, 762.0)",0.8833333333333333,0.639,1,20666.598,1
0,841,target,"[(1040, 881)]",[],[1],[0.2],horizontal,"(390.0, 262.0)",1.4833333333333334,0.171,1,20671.443,1
0,842,target,"[(1027, 887)]",[],[1],[0.55],horizontal,"(390.0, 762.0)",1.0833333333333333,0.51,1,20676.417,3
0,843,target,"[(1037, 905)]",[],[1],[0.7],vertical,"(890.0, 262.0)",1.0666666666666667,0.654,1,20682.197,1
0,844,target,"[(1039, 895)]",[],[1],[0.6166666666666667],horizontal,"(390.0, 262.0)",0.7333333333333333,0.573,1,20687.209,1
0,845,target,"[(1051, 889)]",[],[1],[0.4166666666666667],vertical,"(890.0, 262.0)",1.3666666666666667,0.379,1,20692.147,1
0,846,target,"[(1036, 883)]",[],[1],[0.6833333333333333],horizontal,"(390.0, 762.0)",0.7333333333333333,0.639,1,20697.289,2
0,847,target,"[(1035, 892)]",[],[1],[0.5333333333333333],vertical,"(890.0, 262.0)",0.6,0.497,1,20702.309,1
0,848,target,"[(1020, 886)]",[],[1],[0.6],vertical,"(890.0, 262.0)",0.6,0.556,1,20706.575,1
0,849,target,"[(1040, 910)]",[],[1],[0.6333333333333333],horizontal,"(890.0, 262.0)",0.7,0.591,1,20711.26,1
0,850,catch,"[(1033, 905)]",[],[1],[],horizontal,"(890.0, 762.0)",1.1833333333333333,nan,1,20715.492,3
0,851,target,"[(1037, 899)]",[],[1],[0.5333333333333333],vertical,"(890.0, 262.0)",0.8833333333333333,0.495,1,20721.071,1
0,852,catch,"[(1043, 888)]",[],[1],[],vertical,"(390.0, 262.0)",1.6166666666666667,nan,1,20725.509,1
0,853,target,"[(1037, 898)]",[],[1],[0.5333333333333333],horizontal,"(890.0, 262.0)",0.8833333333333333,0.496,1,20730.251,1
0,854,target,"[(1034, 905)]",[],[1],[0.6333333333333333],vertical,"(890.0, 762.0)",0.9666666666666667,0.589,1,20735.214,2
0,855,catch,"[(1037, 878)]",[],[1],[],horizontal,"(390.0, 762.0)",,"('cti', 1.573),nan",0,20740.442,0
0,856,target,"[(1038, 915)]",[],[1],[0.5833333333333334],vertical,"(390.0, 762.0)",0.5833333333333334,0.541,1,20745.042,1
0,857,target,"[(1040, 891)]",[],[1],[0.48333333333333334],horizontal,"(890.0, 762.0)",1.1166666666666667,0.445,1,20749.841,1
0,858,target,"[(1037, 899)]",[],[1],[0.65],horizontal,"(390.0, 262.0)",0.6333333333333333,0.61,1,20754.776,1
