block,trial,trial_type,taps_start_loc_during_fix,taps_end_loc_during_fix,taps_on_lever_during_fix,taps_on_lever_s_during_fix,bar_orientation,target_xy,cti,rt,acc,time,pulses,fa_rate_recent100,p_catch
0,1,catch,"[(1057, 849)]",[],[1],[],vertical,"(890.0, 262.0)",1.7,nan,1,0.46,1,0.0,0.25
0,2,target,"[(1050, 861)]",[],[1],[0.85],vertical,"(890.0, 262.0)",0.5666666666666667,nan,0,14.5,0,0.0,0.25
0,3,target,"[(1093, 832)]",[],[1],[0.85],horizontal,"(890.0, 762.0)",0.65,nan,0,42.463,0,0.0,0.25
0,4,catch,"[(1126, 842)]",[],[1],[],vertical,"(890.0, 762.0)",1.7,nan,1,59.135,1,0.0,0.25
0,5,target,"[(1077, 860)]",[],[1],[0.85],horizontal,"(890.0, 762.0)",1.4166666666666667,nan,0,64.847,0,0.0,0.25
0,6,target,"[(1131, 830)]",[],[1],[0.4166666666666667],horizontal,"(390.0, 262.0)",1.3166666666666667,0.387,1,70.585,1,0.0,0.25
0,7,catch,"[(1150, 806)]",[],[1],[],horizontal,"(890.0, 262.0)",1.7,nan,1,76.424,1,0.0,0.25
0,8,target,"[(1123, 920)]",[],[1],[0.7166666666666667],vertical,"(390.0, 762.0)",1.0333333333333332,0.684,1,81.843,1,0.0,0.25
0,9,target,"[(1088, 912)]",[],[1],[0.5666666666666667],vertical,"(890.0, 762.0)",0.8,0.539,1,90.321,2,0.0,0.25
0,10,catch,"[(1152, 899)]",[],[1],[],horizontal,"(890.0, 262.0)",,"('cti', 0.934),nan",0,95.946,0,0.1,0.25
0,11,target,"[(1154, 816)]",[],[1],[0.85],horizontal,"(390.0, 262.0)",0.5333333333333333,nan,0,99.893,0,0.09090909090909091,0.25
0,12,target,"[(1116, 800)]",[],[1],[0.31666666666666665],horizontal,"(390.0, 762.0)",1.1166666666666667,0.281,1,104.641,1,0.08333333333333333,0.25
0,13,catch,"[(1157, 797)]",[],[1],[],horizontal,"(390.0, 262.0)",,"('cti', 1.686),nan",0,114.377,0,0.15384615384615385,0.25
0,14,catch,"[(1161, 799)]",[],[1],[],vertical,"(890.0, 762.0)",1.7,nan,1,119.295,1,0.14285714285714285,0.25
0,15,target,"[(1161, 796)]",[],[1],[0.5166666666666666],vertical,"(890.0, 262.0)",1.1,0.485,1,124.908,1,0.13333333333333333,0.25
0,16,target,"[(1172, 795)]",[],[1],[0.5166666666666666],vertical,"(890.0, 762.0)",1.0,0.478,1,129.824,1,0.125,0.25
0,17,target,"[(1162, 798)]",[],[1],[0.5666666666666667],vertical,"(390.0, 762.0)",0.65,0.526,1,135.147,2,0.11764705882352941,0.25
0,18,catch,"[(1161, 779)]",[],[1],[],vertical,"(390.0, 762.0)",,"('cti', 1.642),nan",0,140.446,0,0.16666666666666666,0.25
0,19,target,"[(1165, 805)]",[],[1],[0.6166666666666667],horizontal,"(390.0, 762.0)",0.6833333333333333,0.576,1,145.33,1,0.15789473684210525,0.25
0,20,target,"[(1200, 808)]",[],[1],[0.5833333333333334],vertical,"(890.0, 762.0)",0.65,0.54,1,150.064,1,0.15,0.25
0,21,catch,"[(1171, 779)]",[],[1],[],vertical,"(890.0, 262.0)",1.7,nan,1,154.425,1,0.14285714285714285,0.25
0,22,target,"[(1175, 799)]",[],[1],[0.65],vertical,"(390.0, 262.0)",0.4166666666666667,0.611,1,159.64,2,0.13636363636363635,0.25
0,23,target,"[(1172, 798)]",[],[1],[0.85],horizontal,"(390.0, 262.0)",0.8,nan,0,164.679,0,0.13043478260869565,0.25
0,24,target,"[(1132, 800)]",[],[1],[0.4],vertical,"(890.0, 762.0)",1.4333333333333333,0.357,1,169.163,1,0.125,0.25
0,25,catch,"[(1130, 795)]",[],[1],[],horizontal,"(390.0, 762.0)",,"('cti', 1.377),nan",0,174.371,0,0.16,0.25
0,26,target,"[(1158, 809)]",[],[1],[0.4666666666666667],horizontal,"(390.0, 762.0)",1.1333333333333333,0.428,1,179.116,1,0.15384615384615385,0.25
0,27,catch,"[(1161, 803)]",[],[1],[],vertical,"(390.0, 262.0)",1.7,nan,1,184.194,1,0.14814814814814814,0.25
0,28,target,"[(1178, 803)]",[],[1],[0.5166666666666666],vertical,"(890.0, 262.0)",1.15,0.478,1,189.343,1,0.14285714285714285,0.25
0,29,target,"[(1158, 794)]",[],[1],[0.85],horizontal,"(390.0, 762.0)",1.0,nan,0,194.496,0,0.13793103448275862,0.25
0,30,target,"[(1155, 802)]",[],[1],[0.55],horizontal,"(390.0, 262.0)",1.2,0.504,1,199.298,1,0.13333333333333333,0.25
0,31,target,"[(1156, 793)]",[],[1],[0.5666666666666667],horizontal,"(390.0, 262.0)",0.55,0.522,1,204.63,1,0.12903225806451613,0.25
0,32,catch,"[(1162, 793)]",[],[1],[],vertical,"(890.0, 262.0)",1.7,nan,1,209.123,1,0.125,0.25
0,33,catch,"[(1140, 814)]",[],[1],[],vertical,"(890.0, 762.0)",,"('cti', 1.59),nan",0,213.965,0,0.15151515151515152,0.25
0,34,target,"[(1156, 792)]",[],[1],[0.6166666666666667],horizontal,"(390.0, 762.0)",0.7166666666666667,0.574,1,218.584,1,0.14705882352941177,0.25
0,35,target,"[(1167, 788)]",[],[1],[0.5],horizontal,"(890.0, 762.0)",0.4166666666666667,0.456,1,223.097,1,0.14285714285714285,0.25
0,36,target,"[(1176, 794)]",[],[1],[0.6],vertical,"(890.0, 762.0)",0.7833333333333333,0.571,1,227.681,1,0.1388888888888889,0.25
0,37,target,"[(1171, 803)]",[],[1],[0.5333333333333333],horizontal,"(890.0, 262.0)",1.25,0.487,1,232.43,2,0.13513513513513514,0.25
0,38,target,"[(1175, 793)]",[],[1],[0.8166666666666667],vertical,"(890.0, 262.0)",0.9333333333333333,0.772,1,238.066,2,0.13157894736842105,0.25
0,39,target,"[(1156, 786)]",[],[1],[0.5666666666666667],horizontal,"(390.0, 762.0)",0.85,0.521,1,243.963,2,0.1282051282051282,0.25
0,40,target,"[(1159, 764)]",[],[1],[0.45],vertical,"(890.0, 762.0)",1.4166666666666667,0.409,1,249.464,2,0.125,0.25
0,41,target,"[(1180, 797)]",[],[1],[0.5166666666666666],horizontal,"(390.0, 262.0)",0.8166666666666667,0.474,1,254.981,3,0.12195121951219512,0.25
0,42,catch,"[(1174, 793)]",[],[1],[],horizontal,"(390.0, 262.0)",1.7,nan,1,261.01,3,0.11904761904761904,0.25
0,43,target,"[(1161, 796)]",[],[1],[0.7333333333333333],horizontal,"(890.0, 762.0)",1.0166666666666666,0.683,1,266.913,3,0.11627906976744186,0.25
0,44,target,"[(1166, 794)]",[],[1],[0.85],horizontal,"(890.0, 262.0)",0.4666666666666667,nan,0,273.064,0,0.11363636363636363,0.25
0,45,target,"[(1139, 798)]",[],[1],[0.6166666666666667],horizontal,"(390.0, 762.0)",0.5333333333333333,0.576,1,277.07,1,0.1111111111111111,0.25
0,46,target,"[(1157, 787)]",[],[1],[0.48333333333333334],vertical,"(890.0, 262.0)",1.3833333333333333,0.447,1,282.647,1,0.10869565217391304,0.25
0,47,target,"[(1158, 796)]",[],[1],[0.85],vertical,"(390.0, 762.0)",0.55,nan,0,288.035,0,0.10638297872340426,0.25
0,48,catch,"[(1176, 808)]",[],[1],[],horizontal,"(390.0, 762.0)",1.7,nan,1,292.224,1,0.10416666666666667,0.25
0,49,target,"[(1157, 804)]",[],[1],[0.55],vertical,"(390.0, 762.0)",1.1,0.511,1,297.708,1,0.10204081632653061,0.25
0,50,target,"[(1173, 793)]",[],[1],[0.48333333333333334],horizontal,"(890.0, 262.0)",0.9666666666666667,0.446,1,302.857,1,0.1,0.25
0,51,target,"[(1159, 801)]",[],[1],[0.6166666666666667],horizontal,"(890.0, 762.0)",0.7833333333333333,0.573,1,307.888,2,0.1,0.25
0,52,target,"[(1159, 797)]",[],[1],[0.6333333333333333],horizontal,"(890.0, 262.0)",1.25,0.589,1,313.063,2,0.1,0.25
0,53,target,"[(1176, 797)]",[],[1],[0.55],horizontal,"(390.0, 762.0)",0.5166666666666666,0.504,1,318.744,2,0.1,0.25
0,54,target,"[(1155, 777)]",[],[1],[0.5833333333333334],vertical,"(390.0, 762.0)",1.5166666666666666,0.545,1,323.72,2,0.1,0.25
0,55,target,"[(1157, 794)]",[],[1],[0.5666666666666667],vertical,"(890.0, 262.0)",1.2166666666666666,0.521,1,329.948,3,0.1,0.25
0,56,target,"[(1159, 778)]",[],[1],[0.5666666666666667],horizontal,"(390.0, 262.0)",1.05,0.522,1,335.955,3,0.1,0.25
0,57,target,"[(1164, 783)]",[],[1],[0.5],horizontal,"(390.0, 262.0)",0.48333333333333334,0.459,1,341.854,3,0.1,0.25
0,58,target,"[(1167, 785)]",[],[1],[0.5666666666666667],horizontal,"(890.0, 262.0)",0.5666666666666667,0.522,1,346.872,3,0.1,0.25
0,59,target,"[(1155, 785)]",[],[1],[0.48333333333333334],vertical,"(890.0, 262.0)",0.6333333333333333,0.443,1,351.88,3,0.1,0.25
0,60,target,"[(1173, 793)]",[],[1],[0.85],horizontal,"(390.0, 762.0)",0.3833333333333333,nan,0,357.531,0,0.08,0.25
0,61,catch,"[(1161, 804)]",[],[1],[],horizontal,"(390.0, 762.0)",1.7,nan,1,361.603,1,0.08,0.25
0,62,target,"[(1188, 796)]",[],[1],[0.85],horizontal,"(390.0, 762.0)",0.6166666666666667,nan,0,366.777,0,0.08,0.25
0,63,target,"[(1175, 805)]",[],[1],[0.7],vertical,"(890.0, 762.0)",1.4,0.661,1,371.114,1,0.06,0.25
0,64,target,"[(1180, 797)]",[],[1],[0.55],horizontal,"(390.0, 262.0)",0.85,0.508,1,376.481,1,0.06,0.25
0,65,target,"[(1158, 794)]",[],[1],[0.5333333333333333],horizontal,"(390.0, 262.0)",0.6333333333333333,0.489,1,381.581,1,0.06,0.25
0,66,target,"[(1195, 794)]",[],[1],[0.85],vertical,"(390.0, 262.0)",0.35,nan,0,386.233,0,0.06,0.25
0,67,target,"[(1150, 793)]",[],[1],[0.55],vertical,"(390.0, 262.0)",0.5166666666666666,0.508,1,390.567,1,0.06,0.25
0,68,target,"[(1189, 793)]",[],[1],[0.4666666666666667],vertical,"(390.0, 262.0)",1.15,0.43,1,395.014,1,0.04,0.25
0,69,target,"[(1158, 779)]",[],[1],[0.6166666666666667],horizontal,"(890.0, 762.0)",1.1666666666666667,0.58,1,400.33,1,0.04,0.25
0,70,target,"[(1156, 793)]",[],[1],[0.6166666666666667],horizontal,"(390.0, 262.0)",1.0833333333333333,0.572,1,405.361,2,0.04,0.25
0,71,target,"[(1160, 773)]",[],[1],[0.48333333333333334],horizontal,"(390.0, 262.0)",0.8,0.446,1,410.996,2,0.04,0.25
0,72,target,"[(1180, 814)]",[],[1],[0.31666666666666665],vertical,"(890.0, 262.0)",1.45,0.277,1,416.248,2,0.04,0.25
0,73,target,"[(1159, 797)]",[],[1],[0.6],vertical,"(890.0, 762.0)",1.3833333333333333,0.563,1,422.297,2,0.04,0.25
0,74,target,"[(1160, 763)]",[],[1],[0.6333333333333333],horizontal,"(390.0, 262.0)",1.1166666666666667,0.6,1,428.615,3,0.04,0.25
0,75,target,"[(1172, 792)]",[],[1],[0.5166666666666666],horizontal,"(390.0, 762.0)",1.3333333333333333,0.48,1,434.415,3,0.02,0.25
0,76,target,"[(1159, 796)]",[],[1],[0.7833333333333333],vertical,"(890.0, 762.0)",0.36666666666666664,0.736,1,440.768,3,0.02,0.25
0,77,target,"[(1157, 805)]",[],[1],[0.5166666666666666],horizontal,"(890.0, 262.0)",1.05,0.476,1,446.445,3,0.02,0.25
0,78,target,"[(1159, 788)]",[],[1],[0.75],horizontal,"(890.0, 762.0)",1.0166666666666666,0.708,1,451.927,3,0.02,0.25
0,79,target,"[(1179, 808)]",[],[1],[0.6833333333333333],vertical,"(890.0, 262.0)",0.9833333333333333,0.64,1,458.032,3,0.02,0.25
0,80,target,"[(1171, 801)]",[],[1],[0.6333333333333333],vertical,"(890.0, 762.0)",0.48333333333333334,0.589,1,463.989,3,0.02,0.25
0,81,catch,"[(1160, 789)]",[],[1],[],horizontal,"(390.0, 262.0)",,"('cti', 1.458),nan",0,469.082,0,0.04,0.25
0,82,target,"[(1180, 801)]",[],[1],[0.85],horizontal,"(890.0, 262.0)",0.5,nan,0,473.886,0,0.04,0.25
0,83,target,"[(1186, 802)]",[],[1],[0.5333333333333333],vertical,"(890.0, 762.0)",1.45,0.487,1,478.381,1,0.02,0.25
0,84,target,"[(1176, 781)]",[],[1],[0.5333333333333333],horizontal,"(890.0, 762.0)",0.7166666666666667,0.495,1,484.06,1,0.02,0.25
0,85,target,"[(1160, 774)]",[],[1],[0.5666666666666667],vertical,"(890.0, 262.0)",0.8666666666666667,0.523,1,488.992,1,0.02,0.25
0,86,target,"[(1166, 795)]",[],[1],[0.6333333333333333],horizontal,"(390.0, 762.0)",0.6833333333333333,0.593,1,494.032,2,0.02,0.25
0,87,target,"[(1175, 802)]",[],[1],[0.85],horizontal,"(890.0, 762.0)",0.55,nan,0,498.991,0,0.02,0.25
0,88,target,"[(1161, 794)]",[],[1],[0.6166666666666667],horizontal,"(890.0, 762.0)",1.2166666666666666,0.577,1,503.531,1,0.02,0.25
0,89,catch,"[(1171, 796)]",[],[1],[],vertical,"(890.0, 262.0)",1.7,nan,1,509.102,1,0.02,0.25
0,90,target,"[(1168, 793)]",[],[1],[0.36666666666666664],horizontal,"(890.0, 262.0)",1.5333333333333332,0.329,1,514.632,1,0.02,0.25
0,91,target,"[(1171, 797)]",[],[1],[0.48333333333333334],horizontal,"(890.0, 262.0)",1.1333333333333333,0.444,1,520.231,2,0.02,0.25
0,92,target,"[(1169, 796)]",[],[1],[0.5],vertical,"(390.0, 262.0)",0.7333333333333333,0.461,1,526.131,2,0.02,0.25
0,93,target,"[(1170, 773)]",[],[1],[0.55],vertical,"(890.0, 762.0)",0.35,0.507,1,531.376,2,0.02,0.25
0,94,target,"[(1170, 800)]",[],[1],[0.5833333333333334],vertical,"(390.0, 762.0)",0.95,0.54,1,535.932,2,0.02,0.25
0,95,target,"[(1164, 799)]",[],[1],[0.6833333333333333],vertical,"(890.0, 262.0)",0.48333333333333334,0.641,1,541.365,3,0.02,0.25
0,96,target,"[(1166, 783)]",[],[1],[0.5],horizontal,"(390.0, 262.0)",1.3333333333333333,0.46,1,546.987,3,0.02,0.25
0,97,target,"[(1160, 795)]",[],[1],[0.5833333333333334],vertical,"(390.0, 262.0)",1.0666666666666667,0.545,1,552.633,3,0.02,0.25
0,98,catch,"[(1163, 784)]",[],[1],[],vertical,"(390.0, 762.0)",1.7,nan,1,558.582,3,0.02,0.25
0,99,catch,"[(1170, 794)]",[],[1],[],horizontal,"(390.0, 762.0)",1.7,nan,1,564.782,3,0.02,0.25
0,100,catch,"[(1165, 796)]",[],[1],[],horizontal,"(390.0, 262.0)",1.7,nan,1,570.965,3,0.02,0.25
0,101,catch,"[(1165, 799)]",[],[1],[],vertical,"(890.0, 762.0)",1.7,nan,1,577.13,3,0.02,0.25
0,102,target,"[(1175, 784)]",[],[1],[0.55],horizontal,"(390.0, 762.0)",1.3166666666666667,0.514,1,582.79,3,0.02,0.25
0,103,catch,"[(1160, 794)]",[],[1],[],horizontal,"(390.0, 262.0)",1.7,nan,1,588.688,3,0.02,0.25
0,104,target,"[(1175, 802)]",[],[1],[0.48333333333333334],vertical,"(890.0, 762.0)",1.4333333333333333,0.448,1,594.954,3,0.02,0.25
0,105,catch,"[(1175, 799)]",[],[1],[],vertical,"(390.0, 262.0)",1.7,nan,1,601.327,3,0.02,0.25
0,106,target,"[(1166, 798)]",[],[1],[0.55],horizontal,"(890.0, 262.0)",0.7833333333333333,0.51,1,607.481,3,0.02,0.25
0,107,target,"[(1160, 795)]",[],[1],[0.5666666666666667],vertical,"(890.0, 762.0)",1.3666666666666667,0.526,1,613.272,3,0.02,0.25
0,108,target,"[(1166, 800)]",[],[1],[0.5666666666666667],vertical,"(890.0, 762.0)",1.1833333333333333,0.525,1,619.264,3,0.02,0.25
0,109,catch,"[(1165, 803)]",[],[1],[],vertical,"(890.0, 262.0)",1.7,nan,1,625.149,3,0.02,0.25
0,110,target,"[(1161, 782)]",[],[1],[0.5],horizontal,"(390.0, 262.0)",0.85,0.461,1,630.872,3,0.02,0.25
0,111,target,"[(1160, 800)]",[],[1],[0.5166666666666666],vertical,"(390.0, 262.0)",1.3,0.473,1,636.49,3,0.02,0.25
0,112,catch,"[(1164, 787)]",[],[1],[0.03333333333333333],vertical,"(390.0, 262.0)",1.7,"0.018,nan",0,642.895,0,0.04,0.25
0,113,target,"[(1165, 801)]",[],[1],[0.5166666666666666],vertical,"(390.0, 262.0)",0.9333333333333333,0.488,1,647.383,1,0.04,0.25
0,114,target,"[(1169, 803)]",[],[1],[0.6333333333333333],vertical,"(890.0, 262.0)",1.0833333333333333,0.587,1,652.023,1,0.04,0.25
0,115,catch,"[(1160, 795)]",[],[1],[],vertical,"(390.0, 262.0)",1.7,nan,1,656.798,1,0.04,0.25
0,116,target,"[(1171, 797)]",[],[1],[0.55],vertical,"(890.0, 762.0)",1.1,0.512,1,662.066,2,0.04,0.25
0,117,target,"[(1186, 807)]",[],[1],[0.2833333333333333],vertical,"(390.0, 262.0)",1.35,0.253,1,667.366,2,0.04,0.25
0,118,catch,"[(1160, 780)]",[],[1],[],horizontal,"(890.0, 262.0)",1.7,"('cti', 1.695),nan",0,672.744,0,0.06,0.25
0,119,target,"[(1165, 806)]",[],[1],[0.55],horizontal,"(390.0, 762.0)",1.0,0.509,1,677.577,1,0.06,0.25
0,120,target,"[(1164, 767)]",[],[1],[0.13333333333333333],horizontal,"(890.0, 262.0)",1.2166666666666666,0.099,0,682.782,0,0.06,0.25
0,121,target,"[(1155, 834)]",[],[1],[0.5833333333333334],horizontal,"(390.0, 262.0)",1.0333333333333332,0.549,1,687.556,1,0.06,0.25
0,122,target,"[(1166, 784)]",[],[1],[0.5833333333333334],horizontal,"(390.0, 762.0)",0.7166666666666667,0.537,1,693.607,1,0.06,0.25
0,123,target,"[(1155, 798)]",[],[1],[0.5666666666666667],horizontal,"(390.0, 262.0)",0.8166666666666667,0.527,1,698.377,1,0.06,0.25
0,124,target,"[(1157, 766)]",[],[1],[0.5666666666666667],horizontal,"(390.0, 762.0)",1.2166666666666666,0.526,1,702.918,2,0.06,0.25
0,125,catch,"[(1161, 803)]",[],[1],[],vertical,"(890.0, 762.0)",1.7,nan,1,708.826,2,0.06,0.25
0,126,catch,"[(1157, 804)]",[],[1],[],horizontal,"(890.0, 262.0)",1.7,nan,1,714.426,2,0.06,0.25
0,127,target,"[(1159, 803)]",[],[1],[0.5166666666666666],horizontal,"(390.0, 762.0)",1.5333333333333332,0.475,1,719.965,2,0.06,0.25
0,128,catch,"[(1156, 803)]",[],[1],[],horizontal,"(390.0, 762.0)",1.7,nan,1,725.748,3,0.06,0.25
0,129,target,"[(1162, 788)]",[],[1],[0.48333333333333334],vertical,"(890.0, 262.0)",1.5,0.45,1,731.855,3,0.06,0.25
0,130,target,"[(1165, 803)]",[],[1],[0.5166666666666666],horizontal,"(390.0, 262.0)",1.3,0.477,1,737.772,3,0.06,0.25
0,131,target,"[(1155, 799)]",[],[1],[0.7166666666666667],horizontal,"(390.0, 262.0)",1.1333333333333333,0.668,1,744.043,3,0.04,0.25
0,132,target,"[(1163, 802)]",[],[1],[0.6],vertical,"(890.0, 762.0)",1.3166666666666667,0.553,1,749.893,3,0.04,0.25
0,133,catch,"[(1160, 808)]",[],[1],[],vertical,"(390.0, 762.0)",1.7,nan,1,755.703,3,0.04,0.25
0,134,target,"[(1159, 807)]",[],[1],[0.6666666666666666],vertical,"(890.0, 762.0)",1.1833333333333333,0.617,1,761.909,3,0.04,0.25
0,135,catch,"[(1175, 807)]",[],[1],[],horizontal,"(390.0, 762.0)",1.7,nan,1,768.175,3,0.04,0.25
0,136,target,"[(1157, 798)]",[],[1],[0.36666666666666664],horizontal,"(390.0, 762.0)",1.4833333333333334,0.33,1,774.334,3,0.04,0.25
0,137,target,"[(1131, 791)]",[],[1],[0.6],horizontal,"(390.0, 762.0)",0.35,0.554,1,780.39,3,0.04,0.25
0,138,target,"[(1155, 822)]",[],[1],[0.5166666666666666],vertical,"(390.0, 762.0)",0.35,0.476,1,785.313,3,0.04,0.25
0,139,catch,"[(1169, 802)]",[],[1],[],horizontal,"(390.0, 762.0)",1.7,nan,1,790.367,3,0.04,0.25
0,140,target,"[(1165, 797)]",[],[1],[0.36666666666666664],vertical,"(890.0, 762.0)",1.45,0.325,1,796.176,3,0.04,0.25
0,141,target,"[(1171, 807)]",[],[1],[0.85],horizontal,"(890.0, 762.0)",0.7166666666666667,nan,0,802.691,0,0.04,0.25
0,142,target,"[(1134, 809)]",[],[1],[0.5333333333333333],vertical,"(890.0, 262.0)",0.7833333333333333,0.491,1,807.032,1,0.04,0.25
0,143,catch,"[(1157, 803)]",[],[1],[],horizontal,"(890.0, 262.0)",,"('cti', 1.583),nan",0,812.117,0,0.06,0.25
0,144,target,"[(1164, 808)]",[],[1],[0.6],horizontal,"(390.0, 262.0)",0.65,0.56,1,817.049,1,0.06,0.25
0,145,target,"[(1158, 809)]",[],[1],[0.5],horizontal,"(390.0, 262.0)",1.1166666666666667,0.461,1,822.585,1,0.06,0.25
0,146,target,"[(1153, 806)]",[],[1],[0.48333333333333334],horizontal,"(890.0, 262.0)",1.3166666666666667,0.445,1,827.905,1,0.06,0.25
0,147,catch,"[(1165, 808)]",[],[1],[],horizontal,"(890.0, 762.0)",1.7,nan,1,833.183,2,0.06,0.25
0,148,target,"[(1124, 804)]",[],[1],[0.5833333333333334],vertical,"(890.0, 262.0)",0.36666666666666664,0.539,1,839.034,2,0.06,0.25
0,149,catch,"[(1164, 803)]",[],[1],[],vertical,"(890.0, 762.0)",1.7,nan,1,843.883,2,0.06,0.25
0,150,target,"[(1160, 797)]",[],[1],[0.5833333333333334],vertical,"(890.0, 762.0)",0.36666666666666664,0.545,1,849.667,2,0.06,0.25
0,151,target,"[(1165, 804)]",[],[1],[0.5833333333333334],horizontal,"(890.0, 262.0)",1.1833333333333333,0.538,1,854.884,3,0.06,0.25
0,152,target,"[(1166, 792)]",[],[1],[0.6],horizontal,"(390.0, 762.0)",1.1166666666666667,0.556,1,861.124,3,0.06,0.25
0,153,target,"[(1165, 803)]",[],[1],[0.5166666666666666],vertical,"(390.0, 262.0)",1.2333333333333334,0.476,1,866.958,3,0.06,0.25
0,154,target,"[(1158, 790)]",[],[1],[0.5666666666666667],vertical,"(390.0, 762.0)",0.7833333333333333,0.525,1,873.081,3,0.06,0.25
0,155,catch,"[(1157, 789)]",[],[1],[],horizontal,"(390.0, 262.0)",1.7,nan,1,878.848,3,0.06,0.25
0,156,target,"[(1194, 788)]",[],[1],[0.55],vertical,"(390.0, 762.0)",0.8,0.51,1,885.127,3,0.06,0.25
0,157,catch,"[(1164, 798)]",[],[1],[],vertical,"(390.0, 262.0)",1.7,nan,1,891.048,3,0.06,0.25
0,158,target,"[(1163, 774)]",[],[1],[0.55],horizontal,"(390.0, 262.0)",1.25,0.511,1,896.959,3,0.06,0.25
0,159,target,"[(1132, 793)]",[],[1],[0.5333333333333333],horizontal,"(390.0, 262.0)",1.35,0.49,1,902.843,3,0.06,0.25
0,160,target,"[(1163, 798)]",[],[1],[0.85],vertical,"(890.0, 262.0)",0.6,nan,0,908.934,0,0.06,0.25
0,161,target,"[(1141, 813)]",[],[1],[0.6333333333333333],vertical,"(390.0, 262.0)",1.0333333333333332,0.591,1,913.116,1,0.06,0.25
0,162,target,"[(1170, 782)]",[],[1],[0.65],vertical,"(890.0, 262.0)",0.5,0.607,1,918.683,1,0.04,0.25
0,163,target,"[(1165, 810)]",[],[1],[0.65],vertical,"(890.0, 762.0)",0.6,0.606,1,923.016,1,0.04,0.25
0,164,catch,"[(1141, 795)]",[],[1],[],vertical,"(890.0, 762.0)",1.7,nan,1,927.996,2,0.04,0.25
0,165,catch,"[(1161, 820)]",[],[1],[],vertical,"(890.0, 762.0)",1.7,nan,1,933.926,2,0.04,0.25
0,166,catch,"[(1165, 803)]",[],[1],[],vertical,"(890.0, 262.0)",1.7,nan,1,939.89,2,0.04,0.25
0,167,target,"[(1140, 811)]",[],[1],[0.6833333333333333],vertical,"(890.0, 762.0)",1.35,0.641,1,945.902,2,0.04,0.25
0,168,catch,"[(1126, 814)]",[],[1],[],horizontal,"(890.0, 262.0)",1.7,nan,1,951.817,3,0.02,0.25
0,169,target,"[(1142, 806)]",[],[1],[],vertical,"(890.0, 262.0)",,"('cti', 0.853)",0,957.466,0,0.04,0.25
0,170,target,"[(1122, 847)]",[],[1],[0.7333333333333333],vertical,"(890.0, 262.0)",0.6666666666666666,0.683,1,961.266,1,0.04,0.25
0,171,target,"[(1164, 812)]",[],[1],[0.3833333333333333],vertical,"(390.0, 762.0)",1.3666666666666667,0.344,1,1341.918,1,0.04,0.25
0,172,target,"[(1156, 812)]",[],[1],[0.5333333333333333],horizontal,"(390.0, 762.0)",1.2833333333333332,0.49,1,1347.534,1,0.04,0.25
0,173,target,"[(1175, 798)]",[],[1],[0.7833333333333333],horizontal,"(390.0, 262.0)",0.5333333333333333,0.734,1,1352.89,2,0.04,0.25
0,174,target,"[(1160, 789)]",[],[1],[0.5],vertical,"(890.0, 262.0)",0.5666666666666667,0.456,1,1357.942,2,0.04,0.25
0,175,target,"[(1160, 812)]",[],[1],[0.4666666666666667],horizontal,"(390.0, 262.0)",1.15,0.424,1,1363.274,2,0.04,0.25
0,176,catch,"[(1172, 804)]",[],[1],[],vertical,"(390.0, 762.0)",,"('cti', 1.549),nan",0,1369.022,0,0.06,0.25
0,177,catch,"[(1175, 807)]",[],[1],[],horizontal,"(390.0, 262.0)",1.7,nan,1,1373.983,1,0.06,0.25
0,178,target,"[(1173, 839)]",[],[1],[0.5833333333333334],vertical,"(390.0, 262.0)",0.3833333333333333,0.541,1,1379.386,1,0.06,0.25
0,179,target,"[(1176, 803)]",[],[1],[0.5166666666666666],horizontal,"(390.0, 262.0)",0.6166666666666667,0.479,1,1383.456,1,0.06,0.25
0,180,catch,"[(1160, 811)]",[],[1],[],horizontal,"(890.0, 762.0)",1.7,nan,1,1388.085,2,0.06,0.25
0,181,target,"[(1176, 803)]",[],[1],[0.5666666666666667],horizontal,"(390.0, 262.0)",1.3833333333333333,0.524,1,1393.611,2,0.06,0.25
0,182,catch,"[(1168, 807)]",[],[1],[],vertical,"(890.0, 262.0)",1.7,nan,1,1399.318,2,0.06,0.25
0,183,target,"[(1166, 819)]",[],[1],[0.4666666666666667],horizontal,"(390.0, 262.0)",0.9333333333333333,0.423,1,1405.002,2,0.06,0.25
0,184,target,"[(1175, 805)]",[],[1],[0.5666666666666667],vertical,"(390.0, 262.0)",1.1333333333333333,0.527,1,1410.576,3,0.06,0.25
0,185,target,"[(1175, 795)]",[],[1],[0.5333333333333333],horizontal,"(390.0, 762.0)",0.9333333333333333,0.491,1,1416.831,3,0.06,0.25
0,186,target,"[(1175, 790)]",[],[1],[0.7166666666666667],horizontal,"(890.0, 762.0)",1.1666666666666667,0.666,1,1422.202,3,0.06,0.25
0,187,target,"[(1174, 798)]",[],[1],[0.5333333333333333],vertical,"(390.0, 762.0)",0.9833333333333333,0.498,1,1428.219,3,0.06,0.25
0,188,target,"[(1172, 803)]",[],[1],[0.23333333333333334],vertical,"(390.0, 262.0)",1.1166666666666667,0.197,0,1433.543,0,0.06,0.25
0,189,catch,"[(1159, 805)]",[],[1],[],vertical,"(890.0, 762.0)",1.7,nan,1,1437.751,1,0.06,0.25
0,190,target,"[(1141, 786)]",[],[1],[0.5333333333333333],vertical,"(390.0, 262.0)",1.1166666666666667,0.493,1,1443.047,1,0.06,0.25
0,191,target,"[(1151, 785)]",[],[1],[0.6333333333333333],vertical,"(890.0, 762.0)",0.8333333333333334,0.588,1,1447.953,1,0.06,0.25
0,192,target,"[(1166, 808)]",[],[1],[0.55],vertical,"(890.0, 262.0)",0.45,0.509,1,1452.703,2,0.06,0.25
0,193,target,"[(1180, 803)]",[],[1],[0.48333333333333334],horizontal,"(390.0, 262.0)",0.6333333333333333,0.442,1,1457.303,2,0.04,0.25
0,194,catch,"[(1180, 809)]",[],[1],[0.03333333333333333],horizontal,"(890.0, 262.0)",1.7,"0.019,nan",0,1462.036,0,0.06,0.25
0,195,target,"[(1174, 785)]",[],[1],[0.5333333333333333],horizontal,"(390.0, 762.0)",1.25,0.496,1,1466.953,1,0.06,0.25
0,196,target,"[(1160, 808)]",[],[1],[0.6333333333333333],horizontal,"(390.0, 762.0)",1.5166666666666666,0.586,1,1472.135,1,0.06,0.25
0,197,target,"[(1137, 813)]",[],[1],[0.85],vertical,"(390.0, 762.0)",0.43333333333333335,nan,0,1477.59,0,0.06,0.25
0,198,catch,"[(1160, 785)]",[],[1],[],horizontal,"(390.0, 762.0)",1.7,nan,1,1482.346,1,0.06,0.25
0,199,target,"[(1175, 779)]",[],[1],[0.55],vertical,"(390.0, 262.0)",0.36666666666666664,0.523,1,1487.785,1,0.06,0.25
0,200,catch,"[(1161, 813)]",[],[1],[],vertical,"(390.0, 762.0)",1.7,nan,1,1492.368,1,0.06,0.25
0,201,catch,"[(1194, 808)]",[],[1],[],vertical,"(890.0, 762.0)",1.7,nan,1,1497.931,2,0.06,0.25
0,202,target,"[(1159, 802)]",[],[1],[0.55],vertical,"(390.0, 262.0)",0.7833333333333333,0.507,1,1503.926,2,0.06,0.25
0,203,target,"[(1156, 783)]",[],[1],[0.5166666666666666],horizontal,"(390.0, 762.0)",1.25,0.473,1,1509.402,2,0.06,0.25
0,204,target,"[(1179, 789)]",[],[1],[0.6333333333333333],vertical,"(390.0, 262.0)",0.43333333333333335,0.586,1,1515.0,2,0.06,0.25
0,205,target,"[(1166, 808)]",[],[1],[0.4],vertical,"(890.0, 262.0)",1.3166666666666667,0.356,1,1519.768,3,0.06,0.25
0,206,target,"[(1159, 807)]",[],[1],[0.5333333333333333],horizontal,"(390.0, 262.0)",0.36666666666666664,0.491,1,1526.08,3,0.06,0.25
0,207,catch,"[(1160, 803)]",[],[1],[],vertical,"(390.0, 762.0)",1.7,nan,1,1531.603,3,0.06,0.25
0,208,target,"[(1177, 789)]",[],[1],[0.48333333333333334],horizontal,"(390.0, 262.0)",1.3333333333333333,0.44,1,1537.56,3,0.06,0.25
0,209,catch,"[(1176, 808)]",[],[1],[],vertical,"(890.0, 762.0)",,"('cti', 1.451),nan",0,1543.501,0,0.08,0.25
0,210,target,"[(1159, 808)]",[],[1],[0.5833333333333334],vertical,"(890.0, 262.0)",0.7,0.545,1,1548.341,1,0.08,0.25
0,211,target,"[(1139, 813)]",[],[1],[0.6833333333333333],vertical,"(890.0, 262.0)",0.65,0.635,1,1553.51,1,0.08,0.25
0,212,target,"[(1141, 775)]",[],[1],[0.55],vertical,"(390.0, 762.0)",0.9666666666666667,0.509,1,1558.314,1,0.08,0.25
0,213,target,"[(1178, 809)]",[],[1],[0.5333333333333333],horizontal,"(890.0, 262.0)",0.48333333333333334,0.49,1,1563.319,2,0.08,0.25
0,214,target,"[(1179, 789)]",[],[1],[0.6],vertical,"(890.0, 262.0)",1.0833333333333333,0.56,1,1568.568,2,0.08,0.25
0,215,catch,"[(1199, 809)]",[],[1],[],vertical,"(890.0, 262.0)",1.7,nan,1,1573.818,2,0.08,0.25
0,216,catch,"[(1156, 809)]",[],[1],[],vertical,"(890.0, 262.0)",1.7,nan,1,1579.822,2,0.08,0.25
0,217,target,"[(1161, 803)]",[],[1],[0.6666666666666666],vertical,"(390.0, 762.0)",1.0166666666666666,0.624,1,1585.919,3,0.08,0.25
0,218,target,"[(1205, 803)]",[],[1],[0.85],vertical,"(390.0, 762.0)",1.1,nan,0,1592.102,0,0.08,0.25
0,219,target,"[(1157, 808)]",[],[1],[0.85],horizontal,"(390.0, 762.0)",0.6833333333333333,nan,0,1596.71,0,0.06,0.25
0,220,target,"[(1185, 829)]",[],[1],[0.5333333333333333],vertical,"(890.0, 262.0)",0.7166666666666667,0.496,1,1601.259,1,0.06,0.25
0,221,target,"[(1176, 780)]",[],[1],[0.85],horizontal,"(390.0, 762.0)",0.5,nan,0,1606.22,0,0.06,0.25
0,222,target,"[(1155, 806)]",[],[1],[0.5],vertical,"(890.0, 262.0)",0.7,0.458,1,1610.652,1,0.06,0.25
0,223,target,"[(1162, 808)]",[],[1],[0.55],vertical,"(390.0, 262.0)",1.5333333333333332,0.512,1,1615.313,1,0.06,0.25
0,224,target,"[(1175, 803)]",[],[1],[0.6666666666666666],horizontal,"(390.0, 762.0)",1.2,0.62,1,1620.67,1,0.06,0.25
0,225,target,"[(1157, 814)]",[],[1],[0.5833333333333334],vertical,"(390.0, 762.0)",1.1,0.542,1,1625.809,2,0.06,0.25
0,226,target,"[(1173, 808)]",[],[1],[0.35],horizontal,"(390.0, 762.0)",1.5166666666666666,0.312,1,1631.22,2,0.04,0.25
0,227,catch,"[(1186, 803)]",[],[1],[],horizontal,"(890.0, 762.0)",1.7,nan,1,1636.737,2,0.04,0.25
0,228,target,"[(1171, 825)]",[],[1],[0.5666666666666667],vertical,"(390.0, 262.0)",1.2166666666666666,0.525,1,1642.756,2,0.04,0.25
0,229,target,"[(1166, 803)]",[],[1],[0.85],horizontal,"(390.0, 762.0)",0.9833333333333333,nan,0,1648.8,0,0.04,0.25
0,230,target,"[(1162, 804)]",[],[1],[0.5],vertical,"(890.0, 762.0)",1.45,0.458,1,1653.731,1,0.04,0.25
0,231,target,"[(1166, 794)]",[],[1],[0.6333333333333333],vertical,"(390.0, 262.0)",1.1333333333333333,0.589,1,1659.053,1,0.04,0.25
0,232,target,"[(1166, 813)]",[],[1],[0.45],vertical,"(390.0, 762.0)",1.5166666666666666,0.407,1,1664.714,1,0.04,0.25
0,233,catch,"[(1160, 778)]",[],[1],[],horizontal,"(890.0, 762.0)",1.7,nan,1,1670.217,2,0.04,0.25
0,234,catch,"[(1171, 805)]",[],[1],[],vertical,"(390.0, 762.0)",1.7,nan,1,1676.137,2,0.04,0.25
0,235,target,"[(1159, 806)]",[],[1],[0.5666666666666667],vertical,"(890.0, 262.0)",1.1666666666666667,0.524,1,1682.228,2,0.04,0.25
0,236,catch,"[(1161, 783)]",[],[1],[],vertical,"(390.0, 262.0)",1.7,nan,1,1687.469,2,0.04,0.25
0,237,target,"[(1160, 805)]",[],[1],[0.5166666666666666],horizontal,"(890.0, 262.0)",1.3666666666666667,0.48,1,1693.102,3,0.04,0.25
0,238,target,"[(1158, 803)]",[],[1],[0.7166666666666667],horizontal,"(890.0, 762.0)",0.5833333333333334,0.667,1,1699.138,3,0.04,0.25
0,239,catch,"[(1161, 803)]",[],[1],[],vertical,"(390.0, 262.0)",1.7,nan,1,1705.052,3,0.04,0.25
0,240,catch,"[(1166, 803)]",[],[1],[],horizontal,"(890.0, 762.0)",1.7,nan,1,1711.253,3,0.04,0.25
0,241,target,"[(1170, 786)]",[],[1],[0.65],vertical,"(890.0, 762.0)",1.1,0.603,1,1716.869,3,0.04,0.25
0,242,target,"[(1204, 805)]",[],[1],[0.6333333333333333],vertical,"(890.0, 762.0)",1.3833333333333333,0.586,1,1723.234,3,0.04,0.25
0,243,target,"[(1160, 803)]",[],[1],[0.4166666666666667],vertical,"(890.0, 762.0)",1.4333333333333333,0.375,1,1729.77,3,0.04,0.25
0,244,catch,"[(1155, 804)]",[],[1],[],horizontal,"(390.0, 262.0)",1.7,nan,1,1735.954,3,0.02,0.25
0,245,target,"[(1158, 787)]",[],[1],[0.5],horizontal,"(390.0, 262.0)",0.9666666666666667,0.462,1,1741.903,3,0.02,0.25
0,246,target,"[(1171, 808)]",[],[1],[0.55],vertical,"(890.0, 762.0)",1.0,0.51,1,1747.836,3,0.02,0.25
0,247,catch,"[(1175, 803)]",[],[1],[],horizontal,"(890.0, 262.0)",1.7,nan,1,1753.766,3,0.02,0.25
0,248,catch,"[(1160, 796)]",[],[1],[],vertical,"(890.0, 762.0)",1.7,nan,1,1760.069,3,0.02,0.25
0,249,target,"[(1171, 798)]",[],[1],[0.65],horizontal,"(390.0, 762.0)",0.8333333333333334,0.606,1,1765.681,3,0.02,0.25
0,250,target,"[(1178, 786)]",[],[1],[0.6],vertical,"(890.0, 762.0)",0.8833333333333333,0.559,1,1771.903,3,0.02,0.25
0,251,target,"[(1171, 808)]",[],[1],[0.7666666666666666],vertical,"(390.0, 262.0)",1.0166666666666666,0.721,1,1777.392,3,0.02,0.25
0,252,target,"[(1175, 807)]",[],[1],[0.4666666666666667],horizontal,"(390.0, 262.0)",1.4166666666666667,0.426,1,1783.386,3,0.02,0.25
0,253,target,"[(1166, 803)]",[],[1],[0.6833333333333333],horizontal,"(390.0, 262.0)",1.4333333333333333,0.635,1,1789.359,3,0.02,0.25
0,254,target,"[(1177, 788)]",[],[1],[0.55],vertical,"(390.0, 262.0)",1.05,0.504,1,1795.336,3,0.02,0.25
0,255,catch,"[(1163, 780)]",[],[1],[],vertical,"(390.0, 762.0)",1.7,nan,1,1801.042,3,0.02,0.25
0,256,target,"[(1176, 804)]",[],[1],[0.6],horizontal,"(890.0, 762.0)",0.3833333333333333,0.564,1,1807.271,3,0.02,0.25
0,257,target,"[(1160, 803)]",[],[1],[0.6166666666666667],vertical,"(890.0, 262.0)",0.75,0.576,1,1812.574,3,0.02,0.25
0,258,catch,"[(1170, 813)]",[],[1],[],horizontal,"(390.0, 262.0)",1.7,nan,1,1818.003,3,0.02,0.25
0,259,target,"[(1180, 810)]",[],[1],[0.6833333333333333],horizontal,"(890.0, 262.0)",0.85,0.636,1,1823.927,3,0.0,0.25
0,260,target,"[(1163, 785)]",[],[1],[0.5166666666666666],vertical,"(890.0, 262.0)",1.1,0.474,1,1829.686,3,0.0,0.25
0,261,catch,"[(1162, 796)]",[],[1],[],horizontal,"(890.0, 762.0)",1.7,nan,1,1835.491,3,0.0,0.25
0,262,target,"[(1160, 803)]",[],[1],[0.5166666666666666],vertical,"(390.0, 262.0)",0.6666666666666666,0.481,1,1841.894,3,0.0,0.25
0,263,target,"[(1160, 808)]",[],[1],[0.65],horizontal,"(890.0, 762.0)",0.4166666666666667,0.609,1,1847.247,3,0.0,0.25
0,264,target,"[(1166, 804)]",[],[1],[0.23333333333333334],horizontal,"(890.0, 262.0)",0.95,0.199,0,1852.585,0,0.0,0.25
0,265,catch,"[(1160, 805)]",[],[1],[],vertical,"(390.0, 762.0)",1.7,nan,1,1856.896,1,0.0,0.25
0,266,target,"[(1162, 785)]",[],[1],[0.65],horizontal,"(890.0, 762.0)",0.35,0.604,1,1862.669,1,0.0,0.25
0,267,target,"[(1133, 806)]",[],[1],[0.5666666666666667],horizontal,"(890.0, 762.0)",0.6,0.524,1,1866.92,1,0.0,0.25
0,268,target,"[(1170, 809)]",[],[1],[0.65],vertical,"(890.0, 762.0)",1.45,0.608,1,1872.072,2,0.0,0.25
0,269,target,"[(1180, 807)]",[],[1],[0.5666666666666667],horizontal,"(390.0, 762.0)",1.15,0.519,1,1877.955,2,0.0,0.25
0,270,catch,"[(1200, 807)]",[],[1],[],vertical,"(890.0, 262.0)",1.7,nan,1,1883.72,2,0.0,0.25
0,271,target,"[(1171, 813)]",[],[1],[0.5166666666666666],horizontal,"(390.0, 262.0)",1.4,0.477,1,1889.375,2,0.0,0.25
0,272,target,"[(1166, 813)]",[],[1],[0.3833333333333333],vertical,"(390.0, 762.0)",1.4833333333333334,0.35,1,1895.296,3,0.0,0.25
0,273,target,"[(1167, 807)]",[],[1],[0.5333333333333333],vertical,"(890.0, 762.0)",0.6333333333333333,0.49,1,1901.353,3,0.0,0.25
0,274,target,"[(1160, 782)]",[],[1],[0.75],vertical,"(890.0, 762.0)",0.9833333333333333,0.713,1,1906.48,3,0.0,0.25
0,275,target,"[(1166, 798)]",[],[1],[0.55],horizontal,"(390.0, 762.0)",0.8333333333333334,0.505,1,1912.635,3,0.0,0.25
0,276,target,"[(1172, 803)]",[],[1],[0.5333333333333333],horizontal,"(390.0, 262.0)",0.9666666666666667,0.492,1,1918.047,3,0.0,0.25
0,277,target,"[(1156, 808)]",[],[1],[0.5333333333333333],vertical,"(390.0, 262.0)",0.55,0.495,1,1923.618,3,0.0,0.25
0,278,catch,"[(1156, 769)]",[],[1],[],vertical,"(390.0, 262.0)",,"('cti', 1.597),nan",0,1929.019,0,0.02,0.25
0,279,target,"[(1153, 808)]",[],[1],[0.5666666666666667],horizontal,"(890.0, 262.0)",0.5166666666666666,0.524,1,1934.037,1,0.02,0.25
0,280,target,"[(1193, 817)]",[],[1],[0.6333333333333333],vertical,"(390.0, 262.0)",1.4833333333333334,0.59,1,1939.454,1,0.02,0.25
0,281,target,"[(1180, 807)]",[],[1],[0.85],horizontal,"(890.0, 262.0)",1.35,nan,0,1944.841,0,0.02,0.25
0,282,catch,"[(1159, 810)]",[],[1],[],vertical,"(890.0, 762.0)",1.7,nan,1,1949.654,1,0.02,0.25
0,283,catch,"[(1145, 818)]",[],[1],[],vertical,"(390.0, 762.0)",1.7,nan,1,1955.103,1,0.02,0.25
0,284,catch,"[(1166, 820)]",[],[1],[0.03333333333333333],horizontal,"(390.0, 762.0)",1.7,"0.017,nan",0,2512.999,0,0.04,0.25
0,285,target,"[(1158, 818)]",[],[1],[0.31666666666666665],horizontal,"(390.0, 262.0)",1.4166666666666667,0.276,1,2517.99,1,0.04,0.25
0,286,catch,"[(1167, 808)]",[],[1],[],horizontal,"(890.0, 762.0)",1.7,nan,1,2524.281,1,0.04,0.25
0,287,target,"[(1159, 813)]",[],[1],[0.55],vertical,"(890.0, 762.0)",1.05,0.509,1,2529.323,1,0.04,0.25
0,288,target,"[(1136, 809)]",[],[1],[0.6333333333333333],horizontal,"(390.0, 262.0)",0.7666666666666666,0.587,1,2534.373,2,0.04,0.25
0,289,catch,"[(1158, 802)]",[],[1],[],vertical,"(890.0, 762.0)",1.7,nan,1,2539.867,2,0.04,0.25
0,290,target,"[(1159, 803)]",[],[1],[0.5166666666666666],horizontal,"(890.0, 262.0)",0.8166666666666667,0.474,1,2545.214,2,0.04,0.25
0,291,catch,"[(1156, 813)]",[],[1],[],vertical,"(390.0, 262.0)",1.7,nan,1,2550.647,2,0.04,0.25
0,292,target,"[(1166, 830)]",[],[1],[0.55],horizontal,"(390.0, 762.0)",1.15,0.509,1,2556.557,3,0.04,0.25
0,293,target,"[(1160, 808)]",[],[1],[0.5166666666666666],horizontal,"(390.0, 262.0)",1.35,0.476,1,2562.776,3,0.04,0.25
0,294,target,"[(1155, 795)]",[],[1],[0.75],vertical,"(390.0, 262.0)",1.05,0.701,1,2568.706,3,0.04,0.25
0,295,target,"[(1176, 813)]",[],[1],[0.55],vertical,"(890.0, 762.0)",1.4166666666666667,0.505,1,2574.806,3,0.04,0.25
0,296,target,"[(1161, 792)]",[],[1],[0.5666666666666667],vertical,"(890.0, 762.0)",1.0,0.528,1,2581.031,3,0.04,0.25
0,297,catch,"[(1159, 770)]",[],[1],[],horizontal,"(890.0, 262.0)",1.7,nan,1,2587.074,3,0.04,0.25
0,298,catch,"[(1162, 792)]",[],[1],[],vertical,"(390.0, 262.0)",1.7,nan,1,2593.038,3,0.04,0.25
0,299,target,"[(1162, 808)]",[],[1],[0.5833333333333334],horizontal,"(390.0, 762.0)",0.9166666666666666,0.537,1,2599.256,3,0.04,0.25
0,300,catch,"[(1165, 787)]",[],[1],[],vertical,"(390.0, 262.0)",1.7,nan,1,2604.84,3,0.04,0.25
0,301,target,"[(1156, 790)]",[],[1],[0.65],horizontal,"(890.0, 262.0)",0.48333333333333334,0.612,1,2611.141,3,0.04,0.25
0,302,target,"[(1172, 803)]",[],[1],[0.55],vertical,"(890.0, 762.0)",1.4166666666666667,0.504,1,2616.374,3,0.04,0.25
0,303,catch,"[(1136, 794)]",[],[1],[],vertical,"(390.0, 762.0)",1.7,nan,1,2622.658,3,0.04,0.25
0,304,target,"[(1159, 794)]",[],[1],[0.6166666666666667],horizontal,"(390.0, 762.0)",0.5666666666666667,0.573,1,2628.69,3,0.04,0.25
0,305,target,"[(1167, 796)]",[],[1],[0.5166666666666666],vertical,"(390.0, 262.0)",0.4666666666666667,0.472,1,2634.024,3,0.04,0.25
0,306,target,"[(1149, 809)]",[],[1],[0.4666666666666667],vertical,"(390.0, 762.0)",1.4333333333333333,0.427,1,2639.538,3,0.04,0.25
0,307,target,"[(1171, 787)]",[],[1],[0.6],horizontal,"(890.0, 762.0)",0.35,0.557,1,2645.54,3,0.04,0.25
0,308,catch,"[(1161, 780)]",[],[1],[],vertical,"(890.0, 762.0)",1.7,nan,1,2650.654,3,0.04,0.25
0,309,target,"[(1155, 783)]",[],[1],[0.6],vertical,"(390.0, 262.0)",0.7666666666666666,0.558,1,2656.424,3,0.04,0.25
0,310,target,"[(1160, 785)]",[],[1],[0.5],horizontal,"(890.0, 262.0)",0.4166666666666667,0.465,1,2661.774,3,0.04,0.25
0,311,target,"[(1175, 793)]",[],[1],[0.5333333333333333],vertical,"(890.0, 762.0)",0.5,0.493,1,2666.839,3,0.04,0.25
0,312,catch,"[(1165, 793)]",[],[1],[],horizontal,"(890.0, 262.0)",1.7,nan,1,2672.35,3,0.04,0.25
0,313,catch,"[(1161, 778)]",[],[1],[],horizontal,"(890.0, 762.0)",1.7,nan,1,2678.161,3,0.04,0.25
0,314,catch,"[(1166, 806)]",[],[1],[],horizontal,"(390.0, 262.0)",1.7,nan,1,2683.866,3,0.04,0.25
0,315,target,"[(1155, 780)]",[],[1],[0.3833333333333333],horizontal,"(390.0, 262.0)",1.5333333333333332,0.346,1,2689.688,3,0.04,0.25
0,316,target,"[(1166, 804)]",[],[1],[0.43333333333333335],horizontal,"(390.0, 262.0)",1.3333333333333333,0.391,1,2695.654,3,0.04,0.25
0,317,catch,"[(1175, 796)]",[],[1],[],horizontal,"(390.0, 762.0)",1.7,nan,1,2701.624,3,0.04,0.25
0,318,target,"[(1161, 788)]",[],[1],[0.5166666666666666],vertical,"(390.0, 262.0)",1.3666666666666667,0.479,1,2707.817,3,0.04,0.25
0,319,catch,"[(1165, 801)]",[],[1],[],horizontal,"(390.0, 262.0)",1.7,nan,1,2713.495,3,0.04,0.25
0,320,catch,"[(1159, 781)]",[],[1],[],horizontal,"(390.0, 762.0)",1.7,nan,1,2719.084,3,0.04,0.25
0,321,target,"[(1166, 798)]",[],[1],[0.4166666666666667],horizontal,"(390.0, 762.0)",1.5166666666666666,0.384,1,2724.918,3,0.04,0.25
0,322,target,"[(1142, 787)]",[],[1],[0.6166666666666667],vertical,"(390.0, 762.0)",0.6833333333333333,0.572,1,2731.291,3,0.04,0.25
0,323,target,"[(1166, 799)]",[],[1],[0.5],horizontal,"(890.0, 262.0)",1.0,0.461,1,2736.976,3,0.04,0.25
0,324,target,"[(1158, 787)]",[],[1],[0.5833333333333334],vertical,"(890.0, 262.0)",0.6333333333333333,0.539,1,2742.89,3,0.04,0.25
0,325,target,"[(1157, 789)]",[],[1],[0.6833333333333333],horizontal,"(390.0, 262.0)",1.0,0.635,1,2748.508,3,0.04,0.25
0,326,target,"[(1175, 777)]",[],[1],[0.5333333333333333],vertical,"(890.0, 262.0)",0.48333333333333334,0.495,1,2754.28,3,0.04,0.25
0,327,catch,"[(1165, 807)]",[],[1],[],vertical,"(390.0, 262.0)",1.7,nan,1,2759.625,3,0.04,0.25
0,328,target,"[(1176, 794)]",[],[1],[0.5333333333333333],horizontal,"(890.0, 762.0)",1.3,0.495,1,2765.72,3,0.02,0.25
0,329,target,"[(1157, 789)]",[],[1],[0.4666666666666667],horizontal,"(390.0, 262.0)",1.3833333333333333,0.427,1,2772.063,3,0.02,0.25
0,330,target,"[(1143, 816)]",[],[1],[0.21666666666666667],horizontal,"(390.0, 262.0)",1.5,0.182,0,2778.358,0,0.02,0.25
0,331,target,"[(1142, 795)]",[],[1],[0.5666666666666667],vertical,"(890.0, 762.0)",1.15,0.522,1,2788.403,1,0.02,0.25
0,332,target,"[(1166, 797)]",[],[1],[0.65],vertical,"(890.0, 762.0)",0.8333333333333334,0.606,1,2793.549,1,0.02,0.25
0,333,target,"[(1165, 811)]",[],[1],[0.5166666666666666],vertical,"(390.0, 762.0)",1.3666666666666667,0.474,1,2798.391,1,0.02,0.25
0,334,target,"[(1157, 808)]",[],[1],[0.4166666666666667],vertical,"(390.0, 262.0)",1.5333333333333332,0.38,1,2803.709,2,0.0,0.25
0,335,target,"[(1159, 798)]",[],[1],[0.85],vertical,"(390.0, 762.0)",0.4,nan,0,2809.586,0,0.0,0.25
0,336,target,"[(1142, 796)]",[],[1],[0.6],vertical,"(390.0, 762.0)",1.3833333333333333,0.562,1,2813.636,1,0.0,0.25
0,337,target,"[(1170, 812)]",[],[1],[0.5833333333333334],vertical,"(890.0, 762.0)",0.5666666666666667,0.545,1,2819.276,1,0.0,0.25
0,338,target,"[(1172, 807)]",[],[1],[0.48333333333333334],horizontal,"(390.0, 262.0)",0.36666666666666664,0.446,1,2823.84,1,0.0,0.25
0,339,catch,"[(1175, 769)]",[],[1],[],horizontal,"(390.0, 762.0)",1.7,nan,1,2827.873,2,0.0,0.25
0,340,target,"[(1188, 800)]",[],[1],[0.45],horizontal,"(390.0, 762.0)",1.45,0.411,1,2833.675,2,0.0,0.25
0,341,target,"[(1164, 778)]",[],[1],[0.5166666666666666],vertical,"(890.0, 762.0)",0.5666666666666667,0.482,1,2839.675,2,0.0,0.25
0,342,target,"[(1162, 814)]",[],[1],[0.6166666666666667],horizontal,"(390.0, 262.0)",0.6833333333333333,0.572,1,2844.957,2,0.0,0.25
0,343,target,"[(1158, 805)]",[],[1],[0.6166666666666667],horizontal,"(890.0, 762.0)",1.1166666666666667,0.572,1,2850.22,3,0.0,0.25
0,344,target,"[(1167, 794)]",[],[1],[],vertical,"(890.0, 262.0)",,"('cti', 1.304)",0,2856.224,0,0.02,0.25
0,345,target,"[(1155, 807)]",[],[1],[0.5833333333333334],vertical,"(890.0, 762.0)",0.8666666666666667,0.535,1,2860.972,1,0.02,0.25
0,346,catch,"[(1178, 791)]",[],[1],[],vertical,"(390.0, 262.0)",1.7,nan,1,2865.791,1,0.02,0.25
0,347,target,"[(1151, 808)]",[],[1],[0.65],vertical,"(390.0, 762.0)",0.8333333333333334,0.605,1,2871.44,1,0.02,0.25
0,348,target,"[(1170, 803)]",[],[1],[0.6],horizontal,"(890.0, 262.0)",0.7,0.557,1,2876.429,2,0.02,0.25
0,349,target,"[(1166, 797)]",[],[1],[0.5],vertical,"(890.0, 262.0)",1.1666666666666667,0.461,1,2881.59,2,0.02,0.25
0,350,catch,"[(1166, 784)]",[],[1],[],horizontal,"(890.0, 762.0)",1.7,nan,1,2887.324,2,0.02,0.25
0,351,catch,"[(1160, 796)]",[],[1],[],horizontal,"(390.0, 262.0)",1.7,nan,1,2892.824,2,0.02,0.25
0,352,target,"[(1170, 796)]",[],[1],[0.5666666666666667],horizontal,"(390.0, 762.0)",1.2166666666666666,0.524,1,2898.124,3,0.02,0.25
0,353,target,"[(1163, 798)]",[],[1],[0.5333333333333333],vertical,"(890.0, 762.0)",1.0666666666666667,0.487,1,2904.374,3,0.02,0.25
0,354,catch,"[(1155, 770)]",[],[1],[],vertical,"(390.0, 762.0)",1.7,nan,1,2910.315,3,0.02,0.25
0,355,target,"[(1162, 790)]",[],[1],[0.6333333333333333],vertical,"(890.0, 762.0)",0.8833333333333333,0.587,1,2916.242,3,0.02,0.25
0,356,catch,"[(1158, 800)]",[],[1],[],horizontal,"(390.0, 262.0)",1.7,nan,1,2922.272,3,0.02,0.25
0,357,target,"[(1140, 800)]",[],[1],[0.6666666666666666],vertical,"(890.0, 262.0)",0.5166666666666666,0.621,1,2928.468,3,0.02,0.25
0,358,target,"[(1196, 801)]",[],[1],[0.6166666666666667],vertical,"(390.0, 262.0)",1.0666666666666667,0.575,1,2934.298,3,0.02,0.25
0,359,catch,"[(1170, 804)]",[],[1],[],vertical,"(890.0, 262.0)",1.7,nan,1,2940.119,3,0.02,0.25
0,360,target,"[(1171, 808)]",[],[1],[0.5],vertical,"(890.0, 762.0)",1.2333333333333334,0.452,1,2945.932,3,0.02,0.25
0,361,catch,"[(1155, 812)]",[],[1],[],horizontal,"(390.0, 762.0)",1.7,nan,1,2952.275,3,0.02,0.25
0,362,target,"[(1156, 805)]",[],[1],[0.75],vertical,"(390.0, 762.0)",0.6666666666666666,0.699,1,2960.207,3,0.02,0.25
0,363,catch,"[(1169, 798)]",[],[1],[],horizontal,"(390.0, 762.0)",1.7,nan,1,2965.608,3,0.02,0.25
0,364,catch,"[(1162, 802)]",[],[1],[],horizontal,"(890.0, 262.0)",1.7,nan,1,2971.841,3,0.02,0.25
0,365,catch,"[(1160, 800)]",[],[1],[],vertical,"(890.0, 762.0)",1.7,nan,1,2977.925,3,0.02,0.25
0,366,catch,"[(1162, 790)]",[],[1],[],horizontal,"(890.0, 762.0)",1.7,nan,1,2983.674,3,0.02,0.25
0,367,target,"[(1171, 815)]",[],[1],[0.6166666666666667],vertical,"(390.0, 762.0)",0.36666666666666664,0.574,1,2989.516,3,0.02,0.25
0,368,target,"[(1176, 803)]",[],[1],[0.5333333333333333],horizontal,"(890.0, 762.0)",0.5166666666666666,0.494,1,2994.298,3,0.02,0.25
0,369,target,"[(1155, 794)]",[],[1],[0.5333333333333333],horizontal,"(890.0, 262.0)",1.0833333333333333,0.495,1,2999.357,3,0.02,0.25
0,370,catch,"[(1166, 802)]",[],[1],[],horizontal,"(390.0, 762.0)",1.7,nan,1,3005.358,3,0.02,0.25
0,371,target,"[(1160, 792)]",[],[1],[0.55],vertical,"(390.0, 262.0)",0.8166666666666667,0.509,1,3011.392,3,0.02,0.25
0,372,target,"[(1160, 797)]",[],[1],[0.65],vertical,"(890.0, 762.0)",0.8833333333333333,0.603,1,3016.925,3,0.02,0.25
0,373,target,"[(1159, 802)]",[],[1],[0.55],horizontal,"(390.0, 762.0)",1.2,0.508,1,3022.391,3,0.02,0.25
0,374,catch,"[(1176, 791)]",[],[1],[],horizontal,"(890.0, 762.0)",1.7,nan,1,3028.419,3,0.02,0.25
0,375,target,"[(1170, 779)]",[],[1],[0.5333333333333333],vertical,"(390.0, 262.0)",1.3,0.491,1,3034.6,3,0.02,0.25
0,376,target,"[(1172, 806)]",[],[1],[0.6833333333333333],horizontal,"(890.0, 762.0)",1.25,0.633,1,3040.612,3,0.02,0.25
0,377,target,"[(1160, 793)]",[],[1],[0.4666666666666667],vertical,"(890.0, 762.0)",1.5333333333333332,0.438,1,3046.846,3,0.02,0.25
0,378,target,"[(1159, 797)]",[],[1],[0.6833333333333333],vertical,"(390.0, 762.0)",0.5333333333333333,0.634,1,3053.091,3,0.02,0.25
0,379,target,"[(1166, 798)]",[],[1],[0.5333333333333333],vertical,"(390.0, 762.0)",1.0,0.485,1,3058.689,3,0.02,0.25
0,380,target,"[(1157, 770)]",[],[1],[0.43333333333333335],horizontal,"(390.0, 262.0)",1.35,0.397,1,3064.538,3,0.02,0.25
0,381,target,"[(1155, 792)]",[],[1],[0.5833333333333334],horizontal,"(890.0, 762.0)",0.5166666666666666,0.541,1,3070.743,3,0.02,0.25
0,382,catch,"[(1167, 808)]",[],[1],[],vertical,"(390.0, 762.0)",1.7,nan,1,3076.36,3,0.02,0.25
0,383,target,"[(1169, 790)]",[],[1],[0.65],horizontal,"(390.0, 262.0)",0.8666666666666667,0.604,1,3082.426,3,0.02,0.25
0,384,catch,"[(1178, 793)]",[],[1],[],horizontal,"(890.0, 762.0)",1.7,nan,1,3087.924,3,0.02,0.25
0,385,target,"[(1155, 787)]",[],[1],[0.5333333333333333],horizontal,"(390.0, 762.0)",1.25,0.491,1,3093.919,3,0.02,0.25
0,386,catch,"[(1166, 799)]",[],[1],[],vertical,"(890.0, 262.0)",1.7,nan,1,3100.166,3,0.02,0.25
0,387,target,"[(1135, 795)]",[],[1],[0.55],vertical,"(390.0, 762.0)",1.3833333333333333,0.513,1,3105.954,3,0.02,0.25
0,388,catch,"[(1165, 799)]",[],[1],[],horizontal,"(890.0, 262.0)",1.7,nan,1,3112.144,3,0.02,0.25
0,389,target,"[(1159, 802)]",[],[1],[0.65],vertical,"(390.0, 762.0)",1.35,0.603,1,3118.076,3,0.02,0.25
0,390,target,"[(1156, 794)]",[],[1],[0.6833333333333333],vertical,"(390.0, 762.0)",0.9666666666666667,0.633,1,3124.125,3,0.02,0.25
0,391,target,"[(1159, 799)]",[],[1],[0.5],vertical,"(390.0, 262.0)",1.4333333333333333,0.455,1,3130.099,3,0.02,0.25
0,392,target,"[(1159, 788)]",[],[1],[0.6333333333333333],vertical,"(390.0, 762.0)",0.6833333333333333,0.593,1,3136.541,3,0.02,0.25
0,393,target,"[(1175, 801)]",[],[1],[0.6833333333333333],horizontal,"(890.0, 262.0)",1.1666666666666667,0.635,1,3141.841,3,0.02,0.25
0,394,target,"[(1162, 795)]",[],[1],[0.5666666666666667],vertical,"(890.0, 762.0)",0.35,0.523,1,3148.142,3,0.0,0.25
0,395,target,"[(1156, 812)]",[],[1],[0.5166666666666666],horizontal,"(890.0, 262.0)",0.4166666666666667,0.472,1,3152.982,3,0.0,0.25
0,396,target,"[(1159, 779)]",[],[1],[0.6166666666666667],horizontal,"(390.0, 262.0)",1.2333333333333334,0.572,1,3158.125,3,0.0,0.25
0,397,target,"[(1171, 803)]",[],[1],[0.5833333333333334],vertical,"(390.0, 262.0)",0.43333333333333335,0.539,1,3164.309,3,0.0,0.25
0,398,catch,"[(1166, 809)]",[],[1],[],vertical,"(890.0, 262.0)",1.7,nan,1,3169.921,3,0.0,0.25
0,399,target,"[(1160, 793)]",[],[1],[0.5833333333333334],horizontal,"(390.0, 262.0)",0.6666666666666666,0.535,1,3176.033,3,0.0,0.25
0,400,target,"[(1166, 788)]",[],[1],[0.85],vertical,"(390.0, 762.0)",0.55,nan,0,3181.876,0,0.0,0.25
0,401,target,"[(1155, 808)]",[],[1],[0.65],horizontal,"(890.0, 262.0)",1.5,0.606,1,3186.057,1,0.0,0.25
0,402,target,"[(1158, 802)]",[],[1],[0.5833333333333334],horizontal,"(390.0, 262.0)",1.3833333333333333,0.54,1,3191.776,1,0.0,0.25
0,403,target,"[(1178, 781)]",[],[1],[0.6166666666666667],vertical,"(890.0, 262.0)",0.6833333333333333,0.576,1,3197.225,1,0.0,0.25
0,404,target,"[(1157, 814)]",[],[1],[0.6333333333333333],vertical,"(390.0, 762.0)",0.4666666666666667,0.593,1,3202.542,2,0.0,0.25
0,405,target,"[(1158, 791)]",[],[1],[0.65],horizontal,"(390.0, 262.0)",1.0166666666666666,0.607,1,3207.843,2,0.0,0.25
0,406,target,"[(1203, 799)]",[],[1],[0.5],vertical,"(390.0, 262.0)",0.4666666666666667,0.458,1,3213.293,2,0.0,0.25
0,407,catch,"[(1156, 812)]",[],[1],[],vertical,"(890.0, 762.0)",1.7,nan,1,3217.975,2,0.0,0.25
0,408,catch,"[(1183, 805)]",[],[1],[],vertical,"(890.0, 262.0)",1.7,nan,1,3224.07,3,0.0,0.25
0,409,target,"[(1159, 796)]",[],[1],[0.55],horizontal,"(390.0, 262.0)",0.8833333333333333,0.506,1,3230.388,3,0.0,0.25
0,410,target,"[(1158, 796)]",[],[1],[0.7666666666666666],horizontal,"(390.0, 262.0)",1.0833333333333333,0.716,1,3235.692,3,0.0,0.25
0,411,catch,"[(1155, 795)]",[],[1],[],vertical,"(890.0, 262.0)",1.7,nan,1,3241.489,3,0.0,0.25
0,412,target,"[(1156, 800)]",[],[1],[0.4666666666666667],horizontal,"(890.0, 262.0)",0.75,0.425,1,3247.558,3,0.0,0.25
0,413,target,"[(1160, 803)]",[],[1],[0.55],horizontal,"(890.0, 262.0)",1.2666666666666666,0.507,1,3253.51,3,0.0,0.25
0,414,catch,"[(1171, 797)]",[],[1],[],horizontal,"(890.0, 262.0)",1.7,nan,1,3259.917,3,0.0,0.25
0,415,target,"[(1156, 791)]",[],[1],[0.5166666666666666],horizontal,"(890.0, 262.0)",1.4166666666666667,0.473,1,3266.09,3,0.0,0.25
0,416,catch,"[(1169, 793)]",[],[1],[],vertical,"(390.0, 262.0)",,"('cti', 1.464),nan",0,3272.147,0,0.02,0.25
0,417,catch,"[(1169, 799)]",[],[1],[],horizontal,"(890.0, 762.0)",1.7,nan,1,3276.975,1,0.02,0.25
0,418,target,"[(1157, 819)]",[],[1],[0.6],vertical,"(390.0, 762.0)",0.7666666666666666,0.556,1,3282.679,1,0.02,0.25
0,419,target,"[(1170, 799)]",[],[1],[0.6333333333333333],vertical,"(890.0, 262.0)",0.8666666666666667,0.601,1,3287.962,1,0.02,0.25
0,420,target,"[(1158, 828)]",[],[1],[0.5833333333333334],vertical,"(390.0, 762.0)",0.75,0.537,1,3293.055,2,0.02,0.25
0,421,target,"[(1157, 787)]",[],[1],[0.5333333333333333],horizontal,"(390.0, 762.0)",1.1833333333333333,0.495,1,3299.043,2,0.02,0.25
0,422,target,"[(1157, 793)]",[],[1],[0.75],vertical,"(390.0, 762.0)",0.45,0.697,1,3304.591,2,0.02,0.25
0,423,target,"[(1162, 806)]",[],[1],[0.6666666666666666],horizontal,"(890.0, 262.0)",0.6833333333333333,0.627,1,3309.37,2,0.02,0.25
0,424,catch,"[(1160, 799)]",[],[1],[],horizontal,"(390.0, 762.0)",1.7,nan,1,3314.942,3,0.02,0.25
0,425,catch,"[(1157, 792)]",[],[1],[],vertical,"(390.0, 762.0)",1.7,nan,1,3321.268,3,0.02,0.25
0,426,catch,"[(1163, 797)]",[],[1],[],horizontal,"(390.0, 762.0)",1.7,nan,1,3327.025,3,0.02,0.25
0,427,catch,"[(1146, 787)]",[],[1],[],horizontal,"(390.0, 262.0)",1.7,nan,1,3333.39,3,0.02,0.25
0,428,catch,"[(1145, 782)]",[],[1],[],vertical,"(890.0, 762.0)",1.7,nan,1,3339.756,3,0.02,0.25
0,429,target,"[(1168, 809)]",[],[1],[0.7333333333333333],vertical,"(390.0, 762.0)",1.0666666666666667,0.685,1,3345.404,3,0.02,0.25
0,430,target,"[(1173, 790)]",[],[1],[0.45],vertical,"(890.0, 762.0)",1.5166666666666666,0.41,1,3351.704,3,0.02,0.25
0,431,target,"[(1179, 806)]",[],[1],[0.5833333333333334],vertical,"(890.0, 262.0)",1.25,0.535,1,3357.775,3,0.02,0.25
0,432,target,"[(1170, 786)]",[],[1],[0.5166666666666666],vertical,"(890.0, 262.0)",1.4,0.473,1,3363.63,3,0.02,0.25
0,433,target,"[(1157, 786)]",[],[1],[0.48333333333333334],vertical,"(890.0, 762.0)",1.3166666666666667,0.442,1,3369.777,3,0.02,0.25
0,434,catch,"[(1156, 793)]",[],[1],[],vertical,"(890.0, 262.0)",1.7,nan,1,3375.926,3,0.02,0.25
0,435,target,"[(1175, 789)]",[],[1],[],vertical,"(890.0, 262.0)",,"('cti', 1.468)",0,3381.691,0,0.04,0.25
0,436,target,"[(1143, 803)]",[],[1],[0.6166666666666667],horizontal,"(390.0, 762.0)",0.5833333333333334,0.57,1,3386.468,1,0.04,0.25
0,437,target,"[(1141, 778)]",[],[1],[0.6333333333333333],vertical,"(890.0, 762.0)",1.3166666666666667,0.588,1,3391.76,1,0.04,0.25
0,438,catch,"[(1158, 802)]",[],[1],[],horizontal,"(390.0, 262.0)",1.7,nan,1,3396.794,1,0.04,0.25
0,439,target,"[(1165, 799)]",[],[1],[0.6333333333333333],vertical,"(890.0, 762.0)",1.3833333333333333,0.59,1,3401.976,2,0.04,0.25
0,440,target,"[(1160, 789)]",[],[1],[0.7833333333333333],vertical,"(890.0, 762.0)",1.1,0.737,1,3408.371,2,0.04,0.25
0,441,catch,"[(1165, 810)]",[],[1],[],vertical,"(390.0, 762.0)",1.7,nan,1,3413.993,2,0.04,0.25
0,442,catch,"[(1180, 790)]",[],[1],[],vertical,"(890.0, 762.0)",1.7,nan,1,3419.909,2,0.04,0.25
0,443,target,"[(1137, 828)]",[],[1],[0.6833333333333333],vertical,"(390.0, 762.0)",0.6,0.633,1,3425.109,3,0.04,0.25
0,444,target,"[(1180, 812)]",[],[1],[0.55],horizontal,"(890.0, 762.0)",0.9333333333333333,0.507,1,3430.943,3,0.04,0.25
0,445,catch,"[(1177, 802)]",[],[1],[],vertical,"(890.0, 262.0)",1.7,nan,1,3436.697,3,0.04,0.25
0,446,catch,"[(1146, 801)]",[],[1],[],vertical,"(890.0, 262.0)",,"('cti', 1.537),nan",0,3442.726,0,0.06,0.25
0,447,target,"[(1136, 816)]",[],[1],[0.55],vertical,"(390.0, 762.0)",0.8666666666666667,0.502,1,3447.663,1,0.06,0.25
0,448,target,"[(1158, 809)]",[],[1],[0.06666666666666667],horizontal,"(390.0, 262.0)",1.45,0.036,0,3452.874,0,0.06,0.25
0,449,target,"[(1105, 830)]",[],[1],[0.85],vertical,"(390.0, 262.0)",1.0666666666666667,nan,0,3457.761,0,0.06,0.25
0,450,catch,"[(1126, 833)]",[],[1],[],vertical,"(390.0, 762.0)",1.7,nan,1,3570.408,1,0.06,0.25
0,451,target,"[(1155, 815)]",[],[1],[0.85],vertical,"(890.0, 262.0)",0.4,nan,0,3577.478,0,0.06,0.25
0,452,target,"[(1158, 842)]",[],[1],[0.6166666666666667],vertical,"(390.0, 262.0)",1.3,0.571,1,3582.045,1,0.06,0.25
0,453,target,"[(1156, 811)]",[],[1],[0.6333333333333333],horizontal,"(390.0, 762.0)",1.0166666666666666,0.596,1,3587.484,1,0.06,0.25
0,454,target,"[(1131, 803)]",[],[1],[0.7333333333333333],horizontal,"(390.0, 262.0)",1.45,0.692,1,3592.776,1,0.06,0.25
0,455,target,"[(1165, 811)]",[],[1],[0.85],horizontal,"(390.0, 262.0)",0.36666666666666664,nan,0,3598.127,0,0.06,0.25
0,456,target,"[(1160, 825)]","[(1146, 855)]",[1],[0.26666666666666666],vertical,"(890.0, 762.0)",,"('bar', 0.278)",0,3602.212,0,0.06,0.25
0,457,target,"[(1176, 816)]",[],[1],[0.85],vertical,"(390.0, 262.0)",1.0666666666666667,nan,0,3605.888,0,0.06,0.25
0,458,catch,"[(1092, 806)]",[],[1],[],horizontal,"(390.0, 762.0)",1.7,nan,1,3610.852,1,0.06,0.25
0,459,target,"[(1156, 823)]",[],[1],[0.85],horizontal,"(390.0, 262.0)",0.36666666666666664,nan,0,3616.232,0,0.06,0.25
0,460,target,"[(1136, 831)]",[],[1],[0.5666666666666667],horizontal,"(390.0, 762.0)",0.36666666666666664,0.522,1,3621.314,1,0.06,0.25
0,461,target,"[(1091, 800)]",[],[1],[0.85],vertical,"(890.0, 762.0)",0.4,nan,0,3627.296,0,0.06,0.25
0,462,target,"[(1160, 777)]",[],[1],[0.85],vertical,"(890.0, 762.0)",0.9666666666666667,nan,0,3632.011,0,0.06,0.25
0,463,target,"[(1131, 810)]",[],[1],[0.6],horizontal,"(390.0, 262.0)",0.9,0.561,1,3636.616,1,0.06,0.25
0,464,target,"[(1156, 801)]",[],[1],[0.85],horizontal,"(390.0, 262.0)",1.05,nan,0,3641.98,0,0.06,0.25
0,465,target,"[(1139, 803)]",[],[1],[0.85],vertical,"(390.0, 762.0)",1.2333333333333334,nan,0,3646.886,0,0.06,0.25
0,466,catch,"[(1113, 808)]",[],[1],[],horizontal,"(390.0, 762.0)",1.7,nan,1,3651.63,1,0.04,0.25
0,467,target,"[(1157, 811)]",[],[1],[0.85],vertical,"(890.0, 762.0)",0.5333333333333333,nan,0,3657.604,0,0.04,0.25
0,468,target,"[(1172, 808)]",[],[1],[0.85],vertical,"(890.0, 262.0)",0.7333333333333333,nan,0,3661.845,0,0.04,0.25
0,469,target,"[(1101, 819)]",[],[1],[0.85],vertical,"(390.0, 262.0)",0.8666666666666667,nan,0,3666.617,0,0.04,0.25
0,470,target,"[(1111, 815)]",[],[1],[0.55],vertical,"(890.0, 262.0)",0.7166666666666667,0.505,1,3673.128,1,0.04,0.25
0,471,target,"[(1165, 815)]",[],[1],[0.5333333333333333],horizontal,"(890.0, 762.0)",0.4666666666666667,0.491,1,3681.017,1,0.04,0.25
0,472,target,"[(1121, 790)]",[],[1],[0.7166666666666667],horizontal,"(390.0, 762.0)",0.9166666666666666,0.67,1,3685.839,1,0.04,0.25
0,473,target,"[(1209, 807)]",[],[1],[0.85],horizontal,"(390.0, 262.0)",0.6333333333333333,nan,0,3691.018,0,0.04,0.25
0,474,catch,"[(1130, 802)]",[],[1],[],vertical,"(390.0, 262.0)",1.7,nan,1,3695.545,1,0.04,0.25
0,475,target,"[(1165, 785)]",[],[1],[0.85],horizontal,"(390.0, 762.0)",1.0166666666666666,nan,0,3702.003,0,0.04,0.25
0,476,target,"[(1160, 798)]",[],[1],[],vertical,"(390.0, 262.0)",,"('cti', 0.23)",0,3706.645,0,0.06,0.25
0,477,target,"[(1180, 807)]",[],[1],[0.6333333333333333],horizontal,"(890.0, 762.0)",0.8,0.586,1,3710.314,1,0.06,0.25
0,478,target,"[(1165, 794)]","[(1093, 872)]",[1],[0.8666666666666667],vertical,"(390.0, 262.0)",,"('bar', 0.866)",0,3715.038,0,0.06,0.25
0,479,catch,"[(1165, 779)]",[],[1],[],horizontal,"(890.0, 762.0)",1.7,nan,1,3718.224,1,0.06,0.25
0,480,target,"[(1178, 783)]",[],[1],[],vertical,"(890.0, 262.0)",,"('cti', 0.324)",0,3725.044,0,0.08,0.25
0,481,target,"[(1159, 803)]",[],[1],[0.5833333333333334],horizontal,"(390.0, 762.0)",0.48333333333333334,0.541,1,3728.494,1,0.08,0.25
0,482,target,"[(1200, 776)]","[(1163, 835)]",[1],[0.5666666666666667],vertical,"(890.0, 762.0)",,"('bar', 0.573)",0,3732.794,0,0.08,0.25
0,483,target,"[(1142, 795)]",[],[1],[0.3833333333333333],vertical,"(390.0, 762.0)",1.3,0.348,1,3735.404,1,0.08,0.25
0,484,target,"[(1159, 799)]","[(1153, 836)]",[1],[0.45],horizontal,"(890.0, 762.0)",,"('bar', 0.458)",0,3740.69,0,0.08,0.25
0,485,target,"[(1161, 809)]",[],[1],[0.35],vertical,"(890.0, 762.0)",1.35,0.317,1,3743.428,1,0.06,0.25
0,486,target,"[(1158, 820)]",[],[1],[0.5],vertical,"(890.0, 262.0)",0.8,0.458,1,3748.418,1,0.06,0.25
0,487,target,"[(1157, 816)]",[],[1],[],horizontal,"(390.0, 262.0)",,"('cti', 0.781)",0,3753.245,0,0.08,0.25
0,488,target,"[(1136, 775)]",[],[1],[0.26666666666666666],horizontal,"(890.0, 762.0)",0.9166666666666666,0.228,1,3756.812,1,0.08,0.25
0,489,target,"[(1193, 807)]","[(1171, 830)]",[1],[0.6166666666666667],horizontal,"(390.0, 262.0)",,"('bar', 0.623)",0,3762.004,0,0.08,0.25
0,490,catch,"[(1164, 830)]",[],[1],[],vertical,"(390.0, 762.0)",1.7,nan,1,3764.744,1,0.08,0.25
0,491,catch,"[(1156, 794)]","[(1155, 839)]",[1],[0.6166666666666667],horizontal,"(390.0, 262.0)",,"('bar', 0.618),nan",0,3770.727,0,0.1,0.25
0,492,catch,"[(1160, 774)]",[],[1],[],horizontal,"(390.0, 262.0)",1.7,nan,1,3773.611,1,0.1,0.25
0,493,target,"[(1157, 779)]",[],[1],[0.23333333333333334],vertical,"(890.0, 762.0)",1.5,0.199,0,3779.018,0,0.1,0.25
0,494,target,"[(1160, 790)]",[],[1],[0.31666666666666665],vertical,"(390.0, 262.0)",1.4333333333333333,0.275,1,3783.718,1,0.1,0.25
0,495,catch,"[(1166, 791)]","[(1087, 857)]",[1],[0.65],vertical,"(390.0, 262.0)",,"('bar', 0.655),nan",0,3789.077,0,0.12,0.25
0,496,target,"[(1184, 795)]",[],[1],[0.4],horizontal,"(890.0, 262.0)",1.5333333333333332,0.368,1,3791.944,1,0.1,0.25
0,497,target,"[(1170, 787)]",[],[1],[0.5333333333333333],horizontal,"(390.0, 762.0)",0.5333333333333333,0.488,1,3797.162,1,0.1,0.25
0,498,target,"[(1170, 802)]",[],[1],[0.23333333333333334],horizontal,"(890.0, 762.0)",1.4833333333333334,0.196,0,3801.874,0,0.1,0.25
0,499,target,"[(1160, 783)]",[],[1],[0.5666666666666667],vertical,"(890.0, 762.0)",1.1333333333333333,0.52,1,3806.651,1,0.1,0.25
0,500,target,"[(1155, 808)]",[],[1],[0.55],vertical,"(390.0, 762.0)",0.48333333333333334,0.507,1,3812.194,1,0.1,0.25
0,501,catch,"[(1160, 803)]",[],[1],[],vertical,"(390.0, 762.0)",1.7,nan,1,3817.029,1,0.1,0.25
0,502,target,"[(1172, 802)]",[],[1],[0.35],horizontal,"(890.0, 762.0)",1.5333333333333332,0.312,1,3822.395,2,0.1,0.25
0,503,target,"[(1161, 791)]",[],[1],[0.5333333333333333],horizontal,"(390.0, 262.0)",1.3833333333333333,0.493,1,3828.177,2,0.1,0.25
0,504,target,"[(1165, 795)]","[(1089, 850)]",[1],[0.85],horizontal,"(890.0, 762.0)",,"('bar', 0.847)",0,3833.645,0,0.1,0.25
0,505,target,"[(1160, 802)]",[],[1],[0.55],horizontal,"(390.0, 262.0)",1.2833333333333332,0.506,1,3836.579,1,0.1,0.25
0,506,target,"[(1165, 768)]",[],[1],[0.7],vertical,"(890.0, 262.0)",0.6833333333333333,0.651,1,3841.877,1,0.1,0.25
0,507,target,"[(1175, 803)]",[],[1],[0.48333333333333334],vertical,"(890.0, 762.0)",0.8166666666666667,0.439,1,3846.285,1,0.1,0.25
0,508,catch,"[(1166, 811)]",[],[1],[],horizontal,"(890.0, 262.0)",1.7,nan,1,3851.411,2,0.1,0.25
0,509,target,"[(1180, 798)]",[],[1],[0.5],vertical,"(390.0, 262.0)",0.6166666666666667,0.46,1,3856.952,2,0.1,0.25
0,510,catch,"[(1176, 778)]",[],[1],[],horizontal,"(890.0, 762.0)",,"('cti', 1.537),nan",0,3861.795,0,0.12,0.25
0,511,catch,"[(1172, 797)]",[],[1],[],horizontal,"(890.0, 262.0)",1.7,nan,1,3866.494,1,0.12,0.25
0,512,target,"[(1175, 798)]",[],[1],[0.85],horizontal,"(890.0, 762.0)",0.4666666666666667,nan,0,3871.829,0,0.12,0.25
0,513,target,"[(1140, 798)]",[],[1],[0.5166666666666666],vertical,"(890.0, 262.0)",1.1166666666666667,0.473,1,3876.412,1,0.12,0.25
0,514,target,"[(1205, 799)]",[],[1],[0.5166666666666666],horizontal,"(390.0, 262.0)",0.7166666666666667,0.473,1,3881.362,1,0.12,0.25
0,515,target,"[(1179, 774)]",[],[1],[0.48333333333333334],vertical,"(890.0, 762.0)",0.9833333333333333,0.45,1,3885.829,1,0.12,0.25
0,516,target,"[(1167, 806)]","[(1127, 844)]",[1],[0.45],horizontal,"(890.0, 762.0)",,"('bar', 0.461)",0,3890.762,0,0.12,0.25
0,517,target,"[(1165, 802)]",[],[1],[0.55],vertical,"(390.0, 762.0)",0.65,0.512,1,3893.545,1,0.12,0.25
0,518,target,"[(1159, 803)]",[],[1],[0.5],vertical,"(890.0, 262.0)",0.9666666666666667,0.455,1,3898.376,1,0.12,0.25
0,519,target,"[(1150, 799)]",[],[1],[0.55],vertical,"(890.0, 762.0)",1.4,0.508,1,3903.166,1,0.12,0.25
0,520,target,"[(1168, 798)]",[],[1],[0.5833333333333334],vertical,"(390.0, 262.0)",0.5333333333333333,0.543,1,3908.338,2,0.12,0.25
0,521,catch,"[(1175, 778)]",[],[1],[],horizontal,"(390.0, 762.0)",1.7,nan,1,3913.639,2,0.12,0.25
0,522,target,"[(1158, 797)]",[],[1],[0.5666666666666667],horizontal,"(390.0, 262.0)",1.4666666666666666,0.529,1,3919.556,2,0.12,0.25
0,523,target,"[(1158, 800)]",[],[1],[0.6333333333333333],vertical,"(890.0, 262.0)",1.3,0.585,1,3925.372,2,0.12,0.25
0,524,target,"[(1169, 803)]",[],[1],[0.5],vertical,"(890.0, 262.0)",1.45,0.462,1,3931.377,3,0.12,0.25
0,525,target,"[(1180, 779)]",[],[1],[0.5833333333333334],horizontal,"(890.0, 762.0)",1.1333333333333333,0.543,1,3937.714,3,0.12,0.25
0,526,target,"[(1174, 777)]",[],[1],[0.5333333333333333],vertical,"(890.0, 762.0)",0.5166666666666666,0.488,1,3943.594,3,0.1,0.25
0,527,catch,"[(1166, 785)]",[],[1],[],horizontal,"(390.0, 762.0)",1.7,nan,1,3948.811,3,0.1,0.25
0,528,catch,"[(1174, 793)]",[],[1],[],horizontal,"(890.0, 762.0)",1.7,nan,1,3954.512,3,0.1,0.25
0,529,target,"[(1180, 799)]",[],[1],[0.5666666666666667],horizontal,"(390.0, 762.0)",0.9833333333333333,0.522,1,3960.504,3,0.1,0.25
0,530,target,"[(1175, 793)]",[],[1],[0.5833333333333334],vertical,"(890.0, 262.0)",1.0,0.537,1,3965.75,3,0.08,0.25
0,531,catch,"[(1164, 784)]",[],[1],[],vertical,"(890.0, 262.0)",,"('cti', 1.587),nan",0,3971.853,0,0.1,0.25
0,532,target,"[(1160, 793)]",[],[1],[0.65],vertical,"(390.0, 262.0)",0.45,0.609,1,3976.756,1,0.1,0.25
0,533,catch,"[(1172, 784)]",[],[1],[],horizontal,"(890.0, 262.0)",1.7,nan,1,3981.046,1,0.1,0.25
0,534,catch,"[(1175, 796)]",[],[1],[],horizontal,"(890.0, 262.0)",,"('cti', 1.601),nan",0,3986.445,0,0.12,0.25
0,535,catch,"[(1167, 785)]",[],[1],[],vertical,"(890.0, 762.0)",1.7,nan,1,3991.173,1,0.12,0.25
0,536,target,"[(1180, 799)]",[],[1],[0.55],vertical,"(890.0, 762.0)",0.5,0.503,1,3996.745,1,0.12,0.25
0,537,target,"[(1178, 799)]",[],[1],[0.6],vertical,"(890.0, 762.0)",1.3333333333333333,0.557,1,4001.046,1,0.1,0.25
0,538,target,"[(1170, 803)]",[],[1],[0.6166666666666667],horizontal,"(390.0, 262.0)",0.5,0.576,1,4005.962,2,0.1,0.25
0,539,catch,"[(1164, 781)]",[],[1],[],horizontal,"(390.0, 262.0)",1.7,nan,1,4010.976,2,0.1,0.25
0,540,catch,"[(1161, 765)]",[],[1],[],horizontal,"(390.0, 262.0)",1.7,nan,1,4016.352,2,0.1,0.25
0,541,catch,"[(1174, 800)]","[(1084, 872)]",[1],[0.7166666666666667],horizontal,"(890.0, 762.0)",,"('bar', 0.715),nan",0,4021.961,0,0.1,0.25
0,542,catch,"[(1131, 800)]",[],[1],[],horizontal,"(390.0, 762.0)",1.7,nan,1,4025.023,1,0.1,0.25
0,543,catch,"[(1174, 783)]",[],[1],[],horizontal,"(390.0, 262.0)",1.7,nan,1,4030.48,1,0.1,0.25
0,544,target,"[(1177, 775)]",[],[1],[0.36666666666666664],horizontal,"(390.0, 262.0)",1.5333333333333332,0.325,1,4035.746,1,0.1,0.25
0,545,target,"[(1185, 798)]",[],[1],[0.4666666666666667],vertical,"(390.0, 262.0)",0.8833333333333333,0.424,1,4041.18,2,0.08,0.25
0,546,target,"[(1175, 785)]","[(1097, 856)]",[1],[0.5166666666666666],horizontal,"(890.0, 262.0)",,"('bar', 0.527)",0,4046.632,0,0.08,0.25
0,547,target,"[(1141, 790)]",[],[1],[0.31666666666666665],vertical,"(390.0, 762.0)",1.4166666666666667,0.282,1,4049.188,1,0.08,0.25
0,548,target,"[(1170, 793)]",[],[1],[0.3833333333333333],horizontal,"(890.0, 262.0)",1.3333333333333333,0.346,1,4054.311,1,0.08,0.25
0,549,target,"[(1170, 786)]",[],[1],[0.5333333333333333],vertical,"(890.0, 762.0)",1.25,0.493,1,4059.378,1,0.08,0.25
0,550,target,"[(1151, 779)]",[],[1],[0.5333333333333333],vertical,"(390.0, 762.0)",0.7166666666666667,0.495,1,4065.104,2,0.08,0.25
0,551,catch,"[(1156, 802)]",[],[1],[],horizontal,"(390.0, 762.0)",1.7,nan,1,4070.52,2,0.08,0.25
0,552,catch,"[(1175, 803)]",[],[1],[],horizontal,"(890.0, 262.0)",1.7,nan,1,4075.928,2,0.08,0.25
0,553,catch,"[(1170, 795)]",[],[1],[],vertical,"(890.0, 762.0)",,"('cti', 1.641),nan",0,4081.828,0,0.1,0.25
0,554,target,"[(1155, 795)]",[],[1],[0.5833333333333334],horizontal,"(390.0, 762.0)",0.7833333333333333,0.537,1,4087.078,1,0.1,0.25
0,555,target,"[(1169, 775)]",[],[1],[0.5333333333333333],vertical,"(890.0, 262.0)",0.5666666666666667,0.491,1,4091.895,1,0.1,0.25
0,556,catch,"[(1169, 787)]",[],[1],[],horizontal,"(390.0, 762.0)",1.7,nan,1,4096.412,1,0.1,0.25
0,557,target,"[(1162, 792)]","[(1104, 864)]",[1],[0.43333333333333335],horizontal,"(390.0, 762.0)",,"('bar', 0.449)",0,4101.995,0,0.1,0.25
0,558,target,"[(1133, 832)]",[],[1],[0.6],horizontal,"(890.0, 762.0)",0.6166666666666667,0.553,1,4104.715,1,0.1,0.25
0,559,catch,"[(1150, 793)]",[],[1],[],vertical,"(890.0, 262.0)",1.7,nan,1,4115.011,1,0.1,0.25
0,560,target,"[(1176, 808)]","[(1156, 830)]",[1],[0.06666666666666667],vertical,"(890.0, 762.0)",,"('bar', 0.084)",0,4120.626,0,0.08,0.25
0,561,catch,"[(1129, 819)]",[],[1],[],horizontal,"(890.0, 262.0)",,"('cti', 1.436),nan",0,4122.786,0,0.1,0.25
0,562,target,"[(1171, 783)]",[],[1],[0.5333333333333333],vertical,"(390.0, 262.0)",1.0,0.506,1,4127.798,1,0.1,0.25
0,563,target,"[(1175, 770)]","[(1091, 851)]",[1],[0.6166666666666667],horizontal,"(890.0, 262.0)",,"('bar', 0.619)",0,4132.488,0,0.1,0.25
0,564,catch,"[(1122, 818)]",[],[1],[],vertical,"(890.0, 762.0)",1.7,nan,1,4135.248,1,0.1,0.25
0,565,target,"[(1155, 797)]",[],[1],[0.4666666666666667],horizontal,"(390.0, 262.0)",0.4166666666666667,0.429,1,5367.648,1,0.1,0.25
0,566,catch,"[(1136, 808)]",[],[1],[],vertical,"(890.0, 262.0)",,"('cti', 1.653),nan",0,5372.569,0,0.12,0.25
0,567,target,"[(1149, 775)]",[],[1],[0.5333333333333333],vertical,"(390.0, 262.0)",0.8,0.491,1,5378.15,1,0.12,0.25
0,568,target,"[(1147, 806)]",[],[1],[0.21666666666666667],vertical,"(890.0, 762.0)",1.4833333333333334,0.182,0,5383.323,0,0.12,0.25
0,569,target,"[(1155, 808)]",[],[1],[0.5833333333333334],vertical,"(890.0, 762.0)",0.9333333333333333,0.545,1,5387.908,1,0.12,0.25
0,570,target,"[(1154, 805)]",[],[1],[0.55],vertical,"(390.0, 762.0)",0.6666666666666666,0.504,1,5392.766,1,0.12,0.25
0,571,catch,"[(1156, 772)]",[],[1],[],vertical,"(390.0, 262.0)",,"('cti', 1.677),nan",0,5397.262,0,0.14,0.25
0,572,target,"[(1170, 804)]",[],[1],[0.5333333333333333],vertical,"(890.0, 762.0)",1.45,0.492,1,5402.082,1,0.14,0.25
0,573,target,"[(1175, 791)]",[],[1],[0.48333333333333334],vertical,"(890.0, 262.0)",1.05,0.443,1,5407.25,1,0.14,0.25
0,574,target,"[(1159, 798)]",[],[1],[],horizontal,"(890.0, 262.0)",,"('cti', 1.394)",0,5412.028,0,0.16,0.25
0,575,target,"[(1155, 794)]",[],[1],[0.5666666666666667],horizontal,"(390.0, 262.0)",0.9333333333333333,0.529,1,5416.669,1,0.16,0.25
0,576,catch,"[(1173, 793)]",[],[1],[],horizontal,"(890.0, 262.0)",1.7,nan,1,5421.832,1,0.16,0.25
0,577,catch,"[(1156, 795)]",[],[1],[],horizontal,"(890.0, 262.0)",1.7,nan,1,5427.301,1,0.16,0.25
0,578,target,"[(1159, 771)]",[],[1],[0.5166666666666666],vertical,"(890.0, 262.0)",1.1333333333333333,0.475,1,5432.784,2,0.16,0.25
0,579,target,"[(1156, 771)]",[],[1],[0.5],vertical,"(890.0, 262.0)",1.1333333333333333,0.46,1,5438.484,2,0.16,0.25
0,580,catch,"[(1177, 778)]",[],[1],[],horizontal,"(890.0, 262.0)",1.7,nan,1,5444.295,2,0.16,0.25
0,581,target,"[(1166, 800)]",[],[1],[0.6],vertical,"(890.0, 262.0)",0.5166666666666666,0.562,1,5449.993,2,0.14,0.25
0,582,target,"[(1175, 798)]",[],[1],[0.55],vertical,"(390.0, 262.0)",1.2,0.511,1,5455.136,3,0.14,0.25
0,583,target,"[(1176, 794)]",[],[1],[0.5833333333333334],vertical,"(390.0, 762.0)",0.85,0.539,1,5461.334,3,0.14,0.25
0,584,target,"[(1160, 778)]",[],[1],[0.43333333333333335],vertical,"(390.0, 262.0)",1.4833333333333334,0.394,1,5466.602,3,0.12,0.25
0,585,target,"[(1155, 803)]",[],[1],[0.6],vertical,"(390.0, 762.0)",1.1666666666666667,0.551,1,5472.782,3,0.12,0.25
0,586,target,"[(1154, 791)]",[],[1],[0.5333333333333333],horizontal,"(890.0, 262.0)",0.6333333333333333,0.497,1,5478.502,3,0.12,0.25
0,587,target,"[(1154, 779)]",[],[1],[0.26666666666666666],horizontal,"(390.0, 762.0)",1.4166666666666667,0.234,1,5483.634,3,0.12,0.25
0,588,target,"[(1174, 784)]",[],[1],[0.6666666666666666],vertical,"(890.0, 762.0)",1.2833333333333332,0.623,1,5489.784,3,0.12,0.25
0,589,target,"[(1175, 804)]",[],[1],[0.4666666666666667],vertical,"(390.0, 762.0)",1.3666666666666667,0.429,1,5495.684,3,0.12,0.25
0,590,target,"[(1165, 788)]",[],[1],[0.5166666666666666],vertical,"(390.0, 762.0)",0.36666666666666664,0.476,1,5502.051,3,0.12,0.25
0,591,catch,"[(1156, 783)]",[],[1],[],vertical,"(890.0, 262.0)",1.7,nan,1,5506.952,3,0.1,0.25
0,592,target,"[(1158, 770)]",[],[1],[0.6],horizontal,"(890.0, 762.0)",0.8333333333333334,0.561,1,5512.801,3,0.1,0.25
0,593,target,"[(1148, 779)]",[],[1],[0.6166666666666667],horizontal,"(390.0, 262.0)",0.8166666666666667,0.575,1,5518.052,3,0.1,0.25
0,594,target,"[(1160, 784)]",[],[1],[0.5166666666666666],vertical,"(890.0, 762.0)",0.9833333333333333,0.473,1,5523.419,3,0.1,0.25
0,595,target,"[(1169, 782)]",[],[1],[0.48333333333333334],horizontal,"(890.0, 762.0)",0.6,0.447,1,5528.755,3,0.1,0.25
0,596,target,"[(1159, 795)]",[],[1],[0.5333333333333333],vertical,"(390.0, 262.0)",1.1166666666666667,0.489,1,5534.258,3,0.1,0.25
0,597,target,"[(1155, 781)]",[],[1],[0.4666666666666667],vertical,"(390.0, 262.0)",1.2166666666666666,0.43,1,5540.134,3,0.1,0.25
0,598,target,"[(1160, 749), (1131, 813)]",[],"[0, 1]",[0.5333333333333333],horizontal,"(390.0, 762.0)",0.7833333333333333,0.493,1,5545.81,3,0.1,0.25
0,599,target,"[(1171, 808)]",[],[1],[0.85],horizontal,"(890.0, 262.0)",0.45,nan,0,5552.85,0,0.1,0.25
0,600,target,"[(1159, 795)]",[],[1],[0.5],vertical,"(390.0, 262.0)",0.4,0.457,1,5556.702,1,0.1,0.25
0,601,target,"[(1158, 803)]",[],[1],[0.05],horizontal,"(390.0, 262.0)",1.4333333333333333,0.02,0,5560.75,0,0.1,0.25
0,602,target,"[(1158, 802)]",[],[1],[0.6833333333333333],vertical,"(390.0, 762.0)",0.5333333333333333,0.641,1,5565.435,1,0.1,0.25
0,603,target,"[(1149, 803)]",[],[1],[0.6333333333333333],horizontal,"(390.0, 762.0)",0.36666666666666664,0.589,1,5570.086,1,0.08,0.25
0,604,target,"[(1136, 793)]",[],[1],[0.55],vertical,"(890.0, 262.0)",0.5666666666666667,0.51,1,5575.088,1,0.08,0.25
0,605,target,"[(1164, 757)]",[],[1],[0.6],vertical,"(390.0, 762.0)",1.3333333333333333,0.559,1,5579.535,2,0.08,0.25
0,606,target,"[(1160, 772)]",[],[1],[0.5],vertical,"(390.0, 762.0)",1.4,0.454,1,5585.035,2,0.08,0.25
0,607,target,"[(1166, 802)]",[],[1],[0.5833333333333334],horizontal,"(390.0, 762.0)",0.9166666666666666,0.539,1,5590.701,2,0.08,0.25
0,608,target,"[(1161, 788)]",[],[1],[0.7333333333333333],vertical,"(390.0, 262.0)",1.0,0.69,1,5596.151,2,0.08,0.25
0,609,target,"[(1165, 794)]",[],[1],[0.5833333333333334],vertical,"(890.0, 262.0)",0.5166666666666666,0.54,1,5601.648,3,0.08,0.25
0,610,target,"[(1172, 787)]",[],[1],[0.85],vertical,"(390.0, 762.0)",0.5166666666666666,nan,0,5607.486,0,0.08,0.25
0,611,target,"[(1148, 791)]",[],[1],[0.5666666666666667],horizontal,"(390.0, 762.0)",1.1166666666666667,0.528,1,5611.538,1,0.06,0.25
0,612,target,"[(1170, 786)]",[],[1],[0.65],vertical,"(890.0, 762.0)",1.1,0.619,1,5616.886,1,0.06,0.25
0,613,catch,"[(1175, 801)]",[],[1],[],horizontal,"(890.0, 762.0)",1.7,nan,1,5622.228,1,0.06,0.25
0,614,target,"[(1175, 808)]",[],[1],[0.5333333333333333],vertical,"(890.0, 262.0)",0.7666666666666666,0.5,1,5627.662,2,0.06,0.25
0,615,target,"[(1173, 774)]",[],[1],[0.5166666666666666],vertical,"(890.0, 262.0)",1.1166666666666667,0.471,1,5632.801,2,0.06,0.25
0,616,target,"[(1171, 808)]",[],[1],[0.6],vertical,"(890.0, 762.0)",1.1833333333333333,0.563,1,5637.886,2,0.04,0.25
0,617,catch,"[(1152, 787)]",[],[1],[],vertical,"(390.0, 762.0)",1.7,nan,1,5643.936,2,0.04,0.25
0,618,target,"[(1169, 776)]",[],[1],[0.85],horizontal,"(390.0, 762.0)",0.43333333333333335,nan,0,5649.275,0,0.04,0.25
0,619,catch,"[(1141, 804)]",[],[1],[],vertical,"(890.0, 762.0)",1.7,nan,1,5653.635,1,0.04,0.25
0,620,catch,"[(1175, 793)]",[],[1],[],vertical,"(890.0, 762.0)",1.7,nan,1,5658.645,1,0.04,0.25
0,621,target,"[(1160, 767)]",[],[1],[0.6166666666666667],vertical,"(890.0, 262.0)",0.8833333333333333,0.579,1,5663.604,1,0.02,0.25
0,622,target,"[(1154, 802)]",[],[1],[0.5166666666666666],vertical,"(890.0, 262.0)",0.5333333333333333,0.479,1,5668.669,2,0.02,0.25
0,623,target,"[(1156, 766)]",[],[1],[0.5],horizontal,"(390.0, 262.0)",0.5,0.457,1,5673.353,2,0.02,0.25
0,624,target,"[(1136, 804)]",[],[1],[0.5333333333333333],horizontal,"(890.0, 762.0)",0.43333333333333335,0.493,1,5678.284,2,0.0,0.25
0,625,target,"[(1157, 794)]",[],[1],[0.5666666666666667],vertical,"(390.0, 762.0)",1.1666666666666667,0.528,1,5683.386,2,0.0,0.25
0,626,target,"[(1166, 789)]",[],[1],[0.5],horizontal,"(390.0, 262.0)",1.05,0.46,1,5689.208,3,0.0,0.25
0,627,catch,"[(1177, 773)]",[],[1],[],horizontal,"(390.0, 762.0)",1.7,nan,1,5695.326,3,0.0,0.25
0,628,target,"[(1157, 793)]",[],[1],[0.6333333333333333],horizontal,"(390.0, 762.0)",0.7166666666666667,0.59,1,5701.136,3,0.0,0.25
0,629,target,"[(1162, 792)]",[],[1],[0.6166666666666667],horizontal,"(890.0, 262.0)",0.35,0.578,1,5706.713,3,0.0,0.25
0,630,target,"[(1155, 781)]",[],[1],[0.5166666666666666],vertical,"(890.0, 762.0)",0.8833333333333333,0.48,1,5712.091,3,0.0,0.25
0,631,target,"[(1163, 798)]",[],[1],[0.85],horizontal,"(890.0, 762.0)",0.65,nan,0,5717.834,0,0.0,0.25
0,632,catch,"[(1137, 800)]",[],[1],[],vertical,"(390.0, 762.0)",1.7,nan,1,5722.453,1,0.0,0.25
0,633,target,"[(1170, 788)]",[],[1],[0.65],horizontal,"(890.0, 262.0)",0.45,0.608,1,5727.335,1,0.0,0.25
0,634,target,"[(1170, 824)]",[],[1],[0.6333333333333333],vertical,"(890.0, 762.0)",0.6833333333333333,0.591,1,5731.886,1,0.0,0.25
0,635,target,"[(1161, 794)]",[],[1],[0.4166666666666667],vertical,"(390.0, 262.0)",1.3166666666666667,0.386,1,5737.874,2,0.0,0.25
0,636,target,"[(1158, 798)]",[],[1],[0.6833333333333333],vertical,"(390.0, 262.0)",1.1333333333333333,0.646,1,5743.702,2,0.0,0.25
0,637,target,"[(1170, 799)]",[],[1],[0.5833333333333334],vertical,"(390.0, 262.0)",0.7166666666666667,0.548,1,5749.32,2,0.0,0.25
0,638,target,"[(1161, 776)]",[],[1],[0.6833333333333333],vertical,"(890.0, 262.0)",0.6333333333333333,0.639,1,5754.535,2,0.0,0.25
0,639,target,"[(1156, 791)]",[],[1],[0.43333333333333335],vertical,"(890.0, 262.0)",1.5166666666666666,0.397,1,5760.086,3,0.0,0.25
0,640,target,"[(1162, 764)]",[],[1],[0.5166666666666666],horizontal,"(390.0, 762.0)",0.9166666666666666,0.478,1,5766.535,3,0.0,0.25
0,641,target,"[(1165, 782)]",[],[1],[0.5833333333333334],vertical,"(390.0, 762.0)",0.7166666666666667,0.543,1,5771.936,3,0.0,0.25
0,642,catch,"[(1156, 783)]",[],[1],[],horizontal,"(890.0, 262.0)",1.7,nan,1,5777.498,3,0.0,0.25
0,643,target,"[(1156, 796)]",[],[1],[0.5166666666666666],horizontal,"(890.0, 262.0)",1.3,0.472,1,5783.545,3,0.0,0.25
0,644,target,"[(1159, 785)]",[],[1],[0.5],vertical,"(890.0, 262.0)",0.8666666666666667,0.461,1,5789.627,3,0.0,0.25
0,645,catch,"[(1161, 759)]",[],[1],[],horizontal,"(890.0, 262.0)",1.7,nan,1,5795.188,3,0.0,0.25
0,646,catch,"[(1156, 788)]",[],[1],[],horizontal,"(390.0, 262.0)",1.7,nan,1,5801.253,3,0.0,0.25
0,647,target,"[(1173, 784)]",[],[1],[0.6666666666666666],horizontal,"(890.0, 262.0)",1.2,0.63,1,5807.005,3,0.0,0.25
0,648,target,"[(1160, 779)]",[],[1],[0.85],vertical,"(890.0, 262.0)",0.55,nan,0,5812.77,0,0.0,0.25
0,649,catch,"[(1157, 778)]",[],[1],[],horizontal,"(890.0, 762.0)",1.7,nan,1,5817.136,1,0.0,0.25
0,650,catch,"[(1170, 793)]",[],[1],[],vertical,"(390.0, 762.0)",1.7,nan,1,5822.585,1,0.0,0.25
0,651,target,"[(1160, 782)]",[],[1],[0.85],vertical,"(390.0, 262.0)",0.7833333333333333,nan,0,5827.92,0,0.0,0.25
0,652,target,"[(1151, 780)]",[],[1],[0.5333333333333333],horizontal,"(890.0, 762.0)",1.4833333333333334,0.496,1,5832.415,1,0.0,0.25
0,653,target,"[(1151, 801)]",[],[1],[0.5833333333333334],horizontal,"(390.0, 762.0)",0.75,0.547,1,5837.837,1,0.0,0.25
0,654,target,"[(1160, 764)]",[],[1],[0.26666666666666666],vertical,"(890.0, 762.0)",1.4333333333333333,0.234,1,5842.62,1,0.0,0.25
0,655,target,"[(1175, 793)]",[],[1],[0.55],horizontal,"(390.0, 262.0)",1.4,0.508,1,5848.069,2,0.0,0.25
0,656,catch,"[(1156, 773)]",[],[1],[],vertical,"(890.0, 762.0)",1.7,nan,1,5853.467,2,0.0,0.25
0,657,target,"[(1172, 797)]",[],[1],[0.48333333333333334],horizontal,"(890.0, 262.0)",0.9333333333333333,0.446,1,5859.153,2,0.0,0.25
0,658,catch,"[(1160, 792)]",[],[1],[],horizontal,"(390.0, 262.0)",,"('cti', 1.476),nan",0,5864.52,0,0.02,0.25
0,659,target,"[(1159, 797)]",[],[1],[0.6833333333333333],vertical,"(890.0, 762.0)",1.2166666666666666,0.647,1,5869.03,1,0.02,0.25
0,660,catch,"[(1171, 798)]",[],[1],[],vertical,"(890.0, 262.0)",1.7,nan,1,5874.526,1,0.02,0.25
0,661,target,"[(1171, 794)]",[],[1],[0.6333333333333333],vertical,"(890.0, 762.0)",1.4,0.588,1,5880.258,1,0.02,0.25
0,662,catch,"[(1158, 789)]",[],[1],[],vertical,"(390.0, 262.0)",1.7,nan,1,5885.994,2,0.02,0.25
0,663,target,"[(1161, 770)]",[],[1],[0.6],horizontal,"(390.0, 762.0)",1.15,0.556,1,5891.555,2,0.02,0.25
0,664,target,"[(1131, 801)]",[],[1],[0.85],vertical,"(390.0, 762.0)",0.45,nan,0,5896.751,0,0.02,0.25
0,665,catch,"[(1130, 802)]",[],[1],[],horizontal,"(890.0, 762.0)",1.7,nan,1,5920.554,1,0.02,0.25
0,666,target,"[(1156, 794)]",[],[1],[0.75],horizontal,"(890.0, 762.0)",0.7833333333333333,0.705,1,5926.305,1,0.02,0.25
0,667,target,"[(1159, 783)]",[],[1],[0.5166666666666666],horizontal,"(890.0, 262.0)",0.3833333333333333,0.48,1,5931.343,1,0.02,0.25
0,668,target,"[(1161, 796)]",[],[1],[0.5666666666666667],vertical,"(890.0, 762.0)",1.0,0.527,1,5935.587,2,0.02,0.25
0,669,target,"[(1183, 798)]",[],[1],[0.7333333333333333],horizontal,"(890.0, 262.0)",1.05,0.69,1,5940.944,2,0.02,0.25
0,670,target,"[(1158, 777)]",[],[1],[0.5666666666666667],vertical,"(390.0, 262.0)",0.4666666666666667,0.524,1,5946.386,2,0.02,0.25
0,671,target,"[(1174, 796)]",[],[1],[0.5166666666666666],vertical,"(390.0, 262.0)",1.0,0.482,1,5951.204,2,0.02,0.25
0,672,target,"[(1160, 788)]",[],[1],[0.48333333333333334],vertical,"(890.0, 262.0)",0.5333333333333333,0.443,1,5956.805,3,0.02,0.25
0,673,target,"[(1172, 795)]",[],[1],[0.45],vertical,"(390.0, 262.0)",0.9666666666666667,0.412,1,5962.404,3,0.02,0.25
0,674,target,"[(1174, 778)]",[],[1],[0.6333333333333333],vertical,"(890.0, 762.0)",1.2833333333333332,0.594,1,5968.449,3,0.02,0.25
0,675,target,"[(1157, 782)]",[],[1],[0.5666666666666667],horizontal,"(890.0, 762.0)",1.2,0.522,1,5974.412,3,0.02,0.25
0,676,target,"[(1160, 790)]",[],[1],[0.5666666666666667],vertical,"(890.0, 262.0)",0.7666666666666666,0.531,1,5980.379,3,0.02,0.25
0,677,target,"[(1157, 769)]",[],[1],[0.45],horizontal,"(890.0, 762.0)",1.5,0.42,1,5986.153,3,0.02,0.25
0,678,target,"[(1174, 793)]",[],[1],[0.55],horizontal,"(390.0, 762.0)",0.55,0.516,1,5992.367,3,0.02,0.25
0,679,target,"[(1102, 825)]",[],[1],[0.3833333333333333],horizontal,"(390.0, 262.0)",1.4166666666666667,0.344,1,5998.008,3,0.02,0.25
0,680,catch,"[(1137, 800)]",[],[1],[],horizontal,"(390.0, 762.0)",,"('cti', 1.609),nan",0,9272.21,0,0.04,0.25
0,681,target,"[(1156, 781)]",[],[1],[0.35],horizontal,"(390.0, 262.0)",1.2666666666666666,0.315,1,10602.356,1,0.04,0.25
0,682,target,"[(1153, 773)]",[],[1],[0.5166666666666666],horizontal,"(390.0, 762.0)",1.45,0.484,1,10607.246,1,0.04,0.25
0,683,target,"[(1140, 759)]",[],[1],[0.5333333333333333],horizontal,"(390.0, 762.0)",1.0666666666666667,0.492,1,10612.538,1,0.04,0.25
0,684,target,"[(1178, 784)]",[],[1],[0.5],horizontal,"(390.0, 762.0)",1.2833333333333332,0.466,1,10617.893,2,0.04,0.25
0,685,catch,"[(1149, 765)]",[],[1],[],horizontal,"(890.0, 262.0)",1.7,nan,1,10623.503,2,0.04,0.25
0,686,target,"[(1153, 771)]",[],[1],[0.5666666666666667],vertical,"(890.0, 762.0)",1.2833333333333332,0.523,1,10629.106,2,0.04,0.25
0,687,target,"[(1187, 813)]",[],[1],[0.6333333333333333],vertical,"(890.0, 762.0)",1.0833333333333333,0.589,1,10634.771,2,0.04,0.25
0,688,target,"[(1121, 783)]",[],[1],[0.5333333333333333],vertical,"(390.0, 262.0)",0.9833333333333333,0.499,1,10640.621,3,0.04,0.25
0,689,catch,"[(1139, 795)]",[],[1],[],vertical,"(890.0, 762.0)",1.7,nan,1,10646.508,3,0.04,0.25
0,690,target,"[(1160, 786)]",[],[1],[0.5],vertical,"(390.0, 762.0)",1.0333333333333332,0.461,1,10652.359,3,0.04,0.25
0,691,target,"[(1202, 808)]",[],[1],[0.3],horizontal,"(890.0, 262.0)",1.3666666666666667,0.261,1,10658.055,3,0.04,0.25
0,692,target,"[(1189, 775)]",[],[1],[0.5166666666666666],vertical,"(890.0, 262.0)",0.4666666666666667,0.475,1,10664.405,3,0.04,0.25
0,693,target,"[(1164, 787)]",[],[1],[0.5166666666666666],horizontal,"(390.0, 762.0)",0.6,0.477,1,10669.246,3,0.04,0.25
0,694,catch,"[(1181, 789)]",[],[1],[],vertical,"(890.0, 762.0)",1.7,nan,1,10674.438,3,0.04,0.25
0,695,target,"[(1154, 795)]",[],[1],[0.5333333333333333],horizontal,"(390.0, 762.0)",1.3,0.493,1,10680.078,3,0.04,0.25
0,696,target,"[(1176, 785)]",[],[1],[0.5166666666666666],vertical,"(390.0, 262.0)",0.9,0.481,1,10685.946,3,0.04,0.25
0,697,target,"[(1153, 780)]",[],[1],[0.5166666666666666],horizontal,"(390.0, 262.0)",1.2333333333333334,0.474,1,10691.747,3,0.04,0.25
0,698,catch,"[(1155, 759)]",[],[1],[],vertical,"(390.0, 762.0)",1.7,nan,1,10697.408,3,0.04,0.25
0,699,target,"[(1178, 766)]",[],[1],[0.5166666666666666],vertical,"(390.0, 762.0)",0.8166666666666667,0.481,1,10703.188,3,0.04,0.25
0,700,catch,"[(1152, 772)]",[],[1],[],horizontal,"(890.0, 262.0)",1.7,nan,1,10708.523,3,0.04,0.25
0,701,catch,"[(1166, 766)]",[],[1],[],horizontal,"(890.0, 262.0)",1.7,nan,1,10714.881,3,0.04,0.25
0,702,catch,"[(1179, 783)]",[],[1],[],vertical,"(390.0, 762.0)",1.7,nan,1,10721.08,3,0.04,0.25
0,703,target,"[(1159, 780)]",[],[1],[0.6],horizontal,"(390.0, 262.0)",0.8833333333333333,0.563,1,10726.987,3,0.04,0.25
0,704,target,"[(1165, 772)]",[],[1],[0.85],horizontal,"(390.0, 762.0)",0.3833333333333333,nan,0,10732.57,0,0.04,0.25
0,705,target,"[(1159, 797)]",[],[1],[0.6166666666666667],vertical,"(890.0, 262.0)",0.5666666666666667,0.573,1,10736.724,1,0.04,0.25
0,706,target,"[(1200, 778)]",[],[1],[0.6333333333333333],horizontal,"(890.0, 262.0)",0.6166666666666667,0.593,1,10741.189,1,0.04,0.25
0,707,catch,"[(1156, 772)]",[],[1],[],horizontal,"(390.0, 762.0)",1.7,nan,1,10745.678,1,0.04,0.25
0,708,target,"[(1159, 805)]",[],[1],[0.5],vertical,"(390.0, 262.0)",0.55,0.462,1,10750.789,2,0.02,0.25
0,709,catch,"[(1177, 790)]",[],[1],[],horizontal,"(390.0, 262.0)",,"('cti', 1.626),nan",0,10755.416,0,0.04,0.25
0,710,target,"[(1141, 788)]",[],[1],[0.8333333333333334],horizontal,"(890.0, 762.0)",0.45,0.786,1,10760.189,1,0.04,0.25
0,711,target,"[(1154, 793)]",[],[1],[0.5],horizontal,"(890.0, 262.0)",0.6833333333333333,0.46,1,10764.847,1,0.04,0.25
0,712,catch,"[(1160, 784)]",[],[1],[],horizontal,"(390.0, 762.0)",1.7,nan,1,10769.431,1,0.04,0.25
0,713,target,"[(1155, 772)]",[],[1],[0.6833333333333333],horizontal,"(390.0, 262.0)",1.25,0.64,1,10774.738,2,0.04,0.25
0,714,target,"[(1171, 770)]",[],[1],[0.5333333333333333],vertical,"(890.0, 262.0)",1.0666666666666667,0.495,1,10780.822,2,0.04,0.25
0,715,catch,"[(1179, 764)]",[],[1],[],horizontal,"(890.0, 762.0)",1.7,nan,1,10786.468,2,0.04,0.25
0,716,target,"[(1165, 796)]",[],[1],[0.5333333333333333],horizontal,"(890.0, 762.0)",0.5166666666666666,0.493,1,10791.856,2,0.04,0.25
0,717,target,"[(1160, 795)]",[],[1],[0.5666666666666667],vertical,"(390.0, 762.0)",1.1333333333333333,0.527,1,10797.105,3,0.04,0.25
0,718,target,"[(1164, 786)]",[],[1],[0.5166666666666666],vertical,"(890.0, 262.0)",0.8666666666666667,0.478,1,10803.13,3,0.04,0.25
0,719,catch,"[(1142, 792)]",[],[1],[],horizontal,"(890.0, 762.0)",1.7,nan,1,10808.688,3,0.04,0.25
0,720,target,"[(1150, 771)]",[],[1],[0.75],horizontal,"(390.0, 762.0)",0.43333333333333335,0.718,1,10814.946,3,0.04,0.25
0,721,target,"[(1156, 788)]",[],[1],[0.5166666666666666],vertical,"(890.0, 262.0)",0.7333333333333333,0.478,1,10820.922,3,0.04,0.25
0,722,target,"[(1160, 803)]",[],[1],[0.5],horizontal,"(390.0, 262.0)",1.1333333333333333,0.461,1,10826.438,3,0.04,0.25
0,723,target,"[(1165, 777)]",[],[1],[0.5333333333333333],horizontal,"(890.0, 762.0)",1.0666666666666667,0.495,1,10832.323,3,0.04,0.25
0,724,catch,"[(1165, 789)]",[],[1],[],vertical,"(890.0, 762.0)",1.7,nan,1,10838.189,3,0.04,0.25
0,725,target,"[(1156, 776)]",[],[1],[0.85],vertical,"(390.0, 762.0)",0.4666666666666667,nan,0,10844.104,0,0.04,0.25
0,726,target,"[(1161, 793)]",[],[1],[0.7333333333333333],horizontal,"(890.0, 762.0)",1.3333333333333333,0.697,1,10848.389,1,0.04,0.25
0,727,target,"[(1155, 808)]",[],[1],[0.6166666666666667],vertical,"(390.0, 762.0)",0.8333333333333334,0.574,1,10853.782,1,0.04,0.25
0,728,target,"[(1159, 776)]",[],[1],[0.48333333333333334],horizontal,"(390.0, 762.0)",1.2833333333333332,0.456,1,10858.724,1,0.04,0.25
0,729,catch,"[(1149, 793)]",[],[1],[],horizontal,"(390.0, 262.0)",1.7,nan,1,10864.189,2,0.04,0.25
0,730,target,"[(1175, 786)]",[],[1],[0.65],vertical,"(390.0, 262.0)",1.1166666666666667,0.61,1,10870.138,2,0.02,0.25
0,731,target,"[(1158, 786)]",[],[1],[0.7833333333333333],vertical,"(390.0, 262.0)",0.9333333333333333,0.744,1,10875.967,2,0.02,0.25
0,732,target,"[(1158, 788)]",[],[1],[0.5],horizontal,"(390.0, 262.0)",1.3,0.467,1,10881.772,2,0.02,0.25
0,733,catch,"[(1165, 776)]",[],[1],[],horizontal,"(890.0, 762.0)",1.7,nan,1,10887.789,3,0.02,0.25
0,734,target,"[(1158, 780)]",[],[1],[0.5166666666666666],horizontal,"(890.0, 262.0)",0.7666666666666666,0.48,1,10893.732,3,0.02,0.25
0,735,catch,"[(1164, 780)]",[],[1],[],horizontal,"(390.0, 262.0)",,"('cti', 1.683),nan",0,10899.406,0,0.04,0.25
0,736,target,"[(1133, 795)]",[],[1],[0.3],horizontal,"(890.0, 262.0)",1.2166666666666666,0.265,1,10904.237,1,0.04,0.25
0,737,target,"[(1156, 800)]",[],[1],[0.5666666666666667],horizontal,"(390.0, 762.0)",1.1166666666666667,0.527,1,10909.46,1,0.04,0.25
0,738,target,"[(1155, 788)]",[],[1],[0.45],horizontal,"(890.0, 262.0)",1.4333333333333333,0.411,1,10914.375,1,0.04,0.25
0,739,catch,"[(1160, 813)]",[],[1],[],horizontal,"(890.0, 762.0)",1.7,nan,1,10919.992,2,0.04,0.25
0,740,target,"[(1170, 808)]",[],[1],[0.55],vertical,"(890.0, 262.0)",0.8833333333333333,0.512,1,10925.738,2,0.04,0.25
0,741,catch,"[(1142, 783)]",[],[1],[],vertical,"(890.0, 262.0)",1.7,nan,1,10931.323,2,0.04,0.25
0,742,target,"[(1158, 790)]",[],[1],[0.55],vertical,"(890.0, 262.0)",1.05,0.505,1,10937.255,2,0.04,0.25
0,743,catch,"[(1171, 794)]",[],[1],[],horizontal,"(890.0, 262.0)",1.7,nan,1,10942.99,3,0.04,0.25
0,744,target,"[(1160, 803)]",[],[1],[0.65],vertical,"(390.0, 262.0)",0.7333333333333333,0.604,1,10949.423,3,0.04,0.25
0,745,target,"[(1156, 788)]",[],[1],[0.6],horizontal,"(390.0, 262.0)",0.5833333333333334,0.561,1,10954.943,3,0.04,0.25
0,746,catch,"[(1139, 790)]",[],[1],[],horizontal,"(890.0, 262.0)",1.7,nan,1,10960.493,3,0.04,0.25
0,747,target,"[(1158, 778)]",[],[1],[0.7333333333333333],horizontal,"(390.0, 262.0)",1.0333333333333332,0.694,1,10966.395,3,0.04,0.25
0,748,target,"[(1157, 774)]",[],[1],[0.65],horizontal,"(890.0, 762.0)",1.1833333333333333,0.605,1,10972.439,3,0.04,0.25
0,749,target,"[(1160, 798)]",[],[1],[0.5333333333333333],horizontal,"(890.0, 262.0)",1.0333333333333332,0.494,1,10978.534,3,0.04,0.25
0,750,target,"[(1136, 767)]",[],[1],[0.5666666666666667],horizontal,"(890.0, 262.0)",0.6166666666666667,0.527,1,10984.144,3,0.04,0.25
0,751,target,"[(1156, 793)]",[],[1],[0.5333333333333333],vertical,"(890.0, 262.0)",0.6666666666666666,0.493,1,10989.803,3,0.04,0.25
0,752,target,"[(1202, 768)]",[],[1],[0.5666666666666667],horizontal,"(390.0, 762.0)",0.7833333333333333,0.53,1,10995.422,3,0.04,0.25
0,753,target,"[(1170, 788)]",[],[1],[0.5],horizontal,"(890.0, 262.0)",1.0833333333333333,0.461,1,11000.673,3,0.04,0.25
0,754,target,"[(1158, 799)]",[],[1],[0.5666666666666667],horizontal,"(390.0, 762.0)",0.7,0.526,1,11006.266,3,0.04,0.25
0,755,target,"[(1159, 793)]",[],[1],[0.55],vertical,"(890.0, 762.0)",0.9166666666666666,0.506,1,11011.502,3,0.04,0.25
0,756,catch,"[(1159, 782)]",[],[1],[],horizontal,"(890.0, 262.0)",1.7,nan,1,11017.439,3,0.04,0.25
0,757,target,"[(1157, 786)]",[],[1],[0.55],vertical,"(390.0, 762.0)",0.5166666666666666,0.51,1,11023.665,3,0.04,0.25
0,758,target,"[(1160, 786)]",[],[1],[0.85],vertical,"(390.0, 762.0)",0.4,nan,0,11028.972,0,0.04,0.25
0,759,target,"[(1135, 787)]",[],[1],[0.6],horizontal,"(890.0, 762.0)",1.1333333333333333,0.56,1,11033.34,1,0.02,0.25
0,760,target,"[(1160, 791)]",[],[1],[0.5833333333333334],vertical,"(390.0, 262.0)",0.4166666666666667,0.538,1,11038.556,1,0.02,0.25
0,761,target,"[(1164, 793)]",[],[1],[0.75],vertical,"(390.0, 762.0)",0.8666666666666667,0.711,1,11043.356,1,0.02,0.25
0,762,catch,"[(1157, 764)]",[],[1],[],vertical,"(890.0, 262.0)",1.7,nan,1,11048.456,2,0.02,0.25
0,763,target,"[(1160, 783)]",[],[1],[0.55],horizontal,"(890.0, 762.0)",1.2833333333333332,0.507,1,11054.309,2,0.02,0.25
0,764,catch,"[(1166, 801)]",[],[1],[],vertical,"(890.0, 262.0)",1.7,nan,1,11060.284,2,0.02,0.25
0,765,target,"[(1137, 754)]",[],[1],[0.36666666666666664],vertical,"(890.0, 762.0)",1.4833333333333334,0.333,1,11066.357,2,0.02,0.25
0,766,catch,"[(1151, 806)]",[],[1],[],vertical,"(890.0, 262.0)",1.7,nan,1,11072.127,3,0.02,0.25
0,767,target,"[(1156, 784)]",[],[1],[0.5166666666666666],vertical,"(390.0, 262.0)",1.0,0.48,1,11078.651,3,0.02,0.25
0,768,target,"[(1164, 778)]",[],[1],[0.48333333333333334],horizontal,"(890.0, 762.0)",1.25,0.443,1,11084.063,3,0.02,0.25
0,769,target,"[(1165, 804)]",[],[1],[0.5666666666666667],vertical,"(890.0, 262.0)",1.1,0.532,1,11090.157,3,0.02,0.25
0,770,target,"[(1160, 774)]",[],[1],[0.5833333333333334],vertical,"(390.0, 762.0)",1.1833333333333333,0.542,1,11096.226,3,0.02,0.25
0,771,target,"[(1155, 784)]",[],[1],[0.55],horizontal,"(390.0, 762.0)",1.2,0.507,1,11102.563,3,0.02,0.25
0,772,catch,"[(1158, 788)]",[],[1],[],horizontal,"(390.0, 262.0)",1.7,nan,1,11108.654,3,0.02,0.25
0,773,target,"[(1159, 773)]",[],[1],[0.5333333333333333],horizontal,"(390.0, 262.0)",0.43333333333333335,0.498,1,11114.912,3,0.02,0.25
0,774,catch,"[(1175, 787)]",[],[1],[],horizontal,"(390.0, 762.0)",1.7,nan,1,11120.033,3,0.02,0.25
0,775,catch,"[(1157, 783)]",[],[1],[],horizontal,"(890.0, 762.0)",1.7,nan,1,11125.823,3,0.02,0.25
0,776,catch,"[(1156, 783)]",[],[1],[],vertical,"(890.0, 262.0)",1.7,nan,1,11132.034,3,0.02,0.25
0,777,target,"[(1170, 781)]",[],[1],[0.43333333333333335],horizontal,"(890.0, 762.0)",1.4833333333333334,0.391,1,11138.29,3,0.02,0.25
0,778,target,"[(1169, 799)]",[],[1],[0.7333333333333333],vertical,"(890.0, 762.0)",0.5333333333333333,0.69,1,11144.728,3,0.02,0.25
0,779,catch,"[(1154, 805)]",[],[1],[],horizontal,"(890.0, 762.0)",1.7,nan,1,11150.438,3,0.02,0.25
0,780,catch,"[(1158, 789)]",[],[1],[],vertical,"(890.0, 262.0)",1.7,nan,1,11156.783,3,0.02,0.25
0,781,target,"[(1156, 801)]",[],[1],[0.4666666666666667],vertical,"(390.0, 262.0)",1.05,0.43,1,11162.601,3,0.02,0.25
0,782,target,"[(1139, 792)]",[],[1],[0.45],horizontal,"(390.0, 262.0)",1.2166666666666666,0.41,1,11168.513,3,0.02,0.25
0,783,target,"[(1159, 792)]",[],[1],[0.5333333333333333],vertical,"(890.0, 262.0)",0.43333333333333335,0.499,1,11174.427,3,0.02,0.25
0,784,target,"[(1147, 798)]",[],[1],[0.48333333333333334],vertical,"(890.0, 262.0)",0.9166666666666666,0.446,1,11179.478,3,0.02,0.25
0,785,target,"[(1157, 780)]",[],[1],[0.45],vertical,"(390.0, 262.0)",1.5166666666666666,0.412,1,11185.101,3,0.0,0.25
0,786,target,"[(1160, 800)]",[],[1],[0.5833333333333334],horizontal,"(390.0, 262.0)",1.1666666666666667,0.543,1,11191.107,3,0.0,0.25
0,787,target,"[(1166, 774)]",[],[1],[0.55],horizontal,"(390.0, 262.0)",1.25,0.508,1,11197.274,3,0.0,0.25
0,788,target,"[(1158, 792)]",[],[1],[0.5],vertical,"(890.0, 262.0)",1.0666666666666667,0.465,1,11203.456,3,0.0,0.25
0,789,catch,"[(1160, 788)]",[],[1],[],horizontal,"(390.0, 762.0)",1.7,nan,1,11209.406,3,0.0,0.25
0,790,target,"[(1170, 798)]",[],[1],[0.7],vertical,"(890.0, 262.0)",1.35,0.667,1,11215.34,3,0.0,0.25
0,791,target,"[(1171, 799)]",[],[1],[0.5166666666666666],horizontal,"(390.0, 262.0)",1.2,0.474,1,11222.591,3,0.0,0.25
0,792,target,"[(1160, 770)]",[],[1],[0.7],vertical,"(890.0, 262.0)",1.1166666666666667,0.657,1,11228.828,3,0.0,0.25
0,793,target,"[(1168, 785)]",[],[1],[0.85],vertical,"(390.0, 762.0)",0.5333333333333333,nan,0,11234.803,0,0.0,0.25
0,794,catch,"[(1159, 776)]",[],[1],[],vertical,"(890.0, 762.0)",1.7,nan,1,11239.277,1,0.0,0.25
0,795,target,"[(1161, 794)]",[],[1],[0.5666666666666667],vertical,"(390.0, 762.0)",0.9166666666666666,0.524,1,11244.485,1,0.0,0.25
0,796,target,"[(1170, 775)]",[],[1],[0.4666666666666667],horizontal,"(890.0, 262.0)",1.2166666666666666,0.43,1,11249.333,1,0.0,0.25
0,797,target,"[(1168, 808)]",[],[1],[0.6833333333333333],vertical,"(390.0, 762.0)",1.3333333333333333,0.643,1,11254.577,2,0.0,0.25
0,798,catch,"[(1178, 791)]",[],[1],[],vertical,"(890.0, 762.0)",1.7,nan,1,11260.218,2,0.0,0.25
0,799,target,"[(1143, 802)]",[],[1],[0.55],vertical,"(390.0, 262.0)",0.85,0.511,1,11265.857,2,0.0,0.25
0,800,target,"[(1150, 791)]",[],[1],[0.5166666666666666],vertical,"(890.0, 262.0)",0.9666666666666667,0.479,1,11271.59,2,0.0,0.25
0,801,target,"[(1178, 788)]",[],[1],[0.5833333333333334],vertical,"(890.0, 762.0)",0.35,0.54,1,11277.18,3,0.0,0.25
0,802,catch,"[(1160, 784)]",[],[1],[],vertical,"(390.0, 262.0)",1.7,nan,1,11282.923,3,0.0,0.25
0,803,target,"[(1158, 806)]",[],[1],[0.6666666666666666],horizontal,"(390.0, 762.0)",0.4,0.632,1,11289.208,3,0.0,0.25
0,804,target,"[(1138, 782)]",[],[1],[0.3],vertical,"(890.0, 262.0)",1.5166666666666666,0.265,1,11294.391,3,0.0,0.25
0,805,target,"[(1146, 778)]",[],[1],[0.5],horizontal,"(890.0, 262.0)",0.6833333333333333,0.462,1,11300.39,3,0.0,0.25
0,806,catch,"[(1155, 776)]",[],[1],[],vertical,"(890.0, 762.0)",1.7,nan,1,11306.112,3,0.0,0.25
0,807,target,"[(1143, 795)]",[],[1],[0.5166666666666666],vertical,"(890.0, 262.0)",1.35,0.473,1,11312.157,3,0.0,0.25
0,808,target,"[(1172, 784)]",[],[1],[0.6],horizontal,"(890.0, 762.0)",0.8166666666666667,0.561,1,11318.174,3,0.0,0.25
0,809,target,"[(1162, 785)]",[],[1],[0.85],vertical,"(890.0, 262.0)",0.7,nan,0,11324.206,0,0.0,0.25
0,810,target,"[(1136, 781)]",[],[1],[0.65],vertical,"(890.0, 762.0)",1.3166666666666667,0.609,1,11328.887,1,0.0,0.25
0,811,target,"[(1157, 794)]",[],[1],[0.48333333333333334],horizontal,"(390.0, 262.0)",0.9166666666666666,0.448,1,11334.374,1,0.0,0.25
0,812,target,"[(1156, 790)]",[],[1],[0.4],horizontal,"(390.0, 762.0)",1.5,0.358,1,11339.253,1,0.0,0.25
0,813,catch,"[(1164, 778)]",[],[1],[],vertical,"(390.0, 762.0)",1.7,nan,1,11344.848,2,0.0,0.25
0,814,target,"[(1146, 780)]",[],[1],[0.7333333333333333],horizontal,"(390.0, 262.0)",0.6,0.691,1,11350.225,2,0.0,0.25
0,815,catch,"[(1170, 793)]",[],[1],[],vertical,"(390.0, 262.0)",1.7,nan,1,11355.465,2,0.0,0.25
0,816,target,"[(1152, 789)]",[],[1],[0.55],horizontal,"(390.0, 762.0)",0.35,0.507,1,11361.218,2,0.0,0.25
0,817,target,"[(1162, 808)]",[],[1],[0.5333333333333333],vertical,"(390.0, 262.0)",1.35,0.499,1,11366.539,3,0.0,0.25
0,818,target,"[(1156, 776)]",[],[1],[0.5166666666666666],horizontal,"(890.0, 262.0)",1.2666666666666666,0.476,1,11373.073,3,0.0,0.25
0,819,target,"[(1151, 789)]",[],[1],[0.5],horizontal,"(890.0, 262.0)",0.65,0.457,1,11379.058,3,0.0,0.25
0,820,target,"[(1169, 786)]",[],[1],[0.6],horizontal,"(890.0, 762.0)",0.65,0.562,1,11384.424,3,0.0,0.25
0,821,target,"[(1166, 792)]",[],[1],[0.5666666666666667],horizontal,"(890.0, 262.0)",1.0666666666666667,0.522,1,11390.039,3,0.0,0.25
0,822,catch,"[(1159, 799)]",[],[1],[],vertical,"(390.0, 262.0)",1.7,nan,1,11395.725,3,0.0,0.25
0,823,target,"[(1160, 782)]",[],[1],[0.6333333333333333],vertical,"(390.0, 262.0)",0.43333333333333335,0.598,1,11401.95,3,0.0,0.25
0,824,target,"[(1155, 798)]",[],[1],[0.85],horizontal,"(390.0, 762.0)",0.35,nan,0,11407.259,0,0.0,0.25
0,825,target,"[(1132, 793)]",[],[1],[0.7333333333333333],horizontal,"(890.0, 762.0)",0.9,0.687,1,11411.359,1,0.0,0.25
0,826,target,"[(1162, 781)]",[],[1],[0.6],horizontal,"(390.0, 762.0)",1.1666666666666667,0.558,1,11417.007,1,0.0,0.25
0,827,target,"[(1170, 804)]",[],[1],[0.5666666666666667],horizontal,"(390.0, 762.0)",1.5333333333333332,0.527,1,11422.491,1,0.0,0.25
0,828,target,"[(1151, 787)]",[],[1],[0.5],vertical,"(890.0, 262.0)",0.85,0.461,1,11427.852,2,0.0,0.25
0,829,target,"[(1151, 786)]",[],[1],[0.5166666666666666],horizontal,"(390.0, 262.0)",1.4166666666666667,0.471,1,11432.919,2,0.0,0.25
0,830,target,"[(1158, 785)]",[],[1],[0.5],vertical,"(390.0, 262.0)",0.3833333333333333,0.458,1,11438.357,2,0.0,0.25
0,831,target,"[(1158, 788)]",[],[1],[0.5333333333333333],horizontal,"(390.0, 262.0)",0.7333333333333333,0.499,1,11443.091,2,0.0,0.25
0,832,target,"[(1159, 779)]",[],[1],[0.6166666666666667],vertical,"(890.0, 762.0)",0.48333333333333334,0.593,1,11448.013,3,0.0,0.25
0,833,target,"[(1160, 786)]",[],[1],[0.6166666666666667],vertical,"(390.0, 262.0)",0.65,0.573,1,11453.604,3,0.0,0.25
0,834,target,"[(1160, 782)]",[],[1],[0.85],horizontal,"(390.0, 262.0)",0.36666666666666664,nan,0,11459.413,0,0.0,0.25
0,835,catch,"[(1135, 788)]",[],[1],[],horizontal,"(890.0, 262.0)",1.7,nan,1,11463.366,1,0.0,0.25
0,836,target,"[(1154, 779)]",[],[1],[0.5833333333333334],vertical,"(890.0, 262.0)",1.4,0.545,1,11469.008,1,0.0,0.25
0,837,target,"[(1155, 794)]",[],[1],[0.5833333333333334],vertical,"(890.0, 262.0)",0.4666666666666667,0.542,1,11474.759,1,0.0,0.25
0,838,catch,"[(1154, 784)]",[],[1],[],horizontal,"(890.0, 262.0)",1.7,nan,1,11479.595,2,0.0,0.25
0,839,catch,"[(1133, 798)]",[],[1],[],vertical,"(890.0, 762.0)",1.7,nan,1,11485.259,2,0.0,0.25
0,840,target,"[(1156, 778)]",[],[1],[0.75],horizontal,"(390.0, 262.0)",0.4,0.71,1,11490.834,2,0.0,0.25
0,841,target,"[(1142, 779)]",[],[1],[0.65],horizontal,"(890.0, 262.0)",0.8333333333333334,0.608,1,11496.074,2,0.0,0.25
0,842,target,"[(1136, 787)]",[],[1],[0.7333333333333333],horizontal,"(390.0, 762.0)",0.9333333333333333,0.688,1,11501.801,3,0.0,0.25
0,843,target,"[(1156, 786)]",[],[1],[0.5166666666666666],vertical,"(390.0, 262.0)",1.3666666666666667,0.474,1,11508.058,3,0.0,0.25
0,844,target,"[(1160, 788)]",[],[1],[0.5833333333333334],vertical,"(890.0, 262.0)",0.9,0.542,1,11514.168,3,0.0,0.25
0,845,target,"[(1165, 779)]",[],[1],[0.65],vertical,"(390.0, 762.0)",0.6166666666666667,0.605,1,11520.148,3,0.0,0.25
0,846,target,"[(1175, 787)]",[],[1],[0.6333333333333333],vertical,"(890.0, 262.0)",1.1,0.591,1,11525.667,3,0.0,0.25
0,847,target,"[(1168, 783)]",[],[1],[0.85],horizontal,"(390.0, 262.0)",0.48333333333333334,nan,0,11531.885,0,0.0,0.25
0,848,target,"[(1136, 798)]",[],[1],[0.65],vertical,"(890.0, 262.0)",1.0333333333333332,0.604,1,11536.351,1,0.0,0.25
0,849,target,"[(1168, 802)]",[],[1],[0.5833333333333334],vertical,"(390.0, 262.0)",1.0,0.539,1,11541.832,1,0.0,0.25
0,850,catch,"[(1166, 783)]",[],[1],[],vertical,"(390.0, 262.0)",1.7,nan,1,11546.639,1,0.0,0.25
0,851,catch,"[(1177, 797)]",[],[1],[],vertical,"(890.0, 762.0)",1.7,nan,1,11552.367,2,0.0,0.25
0,852,target,"[(1157, 795)]",[],[1],[0.36666666666666664],vertical,"(390.0, 262.0)",1.5,0.327,1,11557.841,2,0.0,0.25
0,853,target,"[(1168, 783)]",[],[1],[0.6333333333333333],vertical,"(390.0, 762.0)",1.3666666666666667,0.587,1,11563.774,2,0.0,0.25
0,854,catch,"[(1157, 801)]",[],[1],[],horizontal,"(890.0, 762.0)",1.7,nan,1,11569.726,2,0.0,0.25
0,855,target,"[(1156, 799)]",[],[1],[0.5666666666666667],horizontal,"(390.0, 762.0)",0.45,0.528,1,11575.547,3,0.0,0.25
0,856,target,"[(1161, 788)]",[],[1],[0.3833333333333333],horizontal,"(890.0, 262.0)",1.4833333333333334,0.344,1,11581.074,3,0.0,0.25
0,857,target,"[(1160, 788)]",[],[1],[0.5666666666666667],vertical,"(390.0, 762.0)",1.0166666666666666,0.527,1,11587.173,3,0.0,0.25
0,858,target,"[(1175, 800)]",[],[1],[0.5666666666666667],vertical,"(890.0, 762.0)",0.45,0.528,1,11592.892,3,0.0,0.25
0,859,catch,"[(1160, 787)]",[],[1],[],vertical,"(890.0, 262.0)",1.7,nan,1,11597.971,3,0.0,0.25
0,860,target,"[(1159, 783)]",[],[1],[0.6166666666666667],vertical,"(890.0, 762.0)",0.7833333333333333,0.575,1,11603.889,3,0.0,0.25
0,861,target,"[(1176, 791)]",[],[1],[0.65],vertical,"(890.0, 262.0)",0.5833333333333334,0.608,1,11609.932,3,0.0,0.25
