block,practice,trial,change_interval_s,change_interval_frames,taps_start_time_during_fix,taps_end_time_during_fix,taps_start_loc_during_fix,taps_end_loc_during_fix,taps_on_lever_during_fix,taps_on_lever_frame_during_fix,taps_on_lever_s_during_fix,fix_xy,bar_orientation,target_xy,cti,rt,acc,time
1,True,1,0.604,36,[],[],"[(1127, 819)]",[],[1],[24],[0.4],"[640.0, 512.0]",horizontal,"(390.0, 762.0)",[0.7833333333333333],[0.364],1,0.374
1,True,2,0.529,31,[],[],"[(1127, 822)]",[],[1],[22],[0.36666666666666664],"[640.0, 512.0]",horizontal,"(890.0, 762.0)",[0.6166666666666667],[0.328],1,14.583
1,True,3,1.08,64,[],[],"[(1127, 822)]",[],[1],[27],[0.45],"[640.0, 512.0]",horizontal,"(390.0, 762.0)",[1.1333333333333333],[0.412],1,18.268
1,True,4,0.536,32,[],[],"[(1076, 856)]",[],[1],[29],[0.48333333333333334],"[640.0, 512.0]",horizontal,"(890.0, 262.0)",[1.1833333333333333],[0.441],1,43.268
1,False,1,0.974,58,[],[194045],"[(1028, 857), (1078, 879)]","[(1073, 897)]","[0, 1]",[23],[0.3833333333333333],"[640.0, 512.0]",vertical,"(390.0, 762.0)",[],[0],0,171.425
1,False,2,0.703,42,[],[],"[(613, 666), (744, 641), (609, 781), (604, 652), (830, 504), (1077, 872)]",[],"[0, 0, 0, 0, 0, 1]",[31],[0.5166666666666666],"[640.0, 512.0]",horizontal,"(890.0, 762.0)",[1.2166666666666666],[0.475],1,182.158
1,False,3,1.004,60,[],[],"[(652, 461), (628, 786), (1076, 870)]",[],"[0, 0, 1]",[34],[0.5666666666666667],"[640.0, 512.0]",vertical,"(890.0, 762.0)",[1.2833333333333332],[0.521],1,414.826
1,False,4,0.932,55,[],[],"[(1068, 871)]",[],[1],[32],[0.5333333333333333],"[640.0, 512.0]",horizontal,"(890.0, 762.0)",[0.6833333333333333],[0.495],1,440.906
1,False,5,0.553,33,[],[],"[(1057, 867)]",[],[1],[51],[0.85],"[640.0, 512.0]",vertical,"(390.0, 262.0)",[0.7],[0.801],0,445.83
1,False,6,1.104,66,[],[],"[(1040, 848)]",[],[1],[51],[0.85],"[640.0, 512.0]",vertical,"(890.0, 762.0)",[1.4166666666666667],[0.807],0,450.018
1,False,7,0.726,43,[],[],"[(1064, 867)]",[],[1],[50],[0.8333333333333334],"[640.0, 512.0]",vertical,"(390.0, 262.0)",[0.9333333333333333],[0.782],1,455.442
1,False,8,1.185,71,[],[],"[(1072, 852)]",[],[1],[31],[0.5166666666666666],"[640.0, 512.0]",horizontal,"(390.0, 262.0)",[1.1166666666666667],[0.483],1,461.037
1,False,9,0.832,49,[],[],"[(1049, 845)]",[],[1],[33],[0.55],"[640.0, 512.0]",vertical,"(390.0, 762.0)",[1.35],[0.506],1,466.283
1,False,10,0.703,42,[],[],"[(1014, 844), (1072, 835)]",[],"[0, 1]",[36],[0.6],"[640.0, 512.0]",horizontal,"(890.0, 262.0)",[1.35],[0.56],1,471.095
1,False,11,0.586,35,[],[],"[(1032, 839)]",[],[1],[43],[0.7166666666666667],"[640.0, 512.0]",horizontal,"(390.0, 262.0)",[1.15],[0.672],1,477.205
1,False,12,0.875,52,[],[],"[(1072, 858)]",[],[1],[34],[0.5666666666666667],"[640.0, 512.0]",horizontal,"(890.0, 762.0)",[1.1],[0.529],1,481.71
1,False,13,0.928,55,[],[],"[(811, 521), (1107, 855)]",[],"[0, 1]",[51],[0.85],"[640.0, 512.0]",horizontal,"(890.0, 762.0)",[0.6666666666666666],[0.805],0,486.492
1,False,14,0.712,42,[],[506766],"[(1072, 849)]","[(1031, 867)]",[1],[26],[0.43333333333333335],"[640.0, 512.0]",vertical,"(890.0, 762.0)",[],[0],0,492.194
1,False,15,0.77,46,[],[],"[(1064, 848)]",[],[1],[36],[0.6],"[640.0, 512.0]",horizontal,"(890.0, 262.0)",[1.4833333333333334],[0.556],1,494.881
1,False,16,1.119,67,[],[],"[(1047, 857)]",[],[1],[33],[0.55],"[640.0, 512.0]",horizontal,"(890.0, 262.0)",[1.6333333333333333],[0.509],1,514.581
1,False,17,0.883,52,[],[],"[(1068, 855)]",[],[1],[30],[0.5],"[640.0, 512.0]",horizontal,"(390.0, 262.0)",[1.0333333333333332],[0.462],1,519.959
1,False,18,0.696,41,[],[],"[(1042, 870)]",[],[1],[35],[0.5833333333333334],"[640.0, 512.0]",horizontal,"(890.0, 262.0)",[1.35],[0.537],1,524.33
1,False,19,0.656,39,[],[],"[(1073, 865)]",[],[1],[34],[0.5666666666666667],"[640.0, 512.0]",vertical,"(890.0, 762.0)",[1.4333333333333333],[0.524],1,528.93
1,False,20,1.016,60,[],[],"[(1033, 850)]",[],[1],[51],[0.85],"[640.0, 512.0]",horizontal,"(390.0, 762.0)",[0.9],[0.801],0,533.617
1,False,21,0.689,41,[],[],"[(1067, 860)]",[],[1],[35],[0.5833333333333334],"[640.0, 512.0]",horizontal,"(390.0, 762.0)",[0.6833333333333333],[0.542],1,538.424
1,False,22,1.135,68,[],[],"[(1076, 857)]",[],[1],[41],[0.6833333333333333],"[640.0, 512.0]",horizontal,"(890.0, 762.0)",[0.6166666666666667],[0.637],1,543.205
1,False,23,1.101,66,[],[],"[(1072, 872)]",[],[1],[34],[0.5666666666666667],"[640.0, 512.0]",horizontal,"(390.0, 762.0)",[1.5333333333333332],[0.527],1,547.737
1,False,24,0.756,45,[],[],"[(1072, 856)]",[],[1],[51],[0.85],"[640.0, 512.0]",vertical,"(890.0, 762.0)",[1.1666666666666667],[0.804],0,552.971
1,False,25,1.16,69,[],[],"[(1103, 842)]",[],[1],[9],[0.15],"[640.0, 512.0]",vertical,"(890.0, 262.0)",[1.6666666666666667],[0.117],1,557.796
1,False,26,0.959,57,[],[],"[(1072, 859)]",[],[1],[31],[0.5166666666666666],"[640.0, 512.0]",horizontal,"(390.0, 262.0)",[0.8666666666666667],[0.476],1,568.211
1,False,27,0.774,46,[],[],"[(1081, 878)]",[],[1],[33],[0.55],"[640.0, 512.0]",horizontal,"(890.0, 262.0)",[1.2666666666666666],[0.511],1,575.551
1,False,28,0.552,33,[],[],"[(1071, 853)]",[],[1],[36],[0.6],"[640.0, 512.0]",vertical,"(390.0, 262.0)",[1.2],[0.556],1,580.132
1,False,29,0.845,50,[],[],"[(1082, 853)]",[],[1],[35],[0.5833333333333334],"[640.0, 512.0]",vertical,"(890.0, 762.0)",[1.1666666666666667],[0.539],1,584.462
1,False,30,0.729,43,[],[],"[(1067, 867)]",[],[1],[37],[0.6166666666666667],"[640.0, 512.0]",horizontal,"(390.0, 262.0)",[0.8833333333333333],[0.574],1,588.98
1,False,31,0.852,51,[],[],"[(1070, 870)]",[],[1],[34],[0.5666666666666667],"[640.0, 512.0]",horizontal,"(890.0, 762.0)",[1.1666666666666667],[0.528],1,593.373
1,False,32,0.658,39,[],[],"[(1080, 862)]",[],[1],[35],[0.5833333333333334],"[640.0, 512.0]",vertical,"(890.0, 762.0)",[1.6],[0.541],1,598.036
1,False,33,0.889,53,[],[],"[(1081, 856)]",[],[1],[41],[0.6833333333333333],"[640.0, 512.0]",horizontal,"(390.0, 762.0)",[1.65],[0.643],1,602.726
1,False,34,0.755,45,[],[],"[(1045, 876)]",[],[1],[37],[0.6166666666666667],"[640.0, 512.0]",vertical,"(390.0, 762.0)",[0.55],[0.575],1,607.78
1,False,35,0.817,49,[],[],"[(1042, 871)]",[],[1],[33],[0.55],"[640.0, 512.0]",vertical,"(890.0, 762.0)",[0.9833333333333333],[0.51],1,611.709
1,False,36,1.092,65,[],[],"[(1075, 854)]",[],[1],[32],[0.5333333333333333],"[640.0, 512.0]",horizontal,"(890.0, 262.0)",[0.6166666666666667],[0.498],1,616.104
1,False,37,0.777,46,[],[],"[(1072, 849)]",[],[1],[34],[0.5666666666666667],"[640.0, 512.0]",horizontal,"(390.0, 762.0)",[0.55],[0.525],1,620.585
1,False,38,1.096,65,[],[],"[(1072, 867)]",[],[1],[34],[0.5666666666666667],"[640.0, 512.0]",vertical,"(390.0, 762.0)",[1.4166666666666667],[0.53],1,624.433
1,False,39,0.813,48,[],[],"[(1100, 862)]",[],[1],[28],[0.4666666666666667],"[640.0, 512.0]",horizontal,"(890.0, 262.0)",[1.45],[0.426],1,629.623
1,False,40,1.081,64,[],[],"[(1096, 852)]",[],[1],[36],[0.6],"[640.0, 512.0]",horizontal,"(390.0, 262.0)",[0.9],[0.556],1,634.347
1,False,41,0.712,42,[],[],"[(1081, 864)]",[],[1],[33],[0.55],"[640.0, 512.0]",vertical,"(890.0, 262.0)",[1.5166666666666666],[0.515],1,638.985
1,False,42,0.74,44,[],[],"[(1077, 859)]",[],[1],[34],[0.5666666666666667],"[640.0, 512.0]",vertical,"(390.0, 262.0)",[1.4833333333333334],[0.53],1,643.705
1,False,43,0.898,53,[],[],"[(1077, 872)]",[],[1],[34],[0.5666666666666667],"[640.0, 512.0]",horizontal,"(390.0, 762.0)",[1.0333333333333332],[0.532],1,648.367
1,False,44,0.684,41,[],[],"[(1072, 863)]",[],[1],[34],[0.5666666666666667],"[640.0, 512.0]",vertical,"(890.0, 762.0)",[0.7333333333333333],[0.525],1,652.907
1,False,45,1.018,61,[],[],"[(1074, 871)]",[],[1],[33],[0.55],"[640.0, 512.0]",horizontal,"(890.0, 762.0)",[1.2],[0.502],1,656.827
1,False,46,1.122,67,[],[],"[(1086, 862)]",[],[1],[42],[0.7],"[640.0, 512.0]",horizontal,"(390.0, 762.0)",[0.6833333333333333],[0.655],1,661.448
1,False,47,1.02,61,[],[],"[(1067, 871)]",[],[1],[35],[0.5833333333333334],"[640.0, 512.0]",vertical,"(390.0, 762.0)",[0.75],[0.547],1,666.023
1,False,48,0.999,59,[],[],"[(1072, 855)]",[],[1],[33],[0.55],"[640.0, 512.0]",vertical,"(390.0, 762.0)",[0.9166666666666666],[0.512],1,670.248
1,False,49,0.719,43,[],[],"[(1067, 852)]",[],[1],[36],[0.6],"[640.0, 512.0]",horizontal,"(890.0, 762.0)",[1.25],[0.555],1,674.679
1,False,50,0.811,48,[],[],"[(1079, 862)]",[],[1],[32],[0.5333333333333333],"[640.0, 512.0]",vertical,"(890.0, 762.0)",[0.95],[0.496],1,679.144
1,False,51,1.12,67,[],[],"[(1075, 852)]",[],[1],[39],[0.65],"[640.0, 512.0]",vertical,"(390.0, 762.0)",[0.6666666666666666],[0.614],1,683.517
1,False,52,1.02,61,[],[],"[(1065, 865)]",[],[1],[34],[0.5666666666666667],"[640.0, 512.0]",vertical,"(390.0, 262.0)",[1.5],[0.527],1,687.96
1,False,53,0.583,34,[],[],"[(1072, 854)]",[],[1],[45],[0.75],"[640.0, 512.0]",vertical,"(890.0, 262.0)",[1.6666666666666667],[0.709],1,694.889
1,False,54,0.805,48,[],[],"[(1074, 858)]",[],[1],[36],[0.6],"[640.0, 512.0]",horizontal,"(890.0, 262.0)",[1.3166666666666667],[0.559],1,700.194
1,False,55,0.643,38,[],[],"[(1084, 854)]",[],[1],[35],[0.5833333333333334],"[640.0, 512.0]",vertical,"(390.0, 262.0)",[0.8666666666666667],[0.545],1,705.233
1,False,56,0.876,52,[],[],"[(1079, 863)]",[],[1],[39],[0.65],"[640.0, 512.0]",vertical,"(890.0, 262.0)",[0.5],[0.609],1,709.302
1,False,57,0.89,53,[],[],"[(1060, 876)]",[],[1],[40],[0.6666666666666666],"[640.0, 512.0]",vertical,"(890.0, 762.0)",[1.0833333333333333],[0.623],1,713.325
1,False,58,0.524,31,[],[],"[(1076, 881)]",[],[1],[43],[0.7166666666666667],"[640.0, 512.0]",vertical,"(890.0, 262.0)",[0.7666666666666666],[0.677],1,717.82
1,False,59,0.846,50,[],[],"[(1068, 872)]",[],[1],[31],[0.5166666666666666],"[640.0, 512.0]",vertical,"(890.0, 262.0)",[1.5333333333333332],[0.483],1,721.759
1,False,60,1.17,70,[],[],"[(1072, 848)]",[],[1],[33],[0.55],"[640.0, 512.0]",horizontal,"(390.0, 262.0)",[0.9333333333333333],[0.509],1,726.536
2,False,61,0.627,37,[],[],"[(1068, 859)]",[],[1],[37],[0.6166666666666667],"[640.0, 512.0]",vertical,"(890.0, 262.0)",[0.5166666666666666],[0.573],1,731.078
2,False,62,0.631,37,[],[],"[(1078, 855)]",[],[1],[51],[0.85],"[640.0, 512.0]",vertical,"(390.0, 262.0)",[0.9833333333333333],[0.8],0,734.75
2,False,63,0.629,37,[],[],"[(1076, 852)]",[],[1],[31],[0.5166666666666666],"[640.0, 512.0]",horizontal,"(890.0, 262.0)",[1.6166666666666667],[0.478],1,739.179
2,False,64,1.033,61,[],[],"[(1081, 854)]",[],[1],[40],[0.6666666666666666],"[640.0, 512.0]",vertical,"(890.0, 762.0)",[0.6333333333333333],[0.632],1,744.024
2,False,65,1.182,70,[],[],"[(1081, 860)]",[],[1],[32],[0.5333333333333333],"[640.0, 512.0]",horizontal,"(890.0, 762.0)",[1.0],[0.492],1,748.335
2,False,66,0.749,44,[],[],"[(1076, 864)]",[],[1],[38],[0.6333333333333333],"[640.0, 512.0]",vertical,"(890.0, 762.0)",[1.1666666666666667],[0.594],1,753.084
2,False,67,0.549,32,[],[],"[(1072, 854)]",[],[1],[33],[0.55],"[640.0, 512.0]",horizontal,"(890.0, 762.0)",[1.2666666666666666],[0.517],1,757.53
2,False,68,0.507,30,[],[],"[(1077, 863)]",[],[1],[35],[0.5833333333333334],"[640.0, 512.0]",vertical,"(890.0, 262.0)",[1.3333333333333333],[0.543],1,761.781
2,False,69,0.628,37,[],[],"[(1074, 872)]",[],[1],[34],[0.5666666666666667],"[640.0, 512.0]",vertical,"(890.0, 762.0)",[1.2166666666666666],[0.522],1,766.265
2,False,70,0.503,30,[],[],"[(1067, 862)]",[],[1],[32],[0.5333333333333333],"[640.0, 512.0]",vertical,"(890.0, 762.0)",[0.95],[0.493],1,770.588
2,False,71,0.617,37,[],[],"[(1076, 868)]",[],[1],[32],[0.5333333333333333],"[640.0, 512.0]",horizontal,"(890.0, 262.0)",[1.65],[0.492],1,774.62
2,False,72,0.546,32,[],[],"[(1098, 881)]",[],[1],[32],[0.5333333333333333],"[640.0, 512.0]",horizontal,"(390.0, 262.0)",[0.75],[0.492],1,779.488
2,False,73,0.99,59,[],[],"[(1079, 875)]",[],[1],[32],[0.5333333333333333],"[640.0, 512.0]",horizontal,"(390.0, 762.0)",[1.6833333333333333],[0.49],1,783.307
2,False,74,0.994,59,[],[],"[(1074, 876)]",[],[1],[33],[0.55],"[640.0, 512.0]",horizontal,"(390.0, 762.0)",[0.9666666666666667],[0.511],1,788.359
2,False,75,0.678,40,[],[],"[(1071, 869)]",[],[1],[33],[0.55],"[640.0, 512.0]",horizontal,"(890.0, 762.0)",[0.6666666666666666],[0.511],1,792.705
2,False,76,0.787,47,[],[],"[(1062, 875)]",[],[1],[35],[0.5833333333333334],"[640.0, 512.0]",vertical,"(890.0, 262.0)",[1.1333333333333333],[0.537],1,797.83
2,False,77,0.501,30,[],[],"[(1072, 851)]",[],[1],[31],[0.5166666666666666],"[640.0, 512.0]",horizontal,"(890.0, 262.0)",[1.0666666666666667],[0.48],1,802.273
2,False,78,0.651,39,[],[],"[(1072, 867)]",[],[1],[34],[0.5666666666666667],"[640.0, 512.0]",horizontal,"(390.0, 762.0)",[1.65],[0.526],1,806.399
2,False,79,1.158,69,[],[],"[(1019, 872), (1091, 851)]",[],"[0, 1]",[38],[0.6333333333333333],"[640.0, 512.0]",vertical,"(390.0, 762.0)",[1.0333333333333332],[0.587],1,811.199
2,False,80,0.749,44,[],[],"[(1072, 859)]",[],[1],[32],[0.5333333333333333],"[640.0, 512.0]",horizontal,"(890.0, 762.0)",[0.8333333333333334],[0.494],1,817.148
2,False,81,0.867,52,[],[],"[(1105, 864)]",[],[1],[30],[0.5],"[640.0, 512.0]",vertical,"(890.0, 262.0)",[1.65],[0.462],1,821.243
2,False,82,1.164,69,[],[],"[(1070, 848)]",[],[1],[30],[0.5],"[640.0, 512.0]",horizontal,"(890.0, 762.0)",[1.0833333333333333],[0.461],1,826.247
2,False,83,0.799,47,[],[],"[(1072, 859)]",[],[1],[38],[0.6333333333333333],"[640.0, 512.0]",horizontal,"(890.0, 262.0)",[0.6],[0.586],1,830.765
2,False,84,0.996,59,[],[],"[(1052, 887)]",[],[1],[33],[0.55],"[640.0, 512.0]",vertical,"(890.0, 262.0)",[1.55],[0.509],1,834.818
2,False,85,0.976,58,[],[],"[(1072, 880)]",[],[1],[36],[0.6],"[640.0, 512.0]",vertical,"(890.0, 762.0)",[0.8],[0.558],1,839.869
2,False,86,1.077,64,[],[],"[(1067, 858)]",[],[1],[33],[0.55],"[640.0, 512.0]",horizontal,"(890.0, 262.0)",[0.8166666666666667],[0.508],1,844.188
2,False,87,0.878,52,[],[],"[(1076, 870)]",[],[1],[39],[0.65],"[640.0, 512.0]",vertical,"(890.0, 262.0)",[1.5333333333333332],[0.61],1,848.551
2,False,88,0.577,34,[],[],"[(1072, 868)]",[],[1],[36],[0.6],"[640.0, 512.0]",vertical,"(390.0, 762.0)",[0.95],[0.56],1,853.62
2,False,89,0.772,46,[],[],"[(1067, 876)]",[],[1],[31],[0.5166666666666666],"[640.0, 512.0]",vertical,"(890.0, 262.0)",[1.4166666666666667],[0.477],1,857.712
2,False,90,1.1,66,[],[],"[(1086, 868)]",[],[1],[37],[0.6166666666666667],"[640.0, 512.0]",horizontal,"(390.0, 262.0)",[0.65],[0.579],1,862.346
2,False,91,0.508,30,[],[],"[(1110, 873)]",[],[1],[33],[0.55],"[640.0, 512.0]",vertical,"(390.0, 762.0)",[1.1833333333333333],[0.512],1,866.618
2,False,92,0.838,50,[],[],"[(1072, 864)]",[],[1],[34],[0.5666666666666667],"[640.0, 512.0]",vertical,"(890.0, 762.0)",[0.9833333333333333],[0.53],1,870.83
2,False,93,0.663,39,[],[],"[(1072, 868)]",[],[1],[45],[0.75],"[640.0, 512.0]",vertical,"(890.0, 262.0)",[0.8],[0.715],1,875.238
2,False,94,0.606,36,[],[],"[(1072, 874)]",[],[1],[40],[0.6666666666666666],"[640.0, 512.0]",horizontal,"(890.0, 762.0)",[1.6],[0.621],1,879.391
2,False,95,1.197,71,[],[],"[(1076, 880)]",[],[1],[34],[0.5666666666666667],"[640.0, 512.0]",horizontal,"(890.0, 762.0)",[1.0833333333333333],[0.523],1,884.27
2,False,96,1.186,71,[],[],"[(1072, 867)]",[],[1],[34],[0.5666666666666667],"[640.0, 512.0]",horizontal,"(390.0, 762.0)",[1.0833333333333333],[0.526],1,889.11
2,False,97,1.117,67,[],[],"[(1072, 870)]",[],[1],[32],[0.5333333333333333],"[640.0, 512.0]",horizontal,"(890.0, 262.0)",[1.5666666666666667],[0.491],1,894.004
2,False,98,0.729,43,[],[],"[(1072, 873)]",[],[1],[35],[0.5833333333333334],"[640.0, 512.0]",horizontal,"(890.0, 762.0)",[0.65],[0.545],1,899.161
2,False,99,0.842,50,[],[],"[(1081, 876)]",[],[1],[28],[0.4666666666666667],"[640.0, 512.0]",horizontal,"(390.0, 262.0)",[1.65],[0.426],1,902.993
2,False,100,0.712,42,[],[],"[(1072, 877)]",[],[1],[31],[0.5166666666666666],"[640.0, 512.0]",horizontal,"(390.0, 262.0)",[1.2],[0.483],1,908.044
2,False,101,0.654,39,[],[],"[(1081, 858)]",[],[1],[37],[0.6166666666666667],"[640.0, 512.0]",vertical,"(890.0, 262.0)",[0.9666666666666667],[0.574],1,912.386
2,False,102,0.52,31,[],[],"[(1057, 870)]",[],[1],[35],[0.5833333333333334],"[640.0, 512.0]",horizontal,"(890.0, 762.0)",[1.4],[0.538],1,916.544
2,False,103,0.925,55,[],[],"[(1072, 855)]",[],[1],[35],[0.5833333333333334],"[640.0, 512.0]",vertical,"(890.0, 262.0)",[1.6],[0.546],1,921.645
2,False,104,1.112,66,[],[],"[(1072, 859)]",[],[1],[32],[0.5333333333333333],"[640.0, 512.0]",horizontal,"(390.0, 262.0)",[1.2666666666666666],[0.494],1,926.692
2,False,105,0.978,58,[],[],"[(1075, 867)]",[],[1],[36],[0.6],"[640.0, 512.0]",horizontal,"(890.0, 762.0)",[1.6333333333333333],[0.561],1,931.637
2,False,106,1.067,64,[],[],"[(1076, 848)]",[],[1],[36],[0.6],"[640.0, 512.0]",vertical,"(390.0, 262.0)",[1.2666666666666666],[0.56],1,936.846
2,False,107,0.747,44,[],[],"[(1072, 863)]",[],[1],[36],[0.6],"[640.0, 512.0]",vertical,"(890.0, 762.0)",[0.5],[0.561],1,941.948
2,False,108,1.08,64,[],[],"[(1072, 863)]",[],[1],[32],[0.5333333333333333],"[640.0, 512.0]",horizontal,"(390.0, 262.0)",[1.3],[0.492],1,945.783
2,False,109,1.095,65,[],[],"[(1072, 876)]",[],[1],[38],[0.6333333333333333],"[640.0, 512.0]",horizontal,"(390.0, 762.0)",[0.5333333333333333],[0.6],1,950.576
2,False,110,1.047,62,[],[],"[(1067, 875)]",[],[1],[51],[0.85],"[640.0, 512.0]",vertical,"(390.0, 762.0)",[1.6666666666666667],[0.812],0,954.794
2,False,111,0.649,38,[],[],"[(1085, 842)]",[],[1],[51],[0.85],"[640.0, 512.0]",horizontal,"(390.0, 762.0)",[0.5666666666666667],[0.805],0,960.444
2,False,112,0.533,31,[],[],"[(1070, 854)]",[],[1],[33],[0.55],"[640.0, 512.0]",horizontal,"(890.0, 262.0)",[0.6666666666666666],[0.511],1,964.477
2,False,113,0.65,39,[],[],"[(1068, 880)]",[],[1],[42],[0.7],"[640.0, 512.0]",horizontal,"(890.0, 762.0)",[1.6666666666666667],[0.665],1,968.436
2,False,114,1.189,71,[],[],"[(1072, 858)]",[],[1],[32],[0.5333333333333333],"[640.0, 512.0]",vertical,"(890.0, 762.0)",[0.5833333333333334],[0.492],1,973.416
2,False,115,1.007,60,[],[],"[(1067, 876)]",[],[1],[37],[0.6166666666666667],"[640.0, 512.0]",vertical,"(890.0, 262.0)",[1.1666666666666667],[0.573],1,977.772
2,False,116,1.1,66,[],[],"[(1042, 854)]",[],[1],[32],[0.5333333333333333],"[640.0, 512.0]",horizontal,"(890.0, 262.0)",[1.0666666666666667],[0.5],1,982.473
2,False,117,0.922,55,[],[],"[(1072, 856)]",[],[1],[32],[0.5333333333333333],"[640.0, 512.0]",horizontal,"(890.0, 262.0)",[1.2166666666666666],[0.496],1,987.377
2,False,118,0.94,56,[],[],"[(1036, 848)]",[],[1],[33],[0.55],"[640.0, 512.0]",vertical,"(890.0, 762.0)",[0.9166666666666666],[0.513],1,992.117
2,False,119,0.894,53,[],[],"[(1079, 878)]",[],[1],[33],[0.55],"[640.0, 512.0]",vertical,"(890.0, 762.0)",[1.3],[0.51],1,996.544
2,False,120,0.598,35,[],[],"[(1071, 856)]",[],[1],[34],[0.5666666666666667],"[640.0, 512.0]",horizontal,"(890.0, 762.0)",[1.55],[0.528],1,1001.312
3,False,121,0.579,34,[],[],"[(1075, 857)]",[],[1],[31],[0.5166666666666666],"[640.0, 512.0]",horizontal,"(890.0, 262.0)",[1.5833333333333333],[0.479],1,1005.923
3,False,122,1.054,63,[],[],"[(1072, 852)]",[],[1],[34],[0.5666666666666667],"[640.0, 512.0]",horizontal,"(390.0, 762.0)",[0.85],[0.528],1,1010.52
3,False,123,0.566,33,[],[],"[(1070, 848)]",[],[1],[31],[0.5166666666666666],"[640.0, 512.0]",horizontal,"(890.0, 262.0)",[1.4666666666666666],[0.476],1,1014.939
3,False,124,1.124,67,[],[],"[(1072, 859)]",[],[1],[34],[0.5666666666666667],"[640.0, 512.0]",vertical,"(890.0, 762.0)",[1.2833333333333332],[0.526],1,1019.45
3,False,125,1.013,60,[],[],"[(1072, 852)]",[],[1],[33],[0.55],"[640.0, 512.0]",horizontal,"(390.0, 762.0)",[1.2833333333333332],[0.511],1,1024.38
3,False,126,0.541,32,[],[],"[(1074, 857)]",[],[1],[39],[0.65],"[640.0, 512.0]",vertical,"(390.0, 262.0)",[1.3666666666666667],[0.607],1,1029.21
3,False,127,1.055,63,[],[],"[(1072, 851)]",[],[1],[34],[0.5666666666666667],"[640.0, 512.0]",horizontal,"(390.0, 762.0)",[1.4],[0.531],1,1033.743
3,False,128,0.671,40,[],[],"[(1076, 857)]",[],[1],[34],[0.5666666666666667],"[640.0, 512.0]",horizontal,"(890.0, 762.0)",[1.45],[0.535],1,1038.683
3,False,129,0.729,43,[],[],"[(1072, 849)]",[],[1],[36],[0.6],"[640.0, 512.0]",horizontal,"(890.0, 762.0)",[0.7333333333333333],[0.56],1,1043.468
3,False,130,1.06,63,[],[],"[(1081, 863)]",[],[1],[34],[0.5666666666666667],"[640.0, 512.0]",horizontal,"(890.0, 262.0)",[0.8],[0.526],1,1047.553
3,False,131,0.638,38,[],[],"[(1071, 872)]",[],[1],[38],[0.6333333333333333],"[640.0, 512.0]",vertical,"(890.0, 762.0)",[1.2833333333333332],[0.59],1,1052.076
3,False,132,1.095,65,[],[],"[(1072, 860)]",[],[1],[36],[0.6],"[640.0, 512.0]",vertical,"(890.0, 762.0)",[0.7333333333333333],[0.553],1,1056.608
3,False,133,0.559,33,[],[],"[(1076, 852)]",[],[1],[33],[0.55],"[640.0, 512.0]",horizontal,"(390.0, 762.0)",[1.45],[0.511],1,1060.893
3,False,134,1.136,68,[],[],"[(1072, 864)]",[],[1],[38],[0.6333333333333333],"[640.0, 512.0]",horizontal,"(890.0, 262.0)",[1.4833333333333334],[0.592],1,1065.557
3,False,135,1.116,66,[],[],"[(1072, 856)]",[],[1],[36],[0.6],"[640.0, 512.0]",vertical,"(890.0, 762.0)",[1.2333333333333334],[0.56],1,1070.884
3,False,136,0.538,32,[],[],"[(1070, 864)]",[],[1],[34],[0.5666666666666667],"[640.0, 512.0]",vertical,"(390.0, 762.0)",[1.15],[0.526],1,1075.799
3,False,137,1.081,64,[],[],"[(1074, 867)]",[],[1],[33],[0.55],"[640.0, 512.0]",vertical,"(890.0, 762.0)",[1.05],[0.507],1,1080.1
3,False,138,0.621,37,[],[],"[(1071, 847)]",[],[1],[34],[0.5666666666666667],"[640.0, 512.0]",horizontal,"(390.0, 762.0)",[1.3],[0.531],1,1084.679
3,False,139,1.0,60,[],[],"[(1086, 860)]",[],[1],[37],[0.6166666666666667],"[640.0, 512.0]",horizontal,"(890.0, 762.0)",[1.2166666666666666],[0.577],1,1089.191
3,False,140,0.926,55,[],[],"[(1094, 863)]",[],[1],[35],[0.5833333333333334],"[640.0, 512.0]",horizontal,"(390.0, 262.0)",[1.1666666666666667],[0.539],1,1094.098
3,False,141,0.621,37,[],[],"[(1067, 857)]",[],[1],[36],[0.6],"[640.0, 512.0]",vertical,"(890.0, 762.0)",[0.85],[0.561],1,1098.674
3,False,142,0.655,39,[],[],"[(1072, 866)]",[],[1],[45],[0.75],"[640.0, 512.0]",horizontal,"(390.0, 262.0)",[1.2666666666666666],[0.704],1,1103.066
3,False,143,1.015,60,[],[],"[(1088, 862)]",[],[1],[33],[0.55],"[640.0, 512.0]",horizontal,"(390.0, 262.0)",[1.55],[0.512],1,1107.575
3,False,144,1.019,61,[],[],"[(1086, 850)]",[],[1],[35],[0.5833333333333334],"[640.0, 512.0]",horizontal,"(890.0, 762.0)",[1.6333333333333333],[0.537],1,1112.588
3,False,145,0.803,48,[],[],"[(1079, 865)]",[],[1],[32],[0.5333333333333333],"[640.0, 512.0]",horizontal,"(890.0, 262.0)",[0.5833333333333334],[0.494],1,1117.955
3,False,146,1.172,70,[],[],"[(1105, 848)]",[],[1],[36],[0.6],"[640.0, 512.0]",horizontal,"(390.0, 262.0)",[1.6166666666666667],[0.555],1,1122.0
3,False,147,1.144,68,[],[],"[(1081, 850)]",[],[1],[34],[0.5666666666666667],"[640.0, 512.0]",horizontal,"(890.0, 262.0)",[0.5],[0.527],1,1127.345
3,False,148,1.123,67,[],[],"[(1072, 872)]",[],[1],[34],[0.5666666666666667],"[640.0, 512.0]",horizontal,"(390.0, 762.0)",[1.3666666666666667],[0.525],1,1131.407
3,False,149,0.806,48,[],[],"[(1081, 885)]",[],[1],[33],[0.55],"[640.0, 512.0]",vertical,"(390.0, 262.0)",[1.2],[0.508],1,1136.475
3,False,150,0.568,34,[],[],"[(1076, 880)]",[],[1],[36],[0.6],"[640.0, 512.0]",horizontal,"(390.0, 262.0)",[1.2833333333333332],[0.556],1,1141.028
3,False,151,0.975,58,[],[],"[(1072, 861)]",[],[1],[33],[0.55],"[640.0, 512.0]",horizontal,"(390.0, 762.0)",[1.4666666666666666],[0.511],1,1145.495
3,False,152,1.047,62,[],[],"[(1081, 866)]",[],[1],[51],[0.85],"[640.0, 512.0]",vertical,"(390.0, 262.0)",[1.4166666666666667],[0.806],0,1150.476
3,False,153,1.11,66,[],[],"[(1102, 819)]",[],[1],[51],[0.85],"[640.0, 512.0]",horizontal,"(390.0, 762.0)",[1.35],[0.812],0,1155.808
3,False,154,0.968,58,[],[],"[(1071, 843)]",[],[1],[30],[0.5],"[640.0, 512.0]",vertical,"(890.0, 262.0)",[1.4],[0.46],1,1167.593
3,False,155,0.866,51,[],[],"[(1081, 846)]",[],[1],[37],[0.6166666666666667],"[640.0, 512.0]",vertical,"(390.0, 262.0)",[1.6833333333333333],[0.576],1,1175.063
3,False,156,0.534,32,[],[],"[(1072, 842)]",[],[1],[51],[0.85],"[640.0, 512.0]",vertical,"(890.0, 762.0)",[0.8666666666666667],[0.804],0,1180.255
3,False,157,0.559,33,[],[],"[(1068, 846)]",[],[1],[36],[0.6],"[640.0, 512.0]",horizontal,"(890.0, 262.0)",[1.65],[0.555],1,1184.492
3,False,158,0.97,58,[],[],"[(1076, 850)]",[],[1],[46],[0.7666666666666666],"[640.0, 512.0]",vertical,"(390.0, 762.0)",[0.5333333333333333],[0.719],1,1189.35
3,False,159,1.023,61,[],[],"[(1071, 859)]",[],[1],[40],[0.6666666666666666],"[640.0, 512.0]",horizontal,"(890.0, 762.0)",[1.0],[0.626],1,1193.503
3,False,160,0.515,30,[],[],"[(1086, 865)]",[],[1],[43],[0.7166666666666667],"[640.0, 512.0]",horizontal,"(390.0, 262.0)",[1.3],[0.678],1,1198.222
3,False,161,0.785,47,[],[],"[(1072, 888)]",[],[1],[35],[0.5833333333333334],"[640.0, 512.0]",vertical,"(390.0, 762.0)",[0.5166666666666666],[0.54],1,1202.695
3,False,162,1.028,61,[],[],"[(1059, 863)]",[],[1],[42],[0.7],"[640.0, 512.0]",horizontal,"(390.0, 262.0)",[1.15],[0.659],1,1312.582
3,False,163,0.744,44,[],[],"[(1081, 889)]",[],[1],[35],[0.5833333333333334],"[640.0, 512.0]",horizontal,"(890.0, 762.0)",[1.3666666666666667],[0.55],1,1317.431
3,False,164,1.073,64,[],[],"[(1072, 867)]",[],[1],[40],[0.6666666666666666],"[640.0, 512.0]",vertical,"(890.0, 762.0)",[1.0833333333333333],[0.628],1,1322.053
3,False,165,1.145,68,[],[],"[(1094, 893)]",[],[1],[36],[0.6],"[640.0, 512.0]",horizontal,"(390.0, 262.0)",[1.3166666666666667],[0.555],1,1326.849
3,False,166,0.931,55,[],[],"[(1075, 876)]",[],[1],[32],[0.5333333333333333],"[640.0, 512.0]",horizontal,"(390.0, 262.0)",[0.9666666666666667],[0.493],1,1331.985
3,False,167,1.052,63,[],[],"[(1064, 871)]",[],[1],[31],[0.5166666666666666],"[640.0, 512.0]",vertical,"(890.0, 262.0)",[1.2166666666666666],[0.477],1,1336.312
3,False,168,0.62,37,[],[],"[(1093, 862)]",[],[1],[33],[0.55],"[640.0, 512.0]",horizontal,"(890.0, 762.0)",[1.45],[0.512],1,1341.047
3,False,169,0.966,57,[],[],"[(1086, 866)]",[],[1],[32],[0.5333333333333333],"[640.0, 512.0]",horizontal,"(390.0, 762.0)",[0.9666666666666667],[0.493],1,1345.574
3,False,170,0.955,57,[],[],"[(1086, 872)]",[],[1],[34],[0.5666666666666667],"[640.0, 512.0]",vertical,"(390.0, 762.0)",[1.2166666666666666],[0.524],1,1350.028
3,False,171,1.004,60,[],[],"[(1109, 860)]",[],[1],[36],[0.6],"[640.0, 512.0]",vertical,"(390.0, 262.0)",[0.9],[0.559],1,1354.704
3,False,172,0.747,44,[],[],"[(1088, 854)]",[],[1],[33],[0.55],"[640.0, 512.0]",horizontal,"(890.0, 762.0)",[1.3],[0.512],1,1359.125
3,False,173,0.6,36,[],[],"[(1096, 858)]",[],[1],[41],[0.6833333333333333],"[640.0, 512.0]",vertical,"(890.0, 262.0)",[0.8666666666666667],[0.635],1,1363.803
3,False,174,0.925,55,[],[],"[(1112, 856)]",[],[1],[34],[0.5666666666666667],"[640.0, 512.0]",vertical,"(890.0, 262.0)",[1.2666666666666666],[0.524],1,1367.974
3,False,175,0.767,46,[],[],"[(1104, 859)]",[],[1],[32],[0.5333333333333333],"[640.0, 512.0]",vertical,"(890.0, 762.0)",[1.1],[0.491],1,1372.731
3,False,176,0.576,34,[],[],"[(1100, 866)]",[],[1],[35],[0.5833333333333334],"[640.0, 512.0]",horizontal,"(390.0, 762.0)",[1.5],[0.545],1,1377.173
3,False,177,0.618,37,[],[],"[(1108, 853)]",[],[1],[39],[0.65],"[640.0, 512.0]",horizontal,"(890.0, 262.0)",[0.6166666666666667],[0.615],1,1381.981
3,False,178,1.035,62,[],[],"[(1111, 858)]",[],[1],[34],[0.5666666666666667],"[640.0, 512.0]",horizontal,"(890.0, 262.0)",[1.1333333333333333],[0.531],1,1386.09
3,False,179,0.582,34,[],[],"[(1100, 870)]",[],[1],[41],[0.6833333333333333],"[640.0, 512.0]",vertical,"(390.0, 762.0)",[1.4333333333333333],[0.636],1,1390.79
3,False,180,0.555,33,[],[],"[(1115, 859)]",[],[1],[41],[0.6833333333333333],"[640.0, 512.0]",horizontal,"(890.0, 262.0)",[0.5],[0.645],1,1395.515
4,False,181,1.178,70,[],[],"[(1107, 855)]",[],[1],[38],[0.6333333333333333],"[640.0, 512.0]",horizontal,"(390.0, 762.0)",[1.4],[0.593],1,1399.341
4,False,182,0.922,55,[],[],"[(1081, 860)]",[],[1],[30],[0.5],"[640.0, 512.0]",horizontal,"(390.0, 762.0)",[1.6666666666666667],[0.466],1,1404.651
4,False,183,0.82,49,[],[],"[(1072, 867)]",[],[1],[34],[0.5666666666666667],"[640.0, 512.0]",vertical,"(390.0, 762.0)",[1.1333333333333333],[0.532],1,1409.722
4,False,184,1.062,63,[],[],"[(1081, 857)]",[],[1],[30],[0.5],"[640.0, 512.0]",horizontal,"(390.0, 262.0)",[0.7],[0.458],1,1414.508
4,False,185,0.777,46,[],[],"[(1072, 858)]",[],[1],[34],[0.5666666666666667],"[640.0, 512.0]",horizontal,"(390.0, 262.0)",[0.9833333333333333],[0.519],1,1419.078
4,False,186,0.917,55,[],[],"[(1104, 864)]",[],[1],[29],[0.48333333333333334],"[640.0, 512.0]",vertical,"(890.0, 262.0)",[1.3333333333333333],[0.44],1,1423.469
4,False,187,0.984,59,[],[],"[(1109, 843)]",[],[1],[32],[0.5333333333333333],"[640.0, 512.0]",horizontal,"(390.0, 762.0)",[1.35],[0.493],1,1428.414
4,False,188,0.975,58,[],[],"[(1104, 857)]",[],[1],[40],[0.6666666666666666],"[640.0, 512.0]",vertical,"(390.0, 762.0)",[0.6333333333333333],[0.623],1,1433.305
4,False,189,0.735,44,[],[],"[(1108, 852)]",[],[1],[34],[0.5666666666666667],"[640.0, 512.0]",vertical,"(890.0, 262.0)",[1.0],[0.527],1,1437.512
4,False,190,0.608,36,[],[],"[(1091, 855)]",[],[1],[35],[0.5833333333333334],"[640.0, 512.0]",vertical,"(890.0, 762.0)",[1.5666666666666667],[0.537],1,1441.879
4,False,191,0.578,34,[],[],"[(1105, 863)]",[],[1],[40],[0.6666666666666666],"[640.0, 512.0]",vertical,"(390.0, 262.0)",[0.8166666666666667],[0.624],1,1446.525
4,False,192,1.118,67,[],[],"[(1082, 859)]",[],[1],[31],[0.5166666666666666],"[640.0, 512.0]",vertical,"(390.0, 262.0)",[0.7666666666666666],[0.478],1,1450.525
4,False,193,0.732,43,[],[],"[(1072, 872)]",[],[1],[38],[0.6333333333333333],"[640.0, 512.0]",horizontal,"(390.0, 762.0)",[0.9666666666666667],[0.598],1,1454.893
4,False,194,0.56,33,[],[],"[(1081, 866)]",[],[1],[35],[0.5833333333333334],"[640.0, 512.0]",horizontal,"(390.0, 262.0)",[0.7166666666666667],[0.555],1,1459.285
4,False,195,0.715,42,[],[],"[(1120, 877)]",[],[1],[38],[0.6333333333333333],"[640.0, 512.0]",horizontal,"(390.0, 262.0)",[1.05],[0.587],1,1463.212
4,False,196,1.125,67,[],[],"[(1114, 858)]",[],[1],[33],[0.55],"[640.0, 512.0]",vertical,"(390.0, 262.0)",[0.7833333333333333],[0.508],1,1467.737
4,False,197,0.528,31,[],[],"[(1091, 868)]",[],[1],[33],[0.55],"[640.0, 512.0]",vertical,"(890.0, 762.0)",[1.15],[0.507],1,1472.128
4,False,198,1.135,68,[],[],"[(1110, 851)]",[],[1],[33],[0.55],"[640.0, 512.0]",vertical,"(390.0, 262.0)",[0.9666666666666667],[0.514],1,1476.232
4,False,199,0.547,32,[],[],"[(1101, 859)]",[],[1],[40],[0.6666666666666666],"[640.0, 512.0]",vertical,"(390.0, 762.0)",[0.5666666666666667],[0.625],1,1480.824
4,False,200,1.097,65,[],[],"[(1096, 856)]",[],[1],[33],[0.55],"[640.0, 512.0]",horizontal,"(390.0, 762.0)",[1.3333333333333333],[0.511],1,1484.587
4,False,201,0.817,49,[],[],"[(1107, 849)]",[],[1],[33],[0.55],"[640.0, 512.0]",horizontal,"(390.0, 262.0)",[1.6666666666666667],[0.508],1,1489.476
4,False,202,1.026,61,[],[],"[(1107, 849)]",[],[1],[37],[0.6166666666666667],"[640.0, 512.0]",horizontal,"(890.0, 762.0)",[0.85],[0.578],1,1494.522
4,False,203,1.19,71,[],[],"[(1110, 844)]",[],[1],[32],[0.5333333333333333],"[640.0, 512.0]",horizontal,"(890.0, 262.0)",[1.6666666666666667],[0.491],1,1499.124
4,False,204,0.514,30,[],[],"[(1118, 851)]",[],[1],[33],[0.55],"[640.0, 512.0]",horizontal,"(890.0, 262.0)",[0.6833333333333333],[0.509],1,1504.575
4,False,205,0.57,34,[],[],"[(1073, 875)]",[],[1],[33],[0.55],"[640.0, 512.0]",vertical,"(390.0, 762.0)",[1.2333333333333334],[0.51],1,1508.375
4,False,206,1.005,60,[],[],"[(1105, 850)]",[],[1],[34],[0.5666666666666667],"[640.0, 512.0]",horizontal,"(390.0, 762.0)",[1.4666666666666666],[0.526],1,1512.777
4,False,207,1.135,68,[],[],"[(1079, 851)]",[],[1],[33],[0.55],"[640.0, 512.0]",vertical,"(390.0, 262.0)",[0.9166666666666666],[0.511],1,1517.896
4,False,208,0.798,47,[],[],"[(1115, 863)]",[],[1],[51],[0.85],"[640.0, 512.0]",vertical,"(390.0, 262.0)",[0.8833333333333333],[0.81],0,1522.595
4,False,209,1.057,63,[],[],"[(1109, 852)]",[],[1],[31],[0.5166666666666666],"[640.0, 512.0]",vertical,"(890.0, 762.0)",[1.5166666666666666],[0.484],1,1527.209
4,False,210,1.092,65,[],[],"[(1088, 841)]",[],[1],[32],[0.5333333333333333],"[640.0, 512.0]",vertical,"(390.0, 262.0)",[1.6666666666666667],[0.496],1,1532.324
4,False,211,1.194,71,[],[],"[(1118, 855)]",[],[1],[33],[0.55],"[640.0, 512.0]",horizontal,"(390.0, 762.0)",[0.5833333333333334],[0.511],1,1537.641
4,False,212,0.763,45,[],[],"[(1110, 857)]",[],[1],[32],[0.5333333333333333],"[640.0, 512.0]",horizontal,"(390.0, 262.0)",[0.6833333333333333],[0.495],1,1541.865
4,False,213,1.049,62,[],[],"[(1093, 849)]",[],[1],[33],[0.55],"[640.0, 512.0]",vertical,"(890.0, 762.0)",[0.9],[0.507],1,1545.878
4,False,214,0.865,51,[],[],"[(1105, 852)]",[],[1],[32],[0.5333333333333333],"[640.0, 512.0]",horizontal,"(890.0, 262.0)",[1.5833333333333333],[0.493],1,1550.406
4,False,215,1.07,64,[],[],"[(1115, 846)]",[],[1],[33],[0.55],"[640.0, 512.0]",vertical,"(890.0, 262.0)",[1.15],[0.513],1,1555.358
4,False,216,0.639,38,[],[],"[(1115, 852)]",[],[1],[33],[0.55],"[640.0, 512.0]",horizontal,"(890.0, 762.0)",[1.2],[0.51],1,1560.14
4,False,217,1.052,63,[],[],"[(1083, 848)]",[],[1],[35],[0.5833333333333334],"[640.0, 512.0]",horizontal,"(390.0, 762.0)",[0.5],[0.545],1,1564.627
4,False,218,0.805,48,[],[],"[(1105, 878)]",[],[1],[40],[0.6666666666666666],"[640.0, 512.0]",horizontal,"(390.0, 262.0)",[0.85],[0.621],1,1569.107
4,False,219,0.663,39,[],[],"[(1110, 861)]",[],[1],[31],[0.5166666666666666],"[640.0, 512.0]",horizontal,"(890.0, 262.0)",[0.8],[0.481],1,1573.314
4,False,220,0.767,46,[],[],"[(1087, 862)]",[],[1],[33],[0.55],"[640.0, 512.0]",horizontal,"(890.0, 762.0)",[0.7666666666666666],[0.515],1,1577.427
4,False,221,0.648,38,[],[],"[(1081, 852)]",[],[1],[32],[0.5333333333333333],"[640.0, 512.0]",vertical,"(390.0, 762.0)",[1.5],[0.496],1,1581.558
4,False,222,0.634,38,[],[],"[(1083, 853)]",[],[1],[34],[0.5666666666666667],"[640.0, 512.0]",horizontal,"(390.0, 762.0)",[0.65],[0.527],1,1586.326
4,False,223,0.643,38,[],[],"[(1081, 851)]",[],[1],[33],[0.55],"[640.0, 512.0]",horizontal,"(890.0, 262.0)",[0.7666666666666666],[0.509],1,1590.159
4,False,224,0.688,41,[],[],"[(1096, 867)]",[],[1],[41],[0.6833333333333333],"[640.0, 512.0]",vertical,"(890.0, 262.0)",[1.05],[0.641],1,1594.159
4,False,225,0.771,46,[],[],"[(1086, 849)]",[],[1],[37],[0.6166666666666667],"[640.0, 512.0]",vertical,"(390.0, 762.0)",[0.5833333333333334],[0.575],1,1598.773
4,False,226,0.759,45,[],[],"[(1110, 849)]",[],[1],[29],[0.48333333333333334],"[640.0, 512.0]",vertical,"(390.0, 262.0)",[0.9166666666666666],[0.446],1,1602.806
4,False,227,0.613,36,[],[],"[(1102, 864)]",[],[1],[36],[0.6],"[640.0, 512.0]",vertical,"(890.0, 262.0)",[1.3333333333333333],[0.557],1,1607.043
4,False,228,0.844,50,[],[],"[(1113, 858)]",[],[1],[35],[0.5833333333333334],"[640.0, 512.0]",horizontal,"(890.0, 262.0)",[1.0666666666666667],[0.537],1,1611.646
4,False,229,0.79,47,[],[],"[(1076, 862)]",[],[1],[34],[0.5666666666666667],"[640.0, 512.0]",vertical,"(390.0, 262.0)",[1.0166666666666666],[0.524],1,1616.236
4,False,230,0.888,53,[],[],"[(1109, 848)]",[],[1],[36],[0.6],"[640.0, 512.0]",vertical,"(890.0, 262.0)",[1.0],[0.559],1,1622.146
4,False,231,0.774,46,[],[],"[(1110, 852)]",[],[1],[36],[0.6],"[640.0, 512.0]",vertical,"(390.0, 262.0)",[1.0],[0.559],1,1626.746
4,False,232,1.158,69,[],[],"[(1091, 850)]",[],[1],[34],[0.5666666666666667],"[640.0, 512.0]",horizontal,"(890.0, 262.0)",[0.75],[0.525],1,1631.252
4,False,233,0.543,32,[],[],"[(1115, 867)]",[],[1],[42],[0.7],"[640.0, 512.0]",vertical,"(890.0, 262.0)",[0.6833333333333333],[0.658],1,1635.988
4,False,234,0.83,49,[],[],"[(1100, 849)]",[],[1],[33],[0.55],"[640.0, 512.0]",horizontal,"(890.0, 762.0)",[0.8333333333333334],[0.514],1,1639.979
4,False,235,1.124,67,[],[],"[(1103, 869)]",[],[1],[37],[0.6166666666666667],"[640.0, 512.0]",vertical,"(890.0, 762.0)",[0.5],[0.577],1,1644.295
4,False,236,0.784,47,[],[],"[(1128, 863)]",[],[1],[51],[0.85],"[640.0, 512.0]",horizontal,"(390.0, 262.0)",[1.25],[0.812],0,1648.5
4,False,237,0.958,57,[],[],"[(1096, 831)]",[],[1],[32],[0.5333333333333333],"[640.0, 512.0]",horizontal,"(890.0, 262.0)",[1.6166666666666667],[0.49],1,1653.656
4,False,238,1.186,71,[],[],"[(1096, 843)]",[],[1],[34],[0.5666666666666667],"[640.0, 512.0]",horizontal,"(390.0, 262.0)",[1.25],[0.52],1,1659.325
4,False,239,1.021,61,[],[],"[(1104, 852)]",[],[1],[31],[0.5166666666666666],"[640.0, 512.0]",horizontal,"(390.0, 262.0)",[1.0833333333333333],[0.479],1,1664.476
4,False,240,0.515,30,[],[],"[(1100, 852)]",[],[1],[34],[0.5666666666666667],"[640.0, 512.0]",horizontal,"(890.0, 762.0)",[1.6666666666666667],[0.533],1,1669.113
5,False,241,1.137,68,[],[],"[(1107, 839)]",[],[1],[30],[0.5],"[640.0, 512.0]",vertical,"(390.0, 262.0)",[0.8],[0.456],1,1673.889
5,False,242,0.836,50,[],[],"[(1124, 849)]",[],[1],[34],[0.5666666666666667],"[640.0, 512.0]",horizontal,"(890.0, 762.0)",[0.8333333333333334],[0.526],1,1678.389
5,False,243,0.975,58,[],[],"[(1072, 848)]",[],[1],[36],[0.6],"[640.0, 512.0]",horizontal,"(890.0, 262.0)",[1.6333333333333333],[0.566],1,1682.566
5,False,244,1.043,62,[],[],"[(1100, 864)]",[],[1],[41],[0.6833333333333333],"[640.0, 512.0]",vertical,"(390.0, 262.0)",[0.5333333333333333],[0.644],1,1687.883
5,False,245,0.672,40,[],[],"[(1117, 848)]",[],[1],[38],[0.6333333333333333],"[640.0, 512.0]",horizontal,"(390.0, 762.0)",[1.4],[0.591],1,1692.188
5,False,246,0.75,45,[],[],"[(1096, 852)]",[],[1],[30],[0.5],"[640.0, 512.0]",horizontal,"(390.0, 262.0)",[1.65],[0.458],1,1696.869
5,False,247,1.193,71,[],[],"[(1100, 849)]",[],[1],[31],[0.5166666666666666],"[640.0, 512.0]",horizontal,"(890.0, 262.0)",[1.5166666666666666],[0.475],1,1701.815
5,False,248,1.053,63,[],[],"[(1088, 833)]",[],[1],[34],[0.5666666666666667],"[640.0, 512.0]",vertical,"(890.0, 762.0)",[0.5333333333333333],[0.529],1,1707.077
5,False,249,0.795,47,[],[],"[(1115, 839)]",[],[1],[37],[0.6166666666666667],"[640.0, 512.0]",horizontal,"(390.0, 762.0)",[0.9833333333333333],[0.579],1,1711.146
5,False,250,0.657,39,[],[],"[(1082, 852)]",[],[1],[34],[0.5666666666666667],"[640.0, 512.0]",vertical,"(390.0, 262.0)",[1.6833333333333333],[0.523],1,1715.599
5,False,251,1.011,60,[],[],"[(1085, 842)]",[],[1],[32],[0.5333333333333333],"[640.0, 512.0]",vertical,"(390.0, 262.0)",[1.1833333333333333],[0.49],1,1720.546
5,False,252,0.567,34,[],[],"[(1113, 856)]",[],[1],[32],[0.5333333333333333],"[640.0, 512.0]",horizontal,"(390.0, 762.0)",[0.7666666666666666],[0.492],1,1725.198
5,False,253,0.5,30,[],[],"[(1081, 856)]",[],[1],[31],[0.5166666666666666],"[640.0, 512.0]",horizontal,"(890.0, 262.0)",[0.9],[0.476],1,1729.181
5,False,254,0.817,49,[],[],"[(1087, 844)]",[],[1],[32],[0.5333333333333333],"[640.0, 512.0]",horizontal,"(390.0, 762.0)",[1.5833333333333333],[0.493],1,1733.187
5,False,255,0.591,35,[],[],"[(1072, 848)]",[],[1],[34],[0.5666666666666667],"[640.0, 512.0]",horizontal,"(390.0, 262.0)",[1.4833333333333334],[0.523],1,1738.186
5,False,256,1.017,61,[],[],"[(1086, 851)]",[],[1],[33],[0.55],"[640.0, 512.0]",horizontal,"(390.0, 262.0)",[1.3333333333333333],[0.511],1,1742.694
5,False,257,0.923,55,[],[],"[(1077, 861)]",[],[1],[29],[0.48333333333333334],"[640.0, 512.0]",horizontal,"(390.0, 262.0)",[1.4833333333333334],[0.442],1,1747.873
5,False,258,0.912,54,[],[],"[(1126, 863)]",[],[1],[31],[0.5166666666666666],"[640.0, 512.0]",vertical,"(890.0, 262.0)",[1.6333333333333333],[0.483],1,1752.831
5,False,259,0.886,53,[],[],"[(1120, 841)]",[],[1],[44],[0.7333333333333333],"[640.0, 512.0]",horizontal,"(390.0, 262.0)",[1.1166666666666667],[0.699],1,1758.13
5,False,260,0.926,55,[],[],"[(1121, 847)]",[],[1],[31],[0.5166666666666666],"[640.0, 512.0]",horizontal,"(890.0, 262.0)",[1.4],[0.479],1,1762.96
5,False,261,0.954,57,[],[],"[(1121, 849)]",[],[1],[34],[0.5666666666666667],"[640.0, 512.0]",horizontal,"(390.0, 762.0)",[0.9666666666666667],[0.524],1,1767.803
5,False,262,0.745,44,[],[],"[(1120, 863)]",[],[1],[34],[0.5666666666666667],"[640.0, 512.0]",vertical,"(890.0, 762.0)",[0.8166666666666667],[0.526],1,1772.317
5,False,263,0.714,42,[],[],"[(1096, 844)]",[],[1],[32],[0.5333333333333333],"[640.0, 512.0]",horizontal,"(390.0, 262.0)",[0.9833333333333333],[0.491],1,1776.554
5,False,264,1.031,61,[],[],"[(1088, 838)]",[],[1],[39],[0.65],"[640.0, 512.0]",horizontal,"(390.0, 762.0)",[1.5666666666666667],[0.606],1,1780.791
5,False,265,0.543,32,[],[],"[(1081, 841)]",[],[1],[32],[0.5333333333333333],"[640.0, 512.0]",vertical,"(890.0, 262.0)",[0.9],[0.493],1,1785.996
5,False,266,1.093,65,[],[],"[(1085, 868)]",[],[1],[32],[0.5333333333333333],"[640.0, 512.0]",vertical,"(890.0, 762.0)",[1.1833333333333333],[0.498],1,1789.914
5,False,267,0.66,39,[],[],"[(1103, 841)]",[],[1],[12],[0.2],"[640.0, 512.0]",horizontal,"(390.0, 262.0)",[1.55],[0.166],1,1794.994
5,False,268,0.565,33,[],[],"[(1081, 842)]",[],[1],[34],[0.5666666666666667],"[640.0, 512.0]",vertical,"(390.0, 762.0)",[1.65],[0.53],1,1799.324
5,False,269,1.134,68,[],[],"[(1076, 843)]",[],[1],[40],[0.6666666666666666],"[640.0, 512.0]",vertical,"(890.0, 262.0)",[0.5166666666666666],[0.623],1,1804.068
5,False,270,1.063,63,[],[],"[(1115, 830)]",[],[1],[37],[0.6166666666666667],"[640.0, 512.0]",vertical,"(890.0, 762.0)",[0.9],[0.574],1,1808.498
5,False,271,0.997,59,[],[],"[(1073, 854)]",[],[1],[33],[0.55],"[640.0, 512.0]",vertical,"(890.0, 262.0)",[0.7166666666666667],[0.511],1,1813.194
5,False,272,1.149,68,[],[],"[(1072, 857)]",[],[1],[34],[0.5666666666666667],"[640.0, 512.0]",horizontal,"(890.0, 762.0)",[1.2166666666666666],[0.533],1,1817.592
5,False,273,0.68,40,[],[],"[(1072, 852)]",[],[1],[31],[0.5166666666666666],"[640.0, 512.0]",horizontal,"(390.0, 262.0)",[1.45],[0.479],1,1822.774
5,False,274,1.153,69,[],[],"[(1072, 847)]",[],[1],[34],[0.5666666666666667],"[640.0, 512.0]",horizontal,"(390.0, 262.0)",[0.6666666666666666],[0.528],1,1827.292
5,False,275,1.109,66,[],[],"[(1077, 843)]",[],[1],[34],[0.5666666666666667],"[640.0, 512.0]",horizontal,"(890.0, 762.0)",[1.0833333333333333],[0.528],1,1832.457
5,False,276,1.195,71,[],[],"[(1104, 862)]",[],[1],[35],[0.5833333333333334],"[640.0, 512.0]",horizontal,"(890.0, 762.0)",[1.65],[0.54],1,1837.34
5,False,277,0.539,32,[],[],"[(1072, 857)]",[],[1],[32],[0.5333333333333333],"[640.0, 512.0]",horizontal,"(390.0, 762.0)",[0.75],[0.497],1,1842.821
5,False,278,0.558,33,[],[],"[(1081, 851)]",[],[1],[33],[0.55],"[640.0, 512.0]",horizontal,"(390.0, 262.0)",[0.9666666666666667],[0.507],1,1846.634
5,False,279,0.973,58,[],[],"[(1073, 857)]",[],[1],[34],[0.5666666666666667],"[640.0, 512.0]",horizontal,"(390.0, 762.0)",[1.05],[0.524],1,1850.675
5,False,280,0.637,38,[],[],"[(1094, 836)]",[],[1],[35],[0.5833333333333334],"[640.0, 512.0]",vertical,"(890.0, 262.0)",[1.1833333333333333],[0.54],1,1855.304
5,False,281,0.995,59,[],[],"[(1109, 852)]",[],[1],[44],[0.7333333333333333],"[640.0, 512.0]",vertical,"(390.0, 262.0)",[1.25],[0.695],1,1859.776
5,False,282,0.908,54,[],[],"[(1076, 843)]",[],[1],[33],[0.55],"[640.0, 512.0]",horizontal,"(390.0, 762.0)",[0.9333333333333333],[0.511],1,1864.787
5,False,283,0.648,38,[],[],"[(1076, 846)]",[],[1],[33],[0.55],"[640.0, 512.0]",vertical,"(390.0, 762.0)",[1.6333333333333333],[0.512],1,1869.582
5,False,284,0.52,31,[],[],"[(1096, 850)]",[],[1],[33],[0.55],"[640.0, 512.0]",horizontal,"(390.0, 762.0)",[0.7],[0.511],1,1874.396
5,False,285,1.068,64,[],[],"[(1103, 849)]",[],[1],[34],[0.5666666666666667],"[640.0, 512.0]",vertical,"(890.0, 762.0)",[1.5166666666666666],[0.537],1,1878.15
5,False,286,0.528,31,[],[],"[(1125, 848)]",[],[1],[33],[0.55],"[640.0, 512.0]",horizontal,"(890.0, 262.0)",[1.6166666666666667],[0.505],1,1883.498
5,False,287,0.905,54,[],[],"[(1098, 843)]",[],[1],[41],[0.6833333333333333],"[640.0, 512.0]",horizontal,"(390.0, 262.0)",[1.5333333333333332],[0.644],1,1888.398
5,False,288,0.842,50,[],[],"[(1072, 843)]",[],[1],[32],[0.5333333333333333],"[640.0, 512.0]",vertical,"(390.0, 262.0)",[1.6333333333333333],[0.495],1,1893.381
5,False,289,0.964,57,[],[],"[(1110, 821)]",[],[1],[35],[0.5833333333333334],"[640.0, 512.0]",vertical,"(390.0, 762.0)",[0.7833333333333333],[0.545],1,1898.522
5,False,290,0.996,59,[],[],"[(1057, 858)]",[],[1],[37],[0.6166666666666667],"[640.0, 512.0]",vertical,"(890.0, 262.0)",[1.3166666666666667],[0.578],1,1902.836
5,False,291,0.855,51,[],[],"[(1088, 847)]",[],[1],[34],[0.5666666666666667],"[640.0, 512.0]",horizontal,"(890.0, 762.0)",[0.55],[0.525],1,1907.715
5,False,292,0.877,52,[],[],"[(1082, 849)]",[],[1],[34],[0.5666666666666667],"[640.0, 512.0]",vertical,"(390.0, 762.0)",[1.5166666666666666],[0.528],1,1911.633
5,False,293,0.656,39,[],[],"[(1077, 843)]",[],[1],[32],[0.5333333333333333],"[640.0, 512.0]",vertical,"(890.0, 262.0)",[0.9],[0.496],1,1916.493
5,False,294,0.54,32,[],[],"[(1115, 846)]",[],[1],[34],[0.5666666666666667],"[640.0, 512.0]",vertical,"(890.0, 262.0)",[1.35],[0.525],1,1920.638
5,False,295,0.516,30,[],[],"[(1096, 859)]",[],[1],[40],[0.6666666666666666],"[640.0, 512.0]",vertical,"(890.0, 762.0)",[1.5333333333333332],[0.626],1,1925.194
5,False,296,0.551,33,[],[],"[(1110, 843)]",[],[1],[36],[0.6],"[640.0, 512.0]",horizontal,"(890.0, 762.0)",[1.5833333333333333],[0.558],1,1929.942
5,False,297,1.142,68,[],[],"[(1114, 867)]",[],[1],[36],[0.6],"[640.0, 512.0]",vertical,"(890.0, 262.0)",[0.5666666666666667],[0.564],1,1934.698
5,False,298,0.664,39,[],[],"[(1076, 846)]",[],[1],[34],[0.5666666666666667],"[640.0, 512.0]",horizontal,"(390.0, 262.0)",[1.1],[0.534],1,1939.115
5,False,299,0.69,41,[],[],"[(1122, 839)]",[],[1],[34],[0.5666666666666667],"[640.0, 512.0]",horizontal,"(890.0, 762.0)",[1.3166666666666667],[0.529],1,1943.3
5,False,300,0.782,46,[],[],"[(1082, 837)]",[],[1],[38],[0.6333333333333333],"[640.0, 512.0]",horizontal,"(390.0, 762.0)",[0.9833333333333333],[0.596],1,1947.89
6,False,301,0.873,52,[],[],"[(1091, 843)]",[],[1],[32],[0.5333333333333333],"[640.0, 512.0]",horizontal,"(390.0, 762.0)",[1.6333333333333333],[0.492],1,1952.327
6,False,302,0.705,42,[],[],"[(1114, 851)]",[],[1],[38],[0.6333333333333333],"[640.0, 512.0]",vertical,"(890.0, 762.0)",[0.8833333333333333],[0.593],1,1957.264
6,False,303,0.655,39,[],[],"[(1096, 852)]",[],[1],[39],[0.65],"[640.0, 512.0]",horizontal,"(890.0, 262.0)",[0.85],[0.611],1,1961.484
6,False,304,0.702,42,[],[],"[(1132, 854)]",[],[1],[38],[0.6333333333333333],"[640.0, 512.0]",horizontal,"(390.0, 262.0)",[0.6],[0.593],1,1965.681
6,False,305,1.096,65,[],[],"[(1099, 869)]",[],[1],[31],[0.5166666666666666],"[640.0, 512.0]",vertical,"(390.0, 262.0)",[1.25],[0.481],1,1969.817
6,False,306,0.645,38,[],[],"[(1117, 841)]",[],[1],[31],[0.5166666666666666],"[640.0, 512.0]",horizontal,"(390.0, 262.0)",[0.9333333333333333],[0.475],1,1974.681
6,False,307,1.151,69,[],[],"[(1127, 839)]",[],[1],[37],[0.6166666666666667],"[640.0, 512.0]",vertical,"(890.0, 262.0)",[1.5833333333333333],[0.577],1,1978.951
6,False,308,0.798,47,[],[],"[(1092, 835)]",[],[1],[33],[0.55],"[640.0, 512.0]",horizontal,"(890.0, 262.0)",[1.3666666666666667],[0.511],1,1984.35
6,False,309,0.605,36,[],[],"[(1115, 828)]",[],[1],[39],[0.65],"[640.0, 512.0]",vertical,"(890.0, 762.0)",[0.6],[0.607],1,1989.352
6,False,310,0.825,49,[],[],"[(1081, 842)]",[],[1],[37],[0.6166666666666667],"[640.0, 512.0]",vertical,"(890.0, 762.0)",[1.2833333333333332],[0.577],1,1993.264
6,False,311,0.701,42,[],[],"[(1072, 857)]",[],[1],[34],[0.5666666666666667],"[640.0, 512.0]",horizontal,"(390.0, 762.0)",[1.25],[0.54],1,1998.374
6,False,312,0.94,56,[],[],"[(1128, 855)]",[],[1],[41],[0.6833333333333333],"[640.0, 512.0]",vertical,"(390.0, 762.0)",[0.6833333333333333],[0.64],1,2002.955
6,False,313,0.709,42,[],[],"[(1095, 845)]",[],[1],[36],[0.6],"[640.0, 512.0]",horizontal,"(890.0, 262.0)",[1.4833333333333334],[0.561],1,2007.395
6,False,314,0.757,45,[],[],"[(1114, 838)]",[],[1],[34],[0.5666666666666667],"[640.0, 512.0]",vertical,"(890.0, 762.0)",[0.6333333333333333],[0.527],1,2012.343
6,False,315,0.596,35,[],[],"[(1096, 860)]",[],[1],[38],[0.6333333333333333],"[640.0, 512.0]",vertical,"(890.0, 262.0)",[1.4333333333333333],[0.588],1,2016.352
6,False,316,1.178,70,[],[],"[(1076, 854)]",[],[1],[38],[0.6333333333333333],"[640.0, 512.0]",horizontal,"(890.0, 762.0)",[0.6166666666666667],[0.596],1,2021.115
6,False,317,1.145,68,[],[],"[(1104, 838)]",[],[1],[33],[0.55],"[640.0, 512.0]",horizontal,"(890.0, 762.0)",[0.6],[0.505],1,2025.566
6,False,318,1.02,61,[],[],"[(1092, 829)]",[],[1],[32],[0.5333333333333333],"[640.0, 512.0]",horizontal,"(390.0, 762.0)",[1.5333333333333332],[0.498],1,2029.946
6,False,319,0.786,47,[],[],"[(1078, 864)]",[],[1],[36],[0.6],"[640.0, 512.0]",horizontal,"(890.0, 762.0)",[0.6333333333333333],[0.56],1,2035.108
6,False,320,0.549,32,[],[],"[(1076, 849)]",[],[1],[36],[0.6],"[640.0, 512.0]",vertical,"(890.0, 262.0)",[1.6666666666666667],[0.562],1,2043.381
6,False,321,0.612,36,[],[],"[(1072, 841)]",[],[1],[51],[0.85],"[640.0, 512.0]",horizontal,"(390.0, 262.0)",[0.9833333333333333],[0.807],0,2048.215
6,False,322,0.69,41,[],[],"[(1102, 867)]",[],[1],[36],[0.6],"[640.0, 512.0]",horizontal,"(890.0, 762.0)",[1.6],[0.561],1,2052.803
6,False,323,0.719,43,[],[],"[(1072, 838)]",[],[1],[33],[0.55],"[640.0, 512.0]",horizontal,"(390.0, 262.0)",[1.0833333333333333],[0.519],1,2082.4
6,False,324,0.889,53,[],[],"[(1072, 846)]",[],[1],[34],[0.5666666666666667],"[640.0, 512.0]",vertical,"(890.0, 762.0)",[1.3666666666666667],[0.523],1,2086.662
6,False,325,0.519,31,[],[],"[(1072, 829)]",[],[1],[33],[0.55],"[640.0, 512.0]",vertical,"(890.0, 762.0)",[0.7],[0.51],1,2091.444
6,False,326,0.675,40,[],[],"[(1079, 856)]",[],[1],[34],[0.5666666666666667],"[640.0, 512.0]",vertical,"(390.0, 262.0)",[1.3333333333333333],[0.524],1,2095.166
6,False,327,0.999,59,[],[],"[(1091, 837)]",[],[1],[33],[0.55],"[640.0, 512.0]",horizontal,"(890.0, 762.0)",[1.35],[0.508],1,2099.58
6,False,328,0.806,48,[],[],"[(1077, 850)]",[],[1],[33],[0.55],"[640.0, 512.0]",vertical,"(890.0, 762.0)",[1.0833333333333333],[0.508],1,2104.585
6,False,329,0.608,36,[],[],"[(1072, 828)]",[],[1],[32],[0.5333333333333333],"[640.0, 512.0]",horizontal,"(390.0, 762.0)",[1.6666666666666667],[0.497],1,2109.331
6,False,330,1.1,66,[],[],"[(1033, 850)]",[],[1],[36],[0.6],"[640.0, 512.0]",horizontal,"(890.0, 762.0)",[1.2833333333333332],[0.557],1,2113.979
6,False,331,1.196,71,[],[],"[(1115, 847)]",[],[1],[35],[0.5833333333333334],"[640.0, 512.0]",horizontal,"(390.0, 762.0)",[1.4],[0.546],1,2118.944
6,False,332,1.12,67,[],[],"[(1096, 836)]",[],[1],[30],[0.5],"[640.0, 512.0]",vertical,"(890.0, 762.0)",[0.6833333333333333],[0.46],1,2124.01
6,False,333,0.577,34,[],[],"[(1088, 830)]",[],[1],[],[],"[640.0, 512.0]",vertical,"(390.0, 262.0)",[],[0],0,2136.014
6,False,334,0.578,34,[],[],"[(1129, 835)]",[],[1],[],[],"[640.0, 512.0]",horizontal,"(890.0, 762.0)",[],[0],0,2139.252
6,False,335,0.835,50,[],[],"[(1105, 818)]",[],[1],[31],[0.5166666666666666],"[640.0, 512.0]",horizontal,"(890.0, 762.0)",[1.2666666666666666],[0.484],1,2143.598
6,False,336,1.179,70,[],[],"[(1096, 826)]",[],[1],[30],[0.5],"[640.0, 512.0]",vertical,"(890.0, 762.0)",[0.9333333333333333],[0.46],1,2148.376
6,False,337,1.105,66,[],[],"[(1072, 829)]",[],[1],[33],[0.55],"[640.0, 512.0]",horizontal,"(390.0, 762.0)",[1.25],[0.514],1,2152.997
6,False,338,0.772,46,[],[],"[(1081, 834)]",[],[1],[32],[0.5333333333333333],"[640.0, 512.0]",horizontal,"(890.0, 262.0)",[1.25],[0.492],1,2157.795
6,False,339,0.556,33,[],[],"[(1124, 850)]",[],[1],[],[],"[640.0, 512.0]",vertical,"(890.0, 262.0)",[],[0],0,2162.267
6,False,340,1.198,71,[],[],"[(1110, 849)]",[],[1],[],[],"[640.0, 512.0]",horizontal,"(890.0, 762.0)",[],[0],0,2166.421
6,False,341,0.502,30,[],[],"[(1123, 833)]",[],[1],[4],[0.06666666666666667],"[640.0, 512.0]",vertical,"(390.0, 262.0)",[1.6833333333333333],[0.035],1,2171.356
6,False,342,0.945,56,[],[],"[(1105, 846)]",[],[1],[31],[0.5166666666666666],"[640.0, 512.0]",horizontal,"(890.0, 762.0)",[0.75],[0.475],1,2175.715
6,False,343,0.796,47,[],[],"[(1117, 836)]",[],[1],[31],[0.5166666666666666],"[640.0, 512.0]",vertical,"(890.0, 262.0)",[1.45],[0.477],1,2180.03
6,False,344,1.195,71,[],[],"[(1114, 824)]",[],[1],[],[],"[640.0, 512.0]",horizontal,"(390.0, 262.0)",[],[0],0,2184.859
6,False,345,1.049,62,[],[],"[(1076, 841)]",[],[1],[34],[0.5666666666666667],"[640.0, 512.0]",vertical,"(390.0, 262.0)",[0.6833333333333333],[0.526],1,2189.266
6,False,346,1.104,66,[],[],"[(1102, 829)]",[],[1],[32],[0.5333333333333333],"[640.0, 512.0]",vertical,"(890.0, 262.0)",[0.8333333333333334],[0.494],1,2198.225
6,False,347,1.143,68,[],[],"[(1096, 850)]",[],[1],[45],[0.75],"[640.0, 512.0]",horizontal,"(390.0, 762.0)",[1.6666666666666667],[0.709],1,2202.642
6,False,348,0.58,34,[],[],"[(1101, 838)]",[],[1],[],[],"[640.0, 512.0]",horizontal,"(390.0, 262.0)",[],[0],0,2208.635
6,False,349,0.882,52,[],[],"[(1082, 852)]",[],[1],[32],[0.5333333333333333],"[640.0, 512.0]",horizontal,"(390.0, 762.0)",[1.4833333333333334],[0.496],1,2212.357
6,False,350,0.776,46,[],[],"[(1111, 833)]",[],[1],[30],[0.5],"[640.0, 512.0]",vertical,"(890.0, 262.0)",[1.3333333333333333],[0.468],1,2218.148
6,False,351,1.156,69,[],[],"[(1106, 844)]",[],[1],[30],[0.5],"[640.0, 512.0]",vertical,"(890.0, 262.0)",[0.7166666666666667],[0.463],1,2222.915
6,False,352,0.558,33,[],[],"[(1123, 844)]",[],[1],[31],[0.5166666666666666],"[640.0, 512.0]",horizontal,"(890.0, 262.0)",[1.4166666666666667],[0.473],1,2227.345
6,False,353,0.691,41,[],[],"[(1110, 856)]",[],[1],[31],[0.5166666666666666],"[640.0, 512.0]",vertical,"(890.0, 762.0)",[0.7333333333333333],[0.477],1,2231.876
6,False,354,0.82,49,[],[],"[(1110, 847)]",[],[1],[],[],"[640.0, 512.0]",vertical,"(890.0, 262.0)",[],[0],0,2235.768
6,False,355,0.564,33,[],[],"[(1077, 841)]",[],[1],[],[],"[640.0, 512.0]",vertical,"(390.0, 262.0)",[],[0],0,2239.718
6,False,356,0.586,35,[],[],"[(1125, 847)]",[],[1],[40],[0.6666666666666666],"[640.0, 512.0]",vertical,"(890.0, 262.0)",[1.5833333333333333],[0.622],1,2245.225
6,False,357,0.67,40,[],[],"[(1081, 847)]",[],[1],[33],[0.55],"[640.0, 512.0]",vertical,"(890.0, 762.0)",[1.3833333333333333],[0.51],1,2250.428
6,False,358,0.799,47,[],[],"[(1081, 843)]",[],[1],[7],[0.11666666666666667],"[640.0, 512.0]",horizontal,"(890.0, 762.0)",[1.1833333333333333],[0.086],1,2261.957
6,False,359,1.025,61,[],[],"[(986, 944), (387, 901), (888, 967), (897, 623), (946, 977), (1034, 986), (897, 851), (971, 991), (980, 996), (935, 1019), (989, 633), (970, 766), (975, 652), (106, 746), (112, 658), (189, 628), (816, 681), (440, 805), (1124, 767), (527, 695), (252, 700), (903, 699), (488, 499), (271, 691), (276, 471), (888, 705), (864, 814), (387, 714), (922, 576), (922, 825), (922, 724), (922, 833), (922, 576), (912, 575), (400, 738), (401, 738), (863, 862), (725, 736), (540, 708), (616, 733), (1057, 859)]",[],"[0, 0, 0, 0, 0, 0, 0, 0, 0, 0, 0, 0, 0, 0, 0, 0, 0, 0, 0, 0, 0, 0, 0, 0, 0, 0, 0, 0, 0, 0, 0, 0, 0, 0, 0, 0, 0, 0, 0, 0, 1]",[51],[0.85],"[640.0, 512.0]",horizontal,"(890.0, 762.0)",[1.5833333333333333],[0.809],0,2265.924
6,False,360,0.686,41,[],[],"[(883, 896), (1125, 862)]",[],"[0, 1]",[15],[0.25],"[640.0, 512.0]",horizontal,"(390.0, 762.0)",[0.9666666666666667],[0.217],1,2356.461
7,False,361,0.774,46,[],[],"[(1118, 843)]",[],[1],[33],[0.55],"[640.0, 512.0]",horizontal,"(890.0, 762.0)",[1.4666666666666666],[0.512],1,2362.277
7,False,362,1.122,67,[],[],"[(1111, 879)]",[],[1],[20],[0.3333333333333333],"[640.0, 512.0]",horizontal,"(890.0, 262.0)",[1.0666666666666667],[0.299],1,2367.197
7,False,363,0.887,53,[],[],"[(1120, 843)]",[],[1],[33],[0.55],"[640.0, 512.0]",horizontal,"(890.0, 762.0)",[0.6666666666666666],[0.513],1,2371.732
7,False,364,0.72,43,[],[],"[(1124, 847)]",[],[1],[51],[0.85],"[640.0, 512.0]",horizontal,"(390.0, 262.0)",[1.1166666666666667],[0.797],0,2375.906
7,False,365,0.563,33,[],[],"[(642, 910), (1081, 838)]",[],"[0, 1]",[49],[0.8166666666666667],"[640.0, 512.0]",horizontal,"(890.0, 762.0)",[1.15],[0.774],1,2380.477
7,False,366,0.707,42,[],[2438276],"[(857, 934), (856, 867), (787, 944), (808, 953), (777, 757), (843, 781), (838, 972), (845, 785), (1104, 852)]","[(1086, 861)]","[0, 0, 0, 0, 0, 0, 0, 0, 1]",[8],[0.13333333333333333],"[640.0, 512.0]",horizontal,"(890.0, 762.0)",[],[0],0,2410.716
7,False,367,0.793,47,[],[],"[(1102, 850)]",[],[1],[8],[0.13333333333333333],"[640.0, 512.0]",horizontal,"(390.0, 762.0)",[1.5166666666666666],[0.101],1,2426.382
7,False,368,0.672,40,[],[],"[(1067, 180), (1081, 208), (1124, 222), (1072, 146), (1188, 153), (1105, 170), (1096, 142), (840, 265), (1120, 175), (1033, 247), (1107, 882)]",[],"[0, 0, 0, 0, 0, 0, 0, 0, 0, 0, 1]",[51],[0.85],"[640.0, 512.0]",vertical,"(390.0, 762.0)",[1.3666666666666667],[0.801],0,2432.948
7,False,369,1.111,66,[],[2489520],"[(1072, 860)]","[(1117, 870)]",[1],[37],[0.6166666666666667],"[640.0, 512.0]",vertical,"(890.0, 262.0)",[],[0],0,2474.615
7,False,370,0.808,48,[],[],"[(1128, 262), (1139, 196), (1105, 204), (1146, 289), (1115, 237), (797, 204), (1118, 204), (816, 223), (1076, 220), (1096, 889)]",[],"[0, 0, 0, 0, 0, 0, 0, 0, 0, 1]",[33],[0.55],"[640.0, 512.0]",horizontal,"(890.0, 762.0)",[0.7166666666666667],[0.505],1,2477.624
7,False,371,0.857,51,[],[],"[(1078, 871)]",[],[1],[43],[0.7166666666666667],"[640.0, 512.0]",vertical,"(390.0, 762.0)",[1.35],[0.675],1,4366.383
7,False,372,1.024,61,[],[],"[(1076, 853)]",[],[1],[51],[0.85],"[640.0, 512.0]",horizontal,"(390.0, 762.0)",[0.65],[0.813],0,4371.506
7,False,373,0.721,43,[],[],"[(1080, 845)]",[],[1],[51],[0.85],"[640.0, 512.0]",horizontal,"(890.0, 262.0)",[0.6666666666666666],[0.804],0,4376.188
7,False,374,0.738,44,[],[],"[(1096, 858)]",[],[1],[51],[0.85],"[640.0, 512.0]",vertical,"(890.0, 262.0)",[0.95],[0.804],0,4380.72
7,False,375,0.706,42,[],[],"[(1120, 860)]",[],[1],[46],[0.7666666666666666],"[640.0, 512.0]",vertical,"(890.0, 762.0)",[1.5],[0.722],1,4385.759
7,False,376,0.973,58,[],[],"[(1124, 880)]",[],[1],[51],[0.85],"[640.0, 512.0]",horizontal,"(890.0, 262.0)",[0.7333333333333333],[0.81],0,4391.571
7,False,377,1.036,62,[],[],"[(1102, 846)]",[],[1],[51],[0.85],"[640.0, 512.0]",vertical,"(890.0, 762.0)",[1.3166666666666667],[0.8],0,4400.068
7,False,378,0.866,51,[],[],"[(1076, 855)]",[],[1],[51],[0.85],"[640.0, 512.0]",horizontal,"(890.0, 762.0)",[1.3666666666666667],[0.803],0,4409.805
7,False,379,1.138,68,[],[],"[(1101, 852)]",[],[1],[38],[0.6333333333333333],"[640.0, 512.0]",vertical,"(390.0, 262.0)",[0.8833333333333333],[0.587],1,4414.825
7,False,380,0.828,49,[],[],"[(618, 486), (281, 452), (363, 505), (404, 404), (613, 519), (367, 509), (300, 542), (150, 246), (358, 380), (874, 399), (421, 547), (372, 552), (883, 485), (369, 442), (604, 576), (387, 452), (454, 427), (763, 605), (428, 600), (252, 481), (1121, 850)]",[],"[0, 0, 0, 0, 0, 0, 0, 0, 0, 0, 0, 0, 0, 0, 0, 0, 0, 0, 0, 0, 1]",[],[],"[640.0, 512.0]",vertical,"(890.0, 262.0)",[],[0],0,4422.318
7,False,381,0.527,31,[],[],"[(1124, 867)]",[],[1],[49],[0.8166666666666667],"[640.0, 512.0]",vertical,"(390.0, 262.0)",[0.5833333333333334],[0.772],1,4483.321
7,False,382,0.555,33,[],[],"[(1144, 854)]",[],[1],[32],[0.5333333333333333],"[640.0, 512.0]",vertical,"(890.0, 262.0)",[1.2166666666666666],[0.496],1,4487.235
7,False,383,1.168,70,[],[],"[(1121, 872)]",[],[1],[32],[0.5333333333333333],"[640.0, 512.0]",horizontal,"(390.0, 762.0)",[1.5166666666666666],[0.499],1,4492.02
7,False,384,0.754,45,[],[],"[(1105, 862)]",[],[1],[34],[0.5666666666666667],"[640.0, 512.0]",horizontal,"(890.0, 262.0)",[0.5333333333333333],[0.526],1,4497.323
7,False,385,0.603,36,[],[],"[(1126, 866)]",[],[1],[42],[0.7],"[640.0, 512.0]",vertical,"(890.0, 262.0)",[1.1],[0.656],1,4501.26
7,False,386,1.133,67,[],[],"[(1115, 836)]",[],[1],[],[],"[640.0, 512.0]",vertical,"(390.0, 262.0)",[],[0],0,4505.709
7,False,387,0.627,37,[],[],"[(1129, 852)]",[],[1],[51],[0.85],"[640.0, 512.0]",vertical,"(390.0, 262.0)",[1.15],[0.799],0,4509.518
7,False,388,0.925,55,[],[],"[(1124, 851)]",[],[1],[32],[0.5333333333333333],"[640.0, 512.0]",horizontal,"(890.0, 262.0)",[0.5833333333333334],[0.492],1,4514.102
7,False,389,1.002,60,[],[],"[(1125, 862)]",[],[1],[34],[0.5666666666666667],"[640.0, 512.0]",vertical,"(890.0, 762.0)",[1.3166666666666667],[0.528],1,4518.298
7,False,390,0.977,58,[],[],"[(1105, 854)]",[],[1],[46],[0.7666666666666666],"[640.0, 512.0]",horizontal,"(890.0, 262.0)",[1.6666666666666667],[0.721],1,4523.335
7,False,391,1.153,69,[],[],"[(1124, 846)]",[],[1],[51],[0.85],"[640.0, 512.0]",horizontal,"(890.0, 762.0)",[1.4],[0.802],0,4528.782
7,False,392,1.053,63,[],[],"[(1124, 836)]",[],[1],[32],[0.5333333333333333],"[640.0, 512.0]",horizontal,"(390.0, 762.0)",[1.0166666666666666],[0.494],1,4534.395
7,False,393,0.663,39,[],[],"[(1125, 853)]",[],[1],[34],[0.5666666666666667],"[640.0, 512.0]",vertical,"(390.0, 262.0)",[1.3],[0.527],1,4539.207
7,False,394,0.55,33,[],[],"[(1105, 834)]",[],[1],[36],[0.6],"[640.0, 512.0]",horizontal,"(390.0, 762.0)",[1.1833333333333333],[0.557],1,4543.761
7,False,395,0.519,31,[],[],"[(1125, 851)]",[],[1],[15],[0.25],"[640.0, 512.0]",vertical,"(390.0, 262.0)",[1.1333333333333333],[0.213],1,4548.134
7,False,396,0.596,35,[],[],"[(1129, 835)]",[],[1],[33],[0.55],"[640.0, 512.0]",horizontal,"(890.0, 762.0)",[0.55],[0.509],1,4555.241
7,False,397,0.841,50,[],[],"[(1105, 833)]",[],[1],[36],[0.6],"[640.0, 512.0]",vertical,"(390.0, 262.0)",[0.75],[0.558],1,4560.606
7,False,398,0.923,55,[],[],"[(1128, 848)]",[],[1],[51],[0.85],"[640.0, 512.0]",horizontal,"(390.0, 762.0)",[0.9333333333333333],[0.806],0,4564.913
7,False,399,0.588,35,[],[],"[(1117, 851)]",[],[1],[],[],"[640.0, 512.0]",horizontal,"(390.0, 262.0)",[],[0],0,4569.806
7,False,400,0.558,33,[],[],"[(1116, 846)]",[],[1],[],[],"[640.0, 512.0]",vertical,"(890.0, 762.0)",[],[0],0,4583.84
7,False,401,1.161,69,[],[],"[(1139, 835)]",[],[1],[],[],"[640.0, 512.0]",horizontal,"(390.0, 762.0)",[],[0],0,4587.07
7,False,402,1.089,65,[],[],"[(1087, 853)]",[],[1],[47],[0.7833333333333333],"[640.0, 512.0]",vertical,"(390.0, 262.0)",[0.65],[0.737],1,4596.015
7,False,403,0.976,58,[],[],"[(1118, 858)]",[],[1],[37],[0.6166666666666667],"[640.0, 512.0]",vertical,"(390.0, 262.0)",[0.5],[0.573],1,4602.618
7,False,404,1.091,65,[],[],"[(1091, 852)]",[],[1],[37],[0.6166666666666667],"[640.0, 512.0]",horizontal,"(890.0, 262.0)",[0.5333333333333333],[0.573],1,4606.873
7,False,405,0.551,33,[],[],"[(1130, 846)]",[],[1],[33],[0.55],"[640.0, 512.0]",horizontal,"(390.0, 762.0)",[0.6166666666666667],[0.508],1,4612.873
7,False,406,0.546,32,[],[],"[(1081, 844)]",[],[1],[34],[0.5666666666666667],"[640.0, 512.0]",vertical,"(390.0, 762.0)",[0.8666666666666667],[0.531],1,4616.569
7,False,407,0.525,31,[],[],"[(1098, 852)]",[],[1],[33],[0.55],"[640.0, 512.0]",vertical,"(390.0, 262.0)",[0.95],[0.517],1,4620.609
7,False,408,0.692,41,[],[],"[(1111, 871)]",[],[1],[33],[0.55],"[640.0, 512.0]",vertical,"(890.0, 762.0)",[0.95],[0.514],1,4624.59
7,False,409,1.053,63,[],[],"[(1107, 854)]",[],[1],[32],[0.5333333333333333],"[640.0, 512.0]",horizontal,"(890.0, 762.0)",[1.1833333333333333],[0.495],1,4628.798
7,False,410,1.17,70,[],[],"[(1102, 860)]",[],[1],[],[],"[640.0, 512.0]",vertical,"(390.0, 762.0)",[],[0],0,4633.601
7,False,411,1.044,62,[],[],"[(1126, 843)]",[],[1],[32],[0.5333333333333333],"[640.0, 512.0]",vertical,"(390.0, 262.0)",[1.3166666666666667],[0.505],1,4638.15
7,False,412,1.163,69,[],[],"[(1105, 852)]",[],[1],[32],[0.5333333333333333],"[640.0, 512.0]",horizontal,"(890.0, 762.0)",[1.0833333333333333],[0.5],1,4642.993
7,False,413,0.868,52,[],[],"[(1124, 856)]",[],[1],[33],[0.55],"[640.0, 512.0]",vertical,"(890.0, 762.0)",[1.6166666666666667],[0.515],1,4647.715
7,False,414,0.579,34,[],[],"[(1110, 843)]",[],[1],[36],[0.6],"[640.0, 512.0]",horizontal,"(390.0, 762.0)",[1.4833333333333334],[0.554],1,4652.804
7,False,415,1.196,71,[],[],"[(1082, 842)]",[],[1],[12],[0.2],"[640.0, 512.0]",vertical,"(890.0, 262.0)",[1.55],[0.169],1,4657.35
7,False,416,0.834,50,[],[],"[(1125, 840)]",[],[1],[40],[0.6666666666666666],"[640.0, 512.0]",vertical,"(890.0, 262.0)",[1.2166666666666666],[0.628],1,4662.221
7,False,417,1.044,62,[],[],"[(1123, 847)]",[],[1],[33],[0.55],"[640.0, 512.0]",horizontal,"(890.0, 262.0)",[1.0],[0.51],1,4667.123
7,False,418,0.641,38,[],[],"[(1109, 846)]",[],[1],[37],[0.6166666666666667],"[640.0, 512.0]",vertical,"(390.0, 262.0)",[0.8333333333333334],[0.573],1,4671.745
7,False,419,0.867,52,[],[],"[(1107, 849)]",[],[1],[33],[0.55],"[640.0, 512.0]",vertical,"(390.0, 262.0)",[1.6333333333333333],[0.51],1,4675.943
7,False,420,0.594,35,[],[],"[(1105, 870)]",[],[1],[33],[0.55],"[640.0, 512.0]",horizontal,"(390.0, 262.0)",[0.8166666666666667],[0.512],1,4688.228
8,False,421,1.086,65,[],[],"[(1110, 854)]",[],[1],[31],[0.5166666666666666],"[640.0, 512.0]",horizontal,"(390.0, 262.0)",[1.0333333333333332],[0.479],1,4692.206
8,False,422,0.713,42,[],[],"[(1115, 862)]",[],[1],[34],[0.5666666666666667],"[640.0, 512.0]",horizontal,"(390.0, 262.0)",[1.5666666666666667],[0.525],1,4696.873
8,False,423,0.543,32,[],[],"[(1115, 842)]",[],[1],[38],[0.6333333333333333],"[640.0, 512.0]",vertical,"(390.0, 262.0)",[0.5333333333333333],[0.593],1,4701.701
8,False,424,0.54,32,[],[],"[(1100, 849)]",[],[1],[33],[0.55],"[640.0, 512.0]",vertical,"(890.0, 762.0)",[1.25],[0.515],1,4705.491
8,False,425,1.159,69,[],[],"[(1096, 854)]",[],[1],[33],[0.55],"[640.0, 512.0]",horizontal,"(890.0, 762.0)",[0.6],[0.511],1,4709.881
8,False,426,1.009,60,[],[],"[(1115, 843)]",[],[1],[37],[0.6166666666666667],"[640.0, 512.0]",vertical,"(390.0, 762.0)",[1.65],[0.579],1,4714.102
8,False,427,0.891,53,[],[],"[(1109, 852)]",[],[1],[35],[0.5833333333333334],"[640.0, 512.0]",vertical,"(390.0, 762.0)",[0.85],[0.545],1,4719.266
8,False,428,0.859,51,[],[],"[(1086, 843)]",[],[1],[34],[0.5666666666666667],"[640.0, 512.0]",horizontal,"(390.0, 762.0)",[1.4166666666666667],[0.525],1,4723.74
8,False,429,1.093,65,[],[],"[(1082, 849)]",[],[1],[12],[0.2],"[640.0, 512.0]",vertical,"(890.0, 762.0)",[0.9166666666666666],[0.167],1,4728.499
8,False,430,0.853,51,[],[],"[(1076, 847)]",[],[1],[31],[0.5166666666666666],"[640.0, 512.0]",horizontal,"(890.0, 262.0)",[1.4666666666666666],[0.475],1,4732.94
8,False,431,1.048,62,[],[],"[(1129, 850)]",[],[1],[33],[0.55],"[640.0, 512.0]",vertical,"(890.0, 762.0)",[1.3666666666666667],[0.505],1,4739.056
8,False,432,1.024,61,[],[],"[(1078, 857)]",[],[1],[33],[0.55],"[640.0, 512.0]",horizontal,"(390.0, 762.0)",[0.7],[0.508],1,4744.172
8,False,433,0.997,59,[],[],"[(1130, 845)]",[],[1],[40],[0.6666666666666666],"[640.0, 512.0]",vertical,"(890.0, 262.0)",[0.5166666666666666],[0.626],1,4748.52
8,False,434,0.949,56,[],[],"[(1078, 843)]",[],[1],[43],[0.7166666666666667],"[640.0, 512.0]",vertical,"(390.0, 762.0)",[1.5333333333333332],[0.672],1,4752.624
8,False,435,0.521,31,[],[],"[(1098, 858)]",[],[1],[37],[0.6166666666666667],"[640.0, 512.0]",horizontal,"(890.0, 262.0)",[0.5666666666666667],[0.575],1,4757.703
8,False,436,1.126,67,[],[],"[(1105, 842)]",[],[1],[34],[0.5666666666666667],"[640.0, 512.0]",vertical,"(890.0, 262.0)",[1.45],[0.534],1,4761.442
8,False,437,1.141,68,[],[],"[(1129, 842)]",[],[1],[34],[0.5666666666666667],"[640.0, 512.0]",horizontal,"(390.0, 262.0)",[0.6833333333333333],[0.529],1,4766.698
8,False,438,0.741,44,[],[],"[(1105, 863)]",[],[1],[33],[0.55],"[640.0, 512.0]",horizontal,"(390.0, 262.0)",[1.5],[0.51],1,4771.177
8,False,439,0.799,47,[],[],"[(1082, 845)]",[],[1],[32],[0.5333333333333333],"[640.0, 512.0]",vertical,"(890.0, 262.0)",[1.0333333333333332],[0.496],1,4775.998
8,False,440,1.139,68,[],[],"[(1109, 857)]",[],[1],[34],[0.5666666666666667],"[640.0, 512.0]",vertical,"(890.0, 762.0)",[1.2333333333333334],[0.526],1,4781.147
8,False,441,1.153,69,[],[],"[(1105, 840)]",[],[1],[35],[0.5833333333333334],"[640.0, 512.0]",vertical,"(390.0, 262.0)",[0.6666666666666666],[0.542],1,4786.151
8,False,442,0.771,46,[],[],"[(1129, 850)]",[],[1],[33],[0.55],"[640.0, 512.0]",horizontal,"(390.0, 262.0)",[0.7166666666666667],[0.508],1,4790.44
8,False,443,1.042,62,[],[],"[(1108, 851)]",[],[1],[32],[0.5333333333333333],"[640.0, 512.0]",vertical,"(390.0, 262.0)",[1.25],[0.493],1,4794.522
8,False,444,0.632,37,[],[],"[(1112, 840)]",[],[1],[33],[0.55],"[640.0, 512.0]",vertical,"(890.0, 762.0)",[1.25],[0.508],1,4799.386
8,False,445,0.978,58,[],[],"[(1096, 839)]",[],[1],[33],[0.55],"[640.0, 512.0]",horizontal,"(890.0, 762.0)",[0.9],[0.514],1,4803.851
8,False,446,0.829,49,[],[],"[(1129, 852)]",[],[1],[38],[0.6333333333333333],"[640.0, 512.0]",horizontal,"(890.0, 762.0)",[1.6833333333333333],[0.592],1,4808.242
8,False,447,0.532,31,[],[],"[(1076, 838)]",[],[1],[33],[0.55],"[640.0, 512.0]",vertical,"(390.0, 262.0)",[1.25],[0.519],1,4813.409
8,False,448,1.073,64,[],[],"[(1110, 834)]",[],[1],[31],[0.5166666666666666],"[640.0, 512.0]",vertical,"(390.0, 262.0)",[1.3833333333333333],[0.481],1,4817.67
8,False,449,0.539,32,[],[],"[(1076, 852)]",[],[1],[33],[0.55],"[640.0, 512.0]",vertical,"(390.0, 262.0)",[1.1],[0.507],1,4822.741
8,False,450,0.598,35,[],[],"[(1100, 870)]",[],[1],[33],[0.55],"[640.0, 512.0]",horizontal,"(890.0, 262.0)",[1.35],[0.505],1,4827.082
8,False,451,1.047,62,[],[],"[(1111, 852)]",[],[1],[35],[0.5833333333333334],"[640.0, 512.0]",vertical,"(890.0, 762.0)",[1.4],[0.544],1,4831.626
8,False,452,0.628,37,[],[],"[(1076, 860)]",[],[1],[51],[0.85],"[640.0, 512.0]",vertical,"(390.0, 762.0)",[0.6],[0.81],0,4836.628
8,False,453,0.834,50,[],[],"[(1110, 851)]",[],[1],[32],[0.5333333333333333],"[640.0, 512.0]",horizontal,"(890.0, 762.0)",[1.1],[0.496],1,4840.997
8,False,454,0.99,59,[],[],"[(1109, 845)]",[],[1],[32],[0.5333333333333333],"[640.0, 512.0]",vertical,"(890.0, 762.0)",[1.25],[0.492],1,4846.66
8,False,455,1.004,60,[],[],"[(1076, 858)]",[],[1],[36],[0.6],"[640.0, 512.0]",horizontal,"(890.0, 762.0)",[0.8666666666666667],[0.556],1,4851.404
8,False,456,0.983,58,[],[],"[(1076, 851)]",[],[1],[32],[0.5333333333333333],"[640.0, 512.0]",horizontal,"(890.0, 762.0)",[0.7333333333333333],[0.494],1,4855.933
8,False,457,0.846,50,[],[],"[(1081, 848)]",[],[1],[33],[0.55],"[640.0, 512.0]",horizontal,"(390.0, 262.0)",[0.9166666666666666],[0.509],1,4860.072
8,False,458,0.597,35,[],[],"[(1091, 843)]",[],[1],[36],[0.6],"[640.0, 512.0]",vertical,"(890.0, 262.0)",[1.3666666666666667],[0.559],1,4864.341
8,False,459,0.54,32,[],[],"[(1105, 846)]",[],[1],[9],[0.15],"[640.0, 512.0]",vertical,"(390.0, 762.0)",[1.6166666666666667],[0.117],1,4868.783
8,False,460,0.936,56,[],[],"[(967, 780), (956, 696), (965, 781), (1018, 743), (941, 705), (1038, 890)]",[],"[0, 0, 0, 0, 0, 1]",[],[],"[640.0, 512.0]",horizontal,"(390.0, 262.0)",[],[0],0,4873.16
8,False,461,1.16,69,[],[4898294],"[(1018, 858), (996, 918), (999, 743), (1041, 800)]","[(1041, 800)]","[0, 0, 0, 1]",[11],[0.18333333333333332],"[640.0, 512.0]",horizontal,"(890.0, 262.0)",[],[0],0,4879.519
8,False,462,0.814,48,[],[],"[(1079, 934)]",[],[1],[],[],"[640.0, 512.0]",horizontal,"(390.0, 262.0)",[],[0],0,4886.407
8,False,463,0.664,39,[],[],"[(961, 963), (1092, 958), (1083, 1010), (1093, 729), (1028, 757), (1018, 743), (1033, 891)]",[],"[0, 0, 0, 0, 0, 0, 1]",[],[],"[640.0, 512.0]",horizontal,"(890.0, 262.0)",[],[0],0,4888.335
8,False,464,1.027,61,[],[],"[(994, 896), (942, 743), (912, 743), (994, 759), (1015, 772), (983, 786), (951, 781), (1076, 948), (1086, 859)]",[],"[0, 0, 0, 0, 0, 0, 0, 0, 1]",[51],[0.85],"[640.0, 512.0]",horizontal,"(890.0, 762.0)",[0.9833333333333333],[0.799],0,4900.958
8,False,465,0.748,44,[],[],"[(1082, 867)]",[],[1],[35],[0.5833333333333334],"[640.0, 512.0]",horizontal,"(890.0, 262.0)",[1.6166666666666667],[0.542],1,4950.927
8,False,466,1.156,69,[],[],"[(1081, 859)]",[],[1],[35],[0.5833333333333334],"[640.0, 512.0]",vertical,"(890.0, 762.0)",[0.5666666666666667],[0.544],1,4955.971
8,False,467,0.651,39,[],[],"[(1113, 863)]",[],[1],[35],[0.5833333333333334],"[640.0, 512.0]",horizontal,"(890.0, 762.0)",[1.55],[0.541],1,4960.405
8,False,468,0.685,41,[],[],"[(1086, 852)]",[],[1],[51],[0.85],"[640.0, 512.0]",vertical,"(390.0, 262.0)",[1.4166666666666667],[0.808],0,4965.273
8,False,469,0.928,55,[],[],"[(1062, 854)]",[],[1],[40],[0.6666666666666666],"[640.0, 512.0]",horizontal,"(390.0, 762.0)",[1.65],[0.623],1,4970.159
8,False,470,0.617,37,[],[],"[(1081, 858)]",[],[1],[35],[0.5833333333333334],"[640.0, 512.0]",horizontal,"(390.0, 762.0)",[1.0666666666666667],[0.545],1,4977.185
8,False,471,0.883,52,[],[],"[(1086, 849)]",[],[1],[3],[0.05],"[640.0, 512.0]",vertical,"(390.0, 262.0)",[1.65],[0.019],1,4981.425
8,False,472,0.555,33,[],[],"[(1107, 839)]",[],[1],[32],[0.5333333333333333],"[640.0, 512.0]",horizontal,"(390.0, 762.0)",[1.0],[0.498],1,4985.986
8,False,473,0.704,42,[],[],"[(1120, 845)]",[],[1],[33],[0.55],"[640.0, 512.0]",horizontal,"(390.0, 262.0)",[1.2833333333333332],[0.511],1,4990.154
8,False,474,0.638,38,[],[],"[(1115, 845)]",[],[1],[33],[0.55],"[640.0, 512.0]",horizontal,"(890.0, 762.0)",[0.8333333333333334],[0.506],1,4994.638
8,False,475,0.993,59,[],[],"[(1082, 847)]",[],[1],[51],[0.85],"[640.0, 512.0]",horizontal,"(390.0, 262.0)",[0.7333333333333333],[0.825],0,4998.674
8,False,476,0.603,36,[],[],"[(1085, 855)]",[],[1],[40],[0.6666666666666666],"[640.0, 512.0]",vertical,"(890.0, 762.0)",[0.6],[0.631],1,5003.763
8,False,477,1.001,60,[],[],"[(1124, 849)]",[],[1],[],[],"[640.0, 512.0]",horizontal,"(390.0, 262.0)",[],[0],0,5008.13
8,False,478,1.181,70,[],[],"[(1081, 841)]",[],[1],[],[],"[640.0, 512.0]",horizontal,"(390.0, 262.0)",[],[0],0,5011.893
8,False,479,0.915,54,[],[5031432],"[(1075, 833)]","[(1070, 841)]",[1],[32],[0.5333333333333333],"[640.0, 512.0]",vertical,"(390.0, 762.0)",[],[0],0,5016.599
8,False,480,0.606,36,[],[],"[(1105, 847)]",[],[1],[34],[0.5666666666666667],"[640.0, 512.0]",vertical,"(890.0, 262.0)",[1.4333333333333333],[0.527],1,5019.551
9,False,481,0.745,44,[],[],"[(1126, 842)]",[],[1],[35],[0.5833333333333334],"[640.0, 512.0]",vertical,"(390.0, 762.0)",[0.8833333333333333],[0.541],1,5024.458
9,False,482,0.898,53,[],[],"[(1115, 844)]",[],[1],[17],[0.2833333333333333],"[640.0, 512.0]",vertical,"(390.0, 262.0)",[1.0833333333333333],[0.254],1,5028.706
9,False,483,0.861,51,[],[],"[(1100, 856)]",[],[1],[49],[0.8166666666666667],"[640.0, 512.0]",vertical,"(390.0, 262.0)",[1.35],[0.773],1,5032.903
9,False,484,1.187,71,[],[],"[(1101, 851)]",[],[1],[],[],"[640.0, 512.0]",horizontal,"(390.0, 762.0)",[],[0],0,5038.212
9,False,485,0.978,58,[],[],"[(1111, 833)]",[],[1],[36],[0.6],"[640.0, 512.0]",horizontal,"(390.0, 762.0)",[1.0333333333333332],[0.567],1,5042.169
9,False,486,0.981,58,[],[],"[(1119, 848)]",[],[1],[34],[0.5666666666666667],"[640.0, 512.0]",horizontal,"(390.0, 262.0)",[1.3166666666666667],[0.531],1,5046.962
9,False,487,0.741,44,[],[],"[(1076, 833)]",[],[1],[36],[0.6],"[640.0, 512.0]",horizontal,"(890.0, 762.0)",[1.5333333333333332],[0.554],1,5051.891
9,False,488,0.984,59,[],[],"[(1121, 839)]",[],[1],[38],[0.6333333333333333],"[640.0, 512.0]",horizontal,"(890.0, 262.0)",[0.55],[0.592],1,5056.846
9,False,489,1.009,60,[],[],"[(1115, 836)]",[],[1],[36],[0.6],"[640.0, 512.0]",vertical,"(390.0, 262.0)",[0.6],[0.557],1,5061.298
9,False,490,0.958,57,[],[],"[(1105, 851)]",[],[1],[32],[0.5333333333333333],"[640.0, 512.0]",vertical,"(890.0, 262.0)",[1.3666666666666667],[0.498],1,5065.474
9,False,491,0.744,44,[],[],"[(1113, 836)]",[],[1],[31],[0.5166666666666666],"[640.0, 512.0]",horizontal,"(390.0, 262.0)",[1.15],[0.474],1,5070.387
9,False,492,1.111,66,[],[],"[(1120, 854)]",[],[1],[37],[0.6166666666666667],"[640.0, 512.0]",horizontal,"(390.0, 762.0)",[0.9833333333333333],[0.573],1,5074.808
9,False,493,0.789,47,[],[],"[(1118, 852)]",[],[1],[41],[0.6833333333333333],"[640.0, 512.0]",vertical,"(890.0, 762.0)",[1.5833333333333333],[0.637],1,5079.621
9,False,494,0.537,32,[],[],"[(1091, 859)]",[],[1],[36],[0.6],"[640.0, 512.0]",horizontal,"(890.0, 762.0)",[1.5333333333333332],[0.558],1,5084.689
9,False,495,0.943,56,[],[],"[(1124, 848)]",[],[1],[40],[0.6666666666666666],"[640.0, 512.0]",vertical,"(890.0, 762.0)",[1.0833333333333333],[0.628],1,5091.116
9,False,496,1.106,66,[],[],"[(1078, 850)]",[],[1],[33],[0.55],"[640.0, 512.0]",horizontal,"(390.0, 762.0)",[0.85],[0.508],1,5095.897
9,False,497,1.192,71,[],[],"[(1096, 853)]",[],[1],[34],[0.5666666666666667],"[640.0, 512.0]",horizontal,"(890.0, 262.0)",[1.6166666666666667],[0.522],1,5100.341
9,False,498,0.738,44,[],[],"[(1109, 838)]",[],[1],[51],[0.85],"[640.0, 512.0]",vertical,"(390.0, 262.0)",[1.2166666666666666],[0.815],0,5105.741
9,False,499,0.783,46,[],[],"[(1084, 837)]",[],[1],[34],[0.5666666666666667],"[640.0, 512.0]",horizontal,"(390.0, 762.0)",[1.0166666666666666],[0.53],1,5110.606
9,False,500,0.825,49,[],[],"[(1101, 839)]",[],[1],[25],[0.4166666666666667],"[640.0, 512.0]",horizontal,"(390.0, 262.0)",[0.7166666666666667],[0.374],1,5115.699
9,False,501,0.657,39,[],[],"[(1110, 856)]",[],[1],[32],[0.5333333333333333],"[640.0, 512.0]",vertical,"(890.0, 262.0)",[1.15],[0.499],1,5119.577
9,False,502,0.999,59,[],[],"[(1129, 838)]",[],[1],[35],[0.5833333333333334],"[640.0, 512.0]",vertical,"(390.0, 762.0)",[1.65],[0.54],1,5124.136
9,False,503,0.556,33,[],[],"[(1124, 836)]",[],[1],[36],[0.6],"[640.0, 512.0]",vertical,"(890.0, 262.0)",[0.5],[0.554],1,5129.393
9,False,504,0.793,47,[],[],"[(1125, 852)]",[],[1],[31],[0.5166666666666666],"[640.0, 512.0]",horizontal,"(890.0, 262.0)",[0.8166666666666667],[0.484],1,5133.141
9,False,505,0.903,54,[],[],"[(1124, 838)]",[],[1],[51],[0.85],"[640.0, 512.0]",horizontal,"(890.0, 762.0)",[0.8166666666666667],[0.804],0,5137.183
9,False,506,0.647,38,[],[],"[(1113, 841)]",[],[1],[18],[0.3],"[640.0, 512.0]",vertical,"(890.0, 762.0)",[0.6333333333333333],[0.271],1,5141.772
9,False,507,0.636,38,[],[],"[(1106, 842)]",[],[1],[32],[0.5333333333333333],"[640.0, 512.0]",vertical,"(890.0, 262.0)",[0.9],[0.491],1,5145.554
9,False,508,0.826,49,[],[],"[(1088, 844)]",[],[1],[51],[0.85],"[640.0, 512.0]",vertical,"(390.0, 762.0)",[1.2333333333333334],[0.806],0,5149.891
9,False,509,0.893,53,[],[],"[(1115, 850)]",[],[1],[51],[0.85],"[640.0, 512.0]",horizontal,"(890.0, 762.0)",[1.4],[0.812],0,5154.76
9,False,510,1.075,64,[],[],"[(1080, 837)]",[],[1],[41],[0.6833333333333333],"[640.0, 512.0]",vertical,"(890.0, 262.0)",[0.7166666666666667],[0.642],1,5159.973
9,False,511,1.063,63,[],[],"[(1105, 843)]",[],[1],[36],[0.6],"[640.0, 512.0]",vertical,"(890.0, 762.0)",[1.5166666666666666],[0.554],1,5164.829
9,False,512,0.594,35,[],[],"[(1124, 850)]",[],[1],[38],[0.6333333333333333],"[640.0, 512.0]",vertical,"(390.0, 262.0)",[0.6],[0.6],1,5170.004
9,False,513,0.575,34,[],[],"[(1101, 864)]",[],[1],[35],[0.5833333333333334],"[640.0, 512.0]",horizontal,"(390.0, 762.0)",[1.4],[0.542],1,5173.914
9,False,514,0.672,40,[],[],"[(1099, 862)]",[],[1],[22],[0.36666666666666664],"[640.0, 512.0]",vertical,"(890.0, 262.0)",[1.3166666666666667],[0.335],1,5178.442
9,False,515,0.747,44,[],[],"[(1111, 846)]",[],[1],[41],[0.6833333333333333],"[640.0, 512.0]",vertical,"(390.0, 762.0)",[0.9],[0.639],1,5182.8
9,False,516,1.075,64,[],[],"[(1119, 851)]",[],[1],[33],[0.55],"[640.0, 512.0]",horizontal,"(890.0, 262.0)",[0.9166666666666666],[0.507],1,5187.214
9,False,517,0.928,55,[],[],"[(1128, 864)]",[],[1],[36],[0.6],"[640.0, 512.0]",horizontal,"(390.0, 762.0)",[0.6],[0.559],1,5191.881
9,False,518,1.028,61,[],[],"[(1105, 849)]",[],[1],[35],[0.5833333333333334],"[640.0, 512.0]",vertical,"(890.0, 762.0)",[1.3833333333333333],[0.54],1,5196.104
9,False,519,0.722,43,[],[],"[(1120, 852)]",[],[1],[32],[0.5333333333333333],"[640.0, 512.0]",horizontal,"(390.0, 262.0)",[1.4666666666666666],[0.496],1,5201.063
9,False,520,0.654,39,[],[],"[(1110, 848)]",[],[1],[39],[0.65],"[640.0, 512.0]",vertical,"(890.0, 762.0)",[0.7833333333333333],[0.611],1,5205.891
9,False,521,1.191,71,[],[],"[(1100, 868)]",[],[1],[33],[0.55],"[640.0, 512.0]",horizontal,"(890.0, 262.0)",[0.5666666666666667],[0.507],1,5209.925
9,False,522,0.758,45,[],[],"[(1101, 837)]",[],[1],[18],[0.3],"[640.0, 512.0]",horizontal,"(890.0, 762.0)",[0.6333333333333333],[0.265],1,5214.258
9,False,523,0.699,41,[],[],"[(1091, 842)]",[],[1],[32],[0.5333333333333333],"[640.0, 512.0]",vertical,"(390.0, 262.0)",[0.5666666666666667],[0.496],1,5217.973
9,False,524,0.791,47,[],[],"[(1090, 844)]",[],[1],[45],[0.75],"[640.0, 512.0]",vertical,"(890.0, 262.0)",[1.6833333333333333],[0.706],1,5221.925
9,False,525,1.048,62,[],[],"[(1096, 850)]",[],[1],[51],[0.85],"[640.0, 512.0]",vertical,"(890.0, 762.0)",[0.7166666666666667],[0.804],0,5227.142
9,False,526,0.795,47,[],[],"[(1086, 842)]",[],[1],[51],[0.85],"[640.0, 512.0]",horizontal,"(390.0, 762.0)",[1.0833333333333333],[0.801],0,5258.674
9,False,527,0.992,59,[],[],"[(1106, 843)]",[],[1],[35],[0.5833333333333334],"[640.0, 512.0]",vertical,"(890.0, 762.0)",[1.1],[0.539],1,5263.504
9,False,528,0.951,57,[],[],"[(1087, 847)]",[],[1],[51],[0.85],"[640.0, 512.0]",horizontal,"(390.0, 262.0)",[0.7],[0.808],0,5270.334
9,False,529,0.864,51,[],[],"[(1092, 843)]",[],[1],[33],[0.55],"[640.0, 512.0]",vertical,"(890.0, 262.0)",[1.55],[0.513],1,5274.974
9,False,530,0.629,37,[],[],"[(1110, 852)]",[],[1],[51],[0.85],"[640.0, 512.0]",horizontal,"(390.0, 262.0)",[0.75],[0.805],0,5280.159
9,False,531,1.101,66,[],[],"[(1088, 859)]",[],[1],[35],[0.5833333333333334],"[640.0, 512.0]",vertical,"(390.0, 762.0)",[1.05],[0.549],1,5284.424
9,False,532,1.071,64,[],[],"[(1115, 854)]",[],[1],[33],[0.55],"[640.0, 512.0]",vertical,"(390.0, 762.0)",[1.2166666666666666],[0.508],1,5289.791
9,False,533,1.065,63,[],[],"[(1115, 842)]",[],[1],[35],[0.5833333333333334],"[640.0, 512.0]",horizontal,"(390.0, 762.0)",[1.0833333333333333],[0.541],1,5294.68
9,False,534,0.65,39,[],[],"[(1113, 842)]",[],[1],[33],[0.55],"[640.0, 512.0]",horizontal,"(390.0, 262.0)",[1.3166666666666667],[0.512],1,5299.59
9,False,535,1.192,71,[],[],"[(1076, 880)]",[],[1],[36],[0.6],"[640.0, 512.0]",vertical,"(890.0, 762.0)",[1.5333333333333332],[0.56],1,5304.259
9,False,536,0.755,45,[],[],"[(1124, 848)]",[],[1],[51],[0.85],"[640.0, 512.0]",horizontal,"(390.0, 762.0)",[1.1833333333333333],[0.804],0,5309.707
9,False,537,0.537,32,[],[],"[(1124, 901)]",[],[1],[35],[0.5833333333333334],"[640.0, 512.0]",horizontal,"(890.0, 762.0)",[0.8],[0.542],1,5314.641
9,False,538,0.889,53,[],[],"[(1086, 869)]",[],[1],[36],[0.6],"[640.0, 512.0]",horizontal,"(390.0, 762.0)",[1.1],[0.556],1,5335.948
9,False,539,0.748,44,[],[],"[(1081, 866)]",[],[1],[38],[0.6333333333333333],"[640.0, 512.0]",vertical,"(390.0, 262.0)",[1.4],[0.598],1,5340.69
9,False,540,0.908,54,[],[],"[(1086, 846)]",[],[1],[35],[0.5833333333333334],"[640.0, 512.0]",vertical,"(390.0, 762.0)",[1.25],[0.539],1,5345.54
10,False,541,0.895,53,[],[],"[(1081, 850)]",[],[1],[35],[0.5833333333333334],"[640.0, 512.0]",vertical,"(390.0, 762.0)",[0.85],[0.543],1,5350.32
10,False,542,1.133,67,[],[],"[(1081, 845)]",[],[1],[32],[0.5333333333333333],"[640.0, 512.0]",vertical,"(890.0, 262.0)",[1.6],[0.5],1,5354.524
10,False,543,1.133,67,[],[],"[(1081, 843)]",[],[1],[38],[0.6333333333333333],"[640.0, 512.0]",horizontal,"(390.0, 762.0)",[1.5666666666666667],[0.589],1,5359.86
10,False,544,1.133,67,[],[],"[(1081, 844)]",[],[1],[17],[0.2833333333333333],"[640.0, 512.0]",vertical,"(390.0, 762.0)",[0.7],[0.247],1,5365.344
10,False,545,0.648,38,[],[],"[(1123, 847)]",[],[1],[34],[0.5666666666666667],"[640.0, 512.0]",horizontal,"(890.0, 262.0)",[1.5666666666666667],[0.528],1,5369.521
10,False,546,1.034,62,[],[],"[(1120, 871)]",[],[1],[33],[0.55],"[640.0, 512.0]",horizontal,"(890.0, 262.0)",[1.0833333333333333],[0.514],1,5374.389
10,False,547,0.906,54,[],[],"[(1120, 848)]",[],[1],[35],[0.5833333333333334],"[640.0, 512.0]",horizontal,"(390.0, 762.0)",[1.2666666666666666],[0.54],1,5379.009
10,False,548,1.171,70,[],[],"[(1096, 862)]",[],[1],[35],[0.5833333333333334],"[640.0, 512.0]",horizontal,"(390.0, 762.0)",[0.6333333333333333],[0.542],1,5383.808
10,False,549,0.655,39,[],[],"[(1134, 862)]",[],[1],[35],[0.5833333333333334],"[640.0, 512.0]",vertical,"(390.0, 262.0)",[0.9166666666666666],[0.547],1,5388.268
10,False,550,0.528,31,[],[],"[(1124, 850)]",[],[1],[47],[0.7833333333333333],"[640.0, 512.0]",vertical,"(890.0, 262.0)",[1.6333333333333333],[0.737],1,5392.46
10,False,551,0.753,45,[],[],"[(1113, 847)]",[],[1],[34],[0.5666666666666667],"[640.0, 512.0]",vertical,"(890.0, 262.0)",[1.65],[0.524],1,5397.398
10,False,552,0.674,40,[],[],"[(1109, 858)]",[],[1],[41],[0.6833333333333333],"[640.0, 512.0]",horizontal,"(890.0, 262.0)",[0.6],[0.647],1,5402.421
10,False,553,1.176,70,[],[],"[(1123, 857)]",[],[1],[28],[0.4666666666666667],"[640.0, 512.0]",vertical,"(890.0, 262.0)",[1.15],[0.429],1,5406.551
10,False,554,0.875,52,[],[],"[(1116, 854)]",[],[1],[35],[0.5833333333333334],"[640.0, 512.0]",horizontal,"(390.0, 762.0)",[1.0166666666666666],[0.546],1,5411.504
10,False,555,0.97,58,[],[],"[(1076, 858)]",[],[1],[36],[0.6],"[640.0, 512.0]",horizontal,"(390.0, 762.0)",[1.1166666666666667],[0.554],1,5416.188
10,False,556,1.15,69,[],[],"[(1123, 867)]",[],[1],[41],[0.6833333333333333],"[640.0, 512.0]",horizontal,"(390.0, 262.0)",[1.3166666666666667],[0.633],1,5421.251
10,False,557,0.707,42,[],[],"[(1115, 855)]",[],[1],[26],[0.43333333333333335],"[640.0, 512.0]",vertical,"(390.0, 762.0)",[1.6833333333333333],[0.394],1,5426.477
10,False,558,0.741,44,[],[],"[(1094, 852)]",[],[1],[35],[0.5833333333333334],"[640.0, 512.0]",horizontal,"(890.0, 762.0)",[1.4833333333333334],[0.538],1,5431.477
10,False,559,0.96,57,[],[],"[(1105, 857)]",[],[1],[20],[0.3333333333333333],"[640.0, 512.0]",horizontal,"(390.0, 262.0)",[1.1],[0.291],1,5436.332
10,False,560,1.107,66,[],[],"[(1114, 835)]",[],[1],[33],[0.55],"[640.0, 512.0]",vertical,"(890.0, 262.0)",[1.5],[0.504],1,5440.681
10,False,561,0.56,33,[],[],"[(1105, 838)]",[],[1],[18],[0.3],"[640.0, 512.0]",vertical,"(890.0, 262.0)",[0.95],[0.271],1,5446.191
10,False,562,0.526,31,[],[],"[(1123, 855)]",[],[1],[33],[0.55],"[640.0, 512.0]",vertical,"(890.0, 262.0)",[1.3166666666666667],[0.51],1,5450.06
10,False,563,0.619,37,[],[],"[(1123, 839)]",[],[1],[35],[0.5833333333333334],"[640.0, 512.0]",horizontal,"(390.0, 262.0)",[1.6166666666666667],[0.545],1,5454.462
10,False,564,0.872,52,[],[],"[(1113, 849)]",[],[1],[35],[0.5833333333333334],"[640.0, 512.0]",vertical,"(390.0, 762.0)",[1.5],[0.542],1,5459.376
10,False,565,0.721,43,[],[],"[(1102, 847)]",[],[1],[24],[0.4],"[640.0, 512.0]",vertical,"(390.0, 762.0)",[0.8666666666666667],[0.368],1,5464.226
10,False,566,0.974,58,[],[],"[(1083, 854)]",[],[1],[41],[0.6833333333333333],"[640.0, 512.0]",vertical,"(890.0, 262.0)",[0.5],[0.631],1,5468.21
10,False,567,0.716,42,[],[],"[(1110, 863)]",[],[1],[39],[0.65],"[640.0, 512.0]",horizontal,"(890.0, 762.0)",[0.55],[0.608],1,5472.478
10,False,568,1.034,62,[],[],"[(1124, 849)]",[],[1],[38],[0.6333333333333333],"[640.0, 512.0]",vertical,"(390.0, 762.0)",[1.3666666666666667],[0.589],1,5476.387
10,False,569,0.615,36,[],[],"[(1081, 838)]",[],[1],[35],[0.5833333333333334],"[640.0, 512.0]",vertical,"(890.0, 262.0)",[1.3],[0.542],1,5481.46
10,False,570,1.011,60,[],[],"[(1081, 838)]",[],[1],[37],[0.6166666666666667],"[640.0, 512.0]",vertical,"(390.0, 762.0)",[0.6833333333333333],[0.577],1,5486.05
10,False,571,0.996,59,[],[],"[(1102, 829)]",[],[1],[43],[0.7166666666666667],"[640.0, 512.0]",vertical,"(390.0, 762.0)",[1.5166666666666666],[0.672],1,5490.292
10,False,572,0.578,34,[],[],"[(1100, 841)]",[],[1],[19],[0.31666666666666665],"[640.0, 512.0]",horizontal,"(390.0, 262.0)",[1.2166666666666666],[0.28],1,5495.651
10,False,573,1.021,61,[],[],"[(1115, 851)]",[],[1],[35],[0.5833333333333334],"[640.0, 512.0]",horizontal,"(890.0, 762.0)",[1.4],[0.541],1,5499.877
10,False,574,1.051,63,[],[],"[(1126, 867)]",[],[1],[34],[0.5666666666666667],"[640.0, 512.0]",vertical,"(890.0, 762.0)",[1.3333333333333333],[0.527],1,5505.419
10,False,575,0.836,50,[],[],"[(1105, 851)]",[],[1],[35],[0.5833333333333334],"[640.0, 512.0]",horizontal,"(890.0, 762.0)",[0.9833333333333333],[0.541],1,5510.52
10,False,576,1.136,68,[],[],"[(1082, 856)]",[],[1],[39],[0.65],"[640.0, 512.0]",vertical,"(390.0, 262.0)",[1.0666666666666667],[0.604],1,5514.9
10,False,577,0.518,31,[],[],"[(1077, 852)]",[],[1],[40],[0.6666666666666666],"[640.0, 512.0]",vertical,"(390.0, 762.0)",[1.5833333333333333],[0.628],1,5519.675
10,False,578,0.749,44,[],[],"[(1111, 836)]",[],[1],[37],[0.6166666666666667],"[640.0, 512.0]",horizontal,"(390.0, 762.0)",[1.0],[0.573],1,5524.372
10,False,579,0.992,59,[],[],"[(1076, 858)]",[],[1],[34],[0.5666666666666667],"[640.0, 512.0]",horizontal,"(390.0, 262.0)",[0.55],[0.526],1,5528.762
10,False,580,1.089,65,[],[],"[(1122, 858)]",[],[1],[36],[0.6],"[640.0, 512.0]",horizontal,"(390.0, 762.0)",[1.45],[0.567],1,5533.239
10,False,581,0.818,49,[],[],"[(1076, 843)]",[],[1],[36],[0.6],"[640.0, 512.0]",vertical,"(390.0, 262.0)",[0.9333333333333333],[0.563],1,5538.417
10,False,582,0.899,53,[],[],"[(1110, 861)]",[],[1],[33],[0.55],"[640.0, 512.0]",horizontal,"(890.0, 262.0)",[0.7],[0.509],1,5542.905
10,False,583,0.8,48,[],[],"[(1123, 854)]",[],[1],[34],[0.5666666666666667],"[640.0, 512.0]",vertical,"(390.0, 762.0)",[1.4166666666666667],[0.526],1,5546.971
10,False,584,0.536,32,[],[],"[(1082, 841)]",[],[1],[42],[0.7],"[640.0, 512.0]",vertical,"(390.0, 262.0)",[1.4833333333333334],[0.658],1,5551.842
10,False,585,0.995,59,[],[],"[(1076, 852)]",[],[1],[37],[0.6166666666666667],"[640.0, 512.0]",horizontal,"(390.0, 762.0)",[1.4166666666666667],[0.571],1,5556.464
10,False,586,0.812,48,[],[],"[(1109, 849)]",[],[1],[41],[0.6833333333333333],"[640.0, 512.0]",vertical,"(390.0, 762.0)",[0.5333333333333333],[0.641],1,5561.389
10,False,587,1.151,69,[],[],"[(1124, 852)]",[],[1],[45],[0.75],"[640.0, 512.0]",vertical,"(390.0, 262.0)",[1.1833333333333333],[0.706],1,5565.502
10,False,588,0.8,48,[],[],"[(1095, 848)]",[],[1],[38],[0.6333333333333333],"[640.0, 512.0]",horizontal,"(890.0, 762.0)",[1.55],[0.586],1,5570.613
10,False,589,0.851,51,[],[],"[(1096, 839)]",[],[1],[32],[0.5333333333333333],"[640.0, 512.0]",vertical,"(890.0, 262.0)",[0.65],[0.492],1,5575.539
10,False,590,1.155,69,[],[],"[(1110, 845)]",[],[1],[36],[0.6],"[640.0, 512.0]",vertical,"(890.0, 762.0)",[1.1],[0.557],1,5579.731
10,False,591,0.85,51,[],[],"[(1100, 849)]",[],[1],[36],[0.6],"[640.0, 512.0]",horizontal,"(890.0, 762.0)",[0.6833333333333333],[0.551],1,5584.565
10,False,592,0.99,59,[],[],"[(1124, 852)]",[],[1],[39],[0.65],"[640.0, 512.0]",horizontal,"(390.0, 762.0)",[0.8833333333333333],[0.609],1,5588.657
10,False,593,0.526,31,[],[],"[(1096, 849)]",[],[1],[32],[0.5333333333333333],"[640.0, 512.0]",horizontal,"(890.0, 262.0)",[1.15],[0.5],1,5593.31
10,False,594,1.095,65,[],[],"[(1098, 856)]",[],[1],[34],[0.5666666666666667],"[640.0, 512.0]",vertical,"(890.0, 262.0)",[1.45],[0.526],1,5597.489
10,False,595,0.704,42,[],[],"[(1081, 847)]",[],[1],[38],[0.6333333333333333],"[640.0, 512.0]",horizontal,"(890.0, 262.0)",[0.7333333333333333],[0.593],1,5602.591
10,False,596,0.582,34,[],[],"[(1081, 858)]",[],[1],[34],[0.5666666666666667],"[640.0, 512.0]",vertical,"(890.0, 262.0)",[0.8833333333333333],[0.523],1,5606.831
10,False,597,0.78,46,[],[],"[(1120, 837)]",[],[1],[33],[0.55],"[640.0, 512.0]",vertical,"(890.0, 262.0)",[1.2],[0.508],1,5610.957
10,False,598,0.627,37,[],[],"[(1123, 838)]",[],[1],[34],[0.5666666666666667],"[640.0, 512.0]",horizontal,"(890.0, 262.0)",[1.0],[0.526],1,5615.524
10,False,599,0.908,54,[],[],"[(1120, 839)]",[],[1],[33],[0.55],"[640.0, 512.0]",vertical,"(890.0, 262.0)",[1.2333333333333334],[0.513],1,5619.786
10,False,600,0.622,37,[],[],"[(1105, 845)]",[],[1],[35],[0.5833333333333334],"[640.0, 512.0]",horizontal,"(890.0, 762.0)",[0.9833333333333333],[0.546],1,5624.523
11,False,601,0.833,49,[],[],"[(1102, 853)]",[],[1],[36],[0.6],"[640.0, 512.0]",horizontal,"(390.0, 762.0)",[1.2333333333333334],[0.56],1,5628.739
11,False,602,0.92,55,[],[],"[(1115, 858)]",[],[1],[12],[0.2],"[640.0, 512.0]",vertical,"(390.0, 762.0)",[1.0833333333333333],[0.166],1,5634.427
11,False,603,0.68,40,[],[],"[(1101, 856)]",[],[1],[37],[0.6166666666666667],"[640.0, 512.0]",horizontal,"(390.0, 762.0)",[0.5],[0.584],1,5638.665
11,False,604,0.882,52,[],[],"[(1100, 852)]",[],[1],[33],[0.55],"[640.0, 512.0]",horizontal,"(890.0, 762.0)",[0.9333333333333333],[0.511],1,5642.478
11,False,605,0.842,50,[],[],"[(1099, 833)]",[],[1],[35],[0.5833333333333334],"[640.0, 512.0]",horizontal,"(890.0, 762.0)",[0.5833333333333334],[0.543],1,5646.915
11,False,606,1.186,71,[],[],"[(1077, 852)]",[],[1],[36],[0.6],"[640.0, 512.0]",horizontal,"(390.0, 762.0)",[0.7833333333333333],[0.559],1,5650.979
11,False,607,0.549,32,[],[],"[(1076, 861)]",[],[1],[34],[0.5666666666666667],"[640.0, 512.0]",horizontal,"(890.0, 262.0)",[0.6666666666666666],[0.527],1,5655.661
11,False,608,1.031,61,[],[],"[(1115, 862)]",[],[1],[35],[0.5833333333333334],"[640.0, 512.0]",vertical,"(390.0, 762.0)",[1.4833333333333334],[0.541],1,5659.574
11,False,609,1.013,60,[],[],"[(1081, 855)]",[],[1],[35],[0.5833333333333334],"[640.0, 512.0]",vertical,"(390.0, 762.0)",[1.1833333333333333],[0.538],1,5664.694
11,False,610,1.112,66,[],[],"[(1112, 832)]",[],[1],[24],[0.4],"[640.0, 512.0]",vertical,"(890.0, 262.0)",[1.2333333333333334],[0.363],1,5669.663
11,False,611,0.898,53,[],[],"[(1123, 837)]",[],[1],[33],[0.55],"[640.0, 512.0]",horizontal,"(390.0, 262.0)",[1.4166666666666667],[0.511],1,5674.409
11,False,612,0.868,52,[],[],"[(1126, 849)]",[],[1],[41],[0.6833333333333333],"[640.0, 512.0]",vertical,"(890.0, 262.0)",[0.8833333333333333],[0.643],1,5679.453
11,False,613,1.122,67,[],[],"[(1101, 832)]",[],[1],[32],[0.5333333333333333],"[640.0, 512.0]",horizontal,"(890.0, 262.0)",[1.0166666666666666],[0.5],1,5684.012
11,False,614,0.967,58,[],[],"[(1102, 851)]",[],[1],[35],[0.5833333333333334],"[640.0, 512.0]",horizontal,"(890.0, 762.0)",[1.05],[0.541],1,5688.631
11,False,615,1.093,65,[],[],"[(1105, 841)]",[],[1],[15],[0.25],"[640.0, 512.0]",horizontal,"(390.0, 762.0)",[0.6666666666666666],[0.214],1,5693.37
11,False,616,0.855,51,[],[],"[(1094, 867)]",[],[1],[35],[0.5833333333333334],"[640.0, 512.0]",vertical,"(390.0, 762.0)",[1.4166666666666667],[0.539],1,5697.311
11,False,617,1.168,70,[],[],"[(1058, 881)]",[],[1],[33],[0.55],"[640.0, 512.0]",horizontal,"(890.0, 262.0)",[1.6166666666666667],[0.512],1,5778.036
11,False,618,0.982,58,[],[],"[(1096, 858)]",[],[1],[39],[0.65],"[640.0, 512.0]",horizontal,"(390.0, 762.0)",[0.8333333333333334],[0.607],1,5783.312
11,False,619,0.991,59,[],[],"[(1110, 876)]",[],[1],[35],[0.5833333333333334],"[640.0, 512.0]",vertical,"(890.0, 762.0)",[1.6166666666666667],[0.541],1,5787.672
11,False,620,0.792,47,[],[],"[(1110, 853)]",[],[1],[37],[0.6166666666666667],"[640.0, 512.0]",vertical,"(890.0, 762.0)",[1.3166666666666667],[0.569],1,5792.818
11,False,621,1.108,66,[],[],"[(1100, 862)]",[],[1],[35],[0.5833333333333334],"[640.0, 512.0]",horizontal,"(390.0, 262.0)",[1.0333333333333332],[0.538],1,5797.517
11,False,622,0.597,35,[],[],"[(1086, 858)]",[],[1],[36],[0.6],"[640.0, 512.0]",vertical,"(390.0, 262.0)",[0.7166666666666667],[0.56],1,5802.277
11,False,623,1.027,61,[],[],"[(1096, 852)]",[],[1],[37],[0.6166666666666667],"[640.0, 512.0]",horizontal,"(390.0, 762.0)",[1.2666666666666666],[0.579],1,5806.271
11,False,624,0.631,37,[],[],"[(1118, 830)]",[],[1],[36],[0.6],"[640.0, 512.0]",horizontal,"(890.0, 762.0)",[1.35],[0.559],1,5811.096
11,False,625,1.002,60,[],[],"[(1110, 845)]",[],[1],[36],[0.6],"[640.0, 512.0]",vertical,"(390.0, 262.0)",[0.8833333333333333],[0.557],1,5815.774
11,False,626,0.829,49,[],[],"[(1109, 852)]",[],[1],[36],[0.6],"[640.0, 512.0]",vertical,"(390.0, 762.0)",[0.6833333333333333],[0.558],1,5820.374
11,False,627,0.796,47,[],[],"[(1091, 854)]",[],[1],[33],[0.55],"[640.0, 512.0]",vertical,"(390.0, 262.0)",[1.2666666666666666],[0.505],1,5824.601
11,False,628,0.72,43,[],[],"[(1130, 856)]",[],[1],[35],[0.5833333333333334],"[640.0, 512.0]",horizontal,"(390.0, 762.0)",[0.95],[0.542],1,5829.344
11,False,629,0.682,40,[],[],"[(1125, 835)]",[],[1],[33],[0.55],"[640.0, 512.0]",vertical,"(390.0, 262.0)",[1.0666666666666667],[0.51],1,5833.545
11,False,630,0.98,58,[],[],"[(1109, 875)]",[],[1],[33],[0.55],"[640.0, 512.0]",horizontal,"(890.0, 262.0)",[0.6333333333333333],[0.509],1,5837.861
11,False,631,0.743,44,[],[],"[(1100, 852)]",[],[1],[39],[0.65],"[640.0, 512.0]",horizontal,"(890.0, 262.0)",[1.5166666666666666],[0.602],1,5842.049
11,False,632,0.794,47,[],[],"[(1111, 857)]",[],[1],[37],[0.6166666666666667],"[640.0, 512.0]",horizontal,"(890.0, 762.0)",[1.4166666666666667],[0.571],1,5847.059
11,False,633,0.524,31,[],[],"[(1101, 825)]",[],[1],[36],[0.6],"[640.0, 512.0]",horizontal,"(890.0, 262.0)",[0.95],[0.562],1,5852.073
11,False,634,0.566,33,[],[],"[(1096, 839)]",[],[1],[35],[0.5833333333333334],"[640.0, 512.0]",vertical,"(890.0, 262.0)",[0.7166666666666667],[0.541],1,5856.241
11,False,635,0.823,49,[],[],"[(1110, 849)]",[],[1],[37],[0.6166666666666667],"[640.0, 512.0]",horizontal,"(890.0, 762.0)",[1.4166666666666667],[0.575],1,5862.153
11,False,636,0.598,35,[],[],"[(1092, 843)]",[],[1],[35],[0.5833333333333334],"[640.0, 512.0]",horizontal,"(390.0, 762.0)",[0.5333333333333333],[0.543],1,5866.907
11,False,637,0.802,48,[],[],"[(1105, 838)]",[],[1],[34],[0.5666666666666667],"[640.0, 512.0]",vertical,"(890.0, 262.0)",[1.1666666666666667],[0.525],1,5870.707
11,False,638,0.916,54,[],[],"[(1105, 861)]",[],[1],[36],[0.6],"[640.0, 512.0]",horizontal,"(890.0, 762.0)",[0.6333333333333333],[0.557],1,5875.378
11,False,639,0.724,43,[],[],"[(1101, 859)]",[],[1],[40],[0.6666666666666666],"[640.0, 512.0]",horizontal,"(390.0, 262.0)",[1.5666666666666667],[0.62],1,5879.511
11,False,640,1.097,65,[],[],"[(1093, 867)]",[],[1],[35],[0.5833333333333334],"[640.0, 512.0]",vertical,"(890.0, 762.0)",[0.7],[0.538],1,5884.346
11,False,641,0.814,48,[],[],"[(1076, 851)]",[],[1],[40],[0.6666666666666666],"[640.0, 512.0]",horizontal,"(890.0, 762.0)",[1.4],[0.618],1,5888.893
11,False,642,0.764,45,[],[],"[(1096, 849)]",[],[1],[34],[0.5666666666666667],"[640.0, 512.0]",vertical,"(390.0, 762.0)",[0.9166666666666666],[0.53],1,5893.794
11,False,643,0.914,54,[],[],"[(1085, 843)]",[],[1],[18],[0.3],"[640.0, 512.0]",vertical,"(890.0, 262.0)",[1.4166666666666667],[0.263],1,5898.285
11,False,644,0.51,30,[],[],"[(1092, 867)]",[],[1],[36],[0.6],"[640.0, 512.0]",vertical,"(890.0, 762.0)",[1.4666666666666666],[0.563],1,5902.873
11,False,645,0.888,53,[],[],"[(1076, 849)]",[],[1],[37],[0.6166666666666667],"[640.0, 512.0]",vertical,"(390.0, 762.0)",[0.8666666666666667],[0.568],1,5963.044
11,False,646,0.548,32,[],[],"[(1096, 864)]",[],[1],[34],[0.5666666666666667],"[640.0, 512.0]",vertical,"(890.0, 262.0)",[0.6666666666666666],[0.519],1,5967.375
11,False,647,0.892,53,[],[],"[(1086, 843)]",[],[1],[34],[0.5666666666666667],"[640.0, 512.0]",horizontal,"(390.0, 762.0)",[0.55],[0.525],1,5971.157
11,False,648,0.822,49,[],[],"[(1115, 866)]",[],[1],[33],[0.55],"[640.0, 512.0]",vertical,"(890.0, 762.0)",[0.8833333333333333],[0.511],1,5975.278
11,False,649,0.986,59,[],[],"[(1115, 848)]",[],[1],[33],[0.55],"[640.0, 512.0]",vertical,"(390.0, 262.0)",[1.1166666666666667],[0.513],1,5979.623
11,False,650,1.096,65,[],[],"[(1105, 854)]",[],[1],[37],[0.6166666666666667],"[640.0, 512.0]",horizontal,"(390.0, 762.0)",[1.3666666666666667],[0.574],1,5984.175
11,False,651,0.676,40,[],[],"[(1096, 859)]",[],[1],[33],[0.55],"[640.0, 512.0]",vertical,"(890.0, 262.0)",[1.2],[0.502],1,5989.261
11,False,652,0.775,46,[],[],"[(1110, 836)]",[],[1],[32],[0.5333333333333333],"[640.0, 512.0]",vertical,"(890.0, 762.0)",[0.9],[0.493],1,5993.699
11,False,653,1.017,61,[],[],"[(1100, 862)]",[],[1],[35],[0.5833333333333334],"[640.0, 512.0]",vertical,"(390.0, 262.0)",[0.6333333333333333],[0.535],1,5997.863
11,False,654,0.868,52,[],[],"[(1115, 865)]",[],[1],[34],[0.5666666666666667],"[640.0, 512.0]",vertical,"(890.0, 762.0)",[1.0166666666666666],[0.528],1,6002.096
11,False,655,0.71,42,[],[],"[(1123, 854)]",[],[1],[36],[0.6],"[640.0, 512.0]",horizontal,"(390.0, 262.0)",[0.65],[0.559],1,6006.596
11,False,656,0.608,36,[],[],"[(1122, 837)]",[],[1],[34],[0.5666666666666667],"[640.0, 512.0]",vertical,"(890.0, 262.0)",[1.3],[0.522],1,6010.481
11,False,657,0.58,34,[],[],"[(1111, 852)]",[],[1],[38],[0.6333333333333333],"[640.0, 512.0]",horizontal,"(390.0, 262.0)",[1.1333333333333333],[0.589],1,6015.008
