block,trial,trial_type,taps_start_loc_during_fix,taps_end_loc_during_fix,taps_on_lever_during_fix,taps_on_lever_s_during_fix,bar_orientation,target_xy,cti,rt,acc,time,pulses
0,1,target,"[(474, 668), (933, 835), (1046, 839)]","[(918, 838)]","[0, 0, 1]",[0.2833333333333333],vertical,"(390.0, 762.0)",,"('bar', 0.296)",0,0.749,0
0,2,target,"[(552, 700), (474, 697), (944, 707), (930, 691), (1063, 894)]",[],"[0, 0, 0, 0, 1]",[0.4166666666666667],vertical,"(390.0, 262.0)",1.633333333,0.379,1,90.731,1
0,3,target,"[(1012, 790)]",[],[1],[0.31666666666666665],vertical,"(390.0, 262.0)",0.833333333,0.282,1,214.798,1
0,4,target,"[(1059, 800)]",[],[1],[],horizontal,"(390.0, 762.0)",,"('cti', 1.049)",0,2838.178,0
0,5,target,"[(1053, 812)]",[],[1],[],vertical,"(390.0, 762.0)",,"('cti', 1.331)",0,2842.32,0
0,6,target,"[(1093, 782)]",[],[1],[],horizontal,"(390.0, 762.0)",,"('cti', 1.359)",0,2846.795,0
0,7,catch,"[(1060, 802)]",[],[1],[],horizontal,"(390.0, 762.0)",,"('cti', 1.127),nan",0,2851.115,0
0,8,catch,"[(1062, 800)]",[],[1],[],horizontal,"(890.0, 762.0)",1.433333333,nan,1,2855.726,1
0,9,catch,"[(1112, 813)]",[],[1],[],vertical,"(390.0, 762.0)",1.533333333,nan,1,2860.987,1
0,10,target,"[(1070, 795)]",[],[1],[0.85],horizontal,"(390.0, 762.0)",0.6,nan,0,2865.539,0
0,11,target,"[(1079, 809)]",[],[1],[0.85],vertical,"(890.0, 262.0)",1.2,nan,0,2870.297,0
0,12,target,"[(1088, 821)]",[],[1],[0.85],vertical,"(390.0, 262.0)",0.933333333,nan,0,2875.568,0
0,13,target,"[(1071, 799)]",[],[1],[0.5],vertical,"(390.0, 262.0)",1.283333333,0.464,1,2880.128,1
0,14,target,"[(1095, 791)]",[],[1],[0.85],horizontal,"(390.0, 262.0)",0.583333333,nan,0,2885.262,0
0,15,target,"[(1085, 804)]",[],[1],[],horizontal,"(890.0, 262.0)",,"('cti', 1.576)",0,2889.839,0
0,16,target,"[(1107, 800)]",[],[1],[0.7],vertical,"(890.0, 762.0)",0.916666667,0.665,1,2894.879,1
0,17,target,"[(1114, 811)]",[],[1],[0.6333333333333333],vertical,"(390.0, 262.0)",0.583333333,0.596,1,2899.947,1
0,18,target,"[(1080, 780)]",[],[1],[0.6666666666666666],horizontal,"(890.0, 762.0)",1,0.625,1,2904.81,1
0,19,target,"[(1081, 797)]",[],[1],[0.55],vertical,"(390.0, 262.0)",0.816666667,0.509,1,2909.598,2
0,20,target,"[(1072, 790)]",[],[1],[0.6],horizontal,"(390.0, 262.0)",1.283333333,0.555,1,2914.988,2
0,21,target,"[(1097, 797)]",[],[1],[0.48333333333333334],vertical,"(390.0, 762.0)",1.383333333,0.445,1,2920.495,2
0,22,target,"[(1098, 790)]",[],[1],[0.4666666666666667],horizontal,"(390.0, 762.0)",1.3,0.432,1,2926.118,2
0,23,catch,"[(1126, 770)]",[],[1],[],vertical,"(890.0, 262.0)",1.516666667,nan,1,2931.445,2
0,24,target,"[(1102, 795)]",[],[1],[0.26666666666666666],horizontal,"(890.0, 762.0)",1.5,0.229,1,2936.795,3
0,25,target,"[(1079, 805)]",[],[1],[0.5],vertical,"(390.0, 762.0)",1.183333333,0.454,1,2942.766,3
0,26,target,"[(1102, 805)]",[],[1],[0.55],horizontal,"(390.0, 262.0)",0.533333333,0.509,1,2948.874,3
0,27,catch,"[(1096, 797)]",[],[1],[],horizontal,"(390.0, 262.0)",1.383333333,nan,1,2954.229,3
0,28,target,"[(1093, 811)]",[],[1],[0.6333333333333333],horizontal,"(390.0, 262.0)",0.566666667,0.588,1,2959.585,3
0,29,target,"[(1100, 805)]",[],[1],[0.55],vertical,"(390.0, 762.0)",0.983333333,0.504,1,2964.988,3
0,30,target,"[(1082, 801)]",[],[1],[0.4],horizontal,"(390.0, 762.0)",1.483333333,0.36,1,2970.428,3
0,31,target,"[(1083, 788)]",[],[1],[],vertical,"(390.0, 762.0)",,"('cti', 1.011)",0,2976.266,0
0,32,target,"[(1079, 806)]",[],[1],[0.16666666666666666],horizontal,"(390.0, 262.0)",1.366666667,0.135,0,2980.857,0
0,33,target,"[(1077, 798)]",[],[1],[0.26666666666666666],horizontal,"(390.0, 262.0)",1.6,0.231,1,2985.5,1
0,34,target,"[(1092, 784)]",[],[1],[0.55],horizontal,"(390.0, 762.0)",0.916666667,0.523,1,2990.362,1
0,35,catch,"[(1095, 796)]",[],[1],[],vertical,"(890.0, 762.0)",,"('cti', 1.592),nan",0,2995.196,0
0,36,target,"[(1095, 808)]",[],[1],[0.55],horizontal,"(890.0, 262.0)",0.6,0.51,1,3000.099,1
0,37,catch,"[(1100, 794)]",[],[1],[],horizontal,"(390.0, 262.0)",1.366666667,nan,1,3004.759,1
0,38,target,"[(1078, 805)]",[],[1],[0.16666666666666666],horizontal,"(890.0, 262.0)",1.516666667,0.136,0,3009.508,0
0,39,target,"[(1104, 796)]",[],[1],[0.6666666666666666],vertical,"(390.0, 762.0)",0.566666667,0.638,1,3014.068,1
0,40,catch,"[(1081, 799)]",[],[1],[],vertical,"(390.0, 762.0)",,"('cti', 1.169),nan",0,3018.946,0
0,41,target,"[(1124, 788)]",[],[1],[0.43333333333333335],horizontal,"(890.0, 762.0)",1.533333333,0.398,1,3023.642,1
0,42,target,"[(1104, 815)]",[],[1],[0.6],vertical,"(890.0, 762.0)",0.983333333,0.562,1,3028.995,1
0,43,target,"[(1083, 790)]",[],[1],[0.5833333333333334],horizontal,"(390.0, 262.0)",0.816666667,0.539,1,3033.895,1
0,44,target,"[(1104, 811)]",[],[1],[0.7],vertical,"(390.0, 262.0)",0.816666667,0.653,1,3038.858,2
0,45,target,"[(1081, 800)]",[],[1],[0.3833333333333333],horizontal,"(390.0, 762.0)",1.65,0.347,1,3044.064,2
0,46,target,"[(1100, 810)]",[],[1],[0.6166666666666667],vertical,"(890.0, 262.0)",1.1,0.569,1,3049.579,2
0,47,target,"[(1075, 794)]",[],[1],[0.7],vertical,"(390.0, 262.0)",0.683333333,0.649,1,3054.768,2
0,48,target,"[(1072, 812)]",[],[1],[0.85],horizontal,"(890.0, 762.0)",1.116666667,nan,0,3059.844,0
0,49,target,"[(1067, 799)]",[],[1],[0.31666666666666665],vertical,"(890.0, 262.0)",1.4,0.274,1,3064.845,1
0,50,target,"[(1072, 790)]",[],[1],[0.55],vertical,"(890.0, 262.0)",1.433333333,0.506,1,3070.032,1
0,51,target,"[(1085, 798)]",[],[1],[0.7833333333333333],horizontal,"(390.0, 262.0)",1.016666667,0.734,1,3075.259,1
0,52,catch,"[(1102, 799)]",[],[1],[],vertical,"(890.0, 762.0)",1.666666667,nan,1,3080.768,2
0,53,target,"[(1111, 808)]",[],[1],[0.3],horizontal,"(390.0, 262.0)",1.516666667,0.267,1,3085.806,2
0,54,target,"[(1104, 811)]",[],[1],[0.36666666666666664],vertical,"(390.0, 262.0)",1.65,0.326,1,3091.496,2
0,55,target,"[(1095, 792)]",[],[1],[],vertical,"(390.0, 262.0)",,"('cti', 1.501)",0,3097.209,0
0,56,catch,"[(1088, 801)]",[],[1],[],vertical,"(390.0, 762.0)",1.616666667,nan,1,3102.13,1
0,57,target,"[(1099, 805)]",[],[1],"[0.85, 0.85]",vertical,"(890.0, 762.0)",0.9,"0.799,nan",0,3107.096,0
0,58,catch,"[(1090, 805)]",[],[1],[],vertical,"(890.0, 262.0)",1.5,nan,1,3111.94,1
0,59,catch,"[(1074, 790)]",[],[1],[],horizontal,"(890.0, 762.0)",1.5,nan,1,3116.585,1
0,60,target,"[(1098, 822)]",[],[1],[0.43333333333333335],horizontal,"(390.0, 262.0)",1.35,0.393,1,3121.363,1
0,61,target,"[(1095, 788)]",[],[1],[0.5166666666666666],vertical,"(890.0, 262.0)",1.333333333,0.474,1,3126.328,2
0,62,target,"[(1095, 809)]",[],[1],[0.6333333333333333],horizontal,"(390.0, 262.0)",0.75,0.586,1,3131.784,2
0,63,target,"[(1088, 790)]",[],[1],[0.4666666666666667],vertical,"(890.0, 262.0)",0.983333333,0.429,1,3137.301,2
0,64,target,"[(1103, 800)]",[],[1],[0.5333333333333333],horizontal,"(890.0, 762.0)",1.3,0.492,1,3142.729,2
0,65,target,"[(1085, 805)]",[],[1],[0.3],horizontal,"(390.0, 262.0)",1.433333333,0.264,1,3148.302,2
0,66,target,"[(1082, 807)]",[],[1],[0.85],horizontal,"(390.0, 762.0)",0.716666667,nan,0,3153.69,0
0,67,target,"[(1085, 805)]",[],[1],[0.75],vertical,"(890.0, 762.0)",0.5,0.706,1,3157.951,1
0,68,target,"[(1090, 809)]",[],[1],[0.5333333333333333],vertical,"(890.0, 762.0)",1.633333333,0.49,1,3162.464,1
0,69,target,"[(1088, 805)]",[],[1],[0.5666666666666667],horizontal,"(390.0, 762.0)",1.266666667,0.526,1,3167.918,1
0,70,target,"[(1074, 796)]",[],[1],[0.7666666666666666],horizontal,"(390.0, 262.0)",0.85,0.721,1,3173.315,2
0,71,target,"[(1084, 790)]",[],[1],[0.35],horizontal,"(390.0, 262.0)",1.3,0.31,1,3178.818,2
0,72,target,"[(1099, 782)]",[],[1],[0.85],vertical,"(890.0, 762.0)",0.766666667,nan,0,3184.505,0
0,73,target,"[(1077, 805)]",[],[1],[0.85],horizontal,"(890.0, 762.0)",0.866666667,nan,0,3189.076,0
0,74,target,"[(1081, 790)]",[],[1],[0.85],horizontal,"(390.0, 762.0)",0.566666667,nan,0,3193.763,0
0,75,catch,"[(1082, 785)]",[],[1],[],vertical,"(890.0, 262.0)",1.633333333,nan,1,3198.482,1
0,76,target,"[(1101, 797)]",[],[1],[0.6166666666666667],horizontal,"(390.0, 262.0)",0.966666667,0.569,1,3203.765,1
0,77,target,"[(1085, 778)]",[],[1],[0.55],vertical,"(890.0, 762.0)",0.833333333,0.515,1,3208.731,1
0,78,target,"[(1085, 784)]",[],[1],[0.5666666666666667],vertical,"(390.0, 762.0)",0.866666667,0.529,1,3213.578,2
0,79,target,"[(1095, 779)]",[],[1],[0.85],horizontal,"(390.0, 762.0)",0.733333333,nan,0,3218.892,0
0,80,target,"[(1101, 796)]",[],[1],[0.6333333333333333],horizontal,"(890.0, 762.0)",0.516666667,0.59,1,3223.63,1
0,81,catch,"[(1083, 787)]",[],[1],[],horizontal,"(890.0, 262.0)",1.483333333,nan,1,3228.321,1
0,82,target,"[(1090, 807)]",[],[1],[0.35],horizontal,"(390.0, 762.0)",1.4,0.316,1,3233.184,1
0,83,catch,"[(1083, 795)]",[],[1],[],vertical,"(390.0, 762.0)",1.383333333,nan,1,3238.587,2
0,84,target,"[(1100, 794)]",[],[1],[0.6166666666666667],horizontal,"(390.0, 762.0)",0.75,0.572,1,3244.081,2
0,85,target,"[(1077, 780)]",[],[1],[0.6666666666666666],horizontal,"(890.0, 262.0)",1.166666667,0.622,1,3249.442,2
0,86,target,"[(1084, 782)]",[],[1],[0.5333333333333333],horizontal,"(890.0, 762.0)",0.633333333,0.509,1,3254.856,2
0,87,target,"[(1099, 793)]",[],[1],[0.7],vertical,"(390.0, 262.0)",0.533333333,0.656,1,3259.731,2
0,88,target,"[(1104, 790)]",[],[1],[0.18333333333333332],horizontal,"(390.0, 762.0)",1.666666667,0.148,0,3264.491,0
0,89,target,"[(1089, 789)]",[],[1],[0.36666666666666664],vertical,"(890.0, 762.0)",1.4,0.329,1,3269.33,1
0,90,target,"[(1077, 781)]",[],[1],[0.4166666666666667],vertical,"(390.0, 762.0)",1.583333333,0.376,1,3273.963,1
0,91,target,"[(1077, 787)]",[],[1],[0.45],vertical,"(390.0, 262.0)",1.3,0.413,1,3279.448,1
0,92,target,"[(1097, 805)]",[],[1],[0.5666666666666667],vertical,"(390.0, 262.0)",0.683333333,0.525,1,3284.864,2
0,93,target,"[(1104, 791)]",[],[1],[0.7666666666666666],vertical,"(890.0, 762.0)",0.966666667,0.718,1,3289.796,2
0,94,catch,"[(1095, 798)]",[],[1],[],horizontal,"(390.0, 262.0)",1.416666667,nan,1,3295.142,2
0,95,target,"[(1102, 804)]",[],[1],[0.6],vertical,"(390.0, 262.0)",0.95,0.556,1,3300.48,2
0,96,target,"[(1074, 807)]",[],[1],[0.3333333333333333],vertical,"(390.0, 762.0)",1.35,0.298,1,3305.713,2
0,97,catch,"[(1080, 782)]",[],[1],[],horizontal,"(890.0, 762.0)",1.416666667,nan,1,3310.801,3
0,98,target,"[(1103, 780)]",[],[1],[],vertical,"(390.0, 762.0)",,"('cti', 1.598)",0,3316.229,0
0,99,target,"[(1075, 790)]",[],[1],[0.85],horizontal,"(390.0, 762.0)",0.55,nan,0,3320.874,0
0,100,target,"[(1081, 795)]",[],[1],[0.6],horizontal,"(890.0, 762.0)",0.583333333,0.56,1,3325.139,1
0,101,target,"[(1089, 775)]",[],[1],[0.31666666666666665],horizontal,"(390.0, 762.0)",1.333333333,0.281,1,3329.747,1
0,102,target,"[(1074, 792)]",[],[1],[0.5666666666666667],vertical,"(890.0, 762.0)",0.8,0.524,1,3335.047,1
0,103,target,"[(1080, 794)]",[],[1],[0.3],horizontal,"(390.0, 262.0)",1.45,0.267,1,3339.663,2
0,104,catch,"[(1087, 784)]",[],[1],[],vertical,"(890.0, 762.0)",1.566666667,nan,1,3345.064,2
0,105,catch,"[(1080, 782)]",[],[1],[],vertical,"(890.0, 762.0)",1.466666667,nan,1,3350.165,2
0,106,target,"[(1091, 787)]",[],[1],[0.23333333333333334],vertical,"(890.0, 262.0)",1.05,0.199,0,3355.059,0
0,107,target,"[(1046, 805)]",[],[1],[0.6166666666666667],vertical,"(890.0, 262.0)",0.666666667,0.572,1,3359.524,1
0,108,target,"[(1102, 782)]",[],[1],[0.55],horizontal,"(890.0, 262.0)",1.633333333,0.506,1,3376.865,1
0,109,target,"[(1088, 796)]",[],[1],[0.5666666666666667],horizontal,"(890.0, 262.0)",0.783333333,0.534,1,3382.234,1
0,110,target,"[(1081, 782)]",[],[1],[0.48333333333333334],horizontal,"(890.0, 262.0)",0.95,0.446,1,3387.033,2
0,111,target,"[(1077, 798)]",[],[1],[0.36666666666666664],vertical,"(890.0, 762.0)",1.533333333,0.332,1,3392.014,2
0,112,target,"[(1090, 780)]",[],[1],[],vertical,"(390.0, 262.0)",,"('cti', 1.569)",0,3397.624,0
0,113,catch,"[(1087, 804)]",[],[1],[],horizontal,"(390.0, 762.0)",1.466666667,nan,1,3402.046,1
0,114,target,"[(1081, 795)]",[],[1],[0.6],horizontal,"(390.0, 262.0)",0.65,0.557,1,3406.539,1
0,115,target,"[(1079, 785)]",[],[1],[0.6],vertical,"(390.0, 262.0)",0.583333333,0.56,1,3411.446,1
0,116,target,"[(1095, 800)]",[],[1],[0.5166666666666666],vertical,"(390.0, 262.0)",0.933333333,0.478,1,3415.649,2
0,117,target,"[(1106, 790)]",[],[1],[],vertical,"(390.0, 262.0)",,"('cti', 1.535)",0,3421.222,0
0,118,target,"[(1101, 805)]",[],[1],[0.5333333333333333],vertical,"(890.0, 262.0)",0.7,0.491,1,3425.888,1
0,119,target,"[(1099, 795)]",[],[1],[0.2833333333333333],vertical,"(390.0, 262.0)",1.4,0.247,1,3430.748,1
0,120,target,"[(1124, 783)]",[],[1],[0.3333333333333333],horizontal,"(390.0, 762.0)",1.216666667,0.295,1,3435.77,1
0,121,target,"[(1101, 785)]",[],[1],[0.6],vertical,"(890.0, 762.0)",0.65,0.558,1,3440.802,2
0,122,target,"[(1086, 789)]",[],[1],[0.25],vertical,"(890.0, 762.0)",1.383333333,0.214,1,3445.836,2
0,123,target,"[(1075, 779)]",[],[1],[0.6833333333333333],horizontal,"(890.0, 762.0)",0.933333333,0.64,1,3451.199,2
0,124,target,"[(1121, 795)]",[],[1],[0.16666666666666666],vertical,"(390.0, 762.0)",1.5,0.136,0,3456.31,0
0,125,target,"[(1085, 791)]",[],[1],[0.1],vertical,"(390.0, 262.0)",1.566666667,0.067,0,3461.137,0
0,126,target,"[(1107, 779)]",[],[1],[0.5666666666666667],horizontal,"(890.0, 262.0)",1.233333333,0.529,1,3465.614,1
0,127,target,"[(1103, 780)]",[],[1],[0.55],vertical,"(890.0, 762.0)",1.05,0.511,1,3470.532,1
0,128,target,"[(1095, 792)]",[],[1],[0.5833333333333334],vertical,"(890.0, 262.0)",1,0.54,1,3475.331,1
0,129,target,"[(1098, 800)]",[],[1],[0.5],horizontal,"(390.0, 762.0)",1.25,0.459,1,3480.177,2
0,130,catch,"[(1089, 788)]",[],[1],[],horizontal,"(390.0, 762.0)",1.4,nan,1,3485.698,2
0,131,target,"[(1100, 783)]",[],[1],[0.85],vertical,"(390.0, 762.0)",0.716666667,nan,0,3490.769,0
0,132,catch,"[(1085, 784)]",[],[1],[],horizontal,"(390.0, 762.0)",1.516666667,nan,1,3495.271,1
0,133,catch,"[(1100, 809)]",[],[1],[],horizontal,"(890.0, 262.0)",1.433333333,nan,1,3500.031,1
0,134,target,"[(1098, 773)]",[],[1],[0.48333333333333334],horizontal,"(390.0, 262.0)",1.016666667,0.447,1,3505.199,1
0,135,target,"[(1066, 782)]",[],[1],[0.48333333333333334],vertical,"(390.0, 262.0)",0.966666667,0.445,1,3510.134,2
0,136,target,"[(1086, 782)]",[],[1],[0.5833333333333334],horizontal,"(390.0, 762.0)",0.8,0.541,1,3515.666,2
0,137,target,"[(1090, 795)]",[],[1],[0.16666666666666666],vertical,"(890.0, 762.0)",1.516666667,0.135,0,3520.743,0
0,138,target,"[(1086, 799)]",[],[1],[0.65],horizontal,"(390.0, 262.0)",0.516666667,0.612,1,3525.266,1
0,139,target,"[(1076, 804)]",[],[1],[0.5666666666666667],horizontal,"(890.0, 262.0)",0.533333333,0.529,1,3529.707,1
0,140,target,"[(1086, 780)]",[],[1],[0.4166666666666667],vertical,"(890.0, 762.0)",1.2,0.379,1,3534.231,1
0,141,target,"[(1079, 800)]",[],[1],[0.85],vertical,"(390.0, 762.0)",0.7,nan,0,3539.418,0
0,142,target,"[(1084, 796)]",[],[1],[0.25],vertical,"(390.0, 262.0)",0.966666667,0.215,1,3543.718,1
0,143,target,"[(1075, 796)]",[],[1],[0.7666666666666666],horizontal,"(890.0, 762.0)",0.583333333,0.721,1,3548.233,1
0,144,target,"[(1104, 780)]",[],[1],[0.85],horizontal,"(390.0, 762.0)",0.616666667,nan,0,3553.033,0
0,145,target,"[(1080, 811)]",[],[1],[0.6666666666666666],horizontal,"(390.0, 262.0)",0.716666667,0.635,1,3557.724,1
0,146,target,"[(1081, 785)]",[],[1],[0.4],horizontal,"(890.0, 262.0)",1.5,0.365,1,3562.599,1
0,147,target,"[(1106, 783)]",[],[1],[0.6],vertical,"(390.0, 262.0)",0.65,0.561,1,3568.144,1
0,148,target,"[(1100, 788)]",[],[1],[0.65],vertical,"(390.0, 762.0)",1.633333333,0.604,1,3572.683,2
0,149,target,"[(1099, 789)]",[],[1],[0.31666666666666665],vertical,"(390.0, 262.0)",1.133333333,0.281,1,3578.262,2
0,150,target,"[(1081, 794)]",[],[1],[0.15],horizontal,"(390.0, 762.0)",1.55,0.115,0,3583.732,0
0,151,catch,"[(1081, 805)]",[],[1],[],horizontal,"(390.0, 262.0)",1.466666667,nan,1,3588.56,1
0,152,target,"[(1103, 784)]",[],[1],[0.43333333333333335],horizontal,"(390.0, 762.0)",1.633333333,0.395,1,3593.444,1
0,153,target,"[(1092, 780)]",[],[1],[0.5333333333333333],vertical,"(390.0, 262.0)",0.983333333,0.497,1,3598.565,1
0,154,target,"[(1081, 795)]",[],[1],[0.6833333333333333],vertical,"(390.0, 262.0)",1.016666667,0.64,1,3603.933,2
0,155,target,"[(1100, 790)]",[],[1],[0.85],horizontal,"(890.0, 762.0)",0.783333333,nan,0,3609.315,0
0,156,target,"[(1062, 759)]",[],[1],[0.5833333333333334],horizontal,"(890.0, 262.0)",1.083333333,0.543,1,3613.769,1
0,157,target,"[(1061, 792)]",[],[1],[0.3333333333333333],vertical,"(390.0, 262.0)",1.4,0.296,1,3618.777,1
0,158,target,"[(1075, 801)]",[],[1],[0.31666666666666665],horizontal,"(390.0, 762.0)",1.35,0.282,1,3624.201,1
0,159,target,"[(1061, 803)]",[],[1],[0.5833333333333334],vertical,"(890.0, 262.0)",0.966666667,0.547,1,3629.305,2
0,160,target,"[(1050, 787)]",[],[1],[0.7166666666666667],horizontal,"(390.0, 762.0)",0.55,0.669,1,3634.365,2
0,161,target,"[(1061, 790)]",[],[1],[0.6166666666666667],horizontal,"(890.0, 762.0)",0.6,0.581,1,3639.637,2
0,162,target,"[(1074, 804)]",[],[1],[0.85],horizontal,"(390.0, 762.0)",0.6,nan,0,3644.539,0
0,163,target,"[(1061, 803)]",[],[1],[0.6333333333333333],vertical,"(890.0, 262.0)",1.05,0.588,1,3649.153,1
0,164,target,"[(1061, 816)]",[],[1],[0.55],vertical,"(390.0, 762.0)",0.9,0.513,1,3658.793,1
0,165,target,"[(1065, 818)]",[],[1],[0.45],horizontal,"(890.0, 762.0)",1.166666667,0.408,1,3828.671,1
0,166,target,"[(1066, 848)]",[],[1],[0.35],horizontal,"(890.0, 262.0)",1.15,0.311,1,3833.5,2
0,167,target,"[(1062, 800)]",[],[1],[0.4],vertical,"(390.0, 262.0)",1.266666667,0.361,1,4062.751,2
0,168,target,"[(1090, 795)]",[],[1],"[0.85, 0.85]",horizontal,"(890.0, 262.0)",0.583333333,"0.802,nan",0,4068.014,0
0,169,target,"[(1070, 790)]",[],[1],[0.85],horizontal,"(390.0, 262.0)",0.583333333,nan,0,4072.816,0
0,170,target,"[(1062, 816)]",[],[1],[],vertical,"(890.0, 262.0)",,"('cti', 1.608)",0,4077.496,0
0,171,catch,"[(1089, 815)]",[],[1],[],horizontal,"(390.0, 762.0)",1.433333333,nan,1,4082.772,1
0,172,catch,"[(1046, 820)]",[],[1],[],vertical,"(890.0, 762.0)",1.6,nan,1,4087.292,1
0,173,target,"[(1040, 823)]",[],[1],[0.45],vertical,"(890.0, 762.0)",1.55,0.414,1,4093.701,1
0,174,target,"[(1057, 815)]",[],[1],[0.5833333333333334],horizontal,"(890.0, 762.0)",1.266666667,0.538,1,4100.683,2
0,175,target,"[(1057, 787)]",[],[1],[0.55],horizontal,"(390.0, 762.0)",0.8,0.511,1,4106.112,2
0,176,target,"[(1089, 780)]",[],[1],[0.5333333333333333],horizontal,"(890.0, 762.0)",1.466666667,0.492,1,4111.218,2
0,177,target,"[(1075, 821)]",[],[1],[0.6333333333333333],vertical,"(390.0, 262.0)",0.966666667,0.584,1,4116.557,2
0,178,target,"[(1061, 821)]",[],[1],[0.5166666666666666],horizontal,"(390.0, 262.0)",0.6,0.481,1,4178.485,2
0,179,target,"[(1086, 775)]",[],[1],[],vertical,"(890.0, 762.0)",,"('cti', 1.094)",0,4183.852,0
0,180,target,"[(1104, 817)]",[],[1],[],vertical,"(390.0, 262.0)",,"('cti', 1.433)",0,4188.431,0
0,181,target,"[(1105, 791)]",[],[1],[0.5],horizontal,"(890.0, 762.0)",0.966666667,0.467,1,4192.8,1
0,182,target,"[(1061, 838)]",[],[1],[0.85],horizontal,"(390.0, 262.0)",1.166666667,nan,0,4197.408,0
0,183,target,"[(1082, 791)]",[],[1],[0.3833333333333333],vertical,"(390.0, 262.0)",1.683333333,0.346,1,4276.984,1
0,184,target,"[(1080, 804)]",[],[1],[],horizontal,"(890.0, 262.0)",,"('cti', 1.584)",0,4282.549,0
0,185,catch,"[(1125, 800)]",[],[1],[],horizontal,"(890.0, 762.0)",1.616666667,nan,1,4287.196,1
0,186,target,"[(1109, 808)]",[],[1],[0.2833333333333333],vertical,"(890.0, 262.0)",1.45,0.245,1,4291.839,1
0,187,target,"[(1104, 798)]",[],[1],[0.5166666666666666],vertical,"(890.0, 762.0)",0.783333333,0.478,1,4296.752,1
0,188,target,"[(1061, 820)]",[],[1],[0.6166666666666667],vertical,"(390.0, 762.0)",0.6,0.583,1,4301.532,2
0,189,catch,"[(1076, 807)]",[],[1],[],vertical,"(890.0, 762.0)",1.55,nan,1,4307.351,2
0,190,target,"[(1090, 803)]",[],[1],[0.25],horizontal,"(390.0, 762.0)",1.333333333,0.215,1,4312.51,2
0,191,target,"[(1082, 789)]",[],[1],[0.18333333333333332],horizontal,"(390.0, 762.0)",1.533333333,0.149,0,4318.052,0
0,192,target,"[(1080, 782)]",[],[1],[0.55],vertical,"(390.0, 262.0)",0.733333333,0.507,1,4322.572,1
0,193,target,"[(1099, 794)]",[],[1],[0.6166666666666667],horizontal,"(890.0, 262.0)",0.766666667,0.572,1,4326.835,1
0,194,target,"[(1077, 780)]",[],[1],[0.43333333333333335],horizontal,"(390.0, 262.0)",0.966666667,0.395,1,4331.436,1
0,195,target,"[(1086, 796)]",[],[1],[0.5166666666666666],vertical,"(890.0, 262.0)",1.066666667,0.473,1,4336.934,2
0,196,target,"[(1109, 812)]",[],[1],[0.85],vertical,"(390.0, 762.0)",0.666666667,nan,0,4342.286,0
0,197,target,"[(1026, 818)]",[],[1],[0.13333333333333333],horizontal,"(390.0, 262.0)",0.733333333,0.1,0,4346.689,0
0,198,target,"[(1022, 790)]",[],[1],[0.6666666666666666],vertical,"(390.0, 262.0)",0.75,0.619,1,4351.222,1
0,199,target,"[(1088, 810)]",[],[1],[0.3833333333333333],vertical,"(890.0, 262.0)",1.533333333,0.342,1,4357.776,1
0,200,target,"[(1077, 809)]",[],[1],[0.43333333333333335],horizontal,"(890.0, 762.0)",1.233333333,0.391,1,4363.237,1
0,201,target,"[(1080, 820)]",[],[1],[0.5333333333333333],vertical,"(890.0, 762.0)",0.6,0.491,1,4368.376,2
0,202,target,"[(1080, 796)]",[],[1],[0.23333333333333334],horizontal,"(390.0, 762.0)",1.433333333,0.199,0,4373.47,0
0,203,target,"[(1089, 791)]",[],[1],[0.5166666666666666],horizontal,"(890.0, 762.0)",1.45,0.474,1,4378.331,1
0,204,target,"[(1099, 805)]",[],[1],[0.35],horizontal,"(390.0, 762.0)",1.45,0.308,1,4383.304,1
0,205,target,"[(1075, 820)]",[],[1],[0.5833333333333334],horizontal,"(390.0, 262.0)",0.583333333,0.542,1,4388.28,1
0,206,target,"[(1080, 800)]",[],[1],[0.08333333333333333],horizontal,"(890.0, 762.0)",1.666666667,0.051,0,4392.637,0
0,207,catch,"[(1062, 791)]",[],[1],[],horizontal,"(390.0, 762.0)",1.433333333,nan,1,4397.512,1
0,208,target,"[(1085, 789)]",[],[1],[0.55],horizontal,"(390.0, 262.0)",0.966666667,0.508,1,4402.542,1
0,209,target,"[(1084, 801)]",[],[1],[0.31666666666666665],horizontal,"(390.0, 262.0)",1.316666667,0.278,1,4407.706,1
0,210,target,"[(1086, 786)]",[],[1],[0.6],horizontal,"(390.0, 762.0)",0.716666667,0.56,1,4412.964,2
0,211,target,"[(1094, 805)]",[],[1],[0.3],horizontal,"(390.0, 762.0)",1.483333333,0.262,1,4418.676,2
0,212,target,"[(1062, 816)]",[],[1],[0.4],vertical,"(890.0, 262.0)",1.3,0.359,1,4424.12,2
0,213,target,"[(1104, 804)]",[],[1],[],vertical,"(390.0, 262.0)",,"('cti', 1.34)",0,4429.792,0
0,214,target,"[(1083, 801)]",[],[1],[0.4666666666666667],vertical,"(390.0, 762.0)",1.283333333,0.424,1,4434.503,1
0,215,target,"[(1097, 805)]",[],[1],[0.5166666666666666],vertical,"(390.0, 762.0)",1.55,0.468,1,4439.636,1
0,216,target,"[(1104, 794)]",[],[1],[0.6833333333333333],vertical,"(390.0, 762.0)",0.666666667,0.637,1,4444.986,1
0,217,target,"[(1075, 790)]",[],[1],[0.65],horizontal,"(890.0, 762.0)",0.9,0.607,1,4449.543,2
0,218,catch,"[(1086, 787)]",[],[1],[],vertical,"(890.0, 762.0)",1.35,nan,1,4454.899,2
0,219,target,"[(1104, 810)]",[],[1],[0.5],vertical,"(390.0, 762.0)",1.166666667,0.458,1,4459.859,2
0,220,catch,"[(1090, 792)]",[],[1],[],vertical,"(390.0, 262.0)",1.466666667,nan,1,4465.288,2
0,221,target,"[(1106, 797)]",[],[1],[0.85],vertical,"(390.0, 762.0)",0.716666667,nan,0,4470.414,0
0,222,target,"[(1090, 802)]",[],[1],[0.55],vertical,"(890.0, 762.0)",0.6,0.506,1,4474.92,1
0,223,target,"[(1087, 803)]",[],[1],[0.4],horizontal,"(890.0, 762.0)",1.3,0.359,1,4479.37,1
0,224,target,"[(1080, 797)]",[],[1],[0.55],vertical,"(890.0, 762.0)",1.133333333,0.51,1,4484.513,1
0,225,target,"[(1081, 795)]",[],[1],[],vertical,"(890.0, 262.0)",,"('cti', 1.161)",0,4489.804,0
0,226,target,"[(1090, 790)]",[],[1],[0.85],horizontal,"(390.0, 762.0)",0.55,nan,0,4494.16,0
0,227,target,"[(1085, 794)]",[],[1],[0.5333333333333333],horizontal,"(890.0, 262.0)",0.85,0.492,1,4498.52,1
0,228,target,"[(1079, 802)]",[],[1],[0.5333333333333333],vertical,"(890.0, 762.0)",0.916666667,0.488,1,4503.476,1
0,229,target,"[(1072, 790)]",[],[1],[0.5166666666666666],vertical,"(890.0, 262.0)",0.966666667,0.471,1,4508.302,1
0,230,target,"[(1079, 809)]",[],[1],[0.6],horizontal,"(390.0, 262.0)",0.75,0.559,1,4512.82,2
0,231,target,"[(1108, 777)]",[],[1],[0.3833333333333333],vertical,"(390.0, 262.0)",1.2,0.345,1,4518.485,2
0,232,target,"[(1092, 780)]",[],[1],[0.48333333333333334],horizontal,"(390.0, 262.0)",0.516666667,0.441,1,4523.786,2
0,233,target,"[(1094, 796)]",[],[1],[],vertical,"(890.0, 762.0)",,"('cti', 1.597)",0,4528.596,0
0,234,target,"[(1079, 794)]",[],[1],[0.6],horizontal,"(890.0, 262.0)",0.716666667,0.551,1,4533.536,1
0,235,target,"[(1082, 791)]",[],[1],[0.5166666666666666],vertical,"(890.0, 262.0)",0.583333333,0.475,1,4538.255,1
0,236,target,"[(1113, 795)]",[],[1],[0.5],horizontal,"(890.0, 762.0)",1.166666667,0.459,1,4542.77,1
0,237,catch,"[(1109, 804)]",[],[1],[],horizontal,"(890.0, 762.0)",1.5,"('cti', 1.497),nan",0,4547.343,0
0,238,target,"[(1104, 785)]",[],[1],[0.85],vertical,"(390.0, 262.0)",0.783333333,nan,0,4552.267,0
0,239,catch,"[(1109, 797)]",[],[1],[],vertical,"(890.0, 762.0)",1.65,nan,1,4556.604,1
0,240,target,"[(1080, 779)]",[],[1],[0.3833333333333333],horizontal,"(890.0, 762.0)",1.333333333,0.343,1,4561.653,1
0,241,target,"[(1109, 804)]",[],[1],[0.85],vertical,"(390.0, 762.0)",0.65,nan,0,4566.755,0
0,242,target,"[(1112, 789)]",[],[1],[0.85],vertical,"(390.0, 762.0)",1.416666667,nan,0,4571.338,0
0,243,target,"[(1060, 794)]",[],[1],[0.6166666666666667],vertical,"(890.0, 262.0)",0.783333333,0.571,1,4576.454,1
0,244,target,"[(1108, 765)]",[],[1],[0.5],horizontal,"(890.0, 262.0)",1.066666667,0.458,1,4581.504,1
0,245,target,"[(1104, 796)]",[],[1],[0.65],vertical,"(890.0, 762.0)",1.033333333,0.607,1,4586.562,1
0,246,target,"[(1062, 792)]",[],[1],[0.6166666666666667],vertical,"(390.0, 262.0)",0.833333333,0.576,1,4591.403,2
0,247,target,"[(1089, 798)]",[],[1],[0.6],vertical,"(890.0, 262.0)",0.983333333,0.556,1,4596.428,2
0,248,target,"[(1090, 809)]",[],[1],[0.6333333333333333],horizontal,"(890.0, 762.0)",0.7,0.588,1,4601.804,2
0,249,target,"[(1089, 775)]",[],[1],[0.5166666666666666],horizontal,"(890.0, 262.0)",0.75,0.482,1,4606.788,2
0,250,target,"[(1109, 795)]",[],[1],[0.5833333333333334],horizontal,"(390.0, 262.0)",0.566666667,0.545,1,4611.814,2
0,251,target,"[(1111, 785)]",[],[1],[0.26666666666666666],vertical,"(390.0, 762.0)",1.566666667,0.232,1,4616.371,3
0,252,target,"[(1083, 806)]",[],[1],[0.2],vertical,"(390.0, 262.0)",1.433333333,0.164,0,4622.372,0
0,253,target,"[(1090, 803)]",[],[1],[0.5833333333333334],vertical,"(890.0, 762.0)",1.083333333,0.54,1,4627.154,1
0,254,target,"[(1104, 788)]",[],[1],[0.48333333333333334],vertical,"(890.0, 262.0)",0.95,0.441,1,4632.088,1
0,255,target,"[(1080, 777)]",[],[1],[0.6166666666666667],horizontal,"(390.0, 762.0)",0.6,0.575,1,4636.52,1
0,256,target,"[(1080, 805)]",[],[1],[0.55],vertical,"(890.0, 262.0)",0.833333333,0.506,1,4641.505,2
0,257,target,"[(1104, 798)]",[],[1],[0.85],horizontal,"(390.0, 762.0)",1.683333333,"('cti', 1.663),nan",0,4647.054,0
0,258,target,"[(1103, 790)]",[],[1],[0.5],horizontal,"(890.0, 262.0)",0.983333333,0.459,1,4652.472,1
0,259,catch,"[(1103, 781)]",[],[1],[],horizontal,"(890.0, 762.0)",1.366666667,nan,1,4656.906,1
0,260,target,"[(1100, 792)]",[],[1],[0.6333333333333333],vertical,"(390.0, 262.0)",0.533333333,0.601,1,4662.087,1
0,261,target,"[(1100, 795)]",[],[1],[],horizontal,"(890.0, 762.0)",,"('cti', 1.618)",0,4666.405,0
0,262,target,"[(1113, 793)]",[],[1],[0.8],horizontal,"(890.0, 762.0)",0.8,0.76,1,4671.655,1
0,263,target,"[(1081, 813)]",[],[1],[0.55],vertical,"(390.0, 262.0)",1.283333333,0.505,1,4676.519,1
0,264,target,"[(1104, 805)]",[],[1],[0.55],horizontal,"(890.0, 762.0)",1,0.516,1,4681.576,1
0,265,target,"[(1124, 784)]",[],[1],[0.5666666666666667],horizontal,"(890.0, 762.0)",1.116666667,0.526,1,4686.519,2
0,266,target,"[(1102, 783)]",[],[1],[0.85],horizontal,"(390.0, 762.0)",0.516666667,nan,0,4691.989,0
0,267,target,"[(1081, 784)]",[],[1],[0.85],vertical,"(890.0, 262.0)",0.7,nan,0,4696.387,0
0,268,target,"[(1084, 810)]",[],[1],[0.85],vertical,"(890.0, 762.0)",0.983333333,nan,0,4701.111,0
0,269,target,"[(1061, 785)]",[],[1],[0.16666666666666666],horizontal,"(890.0, 762.0)",1.433333333,0.136,0,4706.108,0
0,270,target,"[(1066, 798)]",[],[1],[0.5666666666666667],vertical,"(390.0, 262.0)",0.966666667,0.522,1,4711.721,1
0,271,target,"[(1081, 800)]",[],[1],[0.6166666666666667],vertical,"(890.0, 762.0)",0.683333333,0.578,1,4716.572,1
0,272,target,"[(1085, 806)]",[],[1],[0.7166666666666667],vertical,"(390.0, 762.0)",0.8,0.672,1,4721.354,1
0,273,target,"[(1085, 775)]",[],[1],[0.5333333333333333],horizontal,"(390.0, 262.0)",1.283333333,0.492,1,4726.464,2
0,274,target,"[(1078, 811)]",[],[1],[0.15],vertical,"(390.0, 762.0)",1.633333333,0.116,0,4732.08,0
0,275,target,"[(1080, 803)]",[],[1],[0.5],vertical,"(890.0, 762.0)",1.45,0.459,1,4736.922,1
0,276,target,"[(1077, 802)]",[],[1],[0.6166666666666667],horizontal,"(390.0, 262.0)",1.416666667,0.574,1,4742.412,1
0,277,target,"[(1080, 795)]",[],[1],[0.6333333333333333],vertical,"(390.0, 262.0)",0.85,0.598,1,4747.671,1
0,278,target,"[(1100, 775)]",[],[1],[],horizontal,"(890.0, 762.0)",,"('cti', 1.333)",0,4752.621,0
0,279,target,"[(1099, 795)]",[],[1],[0.5166666666666666],horizontal,"(890.0, 262.0)",0.566666667,0.484,1,4757.452,1
0,280,target,"[(1077, 789)]",[],[1],[0.3333333333333333],horizontal,"(890.0, 762.0)",1.3,0.299,1,4761.688,1
0,281,target,"[(1095, 780)]",[],[1],[0.6],horizontal,"(890.0, 762.0)",0.733333333,0.561,1,4767.193,1
0,282,target,"[(1104, 804)]",[],[1],[0.85],vertical,"(890.0, 762.0)",1.05,nan,0,4771.754,0
0,283,target,"[(1084, 783)]",[],[1],[0.5833333333333334],horizontal,"(890.0, 262.0)",0.783333333,0.542,1,4776.373,1
0,284,target,"[(1098, 809)]",[],[1],[0.7333333333333333],horizontal,"(390.0, 262.0)",0.916666667,0.689,1,4780.938,1
0,285,target,"[(1100, 805)]",[],[1],[0.31666666666666665],horizontal,"(890.0, 262.0)",1.016666667,0.282,1,4786.354,1
0,286,target,"[(1063, 788)]",[],[1],[0.4],horizontal,"(890.0, 762.0)",1.35,0.364,1,4791.684,2
0,287,target,"[(1098, 793)]",[],[1],[0.85],vertical,"(390.0, 762.0)",0.616666667,nan,0,4797.467,0
0,288,target,"[(1075, 801)]",[],[1],[0.5666666666666667],vertical,"(390.0, 762.0)",0.95,0.529,1,4801.673,1
0,289,target,"[(1100, 806)]",[],[1],[0.21666666666666667],horizontal,"(390.0, 262.0)",1.666666667,0.184,0,4806.639,0
0,290,target,"[(1095, 788)]",[],[1],[0.5666666666666667],horizontal,"(390.0, 262.0)",1.133333333,0.526,1,4811.521,1
0,291,target,"[(1063, 811)]",[],[1],[0.05],vertical,"(390.0, 762.0)",1.566666667,0.02,0,4816.482,0
0,292,target,"[(1080, 798)]",[],[1],[0.5333333333333333],horizontal,"(390.0, 262.0)",1.1,0.493,1,4821.655,1
0,293,target,"[(1083, 784)]",[],[1],[0.5666666666666667],vertical,"(890.0, 762.0)",0.65,0.529,1,4827.46,1
0,294,target,"[(1095, 795)]",[],[1],[0.55],vertical,"(890.0, 762.0)",1.233333333,0.517,1,4832.982,1
0,295,target,"[(1100, 787)]",[],[1],[0.6],horizontal,"(890.0, 262.0)",0.616666667,0.559,1,4838.171,2
0,296,target,"[(1085, 777)]",[],[1],[0.6],vertical,"(890.0, 762.0)",0.533333333,0.554,1,4843.503,2
0,297,target,"[(1084, 784)]",[],[1],[0.6],horizontal,"(890.0, 262.0)",1.1,0.555,1,4848.255,2
0,298,target,"[(1095, 822)]",[],[1],[0.36666666666666664],vertical,"(390.0, 262.0)",1.483333333,0.327,1,4853.489,2
0,299,catch,"[(1082, 785)]",[],[1],[],vertical,"(890.0, 262.0)",1.366666667,nan,1,4859.205,2
0,300,catch,"[(1119, 795)]",[],[1],[],vertical,"(390.0, 262.0)",1.6,nan,1,4864.605,3
0,301,target,"[(1100, 812)]",[],[1],[0.48333333333333334],horizontal,"(390.0, 262.0)",0.8,0.446,1,4870.355,3
0,302,target,"[(1101, 777)]",[],[1],[],horizontal,"(390.0, 262.0)",,"('cti', 1.429)",0,4875.892,0
0,303,catch,"[(1095, 797)]",[],[1],[],vertical,"(890.0, 262.0)",1.516666667,nan,1,4880.623,1
0,304,target,"[(1078, 784)]",[],[1],[0.6833333333333333],vertical,"(390.0, 262.0)",0.833333333,0.649,1,4885.132,1
0,305,target,"[(1076, 814)]",[],[1],[],vertical,"(390.0, 262.0)",,"('cti', 1.529)",0,4890.355,0
0,306,target,"[(1106, 786)]",[],[1],[0.35],horizontal,"(390.0, 262.0)",1.583333333,0.314,1,4895.178,1
0,307,target,"[(1121, 778)]",[],[1],[0.65],vertical,"(390.0, 762.0)",0.583333333,0.613,1,4900.687,1
0,308,target,"[(1086, 788)]",[],[1],[0.55],horizontal,"(390.0, 262.0)",1.316666667,0.51,1,4905.507,1
0,309,target,"[(1105, 794)]",[],[1],[0.4],vertical,"(890.0, 762.0)",1.283333333,0.365,1,4910.62,2
0,310,target,"[(1108, 780)]",[],[1],[0.23333333333333334],vertical,"(890.0, 762.0)",1.55,0.199,0,4916.276,0
0,311,target,"[(1084, 786)]",[],[1],[0.5666666666666667],vertical,"(390.0, 262.0)",0.6,0.524,1,4921.507,1
0,312,target,"[(1070, 792)]",[],[1],[0.2833333333333333],vertical,"(890.0, 762.0)",1.416666667,0.249,1,4925.849,1
0,313,target,"[(1106, 789)]",[],[1],[0.5666666666666667],vertical,"(890.0, 762.0)",0.933333333,0.534,1,4931.177,1
0,314,target,"[(1104, 801)]",[],[1],[0.2833333333333333],vertical,"(890.0, 762.0)",1.383333333,0.25,1,4936.363,2
0,315,target,"[(1111, 791)]",[],[1],[0.85],vertical,"(390.0, 762.0)",0.5,nan,0,4941.815,0
0,316,target,"[(1081, 791)]",[],[1],[0.43333333333333335],vertical,"(890.0, 762.0)",1.266666667,0.397,1,4945.997,1
0,317,target,"[(1100, 783)]",[],[1],[0.55],vertical,"(390.0, 262.0)",0.833333333,0.512,1,4951.389,1
0,318,target,"[(1112, 799)]",[],[1],[0.85],vertical,"(390.0, 762.0)",0.55,nan,0,4955.907,0
0,319,target,"[(1084, 775)]",[],[1],[0.8333333333333334],horizontal,"(890.0, 262.0)",0.5,0.791,1,4960.672,1
0,320,target,"[(1085, 796)]",[],[1],[0.23333333333333334],horizontal,"(390.0, 262.0)",1.55,0.197,0,4965.162,0
0,321,target,"[(1085, 781)]",[],[1],[0.6],vertical,"(890.0, 262.0)",0.95,0.56,1,4969.875,1
0,322,target,"[(1106, 785)]",[],[1],[0.6166666666666667],horizontal,"(390.0, 762.0)",0.85,0.576,1,4974.637,1
0,323,target,"[(1076, 789)]",[],[1],[0.55],vertical,"(890.0, 262.0)",1.116666667,0.507,1,4979.772,1
0,324,target,"[(1104, 780)]",[],[1],[0.6833333333333333],vertical,"(890.0, 262.0)",1.066666667,0.639,1,4985.065,2
0,325,target,"[(1088, 800)]",[],[1],[0.15],vertical,"(890.0, 762.0)",1.566666667,0.117,0,4990.867,0
0,326,target,"[(1085, 785)]",[],[1],[0.5666666666666667],horizontal,"(390.0, 262.0)",1.566666667,0.528,1,4995.89,1
0,327,target,"[(1089, 778)]",[],[1],[0.85],horizontal,"(390.0, 262.0)",0.7,nan,0,5001.637,0
0,328,target,"[(1105, 791)]",[],[1],[0.6],horizontal,"(890.0, 262.0)",0.816666667,0.552,1,5006.108,1
0,329,target,"[(1081, 799)]",[],[1],[0.75],horizontal,"(890.0, 762.0)",0.566666667,0.704,1,5010.574,1
0,330,target,"[(1106, 789)]",[],[1],[0.6],horizontal,"(890.0, 762.0)",1.383333333,0.56,1,5015.069,1
0,331,target,"[(1100, 812)]",[],[1],[0.5],vertical,"(390.0, 762.0)",1.483333333,0.458,1,5020.193,2
0,332,target,"[(1101, 795)]",[],[1],[0.4666666666666667],horizontal,"(390.0, 262.0)",1.6,0.428,1,5025.842,2
0,333,catch,"[(1080, 789)]",[],[1],[],horizontal,"(890.0, 262.0)",1.583333333,nan,1,5031.489,2
0,334,target,"[(1105, 795)]",[],[1],[0.5666666666666667],vertical,"(890.0, 262.0)",0.9,0.521,1,5036.777,2
0,335,target,"[(1110, 785)]",[],[1],[0.18333333333333332],horizontal,"(390.0, 262.0)",1.683333333,0.148,0,5041.722,0
0,336,target,"[(1106, 795)]",[],[1],[0.5666666666666667],vertical,"(890.0, 762.0)",0.766666667,0.525,1,5046.395,1
0,337,target,"[(1100, 776)]",[],[1],[0.5833333333333334],horizontal,"(890.0, 262.0)",0.716666667,0.543,1,5050.887,1
0,338,target,"[(1080, 792)]",[],[1],[0.6],horizontal,"(390.0, 262.0)",0.516666667,0.559,1,5055.406,1
0,339,target,"[(1103, 780)]",[],[1],[0.4166666666666667],horizontal,"(890.0, 762.0)",1.4,0.377,1,5059.724,2
0,340,target,"[(1095, 793)]",[],[1],[0.6333333333333333],horizontal,"(890.0, 262.0)",0.666666667,0.599,1,5065.698,2
0,341,target,"[(1104, 790)]",[],[1],[0.5833333333333334],vertical,"(890.0, 762.0)",1,0.539,1,5070.574,2
0,342,target,"[(1126, 793)]",[],[1],[0.55],vertical,"(390.0, 262.0)",1.366666667,0.505,1,5076.023,2
0,343,target,"[(1088, 790)]",[],[1],[0.4666666666666667],vertical,"(890.0, 262.0)",1.416666667,0.427,1,5081.441,2
0,344,target,"[(1076, 782)]",[],[1],[0.4166666666666667],vertical,"(890.0, 762.0)",1.55,0.374,1,5087.223,3
0,345,target,"[(1104, 777)]",[],[1],[0.85],horizontal,"(390.0, 762.0)",0.566666667,nan,0,5092.956,0
0,346,target,"[(1104, 811)]",[],[1],[0.6333333333333333],horizontal,"(390.0, 262.0)",0.833333333,0.591,1,5097.591,1
0,347,target,"[(1048, 789)]",[],[1],[0.85],vertical,"(890.0, 762.0)",1.666666667,nan,0,5102.906,0
0,348,catch,"[(1071, 788)]",[],[1],[],horizontal,"(890.0, 762.0)",1.483333333,nan,1,5317.348,1
0,349,target,"[(1103, 786)]",[],[1],[0.4666666666666667],horizontal,"(390.0, 262.0)",1.15,0.424,1,5322.207,1
0,350,catch,"[(1102, 792)]",[],[1],[],vertical,"(390.0, 262.0)",1.65,nan,1,5327.453,1
0,351,target,"[(1095, 787)]",[],[1],[0.65],horizontal,"(890.0, 262.0)",0.566666667,0.605,1,5332.597,2
0,352,target,"[(1078, 786)]",[],[1],[0.5833333333333334],vertical,"(390.0, 762.0)",1.466666667,0.54,1,5337.274,2
0,353,target,"[(1083, 789)]",[],[1],[0.16666666666666666],horizontal,"(390.0, 262.0)",1.533333333,0.137,0,5342.624,0
0,354,target,"[(1090, 813)]",[],[1],[0.85],vertical,"(890.0, 762.0)",0.566666667,nan,0,5347.075,0
0,355,target,"[(1071, 795)]",[],[1],[0.65],vertical,"(890.0, 262.0)",0.966666667,0.612,1,5355.108,1
0,356,target,"[(1104, 816)]",[],[1],[0.65],vertical,"(890.0, 762.0)",0.816666667,0.609,1,5360.08,1
0,357,target,"[(1086, 809)]",[],[1],[0.5333333333333333],horizontal,"(390.0, 762.0)",0.766666667,0.491,1,5364.99,1
0,358,target,"[(1071, 822)]",[],[1],[0.5],horizontal,"(390.0, 762.0)",0.55,0.463,1,5369.585,2
0,359,target,"[(1047, 795)]",[],[1],[0.5833333333333334],vertical,"(890.0, 262.0)",0.933333333,0.54,1,5375.527,2
0,360,target,"[(1091, 790)]",[],[1],[0.85],vertical,"(890.0, 762.0)",0.666666667,nan,0,5381.697,0
0,361,target,"[(1082, 799)]",[],[1],[0.5],horizontal,"(390.0, 262.0)",1.2,0.462,1,5386.176,1
0,362,target,"[(1123, 788)]",[],[1],[0.85],horizontal,"(890.0, 762.0)",0.516666667,nan,0,5391.107,0
0,363,target,"[(1082, 789)]",[],[1],[0.25],vertical,"(390.0, 262.0)",1.366666667,0.214,1,5395.824,1
0,364,target,"[(1080, 787)]",[],[1],[0.7666666666666666],horizontal,"(890.0, 262.0)",0.933333333,0.726,1,5400.858,1
0,365,target,"[(1080, 794)]",[],[1],[0.5666666666666667],vertical,"(890.0, 262.0)",1.266666667,0.534,1,5405.852,1
0,366,target,"[(1104, 780)]",[],[1],[0.6],horizontal,"(890.0, 762.0)",0.833333333,0.559,1,5410.741,2
0,367,catch,"[(1101, 774)]",[],[1],[],vertical,"(390.0, 762.0)",1.55,nan,1,5416.159,2
0,368,target,"[(1088, 790)]",[],[1],[0.45],horizontal,"(390.0, 762.0)",1.25,0.408,1,5421.246,2
0,369,target,"[(1112, 789)]",[],[1],[0.16666666666666666],vertical,"(890.0, 762.0)",1.483333333,0.136,0,5426.717,0
0,370,target,"[(1082, 793)]",[],[1],[0.85],vertical,"(390.0, 762.0)",0.8,nan,0,5431.514,0
0,371,target,"[(1077, 779)]",[],[1],[0.85],horizontal,"(390.0, 262.0)",1.3,nan,0,5435.823,0
0,372,target,"[(1050, 812)]",[],[1],[0.48333333333333334],horizontal,"(890.0, 262.0)",1.383333333,0.447,1,5441.382,1
0,373,target,"[(1090, 798)]",[],[1],[0.85],horizontal,"(890.0, 762.0)",0.616666667,nan,0,5453.516,0
0,374,target,"[(1076, 779)]",[],[1],[0.5333333333333333],horizontal,"(890.0, 262.0)",0.716666667,0.493,1,5457.986,1
0,375,target,"[(1080, 805)]",[],[1],[0.48333333333333334],vertical,"(890.0, 262.0)",1.533333333,0.441,1,5463.491,1
0,376,target,"[(1101, 778)]",[],[1],[0.6],horizontal,"(390.0, 262.0)",0.6,0.56,1,5468.651,1
0,377,target,"[(1098, 785)]",[],[1],[0.4166666666666667],horizontal,"(390.0, 762.0)",1.383333333,0.38,1,5473.151,2
0,378,target,"[(1072, 803)]",[],[1],[0.55],horizontal,"(390.0, 762.0)",0.933333333,0.515,1,5478.339,2
0,379,target,"[(1104, 783)]",[],[1],[0.55],vertical,"(890.0, 262.0)",0.666666667,0.508,1,5483.63,2
0,380,target,"[(1076, 796)]",[],[1],[0.2833333333333333],horizontal,"(390.0, 762.0)",1.566666667,0.245,1,5488.709,2
0,381,catch,"[(1102, 790)]",[],[1],[],vertical,"(390.0, 262.0)",1.366666667,nan,1,5494.249,2
0,382,target,"[(1090, 809)]",[],[1],[0.7166666666666667],horizontal,"(390.0, 762.0)",0.7,0.679,1,5499.375,3
0,383,target,"[(1088, 800)]",[],[1],[0.5333333333333333],vertical,"(890.0, 762.0)",1.516666667,0.491,1,5505.123,3
0,384,catch,"[(1104, 785)]",[],[1],[],horizontal,"(890.0, 262.0)",1.416666667,nan,1,5511.588,3
0,385,catch,"[(1084, 791)]",[],[1],[],horizontal,"(890.0, 262.0)",,"('cti', 1.5),nan",0,5516.846,0
0,386,target,"[(1088, 802)]",[],[1],[0.48333333333333334],vertical,"(890.0, 262.0)",0.95,0.446,1,5521.609,1
0,387,target,"[(1083, 779)]",[],[1],[0.5166666666666666],vertical,"(890.0, 262.0)",0.616666667,0.484,1,5526.686,1
0,388,target,"[(1082, 791)]",[],[1],[0.31666666666666665],vertical,"(890.0, 262.0)",1.483333333,0.277,1,5530.854,1
0,389,target,"[(1095, 790)]",[],[1],[0.48333333333333334],vertical,"(390.0, 262.0)",1.383333333,0.446,1,5535.858,2
0,390,target,"[(1102, 795)]",[],[1],[0.15],horizontal,"(390.0, 262.0)",1.666666667,0.114,0,5541.41,0
0,391,target,"[(1094, 791)]",[],[1],[0.55],vertical,"(890.0, 762.0)",0.9,0.51,1,5546.512,1
0,392,target,"[(1116, 800)]",[],[1],[0.7833333333333333],vertical,"(390.0, 762.0)",0.6,0.747,1,5551.575,1
0,393,target,"[(1106, 776)]",[],[1],[0.65],vertical,"(890.0, 762.0)",0.7,0.607,1,5556.242,1
0,394,target,"[(1100, 792)]",[],[1],[0.26666666666666666],vertical,"(390.0, 762.0)",1.616666667,0.231,1,5561.105,2
0,395,target,"[(1099, 771)]",[],[1],[0.26666666666666666],vertical,"(890.0, 762.0)",0.8,0.234,1,5566.692,2
0,396,target,"[(1080, 788)]",[],[1],[0.85],horizontal,"(390.0, 762.0)",0.783333333,nan,0,5571.744,0
0,397,target,"[(1078, 775)]",[],[1],[0.6],horizontal,"(390.0, 762.0)",1.066666667,0.566,1,5576.292,1
0,398,target,"[(1097, 780)]",[],[1],[0.6166666666666667],vertical,"(890.0, 762.0)",0.6,0.584,1,5581.364,1
0,399,target,"[(1113, 785)]",[],[1],[0.5333333333333333],vertical,"(390.0, 262.0)",0.766666667,0.489,1,5585.742,1
0,400,target,"[(1079, 796)]",[],[1],[0.6166666666666667],horizontal,"(390.0, 762.0)",0.7,0.576,1,5590.545,2
0,401,target,"[(1108, 799)]",[],[1],[0.85],vertical,"(390.0, 762.0)",0.933333333,nan,0,5595.526,0
0,402,target,"[(1079, 785)]",[],[1],[0.4666666666666667],vertical,"(890.0, 262.0)",1.366666667,0.426,1,5600.374,1
0,403,target,"[(1076, 780)]",[],[1],[0.6],vertical,"(890.0, 262.0)",0.65,0.556,1,5605.675,1
0,404,catch,"[(1119, 776)]",[],[1],[],horizontal,"(890.0, 762.0)",1.416666667,nan,1,5610.043,1
0,405,target,"[(1100, 780)]",[],[1],[0.5333333333333333],horizontal,"(890.0, 262.0)",1.133333333,0.498,1,5615.125,2
0,406,target,"[(1078, 787)]",[],[1],[0.5833333333333334],vertical,"(890.0, 262.0)",0.75,0.541,1,5620.192,2
0,407,target,"[(1100, 754)]",[],[1],[0.18333333333333332],vertical,"(390.0, 762.0)",1.633333333,0.151,0,5625.622,0
0,408,target,"[(1078, 803)]",[],[1],[0.5666666666666667],horizontal,"(390.0, 762.0)",1,0.53,1,5630.214,1
0,409,target,"[(1086, 791)]",[],[1],[0.5],vertical,"(390.0, 262.0)",1.233333333,0.459,1,5634.959,1
0,410,target,"[(1087, 789)]",[],[1],[0.5],horizontal,"(390.0, 262.0)",0.8,0.461,1,5640.03,1
0,411,target,"[(1086, 804)]",[],[1],[0.85],vertical,"(890.0, 762.0)",0.6,nan,0,5644.709,0
0,412,target,"[(1096, 847)]",[],[1],[0.2833333333333333],horizontal,"(890.0, 262.0)",1.316666667,0.252,1,5645.08,1
0,413,target,"[(1106, 501), (1043, 810)]",[],"[0, 1]",[],horizontal,"(390.0, 762.0)",,"('cti', 1.469)",0,5839.761,0
0,414,target,"[(1071, 780)]",[],[1],[0.85],horizontal,"(890.0, 262.0)",0.7,nan,0,6598.717,0
0,415,target,"[(624, 164), (610, 164), (348, 571), (1102, 839)]",[],"[0, 0, 0, 1]",[0.85],vertical,"(890.0, 762.0)",1.2,nan,0,6603.473,0
0,416,target,"[(1083, 797)]",[],[1],[0.5333333333333333],horizontal,"(390.0, 262.0)",1.15,0.497,1,6635.901,1
0,417,target,"[(1081, 810)]",[],[1],[0.6166666666666667],vertical,"(890.0, 762.0)",0.55,0.577,1,6640.522,1
0,418,target,"[(1085, 799)]",[],[1],[],vertical,"(390.0, 262.0)",,"('cti', 1.232)",0,6645.974,0
0,419,target,"[(1082, 810)]",[],[1],[0.85],vertical,"(390.0, 762.0)",1.116666667,nan,0,6650.447,0
0,420,target,"[(1085, 792)]",[],[1],[0.6333333333333333],horizontal,"(890.0, 262.0)",0.516666667,0.602,1,6655.26,1
0,421,target,"[(1107, 796)]",[],[1],[0.21666666666666667],vertical,"(390.0, 262.0)",1,0.182,0,6659.984,0
0,422,target,"[(1098, 799)]",[],[1],[0.23333333333333334],horizontal,"(390.0, 262.0)",0.866666667,0.194,0,6664.207,0
0,423,target,"[(1102, 803)]",[],[1],[0.85],horizontal,"(890.0, 762.0)",0.966666667,nan,0,6668.157,0
0,424,target,"[(1094, 803)]",[],[1],[0.6666666666666666],horizontal,"(890.0, 762.0)",1.283333333,0.619,1,6672.939,1
0,425,target,"[(1116, 805)]",[],[1],[0.5],vertical,"(390.0, 262.0)",1.416666667,0.461,1,6678.324,1
0,426,target,"[(1100, 808)]",[],[1],[0.6],horizontal,"(390.0, 262.0)",1.133333333,0.559,1,6683.483,1
0,427,target,"[(1095, 806)]",[],[1],[0.6833333333333333],horizontal,"(390.0, 762.0)",0.983333333,0.639,1,6688.54,2
0,428,target,"[(1105, 796)]",[],[1],[0.48333333333333334],horizontal,"(390.0, 262.0)",0.983333333,0.446,1,6693.931,2
0,429,target,"[(1113, 786)]",[],[1],[0.5833333333333334],horizontal,"(890.0, 262.0)",1.183333333,0.539,1,6698.773,2
0,430,target,"[(1106, 793)]",[],[1],[0.31666666666666665],horizontal,"(390.0, 262.0)",1.566666667,0.283,1,6704.3,2
0,431,target,"[(1098, 801)]",[],[1],[0.55],horizontal,"(890.0, 262.0)",0.716666667,0.509,1,6709.553,2
0,432,target,"[(1112, 785)]",[],[1],[0.5],horizontal,"(890.0, 262.0)",1.383333333,0.464,1,6714.871,3
0,433,target,"[(1102, 796)]",[],[1],[0.5833333333333334],vertical,"(890.0, 262.0)",1.3,0.539,1,6720.843,3
0,434,target,"[(1089, 816)]",[],[1],[0.5666666666666667],horizontal,"(390.0, 762.0)",1.066666667,0.525,1,6726.607,3
0,435,target,"[(1104, 801)]",[],[1],[0.55],vertical,"(890.0, 762.0)",0.7,0.512,1,6732.186,3
0,436,target,"[(1094, 805)]",[],[1],[0.55],vertical,"(890.0, 762.0)",1.016666667,0.509,1,6737.382,3
0,437,target,"[(1075, 795)]",[],[1],[0.5666666666666667],horizontal,"(390.0, 762.0)",0.65,0.525,1,6743.374,3
0,438,target,"[(1071, 801)]",[],[1],[0.6166666666666667],horizontal,"(890.0, 262.0)",0.65,0.575,1,6748.54,3
0,439,target,"[(1100, 792)]",[],[1],[0.5166666666666666],horizontal,"(890.0, 262.0)",0.85,0.478,1,6754.521,3
0,440,target,"[(1100, 776)]",[],[1],[],horizontal,"(390.0, 762.0)",,"('cti', 1.617)",0,6760.241,0
0,441,target,"[(1106, 801)]",[],[1],[0.55],horizontal,"(890.0, 262.0)",1,0.507,1,6764.948,1
0,442,target,"[(1072, 796)]",[],[1],[0.5833333333333334],vertical,"(890.0, 762.0)",0.816666667,0.541,1,6769.886,1
0,443,target,"[(1099, 779)]",[],[1],[0.5333333333333333],vertical,"(390.0, 762.0)",1.233333333,0.496,1,6775.546,1
0,444,target,"[(1061, 783)]",[],[1],[0.5833333333333334],horizontal,"(890.0, 262.0)",0.7,0.537,1,6780.25,2
0,445,target,"[(1099, 795)]",[],[1],[0.5333333333333333],horizontal,"(890.0, 262.0)",1.066666667,0.495,1,6785.358,2
0,446,target,"[(1119, 786)]",[],[1],[0.48333333333333334],horizontal,"(390.0, 262.0)",1.35,0.446,1,6790.74,2
0,447,target,"[(1099, 779)]",[],[1],[0.5],vertical,"(390.0, 262.0)",1.066666667,0.455,1,6796.238,2
0,448,target,"[(1077, 795)]",[],[1],[],vertical,"(390.0, 762.0)",,"('cti', 1.486)",0,6801.545,0
0,449,target,"[(1085, 786)]",[],[1],[0.6333333333333333],horizontal,"(890.0, 262.0)",0.95,0.588,1,6806.333,1
0,450,target,"[(1083, 785)]",[],[1],[0.3],horizontal,"(890.0, 762.0)",1.633333333,0.268,1,6811.041,1
0,451,target,"[(1077, 795)]",[],[1],[0.4],horizontal,"(390.0, 762.0)",1.55,0.362,1,6816.461,1
0,452,target,"[(1099, 794)]",[],[1],[0.6666666666666666],vertical,"(390.0, 262.0)",0.883333333,0.619,1,6821.675,2
0,453,target,"[(1103, 794)]",[],[1],[0.5666666666666667],vertical,"(890.0, 262.0)",0.516666667,0.526,1,6827.001,2
0,454,target,"[(1075, 792)]",[],[1],[0.5],horizontal,"(890.0, 262.0)",0.666666667,0.464,1,6831.807,2
0,455,target,"[(1077, 796)]",[],[1],[0.6833333333333333],vertical,"(390.0, 762.0)",1.033333333,0.638,1,6836.523,2
0,456,target,"[(1089, 789)]",[],[1],[0.85],vertical,"(390.0, 762.0)",0.933333333,nan,0,6842.14,0
0,457,target,"[(1095, 793)]",[],[1],[0.5166666666666666],horizontal,"(890.0, 262.0)",1.15,0.479,1,6846.675,1
0,458,target,"[(1088, 792)]",[],[1],[0.6166666666666667],vertical,"(390.0, 262.0)",1.033333333,0.573,1,6851.244,1
0,459,target,"[(1086, 775)]",[],[1],[0.85],horizontal,"(390.0, 762.0)",0.616666667,nan,0,6856.54,0
0,460,catch,"[(1080, 787)]",[],[1],[],horizontal,"(390.0, 262.0)",1.366666667,nan,1,6860.975,1
0,461,target,"[(1109, 794)]",[],[1],[0.5833333333333334],vertical,"(390.0, 762.0)",1.033333333,0.546,1,6865.658,1
0,462,target,"[(1073, 779)]",[],[1],[0.7],vertical,"(390.0, 762.0)",0.766666667,0.656,1,6870.557,1
0,463,catch,"[(1080, 792)]",[],[1],[],horizontal,"(890.0, 262.0)",1.516666667,nan,1,6875.659,2
0,464,target,"[(1107, 790)]",[],[1],[0.08333333333333333],horizontal,"(390.0, 762.0)",1.583333333,0.052,0,6880.647,0
0,465,target,"[(1128, 786)]",[],[1],[],horizontal,"(390.0, 762.0)",,"('cti', 1.493)",0,6884.962,0
0,466,target,"[(1087, 854)]",[],[1],[0.85],horizontal,"(390.0, 762.0)",0.6,nan,0,6889.574,0
0,467,target,"[(1065, 831)]",[],[1],[],horizontal,"(390.0, 262.0)",,"('cti', 1.613)",0,6899.368,0
0,468,target,"[(1080, 786)]",[],[1],[0.16666666666666666],horizontal,"(390.0, 262.0)",1.45,0.132,0,6904.113,0
0,469,catch,"[(1116, 799)]",[],[1],[],vertical,"(390.0, 762.0)",1.466666667,nan,1,6908.837,1
0,470,target,"[(1083, 792)]",[],[1],[0.6333333333333333],horizontal,"(390.0, 762.0)",0.9,0.593,1,6913.461,1
0,471,catch,"[(1093, 790)]",[],[1],[],vertical,"(390.0, 262.0)",1.666666667,nan,1,6917.893,1
0,472,target,"[(1083, 790)]",[],[1],[0.2833333333333333],horizontal,"(390.0, 762.0)",1.383333333,0.246,1,6923.174,2
0,473,target,"[(1110, 788)]",[],[1],[0.48333333333333334],horizontal,"(390.0, 762.0)",1.566666667,0.445,1,6928.616,2
0,474,target,"[(1104, 796)]",[],[1],[0.5833333333333334],vertical,"(890.0, 262.0)",0.766666667,0.543,1,6934.393,2
0,475,target,"[(1086, 796)]",[],[1],[0.85],horizontal,"(890.0, 262.0)",0.95,nan,0,6939.209,0
0,476,target,"[(1112, 797)]",[],[1],[0.4166666666666667],horizontal,"(890.0, 262.0)",1.35,0.379,1,6944.242,1
0,477,target,"[(1111, 790)]",[],[1],[0.5333333333333333],horizontal,"(890.0, 262.0)",0.8,0.493,1,6949.439,1
0,478,target,"[(1102, 786)]",[],[1],[0.6333333333333333],horizontal,"(390.0, 762.0)",0.533333333,0.59,1,6954.041,1
0,479,target,"[(1109, 794)]",[],[1],[0.5666666666666667],horizontal,"(890.0, 262.0)",1.116666667,0.526,1,6958.384,2
0,480,target,"[(1107, 781)]",[],[1],[0.5333333333333333],horizontal,"(890.0, 262.0)",0.783333333,0.485,1,6963.607,2
0,481,target,"[(1113, 790)]",[],[1],[0.85],horizontal,"(390.0, 262.0)",0.9,nan,0,6968.435,0
0,482,target,"[(1108, 793)]",[],[1],[0.5],horizontal,"(390.0, 262.0)",1.316666667,0.461,1,6973.129,1
0,483,target,"[(1122, 789)]",[],[1],[0.08333333333333333],vertical,"(390.0, 262.0)",1.566666667,0.054,0,6978.108,0
0,484,target,"[(1074, 790)]",[],[1],[0.5],vertical,"(890.0, 762.0)",0.833333333,0.459,1,6982.391,1
0,485,target,"[(1085, 790)]",[],[1],[0.5333333333333333],horizontal,"(390.0, 262.0)",0.716666667,0.489,1,6987.174,1
0,486,catch,"[(1104, 791)]",[],[1],[],vertical,"(890.0, 262.0)",1.633333333,nan,1,6991.456,1
0,487,target,"[(1066, 773)]",[],[1],[0.5],horizontal,"(390.0, 762.0)",1.3,0.456,1,6996.108,2
0,488,target,"[(1104, 797)]",[],[1],[0.6],vertical,"(890.0, 262.0)",1.266666667,0.558,1,7001.141,2
0,489,target,"[(1104, 787)]",[],[1],[0.5833333333333334],vertical,"(390.0, 262.0)",1.266666667,0.54,1,7007.118,2
0,490,target,"[(1081, 778)]",[],[1],[0.31666666666666665],horizontal,"(890.0, 762.0)",1.633333333,0.278,1,7012.484,2
0,491,target,"[(1104, 794)]",[],[1],[0.5333333333333333],horizontal,"(390.0, 762.0)",0.75,0.492,1,7017.841,2
0,492,target,"[(1094, 791)]",[],[1],[0.11666666666666667],vertical,"(390.0, 762.0)",1.683333333,0.087,0,7022.608,0
0,493,target,"[(1099, 786)]",[],[1],[0.5333333333333333],horizontal,"(390.0, 262.0)",1.45,0.493,1,7027.235,1
0,494,target,"[(1075, 790)]",[],[1],[0.5],vertical,"(890.0, 262.0)",1.266666667,0.467,1,7032.175,1
0,495,target,"[(1100, 785)]",[],[1],[0.5166666666666666],horizontal,"(890.0, 262.0)",1.066666667,0.478,1,7037.469,1
0,496,target,"[(1076, 775)]",[],[1],[0.5],vertical,"(890.0, 762.0)",1.283333333,0.456,1,7042.311,2
0,497,catch,"[(1117, 786)]",[],[1],[],horizontal,"(390.0, 762.0)",1.466666667,nan,1,7047.409,2
0,498,catch,"[(1104, 790)]",[],[1],[],vertical,"(390.0, 762.0)",,"('cti', 1.537),nan",0,7052.199,0
0,499,target,"[(1112, 785)]",[],[1],[0.5166666666666666],vertical,"(890.0, 262.0)",1.35,0.475,1,7057.165,1
0,500,target,"[(1100, 790)]",[],[1],[0.4166666666666667],horizontal,"(890.0, 262.0)",1.233333333,0.376,1,7062.124,1
0,501,target,"[(1102, 791)]",[],[1],[0.48333333333333334],vertical,"(890.0, 262.0)",1.133333333,0.448,1,7066.908,1
0,502,target,"[(1107, 780)]",[],[1],[0.4666666666666667],vertical,"(890.0, 262.0)",0.5,0.431,1,7071.574,2
0,503,target,"[(1112, 799)]",[],[1],[0.5],vertical,"(390.0, 762.0)",1.65,0.464,1,7076.432,2
0,504,target,"[(1075, 791)]",[],[1],[0.7333333333333333],horizontal,"(390.0, 762.0)",0.916666667,0.695,1,7082.368,2
0,505,target,"[(1098, 785)]",[],[1],[0.5166666666666666],horizontal,"(890.0, 262.0)",0.783333333,0.475,1,7087.825,2
0,506,target,"[(1109, 799)]",[],[1],[0.48333333333333334],vertical,"(890.0, 762.0)",1.3,0.448,1,7092.975,2
0,507,catch,"[(1087, 779)]",[],[1],[],horizontal,"(890.0, 762.0)",1.516666667,nan,1,7098.337,3
0,508,target,"[(1100, 792)]",[],[1],[0.15],vertical,"(890.0, 762.0)",1.483333333,0.118,0,7104.128,0
0,509,target,"[(1095, 801)]",[],[1],[0.5333333333333333],vertical,"(390.0, 762.0)",0.933333333,0.491,1,7108.484,1
0,510,target,"[(1071, 792)]",[],[1],[0.31666666666666665],vertical,"(390.0, 262.0)",1.4,0.279,1,7113.01,1
0,511,target,"[(1025, 773)]",[],[1],[0.5333333333333333],horizontal,"(390.0, 762.0)",0.883333333,0.495,1,7118.19,1
0,512,target,"[(1061, 812)]",[],[1],[0.3333333333333333],horizontal,"(390.0, 762.0)",1.6,0.293,1,7142.526,2
0,513,target,"[(1075, 779)]",[],[1],[0.5666666666666667],horizontal,"(890.0, 262.0)",0.7,0.524,1,7148.399,2
0,514,target,"[(1075, 817)]",[],[1],[0.6],vertical,"(390.0, 762.0)",1.216666667,0.559,1,7153.261,2
0,515,target,"[(1097, 779)]",[],[1],[0.55],horizontal,"(890.0, 262.0)",0.8,0.505,1,7161.02,2
0,516,target,"[(1086, 790)]",[],[1],[0.85],vertical,"(390.0, 262.0)",1.05,nan,0,7166.04,0
0,517,target,"[(1092, 779)]",[],[1],[0.4166666666666667],vertical,"(390.0, 762.0)",1.483333333,0.389,1,7170.644,1
0,518,target,"[(1099, 791)]",[],[1],[0.5],vertical,"(390.0, 762.0)",1.466666667,0.459,1,7176.004,1
0,519,catch,"[(1095, 787)]",[],[1],[],horizontal,"(390.0, 762.0)",1.433333333,nan,1,7180.993,1
0,520,target,"[(1104, 795)]",[],[1],[0.5666666666666667],horizontal,"(390.0, 262.0)",1.033333333,0.528,1,7185.926,2
0,521,target,"[(1086, 780)]",[],[1],[0.5333333333333333],horizontal,"(890.0, 262.0)",0.85,0.494,1,7191.674,2
0,522,target,"[(1102, 787)]",[],[1],[0.2833333333333333],horizontal,"(890.0, 262.0)",1.433333333,0.249,1,7196.701,2
0,523,catch,"[(1092, 778)]",[],[1],[],vertical,"(890.0, 262.0)",,"('cti', 1.241),nan",0,7202.252,0
0,524,target,"[(1081, 784)]",[],[1],[0.5166666666666666],vertical,"(390.0, 762.0)",1.566666667,0.477,1,7206.825,1
0,525,target,"[(1077, 791)]",[],[1],[0.5333333333333333],horizontal,"(390.0, 762.0)",1.25,0.492,1,7212.757,1
0,526,target,"[(1082, 794)]",[],[1],[0.7],vertical,"(390.0, 762.0)",0.8,0.653,1,7217.761,1
0,527,target,"[(1084, 795)]",[],[1],[0.6166666666666667],horizontal,"(890.0, 762.0)",0.983333333,0.581,1,7223.032,2
0,528,target,"[(1103, 785)]",[],[1],[0.4],horizontal,"(390.0, 762.0)",1.283333333,0.367,1,7228.392,2
0,529,target,"[(1100, 798)]",[],[1],[0.55],horizontal,"(890.0, 262.0)",0.75,0.506,1,7234.026,2
0,530,catch,"[(1107, 786)]",[],[1],[],horizontal,"(390.0, 762.0)",1.6,nan,1,7238.769,2
0,531,target,"[(1106, 795)]",[],[1],[0.5166666666666666],vertical,"(890.0, 762.0)",0.5,0.475,1,7244.042,2
0,532,target,"[(1100, 775)]",[],[1],[0.85],vertical,"(390.0, 762.0)",0.6,nan,0,7248.977,0
0,533,target,"[(1102, 795)]",[],[1],[0.5],vertical,"(890.0, 762.0)",1.116666667,0.456,1,7253.692,1
0,534,target,"[(1095, 799)]",[],[1],[0.5833333333333334],horizontal,"(390.0, 762.0)",0.783333333,0.546,1,7258.932,1
0,535,target,"[(1086, 795)]",[],[1],[0.45],horizontal,"(390.0, 262.0)",1.566666667,0.414,1,7263.434,1
0,536,target,"[(1077, 799)]",[],[1],[0.75],vertical,"(390.0, 762.0)",1.083333333,0.712,1,7268.452,2
0,537,target,"[(1102, 788)]",[],[1],[0.4666666666666667],vertical,"(890.0, 762.0)",1.316666667,0.43,1,7274.025,2
0,538,catch,"[(1083, 780)]",[],[1],[],vertical,"(390.0, 762.0)",1.433333333,nan,1,7279.358,2
0,539,target,"[(1077, 787)]",[],[1],[0.5333333333333333],horizontal,"(890.0, 262.0)",0.6,0.495,1,7284.158,2
0,540,target,"[(1101, 787)]",[],[1],[0.35],vertical,"(890.0, 262.0)",1.533333333,0.311,1,7288.883,2
0,541,target,"[(1101, 790)]",[],[1],[0.6666666666666666],horizontal,"(390.0, 762.0)",0.85,0.625,1,7294.039,3
0,542,target,"[(1081, 810)]",[],[1],[0.85],vertical,"(890.0, 262.0)",1.65,"('cti', 1.653),nan",0,7299.798,0
0,543,target,"[(1069, 815)]",[],[1],[0.55],horizontal,"(890.0, 762.0)",1.1,0.52,1,7305.234,1
0,544,target,"[(1094, 806)]",[],[1],[0.5666666666666667],vertical,"(890.0, 762.0)",1.016666667,0.524,1,7310.685,1
0,545,target,"[(1103, 785)]",[],[1],[0.5833333333333334],vertical,"(890.0, 762.0)",0.516666667,0.552,1,7315.426,1
0,546,catch,"[(1079, 779)]",[],[1],[],horizontal,"(890.0, 262.0)",1.466666667,nan,1,7319.898,2
0,547,target,"[(1107, 789)]",[],[1],[0.3833333333333333],vertical,"(390.0, 762.0)",1.266666667,0.345,1,7325.327,2
0,548,target,"[(1080, 784)]",[],[1],[0.48333333333333334],vertical,"(890.0, 762.0)",0.7,0.442,1,7330.993,2
0,549,catch,"[(1089, 790)]",[],[1],[0.03333333333333333],horizontal,"(890.0, 762.0)",1.5,"0.018,nan",0,7335.884,0
0,550,target,"[(1070, 796)]",[],[1],[0.5333333333333333],vertical,"(890.0, 762.0)",0.966666667,0.493,1,7340.734,1
0,551,target,"[(1086, 794)]",[],[1],[0.85],horizontal,"(390.0, 762.0)",0.7,nan,0,7346.409,0
0,552,target,"[(1090, 785)]",[],[1],[0.5666666666666667],horizontal,"(890.0, 762.0)",0.75,0.531,1,7350.843,1
0,553,target,"[(1096, 790)]",[],[1],[0.55],vertical,"(890.0, 262.0)",0.666666667,0.507,1,7355.938,1
0,554,target,"[(1090, 790)]",[],[1],[0.6333333333333333],horizontal,"(390.0, 262.0)",0.716666667,0.594,1,7360.361,1
0,555,target,"[(1084, 791)]",[],[1],[0.5833333333333334],horizontal,"(890.0, 762.0)",1.066666667,0.545,1,7364.973,2
0,556,target,"[(1104, 772)]",[],[1],[0.55],horizontal,"(390.0, 262.0)",0.866666667,0.513,1,7370.293,2
0,557,target,"[(1100, 787)]",[],[1],[],horizontal,"(890.0, 262.0)",,"('cti', 1.568)",0,7375.193,0
0,558,target,"[(1106, 783)]",[],[1],[0.55],vertical,"(390.0, 262.0)",0.616666667,0.509,1,7379.836,1
0,559,target,"[(1094, 794)]",[],[1],[0.4166666666666667],vertical,"(390.0, 762.0)",1.3,0.379,1,7384.012,1
0,560,target,"[(1076, 786)]",[],[1],[0.3333333333333333],horizontal,"(390.0, 262.0)",1.466666667,0.296,1,7388.983,1
0,561,target,"[(1101, 782)]",[],[1],[0.5166666666666666],vertical,"(890.0, 262.0)",1.1,0.473,1,7394.126,2
0,562,target,"[(1099, 786)]",[],[1],[0.6],horizontal,"(390.0, 762.0)",0.6,0.559,1,7399.277,2
0,563,target,"[(1080, 785)]",[],[1],[0.5166666666666666],vertical,"(390.0, 262.0)",1.1,0.475,1,7404.392,2
0,564,target,"[(1082, 786)]",[],[1],[0.5833333333333334],horizontal,"(390.0, 262.0)",1.05,0.539,1,7409.477,2
0,565,target,"[(1106, 786)]",[],[1],[0.85],vertical,"(390.0, 762.0)",0.8,nan,0,7414.824,0
0,566,target,"[(1085, 767)]",[],[1],[0.3833333333333333],vertical,"(890.0, 762.0)",1.266666667,0.347,1,7419.576,1
0,567,target,"[(1075, 813)]",[],[1],[0.35],vertical,"(390.0, 762.0)",1.4,0.316,1,7424.295,1
0,568,target,"[(1091, 793)]",[],[1],[0.85],horizontal,"(390.0, 262.0)",1.683333333,"('cti', 1.671),nan",0,7429.476,0
0,569,target,"[(1064, 779)]",[],[1],[0.5333333333333333],horizontal,"(390.0, 762.0)",1.15,0.492,1,7435.194,1
0,570,target,"[(1077, 813)]",[],[1],[0.85],horizontal,"(890.0, 762.0)",0.65,nan,0,7439.982,0
0,571,target,"[(1090, 760)]",[],[1],[0.85],vertical,"(890.0, 262.0)",0.883333333,nan,0,7444.266,0
0,572,catch,"[(1100, 782)]",[],[1],[],horizontal,"(390.0, 762.0)",1.416666667,nan,1,7449.061,1
0,573,target,"[(1092, 786)]",[],[1],[0.55],vertical,"(890.0, 262.0)",0.65,0.505,1,7454.293,1
0,574,target,"[(1088, 810)]",[],[1],[0.5833333333333334],horizontal,"(390.0, 762.0)",0.95,0.538,1,7458.726,1
0,575,target,"[(1077, 809)]",[],[1],[0.6833333333333333],vertical,"(890.0, 762.0)",1.05,0.633,1,7463.71,2
0,576,target,"[(1107, 802)]",[],[1],[0.5333333333333333],horizontal,"(390.0, 762.0)",1.033333333,0.494,1,7469.327,2
0,577,target,"[(1077, 788)]",[],[1],[0.48333333333333334],vertical,"(890.0, 762.0)",1.066666667,0.439,1,7474.561,2
0,578,target,"[(1047, 810)]",[],[1],[0.5333333333333333],horizontal,"(890.0, 762.0)",0.55,0.498,1,7479.875,2
0,579,target,"[(1075, 768)]",[],[1],[0.48333333333333334],horizontal,"(390.0, 262.0)",0.55,0.443,1,7487.265,2
0,580,catch,"[(1080, 779)]",[],[1],[],horizontal,"(390.0, 262.0)",1.583333333,nan,1,7492.141,3
0,581,target,"[(1093, 789)]",[],[1],[0.6166666666666667],horizontal,"(890.0, 762.0)",0.95,0.573,1,7497.677,3
0,582,target,"[(1103, 785)]",[],[1],[0.4666666666666667],vertical,"(390.0, 762.0)",1.216666667,0.428,1,7503.204,3
0,583,target,"[(1104, 792)]",[],[1],[0.55],vertical,"(390.0, 262.0)",1.05,0.507,1,7508.778,3
0,584,target,"[(1109, 777)]",[],[1],[0.6],horizontal,"(390.0, 262.0)",0.95,0.56,1,7514.827,3
0,585,target,"[(1079, 800)]",[],[1],[0.55],vertical,"(890.0, 262.0)",1.183333333,0.503,1,7520.043,3
0,586,target,"[(1078, 805)]",[],[1],[0.5],vertical,"(390.0, 262.0)",1.633333333,0.46,1,7525.667,3
0,587,target,"[(1081, 797)]",[],[1],[0.7333333333333333],vertical,"(890.0, 762.0)",0.566666667,0.71,1,7531.478,3
0,588,target,"[(1080, 796)]",[],[1],[0.4666666666666667],vertical,"(890.0, 262.0)",0.616666667,0.423,1,7537.443,3
0,589,target,"[(1109, 792)]",[],[1],[0.4666666666666667],horizontal,"(890.0, 262.0)",1.216666667,0.423,1,7542.511,3
0,590,target,"[(1075, 817)]",[],[1],[0.13333333333333333],horizontal,"(390.0, 762.0)",1.616666667,0.099,0,7548.47,0
0,591,target,"[(1056, 785)]",[],[1],[0.55],vertical,"(890.0, 762.0)",1.066666667,0.506,1,7554.26,1
0,592,target,"[(1072, 810)]",[],[1],[0.5333333333333333],vertical,"(890.0, 262.0)",1.466666667,0.494,1,7559.282,1
0,593,target,"[(1080, 796)]",[],[1],[0.3833333333333333],vertical,"(890.0, 262.0)",1.316666667,0.34,1,7564.645,1
0,594,target,"[(1109, 776)]",[],[1],[0.36666666666666664],vertical,"(890.0, 762.0)",1.266666667,0.328,1,7570.118,2
0,595,target,"[(1095, 787)]",[],[1],[0.6833333333333333],vertical,"(890.0, 762.0)",0.5,0.636,1,7575.294,2
0,596,target,"[(1108, 790)]",[],[1],[0.05],horizontal,"(890.0, 762.0)",1.5,0.019,0,7580.285,0
0,597,target,"[(1075, 795)]",[],[1],[0.5833333333333334],vertical,"(390.0, 762.0)",0.916666667,0.538,1,7584.938,1
0,598,target,"[(1075, 794)]",[],[1],[0.4666666666666667],vertical,"(890.0, 262.0)",1.566666667,0.433,1,7590.919,1
0,599,target,"[(1095, 785)]",[],[1],[0.23333333333333334],horizontal,"(390.0, 762.0)",1.5,0.204,1,7596.186,1
0,600,target,"[(1091, 793)]",[],[1],[0.26666666666666666],horizontal,"(390.0, 762.0)",1.583333333,0.231,1,7601.462,2
0,601,target,"[(1108, 771)]",[],[1],[0.85],vertical,"(390.0, 262.0)",0.683333333,nan,0,7606.711,0
0,602,target,"[(1113, 764)]",[],[1],[0.43333333333333335],horizontal,"(890.0, 762.0)",1.233333333,0.392,1,7610.857,1
0,603,target,"[(1090, 809)]",[],[1],[0.25],horizontal,"(390.0, 262.0)",1.45,0.214,1,7615.945,1
0,604,catch,"[(1072, 805)]",[],[1],[],vertical,"(390.0, 762.0)",1.483333333,nan,1,7620.873,1
0,605,target,"[(1087, 792)]",[],[1],[0.48333333333333334],horizontal,"(390.0, 262.0)",1.266666667,0.441,1,7625.944,2
0,606,target,"[(1105, 795)]",[],[1],[0.5],horizontal,"(890.0, 262.0)",0.683333333,0.463,1,7631.228,2
0,607,target,"[(1091, 792)]",[],[1],[0.5666666666666667],vertical,"(890.0, 262.0)",0.683333333,0.528,1,7636.32,2
0,608,target,"[(1075, 802)]",[],[1],[0.6],vertical,"(890.0, 762.0)",0.983333333,0.552,1,7641.361,2
0,609,catch,"[(1073, 785)]",[],[1],[],vertical,"(390.0, 262.0)",1.35,nan,1,7646.778,2
0,610,catch,"[(1071, 784)]",[],[1],[],horizontal,"(890.0, 262.0)",1.533333333,nan,1,7651.978,3
0,611,target,"[(1075, 790)]",[],[1],[0.6],horizontal,"(890.0, 262.0)",0.566666667,0.56,1,7657.563,3
0,612,target,"[(1084, 782)]",[],[1],[0.85],vertical,"(390.0, 762.0)",0.7,nan,0,7663.168,0
0,613,target,"[(1085, 776)]",[],[1],[0.6333333333333333],vertical,"(390.0, 762.0)",1,0.59,1,7667.403,1
0,614,target,"[(1072, 785)]",[],[1],[0.23333333333333334],vertical,"(890.0, 262.0)",1.55,0.2,1,7672.445,1
0,615,target,"[(1100, 781)]",[],[1],[0.48333333333333334],horizontal,"(390.0, 262.0)",1.133333333,0.447,1,7677.429,1
0,616,target,"[(1103, 787)]",[],[1],[0.5833333333333334],vertical,"(390.0, 762.0)",0.9,0.539,1,7682.556,2
0,617,target,"[(1104, 794)]",[],[1],[0.85],vertical,"(890.0, 262.0)",1.633333333,"('cti', 1.621),nan",0,7687.894,0
0,618,target,"[(1082, 786)]",[],[1],[0.85],vertical,"(890.0, 762.0)",0.533333333,nan,0,7692.977,0
0,619,target,"[(1095, 786)]",[],[1],[0.35],vertical,"(390.0, 762.0)",1.45,0.312,1,7697.644,1
0,620,catch,"[(1079, 794)]",[],[1],[],vertical,"(390.0, 762.0)",,"('cti', 1.52),nan",0,7703.028,0
0,621,target,"[(1098, 775)]",[],[1],[0.36666666666666664],horizontal,"(390.0, 762.0)",1.5,0.331,1,7707.806,1
0,622,target,"[(1095, 810)]",[],[1],[0.55],horizontal,"(390.0, 262.0)",0.533333333,0.506,1,7713.116,1
0,623,target,"[(1090, 781)]",[],[1],[0.5333333333333333],horizontal,"(890.0, 262.0)",1.1,0.496,1,7717.594,1
0,624,target,"[(1097, 805)]",[],[1],[0.25],horizontal,"(890.0, 262.0)",1.466666667,0.214,1,7722.928,2
0,625,target,"[(1091, 797)]",[],[1],[0.85],vertical,"(390.0, 762.0)",1.066666667,nan,0,7728.262,0
0,626,target,"[(1110, 785)]",[],[1],[0.4666666666666667],vertical,"(890.0, 262.0)",1.35,0.425,1,7733.39,1
0,627,target,"[(1079, 790)]",[],[1],[0.5333333333333333],vertical,"(390.0, 262.0)",0.95,0.49,1,7738.578,1
0,628,target,"[(1082, 784)]",[],[1],[0.6166666666666667],vertical,"(390.0, 762.0)",0.616666667,0.574,1,7743.108,1
0,629,target,"[(1086, 785)]",[],[1],[0.26666666666666666],vertical,"(390.0, 262.0)",1.616666667,0.235,1,7748.013,2
0,630,target,"[(1082, 783)]",[],[1],[0.23333333333333334],horizontal,"(390.0, 262.0)",1.3,0.198,0,7753.612,0
0,631,target,"[(1085, 784)]",[],[1],[0.23333333333333334],horizontal,"(390.0, 762.0)",1.466666667,0.2,1,7758.05,1
0,632,target,"[(1104, 774)]",[],[1],[],horizontal,"(390.0, 762.0)",,"('cti', 1.502)",0,7763.395,0
0,633,target,"[(1058, 777)]",[],[1],[0.5333333333333333],vertical,"(890.0, 762.0)",1.15,0.502,1,7767.979,1
0,634,target,"[(1086, 773)]",[],[1],[0.1],horizontal,"(890.0, 762.0)",1.6,0.068,0,7774.191,0
0,635,target,"[(1105, 782)]",[],[1],[0.85],vertical,"(890.0, 762.0)",0.533333333,nan,0,7778.62,0
0,636,target,"[(1095, 771)]",[],[1],[0.55],vertical,"(390.0, 262.0)",1.133333333,0.506,1,7782.907,1
0,637,target,"[(1103, 790)]",[],[1],[0.6166666666666667],horizontal,"(390.0, 262.0)",0.95,0.576,1,7787.953,1
0,638,target,"[(1084, 806)]",[],[1],[0.35],vertical,"(890.0, 762.0)",1.333333333,0.31,1,7793.161,1
0,639,target,"[(1075, 779)]",[],[1],[0.5],horizontal,"(890.0, 262.0)",1.4,0.461,1,7798.165,2
0,640,target,"[(1085, 775)]",[],[1],[0.15],vertical,"(390.0, 762.0)",1.65,0.12,0,7803.936,0
0,641,catch,"[(1080, 782)]",[],[1],[],horizontal,"(390.0, 762.0)",1.666666667,nan,1,7808.782,1
0,642,target,"[(1095, 775)]",[],[1],[0.7],vertical,"(390.0, 762.0)",0.55,0.667,1,7813.545,1
0,643,target,"[(1061, 799)]",[],[1],[0.6],vertical,"(890.0, 262.0)",1.666666667,0.564,1,7818.348,1
0,644,target,"[(1080, 805)]",[],[1],[0.55],horizontal,"(390.0, 762.0)",0.533333333,0.519,1,7824.216,2
0,645,target,"[(1076, 771)]",[],[1],[0.16666666666666666],horizontal,"(890.0, 762.0)",1.616666667,0.138,0,7829.696,0
0,646,target,"[(1080, 785)]",[],[1],[0.5],vertical,"(890.0, 762.0)",1.4,0.459,1,7834.327,1
0,647,catch,"[(1060, 788)]",[],[1],[],vertical,"(890.0, 262.0)",,"('cti', 1.465),nan",0,7839.2,0
0,648,catch,"[(1058, 778)]",[],[1],[],horizontal,"(390.0, 262.0)",1.45,nan,1,7843.779,1
0,649,target,"[(1080, 787)]",[],[1],[0.21666666666666667],vertical,"(890.0, 762.0)",1.416666667,0.182,0,7848.462,0
0,650,target,"[(1085, 779)]",[],[1],[0.5166666666666666],vertical,"(890.0, 762.0)",1.45,0.477,1,7853.368,1
0,651,target,"[(1104, 787)]",[],[1],[0.5],vertical,"(890.0, 762.0)",1.1,0.461,1,7858.395,1
0,652,target,"[(1104, 814)]",[],[1],[0.3],horizontal,"(890.0, 262.0)",1.533333333,0.262,1,7863.179,1
0,653,target,"[(1074, 790)]",[],[1],[0.5833333333333334],horizontal,"(390.0, 762.0)",1,0.542,1,7868.729,2
0,654,target,"[(1102, 789)]",[],[1],[0.5666666666666667],vertical,"(890.0, 262.0)",0.6,0.532,1,7874.046,2
0,655,catch,"[(1105, 772)]",[],[1],[],horizontal,"(390.0, 762.0)",1.4,nan,1,7878.541,2
0,656,target,"[(1081, 763)]",[],[1],[0.08333333333333333],horizontal,"(890.0, 262.0)",1.666666667,0.05,0,7883.664,0
0,657,target,"[(1105, 777)]",[],[1],[0.13333333333333333],horizontal,"(390.0, 762.0)",1.483333333,0.101,0,7888.474,0
0,658,target,"[(1101, 795)]",[],[1],[0.36666666666666664],horizontal,"(890.0, 762.0)",1.333333333,0.329,1,7893.198,1
0,659,target,"[(1104, 787)]",[],[1],[0.5166666666666666],horizontal,"(390.0, 262.0)",1,0.475,1,7898.33,1
0,660,target,"[(1101, 785)]",[],[1],[0.55],vertical,"(890.0, 262.0)",1.216666667,0.507,1,7902.863,1
0,661,target,"[(1094, 790)]",[],[1],[0.6333333333333333],vertical,"(390.0, 762.0)",0.616666667,0.594,1,7908.23,2
0,662,catch,"[(1086, 785)]",[],[1],[],vertical,"(890.0, 762.0)",1.666666667,nan,1,7913.539,2
0,663,target,"[(1104, 782)]",[],[1],[0.45],horizontal,"(390.0, 262.0)",1.566666667,0.412,1,7919.233,2
0,664,target,"[(1076, 810)]",[],[1],[0.85],vertical,"(390.0, 762.0)",0.7,nan,0,7925.079,0
0,665,target,"[(1080, 780)]",[],[1],[0.5833333333333334],horizontal,"(390.0, 762.0)",1.05,0.551,1,7929.495,1
0,666,target,"[(1086, 796)]",[],[1],[0.55],vertical,"(390.0, 762.0)",1.2,0.506,1,7934.297,1
0,667,target,"[(1109, 799)]",[],[1],[0.5666666666666667],horizontal,"(390.0, 762.0)",0.883333333,0.525,1,7939.329,1
0,668,target,"[(1075, 778)]",[],[1],[0.55],horizontal,"(390.0, 262.0)",1.283333333,0.518,1,7944.181,2
0,669,target,"[(1088, 786)]",[],[1],[0.85],horizontal,"(390.0, 262.0)",0.9,nan,0,7949.673,0
0,670,target,"[(1103, 765)]",[],[1],[0.85],horizontal,"(390.0, 762.0)",0.516666667,nan,0,7954.366,0
0,671,target,"[(1084, 796)]",[],[1],[0.6],horizontal,"(890.0, 762.0)",0.583333333,0.556,1,7958.714,1
0,672,target,"[(1074, 785)]",[],[1],[0.5666666666666667],horizontal,"(390.0, 762.0)",1.083333333,0.529,1,7963.715,1
0,673,target,"[(1091, 782)]",[],[1],[0.5],vertical,"(390.0, 762.0)",1.566666667,0.456,1,7968.93,1
0,674,catch,"[(1078, 779)]",[],[1],[],horizontal,"(390.0, 262.0)",1.6,nan,1,7974.212,2
0,675,target,"[(1096, 785)]",[],[1],[0.85],horizontal,"(890.0, 762.0)",0.5,nan,0,7979.337,0
0,676,target,"[(1063, 786)]",[],[1],[0.5333333333333333],horizontal,"(390.0, 762.0)",1.1,0.493,1,7983.513,1
0,677,target,"[(1074, 776)]",[],[1],[0.43333333333333335],vertical,"(890.0, 262.0)",1.55,0.397,1,7988.362,1
0,678,target,"[(1066, 778)]",[],[1],[0.55],horizontal,"(890.0, 262.0)",0.783333333,0.508,1,7993.687,1
0,679,target,"[(1068, 787)]",[],[1],[0.2833333333333333],horizontal,"(890.0, 762.0)",1.4,0.248,1,7998.494,2
0,680,target,"[(1092, 784)]",[],[1],[0.6333333333333333],vertical,"(890.0, 262.0)",0.7,0.591,1,8003.788,2
0,681,target,"[(1086, 785)]",[],[1],[0.5],vertical,"(890.0, 762.0)",1.116666667,0.463,1,8009.053,2
0,682,target,"[(1075, 773)]",[],[1],[0.5833333333333334],horizontal,"(390.0, 262.0)",0.616666667,0.543,1,8014.212,2
0,683,target,"[(1107, 776)]",[],[1],[0.3333333333333333],horizontal,"(890.0, 262.0)",1.45,0.296,1,8019.021,2
0,684,target,"[(1106, 784)]",[],[1],[0.55],vertical,"(390.0, 262.0)",1.033333333,0.509,1,8024.559,3
0,685,target,"[(1084, 788)]",[],[1],[0.1],horizontal,"(390.0, 762.0)",1.683333333,0.066,0,8030.179,0
0,686,target,"[(1081, 793)]",[],[1],[0.5166666666666666],horizontal,"(890.0, 262.0)",1.133333333,0.482,1,8035.464,1
0,687,target,"[(1080, 771)]",[],[1],[0.55],vertical,"(890.0, 762.0)",0.833333333,0.505,1,8040.605,1
0,688,catch,"[(1102, 778)]",[],[1],[],vertical,"(890.0, 762.0)",1.416666667,nan,1,8045.139,1
0,689,target,"[(1101, 774)]",[],[1],[0.5666666666666667],vertical,"(390.0, 762.0)",1.016666667,0.524,1,8049.981,2
0,690,target,"[(1103, 804)]",[],[1],[0.4],horizontal,"(890.0, 262.0)",1.383333333,0.363,1,8055.516,2
0,691,target,"[(1089, 777)]",[],[1],[0.5666666666666667],horizontal,"(390.0, 762.0)",0.533333333,0.523,1,8060.964,2
0,692,target,"[(1104, 790)]",[],[1],[0.5333333333333333],vertical,"(390.0, 762.0)",1.166666667,0.5,1,8065.564,2
0,693,target,"[(1088, 795)]",[],[1],[0.6],vertical,"(390.0, 762.0)",1.066666667,0.573,1,8071.114,2
0,694,target,"[(1089, 795)]",[],[1],[0.5833333333333334],vertical,"(390.0, 262.0)",0.716666667,0.544,1,8076.789,3
0,695,target,"[(1087, 770)]",[],[1],[0.5833333333333334],vertical,"(890.0, 262.0)",0.666666667,0.545,1,8082.631,3
0,696,target,"[(1090, 799)]",[],[1],[0.5666666666666667],horizontal,"(890.0, 762.0)",0.8,0.524,1,8087.881,3
0,697,target,"[(1077, 804)]",[],[1],[0.13333333333333333],vertical,"(390.0, 762.0)",1.583333333,0.101,0,8093.88,0
0,698,target,"[(1083, 780)]",[],[1],[0.4666666666666667],vertical,"(390.0, 262.0)",1.283333333,0.426,1,8099.046,1
0,699,target,"[(1085, 805)]",[],[1],[0.31666666666666665],horizontal,"(890.0, 762.0)",1.65,0.276,1,8104.031,1
0,700,target,"[(1104, 804)]",[],[1],[0.11666666666666667],horizontal,"(390.0, 262.0)",1.566666667,0.087,0,8109.245,0
0,701,target,"[(1095, 780)]",[],[1],[0.4666666666666667],horizontal,"(390.0, 762.0)",1.25,0.426,1,8114.448,1
0,702,target,"[(1081, 770)]",[],[1],[0.5],vertical,"(890.0, 262.0)",1.066666667,0.458,1,8119.579,1
0,703,target,"[(1121, 773)]",[],[1],[0.11666666666666667],horizontal,"(890.0, 762.0)",1.483333333,0.084,0,8124.495,0
0,704,target,"[(1079, 786)]",[],[1],[],vertical,"(390.0, 262.0)",,"('cti', 1.494)",0,8129.076,0
0,705,target,"[(1090, 764)]",[],[1],[0.45],vertical,"(890.0, 262.0)",1.25,0.406,1,8133.764,1
0,706,target,"[(1085, 786)]",[],[1],[0.6666666666666666],horizontal,"(890.0, 262.0)",0.8,0.622,1,8138.608,1
0,707,target,"[(1076, 790)]",[],[1],[0.3833333333333333],horizontal,"(390.0, 762.0)",1.333333333,0.347,1,8143.963,1
0,708,catch,"[(1086, 778)]",[],[1],[],horizontal,"(390.0, 262.0)",,"('cti', 1.353),nan",0,8149.013,0
0,709,target,"[(1081, 799)]",[],[1],[0.5666666666666667],vertical,"(890.0, 262.0)",0.95,0.529,1,8153.963,1
0,710,target,"[(1088, 786)]",[],[1],[0.6],vertical,"(390.0, 762.0)",0.866666667,0.552,1,8158.407,1
0,711,target,"[(1086, 792)]",[],[1],"[0.85, 0.85]",vertical,"(390.0, 762.0)",1.166666667,"0.802,nan",0,8163.307,0
0,712,target,"[(1072, 780)]",[],[1],[0.4166666666666667],horizontal,"(390.0, 262.0)",1.35,0.374,1,8168.226,1
0,713,target,"[(1081, 770)]",[],[1],[0.6833333333333333],horizontal,"(890.0, 762.0)",0.5,0.636,1,8173.121,1
0,714,catch,"[(1084, 763)]",[],[1],[],vertical,"(890.0, 262.0)",1.616666667,nan,1,8177.521,1
0,715,target,"[(1096, 786)]",[],[1],[0.5833333333333334],horizontal,"(390.0, 262.0)",0.733333333,0.54,1,8182.524,2
0,716,target,"[(1089, 787)]",[],[1],[0.65],vertical,"(890.0, 762.0)",0.666666667,0.605,1,8187.963,2
0,717,catch,"[(1080, 764)]",[],[1],[],vertical,"(890.0, 262.0)",1.483333333,nan,1,8192.805,2
0,718,target,"[(1102, 760)]",[],[1],[0.5166666666666666],horizontal,"(890.0, 262.0)",1.05,0.474,1,8198.068,2
0,719,target,"[(1075, 783)]",[],[1],[0.5],horizontal,"(890.0, 262.0)",0.783333333,0.458,1,8203.525,2
0,720,target,"[(1100, 780)]",[],[1],[0.85],vertical,"(890.0, 262.0)",1.55,"('cti', 1.536),nan",0,8208.497,0
0,721,target,"[(1061, 780)]",[],[1],[0.85],vertical,"(890.0, 762.0)",0.55,nan,0,8213.977,0
0,722,target,"[(1098, 783)]",[],[1],[0.3],horizontal,"(890.0, 262.0)",1.316666667,0.266,1,8230.814,1
0,723,target,"[(1089, 785)]",[],[1],[0.48333333333333334],horizontal,"(390.0, 262.0)",1.583333333,0.443,1,8235.897,1
0,724,target,"[(1100, 800)]",[],[1],[0.6],vertical,"(890.0, 762.0)",0.85,0.555,1,8240.915,1
0,725,target,"[(1101, 800)]",[],[1],[0.5666666666666667],vertical,"(890.0, 762.0)",0.633333333,0.526,1,8245.914,2
0,726,target,"[(1063, 780)]",[],[1],[0.7166666666666667],vertical,"(390.0, 762.0)",0.916666667,0.681,1,8250.77,2
0,727,target,"[(1088, 772)]",[],[1],[0.5166666666666666],vertical,"(890.0, 262.0)",0.833333333,0.473,1,8256.199,2
0,728,target,"[(1080, 795)]",[],[1],[0.35],vertical,"(890.0, 262.0)",1.5,0.31,1,8261.279,2
0,729,target,"[(1100, 776)]",[],[1],[0.85],vertical,"(890.0, 762.0)",1,nan,0,8266.631,0
0,730,target,"[(1065, 762)]",[],[1],[0.6333333333333333],vertical,"(890.0, 762.0)",0.833333333,0.586,1,8271.53,1
0,731,target,"[(1067, 795)]",[],[1],[0.5],horizontal,"(890.0, 262.0)",0.95,0.456,1,8276.331,1
0,732,target,"[(1085, 796)]",[],[1],[0.6833333333333333],vertical,"(390.0, 262.0)",0.55,0.638,1,8281.047,1
0,733,target,"[(1101, 796)]",[],[1],[0.5833333333333334],horizontal,"(390.0, 762.0)",1.066666667,0.547,1,8285.515,2
0,734,target,"[(1107, 798)]",[],[1],[0.6166666666666667],vertical,"(890.0, 762.0)",0.7,0.574,1,8290.576,2
0,735,catch,"[(1107, 790)]",[],[1],[],vertical,"(890.0, 762.0)",1.35,nan,1,8295.98,2
0,736,target,"[(1089, 790)]",[],[1],[0.6],horizontal,"(890.0, 262.0)",0.8,0.561,1,8300.73,2
0,737,target,"[(1103, 781)]",[],[1],[0.5166666666666666],vertical,"(890.0, 762.0)",1.05,0.478,1,8306.383,2
0,738,target,"[(1103, 758)]",[],[1],[0.21666666666666667],vertical,"(890.0, 262.0)",1.683333333,0.182,0,8311.949,0
0,739,target,"[(1093, 791)]",[],[1],[0.5166666666666666],vertical,"(390.0, 262.0)",1.533333333,0.474,1,8316.833,1
0,740,target,"[(1081, 783)]","[(1063, 807)]",[1],[0.4166666666666667],vertical,"(390.0, 762.0)",,"('bar', 0.43)",0,8322.101,0
0,741,target,"[(1059, 807)]",[],[1],[0.3333333333333333],vertical,"(890.0, 262.0)",1.6,0.296,1,8324.873,1
0,742,target,"[(1100, 780)]",[],[1],[0.85],vertical,"(890.0, 262.0)",0.566666667,nan,0,8356.93,0
0,743,target,"[(1068, 780)]",[],[1],[0.21666666666666667],vertical,"(890.0, 762.0)",1.533333333,0.183,0,8361.361,0
0,744,target,"[(1104, 768)]",[],[1],[],vertical,"(890.0, 262.0)",,"('cti', 1.209)",0,8366.166,0
0,745,target,"[(1077, 797)]",[],[1],[0.5166666666666666],vertical,"(890.0, 262.0)",1.2,0.477,1,8370.43,1
0,746,target,"[(1099, 784)]",[],[1],[0.6666666666666666],vertical,"(890.0, 762.0)",0.783333333,0.626,1,8379.031,1
0,747,target,"[(1102, 782)]",[],[1],[0.48333333333333334],vertical,"(890.0, 762.0)",1.1,0.44,1,8383.415,1
0,748,target,"[(1094, 777)]",[],[1],[0.5833333333333334],horizontal,"(390.0, 762.0)",0.95,0.537,1,8388.564,2
0,749,target,"[(1108, 786)]",[],[1],[0.25],vertical,"(890.0, 262.0)",1.383333333,0.213,1,8393.764,2
0,750,target,"[(1078, 790)]",[],[1],[0.5833333333333334],horizontal,"(390.0, 762.0)",1.033333333,0.537,1,8398.999,2
0,751,target,"[(1093, 786)]",[],[1],[0.6166666666666667],horizontal,"(390.0, 762.0)",0.95,0.579,1,8404.437,2
0,752,catch,"[(1107, 779)]",[],[1],[],horizontal,"(390.0, 762.0)",1.416666667,nan,1,8410.115,2
0,753,target,"[(1102, 785)]",[],[1],[0.5],horizontal,"(890.0, 262.0)",1.233333333,0.46,1,8415.355,3
0,754,target,"[(1104, 779)]",[],[1],[0.55],horizontal,"(890.0, 762.0)",0.933333333,0.512,1,8421.057,3
0,755,catch,"[(1101, 795)]",[],[1],[],vertical,"(390.0, 262.0)",1.366666667,nan,1,8426.665,3
0,756,target,"[(1080, 789)]",[],[1],[0.7166666666666667],vertical,"(390.0, 762.0)",1,0.683,1,8432.231,3
0,757,target,"[(1077, 781)]",[],[1],[0.5666666666666667],horizontal,"(890.0, 262.0)",0.95,0.531,1,8438.185,3
0,758,target,"[(1109, 777)]",[],[1],[0.5166666666666666],vertical,"(890.0, 762.0)",0.633333333,0.473,1,8443.949,3
0,759,target,"[(1081, 785)]",[],[1],[0.13333333333333333],horizontal,"(390.0, 762.0)",1.483333333,0.101,0,8449.116,0
0,760,target,"[(1097, 786)]",[],[1],[0.5166666666666666],vertical,"(390.0, 262.0)",0.633333333,0.48,1,8454.005,1
0,761,target,"[(1103, 765)]",[],[1],[0.5166666666666666],vertical,"(390.0, 262.0)",0.666666667,0.478,1,8458.432,1
0,762,target,"[(1062, 796)]","[(1055, 802)]",[1],[0.4],vertical,"(390.0, 762.0)",,"('bar', 0.413)",0,8462.545,0
0,763,target,"[(1066, 818)]",[],[1],[],vertical,"(890.0, 762.0)",,"('cti', 1.291)",0,8465.223,0
0,764,target,"[(1047, 779)]",[],[1],[0.16666666666666666],horizontal,"(390.0, 762.0)",1.55,0.135,0,8506.024,0
0,765,target,"[(1080, 796)]",[],[1],[0.4666666666666667],horizontal,"(890.0, 262.0)",1.066666667,0.432,1,8513.886,1
0,766,target,"[(1095, 773)]",[],[1],[0.85],vertical,"(390.0, 762.0)",0.683333333,nan,0,8518.406,0
0,767,target,"[(1096, 770)]",[],[1],[0.5666666666666667],horizontal,"(890.0, 262.0)",1.15,0.525,1,8522.817,1
0,768,target,"[(1097, 773)]",[],[1],[0.35],horizontal,"(890.0, 262.0)",1.233333333,0.317,1,8527.866,1
0,769,target,"[(1087, 795)]",[],[1],[0.3333333333333333],vertical,"(390.0, 262.0)",1.183333333,0.293,1,8533.05,1
0,770,target,"[(1080, 767)]",[],[1],[0.5666666666666667],horizontal,"(890.0, 262.0)",0.533333333,0.522,1,8538.183,2
0,771,target,"[(1075, 790)]",[],[1],[0.15],vertical,"(890.0, 262.0)",1.633333333,0.118,0,8544.183,0
0,772,target,"[(1079, 760)]",[],[1],[0.1],horizontal,"(890.0, 762.0)",1.066666667,0.068,0,8549.131,0
0,773,target,"[(1087, 789)]",[],[1],[0.7833333333333333],vertical,"(390.0, 762.0)",1.416666667,0.738,1,8553.615,1
0,774,target,"[(1099, 800)]",[],[1],[0.5],horizontal,"(890.0, 262.0)",1.266666667,0.459,1,8558.964,1
0,775,target,"[(1107, 783)]",[],[1],[0.48333333333333334],vertical,"(390.0, 262.0)",1.083333333,0.447,1,8563.775,1
0,776,target,"[(1077, 794)]",[],[1],[0.85],horizontal,"(890.0, 262.0)",1.516666667,nan,0,8569.117,0
0,777,target,"[(1062, 771)]",[],[1],[0.5666666666666667],vertical,"(390.0, 262.0)",1.1,0.522,1,8574.3,1
0,778,target,"[(1081, 782)]",[],[1],[0.05],vertical,"(890.0, 262.0)",1.616666667,0.02,0,8579.532,0
0,779,catch,"[(1103, 766)]",[],[1],[],horizontal,"(890.0, 762.0)",,"('cti', 1.547),nan",0,8584.312,0
0,780,target,"[(1047, 770)]",[],[1],[0.7333333333333333],vertical,"(390.0, 262.0)",0.716666667,0.692,1,8588.917,1
0,781,target,"[(1095, 777)]",[],[1],[0.55],vertical,"(890.0, 762.0)",1.066666667,0.511,1,8603.45,1
0,782,target,"[(1086, 785)]",[],[1],[0.5333333333333333],vertical,"(390.0, 262.0)",0.683333333,0.5,1,8608.555,1
0,783,target,"[(1091, 773)]",[],[1],[],horizontal,"(390.0, 262.0)",,"('cti', 1.289)",0,8613.183,0
0,784,target,"[(1106, 796)]",[],[1],[0.5833333333333334],vertical,"(890.0, 762.0)",0.533333333,0.541,1,8618.039,1
0,785,target,"[(1103, 775)]",[],[1],[0.6166666666666667],vertical,"(890.0, 262.0)",0.8,0.578,1,8622.291,1
0,786,target,"[(1075, 767)]",[],[1],[0.85],vertical,"(390.0, 762.0)",1.216666667,nan,0,8627.143,0
0,787,catch,"[(1070, 743), (1058, 773)]",[],"[0, 1]",[],vertical,"(390.0, 262.0)",1.683333333,nan,1,8632.282,1
0,788,target,"[(1079, 790)]",[],[1],[0.21666666666666667],vertical,"(390.0, 262.0)",1.533333333,0.184,0,8638.816,0
0,789,target,"[(1100, 784)]",[],[1],[0.48333333333333334],horizontal,"(890.0, 762.0)",1.133333333,0.442,1,8643.244,1
0,790,catch,"[(1098, 769)]",[],[1],[],horizontal,"(890.0, 262.0)",1.416666667,nan,1,8648.095,1
0,791,target,"[(1082, 782)]",[],[1],[0.5666666666666667],horizontal,"(890.0, 262.0)",0.516666667,0.53,1,8652.724,1
0,792,target,"[(1080, 795)]",[],[1],[0.2833333333333333],vertical,"(390.0, 762.0)",1.35,0.248,1,8657.282,2
0,793,target,"[(1080, 780)]",[],[1],[0.5],vertical,"(890.0, 262.0)",0.866666667,0.464,1,8662.86,2
0,794,catch,"[(1082, 775)]",[],[1],[],horizontal,"(390.0, 762.0)",1.55,nan,1,8667.89,2
0,795,target,"[(1105, 785)]",[],[1],[0.08333333333333333],vertical,"(390.0, 262.0)",1.483333333,0.051,0,8673.323,0
0,796,target,"[(1084, 788)]",[],[1],[0.85],vertical,"(390.0, 762.0)",0.533333333,nan,0,8678.179,0
0,797,catch,"[(1100, 756)]",[],[1],[],vertical,"(390.0, 762.0)",1.466666667,nan,1,8682.301,1
0,798,target,"[(1102, 798)]",[],[1],[0.6],horizontal,"(890.0, 262.0)",1.266666667,0.555,1,8687.15,1
0,799,target,"[(1101, 780)]",[],[1],[0.8],vertical,"(390.0, 762.0)",1,0.755,1,8692.051,1
0,800,target,"[(1081, 795)]",[],[1],[0.05],horizontal,"(890.0, 762.0)",1.65,0.02,0,8697.134,0
0,801,target,"[(1088, 775)]",[],[1],[0.4166666666666667],horizontal,"(390.0, 262.0)",0.816666667,0.379,1,8701.784,1
0,802,target,"[(1098, 769)]",[],[1],[0.26666666666666666],horizontal,"(390.0, 262.0)",1.3,0.232,1,8706.684,1
0,803,target,"[(1094, 792)]",[],[1],[0.6333333333333333],horizontal,"(390.0, 762.0)",0.916666667,0.592,1,8711.881,1
0,804,target,"[(1100, 777)]",[],[1],[0.55],vertical,"(890.0, 262.0)",1,0.51,1,8717.199,2
0,805,target,"[(1090, 766)]",[],[1],[0.55],horizontal,"(390.0, 262.0)",0.883333333,0.51,1,8722.429,2
0,806,target,"[(1109, 798)]",[],[1],[0.85],vertical,"(390.0, 762.0)",1.016666667,nan,0,8727.701,0
0,807,target,"[(1079, 779)]",[],[1],[0.55],horizontal,"(390.0, 762.0)",1.3,0.515,1,8732.2,1
0,808,target,"[(1084, 780)]",[],[1],[0.8166666666666667],vertical,"(390.0, 762.0)",0.983333333,0.768,1,8737.816,1
0,809,target,"[(1103, 771)]",[],[1],[0.26666666666666666],vertical,"(890.0, 262.0)",1.4,0.232,1,8742.686,1
0,810,target,"[(1086, 784)]",[],[1],[0.5833333333333334],vertical,"(890.0, 762.0)",0.85,0.54,1,8747.501,2
0,811,target,"[(1100, 766)]",[],[1],[0.3],vertical,"(890.0, 262.0)",1.366666667,0.261,1,8752.85,2
0,812,target,"[(1100, 770)]",[],[1],[0.26666666666666666],vertical,"(390.0, 762.0)",1.383333333,0.231,1,8758.053,2
0,813,catch,"[(1101, 769)]",[],[1],[],vertical,"(890.0, 262.0)",1.516666667,nan,1,8763.814,2
0,814,target,"[(1089, 762)]",[],[1],[0.06666666666666667],horizontal,"(390.0, 762.0)",1.583333333,0.036,0,8769.056,0
0,815,target,"[(1066, 788)]",[],[1],[0.5666666666666667],horizontal,"(890.0, 762.0)",0.816666667,0.524,1,8773.483,1
0,816,target,"[(1099, 773)]",[],[1],[0.5],vertical,"(890.0, 762.0)",1.433333333,0.461,1,8778.266,1
0,817,target,"[(1082, 787)]",[],[1],[0.05],vertical,"(890.0, 762.0)",1.666666667,0.018,0,8783.234,0
0,818,target,"[(1097, 781)]",[],[1],[0.55],vertical,"(390.0, 262.0)",0.566666667,0.506,1,8787.83,1
0,819,catch,"[(1090, 783)]",[],[1],[],horizontal,"(390.0, 762.0)",1.533333333,nan,1,8792.5,1
0,820,target,"[(1081, 772)]",[],[1],[0.05],horizontal,"(390.0, 262.0)",1.583333333,0.018,0,8797.333,0
0,821,target,"[(1103, 802)]",[],[1],[0.5],vertical,"(890.0, 762.0)",1.133333333,0.456,1,8801.984,1
0,822,target,"[(1105, 768)]",[],[1],[0.5666666666666667],horizontal,"(890.0, 762.0)",0.816666667,0.527,1,8806.945,1
0,823,catch,"[(1081, 779)]",[],[1],[],vertical,"(390.0, 262.0)",1.5,nan,1,8811.701,1
0,824,target,"[(1084, 769)]",[],[1],[0.6833333333333333],horizontal,"(390.0, 762.0)",0.5,0.64,1,8816.522,2
0,825,catch,"[(1104, 777)]",[],[1],[],vertical,"(890.0, 262.0)",1.5,nan,1,8821.051,2
0,826,target,"[(1084, 774)]",[],[1],[0.5666666666666667],horizontal,"(390.0, 262.0)",0.516666667,0.527,1,8826.126,2
0,827,target,"[(1086, 789)]",[],[1],[0.3833333333333333],horizontal,"(390.0, 262.0)",1.4,0.345,1,8831.316,2
0,828,target,"[(1104, 778)]",[],[1],[0.5833333333333334],vertical,"(390.0, 262.0)",1.016666667,0.538,1,8836.734,2
0,829,target,"[(1087, 803)]",[],[1],[0.55],vertical,"(390.0, 262.0)",1.033333333,0.503,1,8842.302,3
0,830,target,"[(1090, 793)]",[],[1],[0.21666666666666667],horizontal,"(390.0, 262.0)",1.466666667,0.179,0,8848.266,0
0,831,target,"[(1081, 784)]",[],[1],[0.85],horizontal,"(390.0, 762.0)",0.9,nan,0,8853.384,0
0,832,target,"[(1060, 768)]",[],[1],[0.5166666666666666],vertical,"(390.0, 262.0)",1.4,0.475,1,8858.25,1
0,833,target,"[(1079, 788)]",[],[1],[0.5833333333333334],horizontal,"(390.0, 762.0)",0.733333333,0.541,1,8868.06,1
0,834,catch,"[(1105, 785)]",[],[1],[],horizontal,"(390.0, 262.0)",1.516666667,nan,1,8873.168,1
0,835,target,"[(1100, 790)]",[],[1],[0.6833333333333333],vertical,"(390.0, 762.0)",0.633333333,0.647,1,8878.151,2
0,836,target,"[(1095, 799)]",[],[1],[0.35],horizontal,"(390.0, 262.0)",1.55,0.312,1,8883.117,2
0,837,target,"[(1090, 779)]",[],[1],[0.65],vertical,"(390.0, 262.0)",0.866666667,0.605,1,8888.818,2
0,838,target,"[(1086, 782)]",[],[1],[0.6],vertical,"(890.0, 762.0)",0.766666667,0.559,1,8894.006,2
0,839,catch,"[(1082, 767)]",[],[1],[],horizontal,"(390.0, 762.0)",1.566666667,nan,1,8899.054,2
0,840,target,"[(1103, 788)]",[],[1],[0.5166666666666666],horizontal,"(390.0, 262.0)",0.833333333,0.473,1,8904.394,3
0,841,catch,"[(1079, 793)]",[],[1],[],vertical,"(890.0, 762.0)",1.5,nan,1,8909.601,3
0,842,target,"[(1104, 781)]",[],[1],[0.43333333333333335],vertical,"(390.0, 262.0)",1.133333333,0.391,1,8915.784,3
0,843,target,"[(1086, 785)]",[],[1],[0.55],vertical,"(890.0, 762.0)",0.683333333,0.51,1,8921.717,3
0,844,target,"[(1099, 798)]",[],[1],[0.5],horizontal,"(390.0, 262.0)",1.166666667,0.459,1,8927.2,3
0,845,target,"[(1105, 787)]",[],[1],[],horizontal,"(890.0, 762.0)",,"('cti', 1.252)",0,8933.212,0
0,846,target,"[(1073, 804)]",[],[1],[0.6333333333333333],horizontal,"(890.0, 262.0)",1.066666667,0.594,1,8937.936,1
0,847,target,"[(1078, 770)]",[],[1],[0.5666666666666667],horizontal,"(890.0, 762.0)",0.616666667,0.527,1,8943.958,1
0,848,target,"[(1106, 783)]",[],[1],[0.21666666666666667],vertical,"(390.0, 762.0)",1.666666667,0.18,0,8948.226,0
0,849,catch,"[(1086, 780)]",[],[1],[],vertical,"(890.0, 262.0)",1.4,nan,1,8952.932,1
0,850,target,"[(1105, 773)]",[],[1],[0.65],vertical,"(890.0, 262.0)",0.85,0.608,1,8957.758,1
0,851,target,"[(1104, 776)]",[],[1],[0.55],vertical,"(890.0, 262.0)",0.816666667,0.505,1,8962.052,1
0,852,target,"[(1109, 789)]",[],[1],[],horizontal,"(890.0, 262.0)",,"('cti', 1.25)",0,8966.709,0
0,853,target,"[(1085, 786)]",[],[1],[0.7166666666666667],horizontal,"(890.0, 262.0)",0.6,0.692,1,8971.295,1
0,854,catch,"[(1090, 769)]",[],[1],[],horizontal,"(890.0, 762.0)",,"('cti', 1.573),nan",0,8976.117,0
0,855,catch,"[(1075, 770)]",[],[1],[],horizontal,"(890.0, 762.0)",,"('cti', 1.633),nan",0,8980.858,0
0,856,target,"[(1084, 780)]",[],[1],[0.55],horizontal,"(390.0, 262.0)",0.683333333,0.507,1,8985.227,1
0,857,target,"[(1107, 794)]",[],[1],[0.85],vertical,"(390.0, 762.0)",0.75,nan,0,8989.873,0
0,858,target,"[(1108, 768)]",[],[1],[0.31666666666666665],horizontal,"(390.0, 262.0)",1.483333333,0.281,1,8994.369,1
0,859,target,"[(1104, 778)]",[],[1],[0.5],vertical,"(890.0, 262.0)",0.95,0.459,1,8999.868,1
0,860,target,"[(1114, 782)]",[],[1],[0.45],horizontal,"(890.0, 762.0)",1.25,0.416,1,9004.751,1
0,861,target,"[(1110, 790)]",[],[1],[0.5833333333333334],vertical,"(890.0, 262.0)",0.85,0.542,1,9009.952,2
0,862,catch,"[(1105, 785)]",[],[1],[],horizontal,"(890.0, 262.0)",1.583333333,nan,1,9014.971,2
0,863,target,"[(1118, 795)]",[],[1],[0.2833333333333333],vertical,"(390.0, 262.0)",1.516666667,0.249,1,9020.267,2
0,864,target,"[(1103, 780)]",[],[1],[],horizontal,"(390.0, 262.0)",,"('cti', 1.281)",0,9026.067,0
0,865,target,"[(1087, 773)]",[],[1],[0.85],horizontal,"(390.0, 762.0)",0.716666667,nan,0,9031.032,0
0,866,target,"[(1067, 788)]",[],[1],[0.85],horizontal,"(890.0, 762.0)",0.566666667,nan,0,9035.13,0
0,867,target,"[(1100, 747), (1094, 791)]",[],"[0, 1]",[0.5166666666666666],vertical,"(890.0, 262.0)",1.283333333,0.479,1,9039.601,1
0,868,catch,"[(1114, 774)]",[],[1],[],horizontal,"(890.0, 262.0)",1.433333333,nan,1,9045.851,1
0,869,target,"[(1106, 793)]",[],[1],[0.5666666666666667],vertical,"(390.0, 762.0)",0.5,0.523,1,9050.695,1
0,870,target,"[(1106, 799)]",[],[1],[0.6],horizontal,"(390.0, 262.0)",1.033333333,0.562,1,9055.192,2
0,871,target,"[(1099, 785)]",[],[1],[0.05],vertical,"(390.0, 262.0)",1.15,0.02,0,9060.352,0
0,872,catch,"[(1072, 785)]",[],[1],[],vertical,"(390.0, 762.0)",1.583333333,nan,1,9064.434,1
0,873,target,"[(1100, 776)]",[],[1],[0.65],vertical,"(390.0, 262.0)",0.5,0.616,1,9069.836,1
0,874,target,"[(1101, 774)]",[],[1],[0.26666666666666666],horizontal,"(890.0, 262.0)",1.55,0.231,1,9074.065,1
0,875,target,"[(1095, 792)]",[],[1],[0.43333333333333335],horizontal,"(890.0, 762.0)",1.35,0.401,1,9079.052,2
0,876,target,"[(1081, 772)]",[],[1],[0.48333333333333334],vertical,"(390.0, 262.0)",1.4,0.444,1,9084.301,2
0,877,target,"[(1109, 770)]",[],[1],[0.45],horizontal,"(390.0, 762.0)",1.266666667,0.418,1,9090.108,2
0,878,target,"[(1082, 776)]",[],[1],[0.6833333333333333],horizontal,"(890.0, 762.0)",1.033333333,0.639,1,9095.25,2
0,879,target,"[(1086, 784)]",[],[1],[0.5333333333333333],horizontal,"(390.0, 762.0)",1.25,0.487,1,9100.901,2
0,880,target,"[(1103, 755)]",[],[1],[0.5666666666666667],vertical,"(390.0, 762.0)",1.083333333,0.529,1,9106.434,3
0,881,target,"[(1087, 785)]",[],[1],[0.85],vertical,"(390.0, 762.0)",0.583333333,nan,0,9111.866,0
0,882,catch,"[(1094, 785)]",[],[1],[],vertical,"(890.0, 762.0)",1.416666667,nan,1,9115.929,1
0,883,catch,"[(1079, 785)]",[],[1],[],vertical,"(890.0, 262.0)",1.566666667,nan,1,9121.271,1
0,884,target,"[(1114, 769)]",[],[1],[0.5166666666666666],horizontal,"(390.0, 762.0)",1.233333333,0.485,1,9126.321,1
0,885,target,"[(1106, 763)]",[],[1],[0.48333333333333334],vertical,"(890.0, 762.0)",1.416666667,0.446,1,9131.151,2
0,886,catch,"[(1090, 772)]",[],[1],[],horizontal,"(890.0, 762.0)",1.35,nan,1,9136.776,2
0,887,catch,"[(1117, 774)]",[],[1],[],vertical,"(390.0, 762.0)",1.6,nan,1,9142.001,2
0,888,catch,"[(1109, 788)]",[],[1],[],vertical,"(390.0, 262.0)",1.366666667,nan,1,9147.423,2
0,889,catch,"[(1108, 775)]",[],[1],[],horizontal,"(390.0, 262.0)",1.466666667,nan,1,9152.445,2
0,890,target,"[(1102, 782)]",[],[1],[0.15],vertical,"(390.0, 762.0)",1.666666667,0.118,0,9157.752,0
0,891,target,"[(1110, 770)]",[],[1],[0.7166666666666667],vertical,"(890.0, 262.0)",0.916666667,0.669,1,9162.587,1
0,892,target,"[(1119, 800)]",[],[1],[0.6166666666666667],vertical,"(390.0, 262.0)",0.633333333,0.572,1,9167.574,1
0,893,target,"[(1079, 811)]",[],[1],[0.3333333333333333],horizontal,"(890.0, 762.0)",1.45,0.299,1,9172.231,1
0,894,target,"[(1104, 765)]",[],[1],[0.55],horizontal,"(890.0, 262.0)",0.9,0.512,1,9178.359,2
0,895,target,"[(1092, 800)]",[],[1],[0.3333333333333333],horizontal,"(390.0, 262.0)",1.45,0.294,1,9183.7,2
0,896,target,"[(1087, 773)]",[],[1],[0.6166666666666667],vertical,"(890.0, 262.0)",0.816666667,0.576,1,9189.29,2
0,897,target,"[(1106, 776)]",[],[1],[0.1],horizontal,"(390.0, 262.0)",1.4,0.068,0,9194.286,0
0,898,target,"[(1081, 790)]",[],[1],[0.55],horizontal,"(890.0, 262.0)",1.133333333,0.51,1,9199.084,1
0,899,target,"[(1086, 770)]",[],[1],[0.5833333333333334],horizontal,"(390.0, 262.0)",0.616666667,0.543,1,9204.239,1
0,900,target,"[(1106, 775)]",[],[1],[0.2],horizontal,"(890.0, 762.0)",1.416666667,0.168,0,9208.636,0
0,901,target,"[(1109, 773)]",[],[1],[0.5166666666666666],horizontal,"(390.0, 262.0)",1.133333333,0.481,1,9213.17,1
0,902,target,"[(1094, 787)]",[],[1],[0.2833333333333333],vertical,"(390.0, 762.0)",1.633333333,0.246,1,9217.878,1
0,903,target,"[(1100, 788)]",[],[1],[0.5166666666666666],horizontal,"(390.0, 262.0)",1.25,0.476,1,9222.943,1
0,904,target,"[(1095, 782)]",[],[1],[0.35],horizontal,"(390.0, 262.0)",1.366666667,0.314,1,9227.744,2
0,905,target,"[(1106, 778)]",[],[1],[0.3333333333333333],horizontal,"(390.0, 262.0)",0.983333333,0.299,1,9233.221,2
0,906,target,"[(1060, 777)]",[],[1],[0.5],vertical,"(890.0, 762.0)",1.233333333,0.459,1,9238.103,2
0,907,target,"[(1109, 779)]",[],[1],[0.85],horizontal,"(890.0, 762.0)",0.516666667,nan,0,9243.752,0
0,908,target,"[(1071, 787)]",[],[1],[0.5166666666666666],horizontal,"(390.0, 262.0)",0.9,0.476,1,9247.72,1
0,909,target,"[(1071, 796)]",[],[1],[0.6],vertical,"(390.0, 262.0)",0.5,0.557,1,9252.523,1
0,910,target,"[(1080, 789)]",[],[1],[0.15],vertical,"(390.0, 262.0)",1.483333333,0.12,0,9256.903,0
0,911,target,"[(1099, 773)]",[],[1],[0.5166666666666666],vertical,"(890.0, 262.0)",0.85,0.479,1,9262.036,1
0,912,target,"[(1100, 766)]",[],[1],[0.6],vertical,"(890.0, 762.0)",0.783333333,0.563,1,9266.57,1
0,913,target,"[(1104, 788)]",[],[1],[0.6833333333333333],vertical,"(390.0, 762.0)",1.066666667,0.656,1,9271.37,1
0,914,target,"[(1109, 778)]",[],[1],[0.6],vertical,"(390.0, 262.0)",0.75,0.562,1,9276.336,2
0,915,target,"[(1104, 770)]",[],[1],[0.06666666666666667],horizontal,"(890.0, 762.0)",1.533333333,0.035,0,9281.587,0
0,916,target,"[(1103, 773)]",[],[1],[0.5333333333333333],vertical,"(890.0, 262.0)",1.333333333,0.497,1,9286.027,1
0,917,target,"[(1104, 789)]",[],[1],[0.7],vertical,"(390.0, 762.0)",1.233333333,0.658,1,9290.725,1
0,918,target,"[(1110, 786)]",[],[1],[0.18333333333333332],horizontal,"(390.0, 262.0)",1.5,0.151,0,9295.944,0
0,919,target,"[(1083, 769)]",[],[1],[0.6166666666666667],vertical,"(890.0, 762.0)",1.55,0.571,1,9300.769,1
0,920,target,"[(1096, 782)]",[],[1],[0.6166666666666667],horizontal,"(890.0, 762.0)",0.733333333,0.573,1,9306.103,1
0,921,target,"[(1067, 790)]",[],[1],[0.5666666666666667],horizontal,"(390.0, 762.0)",0.95,0.524,1,9310.537,1
0,922,target,"[(1097, 791)]",[],[1],[0.6],horizontal,"(390.0, 262.0)",1.216666667,0.56,1,9335.13,2
0,923,target,"[(1078, 779)]",[],[1],[0.5833333333333334],vertical,"(890.0, 762.0)",0.983333333,0.544,1,9340.725,2
0,924,target,"[(1111, 781)]",[],[1],[0.3833333333333333],vertical,"(390.0, 262.0)",1.216666667,0.35,1,9345.854,2
0,925,target,"[(1107, 787)]",[],[1],[0.85],vertical,"(390.0, 762.0)",0.716666667,nan,0,9351.049,0
0,926,target,"[(1099, 799)]",[],[1],[0.5166666666666666],horizontal,"(390.0, 762.0)",1.166666667,0.478,1,9355.487,1
0,927,target,"[(1106, 775)]",[],[1],[0.6],horizontal,"(390.0, 762.0)",0.783333333,0.554,1,9361.546,1
0,928,target,"[(1109, 779)]",[],[1],[0.5833333333333334],horizontal,"(390.0, 762.0)",0.8,0.544,1,9366.421,1
0,929,catch,"[(1103, 790)]",[],[1],[],vertical,"(890.0, 762.0)",1.6,nan,1,9370.886,2
0,930,target,"[(1122, 769)]",[],[1],[0.7166666666666667],horizontal,"(390.0, 762.0)",0.933333333,0.677,1,9376.57,2
0,931,target,"[(1123, 768)]",[],[1],[0.45],horizontal,"(390.0, 262.0)",1.383333333,0.413,1,9381.681,2
0,932,target,"[(1101, 785)]",[],[1],[0.65],vertical,"(390.0, 762.0)",0.733333333,0.607,1,9387.337,2
0,933,target,"[(1104, 790)]",[],[1],[0.48333333333333334],vertical,"(390.0, 262.0)",0.616666667,0.449,1,9392.32,2
0,934,target,"[(1091, 787)]",[],[1],[0.43333333333333335],vertical,"(890.0, 762.0)",1.483333333,0.404,1,9397.444,3
0,935,target,"[(1090, 801)]",[],[1],[],vertical,"(890.0, 262.0)",,"('cti', 1.627)",0,9403.537,0
0,936,target,"[(1109, 774)]",[],[1],[0.5833333333333334],vertical,"(890.0, 262.0)",0.6,0.536,1,9408.406,1
0,937,target,"[(1089, 762)]",[],[1],[0.85],horizontal,"(390.0, 262.0)",0.5,nan,0,9413.271,0
0,938,target,"[(1112, 760)]",[],[1],[0.5333333333333333],horizontal,"(390.0, 262.0)",0.666666667,0.489,1,9417.705,1
0,939,target,"[(1107, 794)]",[],[1],[0.5333333333333333],vertical,"(390.0, 262.0)",1.383333333,0.494,1,9421.923,1
0,940,target,"[(1107, 767)]",[],[1],[0.85],vertical,"(390.0, 762.0)",1.05,nan,0,9427.459,0
0,941,target,"[(1102, 769)]",[],[1],[0.5166666666666666],vertical,"(890.0, 762.0)",1.05,0.474,1,9432.27,1
0,942,target,"[(1103, 773)]",[],[1],[0.6],vertical,"(390.0, 262.0)",0.633333333,0.558,1,9437.26,1
0,943,target,"[(1110, 788)]",[],[1],[0.16666666666666666],horizontal,"(890.0, 262.0)",1.5,0.134,0,9441.788,0
0,944,target,"[(1104, 805)]",[],[1],[0.55],vertical,"(390.0, 262.0)",1.05,0.511,1,9446.318,1
0,945,target,"[(1119, 758)]",[],[1],[0.6666666666666666],horizontal,"(390.0, 762.0)",0.65,0.615,1,9451.055,1
0,946,target,"[(1099, 809)]",[],[1],[0.75],horizontal,"(890.0, 762.0)",0.783333333,0.703,1,9455.565,1
0,947,target,"[(1104, 787)]",[],[1],[0.5],horizontal,"(390.0, 762.0)",1.35,0.458,1,9460.971,2
0,948,target,"[(1109, 756)]",[],[1],[0.35],vertical,"(890.0, 762.0)",1.516666667,0.31,1,9466.434,2
0,949,catch,"[(1119, 788)]",[],[1],[],vertical,"(890.0, 762.0)",1.6,"('cti', 1.581),nan",0,9472.204,0
0,950,target,"[(1101, 780)]",[],[1],[0.48333333333333334],vertical,"(390.0, 762.0)",1.316666667,0.444,1,9476.954,1
0,951,target,"[(1086, 786)]",[],[1],[0.31666666666666665],vertical,"(890.0, 762.0)",1.383333333,0.277,1,9481.937,1
0,952,target,"[(1109, 777)]",[],[1],[0.5],vertical,"(890.0, 262.0)",1.366666667,0.456,1,9486.87,1
0,953,target,"[(1095, 788)]",[],[1],[0.85],vertical,"(390.0, 762.0)",0.516666667,nan,0,9491.605,0
0,954,target,"[(1110, 755)]",[],[1],[0.5833333333333334],horizontal,"(390.0, 262.0)",1.183333333,0.54,1,9496.205,1
0,955,target,"[(1109, 785)]",[],[1],[0.7166666666666667],horizontal,"(890.0, 762.0)",1.1,0.677,1,9501.579,1
0,956,target,"[(1100, 809)]",[],[1],[0.35],vertical,"(890.0, 262.0)",1.466666667,0.312,1,9506.776,1
