block,trial,trial_type,taps_start_loc_during_fix,taps_end_loc_during_fix,taps_on_lever_during_fix,taps_on_lever_s_during_fix,bar_orientation,target_xy,cti,rt,acc,time,pulses,fa_rate_recent100,p_catch
0,1,target,"[(1024, 820)]",[],[1],[0.85],vertical,"(890.0, 262.0)",1.4166666666666667,nan,0,0.602,0,0.0,0.1
0,2,target,"[(543, 520), (1005, 881)]",[],"[0, 1]",[0.85],vertical,"(390.0, 762.0)",1.4666666666666666,nan,0,117.047,0,0.0,0.1
0,3,target,"[(1126, 862)]",[],[1],[0.3833333333333333],vertical,"(390.0, 262.0)",0.75,0.348,1,123.765,1,0.0,0.1
0,4,target,"[(1030, 814)]",[],[1],[0.85],horizontal,"(890.0, 762.0)",0.7166666666666667,nan,0,140.052,0,0.0,0.1
0,5,target,"[(1026, 850)]",[],[1],[0.85],horizontal,"(890.0, 262.0)",0.6833333333333333,nan,0,144.674,0,0.0,0.1
0,6,target,"[(1033, 811)]",[],[1],[0.4],vertical,"(390.0, 762.0)",1.45,0.359,1,193.984,1,0.0,0.1
0,7,target,"[(1041, 835)]",[],[1],[0.6166666666666667],horizontal,"(390.0, 262.0)",0.5666666666666667,0.571,1,200.269,1,0.0,0.1
0,8,target,"[(1033, 846)]",[],[1],[0.21666666666666667],horizontal,"(390.0, 762.0)",1.55,0.185,0,204.663,0,0.0,0.1
0,9,target,"[(1017, 808)]",[],[1],[0.5666666666666667],vertical,"(390.0, 762.0)",1.35,0.522,1,209.719,1,0.0,0.1
0,10,target,"[(1058, 820)]",[],[1],[0.85],vertical,"(390.0, 262.0)",0.6166666666666667,nan,0,215.25,0,0.0,0.1
0,11,target,"[(1037, 850)]",[],[1],[0.6],horizontal,"(890.0, 262.0)",0.9666666666666667,0.562,1,219.901,1,0.0,0.1
0,12,target,"[(1033, 828)]",[],[1],[0.85],vertical,"(390.0, 762.0)",0.7833333333333333,nan,0,1048.38,0,0.0,0.1
0,13,target,"[(1038, 806)]",[],[1],[0.85],vertical,"(890.0, 762.0)",1.2,nan,0,1052.83,0,0.0,0.1
0,14,target,"[(1036, 783)]",[],[1],[0.85],horizontal,"(390.0, 262.0)",0.6166666666666667,nan,0,1057.606,0,0.0,0.1
0,15,target,"[(1062, 820)]",[],[1],[0.85],horizontal,"(890.0, 262.0)",0.7666666666666666,nan,0,1062.353,0,0.0,0.1
0,16,target,"[(1035, 829)]",[],[1],[0.7],vertical,"(390.0, 762.0)",1.1166666666666667,0.661,1,1067.483,1,0.0,0.1
0,17,target,"[(1054, 807)]",[],[1],[0.85],horizontal,"(390.0, 762.0)",1.3833333333333333,nan,0,1077.955,0,0.0,0.1
0,18,target,"[(1029, 802)]",[],[1],[0.5666666666666667],vertical,"(890.0, 762.0)",1.5,0.53,1,1082.949,1,0.0,0.1
0,19,target,"[(1057, 815)]",[],[1],[0.5],vertical,"(890.0, 262.0)",1.5,0.459,1,1088.466,1,0.0,0.1
0,20,target,"[(1057, 789)]",[],[1],[0.8166666666666667],vertical,"(390.0, 762.0)",1.0833333333333333,0.782,1,1093.82,2,0.0,0.1
0,21,target,"[(1044, 782)]",[],[1],[0.55],horizontal,"(890.0, 762.0)",1.3833333333333333,0.513,1,1099.071,2,0.0,0.1
0,22,target,"[(1050, 804)]",[],[1],[0.5833333333333334],vertical,"(390.0, 262.0)",1.1166666666666667,0.54,1,1104.519,2,0.0,0.1
0,23,target,"[(1055, 806)]",[],[1],[0.6166666666666667],vertical,"(890.0, 762.0)",1.3666666666666667,0.576,1,1110.205,2,0.0,0.1
0,24,target,"[(1047, 809)]",[],[1],[0.35],horizontal,"(390.0, 262.0)",1.4,0.313,1,1115.738,3,0.0,0.1
0,25,target,"[(1052, 806)]",[],[1],[0.6166666666666667],horizontal,"(890.0, 262.0)",1.2166666666666666,0.569,1,1121.839,3,0.0,0.1
0,26,target,"[(1037, 824)]",[],[1],[0.85],vertical,"(390.0, 762.0)",0.6333333333333333,nan,0,1128.104,0,0.0,0.1
0,27,target,"[(1033, 825)]",[],[1],[0.65],horizontal,"(390.0, 762.0)",1.4833333333333334,0.605,1,1132.404,1,0.0,0.1
0,28,target,"[(1033, 804)]",[],[1],[0.6333333333333333],horizontal,"(890.0, 262.0)",0.9666666666666667,0.588,1,1137.915,1,0.0,0.1
0,29,target,"[(1052, 819)]",[],[1],[0.5],vertical,"(890.0, 762.0)",1.3,0.457,1,1143.054,2,0.0,0.1
0,30,target,"[(1052, 812)]",[],[1],[0.85],vertical,"(390.0, 262.0)",0.8833333333333333,nan,0,1148.689,0,0.0,0.1
0,31,target,"[(1040, 812)]",[],[1],[0.85],horizontal,"(390.0, 262.0)",1.3666666666666667,nan,0,1153.221,0,0.0,0.1
0,32,target,"[(1036, 812)]",[],[1],[0.85],vertical,"(890.0, 762.0)",0.5666666666666667,nan,0,1158.289,0,0.0,0.1
0,33,target,"[(1023, 828)]",[],[1],[0.55],vertical,"(890.0, 262.0)",0.7833333333333333,0.508,1,1162.804,1,0.0,0.1
0,34,target,"[(1057, 809)]",[],[1],[0.7833333333333333],vertical,"(390.0, 262.0)",0.9,0.734,1,1168.389,1,0.0,0.1
0,35,target,"[(1057, 815)]",[],[1],[0.48333333333333334],vertical,"(890.0, 262.0)",0.8333333333333334,0.438,1,1173.571,2,0.0,0.1
0,36,target,"[(1056, 799)]",[],[1],[0.5],horizontal,"(890.0, 262.0)",1.35,0.461,1,1178.738,2,0.0,0.1
0,37,target,"[(1034, 807)]",[],[1],[0.5833333333333334],vertical,"(890.0, 762.0)",0.7666666666666666,0.543,1,1184.322,2,0.0,0.1
0,38,target,"[(1038, 830)]",[],[1],[0.5833333333333334],horizontal,"(390.0, 762.0)",0.6166666666666667,0.539,1,1189.64,2,0.0,0.1
0,39,target,"[(1055, 809)]",[],[1],[0.5],horizontal,"(890.0, 262.0)",1.0666666666666667,0.458,1,1194.322,3,0.0,0.1
0,40,target,"[(1039, 819)]",[],[1],[0.55],vertical,"(890.0, 262.0)",1.0833333333333333,0.515,1,1199.98,3,0.0,0.1
0,41,target,"[(1055, 802)]",[],[1],[0.6166666666666667],vertical,"(890.0, 762.0)",1.2333333333333334,0.57,1,1206.037,3,0.0,0.1
0,42,target,"[(1040, 814)]",[],[1],[0.5333333333333333],horizontal,"(390.0, 262.0)",0.6333333333333333,0.492,1,1212.289,3,0.0,0.1
0,43,target,"[(1049, 823)]",[],[1],[0.3],vertical,"(890.0, 262.0)",1.4833333333333334,0.266,1,1217.922,3,0.0,0.1
0,44,target,"[(1041, 808)]",[],[1],[0.55],vertical,"(890.0, 262.0)",0.9833333333333333,0.51,1,1223.371,3,0.0,0.1
0,45,target,"[(1053, 810)]",[],[1],[0.5166666666666666],horizontal,"(390.0, 762.0)",1.0833333333333333,0.477,1,1228.785,3,0.0,0.1
0,46,target,"[(1035, 818)]",[],[1],[0.5],horizontal,"(890.0, 762.0)",1.0166666666666666,0.462,1,1234.288,3,0.0,0.1
0,47,target,"[(1054, 816)]",[],[1],[0.85],vertical,"(390.0, 762.0)",0.5,nan,0,1240.255,0,0.0,0.1
0,48,target,"[(1029, 800)]",[],[1],[0.5333333333333333],vertical,"(890.0, 262.0)",1.15,0.494,1,1244.722,1,0.0,0.1
0,49,target,"[(1040, 790)]",[],[1],[0.48333333333333334],vertical,"(890.0, 762.0)",1.3,0.439,1,1249.906,1,0.0,0.1
0,50,target,"[(1055, 827)]",[],[1],[0.65],vertical,"(890.0, 762.0)",0.9333333333333333,0.609,1,1254.936,2,0.0,0.1
0,51,target,"[(1039, 805)]",[],[1],[0.4666666666666667],vertical,"(390.0, 762.0)",1.35,0.431,1,1260.288,2,0.0,0.1
0,52,catch,"[(1038, 806)]",[],[1],[],horizontal,"(890.0, 762.0)",1.6,nan,1,1265.528,2,0.0,0.1
0,53,target,"[(1037, 812)]",[],[1],[0.5],vertical,"(390.0, 762.0)",0.8666666666666667,0.471,1,1270.605,2,0.0,0.1
0,54,target,"[(1040, 783)]",[],[1],[0.3],horizontal,"(390.0, 262.0)",1.4666666666666666,0.26,1,1275.711,3,0.0,0.1
0,55,catch,"[(1054, 812)]",[],[1],[],horizontal,"(890.0, 762.0)",1.6,nan,1,1281.731,3,0.0,0.1
0,56,target,"[(1039, 814)]",[],[1],[0.4166666666666667],vertical,"(890.0, 262.0)",1.2833333333333332,0.38,1,1287.488,3,0.0,0.1
0,57,target,"[(1057, 809)]",[],[1],[0.85],horizontal,"(890.0, 262.0)",0.6333333333333333,nan,0,1293.146,0,0.0,0.1
0,58,catch,"[(1038, 807)]",[],[1],[],vertical,"(390.0, 762.0)",1.6,nan,1,1297.167,1,0.0,0.1
0,59,target,"[(1045, 816)]",[],[1],[0.5333333333333333],horizontal,"(390.0, 262.0)",0.5666666666666667,0.494,1,1302.354,1,0.0,0.1
0,60,target,"[(1050, 788)]",[],[1],[0.45],horizontal,"(890.0, 262.0)",1.2333333333333334,0.411,1,1306.529,2,0.0,0.1
0,61,target,"[(1054, 786)]",[],[1],[0.5166666666666666],vertical,"(390.0, 262.0)",0.5,0.472,1,1311.672,2,0.0,0.1
0,62,target,"[(1057, 805)]",[],[1],[0.4666666666666667],horizontal,"(390.0, 262.0)",0.9166666666666666,0.427,1,1316.256,2,0.0,0.1
0,63,target,"[(1044, 799)]",[],[1],[0.5333333333333333],horizontal,"(390.0, 762.0)",1.15,0.496,1,1321.424,2,0.0,0.1
0,64,catch,"[(1037, 809)]",[],[1],[],vertical,"(890.0, 762.0)",1.6,nan,1,1326.541,3,0.0,0.1
0,65,catch,"[(1056, 813)]",[],[1],[],horizontal,"(390.0, 762.0)",,"('cti', 1.59),nan",0,1332.071,0,0.02,0.1
0,66,target,"[(1056, 806)]",[],[1],[0.6],vertical,"(390.0, 762.0)",0.7333333333333333,0.557,1,1337.126,1,0.02,0.1
0,67,target,"[(1058, 809)]",[],[1],[0.85],vertical,"(890.0, 762.0)",0.9,nan,0,1341.41,0,0.02,0.1
0,68,target,"[(1041, 815)]",[],[1],[0.26666666666666666],vertical,"(390.0, 262.0)",1.25,0.229,1,1346.092,1,0.02,0.1
0,69,target,"[(1042, 833)]",[],[1],[0.6333333333333333],vertical,"(390.0, 762.0)",0.65,0.589,1,1351.058,1,0.02,0.1
0,70,target,"[(1057, 799)]",[],[1],[0.6666666666666666],vertical,"(390.0, 762.0)",0.5666666666666667,0.625,1,1355.555,2,0.02,0.1
0,71,target,"[(1040, 792)]",[],[1],[0.48333333333333334],horizontal,"(390.0, 262.0)",1.2833333333333332,0.443,1,1360.537,2,0.02,0.1
0,72,catch,"[(1040, 775)]",[],[1],[],vertical,"(890.0, 762.0)",,"('cti', 1.563),nan",0,1365.863,0,0.04,0.1
0,73,target,"[(1053, 794)]",[],[1],[0.5166666666666666],vertical,"(890.0, 762.0)",1.2,0.47,1,1370.638,1,0.04,0.1
0,74,target,"[(1041, 802)]",[],[1],[0.48333333333333334],horizontal,"(890.0, 262.0)",1.1333333333333333,0.441,1,1375.421,1,0.04,0.1
0,75,target,"[(1054, 792)]",[],[1],[0.6833333333333333],vertical,"(390.0, 262.0)",1.0,0.635,1,1380.579,2,0.04,0.1
0,76,target,"[(1057, 788)]",[],[1],[0.45],horizontal,"(890.0, 762.0)",1.2833333333333332,0.413,1,1385.866,2,0.04,0.1
0,77,target,"[(1047, 801)]",[],[1],[0.6333333333333333],vertical,"(390.0, 262.0)",0.9666666666666667,0.599,1,1391.503,2,0.04,0.1
0,78,target,"[(1048, 802)]",[],[1],[0.6],vertical,"(390.0, 262.0)",0.6333333333333333,0.558,1,1396.731,2,0.04,0.1
0,79,target,"[(1057, 810)]",[],[1],[0.5333333333333333],vertical,"(390.0, 262.0)",0.8333333333333334,0.494,1,1401.945,3,0.04,0.1
0,80,catch,"[(1035, 833)]",[],[1],[],vertical,"(890.0, 762.0)",1.6,"('cti', 1.584),nan",0,1407.305,0,0.06,0.1
0,81,target,"[(1041, 812)]",[],[1],[0.5333333333333333],horizontal,"(390.0, 762.0)",0.5166666666666666,0.491,1,1412.305,1,0.06,0.1
0,82,target,"[(1054, 811)]",[],[1],[0.5666666666666667],vertical,"(890.0, 762.0)",0.6,0.527,1,1417.056,1,0.06,0.1
0,83,target,"[(1055, 788)]",[],[1],[0.5166666666666666],vertical,"(390.0, 762.0)",0.8,0.473,1,1421.506,2,0.06,0.1
0,84,target,"[(1057, 806)]",[],[1],[0.5833333333333334],vertical,"(390.0, 262.0)",0.5,0.538,1,1426.363,2,0.06,0.1
0,85,target,"[(1047, 807)]",[],[1],[0.5666666666666667],horizontal,"(890.0, 762.0)",1.2166666666666666,0.525,1,1431.177,2,0.06,0.1
0,86,target,"[(1037, 802)]",[],[1],[0.7],horizontal,"(890.0, 762.0)",0.9666666666666667,0.654,1,1436.706,2,0.06,0.1
0,87,target,"[(1044, 802)]",[],[1],[0.6],horizontal,"(390.0, 762.0)",0.75,0.558,1,1442.039,3,0.06,0.1
0,88,target,"[(1056, 808)]",[],[1],[0.5],horizontal,"(390.0, 762.0)",1.0833333333333333,0.461,1,1447.398,3,0.06,0.1
0,89,target,"[(1037, 785)]",[],[1],[0.5],vertical,"(890.0, 262.0)",0.65,0.458,1,1453.173,3,0.06,0.1
0,90,target,"[(1057, 801)]",[],[1],[0.55],horizontal,"(890.0, 262.0)",0.6333333333333333,0.503,1,1458.222,3,0.06,0.1
0,91,catch,"[(1055, 805)]",[],[1],[],horizontal,"(890.0, 762.0)",1.6,nan,1,1463.671,3,0.06,0.1
0,92,target,"[(1048, 790)]",[],[1],[0.36666666666666664],horizontal,"(390.0, 762.0)",1.4166666666666667,0.327,1,1469.088,3,0.06,0.1
0,93,target,"[(1050, 805)]",[],[1],[0.6666666666666666],vertical,"(390.0, 762.0)",1.1833333333333333,0.622,1,1475.027,3,0.06,0.1
0,94,target,"[(1054, 806)]",[],[1],[0.6],vertical,"(890.0, 762.0)",1.0166666666666666,0.558,1,1480.727,3,0.06,0.1
0,95,target,"[(1060, 798)]",[],[1],[0.55],vertical,"(890.0, 262.0)",0.95,0.506,1,1486.505,3,0.06,0.1
0,96,target,"[(1037, 803)]",[],[1],[0.31666666666666665],vertical,"(390.0, 262.0)",1.4,0.281,1,1492.149,3,0.06,0.1
0,97,target,"[(1034, 795)]",[],[1],[0.5833333333333334],horizontal,"(390.0, 762.0)",0.9666666666666667,0.542,1,1498.238,3,0.06,0.1
0,98,target,"[(1057, 780)]",[],[1],[0.6],vertical,"(390.0, 762.0)",1.0833333333333333,0.568,1,1503.611,3,0.06,0.1
0,99,target,"[(1060, 803)]",[],[1],[0.25],horizontal,"(890.0, 762.0)",1.5166666666666666,0.213,1,1509.14,3,0.06,0.1
0,100,target,"[(1057, 802)]",[],[1],[0.43333333333333335],horizontal,"(390.0, 762.0)",1.2166666666666666,0.394,1,1515.372,3,0.06,0.1
0,101,target,"[(1037, 806)]",[],[1],[0.48333333333333334],horizontal,"(390.0, 262.0)",1.2666666666666666,0.44,1,1520.939,3,0.06,0.1
0,102,target,"[(1055, 805)]",[],[1],[0.6166666666666667],horizontal,"(890.0, 262.0)",0.9,0.57,1,1526.505,3,0.06,0.1
0,103,target,"[(1037, 800)]",[],[1],[0.5],vertical,"(890.0, 262.0)",0.75,0.456,1,1531.898,3,0.06,0.1
0,104,target,"[(1061, 795)]",[],[1],[0.43333333333333335],horizontal,"(390.0, 262.0)",1.1,0.395,1,1537.011,3,0.06,0.1
0,105,catch,"[(1053, 811)]",[],[1],[],vertical,"(390.0, 762.0)",1.6,nan,1,1542.855,3,0.06,0.1
0,106,target,"[(1036, 796)]",[],[1],[0.6166666666666667],horizontal,"(890.0, 262.0)",0.85,0.573,1,1548.716,3,0.06,0.1
0,107,target,"[(1059, 786)]",[],[1],[0.55],horizontal,"(390.0, 762.0)",1.0666666666666667,0.51,1,1554.473,3,0.06,0.1
0,108,target,"[(1037, 783)]",[],[1],[0.85],vertical,"(890.0, 262.0)",0.75,nan,0,1559.973,0,0.06,0.1
0,109,target,"[(1038, 804)]",[],[1],[0.48333333333333334],horizontal,"(890.0, 262.0)",0.8833333333333333,0.442,1,1564.372,1,0.06,0.1
0,110,target,"[(1037, 787)]",[],[1],[0.5666666666666667],vertical,"(390.0, 262.0)",1.1333333333333333,0.529,1,1569.121,1,0.06,0.1
0,111,catch,"[(1038, 800)]",[],[1],[],horizontal,"(390.0, 762.0)",1.6,nan,1,1574.32,2,0.06,0.1
0,112,target,"[(1038, 795)]",[],[1],[0.5666666666666667],horizontal,"(890.0, 262.0)",0.7333333333333333,0.536,1,1579.549,2,0.06,0.1
0,113,target,"[(1035, 779)]",[],[1],[0.2833333333333333],vertical,"(890.0, 262.0)",1.4166666666666667,0.245,1,1584.672,2,0.06,0.1
0,114,target,"[(1051, 789)]",[],[1],[0.6166666666666667],horizontal,"(390.0, 262.0)",0.7666666666666666,0.577,1,1589.856,2,0.06,0.1
0,115,target,"[(1046, 804)]",[],[1],[0.5166666666666666],horizontal,"(390.0, 262.0)",0.9833333333333333,0.475,1,1594.78,3,0.04,0.1
0,116,target,"[(1045, 786)]",[],[1],[0.2],vertical,"(390.0, 762.0)",1.4666666666666666,0.168,0,1600.695,0,0.04,0.1
0,117,target,"[(1035, 813)]",[],[1],[0.48333333333333334],vertical,"(890.0, 262.0)",0.65,0.444,1,1605.454,1,0.04,0.1
0,118,target,"[(1053, 806)]",[],[1],[0.5166666666666666],vertical,"(890.0, 762.0)",0.95,0.481,1,1610.3,1,0.04,0.1
0,119,target,"[(1053, 783)]",[],[1],[0.55],vertical,"(390.0, 262.0)",0.9333333333333333,0.504,1,1615.404,2,0.04,0.1
0,120,target,"[(1038, 797)]",[],[1],[0.55],vertical,"(890.0, 262.0)",1.0833333333333333,0.504,1,1620.405,2,0.04,0.1
0,121,target,"[(1041, 768)]",[],[1],[0.06666666666666667],horizontal,"(890.0, 262.0)",1.4666666666666666,0.037,0,1625.556,0,0.04,0.1
0,122,target,"[(1043, 797)]",[],[1],[0.6],vertical,"(890.0, 762.0)",0.9,0.568,1,1630.14,1,0.02,0.1
0,123,target,"[(1037, 776)]",[],[1],[0.6],vertical,"(390.0, 262.0)",1.2,0.555,1,1635.197,1,0.02,0.1
0,124,target,"[(1050, 780)]",[],[1],[0.5666666666666667],vertical,"(890.0, 762.0)",0.6,0.524,1,1640.199,2,0.02,0.1
0,125,target,"[(1037, 791)]",[],[1],[0.21666666666666667],vertical,"(890.0, 262.0)",1.5166666666666666,0.183,0,1644.805,0,0.02,0.1
0,126,target,"[(1045, 795)]",[],[1],[0.85],horizontal,"(890.0, 262.0)",0.5333333333333333,nan,0,1649.496,0,0.02,0.1
0,127,target,"[(998, 800), (1041, 811)]",[],"[0, 1]",[0.6833333333333333],horizontal,"(890.0, 762.0)",0.6333333333333333,0.644,1,1654.073,1,0.02,0.1
0,128,target,"[(1061, 809)]",[],[1],[0.5833333333333334],horizontal,"(890.0, 262.0)",1.0833333333333333,0.545,1,1660.961,1,0.02,0.1
0,129,target,"[(1055, 789)]",[],[1],[0.48333333333333334],vertical,"(890.0, 762.0)",1.15,0.44,1,1665.639,2,0.02,0.1
0,130,target,"[(1043, 817)]",[],[1],[0.85],horizontal,"(390.0, 762.0)",1.4333333333333333,nan,0,1671.086,0,0.0,0.1
0,131,target,"[(1045, 816)]",[],[1],[0.85],horizontal,"(890.0, 262.0)",0.7333333333333333,nan,0,1676.389,0,0.0,0.1
0,132,target,"[(1033, 809)]",[],[1],[0.85],vertical,"(390.0, 262.0)",0.6166666666666667,nan,0,1680.79,0,0.0,0.1
0,133,catch,"[(1018, 843)]",[],[1],[],vertical,"(390.0, 762.0)",1.6,nan,1,1685.142,1,0.0,0.1
0,134,target,"[(1060, 781)]",[],[1],[],horizontal,"(890.0, 262.0)",,"('cti', 1.413)",0,1691.724,0,0.02,0.1
0,135,target,"[(1032, 795)]",[],[1],[0.4166666666666667],horizontal,"(390.0, 762.0)",1.2666666666666666,0.378,1,1696.504,1,0.02,0.1
0,136,target,"[(1057, 806)]",[],[1],[0.26666666666666666],horizontal,"(390.0, 762.0)",1.35,0.231,1,1701.79,1,0.02,0.1
0,137,target,"[(1042, 796)]",[],[1],[0.5166666666666666],horizontal,"(390.0, 762.0)",1.05,0.478,1,1706.842,2,0.02,0.1
0,138,target,"[(1052, 789)]",[],[1],[0.5333333333333333],horizontal,"(890.0, 762.0)",0.8333333333333334,0.493,1,1712.465,2,0.02,0.1
0,139,target,"[(1034, 791)]",[],[1],[],vertical,"(890.0, 262.0)",,"('cti', 1.315)",0,1717.207,0,0.04,0.1
0,140,target,"[(1035, 811)]",[],[1],[0.4666666666666667],vertical,"(890.0, 262.0)",0.5333333333333333,0.431,1,1721.729,1,0.04,0.1
0,141,catch,"[(1055, 808)]",[],[1],[],vertical,"(890.0, 262.0)",,"('cti', 1.548),nan",0,1761.857,0,0.06,0.1
0,142,target,"[(1033, 790)]",[],[1],[0.48333333333333334],vertical,"(890.0, 762.0)",0.8,0.452,1,1766.707,1,0.06,0.1
0,143,target,"[(1061, 812)]",[],[1],[0.48333333333333334],vertical,"(390.0, 262.0)",0.7,0.444,1,1771.028,1,0.06,0.1
0,144,catch,"[(1063, 786)]",[],[1],[],horizontal,"(390.0, 762.0)",1.6,nan,1,1775.789,2,0.06,0.1
0,145,target,"[(1053, 809)]",[],[1],[0.85],horizontal,"(890.0, 262.0)",0.7,nan,0,1780.736,0,0.06,0.1
0,146,target,"[(1046, 807)]",[],[1],[0.6],vertical,"(890.0, 262.0)",0.7666666666666666,0.561,1,1785.242,1,0.06,0.1
0,147,target,"[(1021, 801)]",[],[1],[0.7],vertical,"(390.0, 262.0)",0.9,0.659,1,1789.582,1,0.06,0.1
0,148,target,"[(1038, 780)]",[],[1],[0.23333333333333334],horizontal,"(390.0, 262.0)",1.4666666666666666,0.198,0,1794.523,0,0.06,0.1
0,149,catch,"[(1033, 820)]",[],[1],[],horizontal,"(890.0, 262.0)",1.6,nan,1,1799.332,1,0.06,0.1
0,150,target,"[(1049, 801)]",[],[1],[0.5833333333333334],horizontal,"(390.0, 262.0)",1.1666666666666667,0.546,1,1804.164,1,0.06,0.1
0,151,target,"[(1066, 814)]",[],[1],[0.85],vertical,"(390.0, 762.0)",0.8,nan,0,1809.581,0,0.06,0.1
0,152,target,"[(1025, 776)]",[],[1],[0.55],horizontal,"(890.0, 262.0)",0.9666666666666667,0.51,1,1814.01,1,0.06,0.1
0,153,target,"[(1051, 810)]",[],[1],[0.5333333333333333],horizontal,"(390.0, 262.0)",0.6666666666666666,0.494,1,1818.923,1,0.06,0.1
0,154,target,"[(1057, 791)]",[],[1],[0.3333333333333333],horizontal,"(390.0, 762.0)",1.3,0.294,1,1823.674,2,0.06,0.1
0,155,target,"[(1044, 797)]",[],[1],[0.3833333333333333],vertical,"(390.0, 762.0)",1.5833333333333333,0.344,1,1829.161,2,0.06,0.1
0,156,target,"[(1039, 806)]",[],[1],[0.6333333333333333],vertical,"(890.0, 762.0)",1.0,0.592,1,1834.303,2,0.06,0.1
0,157,target,"[(1057, 786)]",[],[1],[0.35],vertical,"(390.0, 762.0)",1.3833333333333333,0.312,1,1839.476,2,0.06,0.1
0,158,target,"[(1042, 782)]",[],[1],[0.18333333333333332],vertical,"(890.0, 262.0)",1.4166666666666667,0.15,0,1845.124,0,0.06,0.1
0,159,target,"[(1054, 807)]",[],[1],[0.55],vertical,"(390.0, 262.0)",0.55,0.516,1,1849.456,1,0.06,0.1
0,160,target,"[(1050, 789)]",[],[1],[],vertical,"(390.0, 262.0)",,"('cti', 1.134)",0,1853.474,0,0.08,0.1
0,161,target,"[(1057, 806)]",[],[1],[0.2],horizontal,"(390.0, 262.0)",1.5833333333333333,0.169,0,1857.723,0,0.08,0.1
0,162,target,"[(1033, 804)]",[],[1],[0.4666666666666667],horizontal,"(890.0, 762.0)",1.1333333333333333,0.428,1,1865.506,1,0.08,0.1
0,163,target,"[(1033, 799)]",[],[1],[0.85],horizontal,"(390.0, 262.0)",0.5166666666666666,nan,0,1870.323,0,0.08,0.1
0,164,target,"[(1034, 796)]",[],[1],[0.25],horizontal,"(390.0, 262.0)",1.4333333333333333,0.211,1,1874.789,1,0.08,0.1
0,165,catch,"[(1037, 816)]",[],[1],[],horizontal,"(890.0, 262.0)",1.6,nan,1,1880.062,1,0.08,0.1
0,166,target,"[(1047, 804)]",[],[1],[0.85],horizontal,"(390.0, 762.0)",1.0,nan,0,1885.127,0,0.08,0.1
0,167,target,"[(1037, 817)]",[],[1],[0.5166666666666666],horizontal,"(890.0, 262.0)",1.35,0.484,1,1890.214,1,0.08,0.1
0,168,catch,"[(1060, 803)]",[],[1],[],horizontal,"(390.0, 262.0)",1.6,nan,1,1896.072,1,0.08,0.1
0,169,target,"[(1060, 800)]",[],[1],[0.5333333333333333],horizontal,"(890.0, 762.0)",1.5166666666666666,0.498,1,1900.847,2,0.08,0.1
0,170,target,"[(1060, 791)]",[],[1],[0.13333333333333333],vertical,"(890.0, 262.0)",1.5333333333333332,0.103,0,1906.836,0,0.08,0.1
0,171,catch,"[(1059, 806)]",[],[1],[],vertical,"(390.0, 262.0)",1.6,nan,1,1911.357,1,0.08,0.1
0,172,target,"[(1030, 812)]",[],[1],[0.31666666666666665],horizontal,"(390.0, 762.0)",1.4833333333333334,0.285,1,1916.136,1,0.08,0.1
0,173,target,"[(1054, 793)]",[],[1],[0.4],horizontal,"(390.0, 762.0)",1.5333333333333332,0.356,1,1921.573,2,0.08,0.1
0,174,target,"[(1058, 793)]",[],[1],[0.5166666666666666],vertical,"(890.0, 762.0)",0.65,0.481,1,1927.044,2,0.08,0.1
0,175,target,"[(1029, 795)]",[],[1],[0.6],horizontal,"(890.0, 262.0)",0.7,0.57,1,1931.94,2,0.08,0.1
0,176,target,"[(1056, 797)]",[],[1],[0.4166666666666667],horizontal,"(890.0, 262.0)",1.5166666666666666,0.375,1,1936.562,2,0.08,0.1
0,177,target,"[(1033, 792)]",[],[1],[0.43333333333333335],horizontal,"(890.0, 762.0)",1.4166666666666667,0.394,1,1942.045,3,0.08,0.1
0,178,target,"[(1055, 799)]",[],[1],[0.48333333333333334],vertical,"(390.0, 262.0)",0.7166666666666667,0.446,1,1947.728,3,0.08,0.1
0,179,target,"[(1055, 797)]",[],[1],[0.35],vertical,"(890.0, 762.0)",1.3666666666666667,0.314,1,1953.007,3,0.08,0.1
0,180,target,"[(1055, 816)]",[],[1],[0.4666666666666667],horizontal,"(890.0, 762.0)",0.8333333333333334,0.426,1,1958.445,3,0.08,0.1
0,181,target,"[(1057, 806)]",[],[1],[0.45],vertical,"(890.0, 262.0)",0.9,0.412,1,1964.007,3,0.08,0.1
0,182,target,"[(1042, 806)]",[],[1],[0.85],horizontal,"(390.0, 262.0)",0.6666666666666666,nan,0,1969.405,0,0.08,0.1
0,183,target,"[(1041, 796)]",[],[1],[0.6666666666666666],horizontal,"(890.0, 262.0)",1.1,0.622,1,1973.824,1,0.08,0.1
0,184,target,"[(1053, 784)]",[],[1],[0.85],vertical,"(390.0, 262.0)",0.6833333333333333,nan,0,1978.627,0,0.06,0.1
0,185,catch,"[(1034, 786)]",[],[1],[],vertical,"(890.0, 762.0)",1.6,nan,1,1983.241,1,0.06,0.1
0,186,target,"[(1041, 802)]",[],[1],[0.26666666666666666],vertical,"(390.0, 762.0)",1.5833333333333333,0.23,1,1988.296,1,0.06,0.1
0,187,target,"[(1061, 800)]",[],[1],[0.85],vertical,"(390.0, 262.0)",0.5333333333333333,nan,0,1993.392,0,0.06,0.1
0,188,target,"[(1033, 792)]",[],[1],[0.3833333333333333],horizontal,"(390.0, 762.0)",1.45,0.349,1,1997.658,1,0.06,0.1
0,189,catch,"[(1032, 794)]",[],[1],[],horizontal,"(390.0, 762.0)",1.6,nan,1,2003.142,1,0.04,0.1
0,190,catch,"[(1058, 822)]",[],[1],[],vertical,"(890.0, 262.0)",1.6,nan,1,2008.107,2,0.04,0.1
0,191,target,"[(1053, 792)]",[],[1],[0.5166666666666666],vertical,"(890.0, 262.0)",0.85,0.473,1,2013.219,2,0.02,0.1
0,192,target,"[(1060, 806)]",[],[1],[0.6833333333333333],vertical,"(390.0, 762.0)",0.9833333333333333,0.643,1,2018.189,2,0.02,0.1
0,193,catch,"[(1044, 808)]",[],[1],[0.03333333333333333],vertical,"(890.0, 262.0)",1.6,"0.019,nan",0,2023.341,0,0.04,0.1
0,194,target,"[(1060, 785)]",[],[1],[0.6333333333333333],horizontal,"(390.0, 762.0)",1.45,0.59,1,2027.908,1,0.04,0.1
0,195,target,"[(1035, 786)]",[],[1],[0.2],vertical,"(890.0, 262.0)",1.4,0.17,0,2033.007,0,0.04,0.1
0,196,target,"[(1032, 802)]",[],[1],[0.4666666666666667],vertical,"(890.0, 262.0)",1.1,0.428,1,2037.891,1,0.04,0.1
0,197,target,"[(1063, 806)]",[],[1],[0.55],horizontal,"(890.0, 262.0)",0.7833333333333333,0.513,1,2042.598,1,0.04,0.1
0,198,target,"[(1052, 776)]",[],[1],[0.48333333333333334],vertical,"(890.0, 762.0)",1.5666666666666667,0.446,1,2046.966,2,0.04,0.1
0,199,target,"[(1060, 798)]",[],[1],[0.6],horizontal,"(390.0, 762.0)",1.0166666666666666,0.563,1,2052.906,2,0.04,0.1
0,200,target,"[(1048, 799)]",[],[1],[0.31666666666666665],horizontal,"(390.0, 262.0)",1.4833333333333334,0.28,1,2058.341,2,0.04,0.1
0,201,target,"[(1040, 806)]",[],[1],[0.11666666666666667],horizontal,"(890.0, 762.0)",1.5833333333333333,0.085,0,2064.007,0,0.04,0.1
0,202,target,"[(1049, 806)]",[],[1],[0.85],vertical,"(890.0, 762.0)",0.6333333333333333,nan,0,2068.507,0,0.04,0.1
0,203,target,"[(1037, 810)]",[],[1],[0.5333333333333333],vertical,"(890.0, 262.0)",1.35,0.494,1,2073.272,1,0.04,0.1
0,204,target,"[(1057, 812)]",[],[1],[0.5833333333333334],horizontal,"(890.0, 262.0)",1.1166666666666667,0.544,1,2078.466,1,0.04,0.1
0,205,catch,"[(1046, 774)]",[],[1],[],horizontal,"(890.0, 262.0)",1.6,nan,1,2083.441,2,0.04,0.1
0,206,target,"[(1057, 805)]",[],[1],[0.48333333333333334],vertical,"(890.0, 762.0)",0.9333333333333333,0.444,1,2088.873,2,0.04,0.1
0,207,target,"[(1058, 794)]",[],[1],[0.16666666666666666],vertical,"(890.0, 262.0)",1.4833333333333334,0.135,0,2093.84,0,0.04,0.1
0,208,catch,"[(1040, 773)]",[],[1],[],vertical,"(390.0, 262.0)",1.6,nan,1,2098.704,1,0.04,0.1
0,209,catch,"[(1042, 809)]",[],[1],[],vertical,"(390.0, 762.0)",1.6,nan,1,2103.257,1,0.04,0.1
0,210,target,"[(1052, 808)]",[],[1],[0.6],vertical,"(890.0, 762.0)",1.0,0.56,1,2108.025,2,0.02,0.1
0,211,target,"[(1054, 799)]",[],[1],[0.55],horizontal,"(390.0, 262.0)",1.0,0.516,1,2113.356,2,0.02,0.1
0,212,target,"[(1057, 790)]",[],[1],[0.5666666666666667],horizontal,"(390.0, 262.0)",0.5,0.524,1,2118.472,2,0.02,0.1
0,213,target,"[(1058, 789)]",[],[1],[0.5166666666666666],horizontal,"(890.0, 262.0)",1.35,0.477,1,2123.14,2,0.02,0.1
0,214,target,"[(1040, 809)]",[],[1],[0.5833333333333334],vertical,"(890.0, 262.0)",0.65,0.542,1,2129.058,3,0.02,0.1
0,215,target,"[(1051, 792)]",[],[1],[0.5833333333333334],horizontal,"(890.0, 262.0)",1.1166666666666667,0.536,1,2134.274,3,0.02,0.1
0,216,target,"[(1058, 790)]",[],[1],[0.43333333333333335],horizontal,"(390.0, 762.0)",1.3666666666666667,0.393,1,2140.225,3,0.02,0.1
0,217,target,"[(1040, 770)]",[],[1],[0.85],horizontal,"(890.0, 762.0)",0.9833333333333333,nan,0,2146.014,0,0.02,0.1
0,218,target,"[(1038, 804)]",[],[1],[0.6166666666666667],vertical,"(390.0, 262.0)",1.0666666666666667,0.574,1,2150.504,1,0.02,0.1
0,219,target,"[(1055, 783)]",[],[1],[0.55],horizontal,"(390.0, 262.0)",1.3333333333333333,0.513,1,2155.839,1,0.02,0.1
0,220,target,"[(1041, 779)]",[],[1],[0.5833333333333334],vertical,"(890.0, 262.0)",1.1166666666666667,0.548,1,2160.689,2,0.02,0.1
0,221,target,"[(1049, 790)]",[],[1],[0.6333333333333333],vertical,"(890.0, 262.0)",0.5166666666666666,0.592,1,2165.891,2,0.02,0.1
0,222,target,"[(1037, 789)]",[],[1],[0.36666666666666664],vertical,"(890.0, 262.0)",1.1833333333333333,0.332,1,2170.246,2,0.02,0.1
0,223,target,"[(1049, 788)]",[],[1],[0.4166666666666667],vertical,"(390.0, 762.0)",1.3,0.378,1,2175.375,2,0.02,0.1
0,224,target,"[(1037, 776)]",[],[1],[0.5333333333333333],vertical,"(890.0, 262.0)",0.8833333333333333,0.499,1,2180.656,3,0.02,0.1
0,225,target,"[(1037, 786)]",[],[1],[0.5333333333333333],horizontal,"(890.0, 262.0)",1.15,0.49,1,2186.174,3,0.02,0.1
0,226,catch,"[(1057, 782)]",[],[1],[],horizontal,"(390.0, 262.0)",,"('cti', 1.419),nan",0,2192.009,0,0.04,0.1
0,227,target,"[(1037, 806)]",[],[1],[0.85],vertical,"(390.0, 262.0)",0.8666666666666667,nan,0,2196.547,0,0.04,0.1
0,228,target,"[(1035, 828)]",[],[1],[0.3],horizontal,"(390.0, 762.0)",1.5333333333333332,0.268,1,2201.125,1,0.04,0.1
0,229,target,"[(1049, 822)]",[],[1],[0.6166666666666667],horizontal,"(890.0, 762.0)",0.6666666666666666,0.568,1,2208.556,1,0.04,0.1
0,230,target,"[(1037, 787)]",[],[1],[0.48333333333333334],vertical,"(890.0, 762.0)",0.7,0.446,1,2213.192,2,0.04,0.1
0,231,target,"[(1036, 787)]",[],[1],[0.5166666666666666],vertical,"(890.0, 262.0)",0.6666666666666666,0.472,1,2218.475,2,0.04,0.1
0,232,target,"[(1056, 792)]",[],[1],[0.31666666666666665],vertical,"(890.0, 762.0)",1.2666666666666666,0.28,1,2223.191,2,0.04,0.1
0,233,target,"[(1036, 786)]",[],[1],[0.6666666666666666],horizontal,"(890.0, 262.0)",0.6333333333333333,0.62,1,2228.408,2,0.04,0.1
0,234,target,"[(1037, 784)]",[],[1],[0.55],horizontal,"(890.0, 762.0)",1.2,0.515,1,2233.306,3,0.04,0.1
0,235,catch,"[(1035, 783)]",[],[1],[],vertical,"(390.0, 262.0)",1.6,nan,1,2239.025,3,0.04,0.1
0,236,target,"[(1037, 791)]",[],[1],[],vertical,"(890.0, 262.0)",,"('cti', 1.215)",0,2244.581,0,0.06,0.1
0,237,target,"[(1035, 833)]",[],[1],[0.85],horizontal,"(890.0, 262.0)",0.7333333333333333,nan,0,2248.525,0,0.06,0.1
0,238,target,"[(1037, 806)]",[],[1],[0.7],horizontal,"(390.0, 762.0)",0.5333333333333333,0.655,1,2254.898,1,0.06,0.1
0,239,target,"[(1037, 811)]",[],[1],[0.4666666666666667],horizontal,"(890.0, 762.0)",1.1,0.425,1,2259.548,1,0.06,0.1
0,240,target,"[(1055, 802)]",[],[1],[0.55],horizontal,"(390.0, 262.0)",1.2,0.505,1,2264.477,2,0.06,0.1
0,241,target,"[(1037, 778)]",[],[1],[],horizontal,"(890.0, 262.0)",,"('cti', 0.557)",0,2270.242,0,0.08,0.1
0,242,target,"[(1021, 813)]",[],[1],[0.4666666666666667],vertical,"(890.0, 762.0)",1.4166666666666667,0.428,1,2273.876,1,0.08,0.1
0,243,target,"[(1033, 784)]",[],[1],[0.48333333333333334],vertical,"(390.0, 262.0)",0.65,0.442,1,2279.827,1,0.06,0.1
0,244,target,"[(1041, 793)]",[],[1],[0.5],horizontal,"(390.0, 262.0)",1.2833333333333332,0.465,1,2284.475,2,0.06,0.1
0,245,target,"[(1033, 795)]",[],[1],[0.5666666666666667],vertical,"(890.0, 262.0)",1.05,0.529,1,2290.375,2,0.06,0.1
0,246,target,"[(1068, 798)]",[],[1],[0.48333333333333334],horizontal,"(890.0, 262.0)",0.7666666666666666,0.441,1,2295.476,2,0.06,0.1
0,247,catch,"[(1037, 811)]",[],[1],[],vertical,"(390.0, 262.0)",1.6,nan,1,2300.918,2,0.06,0.1
0,248,target,"[(1049, 801)]",[],[1],[0.85],horizontal,"(890.0, 762.0)",0.6666666666666666,nan,0,2308.074,0,0.06,0.1
0,249,target,"[(1035, 817)]",[],[1],[0.55],vertical,"(390.0, 262.0)",0.9833333333333333,0.509,1,2312.674,1,0.06,0.1
0,250,target,"[(1037, 791)]",[],[1],[0.4666666666666667],horizontal,"(890.0, 762.0)",0.7,0.423,1,2317.474,1,0.06,0.1
0,251,target,"[(1054, 789)]",[],[1],[0.6166666666666667],horizontal,"(890.0, 262.0)",0.55,0.57,1,2322.028,2,0.06,0.1
0,252,target,"[(1033, 792)]",[],[1],[0.23333333333333334],vertical,"(890.0, 262.0)",1.4333333333333333,0.199,0,2327.056,0,0.06,0.1
0,253,target,"[(1021, 791)]",[],[1],[0.43333333333333335],vertical,"(390.0, 262.0)",1.45,0.392,1,2331.384,1,0.06,0.1
0,254,target,"[(1037, 794)]",[],[1],[0.6166666666666667],vertical,"(890.0, 262.0)",1.1166666666666667,0.567,1,2336.409,1,0.06,0.1
0,255,target,"[(1037, 772)]",[],[1],[0.5666666666666667],horizontal,"(390.0, 262.0)",0.5333333333333333,0.525,1,2341.209,2,0.06,0.1
0,256,target,"[(1042, 842)]",[],[1],[0.45],horizontal,"(890.0, 262.0)",1.25,0.41,1,2346.209,2,0.06,0.1
0,257,target,"[(1033, 788)]",[],[1],[0.7166666666666667],horizontal,"(390.0, 762.0)",1.0666666666666667,0.671,1,2352.066,2,0.06,0.1
0,258,target,"[(1035, 790)]",[],[1],[0.6],vertical,"(390.0, 262.0)",0.8,0.554,1,2357.509,2,0.06,0.1
0,259,target,"[(1041, 781)]",[],[1],[0.5],vertical,"(390.0, 762.0)",0.9166666666666666,0.462,1,2362.882,3,0.06,0.1
0,260,target,"[(1050, 771)]",[],[1],[0.06666666666666667],vertical,"(390.0, 262.0)",1.5666666666666667,0.034,0,2368.511,0,0.06,0.1
0,261,catch,"[(1037, 796)]",[],[1],[],vertical,"(890.0, 762.0)",1.6,nan,1,2372.902,1,0.06,0.1
0,262,catch,"[(1054, 786)]",[],[1],[],horizontal,"(390.0, 762.0)",1.6,nan,1,2377.646,1,0.06,0.1
0,263,target,"[(1051, 796)]",[],[1],[0.6333333333333333],vertical,"(890.0, 262.0)",1.0166666666666666,0.587,1,2382.375,2,0.06,0.1
0,264,catch,"[(1042, 794)]",[],[1],[],horizontal,"(890.0, 762.0)",1.6,nan,1,2387.944,2,0.06,0.1
0,265,catch,"[(1037, 787)]",[],[1],[],vertical,"(390.0, 262.0)",,"('cti', 1.089),nan",0,2393.126,0,0.08,0.1
0,266,target,"[(1029, 804)]",[],[1],[0.2833333333333333],horizontal,"(890.0, 262.0)",1.4,0.245,1,2397.32,1,0.08,0.1
0,267,target,"[(1037, 787)]",[],[1],[0.5333333333333333],vertical,"(390.0, 262.0)",0.6,0.489,1,2402.126,1,0.08,0.1
0,268,target,"[(1044, 791)]",[],[1],[0.48333333333333334],vertical,"(390.0, 262.0)",0.7166666666666667,0.445,1,2406.441,2,0.08,0.1
0,269,target,"[(1036, 786)]",[],[1],[0.4666666666666667],horizontal,"(890.0, 262.0)",1.0,0.43,1,2411.497,2,0.08,0.1
0,270,target,"[(1043, 795)]",[],[1],[0.36666666666666664],horizontal,"(390.0, 262.0)",1.3166666666666667,0.323,1,2416.519,2,0.08,0.1
0,271,target,"[(1052, 813)]",[],[1],[0.8],horizontal,"(390.0, 762.0)",0.9166666666666666,0.748,1,2421.876,2,0.08,0.1
0,272,target,"[(1052, 798)]",[],[1],[0.5833333333333334],vertical,"(890.0, 762.0)",1.2833333333333332,0.542,1,2427.309,3,0.08,0.1
0,273,target,"[(1049, 791)]",[],[1],[0.55],horizontal,"(390.0, 762.0)",0.9666666666666667,0.501,1,2433.368,3,0.08,0.1
0,274,target,"[(1029, 788)]",[],[1],[0.5833333333333334],horizontal,"(890.0, 762.0)",1.3833333333333333,0.536,1,2439.158,3,0.08,0.1
0,275,target,"[(1049, 812)]",[],[1],[0.26666666666666666],horizontal,"(890.0, 762.0)",1.35,0.233,1,2444.993,3,0.08,0.1
0,276,target,"[(1035, 783)]",[],[1],[0.5166666666666666],vertical,"(390.0, 762.0)",1.1333333333333333,0.471,1,2450.416,3,0.06,0.1
0,277,target,"[(1050, 790)]",[],[1],[0.31666666666666665],vertical,"(390.0, 262.0)",1.3333333333333333,0.28,1,2456.192,3,0.06,0.1
0,278,target,"[(1038, 777)]",[],[1],[0.23333333333333334],horizontal,"(390.0, 262.0)",1.3666666666666667,0.197,0,2462.016,0,0.06,0.1
0,279,catch,"[(1034, 799)]",[],[1],[],vertical,"(890.0, 262.0)",1.6,nan,1,2466.361,1,0.06,0.1
0,280,catch,"[(1052, 797)]",[],[1],[],vertical,"(390.0, 262.0)",1.6,nan,1,2471.26,1,0.06,0.1
0,281,target,"[(1040, 792)]",[],[1],[0.4],vertical,"(390.0, 262.0)",1.3666666666666667,0.361,1,2476.383,2,0.06,0.1
0,282,target,"[(1033, 805)]",[],[1],[0.85],horizontal,"(890.0, 762.0)",0.6333333333333333,nan,0,2481.993,0,0.06,0.1
0,283,target,"[(1036, 801)]",[],[1],[0.43333333333333335],horizontal,"(390.0, 262.0)",1.4166666666666667,0.392,1,2486.677,1,0.06,0.1
0,284,catch,"[(1038, 813)]",[],[1],[],horizontal,"(390.0, 762.0)",,"('cti', 1.521),nan",0,2493.371,0,0.08,0.1
0,285,target,"[(1033, 857)]",[],[1],[0.65],vertical,"(890.0, 762.0)",0.65,0.608,1,2498.065,1,0.08,0.1
0,286,catch,"[(1029, 827)]",[],[1],[],horizontal,"(390.0, 762.0)",1.6,nan,1,2504.174,1,0.06,0.1
0,287,catch,"[(1052, 830)]",[],[1],[],vertical,"(390.0, 262.0)",,"('cti', 1.013),nan",0,2576.569,0,0.08,0.1
0,288,target,"[(1036, 806)]",[],[1],[0.5333333333333333],horizontal,"(890.0, 762.0)",0.7666666666666666,0.494,1,2581.14,1,0.08,0.1
0,289,target,"[(1033, 798)]",[],[1],[0.5833333333333334],vertical,"(390.0, 762.0)",0.85,0.538,1,2585.842,1,0.08,0.1
0,290,target,"[(1049, 799)]",[],[1],[0.6166666666666667],vertical,"(890.0, 762.0)",1.25,0.578,1,2590.259,2,0.08,0.1
0,291,catch,"[(1050, 806)]",[],[1],[],horizontal,"(390.0, 762.0)",,"('cti', 1.585),nan",0,2595.457,0,0.08,0.1
0,292,target,"[(1033, 825)]",[],[1],[0.45],horizontal,"(890.0, 262.0)",1.25,0.409,1,2600.12,1,0.08,0.1
0,293,target,"[(1033, 804)]",[],[1],[0.5333333333333333],horizontal,"(390.0, 262.0)",1.1833333333333333,0.494,1,2605.425,1,0.08,0.1
0,294,target,"[(1029, 795)]",[],[1],[0.43333333333333335],vertical,"(890.0, 262.0)",1.1833333333333333,0.394,1,2610.576,2,0.08,0.1
0,295,target,"[(1054, 803)]",[],[1],[0.55],vertical,"(890.0, 762.0)",0.9666666666666667,0.506,1,2615.559,2,0.08,0.1
0,296,target,"[(1057, 799)]",[],[1],[0.5333333333333333],vertical,"(890.0, 762.0)",0.7666666666666666,0.492,1,2621.025,2,0.08,0.1
0,297,target,"[(1029, 790)]",[],[1],[0.5166666666666666],vertical,"(390.0, 262.0)",0.6666666666666666,0.472,1,2626.01,2,0.08,0.1
0,298,target,"[(1037, 796)]",[],[1],[0.5],vertical,"(890.0, 762.0)",1.3166666666666667,0.461,1,2630.959,3,0.08,0.1
0,299,target,"[(1053, 800)]",[],[1],[0.85],horizontal,"(890.0, 262.0)",1.55,nan,0,2636.575,0,0.08,0.1
0,300,target,"[(1033, 785)]",[],[1],[0.85],vertical,"(390.0, 762.0)",0.6333333333333333,nan,0,2641.798,0,0.08,0.1
0,301,target,"[(1025, 801)]",[],[1],[],vertical,"(890.0, 262.0)",,"('cti', 1.131)",0,2646.558,0,0.1,0.2
0,302,target,"[(997, 822), (1037, 826)]",[],"[0, 1]",[0.6833333333333333],horizontal,"(390.0, 762.0)",0.6833333333333333,0.641,1,2650.793,1,0.1,0.2
0,303,target,"[(1034, 839)]",[],[1],[0.4166666666666667],horizontal,"(390.0, 762.0)",1.1166666666666667,0.373,1,2664.133,1,0.1,0.2
0,304,target,"[(1035, 800)]",[],[1],[0.5],horizontal,"(390.0, 262.0)",1.1333333333333333,0.455,1,2781.733,2,0.1,0.2
0,305,target,"[(1039, 816)]",[],[1],[0.48333333333333334],vertical,"(890.0, 262.0)",0.5166666666666666,0.444,1,2786.913,2,0.1,0.2
0,306,target,"[(1033, 800)]",[],[1],[0.85],vertical,"(890.0, 262.0)",1.3666666666666667,nan,0,2791.9,0,0.1,0.2
0,307,target,"[(1037, 837)]",[],[1],[0.36666666666666664],vertical,"(890.0, 262.0)",0.7333333333333333,0.329,1,2796.921,1,0.1,0.2
0,308,target,"[(1033, 779)]",[],[1],[0.85],horizontal,"(890.0, 762.0)",1.3333333333333333,nan,0,2801.054,0,0.1,0.2
0,309,target,"[(1054, 816)]",[],[1],[0.5333333333333333],horizontal,"(890.0, 762.0)",0.55,0.491,1,2806.168,1,0.1,0.2
0,310,target,"[(1033, 807)]",[],[1],[0.2833333333333333],horizontal,"(390.0, 762.0)",1.2166666666666666,0.247,1,2833.574,1,0.1,0.2
0,311,catch,"[(1036, 797)]",[],[1],[],vertical,"(890.0, 762.0)",,"('cti', 1.54),nan",0,2838.863,0,0.12,0.2
0,312,target,"[(1033, 788)]",[],[1],[0.6666666666666666],vertical,"(390.0, 762.0)",0.9666666666666667,0.627,1,2843.72,1,0.12,0.2
0,313,target,"[(1037, 787)]",[],[1],[0.5],vertical,"(390.0, 262.0)",0.65,0.458,1,2848.628,1,0.12,0.2
0,314,target,"[(1025, 792)]",[],[1],[0.85],horizontal,"(390.0, 762.0)",1.05,nan,0,2853.276,0,0.12,0.2
0,315,target,"[(1014, 807)]",[],[1],[0.85],horizontal,"(390.0, 262.0)",1.0166666666666666,nan,0,2857.768,0,0.1,0.2
0,316,catch,"[(1038, 825)]",[],[1],[],vertical,"(390.0, 762.0)",1.6,nan,1,2862.466,1,0.1,0.2
0,317,target,"[(1033, 809)]",[],[1],[0.48333333333333334],vertical,"(890.0, 262.0)",0.95,0.445,1,2867.054,1,0.1,0.2
0,318,target,"[(1052, 798)]",[],[1],[0.85],vertical,"(390.0, 762.0)",0.7333333333333333,nan,0,2871.932,0,0.1,0.2
0,319,catch,"[(1017, 807)]",[],[1],[],vertical,"(390.0, 262.0)",,"('cti', 1.39),nan",0,2876.305,0,0.12,0.2
0,320,target,"[(1037, 824)]","[(1033, 841)]",[1],[0.0],vertical,"(390.0, 762.0)",,"('bar', 0.018)",0,2881.059,0,0.12,0.2
0,321,target,"[(1033, 845)]",[],[1],[0.4666666666666667],vertical,"(890.0, 762.0)",1.3166666666666667,0.427,1,2897.565,1,0.12,0.2
0,322,target,"[(1038, 798)]",[],[1],[0.85],horizontal,"(890.0, 762.0)",0.8333333333333334,nan,0,2903.91,0,0.12,0.2
0,323,target,"[(1037, 823)]",[],[1],[0.85],horizontal,"(390.0, 262.0)",1.1,nan,0,2908.644,0,0.12,0.2
0,324,catch,"[(599, 561), (572, 578), (1027, 816)]",[],"[0, 0, 1]",[],vertical,"(890.0, 762.0)",1.6,nan,1,2913.593,1,0.12,0.2
0,325,target,"[(1035, 811)]",[],[1],[0.48333333333333334],vertical,"(890.0, 262.0)",0.7166666666666667,0.443,1,2935.06,1,0.12,0.2
0,326,target,"[(1039, 802)]",[],[1],[0.3],vertical,"(890.0, 762.0)",1.0666666666666667,0.264,1,2939.617,2,0.12,0.2
0,327,target,"[(1051, 801)]",[],[1],[0.55],vertical,"(390.0, 762.0)",1.1,0.507,1,2944.994,2,0.12,0.2
0,328,target,"[(1041, 786)]",[],[1],[0.35],horizontal,"(390.0, 262.0)",1.2833333333333332,0.318,1,2950.177,2,0.12,0.2
0,329,target,"[(1040, 777)]",[],[1],[0.48333333333333334],vertical,"(890.0, 762.0)",0.85,0.444,1,2955.294,2,0.12,0.2
0,330,target,"[(1048, 795)]",[],[1],[0.31666666666666665],horizontal,"(390.0, 262.0)",1.2666666666666666,0.282,1,2960.593,3,0.12,0.2
0,331,target,"[(1041, 784)]",[],[1],[0.2],horizontal,"(390.0, 762.0)",1.5,0.169,0,2966.393,0,0.12,0.2
0,332,target,"[(1041, 818)]",[],[1],[0.4666666666666667],vertical,"(890.0, 262.0)",0.7333333333333333,0.43,1,2971.175,1,0.12,0.2
0,333,catch,"[(1041, 786)]",[],[1],[0.03333333333333333],horizontal,"(890.0, 762.0)",1.6,"0.018,nan",0,2975.89,0,0.14,0.2
0,334,target,"[(1040, 786)]",[],[1],[0.85],horizontal,"(890.0, 262.0)",1.3333333333333333,nan,0,2980.925,0,0.12,0.2
0,335,target,"[(1048, 815)]",[],[1],[0.23333333333333334],horizontal,"(890.0, 762.0)",1.5666666666666667,0.195,0,2986.276,0,0.12,0.2
0,336,target,"[(1029, 801)]",[],[1],[0.5],vertical,"(890.0, 262.0)",0.5666666666666667,0.46,1,2991.394,1,0.12,0.2
0,337,target,"[(1054, 784)]",[],[1],[0.85],horizontal,"(390.0, 762.0)",0.7833333333333333,nan,0,2995.518,0,0.1,0.2
0,338,catch,"[(1046, 792)]",[],[1],[],horizontal,"(890.0, 762.0)",1.6,nan,1,3000.165,1,0.1,0.2
0,339,target,"[(1029, 807)]",[],[1],[0.6166666666666667],vertical,"(890.0, 762.0)",0.5666666666666667,0.576,1,3005.544,1,0.1,0.2
0,340,target,"[(1033, 795)]",[],[1],[0.85],vertical,"(390.0, 762.0)",0.5833333333333334,nan,0,3010.276,0,0.1,0.2
0,341,target,"[(1014, 809)]",[],[1],[0.6333333333333333],vertical,"(890.0, 262.0)",0.5333333333333333,0.596,1,3014.592,1,0.08,0.1
0,342,target,"[(1057, 800)]",[],[1],[0.5666666666666667],horizontal,"(390.0, 762.0)",0.9666666666666667,0.532,1,3019.11,1,0.08,0.1
0,343,catch,"[(1058, 804)]",[],[1],[],horizontal,"(390.0, 262.0)",,"('cti', 1.111),nan",0,3023.993,0,0.1,0.2
0,344,target,"[(1036, 809)]",[],[1],[0.55],vertical,"(890.0, 262.0)",0.9166666666666666,0.512,1,3028.108,1,0.1,0.2
0,345,catch,"[(1056, 781)]",[],[1],[],vertical,"(890.0, 762.0)",1.6,nan,1,3032.724,1,0.1,0.2
0,346,catch,"[(1052, 795)]",[],[1],[],vertical,"(890.0, 762.0)",1.6,nan,1,3037.561,2,0.1,0.2
0,347,target,"[(1033, 789)]",[],[1],[0.65],vertical,"(390.0, 762.0)",0.7166666666666667,0.618,1,3042.846,2,0.1,0.2
0,348,target,"[(1032, 789)]",[],[1],[0.5666666666666667],horizontal,"(390.0, 262.0)",1.25,0.524,1,3047.694,2,0.1,0.2
0,349,target,"[(1037, 782)]",[],[1],[0.6],horizontal,"(890.0, 762.0)",1.05,0.566,1,3052.995,2,0.1,0.2
0,350,target,"[(1029, 788)]",[],[1],[0.5166666666666666],vertical,"(890.0, 762.0)",0.75,0.474,1,3058.478,3,0.1,0.2
0,351,catch,"[(1037, 816)]",[],[1],[],vertical,"(390.0, 262.0)",,"('cti', 1.575),nan",0,3063.76,0,0.1,0.2
0,352,catch,"[(1025, 781)]",[],[1],[],vertical,"(390.0, 762.0)",1.6,nan,1,3068.648,1,0.1,0.2
0,353,target,"[(1032, 793)]",[],[1],[0.5166666666666666],vertical,"(890.0, 762.0)",0.6666666666666666,0.481,1,3073.541,1,0.1,0.2
0,354,target,"[(1033, 791)]",[],[1],[0.5],vertical,"(390.0, 262.0)",0.9666666666666667,0.455,1,3077.644,2,0.1,0.2
0,355,target,"[(1038, 792)]",[],[1],[0.8],vertical,"(390.0, 762.0)",1.0166666666666666,0.76,1,3082.694,2,0.1,0.2
0,356,target,"[(1008, 791)]",[],[1],[0.5833333333333334],horizontal,"(390.0, 262.0)",1.0333333333333332,0.552,1,3087.76,2,0.1,0.2
0,357,target,"[(1013, 824)]",[],[1],[0.85],horizontal,"(890.0, 262.0)",1.4,nan,0,3093.361,0,0.1,0.2
0,358,catch,"[(1045, 795)]",[],[1],[],vertical,"(390.0, 762.0)",1.6,nan,1,3099.277,1,0.1,0.2
0,359,target,"[(1037, 790)]",[],[1],[0.6166666666666667],horizontal,"(890.0, 262.0)",1.0166666666666666,0.578,1,3104.087,1,0.1,0.2
0,360,target,"[(1045, 783)]",[],[1],[0.55],horizontal,"(890.0, 262.0)",0.6,0.521,1,3108.911,2,0.1,0.2
0,361,target,"[(1049, 806)]",[],[1],[0.5],vertical,"(890.0, 762.0)",0.5333333333333333,0.468,1,3113.464,2,0.08,0.1
0,362,target,"[(1047, 780)]",[],[1],[0.65],horizontal,"(390.0, 262.0)",0.8166666666666667,0.618,1,3117.884,2,0.08,0.1
0,363,target,"[(1040, 789)]",[],[1],[0.36666666666666664],horizontal,"(890.0, 762.0)",1.1666666666666667,0.337,1,3122.578,2,0.08,0.1
0,364,target,"[(1041, 796)]",[],[1],[0.55],vertical,"(890.0, 262.0)",0.6166666666666667,0.518,1,3128.343,3,0.08,0.1
0,365,target,"[(1045, 811)]",[],[1],[0.16666666666666666],vertical,"(890.0, 262.0)",1.45,0.134,0,3133.809,0,0.08,0.1
0,366,target,"[(1021, 788)]",[],[1],[0.5166666666666666],vertical,"(890.0, 262.0)",0.6166666666666667,0.482,1,3138.59,1,0.08,0.1
0,367,catch,"[(1056, 789)]",[],[1],[0.03333333333333333],vertical,"(390.0, 262.0)",1.6,"0.02,nan",0,3143.238,0,0.1,0.2
0,368,catch,"[(1040, 803)]",[],[1],[],horizontal,"(390.0, 762.0)",1.6,nan,1,3147.71,1,0.1,0.2
0,369,catch,"[(1055, 778)]",[],[1],[],horizontal,"(890.0, 262.0)",,"('cti', 0.547),nan",0,3152.337,0,0.1,0.2
0,370,target,"[(1040, 810)]",[],[1],[],horizontal,"(890.0, 262.0)",,"('cti', 0.566)",0,3156.042,0,0.12,0.2
0,371,target,"[(1044, 787)]",[],[1],[],horizontal,"(890.0, 762.0)",,"('cti', 0.929)",0,3159.87,0,0.14,0.2
0,372,target,"[(1041, 824)]",[],[1],[0.85],vertical,"(890.0, 262.0)",0.8666666666666667,nan,0,3164.143,0,0.14,0.2
0,373,target,"[(1025, 819)]",[],[1],[0.43333333333333335],horizontal,"(390.0, 262.0)",1.55,0.401,1,3168.811,1,0.14,0.2
0,374,target,"[(1041, 787)]",[],[1],[0.4666666666666667],vertical,"(890.0, 262.0)",0.7,0.422,1,3174.01,1,0.14,0.2
0,375,target,"[(1044, 791)]",[],[1],[0.8],vertical,"(890.0, 762.0)",1.0,0.758,1,3178.159,2,0.14,0.2
0,376,target,"[(1049, 786)]",[],[1],[0.5166666666666666],vertical,"(890.0, 262.0)",0.5666666666666667,0.481,1,3183.361,2,0.14,0.2
0,377,target,"[(1041, 791)]",[],[1],[0.3],vertical,"(390.0, 262.0)",1.3666666666666667,0.267,1,3188.294,2,0.14,0.2
0,378,catch,"[(1053, 804)]",[],[1],[],horizontal,"(390.0, 262.0)",1.6,nan,1,3193.729,2,0.14,0.2
0,379,catch,"[(1038, 792)]",[],[1],[],horizontal,"(890.0, 762.0)",1.6,nan,1,3198.971,3,0.14,0.2
0,380,catch,"[(1039, 774)]",[],[1],[],horizontal,"(890.0, 262.0)",1.6,nan,1,3204.889,3,0.14,0.2
0,381,target,"[(1042, 804)]",[],[1],[0.45],vertical,"(890.0, 262.0)",0.6166666666666667,0.416,1,3210.496,3,0.14,0.2
0,382,catch,"[(1045, 776)]",[],[1],[],vertical,"(390.0, 762.0)",,"('cti', 1.587),nan",0,3215.76,0,0.16,0.2
0,383,target,"[(1040, 802)]",[],[1],[0.4666666666666667],horizontal,"(890.0, 762.0)",1.1333333333333333,0.432,1,3220.446,1,0.14,0.2
0,384,target,"[(1040, 796)]",[],[1],[0.5666666666666667],horizontal,"(890.0, 762.0)",1.15,0.525,1,3225.677,1,0.14,0.2
0,385,target,"[(1042, 782)]",[],[1],[0.31666666666666665],vertical,"(390.0, 762.0)",1.45,0.278,1,3230.761,2,0.14,0.2
0,386,target,"[(1039, 783)]",[],[1],[0.5333333333333333],horizontal,"(390.0, 762.0)",0.7833333333333333,0.493,1,3236.427,2,0.14,0.2
0,387,target,"[(1041, 781)]",[],[1],[0.25],horizontal,"(890.0, 262.0)",1.55,0.212,1,3241.127,2,0.14,0.2
0,388,target,"[(1040, 777)]",[],[1],[0.5],vertical,"(890.0, 262.0)",0.6333333333333333,0.463,1,3246.11,2,0.14,0.2
0,389,target,"[(1044, 790)]",[],[1],[0.48333333333333334],horizontal,"(890.0, 262.0)",0.8833333333333333,0.449,1,3251.079,3,0.14,0.2
0,390,target,"[(1052, 791)]",[],[1],[0.25],vertical,"(390.0, 762.0)",1.45,0.217,1,3256.27,3,0.14,0.2
0,391,catch,"[(1045, 782)]",[],[1],[],horizontal,"(390.0, 762.0)",1.6,nan,1,3261.879,3,0.14,0.2
0,392,target,"[(1047, 791)]",[],[1],[0.5],vertical,"(890.0, 762.0)",1.2333333333333334,0.457,1,3267.309,3,0.14,0.2
0,393,target,"[(1056, 801)]",[],[1],[0.26666666666666666],horizontal,"(390.0, 762.0)",1.05,0.236,1,3273.291,3,0.12,0.2
0,394,catch,"[(1033, 796)]",[],[1],[],vertical,"(890.0, 262.0)",1.6,nan,1,3278.963,3,0.12,0.2
0,395,target,"[(1047, 788)]",[],[1],[0.48333333333333334],horizontal,"(390.0, 762.0)",1.2666666666666666,0.446,1,3285.028,3,0.12,0.2
0,396,target,"[(1043, 772)]",[],[1],[0.45],vertical,"(890.0, 762.0)",1.4333333333333333,0.416,1,3290.912,3,0.12,0.2
0,397,target,"[(1051, 788)]",[],[1],[0.85],horizontal,"(390.0, 762.0)",0.6,nan,0,3296.759,0,0.12,0.2
0,398,target,"[(1037, 805)]",[],[1],[0.45],horizontal,"(390.0, 762.0)",0.9166666666666666,0.411,1,3301.244,1,0.12,0.2
0,399,target,"[(1052, 783)]",[],[1],[0.11666666666666667],vertical,"(390.0, 762.0)",1.5833333333333333,0.085,0,3306.322,0,0.12,0.2
0,400,catch,"[(1040, 796)]",[],[1],[],horizontal,"(390.0, 262.0)",1.6,nan,1,3310.846,1,0.12,0.2
0,401,target,"[(1035, 791)]",[],[1],[0.5666666666666667],vertical,"(890.0, 762.0)",0.5833333333333334,0.532,1,3315.537,1,0.1,0.2
0,402,target,"[(1044, 778)]",[],[1],[0.85],vertical,"(890.0, 762.0)",1.5666666666666667,"('cti', 1.574),nan",0,3320.019,0,0.12,0.2
0,403,target,"[(1037, 809)]",[],[1],[0.4166666666666667],horizontal,"(890.0, 762.0)",1.3333333333333333,0.384,1,3325.767,1,0.12,0.2
0,404,target,"[(1043, 784)]",[],[1],[0.7833333333333333],vertical,"(390.0, 762.0)",0.9666666666666667,0.735,1,3330.751,1,0.12,0.2
0,405,target,"[(1054, 800)]",[],[1],[0.25],horizontal,"(890.0, 262.0)",1.5,0.216,1,3335.876,2,0.12,0.2
0,406,target,"[(1041, 787)]",[],[1],[0.23333333333333334],horizontal,"(390.0, 762.0)",1.4333333333333333,0.198,0,3341.35,0,0.12,0.2
0,407,catch,"[(1040, 791)]",[],[1],[],vertical,"(890.0, 262.0)",,"('cti', 1.481),nan",0,3345.745,0,0.14,0.2
0,408,catch,"[(1037, 820)]",[],[1],[],horizontal,"(390.0, 262.0)",1.6,nan,1,3350.515,1,0.14,0.2
0,409,target,"[(1018, 800)]",[],[1],[0.85],vertical,"(890.0, 762.0)",1.2333333333333334,nan,0,3356.411,0,0.14,0.2
0,410,target,"[(1041, 821)]",[],[1],[],horizontal,"(890.0, 262.0)",,"('fix', 0.301)",0,3410.56,0,0.14,0.2
0,411,target,"[(1044, 835)]",[],[1],[0.55],horizontal,"(390.0, 762.0)",1.2833333333333332,0.51,1,3412.562,1,0.14,0.2
0,412,target,"[(1041, 795)]",[],[1],[0.48333333333333334],vertical,"(890.0, 262.0)",1.0166666666666666,0.444,1,3417.72,1,0.14,0.2
0,413,target,"[(1034, 790)]",[],[1],[0.4666666666666667],horizontal,"(390.0, 262.0)",0.5833333333333334,0.427,1,3422.644,2,0.14,0.2
0,414,target,"[(1025, 800)]",[],[1],[0.55],horizontal,"(890.0, 262.0)",0.5,0.508,1,3427.355,2,0.14,0.2
0,415,target,"[(1036, 791)]",[],[1],[0.06666666666666667],horizontal,"(390.0, 762.0)",1.2333333333333334,0.036,0,3432.872,0,0.14,0.2
0,416,catch,"[(1032, 816)]",[],[1],[],horizontal,"(890.0, 262.0)",1.6,nan,1,3437.585,1,0.14,0.2
0,417,target,"[(1045, 785)]",[],[1],[0.6333333333333333],horizontal,"(390.0, 262.0)",0.7833333333333333,0.589,1,3442.928,1,0.12,0.2
0,418,catch,"[(1021, 790)]",[],[1],[],horizontal,"(390.0, 262.0)",,"('cti', 0.913),nan",0,3447.367,0,0.14,0.2
0,419,target,"[(1025, 807)]",[],[1],[0.5833333333333334],horizontal,"(390.0, 762.0)",0.8333333333333334,0.545,1,3451.678,1,0.12,0.2
0,420,target,"[(1037, 782)]",[],[1],[0.4166666666666667],horizontal,"(390.0, 262.0)",1.15,0.375,1,3457.045,1,0.1,0.2
0,421,target,"[(1037, 820)]",[],[1],[0.45],horizontal,"(390.0, 262.0)",0.9666666666666667,0.408,1,3461.91,2,0.08,0.1
0,422,target,"[(1037, 791)]",[],[1],[0.5333333333333333],vertical,"(390.0, 762.0)",1.1,0.49,1,3467.212,2,0.08,0.1
0,423,target,"[(1034, 803)]",[],[1],[0.48333333333333334],horizontal,"(390.0, 762.0)",0.6,0.441,1,3472.756,2,0.08,0.1
0,424,catch,"[(1057, 810)]",[],[1],[],vertical,"(890.0, 762.0)",,"('cti', 1.568),nan",0,3477.678,0,0.1,0.2
0,425,target,"[(1010, 864)]",[],[1],[0.5],vertical,"(390.0, 762.0)",0.5166666666666666,0.459,1,3482.195,1,0.1,0.2
0,426,target,"[(1019, 839)]",[],[1],[0.3],horizontal,"(390.0, 762.0)",1.5166666666666666,0.271,1,3490.234,1,0.1,0.2
0,427,catch,"[(1037, 820)]",[],[1],[],vertical,"(890.0, 762.0)",1.6,nan,1,3495.824,2,0.1,0.2
0,428,target,"[(1038, 789)]",[],[1],[0.1],vertical,"(890.0, 262.0)",1.5833333333333333,0.069,0,3501.228,0,0.1,0.2
0,429,target,"[(1037, 800)]",[],[1],[0.85],vertical,"(390.0, 762.0)",0.5833333333333334,nan,0,3505.928,0,0.1,0.2
0,430,target,"[(1038, 839)]",[],[1],[0.85],vertical,"(890.0, 262.0)",1.1833333333333333,nan,0,3510.712,0,0.1,0.2
0,431,target,"[(1037, 806)]",[],[1],[0.6],vertical,"(890.0, 762.0)",0.8,0.56,1,3518.708,1,0.1,0.2
0,432,target,"[(1035, 801)]",[],[1],[0.75],vertical,"(890.0, 262.0)",1.3333333333333333,0.709,1,3523.179,1,0.08,0.1
0,433,target,"[(1037, 801)]",[],[1],[0.21666666666666667],vertical,"(390.0, 762.0)",1.4666666666666666,0.181,0,3528.527,0,0.08,0.1
0,434,catch,"[(1045, 800)]",[],[1],[],vertical,"(390.0, 262.0)",1.6,nan,1,3533.446,1,0.08,0.1
0,435,catch,"[(1022, 794)]",[],[1],[],horizontal,"(890.0, 762.0)",1.6,nan,1,3538.48,1,0.08,0.1
0,436,target,"[(1036, 774)]",[],[1],[],horizontal,"(390.0, 262.0)",,"('cti', 1.061)",0,3543.539,0,0.1,0.2
0,437,target,"[(1037, 783)]",[],[1],[0.31666666666666665],horizontal,"(890.0, 262.0)",1.5666666666666667,0.287,1,3547.703,1,0.1,0.2
0,438,target,"[(1054, 805)]",[],[1],[0.5166666666666666],vertical,"(890.0, 762.0)",0.55,0.476,1,3552.639,1,0.1,0.2
0,439,target,"[(1034, 785)]",[],[1],[0.4666666666666667],vertical,"(890.0, 262.0)",0.8166666666666667,0.427,1,3557.017,2,0.1,0.2
0,440,target,"[(1023, 790)]",[],[1],[0.48333333333333334],vertical,"(390.0, 262.0)",0.6,0.444,1,3561.901,2,0.1,0.2
0,441,target,"[(1037, 782)]",[],[1],[0.6333333333333333],vertical,"(890.0, 262.0)",1.1666666666666667,0.6,1,3566.762,2,0.1,0.2
0,442,target,"[(1044, 775)]",[],[1],[0.48333333333333334],horizontal,"(890.0, 262.0)",0.55,0.445,1,3571.96,2,0.1,0.2
0,443,target,"[(1042, 794)]",[],[1],[0.8333333333333334],horizontal,"(890.0, 762.0)",0.9,0.791,1,3576.849,3,0.1,0.2
0,444,target,"[(1032, 804)]",[],[1],[0.5],horizontal,"(890.0, 262.0)",1.2166666666666666,0.457,1,3582.518,3,0.1,0.2
0,445,catch,"[(1033, 782)]",[],[1],[0.03333333333333333],vertical,"(890.0, 762.0)",1.6,"0.019,nan",0,3588.335,0,0.12,0.2
0,446,target,"[(1029, 820)]",[],[1],[0.48333333333333334],horizontal,"(390.0, 762.0)",0.9166666666666666,0.456,1,3593.06,1,0.12,0.2
0,447,target,"[(1037, 806)]",[],[1],[0.55],vertical,"(890.0, 262.0)",1.0666666666666667,0.517,1,3597.647,1,0.12,0.2
0,448,target,"[(1061, 767)]",[],[1],[0.5166666666666666],vertical,"(890.0, 262.0)",0.5666666666666667,0.476,1,3602.778,2,0.12,0.2
0,449,target,"[(1037, 785)]",[],[1],[0.48333333333333334],vertical,"(390.0, 262.0)",0.8666666666666667,0.441,1,3607.555,2,0.12,0.2
0,450,target,"[(1017, 799)]",[],[1],[0.4],horizontal,"(390.0, 262.0)",1.0333333333333332,0.361,1,3612.713,2,0.12,0.2
0,451,catch,"[(1036, 778)]",[],[1],[],vertical,"(390.0, 762.0)",1.6,nan,1,3618.029,2,0.12,0.2
0,452,target,"[(1063, 793)]",[],[1],[0.85],vertical,"(890.0, 262.0)",1.0,nan,0,3623.245,0,0.1,0.2
0,453,target,"[(1037, 796)]",[],[1],[0.5],vertical,"(890.0, 762.0)",1.2666666666666666,0.459,1,3628.111,1,0.1,0.2
0,454,target,"[(1036, 775)]",[],[1],[0.18333333333333332],horizontal,"(390.0, 762.0)",1.55,0.153,0,3640.19,0,0.1,0.2
0,455,target,"[(1019, 803)]",[],[1],[0.5833333333333334],vertical,"(890.0, 262.0)",0.7666666666666666,0.542,1,3644.795,1,0.1,0.2
0,456,target,"[(1037, 806)]",[],[1],[0.5],vertical,"(390.0, 262.0)",1.4166666666666667,0.457,1,3649.196,1,0.1,0.2
0,457,target,"[(1037, 787)]",[],[1],[0.5666666666666667],vertical,"(890.0, 262.0)",0.9166666666666666,0.522,1,3654.193,2,0.08,0.1
0,458,target,"[(1021, 799)]",[],[1],[0.23333333333333334],horizontal,"(390.0, 262.0)",1.5333333333333332,0.198,0,3659.683,0,0.08,0.1
0,459,target,"[(1037, 792)]",[],[1],[0.13333333333333333],vertical,"(890.0, 262.0)",1.4,0.102,0,3664.686,0,0.08,0.1
0,460,target,"[(1033, 815)]",[],[1],[0.4166666666666667],vertical,"(890.0, 262.0)",1.5333333333333332,0.386,1,3669.078,1,0.08,0.1
0,461,target,"[(1049, 761)]",[],[1],[0.85],vertical,"(890.0, 762.0)",0.6833333333333333,nan,0,3674.157,0,0.08,0.1
0,462,target,"[(1029, 816)]",[],[1],[0.35],vertical,"(890.0, 762.0)",1.4833333333333334,0.313,1,3678.447,1,0.08,0.1
0,463,catch,"[(1033, 796)]",[],[1],[],vertical,"(390.0, 262.0)",1.6,nan,1,3683.898,1,0.08,0.1
0,464,target,"[(1034, 794)]",[],[1],[0.75],vertical,"(390.0, 262.0)",1.0833333333333333,0.707,1,3689.025,2,0.08,0.1
0,465,target,"[(1041, 787)]",[],[1],[0.6666666666666666],horizontal,"(390.0, 762.0)",0.8,0.622,1,3694.946,2,0.08,0.1
0,466,target,"[(1061, 791)]",[],[1],[0.55],horizontal,"(390.0, 262.0)",1.2,0.511,1,3699.911,2,0.08,0.1
0,467,target,"[(1029, 795)]",[],[1],[0.3833333333333333],horizontal,"(390.0, 262.0)",1.3,0.342,1,3705.395,2,0.08,0.1
0,468,target,"[(1034, 789)]",[],[1],[0.85],vertical,"(390.0, 762.0)",0.5333333333333333,nan,0,3710.575,0,0.06,0.1
0,469,target,"[(1017, 799)]",[],[1],[],vertical,"(390.0, 762.0)",,"('cti', 1.094)",0,3715.231,0,0.08,0.1
0,470,catch,"[(1033, 795)]",[],[1],[],horizontal,"(890.0, 262.0)",1.6,nan,1,3719.795,1,0.08,0.1
0,471,target,"[(1037, 798)]",[],[1],[],vertical,"(890.0, 262.0)",,"('fix', 0.035)",0,3725.488,0,0.08,0.1
0,472,catch,"[(1021, 846)]",[],[1],[],vertical,"(890.0, 762.0)",1.6,nan,1,3726.969,1,0.08,0.1
0,473,target,"[(1034, 793)]",[],[1],[0.6333333333333333],horizontal,"(890.0, 762.0)",1.1666666666666667,0.587,1,3731.96,1,0.08,0.1
0,474,target,"[(1032, 795)]",[],[1],[0.15],vertical,"(890.0, 762.0)",1.4833333333333334,0.117,0,3737.013,0,0.06,0.1
0,475,target,"[(1020, 799)]",[],[1],[],horizontal,"(390.0, 262.0)",,"('cti', 1.161)",0,3741.463,0,0.08,0.1
0,476,target,"[(1029, 828)]",[],[1],[0.5166666666666666],horizontal,"(890.0, 762.0)",1.15,0.477,1,3745.572,1,0.08,0.1
0,477,target,"[(1055, 765)]",[],[1],[0.3],horizontal,"(390.0, 262.0)",1.2666666666666666,0.263,1,3750.897,1,0.08,0.1
0,478,target,"[(1045, 781)]",[],[1],[0.55],horizontal,"(890.0, 262.0)",1.2,0.506,1,3755.755,2,0.08,0.1
0,479,target,"[(1065, 786)]",[],[1],[0.3],horizontal,"(390.0, 262.0)",1.4,0.263,1,3761.476,2,0.08,0.1
0,480,target,"[(1062, 766)]",[],[1],[0.85],horizontal,"(890.0, 762.0)",0.6333333333333333,nan,0,3766.421,0,0.08,0.1
0,481,target,"[(1017, 800)]",[],[1],[0.4666666666666667],vertical,"(890.0, 262.0)",0.7,0.426,1,3770.641,1,0.08,0.1
0,482,target,"[(1038, 763)]",[],[1],[0.13333333333333333],horizontal,"(390.0, 762.0)",1.5,0.099,0,3775.463,0,0.08,0.1
0,483,target,"[(1021, 783)]",[],[1],[0.4],horizontal,"(390.0, 762.0)",1.45,0.361,1,3779.947,1,0.08,0.1
0,484,target,"[(1050, 779)]",[],[1],[0.55],horizontal,"(390.0, 762.0)",1.5666666666666667,0.507,1,3785.107,1,0.08,0.1
0,485,target,"[(1043, 768)]",[],[1],[0.3],horizontal,"(890.0, 262.0)",1.4166666666666667,0.267,1,3790.245,2,0.08,0.1
0,486,target,"[(1036, 770)]",[],[1],[0.55],horizontal,"(390.0, 262.0)",1.5166666666666666,0.507,1,3795.613,2,0.06,0.1
0,487,target,"[(1053, 789)]",[],[1],[0.7166666666666667],vertical,"(390.0, 262.0)",0.9166666666666666,0.675,1,3801.522,2,0.06,0.1
0,488,target,"[(1033, 773)]",[],[1],[0.75],horizontal,"(390.0, 762.0)",0.9666666666666667,0.7,1,3807.197,2,0.06,0.1
0,489,target,"[(1034, 790)]",[],[1],[0.65],vertical,"(890.0, 262.0)",1.15,0.605,1,3812.127,3,0.06,0.1
0,490,catch,"[(1037, 786)]",[],[1],[],horizontal,"(390.0, 762.0)",1.6,nan,1,3818.266,3,0.06,0.1
0,491,target,"[(1033, 783)]",[],[1],[0.65],vertical,"(390.0, 762.0)",0.6,0.605,1,3823.878,3,0.06,0.1
0,492,target,"[(1033, 786)]",[],[1],[0.48333333333333334],horizontal,"(390.0, 262.0)",1.2166666666666666,0.439,1,3829.475,3,0.06,0.1
0,493,target,"[(1034, 777)]",[],[1],[0.6],vertical,"(890.0, 262.0)",0.6833333333333333,0.552,1,3835.33,3,0.06,0.1
0,494,target,"[(1057, 780)]",[],[1],[0.1],vertical,"(390.0, 762.0)",1.4666666666666666,0.067,0,3840.812,0,0.06,0.1
0,495,target,"[(1029, 769)]",[],[1],[0.21666666666666667],horizontal,"(890.0, 262.0)",1.5166666666666666,0.183,0,3845.629,0,0.04,0.1
0,496,target,"[(1021, 795)]",[],[1],[0.48333333333333334],horizontal,"(390.0, 262.0)",1.55,0.438,1,3850.18,1,0.04,0.1
0,497,target,"[(1033, 766)]",[],[1],[0.85],vertical,"(890.0, 762.0)",0.5666666666666667,nan,0,3855.245,0,0.04,0.1
0,498,target,"[(1000, 786), (1021, 807)]",[],"[0, 1]",[0.5666666666666667],horizontal,"(890.0, 762.0)",0.5666666666666667,0.524,1,3859.307,1,0.04,0.1
0,499,catch,"[(1033, 799)]",[],[1],[],horizontal,"(390.0, 762.0)",,"('cti', 1.189),nan",0,3865.797,0,0.06,0.1
0,500,target,"[(1033, 798)]",[],[1],[0.43333333333333335],vertical,"(890.0, 262.0)",0.6,0.395,1,3869.797,1,0.06,0.1
0,501,target,"[(1045, 761)]",[],[1],[0.5],horizontal,"(890.0, 262.0)",0.65,0.457,1,3874.48,1,0.06,0.1
0,502,target,"[(1034, 766)]",[],[1],[0.6666666666666666],vertical,"(390.0, 262.0)",1.05,0.625,1,3878.503,2,0.06,0.1
0,503,target,"[(1025, 804)]",[],[1],[0.65],vertical,"(890.0, 762.0)",0.5333333333333333,0.606,1,3883.766,2,0.06,0.1
0,504,target,"[(1033, 803)]",[],[1],[0.5666666666666667],vertical,"(890.0, 762.0)",0.7,0.535,1,3889.854,2,0.06,0.1
0,505,target,"[(1034, 775)]",[],[1],[0.5],horizontal,"(890.0, 762.0)",0.95,0.464,1,3894.714,2,0.06,0.1
0,506,target,"[(1036, 788)]",[],[1],[0.3833333333333333],vertical,"(390.0, 262.0)",1.25,0.344,1,3899.708,3,0.06,0.1
0,507,target,"[(1037, 779)]",[],[1],[0.43333333333333335],horizontal,"(390.0, 262.0)",1.5,0.393,1,3905.813,3,0.06,0.1
0,508,target,"[(1033, 786)]",[],[1],[0.55],vertical,"(890.0, 262.0)",0.9833333333333333,0.509,1,3911.646,3,0.06,0.1
0,509,target,"[(1033, 774)]",[],[1],[0.85],horizontal,"(390.0, 262.0)",0.5833333333333334,nan,0,3917.63,0,0.06,0.1
0,510,target,"[(1033, 785)]",[],[1],[0.48333333333333334],horizontal,"(390.0, 762.0)",0.9166666666666666,0.448,1,3922.071,1,0.06,0.1
0,511,target,"[(1033, 775)]",[],[1],[0.35],horizontal,"(390.0, 762.0)",1.4,0.309,1,3926.97,1,0.06,0.1
0,512,target,"[(1040, 762)]",[],[1],[0.5333333333333333],horizontal,"(890.0, 762.0)",1.0,0.494,1,3932.007,2,0.06,0.1
0,513,target,"[(1055, 776)]",[],[1],[0.5166666666666666],horizontal,"(890.0, 762.0)",1.15,0.476,1,3937.312,2,0.06,0.1
0,514,target,"[(1045, 770)]",[],[1],[0.5666666666666667],horizontal,"(890.0, 262.0)",0.8333333333333334,0.526,1,3942.62,2,0.06,0.1
0,515,target,"[(1045, 778)]",[],[1],[0.85],vertical,"(390.0, 762.0)",0.75,nan,0,3947.791,0,0.06,0.1
0,516,target,"[(1025, 781)]",[],[1],[],vertical,"(890.0, 762.0)",,"('cti', 1.125)",0,3952.162,0,0.08,0.1
0,517,target,"[(999, 785), (1038, 812)]",[],"[0, 1]",[0.5333333333333333],horizontal,"(890.0, 262.0)",0.5166666666666666,0.492,1,3956.615,1,0.08,0.1
0,518,target,"[(1044, 783)]",[],[1],[0.6166666666666667],vertical,"(890.0, 762.0)",1.2166666666666666,0.577,1,3964.333,1,0.08,0.1
0,519,target,"[(1049, 769)]",[],[1],[0.5166666666666666],vertical,"(890.0, 262.0)",0.6,0.476,1,3969.331,2,0.06,0.1
0,520,target,"[(1029, 768)]",[],[1],[0.23333333333333334],horizontal,"(890.0, 262.0)",1.4333333333333333,0.199,0,3973.863,0,0.06,0.1
0,521,target,"[(1023, 786)]",[],[1],[0.48333333333333334],vertical,"(890.0, 762.0)",0.9166666666666666,0.444,1,3978.797,1,0.06,0.1
0,522,target,"[(1052, 767)]",[],[1],[0.5166666666666666],horizontal,"(890.0, 762.0)",0.9,0.482,1,3983.437,1,0.06,0.1
0,523,target,"[(1046, 778)]",[],[1],[0.48333333333333334],vertical,"(390.0, 262.0)",0.8833333333333333,0.442,1,3987.915,2,0.06,0.1
0,524,target,"[(1043, 769)]",[],[1],[0.5166666666666666],horizontal,"(890.0, 262.0)",1.4833333333333334,0.468,1,3992.679,2,0.06,0.1
0,525,target,"[(1037, 786)]",[],[1],[0.85],vertical,"(390.0, 762.0)",0.6,nan,0,3998.053,0,0.04,0.1
0,526,target,"[(1021, 793)]",[],[1],[0.45],horizontal,"(390.0, 762.0)",1.45,0.408,1,4002.517,1,0.04,0.1
0,527,target,"[(1054, 776)]",[],[1],[0.48333333333333334],horizontal,"(890.0, 262.0)",0.7,0.45,1,4008.249,1,0.04,0.1
0,528,target,"[(1042, 765)]",[],[1],[0.48333333333333334],vertical,"(390.0, 762.0)",0.6,0.452,1,4012.916,2,0.04,0.1
0,529,target,"[(1045, 775)]",[],[1],[0.85],horizontal,"(890.0, 762.0)",0.9,nan,0,4018.047,0,0.04,0.1
0,530,target,"[(996, 786), (1023, 797)]",[],"[0, 1]",[0.85],horizontal,"(390.0, 262.0)",1.0166666666666666,nan,0,4022.835,0,0.04,0.1
0,531,target,"[(1009, 815)]",[],[1],[],horizontal,"(390.0, 762.0)",,"('fix', 0.28)",0,4031.549,0,0.04,0.1
0,532,target,"[(1020, 802)]",[],[1],[0.85],horizontal,"(390.0, 262.0)",0.85,nan,0,4664.682,0,0.04,0.1
0,533,catch,"[(1032, 805)]",[],[1],[],horizontal,"(890.0, 762.0)",1.6,nan,1,4670.127,1,0.04,0.1
0,534,target,"[(1023, 786)]",[],[1],[0.5333333333333333],vertical,"(390.0, 762.0)",0.8166666666666667,0.489,1,4675.108,1,0.04,0.1
0,535,target,"[(1035, 781)]",[],[1],[0.5666666666666667],horizontal,"(390.0, 762.0)",0.6166666666666667,0.528,1,4680.015,2,0.04,0.1
0,536,target,"[(1037, 786)]",[],[1],[0.3833333333333333],horizontal,"(390.0, 262.0)",1.2666666666666666,0.347,1,4684.766,2,0.04,0.1
0,537,target,"[(1034, 790)]",[],[1],[0.6333333333333333],vertical,"(890.0, 262.0)",0.6166666666666667,0.591,1,4690.133,2,0.04,0.1
0,538,target,"[(1038, 785)]",[],[1],[0.4666666666666667],vertical,"(890.0, 262.0)",0.9666666666666667,0.425,1,4694.848,2,0.04,0.1
0,539,target,"[(1033, 801)]",[],[1],[0.6],horizontal,"(390.0, 762.0)",0.6833333333333333,0.559,1,4699.933,3,0.04,0.1
0,540,catch,"[(1034, 773)]",[],[1],[],horizontal,"(390.0, 262.0)",1.6,nan,1,4705.166,3,0.04,0.1
0,541,target,"[(1049, 801)]",[],[1],[0.85],vertical,"(890.0, 762.0)",1.0166666666666666,nan,0,4711.082,0,0.04,0.1
0,542,target,"[(1038, 817)]",[],[1],[0.48333333333333334],vertical,"(890.0, 762.0)",1.35,0.444,1,4715.824,1,0.04,0.1
0,543,catch,"[(1049, 827)]",[],[1],[],horizontal,"(390.0, 262.0)",1.6,nan,1,4720.798,1,0.04,0.1
0,544,target,"[(1053, 772)]",[],[1],[0.65],vertical,"(890.0, 262.0)",0.5166666666666666,0.607,1,4725.549,2,0.04,0.1
0,545,target,"[(1054, 798)]",[],[1],[0.7333333333333333],vertical,"(890.0, 762.0)",0.95,0.687,1,4730.197,2,0.04,0.1
0,546,target,"[(1054, 796)]",[],[1],[0.05],horizontal,"(390.0, 262.0)",1.5333333333333332,0.018,0,4735.422,0,0.04,0.1
0,547,target,"[(1050, 796)]",[],[1],[0.45],horizontal,"(890.0, 262.0)",1.3666666666666667,0.406,1,4739.921,1,0.04,0.1
0,548,target,"[(1057, 805)]",[],[1],[],horizontal,"(390.0, 262.0)",,"('cti', 1.012)",0,4744.816,0,0.06,0.1
0,549,target,"[(1049, 803)]",[],[1],[0.55],vertical,"(890.0, 262.0)",0.7833333333333333,0.51,1,4748.882,1,0.04,0.1
0,550,target,"[(1042, 781)]",[],[1],[0.4666666666666667],vertical,"(890.0, 262.0)",1.3833333333333333,0.423,1,4753.62,1,0.04,0.1
0,551,target,"[(1073, 779)]",[],[1],[0.5],horizontal,"(390.0, 762.0)",0.8333333333333334,0.455,1,4758.43,2,0.04,0.1
0,552,target,"[(1026, 816)]",[],[1],[0.55],horizontal,"(890.0, 762.0)",1.2166666666666666,0.509,1,4763.55,2,0.04,0.1
0,553,target,"[(1028, 797)]",[],[1],[0.5],horizontal,"(890.0, 762.0)",0.9166666666666666,0.457,1,4769.24,2,0.04,0.1
0,554,target,"[(1044, 805)]",[],[1],[0.6],horizontal,"(890.0, 262.0)",1.0333333333333332,0.555,1,4774.133,2,0.04,0.1
0,555,target,"[(1029, 787)]",[],[1],[0.26666666666666666],vertical,"(390.0, 262.0)",1.5333333333333332,0.23,1,4779.457,3,0.04,0.1
0,556,target,"[(1041, 786)]",[],[1],[0.5166666666666666],horizontal,"(390.0, 262.0)",1.0,0.478,1,4785.408,3,0.04,0.1
0,557,target,"[(1053, 783)]",[],[1],[0.1],vertical,"(390.0, 762.0)",1.4833333333333334,0.068,0,4790.915,0,0.04,0.1
0,558,target,"[(1021, 806)]",[],[1],[0.6833333333333333],vertical,"(390.0, 762.0)",0.5333333333333333,0.642,1,4795.665,1,0.04,0.1
0,559,target,"[(1047, 787)]",[],[1],[0.35],horizontal,"(890.0, 262.0)",1.4,0.313,1,4799.904,1,0.04,0.1
0,560,target,"[(1026, 791)]",[],[1],[0.31666666666666665],horizontal,"(890.0, 762.0)",1.5166666666666666,0.277,1,4805.083,2,0.04,0.1
0,561,target,"[(1057, 786)]",[],[1],[0.5333333333333333],vertical,"(890.0, 762.0)",1.5833333333333333,0.499,1,4810.308,2,0.04,0.1
0,562,target,"[(1029, 796)]",[],[1],[0.65],horizontal,"(890.0, 762.0)",1.0,0.601,1,4815.809,2,0.04,0.1
0,563,catch,"[(1044, 791)]",[],[1],[],vertical,"(890.0, 262.0)",1.6,nan,1,4821.479,2,0.04,0.1
0,564,target,"[(1018, 790)]",[],[1],[0.6666666666666666],vertical,"(890.0, 262.0)",1.05,0.622,1,4826.6,3,0.04,0.1
0,565,target,"[(1038, 774)]",[],[1],[0.6833333333333333],vertical,"(390.0, 262.0)",1.05,0.634,1,4832.666,3,0.04,0.1
0,566,target,"[(1055, 790)]",[],[1],[0.5833333333333334],vertical,"(390.0, 762.0)",1.2333333333333334,0.539,1,4838.604,3,0.02,0.1
0,567,target,"[(1049, 785)]",[],[1],[0.5333333333333333],horizontal,"(390.0, 262.0)",0.6833333333333333,0.491,1,4844.552,3,0.02,0.1
0,568,target,"[(1033, 777)]",[],[1],[0.6166666666666667],horizontal,"(890.0, 762.0)",1.4,0.572,1,4849.516,3,0.02,0.1
0,569,target,"[(1055, 792)]",[],[1],[0.36666666666666664],horizontal,"(890.0, 762.0)",1.4333333333333333,0.328,1,4855.749,3,0.02,0.1
0,570,target,"[(1055, 783)]",[],[1],[0.6166666666666667],vertical,"(890.0, 762.0)",0.6666666666666666,0.569,1,4861.369,3,0.02,0.1
0,571,target,"[(1038, 788)]",[],[1],[0.6],vertical,"(390.0, 262.0)",0.95,0.553,1,4866.298,3,0.02,0.1
0,572,target,"[(1046, 786)]",[],[1],[0.55],vertical,"(890.0, 262.0)",0.7666666666666666,0.502,1,4872.16,3,0.02,0.1
0,573,target,"[(1052, 790)]",[],[1],[0.5833333333333334],horizontal,"(390.0, 262.0)",1.1833333333333333,0.544,1,4877.819,3,0.02,0.1
0,574,target,"[(1047, 801)]",[],[1],[0.85],horizontal,"(890.0, 762.0)",1.3333333333333333,nan,0,4883.426,0,0.02,0.1
0,575,target,"[(1021, 789)]",[],[1],[0.23333333333333334],horizontal,"(390.0, 762.0)",1.5333333333333332,0.199,0,4888.849,0,0.02,0.1
0,576,target,"[(1049, 790)]",[],[1],[0.5],horizontal,"(890.0, 262.0)",1.3333333333333333,0.458,1,4893.768,1,0.02,0.1
0,577,target,"[(1056, 788)]",[],[1],[0.3],vertical,"(390.0, 262.0)",1.5333333333333332,0.261,1,4898.866,1,0.02,0.1
0,578,target,"[(1056, 781)]",[],[1],[0.5166666666666666],vertical,"(390.0, 762.0)",0.8333333333333334,0.473,1,4903.917,2,0.02,0.1
0,579,target,"[(1052, 776)]",[],[1],[0.4666666666666667],horizontal,"(390.0, 762.0)",1.25,0.428,1,4909.117,2,0.02,0.1
0,580,target,"[(1033, 770)]",[],[1],[0.6666666666666666],vertical,"(390.0, 762.0)",0.75,0.616,1,4914.649,2,0.02,0.1
0,581,target,"[(1036, 771)]",[],[1],[0.4666666666666667],vertical,"(890.0, 262.0)",1.1833333333333333,0.427,1,4919.3,2,0.02,0.1
0,582,target,"[(1052, 787)]",[],[1],[0.4666666666666667],vertical,"(390.0, 762.0)",1.1833333333333333,0.427,1,4924.681,3,0.02,0.1
0,583,target,"[(1037, 816)]",[],[1],[0.43333333333333335],vertical,"(390.0, 762.0)",1.5333333333333332,0.406,1,4930.816,3,0.02,0.1
0,584,target,"[(1037, 783)]",[],[1],[0.5],vertical,"(890.0, 762.0)",1.35,0.456,1,4936.581,3,0.02,0.1
0,585,target,"[(1035, 770)]",[],[1],[0.45],horizontal,"(390.0, 262.0)",0.8666666666666667,0.414,1,4942.065,3,0.02,0.1
0,586,target,"[(1037, 768)]",[],[1],[0.23333333333333334],vertical,"(390.0, 762.0)",1.4,0.199,0,4947.516,0,0.02,0.1
0,587,target,"[(1033, 787)]",[],[1],[0.7166666666666667],horizontal,"(390.0, 762.0)",1.15,0.677,1,4952.294,1,0.02,0.1
0,588,target,"[(1040, 758)]",[],[1],[0.5333333333333333],horizontal,"(390.0, 262.0)",1.2166666666666666,0.494,1,4957.434,1,0.02,0.1
0,589,catch,"[(1033, 768)]",[],[1],[],vertical,"(390.0, 762.0)",1.6,nan,1,4962.699,2,0.02,0.1
0,590,target,"[(1033, 767)]",[],[1],[0.5833333333333334],vertical,"(390.0, 762.0)",0.5,0.542,1,4967.966,2,0.02,0.1
0,591,catch,"[(1035, 768)]",[],[1],[],horizontal,"(390.0, 262.0)",1.6,nan,1,4972.685,2,0.02,0.1
0,592,target,"[(1057, 779)]",[],[1],[0.5333333333333333],horizontal,"(390.0, 262.0)",0.9333333333333333,0.493,1,4978.082,2,0.02,0.1
0,593,target,"[(1061, 771)]",[],[1],[0.23333333333333334],vertical,"(390.0, 762.0)",1.4,0.198,0,4983.525,0,0.02,0.1
0,594,target,"[(1034, 786)]",[],[1],[0.5833333333333334],vertical,"(390.0, 262.0)",0.75,0.542,1,4988.516,1,0.02,0.1
0,595,target,"[(1042, 756)]",[],[1],[0.45],vertical,"(890.0, 762.0)",1.2333333333333334,0.407,1,4993.299,1,0.02,0.1
0,596,catch,"[(1054, 769)]",[],[1],[],vertical,"(890.0, 262.0)",1.6,nan,1,4998.633,2,0.02,0.1
0,597,target,"[(1059, 791)]",[],[1],[0.85],vertical,"(890.0, 762.0)",0.65,nan,0,5004.182,0,0.02,0.1
0,598,target,"[(1030, 788)]",[],[1],[],vertical,"(390.0, 262.0)",,"('cti', 1.35)",0,5008.382,0,0.02,0.1
0,599,target,"[(1021, 771)]",[],[1],[0.5333333333333333],vertical,"(890.0, 762.0)",0.65,0.493,1,5012.582,1,0.02,0.1
0,600,target,"[(1048, 778)]",[],[1],[0.5166666666666666],horizontal,"(890.0, 262.0)",0.6833333333333333,0.483,1,5017.184,1,0.02,0.1
0,601,target,"[(1052, 769)]",[],[1],[0.5666666666666667],horizontal,"(390.0, 762.0)",0.7,0.528,1,5021.501,2,0.02,0.1
0,602,catch,"[(1057, 795)]",[],[1],[],horizontal,"(890.0, 262.0)",1.6,nan,1,5026.578,2,0.02,0.1
0,603,target,"[(1033, 798)]",[],[1],[],vertical,"(890.0, 262.0)",,"('cti', 1.255)",0,5031.799,0,0.04,0.1
0,604,target,"[(1021, 795)]",[],[1],[0.4666666666666667],vertical,"(890.0, 762.0)",0.7666666666666666,0.428,1,5036.167,1,0.04,0.1
0,605,target,"[(1034, 777)]",[],[1],[0.5333333333333333],horizontal,"(890.0, 262.0)",0.5833333333333334,0.492,1,5040.676,1,0.04,0.1
0,606,target,"[(1037, 782)]",[],[1],[0.3333333333333333],vertical,"(890.0, 262.0)",1.4666666666666666,0.299,1,5044.999,2,0.04,0.1
0,607,target,"[(1057, 791)]",[],[1],[0.45],horizontal,"(390.0, 262.0)",1.2833333333333332,0.424,1,5050.516,2,0.04,0.1
0,608,target,"[(1037, 782)]",[],[1],[0.5166666666666666],vertical,"(390.0, 762.0)",1.5166666666666666,0.477,1,5056.212,2,0.04,0.1
0,609,target,"[(1052, 787)]",[],[1],[0.2833333333333333],vertical,"(390.0, 262.0)",1.4,0.25,1,5062.006,2,0.04,0.1
0,610,target,"[(1054, 795)]",[],[1],[0.5666666666666667],horizontal,"(390.0, 262.0)",0.8333333333333334,0.527,1,5067.646,3,0.04,0.1
0,611,target,"[(1049, 807)]",[],[1],[0.45],vertical,"(390.0, 762.0)",1.1,0.41,1,5072.993,3,0.04,0.1
0,612,target,"[(1033, 778)]",[],[1],[0.06666666666666667],horizontal,"(390.0, 762.0)",1.1833333333333333,0.036,0,5078.41,0,0.04,0.1
0,613,target,"[(1035, 791)]",[],[1],[0.5666666666666667],horizontal,"(890.0, 762.0)",0.6333333333333333,0.524,1,5082.949,1,0.04,0.1
0,614,target,"[(1033, 771)]",[],[1],[0.5833333333333334],horizontal,"(890.0, 762.0)",0.75,0.539,1,5087.722,1,0.04,0.1
0,615,target,"[(1047, 779)]",[],[1],[0.48333333333333334],horizontal,"(890.0, 262.0)",0.8,0.445,1,5092.483,2,0.04,0.1
0,616,target,"[(1035, 774)]",[],[1],[0.5],vertical,"(890.0, 262.0)",0.6,0.462,1,5097.77,2,0.04,0.1
0,617,target,"[(1058, 795)]",[],[1],[0.48333333333333334],horizontal,"(890.0, 262.0)",1.0833333333333333,0.442,1,5102.658,2,0.04,0.1
0,618,target,"[(1042, 782)]",[],[1],[0.5666666666666667],horizontal,"(390.0, 762.0)",0.6833333333333333,0.523,1,5108.066,2,0.04,0.1
0,619,target,"[(1029, 801)]",[],[1],[0.5],horizontal,"(890.0, 262.0)",0.9333333333333333,0.461,1,5113.261,3,0.04,0.1
0,620,target,"[(1035, 820)]",[],[1],[0.85],vertical,"(890.0, 762.0)",0.8,nan,0,5119.146,0,0.04,0.1
0,621,target,"[(1019, 802)]",[],[1],[0.5666666666666667],horizontal,"(890.0, 262.0)",0.5,0.533,1,5124.267,1,0.04,0.1
0,622,target,"[(1057, 786)]",[],[1],[0.65],vertical,"(890.0, 262.0)",0.9333333333333333,0.604,1,5129.063,1,0.04,0.1
0,623,target,"[(1042, 778)]",[],[1],[0.85],horizontal,"(390.0, 262.0)",0.6333333333333333,nan,0,5133.936,0,0.04,0.1
0,624,target,"[(1025, 789)]",[],[1],[0.11666666666666667],vertical,"(890.0, 762.0)",1.4,0.083,0,5138.233,0,0.04,0.1
0,625,target,"[(1033, 787)]",[],[1],[0.4],horizontal,"(390.0, 762.0)",1.35,0.357,1,5142.577,1,0.04,0.1
0,626,target,"[(1029, 802)]",[],[1],[0.55],horizontal,"(390.0, 262.0)",0.9333333333333333,0.507,1,5149.399,1,0.04,0.1
0,627,target,"[(1054, 788)]",[],[1],[0.5666666666666667],horizontal,"(390.0, 262.0)",0.5833333333333334,0.526,1,5154.45,2,0.04,0.1
0,628,target,"[(1035, 780)]",[],[1],[0.2],vertical,"(890.0, 762.0)",1.5833333333333333,0.168,0,5159.383,0,0.04,0.1
0,629,target,"[(1025, 805)]",[],[1],[0.2],vertical,"(390.0, 762.0)",1.55,0.168,0,5164.037,0,0.04,0.1
0,630,target,"[(1039, 794)]",[],[1],[0.5833333333333334],vertical,"(890.0, 262.0)",1.1833333333333333,0.54,1,5168.866,1,0.04,0.1
0,631,target,"[(1041, 799)]",[],[1],[0.16666666666666666],vertical,"(890.0, 262.0)",1.5,0.131,0,5173.731,0,0.04,0.1
0,632,target,"[(1041, 775)]",[],[1],[0.23333333333333334],horizontal,"(890.0, 762.0)",1.3666666666666667,0.196,0,5178.43,0,0.04,0.1
0,633,target,"[(1032, 794)]",[],[1],[0.45],vertical,"(890.0, 262.0)",1.3,0.408,1,5182.888,1,0.04,0.1
0,634,target,"[(1037, 789)]",[],[1],[0.65],vertical,"(890.0, 262.0)",1.1166666666666667,0.609,1,5188.057,1,0.04,0.1
0,635,target,"[(1045, 774)]",[],[1],[0.5333333333333333],vertical,"(390.0, 762.0)",0.5833333333333334,0.49,1,5193.2,2,0.04,0.1
0,636,target,"[(1058, 791)]",[],[1],[0.48333333333333334],horizontal,"(890.0, 262.0)",0.65,0.441,1,5198.016,2,0.04,0.1
0,637,target,"[(1033, 787)]",[],[1],[0.7166666666666667],vertical,"(890.0, 262.0)",0.9666666666666667,0.676,1,5202.88,2,0.04,0.1
0,638,target,"[(1032, 797)]",[],[1],[0.08333333333333333],vertical,"(390.0, 262.0)",1.5666666666666667,0.053,0,5208.628,0,0.04,0.1
0,639,target,"[(1040, 793)]",[],[1],[0.3],vertical,"(390.0, 262.0)",1.5,0.264,1,5213.401,1,0.04,0.1
0,640,target,"[(1060, 776)]",[],[1],[0.85],vertical,"(890.0, 762.0)",0.9,nan,0,5218.866,0,0.04,0.1
0,641,target,"[(1021, 792)]",[],[1],[0.48333333333333334],horizontal,"(890.0, 762.0)",1.05,0.443,1,5223.322,1,0.04,0.1
0,642,catch,"[(1029, 809)]",[],[1],[],vertical,"(390.0, 762.0)",1.6,nan,1,5228.123,1,0.04,0.1
0,643,target,"[(1058, 782)]",[],[1],[0.18333333333333332],vertical,"(390.0, 262.0)",1.5,0.152,0,5233.083,0,0.04,0.1
0,644,catch,"[(1021, 786)]",[],[1],[],horizontal,"(890.0, 262.0)",1.6,nan,1,5237.83,1,0.04,0.1
0,645,target,"[(1048, 799)]",[],[1],[0.4],horizontal,"(890.0, 762.0)",1.2,0.359,1,5242.382,1,0.04,0.1
0,646,target,"[(1029, 776)]",[],[1],[0.5166666666666666],horizontal,"(890.0, 262.0)",0.6333333333333333,0.477,1,5247.633,2,0.04,0.1
0,647,catch,"[(1032, 791)]",[],[1],[],vertical,"(890.0, 762.0)",1.6,nan,1,5252.55,2,0.04,0.1
0,648,target,"[(1065, 801)]",[],[1],[0.4666666666666667],vertical,"(390.0, 262.0)",1.2333333333333334,0.429,1,5258.319,2,0.02,0.1
0,649,target,"[(1033, 794)]",[],[1],[0.85],vertical,"(390.0, 762.0)",1.0,nan,0,5263.983,0,0.02,0.1
0,650,target,"[(1027, 819)]",[],[1],[0.5666666666666667],vertical,"(890.0, 762.0)",0.65,0.523,1,5268.469,1,0.02,0.1
0,651,target,"[(1033, 792)]",[],[1],[0.4666666666666667],vertical,"(890.0, 262.0)",0.7,0.425,1,5273.15,1,0.02,0.1
0,652,target,"[(1024, 771)]",[],[1],[0.5833333333333334],vertical,"(890.0, 262.0)",0.8333333333333334,0.542,1,5277.75,2,0.02,0.1
0,653,target,"[(1058, 790)]",[],[1],[0.5333333333333333],horizontal,"(390.0, 262.0)",0.75,0.493,1,5282.7,2,0.0,0.1
0,654,target,"[(1027, 781)]",[],[1],[0.5],horizontal,"(890.0, 262.0)",0.6,0.456,1,5287.752,2,0.0,0.1
0,655,target,"[(1037, 782)]",[],[1],[0.48333333333333334],vertical,"(890.0, 762.0)",0.85,0.445,1,5292.676,2,0.0,0.1
0,656,target,"[(1039, 778)]",[],[1],[0.5333333333333333],horizontal,"(890.0, 262.0)",0.6166666666666667,0.493,1,5297.684,3,0.0,0.1
0,657,target,"[(1017, 779)]",[],[1],[0.85],vertical,"(890.0, 762.0)",0.6666666666666666,nan,0,5303.1,0,0.0,0.1
0,658,target,"[(1034, 793)]",[],[1],[0.85],horizontal,"(390.0, 762.0)",0.7666666666666666,nan,0,5310.995,0,0.0,0.1
0,659,target,"[(1021, 818)]",[],[1],[0.4666666666666667],horizontal,"(890.0, 262.0)",1.1166666666666667,0.425,1,5316.034,1,0.0,0.1
0,660,target,"[(1057, 802)]",[],[1],[0.35],vertical,"(890.0, 762.0)",1.45,0.318,1,5735.752,1,0.0,0.1
0,661,target,"[(1051, 811)]",[],[1],[0.85],horizontal,"(390.0, 762.0)",0.55,nan,0,5740.759,0,0.0,0.1
0,662,target,"[(1030, 820)]",[],[1],[0.55],vertical,"(390.0, 262.0)",0.9,0.511,1,5745.319,1,0.0,0.1
0,663,target,"[(1022, 786)]",[],[1],[0.4666666666666667],vertical,"(890.0, 762.0)",1.4333333333333333,0.435,1,5754.252,1,0.0,0.1
0,664,target,"[(1049, 807)]",[],[1],[0.85],vertical,"(890.0, 762.0)",0.7,nan,0,5759.243,0,0.0,0.1
0,665,target,"[(1035, 821)]",[],[1],[0.6],vertical,"(390.0, 762.0)",1.5,0.551,1,5764.252,1,0.0,0.1
0,666,target,"[(1040, 770)]",[],[1],[0.18333333333333332],horizontal,"(890.0, 762.0)",1.1666666666666667,0.147,0,8519.123,0,0.0,0.1
0,667,target,"[(1046, 830)]",[],[1],[0.5833333333333334],vertical,"(390.0, 262.0)",0.7666666666666666,0.533,1,8523.781,1,0.0,0.1
0,668,target,"[(1040, 786)]",[],[1],[0.7666666666666666],vertical,"(390.0, 262.0)",0.55,0.719,1,8528.509,1,0.0,0.1
0,669,target,"[(1048, 786)]",[],[1],[0.6833333333333333],horizontal,"(390.0, 762.0)",0.9,0.642,1,8532.885,2,0.0,0.1
0,670,target,"[(1057, 777)]",[],[1],[0.43333333333333335],vertical,"(890.0, 762.0)",1.4166666666666667,0.391,1,8538.279,2,0.0,0.1
0,671,target,"[(1030, 771)]",[],[1],[0.48333333333333334],vertical,"(390.0, 762.0)",1.1666666666666667,0.44,1,8543.609,2,0.0,0.1
0,672,target,"[(1033, 778)]",[],[1],[0.6833333333333333],vertical,"(390.0, 762.0)",0.7666666666666666,0.634,1,8548.882,2,0.0,0.1
0,673,target,"[(1033, 784)]",[],[1],[0.85],horizontal,"(890.0, 762.0)",1.0166666666666666,nan,0,8554.032,0,0.0,0.1
0,674,target,"[(1021, 791)]",[],[1],[0.85],vertical,"(890.0, 762.0)",0.5333333333333333,nan,0,8558.771,0,0.0,0.1
0,675,target,"[(1033, 806)]",[],[1],[0.85],vertical,"(890.0, 762.0)",1.0333333333333332,nan,0,8563.461,0,0.0,0.1
0,676,target,"[(1031, 786)]",[],[1],[0.65],horizontal,"(390.0, 762.0)",1.1,0.608,1,8568.408,1,0.0,0.1
0,677,target,"[(1035, 783)]",[],[1],[0.4666666666666667],vertical,"(890.0, 262.0)",1.15,0.429,1,8573.712,1,0.0,0.1
0,678,target,"[(1032, 785)]",[],[1],[0.16666666666666666],horizontal,"(390.0, 762.0)",1.4333333333333333,0.132,0,8578.937,0,0.0,0.1
0,679,target,"[(1036, 788)]",[],[1],[0.75],horizontal,"(390.0, 762.0)",0.5166666666666666,0.703,1,8583.745,1,0.0,0.1
0,680,target,"[(1031, 788)]",[],[1],[0.13333333333333333],horizontal,"(390.0, 762.0)",0.95,0.1,0,8588.045,0,0.0,0.1
0,681,target,"[(1052, 781)]",[],[1],[0.55],vertical,"(390.0, 262.0)",0.9333333333333333,0.505,1,8592.227,1,0.0,0.1
0,682,target,"[(1032, 787)]",[],[1],[0.15],horizontal,"(390.0, 762.0)",1.5166666666666666,0.117,0,8596.851,0,0.0,0.1
0,683,target,"[(1032, 803)]",[],[1],[],horizontal,"(390.0, 262.0)",,"('cti', 1.294)",0,8601.594,0,0.02,0.1
0,684,target,"[(1022, 794)]",[],[1],[0.13333333333333333],vertical,"(390.0, 762.0)",1.5,0.1,0,8606.37,0,0.02,0.1
0,685,catch,"[(1014, 852)]",[],[1],[],horizontal,"(890.0, 262.0)",1.6,nan,1,8610.963,1,0.02,0.1
0,686,target,"[(1033, 796)]",[],[1],[0.6333333333333333],vertical,"(390.0, 262.0)",0.7166666666666667,0.59,1,8615.679,1,0.02,0.1
0,687,target,"[(1032, 790)]",[],[1],[0.65],vertical,"(890.0, 262.0)",0.8666666666666667,0.602,1,8620.185,2,0.02,0.1
0,688,target,"[(1052, 800)]",[],[1],[0.55],horizontal,"(390.0, 262.0)",0.85,0.513,1,8625.234,2,0.02,0.1
0,689,catch,"[(1029, 750), (1046, 816)]",[],"[0, 1]",[],horizontal,"(390.0, 262.0)",,"('cti', 1.57),nan",0,8630.637,0,0.04,0.1
0,690,target,"[(1033, 820)]",[],[1],[0.85],vertical,"(890.0, 262.0)",1.55,nan,0,8636.607,0,0.04,0.1
0,691,target,"[(1013, 791)]",[],[1],[0.21666666666666667],vertical,"(890.0, 762.0)",1.5333333333333332,0.181,0,8646.652,0,0.04,0.1
0,692,target,"[(1029, 810)]",[],[1],[0.5166666666666666],horizontal,"(390.0, 262.0)",1.5,0.479,1,8651.586,1,0.04,0.1
0,693,target,"[(1044, 789)]",[],[1],[0.6],vertical,"(390.0, 762.0)",0.5,0.557,1,8656.765,1,0.04,0.1
0,694,target,"[(1030, 757)]",[],[1],[0.85],horizontal,"(890.0, 762.0)",0.6833333333333333,nan,0,8661.347,0,0.04,0.1
0,695,catch,"[(1029, 811)]",[],[1],[],vertical,"(890.0, 762.0)",1.6,nan,1,8666.14,1,0.04,0.1
0,696,target,"[(1029, 778)]",[],[1],[0.4166666666666667],horizontal,"(890.0, 262.0)",1.1166666666666667,0.377,1,8671.462,1,0.04,0.1
0,697,target,"[(1068, 786)]",[],[1],[0.75],horizontal,"(390.0, 762.0)",1.0,0.704,1,8676.126,2,0.04,0.1
0,698,target,"[(1065, 782)]",[],[1],[0.23333333333333334],vertical,"(390.0, 762.0)",1.4833333333333334,0.196,0,8681.412,0,0.04,0.1
0,699,target,"[(1025, 779)]",[],[1],[0.5333333333333333],vertical,"(890.0, 262.0)",1.0666666666666667,0.49,1,8686.077,1,0.04,0.1
0,700,target,"[(1044, 790)]",[],[1],[0.43333333333333335],vertical,"(890.0, 262.0)",1.35,0.389,1,8690.794,1,0.04,0.1
0,701,target,"[(1049, 768)]",[],[1],[0.3833333333333333],horizontal,"(890.0, 762.0)",1.3666666666666667,0.341,1,8696.027,2,0.04,0.1
0,702,target,"[(1055, 765)]",[],[1],[0.6166666666666667],horizontal,"(390.0, 262.0)",0.8166666666666667,0.572,1,8701.794,2,0.04,0.1
0,703,target,"[(1041, 766)]",[],[1],[0.85],horizontal,"(390.0, 762.0)",0.5833333333333334,nan,0,8706.961,0,0.04,0.1
0,704,target,"[(1025, 791)]",[],[1],[0.4166666666666667],vertical,"(890.0, 262.0)",1.3833333333333333,0.385,1,8711.11,1,0.04,0.1
0,705,target,"[(1057, 765)]",[],[1],[0.25],horizontal,"(890.0, 762.0)",1.5,0.219,1,8716.101,1,0.04,0.1
0,706,target,"[(1057, 764)]",[],[1],[0.5],vertical,"(890.0, 762.0)",1.3166666666666667,0.46,1,8721.338,2,0.04,0.1
0,707,target,"[(1036, 769)]",[],[1],[0.31666666666666665],vertical,"(390.0, 762.0)",1.55,0.279,1,8726.837,2,0.04,0.1
0,708,target,"[(1054, 771)]",[],[1],[0.5333333333333333],horizontal,"(890.0, 762.0)",0.7166666666666667,0.49,1,8732.427,2,0.04,0.1
0,709,target,"[(1057, 776)]",[],[1],[0.5333333333333333],horizontal,"(390.0, 262.0)",0.5833333333333334,0.489,1,8737.627,2,0.04,0.1
0,710,target,"[(1029, 761)]",[],[1],[0.6333333333333333],vertical,"(390.0, 762.0)",0.7833333333333333,0.584,1,8742.226,3,0.04,0.1
0,711,target,"[(1029, 756)]",[],[1],[0.55],vertical,"(890.0, 262.0)",0.6,0.509,1,8747.694,3,0.04,0.1
0,712,target,"[(1034, 762)]",[],[1],[0.36666666666666664],vertical,"(890.0, 262.0)",1.5,0.33,1,8752.811,3,0.04,0.1
0,713,target,"[(1058, 786)]",[],[1],[0.5],horizontal,"(890.0, 262.0)",1.0333333333333332,0.46,1,8758.785,3,0.04,0.1
0,714,target,"[(1064, 798)]",[],[1],[0.65],horizontal,"(390.0, 762.0)",0.6666666666666666,0.603,1,8764.177,3,0.04,0.1
0,715,target,"[(1036, 766)]",[],[1],[0.8],vertical,"(390.0, 762.0)",0.9833333333333333,0.753,1,8770.08,3,0.04,0.1
0,716,target,"[(1037, 766)]",[],[1],[0.5166666666666666],horizontal,"(890.0, 262.0)",0.75,0.472,1,8775.895,3,0.04,0.1
0,717,target,"[(1054, 765)]",[],[1],[0.4666666666666667],vertical,"(390.0, 762.0)",1.2833333333333332,0.423,1,8781.594,3,0.04,0.1
0,718,target,"[(1049, 759)]",[],[1],[0.85],vertical,"(890.0, 262.0)",1.15,nan,0,8787.707,0,0.04,0.1
0,719,target,"[(1030, 817)]",[],[1],[0.5333333333333333],horizontal,"(890.0, 262.0)",0.6666666666666666,0.495,1,8792.372,1,0.04,0.1
0,720,target,"[(1040, 738), (1018, 805)]",[],"[0, 1]",[0.85],horizontal,"(890.0, 762.0)",0.7833333333333333,nan,0,8797.289,0,0.04,0.1
0,721,target,"[(1033, 790)]",[],[1],[0.48333333333333334],horizontal,"(390.0, 262.0)",1.2833333333333332,0.441,1,8803.527,1,0.04,0.1
0,722,target,"[(1060, 765)]",[],[1],[0.5666666666666667],horizontal,"(390.0, 762.0)",0.5833333333333334,0.522,1,8808.441,1,0.04,0.1
0,723,target,"[(1058, 766)]",[],[1],[0.5166666666666666],horizontal,"(890.0, 262.0)",0.55,0.477,1,8812.955,2,0.04,0.1
0,724,catch,"[(1069, 769)]",[],[1],[],vertical,"(890.0, 262.0)",1.6,nan,1,8817.494,2,0.04,0.1
0,725,target,"[(1059, 767)]",[],[1],[0.5833333333333334],horizontal,"(890.0, 762.0)",0.75,0.54,1,8822.513,2,0.04,0.1
0,726,catch,"[(1060, 790)]",[],[1],[],vertical,"(890.0, 262.0)",1.6,nan,1,8827.595,2,0.04,0.1
0,727,target,"[(1040, 768)]",[],[1],[],vertical,"(390.0, 262.0)",,"('cti', 1.536)",0,8832.759,0,0.06,0.1
0,728,target,"[(1037, 799)]",[],[1],[0.85],vertical,"(890.0, 762.0)",0.5,nan,0,8837.235,0,0.06,0.1
0,729,target,"[(1036, 797)]",[],[1],[0.4166666666666667],vertical,"(890.0, 262.0)",1.4166666666666667,0.378,1,8841.744,1,0.06,0.1
0,730,target,"[(1060, 761)]",[],[1],[0.6166666666666667],horizontal,"(390.0, 762.0)",0.6,0.571,1,8846.45,1,0.06,0.1
0,731,catch,"[(1063, 781)]",[],[1],[],horizontal,"(390.0, 262.0)",1.6,nan,1,8851.079,2,0.06,0.1
0,732,target,"[(1055, 778)]",[],[1],[0.6166666666666667],vertical,"(390.0, 762.0)",1.0166666666666666,0.579,1,8856.673,2,0.06,0.1
0,733,target,"[(1057, 771)]",[],[1],[0.35],horizontal,"(390.0, 762.0)",1.4333333333333333,0.312,1,8862.211,2,0.04,0.1
0,734,target,"[(1033, 772)]",[],[1],[0.48333333333333334],horizontal,"(390.0, 762.0)",1.4,0.442,1,8867.231,2,0.04,0.1
0,735,target,"[(1038, 768)]",[],[1],[0.6333333333333333],vertical,"(390.0, 262.0)",0.65,0.592,1,8872.701,3,0.04,0.1
0,736,target,"[(1037, 777)]",[],[1],[0.6166666666666667],vertical,"(890.0, 262.0)",0.8,0.571,1,8878.37,3,0.04,0.1
0,737,catch,"[(1034, 766)]",[],[1],[],horizontal,"(390.0, 762.0)",1.6,nan,1,8883.685,3,0.04,0.1
0,738,target,"[(1057, 770)]",[],[1],[0.4],vertical,"(890.0, 762.0)",1.4,0.361,1,8889.511,3,0.04,0.1
0,739,target,"[(1029, 766)]",[],[1],[0.5166666666666666],horizontal,"(890.0, 262.0)",1.4,0.476,1,8895.554,3,0.02,0.1
0,740,target,"[(1063, 766)]",[],[1],[0.48333333333333334],horizontal,"(890.0, 262.0)",1.5333333333333332,0.437,1,8901.376,3,0.02,0.1
0,741,target,"[(1062, 768)]",[],[1],[0.6],horizontal,"(890.0, 762.0)",1.3,0.555,1,8907.381,3,0.02,0.1
0,742,target,"[(1033, 763)]",[],[1],[0.6166666666666667],vertical,"(890.0, 762.0)",0.5833333333333334,0.577,1,8913.012,3,0.02,0.1
0,743,target,"[(1053, 765)]",[],[1],[0.5],horizontal,"(890.0, 262.0)",1.1,0.46,1,8918.059,3,0.02,0.1
0,744,target,"[(1049, 770)]",[],[1],[0.5166666666666666],vertical,"(890.0, 262.0)",0.75,0.472,1,8923.761,3,0.02,0.1
0,745,target,"[(1041, 781)]",[],[1],[0.65],vertical,"(390.0, 262.0)",1.2333333333333334,0.606,1,8929.311,3,0.02,0.1
0,746,target,"[(1052, 766)]",[],[1],[0.5],vertical,"(890.0, 762.0)",0.9166666666666666,0.457,1,8935.12,3,0.02,0.1
0,747,target,"[(1038, 765)]",[],[1],[0.45],horizontal,"(390.0, 262.0)",0.8333333333333334,0.411,1,8940.153,3,0.02,0.1
0,748,target,"[(1058, 782)]",[],[1],[0.31666666666666665],horizontal,"(890.0, 262.0)",1.4833333333333334,0.277,1,8945.883,3,0.02,0.1
0,749,target,"[(1033, 772)]",[],[1],[0.5166666666666666],vertical,"(890.0, 262.0)",1.2,0.48,1,8951.398,3,0.02,0.1
0,750,catch,"[(1034, 753), (1021, 786)]",[],"[0, 1]",[],horizontal,"(890.0, 262.0)",1.6,nan,1,8956.964,3,0.02,0.1
0,751,target,"[(1045, 780)]",[],[1],[],horizontal,"(890.0, 262.0)",,"('cti', 1.346)",0,8963.779,0,0.04,0.1
0,752,target,"[(1040, 807)]",[],[1],[0.8333333333333334],horizontal,"(390.0, 262.0)",0.7,0.783,1,8968.344,1,0.04,0.1
0,753,catch,"[(1036, 772)]",[],[1],[],vertical,"(890.0, 262.0)",1.6,nan,1,8973.497,1,0.04,0.1
0,754,target,"[(1038, 766)]",[],[1],[0.48333333333333334],vertical,"(390.0, 762.0)",1.2333333333333334,0.445,1,8978.461,2,0.04,0.1
0,755,target,"[(1063, 778)]",[],[1],[0.23333333333333334],horizontal,"(390.0, 262.0)",1.5666666666666667,0.198,0,8983.683,0,0.04,0.1
0,756,target,"[(1033, 788)]",[],[1],[0.3],horizontal,"(390.0, 762.0)",1.4166666666666667,0.264,1,8988.478,1,0.04,0.1
0,757,catch,"[(1045, 757)]",[],[1],[],vertical,"(390.0, 762.0)",1.6,nan,1,8993.631,1,0.04,0.1
0,758,target,"[(1065, 770)]",[],[1],[0.4666666666666667],vertical,"(890.0, 262.0)",1.35,0.429,1,8998.562,2,0.04,0.1
0,759,target,"[(1065, 768)]",[],[1],[0.55],vertical,"(890.0, 262.0)",0.6666666666666666,0.506,1,9003.899,2,0.04,0.1
0,760,target,"[(1064, 783)]",[],[1],[0.5166666666666666],vertical,"(890.0, 262.0)",0.75,0.479,1,9008.445,2,0.04,0.1
0,761,target,"[(1065, 762)]",[],[1],[0.65],vertical,"(390.0, 762.0)",0.6833333333333333,0.611,1,9013.328,2,0.04,0.1
0,762,target,"[(1065, 763)]",[],[1],[0.11666666666666667],vertical,"(890.0, 762.0)",1.5666666666666667,0.083,0,9018.739,0,0.04,0.1
0,763,target,"[(1049, 790)]",[],[1],[0.7333333333333333],vertical,"(890.0, 762.0)",1.1666666666666667,0.689,1,9023.597,1,0.04,0.1
0,764,target,"[(1052, 748), (1035, 804)]",[],"[0, 1]",[0.3333333333333333],vertical,"(890.0, 762.0)",1.4333333333333333,0.298,1,9028.978,1,0.04,0.1
0,765,target,"[(1060, 775)]",[],[1],[0.6333333333333333],horizontal,"(890.0, 262.0)",0.8,0.585,1,9035.346,2,0.04,0.1
0,766,target,"[(1065, 786)]","[(1004, 859)]",[1],[0.6833333333333333],horizontal,"(890.0, 762.0)",,"('bar', 0.684)",0,9040.044,0,0.04,0.1
0,767,target,"[(1042, 830)]",[],[1],[0.6833333333333333],horizontal,"(890.0, 262.0)",1.0333333333333332,0.642,1,9042.945,1,0.04,0.1
0,768,catch,"[(1033, 783)]",[],[1],[],vertical,"(390.0, 262.0)",1.6,nan,1,9048.179,1,0.04,0.1
0,769,target,"[(1037, 805)]",[],[1],[0.6166666666666667],horizontal,"(390.0, 762.0)",0.5,0.568,1,9052.845,2,0.04,0.1
0,770,catch,"[(1054, 801)]",[],[1],[],vertical,"(890.0, 762.0)",1.6,nan,1,9057.811,2,0.04,0.1
0,771,target,"[(1037, 776)]",[],[1],[0.6166666666666667],horizontal,"(890.0, 262.0)",1.3666666666666667,0.571,1,9063.294,2,0.04,0.1
0,772,target,"[(1034, 777)]",[],[1],[0.6333333333333333],horizontal,"(890.0, 262.0)",1.25,0.592,1,9068.696,2,0.04,0.1
0,773,target,"[(1055, 774)]",[],[1],[0.6666666666666666],horizontal,"(390.0, 262.0)",1.1833333333333333,0.625,1,9074.26,3,0.04,0.1
0,774,target,"[(1034, 765)]",[],[1],[0.5666666666666667],horizontal,"(890.0, 262.0)",1.15,0.526,1,9079.929,3,0.04,0.1
0,775,target,"[(1041, 769)]",[],[1],[0.7],vertical,"(390.0, 762.0)",0.8166666666666667,0.654,1,9085.71,3,0.04,0.1
0,776,target,"[(1051, 779)]",[],[1],[0.6666666666666666],horizontal,"(890.0, 762.0)",1.1666666666666667,0.625,1,9091.145,3,0.04,0.1
0,777,target,"[(1057, 765)]",[],[1],[0.65],horizontal,"(890.0, 762.0)",0.7,0.609,1,9097.155,3,0.02,0.1
0,778,target,"[(1036, 761)]",[],[1],[0.55],horizontal,"(890.0, 262.0)",0.6333333333333333,0.509,1,9102.811,3,0.02,0.1
0,779,target,"[(1051, 751), (1033, 813)]",[],"[0, 1]",[0.7333333333333333],vertical,"(390.0, 762.0)",0.5166666666666666,0.692,1,9108.046,3,0.02,0.1
0,780,target,"[(1049, 752), (1033, 823)]",[],"[0, 1]",[0.6333333333333333],horizontal,"(890.0, 262.0)",0.55,0.587,1,9114.655,3,0.02,0.1
0,781,target,"[(1037, 778)]",[],[1],[0.36666666666666664],horizontal,"(890.0, 762.0)",1.4166666666666667,0.327,1,9120.45,3,0.02,0.1
0,782,target,"[(1045, 769)]",[],[1],[0.6166666666666667],horizontal,"(390.0, 262.0)",1.2333333333333334,0.575,1,9126.347,3,0.02,0.1
0,783,target,"[(1057, 772)]",[],[1],[0.36666666666666664],horizontal,"(390.0, 262.0)",1.4166666666666667,0.328,1,9132.079,3,0.02,0.1
0,784,target,"[(1058, 781)]",[],[1],[0.2],vertical,"(390.0, 762.0)",1.55,0.168,0,9137.935,0,0.02,0.1
0,785,target,"[(1028, 792)]",[],[1],[0.6],vertical,"(390.0, 262.0)",1.1833333333333333,0.553,1,9142.845,1,0.02,0.1
0,786,target,"[(1041, 761)]",[],[1],[0.4666666666666667],vertical,"(890.0, 762.0)",1.1666666666666667,0.435,1,9147.679,1,0.02,0.1
0,787,target,"[(1038, 775)]",[],[1],[0.31666666666666665],vertical,"(390.0, 762.0)",1.4166666666666667,0.285,1,9152.579,2,0.02,0.1
0,788,target,"[(1033, 778)]",[],[1],[0.31666666666666665],vertical,"(390.0, 262.0)",1.4333333333333333,0.279,1,9158.23,2,0.02,0.1
0,789,target,"[(1060, 785)]",[],[1],[0.6833333333333333],horizontal,"(890.0, 762.0)",1.05,0.634,1,9163.521,2,0.02,0.1
0,790,target,"[(1038, 766)]",[],[1],[0.6333333333333333],horizontal,"(390.0, 762.0)",1.0,0.59,1,9169.179,2,0.02,0.1
0,791,catch,"[(1057, 784)]",[],[1],[],vertical,"(890.0, 762.0)",1.6,nan,1,9174.53,3,0.02,0.1
0,792,target,"[(1033, 787)]",[],[1],[0.5166666666666666],horizontal,"(890.0, 262.0)",1.0,0.472,1,9179.888,3,0.02,0.1
0,793,target,"[(1033, 769)]",[],[1],[0.48333333333333334],horizontal,"(890.0, 762.0)",1.2833333333333332,0.449,1,9185.447,3,0.02,0.1
0,794,target,"[(1052, 766)]",[],[1],[0.7166666666666667],vertical,"(390.0, 762.0)",1.0833333333333333,0.678,1,9191.28,3,0.02,0.1
0,795,target,"[(1033, 783)]",[],[1],[0.85],vertical,"(390.0, 762.0)",0.6666666666666666,nan,0,9197.005,0,0.02,0.1
0,796,target,"[(1021, 782)]",[],[1],[0.85],vertical,"(390.0, 762.0)",0.5,nan,0,9201.794,0,0.02,0.1
0,797,target,"[(1037, 806)]",[],[1],[0.6333333333333333],horizontal,"(390.0, 762.0)",1.0833333333333333,0.592,1,9205.873,1,0.02,0.1
0,798,target,"[(1033, 766)]",[],[1],[0.5],vertical,"(890.0, 262.0)",1.2333333333333334,0.461,1,9210.852,1,0.02,0.1
0,799,target,"[(1037, 755)]",[],[1],[0.6333333333333333],vertical,"(890.0, 762.0)",1.0666666666666667,0.601,1,9215.998,2,0.02,0.1
0,800,target,"[(1058, 786)]",[],[1],[0.5333333333333333],horizontal,"(390.0, 262.0)",0.9166666666666666,0.497,1,9221.262,2,0.02,0.1
0,801,target,"[(1036, 768)]",[],[1],[0.7],horizontal,"(390.0, 762.0)",0.9833333333333333,0.663,1,9226.508,2,0.0,0.1
0,802,target,"[(1034, 773)]",[],[1],[0.5333333333333333],vertical,"(390.0, 262.0)",0.75,0.491,1,9231.695,2,0.0,0.1
0,803,target,"[(1037, 774)]",[],[1],[0.23333333333333334],vertical,"(390.0, 262.0)",1.4333333333333333,0.199,0,9236.961,0,0.0,0.1
0,804,target,"[(1038, 791)]",[],[1],[0.5833333333333334],vertical,"(890.0, 262.0)",0.75,0.54,1,9241.796,1,0.0,0.1
0,805,target,"[(1052, 768)]",[],[1],[0.6333333333333333],horizontal,"(890.0, 762.0)",0.9,0.599,1,9246.42,1,0.0,0.1
0,806,target,"[(1057, 781)]",[],[1],[0.6333333333333333],horizontal,"(890.0, 262.0)",0.5833333333333334,0.605,1,9251.31,2,0.0,0.1
0,807,target,"[(1042, 771)]",[],[1],[0.5666666666666667],vertical,"(890.0, 262.0)",0.9833333333333333,0.528,1,9256.346,2,0.0,0.1
0,808,target,"[(1035, 791)]",[],[1],[0.5666666666666667],horizontal,"(890.0, 262.0)",0.8666666666666667,0.533,1,9261.795,2,0.0,0.1
0,809,target,"[(1040, 781)]",[],[1],[0.48333333333333334],horizontal,"(390.0, 762.0)",1.45,0.451,1,9266.979,2,0.0,0.1
0,810,target,"[(1034, 794)]",[],[1],[0.21666666666666667],horizontal,"(890.0, 762.0)",1.55,0.182,0,9272.746,0,0.0,0.1
0,811,target,"[(1035, 799)]",[],[1],[0.6666666666666666],horizontal,"(390.0, 762.0)",0.5666666666666667,0.624,1,9277.895,1,0.0,0.1
0,812,catch,"[(1037, 778)]",[],[1],[],horizontal,"(890.0, 262.0)",,"('cti', 1.509),nan",0,9282.187,0,0.02,0.1
0,813,target,"[(1033, 792)]",[],[1],[0.55],vertical,"(890.0, 262.0)",0.7166666666666667,0.51,1,9287.139,1,0.02,0.1
0,814,target,"[(1060, 783)]",[],[1],[0.85],vertical,"(390.0, 262.0)",0.55,nan,0,9291.963,0,0.02,0.1
0,815,target,"[(1018, 782)]",[],[1],[0.3],vertical,"(390.0, 762.0)",0.85,0.262,1,9296.427,1,0.02,0.1
0,816,target,"[(1037, 767)]",[],[1],[0.26666666666666666],vertical,"(890.0, 262.0)",1.55,0.227,1,9300.712,1,0.02,0.1
0,817,target,"[(1037, 771)]",[],[1],[0.43333333333333335],vertical,"(390.0, 762.0)",1.3333333333333333,0.393,1,9305.639,2,0.02,0.1
0,818,target,"[(1055, 786)]",[],[1],[0.65],horizontal,"(890.0, 762.0)",1.15,0.609,1,9311.322,2,0.02,0.1
0,819,target,"[(1045, 782)]",[],[1],[0.6833333333333333],vertical,"(390.0, 262.0)",1.15,0.641,1,9316.65,2,0.02,0.1
0,820,target,"[(1056, 788)]",[],[1],[0.3],horizontal,"(890.0, 262.0)",1.25,0.264,1,9322.174,2,0.02,0.1
0,821,target,"[(1052, 787)]",[],[1],[0.6666666666666666],vertical,"(890.0, 762.0)",1.05,0.625,1,9327.518,3,0.02,0.1
0,822,target,"[(1052, 781)]",[],[1],[0.25],horizontal,"(890.0, 762.0)",1.5333333333333332,0.214,1,9333.746,3,0.02,0.1
0,823,target,"[(1042, 769)]",[],[1],[0.85],horizontal,"(390.0, 762.0)",0.5,nan,0,9339.447,0,0.02,0.1
0,824,target,"[(1025, 790)]",[],[1],[0.5666666666666667],horizontal,"(890.0, 262.0)",0.6,0.527,1,9344.064,1,0.02,0.1
0,825,target,"[(1057, 786)]",[],[1],[0.6833333333333333],horizontal,"(390.0, 762.0)",0.7333333333333333,0.636,1,9348.746,1,0.02,0.1
0,826,target,"[(1047, 776)]",[],[1],[0.5],vertical,"(390.0, 262.0)",0.6833333333333333,0.462,1,9353.473,2,0.02,0.1
0,827,target,"[(1037, 759)]",[],[1],[0.6],horizontal,"(390.0, 262.0)",1.1666666666666667,0.564,1,9358.23,2,0.02,0.1
0,828,target,"[(1047, 781)]",[],[1],[0.48333333333333334],vertical,"(890.0, 762.0)",1.4166666666666667,0.448,1,9363.989,2,0.02,0.1
0,829,target,"[(1052, 781)]",[],[1],[0.3],vertical,"(390.0, 262.0)",1.4333333333333333,0.259,1,9369.28,2,0.02,0.1
0,830,target,"[(1043, 781)]",[],[1],[0.5833333333333334],vertical,"(390.0, 262.0)",0.5666666666666667,0.545,1,9374.527,3,0.02,0.1
0,831,target,"[(1043, 761)]",[],[1],[0.65],vertical,"(390.0, 262.0)",1.0,0.605,1,9379.891,3,0.02,0.1
0,832,target,"[(1036, 752), (1030, 795)]",[],"[0, 1]",[0.5833333333333334],horizontal,"(390.0, 262.0)",0.85,0.544,1,9385.503,3,0.02,0.1
0,833,target,"[(1053, 766)]",[],[1],[0.85],horizontal,"(390.0, 762.0)",1.5666666666666667,"('cti', 1.568),nan",0,9392.081,0,0.04,0.1
0,834,target,"[(1017, 756)]",[],[1],[0.2],horizontal,"(390.0, 762.0)",1.3666666666666667,0.168,0,9397.814,0,0.04,0.1
0,835,target,"[(1024, 791)]",[],[1],[0.4666666666666667],horizontal,"(890.0, 262.0)",1.2833333333333332,0.428,1,9402.658,1,0.04,0.1
0,836,target,"[(1056, 774)]",[],[1],[0.85],vertical,"(390.0, 762.0)",0.5166666666666666,nan,0,9407.829,0,0.04,0.1
0,837,target,"[(1034, 797)]",[],[1],[0.6666666666666666],vertical,"(390.0, 762.0)",0.65,0.625,1,9411.996,1,0.04,0.1
0,838,target,"[(1035, 762)]",[],[1],[0.5333333333333333],vertical,"(890.0, 762.0)",0.85,0.501,1,9416.673,1,0.04,0.1
0,839,target,"[(1038, 766)]",[],[1],[0.2],vertical,"(390.0, 262.0)",1.0666666666666667,0.169,0,9421.196,0,0.04,0.1
0,840,target,"[(1021, 803)]",[],[1],[0.6333333333333333],horizontal,"(890.0, 762.0)",0.5833333333333334,0.589,1,9425.853,1,0.04,0.1
0,841,target,"[(1017, 772)]",[],[1],[0.48333333333333334],vertical,"(890.0, 262.0)",1.15,0.444,1,9431.363,1,0.04,0.1
0,842,target,"[(1035, 764)]",[],[1],[0.3333333333333333],horizontal,"(390.0, 262.0)",1.4333333333333333,0.294,1,9436.663,2,0.04,0.1
0,843,target,"[(1033, 781)]",[],[1],[0.7166666666666667],vertical,"(890.0, 262.0)",0.5666666666666667,0.679,1,9442.063,2,0.04,0.1
0,844,target,"[(1021, 769)]",[],[1],[0.3333333333333333],vertical,"(890.0, 262.0)",1.4833333333333334,0.299,1,9446.923,2,0.04,0.1
0,845,target,"[(1033, 753), (1005, 798)]",[],"[0, 1]",[0.3833333333333333],horizontal,"(390.0, 262.0)",1.2666666666666666,0.343,1,9452.584,2,0.04,0.1
0,846,target,"[(1037, 756)]",[],[1],[0.55],vertical,"(390.0, 262.0)",0.7,0.51,1,9460.02,3,0.04,0.1
0,847,target,"[(1057, 795)]",[],[1],[0.6166666666666667],vertical,"(890.0, 262.0)",0.7666666666666666,0.579,1,9465.53,3,0.04,0.1
0,848,target,"[(1040, 787)]",[],[1],[0.5666666666666667],vertical,"(890.0, 762.0)",1.0166666666666666,0.526,1,9470.79,3,0.04,0.1
0,849,target,"[(1038, 789)]",[],[1],[0.7666666666666666],horizontal,"(890.0, 262.0)",0.8666666666666667,0.724,1,9476.661,3,0.04,0.1
0,850,catch,"[(1057, 770)]",[],[1],[],horizontal,"(890.0, 262.0)",1.6,nan,1,9482.294,3,0.04,0.1
0,851,catch,"[(1051, 761)]",[],[1],[],horizontal,"(390.0, 262.0)",1.6,nan,1,9487.679,3,0.04,0.1
0,852,target,"[(1051, 767)]",[],[1],[0.45],vertical,"(390.0, 262.0)",1.2333333333333334,0.408,1,9492.963,3,0.04,0.1
0,853,target,"[(1041, 772)]",[],[1],[0.5666666666666667],vertical,"(390.0, 762.0)",0.6166666666666667,0.527,1,9499.129,3,0.04,0.1
0,854,target,"[(1050, 773)]",[],[1],[0.48333333333333334],horizontal,"(890.0, 262.0)",1.1333333333333333,0.446,1,9504.463,3,0.04,0.1
0,855,target,"[(1029, 773)]",[],[1],[0.4],horizontal,"(390.0, 762.0)",0.9833333333333333,0.363,1,9510.215,3,0.04,0.1
