block,trial,trial_type,taps_start_loc_during_fix,taps_end_loc_during_fix,taps_on_lever_during_fix,taps_on_lever_s_during_fix,bar_orientation,target_xy,cti,rt,acc,time,pulses,fa_rate_recent100,actual_invalid_type
0,1,valid,"[(1121, 753), (1227, 796), (1224, 822)]",[],"[0, 0, 1]",[],horizontal,"(890.0, 262.0)",,"('fix', 0.051)",0,0.558,0,0.0,same
0,2,valid,"[(1121, 879)]",[],[1],[0.43333333333333335],horizontal,"(390.0, 262.0)",1.45,0.407,1,11.033,1,0.0,same
0,3,valid,"[(1096, 830)]",[],[1],[0.23333333333333334],horizontal,"(890.0, 262.0)",1.0166666666666666,0.198,0,16.705,0,0.0,same
0,4,catch,"[(1157, 795)]",[],[1],[],horizontal,"(390.0, 762.0)",1.7,nan,1,431.124,1,0.0,same
0,5,valid,"[(1149, 813)]",[],[1],[0.6666666666666666],horizontal,"(390.0, 262.0)",0.4166666666666667,0.63,1,436.139,1,0.0,same
0,6,valid,"[(1136, 768)]",[],[1],[0.5166666666666666],vertical,"(390.0, 262.0)",1.0333333333333332,0.47,1,440.889,1,0.0,same
0,7,valid,"[(1158, 806)]",[],[1],[0.5333333333333333],vertical,"(390.0, 262.0)",0.7333333333333333,0.491,1,445.806,2,0.0,same
0,8,catch,"[(1183, 811)]",[],[1],[],horizontal,"(390.0, 262.0)",1.7,nan,1,451.375,2,0.0,same
0,9,valid,"[(1178, 802)]",[],[1],[0.5833333333333334],vertical,"(890.0, 762.0)",0.3833333333333333,0.535,1,457.225,2,0.0,same
0,10,invalid_same_bar,"[(1162, 811)]",[],[1],[0.5333333333333333],vertical,"(390.0, 762.0)",1.3833333333333333,0.496,1,461.981,3,0.0,same
0,11,catch,"[(1180, 792)]",[],[1],[],horizontal,"(890.0, 762.0)",1.7,nan,1,468.103,3,0.0,same
0,12,valid,"[(1184, 792)]",[],[1],[0.85],vertical,"(890.0, 262.0)",0.8166666666666667,nan,0,474.059,0,0.0,same
0,13,invalid_same_bar,"[(1140, 787)]",[],[1],[0.4666666666666667],vertical,"(890.0, 262.0)",1.2833333333333332,0.426,1,478.965,1,0.0,same
0,14,catch,"[(1181, 810)]",[],[1],[],horizontal,"(390.0, 262.0)",1.7,nan,1,483.757,1,0.0,same
0,15,valid,"[(1199, 783)]",[],[1],[0.6],vertical,"(390.0, 762.0)",1.0,0.556,1,488.692,1,0.0,same
0,16,valid,"[(1180, 804)]",[],[1],[0.6],vertical,"(390.0, 762.0)",0.8833333333333333,0.562,1,493.612,2,0.0,same
0,17,valid,"[(1160, 776)]",[],[1],[0.6],vertical,"(890.0, 262.0)",0.5666666666666667,0.552,1,499.057,2,0.0,same
0,18,valid,"[(1186, 798)]",[],[1],[0.5166666666666666],horizontal,"(890.0, 762.0)",1.4,0.47,1,504.667,2,0.0,same
0,19,valid,"[(1163, 781)]",[],[1],[0.7333333333333333],horizontal,"(390.0, 762.0)",1.0166666666666666,0.683,1,510.697,3,0.0,same
0,20,catch,"[(1191, 780)]",[],[1],[],horizontal,"(890.0, 762.0)",1.7,nan,1,516.935,3,0.0,same
0,21,valid,"[(1189, 777)]",[],[1],[0.6833333333333333],horizontal,"(390.0, 762.0)",0.5833333333333334,0.642,1,523.011,3,0.0,same
0,22,valid,"[(1200, 807)]",[],[1],[0.85],vertical,"(890.0, 762.0)",0.6166666666666667,nan,0,528.324,0,0.0,same
0,23,valid,"[(1164, 779)]",[],[1],[0.5666666666666667],horizontal,"(390.0, 762.0)",0.7833333333333333,0.522,1,532.642,1,0.0,same
0,24,valid,"[(1160, 789)]",[],[1],[0.85],horizontal,"(890.0, 762.0)",0.6333333333333333,nan,0,537.392,0,0.0,same
0,25,valid,"[(1155, 782)]",[],[1],[0.5],horizontal,"(890.0, 762.0)",0.5833333333333334,0.463,1,542.04,1,0.0,same
0,26,valid,"[(1194, 782)]",[],[1],[0.4666666666666667],horizontal,"(390.0, 762.0)",0.5,0.429,1,546.321,1,0.0,same
0,27,valid,"[(1192, 791)]",[],[1],[0.4666666666666667],vertical,"(890.0, 262.0)",0.7666666666666666,0.427,1,550.806,1,0.0,same
0,28,valid,"[(1214, 782)]",[],[1],[0.5],vertical,"(890.0, 262.0)",0.8166666666666667,0.46,1,555.924,2,0.0,same
0,29,valid,"[(1155, 792)]",[],[1],[0.6333333333333333],vertical,"(890.0, 262.0)",1.0,0.587,1,561.691,2,0.0,same
0,30,catch,"[(1159, 780)]",[],[1],[],vertical,"(890.0, 262.0)",1.7,nan,1,567.674,2,0.0,same
0,31,catch,"[(1157, 778)]",[],[1],[],horizontal,"(890.0, 262.0)",1.7,nan,1,573.657,3,0.0,same
0,32,valid,"[(1165, 768)]",[],[1],[0.45],vertical,"(890.0, 762.0)",1.4666666666666666,0.415,1,580.058,3,0.0,same
0,33,catch,"[(1162, 772)]",[],[1],[],horizontal,"(890.0, 762.0)",1.7,nan,1,586.324,3,0.0,same
0,34,invalid_same_bar,"[(1190, 792)]",[],[1],[0.6166666666666667],horizontal,"(390.0, 762.0)",0.8333333333333334,0.573,1,592.258,3,0.0,same
0,35,catch,"[(1160, 762)]",[],[1],[],vertical,"(390.0, 762.0)",1.7,nan,1,598.203,3,0.0,same
0,36,catch,"[(1180, 767)]",[],[1],[],vertical,"(390.0, 262.0)",1.7,nan,1,603.957,3,0.0,same
0,37,catch,"[(1183, 785)]",[],[1],[],vertical,"(390.0, 262.0)",1.7,nan,1,609.858,3,0.0,same
0,38,valid,"[(1183, 773)]",[],[1],[0.48333333333333334],vertical,"(390.0, 762.0)",1.4833333333333334,0.445,1,615.738,3,0.0,same
0,39,valid,"[(1190, 796)]",[],[1],[0.55],horizontal,"(390.0, 262.0)",1.1833333333333333,0.517,1,621.792,3,0.0,same
0,40,valid,"[(1185, 792)]",[],[1],[0.43333333333333335],vertical,"(890.0, 762.0)",1.0333333333333332,0.395,1,627.315,3,0.0,same
0,41,catch,"[(1175, 773)]",[],[1],[],vertical,"(390.0, 762.0)",,"('cti', 1.555),nan",0,633.423,0,0.024390243902439025,same
0,42,catch,"[(1163, 766)]",[],[1],[],vertical,"(890.0, 762.0)",1.7,nan,1,637.857,1,0.023809523809523808,same
0,43,valid,"[(1200, 786)]",[],[1],[0.8333333333333334],horizontal,"(890.0, 762.0)",0.4666666666666667,0.782,1,643.358,1,0.023255813953488372,same
0,44,valid,"[(1180, 778)]",[],[1],[0.4666666666666667],horizontal,"(390.0, 762.0)",1.4833333333333334,0.431,1,648.34,1,0.022727272727272728,same
0,45,valid,"[(1170, 763)]",[],[1],[0.5333333333333333],vertical,"(390.0, 762.0)",0.9833333333333333,0.498,1,653.838,2,0.022222222222222223,same
0,46,valid,"[(1182, 773)]",[],[1],[0.65],horizontal,"(890.0, 262.0)",0.5,0.606,1,659.207,2,0.021739130434782608,same
0,47,valid,"[(1186, 789)]",[],[1],[0.85],vertical,"(390.0, 262.0)",0.7833333333333333,nan,0,664.285,0,0.02127659574468085,same
0,48,valid,"[(1150, 776)]",[],[1],[0.5],vertical,"(890.0, 262.0)",0.5666666666666667,0.465,1,669.171,1,0.020833333333333332,same
0,49,valid,"[(1169, 783)]",[],[1],[0.4666666666666667],horizontal,"(890.0, 262.0)",1.2,0.434,1,673.611,1,0.02040816326530612,same
0,50,catch,"[(1182, 787)]",[],[1],[],vertical,"(890.0, 762.0)",1.7,nan,1,678.727,1,0.02,same
0,51,valid,"[(1204, 798)]",[],[1],[0.45],vertical,"(890.0, 262.0)",1.2,0.411,1,684.042,2,0.02,same
0,52,valid,"[(1175, 768)]",[],[1],[0.65],vertical,"(390.0, 262.0)",1.3,0.601,1,689.592,2,0.02,same
0,53,valid,"[(1190, 782)]",[],[1],[0.5666666666666667],horizontal,"(390.0, 762.0)",0.6,0.524,1,695.095,2,0.02,same
0,54,valid,"[(1185, 783)]",[],[1],[0.5],horizontal,"(390.0, 262.0)",0.8333333333333334,0.459,1,700.491,3,0.02,same
0,55,catch,"[(1185, 785)]",[],[1],[],vertical,"(390.0, 762.0)",1.7,nan,1,706.259,3,0.02,same
0,56,valid,"[(1187, 783)]",[],[1],[0.5666666666666667],vertical,"(890.0, 262.0)",0.3833333333333333,0.526,1,712.071,3,0.02,same
0,57,valid,"[(1186, 781)]",[],[1],[0.55],vertical,"(390.0, 762.0)",0.9833333333333333,0.508,1,717.242,3,0.02,same
0,58,invalid_same_bar,"[(1204, 799)]",[],[1],[0.85],horizontal,"(890.0, 762.0)",0.7833333333333333,nan,0,722.931,0,0.02,same
0,59,catch,"[(1136, 782)]",[],[1],[],horizontal,"(890.0, 762.0)",1.7,nan,1,727.608,1,0.02,same
0,60,invalid_adjacent_other_bar,"[(1184, 811)]",[],[1],[0.85],horizontal,"(390.0, 262.0)",1.1166666666666667,nan,0,733.072,0,0.02,other
0,61,invalid_adjacent_other_bar,"[(1141, 788)]",[],[1],[0.45],vertical,"(890.0, 762.0)",1.15,0.412,1,738.144,1,0.02,other
0,62,invalid_same_bar,"[(1181, 795)]",[],[1],[0.5333333333333333],horizontal,"(390.0, 762.0)",1.3166666666666667,0.502,1,781.775,1,0.02,same
0,63,valid,"[(1195, 766)]",[],[1],[0.5],vertical,"(890.0, 262.0)",0.6333333333333333,0.461,1,786.83,1,0.02,same
0,64,valid,"[(1205, 786)]",[],[1],[0.5666666666666667],vertical,"(390.0, 262.0)",0.48333333333333334,0.53,1,791.426,2,0.02,same
0,65,catch,"[(1187, 763)]",[],[1],[],horizontal,"(890.0, 262.0)",1.7,nan,1,796.895,2,0.02,same
0,66,valid,"[(1195, 793)]",[],[1],[0.7166666666666667],vertical,"(890.0, 762.0)",0.8833333333333333,0.683,1,802.716,2,0.02,same
0,67,valid,"[(1183, 769)]",[],[1],[0.5666666666666667],horizontal,"(390.0, 762.0)",1.1833333333333333,0.525,1,808.209,3,0.02,same
0,68,valid,"[(1190, 793)]","[(1119, 830)]",[1],[0.6666666666666666],horizontal,"(890.0, 762.0)",,"('bar', 0.668)",0,814.418,0,0.02,same
0,69,valid,"[(1136, 778)]",[],[1],[0.4666666666666667],horizontal,"(890.0, 262.0)",0.9,0.427,1,817.042,1,0.02,same
0,70,valid,"[(1180, 780)]",[],[1],[0.85],horizontal,"(390.0, 262.0)",0.5833333333333334,nan,0,821.999,0,0.02,same
0,71,invalid_adjacent_other_bar,"[(1162, 782)]",[],[1],[0.65],vertical,"(390.0, 762.0)",0.9833333333333333,0.613,1,826.309,1,0.02,other
0,72,valid,"[(1185, 775)]",[],[1],[0.85],horizontal,"(890.0, 262.0)",0.4666666666666667,nan,0,831.65,0,0.02,same
0,73,catch,"[(1160, 777)]",[],[1],[],vertical,"(390.0, 262.0)",1.7,nan,1,836.018,1,0.02,same
0,74,catch,"[(1197, 788)]",[],[1],[],horizontal,"(390.0, 762.0)",1.7,nan,1,841.209,1,0.02,same
0,75,catch,"[(1180, 777)]",[],[1],[],vertical,"(890.0, 762.0)",,"('cti', 0.801),nan",0,846.18,0,0.04,same
0,76,valid,"[(1160, 771)]",[],[1],[0.5333333333333333],horizontal,"(390.0, 762.0)",0.8166666666666667,0.5,1,849.898,1,0.04,same
0,77,valid,"[(1195, 799)]",[],[1],[0.5333333333333333],horizontal,"(390.0, 762.0)",1.05,0.491,1,854.443,1,0.04,same
0,78,valid,"[(1167, 775)]",[],[1],[0.5166666666666666],vertical,"(890.0, 762.0)",1.0833333333333333,0.476,1,859.492,1,0.04,same
0,79,valid,"[(1170, 793)]",[],[1],[0.48333333333333334],horizontal,"(390.0, 262.0)",0.8,0.443,1,864.474,2,0.04,same
0,80,valid,"[(1200, 785)]",[],[1],[],horizontal,"(390.0, 762.0)",,"('cti', 0.803)",0,869.575,0,0.04,same
0,81,valid,"[(1139, 774)]",[],[1],[0.4166666666666667],horizontal,"(390.0, 262.0)",1.1166666666666667,0.378,1,873.174,1,0.04,same
0,82,invalid_same_bar,"[(1180, 772)]",[],[1],[0.5166666666666666],vertical,"(390.0, 762.0)",0.6666666666666666,0.476,1,878.382,1,0.04,same
0,83,catch,"[(1193, 794)]",[],[1],[],vertical,"(390.0, 762.0)",1.7,nan,1,882.659,1,0.04,same
0,84,valid,"[(1195, 770)]",[],[1],[0.6],horizontal,"(390.0, 262.0)",0.48333333333333334,0.559,1,887.876,2,0.04,same
0,85,valid,"[(1181, 787)]",[],[1],[0.55],horizontal,"(890.0, 762.0)",1.2,0.503,1,893.027,2,0.04,same
0,86,valid,"[(1200, 777)]",[],[1],[0.5333333333333333],horizontal,"(390.0, 762.0)",0.6,0.492,1,898.342,2,0.04,same
0,87,catch,"[(1165, 794)]",[],[1],[],horizontal,"(890.0, 762.0)",1.7,nan,1,903.508,3,0.04,same
0,88,catch,"[(1184, 778)]",[],[1],[],vertical,"(390.0, 762.0)",1.7,nan,1,909.676,3,0.04,same
0,89,valid,"[(1180, 782)]",[],[1],[0.6],vertical,"(390.0, 262.0)",0.9833333333333333,0.551,1,915.412,3,0.04,same
0,90,valid,"[(1185, 786)]",[],[1],[0.7166666666666667],horizontal,"(390.0, 262.0)",0.8,0.665,1,921.349,3,0.04,same
0,91,catch,"[(1160, 775)]",[],[1],[],vertical,"(390.0, 762.0)",1.7,nan,1,926.777,3,0.02,same
0,92,catch,"[(1169, 777)]",[],[1],[],horizontal,"(390.0, 762.0)",1.7,nan,1,932.802,3,0.02,same
0,93,valid,"[(1187, 775)]",[],[1],[0.55],vertical,"(390.0, 262.0)",0.9666666666666667,0.505,1,938.408,3,0.02,same
0,94,valid,"[(1165, 767)]",[],[1],[0.3333333333333333],vertical,"(890.0, 262.0)",1.45,0.296,1,944.225,3,0.02,same
0,95,invalid_adjacent_other_bar,"[(1202, 795)]",[],[1],[0.45],vertical,"(890.0, 262.0)",0.5666666666666667,0.408,1,950.38,3,0.02,other
0,96,valid,"[(1188, 799)]",[],[1],[0.6],horizontal,"(390.0, 762.0)",1.2166666666666666,0.56,1,955.813,3,0.02,same
0,97,catch,"[(1200, 772)]",[],[1],[],vertical,"(890.0, 262.0)",1.7,nan,1,961.342,3,0.02,same
0,98,catch,"[(1165, 799)]",[],[1],[],vertical,"(390.0, 762.0)",1.7,nan,1,967.458,3,0.02,same
0,99,valid,"[(1185, 774)]",[],[1],[0.6],horizontal,"(390.0, 262.0)",0.3833333333333333,0.557,1,973.657,3,0.02,same
0,100,valid,"[(1193, 777)]",[],[1],[0.5333333333333333],horizontal,"(390.0, 762.0)",1.3666666666666667,0.493,1,979.133,3,0.02,same
0,101,valid,"[(1165, 790)]",[],[1],[0.45],horizontal,"(890.0, 762.0)",1.2666666666666666,0.412,1,985.02,3,0.02,same
0,102,invalid_same_bar,"[(1188, 796)]",[],[1],[0.2],vertical,"(890.0, 262.0)",1.4166666666666667,0.167,0,991.693,0,0.02,same
0,103,catch,"[(1137, 780)]",[],[1],[],vertical,"(390.0, 262.0)",1.7,nan,1,996.366,1,0.02,same
0,104,catch,"[(1180, 781)]",[],[1],[],vertical,"(390.0, 762.0)",1.7,nan,1,1001.343,1,0.02,same
0,105,valid,"[(1128, 816)]",[],[1],[0.85],vertical,"(890.0, 762.0)",0.85,nan,0,1006.563,0,0.02,same
0,106,valid,"[(1135, 814)]",[],[1],[0.5],vertical,"(890.0, 762.0)",1.0666666666666667,0.462,1,1011.096,1,0.02,same
0,107,valid,"[(1195, 777)]",[],[1],[],horizontal,"(890.0, 262.0)",,"('cti', 0.066)",0,1018.675,0,0.02,same
0,108,valid,"[(1166, 764)]",[],[1],[0.55],vertical,"(890.0, 262.0)",1.2833333333333332,0.509,1,1021.843,1,0.02,same
0,109,valid,"[(1190, 781)]",[],[1],[0.45],vertical,"(890.0, 262.0)",1.2166666666666666,0.408,1,1026.874,1,0.02,same
0,110,invalid_adjacent_other_bar,"[(1166, 773)]",[],[1],[0.48333333333333334],vertical,"(890.0, 762.0)",1.0833333333333333,0.444,1,1032.076,1,0.02,other
0,111,invalid_same_bar,"[(1208, 788)]",[],[1],[],horizontal,"(390.0, 762.0)",,"('cti', 0.543)",0,1036.803,0,0.02,same
0,112,valid,"[(1158, 784)]",[],[1],[0.48333333333333334],vertical,"(890.0, 262.0)",1.0166666666666666,0.444,1,1040.659,1,0.02,same
0,113,catch,"[(1188, 773)]",[],[1],[],vertical,"(390.0, 262.0)",1.7,"('cti', 1.683),nan",0,1045.161,0,0.04,same
0,114,catch,"[(1178, 773)]",[],[1],[],vertical,"(890.0, 262.0)",1.7,nan,1,1050.034,1,0.04,same
0,115,valid,"[(1175, 793)]",[],[1],[0.4666666666666667],vertical,"(890.0, 762.0)",1.35,0.422,1,1055.134,1,0.04,same
0,116,catch,"[(1175, 783)]",[],[1],[0.03333333333333333],vertical,"(390.0, 762.0)",1.7,"0.019,nan",0,1060.691,0,0.06,same
0,117,valid,"[(1176, 777)]",[],[1],[0.5666666666666667],horizontal,"(390.0, 262.0)",0.95,0.525,1,1065.259,1,0.06,same
0,118,valid,"[(1203, 789)]",[],[1],[0.5166666666666666],horizontal,"(390.0, 762.0)",0.55,0.477,1,1069.892,1,0.06,same
0,119,catch,"[(1175, 808)]",[],[1],[],horizontal,"(390.0, 762.0)",1.7,nan,1,1074.558,1,0.06,same
0,120,valid,"[(1185, 785)]",[],[1],[0.5],vertical,"(390.0, 262.0)",0.85,0.458,1,1079.97,2,0.06,same
0,121,catch,"[(1178, 776)]",[],[1],[],horizontal,"(390.0, 262.0)",1.7,"('cti', 1.694),nan",0,1085.095,0,0.08,same
0,122,catch,"[(1160, 789)]",[],[1],[0.03333333333333333],horizontal,"(890.0, 762.0)",1.7,"0.02,nan",0,1090.024,0,0.1,same
0,123,invalid_same_bar,"[(1175, 783)]",[],[1],[0.85],horizontal,"(890.0, 762.0)",0.35,nan,0,1095.158,0,0.1,same
0,124,valid,"[(1141, 781)]",[],[1],[0.55],horizontal,"(890.0, 262.0)",1.1,0.508,1,1098.843,1,0.1,same
0,125,catch,"[(1209, 785)]",[],[1],[],horizontal,"(390.0, 262.0)",1.7,nan,1,1103.645,1,0.08,same
0,126,valid,"[(1181, 765)]",[],[1],[0.6166666666666667],vertical,"(890.0, 762.0)",1.3333333333333333,0.574,1,1108.576,1,0.08,same
0,127,catch,"[(1179, 772)]",[],[1],[],vertical,"(890.0, 762.0)",1.7,nan,1,1113.843,2,0.08,same
0,128,valid,"[(1190, 781)]",[],[1],[0.5666666666666667],horizontal,"(390.0, 262.0)",0.6833333333333333,0.523,1,1119.493,2,0.08,same
0,129,catch,"[(1185, 795)]",[],[1],[],horizontal,"(890.0, 762.0)",1.7,nan,1,1124.742,2,0.08,same
0,130,valid,"[(1188, 796)]",[],[1],[0.55],vertical,"(890.0, 262.0)",0.3833333333333333,0.511,1,1130.124,3,0.08,same
0,131,valid,"[(1194, 778)]",[],[1],[0.55],vertical,"(890.0, 762.0)",0.6166666666666667,0.505,1,1135.153,3,0.08,same
0,132,valid,"[(1185, 774)]",[],[1],[0.5166666666666666],horizontal,"(390.0, 262.0)",0.6833333333333333,0.478,1,1140.758,3,0.08,same
0,133,valid,"[(1168, 796)]",[],[1],[0.6],horizontal,"(390.0, 762.0)",0.9333333333333333,0.564,1,1146.569,3,0.08,same
0,134,valid,"[(1163, 772)]",[],[1],[0.5166666666666666],vertical,"(390.0, 262.0)",0.4,0.479,1,1152.473,3,0.08,same
0,135,invalid_adjacent_other_bar,"[(1175, 766)]",[],[1],[0.6833333333333333],vertical,"(890.0, 262.0)",1.05,0.642,1,1157.393,3,0.08,other
0,136,valid,"[(1188, 777)]",[],[1],[0.48333333333333334],vertical,"(390.0, 262.0)",1.5,0.446,1,1162.943,3,0.08,same
0,137,valid,"[(1185, 777)]",[],[1],[0.5333333333333333],vertical,"(390.0, 762.0)",1.45,0.496,1,1169.177,3,0.08,same
0,138,valid,"[(1180, 797)]",[],[1],[0.5166666666666666],vertical,"(390.0, 262.0)",0.43333333333333335,0.481,1,1175.525,3,0.08,same
0,139,valid,"[(1190, 793)]",[],[1],[0.65],vertical,"(890.0, 762.0)",1.0333333333333332,0.617,1,1180.608,3,0.08,same
0,140,valid,"[(1195, 798)]",[],[1],[0.5166666666666666],horizontal,"(390.0, 762.0)",0.8666666666666667,0.474,1,1186.709,3,0.08,same
0,141,catch,"[(1201, 789)]",[],[1],[],vertical,"(390.0, 762.0)",1.7,nan,1,1192.225,3,0.08,same
0,142,valid,"[(1164, 774)]",[],[1],[0.36666666666666664],horizontal,"(390.0, 262.0)",1.2166666666666666,0.33,1,1198.226,3,0.08,same
0,143,valid,"[(1171, 780)]",[],[1],[0.5666666666666667],vertical,"(890.0, 762.0)",0.6333333333333333,0.522,1,1204.175,3,0.08,same
0,144,valid,"[(1171, 781)]",[],[1],[0.5333333333333333],vertical,"(890.0, 762.0)",1.3666666666666667,0.503,1,1209.61,3,0.08,same
0,145,valid,"[(1190, 780)]",[],[1],[0.5833333333333334],horizontal,"(390.0, 762.0)",1.5333333333333332,0.538,1,1215.675,3,0.08,same
0,146,catch,"[(1175, 800)]","[(1098, 834)]",[1],[0.7166666666666667],vertical,"(390.0, 262.0)",,"('bar', 0.727),nan",0,1221.875,0,0.1,same
0,147,valid,"[(1151, 809)]",[],[1],[0.55],horizontal,"(890.0, 762.0)",1.0166666666666666,0.513,1,1224.716,1,0.1,same
0,148,valid,"[(1185, 776)]",[],[1],[0.6666666666666666],horizontal,"(890.0, 762.0)",0.5666666666666667,0.622,1,1230.274,1,0.1,same
0,149,catch,"[(1176, 772)]",[],[1],[],vertical,"(390.0, 762.0)",1.7,nan,1,1234.784,1,0.1,same
0,150,invalid_adjacent_other_bar,"[(1200, 783)]",[],[1],[0.6],vertical,"(890.0, 762.0)",1.2166666666666666,0.567,1,1239.975,2,0.1,other
0,151,catch,"[(1190, 782)]",[],[1],[],horizontal,"(890.0, 762.0)",1.7,nan,1,1245.409,2,0.1,same
0,152,catch,"[(1205, 795)]",[],[1],[],horizontal,"(390.0, 262.0)",1.7,nan,1,1250.742,2,0.1,same
0,153,invalid_adjacent_other_bar,"[(1171, 787)]",[],[1],[0.45],vertical,"(390.0, 762.0)",1.5333333333333332,0.414,1,1256.776,3,0.1,other
0,154,valid,"[(1190, 796)]",[],[1],[0.6833333333333333],vertical,"(890.0, 262.0)",0.36666666666666664,0.652,1,1263.625,3,0.1,same
0,155,valid,"[(1195, 783)]",[],[1],[0.5666666666666667],vertical,"(890.0, 262.0)",0.9,0.524,1,1268.94,3,0.1,same
0,156,catch,"[(1210, 779)]",[],[1],[],vertical,"(890.0, 262.0)",1.7,nan,1,1274.649,3,0.1,same
0,157,valid,"[(1205, 792)]",[],[1],[0.5166666666666666],horizontal,"(890.0, 762.0)",1.3166666666666667,0.482,1,1280.51,3,0.1,same
0,158,invalid_same_bar,"[(1200, 787)]",[],[1],[0.1],horizontal,"(890.0, 262.0)",1.2166666666666666,0.07,0,1286.823,0,0.1,same
0,159,valid,"[(1135, 785)]",[],[1],[0.6666666666666666],vertical,"(890.0, 762.0)",1.1,0.63,1,1291.477,1,0.1,same
0,160,catch,"[(1175, 767)]",[],[1],[],vertical,"(890.0, 262.0)",1.7,nan,1,1296.905,1,0.1,same
0,161,valid,"[(1175, 757)]",[],[1],[0.85],horizontal,"(890.0, 762.0)",1.35,nan,0,1302.406,0,0.1,same
0,162,valid,"[(1179, 783)]",[],[1],[0.55],horizontal,"(390.0, 762.0)",1.1166666666666667,0.509,1,1307.368,1,0.1,same
0,163,valid,"[(1195, 788)]",[],[1],[0.48333333333333334],vertical,"(390.0, 262.0)",0.35,0.446,1,1312.442,1,0.08,same
0,164,valid,"[(1210, 789)]",[],[1],[0.85],vertical,"(890.0, 262.0)",0.55,nan,0,1316.759,0,0.08,same
0,165,valid,"[(1167, 786)]",[],[1],[0.6166666666666667],horizontal,"(390.0, 262.0)",0.9,0.577,1,1321.442,1,0.08,same
0,166,valid,"[(1205, 806)]",[],[1],[0.5333333333333333],horizontal,"(390.0, 762.0)",0.5,0.491,1,1326.358,1,0.06,same
0,167,valid,"[(1202, 803)]",[],[1],[0.55],vertical,"(890.0, 762.0)",1.2166666666666666,0.504,1,1330.966,1,0.06,same
0,168,valid,"[(1188, 767)]",[],[1],[0.55],vertical,"(390.0, 762.0)",1.3166666666666667,0.51,1,1336.343,2,0.06,same
0,169,valid,"[(1213, 791)]",[],[1],[0.85],horizontal,"(890.0, 262.0)",0.9,nan,0,1342.225,0,0.06,same
0,170,invalid_adjacent_other_bar,"[(1165, 760)]",[],[1],[0.5666666666666667],horizontal,"(390.0, 262.0)",1.2666666666666666,0.523,1,1346.61,1,0.06,other
0,171,invalid_adjacent_other_bar,"[(1152, 808)]",[],[1],[0.85],vertical,"(890.0, 762.0)",0.5,nan,0,1352.442,0,0.04,other
0,172,valid,"[(1146, 763)]",[],[1],[0.65],horizontal,"(890.0, 762.0)",1.05,0.604,1,1357.193,1,0.02,same
0,173,catch,"[(1168, 774)]",[],[1],[],vertical,"(890.0, 762.0)",1.7,nan,1,1362.408,1,0.02,same
0,174,valid,"[(1175, 763)]",[],[1],[0.55],vertical,"(890.0, 762.0)",1.4166666666666667,0.505,1,1367.843,1,0.02,same
0,175,valid,"[(1172, 767)]",[],[1],[0.5],horizontal,"(890.0, 762.0)",0.45,0.459,1,1373.309,2,0.02,same
0,176,valid,"[(1165, 795)]",[],[1],[0.6166666666666667],vertical,"(390.0, 762.0)",1.3833333333333333,0.576,1,1377.693,2,0.02,same
0,177,valid,"[(1175, 764)]",[],[1],[0.5],vertical,"(390.0, 262.0)",0.5666666666666667,0.456,1,1383.603,2,0.02,same
0,178,valid,"[(1200, 813)]",[],[1],[0.5833333333333334],vertical,"(390.0, 762.0)",0.6666666666666666,0.542,1,1388.546,3,0.02,same
0,179,valid,"[(1210, 799)]",[],[1],[0.6166666666666667],vertical,"(390.0, 262.0)",1.1,0.574,1,1394.319,3,0.02,same
0,180,invalid_same_bar,"[(1176, 787)]",[],[1],[0.85],vertical,"(890.0, 262.0)",0.7666666666666666,nan,0,1399.959,0,0.02,same
0,181,valid,"[(1165, 791)]",[],[1],[0.4666666666666667],vertical,"(890.0, 262.0)",1.35,0.423,1,1404.876,1,0.02,same
0,182,valid,"[(1208, 793)]",[],[1],[0.6666666666666666],horizontal,"(390.0, 762.0)",1.0833333333333333,0.621,1,1410.21,1,0.02,same
0,183,valid,"[(1175, 792)]",[],[1],[0.65],horizontal,"(890.0, 762.0)",0.9333333333333333,0.607,1,1415.393,1,0.02,same
0,184,valid,"[(1166, 768)]",[],[1],[0.4166666666666667],vertical,"(390.0, 262.0)",1.4333333333333333,0.374,1,1419.98,2,0.02,same
0,185,valid,"[(1192, 766)]",[],[1],[0.48333333333333334],horizontal,"(890.0, 262.0)",1.4666666666666666,0.447,1,1426.076,2,0.02,same
0,186,catch,"[(1185, 808)]",[],[1],[],vertical,"(890.0, 262.0)",1.7,nan,1,1431.777,2,0.02,same
0,187,catch,"[(1213, 799)]",[],[1],[],horizontal,"(390.0, 762.0)",1.7,nan,1,1437.643,3,0.02,same
0,188,valid,"[(1197, 791)]",[],[1],[0.65],vertical,"(890.0, 762.0)",1.25,0.607,1,1443.659,3,0.02,same
0,189,catch,"[(1170, 786)]",[],[1],[],horizontal,"(390.0, 262.0)",1.7,nan,1,1449.51,3,0.02,same
0,190,catch,"[(1161, 817)]",[],[1],[],vertical,"(390.0, 262.0)",1.7,nan,1,1455.565,3,0.02,same
0,191,invalid_same_bar,"[(1180, 781)]",[],[1],[0.5166666666666666],vertical,"(890.0, 262.0)",0.35,0.473,1,1462.291,3,0.02,same
0,192,valid,"[(1180, 757)]",[],[1],[0.85],vertical,"(890.0, 762.0)",0.5666666666666667,nan,0,1467.542,0,0.02,same
0,193,catch,"[(1146, 795)]",[],[1],[],vertical,"(390.0, 262.0)",1.7,nan,1,1471.852,1,0.02,same
0,194,valid,"[(1174, 767)]",[],[1],[0.65],vertical,"(390.0, 262.0)",0.5,0.61,1,1477.125,1,0.02,same
0,195,catch,"[(1175, 781)]",[],[1],[],horizontal,"(890.0, 762.0)",1.7,nan,1,1481.832,1,0.02,same
0,196,invalid_same_bar,"[(1178, 796)]",[],[1],[0.55],vertical,"(890.0, 262.0)",0.35,0.508,1,1487.0,2,0.0,same
0,197,catch,"[(1188, 787)]",[],[1],[],vertical,"(390.0, 262.0)",1.7,nan,1,1491.451,2,0.0,same
0,198,catch,"[(1187, 777)]",[],[1],[],vertical,"(390.0, 262.0)",1.7,nan,1,1497.158,2,0.0,same
0,199,valid,"[(1185, 767)]",[],[1],[0.5166666666666666],horizontal,"(390.0, 262.0)",0.5,0.471,1,1502.726,3,0.0,same
0,200,valid,"[(1181, 776)]",[],[1],[0.55],horizontal,"(890.0, 262.0)",1.45,0.509,1,1507.842,3,0.0,same
0,201,valid,"[(1180, 796)]",[],[1],[0.5166666666666666],horizontal,"(390.0, 762.0)",0.7,0.477,1,1513.798,3,0.0,same
0,202,valid,"[(1168, 786)]",[],[1],[0.48333333333333334],horizontal,"(890.0, 762.0)",1.4666666666666666,0.441,1,1518.943,3,0.0,same
0,203,valid,"[(1183, 786)]",[],[1],[0.5166666666666666],vertical,"(390.0, 262.0)",1.0833333333333333,0.473,1,1525.4,3,0.0,same
0,204,valid,"[(1179, 775)]",[],[1],[0.7],vertical,"(390.0, 762.0)",0.8333333333333334,0.661,1,1531.609,3,0.0,same
0,205,catch,"[(1170, 761)]",[],[1],[],vertical,"(390.0, 262.0)",1.7,nan,1,1537.401,3,0.0,same
0,206,invalid_adjacent_other_bar,"[(1181, 756)]",[],[1],[0.6666666666666666],horizontal,"(390.0, 762.0)",1.25,0.625,1,1542.965,3,0.0,other
0,207,catch,"[(1188, 758)]",[],[1],[],horizontal,"(390.0, 762.0)",1.7,nan,1,1549.61,3,0.0,same
0,208,valid,"[(1187, 777)]",[],[1],[0.55],vertical,"(890.0, 762.0)",1.2833333333333332,0.518,1,1555.56,3,0.0,same
0,209,catch,"[(1177, 795)]",[],[1],[],vertical,"(890.0, 262.0)",1.7,nan,1,1562.003,3,0.0,same
0,210,valid,"[(1195, 781)]",[],[1],[0.5],vertical,"(890.0, 262.0)",0.5666666666666667,0.469,1,1567.942,3,0.0,same
0,211,catch,"[(1185, 792)]",[],[1],[],horizontal,"(890.0, 262.0)",1.7,nan,1,1573.223,3,0.0,same
0,212,valid,"[(1181, 791)]",[],[1],[0.4666666666666667],vertical,"(890.0, 262.0)",1.4666666666666666,0.434,1,1578.96,3,0.0,same
0,213,valid,"[(1155, 751), (1135, 797)]",[],"[0, 1]",[0.5166666666666666],horizontal,"(390.0, 262.0)",1.0666666666666667,0.477,1,1584.959,3,0.0,same
0,214,catch,"[(1186, 796)]",[],[1],[],horizontal,"(890.0, 762.0)",1.7,nan,1,1591.509,3,0.0,same
0,215,valid,"[(1180, 791)]",[],[1],[0.6166666666666667],horizontal,"(390.0, 262.0)",1.2,0.579,1,1597.709,3,0.0,same
0,216,valid,"[(1212, 790)]",[],[1],[0.5],horizontal,"(390.0, 262.0)",1.05,0.46,1,1604.009,3,0.0,same
0,217,valid,"[(1185, 781)]",[],[1],[0.55],vertical,"(890.0, 762.0)",0.8,0.516,1,1610.192,3,0.0,same
0,218,valid,"[(1189, 794)]",[],[1],[0.85],vertical,"(890.0, 262.0)",0.8166666666666667,nan,0,1615.838,0,0.0,same
0,219,valid,"[(1148, 790)]",[],[1],[0.85],horizontal,"(390.0, 762.0)",0.6333333333333333,nan,0,1620.041,0,0.0,same
0,220,valid,"[(1162, 792)]",[],[1],[0.5166666666666666],horizontal,"(390.0, 262.0)",0.8666666666666667,0.484,1,1624.502,1,0.0,same
0,221,valid,"[(1215, 775)]",[],[1],[0.48333333333333334],vertical,"(390.0, 262.0)",0.8166666666666667,0.452,1,1629.645,1,0.0,same
0,222,valid,"[(1209, 786)]",[],[1],[0.5666666666666667],horizontal,"(390.0, 262.0)",0.36666666666666664,0.531,1,1633.943,1,0.0,same
0,223,valid,"[(1192, 775)]",[],[1],[0.5833333333333334],vertical,"(890.0, 762.0)",0.6,0.544,1,1638.311,2,0.0,same
0,224,catch,"[(1181, 786)]",[],[1],[],horizontal,"(890.0, 762.0)",,"('cti', 1.648),nan",0,1643.142,0,0.02,same
0,225,valid,"[(1172, 791)]",[],[1],[0.5833333333333334],horizontal,"(390.0, 762.0)",1.25,0.54,1,1647.512,1,0.02,same
0,226,catch,"[(1180, 786)]",[],[1],[],vertical,"(390.0, 262.0)",1.7,"('cti', 1.698),nan",0,1653.029,0,0.04,same
0,227,invalid_same_bar,"[(1165, 790)]",[],[1],[0.6666666666666666],vertical,"(390.0, 762.0)",1.2666666666666666,0.624,1,1657.914,1,0.04,same
0,228,valid,"[(1184, 790)]",[],[1],[0.5833333333333334],vertical,"(890.0, 762.0)",0.4666666666666667,0.544,1,1663.544,1,0.04,same
0,229,valid,"[(1180, 772)]",[],[1],[0.5833333333333334],vertical,"(390.0, 762.0)",1.4833333333333334,0.543,1,1668.426,1,0.04,same
0,230,catch,"[(1165, 777)]",[],[1],[],horizontal,"(390.0, 762.0)",1.7,nan,1,1673.564,2,0.04,same
0,231,invalid_same_bar,"[(1180, 793)]",[],[1],[0.55],horizontal,"(890.0, 262.0)",0.9666666666666667,0.516,1,1679.422,2,0.04,same
0,232,catch,"[(1181, 795)]",[],[1],[],vertical,"(390.0, 262.0)",1.7,nan,1,1685.108,2,0.04,same
0,233,catch,"[(1181, 775)]",[],[1],[],horizontal,"(890.0, 262.0)",1.7,nan,1,1691.009,3,0.04,same
0,234,catch,"[(1184, 787)]",[],[1],[],vertical,"(390.0, 762.0)",1.7,nan,1,1697.093,3,0.04,same
0,235,valid,"[(1175, 792)]",[],[1],[0.7333333333333333],horizontal,"(890.0, 762.0)",0.9,0.689,1,1702.982,3,0.04,same
0,236,catch,"[(1166, 782)]",[],[1],[],vertical,"(890.0, 262.0)",1.7,nan,1,1708.712,3,0.04,same
0,237,valid,"[(1180, 774)]",[],[1],[0.5],horizontal,"(390.0, 262.0)",0.9666666666666667,0.46,1,1715.059,3,0.04,same
0,238,valid,"[(1177, 770)]",[],[1],[0.5666666666666667],horizontal,"(890.0, 262.0)",0.9333333333333333,0.528,1,1720.41,3,0.04,same
0,239,valid,"[(1185, 777)]",[],[1],[0.5833333333333334],vertical,"(890.0, 262.0)",1.5166666666666666,0.542,1,1726.294,3,0.04,same
0,240,invalid_same_bar,"[(1185, 773)]",[],[1],[0.8166666666666667],horizontal,"(390.0, 262.0)",0.4666666666666667,0.772,1,1732.494,3,0.04,same
0,241,catch,"[(1180, 795)]",[],[1],[],vertical,"(890.0, 762.0)",1.7,nan,1,1738.338,3,0.04,same
0,242,invalid_adjacent_other_bar,"[(1177, 789)]",[],[1],[0.5166666666666666],horizontal,"(390.0, 262.0)",0.85,0.475,1,1744.159,3,0.04,other
0,243,valid,"[(1185, 793)]",[],[1],[0.5666666666666667],vertical,"(390.0, 262.0)",1.05,0.534,1,1749.961,3,0.04,same
0,244,invalid_same_bar,"[(1180, 821)]",[],[1],[0.85],vertical,"(390.0, 762.0)",0.7166666666666667,nan,0,1756.158,0,0.04,same
0,245,valid,"[(1170, 796)]",[],[1],[0.85],horizontal,"(890.0, 762.0)",0.6666666666666666,nan,0,1761.249,0,0.04,same
0,246,valid,"[(1165, 792)]",[],[1],[0.5166666666666666],horizontal,"(390.0, 262.0)",1.0666666666666667,0.48,1,1765.945,1,0.04,same
0,247,catch,"[(1214, 765)]",[],[1],[],horizontal,"(890.0, 762.0)",1.7,nan,1,1770.844,1,0.04,same
0,248,valid,"[(1167, 777)]",[],[1],[0.6333333333333333],vertical,"(390.0, 762.0)",1.0333333333333332,0.587,1,1775.852,1,0.04,same
0,249,valid,"[(1181, 773)]",[],[1],[0.85],horizontal,"(390.0, 262.0)",0.5666666666666667,nan,0,1780.653,0,0.04,same
0,250,catch,"[(1160, 781)]",[],[1],[],horizontal,"(390.0, 262.0)",1.7,nan,1,1785.009,1,0.04,same
0,251,invalid_same_bar,"[(1216, 793)]",[],[1],[0.55],horizontal,"(390.0, 262.0)",1.3833333333333333,0.51,1,1790.194,1,0.04,same
0,252,valid,"[(1180, 792)]",[],[1],[0.6333333333333333],horizontal,"(890.0, 762.0)",1.4166666666666667,0.584,1,1795.502,1,0.04,same
0,253,valid,"[(1205, 770)]",[],[1],[0.6],vertical,"(390.0, 262.0)",0.75,0.556,1,1800.893,2,0.04,same
0,254,valid,"[(1180, 791)]",[],[1],[0.5166666666666666],horizontal,"(890.0, 262.0)",0.4166666666666667,0.476,1,1805.899,2,0.04,same
0,255,invalid_same_bar,"[(1210, 799)]",[],[1],[0.25],vertical,"(390.0, 262.0)",1.5333333333333332,0.216,1,1810.959,2,0.04,same
0,256,valid,"[(1198, 786)]",[],[1],[0.6333333333333333],horizontal,"(390.0, 762.0)",1.1833333333333333,0.592,1,1816.708,3,0.04,same
0,257,valid,"[(1180, 785)]",[],[1],[0.5166666666666666],horizontal,"(390.0, 762.0)",0.3833333333333333,0.477,1,1823.276,3,0.04,same
0,258,valid,"[(1175, 781)]",[],[1],[0.6333333333333333],horizontal,"(390.0, 262.0)",1.1666666666666667,0.587,1,1828.428,3,0.04,same
0,259,valid,"[(1180, 772)]",[],[1],[0.5333333333333333],vertical,"(390.0, 262.0)",1.2833333333333332,0.494,1,1834.658,3,0.04,same
0,260,valid,"[(1180, 788)]",[],[1],[0.6833333333333333],vertical,"(890.0, 262.0)",0.45,0.637,1,1840.449,3,0.04,same
0,261,valid,"[(1175, 789)]",[],[1],[0.55],horizontal,"(890.0, 262.0)",0.43333333333333335,0.505,1,1845.771,3,0.04,same
0,262,valid,"[(1185, 788)]",[],[1],[0.55],horizontal,"(390.0, 762.0)",0.7,0.508,1,1851.0,3,0.04,same
0,263,valid,"[(1181, 791)]",[],[1],[0.85],vertical,"(390.0, 762.0)",0.5,nan,0,1856.699,0,0.04,same
0,264,catch,"[(1160, 761)]",[],[1],[],vertical,"(890.0, 262.0)",1.7,nan,1,1860.677,1,0.04,same
0,265,valid,"[(1170, 771)]",[],[1],[0.5333333333333333],vertical,"(890.0, 762.0)",0.43333333333333335,0.505,1,1870.626,1,0.04,same
0,266,valid,"[(1175, 791)]",[],[1],[0.4166666666666667],horizontal,"(890.0, 262.0)",1.5333333333333332,0.375,1,1875.076,1,0.04,same
0,267,valid,"[(1165, 766)]",[],[1],[0.5833333333333334],horizontal,"(890.0, 762.0)",0.7166666666666667,0.545,1,1880.161,2,0.04,same
0,268,valid,"[(1181, 790)]",[],[1],[0.5666666666666667],vertical,"(890.0, 262.0)",1.15,0.526,1,1885.525,2,0.04,same
0,269,invalid_adjacent_other_bar,"[(1180, 793)]",[],[1],[0.55],vertical,"(390.0, 262.0)",0.5833333333333334,0.507,1,1891.344,2,0.04,other
0,270,valid,"[(1165, 766)]",[],[1],[0.55],horizontal,"(890.0, 762.0)",1.0833333333333333,0.503,1,1896.877,3,0.04,same
0,271,valid,"[(1185, 771)]",[],[1],[0.55],vertical,"(390.0, 762.0)",1.1166666666666667,0.51,1,1903.101,3,0.04,same
0,272,invalid_same_bar,"[(1180, 791)]",[],[1],[0.85],horizontal,"(890.0, 762.0)",0.5166666666666666,nan,0,1909.074,0,0.04,same
0,273,valid,"[(1136, 759)]",[],[1],[0.65],vertical,"(890.0, 762.0)",1.0166666666666666,0.606,1,1913.71,1,0.04,same
0,274,valid,"[(1167, 764)]",[],[1],[0.5166666666666666],vertical,"(890.0, 262.0)",1.0,0.473,1,1919.04,1,0.02,same
0,275,valid,"[(1165, 759)]",[],[1],[0.85],horizontal,"(890.0, 762.0)",1.1,nan,0,1924.196,0,0.02,same
0,276,valid,"[(1175, 777)]",[],[1],[0.43333333333333335],horizontal,"(390.0, 762.0)",1.5,0.404,1,1928.776,1,0.0,same
0,277,catch,"[(1210, 768)]",[],[1],[],horizontal,"(890.0, 262.0)",1.7,nan,1,1934.641,1,0.0,same
0,278,valid,"[(1208, 800)]",[],[1],[0.6333333333333333],vertical,"(890.0, 762.0)",0.5666666666666667,0.59,1,1939.948,1,0.0,same
0,279,valid,"[(1205, 788)]",[],[1],[],horizontal,"(390.0, 762.0)",,"('cti', 1.133)",0,1944.844,0,0.0,same
0,280,invalid_adjacent_other_bar,"[(1155, 777)]",[],[1],[0.5333333333333333],horizontal,"(390.0, 262.0)",0.7333333333333333,0.492,1,1949.127,1,0.0,other
0,281,valid,"[(1178, 753), (1145, 830)]",[],"[0, 1]",[0.6166666666666667],horizontal,"(890.0, 262.0)",0.6333333333333333,0.58,1,1954.134,1,0.0,same
0,282,valid,"[(1180, 764)]",[],[1],[0.7],horizontal,"(390.0, 762.0)",1.2166666666666666,0.658,1,1960.118,1,0.0,same
0,283,valid,"[(1185, 764)]",[],[1],[0.55],horizontal,"(890.0, 762.0)",0.8833333333333333,0.516,1,1965.177,2,0.0,same
0,284,catch,"[(1177, 768)]",[],[1],[],horizontal,"(890.0, 262.0)",1.7,nan,1,1970.426,2,0.0,same
0,285,valid,"[(1175, 793)]",[],[1],[0.4166666666666667],horizontal,"(390.0, 262.0)",1.35,0.377,1,1975.927,2,0.0,same
0,286,valid,"[(1179, 791)]","[(1097, 822)]",[1],[0.35],vertical,"(390.0, 262.0)",,"('bar', 0.368)",0,1981.994,0,0.0,same
0,287,valid,"[(1135, 801)]",[],[1],[0.5333333333333333],horizontal,"(390.0, 262.0)",0.6833333333333333,0.49,1,1984.96,1,0.0,same
0,288,valid,"[(1174, 794)]",[],[1],[0.6166666666666667],horizontal,"(890.0, 762.0)",0.95,0.573,1,1989.394,1,0.0,same
0,289,catch,"[(1165, 806)]",[],[1],[],horizontal,"(390.0, 762.0)",1.7,nan,1,1994.425,1,0.0,same
0,290,valid,"[(1180, 786)]",[],[1],[],vertical,"(890.0, 262.0)",,"('cti', 0.278)",0,1999.861,0,0.0,same
0,291,invalid_adjacent_other_bar,"[(1139, 789)]",[],[1],[0.6833333333333333],horizontal,"(890.0, 262.0)",1.2666666666666666,0.643,1,2002.877,1,0.0,other
0,292,invalid_same_bar,"[(1175, 777)]",[],[1],[],vertical,"(890.0, 762.0)",,"('cti', 0.64)",0,2008.627,0,0.0,same
0,293,catch,"[(1180, 760)]",[],[1],[],horizontal,"(890.0, 262.0)",1.7,nan,1,2012.427,1,0.0,same
0,294,valid,"[(1174, 777)]",[],[1],[0.45],horizontal,"(390.0, 762.0)",1.4166666666666667,0.407,1,2017.81,1,0.0,same
0,295,catch,"[(1167, 772)]",[],[1],[],horizontal,"(890.0, 262.0)",1.7,nan,1,2023.328,1,0.0,same
0,296,catch,"[(1170, 791)]",[],[1],[],horizontal,"(890.0, 262.0)",1.7,nan,1,2028.894,2,0.0,same
0,297,catch,"[(1160, 791)]",[],[1],[],vertical,"(890.0, 762.0)",1.7,nan,1,2034.56,2,0.0,same
0,298,valid,"[(1208, 790)]",[],[1],[0.5666666666666667],vertical,"(890.0, 262.0)",0.6166666666666667,0.524,1,2039.976,2,0.0,same
0,299,valid,"[(1182, 781)]",[],[1],[0.6666666666666666],vertical,"(890.0, 762.0)",1.05,0.623,1,2045.62,3,0.0,same
0,300,invalid_same_bar,"[(1188, 778)]",[],[1],[0.85],vertical,"(890.0, 762.0)",1.3333333333333333,nan,0,2051.901,0,0.0,same
0,301,catch,"[(1165, 791)]",[],[1],[],vertical,"(890.0, 762.0)",1.7,nan,1,2056.875,1,0.0,same
0,302,valid,"[(1176, 776)]",[],[1],[0.85],vertical,"(390.0, 262.0)",0.4166666666666667,nan,0,2061.811,0,0.0,same
0,303,valid,"[(1144, 750), (1090, 791)]",[],"[0, 1]",[0.5],horizontal,"(890.0, 762.0)",0.4,0.462,1,2065.725,1,0.0,same
0,304,catch,"[(1179, 777)]",[],[1],[],horizontal,"(890.0, 262.0)",1.7,nan,1,2071.879,1,0.0,same
0,305,catch,"[(1173, 781)]",[],[1],[],vertical,"(890.0, 762.0)",1.7,nan,1,2077.349,1,0.0,same
0,306,catch,"[(1191, 790)]",[],[1],[],vertical,"(390.0, 762.0)",1.7,nan,1,2082.741,2,0.0,same
0,307,valid,"[(1165, 770)]",[],[1],[0.55],horizontal,"(890.0, 762.0)",0.5166666666666666,0.513,1,2088.575,2,0.0,same
0,308,catch,"[(1174, 777)]",[],[1],[],vertical,"(390.0, 262.0)",1.7,nan,1,2093.278,2,0.0,same
0,309,catch,"[(1178, 798)]",[],[1],[],horizontal,"(890.0, 262.0)",1.7,nan,1,2099.095,3,0.0,same
0,310,valid,"[(1165, 776)]",[],[1],[0.5666666666666667],vertical,"(890.0, 762.0)",0.48333333333333334,0.534,1,2105.177,3,0.0,same
0,311,valid,"[(1171, 788)]",[],[1],[0.7166666666666667],horizontal,"(390.0, 762.0)",0.9166666666666666,0.675,1,2110.36,3,0.0,same
0,312,catch,"[(1164, 777)]",[],[1],[],vertical,"(390.0, 262.0)",1.7,nan,1,2116.214,3,0.0,same
0,313,catch,"[(1165, 794)]",[],[1],[],vertical,"(890.0, 262.0)",1.7,nan,1,2121.894,3,0.0,same
0,314,valid,"[(1172, 795)]",[],[1],[0.6833333333333333],vertical,"(390.0, 262.0)",0.9666666666666667,0.648,1,2127.947,3,0.0,same
0,315,valid,"[(1170, 793)]",[],[1],[0.5333333333333333],vertical,"(890.0, 762.0)",1.0166666666666666,0.497,1,2133.686,3,0.0,same
0,316,valid,"[(1186, 784)]",[],[1],[0.5166666666666666],vertical,"(390.0, 762.0)",1.2,0.477,1,2139.478,3,0.0,same
0,317,invalid_same_bar,"[(1175, 774)]",[],[1],[0.5],vertical,"(890.0, 762.0)",0.43333333333333335,0.467,1,2145.56,3,0.0,same
0,318,catch,"[(1170, 768)]",[],[1],[],horizontal,"(890.0, 262.0)",1.7,nan,1,2150.69,3,0.0,same
0,319,valid,"[(1165, 790)]",[],[1],[0.5333333333333333],horizontal,"(890.0, 762.0)",0.8333333333333334,0.494,1,2156.757,3,0.0,same
0,320,valid,"[(1165, 774)]",[],[1],[0.6],horizontal,"(390.0, 262.0)",1.3833333333333333,0.561,1,2162.694,3,0.0,same
0,321,valid,"[(1177, 791)]",[],[1],[0.5333333333333333],vertical,"(390.0, 262.0)",0.48333333333333334,0.5,1,2168.894,3,0.0,same
0,322,valid,"[(1177, 793)]",[],[1],[0.85],horizontal,"(890.0, 762.0)",0.6833333333333333,nan,0,2174.171,0,0.0,same
0,323,valid,"[(1150, 793)]",[],[1],[0.5],horizontal,"(390.0, 262.0)",1.2833333333333332,0.463,1,2178.809,1,0.0,same
0,324,catch,"[(1165, 756)]",[],[1],[],vertical,"(390.0, 262.0)",1.7,nan,1,2184.194,1,0.0,same
0,325,valid,"[(1174, 782)]",[],[1],[0.5],horizontal,"(390.0, 262.0)",1.0833333333333333,0.464,1,2189.426,1,0.0,same
0,326,valid,"[(1180, 757)]",[],[1],[0.5],horizontal,"(390.0, 262.0)",1.0,0.46,1,2194.311,2,0.0,same
0,327,valid,"[(1175, 755)]",[],[1],[0.5],horizontal,"(890.0, 762.0)",0.7666666666666666,0.468,1,2199.18,2,0.0,same
0,328,catch,"[(1192, 788)]",[],[1],[],vertical,"(890.0, 762.0)",1.7,nan,1,2204.228,2,0.0,same
0,329,valid,"[(1178, 798)]",[],[1],[0.48333333333333334],vertical,"(890.0, 762.0)",0.7833333333333333,0.445,1,2209.894,3,0.0,same
0,330,valid,"[(1170, 770)]",[],[1],[0.85],horizontal,"(890.0, 262.0)",0.3833333333333333,nan,0,2215.888,0,0.0,same
0,331,valid,"[(1155, 766)]",[],[1],[0.31666666666666665],horizontal,"(390.0, 262.0)",1.3666666666666667,0.278,1,2220.234,1,0.0,same
0,332,valid,"[(1177, 768)]",[],[1],[0.5166666666666666],horizontal,"(390.0, 762.0)",0.4,0.475,1,2225.609,1,0.0,same
0,333,valid,"[(1170, 781)]",[],[1],[0.5166666666666666],horizontal,"(390.0, 762.0)",1.4666666666666666,0.475,1,2230.394,1,0.0,same
0,334,valid,"[(1188, 771)]",[],[1],[0.48333333333333334],horizontal,"(390.0, 262.0)",0.4,0.444,1,2235.637,2,0.0,same
0,335,valid,"[(1177, 776)]",[],[1],[0.5166666666666666],horizontal,"(890.0, 762.0)",0.95,0.484,1,2240.497,2,0.0,same
0,336,valid,"[(1180, 803)]",[],[1],[0.5],horizontal,"(890.0, 262.0)",0.7333333333333333,0.458,1,2245.909,2,0.0,same
0,337,catch,"[(1175, 764)]",[],[1],[],horizontal,"(390.0, 762.0)",,"('cti', 1.601),nan",0,2251.427,0,0.02,same
0,338,valid,"[(1145, 776)]",[],[1],[0.6],horizontal,"(890.0, 762.0)",1.0166666666666666,0.558,1,2256.626,1,0.02,same
0,339,valid,"[(1180, 781)]",[],[1],[0.5666666666666667],vertical,"(390.0, 762.0)",1.2333333333333334,0.522,1,2261.661,1,0.02,same
0,340,valid,"[(1178, 759)]",[],[1],[0.26666666666666666],vertical,"(390.0, 262.0)",1.5,0.23,1,2266.81,1,0.02,same
0,341,catch,"[(1205, 780)]",[],[1],[],horizontal,"(390.0, 262.0)",,"('cti', 1.515),nan",0,2272.31,0,0.04,same
0,342,valid,"[(1131, 835)]",[],[1],[0.5666666666666667],horizontal,"(390.0, 262.0)",0.4666666666666667,0.523,1,2276.657,1,0.04,same
0,343,valid,"[(1180, 782)]",[],[1],[0.85],horizontal,"(390.0, 762.0)",0.7,nan,0,2283.544,0,0.04,same
0,344,catch,"[(1141, 761)]",[],[1],[],vertical,"(890.0, 262.0)",1.7,"('cti', 1.677),nan",0,2287.779,0,0.06,same
0,345,invalid_adjacent_other_bar,"[(1160, 774)]",[],[1],[0.85],vertical,"(390.0, 762.0)",0.6,nan,0,2292.755,0,0.06,other
0,346,invalid_same_bar,"[(1120, 791)]",[],[1],[0.5333333333333333],horizontal,"(390.0, 762.0)",1.0666666666666667,0.491,1,2297.087,1,0.06,same
0,347,catch,"[(1176, 796)]",[],[1],[],horizontal,"(890.0, 762.0)",1.7,nan,1,2302.11,1,0.06,same
0,348,catch,"[(1183, 773)]",[],[1],[],horizontal,"(390.0, 762.0)",,"('cti', 1.637),nan",0,2307.473,0,0.08,same
0,349,catch,"[(1116, 838)]",[],[1],[],vertical,"(390.0, 762.0)",1.7,nan,1,2312.295,1,0.08,same
0,350,valid,"[(1140, 818)]",[],[1],[0.7666666666666666],vertical,"(890.0, 762.0)",0.8166666666666667,0.722,1,2359.205,1,0.08,same
0,351,valid,"[(1160, 818)]",[],[1],[0.85],vertical,"(890.0, 762.0)",0.5833333333333334,nan,0,2364.378,0,0.08,same
0,352,valid,"[(1117, 821)]",[],[1],[0.6333333333333333],horizontal,"(390.0, 762.0)",1.35,0.596,1,2369.095,1,0.08,same
0,353,invalid_same_bar,"[(1149, 799)]",[],[1],[0.55],horizontal,"(890.0, 262.0)",0.9666666666666667,0.507,1,2374.503,1,0.08,same
0,354,catch,"[(1160, 797)]",[],[1],[],horizontal,"(390.0, 762.0)",1.7,nan,1,2380.007,1,0.08,same
0,355,invalid_same_bar,"[(1172, 819)]",[],[1],[0.65],vertical,"(890.0, 762.0)",0.7833333333333333,0.604,1,2385.453,2,0.08,same
0,356,catch,"[(1160, 796)]",[],[1],[],horizontal,"(890.0, 762.0)",1.7,nan,1,2390.777,2,0.08,same
0,357,valid,"[(1162, 796)]",[],[1],[0.6],vertical,"(390.0, 762.0)",0.6666666666666666,0.565,1,2396.494,2,0.08,same
0,358,valid,"[(1167, 798)]",[],[1],[0.5833333333333334],vertical,"(390.0, 762.0)",1.2333333333333334,0.547,1,2401.911,3,0.08,same
0,359,valid,"[(1179, 766)]",[],[1],[0.6],horizontal,"(890.0, 762.0)",1.2333333333333334,0.551,1,2408.384,3,0.08,same
0,360,valid,"[(1161, 767)]",[],[1],[0.5833333333333334],horizontal,"(390.0, 762.0)",0.8833333333333333,0.548,1,2414.395,3,0.08,same
0,361,valid,"[(1166, 782)]",[],[1],[0.55],vertical,"(890.0, 262.0)",0.43333333333333335,0.513,1,2420.477,3,0.08,same
0,362,valid,"[(1155, 769)]",[],[1],[0.5166666666666666],vertical,"(390.0, 762.0)",0.5666666666666667,0.475,1,2426.211,3,0.08,same
0,363,catch,"[(1179, 769)]",[],[1],[],vertical,"(890.0, 762.0)",1.7,nan,1,2431.807,3,0.08,same
0,364,valid,"[(1164, 774)]",[],[1],[0.5],vertical,"(890.0, 262.0)",1.35,0.468,1,2437.828,3,0.08,same
0,365,valid,"[(1176, 758)]",[],[1],[0.43333333333333335],vertical,"(390.0, 262.0)",1.4666666666666666,0.394,1,2444.04,3,0.08,same
0,366,catch,"[(1195, 762)]",[],[1],[],vertical,"(390.0, 762.0)",1.7,nan,1,2450.645,3,0.08,same
0,367,valid,"[(1165, 806)]",[],[1],[0.5],vertical,"(890.0, 762.0)",1.15,0.467,1,2456.378,3,0.08,same
0,368,invalid_adjacent_other_bar,"[(1166, 808)]",[],[1],[0.4666666666666667],horizontal,"(890.0, 262.0)",0.5333333333333333,0.421,1,2462.261,3,0.08,other
0,369,valid,"[(1168, 756)]",[],[1],[0.5166666666666666],vertical,"(390.0, 262.0)",0.4666666666666667,0.471,1,2467.695,3,0.08,same
0,370,valid,"[(1178, 776)]",[],[1],[0.5833333333333334],vertical,"(890.0, 262.0)",1.1166666666666667,0.543,1,2473.34,3,0.08,same
0,371,invalid_adjacent_other_bar,"[(1177, 777)]",[],[1],[0.6166666666666667],vertical,"(390.0, 262.0)",0.4166666666666667,0.583,1,2479.669,3,0.08,other
0,372,catch,"[(1150, 786)]",[],[1],[],vertical,"(390.0, 762.0)",1.7,nan,1,2484.907,3,0.08,same
0,373,valid,"[(1165, 762)]",[],[1],[0.6166666666666667],horizontal,"(390.0, 262.0)",1.0,0.575,1,2490.845,3,0.08,same
0,374,catch,"[(1179, 777)]",[],[1],[],vertical,"(390.0, 762.0)",1.7,nan,1,2496.396,3,0.08,same
0,375,valid,"[(1174, 761)]",[],[1],[0.48333333333333334],horizontal,"(890.0, 262.0)",0.9333333333333333,0.443,1,2502.513,3,0.08,same
0,376,valid,"[(1168, 777)]",[],[1],[0.45],horizontal,"(890.0, 262.0)",1.4666666666666666,0.414,1,2508.467,3,0.08,same
0,377,valid,"[(1178, 773)]",[],[1],[0.8166666666666667],horizontal,"(890.0, 762.0)",1.2,0.771,1,2514.544,3,0.08,same
0,378,valid,"[(1165, 799)]",[],[1],[0.5166666666666666],vertical,"(390.0, 262.0)",0.5166666666666666,0.487,1,2521.05,3,0.08,same
0,379,valid,"[(1120, 799)]",[],[1],[0.6166666666666667],horizontal,"(890.0, 762.0)",0.7166666666666667,0.583,1,2526.562,3,0.08,same
0,380,invalid_same_bar,"[(1162, 799)]",[],[1],[0.85],horizontal,"(390.0, 762.0)",0.65,nan,0,2542.584,0,0.08,same
0,381,invalid_adjacent_other_bar,"[(1164, 777)]",[],[1],[0.5],horizontal,"(390.0, 762.0)",0.9666666666666667,0.461,1,2547.012,1,0.08,other
0,382,invalid_adjacent_other_bar,"[(1176, 776)]",[],[1],[0.85],horizontal,"(890.0, 762.0)",1.1166666666666667,nan,0,2551.662,0,0.08,other
0,383,catch,"[(1136, 772)]",[],[1],[],vertical,"(390.0, 762.0)",1.7,nan,1,2556.183,1,0.08,same
0,384,valid,"[(1160, 770)]",[],[1],[0.7],horizontal,"(390.0, 262.0)",0.7333333333333333,0.656,1,2561.622,1,0.08,same
0,385,invalid_adjacent_other_bar,"[(1191, 794)]",[],[1],[0.43333333333333335],horizontal,"(890.0, 262.0)",1.1833333333333333,0.393,1,2566.477,1,0.08,other
0,386,valid,"[(1210, 770)]",[],[1],[0.6166666666666667],vertical,"(890.0, 762.0)",0.4666666666666667,0.573,1,2571.645,2,0.08,same
0,387,catch,"[(1183, 756)]",[],[1],[],vertical,"(890.0, 762.0)",1.7,nan,1,2576.483,2,0.06,same
0,388,catch,"[(1185, 783)]",[],[1],[],horizontal,"(390.0, 762.0)",1.7,nan,1,2581.827,2,0.06,same
0,389,invalid_adjacent_other_bar,"[(1175, 774)]",[],[1],[0.7833333333333333],vertical,"(390.0, 262.0)",1.1833333333333333,0.74,1,2587.575,3,0.06,other
0,390,catch,"[(1205, 805)]",[],[1],[],vertical,"(390.0, 262.0)",1.7,nan,1,2594.053,3,0.06,same
0,391,valid,"[(1165, 799)]",[],[1],[0.5833333333333334],vertical,"(890.0, 262.0)",1.2666666666666666,0.539,1,2599.862,3,0.04,same
0,392,valid,"[(1158, 791)]",[],[1],[0.5166666666666666],vertical,"(890.0, 762.0)",0.6666666666666666,0.477,1,2606.177,3,0.04,same
0,393,catch,"[(1165, 816)]",[],[1],[],vertical,"(390.0, 762.0)",1.7,nan,1,2611.712,3,0.04,same
0,394,valid,"[(1175, 784)]",[],[1],[0.5666666666666667],horizontal,"(390.0, 262.0)",0.55,0.522,1,2617.642,3,0.02,same
0,395,invalid_same_bar,"[(1185, 759)]",[],[1],[],vertical,"(890.0, 762.0)",,"('cti', 1.226)",0,2622.712,0,0.02,same
0,396,catch,"[(1164, 796)]",[],[1],[],horizontal,"(390.0, 262.0)",1.7,nan,1,2627.244,1,0.02,same
0,397,invalid_same_bar,"[(1197, 799)]",[],[1],[0.5666666666666667],vertical,"(890.0, 762.0)",0.36666666666666664,0.528,1,2632.452,1,0.02,same
0,398,catch,"[(1165, 791)]",[],[1],[],vertical,"(890.0, 762.0)",1.7,nan,1,2637.028,1,0.0,same
0,399,invalid_adjacent_other_bar,"[(1180, 795)]",[],[1],[0.6333333333333333],horizontal,"(390.0, 762.0)",1.3,0.593,1,2642.101,2,0.0,other
0,400,catch,"[(1180, 795)]",[],[1],[],vertical,"(890.0, 262.0)",1.7,nan,1,2647.929,2,0.0,same
0,401,invalid_same_bar,"[(1190, 784)]",[],[1],[0.6166666666666667],horizontal,"(390.0, 762.0)",0.5666666666666667,0.578,1,2653.576,2,0.0,same
0,402,invalid_adjacent_other_bar,"[(1199, 786)]",[],[1],[0.5666666666666667],vertical,"(890.0, 262.0)",0.36666666666666664,0.526,1,2658.729,3,0.0,other
0,403,valid,"[(1195, 777)]",[],[1],[0.6166666666666667],horizontal,"(390.0, 762.0)",0.4666666666666667,0.578,1,2664.026,3,0.0,same
0,404,valid,"[(1201, 782)]",[],[1],[0.85],horizontal,"(390.0, 262.0)",0.6,nan,0,2669.462,0,0.0,same
0,405,valid,"[(1139, 794)]",[],[1],[0.5166666666666666],vertical,"(390.0, 262.0)",1.2833333333333332,0.475,1,2673.731,1,0.0,same
0,406,catch,"[(1165, 781)]",[],[1],[],vertical,"(390.0, 762.0)",1.7,nan,1,2679.336,1,0.0,same
0,407,valid,"[(1174, 778)]",[],[1],[0.3],horizontal,"(890.0, 762.0)",1.5166666666666666,0.263,1,2684.846,1,0.0,same
0,408,valid,"[(1170, 766)]",[],[1],[0.4166666666666667],horizontal,"(390.0, 262.0)",1.4666666666666666,0.377,1,2690.07,2,0.0,same
0,409,valid,"[(1170, 785)]",[],[1],[0.45],horizontal,"(390.0, 262.0)",1.1833333333333333,0.411,1,2695.896,2,0.0,same
0,410,valid,"[(1162, 762)]",[],[1],[0.5666666666666667],vertical,"(390.0, 262.0)",1.5333333333333332,0.525,1,2701.694,2,0.0,same
0,411,valid,"[(1179, 765)]",[],[1],[0.21666666666666667],vertical,"(890.0, 762.0)",1.4166666666666667,0.181,0,2707.512,0,0.0,same
0,412,valid,"[(1121, 793)]",[],[1],[0.5],vertical,"(890.0, 262.0)",1.45,0.456,1,2712.827,1,0.0,same
0,413,catch,"[(1165, 795)]",[],[1],[],vertical,"(390.0, 262.0)",1.7,nan,1,2718.111,1,0.0,same
0,414,invalid_same_bar,"[(1175, 760)]",[],[1],[0.5666666666666667],horizontal,"(890.0, 762.0)",0.7,0.528,1,2723.429,1,0.0,same
0,415,valid,"[(1213, 761)]",[],[1],[0.48333333333333334],vertical,"(890.0, 262.0)",0.8333333333333334,0.446,1,2728.179,2,0.0,same
0,416,valid,"[(1168, 800)]",[],[1],[0.6666666666666666],vertical,"(390.0, 262.0)",1.2833333333333332,0.62,1,2732.995,2,0.0,same
0,417,valid,"[(1170, 763)]",[],[1],[0.48333333333333334],vertical,"(890.0, 262.0)",0.48333333333333334,0.439,1,2739.043,2,0.0,same
0,418,valid,"[(1177, 780)]",[],[1],[0.5],vertical,"(390.0, 762.0)",0.9166666666666666,0.46,1,2744.107,3,0.0,same
0,419,catch,"[(1175, 781)]",[],[1],[],vertical,"(390.0, 262.0)",1.7,nan,1,2750.168,3,0.0,same
0,420,valid,"[(1160, 769)]",[],[1],[0.5],vertical,"(390.0, 762.0)",0.7666666666666666,0.455,1,2755.796,3,0.0,same
0,421,valid,"[(1164, 758)]",[],[1],[0.48333333333333334],vertical,"(390.0, 262.0)",0.8833333333333333,0.446,1,2761.395,3,0.0,same
0,422,catch,"[(1170, 764)]",[],[1],[],vertical,"(890.0, 262.0)",1.7,nan,1,2767.344,3,0.0,same
0,423,catch,"[(1165, 772)]",[],[1],[],horizontal,"(890.0, 262.0)",1.7,nan,1,2773.71,3,0.0,same
0,424,catch,"[(1165, 791)]",[],[1],[],vertical,"(390.0, 762.0)",1.7,"('cti', 1.679),nan",0,2779.279,0,0.02,same
0,425,valid,"[(1145, 820)]",[],[1],[],vertical,"(390.0, 762.0)",,"('cti', 1.141)",0,2783.978,0,0.02,same
0,426,valid,"[(1161, 792)]",[],[1],[0.55],horizontal,"(890.0, 262.0)",0.85,0.508,1,2833.348,1,0.02,same
0,427,valid,"[(1212, 786)]",[],[1],[0.85],horizontal,"(890.0, 762.0)",0.7,nan,0,2838.511,0,0.02,same
0,428,valid,"[(1162, 783)]",[],[1],[0.5666666666666667],horizontal,"(890.0, 262.0)",0.95,0.522,1,2843.061,1,0.02,same
0,429,valid,"[(1175, 773)]",[],[1],[0.5],vertical,"(890.0, 762.0)",0.5333333333333333,0.461,1,2848.112,1,0.02,same
0,430,valid,"[(1176, 796)]","[(1104, 835)]",[1],[0.6833333333333333],horizontal,"(390.0, 762.0)",,"('bar', 0.687)",0,2852.778,0,0.02,same
0,431,catch,"[(1135, 821)]",[],[1],[],vertical,"(390.0, 262.0)",1.7,nan,1,2855.795,1,0.02,same
0,432,valid,"[(1166, 798)]",[],[1],[0.5166666666666666],horizontal,"(890.0, 262.0)",0.7833333333333333,0.478,1,2872.165,1,0.02,same
0,433,invalid_adjacent_other_bar,"[(1162, 793)]",[],[1],[0.6333333333333333],horizontal,"(390.0, 762.0)",1.2,0.586,1,2877.361,1,0.02,other
0,434,valid,"[(1178, 787)]",[],[1],[0.55],vertical,"(890.0, 762.0)",0.9666666666666667,0.512,1,2882.577,2,0.02,same
0,435,valid,"[(1208, 809)]",[],[1],[0.48333333333333334],vertical,"(390.0, 762.0)",1.35,0.446,1,2888.195,2,0.02,same
0,436,catch,"[(1197, 798)]",[],[1],[],horizontal,"(890.0, 762.0)",1.7,nan,1,2893.826,2,0.02,same
0,437,valid,"[(1180, 795)]",[],[1],[0.5666666666666667],horizontal,"(390.0, 262.0)",0.8,0.52,1,2899.578,3,0.02,same
0,438,valid,"[(1190, 792)]",[],[1],[0.6666666666666666],vertical,"(390.0, 762.0)",0.48333333333333334,0.626,1,2904.93,3,0.02,same
0,439,valid,"[(1175, 788)]",[],[1],[0.6833333333333333],vertical,"(390.0, 262.0)",1.3833333333333333,0.64,1,2910.122,3,0.02,same
0,440,valid,"[(1163, 779)]",[],[1],[0.48333333333333334],horizontal,"(390.0, 262.0)",0.8833333333333333,0.445,1,2916.139,3,0.02,same
0,441,valid,"[(1194, 792)]",[],[1],[0.55],vertical,"(890.0, 762.0)",1.4666666666666666,0.504,1,2921.835,3,0.02,same
0,442,valid,"[(1160, 796)]",[],[1],[0.5333333333333333],vertical,"(390.0, 262.0)",0.6666666666666666,0.496,1,2927.829,3,0.02,same
0,443,valid,"[(1197, 798)]",[],[1],[0.5],vertical,"(890.0, 762.0)",0.36666666666666664,0.455,1,2933.406,3,0.02,same
0,444,catch,"[(1199, 781)]",[],[1],[],vertical,"(890.0, 762.0)",1.7,nan,1,2938.378,3,0.02,same
0,445,valid,"[(1196, 773)]",[],[1],[0.4666666666666667],vertical,"(390.0, 262.0)",1.2,0.427,1,2944.229,3,0.02,same
0,446,catch,"[(1180, 766)]",[],[1],[],vertical,"(890.0, 262.0)",1.7,nan,1,2949.917,3,0.02,same
0,447,invalid_adjacent_other_bar,"[(1116, 850)]",[],[1],[0.5833333333333334],vertical,"(890.0, 262.0)",1.35,0.537,1,2956.162,3,0.02,other
0,448,valid,"[(1172, 800)]",[],[1],[0.45],vertical,"(890.0, 262.0)",1.1666666666666667,0.41,1,2962.352,3,0.02,same
0,449,catch,"[(1175, 775)]",[],[1],[],horizontal,"(390.0, 762.0)",1.7,nan,1,2968.196,3,0.02,same
0,450,valid,"[(1165, 782)]",[],[1],[0.55],vertical,"(390.0, 262.0)",1.3333333333333333,0.507,1,2974.23,3,0.02,same
0,451,valid,"[(1165, 791)]",[],[1],[0.35],vertical,"(890.0, 762.0)",1.0166666666666666,0.314,1,2980.111,3,0.02,same
0,452,valid,"[(1195, 794)]",[],[1],[0.6166666666666667],vertical,"(890.0, 262.0)",1.0333333333333332,0.576,1,2986.079,3,0.02,same
0,453,catch,"[(1197, 791)]",[],[1],[],horizontal,"(890.0, 262.0)",1.7,nan,1,2991.744,3,0.02,same
0,454,valid,"[(1172, 800)]",[],[1],[0.5333333333333333],horizontal,"(890.0, 762.0)",0.7166666666666667,0.49,1,2997.896,3,0.02,same
0,455,catch,"[(1194, 795)]",[],[1],[],horizontal,"(890.0, 262.0)",1.7,nan,1,3003.878,3,0.02,same
0,456,valid,"[(1161, 796)]",[],[1],[0.7],horizontal,"(890.0, 762.0)",0.9833333333333333,0.666,1,3009.923,3,0.02,same
0,457,valid,"[(1172, 786)]",[],[1],[0.85],vertical,"(390.0, 262.0)",0.5666666666666667,nan,0,3016.429,0,0.02,same
0,458,catch,"[(1131, 795)]",[],[1],[],vertical,"(390.0, 262.0)",1.7,nan,1,3020.602,1,0.02,same
0,459,catch,"[(1171, 799)]",[],[1],[],horizontal,"(390.0, 262.0)",1.7,nan,1,3025.787,1,0.02,same
0,460,valid,"[(1193, 781)]",[],[1],[0.31666666666666665],vertical,"(390.0, 762.0)",1.0333333333333332,0.277,1,3030.774,1,0.02,same
0,461,catch,"[(1178, 785)]",[],[1],[],horizontal,"(390.0, 262.0)",1.7,nan,1,3035.514,2,0.02,same
0,462,catch,"[(1160, 795)]",[],[1],[],horizontal,"(390.0, 262.0)",1.7,nan,1,3040.831,2,0.02,same
0,463,valid,"[(1160, 776)]",[],[1],[0.5166666666666666],vertical,"(890.0, 762.0)",1.05,0.477,1,3046.287,2,0.02,same
0,464,invalid_same_bar,"[(1170, 795)]",[],[1],[],horizontal,"(390.0, 762.0)",,"('cti', 1.181)",0,3051.94,0,0.02,same
0,465,invalid_same_bar,"[(1082, 807)]",[],[1],[0.55],vertical,"(890.0, 762.0)",1.5333333333333332,0.508,1,3056.71,1,0.02,same
0,466,valid,"[(1163, 779)]",[],[1],[0.6],vertical,"(390.0, 762.0)",0.43333333333333335,0.556,1,3140.112,1,0.02,same
0,467,invalid_adjacent_other_bar,"[(1181, 795)]",[],[1],[0.5166666666666666],vertical,"(890.0, 262.0)",0.75,0.48,1,3144.845,1,0.02,other
0,468,valid,"[(1165, 778)]",[],[1],[0.5166666666666666],vertical,"(890.0, 262.0)",1.3333333333333333,0.474,1,3149.846,2,0.02,same
0,469,catch,"[(1181, 778)]",[],[1],[],vertical,"(390.0, 762.0)",1.7,nan,1,3155.795,2,0.02,same
0,470,valid,"[(1160, 782)]",[],[1],[0.6166666666666667],horizontal,"(890.0, 762.0)",1.0333333333333332,0.572,1,3161.245,2,0.02,same
0,471,catch,"[(1170, 780)]",[],[1],[],horizontal,"(890.0, 762.0)",1.7,nan,1,3166.824,3,0.02,same
0,472,catch,"[(1170, 766)]",[],[1],[],horizontal,"(890.0, 262.0)",1.7,nan,1,3172.862,3,0.02,same
0,473,valid,"[(1180, 776)]",[],[1],[0.6166666666666667],horizontal,"(890.0, 262.0)",0.4666666666666667,0.57,1,3178.928,3,0.02,same
0,474,invalid_adjacent_other_bar,"[(1180, 773)]",[],[1],[0.55],vertical,"(390.0, 762.0)",0.85,0.51,1,3183.896,3,0.0,other
0,475,valid,"[(1213, 792)]",[],[1],[0.23333333333333334],horizontal,"(390.0, 262.0)",0.8833333333333333,0.203,1,3189.663,3,0.0,same
0,476,invalid_same_bar,"[(1183, 769)]",[],[1],[0.5166666666666666],horizontal,"(390.0, 262.0)",1.0666666666666667,0.474,1,3195.295,3,0.0,same
0,477,catch,"[(1203, 748), (1115, 810)]",[],"[0, 1]",[],vertical,"(890.0, 262.0)",1.7,nan,1,3200.875,3,0.0,same
0,478,invalid_same_bar,"[(1177, 772)]",[],[1],[0.3833333333333333],vertical,"(390.0, 262.0)",1.45,0.342,1,3208.628,3,0.0,same
0,479,invalid_adjacent_other_bar,"[(1186, 764)]",[],[1],[0.6166666666666667],vertical,"(890.0, 262.0)",0.9333333333333333,0.572,1,3215.149,3,0.0,other
0,480,valid,"[(1165, 776)]",[],[1],[0.5166666666666666],horizontal,"(890.0, 762.0)",1.4,0.476,1,3221.022,3,0.0,same
0,481,valid,"[(1180, 780)]",[],[1],[0.7166666666666667],horizontal,"(890.0, 262.0)",0.6333333333333333,0.671,1,3227.188,3,0.0,same
0,482,valid,"[(1182, 775)]",[],[1],[0.8166666666666667],vertical,"(890.0, 762.0)",1.3333333333333333,0.768,1,3233.018,3,0.0,same
0,483,valid,"[(1165, 791)]",[],[1],[0.5333333333333333],horizontal,"(390.0, 762.0)",0.8166666666666667,0.492,1,3238.962,3,0.0,same
0,484,valid,"[(1183, 773)]",[],[1],[0.7333333333333333],horizontal,"(390.0, 762.0)",0.5333333333333333,0.683,1,3244.829,3,0.0,same
0,485,valid,"[(1190, 756)]",[],[1],[0.5166666666666666],vertical,"(390.0, 262.0)",0.9,0.487,1,3250.628,3,0.0,same
0,486,catch,"[(1198, 780)]",[],[1],[],vertical,"(890.0, 262.0)",1.7,nan,1,3256.346,3,0.0,same
0,487,valid,"[(1208, 772)]",[],[1],[0.85],horizontal,"(390.0, 262.0)",1.15,nan,0,3262.367,0,0.0,same
0,488,valid,"[(1168, 782)]",[],[1],[0.5],horizontal,"(890.0, 262.0)",1.3,0.467,1,3266.942,1,0.0,same
0,489,valid,"[(1182, 763)]",[],[1],[0.6],vertical,"(390.0, 762.0)",0.48333333333333334,0.555,1,3272.362,1,0.0,same
0,490,catch,"[(1185, 786)]",[],[1],[],horizontal,"(390.0, 262.0)",,"('cti', 1.636),nan",0,3276.946,0,0.02,same
0,491,valid,"[(1160, 794)]",[],[1],[0.5333333333333333],vertical,"(890.0, 762.0)",0.43333333333333335,0.492,1,3281.371,1,0.02,same
0,492,catch,"[(1171, 787)]",[],[1],[],vertical,"(890.0, 762.0)",1.7,nan,1,3288.007,1,0.02,same
0,493,valid,"[(1185, 769)]",[],[1],[0.5333333333333333],horizontal,"(890.0, 762.0)",1.3333333333333333,0.495,1,3293.172,1,0.02,same
0,494,invalid_same_bar,"[(1186, 779)]",[],[1],[0.85],vertical,"(390.0, 762.0)",0.75,nan,0,3298.468,0,0.02,same
0,495,catch,"[(1165, 777)]",[],[1],[],horizontal,"(390.0, 762.0)",1.7,nan,1,3302.846,1,0.02,same
0,496,valid,"[(1160, 789)]",[],[1],[0.55],horizontal,"(390.0, 762.0)",1.1166666666666667,0.515,1,3308.149,1,0.02,same
0,497,valid,"[(1165, 774)]",[],[1],[0.5666666666666667],vertical,"(890.0, 762.0)",1.3333333333333333,0.53,1,3312.927,1,0.02,same
0,498,catch,"[(1175, 789)]",[],[1],[],vertical,"(890.0, 262.0)",1.7,nan,1,3318.079,2,0.02,same
0,499,valid,"[(1181, 766)]",[],[1],[0.43333333333333335],horizontal,"(390.0, 762.0)",1.5166666666666666,0.398,1,3323.729,2,0.02,same
0,500,valid,"[(1185, 772)]",[],[1],[0.48333333333333334],horizontal,"(390.0, 262.0)",0.48333333333333334,0.443,1,3330.079,2,0.02,same
0,501,catch,"[(1180, 776)]",[],[1],[],horizontal,"(890.0, 762.0)",,"('cti', 1.553),nan",0,3335.279,0,0.04,same
0,502,valid,"[(1135, 793)]",[],[1],[0.48333333333333334],vertical,"(390.0, 762.0)",0.9166666666666666,0.441,1,3340.538,1,0.04,same
0,503,valid,"[(1163, 769)]",[],[1],[0.4666666666666667],vertical,"(390.0, 262.0)",1.4333333333333333,0.427,1,3345.564,1,0.04,same
0,504,valid,"[(1168, 772)]",[],[1],[0.5333333333333333],vertical,"(890.0, 262.0)",0.45,0.503,1,3350.739,1,0.04,same
0,505,valid,"[(1183, 771)]",[],[1],[0.85],vertical,"(390.0, 262.0)",0.9666666666666667,nan,0,3355.463,0,0.04,same
0,506,valid,"[(1165, 778)]",[],[1],[0.5666666666666667],vertical,"(890.0, 762.0)",0.4166666666666667,0.528,1,3360.317,1,0.04,same
0,507,valid,"[(1185, 785)]",[],[1],[0.4],horizontal,"(890.0, 262.0)",1.4833333333333334,0.359,1,3364.546,1,0.04,same
0,508,valid,"[(1167, 768)]",[],[1],[0.5833333333333334],horizontal,"(890.0, 762.0)",0.8166666666666667,0.55,1,3370.099,1,0.04,same
0,509,valid,"[(1185, 760)]",[],[1],[0.5333333333333333],vertical,"(890.0, 762.0)",1.0666666666666667,0.491,1,3375.079,2,0.04,same
0,510,valid,"[(1170, 772)]",[],[1],[0.5166666666666666],vertical,"(890.0, 262.0)",1.3166666666666667,0.471,1,3380.712,2,0.04,same
0,511,invalid_same_bar,"[(1183, 764)]",[],[1],[0.5333333333333333],vertical,"(390.0, 762.0)",1.4333333333333333,0.492,1,3386.609,2,0.04,same
0,512,catch,"[(1178, 762)]",[],[1],[],vertical,"(890.0, 762.0)",1.7,nan,1,3392.464,3,0.04,same
0,513,valid,"[(1170, 770)]",[],[1],[0.6166666666666667],vertical,"(390.0, 262.0)",1.4333333333333333,0.573,1,3398.839,3,0.04,same
0,514,catch,"[(1206, 784)]",[],[1],[],horizontal,"(890.0, 262.0)",1.7,nan,1,3405.244,3,0.04,same
0,515,catch,"[(1209, 782)]",[],[1],[],horizontal,"(390.0, 262.0)",1.7,nan,1,3411.621,3,0.04,same
0,516,valid,"[(1191, 766)]",[],[1],[0.55],horizontal,"(890.0, 762.0)",1.1333333333333333,0.508,1,3417.479,3,0.04,same
0,517,invalid_same_bar,"[(1186, 758)]",[],[1],[0.5333333333333333],horizontal,"(390.0, 762.0)",1.4,0.493,1,3423.829,3,0.04,same
0,518,valid,"[(1165, 777)]",[],[1],[0.48333333333333334],vertical,"(890.0, 762.0)",0.85,0.45,1,3430.362,3,0.04,same
0,519,valid,"[(1200, 794)]",[],[1],[0.4666666666666667],horizontal,"(890.0, 262.0)",0.6833333333333333,0.427,1,3436.415,3,0.04,same
0,520,catch,"[(1175, 799)]",[],[1],[],vertical,"(890.0, 762.0)",1.7,nan,1,3441.479,3,0.04,same
0,521,valid,"[(1179, 802)]",[],[1],[0.55],vertical,"(390.0, 262.0)",0.4166666666666667,0.512,1,3447.396,3,0.04,same
0,522,valid,"[(1190, 803)]",[],[1],[0.45],horizontal,"(890.0, 762.0)",1.5,0.409,1,3453.174,3,0.04,same
0,523,invalid_same_bar,"[(1170, 771)]",[],[1],[0.5333333333333333],vertical,"(390.0, 262.0)",0.8166666666666667,0.49,1,3459.649,3,0.04,same
0,524,valid,"[(1153, 764)]",[],[1],[0.5166666666666666],horizontal,"(390.0, 762.0)",1.1333333333333333,0.471,1,3465.095,3,0.04,same
0,525,valid,"[(1179, 796)]",[],[1],[0.5333333333333333],horizontal,"(890.0, 762.0)",0.5166666666666666,0.494,1,3471.439,3,0.04,same
0,526,valid,"[(1190, 793)]",[],[1],[0.65],vertical,"(890.0, 762.0)",0.65,0.607,1,3477.11,3,0.04,same
0,527,catch,"[(1183, 777)]",[],[1],[],horizontal,"(390.0, 262.0)",1.7,nan,1,3482.461,3,0.04,same
0,528,valid,"[(1175, 793)]",[],[1],[0.85],horizontal,"(390.0, 262.0)",0.48333333333333334,nan,0,3488.829,0,0.04,same
0,529,valid,"[(1160, 796)]",[],[1],[0.5666666666666667],vertical,"(390.0, 762.0)",0.6166666666666667,0.526,1,3493.228,1,0.04,same
0,530,valid,"[(1195, 776)]",[],[1],[0.3333333333333333],vertical,"(890.0, 262.0)",1.3166666666666667,0.292,1,3498.57,1,0.04,same
0,531,catch,"[(1210, 758)]",[],[1],[],horizontal,"(890.0, 762.0)",1.7,nan,1,3503.647,1,0.04,same
0,532,catch,"[(1209, 776)]",[],[1],[],horizontal,"(390.0, 762.0)",1.7,nan,1,3508.68,2,0.04,same
0,533,catch,"[(1178, 792)]",[],[1],[],vertical,"(390.0, 762.0)",1.7,nan,1,3514.68,2,0.04,same
0,534,catch,"[(1180, 756)]",[],[1],[],vertical,"(390.0, 262.0)",1.7,nan,1,3520.238,2,0.04,same
0,535,valid,"[(1204, 786)]",[],[1],[0.5333333333333333],horizontal,"(890.0, 262.0)",0.9166666666666666,0.494,1,3526.33,3,0.04,same
0,536,valid,"[(1180, 766)]",[],[1],[0.55],horizontal,"(390.0, 762.0)",1.0166666666666666,0.504,1,3532.176,3,0.04,same
0,537,valid,"[(1163, 755)]",[],[1],[0.65],vertical,"(890.0, 762.0)",1.2666666666666666,0.616,1,3538.447,3,0.04,same
0,538,invalid_adjacent_other_bar,"[(1185, 786)]",[],[1],[0.6833333333333333],vertical,"(890.0, 762.0)",1.3166666666666667,0.649,1,3544.619,3,0.04,other
0,539,valid,"[(1178, 765)]",[],[1],[0.5333333333333333],horizontal,"(890.0, 262.0)",1.4666666666666666,0.495,1,3550.88,3,0.04,same
0,540,catch,"[(1181, 777)]",[],[1],[],horizontal,"(890.0, 262.0)",1.7,nan,1,3557.156,3,0.02,same
0,541,valid,"[(1180, 793)]",[],[1],[0.48333333333333334],vertical,"(390.0, 262.0)",1.5333333333333332,0.442,1,3563.333,3,0.02,same
0,542,valid,"[(1180, 777)]",[],[1],[0.5333333333333333],horizontal,"(890.0, 762.0)",1.3,0.497,1,3569.58,3,0.02,same
0,543,valid,"[(1180, 767)]",[],[1],[0.5],vertical,"(890.0, 762.0)",0.55,0.46,1,3576.048,3,0.02,same
0,544,catch,"[(1175, 789)]",[],[1],[],horizontal,"(390.0, 262.0)",1.7,nan,1,3581.547,3,0.02,same
0,545,valid,"[(1165, 791)]",[],[1],[0.5833333333333334],horizontal,"(390.0, 762.0)",0.75,0.542,1,3587.586,3,0.02,same
0,546,valid,"[(1185, 789)]",[],[1],[0.4666666666666667],vertical,"(890.0, 262.0)",0.9666666666666667,0.432,1,3593.38,3,0.02,same
0,547,invalid_same_bar,"[(1180, 766)]",[],[1],[0.55],vertical,"(390.0, 262.0)",0.4,0.509,1,3598.988,3,0.02,same
0,548,valid,"[(1180, 786)]",[],[1],[0.6666666666666666],vertical,"(390.0, 762.0)",0.36666666666666664,0.622,1,3604.541,3,0.02,same
0,549,valid,"[(1180, 788)]",[],[1],[0.5333333333333333],horizontal,"(390.0, 762.0)",0.6666666666666666,0.501,1,3609.876,3,0.02,same
0,550,catch,"[(1173, 794)]",[],[1],[],horizontal,"(890.0, 262.0)",1.7,nan,1,3615.629,3,0.02,same
0,551,valid,"[(1210, 791)]",[],[1],[0.5833333333333334],horizontal,"(390.0, 762.0)",0.5666666666666667,0.538,1,3621.862,3,0.0,same
0,552,invalid_same_bar,"[(1180, 789)]",[],[1],[0.5333333333333333],horizontal,"(390.0, 762.0)",1.25,0.487,1,3627.375,3,0.0,same
0,553,valid,"[(1187, 791)]",[],[1],[0.55],horizontal,"(390.0, 262.0)",1.4666666666666666,0.506,1,3633.597,3,0.0,same
0,554,catch,"[(1179, 796)]",[],[1],[],vertical,"(890.0, 262.0)",,"('cti', 1.645),nan",0,3639.88,0,0.02,same
0,555,valid,"[(1161, 786)]",[],[1],[0.4666666666666667],horizontal,"(890.0, 262.0)",1.3666666666666667,0.431,1,3644.912,1,0.02,same
0,556,valid,"[(1170, 747), (1125, 799)]",[],"[0, 1]",[0.5833333333333334],vertical,"(890.0, 762.0)",0.9166666666666666,0.54,1,3650.679,1,0.02,same
0,557,valid,"[(1195, 778)]",[],[1],[0.6166666666666667],vertical,"(890.0, 262.0)",1.0833333333333333,0.572,1,3657.602,1,0.02,same
0,558,valid,"[(1210, 772)]",[],[1],[0.6],horizontal,"(890.0, 762.0)",0.6333333333333333,0.557,1,3662.632,2,0.02,same
0,559,valid,"[(1175, 771)]",[],[1],[0.5333333333333333],horizontal,"(890.0, 762.0)",0.7333333333333333,0.496,1,3667.897,2,0.02,same
0,560,valid,"[(1175, 782)]",[],[1],[0.48333333333333334],horizontal,"(390.0, 262.0)",0.9333333333333333,0.446,1,3673.23,2,0.02,same
0,561,valid,"[(1179, 790)]",[],[1],[0.48333333333333334],horizontal,"(390.0, 262.0)",1.4666666666666666,0.448,1,3678.764,3,0.02,same
0,562,valid,"[(1170, 791)]",[],[1],[0.5166666666666666],vertical,"(890.0, 262.0)",1.35,0.474,1,3685.161,3,0.02,same
0,563,valid,"[(1179, 774)]",[],[1],[0.55],horizontal,"(890.0, 762.0)",1.0,0.505,1,3691.164,3,0.02,same
0,564,valid,"[(1175, 784)]",[],[1],[0.6333333333333333],vertical,"(390.0, 262.0)",1.3333333333333333,0.592,1,3697.164,3,0.02,same
0,565,valid,"[(1180, 777)]",[],[1],[0.5],horizontal,"(890.0, 262.0)",0.8,0.457,1,3703.613,3,0.02,same
0,566,invalid_same_bar,"[(1170, 747), (1117, 803)]",[],"[0, 1]",[0.6],horizontal,"(890.0, 262.0)",0.8,0.558,1,3709.013,3,0.02,same
0,567,valid,"[(1210, 764)]",[],[1],[0.55],horizontal,"(390.0, 762.0)",1.3166666666666667,0.511,1,3716.296,3,0.02,same
0,568,catch,"[(1175, 789)]",[],[1],[],horizontal,"(890.0, 762.0)",1.7,nan,1,3722.346,3,0.02,same
0,569,valid,"[(1170, 789)]",[],[1],[0.5333333333333333],vertical,"(390.0, 762.0)",0.9666666666666667,0.491,1,3728.099,3,0.02,same
0,570,valid,"[(1185, 766)]",[],[1],[0.6],horizontal,"(890.0, 262.0)",1.15,0.56,1,3734.263,3,0.02,same
0,571,invalid_adjacent_other_bar,"[(1174, 766)]",[],[1],[0.7166666666666667],vertical,"(890.0, 262.0)",0.8166666666666667,0.669,1,3740.524,3,0.02,other
0,572,valid,"[(1165, 796)]",[],[1],[0.85],horizontal,"(890.0, 262.0)",0.5,nan,0,3746.063,0,0.02,same
0,573,catch,"[(1168, 772)]",[],[1],[],horizontal,"(390.0, 262.0)",1.7,nan,1,3750.247,1,0.02,same
0,574,valid,"[(1171, 761)]",[],[1],[0.18333333333333332],horizontal,"(890.0, 762.0)",1.5166666666666666,0.152,0,3756.705,0,0.02,same
0,575,valid,"[(1150, 791)]",[],[1],[0.5833333333333334],vertical,"(390.0, 262.0)",1.1333333333333333,0.544,1,3761.714,1,0.02,same
0,576,valid,"[(1175, 771)]",[],[1],[0.5666666666666667],horizontal,"(890.0, 262.0)",0.8666666666666667,0.526,1,3767.124,1,0.02,same
0,577,catch,"[(1165, 756)]",[],[1],[],horizontal,"(890.0, 762.0)",,"('cti', 0.655),nan",0,3772.347,0,0.04,same
0,578,valid,"[(1150, 796)]",[],[1],[0.6333333333333333],horizontal,"(890.0, 262.0)",1.4333333333333333,0.586,1,3776.346,1,0.04,same
0,579,catch,"[(1160, 771)]",[],[1],[],horizontal,"(390.0, 762.0)",1.7,nan,1,3781.897,1,0.04,same
0,580,valid,"[(1175, 784)]",[],[1],[0.7333333333333333],vertical,"(390.0, 262.0)",1.1333333333333333,0.693,1,3787.034,1,0.04,same
0,581,valid,"[(1170, 776)]",[],[1],[0.6166666666666667],vertical,"(890.0, 262.0)",1.3166666666666667,0.572,1,3792.428,2,0.04,same
0,582,valid,"[(1176, 775)]",[],[1],[0.5833333333333334],horizontal,"(390.0, 262.0)",1.2666666666666666,0.549,1,3797.867,2,0.04,same
0,583,valid,"[(1170, 772)]",[],[1],[0.7166666666666667],vertical,"(390.0, 762.0)",0.85,0.673,1,3803.311,2,0.04,same
0,584,catch,"[(1175, 792)]",[],[1],[],horizontal,"(890.0, 262.0)",1.7,nan,1,3809.026,3,0.04,same
0,585,invalid_same_bar,"[(1170, 763)]",[],[1],[0.5333333333333333],horizontal,"(890.0, 762.0)",1.3,0.492,1,3815.379,3,0.04,same
0,586,valid,"[(1177, 786)]",[],[1],[0.45],horizontal,"(890.0, 262.0)",1.5166666666666666,0.41,1,3821.842,3,0.04,same
0,587,invalid_same_bar,"[(1182, 788)]",[],[1],[0.55],horizontal,"(890.0, 262.0)",0.55,0.508,1,3828.237,3,0.04,same
0,588,catch,"[(1208, 777)]",[],[1],[],vertical,"(390.0, 762.0)",1.7,nan,1,3833.229,3,0.04,same
0,589,catch,"[(1192, 773)]",[],[1],[],vertical,"(390.0, 762.0)",1.7,nan,1,3839.144,3,0.04,same
0,590,valid,"[(1177, 776)]",[],[1],[0.45],horizontal,"(890.0, 262.0)",1.1,0.415,1,3845.159,3,0.04,same
0,591,valid,"[(1180, 784)]",[],[1],[0.55],vertical,"(890.0, 762.0)",1.2333333333333334,0.509,1,3851.33,3,0.04,same
0,592,catch,"[(1195, 761)]",[],[1],[],vertical,"(390.0, 262.0)",1.7,nan,1,3857.733,3,0.04,same
0,593,valid,"[(1175, 790)]",[],[1],[0.7333333333333333],horizontal,"(890.0, 262.0)",0.4,0.687,1,3863.654,3,0.04,same
0,594,valid,"[(1194, 775)]",[],[1],[0.7],horizontal,"(390.0, 762.0)",0.95,0.662,1,3869.382,3,0.04,same
0,595,catch,"[(1174, 765)]",[],[1],[],horizontal,"(390.0, 262.0)",1.7,nan,1,3875.238,3,0.04,same
0,596,valid,"[(1181, 772)]",[],[1],[0.5333333333333333],vertical,"(890.0, 262.0)",0.9,0.494,1,3881.402,3,0.04,same
0,597,valid,"[(1180, 774)]",[],[1],[0.6],horizontal,"(390.0, 262.0)",1.05,0.554,1,3887.377,3,0.04,same
0,598,valid,"[(1214, 794)]","[(1175, 805)]",[1],[0.05],vertical,"(390.0, 762.0)",,"('bar', 0.066)",0,3893.614,0,0.04,same
0,599,valid,"[(1138, 793)]",[],[1],[0.5],horizontal,"(390.0, 262.0)",0.8833333333333333,0.461,1,3895.868,1,0.04,same
0,600,valid,"[(1160, 750), (1123, 806)]",[],"[0, 1]",[0.85],vertical,"(390.0, 262.0)",0.9166666666666666,nan,0,3900.713,0,0.04,same
0,601,valid,"[(1143, 774)]",[],[1],[0.6666666666666666],horizontal,"(390.0, 262.0)",0.4,0.623,1,3907.086,1,0.04,same
0,602,catch,"[(1178, 774)]",[],[1],[],horizontal,"(390.0, 762.0)",1.7,nan,1,3911.701,1,0.04,same
0,603,valid,"[(1212, 752), (1121, 819)]",[],"[0, 1]",[0.6],horizontal,"(890.0, 762.0)",1.1666666666666667,0.558,1,3916.93,1,0.04,same
0,604,catch,"[(1172, 801)]",[],[1],[],horizontal,"(390.0, 262.0)",1.7,nan,1,3923.543,2,0.02,same
0,605,invalid_adjacent_other_bar,"[(1180, 792)]",[],[1],[0.8166666666666667],vertical,"(890.0, 762.0)",1.0,0.773,1,3928.899,2,0.02,other
0,606,invalid_adjacent_other_bar,"[(1170, 795)]",[],[1],[0.5166666666666666],vertical,"(890.0, 262.0)",0.5,0.474,1,3934.713,2,0.02,other
0,607,catch,"[(1171, 798)]",[],[1],[],vertical,"(390.0, 262.0)",1.7,nan,1,3939.713,3,0.02,same
0,608,valid,"[(1180, 808)]",[],[1],[0.85],horizontal,"(890.0, 262.0)",0.7,nan,0,3945.791,0,0.02,same
0,609,valid,"[(1160, 761)]",[],[1],[0.6],vertical,"(390.0, 762.0)",1.5333333333333332,0.562,1,3950.531,1,0.02,same
0,610,catch,"[(1176, 787)]",[],[1],[],horizontal,"(890.0, 762.0)",1.7,nan,1,3956.052,1,0.02,same
0,611,valid,"[(1180, 753), (1126, 811)]",[],"[0, 1]",[0.85],horizontal,"(390.0, 762.0)",1.45,nan,0,3961.146,0,0.02,same
0,612,valid,"[(1146, 786)]",[],[1],[0.5666666666666667],horizontal,"(890.0, 262.0)",1.25,0.524,1,3967.889,1,0.02,same
0,613,valid,"[(1180, 790)]",[],[1],[0.5166666666666666],vertical,"(390.0, 262.0)",1.25,0.473,1,3972.844,1,0.02,same
0,614,invalid_adjacent_other_bar,"[(1176, 791)]",[],[1],[0.85],vertical,"(390.0, 262.0)",0.9666666666666667,nan,0,3977.827,0,0.02,other
0,615,valid,"[(1160, 791)]",[],[1],[0.6333333333333333],vertical,"(390.0, 762.0)",1.3333333333333333,0.6,1,3983.028,1,0.02,same
0,616,valid,"[(1180, 759)]",[],[1],[0.5],vertical,"(890.0, 762.0)",0.7833333333333333,0.465,1,3988.827,1,0.02,same
0,617,valid,"[(1165, 787)]",[],[1],[0.5666666666666667],vertical,"(390.0, 262.0)",1.5,0.524,1,3993.491,1,0.02,same
0,618,valid,"[(1178, 793)]",[],[1],[0.2],horizontal,"(390.0, 262.0)",1.2,0.17,0,3998.832,0,0.02,same
0,619,valid,"[(1160, 792)]",[],[1],[0.5333333333333333],horizontal,"(890.0, 762.0)",0.6666666666666666,0.499,1,4003.482,1,0.02,same
0,620,invalid_same_bar,"[(1175, 752), (1120, 811)]",[],"[0, 1]",[0.7],horizontal,"(390.0, 762.0)",1.2833333333333332,0.664,1,4008.461,1,0.02,same
0,621,invalid_adjacent_other_bar,"[(1165, 786)]",[],[1],[0.6],horizontal,"(390.0, 762.0)",1.3833333333333333,0.557,1,4015.255,1,0.02,other
0,622,valid,"[(1170, 776)]",[],[1],[],vertical,"(890.0, 262.0)",,"('fix', 0.2)",0,4020.578,0,0.02,same
0,623,valid,"[(1135, 825)]",[],[1],[0.65],horizontal,"(390.0, 762.0)",1.3666666666666667,0.617,1,4022.117,1,0.02,same
0,624,valid,"[(1140, 805)]",[],[1],[0.6],horizontal,"(390.0, 262.0)",1.0,0.566,1,4027.915,1,0.02,same
0,625,valid,"[(1175, 755)]",[],[1],[0.5833333333333334],vertical,"(890.0, 262.0)",1.15,0.552,1,4032.928,1,0.02,same
0,626,valid,"[(1163, 792)]",[],[1],[0.5333333333333333],vertical,"(890.0, 762.0)",1.0166666666666666,0.496,1,4038.299,2,0.02,same
0,627,valid,"[(1165, 778)]",[],[1],[0.65],vertical,"(390.0, 762.0)",1.4,0.616,1,4043.845,2,0.0,same
0,628,valid,"[(1166, 765)]",[],[1],[0.6],vertical,"(890.0, 762.0)",1.2666666666666666,0.566,1,4050.036,2,0.0,same
0,629,catch,"[(1183, 789)]",[],[1],[],vertical,"(890.0, 262.0)",1.7,nan,1,4055.896,3,0.0,same
0,630,valid,"[(1185, 791)]",[],[1],[0.5166666666666666],vertical,"(890.0, 262.0)",1.5166666666666666,0.474,1,4062.115,3,0.0,same
0,631,invalid_adjacent_other_bar,"[(1168, 773)]",[],[1],[0.55],horizontal,"(390.0, 762.0)",0.8666666666666667,0.504,1,4068.446,3,0.0,other
0,632,catch,"[(1160, 791)]",[],[1],[],vertical,"(890.0, 762.0)",1.7,nan,1,4074.296,3,0.0,same
0,633,catch,"[(1170, 776)]",[],[1],[],horizontal,"(390.0, 762.0)",1.7,nan,1,4080.414,3,0.0,same
0,634,valid,"[(1183, 768)]",[],[1],[0.55],horizontal,"(890.0, 262.0)",1.15,0.504,1,4086.296,3,0.0,same
0,635,catch,"[(1172, 782)]",[],[1],[],vertical,"(390.0, 762.0)",1.7,nan,1,4092.001,3,0.0,same
0,636,valid,"[(1195, 786)]",[],[1],[0.55],horizontal,"(390.0, 262.0)",1.0166666666666666,0.504,1,4098.069,3,0.0,same
0,637,valid,"[(1180, 781)]",[],[1],[0.6333333333333333],vertical,"(390.0, 762.0)",0.65,0.585,1,4104.03,3,0.0,same
0,638,valid,"[(1184, 774)]",[],[1],[0.7],vertical,"(890.0, 762.0)",0.6666666666666666,0.654,1,4109.808,3,0.0,same
0,639,valid,"[(1165, 790)]",[],[1],[0.6166666666666667],vertical,"(390.0, 762.0)",0.95,0.573,1,4115.143,3,0.0,same
0,640,valid,"[(1166, 785)]",[],[1],[0.7833333333333333],vertical,"(890.0, 762.0)",0.6,0.734,1,4121.481,3,0.0,same
0,641,catch,"[(1190, 791)]",[],[1],[],horizontal,"(890.0, 762.0)",1.7,nan,1,4127.246,3,0.0,same
0,642,valid,"[(1165, 782)]",[],[1],[0.85],horizontal,"(890.0, 762.0)",0.5666666666666667,nan,0,4133.147,0,0.0,same
0,643,valid,"[(1110, 821)]",[],[1],[0.85],horizontal,"(390.0, 262.0)",0.35,nan,0,4137.67,0,0.0,same
0,644,valid,"[(1115, 823)]",[],[1],[0.6166666666666667],vertical,"(390.0, 762.0)",0.3833333333333333,0.578,1,4310.481,1,0.0,same
0,645,catch,"[(1160, 791)]",[],[1],[],vertical,"(390.0, 262.0)",1.7,nan,1,4315.357,1,0.0,same
0,646,valid,"[(1180, 777)]",[],[1],[0.5166666666666666],vertical,"(390.0, 262.0)",0.3833333333333333,0.472,1,4320.814,1,0.0,same
0,647,invalid_adjacent_other_bar,"[(1172, 785)]",[],[1],[0.5],vertical,"(390.0, 762.0)",1.3833333333333333,0.462,1,4325.315,2,0.0,other
0,648,valid,"[(1175, 813)]",[],[1],[0.5333333333333333],horizontal,"(890.0, 762.0)",0.9166666666666666,0.494,1,4331.247,2,0.0,same
0,649,valid,"[(1180, 786)]",[],[1],[0.23333333333333334],vertical,"(890.0, 262.0)",1.4333333333333333,0.195,0,4336.964,0,0.0,same
0,650,catch,"[(1160, 809)]",[],[1],[],horizontal,"(890.0, 762.0)",,"('cti', 1.099),nan",0,4341.993,0,0.02,same
0,651,valid,"[(1158, 813)]",[],[1],[0.48333333333333334],vertical,"(890.0, 762.0)",0.8666666666666667,0.442,1,4346.428,1,0.02,same
0,652,valid,"[(1200, 792)]",[],[1],[0.7833333333333333],horizontal,"(390.0, 762.0)",0.85,0.738,1,4352.881,1,0.02,same
0,653,valid,"[(1204, 791)]",[],[1],[0.48333333333333334],vertical,"(890.0, 762.0)",1.0833333333333333,0.446,1,4357.905,1,0.02,same
0,654,catch,"[(1175, 774)]",[],[1],[],vertical,"(390.0, 262.0)",1.7,nan,1,4363.301,2,0.02,same
0,655,catch,"[(1183, 781)]",[],[1],[],vertical,"(890.0, 262.0)",1.7,nan,1,4369.03,2,0.02,same
0,656,catch,"[(1183, 772)]",[],[1],[],horizontal,"(390.0, 262.0)",1.7,nan,1,4375.143,2,0.02,same
0,657,invalid_adjacent_other_bar,"[(1204, 801)]",[],[1],[0.48333333333333334],horizontal,"(890.0, 262.0)",0.5666666666666667,0.445,1,4380.731,3,0.02,other
0,658,valid,"[(1160, 817)]",[],[1],[0.85],horizontal,"(390.0, 762.0)",0.4166666666666667,nan,0,4385.979,0,0.02,same
0,659,valid,"[(1115, 807)]",[],[1],[0.6333333333333333],horizontal,"(390.0, 762.0)",1.35,0.596,1,4390.867,1,0.02,same
0,660,catch,"[(1208, 785)]",[],[1],[],horizontal,"(890.0, 262.0)",1.7,nan,1,4397.732,1,0.02,same
0,661,catch,"[(1137, 781)]",[],[1],[],horizontal,"(890.0, 262.0)",1.7,nan,1,4403.247,1,0.02,same
0,662,valid,"[(1110, 832)]",[],[1],[0.8],horizontal,"(390.0, 762.0)",1.2,0.766,1,4408.384,2,0.02,same
0,663,valid,"[(1136, 809)]",[],[1],[0.6],vertical,"(390.0, 262.0)",0.8,0.555,1,4736.198,2,0.02,same
0,664,valid,"[(1165, 803)]",[],[1],[0.85],horizontal,"(890.0, 762.0)",0.7,nan,0,4741.39,0,0.02,same
0,665,valid,"[(1131, 825)]",[],[1],[0.85],horizontal,"(390.0, 262.0)",1.5,nan,0,4745.782,0,0.02,same
0,666,valid,"[(1141, 807)]",[],[1],[0.6333333333333333],horizontal,"(890.0, 762.0)",0.8333333333333334,0.595,1,4755.147,1,0.02,same
0,667,valid,"[(1134, 786)]",[],[1],[0.5833333333333334],horizontal,"(890.0, 262.0)",0.7333333333333333,0.542,1,4760.036,1,0.02,same
0,668,valid,"[(1197, 812)]",[],[1],[0.55],vertical,"(890.0, 762.0)",0.85,0.507,1,4788.048,1,0.02,same
0,669,valid,"[(1164, 809)]",[],[1],[0.48333333333333334],horizontal,"(390.0, 262.0)",0.6833333333333333,0.447,1,4792.974,2,0.02,same
0,670,valid,"[(1182, 781)]",[],[1],[0.55],horizontal,"(390.0, 262.0)",1.1,0.51,1,4798.188,2,0.02,same
0,671,invalid_same_bar,"[(1180, 784)]",[],[1],[0.48333333333333334],horizontal,"(890.0, 762.0)",1.0666666666666667,0.445,1,4803.432,2,0.02,same
0,672,valid,"[(1165, 785)]",[],[1],[0.5333333333333333],horizontal,"(890.0, 262.0)",0.7833333333333333,0.494,1,4808.757,3,0.02,same
0,673,valid,"[(1200, 769)]",[],[1],[0.7166666666666667],vertical,"(890.0, 762.0)",0.7,0.668,1,4814.09,3,0.02,same
0,674,valid,"[(1183, 798)]",[],[1],[0.5666666666666667],horizontal,"(390.0, 262.0)",1.1666666666666667,0.525,1,4819.721,3,0.02,same
0,675,catch,"[(1170, 793)]",[],[1],[],horizontal,"(390.0, 762.0)",1.7,nan,1,4825.989,3,0.02,same
0,676,valid,"[(1208, 783)]","[(1098, 875)]",[1],[1.0],vertical,"(890.0, 262.0)",,"('bar', 0.996)",0,4831.783,0,0.02,same
0,677,invalid_adjacent_other_bar,"[(1154, 778)]",[],[1],[0.55],vertical,"(890.0, 262.0)",0.6666666666666666,0.508,1,4834.731,1,0.02,other
0,678,valid,"[(1174, 777)]",[],[1],[0.5666666666666667],horizontal,"(890.0, 762.0)",0.7,0.528,1,4839.547,1,0.02,same
0,679,valid,"[(1180, 785)]",[],[1],[0.5166666666666666],horizontal,"(890.0, 262.0)",1.15,0.476,1,4843.858,1,0.02,same
0,680,valid,"[(1190, 797)]",[],[1],[0.48333333333333334],horizontal,"(890.0, 262.0)",0.7166666666666667,0.447,1,4848.928,2,0.02,same
0,681,valid,"[(1178, 787)]",[],[1],[0.31666666666666665],vertical,"(390.0, 262.0)",1.1333333333333333,0.28,1,4853.797,2,0.02,same
0,682,valid,"[(1164, 778)]",[],[1],[0.6166666666666667],horizontal,"(390.0, 762.0)",1.5,0.572,1,4859.331,2,0.02,same
0,683,valid,"[(1168, 782)]",[],[1],[0.48333333333333334],horizontal,"(890.0, 762.0)",0.45,0.443,1,4864.965,3,0.02,same
0,684,catch,"[(1178, 776)]",[],[1],[],vertical,"(390.0, 762.0)",1.7,nan,1,4870.133,3,0.02,same
0,685,valid,"[(1179, 762)]",[],[1],[0.2],vertical,"(390.0, 762.0)",1.2,0.169,0,4876.473,0,0.02,same
0,686,valid,"[(1158, 767)]",[],[1],[0.5166666666666666],vertical,"(890.0, 762.0)",0.85,0.48,1,4881.166,1,0.02,same
0,687,catch,"[(1176, 786)]",[],[1],[],vertical,"(890.0, 762.0)",1.7,nan,1,4886.367,1,0.02,same
0,688,valid,"[(1201, 781)]",[],[1],[0.85],vertical,"(390.0, 762.0)",0.6666666666666666,nan,0,4891.364,0,0.02,same
0,689,valid,"[(1162, 782)]",[],[1],[0.5166666666666666],vertical,"(890.0, 762.0)",1.3166666666666667,0.479,1,4895.616,1,0.02,same
0,690,valid,"[(1207, 784)]",[],[1],[0.5],vertical,"(390.0, 262.0)",0.4666666666666667,0.456,1,4900.949,1,0.02,same
0,691,valid,"[(1162, 821)]",[],[1],[0.48333333333333334],horizontal,"(390.0, 262.0)",1.2333333333333334,0.443,1,4905.282,1,0.02,same
0,692,valid,"[(1178, 784)]",[],[1],[0.48333333333333334],vertical,"(890.0, 762.0)",0.5333333333333333,0.442,1,4910.782,2,0.02,same
0,693,invalid_same_bar,"[(1178, 808)]",[],[1],[0.48333333333333334],vertical,"(890.0, 262.0)",0.36666666666666664,0.443,1,4916.031,2,0.02,same
0,694,valid,"[(1164, 782)]",[],[1],[0.6666666666666666],horizontal,"(390.0, 262.0)",1.1,0.623,1,4921.311,2,0.02,same
0,695,valid,"[(1180, 773)]",[],[1],[0.45],vertical,"(390.0, 262.0)",1.3166666666666667,0.411,1,4926.911,3,0.02,same
0,696,valid,"[(1165, 786)]",[],[1],[0.5166666666666666],vertical,"(390.0, 262.0)",0.7833333333333333,0.475,1,4933.092,3,0.02,same
0,697,valid,"[(1176, 776)]",[],[1],[0.6],horizontal,"(390.0, 762.0)",1.0166666666666666,0.56,1,4938.665,3,0.02,same
0,698,valid,"[(1178, 777)]",[],[1],[0.6166666666666667],horizontal,"(890.0, 262.0)",0.8166666666666667,0.57,1,4944.416,3,0.02,same
0,699,invalid_adjacent_other_bar,"[(1204, 785)]",[],[1],[0.55],horizontal,"(390.0, 262.0)",0.75,0.507,1,4949.731,3,0.02,other
0,700,catch,"[(1165, 776)]",[],[1],[],vertical,"(890.0, 762.0)",1.7,nan,1,4955.43,3,0.0,same
0,701,invalid_same_bar,"[(1136, 802)]",[],[1],[0.3833333333333333],horizontal,"(390.0, 762.0)",1.2833333333333332,0.343,1,4961.799,3,0.0,same
0,702,valid,"[(1172, 793)]",[],[1],[0.15],horizontal,"(390.0, 762.0)",1.4833333333333334,0.118,0,4968.411,0,0.0,same
0,703,valid,"[(1121, 836)]",[],[1],[0.5],horizontal,"(390.0, 262.0)",1.1,0.461,1,4972.907,1,0.0,same
0,704,valid,"[(1095, 795)]",[],[1],[0.5666666666666667],horizontal,"(890.0, 762.0)",0.7,0.523,1,4978.322,1,0.0,same
0,705,invalid_same_bar,"[(1163, 807)]",[],[1],[0.5666666666666667],vertical,"(890.0, 262.0)",1.0666666666666667,0.525,1,4998.499,1,0.0,same
0,706,valid,"[(1175, 772)]",[],[1],[0.48333333333333334],vertical,"(390.0, 262.0)",0.4666666666666667,0.442,1,5003.787,2,0.0,same
0,707,valid,"[(1121, 811)]",[],[1],[0.5166666666666666],horizontal,"(890.0, 762.0)",1.0166666666666666,0.476,1,5008.421,2,0.0,same
0,708,valid,"[(1116, 808)]",[],[1],[0.4666666666666667],vertical,"(890.0, 762.0)",1.5,0.424,1,5014.032,2,0.0,same
0,709,valid,"[(1177, 779)]",[],[1],[],vertical,"(890.0, 262.0)",,"('cti', 0.91)",0,5020.599,0,0.0,same
0,710,invalid_adjacent_other_bar,"[(1163, 751), (1124, 770)]",[],"[0, 1]",[0.4],vertical,"(890.0, 262.0)",1.4,0.36,1,5024.364,1,0.0,other
0,711,catch,"[(1185, 786)]",[],[1],[],vertical,"(890.0, 762.0)",1.7,nan,1,5031.324,1,0.0,same
0,712,catch,"[(1178, 791)]",[],[1],[],horizontal,"(890.0, 762.0)",1.7,nan,1,5036.342,1,0.0,same
0,713,catch,"[(1175, 805)]",[],[1],[],horizontal,"(390.0, 762.0)",1.7,nan,1,5041.005,2,0.0,same
0,714,invalid_same_bar,"[(1170, 809)]",[],[1],[0.6],horizontal,"(890.0, 262.0)",1.45,0.553,1,5046.132,2,0.0,same
0,715,catch,"[(1177, 796)]",[],[1],[],vertical,"(390.0, 262.0)",,"('cti', 1.489),nan",0,5051.978,0,0.02,same
0,716,valid,"[(1177, 773)]",[],[1],[0.48333333333333334],vertical,"(890.0, 762.0)",1.3,0.439,1,5056.514,1,0.02,same
0,717,valid,"[(1204, 791)]",[],[1],[0.5],vertical,"(890.0, 262.0)",0.6166666666666667,0.461,1,5061.931,1,0.02,same
0,718,catch,"[(1187, 783)]",[],[1],[],horizontal,"(890.0, 262.0)",1.7,nan,1,5066.506,1,0.02,same
0,719,catch,"[(1201, 797)]",[],[1],[],vertical,"(390.0, 762.0)",1.7,nan,1,5071.978,2,0.02,same
0,720,invalid_adjacent_other_bar,"[(1179, 790)]",[],[1],[0.08333333333333333],vertical,"(390.0, 762.0)",1.4833333333333334,0.051,0,5077.753,0,0.02,other
0,721,invalid_adjacent_other_bar,"[(1096, 820)]",[],[1],[0.6166666666666667],vertical,"(390.0, 762.0)",0.7,0.576,1,5081.871,1,0.02,other
0,722,invalid_adjacent_other_bar,"[(1152, 801)]",[],[1],[0.6],vertical,"(390.0, 262.0)",1.1,0.555,1,7187.427,1,0.02,other
0,723,valid,"[(1176, 784)]",[],[1],[0.7166666666666667],vertical,"(390.0, 762.0)",0.3833333333333333,0.676,1,7192.585,1,0.02,same
0,724,valid,"[(1175, 790)]",[],[1],[0.7],horizontal,"(390.0, 762.0)",1.25,0.654,1,7197.303,2,0.02,same
0,725,valid,"[(1200, 809)]",[],[1],[0.7166666666666667],horizontal,"(390.0, 762.0)",1.05,0.671,1,7202.969,2,0.02,same
0,726,valid,"[(1175, 776)]",[],[1],[0.5833333333333334],vertical,"(890.0, 762.0)",1.1833333333333333,0.54,1,7209.019,2,0.02,same
0,727,catch,"[(1175, 778)]",[],[1],[],horizontal,"(890.0, 762.0)",1.7,nan,1,7214.419,3,0.02,same
0,728,valid,"[(1155, 822)]",[],[1],[0.5666666666666667],vertical,"(890.0, 262.0)",0.65,0.52,1,7220.924,3,0.02,same
0,729,catch,"[(1196, 795)]",[],[1],[],vertical,"(890.0, 762.0)",1.7,nan,1,7226.854,3,0.02,same
0,730,valid,"[(1144, 837)]",[],[1],[0.55],vertical,"(390.0, 262.0)",0.8333333333333334,0.509,1,7233.253,3,0.02,same
0,731,valid,"[(1160, 798)]",[],[1],[0.7],horizontal,"(890.0, 262.0)",0.4,0.654,1,7239.251,3,0.02,same
0,732,valid,"[(1180, 787)]",[],[1],[0.6],horizontal,"(390.0, 762.0)",0.6333333333333333,0.554,1,7245.035,3,0.02,same
0,733,valid,"[(1180, 790)]",[],[1],[0.6],horizontal,"(890.0, 762.0)",0.5666666666666667,0.555,1,7250.294,3,0.02,same
0,734,invalid_adjacent_other_bar,"[(1162, 774)]",[],[1],[0.6833333333333333],horizontal,"(390.0, 262.0)",1.1166666666666667,0.642,1,7256.043,3,0.02,other
0,735,invalid_same_bar,"[(1158, 762)]",[],[1],[0.55],vertical,"(890.0, 762.0)",0.6166666666666667,0.506,1,7262.403,3,0.02,same
0,736,valid,"[(1175, 781)]",[],[1],[0.5666666666666667],horizontal,"(890.0, 262.0)",0.9833333333333333,0.522,1,7267.586,3,0.02,same
0,737,valid,"[(1175, 767)]",[],[1],[0.5666666666666667],vertical,"(890.0, 262.0)",1.3666666666666667,0.527,1,7273.145,3,0.02,same
0,738,valid,"[(1188, 763)]",[],[1],[0.55],horizontal,"(890.0, 762.0)",0.4,0.51,1,7279.312,3,0.02,same
0,739,valid,"[(1176, 761)]",[],[1],[0.6666666666666666],horizontal,"(390.0, 762.0)",1.0833333333333333,0.621,1,7284.27,3,0.02,same
0,740,invalid_same_bar,"[(1176, 757)]",[],[1],[0.5666666666666667],horizontal,"(890.0, 262.0)",0.5,0.523,1,7290.278,3,0.02,same
0,741,valid,"[(1165, 760)]",[],[1],[0.55],horizontal,"(890.0, 262.0)",0.4666666666666667,0.507,1,7295.751,3,0.02,same
0,742,valid,"[(1201, 761)]",[],[1],[0.55],horizontal,"(890.0, 762.0)",1.0833333333333333,0.509,1,7300.861,3,0.02,same
0,743,valid,"[(1181, 772)]",[],[1],[0.5666666666666667],vertical,"(390.0, 262.0)",0.3833333333333333,0.519,1,7306.851,3,0.02,same
0,744,invalid_adjacent_other_bar,"[(1179, 759)]",[],[1],[0.5666666666666667],horizontal,"(890.0, 762.0)",0.5833333333333334,0.525,1,7311.998,3,0.02,other
0,745,valid,"[(1165, 802)]",[],[1],[0.5333333333333333],vertical,"(890.0, 762.0)",1.15,0.496,1,7317.143,3,0.02,same
0,746,valid,"[(1180, 767)]",[],[1],[0.5333333333333333],horizontal,"(890.0, 762.0)",1.1666666666666667,0.493,1,7323.013,3,0.02,same
0,747,valid,"[(1175, 775)]",[],[1],[0.6],vertical,"(890.0, 262.0)",1.0,0.559,1,7329.203,3,0.02,same
0,748,invalid_same_bar,"[(1180, 760)]",[],[1],[0.5833333333333334],vertical,"(390.0, 262.0)",0.85,0.539,1,7334.802,3,0.02,same
0,749,catch,"[(1165, 766)]",[],[1],[],vertical,"(890.0, 762.0)",1.7,nan,1,7340.203,3,0.02,same
0,750,valid,"[(1179, 774)]",[],[1],[0.5333333333333333],vertical,"(390.0, 762.0)",0.5166666666666666,0.494,1,7346.212,3,0.02,same
0,751,valid,"[(1180, 776)]",[],[1],[0.7],vertical,"(390.0, 262.0)",1.4833333333333334,0.659,1,7351.435,3,0.02,same
0,752,invalid_adjacent_other_bar,"[(1180, 774)]",[],[1],[0.5166666666666666],horizontal,"(890.0, 762.0)",0.9666666666666667,0.478,1,7357.669,3,0.02,other
0,753,valid,"[(1180, 762)]",[],[1],[0.55],vertical,"(390.0, 262.0)",1.45,0.51,1,7363.265,3,0.02,same
0,754,catch,"[(1204, 755)]",[],[1],[],vertical,"(390.0, 762.0)",1.7,nan,1,7369.342,3,0.02,same
0,755,invalid_adjacent_other_bar,"[(1175, 807)]",[],[1],[0.85],horizontal,"(390.0, 762.0)",0.8166666666666667,nan,0,7375.192,0,0.02,other
0,756,valid,"[(1164, 772)]",[],[1],[0.5333333333333333],horizontal,"(890.0, 262.0)",0.4,0.491,1,7379.967,1,0.02,same
0,757,valid,"[(1180, 765)]",[],[1],[0.85],vertical,"(390.0, 762.0)",1.1,nan,0,7384.316,0,0.02,same
0,758,catch,"[(1160, 781)]",[],[1],[],vertical,"(390.0, 762.0)",1.7,nan,1,7389.49,1,0.02,same
0,759,valid,"[(1180, 801)]",[],[1],[0.5666666666666667],horizontal,"(890.0, 262.0)",0.75,0.524,1,7394.394,1,0.02,same
0,760,valid,"[(1175, 772)]",[],[1],[0.7666666666666666],vertical,"(890.0, 262.0)",0.7,0.722,1,7399.237,1,0.02,same
0,761,valid,"[(1181, 784)]",[],[1],[0.7166666666666667],vertical,"(890.0, 262.0)",1.3333333333333333,0.676,1,7403.956,2,0.02,same
0,762,valid,"[(1185, 753), (1129, 838)]",[],"[0, 1]",[0.6166666666666667],horizontal,"(890.0, 262.0)",0.6333333333333333,0.567,1,7410.236,2,0.02,same
0,763,valid,"[(1170, 770)]",[],[1],[0.6],vertical,"(890.0, 762.0)",1.1333333333333333,0.56,1,7416.582,2,0.02,same
0,764,valid,"[(1184, 774)]",[],[1],[0.85],horizontal,"(890.0, 762.0)",1.2666666666666666,nan,0,7422.126,0,0.02,same
0,765,valid,"[(1131, 793)]",[],[1],[0.5833333333333334],vertical,"(890.0, 262.0)",0.8166666666666667,0.532,1,7427.409,1,0.0,same
0,766,catch,"[(1180, 770)]",[],[1],[],horizontal,"(890.0, 762.0)",1.7,nan,1,7432.47,1,0.0,same
0,767,valid,"[(1170, 769)]",[],[1],[0.6],horizontal,"(890.0, 262.0)",1.2833333333333332,0.556,1,7437.635,1,0.0,same
0,768,valid,"[(1178, 774)]",[],[1],[0.65],horizontal,"(390.0, 762.0)",1.1666666666666667,0.608,1,7442.735,2,0.0,same
0,769,invalid_same_bar,"[(1180, 764)]",[],[1],[0.5666666666666667],vertical,"(390.0, 762.0)",1.0833333333333333,0.531,1,7448.449,2,0.0,same
0,770,valid,"[(1203, 782)]",[],[1],[0.5666666666666667],horizontal,"(890.0, 762.0)",1.3666666666666667,0.534,1,7453.666,2,0.0,same
0,771,valid,"[(1193, 807)]",[],[1],[0.55],vertical,"(390.0, 262.0)",1.15,0.508,1,7459.037,3,0.0,same
0,772,invalid_adjacent_other_bar,"[(1189, 786)]",[],[1],[0.5666666666666667],horizontal,"(390.0, 262.0)",0.8666666666666667,0.52,1,7465.237,3,0.0,other
0,773,valid,"[(1180, 792)]",[],[1],[0.75],vertical,"(390.0, 262.0)",0.85,0.703,1,7470.764,3,0.0,same
0,774,valid,"[(1181, 799)]",[],[1],[0.6],horizontal,"(390.0, 762.0)",1.4166666666666667,0.561,1,7476.86,3,0.0,same
0,775,catch,"[(1183, 787)]",[],[1],[],horizontal,"(890.0, 262.0)",1.7,nan,1,7483.17,3,0.0,same
0,776,valid,"[(1166, 774)]",[],[1],[0.55],horizontal,"(390.0, 762.0)",1.5333333333333332,0.505,1,7489.049,3,0.0,same
0,777,catch,"[(1180, 762)]",[],[1],[],vertical,"(890.0, 262.0)",1.7,nan,1,7495.202,3,0.0,same
0,778,valid,"[(1178, 783)]",[],[1],[0.65],vertical,"(890.0, 762.0)",1.4166666666666667,0.61,1,7501.559,3,0.0,same
0,779,invalid_same_bar,"[(1179, 782)]",[],[1],[0.55],vertical,"(890.0, 262.0)",0.35,0.507,1,7508.05,3,0.0,same
0,780,catch,"[(1180, 781)]",[],[1],[],horizontal,"(390.0, 262.0)",1.7,nan,1,7513.166,3,0.0,same
0,781,catch,"[(1183, 797)]",[],[1],[],horizontal,"(890.0, 262.0)",1.7,nan,1,7518.969,3,0.0,same
0,782,valid,"[(1177, 791)]",[],[1],[0.5833333333333334],horizontal,"(890.0, 762.0)",1.1833333333333333,0.543,1,7525.452,3,0.0,same
0,783,catch,"[(1179, 777)]",[],[1],[],vertical,"(390.0, 262.0)",1.7,nan,1,7531.199,3,0.0,same
0,784,valid,"[(1175, 778)]",[],[1],[0.7166666666666667],horizontal,"(890.0, 262.0)",1.5166666666666666,0.678,1,7536.903,3,0.0,same
0,785,valid,"[(1178, 779)]",[],[1],[0.55],horizontal,"(390.0, 762.0)",0.8,0.508,1,7543.27,3,0.0,same
0,786,invalid_adjacent_other_bar,"[(1180, 775)]",[],[1],[0.5666666666666667],horizontal,"(390.0, 262.0)",0.9166666666666666,0.525,1,7549.153,3,0.0,other
0,787,catch,"[(1172, 772)]",[],[1],[],horizontal,"(890.0, 262.0)",1.7,nan,1,7555.036,3,0.0,same
0,788,valid,"[(1210, 811)]",[],[1],[0.55],horizontal,"(390.0, 262.0)",0.9666666666666667,0.506,1,7560.752,3,0.0,same
0,789,valid,"[(1203, 772)]",[],[1],[0.6166666666666667],vertical,"(890.0, 762.0)",1.0666666666666667,0.577,1,7566.384,3,0.0,same
0,790,valid,"[(1187, 805)]",[],[1],[0.5833333333333334],vertical,"(390.0, 762.0)",0.35,0.538,1,7572.145,3,0.0,same
0,791,invalid_adjacent_other_bar,"[(1197, 775)]",[],[1],[0.6833333333333333],vertical,"(390.0, 762.0)",0.36666666666666664,0.643,1,7577.505,3,0.0,other
0,792,valid,"[(1199, 799)]",[],[1],[0.5333333333333333],vertical,"(890.0, 762.0)",0.7333333333333333,0.491,1,7582.619,3,0.0,same
0,793,valid,"[(1199, 775)]",[],[1],[0.5333333333333333],vertical,"(390.0, 262.0)",1.5333333333333332,0.494,1,7588.47,3,0.0,same
0,794,valid,"[(1187, 784)]",[],[1],[0.6166666666666667],vertical,"(890.0, 762.0)",0.7333333333333333,0.57,1,7594.703,3,0.0,same
0,795,valid,"[(1183, 790)]",[],[1],[0.5833333333333334],vertical,"(390.0, 262.0)",1.2166666666666666,0.542,1,7600.169,3,0.0,same
0,796,valid,"[(1172, 759)]",[],[1],[0.5166666666666666],horizontal,"(390.0, 762.0)",1.35,0.481,1,7606.32,3,0.0,same
0,797,valid,"[(1179, 786)]",[],[1],[0.7166666666666667],horizontal,"(390.0, 762.0)",1.3833333333333333,0.678,1,7612.615,3,0.0,same
0,798,valid,"[(1172, 783)]",[],[1],[0.6333333333333333],vertical,"(390.0, 762.0)",0.4,0.596,1,7618.986,3,0.0,same
0,799,invalid_same_bar,"[(1195, 770)]",[],[1],[0.85],horizontal,"(890.0, 262.0)",0.9,nan,0,7624.337,0,0.0,same
0,800,valid,"[(1138, 766)]",[],[1],[0.7],horizontal,"(390.0, 762.0)",0.6333333333333333,0.651,1,7628.954,1,0.0,same
0,801,valid,"[(1183, 762)]",[],[1],[0.85],horizontal,"(390.0, 762.0)",0.35,nan,0,7633.815,0,0.0,same
0,802,catch,"[(1149, 789)]",[],[1],[],horizontal,"(390.0, 762.0)",1.7,nan,1,7637.752,1,0.0,same
0,803,valid,"[(1172, 765)]",[],[1],[0.6833333333333333],vertical,"(890.0, 262.0)",1.2333333333333334,0.639,1,7643.036,1,0.0,same
0,804,catch,"[(1182, 789)]",[],[1],[],vertical,"(390.0, 262.0)",1.7,nan,1,7648.186,1,0.0,same
0,805,catch,"[(1158, 787)]",[],[1],[],horizontal,"(390.0, 762.0)",1.7,nan,1,7653.336,2,0.0,same
0,806,catch,"[(1165, 781)]",[],[1],[],horizontal,"(390.0, 762.0)",1.7,nan,1,7659.165,2,0.0,same
0,807,valid,"[(1177, 782)]",[],[1],[0.6],vertical,"(390.0, 262.0)",1.3,0.554,1,7664.654,2,0.0,same
0,808,catch,"[(1181, 767)]",[],[1],[],vertical,"(390.0, 762.0)",1.7,nan,1,7670.391,3,0.0,same
0,809,catch,"[(1175, 799)]",[],[1],[],horizontal,"(390.0, 762.0)",1.7,nan,1,7676.416,3,0.0,same
0,810,valid,"[(1175, 801)]",[],[1],[0.5166666666666666],vertical,"(890.0, 262.0)",0.85,0.475,1,7682.062,3,0.0,same
0,811,valid,"[(1165, 777)]",[],[1],[0.6833333333333333],vertical,"(390.0, 762.0)",0.95,0.638,1,7687.412,3,0.0,same
0,812,invalid_same_bar,"[(1165, 782)]",[],[1],[0.5],vertical,"(390.0, 762.0)",1.2666666666666666,0.461,1,7693.584,3,0.0,same
0,813,invalid_adjacent_other_bar,"[(1181, 773)]",[],[1],[0.85],vertical,"(890.0, 762.0)",1.2,nan,0,7699.668,0,0.0,other
0,814,invalid_adjacent_other_bar,"[(1125, 789)]",[],[1],[0.7666666666666666],horizontal,"(890.0, 262.0)",0.45,0.715,1,7704.482,1,0.0,other
0,815,valid,"[(1170, 753), (1121, 817)]",[],"[0, 1]",[0.75],horizontal,"(390.0, 262.0)",0.55,0.703,1,7709.721,1,0.0,same
0,816,catch,"[(1178, 793)]",[],[1],[],vertical,"(390.0, 262.0)",1.7,nan,1,7715.562,1,0.0,same
0,817,valid,"[(1175, 807)]",[],[1],[0.5333333333333333],vertical,"(390.0, 762.0)",0.8833333333333333,0.491,1,7720.586,2,0.0,same
0,818,catch,"[(1190, 789)]",[],[1],[],horizontal,"(890.0, 762.0)",1.7,nan,1,7725.771,2,0.0,same
0,819,valid,"[(1165, 803)]",[],[1],[0.75],horizontal,"(890.0, 262.0)",0.5833333333333334,0.703,1,7731.27,2,0.0,same
0,820,valid,"[(1202, 803)]",[],[1],[0.6166666666666667],horizontal,"(890.0, 262.0)",0.8833333333333333,0.574,1,7737.302,3,0.0,same
0,821,valid,"[(1201, 788)]",[],[1],[0.5666666666666667],vertical,"(390.0, 762.0)",1.25,0.523,1,7743.273,3,0.0,same
0,822,valid,"[(1180, 793)]",[],[1],[0.5833333333333334],horizontal,"(890.0, 762.0)",0.8666666666666667,0.546,1,7749.451,3,0.0,same
0,823,valid,"[(1185, 790)]",[],[1],[0.7666666666666666],horizontal,"(890.0, 262.0)",1.0333333333333332,0.712,1,7754.904,3,0.0,same
0,824,invalid_adjacent_other_bar,"[(1183, 782)]",[],[1],[0.6],horizontal,"(890.0, 762.0)",1.3166666666666667,0.554,1,7761.086,3,0.0,other
0,825,valid,"[(1175, 795)]",[],[1],[0.6333333333333333],horizontal,"(390.0, 762.0)",0.9833333333333333,0.591,1,7767.471,3,0.0,same
0,826,valid,"[(1172, 777)]",[],[1],[0.6],vertical,"(890.0, 762.0)",1.4666666666666666,0.557,1,7773.481,3,0.0,same
0,827,invalid_same_bar,"[(1185, 794)]",[],[1],[0.75],horizontal,"(390.0, 262.0)",1.1666666666666667,0.707,1,7780.137,3,0.0,same
0,828,invalid_adjacent_other_bar,"[(1183, 778)]",[],[1],[0.6],vertical,"(890.0, 762.0)",1.4666666666666666,0.559,1,7786.242,3,0.0,other
0,829,catch,"[(1190, 801)]",[],[1],[],vertical,"(890.0, 762.0)",1.7,nan,1,7792.611,3,0.0,same
0,830,catch,"[(1170, 786)]",[],[1],[],vertical,"(390.0, 762.0)",1.7,nan,1,7798.601,3,0.0,same
0,831,valid,"[(1174, 771)]",[],[1],[0.55],horizontal,"(890.0, 762.0)",0.4166666666666667,0.508,1,7804.773,3,0.0,same
0,832,valid,"[(1180, 791)]",[],[1],[0.6333333333333333],horizontal,"(890.0, 262.0)",0.5166666666666666,0.592,1,7809.86,3,0.0,same
0,833,catch,"[(1175, 776)]",[],[1],[],vertical,"(890.0, 762.0)",1.7,"('cti', 1.685),nan",0,7815.237,0,0.02,same
0,834,valid,"[(1131, 782)]",[],[1],[0.5666666666666667],horizontal,"(890.0, 262.0)",0.35,0.524,1,7819.87,1,0.02,same
0,835,catch,"[(1180, 769)]",[],[1],[],horizontal,"(890.0, 762.0)",1.7,nan,1,7824.069,1,0.02,same
0,836,catch,"[(1183, 789)]",[],[1],[],vertical,"(390.0, 262.0)",1.7,nan,1,7829.354,1,0.02,same
0,837,invalid_adjacent_other_bar,"[(1191, 769)]",[],[1],[0.85],vertical,"(390.0, 762.0)",1.0833333333333333,nan,0,7834.819,0,0.02,other
0,838,valid,"[(1165, 783)]",[],[1],[0.5666666666666667],vertical,"(390.0, 762.0)",0.36666666666666664,0.528,1,7839.77,1,0.02,same
0,839,valid,"[(1180, 772)]",[],[1],[0.5666666666666667],horizontal,"(390.0, 262.0)",1.3166666666666667,0.527,1,7843.829,1,0.02,same
0,840,catch,"[(1177, 801)]",[],[1],[],vertical,"(390.0, 262.0)",1.7,nan,1,7849.42,1,0.02,same
0,841,valid,"[(1169, 769)]",[],[1],[0.6],horizontal,"(390.0, 762.0)",1.35,0.553,1,7854.37,2,0.02,same
0,842,valid,"[(1163, 759)]",[],[1],[0.6666666666666666],vertical,"(890.0, 762.0)",0.85,0.629,1,7860.452,2,0.02,same
0,843,catch,"[(1204, 786)]",[],[1],[],horizontal,"(390.0, 762.0)",1.7,nan,1,7865.681,2,0.02,same
0,844,valid,"[(1180, 797)]",[],[1],[0.6166666666666667],vertical,"(890.0, 762.0)",0.95,0.573,1,7871.416,3,0.02,same
0,845,valid,"[(1193, 782)]",[],[1],[0.5833333333333334],horizontal,"(390.0, 762.0)",1.0666666666666667,0.544,1,7877.786,3,0.02,same
0,846,valid,"[(1190, 791)]",[],[1],[0.7833333333333333],horizontal,"(390.0, 762.0)",1.1833333333333333,0.739,1,7883.486,3,0.02,same
0,847,valid,"[(1175, 784)]",[],[1],[0.55],vertical,"(390.0, 262.0)",0.7166666666666667,0.513,1,7889.551,3,0.02,same
0,848,valid,"[(1180, 786)]",[],[1],[0.85],horizontal,"(890.0, 762.0)",1.05,nan,0,7895.382,0,0.02,same
0,849,invalid_adjacent_other_bar,"[(1147, 786)]",[],[1],[0.5833333333333334],horizontal,"(890.0, 262.0)",1.1833333333333333,0.535,1,7900.619,1,0.02,other
0,850,valid,"[(1168, 786)]",[],[1],[0.5666666666666667],horizontal,"(390.0, 262.0)",1.4333333333333333,0.527,1,7906.024,1,0.02,same
0,851,valid,"[(1180, 795)]",[],[1],[0.85],horizontal,"(890.0, 262.0)",0.36666666666666664,nan,0,7911.226,0,0.02,same
0,852,valid,"[(1138, 781)]",[],[1],[0.7166666666666667],horizontal,"(390.0, 262.0)",1.1166666666666667,0.671,1,7915.628,1,0.02,same
0,853,catch,"[(1180, 781)]",[],[1],[],vertical,"(890.0, 762.0)",1.7,nan,1,7920.935,1,0.02,same
0,854,catch,"[(1180, 786)]",[],[1],[],vertical,"(390.0, 762.0)",1.7,nan,1,7925.92,1,0.02,same
0,855,valid,"[(1178, 767)]",[],[1],[],horizontal,"(890.0, 762.0)",,"('cti', 0.83)",0,7931.359,0,0.02,same
0,856,valid,"[(1171, 797)]",[],[1],[0.6166666666666667],horizontal,"(390.0, 762.0)",1.0666666666666667,0.574,1,7935.618,1,0.02,same
0,857,valid,"[(1203, 781)]",[],[1],[0.7],vertical,"(390.0, 762.0)",1.2666666666666666,0.658,1,7941.0,1,0.02,same
