block,trial,trial_type,taps_start_loc_during_fix,taps_end_loc_during_fix,taps_on_lever_during_fix,taps_on_lever_s_during_fix,bar_orientation,target_xy,cti,rt,acc,time,pulses
0,1,target,"[(1162, 801)]",[],[1],[0.4166666666666667],vertical,"(390.0, 262.0)",0.6166666666666667,0.382,1,0.054,1
0,2,target,"[(1088, 850)]",[],[1],[0.36666666666666664],vertical,"(390.0, 762.0)",1.1666666666666667,0.329,1,8.14,1
0,3,catch,"[(1113, 889)]",[],[1],[],horizontal,"(890.0, 762.0)",1.1833333333333333,nan,1,12.24,1
0,4,target,"[(1107, 882)]",[],[1],[0.4166666666666667],vertical,"(890.0, 262.0)",1.6,0.391,1,16.197,2
0,5,target,"[(1090, 896)]",[],[1],[0.36666666666666664],vertical,"(390.0, 262.0)",0.8666666666666667,0.332,1,21.858,2
0,6,target,"[(1100, 898)]",[],[1],[0.4],horizontal,"(890.0, 762.0)",1.6833333333333333,0.36,1,26.121,2
0,7,catch,"[(1106, 890)]",[],[1],[],vertical,"(390.0, 762.0)",1.5833333333333333,nan,1,31.539,2
0,8,target,"[(1107, 882)]",[],[1],[0.4166666666666667],horizontal,"(390.0, 762.0)",0.9166666666666666,0.379,1,36.47,2
0,9,target,"[(1105, 883)]",[],[1],[0.3833333333333333],vertical,"(890.0, 762.0)",0.8,0.351,1,41.447,3
0,10,target,"[(1111, 879)]",[],[1],[0.4166666666666667],vertical,"(390.0, 762.0)",0.5666666666666667,0.383,1,46.749,3
0,11,target,"[(1117, 879)]",[],[1],[],vertical,"(890.0, 762.0)",,"('fix', 0.116)",0,51.66,0
0,12,target,"[(1111, 883)]",[],[1],[0.3833333333333333],horizontal,"(890.0, 262.0)",1.45,0.35,1,53.377,1
0,13,target,"[(447, 495), (243, 455), (235, 348), (272, 102), (404, 470), (116, 492), (272, 322), (124, 361), (384, 329), (275, 395), (124, 311), (279, 327), (223, 514), (282, 613), (381, 532), (397, 322), (408, 552), (440, 470), (349, 475), (302, 946), (265, 496), (144, 723), (354, 64), (404, 481), (447, 465), (379, 945), (312, 251), (282, 825), (321, 183), (894, 415), (871, 986), (792, 309), (935, 986), (145, 646), (922, 322), (893, 690), (985, 959), (997, 958), (995, 949), (1006, 935)]",[],"[0, 0, 0, 0, 0, 0, 0, 0, 0, 0, 0, 0, 0, 0, 0, 0, 0, 0, 0, 0, 0, 0, 0, 0, 0, 0, 0, 0, 0, 0, 0, 0, 0, 0, 0, 0, 0, 0, 0, 1]",[],vertical,"(390.0, 262.0)",,"('cti', 0.618)",0,58.205,0
0,14,target,"[(858, 651), (861, 658), (863, 657), (965, 986), (1037, 894)]",[],"[0, 0, 0, 0, 1]",[],vertical,"(390.0, 262.0)",,"('fix', 0.315)",0,719.665,0
0,15,target,"[(863, 673), (922, 953), (914, 950), (915, 949), (914, 950), (914, 950), (918, 947), (918, 946), (918, 947), (917, 948), (917, 948), (917, 948), (917, 948), (916, 948), (916, 948), (915, 949), (915, 949), (916, 948), (916, 948), (915, 949), (914, 949), (914, 950), (914, 949), (988, 948), (934, 910), (973, 921), (935, 906), (931, 923), (1009, 917)]","[(966, 969)]","[0, 0, 0, 0, 0, 0, 0, 0, 0, 0, 0, 0, 0, 0, 0, 0, 0, 0, 0, 0, 0, 0, 0, 0, 0, 0, 0, 0, 1]",[0.5333333333333333],vertical,"(890.0, 762.0)",,"('bar', 0.541)",0,1801.682,0
0,16,target,"[(1006, 930)]",[],[1],[],vertical,"(890.0, 262.0)",,"('cti', 0.633)",0,2138.842,0
0,17,target,"[(993, 933), (1001, 928), (312, 931), (989, 977), (974, 935), (970, 935), (990, 963), (994, 956), (982, 918), (1037, 921)]",[],"[0, 0, 0, 0, 0, 0, 0, 0, 0, 1]",[],horizontal,"(890.0, 262.0)",,"('fix', 0.198)",0,2155.808,0
0,18,target,"[(987, 937), (978, 934), (989, 969), (1111, 843)]","[(1111, 849)]","[0, 0, 0, 1]",[0.5333333333333333],horizontal,"(890.0, 262.0)",,"('bar', 0.551)",0,2757.175,0
0,19,target,"[(1116, 772)]","[(1108, 775)]",[1],[0.26666666666666666],horizontal,"(390.0, 762.0)",,"('bar', 0.282)",0,3471.099,0
0,20,target,"[(1139, 794)]","[(1139, 794)]",[1],[0.08333333333333333],horizontal,"(890.0, 262.0)",,"('bar', 0.103)",0,3488.073,0
0,21,target,"[(1116, 869)]",[],[1],[0.35],vertical,"(890.0, 762.0)",1.0333333333333332,0.318,1,3496.432,1
0,22,target,"[(1118, 843)]",[],[1],[0.3833333333333333],vertical,"(390.0, 262.0)",0.7833333333333333,0.346,1,4158.821,1
0,23,target,"[(276, 404), (187, 418), (724, 328), (456, 240), (442, 339), (456, 250), (472, 174), (570, 180), (868, 629), (857, 783), (784, 176), (324, 339), (388, 253), (343, 86), (293, 401), (914, 926), (989, 954), (996, 960), (422, 454), (353, 575), (969, 939), (997, 943), (997, 964), (1024, 963), (937, 932), (922, 966), (995, 923), (1017, 966), (479, 592), (989, 894), (938, 947), (993, 947), (991, 925), (907, 898), (532, 399), (1009, 941)]",[],"[0, 0, 0, 0, 0, 0, 0, 0, 0, 0, 0, 0, 0, 0, 0, 0, 0, 0, 0, 0, 0, 0, 0, 0, 0, 0, 0, 0, 0, 0, 0, 0, 0, 0, 0, 1]",[],horizontal,"(390.0, 762.0)",,"('fix', 0.231)",0,5223.072,0
0,24,target,"[(993, 911), (369, 481), (422, 694), (333, 602), (993, 927), (997, 923), (974, 865), (457, 494), (929, 941), (839, 985), (999, 931), (987, 934), (997, 943), (992, 915), (929, 933), (515, 487), (578, 551), (932, 928), (989, 901), (997, 962), (993, 919), (1006, 946), (448, 460), (997, 926), (1037, 966), (996, 944), (997, 922), (997, 917), (1025, 951), (997, 942), (424, 415), (570, 366), (1017, 964), (1005, 959), (929, 979), (621, 453), (999, 949), (1042, 970), (1029, 927)]",[],"[0, 0, 0, 0, 0, 0, 0, 0, 0, 0, 0, 0, 0, 0, 0, 0, 0, 0, 0, 0, 0, 0, 0, 0, 0, 0, 0, 0, 0, 0, 0, 0, 0, 0, 0, 0, 0, 0, 1]",[],vertical,"(390.0, 762.0)",,"('fix', 0.115)",0,7463.703,0
0,25,target,"[(999, 936), (1025, 914)]",[],"[0, 1]",[],horizontal,"(890.0, 262.0)",,"('fix', 0.184)",0,8048.067,0
0,26,target,"[(993, 928), (1022, 913)]",[],"[0, 1]",[],horizontal,"(390.0, 762.0)",,"('cti', 0.786)",0,8050.862,0
0,27,target,"[(1024, 953), (1001, 927), (1029, 938), (949, 936)]","[(927, 975)]","[0, 0, 1, 0]",[0.0],horizontal,"(390.0, 762.0)",,"('bar', 2.297)",0,8226.391,0
0,28,target,"[(991, 931), (1127, 916)]",[],"[0, 1]",[0.36666666666666664],vertical,"(390.0, 762.0)",0.6833333333333333,0.331,1,8232.615,1
0,29,target,"[(973, 931), (996, 929), (447, 438), (991, 916), (985, 912), (1020, 967), (546, 431), (913, 912), (852, 974), (926, 903), (1001, 917), (991, 888), (853, 944), (1023, 920)]","[(1022, 946)]","[0, 0, 0, 0, 0, 0, 0, 0, 0, 0, 0, 0, 0, 1]",[0.2],vertical,"(390.0, 762.0)",,"('bar', 0.214)",0,8263.498,0
0,30,target,"[(1020, 941)]",[],[1],[0.85],horizontal,"(390.0, 762.0)",0.9333333333333333,nan,0,8319.824,0
0,31,target,"[(1007, 911)]",[],[1],[0.5],vertical,"(890.0, 262.0)",0.75,0.462,1,8325.136,1
0,32,target,"[(1001, 920), (1002, 926), (1008, 932)]",[],"[0, 0, 1]",[0.2833333333333333],horizontal,"(390.0, 262.0)",0.5333333333333333,0.253,1,8328.915,1
0,33,target,"[(990, 953), (930, 930), (965, 939), (1005, 926)]",[],"[0, 0, 0, 1]",[0.2833333333333333],horizontal,"(890.0, 762.0)",1.0666666666666667,0.249,1,8335.362,1
0,34,target,"[(1009, 937)]",[],[1],[0.6],vertical,"(390.0, 762.0)",0.9333333333333333,0.566,1,8344.758,2
0,35,target,"[(1004, 932), (1009, 932)]","[(1017, 946)]","[0, 1]",[0.0],vertical,"(890.0, 262.0)",,"('bar', 0.017)",0,8350.507,0
0,36,target,"[(1001, 942), (965, 928), (531, 432), (878, 986), (1029, 964), (1025, 880)]",[],"[0, 0, 0, 0, 0, 1]",[],vertical,"(890.0, 762.0)",,"('cti', 0.625)",0,8354.947,0
0,37,target,"[(1028, 904)]",[],[1],[],horizontal,"(390.0, 762.0)",,"('fix', 0.267)",0,8367.168,0
0,38,target,"[(1001, 926), (408, 354), (989, 926), (910, 904), (444, 407), (1019, 911)]",[],"[0, 0, 0, 0, 0, 1]",[],vertical,"(890.0, 762.0)",,"('cti', 1.436)",0,8369.035,0
0,39,target,"[(989, 910), (413, 552), (995, 935), (1026, 922)]","[(1021, 945)]","[0, 0, 0, 1]",[0.15],horizontal,"(390.0, 262.0)",,"('bar', 0.166)",0,8377.271,0
0,40,target,"[(995, 964), (938, 909), (1000, 910), (1038, 862)]",[],"[0, 0, 0, 1]",[0.3833333333333333],vertical,"(890.0, 762.0)",0.9333333333333333,0.349,1,8381.259,1
0,41,target,"[(1032, 963), (1008, 915)]",[],"[0, 1]",[],horizontal,"(390.0, 762.0)",,"('cti', 0.149)",0,8394.415,0
0,42,target,"[(912, 959), (985, 951), (920, 910), (853, 992), (839, 970), (392, 438), (969, 925), (1008, 900)]",[],"[0, 0, 0, 0, 0, 0, 0, 1]",[],horizontal,"(390.0, 762.0)",,"('fix', 0.051)",0,8409.246,0
0,43,target,"[(1052, 935)]",[],[1],[],horizontal,"(390.0, 762.0)",,"('fix', 0.18)",0,8435.015,0
0,44,catch,"[(227, 393), (1000, 932), (988, 939), (484, 525), (1008, 973), (461, 545), (459, 626), (1029, 930)]",[],"[0, 0, 0, 0, 0, 0, 0, 1]",[],vertical,"(390.0, 262.0)",,"('fix', 0.331),nan",0,8436.746,0
0,45,target,"[(995, 910), (373, 447), (974, 914), (566, 602), (973, 901), (735, 966), (994, 914), (989, 922), (834, 970), (894, 873), (1023, 992), (930, 892), (847, 948), (519, 629), (935, 910), (969, 957), (990, 926), (1023, 912)]",[],"[0, 0, 0, 0, 0, 0, 0, 0, 0, 0, 0, 0, 0, 0, 0, 0, 0, 1]",[],horizontal,"(390.0, 762.0)",,"('cti', 0.466)",0,8443.76,0
0,46,target,"[(990, 917), (929, 958), (894, 843), (1030, 863)]",[],"[0, 0, 0, 1]",[],vertical,"(390.0, 762.0)",,"('fix', 0.098)",0,8475.963,0
0,47,target,"[(228, 942), (1044, 909)]","[(1033, 959)]","[0, 1]",[0.75],vertical,"(890.0, 762.0)",,"('bar', 0.758)",0,8481.347,0
0,48,target,"[(1000, 918), (993, 930), (1006, 922)]","[(1009, 940)]","[0, 0, 1]",[0.5],vertical,"(390.0, 762.0)",,"('bar', 0.509)",0,8495.224,0
0,49,target,"[(1002, 910), (1001, 901), (1001, 910), (973, 922), (1008, 888)]",[],"[0, 0, 0, 0, 1]",[],horizontal,"(390.0, 262.0)",,"('fix', 0.017)",0,8499.909,0
0,50,target,"[(973, 963), (1001, 944), (932, 921), (1005, 965), (1003, 938), (401, 942), (936, 940), (990, 926), (985, 934), (969, 936), (878, 892), (395, 349), (856, 957), (1002, 946), (1008, 890)]",[],"[0, 0, 0, 0, 0, 0, 0, 0, 0, 0, 0, 0, 0, 0, 1]",[0.4666666666666667],vertical,"(890.0, 262.0)",0.7833333333333333,0.433,1,8547.648,1
0,51,target,"[(1068, 708), (1016, 966), (1021, 928)]",[],"[0, 0, 1]",[],vertical,"(390.0, 262.0)",,"('fix', 0.21)",0,8613.386,0
0,52,target,"[(1111, 717), (934, 971), (479, 520), (1030, 936)]",[],"[0, 0, 0, 1]",[],vertical,"(390.0, 762.0)",,"('fix', 0.561)",0,8615.963,0
0,53,target,"[(965, 940), (993, 941), (1021, 929)]",[],"[0, 0, 1]",[],horizontal,"(890.0, 762.0)",,"('fix', 0.613)",0,8619.13,0
0,54,catch,"[(1088, 676), (973, 938), (973, 937), (962, 943), (933, 932), (977, 915), (851, 980), (973, 939), (930, 957), (935, 937), (973, 948), (975, 921), (957, 980), (989, 928), (1008, 928)]","[(938, 962)]","[0, 0, 0, 0, 0, 0, 0, 0, 0, 0, 0, 0, 0, 0, 1]",[0.5166666666666666],vertical,"(390.0, 762.0)",,"('bar', 0.534),nan",0,8625.784,0
0,55,target,"[(966, 926), (519, 666), (464, 657), (988, 930), (978, 913), (962, 937), (996, 932), (969, 922), (604, 593), (927, 950), (1020, 980), (965, 908), (1037, 937)]",[],"[0, 0, 0, 0, 0, 0, 0, 0, 0, 0, 0, 0, 1]",[],horizontal,"(890.0, 262.0)",,"('fix', 0.423)",0,9105.534,0
0,56,catch,"[(1005, 943)]",[],[1],[],horizontal,"(890.0, 762.0)",,"('cti', 0.593),nan",0,9139.884,0
0,57,catch,"[(981, 929), (1006, 937)]",[],"[0, 1]",[],horizontal,"(390.0, 262.0)",,"('cti', 1.105),nan",0,9144.318,0
0,58,target,"[(1029, 928)]",[],[1],[],horizontal,"(890.0, 262.0)",,"('fix', 0.264)",0,9150.716,0
0,59,target,"[(1030, 915)]",[],[1],[0.4666666666666667],horizontal,"(890.0, 762.0)",1.6166666666666667,0.426,1,9152.618,1
0,60,catch,"[(1010, 948), (942, 925), (1005, 903)]","[(938, 941)]","[0, 0, 1]",[0.26666666666666666],horizontal,"(390.0, 262.0)",,"('bar', 0.28),nan",0,9157.534,0
0,61,target,"[(1006, 966), (1009, 938)]",[],"[0, 1]",[],vertical,"(890.0, 262.0)",,"('fix', 0.067)",0,9173.585,0
0,62,target,"[(1027, 936)]",[],[1],[],horizontal,"(890.0, 262.0)",,"('fix', 0.083)",0,9178.618,0
0,63,target,"[(1033, 920)]",[],[1],[],horizontal,"(390.0, 762.0)",,"('fix', 0.067)",0,9180.316,0
0,64,target,"[(1005, 923)]",[],[1],[],horizontal,"(890.0, 762.0)",,"('fix', 0.545)",0,9181.946,0
0,65,target,"[(1022, 917)]",[],[1],[],vertical,"(890.0, 262.0)",,"('fix', 0.082)",0,9185.537,0
0,66,target,"[(1033, 918)]",[],[1],[0.5],vertical,"(390.0, 762.0)",1.0,0.464,1,9187.187,1
0,67,target,"[(1005, 970), (1024, 986), (930, 911), (1002, 914), (935, 949), (1005, 927)]",[],"[0, 0, 0, 0, 0, 1]",[],horizontal,"(390.0, 762.0)",,"('cti', 0.555)",0,9191.551,0
0,68,target,"[(1017, 901)]",[],[1],[],vertical,"(890.0, 262.0)",,"('fix', 0.052)",0,9198.219,0
0,69,target,"[(936, 908), (361, 465), (925, 933), (946, 921), (1010, 914)]",[],"[0, 0, 0, 0, 1]",[],vertical,"(390.0, 262.0)",,"('fix', 0.301)",0,9199.941,0
0,70,target,"[(1005, 905)]",[],[1],[0.5],horizontal,"(890.0, 762.0)",0.7166666666666667,0.457,1,9205.495,1
0,71,target,"[(1033, 955), (1005, 917)]",[],"[0, 1]",[0.23333333333333334],vertical,"(890.0, 262.0)",1.2833333333333332,0.199,1,9209.863,1
0,72,target,"[(1001, 916), (935, 926), (1010, 923)]",[],"[0, 0, 1]",[0.85],horizontal,"(390.0, 262.0)",1.0166666666666666,nan,0,9216.378,0
0,73,target,"[(1013, 920)]",[],[1],[0.55],horizontal,"(890.0, 262.0)",0.7333333333333333,0.508,1,9232.077,1
0,74,target,"[(942, 931), (1004, 938), (997, 921), (940, 933), (1004, 904), (937, 944), (922, 930), (397, 592), (935, 935), (933, 929), (857, 997), (927, 926), (931, 923), (939, 927), (1009, 937)]",[],"[0, 0, 0, 0, 0, 0, 0, 0, 0, 0, 0, 0, 0, 0, 1]",[],horizontal,"(890.0, 762.0)",,"('fix', 0.54)",0,9236.724,0
0,75,target,"[(1032, 905)]",[],[1],[],vertical,"(390.0, 262.0)",,"('fix', 0.611)",0,9254.78,0
0,76,target,"[(1003, 929), (1005, 920)]",[],"[0, 1]",[0.5],vertical,"(890.0, 262.0)",0.7333333333333333,0.465,1,9257.034,1
0,77,target,"[(1001, 926), (1002, 959), (927, 875), (1009, 917)]","[(939, 954)]","[0, 0, 0, 1]",[1.1],horizontal,"(390.0, 262.0)",,"('bar', 1.106)",0,9272.232,0
0,78,target,"[(1001, 926), (1008, 902)]",[],"[0, 1]",[0.6],vertical,"(390.0, 262.0)",1.1833333333333333,0.565,1,9277.486,1
0,79,target,"[(1007, 921)]",[],[1],[0.5166666666666666],vertical,"(890.0, 762.0)",0.9333333333333333,0.479,1,9282.967,1
0,80,target,"[(1007, 914)]",[],[1],[],horizontal,"(390.0, 262.0)",,"('fix', 0.115)",0,9287.77,0
0,81,target,"[(1006, 902)]",[],[1],[0.5666666666666667],horizontal,"(390.0, 262.0)",0.5,0.527,1,9289.717,1
0,82,target,"[(1009, 915)]",[],[1],[0.5666666666666667],horizontal,"(390.0, 762.0)",0.7833333333333333,0.529,1,9294.168,1
0,83,target,"[(1003, 931), (1003, 911), (998, 916), (1005, 919)]",[],"[0, 0, 0, 1]",[0.4666666666666667],vertical,"(890.0, 762.0)",1.3333333333333333,0.423,1,9300.113,1
0,84,target,"[(1003, 914), (950, 930), (969, 879), (1001, 914), (997, 931), (1010, 930)]",[],"[0, 0, 0, 0, 0, 1]",[],vertical,"(890.0, 762.0)",,"('cti', 0.441)",0,9308.481,0
0,85,target,"[(1023, 916)]",[],[1],[],horizontal,"(890.0, 762.0)",,"('cti', 0.654)",0,9315.309,0
0,86,target,"[(1025, 905)]",[],[1],[],horizontal,"(890.0, 762.0)",,"('fix', 0.066)",0,9319.221,0
0,87,target,"[(1004, 915), (1017, 917)]",[],"[0, 1]",[0.5],vertical,"(890.0, 262.0)",1.0666666666666667,0.469,1,9320.978,1
0,88,target,"[(1001, 944), (1004, 920), (1001, 893), (1013, 921)]",[],"[0, 0, 0, 1]",[0.4666666666666667],vertical,"(390.0, 762.0)",1.4833333333333334,0.434,1,9331.965,1
0,89,target,"[(946, 927), (1008, 912)]",[],"[0, 1]",[],horizontal,"(390.0, 262.0)",,"('cti', 0.623)",0,9339.305,0
0,90,target,"[(1001, 915), (939, 906), (1011, 892)]","[(1021, 910)]","[0, 0, 1]",[0.7],vertical,"(890.0, 762.0)",,"('bar', 0.711)",0,9344.066,0
0,91,target,"[(1002, 929), (1002, 910), (936, 915), (1005, 938)]",[],"[0, 0, 0, 1]",[0.5166666666666666],vertical,"(390.0, 262.0)",1.35,0.48,1,9349.214,1
0,92,target,"[(1004, 942), (932, 911), (1003, 914), (945, 957), (929, 904), (962, 927), (922, 919), (929, 944), (1002, 920), (1005, 903)]",[],"[0, 0, 0, 0, 0, 0, 0, 0, 0, 1]",[0.5333333333333333],vertical,"(390.0, 262.0)",1.25,0.495,1,9381.855,1
0,93,target,"[(1009, 940)]",[],[1],[0.5333333333333333],horizontal,"(390.0, 262.0)",1.4333333333333333,0.493,1,9395.516,1
0,94,catch,"[(1005, 911)]",[],[1],[],horizontal,"(890.0, 262.0)",1.4333333333333333,nan,1,9400.751,2
0,95,target,"[(1008, 939)]",[],[1],[],vertical,"(390.0, 762.0)",,"('cti', 0.344)",0,9406.346,0
0,96,target,"[(1006, 912)]",[],[1],[0.5333333333333333],vertical,"(890.0, 762.0)",1.0333333333333332,0.489,1,9410.487,1
0,97,target,"[(1005, 923)]",[],[1],[0.5666666666666667],vertical,"(890.0, 762.0)",0.6666666666666666,0.529,1,9415.404,1
0,98,target,"[(1012, 937)]",[],[1],[0.55],vertical,"(390.0, 262.0)",1.6166666666666667,0.51,1,9419.77,1
0,99,target,"[(1008, 924)]",[],[1],[0.55],vertical,"(890.0, 762.0)",1.0166666666666666,0.511,1,9426.721,2
0,100,catch,"[(1009, 939)]",[],[1],[],horizontal,"(390.0, 262.0)",1.6333333333333333,nan,1,9432.468,2
0,101,catch,"[(1003, 923), (934, 889), (1048, 893)]",[],"[0, 0, 1]",[],vertical,"(890.0, 762.0)",,"('fix', 0.052),nan",0,9438.213,0
0,102,target,"[(1029, 936)]",[],[1],[],vertical,"(390.0, 262.0)",,"('fix', 0.068)",0,9441.695,0
0,103,target,"[(1009, 923)]",[],[1],[],horizontal,"(890.0, 262.0)",,"('fix', 0.067)",0,9443.375,0
0,104,target,"[(1005, 911)]",[],[1],[0.5833333333333334],horizontal,"(890.0, 762.0)",1.05,0.539,1,9446.319,1
0,105,target,"[(1005, 923)]",[],[1],[0.6],horizontal,"(390.0, 762.0)",1.2166666666666666,0.556,1,9451.053,1
0,106,target,"[(1005, 927)]",[],[1],[],vertical,"(390.0, 262.0)",,"('fix', 0.05)",0,9456.054,0
0,107,target,"[(1005, 918)]",[],[1],[0.5],horizontal,"(890.0, 762.0)",0.9833333333333333,0.468,1,9458.414,1
0,108,target,"[(1011, 927)]",[],[1],[0.55],vertical,"(390.0, 762.0)",1.4833333333333334,0.518,1,9463.281,1
0,109,target,"[(1008, 932)]",[],[1],[0.5333333333333333],horizontal,"(390.0, 762.0)",1.6,0.501,1,9468.706,1
0,110,target,"[(1028, 923)]",[],[1],[],horizontal,"(890.0, 262.0)",,"('fix', 0.1)",0,9474.089,0
0,111,target,"[(1017, 921)]",[],[1],[],horizontal,"(890.0, 262.0)",,"('cti', 0.313)",0,9475.801,0
0,112,target,"[(1005, 923)]",[],[1],[],vertical,"(390.0, 762.0)",,"('fix', 0.048)",0,9478.886,0
0,113,target,"[(1037, 910)]",[],[1],[],vertical,"(390.0, 762.0)",,"('fix', 0.068)",0,9481.02,0
0,114,target,"[(1029, 896)]",[],[1],[],horizontal,"(390.0, 262.0)",,"('fix', 0.069)",0,9482.672,0
0,115,target,"[(945, 915), (916, 927), (1009, 964), (1002, 928), (1024, 946), (915, 899), (1005, 946), (373, 323), (925, 905), (1026, 928)]","[(926, 955)]","[0, 0, 0, 0, 0, 0, 0, 0, 0, 1]",[0.43333333333333335],vertical,"(890.0, 762.0)",,"('bar', 0.447)",0,9484.319,0
0,116,target,"[(1009, 909)]",[],[1],[],horizontal,"(890.0, 262.0)",,"('cti', 0.691)",0,9498.681,0
0,117,target,"[(945, 921), (931, 917), (1004, 908), (940, 911), (938, 941), (937, 914), (889, 991), (935, 903), (1036, 884)]",[],"[0, 0, 0, 0, 0, 0, 0, 0, 1]",[],vertical,"(390.0, 762.0)",,"('fix', 0.243)",0,9502.3,0
0,118,target,"[(1028, 895)]",[],[1],[0.3],vertical,"(890.0, 262.0)",1.3666666666666667,0.266,1,9515.645,1
0,119,target,"[(1005, 927)]",[],[1],[0.5166666666666666],horizontal,"(390.0, 762.0)",1.4,0.483,1,9520.402,1
0,120,target,"[(1005, 936)]",[],[1],[],horizontal,"(390.0, 762.0)",,"('fix', 0.068)",0,9525.416,0
0,121,target,"[(1008, 925)]",[],[1],[0.7333333333333333],vertical,"(890.0, 762.0)",1.25,0.696,1,9527.456,1
0,122,target,"[(1000, 934), (1005, 927)]",[],"[0, 1]",[],horizontal,"(390.0, 762.0)",,"('fix', 0.197)",0,9533.939,0
0,123,target,"[(1005, 931)]","[(1022, 938)]",[1],[0.5833333333333334],vertical,"(890.0, 762.0)",,"('bar', 0.59)",0,9536.674,0
0,124,target,"[(940, 945), (1006, 922)]",[],"[0, 1]",[0.5333333333333333],horizontal,"(390.0, 262.0)",0.7833333333333333,0.495,1,9539.367,1
0,125,target,"[(1008, 926)]",[],[1],[0.5],vertical,"(890.0, 262.0)",1.1833333333333333,0.463,1,9547.988,1
0,126,target,"[(1005, 924)]",[],[1],[0.5],vertical,"(390.0, 762.0)",1.1666666666666667,0.467,1,9553.034,1
0,127,target,"[(1009, 919)]",[],[1],[],horizontal,"(890.0, 262.0)",,"('fix', 0.083)",0,9558.26,0
0,128,target,"[(1003, 911), (1022, 918)]",[],"[0, 1]",[],vertical,"(390.0, 262.0)",,"('cti', 0.789)",0,9559.956,0
0,129,catch,"[(1006, 915)]",[],[1],[],vertical,"(390.0, 762.0)",,"('fix', 0.083),nan",0,9564.444,0
0,130,target,"[(1022, 911)]",[],[1],[],horizontal,"(890.0, 762.0)",,"('fix', 0.066)",0,9566.19,0
0,131,target,"[(1007, 893)]",[],[1],[],horizontal,"(390.0, 262.0)",,"('cti', 0.789)",0,9567.866,0
0,132,target,"[(1005, 933)]","[(946, 943)]",[1],[0.5166666666666666],vertical,"(890.0, 262.0)",,"('bar', 0.528)",0,9571.603,0
0,133,target,"[(1033, 923)]",[],[1],[0.5333333333333333],horizontal,"(390.0, 762.0)",0.7333333333333333,0.495,1,9577.235,1
0,134,catch,"[(1006, 923)]",[],[1],[],horizontal,"(390.0, 762.0)",1.4666666666666666,nan,1,9582.018,1
0,135,target,"[(1003, 929), (1006, 926)]",[],"[0, 1]",[],horizontal,"(390.0, 762.0)",,"('fix', 0.164)",0,9587.354,0
0,136,target,"[(1026, 904)]",[],[1],[],vertical,"(390.0, 262.0)",,"('fix', 0.083)",0,9589.941,0
0,137,target,"[(1003, 916), (924, 862), (1013, 906)]","[(938, 923)]","[0, 0, 1]",[0.55],vertical,"(390.0, 762.0)",,"('bar', 0.563)",0,9591.622,0
0,138,target,"[(1007, 892)]",[],[1],[],horizontal,"(890.0, 262.0)",,"('fix', 0.628)",0,9597.606,0
0,139,target,"[(1012, 903)]",[],[1],[],horizontal,"(390.0, 762.0)",,"('cti', 0.446)",0,9604.354,0
0,140,target,"[(1026, 917)]",[],[1],[0.5666666666666667],horizontal,"(390.0, 762.0)",1.15,0.523,1,9607.769,1
0,141,target,"[(1008, 938)]",[],[1],[0.48333333333333334],vertical,"(390.0, 262.0)",1.25,0.459,1,9612.699,1
0,142,target,"[(1008, 926)]",[],[1],[0.5833333333333334],vertical,"(890.0, 762.0)",1.3833333333333333,0.546,1,9617.678,1
0,143,target,"[(1008, 927)]",[],[1],[0.5666666666666667],horizontal,"(890.0, 262.0)",0.7166666666666667,0.528,1,9623.603,2
0,144,target,"[(1005, 927)]",[],[1],[0.5333333333333333],horizontal,"(890.0, 762.0)",1.0833333333333333,0.497,1,9628.781,2
0,145,catch,"[(1005, 911)]",[],[1],[],vertical,"(390.0, 262.0)",1.55,nan,1,9634.108,2
0,146,target,"[(1008, 924)]",[],[1],[0.43333333333333335],horizontal,"(890.0, 762.0)",1.3666666666666667,0.398,1,9642.417,2
0,147,target,"[(1006, 924)]",[],[1],[0.43333333333333335],vertical,"(890.0, 762.0)",1.2666666666666666,0.402,1,9648.702,2
0,148,target,"[(1006, 911)]",[],[1],[0.5],horizontal,"(390.0, 262.0)",0.85,0.463,1,9655.017,3
0,149,target,"[(1005, 938)]",[],[1],[0.5666666666666667],horizontal,"(390.0, 262.0)",1.15,0.524,1,9660.607,3
0,150,target,"[(1004, 925), (1005, 919)]",[],"[0, 1]",[],horizontal,"(390.0, 262.0)",,"('cti', 0.428)",0,9666.535,0
0,151,target,"[(1013, 919)]",[],[1],[0.4666666666666667],horizontal,"(390.0, 262.0)",1.6666666666666667,0.432,1,9672.456,1
0,152,target,"[(1008, 924)]",[],[1],[0.5333333333333333],vertical,"(390.0, 762.0)",1.2666666666666666,0.491,1,9678.327,1
0,153,target,"[(1007, 938)]",[],[1],[],vertical,"(890.0, 762.0)",,"('fix', 0.445)",0,9683.875,0
0,154,target,"[(1005, 923)]",[],[1],[],horizontal,"(890.0, 762.0)",,"('fix', 0.152)",0,9687.34,0
0,155,catch,"[(1005, 920)]",[],[1],[],vertical,"(890.0, 262.0)",,"('fix', 0.495),nan",0,9689.125,0
0,156,target,"[(1033, 918)]",[],[1],[0.5666666666666667],vertical,"(890.0, 262.0)",0.9333333333333333,0.528,1,9694.373,1
0,157,target,"[(1005, 919)]",[],[1],[0.5166666666666666],vertical,"(390.0, 762.0)",1.15,0.478,1,9698.652,1
0,158,target,"[(1005, 923)]",[],[1],[0.5],vertical,"(890.0, 262.0)",1.1166666666666667,0.462,1,9704.0,1
0,159,target,"[(1005, 923)]",[],[1],[],vertical,"(890.0, 762.0)",,"('fix', 0.084)",0,9709.25,0
0,160,target,"[(1009, 919)]",[],[1],[],vertical,"(890.0, 762.0)",,"('cti', 0.051)",0,9711.575,0
0,161,target,"[(1004, 918), (1003, 902), (1026, 915)]",[],"[0, 0, 1]",[],horizontal,"(890.0, 762.0)",,"('fix', 0.079)",0,9714.898,0
0,162,target,"[(1005, 921)]",[],[1],[0.11666666666666667],horizontal,"(390.0, 762.0)",0.5666666666666667,0.084,0,9718.062,0
0,163,target,"[(1005, 927)]",[],[1],[],vertical,"(390.0, 262.0)",,"('cti', 0.511)",0,9722.411,0
0,164,target,"[(1024, 925)]",[],[1],[0.7666666666666666],horizontal,"(890.0, 262.0)",0.6166666666666667,0.72,1,9726.124,1
0,165,target,"[(1021, 924)]",[],[1],[0.5833333333333334],horizontal,"(890.0, 762.0)",0.9833333333333333,0.547,1,9731.503,1
0,166,target,"[(1006, 915)]",[],[1],[0.85],vertical,"(890.0, 262.0)",0.8333333333333334,nan,0,9736.775,0
0,167,target,"[(1005, 924)]",[],[1],[],vertical,"(390.0, 262.0)",,"('cti', 0.656)",0,9741.494,0
0,168,target,"[(1006, 927)]",[],[1],[0.5],horizontal,"(890.0, 262.0)",1.5333333333333332,0.464,1,9747.513,1
0,169,target,"[(1004, 911), (1001, 915), (1004, 893), (1006, 911)]",[],"[0, 0, 0, 1]",[],horizontal,"(890.0, 762.0)",,"('fix', 0.377)",0,9759.216,0
0,170,target,"[(939, 946), (1008, 885)]",[],"[0, 1]",[0.6],vertical,"(390.0, 262.0)",0.7333333333333333,0.561,1,9764.09,1
0,171,target,"[(1009, 924)]",[],[1],[0.5333333333333333],vertical,"(390.0, 762.0)",1.55,0.498,1,9776.428,1
0,172,target,"[(1007, 925)]",[],[1],[0.5666666666666667],horizontal,"(890.0, 262.0)",1.5166666666666666,0.524,1,9781.856,1
0,173,catch,"[(1023, 936)]",[],[1],[],horizontal,"(890.0, 762.0)",1.6333333333333333,nan,1,9787.813,2
0,174,target,"[(1006, 926)]",[],[1],[],vertical,"(890.0, 762.0)",,"('cti', 0.504)",0,9794.265,0
0,175,target,"[(1007, 928)]",[],[1],[0.5166666666666666],horizontal,"(390.0, 762.0)",1.0166666666666666,0.485,1,9797.851,1
0,176,catch,"[(1005, 915)]",[],[1],[],vertical,"(390.0, 762.0)",1.6333333333333333,nan,1,9803.895,1
0,177,target,"[(1006, 936)]",[],[1],[0.5333333333333333],horizontal,"(890.0, 762.0)",1.1,0.496,1,9808.983,1
0,178,target,"[(1005, 923)]",[],[1],[0.55],horizontal,"(390.0, 262.0)",1.4666666666666666,0.51,1,9815.89,2
0,179,target,"[(1005, 911)]",[],[1],[0.6666666666666666],horizontal,"(890.0, 262.0)",1.65,0.622,1,9821.46,2
0,180,target,"[(1001, 949), (1005, 906)]","[(958, 921)]","[0, 1]",[0.21666666666666667],vertical,"(390.0, 262.0)",,"('bar', 0.228)",0,9827.409,0
0,181,target,"[(931, 920), (1005, 918)]",[],"[0, 1]",[0.7],horizontal,"(390.0, 262.0)",0.95,0.667,1,9831.489,1
0,182,target,"[(1001, 932), (1005, 907)]",[],"[0, 1]",[],horizontal,"(890.0, 262.0)",,"('fix', 0.068)",0,9840.2,0
0,183,target,"[(938, 902), (1006, 887)]",[],"[0, 1]",[0.48333333333333334],horizontal,"(390.0, 262.0)",1.5666666666666667,0.447,1,9842.972,1
0,184,target,"[(1010, 919)]",[],[1],[0.75],vertical,"(390.0, 262.0)",0.8666666666666667,0.714,1,9853.246,1
0,185,target,"[(1008, 928)]",[],[1],[0.48333333333333334],vertical,"(890.0, 262.0)",0.5666666666666667,0.445,1,9857.837,1
0,186,target,"[(1009, 928)]",[],[1],[0.5],horizontal,"(890.0, 762.0)",1.15,0.468,1,9864.29,2
0,187,target,"[(1005, 939)]",[],[1],[0.85],vertical,"(890.0, 262.0)",0.8,nan,0,9869.987,0
0,188,target,"[(1022, 922)]",[],[1],[0.4666666666666667],vertical,"(890.0, 262.0)",1.4333333333333333,0.433,1,9874.855,1
0,189,target,"[(1005, 918)]",[],[1],[0.75],horizontal,"(390.0, 262.0)",1.6833333333333333,0.704,1,9881.079,1
0,190,target,"[(1005, 923)]",[],[1],[0.48333333333333334],vertical,"(390.0, 262.0)",1.1666666666666667,0.447,1,9886.79,1
0,191,target,"[(1009, 921)]",[],[1],[0.85],horizontal,"(890.0, 762.0)",0.6333333333333333,nan,0,9891.963,0
0,192,target,"[(1006, 920)]",[],[1],[],vertical,"(890.0, 262.0)",,"('cti', 0.572)",0,9896.836,0
0,193,target,"[(1003, 907), (1002, 902), (1001, 876), (1004, 946), (1009, 936)]",[],"[0, 0, 0, 0, 1]",[],horizontal,"(390.0, 762.0)",,"('fix', 0.247)",0,9903.023,0
0,194,target,"[(945, 932), (1005, 908)]",[],"[0, 1]",[0.5],vertical,"(390.0, 262.0)",1.4833333333333334,0.459,1,9915.043,1
0,195,target,"[(1006, 927)]",[],[1],[0.5166666666666666],horizontal,"(890.0, 262.0)",0.5166666666666666,0.481,1,9924.813,1
0,196,target,"[(1005, 920)]",[],[1],[0.5166666666666666],vertical,"(890.0, 262.0)",1.2166666666666666,0.472,1,9929.192,1
0,197,target,"[(1006, 923)]",[],[1],[0.5333333333333333],horizontal,"(390.0, 262.0)",0.95,0.496,1,9934.302,2
0,198,target,"[(1008, 926)]",[],[1],[0.7833333333333333],horizontal,"(390.0, 762.0)",0.5666666666666667,0.739,1,9939.635,2
0,199,target,"[(1004, 918), (1004, 902), (1003, 922), (1004, 911), (1004, 897), (939, 923), (935, 904), (437, 514), (1028, 970), (1005, 929)]",[],"[0, 0, 0, 0, 0, 0, 0, 0, 0, 1]",[0.7166666666666667],vertical,"(890.0, 762.0)",1.4,0.673,1,9944.424,2
0,200,catch,"[(1005, 928)]",[],[1],[],vertical,"(890.0, 762.0)",1.15,nan,1,9980.907,2
0,201,target,"[(1005, 937)]",[],[1],[0.48333333333333334],horizontal,"(890.0, 262.0)",1.6,0.447,1,9985.859,2
0,202,target,"[(1001, 923), (1005, 911)]",[],"[0, 1]",[0.43333333333333335],vertical,"(890.0, 262.0)",1.6833333333333333,0.394,1,9991.318,3
0,203,target,"[(1001, 959), (1001, 915), (930, 927), (1029, 921)]",[],"[0, 0, 0, 1]",[0.5333333333333333],vertical,"(890.0, 762.0)",0.7666666666666666,0.5,1,9998.269,3
0,204,target,"[(1010, 941)]",[],[1],[0.6666666666666666],vertical,"(390.0, 762.0)",0.6666666666666666,0.625,1,10013.003,3
0,205,target,"[(1022, 933)]",[],[1],[0.5166666666666666],horizontal,"(890.0, 262.0)",0.8166666666666667,0.482,1,10018.511,3
0,206,target,"[(1001, 920), (1013, 927)]",[],"[0, 1]",[0.5666666666666667],horizontal,"(390.0, 262.0)",0.6333333333333333,0.527,1,10024.006,3
0,207,catch,"[(999, 923), (1013, 898)]",[],"[0, 1]",[],horizontal,"(890.0, 262.0)",1.5333333333333332,nan,1,10031.463,3
0,208,target,"[(1002, 932), (1004, 889), (1003, 906), (1004, 920), (314, 576), (940, 946), (1001, 892), (1019, 938)]",[],"[0, 0, 0, 0, 0, 0, 0, 1]",[0.5166666666666666],horizontal,"(890.0, 262.0)",0.6333333333333333,0.476,1,10040.601,3
0,209,catch,"[(1009, 923)]",[],[1],[],horizontal,"(390.0, 762.0)",1.4333333333333333,nan,1,10054.941,3
0,210,target,"[(1006, 918)]",[],[1],[],vertical,"(890.0, 262.0)",,"('cti', 0.496)",0,10062.959,0
0,211,target,"[(1001, 932), (1005, 914)]",[],"[0, 1]",[0.65],vertical,"(390.0, 762.0)",0.7,0.615,1,10068.671,1
0,212,target,"[(998, 921), (1001, 900), (998, 925), (1001, 876), (1021, 894)]",[],"[0, 0, 0, 0, 1]",[],vertical,"(890.0, 762.0)",,"('cti', 0.116)",0,10074.63,0
0,213,target,"[(1005, 910)]",[],[1],[0.5166666666666666],horizontal,"(890.0, 262.0)",0.65,0.478,1,10082.958,1
0,214,target,"[(1005, 920)]",[],[1],[0.48333333333333334],horizontal,"(390.0, 762.0)",1.2,0.441,1,10087.937,1
0,215,target,"[(1009, 930)]",[],[1],[0.5],vertical,"(890.0, 762.0)",0.6166666666666667,0.473,1,10093.012,1
0,216,target,"[(1006, 921)]",[],[1],[0.5333333333333333],horizontal,"(890.0, 762.0)",0.8166666666666667,0.497,1,10097.774,2
0,217,target,"[(1025, 910)]",[],[1],[0.5833333333333334],vertical,"(890.0, 762.0)",0.8333333333333334,0.544,1,10102.865,2
0,218,target,"[(1005, 917)]",[],[1],[0.23333333333333334],horizontal,"(390.0, 262.0)",1.6166666666666667,0.2,1,10108.159,2
0,219,target,"[(1008, 911)]",[],[1],[0.4166666666666667],vertical,"(890.0, 262.0)",1.6166666666666667,0.38,1,10113.824,2
0,220,target,"[(1005, 905)]",[],[1],[0.5166666666666666],vertical,"(890.0, 762.0)",0.7833333333333333,0.478,1,10119.75,2
0,221,target,"[(1005, 928)]",[],[1],[0.4666666666666667],vertical,"(890.0, 262.0)",1.55,0.427,1,10125.407,3
0,222,catch,"[(1007, 912)]",[],[1],[],vertical,"(890.0, 762.0)",1.35,nan,1,10131.474,3
0,223,target,"[(1008, 936)]",[],[1],[0.6],horizontal,"(390.0, 262.0)",0.85,0.562,1,10136.589,3
0,224,target,"[(1008, 944)]",[],[1],[0.5333333333333333],horizontal,"(390.0, 762.0)",0.75,0.495,1,10141.974,3
0,225,catch,"[(1003, 943), (1004, 915), (1003, 946), (1003, 913), (1005, 919)]",[],"[0, 0, 0, 0, 1]",[],horizontal,"(890.0, 262.0)",1.2333333333333334,nan,1,10147.839,3
0,226,target,"[(938, 937), (945, 908), (973, 953), (1008, 899)]",[],"[0, 0, 0, 1]",[0.5],vertical,"(390.0, 762.0)",0.7166666666666667,0.465,1,10161.573,3
0,227,target,"[(944, 960), (945, 927), (1025, 892)]",[],"[0, 0, 1]",[0.18333333333333332],vertical,"(890.0, 762.0)",1.3666666666666667,0.151,1,10168.556,3
0,228,target,"[(1008, 923)]",[],[1],[0.3],vertical,"(890.0, 762.0)",1.6333333333333333,0.261,1,10175.366,3
0,229,target,"[(1001, 932), (937, 919), (1029, 909)]",[],"[0, 0, 1]",[0.48333333333333334],horizontal,"(890.0, 262.0)",1.2666666666666666,0.441,1,10181.417,3
0,230,target,"[(1030, 930)]",[],[1],[],horizontal,"(890.0, 262.0)",,"('cti', 0.851)",0,10188.74,0
0,231,catch,"[(938, 923), (1001, 886), (939, 902), (943, 930), (1001, 888), (962, 942), (927, 945), (943, 882), (568, 284), (1001, 877), (1002, 914), (590, 355), (1002, 923), (938, 944), (1003, 921), (1033, 929)]",[],"[0, 0, 0, 0, 0, 0, 0, 0, 0, 0, 0, 0, 0, 0, 0, 1]",[],horizontal,"(890.0, 762.0)",1.45,"('cti', 1.447),nan",0,10193.761,0
0,232,target,"[(945, 922), (933, 906), (913, 986), (946, 935), (926, 926), (1003, 941), (440, 383), (961, 892), (950, 896), (1048, 894)]",[],"[0, 0, 0, 0, 0, 0, 0, 0, 0, 1]",[],vertical,"(890.0, 262.0)",,"('fix', 0.066)",0,10215.496,0
0,233,target,"[(1034, 907)]",[],[1],[],horizontal,"(390.0, 762.0)",,"('fix', 0.052)",0,10222.464,0
0,234,target,"[(1029, 919)]",[],[1],[],vertical,"(890.0, 262.0)",,"('fix', 0.084)",0,10224.124,0
0,235,target,"[(1025, 903)]",[],[1],[0.4666666666666667],vertical,"(890.0, 262.0)",1.4333333333333333,0.429,1,10225.823,1
0,236,target,"[(926, 861), (475, 526), (940, 939), (1031, 904)]",[],"[0, 0, 0, 1]",[],vertical,"(390.0, 262.0)",,"('cti', 0.096)",0,10230.773,0
0,237,target,"[(1033, 917)]",[],[1],[],horizontal,"(390.0, 262.0)",,"('fix', 0.05)",0,10239.26,0
0,238,target,"[(1009, 939)]",[],[1],[],vertical,"(890.0, 762.0)",,"('fix', 0.283)",0,10241.474,0
0,239,target,"[(1025, 932)]",[],[1],[0.5],horizontal,"(890.0, 262.0)",0.8333333333333334,0.464,1,10243.626,1
0,240,target,"[(1005, 913)]",[],[1],[0.5166666666666666],horizontal,"(890.0, 262.0)",1.2666666666666666,0.476,1,10252.061,1
0,241,catch,"[(925, 860), (922, 861), (1027, 899)]",[],"[0, 0, 1]",[],vertical,"(390.0, 262.0)",1.5333333333333332,nan,1,10256.903,1
0,242,target,"[(1003, 909), (1006, 885)]",[],"[0, 1]",[0.5666666666666667],horizontal,"(390.0, 262.0)",0.8666666666666667,0.534,1,10264.542,2
0,243,target,"[(1005, 905)]",[],[1],[0.7166666666666667],vertical,"(890.0, 762.0)",0.6,0.68,1,10269.943,2
0,244,target,"[(1022, 898)]",[],[1],[0.36666666666666664],vertical,"(390.0, 762.0)",1.3333333333333333,0.331,1,10274.543,2
0,245,catch,"[(1005, 924)]",[],[1],[],vertical,"(390.0, 762.0)",1.6166666666666667,nan,1,10279.715,2
0,246,catch,"[(1001, 920), (1001, 904), (1000, 886), (1003, 921), (934, 919), (1001, 906), (997, 876), (910, 933), (1004, 909), (931, 910), (933, 915), (1048, 841)]",[],"[0, 0, 0, 0, 0, 0, 0, 0, 0, 0, 0, 1]",[],horizontal,"(890.0, 262.0)",,"('fix', 0.084),nan",0,10285.069,0
0,247,target,"[(1001, 944), (1001, 905), (1005, 876)]",[],"[0, 0, 1]",[],horizontal,"(890.0, 262.0)",,"('fix', 0.335)",0,10298.308,0
0,248,target,"[(938, 903), (1029, 924)]",[],"[0, 1]",[0.6833333333333333],horizontal,"(390.0, 262.0)",0.6,0.644,1,10308.328,1
0,249,target,"[(1001, 925), (1001, 873), (935, 927), (1004, 909), (449, 743), (938, 909), (1005, 922)]","[(940, 924)]","[0, 0, 0, 0, 0, 0, 1]",[0.06666666666666667],horizontal,"(390.0, 762.0)",,"('bar', 0.084)",0,10313.58,0
0,250,target,"[(1028, 912)]",[],[1],[0.5],horizontal,"(890.0, 762.0)",0.8166666666666667,0.467,1,10320.862,1
0,251,target,"[(1001, 896), (1009, 893)]",[],"[0, 1]",[0.5],horizontal,"(390.0, 762.0)",1.1833333333333333,0.467,1,10325.053,1
0,252,catch,"[(1005, 910)]",[],[1],[],horizontal,"(390.0, 262.0)",1.2,nan,1,10330.895,1
0,253,target,"[(1008, 930)]",[],[1],[0.5333333333333333],vertical,"(890.0, 762.0)",0.8666666666666667,0.493,1,10335.391,2
0,254,target,"[(1019, 900)]",[],[1],[0.5],horizontal,"(390.0, 262.0)",1.0,0.463,1,10340.454,2
0,255,target,"[(1009, 916)]",[],[1],[0.85],vertical,"(890.0, 262.0)",0.6,nan,0,10345.322,0
0,256,target,"[(1005, 906)]",[],[1],[0.5333333333333333],horizontal,"(390.0, 762.0)",0.9833333333333333,0.496,1,10349.825,1
0,257,catch,"[(1005, 909)]",[],[1],[],vertical,"(890.0, 762.0)",1.3666666666666667,nan,1,10354.389,1
0,258,target,"[(1006, 933)]",[],[1],[0.48333333333333334],horizontal,"(390.0, 262.0)",1.5166666666666666,0.442,1,10359.375,1
0,259,target,"[(1005, 911)]",[],[1],[0.5166666666666666],vertical,"(390.0, 262.0)",0.7166666666666667,0.48,1,10364.566,2
0,260,target,"[(1029, 919)]",[],[1],[0.4666666666666667],horizontal,"(890.0, 262.0)",1.35,0.43,1,10369.291,2
0,261,target,"[(1002, 921), (1005, 880)]",[],"[0, 1]",[0.5666666666666667],vertical,"(390.0, 762.0)",1.1833333333333333,0.527,1,10374.771,2
0,262,target,"[(1001, 918), (929, 888), (1001, 859), (1001, 896), (993, 915), (1001, 948), (930, 915), (590, 421), (1003, 928), (925, 896), (1001, 935), (1020, 913)]",[],"[0, 0, 0, 0, 0, 0, 0, 0, 0, 0, 0, 1]",[0.7],vertical,"(390.0, 762.0)",0.85,0.655,1,10380.443,2
0,263,target,"[(1003, 924), (939, 898), (933, 917), (941, 871), (1029, 880)]",[],"[0, 0, 0, 0, 1]",[0.6333333333333333],horizontal,"(390.0, 262.0)",0.9166666666666666,0.593,1,10400.242,2
0,264,target,"[(1001, 923), (1003, 878), (1001, 874), (1003, 909), (940, 881), (968, 886), (1001, 876), (1001, 918), (1003, 899), (938, 935), (1029, 954), (1009, 948), (1001, 935), (1005, 905)]",[],"[0, 0, 0, 0, 0, 0, 0, 0, 0, 0, 0, 0, 0, 1]",[0.6166666666666667],vertical,"(390.0, 762.0)",0.5,0.577,1,10414.314,3
0,265,target,"[(1003, 920), (1012, 875)]",[],"[0, 1]",[0.43333333333333335],vertical,"(390.0, 762.0)",1.0333333333333332,0.393,1,10439.993,3
0,266,catch,"[(1005, 913)]",[],[1],[],vertical,"(890.0, 262.0)",1.15,nan,1,10446.287,3
0,267,target,"[(1008, 926)]",[],[1],[0.48333333333333334],vertical,"(890.0, 262.0)",1.3,0.448,1,10451.29,3
0,268,target,"[(1025, 920)]",[],[1],[0.6],vertical,"(390.0, 262.0)",0.9,0.564,1,10457.073,3
0,269,target,"[(1009, 923)]",[],[1],[0.7],vertical,"(890.0, 762.0)",0.5166666666666666,0.656,1,10462.042,3
0,270,target,"[(1029, 927)]",[],[1],[0.4166666666666667],vertical,"(890.0, 262.0)",1.6666666666666667,0.376,1,10467.111,3
0,271,target,"[(1006, 903)]",[],[1],[0.5166666666666666],vertical,"(890.0, 762.0)",1.0833333333333333,0.483,1,10472.941,3
0,272,target,"[(1033, 904)]",[],[1],[0.5666666666666667],vertical,"(390.0, 262.0)",0.9833333333333333,0.527,1,10478.595,3
0,273,target,"[(1005, 928)]",[],[1],[0.5333333333333333],vertical,"(890.0, 762.0)",1.0833333333333333,0.499,1,10484.316,3
0,274,target,"[(1015, 926)]",[],[1],[0.5],vertical,"(890.0, 262.0)",0.8666666666666667,0.46,1,10489.591,3
0,275,target,"[(1009, 945), (1006, 907)]",[],"[0, 1]",[0.4166666666666667],vertical,"(390.0, 262.0)",1.65,0.38,1,10494.977,3
0,276,catch,"[(1005, 915)]",[],[1],[],horizontal,"(390.0, 762.0)",1.2,nan,1,10501.776,3
0,277,target,"[(1001, 916), (1005, 902)]",[],"[0, 1]",[0.5166666666666666],vertical,"(890.0, 262.0)",0.9,0.482,1,10506.647,3
0,278,catch,"[(1021, 940)]",[],[1],[],horizontal,"(890.0, 262.0)",1.4666666666666666,nan,1,10515.405,3
0,279,target,"[(1005, 906)]",[],[1],[0.5666666666666667],vertical,"(890.0, 762.0)",0.7333333333333333,0.527,1,10520.757,3
0,280,target,"[(1008, 913)]",[],[1],[0.4666666666666667],vertical,"(890.0, 762.0)",1.65,0.426,1,10525.875,3
0,281,target,"[(1003, 919), (1001, 896), (1006, 885)]",[],"[0, 0, 1]",[0.45],horizontal,"(390.0, 262.0)",1.0166666666666666,0.411,1,10531.428,3
0,282,target,"[(1025, 915)]","[(1030, 940)]",[1],[0.9333333333333333],vertical,"(890.0, 262.0)",,"('bar', 0.939)",0,10538.444,0
0,283,target,"[(1003, 923), (1021, 903)]",[],"[0, 1]",[0.5333333333333333],horizontal,"(390.0, 262.0)",0.6,0.5,1,10541.724,1
0,284,target,"[(1024, 918)]",[],[1],[],horizontal,"(390.0, 762.0)",,"('cti', 0.364)",0,10547.439,0
0,285,target,"[(1011, 896)]",[],[1],[0.5666666666666667],horizontal,"(390.0, 262.0)",1.1333333333333333,0.526,1,10551.26,1
0,286,target,"[(1005, 903)]",[],[1],[0.13333333333333333],horizontal,"(890.0, 762.0)",1.4,0.101,0,10556.793,0
0,287,target,"[(1006, 902)]",[],[1],[0.48333333333333334],horizontal,"(890.0, 262.0)",0.8333333333333334,0.447,1,10561.273,1
0,288,target,"[(1001, 894), (1005, 890)]",[],"[0, 1]",[0.08333333333333333],vertical,"(890.0, 262.0)",0.9333333333333333,0.05,0,10565.957,0
0,289,target,"[(1007, 919)]",[],[1],[0.55],vertical,"(390.0, 762.0)",0.7666666666666666,0.51,1,10571.178,1
0,290,target,"[(1004, 911), (1002, 900), (1005, 916)]",[],"[0, 0, 1]",[],horizontal,"(390.0, 262.0)",,"('fix', 0.25)",0,10575.298,0
0,291,target,"[(1040, 917)]",[],[1],[0.55],horizontal,"(890.0, 762.0)",0.5666666666666667,0.508,1,10578.66,1
0,292,target,"[(1009, 915)]",[],[1],[0.48333333333333334],vertical,"(890.0, 262.0)",1.2833333333333332,0.444,1,10582.643,1
0,293,catch,"[(1005, 927)]",[],[1],[],horizontal,"(890.0, 262.0)",1.6166666666666667,nan,1,10587.689,1
0,294,target,"[(1026, 903)]",[],[1],[],horizontal,"(390.0, 262.0)",,"('fix', 0.051)",0,10592.298,0
0,295,target,"[(1029, 911)]",[],[1],[],horizontal,"(890.0, 762.0)",,"('fix', 0.066)",0,10594.004,0
0,296,target,"[(1006, 920)]",[],[1],[0.5333333333333333],vertical,"(390.0, 762.0)",1.1166666666666667,0.495,1,10595.677,1
0,297,catch,"[(1005, 906)]",[],[1],[],horizontal,"(390.0, 762.0)",1.35,nan,1,10602.212,1
0,298,target,"[(1008, 925)]",[],[1],[0.15],horizontal,"(890.0, 762.0)",1.6333333333333333,0.116,0,10606.838,0
0,299,target,"[(1029, 920)]",[],[1],[],horizontal,"(890.0, 262.0)",,"('fix', 0.085)",0,10612.171,0
0,300,target,"[(1006, 914)]",[],[1],[],vertical,"(890.0, 262.0)",,"('fix', 0.217)",0,10613.831,0
0,301,target,"[(993, 920), (931, 893), (1033, 923)]",[],"[0, 0, 1]",[],horizontal,"(890.0, 262.0)",,"('fix', 0.05)",0,10615.66,0
0,302,catch,"[(1009, 919)]",[],[1],[],vertical,"(390.0, 762.0)",,"('fix', 0.068),nan",0,10621.867,0
0,303,target,"[(1004, 902), (1005, 898)]",[],"[0, 1]",[0.5166666666666666],vertical,"(390.0, 262.0)",0.75,0.48,1,10623.596,1
0,304,target,"[(1006, 908)]",[],[1],[0.7333333333333333],vertical,"(390.0, 762.0)",0.7666666666666666,0.692,1,10643.495,1
0,305,target,"[(1007, 919)]",[],[1],[0.85],horizontal,"(890.0, 262.0)",0.5833333333333334,nan,0,10648.357,0
0,306,target,"[(1008, 928)]",[],[1],[0.7],vertical,"(390.0, 762.0)",0.9333333333333333,0.652,1,10652.877,1
0,307,target,"[(1005, 926)]",[],[1],[0.6],horizontal,"(390.0, 262.0)",0.8333333333333334,0.552,1,10657.968,1
0,308,target,"[(1003, 906), (1025, 897)]",[],"[0, 1]",[0.5666666666666667],horizontal,"(390.0, 762.0)",0.5166666666666666,0.528,1,10662.459,1
0,309,target,"[(1005, 902)]",[],[1],[0.4166666666666667],horizontal,"(890.0, 762.0)",1.4333333333333333,0.381,1,10676.544,2
0,310,target,"[(1005, 919)]",[],[1],[0.7],horizontal,"(390.0, 262.0)",1.1,0.652,1,10682.213,2
0,311,target,"[(1005, 911)]",[],[1],[0.5666666666666667],horizontal,"(390.0, 762.0)",1.3,0.529,1,10687.271,2
0,312,target,"[(1004, 899), (1003, 890), (1000, 925), (1003, 892), (1004, 910), (1003, 914), (1001, 908), (999, 901), (1001, 890), (1001, 919), (999, 893), (1002, 863), (1004, 859), (997, 914), (1000, 899), (1003, 899), (938, 923), (930, 912), (1001, 890), (1021, 910)]",[],"[0, 0, 0, 0, 0, 0, 0, 0, 0, 0, 0, 0, 0, 0, 0, 0, 0, 0, 0, 1]",[],horizontal,"(390.0, 262.0)",,"('fix', 0.082)",0,10692.943,0
0,313,target,"[(1001, 889), (1007, 874)]",[],"[0, 1]",[],vertical,"(390.0, 762.0)",,"('cti', 1.531)",0,10735.946,0
0,314,target,"[(1007, 903)]",[],[1],[0.7],vertical,"(890.0, 762.0)",0.9833333333333333,0.654,1,10741.578,1
0,315,target,"[(1008, 919)]",[],[1],[0.45],vertical,"(890.0, 262.0)",1.2166666666666666,0.413,1,10746.696,1
0,316,target,"[(1017, 923)]",[],[1],[0.26666666666666666],horizontal,"(390.0, 262.0)",1.65,0.23,1,10751.886,1
0,317,target,"[(1022, 909)]",[],[1],[0.3],vertical,"(390.0, 762.0)",1.5,0.267,1,10756.791,2
0,318,target,"[(1017, 940)]",[],[1],[0.45],horizontal,"(890.0, 262.0)",0.9666666666666667,0.411,1,10761.968,2
0,319,target,"[(1025, 932)]",[],[1],[0.5333333333333333],vertical,"(390.0, 262.0)",1.05,0.495,1,10766.946,2
0,320,target,"[(1021, 900)]",[],[1],[0.5],vertical,"(890.0, 262.0)",1.1333333333333333,0.457,1,10772.338,2
0,321,target,"[(1025, 904)]",[],[1],[0.06666666666666667],horizontal,"(390.0, 262.0)",0.65,0.037,0,10777.131,0
0,322,target,"[(1008, 926)]",[],[1],[0.25],horizontal,"(390.0, 762.0)",1.65,0.216,1,10780.543,1
0,323,target,"[(1025, 917)]",[],[1],[0.5166666666666666],horizontal,"(390.0, 262.0)",0.95,0.485,1,10785.861,1
0,324,target,"[(1030, 912)]",[],[1],[0.5166666666666666],horizontal,"(890.0, 262.0)",1.1666666666666667,0.476,1,10790.494,1
0,325,target,"[(1025, 905)]",[],[1],[],vertical,"(890.0, 762.0)",,"('cti', 1.167)",0,10794.979,0
0,326,target,"[(1021, 898)]",[],[1],[0.4666666666666667],horizontal,"(890.0, 262.0)",0.8166666666666667,0.428,1,10799.411,1
0,327,target,"[(1031, 903)]",[],[1],[0.48333333333333334],horizontal,"(890.0, 262.0)",0.7666666666666666,0.444,1,10803.552,1
0,328,target,"[(1020, 909)]",[],[1],[0.5166666666666666],horizontal,"(390.0, 262.0)",0.7333333333333333,0.486,1,10808.227,1
0,329,target,"[(1021, 909)]",[],[1],[0.45],vertical,"(390.0, 762.0)",1.35,0.41,1,10812.713,2
0,330,target,"[(1014, 928)]",[],[1],[0.4166666666666667],horizontal,"(890.0, 262.0)",1.2333333333333334,0.38,1,10818.424,2
0,331,target,"[(1002, 891), (1029, 888)]",[],"[0, 1]",[0.5],horizontal,"(890.0, 762.0)",0.9333333333333333,0.463,1,10824.04,2
0,332,target,"[(1033, 900)]",[],[1],[0.5],horizontal,"(390.0, 262.0)",1.0833333333333333,0.465,1,10829.9,2
0,333,target,"[(1020, 888)]",[],[1],[],horizontal,"(390.0, 762.0)",,"('cti', 1.425)",0,10834.673,0
0,334,target,"[(938, 919), (1005, 898)]",[],"[0, 1]",[0.6666666666666666],vertical,"(390.0, 762.0)",0.7333333333333333,0.634,1,10839.175,1
0,335,target,"[(1001, 929), (1006, 892)]",[],"[0, 1]",[0.5333333333333333],vertical,"(390.0, 762.0)",1.05,0.495,1,10844.559,1
0,336,catch,"[(1001, 885), (1001, 873), (938, 869), (1029, 895)]",[],"[0, 0, 0, 1]",[],vertical,"(890.0, 262.0)",1.55,nan,1,10850.199,1
0,337,target,"[(1001, 906), (937, 879), (1001, 918), (1008, 897)]",[],"[0, 0, 0, 1]",[0.8],vertical,"(890.0, 762.0)",0.5833333333333334,0.757,1,10857.566,2
0,338,target,"[(1005, 910)]",[],[1],[0.3833333333333333],vertical,"(390.0, 262.0)",1.5666666666666667,0.348,1,10866.013,2
0,339,target,"[(1006, 906)]",[],[1],[0.55],vertical,"(890.0, 762.0)",1.2666666666666666,0.505,1,10871.536,2
0,340,target,"[(1006, 926)]",[],[1],[0.55],vertical,"(890.0, 262.0)",0.7333333333333333,0.51,1,10876.772,2
0,341,target,"[(1017, 884)]",[],[1],[0.5666666666666667],horizontal,"(390.0, 762.0)",1.0833333333333333,0.525,1,10881.189,2
0,342,target,"[(1020, 907)]",[],[1],[0.5333333333333333],vertical,"(890.0, 762.0)",1.1166666666666667,0.495,1,10886.066,3
0,343,target,"[(1022, 915)]",[],[1],[0.5333333333333333],horizontal,"(890.0, 262.0)",1.05,0.498,1,10891.443,3
0,344,catch,"[(1028, 918)]","[(1033, 937)]",[1],[0.6833333333333333],horizontal,"(390.0, 762.0)",,"('bar', 0.696),nan",0,10896.91,0
0,345,catch,"[(1008, 905)]",[],[1],[],horizontal,"(890.0, 762.0)",1.4333333333333333,nan,1,10899.962,1
0,346,target,"[(1017, 898)]",[],[1],[0.6333333333333333],horizontal,"(890.0, 762.0)",1.1666666666666667,0.595,1,10904.928,1
0,347,target,"[(1006, 893)]",[],[1],[0.45],horizontal,"(890.0, 262.0)",1.4666666666666666,0.415,1,10909.813,1
0,348,target,"[(1005, 898)]",[],[1],[0.23333333333333334],vertical,"(890.0, 262.0)",1.4833333333333334,0.198,1,10915.063,2
0,349,target,"[(1014, 892)]",[],[1],[],horizontal,"(890.0, 762.0)",,"('cti', 0.015)",0,10920.314,0
0,350,target,"[(1021, 918)]",[],[1],[0.4666666666666667],vertical,"(390.0, 262.0)",1.1333333333333333,0.432,1,10923.635,1
0,351,target,"[(1006, 909)]",[],[1],[0.5166666666666666],vertical,"(390.0, 262.0)",1.2,0.475,1,10928.661,1
0,352,catch,"[(1005, 903)]",[],[1],[],vertical,"(390.0, 762.0)",1.1666666666666667,nan,1,10933.879,1
0,353,target,"[(1029, 915)]",[],[1],[],vertical,"(390.0, 762.0)",,"('fix', 0.068)",0,10938.394,0
0,354,target,"[(1025, 924)]",[],[1],[0.5666666666666667],horizontal,"(890.0, 262.0)",0.95,0.536,1,10940.08,1
0,355,target,"[(1022, 882)]","[(1030, 915)]",[1],[0.5833333333333334],vertical,"(890.0, 762.0)",,"('bar', 0.595)",0,10944.967,0
0,356,target,"[(1009, 879)]",[],[1],[0.16666666666666666],horizontal,"(890.0, 762.0)",1.4833333333333334,0.134,0,10947.794,0
0,357,target,"[(1029, 894)]",[],[1],[0.4166666666666667],vertical,"(390.0, 262.0)",1.15,0.383,1,10953.446,1
0,358,target,"[(1026, 906)]",[],[1],[0.45],vertical,"(890.0, 262.0)",1.3,0.413,1,10957.967,1
0,359,target,"[(1028, 898)]",[],[1],[0.18333333333333332],vertical,"(890.0, 262.0)",1.6,0.148,0,10963.199,0
0,360,target,"[(1006, 884)]",[],[1],[0.6166666666666667],vertical,"(890.0, 262.0)",0.8333333333333334,0.575,1,10968.376,1
0,361,target,"[(1028, 885)]",[],[1],[0.55],vertical,"(890.0, 262.0)",1.6,0.511,1,10973.28,1
0,362,target,"[(1001, 901), (1001, 887), (938, 953), (1002, 933), (1001, 929), (1001, 926), (1001, 927), (1025, 907)]",[],"[0, 0, 0, 0, 0, 0, 0, 1]",[0.85],vertical,"(890.0, 762.0)",1.5333333333333332,nan,0,10978.261,0
0,363,target,"[(1005, 922)]",[],[1],[0.85],horizontal,"(390.0, 762.0)",0.5333333333333333,nan,0,11059.277,0
0,364,target,"[(1009, 918)]",[],[1],[0.5166666666666666],vertical,"(390.0, 262.0)",0.5666666666666667,0.475,1,11063.499,1
0,365,target,"[(1003, 921), (1003, 915), (1005, 885)]",[],"[0, 0, 1]",[0.85],horizontal,"(890.0, 262.0)",0.65,nan,0,11067.915,0
0,366,target,"[(1016, 916)]",[],[1],[0.5166666666666666],vertical,"(390.0, 262.0)",0.65,0.478,1,11074.101,1
0,367,target,"[(1013, 910)]",[],[1],[0.48333333333333334],vertical,"(890.0, 762.0)",1.2333333333333334,0.447,1,11083.942,1
0,368,target,"[(1007, 932)]",[],[1],[0.5666666666666667],horizontal,"(890.0, 762.0)",0.6666666666666666,0.522,1,11089.168,1
0,369,target,"[(1009, 924)]",[],[1],[0.45],vertical,"(890.0, 262.0)",1.55,0.41,1,11093.342,2
0,370,target,"[(1009, 927)]",[],[1],[0.3833333333333333],vertical,"(390.0, 762.0)",1.2,0.343,1,11098.808,2
0,371,target,"[(1014, 920)]",[],[1],[0.5],vertical,"(390.0, 262.0)",0.7666666666666666,0.463,1,11103.914,2
0,372,target,"[(1009, 919)]",[],[1],[0.6833333333333333],vertical,"(390.0, 262.0)",0.85,0.647,1,11109.158,2
0,373,target,"[(1021, 909)]",[],[1],[0.48333333333333334],vertical,"(390.0, 262.0)",1.1166666666666667,0.44,1,11114.099,2
0,374,target,"[(1021, 915)]",[],[1],[0.4],horizontal,"(390.0, 262.0)",1.6333333333333333,0.363,1,11119.003,3
0,375,target,"[(1006, 926)]",[],[1],[0.5333333333333333],horizontal,"(390.0, 262.0)",0.9333333333333333,0.497,1,11124.814,3
0,376,target,"[(1005, 929)]",[],[1],[0.7],vertical,"(890.0, 262.0)",0.7666666666666666,0.665,1,11130.431,3
0,377,target,"[(1009, 910)]",[],[1],[0.5333333333333333],horizontal,"(390.0, 262.0)",0.6333333333333333,0.495,1,11136.136,3
0,378,target,"[(1012, 920)]",[],[1],[0.5333333333333333],horizontal,"(390.0, 262.0)",0.75,0.495,1,11141.209,3
0,379,target,"[(1005, 919)]",[],[1],[0.5333333333333333],vertical,"(390.0, 262.0)",0.95,0.493,1,11146.198,3
0,380,target,"[(1004, 932), (1005, 899)]",[],"[0, 1]",[0.5166666666666666],vertical,"(390.0, 762.0)",1.0,0.476,1,11151.412,3
0,381,target,"[(1007, 915)]",[],[1],[0.5],horizontal,"(890.0, 262.0)",1.0666666666666667,0.466,1,11157.665,3
0,382,target,"[(1006, 929)]",[],[1],[0.48333333333333334],vertical,"(390.0, 262.0)",1.3666666666666667,0.447,1,11163.23,3
0,383,target,"[(1013, 923)]",[],[1],[0.48333333333333334],vertical,"(890.0, 262.0)",1.45,0.446,1,11169.143,3
0,384,target,"[(1004, 922), (1010, 904)]",[],"[0, 1]",[0.6166666666666667],vertical,"(890.0, 762.0)",1.0333333333333332,0.581,1,11174.593,3
0,385,target,"[(1005, 921)]",[],[1],[0.4666666666666667],horizontal,"(890.0, 262.0)",1.4,0.431,1,11182.463,3
0,386,target,"[(1003, 915), (1004, 896), (945, 933), (939, 898), (1005, 915)]",[],"[0, 0, 0, 0, 1]",[0.5333333333333333],horizontal,"(890.0, 762.0)",0.55,0.501,1,11188.175,3
0,387,target,"[(1005, 925)]",[],[1],[],horizontal,"(390.0, 262.0)",,"('cti', 1.41)",0,11200.135,0
0,388,target,"[(1009, 916)]",[],[1],[0.6666666666666666],horizontal,"(390.0, 762.0)",0.5166666666666666,0.627,1,11205.129,1
0,389,target,"[(1005, 922)]",[],[1],[0.5],horizontal,"(390.0, 262.0)",0.5333333333333333,0.461,1,11208.968,1
0,390,target,"[(1020, 939)]",[],[1],[0.48333333333333334],horizontal,"(890.0, 262.0)",0.9833333333333333,0.446,1,11213.083,1
0,391,catch,"[(1005, 921)]",[],[1],[],vertical,"(390.0, 262.0)",1.6666666666666667,nan,1,11219.878,2
0,392,target,"[(1009, 893)]",[],[1],[0.5333333333333333],vertical,"(390.0, 262.0)",0.9166666666666666,0.498,1,11225.226,2
0,393,catch,"[(1005, 884)]",[],[1],[],horizontal,"(390.0, 762.0)",,"('cti', 1.41),nan",0,11229.779,0
0,394,target,"[(1008, 910)]",[],[1],[0.48333333333333334],vertical,"(390.0, 262.0)",1.6333333333333333,0.438,1,11234.527,1
0,395,catch,"[(1012, 922)]",[],[1],[],horizontal,"(390.0, 762.0)",1.3166666666666667,nan,1,11240.23,1
0,396,target,"[(1009, 898)]",[],[1],[0.23333333333333334],vertical,"(890.0, 262.0)",1.6333333333333333,0.2,1,11244.746,1
0,397,target,"[(1017, 905)]",[],[1],[0.48333333333333334],horizontal,"(890.0, 262.0)",0.8666666666666667,0.444,1,11249.562,2
0,398,target,"[(1029, 882)]",[],[1],[],horizontal,"(890.0, 262.0)",,"('cti', 1.451)",0,11254.777,0
0,399,target,"[(1005, 911)]",[],[1],[0.5333333333333333],horizontal,"(390.0, 762.0)",1.0666666666666667,0.498,1,11258.968,1
0,400,target,"[(1010, 892)]",[],[1],[],horizontal,"(890.0, 762.0)",,"('fix', 0.197)",0,11263.973,0
0,401,target,"[(1024, 914)]",[],[1],[0.18333333333333332],vertical,"(890.0, 762.0)",1.6333333333333333,0.149,0,11265.733,0
0,402,catch,"[(1019, 888)]",[],[1],[],horizontal,"(390.0, 762.0)",1.45,nan,1,11271.995,1
0,403,target,"[(1027, 903)]",[],[1],[0.5833333333333334],horizontal,"(390.0, 262.0)",1.5333333333333332,0.545,1,11276.783,1
0,404,target,"[(1004, 909), (1005, 904)]",[],"[0, 1]",[0.5666666666666667],horizontal,"(890.0, 762.0)",1.2,0.531,1,11281.731,1
0,405,catch,"[(1001, 905), (1006, 880)]",[],"[0, 1]",[],horizontal,"(390.0, 262.0)",1.3333333333333333,nan,1,11287.07,2
0,406,catch,"[(1001, 909), (1011, 873)]",[],"[0, 1]",[],vertical,"(390.0, 762.0)",1.65,nan,1,11292.191,2
0,407,catch,"[(1029, 908)]",[],[1],[],vertical,"(390.0, 262.0)",1.45,nan,1,11298.066,2
0,408,target,"[(1006, 915)]",[],[1],[0.5666666666666667],vertical,"(390.0, 762.0)",0.9666666666666667,0.53,1,11303.016,2
0,409,target,"[(1008, 871)]",[],[1],[0.26666666666666666],horizontal,"(890.0, 762.0)",1.6333333333333333,0.234,1,11308.363,2
0,410,target,"[(1007, 898)]",[],[1],[0.5666666666666667],horizontal,"(890.0, 262.0)",1.05,0.523,1,11313.808,3
0,411,catch,"[(1001, 906), (1001, 884), (1026, 886)]",[],"[0, 0, 1]",[],vertical,"(390.0, 762.0)",1.2833333333333332,nan,1,11319.082,3
0,412,target,"[(1003, 909), (1001, 864), (1005, 871)]",[],"[0, 0, 1]",[0.6833333333333333],horizontal,"(390.0, 262.0)",0.8166666666666667,0.646,1,11326.355,3
0,413,target,"[(1006, 907)]",[],[1],[0.6833333333333333],vertical,"(390.0, 262.0)",0.6666666666666666,0.649,1,11333.516,3
0,414,target,"[(1022, 923)]",[],[1],[0.55],vertical,"(390.0, 262.0)",0.6333333333333333,0.506,1,11339.616,3
0,415,target,"[(1001, 904), (1001, 873), (1003, 916), (1006, 889)]",[],"[0, 0, 0, 1]",[0.3333333333333333],horizontal,"(890.0, 762.0)",1.35,0.301,1,11344.45,3
0,416,target,"[(1005, 918)]",[],[1],[0.3333333333333333],vertical,"(890.0, 762.0)",1.4,0.303,1,11353.201,3
0,417,target,"[(1005, 912)]",[],[1],[0.55],horizontal,"(390.0, 762.0)",0.55,0.51,1,11358.772,3
0,418,target,"[(1025, 907)]",[],[1],[0.4166666666666667],vertical,"(890.0, 262.0)",1.4,0.378,1,11364.198,3
0,419,target,"[(1010, 898)]",[],[1],[0.3833333333333333],horizontal,"(890.0, 262.0)",1.5333333333333332,0.347,1,11369.735,3
0,420,target,"[(1009, 898)]",[],[1],[0.48333333333333334],vertical,"(890.0, 262.0)",1.2666666666666666,0.451,1,11375.365,3
0,421,target,"[(1018, 910)]",[],[1],[0.6],horizontal,"(390.0, 262.0)",0.9333333333333333,0.561,1,11381.008,3
0,422,target,"[(1006, 923)]",[],[1],[0.5],horizontal,"(890.0, 762.0)",0.7833333333333333,0.464,1,11386.495,3
0,423,target,"[(1003, 908), (1001, 899), (1022, 915)]",[],"[0, 0, 1]",[0.6],horizontal,"(390.0, 262.0)",1.1666666666666667,0.564,1,11391.551,3
0,424,target,"[(1000, 911), (997, 904), (1026, 896)]",[],"[0, 0, 1]",[0.85],vertical,"(890.0, 762.0)",1.3166666666666667,nan,0,11398.482,0
0,425,catch,"[(1006, 919)]",[],[1],[],vertical,"(390.0, 762.0)",1.5,nan,1,11405.109,1
0,426,target,"[(1013, 923)]",[],[1],[0.5666666666666667],horizontal,"(890.0, 262.0)",0.7833333333333333,0.536,1,11409.516,1
0,427,target,"[(1017, 898)]",[],[1],[0.5166666666666666],horizontal,"(390.0, 762.0)",1.2833333333333332,0.481,1,11414.051,1
0,428,target,"[(1008, 923)]",[],[1],[0.5],horizontal,"(890.0, 262.0)",1.05,0.457,1,11418.612,2
0,429,target,"[(1009, 906)]",[],[1],[0.4166666666666667],vertical,"(390.0, 262.0)",1.35,0.381,1,11423.967,2
0,430,target,"[(1009, 898)]",[],[1],[0.5333333333333333],horizontal,"(890.0, 262.0)",1.2666666666666666,0.502,1,11429.471,2
0,431,target,"[(1007, 905)]",[],[1],[0.6333333333333333],vertical,"(390.0, 262.0)",0.55,0.591,1,11434.367,2
0,432,target,"[(1013, 898)]",[],[1],[0.25],vertical,"(890.0, 262.0)",1.4333333333333333,0.216,1,11438.955,2
0,433,target,"[(1025, 919)]",[],[1],[0.23333333333333334],horizontal,"(890.0, 762.0)",1.6833333333333333,0.199,1,11443.878,3
0,434,target,"[(1011, 893)]",[],[1],[0.5833333333333334],vertical,"(390.0, 762.0)",0.6333333333333333,0.552,1,11449.331,3
0,435,target,"[(1001, 902), (1001, 914), (1021, 910)]",[],"[0, 0, 1]",[],horizontal,"(390.0, 762.0)",,"('cti', 0.182)",0,11454.318,0
0,436,target,"[(1029, 910)]",[],[1],[0.5333333333333333],vertical,"(390.0, 762.0)",0.5166666666666666,0.496,1,11459.132,1
0,437,target,"[(1024, 896)]",[],[1],[0.5],vertical,"(890.0, 762.0)",1.1,0.463,1,11463.51,1
0,438,target,"[(1007, 907)]",[],[1],[0.3333333333333333],horizontal,"(890.0, 262.0)",1.4666666666666666,0.297,1,11468.233,1
0,439,target,"[(1006, 898)]",[],[1],[0.5],vertical,"(890.0, 762.0)",1.25,0.473,1,11473.238,2
0,440,target,"[(1021, 881)]",[],[1],[0.55],vertical,"(390.0, 262.0)",0.75,0.514,1,11478.676,2
0,441,target,"[(1013, 893)]",[],[1],[0.5],vertical,"(390.0, 262.0)",0.9,0.456,1,11483.528,2
0,442,target,"[(1012, 912)]",[],[1],[0.65],horizontal,"(890.0, 262.0)",0.55,0.613,1,11488.73,2
0,443,target,"[(1013, 879)]",[],[1],[0.31666666666666665],horizontal,"(890.0, 762.0)",1.45,0.282,1,11493.359,2
0,444,target,"[(1009, 904)]",[],[1],[0.5666666666666667],vertical,"(890.0, 762.0)",0.6,0.531,1,11498.364,3
0,445,target,"[(1005, 904)]",[],[1],[0.6166666666666667],horizontal,"(390.0, 762.0)",0.5333333333333333,0.577,1,11503.381,3
0,446,target,"[(1005, 899)]",[],[1],[0.3333333333333333],horizontal,"(390.0, 262.0)",1.4,0.297,1,11508.319,3
0,447,target,"[(1005, 920)]",[],[1],[0.5833333333333334],vertical,"(390.0, 762.0)",0.5833333333333334,0.546,1,11513.737,3
0,448,target,"[(1009, 931)]",[],[1],[0.5666666666666667],vertical,"(890.0, 762.0)",0.5333333333333333,0.529,1,11518.551,3
0,449,target,"[(1025, 914)]",[],[1],[],vertical,"(390.0, 262.0)",,"('cti', 0.282)",0,11523.502,0
0,450,target,"[(946, 912), (1008, 874)]",[],"[0, 1]",[0.5333333333333333],vertical,"(390.0, 762.0)",0.9166666666666666,0.494,1,11526.868,1
0,451,target,"[(1005, 911)]",[],[1],[0.36666666666666664],vertical,"(390.0, 762.0)",1.3666666666666667,0.339,1,11532.661,1
0,452,target,"[(1008, 895)]",[],[1],[0.5333333333333333],vertical,"(890.0, 262.0)",0.65,0.493,1,11537.768,1
0,453,target,"[(1011, 920)]",[],[1],[0.5333333333333333],horizontal,"(390.0, 262.0)",0.8,0.498,1,11541.691,2
0,454,target,"[(1026, 883)]",[],[1],[0.5166666666666666],vertical,"(390.0, 262.0)",0.6,0.483,1,11546.796,2
0,455,target,"[(1026, 911)]",[],[1],[0.35],vertical,"(890.0, 262.0)",1.3833333333333333,0.318,1,11551.033,2
0,456,catch,"[(1008, 898)]",[],[1],[],vertical,"(890.0, 262.0)",1.15,nan,1,11556.488,2
0,457,target,"[(1001, 925), (1006, 892)]",[],"[0, 1]",[0.2],horizontal,"(890.0, 262.0)",1.3833333333333333,0.164,1,11560.981,2
0,458,target,"[(1005, 910)]",[],[1],[0.45],vertical,"(390.0, 762.0)",0.6333333333333333,0.413,1,11568.23,3
0,459,target,"[(1005, 893)]",[],[1],[0.5333333333333333],horizontal,"(890.0, 762.0)",0.5166666666666666,0.493,1,11573.452,3
0,460,target,"[(1006, 910)]",[],[1],[0.18333333333333332],vertical,"(390.0, 762.0)",1.25,0.147,0,11578.799,0
0,461,target,"[(1009, 907)]",[],[1],[0.5666666666666667],horizontal,"(890.0, 762.0)",0.5166666666666666,0.531,1,11583.203,1
0,462,target,"[(1005, 922)]",[],[1],[0.18333333333333332],vertical,"(390.0, 762.0)",1.5,0.15,1,11587.048,1
0,463,target,"[(1020, 887)]",[],[1],[0.35],horizontal,"(890.0, 762.0)",1.2666666666666666,0.312,1,11591.961,1
0,464,target,"[(1005, 882)]",[],[1],[0.6],horizontal,"(390.0, 762.0)",0.65,0.559,1,11596.582,2
0,465,target,"[(1040, 875)]",[],[1],[0.5666666666666667],vertical,"(890.0, 762.0)",0.55,0.531,1,11601.099,2
0,466,target,"[(1026, 892)]",[],[1],[],horizontal,"(390.0, 262.0)",,"('cti', 1.348)",0,11605.933,0
0,467,target,"[(1003, 899), (1008, 882)]",[],"[0, 1]",[0.31666666666666665],horizontal,"(390.0, 762.0)",1.5333333333333332,0.28,1,11610.316,1
0,468,target,"[(1005, 886)]",[],[1],[0.6333333333333333],vertical,"(890.0, 762.0)",0.7833333333333333,0.595,1,11615.969,1
0,469,catch,"[(1013, 920)]",[],[1],[],vertical,"(890.0, 262.0)",1.2166666666666666,nan,1,11620.287,1
0,470,target,"[(1025, 898)]",[],[1],[],horizontal,"(890.0, 762.0)",,"('cti', 0.499)",0,11624.688,0
0,471,target,"[(1032, 896)]",[],[1],[],vertical,"(390.0, 762.0)",,"('fix', 0.049)",0,11628.265,0
0,472,target,"[(1025, 923)]",[],[1],[0.5333333333333333],vertical,"(390.0, 762.0)",0.9166666666666666,0.494,1,11630.04,1
0,473,target,"[(1027, 876)]",[],[1],[0.6],vertical,"(890.0, 262.0)",1.0666666666666667,0.559,1,11634.572,1
0,474,target,"[(1009, 913)]",[],[1],[0.08333333333333333],vertical,"(890.0, 762.0)",1.4,0.05,0,11639.255,0
0,475,target,"[(1025, 905)]",[],[1],[],horizontal,"(890.0, 262.0)",,"('fix', 0.084)",0,11643.479,0
0,476,target,"[(1022, 912)]",[],[1],[0.4666666666666667],vertical,"(890.0, 762.0)",1.4166666666666667,0.426,1,11645.162,1
0,477,target,"[(1005, 895)]",[],[1],[0.6166666666666667],vertical,"(390.0, 762.0)",0.65,0.578,1,11650.166,1
0,478,target,"[(1011, 913)]",[],[1],[0.7],horizontal,"(390.0, 262.0)",0.7,0.66,1,11654.661,1
0,479,target,"[(1010, 878)]",[],[1],[],horizontal,"(390.0, 262.0)",,"('cti', 1.58)",0,11659.384,0
0,480,target,"[(1026, 909)]",[],[1],[0.16666666666666666],horizontal,"(390.0, 262.0)",0.6333333333333333,0.133,0,11663.98,0
0,481,target,"[(1005, 889)]",[],[1],[0.6],vertical,"(390.0, 262.0)",0.5833333333333334,0.562,1,11667.648,1
0,482,catch,"[(1006, 923)]",[],[1],[],horizontal,"(890.0, 262.0)",,"('cti', 0.907),nan",0,11671.624,0
0,483,target,"[(1017, 916)]",[],[1],[0.5],horizontal,"(890.0, 262.0)",0.7666666666666666,0.465,1,11676.07,1
0,484,target,"[(1015, 891)]",[],[1],[0.5333333333333333],vertical,"(890.0, 762.0)",0.7,0.488,1,11683.0,1
0,485,target,"[(1008, 917)]",[],[1],[],horizontal,"(890.0, 762.0)",,"('cti', 0.341)",0,11686.887,0
0,486,target,"[(1025, 905)]","[(1029, 920)]",[1],[0.08333333333333333],horizontal,"(890.0, 762.0)",,"('bar', 0.101)",0,11690.328,0
0,487,target,"[(1010, 917)]",[],[1],[0.48333333333333334],vertical,"(890.0, 262.0)",0.7666666666666666,0.444,1,11692.644,1
0,488,target,"[(1013, 898)]",[],[1],[0.43333333333333335],vertical,"(390.0, 762.0)",0.9333333333333333,0.394,1,11697.962,1
0,489,target,"[(1021, 902)]","[(1032, 946)]",[1],[0.3333333333333333],horizontal,"(890.0, 762.0)",,"('bar', 0.343)",0,11702.452,0
0,490,target,"[(1008, 885)]",[],[1],[0.5],vertical,"(390.0, 762.0)",1.0,0.459,1,11705.334,1
0,491,target,"[(1005, 924)]",[],[1],[0.08333333333333333],vertical,"(390.0, 262.0)",1.3833333333333333,0.052,0,11717.03,0
0,492,target,"[(1005, 920)]",[],[1],[],horizontal,"(890.0, 262.0)",,"('cti', 0.516)",0,11721.414,0
0,493,catch,"[(1017, 925)]",[],[1],[],horizontal,"(390.0, 762.0)",,"('fix', 0.086),nan",0,11725.181,0
0,494,catch,"[(1009, 962), (1006, 893)]",[],"[0, 1]",[],vertical,"(890.0, 262.0)",1.45,nan,1,11726.831,1
0,495,target,"[(1006, 919)]",[],[1],[0.43333333333333335],vertical,"(390.0, 762.0)",1.3166666666666667,0.395,1,11740.936,1
0,496,target,"[(1005, 900)]",[],[1],[0.3],vertical,"(890.0, 262.0)",0.5166666666666666,0.264,1,11745.394,1
0,497,target,"[(1012, 913)]",[],[1],[],vertical,"(890.0, 262.0)",,"('fix', 0.645)",0,11749.046,0
0,498,target,"[(1026, 920)]",[],[1],[],vertical,"(890.0, 262.0)",,"('fix', 0.082)",0,11751.303,0
0,499,catch,"[(940, 958), (1009, 936)]",[],"[0, 1]",[],horizontal,"(390.0, 262.0)",1.15,nan,1,11752.966,1
0,500,target,"[(942, 938), (993, 937), (1006, 918)]",[],"[0, 0, 1]",[0.85],horizontal,"(890.0, 262.0)",0.9333333333333333,nan,0,11803.206,0
0,501,catch,"[(1005, 927)]",[],[1],[],vertical,"(890.0, 762.0)",1.2333333333333334,nan,1,11809.953,1
0,502,target,"[(1007, 920)]",[],[1],[0.5166666666666666],vertical,"(390.0, 262.0)",1.15,0.477,1,11813.983,1
0,503,target,"[(1005, 935)]",[],[1],[0.5333333333333333],horizontal,"(390.0, 762.0)",0.6,0.497,1,11818.935,1
0,504,target,"[(1017, 941)]",[],[1],[0.48333333333333334],vertical,"(890.0, 262.0)",0.7833333333333333,0.449,1,11823.369,2
0,505,target,"[(1007, 932)]",[],[1],[],horizontal,"(390.0, 762.0)",,"('cti', 1.366)",0,11828.498,0
0,506,target,"[(1021, 924)]",[],[1],[0.3],horizontal,"(390.0, 762.0)",1.6833333333333333,0.265,1,11833.45,1
0,507,target,"[(1010, 914)]",[],[1],[0.06666666666666667],horizontal,"(890.0, 262.0)",1.6,0.036,0,11838.329,0
0,508,target,"[(1005, 918)]",[],[1],[0.6166666666666667],vertical,"(890.0, 262.0)",0.9,0.576,1,11843.398,1
0,509,target,"[(1033, 926)]",[],[1],[0.6],vertical,"(390.0, 762.0)",0.9333333333333333,0.564,1,11848.169,1
0,510,target,"[(1006, 914)]",[],[1],[0.43333333333333335],horizontal,"(890.0, 762.0)",1.2166666666666666,0.394,1,11853.35,1
0,511,target,"[(1007, 920)]",[],[1],[0.2],horizontal,"(890.0, 762.0)",1.3166666666666667,0.173,1,11858.481,2
0,512,catch,"[(1021, 932)]",[],[1],[],vertical,"(890.0, 262.0)",1.4833333333333334,nan,1,11863.515,2
0,513,catch,"[(1025, 898)]",[],[1],[],horizontal,"(390.0, 762.0)",1.6,nan,1,11868.533,2
0,514,catch,"[(1010, 908)]",[],[1],[],vertical,"(390.0, 262.0)",,"('cti', 0.968),nan",0,11873.79,0
0,515,target,"[(1025, 907)]",[],[1],[0.48333333333333334],horizontal,"(390.0, 262.0)",1.4166666666666667,0.443,1,11877.634,1
0,516,target,"[(1025, 907)]",[],[1],[0.55],vertical,"(390.0, 762.0)",0.8333333333333334,0.518,1,11882.25,1
0,517,target,"[(1021, 903)]",[],[1],[],vertical,"(390.0, 262.0)",,"('cti', 0.098)",0,11886.752,0
0,518,target,"[(1003, 902), (1017, 870)]",[],"[0, 1]",[0.4666666666666667],horizontal,"(390.0, 262.0)",1.2333333333333334,0.43,1,11889.985,1
0,519,target,"[(1029, 898)]",[],[1],[0.23333333333333334],horizontal,"(890.0, 762.0)",1.5333333333333332,0.2,1,11895.962,1
0,520,catch,"[(1025, 901)]",[],[1],[],horizontal,"(890.0, 762.0)",,"('cti', 0.082),nan",0,11900.552,0
0,521,target,"[(1029, 899)]",[],[1],[0.5166666666666666],vertical,"(890.0, 762.0)",1.3166666666666667,0.475,1,11903.76,1
0,522,target,"[(1025, 911)]",[],[1],[0.43333333333333335],horizontal,"(890.0, 762.0)",1.3833333333333333,0.396,1,11908.624,1
0,523,target,"[(1030, 880)]",[],[1],[0.85],horizontal,"(390.0, 762.0)",0.5166666666666666,nan,0,11914.034,0
0,524,target,"[(1026, 907)]",[],[1],[],vertical,"(890.0, 262.0)",,"('cti', 0.712)",0,11918.166,0
0,525,target,"[(1020, 892)]","[(1029, 923)]",[1],[0.08333333333333333],horizontal,"(890.0, 762.0)",,"('bar', 0.1)",0,11921.93,0
0,526,target,"[(1029, 896)]",[],[1],[0.6],horizontal,"(390.0, 762.0)",0.9833333333333333,0.564,1,11924.384,1
0,527,target,"[(1009, 896)]",[],[1],[0.43333333333333335],horizontal,"(890.0, 762.0)",1.2833333333333332,0.402,1,11930.922,1
0,528,target,"[(1009, 902)]",[],[1],[0.5333333333333333],vertical,"(390.0, 262.0)",1.05,0.495,1,11936.057,1
0,529,target,"[(1017, 896)]",[],[1],[0.4166666666666667],horizontal,"(390.0, 262.0)",0.8666666666666667,0.379,1,11940.884,2
0,530,target,"[(1029, 876)]",[],[1],[0.36666666666666664],vertical,"(890.0, 762.0)",1.2333333333333334,0.333,1,11945.916,2
0,531,target,"[(1029, 888)]","[(1030, 916)]",[1],[0.1],vertical,"(390.0, 762.0)",,"('bar', 0.117)",0,11950.983,0
0,532,target,"[(1009, 915)]",[],[1],[0.06666666666666667],horizontal,"(890.0, 262.0)",1.5833333333333333,0.034,0,11953.218,0
0,533,target,"[(1030, 903)]",[],[1],[],vertical,"(390.0, 262.0)",,"('fix', 0.134)",0,11958.163,0
0,534,target,"[(1005, 915)]",[],[1],[0.1],vertical,"(890.0, 262.0)",1.5833333333333333,0.068,0,11959.996,0
0,535,target,"[(1010, 896)]",[],[1],[0.4],horizontal,"(390.0, 262.0)",1.5166666666666666,0.366,1,11964.708,1
0,536,target,"[(1009, 877)]",[],[1],[0.5333333333333333],vertical,"(390.0, 762.0)",0.9666666666666667,0.499,1,11969.386,1
0,537,target,"[(1009, 863)]",[],[1],[0.6],vertical,"(390.0, 762.0)",0.9,0.558,1,11973.871,1
0,538,target,"[(1014, 915)]",[],[1],[0.65],vertical,"(890.0, 762.0)",0.6,0.606,1,11978.475,2
0,539,target,"[(1005, 894)]",[],[1],[0.45],vertical,"(890.0, 262.0)",0.9666666666666667,0.411,1,11982.988,2
0,540,target,"[(1006, 913)]",[],[1],[0.5166666666666666],horizontal,"(890.0, 762.0)",1.0333333333333332,0.476,1,11988.037,2
0,541,catch,"[(1007, 892)]",[],[1],[],vertical,"(390.0, 262.0)",1.4666666666666666,nan,1,11993.087,2
0,542,target,"[(1009, 920)]",[],[1],[0.5166666666666666],vertical,"(890.0, 262.0)",0.8833333333333333,0.477,1,11997.903,2
0,543,target,"[(1005, 905)]",[],[1],[0.5],vertical,"(890.0, 262.0)",1.0,0.461,1,12003.053,3
0,544,target,"[(1005, 916)]",[],[1],[0.48333333333333334],vertical,"(890.0, 762.0)",1.45,0.447,1,12008.537,3
0,545,catch,"[(1007, 916)]",[],[1],[],horizontal,"(390.0, 762.0)",1.2,nan,1,12014.069,3
0,546,target,"[(1013, 903)]",[],[1],[0.45],horizontal,"(390.0, 262.0)",0.9333333333333333,0.411,1,12019.631,3
0,547,target,"[(1005, 915)]",[],[1],[0.4166666666666667],horizontal,"(890.0, 762.0)",1.0666666666666667,0.383,1,12025.203,3
0,548,catch,"[(1017, 900)]",[],[1],[],vertical,"(890.0, 762.0)",,"('cti', 1.382),nan",0,12030.387,0
0,549,target,"[(1005, 923)]",[],[1],[0.5333333333333333],vertical,"(890.0, 762.0)",0.95,0.497,1,12034.637,1
0,550,target,"[(1017, 916)]",[],[1],[0.5],vertical,"(890.0, 262.0)",1.3166666666666667,0.462,1,12043.656,1
0,551,target,"[(1017, 923)]",[],[1],[0.4666666666666667],vertical,"(890.0, 262.0)",1.0833333333333333,0.435,1,12048.069,1
0,552,target,"[(1006, 903)]",[],[1],[0.7666666666666666],horizontal,"(890.0, 762.0)",0.8333333333333334,0.724,1,12052.803,2
0,553,target,"[(1029, 902)]",[],[1],[0.6833333333333333],horizontal,"(390.0, 762.0)",0.8333333333333334,0.642,1,12057.721,2
0,554,target,"[(1016, 893)]",[],[1],[0.6],vertical,"(390.0, 262.0)",1.0,0.56,1,12062.323,2
0,555,target,"[(1008, 886)]",[],[1],[],horizontal,"(390.0, 262.0)",,"('cti', 1.55)",0,12067.355,0
0,556,catch,"[(1017, 893)]",[],[1],[],vertical,"(890.0, 762.0)",1.3333333333333333,nan,1,12072.102,1
0,557,target,"[(1008, 904)]",[],[1],[0.7166666666666667],vertical,"(890.0, 262.0)",1.5833333333333333,0.681,1,12076.951,1
0,558,target,"[(1005, 898)]",[],[1],[0.25],horizontal,"(390.0, 762.0)",1.4833333333333334,0.218,1,12082.352,1
0,559,catch,"[(1030, 895)]",[],[1],[],horizontal,"(890.0, 262.0)",1.1666666666666667,nan,1,12087.265,2
0,560,target,"[(1008, 900)]",[],[1],[0.23333333333333334],horizontal,"(390.0, 262.0)",1.55,0.2,1,12092.069,2
0,561,target,"[(1028, 902)]",[],[1],[],horizontal,"(890.0, 262.0)",,"('cti', 0.626)",0,12097.585,0
0,562,target,"[(1026, 886)]",[],[1],[0.6666666666666666],horizontal,"(890.0, 762.0)",0.6166666666666667,0.625,1,12101.5,1
0,563,target,"[(1026, 902)]",[],[1],[0.5],vertical,"(390.0, 762.0)",1.2666666666666666,0.459,1,12110.76,1
0,564,target,"[(1009, 882)]",[],[1],[0.4166666666666667],vertical,"(890.0, 762.0)",1.15,0.379,1,12115.205,1
0,565,target,"[(1020, 881)]",[],[1],[0.3],horizontal,"(390.0, 262.0)",1.4,0.267,1,12119.631,2
0,566,target,"[(1026, 878)]",[],[1],[0.55],horizontal,"(890.0, 262.0)",1.1166666666666667,0.509,1,12124.62,2
0,567,target,"[(1029, 895)]",[],[1],[],horizontal,"(390.0, 262.0)",,"('cti', 0.879)",0,12129.573,0
0,568,target,"[(1017, 909)]",[],[1],[0.4666666666666667],vertical,"(390.0, 262.0)",1.5166666666666666,0.432,1,12133.818,1
0,569,target,"[(1027, 885)]",[],[1],[0.5166666666666666],horizontal,"(890.0, 262.0)",0.7166666666666667,0.48,1,12138.786,1
0,570,target,"[(1024, 876)]",[],[1],[0.16666666666666666],horizontal,"(890.0, 262.0)",1.3333333333333333,0.133,0,12143.034,0
0,571,target,"[(1028, 894)]",[],[1],[],horizontal,"(390.0, 262.0)",,"('fix', 0.117)",0,12147.647,0
0,572,target,"[(1021, 912)]",[],[1],[0.48333333333333334],horizontal,"(390.0, 262.0)",1.6166666666666667,0.446,1,12149.391,1
0,573,target,"[(1021, 910)]",[],[1],[0.5],vertical,"(890.0, 262.0)",0.7333333333333333,0.467,1,12155.249,1
0,574,target,"[(1028, 906)]",[],[1],[0.6333333333333333],vertical,"(890.0, 762.0)",0.9833333333333333,0.593,1,12159.881,1
0,575,target,"[(1019, 880)]",[],[1],[0.6333333333333333],horizontal,"(390.0, 762.0)",0.7,0.601,1,12164.887,2
0,576,target,"[(1021, 888)]",[],[1],[0.05],vertical,"(890.0, 762.0)",0.6666666666666666,0.018,0,12169.335,0
0,577,target,"[(1005, 911)]",[],[1],[0.5666666666666667],horizontal,"(390.0, 762.0)",0.9333333333333333,0.527,1,12172.817,1
0,578,target,"[(1017, 903)]",[],[1],[0.85],vertical,"(890.0, 262.0)",0.85,nan,0,12181.331,0
0,579,target,"[(1021, 882)]",[],[1],[0.5],horizontal,"(390.0, 762.0)",1.6833333333333333,0.457,1,12186.433,1
0,580,target,"[(1024, 919)]",[],[1],[],horizontal,"(890.0, 762.0)",,"('fix', 0.132)",0,12191.933,0
0,581,target,"[(1021, 914)]",[],[1],[0.45],horizontal,"(890.0, 762.0)",1.3666666666666667,0.416,1,12194.071,1
0,582,target,"[(1021, 898)]",[],[1],[0.5666666666666667],horizontal,"(890.0, 762.0)",0.9166666666666666,0.528,1,12198.847,1
0,583,target,"[(1027, 907)]",[],[1],[0.4666666666666667],horizontal,"(890.0, 762.0)",1.0833333333333333,0.432,1,12203.219,1
0,584,target,"[(1028, 881)]",[],[1],[0.5166666666666666],vertical,"(890.0, 262.0)",1.05,0.477,1,12207.681,2
0,585,target,"[(1021, 913)]",[],[1],[],horizontal,"(890.0, 762.0)",,"('fix', 0.1)",0,12212.439,0
0,586,target,"[(1025, 916)]",[],[1],[],horizontal,"(890.0, 262.0)",,"('fix', 0.067)",0,12214.208,0
0,587,target,"[(1032, 923)]",[],[1],[0.5],horizontal,"(890.0, 262.0)",1.2,0.463,1,12215.907,1
0,588,target,"[(1013, 903)]",[],[1],[0.5],vertical,"(890.0, 762.0)",0.8166666666666667,0.461,1,12220.471,1
0,589,target,"[(1026, 914)]",[],[1],[],horizontal,"(890.0, 262.0)",,"('fix', 0.115)",0,12225.139,0
0,590,target,"[(1017, 909)]",[],[1],[0.4666666666666667],vertical,"(890.0, 262.0)",1.1,0.432,1,12227.003,1
0,591,target,"[(1026, 914)]",[],[1],[0.3333333333333333],vertical,"(390.0, 762.0)",1.4666666666666666,0.298,1,12231.222,1
0,592,target,"[(1006, 892)]",[],[1],[0.1],vertical,"(890.0, 762.0)",1.4666666666666666,0.065,0,12236.091,0
0,593,catch,"[(1025, 896)]",[],[1],[],horizontal,"(890.0, 762.0)",,"('cti', 0.749),nan",0,12240.922,0
0,594,target,"[(1022, 911)]",[],[1],[0.5],horizontal,"(890.0, 262.0)",1.2833333333333332,0.464,1,12244.598,1
0,595,target,"[(1011, 897)]",[],[1],[0.4666666666666667],vertical,"(890.0, 762.0)",1.0666666666666667,0.432,1,12249.699,1
0,596,target,"[(1015, 895)]",[],[1],[0.43333333333333335],horizontal,"(390.0, 762.0)",1.35,0.395,1,12254.388,1
0,597,target,"[(1013, 899)]",[],[1],[0.5333333333333333],horizontal,"(890.0, 762.0)",1.0833333333333333,0.498,1,12259.442,2
0,598,catch,"[(1009, 873)]",[],[1],[],horizontal,"(390.0, 762.0)",,"('cti', 1.443),nan",0,12264.574,0
0,599,target,"[(1029, 898)]",[],[1],[0.43333333333333335],vertical,"(890.0, 762.0)",1.4666666666666666,0.403,1,12269.028,1
0,600,target,"[(1005, 887)]",[],[1],[0.5833333333333334],horizontal,"(390.0, 762.0)",1.2666666666666666,0.541,1,12274.238,1
0,601,target,"[(1027, 899)]",[],[1],[0.5333333333333333],horizontal,"(890.0, 762.0)",0.9166666666666666,0.497,1,12278.919,1
0,602,target,"[(1029, 891)]",[],[1],[0.5333333333333333],horizontal,"(890.0, 762.0)",0.6333333333333333,0.499,1,12283.337,2
0,603,target,"[(1011, 893)]",[],[1],[0.5333333333333333],horizontal,"(390.0, 262.0)",0.6666666666666666,0.495,1,12287.557,2
0,604,target,"[(1027, 894)]","[(1030, 930)]",[1],[0.65],vertical,"(890.0, 262.0)",,"('bar', 0.661)",0,12292.455,0
0,605,target,"[(1005, 907)]",[],[1],[0.5333333333333333],vertical,"(890.0, 262.0)",1.1166666666666667,0.496,1,12295.319,1
0,606,catch,"[(1009, 895)]",[],[1],[],horizontal,"(390.0, 762.0)",1.1833333333333333,nan,1,12300.589,1
0,607,target,"[(1009, 922)]",[],[1],[0.6666666666666666],horizontal,"(890.0, 262.0)",1.1833333333333333,0.622,1,12305.068,1
0,608,target,"[(1010, 877)]",[],[1],[],horizontal,"(390.0, 762.0)",,"('cti', 1.5)",0,12309.924,0
0,609,target,"[(1009, 880)]",[],[1],[],horizontal,"(890.0, 762.0)",,"('cti', 0.334)",0,12314.356,0
0,610,target,"[(1006, 898)]",[],[1],[0.5333333333333333],vertical,"(390.0, 262.0)",0.6833333333333333,0.499,1,12317.871,1
0,611,target,"[(1021, 901)]",[],[1],[0.5],horizontal,"(390.0, 762.0)",0.75,0.465,1,12321.938,1
0,612,target,"[(1006, 912)]",[],[1],[],vertical,"(390.0, 762.0)",,"('cti', 1.405)",0,12325.992,0
0,613,target,"[(1012, 879)]",[],[1],[0.85],horizontal,"(890.0, 262.0)",0.7,nan,0,12330.968,0
0,614,target,"[(1028, 907)]",[],[1],[0.4],horizontal,"(390.0, 762.0)",1.4166666666666667,0.365,1,12335.435,1
0,615,target,"[(1009, 906)]",[],[1],[0.5333333333333333],vertical,"(390.0, 262.0)",0.7,0.494,1,12340.039,1
0,616,target,"[(1029, 905)]",[],[1],[0.08333333333333333],horizontal,"(390.0, 262.0)",1.2666666666666666,0.051,0,12344.748,0
0,617,catch,"[(1017, 898)]","[(1030, 928)]",[1],[0.6833333333333333],horizontal,"(390.0, 762.0)",,"('bar', 0.69),nan",0,12349.538,0
0,618,target,"[(1007, 925)]",[],[1],[0.48333333333333334],horizontal,"(890.0, 762.0)",1.6833333333333333,0.451,1,12352.377,1
0,619,target,"[(1005, 918)]",[],[1],[0.5333333333333333],vertical,"(390.0, 762.0)",0.8666666666666667,0.497,1,12373.621,1
0,620,target,"[(1013, 924)]",[],[1],[0.48333333333333334],vertical,"(390.0, 262.0)",0.7666666666666666,0.446,1,12377.941,1
0,621,catch,"[(1005, 915)]",[],[1],[],vertical,"(890.0, 262.0)",1.4833333333333334,nan,1,12381.952,2
0,622,target,"[(1005, 918)]",[],[1],[0.4666666666666667],horizontal,"(390.0, 262.0)",1.0166666666666666,0.433,1,12387.2,2
0,623,target,"[(1029, 911)]",[],[1],[0.4666666666666667],horizontal,"(890.0, 262.0)",1.0333333333333332,0.429,1,12392.2,2
0,624,target,"[(1017, 903)]",[],[1],[],horizontal,"(390.0, 762.0)",,"('cti', 1.349)",0,12397.479,0
0,625,target,"[(1017, 903)]",[],[1],[],vertical,"(890.0, 262.0)",,"('fix', 0.102)",0,12401.672,0
0,626,target,"[(1029, 927)]",[],[1],[0.43333333333333335],vertical,"(390.0, 762.0)",1.6166666666666667,0.394,1,12403.405,1
0,627,target,"[(1005, 915)]",[],[1],[0.6],vertical,"(890.0, 262.0)",1.05,0.566,1,12408.718,1
0,628,target,"[(1009, 890)]",[],[1],[0.2],vertical,"(890.0, 762.0)",1.6833333333333333,0.168,1,12413.453,1
0,629,catch,"[(1013, 937)]",[],[1],[],vertical,"(390.0, 762.0)",1.15,nan,1,12418.466,2
0,630,target,"[(1009, 898)]",[],[1],[0.6166666666666667],horizontal,"(390.0, 762.0)",0.5333333333333333,0.583,1,12423.37,2
0,631,target,"[(1024, 871)]","[(1029, 910)]",[1],[0.31666666666666665],vertical,"(890.0, 262.0)",,"('bar', 0.332)",0,12427.944,0
0,632,catch,"[(1029, 902)]",[],[1],[],horizontal,"(890.0, 762.0)",1.4166666666666667,nan,1,12430.447,1
0,633,target,"[(1033, 899)]",[],[1],[0.5333333333333333],vertical,"(390.0, 262.0)",0.6833333333333333,0.495,1,12436.219,1
0,634,target,"[(1016, 903)]",[],[1],[0.48333333333333334],horizontal,"(890.0, 262.0)",0.8833333333333333,0.446,1,12440.408,1
0,635,target,"[(1045, 887)]",[],[1],[0.13333333333333333],vertical,"(390.0, 762.0)",1.5666666666666667,0.102,0,12444.989,0
0,636,target,"[(1029, 888)]",[],[1],[],vertical,"(390.0, 762.0)",,"('cti', 0.939)",0,12450.054,0
0,637,target,"[(1009, 876)]",[],[1],[0.5166666666666666],vertical,"(390.0, 262.0)",1.0333333333333332,0.481,1,12455.328,1
0,638,target,"[(1005, 930)]",[],[1],[0.5166666666666666],vertical,"(890.0, 262.0)",1.0166666666666666,0.48,1,12461.944,1
0,639,target,"[(1021, 907)]",[],[1],[0.5166666666666666],vertical,"(890.0, 262.0)",1.1,0.479,1,12466.956,1
0,640,target,"[(1021, 909)]",[],[1],[0.5],horizontal,"(890.0, 262.0)",1.0333333333333332,0.466,1,12471.96,2
0,641,target,"[(1008, 888)]",[],[1],[0.85],horizontal,"(890.0, 762.0)",1.4166666666666667,"('cti', 1.422),nan",0,12477.192,0
0,642,catch,"[(1024, 914)]","[(1030, 944)]",[1],[0.85],horizontal,"(890.0, 762.0)",,"('bar', 0.856),nan",0,12482.369,0
0,643,target,"[(1029, 885)]",[],[1],[0.4666666666666667],vertical,"(890.0, 762.0)",1.4333333333333333,0.425,1,12487.19,1
0,644,target,"[(1029, 903)]",[],[1],[0.6],horizontal,"(890.0, 762.0)",0.95,0.557,1,12494.406,1
0,645,target,"[(1025, 891)]",[],[1],[0.08333333333333333],horizontal,"(890.0, 262.0)",1.5833333333333333,0.051,0,12498.788,0
0,646,target,"[(1029, 911)]",[],[1],[0.6],vertical,"(390.0, 262.0)",0.65,0.566,1,12503.943,1
0,647,target,"[(1034, 902)]",[],[1],[0.4666666666666667],horizontal,"(890.0, 262.0)",0.8,0.432,1,12508.424,1
0,648,target,"[(1037, 887)]",[],[1],[0.35],horizontal,"(890.0, 762.0)",1.45,0.313,1,12512.64,1
0,649,target,"[(1005, 883)]",[],[1],[0.5],vertical,"(890.0, 762.0)",1.0833333333333333,0.462,1,12517.638,2
0,650,catch,"[(1033, 883)]",[],[1],[],vertical,"(390.0, 762.0)",1.15,nan,1,12522.809,2
0,651,target,"[(1033, 886)]",[],[1],[0.6],vertical,"(390.0, 762.0)",0.5166666666666666,0.565,1,12527.341,2
0,652,catch,"[(1037, 885)]",[],[1],[],vertical,"(390.0, 262.0)",1.1833333333333333,nan,1,12532.038,2
0,653,target,"[(1033, 893)]",[],[1],[0.5666666666666667],horizontal,"(390.0, 762.0)",0.6833333333333333,0.533,1,12536.856,2
0,654,catch,"[(1040, 894)]",[],[1],[],horizontal,"(390.0, 762.0)",1.2833333333333332,nan,1,12541.503,3
0,655,target,"[(1037, 868)]",[],[1],[0.7],horizontal,"(390.0, 762.0)",0.5666666666666667,0.666,1,12546.825,3
0,656,target,"[(1033, 906)]",[],[1],[0.6166666666666667],horizontal,"(390.0, 762.0)",0.7166666666666667,0.581,1,12551.903,3
0,657,target,"[(1029, 920)]",[],[1],[0.5],horizontal,"(890.0, 762.0)",1.1,0.465,1,12556.905,3
0,658,target,"[(1029, 889)]",[],[1],[0.3],horizontal,"(890.0, 262.0)",1.5666666666666667,0.265,1,12562.659,3
0,659,target,"[(1028, 882)]",[],[1],[],vertical,"(390.0, 262.0)",,"('cti', 0.232)",0,12568.325,0
0,660,catch,"[(1029, 915)]",[],[1],[],horizontal,"(890.0, 762.0)",1.4333333333333333,nan,1,12571.722,1
0,661,target,"[(1029, 906)]",[],[1],[0.4],vertical,"(390.0, 762.0)",1.5833333333333333,0.368,1,12576.189,1
0,662,target,"[(1021, 901)]",[],[1],[0.48333333333333334],vertical,"(890.0, 262.0)",1.25,0.444,1,12581.325,1
0,663,target,"[(1025, 906)]",[],[1],[],horizontal,"(890.0, 762.0)",,"('cti', 0.116)",0,12586.019,0
0,664,target,"[(1017, 899)]",[],[1],[0.5333333333333333],horizontal,"(390.0, 762.0)",0.5666666666666667,0.496,1,12589.526,1
0,665,target,"[(1027, 893)]",[],[1],[0.5166666666666666],vertical,"(890.0, 762.0)",0.75,0.479,1,12593.639,1
0,666,target,"[(1026, 893)]",[],[1],[0.1],horizontal,"(390.0, 262.0)",1.6166666666666667,0.068,0,12597.993,0
0,667,target,"[(1013, 904)]",[],[1],[0.1],vertical,"(390.0, 762.0)",1.65,0.066,0,12602.677,0
0,668,target,"[(1029, 892)]",[],[1],[0.6],vertical,"(890.0, 762.0)",0.8666666666666667,0.56,1,12607.737,1
0,669,target,"[(1025, 894)]",[],[1],[0.5166666666666666],vertical,"(390.0, 262.0)",1.5166666666666666,0.491,1,12612.448,1
0,670,target,"[(1025, 898)]",[],[1],[0.5166666666666666],vertical,"(890.0, 762.0)",0.85,0.487,1,12617.532,1
0,671,target,"[(1029, 893)]",[],[1],[0.48333333333333334],vertical,"(390.0, 762.0)",1.2666666666666666,0.448,1,12622.009,2
0,672,target,"[(1029, 903)]",[],[1],[0.36666666666666664],horizontal,"(390.0, 762.0)",1.35,0.335,1,12626.893,2
0,673,target,"[(1029, 883)]",[],[1],[0.6],horizontal,"(390.0, 262.0)",1.5166666666666666,0.553,1,12631.978,2
0,674,target,"[(1025, 909)]",[],[1],[0.45],vertical,"(890.0, 762.0)",0.9333333333333333,0.418,1,12637.201,2
0,675,catch,"[(1025, 893)]",[],[1],[],vertical,"(890.0, 262.0)",1.3166666666666667,nan,1,12642.33,2
0,676,target,"[(1029, 901)]",[],[1],[0.5166666666666666],horizontal,"(390.0, 262.0)",0.8666666666666667,0.48,1,12647.078,3
0,677,target,"[(1025, 902)]",[],[1],[0.6333333333333333],horizontal,"(390.0, 262.0)",0.6166666666666667,0.593,1,12652.539,3
0,678,target,"[(1029, 880)]",[],[1],[0.5166666666666666],horizontal,"(890.0, 762.0)",0.5333333333333333,0.484,1,12657.818,3
0,679,target,"[(1021, 898)]",[],[1],[0.16666666666666666],vertical,"(890.0, 262.0)",1.6833333333333333,0.136,0,12662.52,0
0,680,target,"[(1029, 880)]",[],[1],[0.85],vertical,"(390.0, 762.0)",1.0166666666666666,nan,0,12667.364,0
0,681,target,"[(1029, 899)]",[],[1],[0.5666666666666667],vertical,"(390.0, 762.0)",0.8166666666666667,0.529,1,12672.162,1
0,682,target,"[(1029, 880)]",[],[1],[0.5166666666666666],horizontal,"(390.0, 762.0)",0.9333333333333333,0.482,1,12676.804,1
0,683,target,"[(1031, 889)]",[],[1],[0.5833333333333334],vertical,"(390.0, 262.0)",1.3333333333333333,0.547,1,12681.182,1
0,684,target,"[(1029, 905)]",[],[1],[0.6666666666666666],vertical,"(890.0, 262.0)",0.9,0.623,1,12686.013,2
0,685,target,"[(1037, 893)]",[],[1],[],horizontal,"(390.0, 762.0)",,"('cti', 1.534)",0,12690.987,0
0,686,target,"[(1029, 892)]",[],[1],[0.5333333333333333],vertical,"(390.0, 262.0)",0.6166666666666667,0.495,1,12695.547,1
0,687,target,"[(1021, 898)]",[],[1],[0.5666666666666667],vertical,"(390.0, 262.0)",0.6166666666666667,0.535,1,12699.643,1
0,688,target,"[(1037, 893)]",[],[1],[0.13333333333333333],vertical,"(890.0, 762.0)",1.4833333333333334,0.097,0,12703.673,0
0,689,target,"[(1021, 906)]",[],[1],[],vertical,"(390.0, 762.0)",,"('cti', 0.461)",0,12708.019,0
0,690,target,"[(1029, 889)]",[],[1],[0.85],vertical,"(390.0, 762.0)",0.5833333333333334,nan,0,12711.223,0
0,691,target,"[(1028, 881)]",[],[1],[0.55],horizontal,"(390.0, 262.0)",1.2333333333333334,0.51,1,12715.571,1
0,692,catch,"[(1026, 880)]",[],[1],[],horizontal,"(390.0, 262.0)",1.6166666666666667,nan,1,12719.92,1
0,693,target,"[(1017, 890)]",[],[1],[0.48333333333333334],horizontal,"(890.0, 262.0)",0.65,0.446,1,12724.391,1
0,694,target,"[(1026, 889)]",[],[1],[0.5333333333333333],vertical,"(890.0, 262.0)",0.5666666666666667,0.498,1,12728.743,2
0,695,target,"[(1037, 891)]",[],[1],[],vertical,"(890.0, 262.0)",,"('cti', 1.389)",0,12733.056,0
0,696,target,"[(1025, 890)]",[],[1],[],vertical,"(890.0, 262.0)",,"('cti', 0.933)",0,12737.702,0
0,697,catch,"[(1021, 886)]",[],[1],[],horizontal,"(390.0, 262.0)",1.55,nan,1,12741.774,1
0,698,target,"[(1025, 904)]",[],[1],[],vertical,"(890.0, 262.0)",,"('fix', 0.183)",0,12746.538,0
0,699,target,"[(1034, 929)]",[],[1],[],vertical,"(390.0, 762.0)",,"('fix', 0.084)",0,12748.374,0
0,700,target,"[(1001, 859), (1009, 902)]",[],"[0, 1]",[0.6833333333333333],vertical,"(890.0, 762.0)",0.95,0.642,1,12750.158,1
0,701,target,"[(1029, 909)]",[],[1],[0.4],vertical,"(390.0, 262.0)",1.5666666666666667,0.363,1,12757.695,1
0,702,target,"[(1029, 911)]",[],[1],[0.5166666666666666],horizontal,"(890.0, 262.0)",0.5166666666666666,0.486,1,12762.313,1
0,703,target,"[(1029, 903)]",[],[1],[0.4166666666666667],vertical,"(390.0, 262.0)",1.4833333333333334,0.382,1,12766.273,2
0,704,target,"[(1029, 903)]",[],[1],[],horizontal,"(390.0, 262.0)",,"('cti', 1.069)",0,12771.34,0
0,705,target,"[(1025, 892)]",[],[1],[0.48333333333333334],horizontal,"(890.0, 262.0)",0.7833333333333333,0.449,1,12776.024,1
0,706,target,"[(1029, 889)]",[],[1],[0.5833333333333334],vertical,"(390.0, 762.0)",0.7666666666666666,0.542,1,12780.323,1
0,707,target,"[(1029, 886)]",[],[1],[0.23333333333333334],horizontal,"(390.0, 762.0)",1.4666666666666666,0.198,1,12784.64,1
0,708,target,"[(1028, 883)]",[],[1],[0.3],horizontal,"(390.0, 762.0)",1.0,0.267,1,12789.587,2
0,709,target,"[(1033, 893)]",[],[1],[0.6833333333333333],vertical,"(890.0, 262.0)",0.5666666666666667,0.646,1,12794.572,2
0,710,target,"[(1027, 876)]",[],[1],[0.5333333333333333],horizontal,"(890.0, 762.0)",0.7,0.498,1,12799.621,2
0,711,target,"[(1008, 903)]",[],[1],[0.4666666666666667],vertical,"(390.0, 262.0)",0.7,0.426,1,12804.342,2
0,712,target,"[(1027, 892)]",[],[1],[0.3],vertical,"(890.0, 762.0)",1.1333333333333333,0.264,1,12809.17,2
0,713,target,"[(1025, 885)]",[],[1],[0.5],horizontal,"(890.0, 762.0)",0.7666666666666666,0.459,1,12814.21,3
0,714,target,"[(1026, 889)]",[],[1],[0.31666666666666665],horizontal,"(890.0, 762.0)",1.3,0.278,1,12819.235,3
0,715,target,"[(1025, 911)]",[],[1],[0.6],vertical,"(390.0, 762.0)",0.8833333333333333,0.563,1,12824.295,3
0,716,target,"[(1026, 916)]",[],[1],[0.11666666666666667],horizontal,"(890.0, 262.0)",1.5666666666666667,0.084,0,12829.674,0
0,717,target,"[(1030, 889)]",[],[1],[0.5166666666666666],vertical,"(890.0, 762.0)",1.05,0.483,1,12834.624,1
0,718,target,"[(1033, 897)]",[],[1],[0.13333333333333333],vertical,"(390.0, 262.0)",1.6166666666666667,0.1,0,12839.616,0
0,719,target,"[(1013, 875)]",[],[1],[0.55],horizontal,"(390.0, 262.0)",0.6833333333333333,0.512,1,12844.674,1
0,720,target,"[(1029, 882)]",[],[1],[0.55],horizontal,"(390.0, 762.0)",0.8166666666666667,0.512,1,12848.809,1
0,721,target,"[(1005, 892)]",[],[1],[0.55],horizontal,"(390.0, 262.0)",0.55,0.516,1,12853.337,1
0,722,target,"[(1006, 872)]",[],[1],[0.55],horizontal,"(390.0, 262.0)",0.6166666666666667,0.517,1,12857.775,2
0,723,catch,"[(1029, 881)]",[],[1],[],vertical,"(390.0, 262.0)",1.3666666666666667,nan,1,12862.474,2
0,724,target,"[(1029, 906)]",[],[1],[0.4666666666666667],horizontal,"(390.0, 262.0)",1.3166666666666667,0.43,1,12866.994,2
0,725,catch,"[(1008, 907)]",[],[1],[],horizontal,"(890.0, 262.0)",1.2166666666666666,nan,1,12872.645,2
0,726,target,"[(1026, 908)]",[],[1],[0.7166666666666667],horizontal,"(890.0, 762.0)",0.5833333333333334,0.675,1,12880.494,2
0,727,target,"[(1042, 870)]",[],[1],[0.5333333333333333],vertical,"(390.0, 262.0)",0.5333333333333333,0.497,1,12885.259,3
0,728,target,"[(1033, 889)]",[],[1],[0.2833333333333333],horizontal,"(890.0, 762.0)",1.1166666666666667,0.245,1,12889.894,3
0,729,target,"[(1028, 882)]",[],[1],[0.6833333333333333],vertical,"(390.0, 262.0)",0.8666666666666667,0.64,1,12894.942,3
0,730,target,"[(1029, 879)]",[],[1],[0.5166666666666666],horizontal,"(890.0, 262.0)",0.7333333333333333,0.48,1,12900.12,3
0,731,target,"[(1029, 875)]",[],[1],[0.5],vertical,"(890.0, 762.0)",0.6,0.464,1,12905.516,3
0,732,target,"[(1005, 884)]",[],[1],[0.11666666666666667],vertical,"(890.0, 262.0)",1.4,0.083,0,12910.726,0
0,733,target,"[(1009, 903)]",[],[1],[0.3333333333333333],vertical,"(390.0, 762.0)",1.3666666666666667,0.3,1,12914.964,1
0,734,target,"[(1008, 903)]",[],[1],[0.48333333333333334],horizontal,"(390.0, 262.0)",1.1,0.451,1,12919.626,1
0,735,target,"[(1021, 899)]",[],[1],[0.2833333333333333],vertical,"(890.0, 762.0)",1.5666666666666667,0.246,1,12924.44,1
0,736,target,"[(1029, 898)]",[],[1],[0.48333333333333334],horizontal,"(390.0, 762.0)",1.3166666666666667,0.45,1,12929.567,2
0,737,target,"[(1029, 868)]",[],[1],[0.7],vertical,"(390.0, 262.0)",0.5,0.661,1,12934.942,2
0,738,target,"[(1029, 892)]",[],[1],[0.43333333333333335],horizontal,"(890.0, 762.0)",1.15,0.396,1,12939.492,2
0,739,target,"[(1036, 877)]",[],[1],[0.45],vertical,"(390.0, 262.0)",1.4666666666666666,0.41,1,12944.71,2
0,740,target,"[(1022, 899)]",[],[1],[0.6],vertical,"(890.0, 262.0)",0.6166666666666667,0.563,1,12949.77,2
0,741,target,"[(1013, 900)]",[],[1],[0.13333333333333333],vertical,"(390.0, 762.0)",1.6166666666666667,0.101,0,12954.56,0
0,742,target,"[(1009, 907)]",[],[1],[0.31666666666666665],horizontal,"(890.0, 262.0)",1.3166666666666667,0.284,1,12959.342,1
0,743,target,"[(1033, 898)]",[],[1],[0.45],vertical,"(890.0, 262.0)",1.3166666666666667,0.415,1,12964.227,1
0,744,target,"[(1043, 876)]",[],[1],[0.5166666666666666],vertical,"(390.0, 262.0)",1.1166666666666667,0.483,1,12968.744,1
0,745,target,"[(1035, 883)]",[],[1],[0.65],horizontal,"(390.0, 762.0)",0.6833333333333333,0.624,1,12973.587,2
0,746,target,"[(1029, 872)]",[],[1],[0.5],horizontal,"(890.0, 262.0)",1.0666666666666667,0.458,1,12978.343,2
0,747,catch,"[(1029, 908)]",[],[1],[],vertical,"(390.0, 762.0)",1.3,nan,1,12983.227,2
0,748,target,"[(1029, 872)]",[],[1],[0.5666666666666667],horizontal,"(390.0, 262.0)",0.9666666666666667,0.53,1,12988.276,2
0,749,target,"[(1033, 881)]",[],[1],[],vertical,"(890.0, 762.0)",,"('cti', 1.046)",0,12993.391,0
0,750,target,"[(1013, 910)]",[],[1],[0.4666666666666667],vertical,"(890.0, 262.0)",1.3333333333333333,0.425,1,12997.408,1
0,751,target,"[(1021, 911)]",[],[1],[0.85],vertical,"(390.0, 262.0)",0.5,nan,0,13001.993,0
0,752,target,"[(1009, 872)]",[],[1],[0.45],horizontal,"(390.0, 762.0)",1.1833333333333333,0.414,1,13006.579,1
0,753,target,"[(1033, 901)]",[],[1],[0.65],vertical,"(890.0, 762.0)",1.6833333333333333,0.609,1,13012.581,1
0,754,target,"[(1029, 877)]",[],[1],[0.85],horizontal,"(390.0, 262.0)",1.4833333333333334,nan,0,13017.77,0
0,755,target,"[(1014, 890)]",[],[1],[0.65],vertical,"(390.0, 762.0)",0.6666666666666666,0.61,1,13022.741,1
0,756,target,"[(1029, 878)]",[],[1],[0.3],horizontal,"(390.0, 262.0)",1.4666666666666666,0.263,1,13027.045,1
0,757,target,"[(1015, 877)]",[],[1],[0.5666666666666667],vertical,"(890.0, 762.0)",1.2833333333333332,0.527,1,13031.828,1
0,758,target,"[(1045, 867)]",[],[1],[0.26666666666666666],horizontal,"(890.0, 762.0)",1.5833333333333333,0.232,1,13036.584,2
0,759,target,"[(1029, 875)]",[],[1],[0.48333333333333334],horizontal,"(890.0, 262.0)",0.8,0.451,1,13041.843,2
0,760,target,"[(1013, 931)]",[],[1],[0.5166666666666666],horizontal,"(390.0, 762.0)",1.2166666666666666,0.481,1,13046.196,2
0,761,target,"[(1013, 898)]",[],[1],[0.5833333333333334],horizontal,"(890.0, 762.0)",0.9666666666666667,0.546,1,13051.329,2
0,762,target,"[(1045, 878)]",[],[1],[0.16666666666666666],vertical,"(890.0, 762.0)",1.3833333333333333,0.136,0,13056.209,0
0,763,target,"[(1029, 891)]",[],[1],[],horizontal,"(390.0, 262.0)",,"('cti', 1.532)",0,13060.879,0
0,764,target,"[(1017, 893)]",[],[1],[0.6166666666666667],vertical,"(390.0, 762.0)",1.2833333333333332,0.578,1,13067.075,1
0,765,target,"[(1017, 880)]",[],[1],[0.55],vertical,"(390.0, 262.0)",1.35,0.515,1,13072.365,1
0,766,target,"[(1023, 873)]",[],[1],[0.6166666666666667],horizontal,"(890.0, 762.0)",0.8,0.579,1,13077.313,1
0,767,target,"[(1044, 885)]",[],[1],[0.35],vertical,"(890.0, 762.0)",1.3,0.316,1,13081.441,2
0,768,target,"[(1028, 877)]",[],[1],[0.55],horizontal,"(390.0, 762.0)",1.1666666666666667,0.504,1,13086.726,2
0,769,target,"[(1040, 891)]",[],[1],[0.23333333333333334],horizontal,"(390.0, 262.0)",1.6666666666666667,0.2,1,13091.772,2
0,770,target,"[(1019, 898)]",[],[1],[0.5333333333333333],vertical,"(890.0, 262.0)",0.75,0.496,1,13096.938,2
0,771,catch,"[(1013, 884)]",[],[1],[],horizontal,"(890.0, 762.0)",1.3333333333333333,nan,1,13101.358,2
0,772,target,"[(1009, 876)]",[],[1],[0.4666666666666667],vertical,"(890.0, 762.0)",1.05,0.432,1,13106.245,3
0,773,target,"[(1005, 915)]",[],[1],[0.45],vertical,"(390.0, 762.0)",1.2,0.418,1,13111.899,3
0,774,target,"[(1039, 887)]",[],[1],[0.5],horizontal,"(390.0, 762.0)",1.2666666666666666,0.469,1,13117.812,3
0,775,target,"[(1029, 900)]",[],[1],[0.5666666666666667],vertical,"(390.0, 262.0)",0.6666666666666666,0.527,1,13123.342,3
0,776,target,"[(1024, 900)]",[],[1],[0.55],horizontal,"(890.0, 262.0)",0.7,0.516,1,13128.457,3
0,777,target,"[(1033, 859)]",[],[1],[0.5],vertical,"(390.0, 762.0)",1.3166666666666667,0.46,1,13133.514,3
0,778,target,"[(1021, 880)]",[],[1],[0.85],horizontal,"(890.0, 762.0)",1.4333333333333333,"('cti', 1.433),nan",0,13138.815,0
0,779,catch,"[(1009, 905)]",[],[1],[],horizontal,"(390.0, 762.0)",1.4833333333333334,nan,1,13144.16,1
0,780,target,"[(1005, 898)]",[],[1],[0.85],vertical,"(890.0, 762.0)",0.7333333333333333,nan,0,13149.159,0
0,781,target,"[(1008, 891)]",[],[1],[0.48333333333333334],horizontal,"(890.0, 262.0)",0.7666666666666666,0.447,1,13155.175,1
0,782,target,"[(1024, 870)]",[],[1],[0.4666666666666667],vertical,"(890.0, 262.0)",1.4333333333333333,0.432,1,13160.374,1
0,783,target,"[(1023, 896)]",[],[1],[0.4666666666666667],vertical,"(390.0, 762.0)",1.2833333333333332,0.431,1,13165.165,1
0,784,target,"[(1017, 873)]",[],[1],[0.16666666666666666],horizontal,"(890.0, 762.0)",1.4,0.132,0,13169.84,0
0,785,target,"[(1005, 907)]",[],[1],[0.5333333333333333],horizontal,"(890.0, 262.0)",0.6333333333333333,0.496,1,13174.23,1
0,786,target,"[(1041, 897)]",[],[1],[0.5],vertical,"(890.0, 262.0)",0.5333333333333333,0.459,1,13178.127,1
0,787,target,"[(1038, 886)]",[],[1],[0.06666666666666667],horizontal,"(390.0, 762.0)",1.5166666666666666,0.036,0,13182.047,0
0,788,target,"[(1020, 875)]",[],[1],[0.65],vertical,"(890.0, 762.0)",0.6666666666666666,0.61,1,13186.329,1
0,789,target,"[(1024, 884)]",[],[1],[0.6166666666666667],vertical,"(390.0, 762.0)",0.5333333333333333,0.579,1,13190.494,1
0,790,target,"[(1019, 877)]",[],[1],[0.55],horizontal,"(890.0, 262.0)",1.0166666666666666,0.516,1,13194.747,1
0,791,target,"[(1029, 874)]",[],[1],[0.5],vertical,"(390.0, 262.0)",1.4333333333333333,0.463,1,13199.557,2
0,792,target,"[(1028, 890)]",[],[1],[0.13333333333333333],horizontal,"(390.0, 762.0)",1.3666666666666667,0.101,0,13204.608,0
0,793,target,"[(1024, 880)]",[],[1],[0.6],vertical,"(890.0, 262.0)",0.8333333333333334,0.561,1,13208.997,1
0,794,target,"[(1029, 864)]",[],[1],[],horizontal,"(390.0, 762.0)",,"('cti', 1.156)",0,13213.673,0
0,795,target,"[(1027, 907)]",[],[1],[0.4666666666666667],horizontal,"(890.0, 762.0)",1.5666666666666667,0.43,1,13217.654,1
0,796,target,"[(1029, 891)]",[],[1],[0.6166666666666667],horizontal,"(890.0, 262.0)",0.6666666666666666,0.578,1,13225.06,1
0,797,target,"[(1009, 887)]",[],[1],[],horizontal,"(390.0, 762.0)",,"('cti', 1.532)",0,13229.058,0
0,798,target,"[(1012, 884)]",[],[1],[0.85],vertical,"(390.0, 762.0)",0.8,nan,0,13233.721,0
0,799,target,"[(1024, 882)]",[],[1],[],vertical,"(890.0, 762.0)",,"('cti', 1.606)",0,13238.779,0
0,800,target,"[(1037, 893)]",[],[1],[0.5333333333333333],horizontal,"(390.0, 762.0)",1.1333333333333333,0.498,1,13243.926,1
0,801,target,"[(1029, 898)]",[],[1],[0.55],horizontal,"(390.0, 762.0)",0.5,0.513,1,13248.532,1
0,802,target,"[(1012, 903)]",[],[1],[0.4],vertical,"(390.0, 262.0)",1.4166666666666667,0.363,1,13252.731,1
0,803,target,"[(1012, 903)]",[],[1],[0.7],horizontal,"(890.0, 262.0)",0.85,0.661,1,13257.428,2
0,804,target,"[(1029, 862)]",[],[1],[0.4666666666666667],vertical,"(890.0, 262.0)",0.8333333333333334,0.434,1,13262.314,2
0,805,target,"[(1033, 889)]",[],[1],[0.6],vertical,"(390.0, 762.0)",0.7333333333333333,0.567,1,13267.377,2
0,806,target,"[(1025, 903)]",[],[1],[0.5],vertical,"(890.0, 262.0)",1.1666666666666667,0.462,1,13272.035,2
0,807,target,"[(1027, 879)]",[],[1],[0.2],vertical,"(390.0, 762.0)",1.6666666666666667,0.164,1,13276.666,2
0,808,target,"[(1032, 873)]",[],[1],[0.55],vertical,"(390.0, 262.0)",1.1166666666666667,0.513,1,13281.628,3
0,809,target,"[(1045, 877)]",[],[1],[0.55],horizontal,"(390.0, 762.0)",0.6833333333333333,0.508,1,13287.114,3
0,810,catch,"[(1027, 896)]",[],[1],[],horizontal,"(390.0, 762.0)",1.3333333333333333,nan,1,13292.439,3
0,811,target,"[(1025, 895)]",[],[1],[0.4166666666666667],vertical,"(890.0, 262.0)",1.65,0.382,1,13297.721,3
0,812,target,"[(1017, 873)]",[],[1],[0.48333333333333334],vertical,"(890.0, 262.0)",0.9666666666666667,0.447,1,13303.479,3
0,813,target,"[(1030, 869)]",[],[1],[0.21666666666666667],horizontal,"(890.0, 762.0)",1.3166666666666667,0.184,1,13308.717,3
0,814,target,"[(1017, 883)]",[],[1],[0.5166666666666666],vertical,"(390.0, 762.0)",1.25,0.476,1,13314.179,3
0,815,target,"[(1008, 888)]",[],[1],[],horizontal,"(390.0, 762.0)",,"('cti', 1.53)",0,13320.392,0
0,816,target,"[(1008, 903)]",[],[1],[0.5333333333333333],vertical,"(890.0, 762.0)",0.8666666666666667,0.494,1,13324.843,1
0,817,target,"[(1027, 899)]",[],[1],[0.4666666666666667],vertical,"(890.0, 762.0)",1.4666666666666666,0.422,1,13329.516,1
0,818,target,"[(1024, 885)]",[],[1],[0.5333333333333333],horizontal,"(390.0, 262.0)",0.6666666666666666,0.501,1,13334.507,1
0,819,target,"[(1029, 909)]",[],[1],[0.5166666666666666],vertical,"(390.0, 262.0)",1.1666666666666667,0.477,1,13338.661,2
0,820,target,"[(1045, 888)]",[],[1],[0.6833333333333333],horizontal,"(390.0, 762.0)",0.8,0.643,1,13343.651,2
0,821,target,"[(1029, 882)]",[],[1],[0.55],horizontal,"(890.0, 762.0)",0.7,0.518,1,13348.192,2
0,822,target,"[(1014, 900)]",[],[1],[0.5333333333333333],vertical,"(890.0, 762.0)",1.0666666666666667,0.494,1,13352.994,2
0,823,target,"[(1024, 895)]",[],[1],[0.25],horizontal,"(890.0, 262.0)",1.4166666666666667,0.219,1,13357.731,2
0,824,target,"[(1029, 893)]",[],[1],[],vertical,"(890.0, 762.0)",,"('cti', 1.148)",0,13363.061,0
0,825,target,"[(1017, 903)]",[],[1],[0.6166666666666667],horizontal,"(390.0, 762.0)",1.4166666666666667,0.569,1,13367.362,1
0,826,target,"[(1043, 891)]",[],[1],[0.48333333333333334],vertical,"(390.0, 762.0)",1.1166666666666667,0.448,1,13372.178,1
0,827,target,"[(1039, 889)]",[],[1],[0.5333333333333333],horizontal,"(890.0, 262.0)",1.1333333333333333,0.499,1,13377.024,1
0,828,target,"[(1029, 874)]",[],[1],[0.35],horizontal,"(890.0, 262.0)",1.3333333333333333,0.315,1,13381.728,2
