block,trial,trial_type,taps_start_loc_during_fix,taps_end_loc_during_fix,taps_on_lever_during_fix,taps_on_lever_s_during_fix,bar_orientation,target_xy,cti,rt,acc,time,pulses,fa_rate_recent100,actual_invalid_type
0,1,valid,"[(1143, 812)]",[],[1],[0.4166666666666667],vertical,"(890.0, 262.0)",1.2666666666666666,0.376,1,0.459,1,0.0,same
0,2,valid,"[(1095, 839)]",[],[1],[0.5666666666666667],horizontal,"(890.0, 762.0)",0.6666666666666666,0.526,1,15.686,1,0.0,same
0,3,valid,"[(1136, 795)]",[],[1],[0.6666666666666666],vertical,"(390.0, 762.0)",0.6333333333333333,0.626,1,92.6,1,0.0,same
0,4,valid,"[(1143, 804)]",[],[1],[0.5333333333333333],horizontal,"(890.0, 262.0)",1.3333333333333333,0.495,1,97.502,2,0.0,same
0,5,invalid_same_bar,"[(1170, 824)]",[],[1],[0.85],horizontal,"(890.0, 262.0)",0.8166666666666667,nan,0,103.137,0,0.0,same
0,6,valid,"[(1136, 827)]",[],[1],[0.55],horizontal,"(890.0, 262.0)",1.15,0.517,1,107.858,1,0.0,same
0,7,valid,"[(1187, 799)]",[],[1],[0.5333333333333333],horizontal,"(890.0, 262.0)",1.4833333333333334,0.492,1,685.376,1,0.0,same
0,8,valid,"[(1181, 795)]",[],[1],[0.5333333333333333],horizontal,"(390.0, 762.0)",1.0166666666666666,0.493,1,690.674,1,0.0,same
0,9,valid,"[(1177, 806)]",[],[1],[0.7833333333333333],horizontal,"(390.0, 762.0)",0.6833333333333333,0.742,1,695.959,2,0.0,same
0,10,valid,"[(1182, 796)]",[],[1],[0.5333333333333333],horizontal,"(390.0, 762.0)",1.1333333333333333,0.494,1,701.082,2,0.0,same
0,11,valid,"[(1180, 816)]",[],[1],[0.5833333333333334],vertical,"(890.0, 262.0)",0.6333333333333333,0.538,1,706.805,2,0.0,same
0,12,catch,"[(1180, 803)]",[],[1],[],horizontal,"(890.0, 762.0)",1.7,nan,1,712.07,3,0.0,same
0,13,invalid_adjacent_other_bar,"[(1194, 803), (1224, 793)]",[],"[1, 1]",[],horizontal,"(890.0, 262.0)",,"('fix', 0.269)",0,717.856,0,0.0,other
0,14,valid,"[(1105, 821)]",[],[1],[],vertical,"(890.0, 262.0)",,"('cti', 0.74)",0,719.639,0,0.0,same
0,15,valid,"[(1169, 791)]",[],[1],[0.5666666666666667],vertical,"(390.0, 762.0)",0.45,0.526,1,723.881,1,0.0,same
0,16,valid,"[(1181, 795)]",[],[1],[0.5166666666666666],horizontal,"(390.0, 762.0)",1.1,0.486,1,728.296,1,0.0,same
0,17,valid,"[(1182, 784)]",[],[1],[0.85],vertical,"(390.0, 262.0)",1.35,"('cti', 1.352),nan",0,733.65,0,0.0,same
0,18,valid,"[(1151, 804)]",[],[1],[0.7],vertical,"(890.0, 762.0)",0.8666666666666667,0.661,1,739.105,1,0.0,same
0,19,catch,"[(1182, 787)]",[],[1],[0.03333333333333333],vertical,"(890.0, 762.0)",1.7,"0.021,nan",0,744.505,0,0.05263157894736842,same
0,20,catch,"[(1169, 831)]",[],[1],[],vertical,"(390.0, 262.0)",1.7,nan,1,748.893,1,0.05,same
0,21,valid,"[(1171, 809)]",[],[1],[0.48333333333333334],vertical,"(890.0, 762.0)",1.4833333333333334,0.446,1,756.04,1,0.047619047619047616,same
0,22,valid,"[(1208, 810)]",[],[1],[0.48333333333333334],vertical,"(890.0, 762.0)",1.25,0.441,1,761.557,1,0.045454545454545456,same
0,23,valid,"[(1203, 776)]",[],[1],[0.48333333333333334],vertical,"(390.0, 762.0)",1.3333333333333333,0.441,1,766.805,2,0.043478260869565216,same
0,24,valid,"[(1190, 806)]",[],[1],[0.7],vertical,"(390.0, 262.0)",0.55,0.659,1,772.389,2,0.041666666666666664,same
0,25,valid,"[(1205, 803)]",[],[1],[0.5166666666666666],vertical,"(390.0, 762.0)",1.2833333333333332,0.474,1,777.132,2,0.04,same
0,26,valid,"[(1186, 796)]",[],[1],[0.5333333333333333],vertical,"(890.0, 762.0)",1.0833333333333333,0.491,1,783.205,3,0.038461538461538464,same
0,27,catch,"[(1197, 795)]",[],[1],[],horizontal,"(890.0, 762.0)",,"('cti', 1.309),nan",0,789.357,0,0.07407407407407407,same
0,28,valid,"[(1156, 791)]",[],[1],[0.15],vertical,"(890.0, 762.0)",1.0,0.118,0,793.659,0,0.07142857142857142,same
0,29,invalid_same_bar,"[(1165, 796)]",[],[1],[0.18333333333333332],vertical,"(890.0, 262.0)",0.6333333333333333,0.149,0,798.189,0,0.06896551724137931,same
0,30,valid,"[(1183, 781)]",[],[1],[0.4666666666666667],horizontal,"(890.0, 262.0)",1.3166666666666667,0.431,1,802.231,1,0.06666666666666667,same
0,31,catch,"[(1201, 803)]",[],[1],[],horizontal,"(390.0, 262.0)",1.7,nan,1,807.1,1,0.06451612903225806,same
0,32,valid,"[(1186, 793)]",[],[1],[0.55],horizontal,"(390.0, 262.0)",1.4666666666666666,0.504,1,812.475,1,0.0625,same
0,33,valid,"[(1186, 803)]",[],[1],[],vertical,"(390.0, 762.0)",,"('cti', 0.54)",0,817.905,0,0.06060606060606061,same
0,34,invalid_adjacent_other_bar,"[(1178, 792)]",[],[1],[0.31666666666666665],horizontal,"(890.0, 262.0)",0.36666666666666664,0.279,1,821.904,1,0.058823529411764705,other
0,35,catch,"[(1200, 772)]",[],[1],[],horizontal,"(890.0, 762.0)",1.7,nan,1,826.273,1,0.05714285714285714,same
0,36,valid,"[(1203, 794)]",[],[1],[0.48333333333333334],horizontal,"(890.0, 762.0)",1.2333333333333334,0.441,1,831.522,1,0.05555555555555555,same
0,37,invalid_adjacent_other_bar,"[(1207, 796)]",[],[1],[0.85],vertical,"(390.0, 762.0)",1.05,nan,0,836.474,0,0.05405405405405406,other
0,38,catch,"[(1178, 789)]",[],[1],[],vertical,"(390.0, 762.0)",1.7,nan,1,841.226,1,0.05263157894736842,same
0,39,valid,"[(1190, 788)]",[],[1],[0.5833333333333334],vertical,"(890.0, 262.0)",1.1666666666666667,0.55,1,846.307,1,0.05128205128205128,same
0,40,invalid_same_bar,"[(1204, 792)]",[],[1],[0.55],vertical,"(390.0, 762.0)",1.0166666666666666,0.505,1,851.573,1,0.05,same
0,41,valid,"[(1185, 799)]",[],[1],[0.5666666666666667],vertical,"(390.0, 262.0)",1.45,0.527,1,856.539,2,0.04878048780487805,same
0,42,valid,"[(1192, 798)]",[],[1],[0.5666666666666667],horizontal,"(390.0, 762.0)",1.1333333333333333,0.527,1,862.706,2,0.047619047619047616,same
0,43,valid,"[(1180, 790)]",[],[1],[0.5333333333333333],horizontal,"(390.0, 262.0)",0.8666666666666667,0.491,1,868.089,2,0.046511627906976744,same
0,44,catch,"[(1193, 796)]",[],[1],[],vertical,"(890.0, 262.0)",1.7,nan,1,873.638,3,0.045454545454545456,same
0,45,catch,"[(1189, 779)]",[],[1],[],horizontal,"(390.0, 262.0)",1.7,nan,1,879.956,3,0.044444444444444446,same
0,46,valid,"[(1185, 782)]",[],[1],[0.5666666666666667],horizontal,"(390.0, 762.0)",1.2833333333333332,0.522,1,885.635,3,0.043478260869565216,same
0,47,valid,"[(1205, 791)]",[],[1],[0.5166666666666666],horizontal,"(390.0, 262.0)",0.75,0.473,1,891.542,3,0.0425531914893617,same
0,48,valid,"[(1208, 788)]",[],[1],[],horizontal,"(390.0, 762.0)",,"('fix', 0.197)",0,897.098,0,0.041666666666666664,same
0,49,catch,"[(1127, 824)]",[],[1],[],horizontal,"(890.0, 262.0)",1.7,nan,1,898.905,1,0.04081632653061224,same
0,50,valid,"[(1203, 788)]",[],[1],[0.85],horizontal,"(890.0, 762.0)",0.7166666666666667,nan,0,904.168,0,0.04,same
0,51,valid,"[(1180, 769)]",[],[1],[0.6333333333333333],horizontal,"(390.0, 762.0)",1.0833333333333333,0.591,1,908.979,1,0.04,same
0,52,catch,"[(1205, 782)]",[],[1],[],horizontal,"(890.0, 262.0)",1.7,nan,1,913.955,1,0.04,same
0,53,valid,"[(1191, 769)]",[],[1],[0.5333333333333333],horizontal,"(890.0, 762.0)",1.1166666666666667,0.495,1,919.305,1,0.04,same
0,54,invalid_adjacent_other_bar,"[(1215, 791)]",[],[1],[0.7333333333333333],horizontal,"(890.0, 762.0)",0.35,0.689,1,924.498,2,0.04,other
0,55,valid,"[(1185, 798)]",[],[1],[0.5],horizontal,"(390.0, 762.0)",1.0833333333333333,0.454,1,929.492,2,0.04,same
0,56,catch,"[(1188, 791)]",[],[1],[],vertical,"(890.0, 262.0)",1.7,nan,1,934.686,2,0.04,same
0,57,valid,"[(1185, 794)]",[],[1],[0.48333333333333334],vertical,"(390.0, 262.0)",0.43333333333333335,0.443,1,940.574,3,0.04,same
0,58,catch,"[(1205, 772)]",[],[1],[],vertical,"(890.0, 262.0)",1.7,nan,1,946.024,3,0.04,same
0,59,valid,"[(1189, 790)]",[],[1],[0.45],horizontal,"(890.0, 762.0)",1.4,0.409,1,951.989,3,0.04,same
0,60,invalid_same_bar,"[(1211, 799)]",[],[1],[0.5333333333333333],vertical,"(890.0, 762.0)",1.0,0.488,1,958.344,3,0.04,same
0,61,invalid_same_bar,"[(1180, 792)]",[],[1],[0.5],vertical,"(890.0, 262.0)",1.5,0.456,1,963.924,3,0.04,same
0,62,valid,"[(1165, 781)]",[],[1],[0.85],vertical,"(890.0, 262.0)",0.6666666666666666,nan,0,970.371,0,0.04,same
0,63,valid,"[(1164, 810)]",[],[1],[0.5],vertical,"(890.0, 262.0)",0.3833333333333333,0.457,1,974.489,1,0.04,same
0,64,invalid_adjacent_other_bar,"[(1183, 770)]",[],[1],[0.65],vertical,"(390.0, 262.0)",0.5166666666666666,0.6,1,978.896,1,0.04,other
0,65,valid,"[(1211, 778)]",[],[1],[0.5666666666666667],vertical,"(390.0, 262.0)",0.6,0.522,1,983.449,1,0.04,same
0,66,valid,"[(1185, 786)]",[],[1],[0.6166666666666667],vertical,"(890.0, 262.0)",0.35,0.568,1,988.362,2,0.04,same
0,67,valid,"[(1180, 778)]",[],[1],[0.55],vertical,"(890.0, 262.0)",0.6666666666666666,0.508,1,993.164,2,0.04,same
0,68,catch,"[(1215, 779), (1224, 779)]",[],"[1, 1]",[],horizontal,"(390.0, 762.0)",,"('fix', 0.162),nan",0,998.493,0,0.06,same
0,69,catch,"[(1123, 811)]",[],[1],[],horizontal,"(390.0, 762.0)",1.7,nan,1,1000.19,1,0.04,same
0,70,valid,"[(1225, 794), (1224, 800)]",[],"[1, 1]",[],vertical,"(390.0, 262.0)",,"('fix', 0.302)",0,1006.213,0,0.04,same
0,71,valid,"[(1135, 782)]",[],[1],[0.5],horizontal,"(390.0, 762.0)",0.6333333333333333,0.458,1,1008.484,1,0.04,same
0,72,valid,"[(1188, 786)]",[],[1],[0.4666666666666667],horizontal,"(390.0, 262.0)",0.65,0.439,1,1017.289,1,0.04,same
0,73,valid,"[(1200, 790)]",[],[1],[0.6166666666666667],horizontal,"(890.0, 262.0)",0.5666666666666667,0.573,1,1021.893,1,0.04,same
0,74,valid,"[(1180, 780)]",[],[1],[0.48333333333333334],vertical,"(390.0, 262.0)",1.5,0.441,1,1026.286,2,0.04,same
0,75,catch,"[(1180, 791)]",[],[1],[],horizontal,"(390.0, 262.0)",,"('cti', 1.257),nan",0,1032.291,0,0.06,same
0,76,valid,"[(1140, 792)]",[],[1],[0.5],vertical,"(390.0, 262.0)",0.3833333333333333,0.459,1,1036.74,1,0.06,same
0,77,valid,"[(1175, 775)]",[],[1],[0.5166666666666666],vertical,"(890.0, 262.0)",1.25,0.475,1,1040.806,1,0.04,same
0,78,valid,"[(1180, 782)]",[],[1],[0.48333333333333334],vertical,"(890.0, 762.0)",1.5,0.436,1,1046.372,1,0.04,same
0,79,valid,"[(1175, 782)]",[],[1],[0.55],horizontal,"(890.0, 262.0)",1.3666666666666667,0.505,1,1051.705,2,0.04,same
0,80,catch,"[(1206, 795)]",[],[1],[],horizontal,"(890.0, 762.0)",1.7,nan,1,1057.64,2,0.04,same
0,81,catch,"[(1203, 786)]",[],[1],[],horizontal,"(890.0, 262.0)",1.7,nan,1,1063.007,2,0.04,same
0,82,valid,"[(1203, 796)]",[],[1],[0.5666666666666667],horizontal,"(890.0, 762.0)",0.5166666666666666,0.52,1,1068.266,3,0.04,same
0,83,valid,"[(1180, 796)]",[],[1],[0.6666666666666666],horizontal,"(890.0, 762.0)",0.9,0.623,1,1073.973,3,0.04,same
0,84,valid,"[(1194, 790)]",[],[1],[0.43333333333333335],horizontal,"(890.0, 262.0)",1.2,0.394,1,1079.714,3,0.04,same
0,85,valid,"[(1175, 776)]",[],[1],[0.6166666666666667],horizontal,"(890.0, 762.0)",0.4166666666666667,0.568,1,1085.791,3,0.04,same
0,86,valid,"[(1205, 782)]",[],[1],[0.43333333333333335],horizontal,"(890.0, 262.0)",1.3333333333333333,0.395,1,1091.08,3,0.04,same
0,87,valid,"[(1179, 773)]",[],[1],[0.85],vertical,"(390.0, 762.0)",0.8333333333333334,nan,0,1097.211,0,0.04,same
0,88,valid,"[(1147, 787)]",[],[1],[0.5833333333333334],horizontal,"(890.0, 262.0)",0.48333333333333334,0.535,1,1101.892,1,0.04,same
0,89,valid,"[(1205, 782)]",[],[1],[0.08333333333333333],horizontal,"(390.0, 762.0)",1.3333333333333333,0.051,0,1106.582,0,0.04,same
0,90,invalid_same_bar,"[(1165, 795)]",[],[1],[0.85],horizontal,"(390.0, 762.0)",0.35,nan,0,1111.178,0,0.04,same
0,91,catch,"[(1141, 782)]",[],[1],[],horizontal,"(890.0, 762.0)",,"('cti', 1.3),nan",0,1115.225,0,0.06,same
0,92,valid,"[(1165, 773)]",[],[1],[0.65],horizontal,"(390.0, 762.0)",0.43333333333333335,0.607,1,1119.469,1,0.06,same
0,93,valid,"[(1180, 782)]",[],[1],[0.6],vertical,"(390.0, 762.0)",0.8833333333333333,0.556,1,1124.141,1,0.06,same
0,94,valid,"[(1175, 790)]",[],[1],[0.18333333333333332],vertical,"(390.0, 262.0)",1.2166666666666666,0.153,0,1129.223,0,0.06,same
0,95,valid,"[(1140, 792)]",[],[1],[0.5666666666666667],horizontal,"(390.0, 762.0)",1.05,0.522,1,1133.72,1,0.06,same
0,96,valid,"[(1217, 793)]",[],[1],[0.85],vertical,"(890.0, 762.0)",0.95,nan,0,1138.701,0,0.06,same
0,97,valid,"[(1160, 784)]",[],[1],[0.55],vertical,"(890.0, 762.0)",1.5166666666666666,0.51,1,1143.575,1,0.06,same
0,98,valid,"[(1210, 785)]",[],[1],[0.6],vertical,"(390.0, 762.0)",1.05,0.559,1,1149.132,1,0.06,same
0,99,catch,"[(1175, 806)]",[],[1],[],vertical,"(390.0, 262.0)",1.7,nan,1,1154.347,1,0.06,same
0,100,invalid_same_bar,"[(1180, 777)]",[],[1],[0.65],horizontal,"(890.0, 762.0)",1.1166666666666667,0.607,1,1159.641,2,0.06,same
0,101,valid,"[(1180, 787)]",[],[1],[0.85],horizontal,"(390.0, 762.0)",0.6666666666666666,nan,0,1165.758,0,0.06,same
0,102,valid,"[(1160, 792)]",[],[1],[0.6333333333333333],vertical,"(890.0, 762.0)",1.4833333333333334,0.585,1,1170.006,1,0.06,same
0,103,catch,"[(1160, 791)]",[],[1],[],horizontal,"(890.0, 262.0)",1.7,nan,1,1175.772,1,0.06,same
0,104,valid,"[(1191, 783)]",[],[1],[0.6666666666666666],horizontal,"(890.0, 762.0)",0.9666666666666667,0.617,1,1180.782,1,0.06,same
0,105,catch,"[(1163, 793)]",[],[1],[],vertical,"(890.0, 762.0)",,"('cti', 0.485),nan",0,1186.006,0,0.08,same
0,106,valid,"[(1121, 802)]",[],[1],[],vertical,"(890.0, 262.0)",,"('cti', 0.827)",0,1189.595,0,0.08,same
0,107,valid,"[(1130, 837)]",[],[1],[0.5333333333333333],horizontal,"(390.0, 762.0)",0.7333333333333333,0.496,1,1193.84,1,0.08,same
0,108,invalid_adjacent_other_bar,"[(1167, 804)]",[],[1],[0.5833333333333334],vertical,"(390.0, 762.0)",1.35,0.558,1,1616.475,1,0.08,other
0,109,catch,"[(1171, 798)]",[],[1],[],vertical,"(890.0, 262.0)",1.7,nan,1,1621.998,1,0.08,same
0,110,valid,"[(1203, 802)]",[],[1],[0.85],horizontal,"(390.0, 762.0)",1.15,nan,0,1627.491,0,0.08,same
0,111,catch,"[(1161, 811)]",[],[1],[],vertical,"(390.0, 762.0)",1.7,nan,1,1632.557,1,0.08,same
0,112,valid,"[(1185, 785)]",[],[1],[0.4666666666666667],horizontal,"(890.0, 262.0)",0.45,0.428,1,1637.408,1,0.08,same
0,113,invalid_same_bar,"[(1186, 790)]",[],[1],[0.55],vertical,"(390.0, 762.0)",0.45,0.51,1,1642.015,1,0.08,same
0,114,catch,"[(1214, 795)]",[],[1],[],vertical,"(390.0, 262.0)",1.7,nan,1,1646.158,2,0.08,same
0,115,valid,"[(1206, 804)]",[],[1],[0.5333333333333333],horizontal,"(390.0, 762.0)",0.9333333333333333,0.493,1,1651.808,2,0.08,same
0,116,valid,"[(1195, 782)]",[],[1],[0.48333333333333334],horizontal,"(890.0, 262.0)",0.8833333333333333,0.443,1,1656.925,2,0.08,same
0,117,valid,"[(1211, 802)]",[],[1],[],horizontal,"(390.0, 762.0)",,"('fix', 0.2)",0,1661.992,0,0.08,same
0,118,valid,"[(1136, 801)]",[],[1],[0.48333333333333334],horizontal,"(890.0, 762.0)",1.2333333333333334,0.45,1,1663.743,1,0.06,same
0,119,valid,"[(1217, 801)]",[],[1],[],horizontal,"(390.0, 762.0)",,"('fix', 0.217)",0,1669.22,0,0.06,same
0,120,valid,"[(1204, 789)]",[],[1],[0.4666666666666667],horizontal,"(390.0, 262.0)",0.48333333333333334,0.435,1,1671.058,1,0.06,same
0,121,valid,"[(1185, 816)]",[],[1],[0.2],horizontal,"(890.0, 262.0)",1.5166666666666666,0.17,0,1675.858,0,0.06,same
0,122,valid,"[(1162, 805)]",[],[1],[0.45],horizontal,"(890.0, 262.0)",0.7,0.41,1,1681.375,1,0.06,same
0,123,valid,"[(1214, 790)]",[],[1],[],horizontal,"(390.0, 262.0)",,"('fix', 0.195)",0,1689.005,0,0.06,same
0,124,valid,"[(1163, 791)]",[],[1],[0.55],vertical,"(390.0, 262.0)",0.4,0.515,1,1690.688,1,0.06,same
0,125,catch,"[(1180, 811)]",[],[1],[],vertical,"(890.0, 262.0)",1.7,nan,1,1694.947,1,0.04,same
0,126,valid,"[(1214, 812), (1222, 796)]",[],"[1, 1]",[],horizontal,"(890.0, 262.0)",,"('fix', 0.186)",0,1700.067,0,0.04,same
0,127,valid,"[(1134, 806)]",[],[1],[0.8],horizontal,"(890.0, 762.0)",1.2333333333333334,0.76,1,1702.044,1,0.04,same
0,128,valid,"[(1172, 818)]",[],[1],[],horizontal,"(890.0, 262.0)",,"('cti', 0.954)",0,1974.859,0,0.04,same
0,129,valid,"[(1160, 836)]",[],[1],[0.5833333333333334],vertical,"(890.0, 762.0)",0.4666666666666667,0.549,1,1978.446,1,0.04,same
0,130,catch,"[(1175, 812)]",[],[1],[],vertical,"(390.0, 262.0)",1.7,nan,1,2140.827,1,0.04,same
0,131,valid,"[(1175, 782)]",[],[1],[0.6833333333333333],vertical,"(890.0, 262.0)",1.4,0.644,1,2145.925,1,0.04,same
0,132,catch,"[(1208, 784)]",[],[1],[],horizontal,"(890.0, 762.0)",1.7,nan,1,2151.606,2,0.04,same
0,133,invalid_adjacent_other_bar,"[(1177, 788)]",[],[1],[0.5333333333333333],vertical,"(890.0, 262.0)",1.4166666666666667,0.504,1,2156.903,2,0.04,other
0,134,valid,"[(1181, 782)]",[],[1],[0.5833333333333334],vertical,"(390.0, 262.0)",1.3166666666666667,0.543,1,2162.807,2,0.04,same
0,135,valid,"[(1209, 778)]",[],[1],[],horizontal,"(890.0, 262.0)",,"('fix', 0.149)",0,2168.938,0,0.04,same
0,136,valid,"[(1162, 776)]",[],[1],[0.85],horizontal,"(890.0, 262.0)",0.7333333333333333,nan,0,2170.627,0,0.04,same
0,137,valid,"[(1161, 807)]",[],[1],[0.6166666666666667],vertical,"(890.0, 762.0)",1.2333333333333334,0.573,1,2175.307,1,0.04,same
0,138,catch,"[(1205, 806), (1224, 786)]",[],"[1, 1]",[],vertical,"(390.0, 762.0)",,"('fix', 0.202),nan",0,2180.861,0,0.06,same
0,139,valid,"[(1175, 811)]",[],[1],[0.6],horizontal,"(890.0, 262.0)",0.75,0.558,1,2182.657,1,0.06,same
0,140,catch,"[(1190, 770)]",[],[1],[],vertical,"(390.0, 762.0)",1.7,nan,1,2187.872,1,0.06,same
0,141,valid,"[(1210, 790), (1222, 778)]",[],"[1, 1]",[],horizontal,"(890.0, 262.0)",,"('fix', 0.214)",0,2192.76,0,0.04,same
0,142,valid,"[(1179, 806)]",[],[1],[0.85],horizontal,"(390.0, 762.0)",1.1333333333333333,nan,0,2194.495,0,0.04,same
0,143,valid,"[(1179, 806)]",[],[1],[0.5],vertical,"(890.0, 762.0)",0.7,0.459,1,2199.177,1,0.04,same
0,144,valid,"[(1206, 787), (1224, 786)]",[],"[1, 1]",[],horizontal,"(890.0, 262.0)",,"('fix', 0.17)",0,2203.67,0,0.04,same
0,145,valid,"[(1167, 790)]","[(1162, 800)]",[1],[0.15],horizontal,"(390.0, 262.0)",,"('bar', 0.164)",0,2205.377,0,0.04,same
0,146,valid,"[(1175, 804)]",[],[1],[0.5],vertical,"(390.0, 262.0)",0.7333333333333333,0.46,1,2208.189,1,0.04,same
0,147,valid,"[(1205, 777)]",[],[1],[0.6166666666666667],vertical,"(890.0, 262.0)",0.8,0.571,1,2215.793,1,0.04,same
0,148,catch,"[(1191, 779)]",[],[1],[],vertical,"(890.0, 262.0)",1.7,nan,1,2220.762,1,0.04,same
0,149,valid,"[(1190, 783)]",[],[1],[0.5833333333333334],vertical,"(890.0, 762.0)",0.36666666666666664,0.539,1,2225.432,2,0.04,same
0,150,invalid_adjacent_other_bar,"[(1200, 795)]",[],[1],[0.6],horizontal,"(390.0, 762.0)",0.6,0.564,1,2229.994,2,0.04,other
0,151,catch,"[(1200, 793)]",[],[1],[],vertical,"(390.0, 262.0)",1.7,nan,1,2235.611,2,0.04,same
0,152,valid,"[(1194, 797)]",[],[1],[0.55],vertical,"(890.0, 762.0)",0.8666666666666667,0.514,1,2241.244,3,0.04,same
0,153,valid,"[(1195, 799)]",[],[1],[0.48333333333333334],vertical,"(390.0, 762.0)",0.6333333333333333,0.444,1,2247.129,3,0.04,same
0,154,valid,"[(1201, 782)]",[],[1],[0.48333333333333334],vertical,"(890.0, 262.0)",1.3166666666666667,0.446,1,2252.794,3,0.04,same
0,155,valid,"[(1193, 791)]",[],[1],[0.5333333333333333],vertical,"(390.0, 762.0)",1.5,0.499,1,2258.528,3,0.02,same
0,156,invalid_adjacent_other_bar,"[(1204, 807)]",[],[1],[0.85],vertical,"(390.0, 762.0)",0.6833333333333333,nan,0,2264.511,0,0.02,other
0,157,valid,"[(1185, 785)]",[],[1],[0.5333333333333333],vertical,"(390.0, 262.0)",1.2333333333333334,0.495,1,2269.203,1,0.02,same
0,158,valid,"[(1202, 790)]",[],[1],[0.4666666666666667],vertical,"(890.0, 262.0)",0.6833333333333333,0.431,1,2274.609,1,0.02,same
0,159,valid,"[(1191, 798)]",[],[1],[0.6],vertical,"(390.0, 762.0)",1.0833333333333333,0.559,1,2279.22,1,0.02,same
0,160,valid,"[(1186, 805)]",[],[1],[0.5],vertical,"(390.0, 762.0)",0.7166666666666667,0.458,1,2284.304,2,0.02,same
0,161,valid,"[(1210, 782)]",[],[1],[0.5333333333333333],horizontal,"(890.0, 262.0)",0.7333333333333333,0.488,1,2289.762,2,0.02,same
0,162,valid,"[(1198, 778)]",[],[1],[0.6166666666666667],horizontal,"(890.0, 262.0)",1.1666666666666667,0.572,1,2294.787,2,0.02,same
0,163,valid,"[(1185, 782)]",[],[1],[0.5666666666666667],vertical,"(890.0, 762.0)",1.0333333333333332,0.522,1,2300.31,3,0.02,same
0,164,valid,"[(1194, 781)]",[],[1],[0.5333333333333333],vertical,"(390.0, 262.0)",0.95,0.493,1,2306.911,3,0.02,same
0,165,valid,"[(1192, 786)]",[],[1],[0.5666666666666667],horizontal,"(890.0, 262.0)",0.8666666666666667,0.521,1,2312.538,3,0.02,same
0,166,valid,"[(1200, 795)]",[],[1],[0.5333333333333333],vertical,"(890.0, 262.0)",0.5,0.494,1,2318.322,3,0.02,same
0,167,valid,"[(1182, 796)]",[],[1],[0.5833333333333334],horizontal,"(390.0, 762.0)",0.45,0.537,1,2323.294,3,0.02,same
0,168,valid,"[(1190, 769)]",[],[1],[0.5166666666666666],vertical,"(390.0, 262.0)",0.43333333333333335,0.479,1,2328.583,3,0.02,same
0,169,catch,"[(1202, 791)]",[],[1],[],horizontal,"(890.0, 762.0)",,"('cti', 1.605),nan",0,2333.464,0,0.04,same
0,170,valid,"[(1168, 809)]",[],[1],[0.5166666666666666],vertical,"(890.0, 262.0)",0.9333333333333333,0.476,1,2338.294,1,0.04,same
0,171,catch,"[(1206, 773)]",[],[1],[],horizontal,"(890.0, 762.0)",1.7,nan,1,2343.593,1,0.04,same
0,172,valid,"[(1187, 786)]",[],[1],[0.5],vertical,"(390.0, 262.0)",1.1,0.458,1,2348.94,1,0.04,same
0,173,catch,"[(1205, 790)]",[],[1],[],vertical,"(390.0, 762.0)",,"('fix', 0.197),nan",0,2353.948,0,0.06,same
0,174,catch,"[(1178, 808)]",[],[1],[],vertical,"(890.0, 262.0)",1.7,nan,1,2355.678,1,0.06,same
0,175,valid,"[(1202, 786)]",[],[1],[0.5666666666666667],horizontal,"(390.0, 262.0)",1.2166666666666666,0.524,1,2361.012,1,0.06,same
0,176,valid,"[(1210, 791)]",[],[1],[0.55],vertical,"(390.0, 262.0)",0.5333333333333333,0.503,1,2365.995,1,0.06,same
0,177,invalid_adjacent_other_bar,"[(1205, 790)]",[],[1],[0.5333333333333333],vertical,"(390.0, 762.0)",0.8,0.489,1,2370.812,2,0.06,other
0,178,valid,"[(1190, 781)]",[],[1],[0.7666666666666666],horizontal,"(890.0, 262.0)",0.85,0.714,1,2376.195,2,0.06,same
0,179,catch,"[(1200, 792)]",[],[1],[],horizontal,"(390.0, 262.0)",1.7,nan,1,2381.328,2,0.06,same
0,180,catch,"[(1190, 793)]",[],[1],[],horizontal,"(390.0, 262.0)",1.7,nan,1,2386.675,3,0.06,same
0,181,invalid_same_bar,"[(1189, 790)]",[],[1],[0.85],horizontal,"(390.0, 262.0)",0.48333333333333334,nan,0,2392.912,0,0.06,same
0,182,catch,"[(1162, 787)]",[],[1],[],horizontal,"(390.0, 262.0)",1.7,nan,1,2396.898,1,0.06,same
0,183,catch,"[(1154, 819)]",[],[1],[],horizontal,"(390.0, 762.0)",1.7,nan,1,2402.246,1,0.06,same
0,184,invalid_same_bar,"[(1165, 822)]",[],[1],[0.85],horizontal,"(390.0, 262.0)",0.9,nan,0,2445.962,0,0.06,same
0,185,valid,"[(1164, 791)]",[],[1],[0.55],horizontal,"(390.0, 762.0)",1.4666666666666666,0.507,1,2450.631,1,0.06,same
0,186,valid,"[(1167, 781)]",[],[1],[0.5833333333333334],horizontal,"(890.0, 262.0)",0.6333333333333333,0.541,1,2455.911,1,0.06,same
0,187,valid,"[(1180, 785)]",[],[1],[0.4],vertical,"(390.0, 262.0)",1.5333333333333332,0.357,1,2460.543,1,0.06,same
0,188,catch,"[(1212, 798)]",[],[1],[],horizontal,"(390.0, 762.0)",,"('fix', 0.196),nan",0,2466.2,0,0.06,same
0,189,invalid_same_bar,"[(1155, 807)]",[],[1],[0.5833333333333334],horizontal,"(890.0, 262.0)",1.0,0.542,1,2468.013,1,0.06,same
0,190,valid,"[(1165, 802)]",[],[1],[0.5333333333333333],vertical,"(890.0, 762.0)",1.3333333333333333,0.493,1,2473.21,1,0.06,same
0,191,valid,"[(1200, 795)]",[],[1],[0.85],vertical,"(390.0, 262.0)",0.45,nan,0,2478.928,0,0.06,same
0,192,catch,"[(1165, 761)]",[],[1],[],horizontal,"(890.0, 262.0)",1.7,nan,1,2483.095,1,0.06,same
0,193,valid,"[(1214, 786)]",[],[1],[0.85],horizontal,"(390.0, 262.0)",0.48333333333333334,nan,0,2488.611,0,0.06,same
0,194,valid,"[(1165, 802)]",[],[1],[0.5833333333333334],vertical,"(390.0, 762.0)",1.0333333333333332,0.539,1,2492.91,1,0.06,same
0,195,valid,"[(1195, 777)]",[],[1],[0.5333333333333333],vertical,"(390.0, 762.0)",0.48333333333333334,0.491,1,2497.877,1,0.06,same
0,196,valid,"[(1191, 778)]",[],[1],[0.6833333333333333],horizontal,"(890.0, 762.0)",1.1166666666666667,0.639,1,2502.861,1,0.06,same
0,197,catch,"[(1170, 781)]",[],[1],[],horizontal,"(390.0, 262.0)",1.7,nan,1,2508.145,2,0.06,same
0,198,invalid_adjacent_other_bar,"[(1180, 783)]",[],[1],[0.85],horizontal,"(890.0, 262.0)",0.7,nan,0,2513.595,0,0.06,other
0,199,invalid_adjacent_other_bar,"[(1142, 816)]",[],[1],[0.6833333333333333],horizontal,"(890.0, 762.0)",0.5666666666666667,0.647,1,2518.361,1,0.06,other
0,200,catch,"[(1210, 781)]",[],[1],[],horizontal,"(390.0, 762.0)",,"('cti', 1.625),nan",0,2522.994,0,0.08,same
0,201,valid,"[(1175, 778)]",[],[1],[0.85],horizontal,"(890.0, 762.0)",0.35,nan,0,2528.029,0,0.08,same
0,202,catch,"[(1155, 786)]",[],[1],[],vertical,"(890.0, 262.0)",1.7,nan,1,2532.411,1,0.08,same
0,203,valid,"[(1168, 802)]",[],[1],[0.5166666666666666],vertical,"(890.0, 762.0)",0.3833333333333333,0.472,1,2537.707,1,0.08,same
0,204,catch,"[(1190, 770)]",[],[1],[],horizontal,"(390.0, 262.0)",,"('fix', 0.564),nan",0,2547.277,0,0.1,same
0,205,valid,"[(1155, 819)]",[],[1],[0.2833333333333333],horizontal,"(890.0, 262.0)",0.8166666666666667,0.253,1,2549.628,1,0.1,same
0,206,valid,"[(1086, 796)]",[],[1],[0.85],vertical,"(390.0, 262.0)",0.9333333333333333,nan,0,2555.167,0,0.1,same
0,207,valid,"[(1115, 836)]",[],[1],[0.85],horizontal,"(890.0, 262.0)",1.3,nan,0,4385.915,0,0.1,same
0,208,valid,"[(1092, 836)]",[],[1],[],vertical,"(390.0, 762.0)",,"('cti', 0.927)",0,4451.388,0,0.1,same
0,209,valid,"[(1104, 852)]",[],[1],[0.8],vertical,"(890.0, 762.0)",0.4166666666666667,0.768,1,4456.522,1,0.1,same
0,210,valid,"[(1114, 833)]",[],[1],[0.6333333333333333],horizontal,"(390.0, 762.0)",1.2,0.6,1,4475.337,1,0.1,same
0,211,invalid_same_bar,"[(1157, 805)]",[],[1],[0.85],horizontal,"(890.0, 262.0)",1.2333333333333334,nan,0,4481.205,0,0.1,same
0,212,invalid_adjacent_other_bar,"[(1139, 832)]",[],[1],[0.85],vertical,"(390.0, 762.0)",1.4,nan,0,4486.629,0,0.1,other
0,213,catch,"[(1096, 871)]",[],[1],[],vertical,"(890.0, 762.0)",1.7,nan,1,4718.768,1,0.1,same
0,214,valid,"[(1142, 813)]",[],[1],[0.15],vertical,"(890.0, 262.0)",1.1166666666666667,0.118,0,4759.578,0,0.1,same
0,215,valid,"[(1113, 822)]","[(1079, 842)]",[1],[0.13333333333333333],horizontal,"(890.0, 262.0)",,"('bar', 0.15)",0,4763.936,0,0.1,same
0,216,valid,"[(1101, 830)]",[],[1],[0.85],vertical,"(890.0, 262.0)",1.4166666666666667,nan,0,4766.834,0,0.1,same
0,217,valid,"[(1090, 833)]",[],[1],[0.85],vertical,"(390.0, 762.0)",0.7,nan,0,4869.903,0,0.1,same
0,218,catch,"[(1065, 821)]",[],[1],[],horizontal,"(390.0, 262.0)",1.7,nan,1,5182.72,1,0.1,same
0,219,catch,"[(1162, 831)]",[],[1],[],vertical,"(390.0, 762.0)",1.7,nan,1,5189.018,1,0.08,same
0,220,valid,"[(1157, 802)]",[],[1],[0.85],horizontal,"(890.0, 762.0)",0.4,nan,0,5194.187,0,0.08,same
0,221,catch,"[(1136, 798)]",[],[1],[],horizontal,"(390.0, 762.0)",1.7,nan,1,5198.137,1,0.08,same
0,222,valid,"[(1180, 815)]",[],[1],[0.5833333333333334],vertical,"(390.0, 262.0)",1.0666666666666667,0.539,1,5203.051,1,0.08,same
0,223,catch,"[(1187, 796)]",[],[1],[],vertical,"(390.0, 762.0)",,"('fix', 0.231),nan",0,5208.053,0,0.08,same
0,224,valid,"[(1163, 829)]",[],[1],[0.48333333333333334],horizontal,"(890.0, 762.0)",0.8666666666666667,0.444,1,5209.882,1,0.08,same
0,225,valid,"[(1165, 789)]",[],[1],[0.6],vertical,"(390.0, 762.0)",1.1666666666666667,0.561,1,5215.023,1,0.08,same
0,226,valid,"[(1190, 816)]",[],[1],[0.6166666666666667],vertical,"(890.0, 762.0)",0.5,0.571,1,5220.251,1,0.08,same
0,227,catch,"[(1195, 826)]",[],[1],[],horizontal,"(390.0, 762.0)",,"('fix', 0.214),nan",0,5224.702,0,0.1,same
0,228,valid,"[(1136, 855)]",[],[1],[0.6166666666666667],vertical,"(890.0, 762.0)",1.2166666666666666,0.572,1,5226.569,1,0.1,same
0,229,valid,"[(1185, 796)]",[],[1],[0.65],vertical,"(890.0, 262.0)",1.5333333333333332,0.605,1,5232.051,1,0.1,same
0,230,invalid_adjacent_other_bar,"[(1177, 824)]",[],[1],[0.85],horizontal,"(390.0, 262.0)",1.2,nan,0,5237.587,0,0.1,other
0,231,valid,"[(1091, 856)]",[],[1],[0.85],horizontal,"(390.0, 262.0)",1.45,nan,0,5242.902,0,0.1,same
0,232,valid,"[(1126, 819)]",[],[1],[0.6833333333333333],horizontal,"(390.0, 762.0)",0.8166666666666667,0.637,1,5250.173,1,0.1,same
0,233,valid,"[(1176, 819)]",[],[1],[0.85],horizontal,"(390.0, 762.0)",1.2666666666666666,nan,0,5255.406,0,0.1,same
0,234,valid,"[(1081, 869)]",[],[1],[0.85],vertical,"(390.0, 262.0)",1.3833333333333333,nan,0,5260.481,0,0.1,same
0,235,invalid_same_bar,"[(1103, 842)]",[],[1],[0.85],vertical,"(390.0, 262.0)",1.0666666666666667,nan,0,5269.565,0,0.1,same
0,236,valid,"[(1081, 796)]",[],[1],[0.7166666666666667],horizontal,"(390.0, 262.0)",1.2833333333333332,0.665,1,5280.02,1,0.1,same
0,237,valid,"[(1162, 830)]",[],[1],[0.85],vertical,"(390.0, 262.0)",0.6,nan,0,5287.907,0,0.1,same
0,238,valid,"[(1121, 802)]",[],[1],[0.85],vertical,"(890.0, 262.0)",0.4,nan,0,5292.192,0,0.08,same
0,239,valid,"[(1132, 822)]",[],[1],[0.6833333333333333],horizontal,"(890.0, 762.0)",1.3833333333333333,0.639,1,5296.568,1,0.08,same
0,240,invalid_adjacent_other_bar,"[(1160, 822)]",[],[1],[0.85],vertical,"(390.0, 762.0)",1.15,nan,0,5302.902,0,0.08,other
0,241,catch,"[(1079, 843)]",[],[1],[],horizontal,"(890.0, 762.0)",1.7,nan,1,5308.028,1,0.08,same
0,242,invalid_adjacent_other_bar,"[(1175, 819)]",[],[1],[0.6333333333333333],horizontal,"(390.0, 262.0)",0.9166666666666666,0.582,1,5315.521,1,0.08,other
0,243,valid,"[(1174, 822)]",[],[1],[0.85],horizontal,"(390.0, 762.0)",0.9,nan,0,5320.757,0,0.08,same
0,244,valid,"[(1107, 842)]",[],[1],[0.85],horizontal,"(890.0, 762.0)",1.5166666666666666,nan,0,5325.509,0,0.08,same
0,245,catch,"[(1117, 799)]",[],[1],[],vertical,"(890.0, 762.0)",1.7,nan,1,5332.672,1,0.08,same
0,246,invalid_adjacent_other_bar,"[(1175, 834)]",[],[1],[0.7],vertical,"(390.0, 762.0)",0.5666666666666667,0.653,1,5338.336,1,0.08,other
0,247,valid,"[(1164, 782)]",[],[1],[0.85],horizontal,"(390.0, 762.0)",0.8666666666666667,nan,0,5343.402,0,0.08,same
0,248,valid,"[(1091, 846)]",[],[1],[0.85],horizontal,"(390.0, 262.0)",0.5833333333333334,nan,0,5348.247,0,0.08,same
0,249,valid,"[(1132, 800)]",[],[1],[0.65],vertical,"(390.0, 762.0)",0.5833333333333334,0.606,1,5355.138,1,0.08,same
0,250,catch,"[(1161, 770)]",[],[1],[],vertical,"(390.0, 762.0)",1.7,nan,1,5360.121,1,0.06,same
0,251,invalid_same_bar,"[(1185, 803)]",[],[1],[0.8166666666666667],horizontal,"(890.0, 262.0)",1.2666666666666666,0.764,1,5365.67,1,0.06,same
0,252,catch,"[(1170, 809)]",[],[1],[],vertical,"(390.0, 262.0)",1.7,nan,1,5371.504,2,0.06,same
0,253,catch,"[(1161, 794)]",[],[1],[],vertical,"(890.0, 262.0)",1.7,nan,1,5377.196,2,0.06,same
0,254,valid,"[(1172, 791)]",[],[1],[0.5833333333333334],vertical,"(390.0, 262.0)",0.4166666666666667,0.542,1,5382.538,2,0.04,same
0,255,valid,"[(1176, 766)]",[],[1],[0.6833333333333333],horizontal,"(890.0, 762.0)",1.0166666666666666,0.643,1,5387.509,3,0.04,same
0,256,valid,"[(1164, 825)]",[],[1],[0.7666666666666666],horizontal,"(390.0, 762.0)",1.3333333333333333,0.725,1,5393.619,3,0.04,same
0,257,valid,"[(1196, 802)]",[],[1],[0.85],vertical,"(390.0, 262.0)",1.3,nan,0,5400.168,0,0.04,same
0,258,catch,"[(1070, 849)]",[],[1],[],horizontal,"(390.0, 262.0)",1.7,nan,1,5405.699,1,0.04,same
0,259,catch,"[(1109, 782)]",[],[1],[],vertical,"(390.0, 262.0)",1.7,nan,1,5413.921,1,0.04,same
0,260,valid,"[(1111, 820)]",[],[1],[0.85],horizontal,"(390.0, 762.0)",0.6833333333333333,nan,0,5419.153,0,0.04,same
0,261,valid,"[(1129, 796)]",[],[1],[0.75],horizontal,"(890.0, 762.0)",1.0666666666666667,0.698,1,5425.195,1,0.04,same
0,262,catch,"[(1132, 807)]",[],[1],[],horizontal,"(890.0, 762.0)",1.7,nan,1,5430.437,1,0.04,same
0,263,catch,"[(1100, 841)]",[],[1],[],vertical,"(390.0, 762.0)",1.7,nan,1,5435.745,1,0.04,same
0,264,valid,"[(1160, 806)]",[],[1],[0.85],horizontal,"(890.0, 762.0)",0.4166666666666667,nan,0,5441.903,0,0.04,same
0,265,valid,"[(1121, 806)]",[],[1],[0.6833333333333333],vertical,"(390.0, 762.0)",1.2833333333333332,0.641,1,5446.637,1,0.04,same
0,266,valid,"[(1162, 795)]",[],[1],[0.6166666666666667],vertical,"(890.0, 262.0)",1.3166666666666667,0.568,1,5452.303,1,0.04,same
0,267,valid,"[(1159, 786)]",[],[1],[0.85],horizontal,"(890.0, 262.0)",0.75,nan,0,5457.853,0,0.04,same
0,268,valid,"[(1140, 838)]",[],[1],[0.8333333333333334],vertical,"(890.0, 762.0)",0.36666666666666664,0.787,1,5462.47,1,0.04,same
0,269,valid,"[(1205, 792)]",[],[1],[0.6833333333333333],horizontal,"(890.0, 762.0)",1.4,0.64,1,5467.886,1,0.04,same
0,270,valid,"[(1175, 782)]",[],[1],[0.5666666666666667],horizontal,"(890.0, 262.0)",0.5,0.529,1,5473.153,1,0.04,same
0,271,valid,"[(1178, 782)]",[],[1],[0.85],vertical,"(390.0, 262.0)",0.9,nan,0,5477.986,0,0.04,same
0,272,valid,"[(1136, 797)]",[],[1],[0.85],vertical,"(890.0, 262.0)",0.4666666666666667,nan,0,5482.838,0,0.04,same
0,273,valid,"[(1126, 817)]",[],[1],[0.85],vertical,"(390.0, 262.0)",0.85,nan,0,5487.425,0,0.02,same
0,274,catch,"[(1131, 798)]",[],[1],[],vertical,"(390.0, 262.0)",1.7,nan,1,5491.835,1,0.02,same
0,275,valid,"[(1145, 812)]",[],[1],[0.5833333333333334],vertical,"(390.0, 262.0)",0.8333333333333334,0.546,1,5496.902,1,0.02,same
0,276,catch,"[(1206, 788)]",[],[1],[],horizontal,"(390.0, 262.0)",1.7,nan,1,5502.235,1,0.02,same
0,277,catch,"[(1200, 794)]",[],[1],[],vertical,"(390.0, 762.0)",1.7,nan,1,5507.317,2,0.0,same
0,278,valid,"[(1192, 777)]",[],[1],[0.6],horizontal,"(890.0, 262.0)",0.6166666666666667,0.556,1,5512.836,2,0.0,same
0,279,valid,"[(1195, 788)]",[],[1],[0.6],vertical,"(390.0, 262.0)",1.2,0.566,1,5518.121,2,0.0,same
0,280,invalid_same_bar,"[(1196, 786)]",[],[1],[0.5666666666666667],horizontal,"(890.0, 262.0)",0.8,0.535,1,5523.405,3,0.0,same
0,281,valid,"[(1197, 807)]",[],[1],[0.7333333333333333],horizontal,"(390.0, 262.0)",1.1333333333333333,0.695,1,5529.389,3,0.0,same
0,282,catch,"[(1205, 789)]",[],[1],[],horizontal,"(890.0, 762.0)",1.7,nan,1,5535.584,3,0.0,same
0,283,valid,"[(1201, 801)]",[],[1],[0.55],horizontal,"(390.0, 762.0)",0.8833333333333333,0.511,1,5541.431,3,0.0,same
0,284,catch,"[(1180, 787)]",[],[1],[],vertical,"(890.0, 762.0)",1.7,nan,1,5547.13,3,0.0,same
0,285,valid,"[(1189, 787)]",[],[1],[0.85],vertical,"(390.0, 262.0)",1.4666666666666666,nan,0,5553.037,0,0.0,same
0,286,valid,"[(1137, 793)]",[],[1],[0.55],horizontal,"(890.0, 262.0)",0.8333333333333334,0.508,1,5558.25,1,0.0,same
0,287,catch,"[(1183, 776)]",[],[1],[],horizontal,"(890.0, 762.0)",1.7,nan,1,5563.386,1,0.0,same
0,288,valid,"[(1183, 780)]",[],[1],[0.6666666666666666],vertical,"(390.0, 262.0)",1.2666666666666666,0.622,1,5568.544,1,0.0,same
0,289,valid,"[(1206, 762)]",[],[1],[0.8],vertical,"(390.0, 762.0)",0.9666666666666667,0.755,1,5574.096,2,0.0,same
0,290,valid,"[(1183, 790)]",[],[1],[0.85],horizontal,"(890.0, 262.0)",1.2666666666666666,nan,0,5580.018,0,0.0,same
0,291,valid,"[(1141, 786)]",[],[1],[0.5],horizontal,"(390.0, 262.0)",0.9333333333333333,0.461,1,5585.067,1,0.0,same
0,292,catch,"[(1168, 811)]",[],[1],[],vertical,"(390.0, 262.0)",1.7,nan,1,5590.263,1,0.0,same
0,293,valid,"[(1165, 796)]",[],[1],[0.7833333333333333],horizontal,"(390.0, 762.0)",0.48333333333333334,0.74,1,5595.937,1,0.0,same
0,294,valid,"[(1183, 802)]",[],[1],[0.6166666666666667],vertical,"(390.0, 262.0)",0.6,0.575,1,5600.772,2,0.0,same
0,295,valid,"[(1185, 792)]",[],[1],[0.7833333333333333],vertical,"(390.0, 262.0)",0.9833333333333333,0.741,1,5605.802,2,0.0,same
0,296,invalid_same_bar,"[(1190, 788)]",[],[1],[0.5666666666666667],horizontal,"(890.0, 762.0)",1.3166666666666667,0.526,1,5611.431,2,0.0,same
0,297,valid,"[(1197, 778)]",[],[1],[0.55],horizontal,"(890.0, 262.0)",1.1,0.511,1,5617.47,3,0.0,same
0,298,valid,"[(1183, 768)]",[],[1],[0.6],horizontal,"(890.0, 762.0)",0.8166666666666667,0.561,1,5623.697,3,0.0,same
0,299,valid,"[(1189, 769)]",[],[1],[0.5833333333333334],horizontal,"(890.0, 762.0)",0.7,0.545,1,5629.422,3,0.0,same
0,300,valid,"[(1185, 787)]",[],[1],[0.55],vertical,"(390.0, 762.0)",1.0,0.514,1,5635.06,3,0.0,same
0,301,catch,"[(1178, 786)]",[],[1],[],horizontal,"(890.0, 262.0)",1.7,nan,1,5640.902,3,0.0,same
0,302,valid,"[(1162, 753), (1121, 811)]",[],"[0, 1]",[0.5333333333333333],vertical,"(890.0, 762.0)",1.5333333333333332,0.493,1,5646.772,3,0.0,same
0,303,invalid_adjacent_other_bar,"[(1191, 785)]",[],[1],[0.5666666666666667],vertical,"(890.0, 262.0)",0.85,0.527,1,5654.288,3,0.0,other
0,304,valid,"[(1203, 800)]",[],[1],[0.5333333333333333],horizontal,"(390.0, 762.0)",1.4666666666666666,0.494,1,5660.087,3,0.0,same
0,305,valid,"[(1207, 782)]",[],[1],[0.7666666666666666],vertical,"(890.0, 262.0)",0.4166666666666667,0.722,1,5666.559,3,0.0,same
0,306,catch,"[(1183, 783)]",[],[1],[],horizontal,"(390.0, 762.0)",1.7,nan,1,5672.038,3,0.0,same
0,307,valid,"[(1166, 765)]",[],[1],[0.6166666666666667],vertical,"(890.0, 762.0)",0.35,0.573,1,5678.024,3,0.0,same
0,308,valid,"[(1190, 778)]",[],[1],[0.5333333333333333],vertical,"(390.0, 262.0)",1.4,0.494,1,5683.392,3,0.0,same
0,309,catch,"[(1176, 773)]",[],[1],[],vertical,"(390.0, 262.0)",1.7,nan,1,5690.054,3,0.0,same
0,310,catch,"[(1188, 783)]",[],[1],[],vertical,"(390.0, 762.0)",1.7,nan,1,5695.974,3,0.0,same
0,311,valid,"[(1185, 782)]",[],[1],[0.6333333333333333],horizontal,"(390.0, 762.0)",1.05,0.596,1,5702.487,3,0.0,same
0,312,valid,"[(1192, 772)]",[],[1],[0.55],vertical,"(890.0, 762.0)",1.3333333333333333,0.511,1,5708.788,3,0.0,same
0,313,valid,"[(1200, 791)]",[],[1],[0.55],vertical,"(890.0, 762.0)",1.5166666666666666,0.513,1,5714.782,3,0.0,same
0,314,valid,"[(1185, 786)]",[],[1],[0.5666666666666667],horizontal,"(890.0, 262.0)",1.2166666666666666,0.528,1,5720.871,3,0.0,same
0,315,valid,"[(1180, 766)]",[],[1],[0.6166666666666667],vertical,"(890.0, 262.0)",1.1333333333333333,0.574,1,5727.267,3,0.0,same
0,316,valid,"[(1185, 776)]",[],[1],[0.85],horizontal,"(890.0, 262.0)",0.9166666666666666,nan,0,5733.386,0,0.0,same
0,317,valid,"[(1160, 798)]",[],[1],[0.5],horizontal,"(390.0, 262.0)",0.8666666666666667,0.462,1,5737.821,1,0.0,same
0,318,catch,"[(1179, 755)]",[],[1],[],horizontal,"(390.0, 762.0)",1.7,nan,1,5742.615,1,0.0,same
0,319,valid,"[(1185, 762)]",[],[1],[],vertical,"(390.0, 762.0)",,"('cti', 0.548)",0,5747.383,0,0.0,same
0,320,catch,"[(1160, 783)]",[],[1],[],vertical,"(390.0, 262.0)",1.7,nan,1,5751.344,1,0.0,same
0,321,catch,"[(1182, 769)]",[],[1],[],vertical,"(890.0, 262.0)",1.7,nan,1,5757.037,1,0.0,same
0,322,valid,"[(1190, 772)]",[],[1],[0.8],vertical,"(390.0, 762.0)",1.3333333333333333,0.76,1,5762.205,1,0.0,same
0,323,catch,"[(1164, 775)]",[],[1],[],horizontal,"(890.0, 762.0)",1.7,nan,1,5768.089,2,0.0,same
0,324,valid,"[(1180, 786)]",[],[1],[0.6],vertical,"(890.0, 262.0)",1.4666666666666666,0.56,1,5773.655,2,0.0,same
0,325,invalid_same_bar,"[(1189, 786)]",[],[1],[0.5333333333333333],horizontal,"(890.0, 262.0)",0.5833333333333334,0.501,1,5779.405,2,0.0,same
0,326,valid,"[(1185, 774)]",[],[1],[0.7333333333333333],vertical,"(890.0, 262.0)",1.0166666666666666,0.695,1,5784.833,3,0.0,same
0,327,valid,"[(1190, 788)]",[],[1],[0.5166666666666666],horizontal,"(890.0, 262.0)",0.4666666666666667,0.484,1,5791.328,3,0.0,same
0,328,catch,"[(1204, 768)]",[],[1],[],horizontal,"(390.0, 762.0)",1.7,nan,1,5796.853,3,0.0,same
0,329,invalid_same_bar,"[(1185, 769)]",[],[1],[0.5666666666666667],horizontal,"(890.0, 262.0)",1.0666666666666667,0.527,1,5803.058,3,0.0,same
0,330,catch,"[(1183, 773)]",[],[1],[],vertical,"(890.0, 762.0)",1.7,nan,1,5809.469,3,0.0,same
0,331,catch,"[(1196, 765)]",[],[1],[],vertical,"(890.0, 762.0)",1.7,nan,1,5815.672,3,0.0,same
0,332,valid,"[(1190, 782)]",[],[1],[0.6],horizontal,"(390.0, 262.0)",0.6833333333333333,0.558,1,5821.553,3,0.0,same
0,333,valid,"[(1185, 762)]",[],[1],[0.5],vertical,"(890.0, 262.0)",0.5166666666666666,0.469,1,5826.989,3,0.0,same
0,334,invalid_same_bar,"[(1202, 789)]",[],[1],[],horizontal,"(390.0, 262.0)",,"('fix', 0.196)",0,5832.182,0,0.0,same
0,335,valid,"[(1122, 802)]",[],[1],[0.5666666666666667],vertical,"(890.0, 762.0)",1.4666666666666666,0.536,1,5834.089,1,0.0,same
0,336,valid,"[(1180, 773)]",[],[1],[0.85],vertical,"(390.0, 762.0)",0.35,nan,0,5839.938,0,0.0,same
0,337,valid,"[(1126, 802)]",[],[1],[0.6333333333333333],horizontal,"(890.0, 262.0)",1.3,0.594,1,5844.521,1,0.0,same
0,338,valid,"[(1175, 770)]",[],[1],[0.5166666666666666],vertical,"(890.0, 262.0)",0.6666666666666666,0.485,1,5849.712,1,0.0,same
0,339,invalid_adjacent_other_bar,"[(1186, 770)]",[],[1],[0.55],vertical,"(890.0, 262.0)",0.6333333333333333,0.519,1,5854.488,1,0.0,other
0,340,invalid_adjacent_other_bar,"[(1186, 767)]",[],[1],[0.65],horizontal,"(390.0, 262.0)",0.55,0.61,1,5859.531,2,0.0,other
0,341,catch,"[(1187, 780)]",[],[1],[],horizontal,"(890.0, 762.0)",1.7,nan,1,5864.637,2,0.0,same
0,342,valid,"[(1190, 756)]",[],[1],[0.5833333333333334],horizontal,"(390.0, 262.0)",1.2,0.549,1,5870.155,2,0.0,same
0,343,valid,"[(1183, 773)]",[],[1],[0.55],vertical,"(890.0, 762.0)",0.95,0.51,1,5875.817,3,0.0,same
0,344,valid,"[(1190, 787)]",[],[1],[0.75],horizontal,"(390.0, 262.0)",1.4,0.711,1,5881.746,3,0.0,same
0,345,valid,"[(1185, 786)]",[],[1],[0.85],vertical,"(390.0, 762.0)",0.4666666666666667,nan,0,5888.455,0,0.0,same
0,346,valid,"[(1116, 786)]",[],[1],[0.6333333333333333],vertical,"(390.0, 762.0)",1.3833333333333333,0.599,1,5893.089,1,0.0,same
0,347,valid,"[(1186, 748), (1135, 823)]",[],"[0, 1]",[0.6166666666666667],horizontal,"(390.0, 762.0)",1.45,0.574,1,5898.536,1,0.0,same
0,348,valid,"[(1185, 758)]",[],[1],[0.6166666666666667],horizontal,"(390.0, 762.0)",0.65,0.581,1,5905.114,1,0.0,same
0,349,valid,"[(1186, 787)]",[],[1],[0.85],vertical,"(390.0, 762.0)",1.0333333333333332,nan,0,5909.796,0,0.0,same
0,350,valid,"[(1166, 796)]",[],[1],[0.7666666666666666],horizontal,"(890.0, 262.0)",0.7833333333333333,0.725,1,5915.071,1,0.0,same
0,351,catch,"[(1192, 763)]",[],[1],[],vertical,"(890.0, 262.0)",1.7,nan,1,5920.31,1,0.0,same
0,352,valid,"[(1195, 791)]",[],[1],[0.6833333333333333],vertical,"(890.0, 762.0)",1.3,0.644,1,5925.242,1,0.0,same
0,353,catch,"[(1194, 777)]",[],[1],[],horizontal,"(390.0, 762.0)",1.7,nan,1,5930.529,2,0.0,same
0,354,valid,"[(1190, 770)]",[],[1],[0.65],horizontal,"(890.0, 762.0)",0.7166666666666667,0.61,1,5936.659,2,0.0,same
0,355,catch,"[(1185, 767)]",[],[1],[],vertical,"(890.0, 762.0)",1.7,nan,1,5941.701,2,0.0,same
0,356,valid,"[(1185, 804)]",[],[1],[0.5],vertical,"(390.0, 262.0)",0.85,0.464,1,5947.123,3,0.0,same
0,357,catch,"[(1163, 773)]",[],[1],[],horizontal,"(390.0, 262.0)",1.7,nan,1,5953.282,3,0.0,same
0,358,valid,"[(1183, 771)]",[],[1],[0.5166666666666666],horizontal,"(890.0, 262.0)",0.3833333333333333,0.478,1,5958.915,3,0.0,same
0,359,valid,"[(1195, 779)]",[],[1],[0.65],vertical,"(390.0, 762.0)",0.43333333333333335,0.615,1,5964.496,3,0.0,same
0,360,valid,"[(1188, 790)]",[],[1],[0.7666666666666666],vertical,"(390.0, 262.0)",1.4333333333333333,0.722,1,5969.813,3,0.0,same
0,361,invalid_same_bar,"[(1180, 777)]",[],[1],[0.6],horizontal,"(390.0, 262.0)",0.5166666666666666,0.558,1,5976.588,3,0.0,same
0,362,valid,"[(1185, 779)]",[],[1],[0.6666666666666666],vertical,"(390.0, 762.0)",0.7333333333333333,0.623,1,5981.644,3,0.0,same
0,363,valid,"[(1158, 758)]",[],[1],[0.5666666666666667],vertical,"(890.0, 262.0)",0.7666666666666666,0.528,1,5987.685,3,0.0,same
0,364,valid,"[(1139, 786)]",[],[1],[0.85],horizontal,"(390.0, 262.0)",0.7333333333333333,nan,0,5992.962,0,0.0,same
0,365,valid,"[(1140, 786)]",[],[1],[0.6666666666666666],vertical,"(890.0, 762.0)",0.6,0.631,1,5997.607,1,0.0,same
0,366,valid,"[(1197, 777)]",[],[1],[0.85],vertical,"(890.0, 762.0)",1.1166666666666667,nan,0,6002.622,0,0.0,same
0,367,valid,"[(1139, 780)]",[],[1],[0.65],vertical,"(890.0, 262.0)",0.4166666666666667,0.608,1,6007.655,1,0.0,same
0,368,valid,"[(1190, 776)]",[],[1],[0.55],vertical,"(890.0, 762.0)",1.4,0.505,1,6012.12,1,0.0,same
0,369,catch,"[(1186, 771)]",[],[1],[],vertical,"(890.0, 262.0)",1.7,nan,1,6017.106,1,0.0,same
0,370,valid,"[(1165, 789)]",[],[1],[0.55],horizontal,"(390.0, 262.0)",0.8666666666666667,0.51,1,6022.199,2,0.0,same
0,371,valid,"[(1183, 791)]",[],[1],[0.85],horizontal,"(390.0, 262.0)",1.1,nan,0,6027.436,0,0.0,same
0,372,valid,"[(1145, 784)]",[],[1],[0.5833333333333334],horizontal,"(390.0, 762.0)",0.35,0.539,1,6032.172,1,0.0,same
0,373,valid,"[(1169, 773)]",[],[1],[0.65],vertical,"(390.0, 762.0)",0.6,0.607,1,6036.54,1,0.0,same
0,374,catch,"[(1180, 776)]",[],[1],[],vertical,"(890.0, 762.0)",1.7,nan,1,6041.171,1,0.0,same
0,375,valid,"[(1190, 778)]",[],[1],[0.5333333333333333],horizontal,"(390.0, 262.0)",0.95,0.491,1,6046.023,2,0.0,same
0,376,valid,"[(1173, 778)]",[],[1],[0.5333333333333333],horizontal,"(390.0, 262.0)",0.85,0.499,1,6051.215,2,0.0,same
0,377,catch,"[(1171, 769)]",[],[1],[],horizontal,"(890.0, 262.0)",1.7,nan,1,6056.454,2,0.0,same
0,378,catch,"[(1186, 773)]",[],[1],[],horizontal,"(890.0, 262.0)",1.7,nan,1,6062.272,3,0.0,same
0,379,valid,"[(1205, 791)]",[],[1],[0.6],vertical,"(890.0, 262.0)",0.7666666666666666,0.566,1,6068.106,3,0.0,same
0,380,valid,"[(1197, 773)]",[],[1],[0.48333333333333334],horizontal,"(890.0, 262.0)",1.3833333333333333,0.45,1,6073.69,3,0.0,same
0,381,valid,"[(1165, 786)]",[],[1],[0.55],vertical,"(390.0, 262.0)",0.85,0.519,1,6080.114,3,0.0,same
0,382,valid,"[(1180, 775)]",[],[1],[0.5833333333333334],horizontal,"(890.0, 762.0)",1.25,0.542,1,6086.156,3,0.0,same
0,383,invalid_adjacent_other_bar,"[(1195, 787)]",[],[1],[0.6666666666666666],horizontal,"(390.0, 262.0)",0.75,0.63,1,6092.04,3,0.0,other
0,384,catch,"[(1171, 767)]",[],[1],[],vertical,"(890.0, 762.0)",1.7,nan,1,6097.771,3,0.0,same
0,385,valid,"[(1174, 791)]",[],[1],[0.6],vertical,"(890.0, 262.0)",1.2166666666666666,0.564,1,6104.0,3,0.0,same
0,386,valid,"[(1180, 776)]",[],[1],[0.6666666666666666],vertical,"(390.0, 262.0)",0.75,0.624,1,6110.339,3,0.0,same
0,387,valid,"[(1190, 776)]",[],[1],[0.5666666666666667],vertical,"(890.0, 262.0)",0.45,0.525,1,6116.218,3,0.0,same
0,388,invalid_adjacent_other_bar,"[(1188, 771)]",[],[1],[0.85],vertical,"(390.0, 762.0)",0.8666666666666667,nan,0,6121.556,0,0.0,other
0,389,valid,"[(1145, 787)]",[],[1],[0.6666666666666666],vertical,"(890.0, 262.0)",0.5833333333333334,0.625,1,6126.156,1,0.0,same
0,390,invalid_same_bar,"[(1190, 796)]",[],[1],[0.85],horizontal,"(390.0, 762.0)",1.1,nan,0,6130.759,0,0.0,same
0,391,valid,"[(1142, 774)]",[],[1],[0.4666666666666667],vertical,"(390.0, 762.0)",1.4166666666666667,0.433,1,6135.56,1,0.0,same
0,392,valid,"[(1179, 768)]",[],[1],[0.65],vertical,"(390.0, 262.0)",0.8,0.611,1,6141.078,1,0.0,same
0,393,valid,"[(1185, 793)]",[],[1],[0.7166666666666667],horizontal,"(390.0, 262.0)",0.8,0.676,1,6146.189,1,0.0,same
0,394,valid,"[(1196, 769)]",[],[1],[0.55],horizontal,"(890.0, 762.0)",0.6666666666666666,0.514,1,6151.49,2,0.0,same
0,395,invalid_adjacent_other_bar,"[(1175, 782)]",[],[1],[0.5166666666666666],horizontal,"(390.0, 762.0)",0.5166666666666666,0.479,1,6156.64,2,0.0,other
0,396,catch,"[(1192, 775)]",[],[1],[],vertical,"(890.0, 262.0)",1.7,nan,1,6161.989,2,0.0,same
0,397,valid,"[(1183, 808)]",[],[1],[0.85],horizontal,"(390.0, 262.0)",1.1666666666666667,nan,0,6167.867,0,0.0,same
0,398,valid,"[(1160, 798)]",[],[1],[0.5833333333333334],horizontal,"(390.0, 262.0)",1.3,0.544,1,6172.775,1,0.0,same
0,399,catch,"[(1185, 775)]",[],[1],[],vertical,"(890.0, 262.0)",1.7,nan,1,6177.886,1,0.0,same
0,400,valid,"[(1165, 764)]",[],[1],[0.5833333333333334],horizontal,"(890.0, 262.0)",0.9166666666666666,0.551,1,6182.756,1,0.0,same
0,401,catch,"[(1170, 766)]",[],[1],[],horizontal,"(390.0, 262.0)",,"('cti', 1.499),nan",0,6187.864,0,0.02,same
0,402,valid,"[(1135, 796)]",[],[1],[0.5833333333333334],vertical,"(890.0, 762.0)",0.4,0.541,1,6192.606,1,0.02,same
0,403,valid,"[(1177, 767)]",[],[1],[0.5666666666666667],vertical,"(390.0, 262.0)",1.4833333333333334,0.529,1,6197.182,1,0.02,same
0,404,invalid_adjacent_other_bar,"[(1190, 778)]",[],[1],[0.5333333333333333],horizontal,"(890.0, 762.0)",0.8666666666666667,0.493,1,6202.264,1,0.02,other
0,405,valid,"[(1170, 781)]",[],[1],[0.7333333333333333],vertical,"(390.0, 762.0)",0.35,0.687,1,6207.155,2,0.02,same
0,406,valid,"[(1192, 790)]",[],[1],[0.7333333333333333],vertical,"(390.0, 262.0)",0.7,0.689,1,6212.409,2,0.02,same
0,407,valid,"[(1192, 777)]",[],[1],[0.6],horizontal,"(390.0, 762.0)",0.7,0.559,1,6217.986,2,0.02,same
0,408,catch,"[(1188, 779)]",[],[1],[],horizontal,"(390.0, 262.0)",1.7,nan,1,6223.471,3,0.02,same
0,409,catch,"[(1180, 769)]",[],[1],[],vertical,"(390.0, 762.0)",1.7,nan,1,6229.524,3,0.02,same
0,410,valid,"[(1174, 772)]",[],[1],[0.7666666666666666],vertical,"(390.0, 262.0)",0.8,0.725,1,6235.389,3,0.02,same
0,411,invalid_same_bar,"[(1188, 778)]",[],[1],[0.3833333333333333],vertical,"(390.0, 762.0)",1.4333333333333333,0.35,1,6241.223,3,0.02,same
0,412,valid,"[(1188, 778)]",[],[1],[0.6333333333333333],vertical,"(390.0, 762.0)",0.36666666666666664,0.593,1,6247.623,3,0.02,same
0,413,valid,"[(1169, 772)]",[],[1],[0.6],horizontal,"(390.0, 762.0)",0.4,0.559,1,6253.206,3,0.02,same
0,414,valid,"[(1185, 763)]",[],[1],[0.85],horizontal,"(390.0, 762.0)",0.48333333333333334,nan,0,6258.096,0,0.02,same
0,415,valid,"[(1141, 803)]",[],[1],[0.6666666666666666],vertical,"(390.0, 262.0)",1.1166666666666667,0.622,1,6262.39,1,0.02,same
0,416,valid,"[(1186, 767)]",[],[1],[0.5666666666666667],vertical,"(390.0, 762.0)",0.35,0.525,1,6267.804,1,0.02,same
0,417,valid,"[(1171, 776)]",[],[1],[0.55],vertical,"(890.0, 762.0)",0.5333333333333333,0.51,1,6272.307,1,0.02,same
0,418,catch,"[(1180, 780)]",[],[1],[],horizontal,"(890.0, 262.0)",1.7,nan,1,6276.474,2,0.02,same
0,419,valid,"[(1185, 791)]",[],[1],[0.6333333333333333],horizontal,"(390.0, 262.0)",1.45,0.589,1,6282.234,2,0.02,same
0,420,valid,"[(1170, 782)]",[],[1],[0.6166666666666667],vertical,"(890.0, 762.0)",1.4333333333333333,0.576,1,6287.965,2,0.02,same
0,421,valid,"[(1171, 775)]",[],[1],[0.85],vertical,"(390.0, 762.0)",0.65,nan,0,6294.192,0,0.02,same
0,422,valid,"[(1178, 765)]",[],[1],[0.5166666666666666],vertical,"(390.0, 762.0)",0.9666666666666667,0.475,1,6298.699,1,0.02,same
0,423,valid,"[(1180, 766)]",[],[1],[0.5666666666666667],vertical,"(890.0, 262.0)",1.4833333333333334,0.528,1,6303.769,1,0.02,same
0,424,catch,"[(1170, 771)]",[],[1],[],vertical,"(890.0, 762.0)",1.7,nan,1,6309.056,1,0.02,same
0,425,valid,"[(1172, 789)]",[],[1],[0.6],horizontal,"(390.0, 262.0)",0.43333333333333335,0.561,1,6313.95,2,0.02,same
0,426,valid,"[(1182, 792)]",[],[1],[0.5166666666666666],vertical,"(890.0, 262.0)",1.3166666666666667,0.48,1,6318.789,2,0.02,same
0,427,invalid_same_bar,"[(1186, 779)]",[],[1],[0.55],vertical,"(390.0, 262.0)",0.8333333333333334,0.511,1,6324.158,2,0.02,same
0,428,invalid_same_bar,"[(1178, 774)]",[],[1],[0.6166666666666667],vertical,"(890.0, 262.0)",0.3833333333333333,0.577,1,6329.456,3,0.02,same
0,429,catch,"[(1170, 784)]",[],[1],[],horizontal,"(390.0, 262.0)",1.7,nan,1,6335.158,3,0.02,same
0,430,valid,"[(1173, 757)]",[],[1],[0.55],vertical,"(890.0, 262.0)",0.7833333333333333,0.505,1,6341.29,3,0.02,same
0,431,valid,"[(1188, 771)]",[],[1],[0.6],horizontal,"(390.0, 762.0)",1.0,0.557,1,6346.874,3,0.02,same
0,432,valid,"[(1192, 752), (1087, 816)]",[],"[0, 1]",[0.65],horizontal,"(890.0, 262.0)",0.36666666666666664,0.603,1,6353.106,3,0.02,same
0,433,valid,"[(1167, 761)]",[],[1],[0.7],vertical,"(390.0, 262.0)",0.6833333333333333,0.65,1,6359.811,3,0.02,same
0,434,valid,"[(1190, 791)]",[],[1],[0.48333333333333334],horizontal,"(890.0, 262.0)",0.36666666666666664,0.448,1,6365.366,3,0.02,same
0,435,valid,"[(1191, 772)]",[],[1],[0.5666666666666667],horizontal,"(390.0, 262.0)",0.85,0.521,1,6370.569,3,0.02,same
0,436,valid,"[(1165, 799)]",[],[1],[0.55],horizontal,"(890.0, 762.0)",0.9333333333333333,0.505,1,6376.164,3,0.02,same
0,437,valid,"[(1188, 795)]",[],[1],[0.6],vertical,"(890.0, 262.0)",0.9333333333333333,0.553,1,6381.917,3,0.02,same
0,438,catch,"[(1185, 763)]",[],[1],[],horizontal,"(390.0, 762.0)",1.7,nan,1,6387.724,3,0.02,same
0,439,catch,"[(1171, 771)]",[],[1],[],vertical,"(890.0, 762.0)",1.7,nan,1,6393.457,3,0.02,same
0,440,valid,"[(1170, 776)]",[],[1],[0.5666666666666667],vertical,"(390.0, 262.0)",1.4166666666666667,0.528,1,6399.439,3,0.02,same
0,441,catch,"[(1170, 776)]",[],[1],[],vertical,"(390.0, 762.0)",1.7,nan,1,6405.878,3,0.02,same
0,442,catch,"[(1175, 770)]",[],[1],[],horizontal,"(390.0, 262.0)",1.7,nan,1,6411.899,3,0.02,same
0,443,catch,"[(1197, 791)]",[],[1],[],vertical,"(390.0, 262.0)",1.7,nan,1,6418.173,3,0.02,same
0,444,valid,"[(1190, 782)]",[],[1],[0.5666666666666667],horizontal,"(890.0, 262.0)",1.3666666666666667,0.519,1,6424.074,3,0.02,same
0,445,invalid_adjacent_other_bar,"[(1187, 795)]",[],[1],[0.5333333333333333],vertical,"(890.0, 262.0)",1.0833333333333333,0.489,1,6430.324,3,0.02,other
0,446,invalid_same_bar,"[(1205, 787)]",[],[1],[0.5],vertical,"(890.0, 262.0)",0.6833333333333333,0.456,1,6436.157,3,0.02,same
0,447,valid,"[(1170, 766)]",[],[1],[0.6833333333333333],vertical,"(890.0, 262.0)",1.4166666666666667,0.64,1,6441.208,3,0.02,same
0,448,valid,"[(1185, 772)]",[],[1],[0.85],horizontal,"(390.0, 762.0)",0.85,nan,0,6447.454,0,0.02,same
0,449,catch,"[(1125, 787)]",[],[1],[],vertical,"(390.0, 262.0)",1.7,nan,1,6452.027,1,0.02,same
0,450,valid,"[(1175, 773)]",[],[1],[0.7333333333333333],horizontal,"(390.0, 262.0)",0.4166666666666667,0.689,1,6457.54,1,0.02,same
0,451,valid,"[(1194, 767)]",[],[1],[0.5333333333333333],horizontal,"(890.0, 762.0)",1.0666666666666667,0.487,1,6462.123,1,0.0,same
0,452,catch,"[(1196, 786)]",[],[1],[],vertical,"(390.0, 762.0)",1.7,nan,1,6467.163,2,0.0,same
0,453,catch,"[(1185, 782)]",[],[1],[],horizontal,"(890.0, 762.0)",1.7,nan,1,6473.045,2,0.0,same
0,454,valid,"[(1186, 786)]",[],[1],[0.5666666666666667],horizontal,"(390.0, 262.0)",0.7833333333333333,0.524,1,6478.419,2,0.0,same
0,455,valid,"[(1185, 769)]",[],[1],[0.6333333333333333],vertical,"(390.0, 762.0)",1.2,0.592,1,6483.625,3,0.0,same
0,456,catch,"[(1185, 784)]",[],[1],[],horizontal,"(890.0, 262.0)",1.7,nan,1,6489.509,3,0.0,same
0,457,catch,"[(1185, 769)]",[],[1],[],horizontal,"(390.0, 762.0)",1.7,nan,1,6495.306,3,0.0,same
0,458,valid,"[(1188, 762)]",[],[1],[0.7],horizontal,"(390.0, 262.0)",0.43333333333333335,0.651,1,6501.29,3,0.0,same
0,459,valid,"[(1185, 788)]",[],[1],[0.7166666666666667],vertical,"(890.0, 762.0)",0.55,0.671,1,6506.948,3,0.0,same
0,460,valid,"[(1201, 777)]",[],[1],[0.35],vertical,"(890.0, 262.0)",1.1833333333333333,0.311,1,6512.79,3,0.0,same
0,461,valid,"[(1190, 783)]",[],[1],[0.85],vertical,"(390.0, 762.0)",0.6833333333333333,nan,0,6518.585,0,0.0,same
0,462,valid,"[(1143, 777)]",[],[1],[0.5333333333333333],horizontal,"(390.0, 262.0)",0.6166666666666667,0.492,1,6523.291,1,0.0,same
0,463,invalid_adjacent_other_bar,"[(1185, 794)]",[],[1],[0.65],vertical,"(890.0, 262.0)",0.5833333333333334,0.609,1,6528.083,1,0.0,other
0,464,valid,"[(1180, 779)]",[],[1],[0.6166666666666667],horizontal,"(390.0, 762.0)",1.1166666666666667,0.578,1,6532.952,1,0.0,same
0,465,catch,"[(1181, 781)]",[],[1],[],vertical,"(890.0, 262.0)",1.7,nan,1,6538.14,2,0.0,same
0,466,valid,"[(1183, 752), (1135, 832)]",[],"[0, 1]",[0.6333333333333333],horizontal,"(390.0, 262.0)",1.15,0.591,1,6543.858,2,0.0,same
0,467,valid,"[(1177, 795)]",[],[1],[0.75],horizontal,"(890.0, 762.0)",1.35,0.708,1,6550.339,2,0.0,same
0,468,valid,"[(1180, 795)]",[],[1],[0.36666666666666664],horizontal,"(890.0, 762.0)",1.5166666666666666,0.328,1,6556.274,3,0.0,same
0,469,catch,"[(1194, 795)]",[],[1],[],vertical,"(890.0, 762.0)",1.7,nan,1,6562.341,3,0.0,same
0,470,valid,"[(1180, 783)]",[],[1],[0.55],horizontal,"(890.0, 762.0)",1.45,0.508,1,6567.989,3,0.0,same
0,471,valid,"[(1184, 772)]",[],[1],[0.6666666666666666],vertical,"(390.0, 762.0)",0.75,0.624,1,6574.17,3,0.0,same
0,472,valid,"[(1187, 782)]",[],[1],[0.5],vertical,"(390.0, 262.0)",0.8,0.46,1,6579.841,3,0.0,same
0,473,valid,"[(1135, 806)]",[],[1],[0.6],vertical,"(390.0, 262.0)",0.6166666666666667,0.556,1,6585.419,3,0.0,same
0,474,invalid_adjacent_other_bar,"[(1193, 791)]",[],[1],[0.6166666666666667],vertical,"(890.0, 262.0)",0.9666666666666667,0.574,1,6591.24,3,0.0,other
0,475,valid,"[(1185, 768)]",[],[1],[0.6333333333333333],vertical,"(890.0, 762.0)",0.65,0.604,1,6597.223,3,0.0,same
0,476,valid,"[(1188, 788)]",[],[1],[0.85],horizontal,"(890.0, 762.0)",0.95,nan,0,6603.391,0,0.0,same
0,477,valid,"[(1165, 791)]",[],[1],[0.21666666666666667],vertical,"(890.0, 762.0)",1.05,0.182,0,6608.397,0,0.0,same
0,478,catch,"[(1170, 772)]",[],[1],[],vertical,"(390.0, 762.0)",1.7,nan,1,6612.557,1,0.0,same
0,479,invalid_same_bar,"[(1175, 779)]",[],[1],[0.7333333333333333],horizontal,"(390.0, 762.0)",0.55,0.69,1,6617.557,1,0.0,same
0,480,valid,"[(1175, 767)]",[],[1],[0.6333333333333333],vertical,"(390.0, 762.0)",0.36666666666666664,0.595,1,6622.223,1,0.0,same
0,481,valid,"[(1175, 770)]",[],[1],[0.7],horizontal,"(890.0, 262.0)",0.6666666666666666,0.657,1,6626.555,2,0.0,same
0,482,catch,"[(1190, 779)]",[],[1],[],horizontal,"(890.0, 262.0)",1.7,nan,1,6632.069,2,0.0,same
0,483,valid,"[(1170, 772)]",[],[1],[0.55],horizontal,"(390.0, 262.0)",0.6333333333333333,0.509,1,6637.863,2,0.0,same
0,484,valid,"[(1184, 758)]",[],[1],[0.5333333333333333],horizontal,"(890.0, 762.0)",0.9166666666666666,0.488,1,6642.923,3,0.0,same
0,485,valid,"[(1187, 765)]",[],[1],[0.5166666666666666],vertical,"(890.0, 262.0)",1.4833333333333334,0.472,1,6649.224,3,0.0,same
0,486,catch,"[(1180, 785)]",[],[1],[],horizontal,"(390.0, 262.0)",1.7,nan,1,6655.326,3,0.0,same
0,487,valid,"[(1171, 760)]",[],[1],[0.6166666666666667],vertical,"(890.0, 762.0)",0.6833333333333333,0.575,1,6661.057,3,0.0,same
0,488,invalid_adjacent_other_bar,"[(1180, 781)]",[],[1],[0.8],vertical,"(890.0, 762.0)",0.6333333333333333,0.752,1,6666.532,3,0.0,other
0,489,catch,"[(1186, 758)]",[],[1],[],vertical,"(890.0, 262.0)",1.7,nan,1,6672.153,3,0.0,same
0,490,catch,"[(1190, 766)]",[],[1],[],vertical,"(390.0, 262.0)",1.7,nan,1,6678.558,3,0.0,same
0,491,valid,"[(1188, 779)]",[],[1],[0.5833333333333334],vertical,"(390.0, 762.0)",1.2333333333333334,0.541,1,6684.558,3,0.0,same
0,492,valid,"[(1225, 785)]",[],[1],[],horizontal,"(890.0, 762.0)",,"('fix', 0.18)",0,6690.712,0,0.0,same
0,493,invalid_adjacent_other_bar,"[(1131, 826)]",[],[1],[0.06666666666666667],vertical,"(390.0, 262.0)",1.3666666666666667,0.037,0,6692.609,0,0.0,other
0,494,catch,"[(1170, 804)]",[],[1],[],horizontal,"(890.0, 762.0)",1.7,nan,1,6697.019,1,0.0,same
0,495,invalid_same_bar,"[(1195, 766)]",[],[1],[0.6833333333333333],horizontal,"(890.0, 262.0)",0.7666666666666666,0.636,1,6702.223,1,0.0,same
0,496,invalid_same_bar,"[(1160, 759)]",[],[1],[0.31666666666666665],horizontal,"(390.0, 262.0)",1.4166666666666667,0.276,1,6707.042,1,0.0,same
0,497,catch,"[(1185, 780)]",[],[1],[],horizontal,"(890.0, 762.0)",1.7,nan,1,6712.206,2,0.0,same
0,498,valid,"[(1190, 778)]",[],[1],[0.6166666666666667],vertical,"(890.0, 262.0)",0.95,0.569,1,6717.723,2,0.0,same
0,499,catch,"[(1180, 781)]",[],[1],[],horizontal,"(890.0, 762.0)",1.7,nan,1,6723.473,2,0.0,same
0,500,valid,"[(1180, 787)]",[],[1],[0.55],vertical,"(890.0, 762.0)",0.8333333333333334,0.506,1,6728.964,3,0.0,same
0,501,catch,"[(1160, 762)]",[],[1],[],horizontal,"(890.0, 262.0)",1.7,nan,1,6734.824,3,0.0,same
0,502,catch,"[(1154, 778)]",[],[1],[],horizontal,"(390.0, 762.0)",1.7,nan,1,6740.501,3,0.0,same
0,503,invalid_same_bar,"[(1192, 753), (1116, 814)]",[],"[0, 1]",[0.5666666666666667],vertical,"(890.0, 262.0)",1.1333333333333333,0.524,1,6746.766,3,0.0,same
0,504,catch,"[(1156, 781)]",[],[1],[],vertical,"(390.0, 762.0)",1.7,nan,1,6754.149,3,0.0,same
0,505,valid,"[(1191, 781)]",[],[1],[0.5333333333333333],vertical,"(890.0, 762.0)",0.9,0.494,1,6760.31,3,0.0,same
0,506,valid,"[(1178, 782)]",[],[1],[0.55],vertical,"(390.0, 262.0)",0.7,0.509,1,6765.657,3,0.0,same
0,507,valid,"[(1160, 766)]",[],[1],[0.5666666666666667],horizontal,"(390.0, 262.0)",0.9833333333333333,0.526,1,6770.87,3,0.0,same
0,508,valid,"[(1207, 779)]",[],[1],[0.85],horizontal,"(390.0, 262.0)",0.6333333333333333,nan,0,6776.186,0,0.0,same
0,509,valid,"[(1148, 791)]",[],[1],[0.7333333333333333],vertical,"(890.0, 762.0)",1.05,0.693,1,6780.767,1,0.0,same
0,510,valid,"[(1187, 778)]",[],[1],[0.5],horizontal,"(390.0, 262.0)",1.0833333333333333,0.458,1,6786.108,1,0.0,same
0,511,invalid_adjacent_other_bar,"[(1138, 811)]",[],[1],[0.6333333333333333],horizontal,"(890.0, 762.0)",0.9666666666666667,0.588,1,6791.225,1,0.0,other
0,512,invalid_adjacent_other_bar,"[(1190, 788)]",[],[1],[0.6333333333333333],horizontal,"(890.0, 762.0)",0.6666666666666666,0.589,1,6799.084,2,0.0,other
0,513,catch,"[(1165, 786)]",[],[1],[],vertical,"(390.0, 262.0)",1.7,nan,1,6804.752,2,0.0,same
0,514,catch,"[(1183, 778)]",[],[1],[],horizontal,"(390.0, 762.0)",1.7,nan,1,6810.239,2,0.0,same
0,515,valid,"[(1165, 778)]",[],[1],[0.6166666666666667],vertical,"(390.0, 762.0)",1.2833333333333332,0.572,1,6815.781,3,0.0,same
0,516,invalid_adjacent_other_bar,"[(1169, 776)]",[],[1],[0.6166666666666667],vertical,"(890.0, 762.0)",1.3333333333333333,0.573,1,6822.024,3,0.0,other
0,517,catch,"[(1192, 781)]",[],[1],[],horizontal,"(890.0, 262.0)",1.7,nan,1,6828.194,3,0.0,same
0,518,valid,"[(1182, 786)]",[],[1],[0.5333333333333333],horizontal,"(890.0, 762.0)",1.2666666666666666,0.5,1,6834.342,3,0.0,same
0,519,invalid_adjacent_other_bar,"[(1189, 781)]",[],[1],[0.31666666666666665],vertical,"(890.0, 762.0)",1.1666666666666667,0.281,1,6840.304,3,0.0,other
0,520,valid,"[(1184, 790)]",[],[1],[0.55],vertical,"(390.0, 762.0)",0.8833333333333333,0.512,1,6846.375,3,0.0,same
0,521,valid,"[(1171, 779)]",[],[1],[0.6],vertical,"(890.0, 762.0)",1.1166666666666667,0.552,1,6851.941,3,0.0,same
0,522,catch,"[(1174, 789)]",[],[1],[],horizontal,"(390.0, 262.0)",1.7,nan,1,6858.013,3,0.0,same
0,523,catch,"[(1165, 787)]",[],[1],[],horizontal,"(390.0, 262.0)",1.7,nan,1,6863.879,3,0.0,same
0,524,catch,"[(1188, 787)]",[],[1],[],horizontal,"(890.0, 262.0)",1.7,nan,1,6870.206,3,0.0,same
0,525,valid,"[(1197, 778)]",[],[1],[0.6166666666666667],horizontal,"(390.0, 262.0)",0.3833333333333333,0.572,1,6876.261,3,0.0,same
0,526,valid,"[(1182, 769)]",[],[1],[0.6333333333333333],horizontal,"(390.0, 262.0)",1.0166666666666666,0.592,1,6881.292,3,0.0,same
0,527,catch,"[(1172, 776)]",[],[1],[],vertical,"(890.0, 762.0)",1.7,nan,1,6887.086,3,0.0,same
0,528,valid,"[(1185, 786)]",[],[1],[0.55],horizontal,"(890.0, 762.0)",0.65,0.513,1,6893.007,3,0.0,same
0,529,valid,"[(1185, 791)]",[],[1],[0.6166666666666667],vertical,"(390.0, 262.0)",0.9333333333333333,0.58,1,6898.753,3,0.0,same
0,530,valid,"[(1175, 794)]",[],[1],[0.5833333333333334],vertical,"(890.0, 762.0)",1.4666666666666666,0.537,1,6904.442,3,0.0,same
0,531,catch,"[(1142, 773)]",[],[1],[],horizontal,"(890.0, 762.0)",1.7,nan,1,6910.612,3,0.0,same
0,532,valid,"[(1170, 792)]",[],[1],[0.5833333333333334],horizontal,"(890.0, 262.0)",0.8333333333333334,0.543,1,6916.847,3,0.0,same
0,533,catch,"[(1180, 787)]",[],[1],[],horizontal,"(890.0, 762.0)",1.7,nan,1,6922.492,3,0.0,same
0,534,valid,"[(1175, 782)]",[],[1],[0.85],horizontal,"(390.0, 762.0)",0.6166666666666667,nan,0,6928.716,0,0.0,same
0,535,valid,"[(1131, 770)]",[],[1],[0.6333333333333333],vertical,"(890.0, 262.0)",0.45,0.594,1,6932.817,1,0.0,same
0,536,valid,"[(1183, 781)]",[],[1],[0.5166666666666666],horizontal,"(390.0, 262.0)",1.2,0.479,1,6937.676,1,0.0,same
0,537,valid,"[(1165, 796)]",[],[1],[0.5333333333333333],horizontal,"(390.0, 262.0)",0.5166666666666666,0.497,1,6942.642,1,0.0,same
0,538,valid,"[(1167, 772)]",[],[1],[0.6833333333333333],vertical,"(890.0, 762.0)",1.05,0.638,1,6947.524,2,0.0,same
0,539,valid,"[(1156, 775)]",[],[1],[0.6],horizontal,"(890.0, 762.0)",1.4,0.557,1,6953.075,2,0.0,same
0,540,valid,"[(1185, 790)]",[],[1],[0.5166666666666666],vertical,"(890.0, 262.0)",1.1166666666666667,0.477,1,6958.891,2,0.0,same
0,541,valid,"[(1180, 787)]",[],[1],[0.4666666666666667],horizontal,"(890.0, 262.0)",1.45,0.428,1,6964.976,3,0.0,same
0,542,valid,"[(1170, 787)]",[],[1],[0.7666666666666666],horizontal,"(390.0, 262.0)",0.6666666666666666,0.724,1,6971.842,3,0.0,same
0,543,catch,"[(1161, 786)]",[],[1],[],vertical,"(390.0, 762.0)",1.7,nan,1,6977.585,3,0.0,same
0,544,valid,"[(1151, 794)]",[],[1],[0.36666666666666664],horizontal,"(390.0, 262.0)",1.3666666666666667,0.331,1,6983.125,3,0.0,same
0,545,valid,"[(1166, 781)]",[],[1],[0.5833333333333334],vertical,"(890.0, 262.0)",0.55,0.549,1,6989.392,3,0.0,same
0,546,valid,"[(1163, 765)]",[],[1],[0.5166666666666666],vertical,"(390.0, 762.0)",1.45,0.475,1,6994.875,3,0.0,same
0,547,catch,"[(1194, 781)]",[],[1],[],horizontal,"(890.0, 762.0)",1.7,nan,1,7001.042,3,0.0,same
0,548,valid,"[(1161, 768)]",[],[1],[0.55],vertical,"(890.0, 262.0)",0.8666666666666667,0.507,1,7007.135,3,0.0,same
0,549,valid,"[(1188, 772)]",[],[1],[0.7],horizontal,"(390.0, 262.0)",0.8,0.661,1,7013.15,3,0.0,same
0,550,valid,"[(1156, 794)]",[],[1],[0.5666666666666667],horizontal,"(390.0, 262.0)",0.5333333333333333,0.529,1,7019.275,3,0.0,same
0,551,catch,"[(1180, 791)]",[],[1],[],vertical,"(890.0, 762.0)",1.7,nan,1,7024.708,3,0.0,same
0,552,valid,"[(1185, 791)]",[],[1],[0.1],vertical,"(890.0, 762.0)",1.2666666666666666,0.068,0,7030.858,0,0.0,same
0,553,valid,"[(1145, 790)]",[],[1],[0.5333333333333333],horizontal,"(390.0, 762.0)",1.2333333333333334,0.501,1,7035.305,1,0.0,same
0,554,valid,"[(1180, 787)]",[],[1],[0.21666666666666667],horizontal,"(390.0, 762.0)",0.8666666666666667,0.182,0,7040.301,0,0.0,same
0,555,valid,"[(1161, 800)]",[],[1],[0.55],vertical,"(390.0, 262.0)",0.6666666666666666,0.516,1,7044.326,1,0.0,same
0,556,valid,"[(1185, 756)]",[],[1],[0.5333333333333333],vertical,"(390.0, 262.0)",0.4666666666666667,0.497,1,7048.941,1,0.0,same
0,557,catch,"[(1180, 770)]",[],[1],[],horizontal,"(390.0, 262.0)",1.7,nan,1,7053.392,1,0.0,same
0,558,catch,"[(1165, 754)]",[],[1],[],vertical,"(390.0, 762.0)",1.7,nan,1,7058.362,2,0.0,same
0,559,valid,"[(1200, 777)]",[],[1],[0.5],vertical,"(390.0, 762.0)",0.8,0.457,1,7064.14,2,0.0,same
0,560,valid,"[(1187, 765)]",[],[1],[0.6],vertical,"(390.0, 762.0)",1.3833333333333333,0.564,1,7069.59,2,0.0,same
0,561,invalid_adjacent_other_bar,"[(1187, 772)]",[],[1],[0.5833333333333334],vertical,"(890.0, 262.0)",1.2666666666666666,0.544,1,7075.458,3,0.0,other
0,562,valid,"[(1168, 787)]",[],[1],[0.6],horizontal,"(890.0, 262.0)",0.9,0.567,1,7081.831,3,0.0,same
0,563,valid,"[(1190, 757)]",[],[1],[0.5166666666666666],horizontal,"(890.0, 262.0)",0.35,0.483,1,7087.816,3,0.0,same
0,564,valid,"[(1197, 778)]",[],[1],[0.5833333333333334],horizontal,"(890.0, 262.0)",0.95,0.552,1,7092.559,3,0.0,same
0,565,catch,"[(1170, 795)]",[],[1],[],horizontal,"(890.0, 762.0)",1.7,nan,1,7098.444,3,0.0,same
0,566,valid,"[(1155, 771)]",[],[1],[0.5666666666666667],horizontal,"(390.0, 262.0)",1.05,0.534,1,7104.516,3,0.0,same
0,567,invalid_adjacent_other_bar,"[(1192, 751), (1086, 805)]",[],"[0, 1]","[0.85, 0.85]",horizontal,"(390.0, 262.0)",1.2,"0.807,nan",0,7110.442,0,0.0,other
0,568,catch,"[(1137, 775)]",[],[1],[],vertical,"(890.0, 762.0)",1.7,nan,1,7117.258,1,0.0,same
0,569,valid,"[(1162, 787)]",[],[1],[0.6666666666666666],vertical,"(390.0, 262.0)",0.7166666666666667,0.625,1,7122.265,1,0.0,same
0,570,valid,"[(1180, 748), (1132, 820)]",[],"[0, 1]",[0.5],horizontal,"(390.0, 262.0)",0.85,0.457,1,7127.126,1,0.0,same
0,571,valid,"[(1185, 766)]",[],[1],[0.6333333333333333],vertical,"(390.0, 762.0)",1.0833333333333333,0.597,1,7133.025,2,0.0,same
0,572,catch,"[(1185, 785)]",[],[1],[],horizontal,"(890.0, 762.0)",1.7,nan,1,7138.752,2,0.0,same
0,573,valid,"[(1179, 792)]",[],[1],[0.5],vertical,"(390.0, 262.0)",0.65,0.462,1,7144.17,2,0.0,same
0,574,valid,"[(1156, 794)]",[],[1],[0.5666666666666667],vertical,"(390.0, 762.0)",1.4666666666666666,0.531,1,7148.996,3,0.0,same
0,575,valid,"[(1161, 780)]",[],[1],[0.55],horizontal,"(890.0, 762.0)",1.5,0.51,1,7155.443,3,0.0,same
0,576,valid,"[(1160, 760)]",[],[1],[0.75],horizontal,"(890.0, 762.0)",0.95,0.704,1,7161.719,3,0.0,same
0,577,valid,"[(1190, 759)]",[],[1],[0.5166666666666666],vertical,"(890.0, 762.0)",1.45,0.476,1,7167.975,3,0.0,same
0,578,catch,"[(1194, 766)]",[],[1],[],horizontal,"(390.0, 762.0)",1.7,nan,1,7174.153,3,0.0,same
0,579,valid,"[(1158, 757)]",[],[1],[0.55],horizontal,"(390.0, 762.0)",0.5333333333333333,0.511,1,7180.26,3,0.0,same
0,580,catch,"[(1165, 782)]",[],[1],[],vertical,"(390.0, 262.0)",,"('cti', 1.492),nan",0,7185.693,0,0.02,same
0,581,catch,"[(1135, 772)]",[],[1],[],vertical,"(390.0, 262.0)",1.7,nan,1,7190.418,1,0.02,same
0,582,catch,"[(1189, 752), (1121, 823)]",[],"[0, 1]",[],horizontal,"(390.0, 762.0)",1.7,nan,1,7196.025,1,0.02,same
0,583,catch,"[(1183, 760)]",[],[1],[],horizontal,"(890.0, 762.0)",1.7,nan,1,7202.592,1,0.02,same
0,584,valid,"[(1187, 779)]",[],[1],[0.5666666666666667],horizontal,"(890.0, 762.0)",1.1333333333333333,0.526,1,7207.921,2,0.02,same
0,585,catch,"[(1165, 786)]",[],[1],[],horizontal,"(390.0, 762.0)",1.7,nan,1,7213.525,2,0.02,same
0,586,valid,"[(1184, 766)]",[],[1],[0.55],vertical,"(890.0, 762.0)",0.5,0.51,1,7219.422,2,0.02,same
0,587,valid,"[(1172, 791)]",[],[1],[0.65],horizontal,"(890.0, 262.0)",1.1333333333333333,0.608,1,7224.227,3,0.02,same
0,588,catch,"[(1191, 785)]",[],[1],[],vertical,"(890.0, 262.0)",1.7,nan,1,7230.309,3,0.02,same
0,589,valid,"[(1183, 762)]",[],[1],[0.48333333333333334],horizontal,"(890.0, 262.0)",1.5166666666666666,0.442,1,7236.493,3,0.02,same
0,590,valid,"[(1165, 755)]",[],[1],[0.5666666666666667],vertical,"(390.0, 762.0)",0.5166666666666666,0.535,1,7242.55,3,0.02,same
0,591,valid,"[(1163, 755)]",[],[1],[0.5666666666666667],horizontal,"(890.0, 762.0)",0.65,0.534,1,7247.743,3,0.02,same
0,592,valid,"[(1166, 766)]",[],[1],[0.75],vertical,"(890.0, 262.0)",1.0,0.708,1,7253.277,3,0.02,same
0,593,valid,"[(1163, 765)]",[],[1],[0.65],vertical,"(390.0, 762.0)",0.75,0.61,1,7259.373,3,0.02,same
0,594,valid,"[(1186, 764)]",[],[1],[0.85],vertical,"(890.0, 762.0)",1.1,nan,0,7265.393,0,0.02,same
0,595,catch,"[(1134, 799)]",[],[1],[],vertical,"(890.0, 762.0)",1.7,nan,1,7270.587,1,0.02,same
0,596,valid,"[(1185, 772)]",[],[1],[0.55],horizontal,"(890.0, 762.0)",0.3833333333333333,0.511,1,7276.142,1,0.02,same
0,597,valid,"[(1165, 766)]",[],[1],[0.5666666666666667],horizontal,"(390.0, 262.0)",0.6,0.527,1,7280.917,1,0.02,same
0,598,valid,"[(1170, 765)]",[],[1],[0.4666666666666667],horizontal,"(890.0, 262.0)",1.4166666666666667,0.429,1,7285.903,2,0.02,same
0,599,valid,"[(1200, 778)]",[],[1],[0.7],vertical,"(390.0, 262.0)",0.8666666666666667,0.66,1,7291.896,2,0.02,same
0,600,catch,"[(1180, 780)]",[],[1],[],vertical,"(890.0, 262.0)",1.7,nan,1,7297.489,2,0.02,same
0,601,valid,"[(1170, 755)]",[],[1],[0.5666666666666667],horizontal,"(890.0, 262.0)",0.6,0.53,1,7303.421,3,0.02,same
0,602,valid,"[(1166, 789)]",[],[1],[0.6166666666666667],horizontal,"(890.0, 762.0)",1.1666666666666667,0.575,1,7308.777,3,0.02,same
0,603,invalid_adjacent_other_bar,"[(1192, 769)]",[],[1],[0.6333333333333333],vertical,"(890.0, 262.0)",1.3833333333333333,0.594,1,7314.66,3,0.02,other
0,604,valid,"[(1170, 772)]",[],[1],[0.65],horizontal,"(890.0, 262.0)",1.3166666666666667,0.611,1,7320.776,3,0.02,same
0,605,valid,"[(1185, 778)]",[],[1],[0.5333333333333333],horizontal,"(890.0, 762.0)",0.55,0.497,1,7327.226,3,0.02,same
0,606,valid,"[(1171, 773)]",[],[1],[0.5333333333333333],vertical,"(890.0, 762.0)",0.9,0.49,1,7332.309,3,0.02,same
0,607,valid,"[(1170, 770)]",[],[1],[0.6833333333333333],vertical,"(390.0, 262.0)",1.0166666666666666,0.638,1,7338.226,3,0.02,same
0,608,catch,"[(1169, 760)]",[],[1],[],horizontal,"(890.0, 762.0)",,"('cti', 1.671),nan",0,7344.393,0,0.04,same
0,609,catch,"[(1136, 781)]",[],[1],[],horizontal,"(390.0, 762.0)",1.7,nan,1,7349.344,1,0.04,same
0,610,valid,"[(1190, 754)]",[],[1],[0.6],vertical,"(390.0, 762.0)",1.5166666666666666,0.56,1,7354.792,1,0.04,same
0,611,valid,"[(1160, 781)]",[],[1],[0.85],vertical,"(890.0, 762.0)",0.6,nan,0,7360.359,0,0.04,same
0,612,valid,"[(1135, 757)]",[],[1],[0.55],horizontal,"(890.0, 762.0)",1.0166666666666666,0.511,1,7364.535,1,0.04,same
0,613,invalid_same_bar,"[(1165, 777)]",[],[1],[0.75],horizontal,"(890.0, 762.0)",0.5833333333333334,0.708,1,7369.876,1,0.04,same
0,614,valid,"[(1170, 765)]",[],[1],[0.5],vertical,"(890.0, 262.0)",1.2666666666666666,0.462,1,7374.744,1,0.04,same
0,615,valid,"[(1188, 783)]",[],[1],[0.55],vertical,"(390.0, 262.0)",0.6333333333333333,0.507,1,7380.2,2,0.04,same
0,616,valid,"[(1187, 773)]",[],[1],[0.6166666666666667],horizontal,"(890.0, 762.0)",1.15,0.577,1,7385.243,2,0.04,same
0,617,valid,"[(1158, 770)]",[],[1],[0.85],vertical,"(890.0, 762.0)",1.05,nan,0,7390.594,0,0.04,same
0,618,catch,"[(1126, 777)]",[],[1],[],horizontal,"(890.0, 762.0)",1.7,nan,1,7395.427,1,0.04,same
0,619,catch,"[(1170, 783)]",[],[1],[],vertical,"(890.0, 762.0)",1.7,nan,1,7400.568,1,0.04,same
0,620,invalid_same_bar,"[(1187, 761)]",[],[1],[0.65],vertical,"(890.0, 262.0)",0.9166666666666666,0.613,1,7405.873,1,0.04,same
0,621,valid,"[(1175, 774)]",[],[1],[0.5333333333333333],vertical,"(890.0, 262.0)",1.4166666666666667,0.496,1,7410.773,2,0.04,same
0,622,valid,"[(1170, 789)]",[],[1],[0.5833333333333334],vertical,"(390.0, 262.0)",0.48333333333333334,0.545,1,7416.56,2,0.04,same
0,623,valid,"[(1135, 763)]",[],[1],[0.65],horizontal,"(890.0, 762.0)",1.3,0.614,1,7421.593,2,0.04,same
0,624,valid,"[(1168, 792)]",[],[1],[0.85],horizontal,"(390.0, 762.0)",0.7666666666666666,nan,0,7427.978,0,0.04,same
0,625,valid,"[(1131, 777)]",[],[1],[0.55],horizontal,"(890.0, 262.0)",0.5666666666666667,0.508,1,7432.635,1,0.04,same
0,626,valid,"[(1170, 779)]",[],[1],[0.4],horizontal,"(890.0, 762.0)",1.45,0.372,1,7437.011,1,0.04,same
0,627,invalid_same_bar,"[(1174, 796)]",[],[1],[0.55],horizontal,"(390.0, 262.0)",1.4333333333333333,0.507,1,7442.444,1,0.04,same
0,628,invalid_same_bar,"[(1165, 761)]",[],[1],[0.5166666666666666],vertical,"(390.0, 262.0)",1.3666666666666667,0.48,1,7448.028,2,0.04,same
0,629,invalid_adjacent_other_bar,"[(1164, 767)]",[],[1],[0.5666666666666667],horizontal,"(890.0, 262.0)",1.3833333333333333,0.526,1,7453.877,2,0.04,other
0,630,catch,"[(1162, 759)]",[],[1],[],vertical,"(390.0, 762.0)",1.7,nan,1,7460.144,2,0.02,same
0,631,valid,"[(1169, 798)]",[],[1],[],horizontal,"(390.0, 262.0)",,"('cti', 1.07)",0,7465.611,0,0.02,same
0,632,valid,"[(1140, 801)]",[],[1],[0.55],horizontal,"(390.0, 762.0)",0.55,0.509,1,7469.877,1,0.02,same
0,633,valid,"[(1165, 782)]",[],[1],[0.5333333333333333],vertical,"(390.0, 262.0)",0.3833333333333333,0.495,1,7474.495,1,0.02,same
0,634,valid,"[(1125, 816)]",[],[1],[0.55],vertical,"(890.0, 262.0)",1.35,0.505,1,7479.244,1,0.02,same
0,635,valid,"[(1163, 776)]",[],[1],[0.85],horizontal,"(890.0, 762.0)",0.8,nan,0,7484.877,0,0.02,same
0,636,invalid_same_bar,"[(1140, 798)]",[],[1],[0.6333333333333333],horizontal,"(390.0, 262.0)",1.1333333333333333,0.594,1,7489.291,1,0.02,same
0,637,catch,"[(1171, 761)]",[],[1],[],vertical,"(890.0, 762.0)",1.7,nan,1,7494.443,1,0.02,same
0,638,valid,"[(1165, 775)]",[],[1],[0.5666666666666667],horizontal,"(890.0, 762.0)",0.3833333333333333,0.529,1,7499.628,1,0.02,same
0,639,valid,"[(1170, 760)]",[],[1],[0.5],horizontal,"(390.0, 262.0)",1.2,0.461,1,7503.843,2,0.02,same
0,640,valid,"[(1172, 785)]",[],[1],[0.85],horizontal,"(890.0, 762.0)",0.35,nan,0,7509.694,0,0.02,same
0,641,valid,"[(1138, 782)]",[],[1],[0.5666666666666667],vertical,"(390.0, 762.0)",1.4833333333333334,0.533,1,7514.227,1,0.02,same
0,642,valid,"[(1178, 769)]",[],[1],[0.6333333333333333],horizontal,"(890.0, 262.0)",0.4666666666666667,0.59,1,7519.402,1,0.02,same
0,643,invalid_adjacent_other_bar,"[(1165, 753), (1096, 830)]",[],"[0, 1]",[0.85],vertical,"(890.0, 262.0)",0.65,nan,0,7523.777,0,0.02,other
0,644,valid,"[(1144, 779)]",[],[1],[0.5666666666666667],horizontal,"(390.0, 762.0)",0.7,0.528,1,7529.894,1,0.02,same
0,645,valid,"[(1165, 781)]",[],[1],[0.65],vertical,"(890.0, 762.0)",0.9833333333333333,0.609,1,7534.961,1,0.02,same
0,646,invalid_adjacent_other_bar,"[(1194, 761)]",[],[1],[0.48333333333333334],horizontal,"(390.0, 262.0)",1.4833333333333334,0.444,1,7540.408,1,0.02,other
0,647,valid,"[(1162, 778)]",[],[1],[0.6166666666666667],horizontal,"(890.0, 762.0)",1.25,0.579,1,7546.227,2,0.02,same
0,648,invalid_same_bar,"[(1167, 787)]",[],[1],[0.5833333333333334],horizontal,"(890.0, 762.0)",0.6333333333333333,0.546,1,7551.777,2,0.02,same
0,649,catch,"[(1170, 773)]",[],[1],[],vertical,"(890.0, 262.0)",1.7,nan,1,7556.741,2,0.02,same
0,650,valid,"[(1170, 776)]",[],[1],[0.85],vertical,"(390.0, 762.0)",1.25,nan,0,7562.01,0,0.02,same
0,651,catch,"[(1142, 795)]",[],[1],[],horizontal,"(890.0, 262.0)",1.7,nan,1,7566.912,1,0.02,same
0,652,invalid_adjacent_other_bar,"[(1165, 780)]",[],[1],[0.6],horizontal,"(390.0, 762.0)",0.7833333333333333,0.568,1,7572.397,1,0.02,other
0,653,valid,"[(1167, 778)]",[],[1],[0.5666666666666667],horizontal,"(890.0, 262.0)",0.7333333333333333,0.542,1,7576.976,1,0.02,same
0,654,valid,"[(1171, 763)]",[],[1],[0.5333333333333333],horizontal,"(890.0, 262.0)",0.43333333333333335,0.498,1,7582.341,2,0.02,same
0,655,valid,"[(1165, 772)]",[],[1],[0.5],horizontal,"(890.0, 262.0)",0.5833333333333334,0.468,1,7586.941,2,0.02,same
0,656,valid,"[(1165, 770)]",[],[1],[0.6166666666666667],vertical,"(390.0, 762.0)",0.9833333333333333,0.587,1,7591.989,2,0.02,same
0,657,valid,"[(1165, 786)]",[],[1],[0.6333333333333333],horizontal,"(890.0, 262.0)",1.25,0.591,1,7597.767,3,0.02,same
0,658,catch,"[(1165, 776)]",[],[1],[],horizontal,"(390.0, 262.0)",1.7,nan,1,7604.323,3,0.0,same
0,659,catch,"[(1140, 788)]",[],[1],[],vertical,"(890.0, 762.0)",1.7,nan,1,7610.572,3,0.0,same
0,660,valid,"[(1165, 781)]",[],[1],[0.85],vertical,"(890.0, 762.0)",0.5166666666666666,nan,0,7621.11,0,0.0,same
0,661,invalid_same_bar,"[(1140, 782)]",[],[1],[0.5666666666666667],vertical,"(890.0, 762.0)",1.25,0.526,1,7625.164,1,0.0,same
0,662,valid,"[(1170, 763)]",[],[1],[0.5333333333333333],horizontal,"(390.0, 262.0)",1.1666666666666667,0.493,1,7630.325,1,0.0,same
0,663,valid,"[(1195, 771)]",[],[1],[0.5333333333333333],horizontal,"(390.0, 262.0)",0.45,0.495,1,7635.528,1,0.0,same
0,664,valid,"[(1139, 790)]",[],[1],[0.5833333333333334],horizontal,"(390.0, 762.0)",1.4,0.544,1,7640.366,2,0.0,same
0,665,valid,"[(1165, 801)]",[],[1],[0.5333333333333333],horizontal,"(390.0, 262.0)",1.5166666666666666,0.491,1,7646.593,2,0.0,same
0,666,valid,"[(1165, 781)]",[],[1],[0.5166666666666666],horizontal,"(890.0, 262.0)",0.36666666666666664,0.473,1,7652.353,2,0.0,same
0,667,invalid_same_bar,"[(1163, 757)]",[],[1],[0.85],horizontal,"(390.0, 762.0)",0.9,nan,0,7657.441,0,0.0,same
0,668,valid,"[(1145, 786)]",[],[1],[0.5666666666666667],vertical,"(890.0, 762.0)",1.2666666666666666,0.531,1,7662.51,1,0.0,same
0,669,catch,"[(1160, 770)]",[],[1],[],vertical,"(890.0, 762.0)",1.7,nan,1,7668.958,1,0.0,same
0,670,valid,"[(1160, 758)]",[],[1],[0.6],horizontal,"(390.0, 762.0)",1.3333333333333333,0.556,1,7673.827,1,0.0,same
0,671,valid,"[(1160, 772)]",[],[1],[0.7666666666666666],vertical,"(890.0, 762.0)",0.6166666666666667,0.72,1,7679.63,2,0.0,same
0,672,valid,"[(1201, 794)]",[],[1],[0.5166666666666666],horizontal,"(390.0, 762.0)",1.4166666666666667,0.473,1,7684.788,2,0.0,same
0,673,valid,"[(1185, 792)]",[],[1],[0.6],horizontal,"(890.0, 762.0)",0.6,0.56,1,7690.41,2,0.0,same
0,674,valid,"[(1197, 765)]",[],[1],[0.6],vertical,"(390.0, 762.0)",1.4666666666666666,0.554,1,7695.71,3,0.0,same
0,675,catch,"[(1161, 769)]",[],[1],[],horizontal,"(390.0, 262.0)",1.7,nan,1,7702.445,3,0.0,same
0,676,invalid_adjacent_other_bar,"[(1190, 784)]",[],[1],[0.55],horizontal,"(890.0, 262.0)",1.2166666666666666,0.503,1,7708.628,3,0.0,other
0,677,valid,"[(1165, 776)]",[],[1],[0.55],horizontal,"(390.0, 262.0)",0.4166666666666667,0.502,1,7715.06,3,0.0,same
0,678,catch,"[(1185, 778)]",[],[1],[],horizontal,"(890.0, 762.0)",1.7,nan,1,7720.211,3,0.0,same
0,679,valid,"[(1185, 769)]",[],[1],[0.6166666666666667],horizontal,"(890.0, 762.0)",0.8333333333333334,0.574,1,7726.286,3,0.0,same
0,680,valid,"[(1185, 776)]",[],[1],[0.6166666666666667],vertical,"(390.0, 762.0)",0.4,0.578,1,7731.795,3,0.0,same
0,681,valid,"[(1176, 773)]",[],[1],[0.55],vertical,"(890.0, 262.0)",1.1166666666666667,0.513,1,7736.915,3,0.0,same
0,682,valid,"[(1169, 782)]",[],[1],[0.6666666666666666],vertical,"(390.0, 262.0)",1.25,0.627,1,7743.16,3,0.0,same
0,683,valid,"[(1165, 762)]",[],[1],[0.6666666666666666],vertical,"(390.0, 262.0)",1.1,0.621,1,7749.494,3,0.0,same
0,684,catch,"[(1170, 742), (1091, 811)]",[],"[0, 1]",[],horizontal,"(890.0, 762.0)",1.7,nan,1,7755.631,3,0.0,same
0,685,catch,"[(1170, 775)]",[],[1],[],horizontal,"(390.0, 262.0)",1.7,nan,1,7763.614,3,0.0,same
0,686,catch,"[(1168, 771)]",[],[1],[],horizontal,"(390.0, 262.0)",1.7,nan,1,7769.96,3,0.0,same
0,687,catch,"[(1161, 772)]",[],[1],[],vertical,"(390.0, 762.0)",1.7,nan,1,7776.212,3,0.0,same
0,688,catch,"[(1165, 770)]",[],[1],[],horizontal,"(890.0, 762.0)",1.7,nan,1,7782.528,3,0.0,same
0,689,invalid_same_bar,"[(1172, 777)]",[],[1],[0.5833333333333334],vertical,"(390.0, 262.0)",1.0,0.535,1,7788.06,3,0.0,same
0,690,valid,"[(1156, 767)]",[],[1],[0.7166666666666667],vertical,"(390.0, 262.0)",1.3,0.669,1,7793.978,3,0.0,same
0,691,invalid_adjacent_other_bar,"[(1163, 757)]",[],[1],[0.7],horizontal,"(390.0, 262.0)",0.9833333333333333,0.65,1,7800.286,3,0.0,other
0,692,invalid_same_bar,"[(1157, 777)]",[],[1],[0.6833333333333333],vertical,"(890.0, 762.0)",0.7166666666666667,0.632,1,7806.556,3,0.0,same
0,693,valid,"[(1156, 770)]",[],[1],[0.65],vertical,"(890.0, 762.0)",1.4,0.607,1,7812.162,3,0.0,same
0,694,valid,"[(1165, 783)]",[],[1],[0.5166666666666666],vertical,"(390.0, 762.0)",0.5166666666666666,0.475,1,7818.821,3,0.0,same
0,695,valid,"[(1137, 761)]",[],[1],[0.6],horizontal,"(390.0, 262.0)",0.7166666666666667,0.558,1,7823.961,3,0.0,same
0,696,valid,"[(1160, 755)]",[],[1],[0.5333333333333333],vertical,"(390.0, 762.0)",1.2,0.497,1,7829.762,3,0.0,same
0,697,catch,"[(1170, 771)]",[],[1],[],horizontal,"(890.0, 762.0)",1.7,nan,1,7835.862,3,0.0,same
0,698,catch,"[(1139, 771)]",[],[1],[],vertical,"(390.0, 262.0)",1.7,nan,1,7842.013,3,0.0,same
0,699,valid,"[(1165, 781)]",[],[1],[0.55],horizontal,"(390.0, 262.0)",1.2333333333333334,0.506,1,7848.029,3,0.0,same
0,700,invalid_adjacent_other_bar,"[(1170, 783)]",[],[1],[0.5666666666666667],vertical,"(390.0, 262.0)",0.35,0.525,1,7854.112,3,0.0,other
0,701,catch,"[(1190, 780)]",[],[1],[],vertical,"(890.0, 762.0)",1.7,nan,1,7859.329,3,0.0,same
0,702,catch,"[(1141, 776)]",[],[1],[],horizontal,"(890.0, 762.0)",1.7,nan,1,7865.177,3,0.0,same
0,703,valid,"[(1169, 772)]",[],[1],[0.5833333333333334],vertical,"(890.0, 262.0)",0.85,0.537,1,7870.792,3,0.0,same
0,704,catch,"[(1155, 774)]",[],[1],[],horizontal,"(890.0, 762.0)",1.7,nan,1,7876.276,3,0.0,same
0,705,catch,"[(1158, 774)]",[],[1],[],vertical,"(890.0, 762.0)",1.7,nan,1,7882.012,3,0.0,same
0,706,valid,"[(1165, 780)]",[],[1],[0.55],horizontal,"(890.0, 762.0)",0.5666666666666667,0.508,1,7888.301,3,0.0,same
0,707,valid,"[(1181, 779)]",[],[1],[0.6666666666666666],horizontal,"(390.0, 262.0)",1.1666666666666667,0.627,1,7893.75,3,0.0,same
0,708,catch,"[(1155, 776)]",[],[1],[],horizontal,"(890.0, 262.0)",1.7,nan,1,7899.854,3,0.0,same
0,709,valid,"[(1190, 778)]",[],[1],[0.5833333333333334],horizontal,"(390.0, 762.0)",0.8833333333333333,0.542,1,7905.929,3,0.0,same
0,710,valid,"[(1165, 757)]",[],[1],[0.6833333333333333],horizontal,"(890.0, 262.0)",1.25,0.635,1,7911.51,3,0.0,same
0,711,catch,"[(1135, 753), (1116, 806)]",[],"[0, 1]",[],vertical,"(890.0, 762.0)",1.7,nan,1,7917.436,3,0.0,same
0,712,valid,"[(1135, 761)]",[],[1],[0.6166666666666667],vertical,"(390.0, 262.0)",0.85,0.574,1,7924.528,3,0.0,same
0,713,valid,"[(1174, 777)]",[],[1],[0.6],vertical,"(390.0, 262.0)",1.5,0.557,1,7930.491,3,0.0,same
0,714,invalid_adjacent_other_bar,"[(1166, 789)]",[],[1],[0.6],horizontal,"(390.0, 762.0)",0.6666666666666666,0.562,1,7936.762,3,0.0,other
0,715,valid,"[(1161, 757)]",[],[1],[0.65],vertical,"(890.0, 762.0)",0.7,0.605,1,7942.479,3,0.0,same
0,716,valid,"[(1165, 776)]",[],[1],[0.85],horizontal,"(890.0, 262.0)",0.7666666666666666,nan,0,7948.729,0,0.0,same
0,717,invalid_adjacent_other_bar,"[(1123, 792)]",[],[1],[0.85],vertical,"(890.0, 762.0)",0.5,nan,0,7953.129,0,0.0,other
0,718,valid,"[(1089, 819)]",[],[1],[0.85],vertical,"(390.0, 762.0)",0.3833333333333333,nan,0,7958.505,0,0.0,same
0,719,catch,"[(1116, 778)]",[],[1],[],horizontal,"(390.0, 262.0)",1.7,nan,1,7963.662,1,0.0,same
0,720,valid,"[(1175, 772)]",[],[1],[0.6],vertical,"(890.0, 762.0)",1.45,0.554,1,7969.061,1,0.0,same
0,721,valid,"[(1161, 766)]",[],[1],[0.6833333333333333],vertical,"(890.0, 262.0)",0.5833333333333334,0.639,1,7974.522,1,0.0,same
0,722,valid,"[(1174, 774)]",[],[1],[0.6833333333333333],horizontal,"(390.0, 262.0)",0.8333333333333334,0.635,1,7979.213,2,0.0,same
0,723,valid,"[(1175, 774)]",[],[1],[0.5333333333333333],horizontal,"(390.0, 262.0)",0.9,0.492,1,7984.595,2,0.0,same
0,724,valid,"[(1166, 785)]",[],[1],[0.7166666666666667],horizontal,"(390.0, 762.0)",0.45,0.673,1,7990.329,2,0.0,same
0,725,catch,"[(1173, 779)]",[],[1],[],horizontal,"(890.0, 762.0)",1.7,nan,1,7995.446,3,0.0,same
0,726,catch,"[(1179, 758)]",[],[1],[],horizontal,"(390.0, 262.0)",1.7,nan,1,8001.649,3,0.0,same
0,727,invalid_same_bar,"[(1132, 820)]",[],[1],[0.6333333333333333],vertical,"(390.0, 262.0)",0.6833333333333333,0.594,1,8008.467,3,0.0,same
0,728,invalid_adjacent_other_bar,"[(1159, 767)]",[],[1],[0.85],vertical,"(390.0, 262.0)",0.6333333333333333,nan,0,8014.177,0,0.0,other
0,729,catch,"[(1137, 777)]",[],[1],[],horizontal,"(390.0, 762.0)",1.7,nan,1,8018.555,1,0.0,same
0,730,valid,"[(1157, 772)]",[],[1],[0.7833333333333333],vertical,"(390.0, 262.0)",1.3166666666666667,0.738,1,8024.173,1,0.0,same
0,731,valid,"[(1167, 772)]",[],[1],[0.4666666666666667],vertical,"(390.0, 262.0)",1.2833333333333332,0.425,1,8029.372,1,0.0,same
0,732,valid,"[(1136, 763)]",[],[1],[0.5666666666666667],vertical,"(390.0, 262.0)",0.9,0.529,1,8034.722,2,0.0,same
0,733,catch,"[(1150, 786)]",[],[1],[],horizontal,"(890.0, 762.0)",1.7,nan,1,8040.326,2,0.0,same
0,734,valid,"[(1166, 785)]",[],[1],[0.5833333333333334],horizontal,"(390.0, 762.0)",1.2833333333333332,0.542,1,8046.228,2,0.0,same
0,735,valid,"[(1159, 773)]",[],[1],[0.5333333333333333],horizontal,"(390.0, 262.0)",1.2,0.492,1,8052.413,3,0.0,same
0,736,catch,"[(1132, 772)]",[],[1],[],horizontal,"(890.0, 262.0)",1.7,nan,1,8058.71,3,0.0,same
0,737,valid,"[(1172, 771)]",[],[1],[0.75],horizontal,"(890.0, 262.0)",0.7,0.7,1,8064.246,3,0.0,same
0,738,valid,"[(1165, 781)]",[],[1],[0.65],horizontal,"(390.0, 762.0)",1.4,0.609,1,8069.908,3,0.0,same
0,739,invalid_same_bar,"[(1135, 788)]",[],[1],[0.85],vertical,"(890.0, 762.0)",1.3,nan,0,8076.379,0,0.0,same
0,740,valid,"[(1158, 782)]",[],[1],[0.6833333333333333],horizontal,"(890.0, 262.0)",0.7666666666666666,0.638,1,8082.026,1,0.0,same
0,741,invalid_adjacent_other_bar,"[(1175, 771)]",[],[1],[0.85],vertical,"(890.0, 762.0)",1.0666666666666667,nan,0,8087.407,0,0.0,other
0,742,valid,"[(1160, 773)]",[],[1],[0.85],horizontal,"(890.0, 762.0)",1.2166666666666666,nan,0,8092.233,0,0.0,same
0,743,valid,"[(1125, 780)]",[],[1],[0.48333333333333334],horizontal,"(890.0, 262.0)",1.2,0.454,1,8097.055,1,0.0,same
0,744,valid,"[(1177, 781)]",[],[1],[0.6],vertical,"(890.0, 262.0)",0.95,0.555,1,8102.171,1,0.0,same
0,745,catch,"[(1159, 777)]",[],[1],[],vertical,"(890.0, 262.0)",,"('cti', 1.525),nan",0,8107.121,0,0.02,same
0,746,valid,"[(1127, 772)]",[],[1],[0.65],horizontal,"(390.0, 262.0)",0.3833333333333333,0.605,1,8112.061,1,0.02,same
0,747,catch,"[(1164, 802)]",[],[1],[],horizontal,"(390.0, 262.0)",,"('cti', 1.297),nan",0,8116.921,0,0.04,same
0,748,valid,"[(1158, 832)]",[],[1],[0.85],vertical,"(390.0, 762.0)",0.3833333333333333,nan,0,8122.17,0,0.04,same
0,749,valid,"[(1135, 791)]",[],[1],[0.4],vertical,"(390.0, 762.0)",0.75,0.355,1,8215.712,1,0.04,same
0,750,valid,"[(1175, 766)]",[],[1],[0.6166666666666667],horizontal,"(890.0, 762.0)",0.7666666666666666,0.579,1,8220.813,1,0.04,same
0,751,valid,"[(1165, 806)]",[],[1],[0.5666666666666667],vertical,"(890.0, 262.0)",1.1666666666666667,0.524,1,8225.545,1,0.04,same
0,752,invalid_same_bar,"[(1162, 781)]",[],[1],[0.85],horizontal,"(390.0, 762.0)",1.3,nan,0,8230.578,0,0.04,same
0,753,valid,"[(1135, 804)]",[],[1],[0.6666666666666666],horizontal,"(890.0, 262.0)",0.7333333333333333,0.618,1,8235.525,1,0.04,same
0,754,invalid_same_bar,"[(1194, 774)]",[],[1],[0.5333333333333333],vertical,"(390.0, 762.0)",0.5166666666666666,0.486,1,8240.408,1,0.04,same
0,755,valid,"[(1135, 788)]",[],[1],[0.7333333333333333],horizontal,"(390.0, 762.0)",0.9,0.69,1,8244.927,1,0.04,same
0,756,valid,"[(1162, 776)]",[],[1],[0.6],vertical,"(390.0, 262.0)",1.4333333333333333,0.561,1,8249.745,2,0.04,same
0,757,valid,"[(1182, 766)]",[],[1],[0.85],horizontal,"(890.0, 262.0)",0.35,nan,0,8255.846,0,0.04,same
0,758,valid,"[(1123, 823)]",[],[1],[0.6],vertical,"(890.0, 262.0)",0.7666666666666666,0.564,1,8259.704,1,0.04,same
0,759,valid,"[(1160, 772)]",[],[1],[0.45],horizontal,"(890.0, 762.0)",1.5333333333333332,0.417,1,8305.484,1,0.04,same
0,760,valid,"[(1189, 767)]",[],[1],[0.48333333333333334],vertical,"(390.0, 262.0)",1.0333333333333332,0.445,1,8310.901,1,0.04,same
0,761,invalid_same_bar,"[(1164, 786)]",[],[1],[0.5166666666666666],vertical,"(890.0, 262.0)",1.5166666666666666,0.474,1,8315.78,2,0.04,same
0,762,valid,"[(1190, 765)]",[],[1],[0.25],horizontal,"(390.0, 262.0)",1.0333333333333332,0.213,1,8321.716,2,0.04,same
0,763,valid,"[(1168, 786)]",[],[1],[0.5],vertical,"(390.0, 762.0)",0.8666666666666667,0.458,1,8327.229,2,0.04,same
0,764,invalid_same_bar,"[(1170, 786)]",[],[1],[0.85],vertical,"(890.0, 762.0)",0.55,nan,0,8332.585,0,0.04,same
0,765,valid,"[(1110, 809)]",[],[1],[0.55],vertical,"(390.0, 262.0)",1.35,0.51,1,8337.212,1,0.04,same
0,766,valid,"[(1178, 797)]",[],[1],[0.5666666666666667],horizontal,"(890.0, 762.0)",0.7,0.527,1,8348.945,1,0.04,same
0,767,catch,"[(1139, 786)]",[],[1],[],horizontal,"(390.0, 762.0)",1.7,nan,1,8353.63,1,0.04,same
0,768,catch,"[(1194, 781)]",[],[1],[],horizontal,"(390.0, 762.0)",1.7,nan,1,8358.863,2,0.04,same
0,769,valid,"[(1194, 791)]",[],[1],[0.7333333333333333],horizontal,"(390.0, 262.0)",1.15,0.687,1,8364.613,2,0.04,same
0,770,valid,"[(1149, 772)]",[],[1],[0.48333333333333334],horizontal,"(390.0, 262.0)",0.6666666666666666,0.45,1,8370.411,2,0.04,same
0,771,invalid_same_bar,"[(1166, 784)]",[],[1],[0.6833333333333333],horizontal,"(390.0, 762.0)",0.9166666666666666,0.638,1,8375.244,3,0.04,same
0,772,valid,"[(1175, 774)]",[],[1],[0.85],horizontal,"(390.0, 262.0)",0.6333333333333333,nan,0,8381.313,0,0.04,same
0,773,invalid_same_bar,"[(1134, 772)]",[],[1],[0.4666666666666667],horizontal,"(390.0, 762.0)",0.8833333333333333,0.426,1,8385.772,1,0.04,same
0,774,valid,"[(1131, 801)]",[],[1],[0.5],vertical,"(390.0, 262.0)",1.45,0.465,1,8390.896,1,0.04,same
0,775,valid,"[(1156, 802)]",[],[1],[0.7],horizontal,"(390.0, 262.0)",0.9666666666666667,0.659,1,8447.063,1,0.04,same
0,776,valid,"[(1166, 781)]",[],[1],[0.55],vertical,"(390.0, 262.0)",0.35,0.515,1,8452.713,2,0.04,same
0,777,valid,"[(1210, 790)]",[],[1],[0.5333333333333333],horizontal,"(390.0, 262.0)",1.3,0.491,1,8457.425,2,0.04,same
0,778,catch,"[(1156, 772)]",[],[1],[],horizontal,"(390.0, 262.0)",,"('cti', 0.95),nan",0,8463.212,0,0.06,same
0,779,catch,"[(1137, 802)]",[],[1],[],horizontal,"(390.0, 762.0)",1.7,nan,1,8467.497,1,0.06,same
0,780,valid,"[(1182, 755)]",[],[1],[0.5666666666666667],horizontal,"(890.0, 762.0)",0.6666666666666666,0.534,1,8472.845,1,0.06,same
0,781,valid,"[(1171, 751), (1121, 819)]",[],"[0, 1]",[0.5166666666666666],vertical,"(390.0, 762.0)",1.1666666666666667,0.482,1,8477.612,1,0.06,same
0,782,valid,"[(1159, 800)]",[],[1],[0.6],horizontal,"(890.0, 762.0)",0.95,0.56,1,8483.561,2,0.06,same
0,783,valid,"[(1102, 775)]",[],[1],[0.5333333333333333],horizontal,"(890.0, 762.0)",1.0166666666666666,0.498,1,8488.998,2,0.06,same
0,784,catch,"[(1186, 763)]",[],[1],[],vertical,"(890.0, 262.0)",1.7,nan,1,8508.688,2,0.06,same
0,785,valid,"[(1175, 767)]",[],[1],[0.43333333333333335],horizontal,"(390.0, 762.0)",1.4166666666666667,0.396,1,8514.498,3,0.06,same
0,786,valid,"[(1142, 810)]",[],[1],[0.4666666666666667],horizontal,"(390.0, 762.0)",1.5333333333333332,0.436,1,8520.896,3,0.06,same
0,787,catch,"[(1175, 780)]",[],[1],[],vertical,"(890.0, 262.0)",1.7,nan,1,8528.481,3,0.06,same
0,788,valid,"[(1180, 771)]",[],[1],[0.6166666666666667],vertical,"(890.0, 762.0)",0.7666666666666666,0.575,1,8534.615,3,0.06,same
0,789,valid,"[(1166, 752), (1140, 834)]",[],"[0, 1]",[0.43333333333333335],vertical,"(390.0, 262.0)",1.2666666666666666,0.39,1,8540.002,3,0.06,same
0,790,valid,"[(1185, 781)]",[],[1],[],horizontal,"(390.0, 262.0)",,"('cti', 0.182)",0,8547.563,0,0.06,same
0,791,valid,"[(1170, 786)]",[],[1],[0.5],horizontal,"(890.0, 262.0)",1.1166666666666667,0.465,1,8550.547,1,0.06,same
0,792,valid,"[(1190, 760)]",[],[1],[0.6166666666666667],horizontal,"(890.0, 762.0)",1.1666666666666667,0.575,1,8555.496,1,0.06,same
0,793,catch,"[(1165, 749), (1139, 816)]",[],"[0, 1]",[],vertical,"(390.0, 762.0)",1.7,nan,1,8560.88,1,0.06,same
0,794,catch,"[(1200, 774)]",[],[1],[],vertical,"(390.0, 762.0)",,"('cti', 0.82),nan",0,8567.063,0,0.08,same
0,795,valid,"[(1143, 769)]",[],[1],[0.5833333333333334],horizontal,"(890.0, 762.0)",0.48333333333333334,0.545,1,8570.803,1,0.06,same
0,796,valid,"[(1181, 791)]",[],[1],[0.85],horizontal,"(890.0, 762.0)",0.6,nan,0,8575.582,0,0.06,same
0,797,invalid_adjacent_other_bar,"[(1170, 772)]",[],[1],[0.5],vertical,"(390.0, 262.0)",0.48333333333333334,0.466,1,8579.863,1,0.04,other
0,798,catch,"[(1185, 771)]",[],[1],[],horizontal,"(390.0, 262.0)",,"('cti', 1.205),nan",0,8584.563,0,0.06,same
0,799,valid,"[(1170, 804)]",[],[1],[0.3],vertical,"(390.0, 762.0)",1.5333333333333332,0.267,1,8588.964,1,0.06,same
0,800,catch,"[(1185, 756)]",[],[1],[],vertical,"(390.0, 262.0)",1.7,nan,1,8594.414,1,0.06,same
0,801,valid,"[(1202, 752), (1130, 796)]",[],"[0, 1]",[0.55],vertical,"(390.0, 262.0)",0.5333333333333333,0.51,1,8599.314,1,0.06,same
0,802,valid,"[(1171, 763)]",[],[1],[0.6333333333333333],vertical,"(390.0, 762.0)",0.7666666666666666,0.597,1,8605.242,2,0.06,same
0,803,catch,"[(1193, 767)]",[],[1],[],vertical,"(890.0, 762.0)",1.7,nan,1,8610.68,2,0.06,same
0,804,valid,"[(1190, 765)]",[],[1],[0.85],horizontal,"(390.0, 762.0)",0.7666666666666666,nan,0,8616.513,0,0.06,same
0,805,valid,"[(1170, 760)]",[],[1],[0.6333333333333333],horizontal,"(390.0, 262.0)",0.8833333333333333,0.601,1,8621.255,1,0.06,same
0,806,catch,"[(1180, 766)]",[],[1],[],vertical,"(390.0, 762.0)",1.7,nan,1,8626.75,1,0.06,same
0,807,valid,"[(1183, 754)]",[],[1],[0.5166666666666666],horizontal,"(890.0, 762.0)",0.35,0.477,1,8631.842,1,0.06,same
0,808,catch,"[(1193, 760)]",[],[1],[],horizontal,"(890.0, 262.0)",1.7,nan,1,8636.204,2,0.06,same
0,809,valid,"[(1175, 769)]",[],[1],[0.5166666666666666],vertical,"(390.0, 762.0)",1.3333333333333333,0.474,1,8641.696,2,0.06,same
0,810,valid,"[(1143, 764)]",[],[1],[0.6333333333333333],vertical,"(890.0, 262.0)",0.8166666666666667,0.597,1,8647.296,2,0.06,same
0,811,valid,"[(1202, 780)]",[],[1],[0.6666666666666666],vertical,"(890.0, 262.0)",1.1666666666666667,0.626,1,8652.412,3,0.06,same
0,812,catch,"[(1170, 758)]",[],[1],[],horizontal,"(390.0, 762.0)",1.7,nan,1,8658.978,3,0.06,same
0,813,valid,"[(1170, 765)]",[],[1],[0.6333333333333333],vertical,"(390.0, 262.0)",1.3833333333333333,0.59,1,8664.93,3,0.06,same
0,814,valid,"[(1185, 787)]",[],[1],[0.6333333333333333],vertical,"(390.0, 762.0)",1.1166666666666667,0.601,1,8670.919,3,0.06,same
0,815,valid,"[(1188, 769)]",[],[1],[0.5333333333333333],vertical,"(890.0, 762.0)",1.4166666666666667,0.495,1,8676.964,3,0.06,same
0,816,valid,"[(1185, 766)]",[],[1],[0.5333333333333333],vertical,"(890.0, 262.0)",1.25,0.491,1,8683.297,3,0.06,same
0,817,valid,"[(1182, 767)]",[],[1],[0.5166666666666666],vertical,"(890.0, 762.0)",0.7833333333333333,0.485,1,8689.748,3,0.06,same
0,818,valid,"[(1170, 762)]",[],[1],[0.85],vertical,"(890.0, 762.0)",1.0333333333333332,nan,0,8695.136,0,0.06,same
0,819,valid,"[(1131, 753), (1121, 822)]",[],"[0, 1]",[0.7],vertical,"(890.0, 762.0)",1.5166666666666666,0.667,1,8699.528,1,0.06,same
0,820,catch,"[(1165, 770)]",[],[1],[],horizontal,"(890.0, 762.0)",1.7,nan,1,8706.765,1,0.06,same
0,821,catch,"[(1115, 795)]",[],[1],[],horizontal,"(390.0, 762.0)",1.7,nan,1,8711.796,1,0.06,same
0,822,valid,"[(1166, 788)]",[],[1],[0.6333333333333333],vertical,"(890.0, 262.0)",0.9666666666666667,0.587,1,8728.147,2,0.06,same
0,823,valid,"[(1190, 765)]",[],[1],[0.85],horizontal,"(390.0, 762.0)",0.6166666666666667,nan,0,8733.765,0,0.06,same
0,824,catch,"[(1164, 772)]",[],[1],[],vertical,"(890.0, 762.0)",1.7,nan,1,8737.931,1,0.06,same
0,825,catch,"[(1173, 772)]",[],[1],[],horizontal,"(890.0, 762.0)",1.7,nan,1,8743.276,1,0.06,same
0,826,valid,"[(1190, 754)]",[],[1],[0.5166666666666666],vertical,"(890.0, 262.0)",0.5,0.478,1,8748.454,1,0.06,same
0,827,valid,"[(1185, 762)]",[],[1],[0.55],vertical,"(890.0, 262.0)",1.4666666666666666,0.511,1,8753.059,2,0.06,same
0,828,valid,"[(1165, 767)]",[],[1],[0.5166666666666666],vertical,"(890.0, 762.0)",0.8333333333333334,0.485,1,8758.898,2,0.04,same
0,829,valid,"[(1186, 777)]",[],[1],[0.6166666666666667],horizontal,"(390.0, 262.0)",0.85,0.585,1,8764.047,2,0.04,same
0,830,invalid_adjacent_other_bar,"[(1173, 765)]",[],[1],[0.55],vertical,"(890.0, 762.0)",1.0666666666666667,0.512,1,8769.21,3,0.04,other
0,831,valid,"[(1167, 756)]",[],[1],[0.5833333333333334],horizontal,"(890.0, 762.0)",1.2333333333333334,0.538,1,8774.846,3,0.04,same
0,832,catch,"[(1185, 764)]",[],[1],[],vertical,"(890.0, 262.0)",1.7,nan,1,8780.964,3,0.04,same
0,833,valid,"[(1210, 774)]",[],[1],[0.55],vertical,"(890.0, 762.0)",1.1166666666666667,0.506,1,8787.215,3,0.04,same
0,834,catch,"[(1185, 770)]",[],[1],[],vertical,"(390.0, 762.0)",1.7,nan,1,8792.837,3,0.04,same
0,835,valid,"[(1162, 757)]",[],[1],[0.5666666666666667],horizontal,"(890.0, 262.0)",1.2,0.531,1,8799.227,3,0.04,same
0,836,catch,"[(1185, 757)]",[],[1],[],horizontal,"(890.0, 262.0)",1.7,nan,1,8805.264,3,0.04,same
0,837,valid,"[(1166, 766)]",[],[1],[0.5666666666666667],horizontal,"(390.0, 762.0)",0.6833333333333333,0.523,1,8811.165,3,0.04,same
0,838,valid,"[(1181, 778)]",[],[1],[0.7166666666666667],horizontal,"(890.0, 762.0)",0.9,0.685,1,8816.432,3,0.04,same
0,839,invalid_adjacent_other_bar,"[(1165, 776)]",[],[1],[0.65],horizontal,"(390.0, 262.0)",0.8833333333333333,0.618,1,8822.298,3,0.04,other
0,840,invalid_adjacent_other_bar,"[(1169, 766)]",[],[1],[0.5333333333333333],vertical,"(390.0, 262.0)",0.8833333333333333,0.498,1,8828.026,3,0.04,other
0,841,catch,"[(1177, 775)]",[],[1],[],horizontal,"(890.0, 762.0)",1.7,nan,1,8834.164,3,0.04,same
0,842,catch,"[(1165, 775)]",[],[1],[],horizontal,"(890.0, 762.0)",1.7,nan,1,8840.147,3,0.04,same
0,843,catch,"[(1188, 782)]",[],[1],[],vertical,"(390.0, 762.0)",1.7,nan,1,8846.065,3,0.04,same
0,844,valid,"[(1165, 760)]",[],[1],[0.85],horizontal,"(390.0, 262.0)",0.7333333333333333,nan,0,8852.032,0,0.02,same
0,845,valid,"[(1136, 756)]",[],[1],[0.5333333333333333],vertical,"(390.0, 762.0)",0.9166666666666666,0.495,1,8856.436,1,0.02,same
0,846,catch,"[(1175, 759)]",[],[1],[],horizontal,"(890.0, 262.0)",1.7,nan,1,8861.029,1,0.02,same
0,847,valid,"[(1180, 756)]",[],[1],[0.4666666666666667],vertical,"(390.0, 762.0)",1.4,0.434,1,8866.319,1,0.02,same
0,848,invalid_same_bar,"[(1170, 755)]",[],[1],[0.5333333333333333],horizontal,"(390.0, 762.0)",1.4,0.496,1,8871.831,2,0.0,same
0,849,valid,"[(1171, 781)]",[],[1],[0.5166666666666666],horizontal,"(890.0, 762.0)",1.2,0.477,1,8878.066,2,0.0,same
0,850,valid,"[(1170, 761)]",[],[1],[0.48333333333333334],vertical,"(390.0, 262.0)",1.4666666666666666,0.449,1,8883.842,2,0.0,same
0,851,catch,"[(1165, 764)]",[],[1],[],horizontal,"(890.0, 762.0)",1.7,nan,1,8889.899,3,0.0,same
0,852,valid,"[(1168, 775)]",[],[1],[0.65],vertical,"(390.0, 262.0)",1.3666666666666667,0.612,1,8896.081,3,0.0,same
0,853,catch,"[(1165, 764)]",[],[1],[],horizontal,"(890.0, 262.0)",1.7,nan,1,8902.197,3,0.0,same
0,854,valid,"[(1190, 761)]",[],[1],[0.5],horizontal,"(890.0, 262.0)",0.8166666666666667,0.459,1,8908.432,3,0.0,same
0,855,catch,"[(1191, 775)]",[],[1],[],horizontal,"(890.0, 262.0)",1.7,nan,1,8914.051,3,0.0,same
0,856,invalid_adjacent_other_bar,"[(1188, 780)]",[],[1],[0.6],horizontal,"(890.0, 262.0)",0.5833333333333334,0.561,1,8920.104,3,0.0,other
0,857,valid,"[(1190, 776)]",[],[1],[0.6166666666666667],horizontal,"(390.0, 262.0)",1.4,0.579,1,8925.899,3,0.0,same
0,858,valid,"[(1190, 770)]",[],[1],[0.55],horizontal,"(890.0, 762.0)",1.2,0.511,1,8932.464,3,0.0,same
0,859,invalid_same_bar,"[(1188, 778)]",[],[1],[0.85],vertical,"(890.0, 762.0)",0.9833333333333333,nan,0,8938.132,0,0.0,same
0,860,valid,"[(1163, 762)]",[],[1],[0.6],horizontal,"(390.0, 262.0)",1.5,0.554,1,8943.449,1,0.0,same
0,861,catch,"[(1138, 800)]",[],[1],[],vertical,"(390.0, 262.0)",1.7,nan,1,8949.264,1,0.0,same
