block,practice,trial,taps_start_loc_during_fix,taps_end_loc_during_fix,taps_on_lever_during_fix,taps_on_lever_s_during_fix,bar_orientation,target_xy,cti,rt,acc,time
1,True,1,"[(1069, 829)]",[],[1],[0.1],vertical,"(390.0, 762.0)",1.6166666666666667,0.067,1,0.413
1,True,2,"[(1069, 825)]",[],[1],[0.43333333333333335],horizontal,"(390.0, 262.0)",1.1333333333333333,0.396,1,6.907
1,True,3,"[(1069, 823)]",[],[1],[],vertical,"(890.0, 762.0)",,fix_phase,0,29.025
1,True,4,"[(1069, 823)]",[],[1],[0.5833333333333334],horizontal,"(390.0, 762.0)",1.5166666666666666,0.541,1,34.929
1,False,1,"[(1069, 823)]",[],[1],[0.43333333333333335],vertical,"(890.0, 262.0)",1.25,0.395,1,39.752
1,False,2,"[(1069, 823)]",[],[1],[0.45],horizontal,"(890.0, 262.0)",0.8166666666666667,0.409,1,45.928
1,False,3,"[(1076, 899)]",[],[1],[0.85],vertical,"(390.0, 262.0)",1.0,0.808,0,51.844
1,False,4,"[(1076, 859)]",[],[1],[0.85],horizontal,"(390.0, 262.0)",0.5166666666666666,0.801,0,440.944
1,False,5,"[(1075, 859)]",[],[1],[0.7],horizontal,"(890.0, 262.0)",1.3833333333333333,0.656,1,446.598
1,False,6,"[(1048, 890)]",[],[1],[0.5],vertical,"(390.0, 762.0)",1.65,0.455,1,452.161
1,False,7,"[(1057, 891)]",[],[1],[0.6333333333333333],horizontal,"(890.0, 762.0)",0.7333333333333333,0.595,1,457.93
1,False,8,"[(1063, 890)]",[],[1],[0.48333333333333334],horizontal,"(890.0, 262.0)",1.5333333333333332,0.444,1,462.311
1,False,9,"[(1059, 863)]",[],[1],[0.5333333333333333],vertical,"(390.0, 262.0)",1.55,0.494,1,467.413
1,False,10,"[(1052, 879)]",[],[1],[0.6166666666666667],vertical,"(890.0, 262.0)",1.4,0.575,1,472.719
1,False,11,"[(1044, 881)]",[],[1],[0.5333333333333333],horizontal,"(890.0, 262.0)",0.9833333333333333,0.488,1,477.543
1,False,12,"[(1052, 898)]",[],[1],[0.6833333333333333],vertical,"(390.0, 262.0)",1.3166666666666667,0.645,1,482.715
1,False,13,"[(1054, 894)]",[],[1],[0.5166666666666666],horizontal,"(390.0, 262.0)",0.7166666666666667,0.485,1,487.916
1,False,14,"[(1071, 863)]",[],[1],[0.5666666666666667],horizontal,"(890.0, 762.0)",1.2166666666666666,0.535,1,492.42
1,False,15,"[(1061, 900)]",[],[1],[0.5666666666666667],vertical,"(890.0, 762.0)",1.6833333333333333,0.529,1,497.194
1,False,16,"[(1072, 886)]",[],[1],[0.5333333333333333],vertical,"(390.0, 762.0)",1.05,0.497,1,502.654
1,False,17,"[(1057, 890)]",[],[1],[0.5666666666666667],vertical,"(390.0, 762.0)",0.5166666666666666,0.53,1,507.271
1,False,18,"[(1038, 892)]",[],[1],[0.6166666666666667],horizontal,"(890.0, 762.0)",1.2,0.574,1,511.818
1,False,19,"[(1059, 893)]",[],[1],[0.6166666666666667],vertical,"(890.0, 262.0)",0.65,0.574,1,516.68
1,False,20,"[(1057, 903)]",[],[1],[0.6666666666666666],vertical,"(890.0, 262.0)",0.7666666666666666,0.63,1,520.963
1,False,21,"[(1076, 902)]",[],[1],[0.6],vertical,"(890.0, 762.0)",0.7,0.555,1,525.583
1,False,22,"[(1039, 905)]",[],[1],[0.5666666666666667],vertical,"(890.0, 262.0)",0.9333333333333333,0.54,1,530.185
1,False,23,"[(1065, 876)]",[],[1],[0.5666666666666667],vertical,"(890.0, 762.0)",1.2666666666666666,0.529,1,535.076
1,False,24,"[(1063, 855)]",[],[1],[0.55],vertical,"(890.0, 762.0)",1.0666666666666667,0.509,1,539.858
1,False,25,"[(1042, 897)]",[],[1],[0.75],vertical,"(890.0, 762.0)",1.0333333333333332,0.703,1,544.56
1,False,26,"[(1076, 892)]",[],[1],[0.85],horizontal,"(390.0, 762.0)",0.7,0.803,0,549.153
1,False,27,"[(1047, 899)]",[],[1],[0.55],vertical,"(890.0, 262.0)",0.9,0.513,1,553.569
1,False,28,"[(1057, 895)]",[],[1],[0.6],vertical,"(890.0, 262.0)",0.5166666666666666,0.557,1,558.722
1,False,29,"[(1047, 895)]",[],[1],[0.6333333333333333],vertical,"(390.0, 762.0)",0.9,0.592,1,562.666
1,False,30,"[(1039, 879)]",[],[1],[0.5166666666666666],horizontal,"(890.0, 262.0)",0.95,0.477,1,566.875
1,False,31,"[(1042, 878)]",[],[1],[0.43333333333333335],horizontal,"(390.0, 262.0)",1.4,0.398,1,571.762
1,False,32,"[(1035, 908)]",[],[1],[0.6],vertical,"(390.0, 762.0)",1.5,0.562,1,576.696
1,False,33,"[(1036, 880)]",[],[1],[0.5833333333333334],horizontal,"(390.0, 762.0)",1.4333333333333333,0.541,1,581.944
1,False,34,"[(1042, 893)]",[],[1],[0.6],horizontal,"(890.0, 762.0)",1.0166666666666666,0.558,1,587.409
1,False,35,"[(1047, 880)]",[],[1],[0.55],vertical,"(890.0, 262.0)",1.5833333333333333,0.51,1,592.111
1,False,36,"[(1048, 886)]",[],[1],[0.6666666666666666],horizontal,"(390.0, 762.0)",1.0333333333333332,0.621,1,597.309
1,False,37,"[(1017, 887)]",[],[1],[0.6166666666666667],horizontal,"(890.0, 762.0)",1.5166666666666666,0.578,1,602.015
1,False,38,"[(1042, 898)]",[],[1],[0.5333333333333333],horizontal,"(890.0, 262.0)",1.4,0.49,1,607.699
1,False,39,"[(1017, 881)]",[],[1],[0.5333333333333333],vertical,"(890.0, 262.0)",1.1333333333333333,0.499,1,613.262
1,False,40,"[(1053, 884)]",[],[1],[0.5833333333333334],vertical,"(890.0, 762.0)",1.0833333333333333,0.545,1,617.728
1,False,41,"[(1035, 892)]",[],[1],[0.55],vertical,"(390.0, 262.0)",0.7,0.508,1,622.549
1,False,42,"[(1076, 886)]",[],[1],[0.6],horizontal,"(890.0, 762.0)",1.5666666666666667,0.551,1,626.726
1,False,43,"[(1024, 893)]",[],[1],[0.6],horizontal,"(890.0, 762.0)",1.0166666666666666,0.551,1,631.68
1,False,44,"[(1038, 887)]",[],[1],[0.55],vertical,"(890.0, 762.0)",1.4666666666666666,0.508,1,636.345
1,False,45,"[(1040, 888)]",[],[1],[0.6],vertical,"(890.0, 262.0)",0.8833333333333333,0.554,1,641.661
1,False,46,"[(1076, 885)]",[],[1],[0.5666666666666667],vertical,"(890.0, 262.0)",1.05,0.521,1,646.129
1,False,47,"[(1053, 893)]",[],[1],[0.7],vertical,"(890.0, 262.0)",1.1333333333333333,0.666,1,650.439
1,False,48,"[(1058, 901)]",[],[1],[0.6],vertical,"(390.0, 262.0)",0.9666666666666667,0.559,1,655.529
1,False,49,"[(1052, 910)]",[],[1],[0.5666666666666667],horizontal,"(390.0, 262.0)",0.9,0.522,1,660.161
1,False,50,"[(1053, 889)]",[],[1],[0.6],vertical,"(390.0, 262.0)",1.05,0.554,1,664.812
1,False,51,"[(1014, 895)]",[],[1],[0.75],vertical,"(890.0, 762.0)",1.6833333333333333,0.704,1,669.55
1,False,52,"[(1033, 894)]",[],[1],[0.5666666666666667],horizontal,"(390.0, 262.0)",1.0166666666666666,0.522,1,675.108
1,False,53,"[(1023, 883)]",[],[1],[0.5833333333333334],horizontal,"(890.0, 262.0)",1.1166666666666667,0.54,1,679.729
1,False,54,"[(1042, 896)]",[],[1],[0.6166666666666667],vertical,"(890.0, 762.0)",1.6666666666666667,0.573,1,684.873
1,False,55,"[(1042, 893)]",[],[1],[0.5],horizontal,"(890.0, 262.0)",0.9166666666666666,0.462,1,689.996
1,False,56,"[(1048, 899)]",[],[1],[0.7166666666666667],vertical,"(390.0, 762.0)",1.1833333333333333,0.668,1,694.679
1,False,57,"[(1042, 891)]",[],[1],[0.5833333333333334],horizontal,"(390.0, 762.0)",0.7,0.538,1,699.445
1,False,58,"[(1062, 909)]",[],[1],[0.6],vertical,"(390.0, 262.0)",1.3166666666666667,0.566,1,704.144
1,False,59,"[(1042, 893)]",[],[1],[0.5666666666666667],vertical,"(890.0, 762.0)",1.0666666666666667,0.527,1,709.267
1,False,60,"[(1038, 894)]",[],[1],[0.55],horizontal,"(390.0, 262.0)",0.5833333333333334,0.516,1,713.625
2,False,61,"[(1056, 910)]",[],[1],[0.5666666666666667],vertical,"(890.0, 262.0)",1.3333333333333333,0.525,1,718.1
2,False,62,"[(1023, 901)]",[],[1],[0.6],horizontal,"(390.0, 762.0)",1.4666666666666666,0.555,1,722.864
2,False,63,"[(1048, 892)]",[],[1],[0.6166666666666667],horizontal,"(890.0, 762.0)",0.7666666666666666,0.578,1,727.828
2,False,64,"[(1047, 893)]",[],[1],[0.6166666666666667],horizontal,"(390.0, 762.0)",0.7833333333333333,0.572,1,732.424
2,False,65,"[(1053, 888)]",[],[1],[0.5833333333333334],vertical,"(390.0, 762.0)",1.25,0.535,1,736.745
2,False,66,"[(1056, 880)]",[],[1],[0.5166666666666666],horizontal,"(390.0, 262.0)",1.0666666666666667,0.478,1,741.625
2,False,67,"[(1051, 900)]",[],[1],[0.5666666666666667],horizontal,"(890.0, 262.0)",1.0,0.522,1,746.35
2,False,68,"[(1052, 894)]",[],[1],[0.55],horizontal,"(390.0, 762.0)",1.6,0.507,1,751.471
2,False,69,"[(1052, 887)]",[],[1],[0.5333333333333333],horizontal,"(390.0, 262.0)",1.2,0.492,1,756.792
2,False,70,"[(1052, 889)]",[],[1],[0.5666666666666667],horizontal,"(390.0, 262.0)",0.6833333333333333,0.529,1,761.6
2,False,71,"[(1052, 891)]",[],[1],[0.5833333333333334],vertical,"(390.0, 262.0)",1.4333333333333333,0.54,1,765.592
2,False,72,"[(1023, 867)]",[],[1],[0.5166666666666666],horizontal,"(890.0, 762.0)",0.7666666666666666,0.483,1,770.512
2,False,73,"[(1039, 895)]",[],[1],[0.7],horizontal,"(390.0, 762.0)",0.6833333333333333,0.655,1,774.599
2,False,74,"[(1042, 894)]",[],[1],[0.8],vertical,"(390.0, 262.0)",1.6166666666666667,0.767,1,779.512
2,False,75,"[(1071, 888)]",[],[1],[0.6],horizontal,"(890.0, 762.0)",1.1666666666666667,0.559,1,785.229
2,False,76,"[(1028, 899)]",[],[1],[0.43333333333333335],vertical,"(390.0, 262.0)",1.1666666666666667,0.397,1,790.278
2,False,77,"[(1052, 895)]",[],[1],[0.6833333333333333],vertical,"(890.0, 262.0)",1.3166666666666667,0.641,1,794.667
2,False,78,"[(1018, 882)]",[],[1],[0.6],horizontal,"(390.0, 262.0)",0.9333333333333333,0.565,1,799.641
2,False,79,"[(1050, 897)]",[],[1],[0.5833333333333334],vertical,"(890.0, 762.0)",1.6,0.54,1,804.211
2,False,80,"[(1062, 907)]",[],[1],[0.55],horizontal,"(890.0, 762.0)",0.75,0.511,1,809.383
2,False,81,"[(1045, 897)]",[],[1],[0.5666666666666667],vertical,"(390.0, 262.0)",1.4666666666666666,0.524,1,814.165
2,False,82,"[(1028, 893)]",[],[1],[0.5333333333333333],vertical,"(890.0, 262.0)",1.3,0.49,1,819.392
2,False,83,"[(1075, 889)]",[],[1],[0.5333333333333333],vertical,"(390.0, 262.0)",1.15,0.499,1,824.188
2,False,84,"[(1052, 889)]",[],[1],[0.5833333333333334],horizontal,"(390.0, 262.0)",1.0333333333333332,0.539,1,829.449
2,False,85,"[(1065, 890)]",[],[1],[0.5833333333333334],horizontal,"(390.0, 262.0)",1.0666666666666667,0.546,1,833.757
2,False,86,"[(1066, 898)]",[],[1],[0.6],vertical,"(890.0, 262.0)",1.6833333333333333,0.556,1,838.348
2,False,87,"[(1030, 895)]",[],[1],[0.7],horizontal,"(390.0, 762.0)",1.4,0.661,1,843.41
2,False,88,"[(1039, 893)]",[],[1],[0.55],vertical,"(390.0, 262.0)",1.0166666666666666,0.507,1,848.278
2,False,89,"[(1057, 883)]",[],[1],[0.6],vertical,"(390.0, 762.0)",1.2666666666666666,0.557,1,853.117
2,False,90,"[(1026, 898)]",[],[1],[0.5166666666666666],vertical,"(890.0, 262.0)",1.3166666666666667,0.478,1,857.977
2,False,91,"[(1023, 893)]",[],[1],[0.65],horizontal,"(390.0, 262.0)",0.7833333333333333,0.607,1,862.94
2,False,92,"[(1048, 897)]",[],[1],[0.6166666666666667],vertical,"(890.0, 762.0)",0.5,0.572,1,866.944
2,False,93,"[(1038, 895)]",[],[1],[0.7333333333333333],horizontal,"(390.0, 762.0)",0.8666666666666667,0.691,1,870.883
2,False,94,"[(1042, 917)]",[],[1],[0.5666666666666667],vertical,"(890.0, 262.0)",1.25,0.526,1,875.442
2,False,95,"[(1065, 885)]",[],[1],[0.5833333333333334],horizontal,"(890.0, 262.0)",0.6166666666666667,0.543,1,880.906
2,False,96,"[(1035, 866)]",[],[1],[0.45],vertical,"(390.0, 262.0)",1.6833333333333333,0.411,1,885.001
2,False,97,"[(1023, 909)]",[],[1],[0.55],horizontal,"(390.0, 262.0)",1.1166666666666667,0.518,1,890.246
2,False,98,"[(1053, 895)]",[],[1],[0.6333333333333333],vertical,"(890.0, 762.0)",1.3666666666666667,0.593,1,895.154
2,False,99,"[(1028, 892)]",[],[1],[0.6],horizontal,"(390.0, 762.0)",0.7166666666666667,0.562,1,899.928
2,False,100,"[(1011, 893)]",[],[1],[0.55],horizontal,"(390.0, 262.0)",0.9166666666666666,0.51,1,904.298
2,False,101,"[(1041, 892)]",[],[1],[0.5666666666666667],horizontal,"(390.0, 762.0)",0.8166666666666667,0.523,1,909.056
2,False,102,"[(1052, 883)]",[],[1],[0.55],vertical,"(390.0, 262.0)",1.3833333333333333,0.514,1,913.85
2,False,103,"[(1018, 890)]",[],[1],[0.5666666666666667],horizontal,"(390.0, 762.0)",1.1,0.527,1,918.416
2,False,104,"[(1071, 889)]",[],[1],[0.65],horizontal,"(890.0, 762.0)",1.3666666666666667,0.611,1,922.949
2,False,105,"[(1009, 872)]",[],[1],[0.55],vertical,"(390.0, 262.0)",1.3166666666666667,0.511,1,928.354
2,False,106,"[(1044, 881)]",[],[1],[0.5666666666666667],vertical,"(890.0, 262.0)",1.1666666666666667,0.523,1,933.298
2,False,107,"[(1047, 904)]",[],[1],[0.6],vertical,"(890.0, 762.0)",1.3,0.561,1,938.193
2,False,108,"[(1038, 876)]",[],[1],[0.5833333333333334],vertical,"(390.0, 762.0)",0.6,0.545,1,942.944
2,False,109,"[(1059, 893)]",[],[1],[0.5333333333333333],horizontal,"(890.0, 262.0)",1.1166666666666667,0.495,1,947.317
2,False,110,"[(1076, 884)]",[],[1],[0.5333333333333333],horizontal,"(890.0, 262.0)",0.5166666666666666,0.493,1,951.627
2,False,111,"[(1010, 895)]",[],[1],[0.5666666666666667],horizontal,"(390.0, 762.0)",0.9,0.521,1,955.737
2,False,112,"[(1043, 914)]",[],[1],[0.7333333333333333],horizontal,"(390.0, 262.0)",0.6833333333333333,0.691,1,959.814
2,False,113,"[(1017, 892)]",[],[1],[0.5333333333333333],horizontal,"(890.0, 262.0)",0.7333333333333333,0.496,1,964.136
2,False,114,"[(1033, 916)]",[],[1],[0.55],vertical,"(390.0, 762.0)",1.4833333333333334,0.519,1,968.667
2,False,115,"[(1018, 909)]",[],[1],[0.55],vertical,"(890.0, 762.0)",1.3,0.524,1,973.694
2,False,116,"[(1028, 900)]",[],[1],[0.55],vertical,"(390.0, 262.0)",0.9666666666666667,0.516,1,978.679
2,False,117,"[(1058, 890)]",[],[1],[0.7666666666666666],vertical,"(890.0, 262.0)",0.9666666666666667,0.743,1,983.305
2,False,118,"[(1046, 888)]",[],[1],[0.6666666666666666],horizontal,"(390.0, 762.0)",1.0833333333333333,0.63,1,988.214
2,False,119,"[(1024, 906)]",[],[1],[0.6333333333333333],vertical,"(390.0, 262.0)",0.65,0.588,1,992.859
2,False,120,"[(1044, 918)]",[],[1],[0.5333333333333333],horizontal,"(890.0, 262.0)",1.45,0.494,1,997.145
3,False,121,"[(1081, 878)]",[],[1],[0.5333333333333333],horizontal,"(890.0, 262.0)",1.3833333333333333,0.487,1,1002.428
3,False,122,"[(1033, 904)]",[],[1],[0.6166666666666667],horizontal,"(390.0, 762.0)",1.55,0.569,1,1007.487
3,False,123,"[(1077, 901)]",[],[1],[0.6166666666666667],vertical,"(890.0, 762.0)",1.45,0.578,1,1012.432
3,False,124,"[(1018, 848)]",[],[1],[0.5666666666666667],vertical,"(390.0, 262.0)",0.5333333333333333,0.524,1,1017.576
3,False,125,"[(1057, 871)]",[],[1],[0.5666666666666667],vertical,"(890.0, 262.0)",0.7833333333333333,0.525,1,1021.81
3,False,126,"[(1023, 898)]",[],[1],[0.55],horizontal,"(890.0, 262.0)",1.6666666666666667,0.503,1,1025.785
3,False,127,"[(1047, 891)]",[],[1],[0.5833333333333334],horizontal,"(390.0, 762.0)",1.3333333333333333,0.541,1,1031.097
3,False,128,"[(1032, 910)]",[],[1],[0.65],vertical,"(390.0, 262.0)",1.4,0.606,1,1035.867
3,False,129,"[(1056, 908)]",[],[1],[0.6166666666666667],vertical,"(890.0, 762.0)",0.6333333333333333,0.577,1,1041.154
3,False,130,"[(1046, 875)]",[],[1],[0.5],vertical,"(890.0, 262.0)",1.25,0.455,1,1045.622
3,False,131,"[(1018, 879)]",[],[1],[0.5666666666666667],vertical,"(390.0, 262.0)",0.75,0.526,1,1050.279
3,False,132,"[(1018, 887)]",[],[1],[0.5666666666666667],vertical,"(390.0, 762.0)",1.2833333333333332,0.521,1,1054.108
3,False,133,"[(1047, 905)]",[],[1],[0.5333333333333333],horizontal,"(890.0, 262.0)",0.6,0.489,1,1058.663
3,False,134,"[(1048, 885)]",[],[1],[0.7333333333333333],horizontal,"(890.0, 762.0)",1.6333333333333333,0.686,1,1062.666
3,False,135,"[(1051, 890)]",[],[1],[0.55],horizontal,"(890.0, 762.0)",0.7833333333333333,0.504,1,1068.046
3,False,136,"[(1067, 899)]",[],[1],[0.5333333333333333],horizontal,"(390.0, 262.0)",1.5333333333333332,0.493,1,1072.232
3,False,137,"[(1058, 895)]",[],[1],[0.6],horizontal,"(390.0, 762.0)",0.8833333333333333,0.558,1,1076.991
3,False,138,"[(1048, 885)]",[],[1],[0.6666666666666666],horizontal,"(390.0, 762.0)",1.5833333333333333,0.624,1,1081.142
3,False,139,"[(1062, 898)]",[],[1],[0.65],vertical,"(390.0, 762.0)",0.55,0.607,1,1086.047
3,False,140,"[(1042, 912)]",[],[1],[0.5666666666666667],vertical,"(890.0, 262.0)",1.5666666666666667,0.526,1,1090.126
3,False,141,"[(1062, 894)]",[],[1],[0.6166666666666667],horizontal,"(390.0, 262.0)",1.2333333333333334,0.57,1,1095.508
3,False,142,"[(1027, 888)]",[],[1],[0.5666666666666667],horizontal,"(390.0, 262.0)",1.3833333333333333,0.524,1,1100.275
3,False,143,"[(1056, 881)]",[],[1],[0.5833333333333334],horizontal,"(390.0, 762.0)",1.0,0.537,1,1105.398
3,False,144,"[(1014, 878)]",[],[1],[0.6166666666666667],vertical,"(890.0, 762.0)",0.8,0.576,1,1109.966
3,False,145,"[(1049, 877)]",[],[1],[0.5833333333333334],horizontal,"(390.0, 762.0)",1.5333333333333332,0.541,1,1114.23
3,False,146,"[(1062, 885)]",[],[1],[0.5833333333333334],vertical,"(390.0, 762.0)",0.55,0.536,1,1119.684
3,False,147,"[(1052, 925)]",[],[1],[0.55],horizontal,"(390.0, 762.0)",0.55,0.507,1,1123.433
3,False,148,"[(1052, 881)]",[],[1],[0.65],vertical,"(390.0, 762.0)",1.45,0.604,1,1127.516
3,False,149,"[(1011, 903)]",[],[1],[0.5666666666666667],vertical,"(390.0, 762.0)",0.7166666666666667,0.525,1,1132.57
3,False,150,"[(1045, 872)]",[],[1],[0.6],vertical,"(390.0, 762.0)",1.4666666666666666,0.559,1,1136.849
3,False,151,"[(1033, 904)]",[],[1],[0.6833333333333333],horizontal,"(390.0, 762.0)",1.5166666666666666,0.649,1,1141.759
3,False,152,"[(1044, 884)]",[],[1],[0.5666666666666667],vertical,"(890.0, 762.0)",1.6833333333333333,0.527,1,1147.13
3,False,153,"[(1035, 919)]",[],[1],[0.5833333333333334],vertical,"(390.0, 262.0)",1.4833333333333334,0.541,1,1152.019
3,False,154,"[(1057, 889)]",[],[1],[0.5333333333333333],vertical,"(390.0, 262.0)",0.5833333333333334,0.496,1,1157.15
3,False,155,"[(1051, 897)]",[],[1],[0.5666666666666667],vertical,"(390.0, 262.0)",1.5333333333333332,0.523,1,1161.811
3,False,156,"[(1077, 873)]",[],[1],[0.4666666666666667],vertical,"(390.0, 262.0)",1.35,0.428,1,1166.477
3,False,157,"[(1023, 888)]",[],[1],[0.6666666666666666],horizontal,"(390.0, 762.0)",0.55,0.62,1,1171.617
3,False,158,"[(1046, 875)]",[],[1],[0.6333333333333333],vertical,"(890.0, 762.0)",0.6166666666666667,0.598,1,1175.812
3,False,159,"[(1056, 889)]",[],[1],[0.5833333333333334],horizontal,"(890.0, 762.0)",1.55,0.545,1,1180.032
3,False,160,"[(1042, 884)]",[],[1],[0.5833333333333334],vertical,"(390.0, 762.0)",1.6666666666666667,0.546,1,1185.074
3,False,161,"[(1044, 890)]",[],[1],[0.5833333333333334],horizontal,"(390.0, 762.0)",1.5333333333333332,0.551,1,1190.71
3,False,162,"[(1065, 896)]",[],[1],[0.6],vertical,"(390.0, 762.0)",0.9333333333333333,0.555,1,1195.777
3,False,163,"[(1023, 872)]",[],[1],[0.7166666666666667],horizontal,"(890.0, 762.0)",1.05,0.672,1,1200.267
3,False,164,"[(1047, 871)]",[],[1],[0.55],horizontal,"(890.0, 262.0)",1.2166666666666666,0.513,1,1205.1
3,False,165,"[(1060, 871)]",[],[1],[0.5666666666666667],horizontal,"(890.0, 262.0)",1.5666666666666667,0.532,1,1209.804
3,False,166,"[(1043, 864)]",[],[1],[0.55],horizontal,"(890.0, 262.0)",1.6,0.515,1,1215.068
3,False,167,"[(1023, 885)]",[],[1],[0.55],horizontal,"(890.0, 262.0)",1.6166666666666667,0.514,1,1220.493
3,False,168,"[(1066, 875)]",[],[1],[0.5333333333333333],horizontal,"(390.0, 262.0)",0.75,0.493,1,1225.857
3,False,169,"[(1057, 890)]",[],[1],[0.55],horizontal,"(890.0, 262.0)",0.9,0.511,1,1230.327
3,False,170,"[(1060, 885)]",[],[1],[0.55],horizontal,"(890.0, 262.0)",0.9833333333333333,0.514,1,1234.999
3,False,171,"[(1062, 896)]",[],[1],[0.6166666666666667],horizontal,"(390.0, 762.0)",1.55,0.58,1,1239.663
3,False,172,"[(1043, 895)]",[],[1],[0.5666666666666667],horizontal,"(390.0, 762.0)",0.7333333333333333,0.526,1,1244.762
3,False,173,"[(1044, 906)]",[],[1],[0.55],vertical,"(890.0, 762.0)",1.3,0.522,1,1249.127
3,False,174,"[(1057, 889)]",[],[1],[0.5333333333333333],vertical,"(890.0, 262.0)",1.0333333333333332,0.493,1,1254.314
3,False,175,"[(1076, 857)]",[],[1],[0.5833333333333334],horizontal,"(390.0, 762.0)",1.45,0.54,1,1259.011
3,False,176,"[(1064, 892)]",[],[1],[0.6],horizontal,"(390.0, 262.0)",0.7333333333333333,0.56,1,1263.928
3,False,177,"[(1062, 918)]",[],[1],[0.5833333333333334],horizontal,"(390.0, 262.0)",0.5666666666666667,0.545,1,1268.271
3,False,178,"[(1049, 885)]",[],[1],[0.5333333333333333],vertical,"(390.0, 262.0)",1.05,0.492,1,1272.923
3,False,179,"[(1066, 890)]",[],[1],[0.65],vertical,"(390.0, 762.0)",0.65,0.607,1,1277.111
3,False,180,"[(1047, 885)]",[],[1],[0.6],horizontal,"(390.0, 762.0)",1.0166666666666666,0.568,1,1281.429
4,False,181,"[(1067, 905)]",[],[1],[0.55],horizontal,"(390.0, 262.0)",1.25,0.514,1,1286.184
4,False,182,"[(1021, 891)]",[],[1],[0.6],horizontal,"(890.0, 762.0)",0.55,0.559,1,1291.427
4,False,183,"[(1079, 876)]",[],[1],[0.6666666666666666],horizontal,"(390.0, 762.0)",1.0666666666666667,0.618,1,1295.55
4,False,184,"[(1044, 885)]",[],[1],[0.6166666666666667],horizontal,"(390.0, 762.0)",1.3333333333333333,0.573,1,1300.393
4,False,185,"[(1045, 891)]",[],[1],[0.6333333333333333],horizontal,"(890.0, 762.0)",1.6666666666666667,0.59,1,1305.145
4,False,186,"[(1081, 893)]",[],[1],[0.5666666666666667],vertical,"(390.0, 762.0)",1.2833333333333332,0.536,1,1310.613
4,False,187,"[(1042, 898)]",[],[1],[0.6],vertical,"(890.0, 262.0)",0.5,0.563,1,1315.61
4,False,188,"[(1014, 895)]",[],[1],[0.5833333333333334],horizontal,"(890.0, 262.0)",1.1,0.54,1,1319.643
4,False,189,"[(1048, 892)]",[],[1],[0.5166666666666666],vertical,"(890.0, 262.0)",1.0666666666666667,0.481,1,1324.135
4,False,190,"[(1056, 876)]",[],[1],[0.6],vertical,"(390.0, 762.0)",0.7,0.563,1,1328.468
4,False,191,"[(1018, 892)]",[],[1],[0.5666666666666667],horizontal,"(390.0, 262.0)",1.1666666666666667,0.527,1,1332.821
4,False,192,"[(1047, 886)]",[],[1],[0.5833333333333334],horizontal,"(390.0, 262.0)",1.5333333333333332,0.544,1,1337.807
4,False,193,"[(1039, 903)]",[],[1],[0.65],horizontal,"(390.0, 762.0)",0.9,0.611,1,1343.107
4,False,194,"[(1043, 891)]",[],[1],[0.8],horizontal,"(390.0, 762.0)",0.8333333333333334,0.761,1,1348.17
4,False,195,"[(1047, 895)]",[],[1],[0.5333333333333333],horizontal,"(890.0, 262.0)",1.2,0.496,1,1352.764
4,False,196,"[(1067, 889)]",[],[1],[0.55],horizontal,"(390.0, 762.0)",1.2,0.509,1,1358.011
4,False,197,"[(1067, 872)]",[],[1],[0.55],horizontal,"(890.0, 762.0)",0.85,0.503,1,1362.549
4,False,198,"[(1047, 893)]",[],[1],[0.5666666666666667],horizontal,"(890.0, 262.0)",1.1,0.517,1,1366.743
4,False,199,"[(1049, 900)]",[],[1],[0.6833333333333333],vertical,"(390.0, 762.0)",1.2333333333333334,0.638,1,1371.181
4,False,200,"[(1047, 900)]",[],[1],[0.6166666666666667],horizontal,"(890.0, 762.0)",1.2666666666666666,0.571,1,1376.007
4,False,201,"[(1047, 868)]",[],[1],[0.6],vertical,"(890.0, 762.0)",1.6,0.553,1,1381.118
4,False,202,"[(1047, 884)]",[],[1],[0.55],horizontal,"(890.0, 262.0)",0.85,0.506,1,1386.199
4,False,203,"[(1068, 897)]",[],[1],[0.6],horizontal,"(390.0, 762.0)",1.6833333333333333,0.566,1,1390.923
4,False,204,"[(1050, 879)]",[],[1],[0.55],vertical,"(390.0, 262.0)",1.5,0.505,1,1396.308
4,False,205,"[(1055, 888)]",[],[1],[0.6333333333333333],vertical,"(390.0, 762.0)",1.2666666666666666,0.591,1,1401.349
4,False,206,"[(1033, 895)]",[],[1],[0.6],horizontal,"(890.0, 762.0)",0.9833333333333333,0.553,1,1406.128
4,False,207,"[(1047, 880)]",[],[1],[0.55],horizontal,"(390.0, 262.0)",0.9,0.511,1,1410.601
4,False,208,"[(1041, 892)]",[],[1],[0.7],vertical,"(390.0, 762.0)",0.5833333333333334,0.655,1,1415.182
4,False,209,"[(1035, 897)]",[],[1],[0.6],horizontal,"(890.0, 762.0)",1.25,0.554,1,1419.237
4,False,210,"[(1060, 890)]",[],[1],[0.6],vertical,"(890.0, 262.0)",1.4333333333333333,0.558,1,1424.299
4,False,211,"[(1028, 898)]",[],[1],[0.6166666666666667],vertical,"(890.0, 762.0)",0.5666666666666667,0.574,1,1428.938
4,False,212,"[(1053, 895)]",[],[1],[0.65],horizontal,"(890.0, 762.0)",1.1666666666666667,0.609,1,1433.092
4,False,213,"[(1072, 895)]",[],[1],[0.5833333333333334],horizontal,"(890.0, 262.0)",1.1833333333333333,0.54,1,1437.593
4,False,214,"[(1009, 880)]",[],[1],[0.6333333333333333],horizontal,"(390.0, 762.0)",0.5166666666666666,0.591,1,1442.704
4,False,215,"[(1075, 892)]",[],[1],[0.7],vertical,"(390.0, 762.0)",0.85,0.653,1,1446.774
4,False,216,"[(1028, 871)]",[],[1],[0.5833333333333334],horizontal,"(890.0, 262.0)",0.5,0.543,1,1451.676
4,False,217,"[(1023, 890)]",[],[1],"[0.85, 0.85]",vertical,"(390.0, 262.0)",1.5666666666666667,"0.8,0.8",0,1455.654
4,False,218,"[(1025, 867)]",[],[1],[0.31666666666666665],vertical,"(390.0, 762.0)",1.65,0.282,1,1461.258
4,False,219,"[(1042, 896)]",[],[1],[0.55],vertical,"(890.0, 762.0)",1.6166666666666667,0.509,1,1467.416
4,False,220,"[(1057, 874)]",[],[1],[0.55],vertical,"(390.0, 262.0)",1.3666666666666667,0.505,1,1472.524
4,False,221,"[(1042, 900)]",[],[1],[0.6333333333333333],horizontal,"(890.0, 762.0)",0.9666666666666667,0.592,1,1477.633
4,False,222,"[(1023, 884)]",[],[1],[0.7333333333333333],horizontal,"(890.0, 262.0)",0.7833333333333333,0.688,1,1482.412
4,False,223,"[(1019, 880)]",[],[1],[0.5333333333333333],horizontal,"(890.0, 262.0)",0.9833333333333333,0.492,1,1486.901
4,False,224,"[(1059, 890)]",[],[1],[0.5666666666666667],horizontal,"(890.0, 262.0)",1.5333333333333332,0.521,1,1494.226
4,False,225,"[(1042, 865)]",[],[1],[0.65],horizontal,"(390.0, 762.0)",1.25,0.609,1,1499.195
4,False,226,"[(1024, 900)]",[],[1],[0.6833333333333333],vertical,"(890.0, 762.0)",1.2166666666666666,0.644,1,1504.16
4,False,227,"[(1025, 887)]",[],[1],[0.5833333333333334],vertical,"(390.0, 262.0)",0.7833333333333333,0.54,1,1508.764
4,False,228,"[(1065, 899)]",[],[1],[0.7],horizontal,"(890.0, 762.0)",0.9166666666666666,0.655,1,1513.299
4,False,229,"[(1028, 896)]",[],[1],[0.6],horizontal,"(390.0, 762.0)",0.7,0.554,1,1518.316
4,False,230,"[(1038, 889)]",[],[1],[0.23333333333333334],horizontal,"(390.0, 262.0)",1.5166666666666666,0.198,1,1522.496
4,False,231,"[(1048, 905)]",[],[1],[0.65],vertical,"(390.0, 762.0)",0.9666666666666667,0.603,1,1527.693
4,False,232,"[(1023, 881)]",[],[1],[0.85],vertical,"(890.0, 262.0)",1.0666666666666667,0.8,0,1532.096
4,False,233,"[(1057, 876)]",[],[1],[0.6166666666666667],horizontal,"(390.0, 762.0)",0.8666666666666667,0.58,1,1537.064
4,False,234,"[(1017, 896)]",[],[1],[0.5833333333333334],vertical,"(390.0, 262.0)",1.1333333333333333,0.542,1,1556.995
4,False,235,"[(1049, 933)]",[],[1],[0.6],horizontal,"(390.0, 262.0)",1.0833333333333333,0.556,1,1561.863
4,False,236,"[(1072, 890)]",[],[1],[0.5666666666666667],horizontal,"(390.0, 262.0)",0.6666666666666666,0.522,1,1566.758
4,False,237,"[(1047, 912)]",[],[1],[0.6],vertical,"(890.0, 762.0)",1.6833333333333333,0.557,1,1570.845
4,False,238,"[(1057, 897)]",[],[1],[0.55],horizontal,"(390.0, 262.0)",1.55,0.515,1,1576.0
4,False,239,"[(1070, 896)]",[],[1],[0.5166666666666666],vertical,"(390.0, 262.0)",1.4333333333333333,0.476,1,1581.231
4,False,240,"[(1057, 915)]",[],[1],[0.6166666666666667],vertical,"(890.0, 262.0)",1.0333333333333332,0.578,1,1586.282
5,False,241,"[(1057, 890)]",[],[1],[0.5833333333333334],vertical,"(890.0, 262.0)",0.9,0.551,1,1591.098
5,False,242,"[(1057, 891)]",[],[1],[0.5833333333333334],horizontal,"(390.0, 762.0)",1.6166666666666667,0.545,1,1595.438
5,False,243,"[(1052, 899)]",[],[1],[0.5833333333333334],vertical,"(390.0, 762.0)",0.9833333333333333,0.542,1,1600.535
5,False,244,"[(1062, 880)]",[],[1],[0.7166666666666667],vertical,"(890.0, 762.0)",0.9666666666666667,0.673,1,1605.257
5,False,245,"[(1074, 902)]",[],[1],[0.5166666666666666],horizontal,"(890.0, 262.0)",1.0833333333333333,0.489,1,1609.915
5,False,246,"[(1044, 895)]",[],[1],[0.5666666666666667],vertical,"(390.0, 262.0)",1.4333333333333333,0.53,1,1614.742
5,False,247,"[(1067, 884)]",[],[1],[0.48333333333333334],vertical,"(390.0, 262.0)",1.15,0.443,1,1619.759
5,False,248,"[(1076, 869)]",[],[1],[0.5833333333333334],vertical,"(390.0, 262.0)",0.5833333333333334,0.547,1,1624.412
5,False,249,"[(1056, 903)]",[],[1],[0.7833333333333333],horizontal,"(390.0, 262.0)",0.5333333333333333,0.743,1,1628.802
5,False,250,"[(1050, 879)]",[],[1],[0.55],vertical,"(390.0, 262.0)",1.5333333333333332,0.509,1,1633.34
5,False,251,"[(1033, 865)]",[],[1],"[0.85, 0.85]",horizontal,"(390.0, 262.0)",0.6833333333333333,"0.8,0.8",0,1638.362
5,False,252,"[(1047, 885)]",[],[1],[0.7],vertical,"(390.0, 262.0)",0.9833333333333333,0.662,1,1642.812
5,False,253,"[(1057, 897)]",[],[1],[0.6166666666666667],horizontal,"(390.0, 262.0)",0.9833333333333333,0.576,1,1647.989
5,False,254,"[(1042, 883)]",[],[1],[0.55],vertical,"(390.0, 262.0)",1.1333333333333333,0.508,1,1652.394
5,False,255,"[(1050, 891)]",[],[1],[0.7333333333333333],vertical,"(390.0, 262.0)",1.0666666666666667,0.693,1,1656.92
5,False,256,"[(1055, 883)]",[],[1],[0.7666666666666666],vertical,"(390.0, 762.0)",0.7,0.725,1,1661.844
5,False,257,"[(1038, 897)]",[],[1],[0.6],vertical,"(890.0, 762.0)",0.8166666666666667,0.557,1,1666.313
5,False,258,"[(1042, 887)]",[],[1],[0.6166666666666667],horizontal,"(390.0, 762.0)",1.1333333333333333,0.58,1,1670.952
5,False,259,"[(1023, 900)]",[],[1],[0.55],vertical,"(890.0, 762.0)",0.7166666666666667,0.513,1,1675.98
5,False,260,"[(1023, 910)]",[],[1],[0.5833333333333334],horizontal,"(890.0, 262.0)",0.6,0.538,1,1679.879
5,False,261,"[(1056, 892)]",[],[1],[0.55],horizontal,"(390.0, 762.0)",1.6,0.517,1,1684.348
5,False,262,"[(1058, 877)]",[],[1],[0.5333333333333333],vertical,"(890.0, 762.0)",0.8,0.497,1,1689.619
5,False,263,"[(1059, 901)]",[],[1],[0.5666666666666667],horizontal,"(890.0, 762.0)",1.0833333333333333,0.524,1,1694.2
5,False,264,"[(1050, 886)]",[],[1],[0.65],vertical,"(890.0, 262.0)",1.1666666666666667,0.618,1,1698.711
5,False,265,"[(1028, 888)]",[],[1],[0.6833333333333333],vertical,"(890.0, 262.0)",1.0333333333333332,0.645,1,1703.633
5,False,266,"[(1054, 894)]",[],[1],[0.5666666666666667],horizontal,"(890.0, 762.0)",0.8,0.529,1,1708.686
5,False,267,"[(1047, 888)]",[],[1],[0.5833333333333334],vertical,"(390.0, 762.0)",1.0833333333333333,0.544,1,1713.372
5,False,268,"[(1052, 885)]",[],[1],[0.55],vertical,"(890.0, 262.0)",1.4666666666666666,0.515,1,1717.867
5,False,269,"[(1054, 890)]",[],[1],[0.85],horizontal,"(390.0, 262.0)",1.2,0.802,0,1722.682
5,False,270,"[(1076, 882)]",[],[1],[0.5833333333333334],horizontal,"(390.0, 762.0)",0.6166666666666667,0.545,1,1727.731
5,False,271,"[(1060, 895)]",[],[1],[0.5833333333333334],horizontal,"(890.0, 262.0)",0.9666666666666667,0.546,1,1731.707
5,False,272,"[(1050, 882)]",[],[1],[0.5666666666666667],horizontal,"(390.0, 762.0)",0.9,0.525,1,1736.728
5,False,273,"[(1055, 887)]",[],[1],[0.55],vertical,"(890.0, 262.0)",1.45,0.509,1,1741.246
5,False,274,"[(1046, 888)]",[],[1],[0.6166666666666667],horizontal,"(390.0, 262.0)",0.5333333333333333,0.579,1,1746.537
5,False,275,"[(1086, 890)]",[],[1],[0.55],vertical,"(390.0, 762.0)",0.6666666666666666,0.508,1,1750.613
5,False,276,"[(1042, 893)]",[],[1],[0.6166666666666667],horizontal,"(890.0, 262.0)",0.8,0.579,1,1754.978
5,False,277,"[(1038, 866)]",[],[1],[0.5833333333333334],horizontal,"(890.0, 262.0)",1.2666666666666666,0.537,1,1759.029
5,False,278,"[(1051, 876)]",[],[1],[0.5833333333333334],horizontal,"(890.0, 762.0)",1.0166666666666666,0.542,1,1763.751
5,False,279,"[(1058, 888)]",[],[1],[0.6166666666666667],vertical,"(890.0, 262.0)",1.6,0.574,1,1768.339
5,False,280,"[(1047, 895)]",[],[1],[0.5666666666666667],vertical,"(890.0, 762.0)",1.4166666666666667,0.527,1,1773.494
5,False,281,"[(1038, 892)]",[],[1],[0.75],vertical,"(890.0, 262.0)",1.15,0.708,1,1778.129
5,False,282,"[(1018, 885)]",[],[1],[0.6333333333333333],vertical,"(390.0, 762.0)",0.5,0.591,1,1783.511
5,False,283,"[(1021, 899)]",[],[1],[0.65],vertical,"(890.0, 762.0)",1.3333333333333333,0.61,1,1787.411
5,False,284,"[(1023, 904)]",[],[1],[0.6666666666666666],horizontal,"(390.0, 762.0)",1.6833333333333333,0.626,1,1792.548
5,False,285,"[(1028, 887)]",[],[1],[0.5166666666666666],horizontal,"(390.0, 262.0)",1.3166666666666667,0.478,1,1798.133
5,False,286,"[(1023, 876)]",[],[1],[0.5833333333333334],horizontal,"(890.0, 762.0)",1.65,0.541,1,1802.761
5,False,287,"[(1058, 897)]",[],[1],[0.6],vertical,"(390.0, 262.0)",0.5,0.561,1,1808.13
5,False,288,"[(1023, 887)]",[],[1],[0.5166666666666666],vertical,"(390.0, 262.0)",1.0166666666666666,0.478,1,1812.264
5,False,289,"[(1057, 890)]",[],[1],[0.5833333333333334],vertical,"(890.0, 762.0)",0.8333333333333334,0.539,1,1816.619
5,False,290,"[(1023, 881)]",[],[1],[0.6166666666666667],vertical,"(890.0, 762.0)",1.3166666666666667,0.571,1,1820.952
5,False,291,"[(1045, 890)]",[],[1],[0.7833333333333333],vertical,"(890.0, 262.0)",1.15,0.739,1,1825.655
5,False,292,"[(1048, 880)]",[],[1],[0.6666666666666666],vertical,"(390.0, 762.0)",1.6166666666666667,0.621,1,1830.854
5,False,293,"[(1028, 894)]",[],[1],[0.85],vertical,"(890.0, 262.0)",0.8166666666666667,0.793,0,1836.021
5,False,294,"[(1044, 863)]",[],[1],[0.5166666666666666],vertical,"(890.0, 262.0)",0.6166666666666667,0.473,1,1841.05
5,False,295,"[(1052, 896)]",[],[1],[0.6833333333333333],horizontal,"(890.0, 762.0)",1.0666666666666667,0.638,1,1846.366
5,False,296,"[(1060, 892)]",[],[1],[0.5666666666666667],vertical,"(390.0, 762.0)",0.5,0.535,1,1850.968
5,False,297,"[(1047, 893)]",[],[1],[0.6],horizontal,"(390.0, 762.0)",1.3833333333333333,0.555,1,1855.194
5,False,298,"[(1044, 895)]",[],[1],[0.5833333333333334],horizontal,"(390.0, 762.0)",1.45,0.539,1,1860.382
5,False,299,"[(1059, 908)]",[],[1],[0.55],vertical,"(890.0, 762.0)",1.0833333333333333,0.51,1,1865.309
5,False,300,"[(1050, 880)]",[],[1],[0.65],horizontal,"(390.0, 262.0)",0.55,0.606,1,1869.794
6,False,301,"[(1056, 890)]",[],[1],[0.7166666666666667],horizontal,"(890.0, 762.0)",1.2166666666666666,0.669,1,1873.664
6,False,302,"[(1047, 892)]",[],[1],[0.5666666666666667],horizontal,"(390.0, 262.0)",1.6166666666666667,0.523,1,1878.363
6,False,303,"[(1069, 880)]",[],[1],[0.5833333333333334],horizontal,"(390.0, 262.0)",1.5333333333333332,0.541,1,1883.536
6,False,304,"[(1057, 913)]",[],[1],[0.55],horizontal,"(390.0, 262.0)",1.5,0.502,1,1888.809
6,False,305,"[(1058, 881)]",[],[1],[0.7333333333333333],horizontal,"(890.0, 762.0)",0.6666666666666666,0.686,1,1893.714
6,False,306,"[(1062, 880)]",[],[1],[0.55],horizontal,"(890.0, 262.0)",0.8,0.508,1,1898.346
6,False,307,"[(1057, 898)]",[],[1],[0.55],horizontal,"(390.0, 262.0)",1.4666666666666666,0.511,1,1902.82
6,False,308,"[(1083, 872)]",[],[1],[0.5833333333333334],vertical,"(890.0, 762.0)",0.75,0.545,1,1908.224
6,False,309,"[(1052, 882)]",[],[1],[0.6166666666666667],vertical,"(890.0, 762.0)",1.5333333333333332,0.574,1,1912.283
6,False,310,"[(1045, 872)]",[],[1],[0.7],horizontal,"(890.0, 262.0)",1.05,0.651,1,1917.316
6,False,311,"[(1047, 894)]",[],[1],[0.5833333333333334],horizontal,"(890.0, 762.0)",1.2166666666666666,0.539,1,1922.1
6,False,312,"[(1057, 896)]",[],[1],[0.75],horizontal,"(390.0, 262.0)",0.8,0.709,1,1927.345
6,False,313,"[(1038, 911)]",[],[1],[0.55],vertical,"(890.0, 262.0)",0.9333333333333333,0.515,1,1931.731
6,False,314,"[(1052, 870)]",[],[1],[0.5666666666666667],vertical,"(390.0, 762.0)",0.65,0.526,1,1959.693
6,False,315,"[(1009, 881)]",[],[1],[0.5666666666666667],horizontal,"(890.0, 262.0)",1.2166666666666666,0.527,1,1964.042
6,False,316,"[(1074, 905)]",[],[1],[0.3833333333333333],vertical,"(390.0, 762.0)",1.0166666666666666,0.347,1,1969.253
6,False,317,"[(1046, 908)]",[],[1],[0.7333333333333333],horizontal,"(890.0, 762.0)",0.5833333333333334,0.687,1,1973.38
6,False,318,"[(1050, 900)]",[],[1],[0.6166666666666667],vertical,"(890.0, 762.0)",1.5333333333333332,0.576,1,1977.863
6,False,319,"[(1047, 870)]",[],[1],[0.6],horizontal,"(890.0, 762.0)",1.45,0.56,1,1983.102
6,False,320,"[(1050, 876)]",[],[1],[0.55],vertical,"(890.0, 262.0)",0.9833333333333333,0.514,1,1991.833
6,False,321,"[(1057, 877)]",[],[1],[0.5833333333333334],vertical,"(890.0, 262.0)",0.85,0.538,1,1996.474
6,False,322,"[(1046, 883)]",[],[1],[0.65],horizontal,"(390.0, 762.0)",0.5666666666666667,0.607,1,2000.632
6,False,323,"[(1023, 879)]",[],[1],[0.6333333333333333],horizontal,"(390.0, 762.0)",0.8,0.594,1,2005.08
6,False,324,"[(1054, 888)]",[],[1],[0.6166666666666667],vertical,"(890.0, 262.0)",0.55,0.579,1,2009.513
6,False,325,"[(1047, 895)]",[],[1],[0.65],horizontal,"(890.0, 762.0)",0.55,0.606,1,2013.58
6,False,326,"[(1061, 869)]",[],[1],[0.6166666666666667],vertical,"(890.0, 262.0)",0.5666666666666667,0.573,1,2018.216
6,False,327,"[(1057, 881)]",[],[1],[0.5833333333333334],horizontal,"(390.0, 762.0)",1.1,0.545,1,2024.974
6,False,328,"[(1057, 877)]",[],[1],[0.6],vertical,"(390.0, 762.0)",0.85,0.563,1,2029.809
6,False,329,"[(1042, 882)]",[],[1],[0.6666666666666666],vertical,"(890.0, 762.0)",0.8333333333333334,0.62,1,2034.313
6,False,330,"[(1052, 905)]",[],[1],[0.6833333333333333],vertical,"(890.0, 762.0)",0.9,0.64,1,2038.856
6,False,331,"[(1066, 883)]",[],[1],[0.6],horizontal,"(890.0, 762.0)",1.3833333333333333,0.559,1,2043.595
6,False,332,"[(1045, 902)]",[],[1],[0.5833333333333334],vertical,"(890.0, 762.0)",1.4833333333333334,0.55,1,2048.896
6,False,333,"[(1083, 900)]",[],[1],[0.7166666666666667],horizontal,"(890.0, 262.0)",1.6,0.675,1,2054.28
6,False,334,"[(1033, 858)]",[],[1],[0.3333333333333333],vertical,"(390.0, 762.0)",1.4,0.298,1,2059.929
6,False,335,"[(1047, 899)]",[],[1],[0.5666666666666667],horizontal,"(890.0, 262.0)",0.8166666666666667,0.53,1,2064.953
6,False,336,"[(1045, 890)]",[],[1],[0.5333333333333333],horizontal,"(890.0, 262.0)",1.3833333333333333,0.495,1,2071.311
6,False,337,"[(1044, 905)]",[],[1],[0.55],vertical,"(890.0, 762.0)",1.0333333333333332,0.511,1,2076.695
6,False,338,"[(1060, 905)]",[],[1],[0.6666666666666666],vertical,"(890.0, 762.0)",1.1333333333333333,0.627,1,2081.082
6,False,339,"[(1057, 906)]",[],[1],[0.5333333333333333],horizontal,"(890.0, 262.0)",1.05,0.499,1,2086.283
6,False,340,"[(1057, 872)]",[],[1],[0.5666666666666667],vertical,"(390.0, 262.0)",1.3333333333333333,0.535,1,2091.151
6,False,341,"[(1054, 856)]",[],[1],[0.5166666666666666],horizontal,"(390.0, 262.0)",1.0,0.482,1,2096.366
6,False,342,"[(1052, 892)]",[],[1],[0.55],vertical,"(390.0, 262.0)",0.5333333333333333,0.517,1,2101.111
6,False,343,"[(1047, 895)]",[],[1],[0.5833333333333334],vertical,"(390.0, 762.0)",0.7,0.538,1,2104.995
6,False,344,"[(1051, 876)]",[],[1],[0.6166666666666667],horizontal,"(890.0, 762.0)",1.1,0.576,1,2109.267
6,False,345,"[(1047, 889)]",[],[1],[0.55],vertical,"(390.0, 262.0)",0.8666666666666667,0.513,1,2114.253
6,False,346,"[(1061, 876)]",[],[1],[0.85],horizontal,"(390.0, 262.0)",0.5,0.811,0,2118.913
6,False,347,"[(1066, 869)]",[],[1],[0.55],horizontal,"(890.0, 762.0)",1.6,0.511,1,2123.353
6,False,348,"[(1047, 889)]",[],[1],[0.6],horizontal,"(390.0, 762.0)",1.65,0.561,1,2129.315
6,False,349,"[(1033, 882)]",[],[1],[0.6166666666666667],horizontal,"(890.0, 762.0)",0.8166666666666667,0.575,1,2134.696
6,False,350,"[(1048, 905)]",[],[1],[0.5333333333333333],vertical,"(390.0, 762.0)",0.65,0.494,1,2139.135
6,False,351,"[(1053, 876)]",[],[1],[0.5833333333333334],vertical,"(890.0, 762.0)",1.6166666666666667,0.54,1,2143.078
6,False,352,"[(1086, 888)]",[],[1],[0.65],horizontal,"(890.0, 762.0)",1.2666666666666666,0.606,1,2148.301
6,False,353,"[(1038, 895)]",[],[1],[0.75],horizontal,"(890.0, 762.0)",1.15,0.706,1,2153.15
6,False,354,"[(1056, 885)]",[],[1],[0.6166666666666667],horizontal,"(390.0, 262.0)",0.7333333333333333,0.582,1,2158.757
6,False,355,"[(1054, 885)]",[],[1],[0.5666666666666667],vertical,"(390.0, 762.0)",0.6166666666666667,0.522,1,2162.946
6,False,356,"[(1014, 871)]",[],[1],[0.5666666666666667],vertical,"(390.0, 262.0)",0.7666666666666666,0.525,1,2167.296
6,False,357,"[(1044, 897)]",[],[1],[0.6],horizontal,"(390.0, 262.0)",0.6,0.556,1,2171.776
6,False,358,"[(1053, 887)]",[],[1],[0.5666666666666667],vertical,"(890.0, 762.0)",0.5833333333333334,0.527,1,2176.144
6,False,359,"[(1047, 885)]",[],[1],[0.5666666666666667],vertical,"(390.0, 762.0)",0.7166666666666667,0.519,1,2180.501
6,False,360,"[(1009, 868)]",[],[1],[0.6],vertical,"(890.0, 762.0)",0.5833333333333334,0.56,1,2185.033
7,False,361,"[(1033, 894)]",[],[1],[0.5666666666666667],vertical,"(390.0, 762.0)",0.7333333333333333,0.525,1,2189.788
7,False,362,"[(1020, 872)]",[],[1],[0.7],vertical,"(890.0, 762.0)",0.5333333333333333,0.66,1,2193.716
7,False,363,"[(1081, 867)]",[],[1],[0.6666666666666666],vertical,"(390.0, 262.0)",0.55,0.621,1,2198.142
7,False,364,"[(1058, 885)]",[],[1],[0.6166666666666667],vertical,"(390.0, 762.0)",1.0333333333333332,0.574,1,2202.199
7,False,365,"[(1060, 865)]",[],[1],[0.5333333333333333],vertical,"(890.0, 262.0)",1.2,0.486,1,2207.041
7,False,366,"[(1044, 865)]",[],[1],[0.5833333333333334],vertical,"(890.0, 762.0)",1.25,0.552,1,2211.691
7,False,367,"[(1067, 890)]",[],[1],[0.7166666666666667],horizontal,"(890.0, 262.0)",1.0333333333333332,0.672,1,2216.831
7,False,368,"[(1019, 880)]",[],[1],[0.5333333333333333],horizontal,"(390.0, 762.0)",1.0166666666666666,0.487,1,2221.562
7,False,369,"[(1047, 882)]",[],[1],[0.6666666666666666],horizontal,"(390.0, 762.0)",0.6333333333333333,0.624,1,2226.102
7,False,370,"[(1067, 884)]",[],[1],[0.5833333333333334],vertical,"(390.0, 262.0)",0.8166666666666667,0.544,1,2229.931
7,False,371,"[(1033, 885)]",[],[1],[0.5666666666666667],horizontal,"(390.0, 262.0)",0.9333333333333333,0.524,1,2234.459
7,False,372,"[(1042, 880)]",[],[1],[0.6166666666666667],vertical,"(390.0, 762.0)",0.8,0.568,1,2238.672
7,False,373,"[(1019, 892)]",[],[1],[0.65],vertical,"(390.0, 762.0)",0.9333333333333333,0.606,1,2242.69
7,False,374,"[(997, 852), (1063, 845)]",[],"[0, 1]",[0.6833333333333333],vertical,"(390.0, 762.0)",1.2666666666666666,0.639,1,2247.403
7,False,375,"[(1042, 885)]",[],[1],[0.45],vertical,"(890.0, 262.0)",1.5666666666666667,0.407,1,2258.527
7,False,376,"[(1035, 894)]",[],[1],[0.5833333333333334],horizontal,"(890.0, 762.0)",0.8833333333333333,0.54,1,2264.124
7,False,377,"[(1037, 883)]",[],[1],[0.6166666666666667],horizontal,"(890.0, 262.0)",1.4,0.57,1,2269.028
7,False,378,"[(1048, 862)]",[],[1],[0.5666666666666667],horizontal,"(890.0, 762.0)",0.9333333333333333,0.521,1,2274.349
7,False,379,"[(1057, 881)]",[],[1],[0.6166666666666667],horizontal,"(890.0, 262.0)",0.9,0.572,1,2278.885
7,False,380,"[(1058, 882)]",[],[1],[0.6166666666666667],vertical,"(390.0, 762.0)",1.5833333333333333,0.568,1,2283.602
7,False,381,"[(1044, 872)]",[],[1],[0.6833333333333333],vertical,"(890.0, 762.0)",0.5833333333333334,0.637,1,2288.6
7,False,382,"[(1057, 885)]",[],[1],[0.5666666666666667],vertical,"(890.0, 262.0)",0.9,0.523,1,2293.245
7,False,383,"[(1023, 900)]",[],[1],[0.5666666666666667],horizontal,"(390.0, 262.0)",0.5833333333333334,0.523,1,2297.184
7,False,384,"[(1060, 876)]",[],[1],[0.75],vertical,"(390.0, 762.0)",1.2166666666666666,0.706,1,2301.674
7,False,385,"[(1076, 876)]",[],[1],[0.6666666666666666],horizontal,"(390.0, 762.0)",1.0333333333333332,0.621,1,2306.24
7,False,386,"[(1040, 890)]",[],[1],[0.5666666666666667],vertical,"(890.0, 762.0)",0.7833333333333333,0.528,1,2311.098
7,False,387,"[(1033, 883)]",[],[1],[0.65],vertical,"(890.0, 762.0)",1.3166666666666667,0.609,1,2315.481
7,False,388,"[(1048, 881)]",[],[1],[0.5833333333333334],horizontal,"(390.0, 762.0)",1.15,0.549,1,2320.52
7,False,389,"[(1025, 872)]",[],[1],[0.8],vertical,"(890.0, 762.0)",1.5833333333333333,0.751,1,2325.048
7,False,390,"[(1074, 875)]",[],[1],[0.48333333333333334],vertical,"(890.0, 262.0)",0.7666666666666666,0.454,1,2330.602
7,False,391,"[(1058, 884)]",[],[1],[0.5166666666666666],vertical,"(890.0, 262.0)",0.7,0.485,1,2334.895
7,False,392,"[(1047, 890)]",[],[1],[0.6333333333333333],vertical,"(390.0, 762.0)",1.0833333333333333,0.595,1,2339.168
7,False,393,"[(1052, 885)]",[],[1],[0.6166666666666667],vertical,"(390.0, 762.0)",1.0,0.577,1,2344.328
7,False,394,"[(1046, 890)]",[],[1],[0.6],vertical,"(890.0, 762.0)",0.6,0.556,1,2349.261
7,False,395,"[(1062, 890)]",[],[1],[0.5833333333333334],horizontal,"(890.0, 762.0)",0.9333333333333333,0.546,1,2353.742
7,False,396,"[(1047, 871)]",[],[1],[0.5666666666666667],vertical,"(890.0, 762.0)",0.5666666666666667,0.522,1,2358.134
7,False,397,"[(1058, 882)]",[],[1],[0.6],horizontal,"(890.0, 262.0)",1.3666666666666667,0.557,1,2362.052
7,False,398,"[(1047, 880)]",[],[1],[0.5333333333333333],vertical,"(390.0, 262.0)",1.65,0.492,1,2367.029
7,False,399,"[(1048, 903)]",[],[1],[0.55],vertical,"(890.0, 262.0)",1.0666666666666667,0.506,1,2372.479
7,False,400,"[(1047, 890)]",[],[1],[0.4],vertical,"(390.0, 762.0)",1.1666666666666667,0.364,1,2377.451
7,False,401,"[(1047, 867)]",[],[1],[0.55],horizontal,"(390.0, 262.0)",0.8166666666666667,0.51,1,2381.978
7,False,402,"[(1052, 890)]",[],[1],[0.6],vertical,"(390.0, 762.0)",1.4166666666666667,0.554,1,2386.703
7,False,403,"[(1047, 895)]",[],[1],[0.7],horizontal,"(890.0, 762.0)",1.45,0.663,1,2391.528
7,False,404,"[(1047, 866)]",[],[1],[0.7166666666666667],horizontal,"(390.0, 762.0)",0.65,0.671,1,2396.952
7,False,405,"[(1052, 857)]",[],[1],[0.6166666666666667],vertical,"(890.0, 262.0)",1.6666666666666667,0.571,1,2401.312
7,False,406,"[(1058, 890)]",[],[1],[0.75],vertical,"(890.0, 262.0)",1.1166666666666667,0.701,1,2406.384
7,False,407,"[(1052, 875)]",[],[1],[0.55],horizontal,"(390.0, 262.0)",1.2166666666666666,0.516,1,2411.202
7,False,408,"[(1086, 885)]",[],[1],[0.5666666666666667],vertical,"(390.0, 762.0)",0.6666666666666666,0.534,1,2415.968
7,False,409,"[(1046, 887)]",[],[1],[0.5666666666666667],vertical,"(390.0, 762.0)",1.6333333333333333,0.526,1,2420.449
7,False,410,"[(1042, 862)]",[],[1],[0.15],horizontal,"(390.0, 262.0)",1.65,0.116,1,2425.63
7,False,411,"[(1042, 885)]",[],[1],[0.55],horizontal,"(890.0, 262.0)",0.6833333333333333,0.519,1,2430.681
7,False,412,"[(1076, 860)]",[],[1],[0.6833333333333333],horizontal,"(390.0, 762.0)",1.5166666666666666,0.636,1,2435.164
7,False,413,"[(1042, 892)]",[],[1],[0.85],horizontal,"(390.0, 762.0)",0.6333333333333333,0.804,0,2440.758
7,False,414,"[(1033, 902)]",[],[1],[0.7],vertical,"(890.0, 262.0)",0.65,0.669,1,2445.733
7,False,415,"[(1034, 905)]",[],[1],[0.5333333333333333],vertical,"(390.0, 262.0)",1.2833333333333332,0.489,1,2520.528
7,False,416,"[(1058, 897)]",[],[1],[0.6333333333333333],horizontal,"(390.0, 262.0)",1.3166666666666667,0.591,1,2525.14
7,False,417,"[(1040, 885)]",[],[1],[0.55],vertical,"(390.0, 262.0)",0.6666666666666666,0.514,1,2530.296
7,False,418,"[(1060, 919)]",[],[1],[0.6166666666666667],vertical,"(890.0, 762.0)",0.7,0.576,1,2534.968
7,False,419,"[(1047, 894)]",[],[1],[0.6],vertical,"(890.0, 762.0)",1.0,0.559,1,2539.248
7,False,420,"[(1042, 885)]",[],[1],[0.5666666666666667],vertical,"(890.0, 762.0)",1.4666666666666666,0.526,1,2543.78
8,False,421,"[(1036, 896)]",[],[1],[0.5666666666666667],vertical,"(890.0, 762.0)",1.25,0.529,1,2548.665
8,False,422,"[(1047, 880)]",[],[1],[0.5333333333333333],vertical,"(890.0, 262.0)",0.5166666666666666,0.502,1,2554.465
8,False,423,"[(1062, 895)]",[],[1],[0.7833333333333333],horizontal,"(390.0, 262.0)",0.6833333333333333,0.735,1,2558.869
8,False,424,"[(1041, 896)]",[],[1],[0.6833333333333333],horizontal,"(390.0, 762.0)",0.8333333333333334,0.638,1,2563.202
8,False,425,"[(1058, 900)]",[],[1],[0.5333333333333333],horizontal,"(390.0, 762.0)",1.5333333333333332,0.493,1,2568.086
8,False,426,"[(1028, 895)]",[],[1],[0.65],vertical,"(890.0, 762.0)",1.2333333333333334,0.614,1,2573.195
8,False,427,"[(1067, 898)]",[],[1],[0.5666666666666667],vertical,"(890.0, 762.0)",0.9166666666666666,0.524,1,2578.294
8,False,428,"[(1047, 895)]",[],[1],[0.8],horizontal,"(890.0, 762.0)",1.1,0.751,1,2582.763
8,False,429,"[(1051, 871)]",[],[1],[0.6],horizontal,"(390.0, 762.0)",1.4833333333333334,0.566,1,2587.635
8,False,430,"[(1053, 873)]",[],[1],[0.6166666666666667],horizontal,"(390.0, 262.0)",1.0333333333333332,0.575,1,2592.735
8,False,431,"[(1053, 881)]",[],[1],[0.43333333333333335],vertical,"(390.0, 262.0)",1.6166666666666667,0.395,1,2597.75
8,False,432,"[(1012, 900)]",[],[1],[0.55],horizontal,"(390.0, 762.0)",1.5666666666666667,0.51,1,2603.121
8,False,433,"[(1059, 890)]",[],[1],[0.6],vertical,"(390.0, 762.0)",0.85,0.56,1,2608.316
8,False,434,"[(1040, 883)]",[],[1],[0.6166666666666667],vertical,"(890.0, 762.0)",1.5666666666666667,0.575,1,2613.276
8,False,435,"[(1058, 878)]",[],[1],[0.55],horizontal,"(390.0, 262.0)",1.4666666666666666,0.51,1,2618.842
8,False,436,"[(1067, 872)]",[],[1],[0.5666666666666667],vertical,"(390.0, 262.0)",1.25,0.522,1,2623.913
8,False,437,"[(1067, 911)]",[],[1],[0.6],vertical,"(890.0, 262.0)",1.3333333333333333,0.556,1,2629.238
8,False,438,"[(1047, 875)]",[],[1],[0.6166666666666667],vertical,"(890.0, 262.0)",1.2666666666666666,0.573,1,2634.379
8,False,439,"[(1067, 890)]",[],[1],[0.6666666666666666],vertical,"(890.0, 762.0)",1.6,0.624,1,2639.197
8,False,440,"[(1058, 880)]",[],[1],[0.7],horizontal,"(890.0, 262.0)",0.7,0.656,1,2644.711
8,False,441,"[(1061, 876)]",[],[1],[0.55],vertical,"(390.0, 762.0)",1.1666666666666667,0.512,1,2649.425
8,False,442,"[(1055, 884)]",[],[1],[0.5833333333333334],horizontal,"(890.0, 762.0)",0.7666666666666666,0.545,1,2654.269
8,False,443,"[(1028, 883)]",[],[1],[0.55],horizontal,"(390.0, 262.0)",1.4666666666666666,0.511,1,2658.618
8,False,444,"[(1060, 882)]",[],[1],[0.5666666666666667],horizontal,"(390.0, 262.0)",1.1,0.525,1,2663.8
8,False,445,"[(1048, 881)]",[],[1],[0.5666666666666667],horizontal,"(390.0, 262.0)",1.5,0.523,1,2668.764
8,False,446,"[(1040, 879)]",[],[1],[0.7333333333333333],horizontal,"(890.0, 762.0)",1.3666666666666667,0.688,1,2674.103
8,False,447,"[(1052, 897)]",[],[1],[0.5833333333333334],horizontal,"(390.0, 762.0)",0.7833333333333333,0.54,1,2679.442
8,False,448,"[(1042, 895)]",[],[1],[0.55],vertical,"(390.0, 262.0)",1.1833333333333333,0.508,1,2684.364
8,False,449,"[(1043, 881)]",[],[1],[0.65],horizontal,"(890.0, 262.0)",0.9833333333333333,0.61,1,2689.236
8,False,450,"[(1059, 886)]",[],[1],[0.6166666666666667],horizontal,"(890.0, 762.0)",1.3333333333333333,0.568,1,2693.84
8,False,451,"[(1042, 878)]",[],[1],[0.5666666666666667],vertical,"(890.0, 262.0)",0.8833333333333333,0.53,1,2698.913
8,False,452,"[(1061, 881)]",[],[1],[0.5666666666666667],vertical,"(390.0, 262.0)",1.5166666666666666,0.526,1,2703.458
8,False,453,"[(1052, 872)]",[],[1],[0.5833333333333334],horizontal,"(890.0, 262.0)",1.25,0.546,1,2708.078
8,False,454,"[(1066, 903)]",[],[1],[0.55],vertical,"(890.0, 262.0)",0.6166666666666667,0.507,1,2712.933
8,False,455,"[(1086, 888)]",[],[1],[0.6166666666666667],horizontal,"(390.0, 762.0)",0.6,0.579,1,2717.187
8,False,456,"[(1028, 915)]",[],[1],[0.6333333333333333],vertical,"(890.0, 262.0)",0.7333333333333333,0.591,1,3732.915
8,False,457,"[(1026, 891)]",[],[1],[0.7333333333333333],horizontal,"(890.0, 762.0)",1.0666666666666667,0.691,1,3737.435
8,False,458,"[(1028, 906)]",[],[1],[0.6166666666666667],horizontal,"(890.0, 762.0)",1.0,0.581,1,3742.611
8,False,459,"[(1033, 905)]",[],[1],[0.6166666666666667],vertical,"(390.0, 262.0)",1.5,0.578,1,3747.341
8,False,460,"[(1034, 890)]",[],[1],[0.6166666666666667],horizontal,"(890.0, 262.0)",1.3,0.576,1,3752.368
8,False,461,"[(1028, 903)]",[],[1],[0.5666666666666667],vertical,"(390.0, 262.0)",0.7,0.524,1,3757.547
8,False,462,"[(1042, 890)]",[],[1],[0.6666666666666666],horizontal,"(390.0, 262.0)",1.05,0.624,1,3761.714
8,False,463,"[(1043, 900)]",[],[1],[0.55],vertical,"(890.0, 262.0)",1.4666666666666666,0.509,1,3766.23
8,False,464,"[(1049, 907)]",[],[1],[0.7],horizontal,"(390.0, 762.0)",0.6666666666666666,0.656,1,3771.997
8,False,465,"[(1062, 901)]",[],[1],[0.6],horizontal,"(890.0, 762.0)",1.2,0.562,1,3776.377
8,False,466,"[(1063, 911)]",[],[1],[0.85],horizontal,"(890.0, 262.0)",1.1166666666666667,0.805,0,3781.281
8,False,467,"[(1052, 871)]",[],[1],[0.5333333333333333],vertical,"(890.0, 262.0)",1.1166666666666667,0.493,1,3786.306
8,False,468,"[(1038, 883)]",[],[1],[0.65],horizontal,"(890.0, 762.0)",1.1166666666666667,0.607,1,3790.953
8,False,469,"[(1038, 914)]",[],[1],[0.55],vertical,"(390.0, 262.0)",1.5166666666666666,0.51,1,3796.007
8,False,470,"[(1061, 887)]",[],[1],[0.55],vertical,"(390.0, 262.0)",1.3,0.509,1,3800.936
8,False,471,"[(1062, 905)]",[],[1],[0.55],horizontal,"(890.0, 262.0)",1.0833333333333333,0.509,1,3806.282
8,False,472,"[(1057, 909)]",[],[1],[0.45],horizontal,"(390.0, 262.0)",1.1166666666666667,0.412,1,3811.355
8,False,473,"[(1056, 898)]",[],[1],[0.5666666666666667],vertical,"(890.0, 762.0)",0.6833333333333333,0.53,1,3815.941
8,False,474,"[(1047, 875)]",[],[1],[0.5833333333333334],vertical,"(890.0, 762.0)",1.4333333333333333,0.543,1,3820.215
8,False,475,"[(1057, 919)]",[],[1],[0.5333333333333333],vertical,"(890.0, 262.0)",0.9,0.492,1,3825.533
8,False,476,"[(1048, 905)]",[],[1],[0.5666666666666667],horizontal,"(390.0, 762.0)",0.9,0.533,1,3830.57
8,False,477,"[(1042, 880)]",[],[1],[0.5666666666666667],horizontal,"(890.0, 262.0)",0.9666666666666667,0.528,1,3835.249
8,False,478,"[(1079, 901)]",[],[1],[0.5833333333333334],vertical,"(390.0, 762.0)",1.45,0.539,1,3840.104
8,False,479,"[(1057, 919)]",[],[1],[0.23333333333333334],horizontal,"(890.0, 262.0)",1.1166666666666667,0.2,1,3845.31
8,False,480,"[(1040, 905)]",[],[1],[0.7333333333333333],vertical,"(390.0, 762.0)",1.05,0.685,1,3850.099
9,False,481,"[(1057, 905)]",[],[1],[0.6],vertical,"(890.0, 762.0)",0.6,0.558,1,3855.065
9,False,482,"[(1062, 906)]",[],[1],[0.6333333333333333],vertical,"(890.0, 262.0)",0.6666666666666666,0.587,1,3859.583
9,False,483,"[(1049, 903)]",[],[1],[0.5333333333333333],horizontal,"(890.0, 262.0)",1.4333333333333333,0.489,1,3864.227
9,False,484,"[(1063, 885)]",[],[1],[0.5333333333333333],horizontal,"(390.0, 262.0)",0.9166666666666666,0.498,1,3869.67
9,False,485,"[(1042, 885)]",[],[1],[0.5666666666666667],horizontal,"(390.0, 762.0)",1.25,0.523,1,3874.035
9,False,486,"[(1043, 901)]",[],[1],[0.6333333333333333],horizontal,"(390.0, 762.0)",1.1166666666666667,0.586,1,3878.947
9,False,487,"[(1016, 885)]",[],[1],[0.65],vertical,"(890.0, 762.0)",0.8333333333333334,0.606,1,3883.687
9,False,488,"[(1043, 901)]",[],[1],[0.48333333333333334],horizontal,"(390.0, 262.0)",1.5166666666666666,0.441,1,3888.516
9,False,489,"[(1046, 895)]",[],[1],[0.5166666666666666],horizontal,"(890.0, 262.0)",0.8333333333333334,0.476,1,3894.016
9,False,490,"[(1054, 931)]",[],[1],[0.55],horizontal,"(890.0, 262.0)",1.65,0.512,1,3898.615
9,False,491,"[(1058, 905)]",[],[1],[0.7],vertical,"(390.0, 262.0)",1.25,0.655,1,3904.183
9,False,492,"[(1057, 919)]",[],[1],[0.5833333333333334],horizontal,"(890.0, 762.0)",0.85,0.541,1,3909.193
9,False,493,"[(1040, 910)]",[],[1],[0.5833333333333334],vertical,"(890.0, 762.0)",0.5666666666666667,0.54,1,3914.201
9,False,494,"[(1086, 897)]",[],[1],[0.7],vertical,"(390.0, 762.0)",1.0666666666666667,0.657,1,3918.61
9,False,495,"[(1038, 902)]",[],[1],[0.5833333333333334],horizontal,"(890.0, 262.0)",0.6833333333333333,0.538,1,3923.753
9,False,496,"[(1055, 910)]",[],[1],[0.5333333333333333],horizontal,"(890.0, 262.0)",1.0,0.489,1,3928.142
9,False,497,"[(1057, 888)]",[],[1],[0.6],vertical,"(890.0, 262.0)",1.6666666666666667,0.559,1,3932.696
9,False,498,"[(1061, 890)]",[],[1],[0.5833333333333334],vertical,"(390.0, 762.0)",1.1,0.542,1,3937.881
9,False,499,"[(1058, 892)]",[],[1],[0.5666666666666667],horizontal,"(890.0, 762.0)",1.2166666666666666,0.522,1,3943.014
9,False,500,"[(1058, 896)]",[],[1],[0.11666666666666667],horizontal,"(890.0, 262.0)",1.45,0.082,1,3948.054
9,False,501,"[(1044, 903)]",[],[1],[0.55],vertical,"(390.0, 262.0)",1.5,0.509,1,3953.068
9,False,502,"[(1036, 895)]",[],[1],[0.5666666666666667],vertical,"(390.0, 262.0)",1.3,0.524,1,3958.126
9,False,503,"[(1039, 896)]",[],[1],[0.6],horizontal,"(390.0, 262.0)",0.5666666666666667,0.563,1,3963.37
9,False,504,"[(1052, 890)]",[],[1],[0.85],horizontal,"(890.0, 262.0)",1.3666666666666667,0.797,0,3967.583
9,False,505,"[(1059, 890)]",[],[1],"[0.85, 0.85]",horizontal,"(390.0, 262.0)",1.05,"0.799,0.799",0,3972.857
9,False,506,"[(1044, 885)]",[],[1],[0.55],vertical,"(890.0, 762.0)",1.65,0.514,1,3978.17
9,False,507,"[(1059, 881)]",[],[1],[0.5333333333333333],vertical,"(890.0, 262.0)",1.6,0.496,1,3984.08
9,False,508,"[(1038, 879)]",[],[1],[0.75],vertical,"(890.0, 762.0)",0.9333333333333333,0.702,1,3989.378
9,False,509,"[(1062, 899)]",[],[1],[0.7666666666666666],vertical,"(390.0, 762.0)",1.6833333333333333,0.717,1,3993.767
9,False,510,"[(1024, 894)]",[],[1],[],horizontal,"(390.0, 262.0)",,cti_phase,0,3998.963
9,False,511,"[(1017, 876)]",[],[1],[0.5666666666666667],horizontal,"(890.0, 262.0)",1.3166666666666667,0.523,1,4003.78
9,False,512,"[(1048, 899)]",[],[1],[0.48333333333333334],vertical,"(390.0, 262.0)",1.6,0.445,1,4021.53
9,False,513,"[(1023, 893)]",[],[1],[0.5666666666666667],horizontal,"(890.0, 762.0)",0.9666666666666667,0.522,1,4026.734
9,False,514,"[(1055, 909)]",[],[1],[0.5333333333333333],vertical,"(390.0, 262.0)",1.65,0.499,1,4031.308
9,False,515,"[(1042, 900)]",[],[1],[0.55],vertical,"(390.0, 262.0)",1.6166666666666667,0.519,1,4036.095
9,False,516,"[(1057, 896)]",[],[1],[0.6666666666666666],horizontal,"(890.0, 262.0)",0.8,0.625,1,4041.717
9,False,517,"[(1036, 902)]",[],[1],[0.55],vertical,"(890.0, 262.0)",0.7666666666666666,0.51,1,4046.48
9,False,518,"[(1037, 877)]",[],[1],[0.85],horizontal,"(390.0, 262.0)",0.8333333333333334,0.801,0,4051.134
9,False,519,"[(1042, 879)]",[],[1],[0.5833333333333334],horizontal,"(890.0, 762.0)",1.55,0.547,1,4056.279
9,False,520,"[(1058, 915)]",[],[1],[0.55],horizontal,"(390.0, 262.0)",1.15,0.506,1,4064.327
9,False,521,"[(999, 903), (1072, 866)]",[],"[0, 1]",[0.55],vertical,"(390.0, 262.0)",1.25,0.51,1,4068.752
9,False,522,"[(1042, 902)]",[],[1],[],vertical,"(390.0, 762.0)",,cti_phase,0,4074.855
9,False,523,"[(1055, 895)]",[],[1],[0.5333333333333333],horizontal,"(890.0, 762.0)",1.0833333333333333,0.492,1,4079.853
9,False,524,"[(1066, 908)]",[],[1],[0.5333333333333333],horizontal,"(890.0, 262.0)",0.7,0.493,1,4087.826
9,False,525,"[(1042, 919)]",[],[1],[0.55],vertical,"(890.0, 762.0)",0.9,0.518,1,4092.053
9,False,526,"[(1042, 903)]",[],[1],[0.5833333333333334],vertical,"(390.0, 762.0)",1.2833333333333332,0.547,1,4096.432
9,False,527,"[(1045, 887)]",[],[1],[0.5333333333333333],horizontal,"(390.0, 262.0)",1.2166666666666666,0.501,1,4101.599
9,False,528,"[(1038, 894)]",[],[1],[0.85],horizontal,"(390.0, 762.0)",0.6833333333333333,0.807,0,4106.082
9,False,529,"[(1075, 885)]",[],[1],[0.55],vertical,"(890.0, 262.0)",0.5333333333333333,0.512,1,4110.782
9,False,530,"[(1062, 925)]",[],[1],[0.15],horizontal,"(390.0, 262.0)",1.6,0.118,1,4115.048
9,False,531,"[(1044, 904)]",[],[1],[0.45],horizontal,"(890.0, 262.0)",1.3833333333333333,0.408,1,4119.594
9,False,532,"[(1042, 898)]",[],[1],[0.5166666666666666],vertical,"(390.0, 262.0)",1.1,0.475,1,4124.121
9,False,533,"[(1058, 898)]",[],[1],[0.6],vertical,"(890.0, 262.0)",1.0166666666666666,0.56,1,4134.047
9,False,534,"[(1042, 892)]",[],[1],[0.6166666666666667],vertical,"(390.0, 762.0)",1.3166666666666667,0.572,1,4138.937
9,False,535,"[(1047, 899)]",[],[1],[0.5333333333333333],vertical,"(890.0, 262.0)",1.55,0.492,1,4143.834
9,False,536,"[(1057, 888)]",[],[1],[0.6166666666666667],vertical,"(390.0, 762.0)",0.6166666666666667,0.58,1,4149.573
9,False,537,"[(1019, 880)]",[],[1],[0.5833333333333334],vertical,"(390.0, 762.0)",1.4,0.542,1,4153.69
9,False,538,"[(1062, 882)]",[],[1],[0.5666666666666667],vertical,"(890.0, 762.0)",0.95,0.528,1,4158.939
9,False,539,"[(1062, 895)]",[],[1],[0.6166666666666667],vertical,"(390.0, 262.0)",1.1333333333333333,0.581,1,4163.587
9,False,540,"[(1057, 889)]",[],[1],[0.5166666666666666],vertical,"(390.0, 762.0)",0.5666666666666667,0.474,1,4168.333
10,False,541,"[(1050, 900)]",[],[1],[0.55],vertical,"(390.0, 262.0)",1.5166666666666666,0.504,1,4172.365
10,False,542,"[(1058, 890)]",[],[1],[0.85],horizontal,"(890.0, 262.0)",0.9666666666666667,0.812,0,4177.378
10,False,543,"[(1061, 877)]",[],[1],[0.5666666666666667],horizontal,"(890.0, 262.0)",1.5833333333333333,0.527,1,4182.269
10,False,544,"[(1062, 901)]",[],[1],[0.5166666666666666],vertical,"(890.0, 262.0)",1.2166666666666666,0.476,1,4187.752
10,False,545,"[(1063, 900)]",[],[1],[0.5833333333333334],vertical,"(390.0, 262.0)",0.6333333333333333,0.542,1,4192.235
10,False,546,"[(1052, 872)]",[],[1],[0.6166666666666667],horizontal,"(890.0, 762.0)",1.6833333333333333,0.575,1,4197.07
10,False,547,"[(1062, 900)]",[],[1],[],vertical,"(390.0, 262.0)",,cti_phase,0,4202.381
10,False,548,"[(1057, 885)]",[],[1],[0.7],vertical,"(390.0, 762.0)",1.5,0.656,1,4206.992
10,False,549,"[(1058, 881)]",[],[1],[0.6],vertical,"(890.0, 762.0)",1.3666666666666667,0.555,1,4211.937
10,False,550,"[(1047, 883)]",[],[1],[0.6],vertical,"(890.0, 762.0)",1.2666666666666666,0.556,1,4217.007
10,False,551,"[(1081, 876)]",[],[1],[0.85],vertical,"(390.0, 262.0)",0.9666666666666667,0.798,0,4222.086
10,False,552,"[(1026, 881)]",[],[1],[0.6],horizontal,"(390.0, 262.0)",1.1166666666666667,0.55,1,4227.188
10,False,553,"[(1067, 898)]",[],[1],[0.6333333333333333],horizontal,"(890.0, 762.0)",1.1333333333333333,0.588,1,4232.064
10,False,554,"[(1062, 888)]",[],[1],[0.55],horizontal,"(890.0, 762.0)",1.1166666666666667,0.505,1,4236.62
10,False,555,"[(1058, 899)]",[],[1],[0.7333333333333333],vertical,"(890.0, 262.0)",1.0833333333333333,0.684,1,4240.942
10,False,556,"[(1038, 886)]",[],[1],[0.6],horizontal,"(390.0, 262.0)",1.2833333333333332,0.557,1,4245.697
10,False,557,"[(1086, 900)]",[],[1],[0.5333333333333333],vertical,"(890.0, 262.0)",1.15,0.495,1,4251.101
10,False,558,"[(1047, 901)]",[],[1],[0.55],vertical,"(890.0, 262.0)",1.6833333333333333,0.503,1,4256.02
10,False,559,"[(1049, 879)]",[],[1],[0.6],vertical,"(890.0, 262.0)",0.5,0.555,1,4261.329
10,False,560,"[(1048, 884)]",[],[1],[0.08333333333333333],vertical,"(390.0, 762.0)",1.0333333333333332,0.053,1,4265.986
10,False,561,"[(1045, 897)]",[],[1],[0.5],horizontal,"(890.0, 262.0)",1.3166666666666667,0.464,1,4270.086
10,False,562,"[(1063, 915)]",[],[1],[0.6],horizontal,"(890.0, 262.0)",0.8666666666666667,0.561,1,4275.211
10,False,563,"[(1042, 873)]",[],[1],[0.55],horizontal,"(890.0, 262.0)",1.4666666666666666,0.503,1,4280.11
10,False,564,"[(1045, 876)]",[],[1],[0.55],vertical,"(390.0, 762.0)",0.6,0.514,1,4285.495
10,False,565,"[(1030, 894)]",[],[1],[0.6],horizontal,"(890.0, 762.0)",1.6166666666666667,0.561,1,4289.72
10,False,566,"[(1048, 895)]",[],[1],[0.5833333333333334],horizontal,"(390.0, 262.0)",0.6333333333333333,0.543,1,4295.093
10,False,567,"[(1042, 879)]",[],[1],[0.5333333333333333],horizontal,"(390.0, 762.0)",1.6333333333333333,0.491,1,4299.311
10,False,568,"[(1067, 902)]",[],[1],[0.6],vertical,"(390.0, 762.0)",1.0833333333333333,0.553,1,4304.566
10,False,569,"[(1057, 884)]",[],[1],[0.65],vertical,"(890.0, 762.0)",0.9166666666666666,0.61,1,4309.493
10,False,570,"[(1028, 893)]",[],[1],[0.7166666666666667],vertical,"(390.0, 762.0)",0.65,0.677,1,4314.185
10,False,571,"[(1045, 896)]",[],[1],[0.7166666666666667],horizontal,"(890.0, 262.0)",0.9666666666666667,0.67,1,4318.952
10,False,572,"[(1038, 893)]",[],[1],[0.5666666666666667],vertical,"(390.0, 262.0)",0.7166666666666667,0.527,1,4323.754
10,False,573,"[(1061, 889)]",[],[1],[0.5333333333333333],vertical,"(390.0, 262.0)",1.5,0.492,1,4328.618
10,False,574,"[(1060, 890)]",[],[1],[0.5833333333333334],horizontal,"(890.0, 762.0)",0.55,0.538,1,4334.158
10,False,575,"[(1033, 883)]",[],[1],[0.7166666666666667],horizontal,"(890.0, 262.0)",0.5333333333333333,0.668,1,4338.785
10,False,576,"[(1043, 896)]",[],[1],[0.11666666666666667],horizontal,"(390.0, 262.0)",1.5833333333333333,0.085,1,4342.99
10,False,577,"[(1066, 910)]",[],[1],[0.5666666666666667],vertical,"(890.0, 262.0)",0.9333333333333333,0.523,1,4347.586
10,False,578,"[(1051, 893)]",[],[1],[0.5833333333333334],horizontal,"(390.0, 762.0)",1.55,0.545,1,4352.288
10,False,579,"[(1033, 900)]",[],[1],[0.5666666666666667],horizontal,"(890.0, 262.0)",1.2333333333333334,0.524,1,4357.333
10,False,580,"[(1051, 893)]",[],[1],[0.3833333333333333],horizontal,"(390.0, 262.0)",1.4333333333333333,0.344,1,4362.444
10,False,581,"[(1047, 887)]",[],[1],[0.6333333333333333],horizontal,"(890.0, 762.0)",0.95,0.594,1,4367.449
10,False,582,"[(1066, 894)]",[],[1],[0.55],horizontal,"(390.0, 762.0)",1.5333333333333332,0.512,1,4372.126
10,False,583,"[(1045, 872)]",[],[1],[0.5833333333333334],horizontal,"(390.0, 762.0)",0.55,0.537,1,4377.587
10,False,584,"[(1042, 903)]",[],[1],[0.6],horizontal,"(390.0, 262.0)",0.5,0.557,1,4381.592
10,False,585,"[(1063, 889)]",[],[1],[0.5833333333333334],horizontal,"(890.0, 262.0)",0.85,0.541,1,4386.182
10,False,586,"[(1042, 890)]",[],[1],[0.75],vertical,"(890.0, 762.0)",0.6166666666666667,0.703,1,4390.523
10,False,587,"[(1057, 885)]",[],[1],[0.6833333333333333],vertical,"(390.0, 762.0)",1.4666666666666666,0.64,1,4395.14
10,False,588,"[(1041, 894)]",[],[1],[0.7666666666666666],vertical,"(890.0, 262.0)",0.5166666666666666,0.724,1,4400.187
10,False,589,"[(1059, 892)]",[],[1],[0.55],horizontal,"(390.0, 762.0)",0.6666666666666666,0.51,1,4404.36
10,False,590,"[(1038, 897)]",[],[1],[0.55],horizontal,"(890.0, 262.0)",1.2166666666666666,0.508,1,4408.449
10,False,591,"[(1057, 905)]",[],[1],[0.5666666666666667],vertical,"(390.0, 762.0)",0.5166666666666666,0.533,1,4413.636
10,False,592,"[(1042, 884)]",[],[1],[0.55],vertical,"(890.0, 762.0)",1.3666666666666667,0.509,1,4417.63
10,False,593,"[(1044, 877)]",[],[1],[0.6833333333333333],vertical,"(390.0, 762.0)",0.8166666666666667,0.637,1,4422.885
10,False,594,"[(1058, 870)]",[],[1],[0.5833333333333334],vertical,"(890.0, 762.0)",0.9833333333333333,0.538,1,4427.585
10,False,595,"[(1045, 903)]",[],[1],[0.6],horizontal,"(890.0, 762.0)",1.1166666666666667,0.555,1,4432.232
10,False,596,"[(1070, 900)]",[],[1],[0.6],vertical,"(890.0, 762.0)",0.7666666666666666,0.558,1,4437.18
10,False,597,"[(1062, 907)]",[],[1],[0.6666666666666666],vertical,"(890.0, 262.0)",0.55,0.628,1,4441.802
10,False,598,"[(1057, 896)]",[],[1],[0.6166666666666667],vertical,"(890.0, 262.0)",1.3666666666666667,0.576,1,4446.149
10,False,599,"[(1062, 898)]",[],[1],[0.55],vertical,"(890.0, 262.0)",1.6666666666666667,0.51,1,4450.927
10,False,600,"[(1076, 902)]",[],[1],[0.5666666666666667],vertical,"(890.0, 762.0)",1.4166666666666667,0.531,1,4456.165
11,False,601,"[(1051, 882)]",[],[1],[0.7166666666666667],vertical,"(890.0, 762.0)",1.45,0.671,1,4461.121
11,False,602,"[(1067, 880)]",[],[1],[0.6],vertical,"(890.0, 762.0)",0.85,0.565,1,4466.486
11,False,603,"[(1077, 900)]",[],[1],[0.6833333333333333],vertical,"(390.0, 762.0)",1.6833333333333333,0.639,1,4471.147
11,False,604,"[(1065, 897)]",[],[1],[0.5666666666666667],horizontal,"(890.0, 262.0)",0.7333333333333333,0.532,1,4476.354
11,False,605,"[(1047, 876)]",[],[1],[0.7333333333333333],vertical,"(890.0, 262.0)",0.5666666666666667,0.704,1,4480.424
11,False,606,"[(1068, 901)]",[],[1],[0.6166666666666667],vertical,"(890.0, 762.0)",1.6666666666666667,0.578,1,4484.851
11,False,607,"[(1055, 898)]",[],[1],[0.6833333333333333],horizontal,"(390.0, 262.0)",1.1833333333333333,0.659,1,4490.27
11,False,608,"[(1086, 902)]",[],[1],[0.75],vertical,"(890.0, 262.0)",0.8166666666666667,0.709,1,4495.228
11,False,609,"[(1058, 890)]",[],[1],[0.6],vertical,"(890.0, 762.0)",0.8166666666666667,0.559,1,4499.934
11,False,610,"[(1077, 900)]",[],[1],[0.5333333333333333],horizontal,"(890.0, 262.0)",1.2666666666666666,0.492,1,4504.915
11,False,611,"[(1059, 902)]",[],[1],[0.55],horizontal,"(890.0, 262.0)",0.9166666666666666,0.51,1,4509.515
11,False,612,"[(1044, 876)]",[],[1],[0.43333333333333335],horizontal,"(390.0, 262.0)",1.2,0.393,1,4514.215
11,False,613,"[(1044, 877)]",[],[1],[0.75],horizontal,"(890.0, 262.0)",0.8,0.718,1,4519.387
11,False,614,"[(1054, 886)]",[],[1],[0.55],vertical,"(390.0, 262.0)",0.95,0.516,1,4523.973
11,False,615,"[(1050, 896)]",[],[1],[0.55],horizontal,"(390.0, 262.0)",1.05,0.518,1,4528.589
11,False,616,"[(1050, 875)]",[],[1],[0.7333333333333333],vertical,"(390.0, 262.0)",1.3,0.691,1,4533.387
11,False,617,"[(1029, 876)]",[],[1],[0.5833333333333334],vertical,"(890.0, 762.0)",1.2833333333333332,0.542,1,4538.557
11,False,618,"[(1064, 895)]",[],[1],[0.55],vertical,"(890.0, 262.0)",1.05,0.507,1,4543.576
11,False,619,"[(1047, 905)]",[],[1],[0.5833333333333334],horizontal,"(390.0, 762.0)",1.0333333333333332,0.54,1,4548.034
11,False,620,"[(1044, 895)]",[],[1],[0.6833333333333333],vertical,"(390.0, 262.0)",0.5,0.642,1,4553.204
11,False,621,"[(1042, 890)]",[],[1],[0.5333333333333333],horizontal,"(390.0, 262.0)",0.6833333333333333,0.5,1,4557.527
11,False,622,"[(1012, 870)]",[],[1],[0.5833333333333334],horizontal,"(890.0, 762.0)",0.5166666666666666,0.544,1,4562.355
11,False,623,"[(1047, 890)]",[],[1],[0.5166666666666666],vertical,"(890.0, 262.0)",0.75,0.479,1,4566.755
11,False,624,"[(1042, 885)]",[],[1],[0.55],vertical,"(390.0, 762.0)",0.9166666666666666,0.507,1,4571.262
11,False,625,"[(1058, 889)]",[],[1],[0.6],horizontal,"(390.0, 762.0)",0.5333333333333333,0.558,1,4576.184
11,False,626,"[(1038, 896)]",[],[1],[0.7],vertical,"(890.0, 762.0)",1.0,0.654,1,4580.203
11,False,627,"[(1043, 915)]",[],[1],[0.13333333333333333],horizontal,"(390.0, 262.0)",1.6666666666666667,0.103,1,4585.046
11,False,628,"[(1046, 886)]",[],[1],[0.5666666666666667],horizontal,"(890.0, 762.0)",1.2166666666666666,0.528,1,4590.302
11,False,629,"[(1058, 890)]",[],[1],[0.5666666666666667],horizontal,"(890.0, 762.0)",0.8166666666666667,0.524,1,4594.882
11,False,630,"[(1044, 905)]",[],[1],[0.5833333333333334],vertical,"(390.0, 762.0)",0.6666666666666666,0.544,1,4599.219
11,False,631,"[(1014, 895)]",[],[1],[0.6],horizontal,"(390.0, 762.0)",1.5666666666666667,0.557,1,4603.262
11,False,632,"[(1046, 880)]",[],[1],[0.5833333333333334],horizontal,"(890.0, 762.0)",1.5666666666666667,0.543,1,4608.087
11,False,633,"[(1047, 890)]",[],[1],[0.5833333333333334],vertical,"(390.0, 762.0)",1.4,0.541,1,4613.449
11,False,634,"[(1039, 888)]",[],[1],[0.6],horizontal,"(890.0, 762.0)",1.6,0.558,1,4618.235
11,False,635,"[(1063, 892)]",[],[1],[0.5666666666666667],horizontal,"(890.0, 762.0)",1.4666666666666666,0.527,1,4623.235
11,False,636,"[(1032, 887)]",[],[1],[0.5333333333333333],vertical,"(390.0, 762.0)",1.2166666666666666,0.496,1,4628.738
11,False,637,"[(1038, 905)]",[],[1],[0.7833333333333333],vertical,"(390.0, 762.0)",0.55,0.731,1,4633.865
11,False,638,"[(1033, 872)]",[],[1],[0.55],vertical,"(890.0, 762.0)",1.2,0.506,1,4637.846
11,False,639,"[(1057, 889)]",[],[1],[0.55],horizontal,"(890.0, 262.0)",1.5166666666666666,0.512,1,4642.792
11,False,640,"[(1064, 890)]",[],[1],[0.6166666666666667],horizontal,"(890.0, 762.0)",1.4166666666666667,0.579,1,4647.807
11,False,641,"[(1057, 903)]",[],[1],[0.6166666666666667],vertical,"(390.0, 762.0)",1.3666666666666667,0.568,1,4653.036
11,False,642,"[(1044, 895)]",[],[1],[0.65],horizontal,"(890.0, 762.0)",1.3,0.608,1,4657.908
11,False,643,"[(1022, 902)]",[],[1],[0.5666666666666667],vertical,"(390.0, 262.0)",1.1,0.527,1,4662.552
11,False,644,"[(1014, 894)]",[],[1],[0.7666666666666666],horizontal,"(890.0, 262.0)",0.6,0.718,1,4667.274
11,False,645,"[(1028, 884)]",[],[1],[0.5],horizontal,"(390.0, 262.0)",0.75,0.451,1,4671.596
11,False,646,"[(992, 867), (1055, 847)]",[],"[0, 1]",[0.5],vertical,"(390.0, 262.0)",1.2166666666666666,0.458,1,4676.281
11,False,647,"[(1062, 914)]",[],[1],[0.5833333333333334],vertical,"(390.0, 762.0)",1.15,0.541,1,4682.831
11,False,648,"[(1020, 868)]",[],[1],[0.6666666666666666],vertical,"(890.0, 762.0)",0.95,0.622,1,4687.596
11,False,649,"[(1038, 889)]",[],[1],[0.55],horizontal,"(890.0, 262.0)",1.6666666666666667,0.51,1,4692.139
11,False,650,"[(1026, 889)]",[],[1],[0.6333333333333333],vertical,"(890.0, 262.0)",0.6,0.59,1,4697.484
11,False,651,"[(1047, 894)]",[],[1],[0.5],vertical,"(390.0, 262.0)",1.1,0.462,1,4702.187
11,False,652,"[(1033, 905)]",[],[1],[0.5333333333333333],horizontal,"(390.0, 262.0)",1.0,0.492,1,4707.638
11,False,653,"[(1038, 876)]",[],[1],[0.6666666666666666],vertical,"(890.0, 762.0)",1.0666666666666667,0.617,1,4712.221
11,False,654,"[(1047, 899)]",[],[1],[0.6666666666666666],horizontal,"(890.0, 762.0)",0.6833333333333333,0.624,1,4717.208
11,False,655,"[(1062, 895)]",[],[1],[0.55],horizontal,"(890.0, 262.0)",0.8666666666666667,0.508,1,4721.68
11,False,656,"[(1042, 872)]",[],[1],[0.5833333333333334],horizontal,"(890.0, 762.0)",0.9833333333333333,0.545,1,4726.124
11,False,657,"[(1043, 884)]",[],[1],[0.7166666666666667],horizontal,"(390.0, 262.0)",1.1666666666666667,0.678,1,4730.45
11,False,658,"[(1049, 895)]",[],[1],[0.6666666666666666],vertical,"(390.0, 262.0)",1.0166666666666666,0.615,1,4735.889
11,False,659,"[(1047, 901)]",[],[1],[0.6333333333333333],horizontal,"(890.0, 762.0)",0.9833333333333333,0.591,1,4740.47
11,False,660,"[(1007, 883)]",[],[1],[0.5666666666666667],horizontal,"(890.0, 262.0)",0.7833333333333333,0.524,1,4745.634
12,False,661,"[(1075, 891)]",[],[1],[0.7333333333333333],horizontal,"(890.0, 762.0)",1.2,0.69,1,4750.05
12,False,662,"[(1052, 860)]",[],[1],[0.6],horizontal,"(890.0, 262.0)",1.0833333333333333,0.558,1,4755.32
12,False,663,"[(1023, 893)]",[],[1],[0.75],vertical,"(390.0, 262.0)",0.85,0.701,1,4760.702
12,False,664,"[(1042, 900)]",[],[1],[0.5833333333333334],horizontal,"(890.0, 762.0)",0.8333333333333334,0.539,1,4765.454
12,False,665,"[(1057, 900)]",[],[1],[0.6166666666666667],vertical,"(390.0, 762.0)",0.9166666666666666,0.571,1,4770.204
12,False,666,"[(1050, 904)]",[],[1],[0.6666666666666666],horizontal,"(390.0, 762.0)",0.9333333333333333,0.623,1,4774.77
12,False,667,"[(1046, 886)]",[],[1],[0.5],horizontal,"(890.0, 262.0)",1.6,0.46,1,4779.044
12,False,668,"[(1057, 891)]",[],[1],[0.65],horizontal,"(390.0, 262.0)",1.0,0.61,1,4784.27
12,False,669,"[(1047, 895)]",[],[1],[0.6166666666666667],horizontal,"(390.0, 762.0)",0.9166666666666666,0.573,1,4789.243
12,False,670,"[(1043, 898)]",[],[1],[0.55],vertical,"(390.0, 262.0)",0.65,0.51,1,4793.633
12,False,671,"[(1028, 870)]",[],[1],[0.6],vertical,"(890.0, 262.0)",1.4833333333333334,0.565,1,4798.255
12,False,672,"[(1052, 898)]",[],[1],[0.6],vertical,"(390.0, 262.0)",0.55,0.556,1,4803.698
12,False,673,"[(1044, 879)]",[],[1],[0.75],horizontal,"(890.0, 262.0)",0.5,0.712,1,4807.945
12,False,674,"[(1039, 881)]",[],[1],[0.5666666666666667],horizontal,"(390.0, 762.0)",0.7166666666666667,0.527,1,4811.816
12,False,675,"[(1067, 900)]",[],[1],[0.5833333333333334],horizontal,"(890.0, 762.0)",0.6666666666666666,0.542,1,4816.013
12,False,676,"[(1038, 885)]",[],[1],[0.6333333333333333],horizontal,"(390.0, 762.0)",1.0666666666666667,0.593,1,4820.182
12,False,677,"[(1047, 895)]",[],[1],[0.65],vertical,"(890.0, 262.0)",1.6666666666666667,0.604,1,4825.146
12,False,678,"[(144, 219), (989, 665), (147, 247), (973, 176), (748, 158), (1042, 257), (769, 142), (33, 147), (155, 175), (546, 227), (998, 186), (1087, 903)]",[],"[0, 0, 0, 0, 0, 0, 0, 0, 0, 0, 0, 1]",[],horizontal,"(890.0, 762.0)",,cti_phase,0,4830.225
12,False,679,"[(775, 186), (1086, 871)]",[],"[0, 1]",[0.5666666666666667],vertical,"(390.0, 262.0)",1.4333333333333333,0.525,1,4942.951
12,False,680,"[(1057, 852)]",[],[1],[0.85],vertical,"(390.0, 762.0)",1.4166666666666667,0.804,0,4949.482
12,False,681,"[(1042, 872)]",[],[1],[0.85],vertical,"(390.0, 762.0)",0.5166666666666666,0.803,0,4955.834
12,False,682,"[(1070, 879)]",[],[1],[0.5666666666666667],horizontal,"(390.0, 762.0)",0.7166666666666667,0.53,1,4959.935
12,False,683,"[(1023, 868)]",[],[1],[0.5666666666666667],vertical,"(890.0, 762.0)",0.9666666666666667,0.526,1,4967.341
12,False,684,"[(1040, 887)]",[],[1],[0.5666666666666667],vertical,"(390.0, 762.0)",1.2833333333333332,0.529,1,4972.001
12,False,685,"[(1077, 873)]",[],[1],[0.85],vertical,"(890.0, 262.0)",0.5666666666666667,0.811,0,4977.23
12,False,686,"[(1052, 900)]",[],[1],[0.8333333333333334],horizontal,"(390.0, 762.0)",1.6,0.79,1,4983.782
12,False,687,"[(1091, 412), (1060, 898)]",[],"[0, 1]",[0.85],vertical,"(890.0, 262.0)",0.6166666666666667,0.805,0,4989.154
12,False,688,"[(1052, 890)]",[],[1],[0.85],horizontal,"(890.0, 762.0)",0.5,0.81,0,4996.799
12,False,689,"[(1051, 893)]",[],[1],[0.6],vertical,"(390.0, 762.0)",0.5,0.563,1,5001.3
12,False,690,"[(1055, 887)]",[],[1],[0.85],horizontal,"(890.0, 762.0)",0.65,0.802,0,5005.399
12,False,691,"[(1056, 877)]",[],[1],[0.5666666666666667],horizontal,"(890.0, 762.0)",0.6,0.522,1,5010.236
12,False,692,"[(1021, 894)]",[],[1],[0.8333333333333334],horizontal,"(390.0, 762.0)",1.2666666666666666,0.788,1,5014.834
12,False,693,"[(1068, 893)]",[],[1],[],vertical,"(890.0, 262.0)",,cti_phase,0,5019.766
12,False,694,"[(739, 449), (755, 744), (859, 679), (912, 367), (1014, 636), (802, 699), (1038, 900)]",[],"[0, 0, 0, 0, 0, 0, 1]",[],horizontal,"(890.0, 762.0)",,cti_phase,0,5023.553
12,False,695,"[(1038, 894)]","[(1052, 869)]",[1],[0.5333333333333333],vertical,"(890.0, 762.0)",,bar_phase,0,5032.339
12,False,696,"[(850, 530), (1047, 861)]",[],"[0, 1]",[0.3833333333333333],horizontal,"(890.0, 262.0)",1.2333333333333334,0.344,1,5035.376
12,False,697,"[(1020, 887)]",[],[1],[],horizontal,"(390.0, 262.0)",,cti_phase,0,5040.21
12,False,698,"[(739, 910), (888, 972), (736, 718), (943, 863), (637, 439), (912, 721), (1081, 850)]",[],"[0, 0, 0, 0, 0, 0, 1]",[],horizontal,"(890.0, 762.0)",,cti_phase,0,5044.421
12,False,699,"[(792, 905), (1057, 867)]","[(985, 881)]","[0, 1]",[0.016666666666666666],vertical,"(390.0, 762.0)",,bar_phase,0,5058.605
12,False,700,"[(837, 775), (1016, 872)]",[],"[0, 1]",[0.6666666666666666],horizontal,"(890.0, 762.0)",1.5666666666666667,0.619,1,5063.221
12,False,701,"[(1052, 882)]",[],[1],[],horizontal,"(890.0, 262.0)",,cti_phase,0,5076.421
12,False,702,"[(1065, 899)]",[],[1],[0.5333333333333333],horizontal,"(390.0, 762.0)",0.8166666666666667,0.492,1,5081.04
12,False,703,"[(1059, 890)]",[],[1],[0.5],vertical,"(890.0, 762.0)",1.3833333333333333,0.461,1,5085.832
12,False,704,"[(1066, 886)]",[],[1],[0.6333333333333333],vertical,"(890.0, 262.0)",1.25,0.59,1,5090.955
12,False,705,"[(1042, 887)]",[],[1],[0.5666666666666667],vertical,"(890.0, 262.0)",0.7833333333333333,0.521,1,5095.871
12,False,706,"[(1060, 896)]",[],[1],[0.85],vertical,"(390.0, 762.0)",1.3,0.799,0,5100.662
12,False,707,"[(1062, 896)]",[],[1],[0.85],vertical,"(890.0, 762.0)",0.5833333333333334,0.806,0,5105.697
12,False,708,"[(1063, 886)]",[],[1],[0.6],vertical,"(890.0, 262.0)",0.9333333333333333,0.555,1,5110.289
12,False,709,"[(1080, 886)]",[],[1],[0.5333333333333333],vertical,"(890.0, 762.0)",0.5666666666666667,0.493,1,5115.239
12,False,710,"[(1050, 895)]",[],[1],[0.65],vertical,"(390.0, 262.0)",0.95,0.607,1,5119.46
12,False,711,"[(1047, 893)]",[],[1],[0.3333333333333333],vertical,"(890.0, 262.0)",1.5,0.296,1,5124.101
12,False,712,"[(1033, 906)]",[],[1],[0.5666666666666667],vertical,"(890.0, 262.0)",1.2333333333333334,0.521,1,5129.081
12,False,713,"[(1041, 886)]",[],[1],[0.85],horizontal,"(390.0, 762.0)",1.4666666666666666,0.8,0,5133.425
12,False,714,"[(1041, 896)]",[],[1],[0.6],horizontal,"(390.0, 262.0)",0.6,0.552,1,5138.419
12,False,715,"[(1042, 890)]",[],[1],[0.5833333333333334],vertical,"(390.0, 762.0)",0.8666666666666667,0.544,1,5143.289
12,False,716,"[(1028, 900)]",[],[1],[0.85],horizontal,"(390.0, 762.0)",1.1166666666666667,0.801,0,5147.874
12,False,717,"[(1040, 888)]",[],[1],[],vertical,"(390.0, 262.0)",,cti_phase,0,5152.968
12,False,718,"[(1028, 874)]",[],[1],[0.5166666666666666],horizontal,"(390.0, 262.0)",1.5166666666666666,0.475,1,5158.202
12,False,719,"[(1080, 905)]",[],[1],[0.7666666666666666],horizontal,"(390.0, 262.0)",0.5166666666666666,0.72,1,5164.049
12,False,720,"[(1038, 883)]",[],[1],[0.55],horizontal,"(390.0, 262.0)",0.7333333333333333,0.514,1,5168.149
13,False,721,"[(1038, 884)]",[],[1],[0.6666666666666666],horizontal,"(390.0, 762.0)",0.5166666666666666,0.628,1,5172.152
13,False,722,"[(1060, 890)]",[],[1],[0.5666666666666667],vertical,"(390.0, 762.0)",0.85,0.519,1,5175.963
13,False,723,"[(1028, 886)]",[],[1],[0.5],horizontal,"(390.0, 262.0)",0.9,0.457,1,5180.063
13,False,724,"[(1047, 898)]",[],[1],[0.5833333333333334],horizontal,"(890.0, 762.0)",1.3333333333333333,0.541,1,5184.519
13,False,725,"[(1029, 901)]",[],[1],[0.5666666666666667],horizontal,"(890.0, 762.0)",0.6666666666666666,0.524,1,5189.351
13,False,726,"[(1064, 883)]",[],[1],[0.55],vertical,"(890.0, 262.0)",0.5833333333333334,0.509,1,5193.957
13,False,727,"[(1052, 880)]",[],[1],[0.5666666666666667],horizontal,"(390.0, 762.0)",0.9833333333333333,0.527,1,5198.385
13,False,728,"[(1039, 909)]",[],[1],[0.75],vertical,"(390.0, 262.0)",1.3,0.701,1,5203.138
13,False,729,"[(1038, 888)]",[],[1],[0.6333333333333333],horizontal,"(390.0, 262.0)",0.5166666666666666,0.6,1,5208.086
13,False,730,"[(1035, 879)]",[],[1],[0.85],horizontal,"(390.0, 262.0)",1.6,0.81,0,5212.284
13,False,731,"[(1041, 873)]",[],[1],[0.55],vertical,"(890.0, 262.0)",0.85,0.515,1,5217.702
13,False,732,"[(1033, 900)]",[],[1],[0.85],vertical,"(890.0, 262.0)",1.4166666666666667,0.81,0,5222.236
13,False,733,"[(1047, 888)]",[],[1],[0.5833333333333334],horizontal,"(390.0, 762.0)",1.4333333333333333,0.54,1,5227.602
13,False,734,"[(1031, 882)]",[],[1],[0.5333333333333333],vertical,"(890.0, 262.0)",0.8166666666666667,0.493,1,5233.135
13,False,735,"[(1034, 885)]",[],[1],[0.43333333333333335],vertical,"(890.0, 262.0)",1.5333333333333332,0.393,1,5237.717
13,False,736,"[(1052, 885)]",[],[1],[0.6166666666666667],horizontal,"(390.0, 262.0)",0.8833333333333333,0.575,1,5243.099
13,False,737,"[(1043, 862)]",[],[1],[0.85],horizontal,"(890.0, 262.0)",1.6833333333333333,0.805,0,5247.468
13,False,738,"[(1033, 871)]",[],[1],[0.5333333333333333],vertical,"(390.0, 762.0)",1.0666666666666667,0.498,1,5252.933
13,False,739,"[(1047, 898)]",[],[1],[0.5],horizontal,"(890.0, 262.0)",1.4666666666666666,0.472,1,5257.753
13,False,740,"[(1074, 897)]",[],[1],[0.5333333333333333],horizontal,"(890.0, 262.0)",1.6,0.499,1,5262.771
13,False,741,"[(1062, 906)]",[],[1],[0.6833333333333333],horizontal,"(390.0, 262.0)",1.1333333333333333,0.64,1,5267.939
13,False,742,"[(1033, 881)]",[],[1],[0.5166666666666666],horizontal,"(390.0, 262.0)",0.6,0.477,1,5272.699
13,False,743,"[(1052, 865)]",[],[1],[0.5166666666666666],horizontal,"(890.0, 262.0)",0.75,0.478,1,5276.96
13,False,744,"[(1036, 892)]",[],[1],[0.85],vertical,"(890.0, 762.0)",1.5666666666666667,0.799,0,5281.435
13,False,745,"[(1054, 863)]",[],[1],[],vertical,"(390.0, 762.0)",,cti_phase,0,5286.739
13,False,746,"[(1028, 867)]",[],[1],[0.85],horizontal,"(890.0, 762.0)",1.6166666666666667,0.797,0,5291.133
13,False,747,"[(1091, 889)]",[],[1],[0.5],vertical,"(390.0, 262.0)",0.9166666666666666,0.463,1,5296.56
13,False,748,"[(1042, 912)]",[],[1],[0.5666666666666667],vertical,"(890.0, 262.0)",0.8333333333333334,0.524,1,5429.122
13,False,749,"[(1036, 890)]",[],[1],[0.5666666666666667],vertical,"(390.0, 262.0)",0.6166666666666667,0.528,1,5433.909
13,False,750,"[(1039, 894)]",[],[1],[0.55],vertical,"(890.0, 762.0)",1.65,0.509,1,5438.005
13,False,751,"[(1038, 908)]",[],[1],[0.55],horizontal,"(890.0, 762.0)",0.6666666666666666,0.513,1,5443.468
13,False,752,"[(1036, 884)]",[],[1],[0.6666666666666666],horizontal,"(890.0, 262.0)",1.5666666666666667,0.636,1,5447.887
13,False,753,"[(1037, 893)]",[],[1],[0.55],horizontal,"(390.0, 762.0)",1.5833333333333333,0.509,1,5453.267
13,False,754,"[(1063, 918)]",[],[1],[0.5666666666666667],vertical,"(390.0, 762.0)",0.6666666666666666,0.521,1,5458.719
13,False,755,"[(1038, 900)]",[],[1],[0.6166666666666667],horizontal,"(890.0, 762.0)",0.9666666666666667,0.572,1,5463.223
13,False,756,"[(1028, 901)]",[],[1],[0.5166666666666666],vertical,"(390.0, 262.0)",1.1833333333333333,0.483,1,5467.89
13,False,757,"[(1038, 901)]",[],[1],[0.5833333333333334],vertical,"(890.0, 262.0)",0.8,0.536,1,5472.546
13,False,758,"[(1021, 871)]",[],[1],[0.5666666666666667],horizontal,"(890.0, 762.0)",1.4333333333333333,0.527,1,5477.352
13,False,759,"[(1052, 903)]",[],[1],[0.5833333333333334],vertical,"(390.0, 262.0)",1.45,0.54,1,5482.516
13,False,760,"[(1052, 885)]",[],[1],[0.55],vertical,"(890.0, 262.0)",1.4833333333333334,0.507,1,5487.249
13,False,761,"[(1031, 885)]",[],[1],[0.5666666666666667],horizontal,"(890.0, 262.0)",1.4666666666666666,0.524,1,5492.552
13,False,762,"[(1041, 908)]",[],[1],[0.85],vertical,"(890.0, 262.0)",1.2666666666666666,0.796,0,5497.609
13,False,763,"[(1063, 893)]",[],[1],[0.6166666666666667],vertical,"(890.0, 762.0)",1.05,0.572,1,5502.719
13,False,764,"[(1045, 885)]",[],[1],[0.55],vertical,"(890.0, 762.0)",1.2833333333333332,0.504,1,5508.072
13,False,765,"[(1041, 879)]",[],[1],[0.4666666666666667],horizontal,"(390.0, 262.0)",0.9833333333333333,0.427,1,5513.233
13,False,766,"[(1023, 894)]",[],[1],[0.55],horizontal,"(890.0, 762.0)",0.7833333333333333,0.51,1,5518.006
13,False,767,"[(1042, 888)]",[],[1],[0.5666666666666667],horizontal,"(890.0, 762.0)",1.0166666666666666,0.532,1,5522.318
13,False,768,"[(1025, 890)]",[],[1],[0.5166666666666666],vertical,"(390.0, 762.0)",1.4666666666666666,0.474,1,5527.202
13,False,769,"[(1028, 898)]",[],[1],[0.5666666666666667],horizontal,"(890.0, 762.0)",0.6166666666666667,0.528,1,5531.803
13,False,770,"[(1042, 899)]",[],[1],[0.5666666666666667],vertical,"(390.0, 762.0)",1.6833333333333333,0.523,1,5535.736
13,False,771,"[(1038, 887)]",[],[1],[0.55],vertical,"(890.0, 762.0)",1.4833333333333334,0.51,1,5541.044
13,False,772,"[(1042, 914)]",[],[1],[0.6],horizontal,"(390.0, 262.0)",1.15,0.556,1,5546.022
13,False,773,"[(1050, 885)]",[],[1],[0.5666666666666667],horizontal,"(390.0, 262.0)",0.6166666666666667,0.518,1,5550.699
13,False,774,"[(1042, 899)]",[],[1],[0.65],vertical,"(890.0, 262.0)",1.65,0.603,1,5554.79
13,False,775,"[(1047, 909)]",[],[1],[0.6],vertical,"(390.0, 262.0)",0.6166666666666667,0.555,1,5560.053
13,False,776,"[(1055, 896)]",[],[1],[0.5833333333333334],horizontal,"(390.0, 262.0)",1.15,0.546,1,5564.236
13,False,777,"[(1042, 909)]",[],[1],[0.5833333333333334],horizontal,"(890.0, 762.0)",1.1166666666666667,0.538,1,5569.255
13,False,778,"[(1045, 896)]",[],[1],[0.5333333333333333],vertical,"(390.0, 262.0)",1.0833333333333333,0.492,1,5574.383
13,False,779,"[(1042, 871)]",[],[1],[0.6166666666666667],vertical,"(890.0, 762.0)",1.2166666666666666,0.576,1,5578.832
13,False,780,"[(1035, 876)]",[],[1],[0.55],horizontal,"(390.0, 262.0)",0.95,0.512,1,5584.073
14,False,781,"[(1041, 869)]",[],[1],[0.5333333333333333],horizontal,"(890.0, 762.0)",0.8166666666666667,0.495,1,5589.291
14,False,782,"[(1041, 890)]",[],[1],[0.5666666666666667],horizontal,"(390.0, 262.0)",0.7333333333333333,0.526,1,5593.652
14,False,783,"[(1042, 899)]",[],[1],[0.5666666666666667],vertical,"(390.0, 262.0)",1.65,0.529,1,5597.622
14,False,784,"[(1030, 888)]",[],[1],[0.6166666666666667],horizontal,"(390.0, 262.0)",0.9833333333333333,0.579,1,5603.114
14,False,785,"[(1036, 909)]",[],[1],[0.7],horizontal,"(390.0, 262.0)",1.0,0.66,1,5607.851
14,False,786,"[(1044, 888)]",[],[1],[0.5833333333333334],horizontal,"(890.0, 762.0)",0.9833333333333333,0.54,1,5612.752
14,False,787,"[(1042, 887)]",[],[1],[0.6],vertical,"(890.0, 262.0)",1.0333333333333332,0.559,1,5617.466
14,False,788,"[(1044, 899)]",[],[1],[0.65],horizontal,"(390.0, 262.0)",0.5,0.605,1,5622.184
14,False,789,"[(1022, 866)]",[],[1],[0.6333333333333333],horizontal,"(390.0, 762.0)",1.5,0.59,1,5626.233
14,False,790,"[(1022, 887)]",[],[1],[0.5833333333333334],vertical,"(890.0, 262.0)",1.4166666666666667,0.542,1,5631.034
14,False,791,"[(1041, 876)]",[],[1],[0.6333333333333333],horizontal,"(390.0, 262.0)",0.95,0.598,1,5636.336
14,False,792,"[(1037, 890)]",[],[1],[0.6],horizontal,"(390.0, 762.0)",1.3166666666666667,0.557,1,5641.066
14,False,793,"[(1045, 887)]",[],[1],[0.55],horizontal,"(890.0, 262.0)",1.0666666666666667,0.501,1,5646.219
14,False,794,"[(1055, 880)]",[],[1],[0.7666666666666666],horizontal,"(890.0, 262.0)",0.95,0.727,1,5650.6
14,False,795,"[(1047, 881)]",[],[1],[0.5833333333333334],vertical,"(890.0, 762.0)",0.5333333333333333,0.546,1,5655.333
14,False,796,"[(1058, 892)]",[],[1],[0.75],vertical,"(890.0, 262.0)",1.2166666666666666,0.701,1,5659.638
14,False,797,"[(1047, 900)]",[],[1],[0.5333333333333333],vertical,"(390.0, 762.0)",0.9166666666666666,0.494,1,5664.59
14,False,798,"[(1041, 880)]",[],[1],[0.5666666666666667],vertical,"(890.0, 262.0)",0.8666666666666667,0.526,1,5668.97
14,False,799,"[(1033, 893)]",[],[1],[0.55],vertical,"(390.0, 762.0)",0.7666666666666666,0.506,1,5673.42
14,False,800,"[(1039, 890)]",[],[1],[0.55],vertical,"(890.0, 262.0)",1.5333333333333332,0.507,1,5677.638
14,False,801,"[(1028, 885)]",[],[1],[0.6666666666666666],horizontal,"(890.0, 762.0)",1.3833333333333333,0.625,1,5682.607
14,False,802,"[(1058, 885)]",[],[1],[0.6666666666666666],horizontal,"(890.0, 262.0)",1.6166666666666667,0.62,1,5687.866
14,False,803,"[(1044, 899)]",[],[1],[0.5833333333333334],horizontal,"(890.0, 762.0)",1.6333333333333333,0.54,1,5693.011
14,False,804,"[(1028, 864)]",[],[1],[0.5833333333333334],vertical,"(390.0, 762.0)",1.35,0.542,1,5698.564
14,False,805,"[(1047, 897)]",[],[1],[0.5666666666666667],vertical,"(390.0, 262.0)",0.7,0.533,1,5703.737
14,False,806,"[(1042, 885)]",[],[1],[0.6666666666666666],horizontal,"(390.0, 762.0)",1.5166666666666666,0.622,1,5708.153
14,False,807,"[(1042, 882)]",[],[1],[],horizontal,"(390.0, 262.0)",,cti_phase,0,5713.674
14,False,808,"[(1066, 880)]",[],[1],[0.5666666666666667],vertical,"(890.0, 762.0)",0.5166666666666666,0.531,1,5717.841
14,False,809,"[(1047, 890)]",[],[1],[0.6333333333333333],vertical,"(390.0, 762.0)",0.7166666666666667,0.59,1,5722.108
14,False,810,"[(1033, 876)]",[],[1],[0.6],horizontal,"(890.0, 762.0)",1.5166666666666666,0.562,1,5726.634
14,False,811,"[(1044, 892)]",[],[1],[0.65],vertical,"(890.0, 262.0)",0.6,0.613,1,5731.898
14,False,812,"[(1047, 909)]",[],[1],[0.65],vertical,"(890.0, 762.0)",1.4333333333333333,0.609,1,5735.824
14,False,813,"[(1052, 890)]",[],[1],[0.36666666666666664],horizontal,"(390.0, 262.0)",1.3333333333333333,0.334,1,5741.305
14,False,814,"[(1042, 889)]",[],[1],[0.6],horizontal,"(890.0, 762.0)",0.5833333333333334,0.561,1,5745.88
14,False,815,"[(1022, 884)]",[],[1],[0.5833333333333334],horizontal,"(890.0, 262.0)",0.6666666666666666,0.542,1,5750.434
14,False,816,"[(1047, 887)]",[],[1],[0.55],horizontal,"(890.0, 262.0)",0.95,0.513,1,5754.4
14,False,817,"[(1043, 893)]",[],[1],[0.5833333333333334],horizontal,"(390.0, 262.0)",0.7166666666666667,0.539,1,5758.917
14,False,818,"[(1055, 883)]",[],[1],[0.65],horizontal,"(890.0, 762.0)",1.3666666666666667,0.617,1,5763.379
14,False,819,"[(1042, 895)]",[],[1],[0.5833333333333334],vertical,"(890.0, 762.0)",1.1,0.543,1,5768.861
14,False,820,"[(1038, 867)]",[],[1],[0.7333333333333333],horizontal,"(890.0, 262.0)",0.8166666666666667,0.696,1,5773.762
14,False,821,"[(1046, 890)]",[],[1],[0.5833333333333334],vertical,"(390.0, 262.0)",1.45,0.544,1,5778.735
14,False,822,"[(1046, 890)]",[],[1],[0.6166666666666667],vertical,"(890.0, 762.0)",1.2,0.578,1,5784.175
14,False,823,"[(1057, 887)]",[],[1],[0.5833333333333334],vertical,"(390.0, 762.0)",0.8833333333333333,0.542,1,5788.683
14,False,824,"[(1042, 889)]",[],[1],[0.5166666666666666],horizontal,"(890.0, 262.0)",1.5166666666666666,0.475,1,5793.135
14,False,825,"[(1062, 889)]",[],[1],[],vertical,"(390.0, 762.0)",,cti_phase,0,5798.472
14,False,826,"[(1083, 900)]",[],[1],[0.18333333333333332],horizontal,"(890.0, 262.0)",1.6666666666666667,0.152,1,5802.665
14,False,827,"[(1047, 891)]",[],[1],[0.7833333333333333],vertical,"(890.0, 262.0)",1.0,0.738,1,6597.252
14,False,828,"[(1052, 877)]",[],[1],[0.5666666666666667],vertical,"(890.0, 262.0)",1.1833333333333333,0.53,1,6601.982
14,False,829,"[(1042, 918)]",[],[1],[0.5833333333333334],horizontal,"(890.0, 262.0)",1.05,0.544,1,6609.436
14,False,830,"[(1052, 894)]",[],[1],[0.85],vertical,"(390.0, 262.0)",0.8333333333333334,0.804,0,6613.736
14,False,831,"[(1091, 902)]",[],[1],[0.7],horizontal,"(890.0, 762.0)",1.5833333333333333,0.656,1,6618.68
14,False,832,"[(1045, 915)]",[],[1],[0.65],vertical,"(390.0, 262.0)",1.0,0.606,1,6627.378
14,False,833,"[(1057, 914)]",[],[1],[0.6333333333333333],vertical,"(390.0, 762.0)",1.4666666666666666,0.589,1,6632.389
14,False,834,"[(1073, 886)]",[],[1],[0.6666666666666666],vertical,"(890.0, 762.0)",1.05,0.624,1,6637.657
14,False,835,"[(1041, 914)]",[],[1],[0.5],horizontal,"(390.0, 262.0)",1.2166666666666666,0.465,1,6643.602
14,False,836,"[(1050, 901)]",[],[1],[0.6],vertical,"(390.0, 262.0)",1.0166666666666666,0.559,1,6648.37
14,False,837,"[(1038, 918)]",[],[1],[0.6166666666666667],vertical,"(890.0, 762.0)",1.35,0.569,1,6652.939
14,False,838,"[(1035, 895)]",[],[1],[0.5833333333333334],horizontal,"(390.0, 262.0)",1.05,0.536,1,6657.978
14,False,839,"[(1048, 894)]",[],[1],[0.6333333333333333],horizontal,"(890.0, 262.0)",1.6333333333333333,0.588,1,6662.686
14,False,840,"[(1038, 888)]",[],[1],[0.7833333333333333],vertical,"(890.0, 762.0)",1.0,0.74,1,6668.157
15,False,841,"[(1076, 892)]",[],[1],[0.7333333333333333],vertical,"(390.0, 262.0)",1.5666666666666667,0.688,1,6672.921
15,False,842,"[(1047, 893)]",[],[1],[0.65],vertical,"(890.0, 762.0)",0.8166666666666667,0.602,1,6680.103
15,False,843,"[(1072, 884)]",[],[1],[0.5833333333333334],horizontal,"(390.0, 762.0)",0.5666666666666667,0.54,1,6684.622
15,False,844,"[(1047, 888)]",[],[1],[0.5666666666666667],horizontal,"(390.0, 262.0)",0.8,0.526,1,6688.79
15,False,845,"[(1072, 889)]",[],[1],[0.6],horizontal,"(390.0, 262.0)",0.5166666666666666,0.559,1,6692.868
15,False,846,"[(1047, 871)]",[],[1],[0.5833333333333334],vertical,"(890.0, 762.0)",0.8166666666666667,0.546,1,6697.222
15,False,847,"[(1038, 890)]",[],[1],[0.7666666666666666],horizontal,"(390.0, 762.0)",1.3333333333333333,0.716,1,6701.504
15,False,848,"[(1041, 900)]",[],[1],[0.8166666666666667],horizontal,"(890.0, 762.0)",1.4166666666666667,0.768,1,6706.143
15,False,849,"[(1047, 900)]",[],[1],[0.5833333333333334],vertical,"(890.0, 262.0)",1.0333333333333332,0.542,1,6711.787
15,False,850,"[(1042, 890)]",[],[1],[0.6833333333333333],horizontal,"(390.0, 262.0)",1.0666666666666667,0.637,1,6716.728
15,False,851,"[(1072, 871)]",[],[1],[0.5833333333333334],vertical,"(890.0, 262.0)",0.95,0.54,1,6721.62
15,False,852,"[(1072, 889)]",[],[1],[0.6166666666666667],horizontal,"(390.0, 762.0)",0.9833333333333333,0.577,1,6727.58
15,False,853,"[(1047, 903)]",[],[1],[0.85],vertical,"(390.0, 762.0)",0.6,0.8,0,6732.247
15,False,854,"[(1058, 888)]",[],[1],[0.7166666666666667],vertical,"(890.0, 762.0)",0.9833333333333333,0.671,1,6736.987
15,False,855,"[(1047, 870)]",[],[1],[0.5333333333333333],horizontal,"(890.0, 262.0)",0.9833333333333333,0.493,1,6744.689
15,False,856,"[(1055, 890)]",[],[1],[0.6166666666666667],vertical,"(390.0, 762.0)",1.4333333333333333,0.573,1,6749.256
15,False,857,"[(1068, 874)]",[],[1],[0.48333333333333334],horizontal,"(390.0, 262.0)",1.0166666666666666,0.45,1,6754.24
15,False,858,"[(1049, 888)]",[],[1],[0.5333333333333333],horizontal,"(890.0, 262.0)",1.5166666666666666,0.491,1,6758.383
15,False,859,"[(1039, 859)]",[],[1],[],horizontal,"(890.0, 762.0)",,cti_phase,0,6763.657
15,False,860,"[(1040, 857)]",[],[1],[0.6],horizontal,"(390.0, 762.0)",0.8666666666666667,0.571,1,6767.369
15,False,861,"[(1075, 895)]",[],[1],[0.6666666666666666],vertical,"(890.0, 262.0)",1.35,0.622,1,6774.967
15,False,862,"[(1052, 919)]",[],[1],[0.7833333333333333],vertical,"(390.0, 262.0)",0.7833333333333333,0.743,1,6780.525
15,False,863,"[(1058, 897)]",[],[1],[0.5],horizontal,"(390.0, 262.0)",1.3833333333333333,0.459,1,6806.396
15,False,864,"[(1052, 895)]",[],[1],[0.6666666666666666],vertical,"(390.0, 762.0)",1.2166666666666666,0.635,1,6811.236
15,False,865,"[(1028, 890)]",[],[1],[0.5666666666666667],vertical,"(390.0, 262.0)",0.8666666666666667,0.528,1,6816.219
15,False,866,"[(1049, 888)]",[],[1],[0.5166666666666666],vertical,"(390.0, 262.0)",1.0833333333333333,0.474,1,6820.824
15,False,867,"[(1040, 902)]",[],[1],[0.48333333333333334],vertical,"(890.0, 262.0)",1.3833333333333333,0.448,1,6825.257
15,False,868,"[(1046, 904)]",[],[1],[0.85],horizontal,"(890.0, 262.0)",0.6833333333333333,0.812,0,6829.975
15,False,869,"[(1068, 902)]",[],[1],[0.5333333333333333],horizontal,"(390.0, 762.0)",0.7166666666666667,0.496,1,6834.954
15,False,870,"[(1050, 892)]",[],[1],[0.6833333333333333],vertical,"(390.0, 762.0)",1.6833333333333333,0.635,1,6850.849
15,False,871,"[(1048, 905)]",[],[1],[0.5666666666666667],horizontal,"(390.0, 762.0)",1.3833333333333333,0.525,1,6855.963
15,False,872,"[(1038, 898)]",[],[1],[0.6833333333333333],horizontal,"(390.0, 762.0)",0.5,0.643,1,6860.918
15,False,873,"[(1060, 901)]",[],[1],[],horizontal,"(390.0, 262.0)",,cti_phase,0,6865.258
15,False,874,"[(1037, 860)]",[],[1],[0.5833333333333334],vertical,"(390.0, 762.0)",0.6666666666666666,0.547,1,6869.69
15,False,875,"[(1047, 904)]",[],[1],[0.5166666666666666],vertical,"(390.0, 262.0)",1.5666666666666667,0.483,1,6874.88
15,False,876,"[(1056, 893)]",[],[1],[0.5833333333333334],vertical,"(390.0, 762.0)",1.05,0.546,1,6880.07
15,False,877,"[(1055, 882)]",[],[1],[0.6],vertical,"(390.0, 262.0)",1.3333333333333333,0.557,1,6884.571
15,False,878,"[(1091, 902)]",[],[1],[0.55],vertical,"(390.0, 262.0)",1.5166666666666666,0.522,1,6889.751
15,False,879,"[(1046, 882)]",[],[1],[0.65],vertical,"(890.0, 262.0)",1.0166666666666666,0.609,1,6894.989
15,False,880,"[(1054, 873)]",[],[1],[0.5666666666666667],vertical,"(390.0, 262.0)",1.35,0.522,1,6899.671
15,False,881,"[(1061, 878)]",[],[1],[0.5666666666666667],vertical,"(390.0, 762.0)",0.9833333333333333,0.521,1,6904.398
15,False,882,"[(1047, 900)]",[],[1],[0.8],vertical,"(890.0, 262.0)",0.5,0.753,1,6908.733
15,False,883,"[(1042, 891)]",[],[1],[0.55],vertical,"(390.0, 262.0)",1.6,0.512,1,6912.747
15,False,884,"[(1067, 882)]",[],[1],[0.6666666666666666],horizontal,"(890.0, 762.0)",1.05,0.622,1,6918.005
15,False,885,"[(1058, 893)]",[],[1],[0.5166666666666666],horizontal,"(390.0, 262.0)",1.65,0.479,1,6922.918
15,False,886,"[(1038, 890)]",[],[1],[0.6333333333333333],horizontal,"(390.0, 762.0)",0.8166666666666667,0.599,1,6928.683
15,False,887,"[(1061, 881)]",[],[1],[0.6166666666666667],horizontal,"(890.0, 762.0)",0.9166666666666666,0.571,1,6932.888
15,False,888,"[(1052, 895)]",[],[1],[0.6666666666666666],vertical,"(390.0, 262.0)",0.5,0.631,1,6937.149
15,False,889,"[(1062, 885)]",[],[1],[0.5833333333333334],vertical,"(390.0, 262.0)",0.7333333333333333,0.545,1,6941.177
15,False,890,"[(1047, 882)]",[],[1],[0.5833333333333334],horizontal,"(890.0, 762.0)",1.6333333333333333,0.543,1,6945.336
15,False,891,"[(1062, 877)]",[],[1],[0.6666666666666666],vertical,"(390.0, 262.0)",0.5666666666666667,0.633,1,6950.756
15,False,892,"[(1060, 889)]",[],[1],[0.5666666666666667],vertical,"(390.0, 762.0)",0.6333333333333333,0.525,1,6954.97
15,False,893,"[(1057, 905)]",[],[1],[0.6],vertical,"(390.0, 262.0)",0.9,0.553,1,6959.523
15,False,894,"[(1044, 907)]",[],[1],[0.43333333333333335],horizontal,"(390.0, 262.0)",1.35,0.4,1,6963.773
15,False,895,"[(1049, 890)]",[],[1],[0.5666666666666667],vertical,"(390.0, 762.0)",1.55,0.531,1,6968.488
15,False,896,"[(1048, 876)]",[],[1],[0.55],vertical,"(890.0, 262.0)",1.5333333333333332,0.513,1,6973.933
15,False,897,"[(1041, 891)]",[],[1],[0.6166666666666667],vertical,"(890.0, 262.0)",1.6166666666666667,0.575,1,6979.059
15,False,898,"[(1070, 881)]",[],[1],[0.5833333333333334],horizontal,"(390.0, 762.0)",1.2666666666666666,0.544,1,6984.773
15,False,899,"[(1052, 895)]",[],[1],[0.5666666666666667],vertical,"(390.0, 762.0)",0.9166666666666666,0.53,1,6989.66
15,False,900,"[(1062, 875)]",[],[1],[0.6666666666666666],vertical,"(390.0, 762.0)",1.25,0.62,1,6994.378
16,False,901,"[(1033, 876)]",[],[1],[0.5833333333333334],horizontal,"(890.0, 762.0)",1.5833333333333333,0.539,1,6998.769
16,False,902,"[(1042, 876)]",[],[1],[0.6],vertical,"(890.0, 762.0)",1.3666666666666667,0.56,1,7003.75
16,False,903,"[(1047, 895)]",[],[1],[0.6833333333333333],horizontal,"(890.0, 762.0)",1.4,0.638,1,7008.802
16,False,904,"[(1066, 875)]",[],[1],[0.5833333333333334],vertical,"(390.0, 762.0)",1.45,0.537,1,7014.052
16,False,905,"[(1044, 894)]",[],[1],[0.6666666666666666],vertical,"(390.0, 762.0)",1.2,0.621,1,7019.34
16,False,906,"[(1045, 887)]",[],[1],[0.5833333333333334],horizontal,"(390.0, 262.0)",1.4833333333333334,0.542,1,7024.13
16,False,907,"[(1047, 885)]",[],[1],[0.6],vertical,"(390.0, 262.0)",0.55,0.557,1,7029.047
16,False,908,"[(1051, 879)]",[],[1],[0.5666666666666667],horizontal,"(890.0, 262.0)",0.7166666666666667,0.53,1,7033.081
16,False,909,"[(1048, 884)]",[],[1],[0.85],horizontal,"(890.0, 762.0)",0.6166666666666667,0.802,0,7037.0
16,False,910,"[(1045, 886)]",[],[1],[0.6166666666666667],horizontal,"(390.0, 762.0)",1.2666666666666666,0.571,1,7041.69
16,False,911,"[(1042, 882)]",[],[1],[0.55],vertical,"(390.0, 762.0)",0.7,0.513,1,7101.602
16,False,912,"[(1028, 894)]",[],[1],[0.5666666666666667],horizontal,"(890.0, 762.0)",0.6,0.527,1,7105.664
16,False,913,"[(1042, 904)]",[],[1],[0.6666666666666666],horizontal,"(390.0, 762.0)",0.6833333333333333,0.619,1,7109.605
16,False,914,"[(1044, 904)]",[],[1],[],horizontal,"(390.0, 262.0)",,cti_phase,0,7114.153
