block,trial,trial_type,taps_start_loc_during_fix,taps_end_loc_during_fix,taps_on_lever_during_fix,taps_on_lever_s_during_fix,bar_orientation,target_xy,cti,rt,acc,time,pulses,fa_rate_recent100,actual_invalid_type
0,1,invalid_adjacent_other_bar,"[(1076, 839)]",[],[1],[0.5666666666666667],horizontal,"(890.0, 262.0)",0.8666666666666667,0.521,1,0.752,1,0.0,other
0,2,catch,"[(1116, 871)]",[],[1],[],horizontal,"(390.0, 762.0)",1.7,nan,1,9.654,1,0.0,same
0,3,valid,"[(1136, 829)]",[],[1],[0.6],horizontal,"(890.0, 762.0)",0.55,0.559,1,2108.901,1,0.0,same
0,4,valid,"[(1122, 784)]",[],[1],[0.5],horizontal,"(390.0, 762.0)",1.1,0.458,1,2113.318,2,0.0,same
0,5,catch,"[(1159, 793)]",[],[1],[],horizontal,"(890.0, 762.0)",1.7,nan,1,2119.102,2,0.0,same
0,6,valid,"[(1134, 778)]",[],[1],[0.5333333333333333],horizontal,"(890.0, 262.0)",1.4,0.493,1,2124.678,2,0.0,same
0,7,invalid_adjacent_other_bar,"[(1139, 795)]",[],[1],[0.48333333333333334],vertical,"(890.0, 262.0)",0.7666666666666666,0.447,1,2130.918,3,0.0,other
0,8,valid,"[(1158, 795)]",[],[1],[0.5333333333333333],vertical,"(890.0, 762.0)",1.0333333333333332,0.493,1,2136.569,3,0.0,same
0,9,valid,"[(1104, 818)]",[],[1],[0.85],horizontal,"(890.0, 762.0)",1.1166666666666667,nan,0,2142.068,0,0.0,same
0,10,valid,"[(1134, 793)]",[],[1],[0.5],vertical,"(890.0, 262.0)",1.5166666666666666,0.46,1,2147.269,1,0.0,same
0,11,valid,"[(1141, 793)]",[],[1],[0.5],vertical,"(890.0, 762.0)",1.2166666666666666,0.458,1,2152.985,1,0.0,same
0,12,invalid_same_bar,"[(1159, 780)]",[],[1],[0.6],horizontal,"(890.0, 762.0)",0.8833333333333333,0.56,1,2158.081,1,0.0,same
0,13,valid,"[(1137, 799)]",[],[1],[0.16666666666666666],horizontal,"(390.0, 262.0)",1.4333333333333333,0.132,0,2162.802,0,0.0,same
0,14,valid,"[(1124, 778)]",[],[1],[0.5166666666666666],horizontal,"(890.0, 262.0)",0.85,0.482,1,2167.816,1,0.0,same
0,15,valid,"[(1131, 805)]",[],[1],[0.5333333333333333],horizontal,"(890.0, 762.0)",1.3166666666666667,0.495,1,2172.798,1,0.0,same
0,16,invalid_same_bar,"[(1135, 798)]",[],[1],[0.5666666666666667],vertical,"(390.0, 762.0)",0.8833333333333333,0.521,1,2177.968,1,0.0,same
0,17,valid,"[(1155, 793)]",[],[1],[0.55],horizontal,"(390.0, 262.0)",0.5,0.509,1,2182.901,2,0.0,same
0,18,valid,"[(1088, 778)]",[],[1],[0.5666666666666667],horizontal,"(390.0, 262.0)",0.4166666666666667,0.535,1,2187.764,2,0.0,same
0,19,valid,"[(1113, 802)]",[],[1],[0.65],horizontal,"(390.0, 262.0)",0.35,0.612,1,2192.946,2,0.0,same
0,20,valid,"[(1111, 805)]",[],[1],[0.6166666666666667],vertical,"(390.0, 262.0)",0.95,0.574,1,2198.474,3,0.0,same
0,21,catch,"[(1136, 799)]",[],[1],[],horizontal,"(390.0, 262.0)",1.7,nan,1,2204.369,3,0.0,same
0,22,valid,"[(1151, 774)]",[],[1],[0.7],horizontal,"(890.0, 762.0)",1.25,0.658,1,2210.551,3,0.0,same
0,23,valid,"[(1146, 786)]",[],[1],[0.6333333333333333],vertical,"(390.0, 262.0)",0.55,0.59,1,2217.152,3,0.0,same
0,24,catch,"[(1106, 815)]",[],[1],[],vertical,"(390.0, 262.0)",1.7,nan,1,2222.951,3,0.0,same
0,25,valid,"[(1160, 798)]",[],[1],[0.5666666666666667],vertical,"(390.0, 262.0)",1.2,0.523,1,2229.536,3,0.0,same
0,26,valid,"[(1111, 794)]",[],[1],[0.5666666666666667],horizontal,"(390.0, 762.0)",0.8833333333333333,0.522,1,2235.531,3,0.0,same
0,27,valid,"[(1136, 784)]",[],[1],[0.6666666666666666],vertical,"(390.0, 262.0)",1.2666666666666666,0.622,1,2240.988,3,0.0,same
0,28,valid,"[(1134, 813)]",[],[1],[0.7],horizontal,"(390.0, 762.0)",0.6166666666666667,0.667,1,2246.92,3,0.0,same
0,29,valid,"[(1131, 780)]",[],[1],[0.85],vertical,"(390.0, 262.0)",0.85,nan,0,2252.778,0,0.0,same
0,30,valid,"[(1116, 786)]",[],[1],[0.5],horizontal,"(890.0, 262.0)",0.8,0.465,1,2257.814,1,0.0,same
0,31,catch,"[(1140, 774)]",[],[1],[],vertical,"(890.0, 762.0)",1.7,nan,1,2262.73,1,0.0,same
0,32,valid,"[(1134, 793)]",[],[1],[0.55],vertical,"(890.0, 762.0)",1.3,0.515,1,2267.988,1,0.0,same
0,33,catch,"[(1158, 793)]",[],[1],[],vertical,"(390.0, 262.0)",1.7,nan,1,2273.377,2,0.0,same
0,34,catch,"[(1127, 813)]",[],[1],[],vertical,"(890.0, 762.0)",1.7,nan,1,2278.658,2,0.0,same
0,35,valid,"[(1134, 780)]",[],[1],[0.7166666666666667],vertical,"(390.0, 762.0)",1.3,0.682,1,2284.594,2,0.0,same
0,36,valid,"[(1090, 797)]",[],[1],[0.5333333333333333],horizontal,"(890.0, 262.0)",1.2166666666666666,0.499,1,2290.376,3,0.0,same
0,37,invalid_adjacent_other_bar,"[(1113, 786)]",[],[1],[0.6833333333333333],horizontal,"(390.0, 262.0)",1.0333333333333332,0.636,1,2296.252,3,0.0,other
0,38,valid,"[(1136, 793)]",[],[1],[0.5333333333333333],vertical,"(890.0, 262.0)",0.6833333333333333,0.491,1,2302.573,3,0.0,same
0,39,valid,"[(1156, 794)]",[],[1],[0.55],vertical,"(390.0, 262.0)",1.4666666666666666,0.512,1,2308.186,3,0.0,same
0,40,valid,"[(1086, 793)]",[],[1],[0.55],vertical,"(390.0, 762.0)",0.85,0.51,1,2314.787,3,0.0,same
0,41,invalid_same_bar,"[(1116, 793)]",[],[1],[0.5333333333333333],horizontal,"(390.0, 762.0)",1.4166666666666667,0.497,1,2320.707,3,0.0,same
0,42,valid,"[(1129, 790)]",[],[1],[0.55],vertical,"(390.0, 262.0)",0.9833333333333333,0.508,1,2326.777,3,0.0,same
0,43,valid,"[(1132, 778)]",[],[1],[0.5833333333333334],vertical,"(390.0, 762.0)",1.3833333333333333,0.541,1,2332.468,3,0.0,same
0,44,valid,"[(1133, 795)]",[],[1],[0.8166666666666667],horizontal,"(890.0, 762.0)",0.5,0.769,1,2339.007,3,0.0,same
0,45,valid,"[(1131, 799)]",[],[1],[0.6666666666666666],horizontal,"(890.0, 762.0)",1.0,0.623,1,2344.683,3,0.0,same
0,46,valid,"[(1131, 793)]",[],[1],[0.6],horizontal,"(890.0, 762.0)",0.4166666666666667,0.559,1,2350.83,3,0.0,same
0,47,valid,"[(1131, 790)]",[],[1],[0.5166666666666666],horizontal,"(890.0, 762.0)",0.9666666666666667,0.486,1,2356.103,3,0.0,same
0,48,catch,"[(1116, 774)]",[],[1],[],horizontal,"(890.0, 762.0)",1.7,nan,1,2361.873,3,0.0,same
0,49,valid,"[(1132, 788)]",[],[1],[0.5166666666666666],vertical,"(390.0, 262.0)",0.6333333333333333,0.475,1,2367.801,3,0.0,same
0,50,valid,"[(1134, 772)]",[],[1],[0.5166666666666666],vertical,"(890.0, 262.0)",0.7833333333333333,0.476,1,2373.131,3,0.0,same
0,51,valid,"[(1131, 793)]",[],[1],[0.6166666666666667],vertical,"(890.0, 262.0)",0.55,0.582,1,2378.837,3,0.0,same
0,52,valid,"[(1131, 777)]",[],[1],[0.7],vertical,"(890.0, 262.0)",1.5333333333333332,0.66,1,2384.92,3,0.0,same
0,53,catch,"[(1136, 794)]",[],[1],[],vertical,"(390.0, 262.0)",1.7,nan,1,2391.17,3,0.0,same
0,54,valid,"[(1134, 767)]",[],[1],[0.6833333333333333],horizontal,"(890.0, 762.0)",0.3833333333333333,0.642,1,2397.32,3,0.0,same
0,55,valid,"[(1131, 792)]",[],[1],[0.85],horizontal,"(390.0, 762.0)",0.4666666666666667,nan,0,2402.423,0,0.0,same
0,56,catch,"[(1111, 770)]",[],[1],[],horizontal,"(390.0, 262.0)",1.7,nan,1,2406.92,1,0.0,same
0,57,valid,"[(1141, 786)]",[],[1],[0.5166666666666666],vertical,"(890.0, 262.0)",0.5,0.48,1,2412.076,1,0.0,same
0,58,catch,"[(1116, 757)]",[],[1],[],vertical,"(390.0, 762.0)",1.7,nan,1,2417.031,1,0.0,same
0,59,valid,"[(1121, 800)]",[],[1],[0.85],horizontal,"(390.0, 762.0)",0.6166666666666667,nan,0,2422.503,0,0.0,same
0,60,valid,"[(1097, 787)]",[],[1],[0.6833333333333333],vertical,"(390.0, 262.0)",0.65,0.64,1,2427.151,1,0.0,same
0,61,valid,"[(1116, 787)]",[],[1],[0.6],vertical,"(890.0, 262.0)",0.55,0.558,1,2432.403,1,0.0,same
0,62,valid,"[(1116, 777)]",[],[1],[0.65],horizontal,"(890.0, 262.0)",0.36666666666666664,0.619,1,2437.326,1,0.0,same
0,63,valid,"[(1132, 791)]",[],[1],[0.85],vertical,"(390.0, 262.0)",0.6,nan,0,2442.3,0,0.0,same
0,64,catch,"[(1086, 848)]",[],[1],[],horizontal,"(390.0, 762.0)",1.7,nan,1,2446.737,1,0.0,same
0,65,valid,"[(1086, 817)]",[],[1],[0.85],vertical,"(890.0, 762.0)",0.7,nan,0,3184.591,0,0.0,same
0,66,valid,"[(1073, 826)]",[],[1],[0.85],horizontal,"(390.0, 262.0)",0.8833333333333333,nan,0,3189.472,0,0.0,same
0,67,invalid_adjacent_other_bar,"[(1080, 813)]",[],[1],[0.6666666666666666],horizontal,"(890.0, 262.0)",0.7,0.621,1,3196.692,1,0.0,other
0,68,invalid_adjacent_other_bar,"[(1107, 791)]",[],[1],[0.6666666666666666],vertical,"(890.0, 262.0)",1.25,0.624,1,3201.755,1,0.0,other
0,69,valid,"[(1144, 811)]",[],[1],[0.85],horizontal,"(390.0, 262.0)",0.55,nan,0,3207.229,0,0.0,same
0,70,valid,"[(1086, 799)]",[],[1],[0.55],horizontal,"(890.0, 262.0)",1.5333333333333332,0.508,1,3211.879,1,0.0,same
0,71,valid,"[(1134, 800)]",[],[1],[0.65],vertical,"(390.0, 762.0)",1.5166666666666666,0.604,1,3217.705,1,0.0,same
0,72,valid,"[(1115, 775)]",[],[1],[0.5333333333333333],vertical,"(890.0, 262.0)",0.8166666666666667,0.49,1,3223.186,1,0.0,same
0,73,catch,"[(1123, 808)]",[],[1],[],vertical,"(890.0, 762.0)",1.7,nan,1,3228.173,2,0.0,same
0,74,valid,"[(1123, 785)]",[],[1],[0.5666666666666667],horizontal,"(390.0, 762.0)",0.8833333333333333,0.525,1,3233.949,2,0.0,same
0,75,invalid_same_bar,"[(1150, 805)]",[],[1],[0.85],horizontal,"(390.0, 762.0)",0.95,nan,0,3239.388,0,0.0,same
0,76,valid,"[(1061, 849)]",[],[1],[0.7],vertical,"(890.0, 762.0)",1.0666666666666667,0.657,1,3244.555,1,0.0,same
0,77,catch,"[(1165, 795)]",[],[1],[],horizontal,"(390.0, 762.0)",1.7,nan,1,3250.018,1,0.0,same
0,78,valid,"[(1165, 780)]",[],[1],[0.5],vertical,"(890.0, 762.0)",0.95,0.459,1,3255.47,1,0.0,same
0,79,valid,"[(1140, 798)]",[],[1],[0.6666666666666666],vertical,"(390.0, 262.0)",0.6,0.623,1,3260.224,2,0.0,same
0,80,valid,"[(1138, 776)]",[],[1],[0.7333333333333333],horizontal,"(890.0, 262.0)",1.2,0.693,1,3266.038,2,0.0,same
0,81,catch,"[(1165, 793)]",[],[1],[],horizontal,"(890.0, 262.0)",1.7,nan,1,3271.606,2,0.0,same
0,82,catch,"[(1136, 791)]",[],[1],[],vertical,"(390.0, 262.0)",1.7,nan,1,3277.391,3,0.0,same
0,83,catch,"[(1142, 778)]",[],[1],[],horizontal,"(390.0, 762.0)",1.7,nan,1,3283.513,3,0.0,same
0,84,valid,"[(1138, 789)]",[],[1],[0.5833333333333334],horizontal,"(890.0, 762.0)",1.5166666666666666,0.54,1,3289.489,3,0.0,same
0,85,catch,"[(1132, 805)]",[],[1],[],horizontal,"(390.0, 762.0)",1.7,nan,1,3296.155,3,0.0,same
0,86,valid,"[(1160, 789)]",[],[1],[0.6],vertical,"(890.0, 262.0)",1.2,0.557,1,3302.405,3,0.0,same
0,87,valid,"[(1155, 787)]",[],[1],[0.6666666666666666],horizontal,"(390.0, 262.0)",1.4833333333333334,0.624,1,3308.504,3,0.0,same
0,88,catch,"[(1155, 789)]",[],[1],[],horizontal,"(390.0, 762.0)",1.7,nan,1,3314.731,3,0.0,same
0,89,valid,"[(1156, 789)]",[],[1],[0.5666666666666667],vertical,"(890.0, 262.0)",0.8166666666666667,0.522,1,3320.622,3,0.0,same
0,90,catch,"[(1153, 789)]",[],[1],[],vertical,"(390.0, 762.0)",1.7,nan,1,3326.058,3,0.0,same
0,91,valid,"[(1164, 776)]",[],[1],[0.5833333333333334],vertical,"(890.0, 762.0)",1.1833333333333333,0.542,1,3332.205,3,0.0,same
0,92,catch,"[(1157, 785)]",[],[1],[],horizontal,"(890.0, 762.0)",1.7,nan,1,3338.356,3,0.0,same
0,93,valid,"[(1136, 789)]",[],[1],[0.5333333333333333],horizontal,"(890.0, 262.0)",1.0666666666666667,0.492,1,3344.272,3,0.0,same
0,94,valid,"[(1126, 781)]",[],[1],[0.5166666666666666],vertical,"(890.0, 762.0)",0.6333333333333333,0.473,1,3350.616,3,0.0,same
0,95,valid,"[(1134, 784)]",[],[1],[0.7333333333333333],vertical,"(890.0, 762.0)",1.0166666666666666,0.693,1,3355.962,3,0.0,same
0,96,valid,"[(1154, 779)]",[],[1],[0.7666666666666666],horizontal,"(390.0, 262.0)",1.15,0.722,1,3362.373,3,0.0,same
0,97,valid,"[(1131, 779)]",[],[1],[0.85],horizontal,"(390.0, 262.0)",1.25,nan,0,3368.735,0,0.0,same
0,98,valid,"[(1126, 777)]",[],[1],[0.48333333333333334],horizontal,"(390.0, 262.0)",1.3666666666666667,0.441,1,3373.923,1,0.0,same
0,99,valid,"[(1157, 789)]",[],[1],[0.6],vertical,"(390.0, 762.0)",0.6333333333333333,0.561,1,3379.388,1,0.0,same
0,100,catch,"[(1123, 789)]",[],[1],[],horizontal,"(890.0, 762.0)",1.7,nan,1,3384.562,1,0.0,same
0,101,catch,"[(1135, 773)]",[],[1],[],horizontal,"(890.0, 762.0)",1.7,nan,1,3389.651,2,0.0,same
0,102,catch,"[(1144, 788)]",[],[1],[],vertical,"(390.0, 762.0)",1.7,nan,1,3395.29,2,0.0,same
0,103,valid,"[(1101, 803)]",[],[1],[0.6333333333333333],horizontal,"(890.0, 762.0)",1.0,0.591,1,3401.139,2,0.0,same
0,104,valid,"[(1158, 793)]",[],[1],[0.5166666666666666],vertical,"(890.0, 262.0)",1.4166666666666667,0.473,1,3406.59,3,0.0,same
0,105,valid,"[(1135, 773)]",[],[1],[0.6333333333333333],horizontal,"(390.0, 262.0)",1.05,0.588,1,3413.356,3,0.0,same
0,106,valid,"[(1132, 769)]",[],[1],[0.5333333333333333],horizontal,"(390.0, 762.0)",0.43333333333333335,0.49,1,3419.067,3,0.0,same
0,107,invalid_same_bar,"[(1145, 794)]",[],[1],[0.65],horizontal,"(390.0, 262.0)",1.0166666666666666,0.604,1,3424.725,3,0.0,same
0,108,valid,"[(1086, 788)]",[],[1],[0.55],horizontal,"(390.0, 762.0)",0.5166666666666666,0.512,1,3430.458,3,0.0,same
0,109,valid,"[(1157, 794)]",[],[1],[0.8],horizontal,"(390.0, 262.0)",1.1833333333333333,0.757,1,3435.89,3,0.0,same
0,110,valid,"[(1126, 803)]",[],[1],[0.65],horizontal,"(390.0, 762.0)",0.95,0.61,1,3442.64,3,0.0,same
0,111,invalid_same_bar,"[(1116, 789)]",[],[1],[0.5166666666666666],vertical,"(390.0, 762.0)",0.9,0.474,1,3448.807,3,0.0,same
0,112,valid,"[(1123, 800)]",[],[1],[0.5166666666666666],horizontal,"(390.0, 262.0)",0.9833333333333333,0.473,1,3454.356,3,0.0,same
0,113,invalid_adjacent_other_bar,"[(1102, 795)]",[],[1],[0.5666666666666667],horizontal,"(390.0, 262.0)",1.0333333333333332,0.528,1,3460.356,3,0.0,other
0,114,catch,"[(1160, 799)]",[],[1],[],horizontal,"(890.0, 262.0)",1.7,nan,1,3466.111,3,0.0,same
0,115,valid,"[(1141, 792)]",[],[1],[0.5166666666666666],vertical,"(390.0, 262.0)",0.8166666666666667,0.482,1,3472.323,3,0.0,same
0,116,valid,"[(1160, 786)]",[],[1],[0.55],vertical,"(890.0, 262.0)",0.6166666666666667,0.506,1,3478.339,3,0.0,same
0,117,catch,"[(1136, 775)]",[],[1],[],horizontal,"(890.0, 262.0)",1.7,nan,1,3484.189,3,0.0,same
0,118,valid,"[(1161, 782)]",[],[1],[0.6],horizontal,"(890.0, 762.0)",0.35,0.553,1,3490.79,3,0.0,same
0,119,catch,"[(1160, 774)]",[],[1],[],vertical,"(390.0, 262.0)",1.7,nan,1,3496.174,3,0.0,same
0,120,valid,"[(1134, 790)]",[],[1],[0.6333333333333333],vertical,"(390.0, 762.0)",1.3,0.584,1,3502.14,3,0.0,same
0,121,catch,"[(1132, 773)]",[],[1],[],horizontal,"(390.0, 262.0)",1.7,nan,1,3508.334,3,0.0,same
0,122,valid,"[(1131, 769)]",[],[1],[0.55],vertical,"(390.0, 762.0)",1.1166666666666667,0.515,1,3514.507,3,0.0,same
0,123,valid,"[(1155, 787)]",[],[1],[0.55],vertical,"(390.0, 762.0)",1.2833333333333332,0.508,1,3520.039,3,0.0,same
0,124,invalid_same_bar,"[(1159, 760)]",[],[1],[0.65],horizontal,"(390.0, 762.0)",1.2,0.604,1,3526.156,3,0.0,same
0,125,valid,"[(1129, 795)]",[],[1],[0.7166666666666667],horizontal,"(890.0, 262.0)",1.2,0.672,1,3532.723,3,0.0,same
0,126,valid,"[(1135, 793)]",[],[1],[0.6166666666666667],vertical,"(390.0, 762.0)",0.7833333333333333,0.574,1,3539.278,3,0.0,same
0,127,valid,"[(1135, 796)]",[],[1],[0.55],horizontal,"(390.0, 762.0)",0.45,0.505,1,3545.306,3,0.0,same
0,128,invalid_adjacent_other_bar,"[(1137, 779)]",[],[1],[0.5166666666666666],horizontal,"(890.0, 762.0)",0.35,0.477,1,3550.864,3,0.0,other
0,129,invalid_adjacent_other_bar,"[(1140, 780)]",[],[1],[0.6],horizontal,"(890.0, 262.0)",1.15,0.554,1,3556.574,3,0.0,other
0,130,catch,"[(1159, 779)]",[],[1],[],horizontal,"(390.0, 762.0)",1.7,nan,1,3562.557,3,0.0,same
0,131,valid,"[(1159, 775)]",[],[1],[0.5166666666666666],horizontal,"(890.0, 262.0)",1.3833333333333333,0.476,1,3568.638,3,0.0,same
0,132,invalid_same_bar,"[(1160, 774)]",[],[1],[0.6166666666666667],vertical,"(890.0, 762.0)",0.7166666666666667,0.574,1,3575.273,3,0.0,same
0,133,invalid_same_bar,"[(1111, 778)]",[],[1],[0.6166666666666667],horizontal,"(390.0, 762.0)",0.7833333333333333,0.569,1,3581.049,3,0.0,same
0,134,catch,"[(1126, 781)]",[],[1],[],vertical,"(890.0, 762.0)",1.7,nan,1,3586.828,3,0.0,same
0,135,valid,"[(1152, 793)]",[],[1],[0.5666666666666667],horizontal,"(890.0, 262.0)",0.4666666666666667,0.516,1,3592.623,3,0.0,same
0,136,valid,"[(1160, 777)]",[],[1],[0.5166666666666666],vertical,"(890.0, 262.0)",1.1166666666666667,0.473,1,3598.155,3,0.0,same
0,137,catch,"[(1122, 791)]",[],[1],[],vertical,"(890.0, 762.0)",1.7,nan,1,3604.268,3,0.0,same
0,138,valid,"[(1111, 788)]",[],[1],[0.85],horizontal,"(890.0, 262.0)",0.85,nan,0,3610.374,0,0.0,same
0,139,catch,"[(1116, 776)]",[],[1],[],horizontal,"(890.0, 762.0)",1.7,nan,1,3615.045,1,0.0,same
0,140,valid,"[(1159, 784)]",[],[1],[0.7333333333333333],vertical,"(390.0, 762.0)",1.3333333333333333,0.687,1,3620.477,1,0.0,same
0,141,catch,"[(1136, 792)]",[],[1],[],horizontal,"(890.0, 762.0)",1.7,nan,1,3625.458,1,0.0,same
0,142,invalid_adjacent_other_bar,"[(1122, 793)]",[],[1],[0.5333333333333333],vertical,"(890.0, 762.0)",1.2833333333333332,0.493,1,3630.489,2,0.0,other
0,143,catch,"[(1136, 792)]",[],[1],[],horizontal,"(390.0, 762.0)",1.7,nan,1,3636.756,2,0.0,same
0,144,invalid_adjacent_other_bar,"[(1160, 788)]",[],[1],[0.6666666666666666],vertical,"(390.0, 262.0)",1.4166666666666667,0.616,1,3642.742,2,0.0,other
0,145,valid,"[(1131, 795)]",[],[1],[0.5833333333333334],horizontal,"(390.0, 762.0)",0.65,0.541,1,3648.817,3,0.0,same
0,146,catch,"[(1155, 786)]",[],[1],[],horizontal,"(390.0, 762.0)",1.7,nan,1,3654.527,3,0.0,same
0,147,catch,"[(1134, 779)]",[],[1],[],vertical,"(390.0, 762.0)",1.7,nan,1,3660.475,3,0.0,same
0,148,valid,"[(1137, 788)]",[],[1],[0.5833333333333334],vertical,"(390.0, 262.0)",0.5833333333333334,0.543,1,3666.922,3,0.0,same
0,149,invalid_adjacent_other_bar,"[(1158, 798)]",[],[1],[0.5],vertical,"(390.0, 762.0)",0.4666666666666667,0.458,1,3672.54,3,0.0,other
0,150,valid,"[(1135, 786)]",[],[1],[0.6],vertical,"(890.0, 262.0)",1.4333333333333333,0.559,1,3677.668,3,0.0,same
0,151,catch,"[(1114, 790)]",[],[1],[],horizontal,"(890.0, 762.0)",1.7,nan,1,3684.301,3,0.0,same
0,152,catch,"[(1144, 786)]",[],[1],[],horizontal,"(390.0, 262.0)",1.7,nan,1,3690.093,3,0.0,same
0,153,catch,"[(1087, 788)]",[],[1],[],horizontal,"(390.0, 262.0)",1.7,nan,1,3696.051,3,0.0,same
0,154,valid,"[(1134, 793)]",[],[1],[0.55],horizontal,"(390.0, 762.0)",0.7333333333333333,0.508,1,3702.404,3,0.0,same
0,155,catch,"[(1114, 793)]",[],[1],[],vertical,"(390.0, 762.0)",1.7,nan,1,3708.09,3,0.0,same
0,156,valid,"[(1129, 798)]",[],[1],[0.5333333333333333],vertical,"(390.0, 262.0)",1.0,0.491,1,3714.315,3,0.0,same
0,157,valid,"[(1134, 802)]",[],[1],[0.5166666666666666],vertical,"(390.0, 262.0)",1.3333333333333333,0.471,1,3720.548,3,0.0,same
0,158,catch,"[(1111, 841)]",[],[1],[],vertical,"(390.0, 762.0)",1.7,nan,1,3727.11,3,0.0,same
0,159,valid,"[(1148, 807)]",[],[1],[0.6],horizontal,"(890.0, 262.0)",0.6,0.554,1,3733.542,3,0.0,same
0,160,valid,"[(1134, 801)]",[],[1],[0.55],horizontal,"(390.0, 762.0)",0.7333333333333333,0.508,1,3739.139,3,0.0,same
0,161,valid,"[(1148, 786)]",[],[1],[0.55],vertical,"(390.0, 262.0)",0.6833333333333333,0.503,1,3745.007,3,0.0,same
0,162,catch,"[(1134, 809)]",[],[1],[],horizontal,"(890.0, 762.0)",1.7,nan,1,3750.409,3,0.0,same
0,163,valid,"[(1155, 794)]",[],[1],[0.6],vertical,"(390.0, 262.0)",0.9,0.555,1,3756.443,3,0.0,same
0,164,valid,"[(1114, 776)]",[],[1],[0.5166666666666666],vertical,"(390.0, 262.0)",1.3833333333333333,0.48,1,3762.481,3,0.0,same
0,165,valid,"[(1133, 795)]",[],[1],[0.6333333333333333],vertical,"(390.0, 762.0)",0.36666666666666664,0.588,1,3768.69,3,0.0,same
0,166,valid,"[(1087, 850)]",[],[1],[0.5666666666666667],horizontal,"(890.0, 762.0)",0.6666666666666666,0.521,1,3774.091,3,0.0,same
0,167,catch,"[(1117, 791)]",[],[1],[],horizontal,"(890.0, 762.0)",1.7,nan,1,3849.972,3,0.0,same
0,168,valid,"[(1138, 799)]",[],[1],[0.6333333333333333],vertical,"(890.0, 262.0)",0.3833333333333333,0.591,1,3856.517,3,0.0,same
0,169,catch,"[(1155, 789)]",[],[1],[],horizontal,"(890.0, 762.0)",1.7,nan,1,3861.775,3,0.0,same
0,170,valid,"[(1081, 786)]",[],[1],[0.5666666666666667],vertical,"(890.0, 262.0)",0.65,0.53,1,3867.49,3,0.0,same
0,171,catch,"[(1131, 783)]",[],[1],[],vertical,"(390.0, 762.0)",1.7,nan,1,3872.744,3,0.0,same
0,172,valid,"[(1151, 782)]",[],[1],[0.5333333333333333],vertical,"(890.0, 762.0)",0.9666666666666667,0.49,1,3878.675,3,0.0,same
0,173,valid,"[(1131, 789)]",[],[1],[0.7166666666666667],vertical,"(890.0, 262.0)",1.2333333333333334,0.668,1,3883.875,3,0.0,same
0,174,valid,"[(1131, 783)]",[],[1],[0.4666666666666667],vertical,"(890.0, 262.0)",1.5166666666666666,0.424,1,3890.471,3,0.0,same
0,175,valid,"[(1130, 802)]",[],[1],[0.5333333333333333],vertical,"(890.0, 762.0)",0.5,0.498,1,3896.524,3,0.0,same
0,176,valid,"[(1134, 798)]",[],[1],[0.48333333333333334],vertical,"(890.0, 762.0)",1.3166666666666667,0.44,1,3902.308,3,0.0,same
0,177,catch,"[(1126, 814)]",[],[1],[],horizontal,"(890.0, 762.0)",1.7,nan,1,3908.571,3,0.0,same
0,178,invalid_adjacent_other_bar,"[(1160, 779)]",[],[1],[0.5666666666666667],horizontal,"(890.0, 262.0)",0.4166666666666667,0.523,1,3914.673,3,0.0,other
0,179,catch,"[(1125, 785)]",[],[1],[],horizontal,"(390.0, 762.0)",1.7,nan,1,3919.936,3,0.0,same
0,180,catch,"[(1131, 806)]",[],[1],[],horizontal,"(890.0, 762.0)",,"('cti', 0.424),nan",0,3925.815,0,0.02,same
0,181,valid,"[(1086, 832)]",[],[1],[0.6666666666666666],vertical,"(390.0, 762.0)",0.8166666666666667,0.62,1,3929.707,1,0.02,same
0,182,catch,"[(1081, 800)]",[],[1],[],horizontal,"(390.0, 762.0)",1.7,nan,1,3934.867,1,0.02,same
0,183,valid,"[(1136, 789)]",[],[1],[0.48333333333333334],horizontal,"(890.0, 262.0)",0.6,0.453,1,3940.044,1,0.02,same
0,184,invalid_adjacent_other_bar,"[(1158, 785)]",[],[1],[0.5333333333333333],vertical,"(390.0, 262.0)",1.0,0.494,1,3944.624,2,0.02,other
0,185,valid,"[(1109, 798)]",[],[1],[0.6],vertical,"(390.0, 762.0)",0.9166666666666666,0.556,1,3949.825,2,0.02,same
0,186,valid,"[(1131, 789)]",[],[1],[0.6],vertical,"(390.0, 262.0)",1.4833333333333334,0.558,1,3955.539,2,0.02,same
0,187,valid,"[(1111, 791)]",[],[1],[0.5666666666666667],vertical,"(890.0, 762.0)",0.4166666666666667,0.523,1,3961.337,3,0.02,same
0,188,valid,"[(1137, 794)]",[],[1],[0.5333333333333333],vertical,"(390.0, 262.0)",0.75,0.493,1,3966.839,3,0.02,same
0,189,valid,"[(1137, 785)]",[],[1],[0.5333333333333333],horizontal,"(890.0, 262.0)",0.36666666666666664,0.49,1,3972.678,3,0.02,same
0,190,valid,"[(1133, 788)]",[],[1],[0.5],vertical,"(890.0, 762.0)",0.4666666666666667,0.46,1,3978.143,3,0.02,same
0,191,catch,"[(1149, 803)]",[],[1],[],horizontal,"(390.0, 762.0)",1.7,nan,1,3983.377,3,0.02,same
0,192,valid,"[(1133, 774)]",[],[1],[0.5666666666666667],horizontal,"(390.0, 762.0)",0.9333333333333333,0.527,1,3989.092,3,0.02,same
0,193,invalid_same_bar,"[(1126, 784)]",[],[1],[0.8],vertical,"(390.0, 762.0)",0.9166666666666666,0.752,1,3994.86,3,0.02,same
0,194,valid,"[(1133, 780)]",[],[1],[0.65],vertical,"(890.0, 262.0)",1.3833333333333333,0.609,1,4001.167,3,0.02,same
0,195,valid,"[(1142, 805)]",[],[1],[0.48333333333333334],vertical,"(890.0, 762.0)",1.4833333333333334,0.442,1,4007.641,3,0.02,same
0,196,catch,"[(1126, 797)]",[],[1],[],vertical,"(390.0, 762.0)",1.7,nan,1,4014.158,3,0.02,same
0,197,valid,"[(1131, 769)]",[],[1],[0.5333333333333333],horizontal,"(390.0, 262.0)",0.8,0.491,1,4020.29,3,0.02,same
0,198,valid,"[(1118, 796)]",[],[1],[0.5666666666666667],vertical,"(390.0, 762.0)",0.9666666666666667,0.52,1,4025.587,3,0.02,same
0,199,valid,"[(1132, 783)]",[],[1],[0.65],vertical,"(890.0, 262.0)",0.5,0.602,1,4031.691,3,0.02,same
0,200,valid,"[(1116, 780)]",[],[1],[0.65],horizontal,"(390.0, 262.0)",0.95,0.606,1,4037.074,3,0.02,same
0,201,catch,"[(1125, 788)]",[],[1],[],horizontal,"(890.0, 262.0)",1.7,nan,1,4042.761,3,0.02,same
0,202,valid,"[(1122, 774)]",[],[1],[0.55],horizontal,"(890.0, 262.0)",0.8666666666666667,0.506,1,4049.082,3,0.02,same
0,203,valid,"[(1120, 787)]",[],[1],[0.5333333333333333],vertical,"(890.0, 262.0)",0.8166666666666667,0.49,1,4054.729,3,0.02,same
0,204,invalid_same_bar,"[(1122, 794)]",[],[1],[0.5166666666666666],horizontal,"(890.0, 262.0)",0.75,0.48,1,4060.697,3,0.02,same
0,205,valid,"[(1086, 814)]",[],[1],[0.85],vertical,"(390.0, 762.0)",0.3833333333333333,nan,0,4066.507,0,0.02,same
0,206,valid,"[(1069, 794)]",[],[1],[0.85],vertical,"(390.0, 762.0)",0.4166666666666667,nan,0,4071.041,0,0.02,same
0,207,invalid_adjacent_other_bar,"[(1082, 800)]",[],[1],[0.5333333333333333],horizontal,"(890.0, 762.0)",1.2666666666666666,0.493,1,4075.753,1,0.02,other
0,208,invalid_same_bar,"[(1126, 788)]",[],[1],[0.5166666666666666],horizontal,"(890.0, 262.0)",1.2333333333333334,0.476,1,4081.587,1,0.02,same
0,209,valid,"[(1117, 800)]",[],[1],[0.5333333333333333],horizontal,"(890.0, 262.0)",1.1166666666666667,0.49,1,4087.026,1,0.02,same
0,210,catch,"[(1117, 828)]",[],[1],[],vertical,"(390.0, 262.0)",1.7,nan,1,4092.125,2,0.02,same
0,211,valid,"[(1111, 800)]",[],[1],[0.5833333333333334],horizontal,"(890.0, 762.0)",1.0833333333333333,0.547,1,4098.2,2,0.02,same
0,212,catch,"[(1086, 785)]",[],[1],[],horizontal,"(890.0, 262.0)",1.7,nan,1,4103.736,2,0.02,same
0,213,valid,"[(1137, 783)]",[],[1],[0.5333333333333333],horizontal,"(390.0, 262.0)",0.7833333333333333,0.488,1,4109.557,3,0.02,same
0,214,valid,"[(1137, 778)]",[],[1],[0.5],vertical,"(890.0, 262.0)",1.3666666666666667,0.457,1,4115.441,3,0.02,same
0,215,valid,"[(1131, 788)]",[],[1],[0.85],vertical,"(890.0, 762.0)",1.25,nan,0,4121.511,0,0.02,same
0,216,valid,"[(1081, 789)]",[],[1],[0.6166666666666667],vertical,"(390.0, 762.0)",0.6833333333333333,0.57,1,4127.051,1,0.02,same
0,217,invalid_adjacent_other_bar,"[(1116, 792)]",[],[1],[0.6833333333333333],vertical,"(390.0, 762.0)",1.2333333333333334,0.642,1,4131.558,1,0.02,other
0,218,valid,"[(1157, 803)]",[],[1],[0.65],horizontal,"(390.0, 262.0)",1.0833333333333333,0.604,1,4136.661,1,0.02,same
0,219,valid,"[(1128, 788)]",[],[1],[0.85],horizontal,"(890.0, 262.0)",0.36666666666666664,nan,0,4142.205,0,0.02,same
0,220,catch,"[(1118, 766)]",[],[1],[],vertical,"(390.0, 762.0)",1.7,nan,1,4146.108,1,0.02,same
0,221,valid,"[(1131, 780)]",[],[1],[0.55],vertical,"(390.0, 262.0)",0.8833333333333333,0.509,1,4151.375,1,0.02,same
0,222,valid,"[(1086, 821)]",[],[1],[0.85],horizontal,"(390.0, 262.0)",1.2333333333333334,nan,0,4156.007,0,0.02,same
0,223,valid,"[(1084, 815)]",[],[1],[0.85],horizontal,"(890.0, 762.0)",1.15,nan,0,4590.392,0,0.02,same
0,224,valid,"[(1076, 856)]",[],[1],[0.85],vertical,"(890.0, 262.0)",0.6333333333333333,nan,0,4595.893,0,0.02,same
0,225,valid,"[(1052, 829)]",[],[1],[0.75],vertical,"(890.0, 262.0)",0.95,0.706,1,4620.3,1,0.02,same
0,226,catch,"[(1071, 782)]",[],[1],[],vertical,"(890.0, 262.0)",1.7,nan,1,4631.727,1,0.02,same
0,227,valid,"[(1119, 773)]",[],[1],[0.85],horizontal,"(390.0, 262.0)",1.3333333333333333,nan,0,4636.851,0,0.02,same
0,228,valid,"[(1123, 789)]",[],[1],[0.7],vertical,"(390.0, 262.0)",1.2166666666666666,0.655,1,4642.213,1,0.02,same
0,229,invalid_adjacent_other_bar,"[(1150, 796)]",[],[1],[0.65],vertical,"(390.0, 262.0)",1.5,0.609,1,4647.811,1,0.02,other
0,230,invalid_same_bar,"[(1153, 799)]",[],[1],[0.6],vertical,"(890.0, 262.0)",1.3,0.553,1,4653.46,1,0.0,same
0,231,catch,"[(1145, 799)]",[],[1],[],horizontal,"(390.0, 762.0)",1.7,nan,1,4658.993,2,0.0,same
0,232,catch,"[(1139, 790)]",[],[1],[],vertical,"(890.0, 762.0)",,"('cti', 1.33),nan",0,4664.767,0,0.02,same
0,233,valid,"[(1090, 846)]",[],[1],[0.85],horizontal,"(890.0, 762.0)",0.4,nan,0,4669.011,0,0.02,same
0,234,catch,"[(1086, 830)]",[],[1],[],horizontal,"(390.0, 262.0)",1.7,nan,1,4704.627,1,0.02,same
0,235,valid,"[(1128, 798)]",[],[1],[0.85],vertical,"(390.0, 262.0)",1.25,nan,0,4710.19,0,0.02,same
0,236,invalid_same_bar,"[(1131, 798)]",[],[1],[0.6666666666666666],horizontal,"(390.0, 762.0)",1.15,0.621,1,4715.294,1,0.02,same
0,237,valid,"[(1122, 798)]",[],[1],[0.5],horizontal,"(890.0, 262.0)",1.25,0.456,1,4720.644,1,0.02,same
0,238,catch,"[(1143, 813)]",[],[1],[],vertical,"(390.0, 762.0)",1.7,nan,1,4725.961,1,0.02,same
0,239,valid,"[(1160, 790)]",[],[1],[0.5666666666666667],vertical,"(890.0, 262.0)",0.35,0.535,1,4730.778,2,0.02,same
0,240,catch,"[(1141, 799)]",[],[1],[],horizontal,"(390.0, 762.0)",1.7,nan,1,4735.111,2,0.02,same
0,241,valid,"[(1108, 832)]",[],[1],[0.7166666666666667],vertical,"(890.0, 762.0)",0.9333333333333333,0.671,1,4740.478,2,0.02,same
0,242,valid,"[(1121, 800)]",[],[1],[0.6166666666666667],vertical,"(390.0, 262.0)",1.3166666666666667,0.571,1,4746.242,3,0.02,same
0,243,catch,"[(1124, 795)]",[],[1],[],vertical,"(890.0, 262.0)",1.7,nan,1,4752.687,3,0.02,same
0,244,catch,"[(1162, 779)]",[],[1],[],horizontal,"(390.0, 762.0)",1.7,nan,1,4758.794,3,0.02,same
0,245,valid,"[(1142, 792)]",[],[1],[0.85],horizontal,"(390.0, 762.0)",1.4166666666666667,nan,0,4765.044,0,0.02,same
0,246,valid,"[(1121, 786)]",[],[1],[0.6],vertical,"(890.0, 762.0)",1.2,0.566,1,4770.03,1,0.02,same
0,247,valid,"[(1135, 785)]",[],[1],[0.6833333333333333],horizontal,"(890.0, 262.0)",0.48333333333333334,0.632,1,4775.456,1,0.02,same
0,248,valid,"[(1136, 769)]",[],[1],[0.6666666666666666],horizontal,"(390.0, 262.0)",0.95,0.637,1,4779.928,1,0.02,same
0,249,valid,"[(1087, 809)]",[],[1],[0.5666666666666667],horizontal,"(390.0, 262.0)",1.25,0.531,1,4785.011,2,0.02,same
0,250,invalid_same_bar,"[(1131, 801)]",[],[1],[0.5666666666666667],horizontal,"(390.0, 762.0)",0.9666666666666667,0.529,1,4791.045,2,0.02,same
0,251,valid,"[(1131, 784)]",[],[1],[0.85],vertical,"(890.0, 762.0)",0.55,nan,0,4796.69,0,0.02,same
0,252,valid,"[(1096, 770)]",[],[1],[0.85],horizontal,"(390.0, 262.0)",0.35,nan,0,4801.244,0,0.02,same
0,253,invalid_same_bar,"[(1086, 810)]",[],[1],[0.6333333333333333],vertical,"(390.0, 762.0)",1.5166666666666666,0.592,1,4805.5,1,0.02,same
0,254,valid,"[(1136, 774)]",[],[1],[0.5166666666666666],vertical,"(890.0, 762.0)",0.85,0.476,1,4815.931,1,0.02,same
0,255,valid,"[(1148, 796)]",[],[1],[0.5666666666666667],vertical,"(890.0, 262.0)",0.36666666666666664,0.535,1,4820.706,1,0.02,same
0,256,valid,"[(1135, 795)]",[],[1],[0.85],vertical,"(390.0, 762.0)",0.35,nan,0,4825.05,0,0.02,same
0,257,invalid_adjacent_other_bar,"[(1123, 813)]",[],[1],[0.5333333333333333],horizontal,"(390.0, 262.0)",0.5333333333333333,0.498,1,4829.19,1,0.02,other
0,258,catch,"[(1091, 833)]",[],[1],[],horizontal,"(390.0, 762.0)",1.7,nan,1,4833.608,1,0.02,same
0,259,valid,"[(1134, 792)]",[],[1],[0.6666666666666666],vertical,"(390.0, 262.0)",1.0166666666666666,0.642,1,4839.162,1,0.02,same
0,260,valid,"[(1117, 779)]",[],[1],[0.4666666666666667],horizontal,"(890.0, 262.0)",1.4666666666666666,0.428,1,4844.526,2,0.02,same
0,261,valid,"[(1134, 803)]",[],[1],[0.5333333333333333],horizontal,"(890.0, 262.0)",0.6,0.492,1,4850.519,2,0.02,same
0,262,valid,"[(1111, 788)]",[],[1],[0.85],vertical,"(390.0, 762.0)",0.6833333333333333,nan,0,4855.56,0,0.02,same
0,263,catch,"[(1141, 783)]",[],[1],[],horizontal,"(390.0, 262.0)",1.7,nan,1,4860.017,1,0.02,same
0,264,valid,"[(1136, 765)]",[],[1],[0.5166666666666666],vertical,"(890.0, 262.0)",1.5333333333333332,0.476,1,4865.344,1,0.02,same
0,265,valid,"[(1136, 793)]",[],[1],[0.5],vertical,"(890.0, 762.0)",0.9833333333333333,0.468,1,4870.673,1,0.02,same
0,266,valid,"[(1135, 784)]",[],[1],[0.5166666666666666],horizontal,"(890.0, 762.0)",1.4,0.477,1,4875.786,2,0.02,same
0,267,valid,"[(1130, 799)]",[],[1],[0.5166666666666666],horizontal,"(890.0, 762.0)",1.3166666666666667,0.473,1,4881.41,2,0.02,same
0,268,catch,"[(1151, 784)]",[],[1],[],horizontal,"(890.0, 762.0)",1.7,nan,1,4887.285,2,0.02,same
0,269,valid,"[(1121, 787)]",[],[1],[0.5333333333333333],vertical,"(390.0, 762.0)",0.7,0.493,1,4892.661,3,0.02,same
0,270,valid,"[(1131, 793)]",[],[1],[0.6166666666666667],vertical,"(390.0, 762.0)",0.4666666666666667,0.573,1,4898.356,3,0.02,same
0,271,valid,"[(1139, 787)]",[],[1],[0.5333333333333333],vertical,"(390.0, 762.0)",1.45,0.492,1,4903.656,3,0.02,same
0,272,valid,"[(1141, 775)]",[],[1],[0.6666666666666666],horizontal,"(390.0, 762.0)",0.4,0.622,1,4910.344,3,0.02,same
0,273,valid,"[(1162, 788)]",[],[1],[0.5666666666666667],vertical,"(890.0, 762.0)",1.1166666666666667,0.525,1,4915.352,3,0.02,same
0,274,valid,"[(1137, 792)]",[],[1],[0.48333333333333334],vertical,"(890.0, 262.0)",0.6333333333333333,0.444,1,4921.628,3,0.02,same
0,275,invalid_adjacent_other_bar,"[(1124, 782)]",[],[1],[0.6166666666666667],vertical,"(390.0, 762.0)",0.35,0.574,1,4927.136,3,0.02,other
0,276,valid,"[(1112, 774)]",[],[1],[0.5166666666666666],vertical,"(390.0, 262.0)",1.05,0.484,1,4932.461,3,0.02,same
0,277,valid,"[(1136, 793)]",[],[1],[0.5333333333333333],horizontal,"(890.0, 262.0)",1.1166666666666667,0.492,1,4938.312,3,0.02,same
0,278,valid,"[(1136, 778)]",[],[1],[0.7166666666666667],horizontal,"(390.0, 762.0)",1.3,0.672,1,4944.027,3,0.02,same
0,279,valid,"[(1152, 782)]",[],[1],[0.6666666666666666],horizontal,"(890.0, 262.0)",0.95,0.625,1,4950.194,3,0.02,same
0,280,invalid_same_bar,"[(1143, 769)]",[],[1],[0.85],horizontal,"(390.0, 762.0)",1.35,nan,0,4956.161,0,0.02,same
0,281,valid,"[(1121, 863)]",[],[1],[0.65],horizontal,"(890.0, 262.0)",0.4166666666666667,0.609,1,4961.045,1,0.02,same
0,282,catch,"[(1082, 808)]",[],[1],[],vertical,"(390.0, 762.0)",1.7,nan,1,5023.961,1,0.0,same
0,283,valid,"[(1128, 800)]",[],[1],[0.48333333333333334],vertical,"(890.0, 262.0)",0.8166666666666667,0.442,1,5030.211,1,0.0,same
0,284,valid,"[(1159, 789)]",[],[1],[0.85],horizontal,"(390.0, 262.0)",1.3,nan,0,5034.957,0,0.0,same
0,285,catch,"[(1126, 781)]",[],[1],[],vertical,"(390.0, 262.0)",1.7,nan,1,5039.978,1,0.0,same
0,286,valid,"[(1157, 782)]",[],[1],[0.6666666666666666],vertical,"(890.0, 262.0)",0.45,0.624,1,5045.197,1,0.0,same
0,287,valid,"[(1128, 784)]",[],[1],[0.5666666666666667],horizontal,"(390.0, 262.0)",0.9833333333333333,0.531,1,5049.702,1,0.0,same
0,288,catch,"[(1086, 802)]",[],[1],[],vertical,"(390.0, 262.0)",1.7,nan,1,5054.943,2,0.0,same
0,289,valid,"[(1124, 772)]",[],[1],[0.5666666666666667],horizontal,"(890.0, 762.0)",0.4166666666666667,0.53,1,5061.129,2,0.0,same
0,290,valid,"[(1109, 778)]",[],[1],[0.5333333333333333],vertical,"(890.0, 762.0)",0.8333333333333334,0.496,1,5065.942,2,0.0,same
0,291,catch,"[(1085, 813)]",[],[1],[],vertical,"(890.0, 262.0)",1.7,nan,1,5071.289,3,0.0,same
0,292,valid,"[(1161, 786)]",[],[1],[0.85],horizontal,"(390.0, 762.0)",1.0833333333333333,nan,0,5077.481,0,0.0,same
0,293,valid,"[(1111, 774)]",[],[1],[0.55],horizontal,"(390.0, 262.0)",1.4833333333333334,0.506,1,5082.168,1,0.0,same
0,294,valid,"[(1126, 778)]",[],[1],[0.85],vertical,"(890.0, 262.0)",0.8,nan,0,5087.746,0,0.0,same
0,295,valid,"[(1111, 795)]",[],[1],[0.85],vertical,"(390.0, 762.0)",0.36666666666666664,nan,0,5092.028,0,0.0,same
0,296,invalid_same_bar,"[(1112, 805)]",[],[1],[0.85],horizontal,"(890.0, 762.0)",0.48333333333333334,nan,0,5096.645,0,0.0,same
0,297,invalid_same_bar,"[(1146, 787)]",[],[1],[0.5833333333333334],vertical,"(390.0, 262.0)",1.3666666666666667,0.544,1,5101.49,1,0.0,same
0,298,valid,"[(1165, 799)]",[],[1],[0.6],horizontal,"(390.0, 762.0)",0.7,0.55,1,5107.18,1,0.0,same
0,299,valid,"[(1112, 811)]",[],[1],[0.5333333333333333],vertical,"(890.0, 262.0)",0.7,0.496,1,5111.329,1,0.0,same
0,300,catch,"[(1128, 808)]",[],[1],[],vertical,"(890.0, 762.0)",1.7,nan,1,5116.311,2,0.0,same
0,301,valid,"[(1163, 787)]",[],[1],[0.48333333333333334],horizontal,"(890.0, 262.0)",0.6666666666666666,0.444,1,5121.579,2,0.0,same
0,302,valid,"[(1167, 785)]",[],[1],[0.85],horizontal,"(890.0, 262.0)",0.7833333333333333,nan,0,5126.553,0,0.0,same
0,303,valid,"[(1131, 769)]",[],[1],[0.6166666666666667],vertical,"(390.0, 262.0)",1.5,0.578,1,5131.412,1,0.0,same
0,304,invalid_adjacent_other_bar,"[(1160, 801)]",[],[1],[0.5333333333333333],horizontal,"(390.0, 762.0)",1.0833333333333333,0.495,1,5137.355,1,0.0,other
0,305,valid,"[(1126, 789)]",[],[1],[0.5666666666666667],horizontal,"(890.0, 762.0)",1.3,0.518,1,5142.46,1,0.0,same
0,306,valid,"[(1111, 799)]",[],[1],[0.5333333333333333],horizontal,"(890.0, 262.0)",0.9,0.494,1,5148.049,2,0.0,same
0,307,valid,"[(1071, 813)]",[],[1],[],vertical,"(390.0, 762.0)",,"('cti', 1.317)",0,5153.196,0,0.0,same
0,308,valid,"[(1087, 849)]",[],[1],[0.85],horizontal,"(890.0, 762.0)",1.15,nan,0,5157.377,0,0.0,same
0,309,valid,"[(1104, 805)]",[],[1],[0.85],horizontal,"(390.0, 262.0)",0.75,nan,0,5904.031,0,0.0,same
0,310,catch,"[(1083, 808)]",[],[1],[],horizontal,"(890.0, 262.0)",1.7,nan,1,5908.707,1,0.0,same
0,311,catch,"[(1111, 834)]",[],[1],[],vertical,"(890.0, 762.0)",1.7,nan,1,5914.514,1,0.0,same
0,312,valid,"[(1123, 813)]",[],[1],[0.7666666666666666],horizontal,"(890.0, 262.0)",0.8833333333333333,0.726,1,5919.753,1,0.0,same
0,313,catch,"[(1131, 796)]",[],[1],[],vertical,"(390.0, 762.0)",1.7,nan,1,5925.202,2,0.0,same
0,314,catch,"[(1165, 794)]",[],[1],[],horizontal,"(390.0, 262.0)",1.7,nan,1,5930.931,2,0.0,same
0,315,valid,"[(1132, 800)]",[],[1],[0.55],vertical,"(890.0, 762.0)",1.1,0.51,1,5936.522,2,0.0,same
0,316,catch,"[(1084, 823)]",[],[1],[],vertical,"(390.0, 262.0)",1.7,nan,1,5941.931,3,0.0,same
0,317,catch,"[(1084, 811)]",[],[1],[],horizontal,"(390.0, 262.0)",1.7,nan,1,5948.165,3,0.0,same
0,318,catch,"[(1128, 795)]",[],[1],[],horizontal,"(390.0, 262.0)",1.7,nan,1,5954.333,3,0.0,same
0,319,valid,"[(1106, 806)]",[],[1],[0.6],vertical,"(390.0, 762.0)",1.4166666666666667,0.563,1,5960.413,3,0.0,same
0,320,valid,"[(1162, 795)]",[],[1],[0.5166666666666666],vertical,"(890.0, 762.0)",1.3333333333333333,0.477,1,5966.398,3,0.0,same
0,321,valid,"[(1121, 770)]",[],[1],[0.85],vertical,"(390.0, 762.0)",0.43333333333333335,nan,0,5972.764,0,0.0,same
0,322,valid,"[(1086, 793)]",[],[1],[0.5333333333333333],horizontal,"(390.0, 262.0)",0.6,0.49,1,5976.71,1,0.0,same
0,323,catch,"[(1113, 820)]",[],[1],[],horizontal,"(890.0, 262.0)",1.7,nan,1,5982.094,1,0.0,same
0,324,valid,"[(1135, 772)]",[],[1],[0.5833333333333334],horizontal,"(390.0, 262.0)",0.6333333333333333,0.55,1,5987.18,1,0.0,same
0,325,valid,"[(1135, 795)]",[],[1],[0.6666666666666666],horizontal,"(890.0, 762.0)",1.45,0.622,1,5991.982,2,0.0,same
0,326,catch,"[(1149, 801)]",[],[1],[],vertical,"(390.0, 762.0)",1.7,nan,1,5998.134,2,0.0,same
0,327,valid,"[(1134, 777)]",[],[1],[0.6166666666666667],vertical,"(390.0, 262.0)",1.2666666666666666,0.576,1,6003.598,2,0.0,same
0,328,catch,"[(1124, 800)]",[],[1],[],horizontal,"(390.0, 262.0)",1.7,nan,1,6009.665,3,0.0,same
0,329,catch,"[(1136, 779)]",[],[1],[],horizontal,"(390.0, 762.0)",1.7,nan,1,6016.105,3,0.0,same
0,330,valid,"[(1165, 774)]",[],[1],[0.8],horizontal,"(890.0, 762.0)",1.2166666666666666,0.767,1,6022.228,3,0.0,same
0,331,valid,"[(1141, 797)]",[],[1],[0.48333333333333334],horizontal,"(890.0, 262.0)",1.0166666666666666,0.444,1,6028.8,3,0.0,same
0,332,catch,"[(1139, 782)]",[],[1],[],vertical,"(390.0, 262.0)",1.7,nan,1,6034.432,3,0.0,same
0,333,valid,"[(1140, 794)]",[],[1],[0.85],horizontal,"(890.0, 262.0)",0.6333333333333333,nan,0,6040.782,0,0.0,same
0,334,catch,"[(1118, 801)]",[],[1],[],vertical,"(890.0, 762.0)",1.7,nan,1,6045.33,1,0.0,same
0,335,valid,"[(1107, 805)]",[],[1],[0.6166666666666667],vertical,"(390.0, 762.0)",1.1833333333333333,0.57,1,6050.565,1,0.0,same
0,336,catch,"[(1091, 797)]",[],[1],[],horizontal,"(390.0, 762.0)",1.7,nan,1,6055.923,1,0.0,same
0,337,valid,"[(1084, 789)]",[],[1],[0.6166666666666667],horizontal,"(890.0, 262.0)",1.3166666666666667,0.577,1,6062.548,2,0.0,same
0,338,valid,"[(1131, 774)]",[],[1],[0.85],vertical,"(390.0, 762.0)",1.2666666666666666,nan,0,6068.831,0,0.0,same
0,339,catch,"[(1083, 816)]",[],[1],[],horizontal,"(890.0, 762.0)",1.7,nan,1,6074.057,1,0.0,same
0,340,valid,"[(1148, 800)]",[],[1],[0.5],vertical,"(890.0, 762.0)",1.0,0.465,1,6086.06,1,0.0,same
0,341,valid,"[(1141, 801)]",[],[1],[0.5666666666666667],horizontal,"(390.0, 762.0)",0.85,0.523,1,6090.933,1,0.0,same
0,342,catch,"[(1102, 811)]",[],[1],[],vertical,"(390.0, 262.0)",1.7,nan,1,6095.457,2,0.0,same
0,343,valid,"[(1126, 788)]",[],[1],[0.85],vertical,"(390.0, 262.0)",1.0,nan,0,6101.66,0,0.0,same
0,344,catch,"[(1126, 803)]",[],[1],[],horizontal,"(890.0, 262.0)",1.7,nan,1,6106.582,1,0.0,same
0,345,valid,"[(1127, 789)]",[],[1],[0.6],horizontal,"(890.0, 762.0)",0.3833333333333333,0.558,1,6111.899,1,0.0,same
0,346,valid,"[(1126, 795)]",[],[1],[0.55],horizontal,"(890.0, 762.0)",0.5666666666666667,0.512,1,6116.75,1,0.0,same
0,347,valid,"[(1155, 803)]",[],[1],[0.5833333333333334],vertical,"(390.0, 762.0)",0.6333333333333333,0.538,1,6121.283,2,0.0,same
0,348,valid,"[(1127, 795)]",[],[1],[0.5166666666666666],vertical,"(890.0, 762.0)",1.1166666666666667,0.479,1,6126.65,2,0.0,same
0,349,catch,"[(1146, 806)]",[],[1],[],vertical,"(890.0, 762.0)",1.7,nan,1,6131.781,2,0.0,same
0,350,valid,"[(1160, 786)]",[],[1],[0.6],vertical,"(890.0, 762.0)",1.0833333333333333,0.556,1,6137.282,3,0.0,same
0,351,catch,"[(1110, 798)]",[],[1],[],horizontal,"(390.0, 762.0)",1.7,nan,1,6143.565,3,0.0,same
0,352,valid,"[(1126, 801)]",[],[1],[0.55],vertical,"(890.0, 262.0)",0.9333333333333333,0.507,1,6149.674,3,0.0,same
0,353,catch,"[(1092, 787)]",[],[1],[],vertical,"(390.0, 762.0)",1.7,nan,1,6155.376,3,0.0,same
0,354,valid,"[(1124, 798)]",[],[1],[0.75],vertical,"(890.0, 762.0)",0.8666666666666667,0.703,1,6161.814,3,0.0,same
0,355,valid,"[(1123, 781)]",[],[1],[0.5833333333333334],vertical,"(390.0, 262.0)",0.7166666666666667,0.545,1,6168.166,3,0.0,same
0,356,catch,"[(1138, 788)]",[],[1],[],vertical,"(890.0, 762.0)",1.7,nan,1,6173.799,3,0.0,same
0,357,valid,"[(1130, 789)]",[],[1],[0.55],vertical,"(390.0, 262.0)",0.75,0.507,1,6179.824,3,0.0,same
0,358,valid,"[(1112, 794)]",[],[1],[0.6],vertical,"(890.0, 262.0)",1.3666666666666667,0.554,1,6185.565,3,0.0,same
0,359,catch,"[(1116, 789)]",[],[1],[],horizontal,"(890.0, 262.0)",1.7,nan,1,6192.06,3,0.0,same
0,360,catch,"[(1153, 803)]",[],[1],[],vertical,"(890.0, 762.0)",1.7,nan,1,6198.166,3,0.0,same
0,361,catch,"[(1153, 785)]",[],[1],[],horizontal,"(390.0, 262.0)",1.7,nan,1,6203.901,3,0.0,same
0,362,valid,"[(1129, 794)]",[],[1],[0.85],vertical,"(890.0, 762.0)",0.6666666666666666,nan,0,6210.202,0,0.0,same
0,363,valid,"[(1113, 788)]",[],[1],[0.55],vertical,"(890.0, 762.0)",1.3666666666666667,0.509,1,6214.732,1,0.0,same
0,364,invalid_same_bar,"[(1155, 778)]",[],[1],[0.55],vertical,"(390.0, 762.0)",1.4166666666666667,0.52,1,6220.134,1,0.0,same
0,365,valid,"[(1116, 767)]",[],[1],[0.5],vertical,"(890.0, 262.0)",1.2666666666666666,0.461,1,6225.432,1,0.0,same
0,366,valid,"[(1126, 784)]",[],[1],[0.85],vertical,"(390.0, 262.0)",1.0833333333333333,nan,0,6230.668,0,0.0,same
0,367,valid,"[(1086, 808)]",[],[1],[0.5333333333333333],horizontal,"(890.0, 762.0)",0.6833333333333333,0.495,1,6235.436,1,0.0,same
0,368,catch,"[(1085, 830)]",[],[1],[],vertical,"(390.0, 262.0)",1.7,nan,1,6240.666,1,0.0,same
0,369,valid,"[(1126, 784)]",[],[1],[0.6333333333333333],horizontal,"(890.0, 262.0)",0.8333333333333334,0.593,1,6246.49,1,0.0,same
0,370,catch,"[(1158, 788)]",[],[1],[],vertical,"(390.0, 262.0)",1.7,nan,1,6251.282,2,0.0,same
0,371,valid,"[(1150, 777)]",[],[1],[0.5833333333333334],vertical,"(390.0, 762.0)",0.48333333333333334,0.541,1,6256.8,2,0.0,same
0,372,valid,"[(1131, 780)]",[],[1],[0.5833333333333334],horizontal,"(890.0, 762.0)",0.8166666666666667,0.539,1,6261.951,2,0.0,same
0,373,valid,"[(1116, 797)]",[],[1],[0.5833333333333334],horizontal,"(890.0, 762.0)",0.35,0.542,1,6267.442,3,0.0,same
0,374,valid,"[(1126, 781)]",[],[1],[0.5333333333333333],horizontal,"(390.0, 762.0)",0.45,0.492,1,6272.972,3,0.0,same
0,375,valid,"[(1130, 795)]",[],[1],[0.5166666666666666],vertical,"(890.0, 762.0)",0.5333333333333333,0.478,1,6277.827,3,0.0,same
0,376,catch,"[(1127, 797)]",[],[1],[],vertical,"(890.0, 762.0)",1.7,nan,1,6283.065,3,0.0,same
0,377,valid,"[(1126, 784)]",[],[1],[0.5333333333333333],horizontal,"(890.0, 262.0)",0.6,0.488,1,6289.366,3,0.0,same
0,378,valid,"[(1147, 782)]",[],[1],[0.6833333333333333],horizontal,"(390.0, 762.0)",1.0,0.638,1,6294.85,3,0.0,same
0,379,catch,"[(1158, 819)]",[],[1],[],vertical,"(390.0, 262.0)",1.7,nan,1,6301.078,3,0.0,same
0,380,valid,"[(1123, 792)]",[],[1],[0.55],vertical,"(890.0, 262.0)",0.6166666666666667,0.506,1,6307.283,3,0.0,same
0,381,valid,"[(1130, 791)]",[],[1],[0.85],vertical,"(890.0, 262.0)",1.1,nan,0,6312.708,0,0.0,same
0,382,valid,"[(1131, 774)]",[],[1],[0.5333333333333333],horizontal,"(890.0, 762.0)",1.5166666666666666,0.493,1,6317.612,1,0.0,same
0,383,valid,"[(1126, 803)]",[],[1],[0.55],horizontal,"(890.0, 262.0)",1.1,0.506,1,6323.582,1,0.0,same
0,384,catch,"[(1111, 793)]",[],[1],[],vertical,"(890.0, 262.0)",1.7,nan,1,6329.116,1,0.0,same
0,385,catch,"[(1126, 789)]",[],[1],[],horizontal,"(390.0, 762.0)",1.7,nan,1,6334.285,2,0.0,same
0,386,catch,"[(1127, 770)]",[],[1],[],vertical,"(390.0, 762.0)",1.7,nan,1,6340.317,2,0.0,same
0,387,valid,"[(1155, 784)]",[],[1],[0.6166666666666667],horizontal,"(890.0, 262.0)",0.8833333333333333,0.583,1,6346.117,2,0.0,same
0,388,valid,"[(1122, 805)]",[],[1],[0.7],horizontal,"(390.0, 262.0)",1.5333333333333332,0.649,1,6351.916,3,0.0,same
0,389,valid,"[(1128, 798)]",[],[1],[0.6],vertical,"(390.0, 762.0)",0.5666666666666667,0.555,1,6358.467,3,0.0,same
0,390,catch,"[(1131, 785)]",[],[1],[],horizontal,"(890.0, 262.0)",1.7,nan,1,6363.705,3,0.0,same
0,391,catch,"[(1131, 796)]",[],[1],[],vertical,"(390.0, 262.0)",1.7,nan,1,6370.132,3,0.0,same
0,392,valid,"[(1160, 771)]",[],[1],[0.55],vertical,"(890.0, 262.0)",0.48333333333333334,0.51,1,6376.017,3,0.0,same
0,393,catch,"[(1130, 788)]",[],[1],[],horizontal,"(390.0, 262.0)",1.7,nan,1,6380.93,3,0.0,same
0,394,valid,"[(1129, 789)]",[],[1],[0.6666666666666666],vertical,"(390.0, 262.0)",1.3666666666666667,0.62,1,6386.816,3,0.0,same
0,395,catch,"[(1132, 778)]",[],[1],[],horizontal,"(390.0, 262.0)",1.7,nan,1,6393.288,3,0.0,same
0,396,valid,"[(1116, 796)]",[],[1],[0.5666666666666667],horizontal,"(390.0, 262.0)",0.43333333333333335,0.519,1,6399.465,3,0.0,same
0,397,valid,"[(1131, 821)]",[],[1],[0.5333333333333333],horizontal,"(390.0, 262.0)",1.0833333333333333,0.493,1,6404.46,3,0.0,same
0,398,valid,"[(1133, 789)]",[],[1],[0.65],horizontal,"(390.0, 262.0)",0.4166666666666667,0.606,1,6410.768,3,0.0,same
0,399,valid,"[(1126, 790)]",[],[1],[0.5333333333333333],vertical,"(890.0, 262.0)",0.65,0.485,1,6415.92,3,0.0,same
0,400,catch,"[(1128, 794)]",[],[1],[],horizontal,"(390.0, 762.0)",1.7,nan,1,6421.35,3,0.0,same
0,401,valid,"[(1136, 778)]",[],[1],[0.6],vertical,"(890.0, 762.0)",0.8666666666666667,0.554,1,6427.276,3,0.0,same
0,402,catch,"[(1138, 801)]",[],[1],[],vertical,"(390.0, 262.0)",1.7,nan,1,6433.034,3,0.0,same
0,403,valid,"[(1130, 788)]",[],[1],[0.5166666666666666],horizontal,"(390.0, 262.0)",0.9833333333333333,0.47,1,6439.166,3,0.0,same
0,404,invalid_same_bar,"[(1128, 784)]",[],[1],[0.5833333333333334],vertical,"(890.0, 762.0)",0.9333333333333333,0.538,1,6444.617,3,0.0,same
0,405,catch,"[(1129, 802)]",[],[1],[],vertical,"(890.0, 262.0)",1.7,nan,1,6450.383,3,0.0,same
0,406,invalid_adjacent_other_bar,"[(1111, 773)]",[],[1],[0.55],horizontal,"(890.0, 762.0)",0.6,0.504,1,6456.632,3,0.0,other
0,407,catch,"[(1144, 789)]",[],[1],[],vertical,"(890.0, 762.0)",1.7,nan,1,6462.515,3,0.0,same
0,408,valid,"[(1160, 782)]",[],[1],[0.85],horizontal,"(390.0, 262.0)",0.35,nan,0,6468.799,0,0.0,same
0,409,catch,"[(1084, 831)]",[],[1],[],vertical,"(390.0, 262.0)",1.7,nan,1,6473.57,1,0.0,same
0,410,valid,"[(1161, 806)]",[],[1],[0.6166666666666667],vertical,"(890.0, 262.0)",0.5333333333333333,0.574,1,6481.577,1,0.0,same
0,411,valid,"[(1132, 789)]",[],[1],[0.85],horizontal,"(390.0, 762.0)",0.5,nan,0,6485.86,0,0.0,same
0,412,valid,"[(1123, 785)]",[],[1],[0.5],horizontal,"(390.0, 762.0)",1.3333333333333333,0.463,1,6490.46,1,0.0,same
0,413,catch,"[(1116, 790)]",[],[1],[],horizontal,"(890.0, 262.0)",1.7,nan,1,6495.949,1,0.0,same
0,414,catch,"[(1126, 789)]",[],[1],[],vertical,"(390.0, 762.0)",1.7,nan,1,6500.8,1,0.0,same
0,415,valid,"[(1132, 780)]",[],[1],[0.5666666666666667],vertical,"(390.0, 262.0)",0.6666666666666666,0.525,1,6506.301,2,0.0,same
0,416,valid,"[(1130, 789)]",[],[1],[0.6],horizontal,"(890.0, 262.0)",1.3166666666666667,0.558,1,6511.583,2,0.0,same
0,417,valid,"[(1116, 787)]",[],[1],[0.55],vertical,"(390.0, 762.0)",1.4166666666666667,0.516,1,6517.15,2,0.0,same
0,418,invalid_same_bar,"[(1160, 785)]",[],[1],[0.65],horizontal,"(390.0, 762.0)",1.2666666666666666,0.605,1,6522.988,3,0.0,same
0,419,valid,"[(1142, 783)]",[],[1],[0.6],vertical,"(390.0, 262.0)",0.5,0.557,1,6529.236,3,0.0,same
0,420,catch,"[(1160, 770)]",[],[1],[],vertical,"(390.0, 262.0)",1.7,nan,1,6534.533,3,0.0,same
0,421,invalid_adjacent_other_bar,"[(1156, 793)]",[],[1],[0.55],horizontal,"(390.0, 762.0)",0.9833333333333333,0.505,1,6540.765,3,0.0,other
0,422,valid,"[(1159, 789)]",[],[1],[0.5833333333333334],vertical,"(390.0, 262.0)",0.7166666666666667,0.534,1,6546.987,3,0.0,same
0,423,valid,"[(1067, 772)]",[],[1],[0.85],vertical,"(390.0, 262.0)",0.3833333333333333,nan,0,6552.684,0,0.0,same
0,424,catch,"[(1122, 788)]",[],[1],[],vertical,"(890.0, 262.0)",1.7,nan,1,6556.785,1,0.0,same
0,425,valid,"[(1126, 886)]","[(1125, 895)]",[1],[0.6833333333333333],vertical,"(390.0, 762.0)",,"('bar', 0.686)",0,6561.8,0,0.0,same
0,426,valid,"[(1087, 804)]",[],[1],[0.6333333333333333],vertical,"(390.0, 262.0)",1.2333333333333334,0.59,1,6564.802,1,0.0,same
0,427,valid,"[(1141, 781)]",[],[1],[0.7333333333333333],horizontal,"(890.0, 762.0)",1.05,0.687,1,6570.133,1,0.0,same
0,428,valid,"[(1091, 791)]",[],[1],[0.5666666666666667],horizontal,"(890.0, 762.0)",0.6,0.523,1,6575.351,1,0.0,same
0,429,valid,"[(1155, 768)]",[],[1],[0.5166666666666666],horizontal,"(890.0, 762.0)",1.3833333333333333,0.471,1,6580.29,2,0.0,same
0,430,valid,"[(1131, 771)]",[],[1],[0.6333333333333333],horizontal,"(890.0, 262.0)",0.5166666666666666,0.594,1,6586.547,2,0.0,same
0,431,catch,"[(1129, 769)]",[],[1],[],horizontal,"(390.0, 262.0)",1.7,nan,1,6591.805,2,0.0,same
0,432,catch,"[(1134, 777)]",[],[1],[],vertical,"(390.0, 762.0)",1.7,nan,1,6597.7,3,0.0,same
0,433,valid,"[(1126, 800)]",[],[1],[0.55],vertical,"(390.0, 262.0)",0.9833333333333333,0.504,1,6603.485,3,0.0,same
0,434,valid,"[(1126, 773)]",[],[1],[0.55],vertical,"(890.0, 762.0)",1.0333333333333332,0.509,1,6609.385,3,0.0,same
0,435,catch,"[(1131, 789)]",[],[1],[],horizontal,"(390.0, 762.0)",1.7,nan,1,6615.492,3,0.0,same
0,436,valid,"[(1119, 794)]",[],[1],[0.55],vertical,"(890.0, 262.0)",0.95,0.504,1,6621.33,3,0.0,same
0,437,valid,"[(1126, 799)]",[],[1],[0.5],vertical,"(390.0, 262.0)",1.2666666666666666,0.462,1,6627.85,3,0.0,same
0,438,valid,"[(1124, 785)]",[],[1],[0.5333333333333333],vertical,"(390.0, 262.0)",0.7166666666666667,0.487,1,6633.906,3,0.0,same
0,439,invalid_adjacent_other_bar,"[(1130, 769)]",[],[1],[0.15],vertical,"(890.0, 262.0)",1.5333333333333332,0.116,0,6639.317,0,0.0,other
0,440,invalid_same_bar,"[(1067, 822)]",[],[1],[0.55],vertical,"(390.0, 762.0)",1.2666666666666666,0.513,1,6644.45,1,0.0,same
0,441,invalid_adjacent_other_bar,"[(1124, 798)]",[],[1],[0.5166666666666666],vertical,"(890.0, 262.0)",0.7166666666666667,0.477,1,6659.954,1,0.0,other
0,442,valid,"[(1150, 802)]",[],[1],[0.6333333333333333],horizontal,"(390.0, 262.0)",0.65,0.59,1,6664.649,1,0.0,same
0,443,valid,"[(1136, 803)]",[],[1],[0.5],horizontal,"(390.0, 762.0)",1.0333333333333332,0.456,1,6669.432,2,0.0,same
0,444,valid,"[(1126, 795)]",[],[1],[0.6666666666666666],horizontal,"(890.0, 762.0)",1.2,0.628,1,6675.207,2,0.0,same
0,445,valid,"[(1116, 788)]",[],[1],[0.6],vertical,"(390.0, 762.0)",1.4666666666666666,0.56,1,6680.667,2,0.0,same
0,446,valid,"[(1111, 799)]",[],[1],[0.55],horizontal,"(390.0, 762.0)",1.5333333333333332,0.506,1,6686.433,3,0.0,same
0,447,valid,"[(1126, 793)]",[],[1],[0.5166666666666666],horizontal,"(390.0, 262.0)",1.45,0.477,1,6692.684,3,0.0,same
0,448,valid,"[(1128, 772)]",[],[1],[0.85],vertical,"(390.0, 762.0)",1.0166666666666666,nan,0,6699.252,0,0.0,same
0,449,catch,"[(1112, 781)]",[],[1],[],vertical,"(890.0, 762.0)",1.7,nan,1,6704.167,1,0.0,same
0,450,valid,"[(1129, 782)]",[],[1],[0.5333333333333333],horizontal,"(390.0, 262.0)",1.3166666666666667,0.495,1,6709.133,1,0.0,same
0,451,catch,"[(1111, 795)]",[],[1],[],vertical,"(890.0, 762.0)",1.7,nan,1,6714.784,1,0.0,same
0,452,valid,"[(1116, 782)]",[],[1],[0.6166666666666667],vertical,"(390.0, 762.0)",0.9333333333333333,0.573,1,6720.085,2,0.0,same
0,453,valid,"[(1146, 769)]",[],[1],[0.5833333333333334],vertical,"(890.0, 262.0)",1.0166666666666666,0.539,1,6725.714,2,0.0,same
0,454,valid,"[(1085, 798)]",[],[1],[0.85],horizontal,"(890.0, 762.0)",1.2833333333333332,nan,0,6731.05,0,0.0,same
0,455,valid,"[(1116, 790)]",[],[1],[0.85],horizontal,"(390.0, 262.0)",0.48333333333333334,nan,0,6736.124,0,0.0,same
0,456,valid,"[(1146, 890)]",[],[1],[0.5166666666666666],vertical,"(890.0, 262.0)",1.4833333333333334,0.469,1,6740.226,1,0.0,same
0,457,catch,"[(1147, 813)]",[],[1],[],horizontal,"(890.0, 262.0)",1.7,nan,1,9267.619,1,0.0,same
0,458,valid,"[(1131, 832)]",[],[1],[0.5833333333333334],vertical,"(390.0, 262.0)",1.5166666666666666,0.541,1,9272.659,1,0.0,same
0,459,valid,"[(1124, 802)]",[],[1],[0.5166666666666666],horizontal,"(890.0, 762.0)",1.1166666666666667,0.489,1,9278.423,2,0.0,same
0,460,valid,"[(1130, 803)]",[],[1],[0.4],horizontal,"(890.0, 762.0)",1.3,0.358,1,9284.582,2,0.0,same
0,461,valid,"[(1162, 792)]",[],[1],[0.5166666666666666],vertical,"(390.0, 762.0)",0.7333333333333333,0.479,1,9290.277,2,0.0,same
0,462,valid,"[(1131, 779)]",[],[1],[0.5],horizontal,"(390.0, 262.0)",0.8166666666666667,0.457,1,9295.261,3,0.0,same
0,463,valid,"[(1165, 796)]",[],[1],[0.7166666666666667],horizontal,"(890.0, 762.0)",1.15,0.668,1,9301.128,3,0.0,same
0,464,valid,"[(1136, 778)]",[],[1],[0.5333333333333333],vertical,"(390.0, 262.0)",0.7333333333333333,0.493,1,9307.011,3,0.0,same
0,465,invalid_adjacent_other_bar,"[(1128, 794)]",[],[1],[0.6666666666666666],horizontal,"(390.0, 262.0)",0.8666666666666667,0.629,1,9312.623,3,0.0,other
0,466,valid,"[(1134, 790)]",[],[1],[0.6],horizontal,"(390.0, 262.0)",0.36666666666666664,0.557,1,9318.666,3,0.0,same
0,467,invalid_same_bar,"[(1165, 791)]",[],[1],[0.5666666666666667],horizontal,"(890.0, 762.0)",1.2833333333333332,0.522,1,9324.061,3,0.0,same
0,468,catch,"[(1142, 795)]",[],[1],[],vertical,"(890.0, 762.0)",1.7,nan,1,9330.159,3,0.0,same
0,469,catch,"[(1161, 803)]",[],[1],[],vertical,"(890.0, 262.0)",1.7,nan,1,9336.077,3,0.0,same
0,470,valid,"[(1129, 770)]",[],[1],[0.7166666666666667],vertical,"(390.0, 762.0)",1.35,0.668,1,9342.41,3,0.0,same
0,471,invalid_same_bar,"[(1164, 792)]",[],[1],[0.85],vertical,"(890.0, 762.0)",1.0333333333333332,nan,0,9348.567,0,0.0,same
0,472,valid,"[(1115, 773)]",[],[1],[0.5666666666666667],vertical,"(890.0, 262.0)",1.4333333333333333,0.524,1,9353.56,1,0.0,same
0,473,valid,"[(1132, 769)]",[],[1],[0.5333333333333333],vertical,"(890.0, 762.0)",1.2333333333333334,0.491,1,9359.326,1,0.0,same
0,474,catch,"[(1116, 789)]",[],[1],[],horizontal,"(890.0, 762.0)",1.7,nan,1,9364.294,1,0.0,same
0,475,valid,"[(1069, 842)]",[],[1],[0.6166666666666667],vertical,"(390.0, 262.0)",0.5833333333333334,0.576,1,9369.347,2,0.0,same
0,476,invalid_same_bar,"[(1165, 787)]",[],[1],[0.55],horizontal,"(890.0, 762.0)",1.2,0.503,1,9374.706,2,0.0,same
0,477,valid,"[(1151, 791)]",[],[1],[0.6166666666666667],horizontal,"(390.0, 762.0)",1.0333333333333332,0.572,1,9380.393,2,0.0,same
0,478,invalid_adjacent_other_bar,"[(1132, 779)]",[],[1],[0.55],horizontal,"(390.0, 762.0)",0.5333333333333333,0.504,1,9385.86,3,0.0,other
0,479,valid,"[(1131, 759)]",[],[1],[0.5333333333333333],vertical,"(890.0, 262.0)",0.9833333333333333,0.496,1,9392.031,3,0.0,same
0,480,valid,"[(1160, 787)]",[],[1],[0.5],horizontal,"(890.0, 762.0)",0.9666666666666667,0.46,1,9397.817,3,0.0,same
0,481,valid,"[(1136, 793)]",[],[1],[0.7333333333333333],vertical,"(890.0, 262.0)",0.9333333333333333,0.687,1,9403.556,3,0.0,same
0,482,invalid_same_bar,"[(1135, 770)]",[],[1],[0.5],horizontal,"(890.0, 262.0)",0.6833333333333333,0.457,1,9409.72,3,0.0,same
0,483,valid,"[(1132, 778)]",[],[1],[0.5666666666666667],horizontal,"(390.0, 762.0)",1.5333333333333332,0.522,1,9415.289,3,0.0,same
0,484,valid,"[(1125, 794)]",[],[1],[0.5666666666666667],vertical,"(890.0, 762.0)",0.4666666666666667,0.524,1,9421.477,3,0.0,same
0,485,valid,"[(1116, 780)]",[],[1],[0.5],vertical,"(890.0, 762.0)",0.85,0.461,1,9426.843,3,0.0,same
0,486,valid,"[(1135, 801)]",[],[1],[0.5833333333333334],horizontal,"(890.0, 762.0)",0.6833333333333333,0.535,1,9432.743,3,0.0,same
0,487,valid,"[(1163, 795)]",[],[1],[0.55],horizontal,"(890.0, 262.0)",1.1666666666666667,0.515,1,9438.48,3,0.0,same
0,488,valid,"[(1140, 770)]",[],[1],[0.65],vertical,"(890.0, 762.0)",1.2666666666666666,0.606,1,9445.035,3,0.0,same
0,489,valid,"[(1158, 785)]",[],[1],[0.6166666666666667],horizontal,"(390.0, 762.0)",1.1333333333333333,0.572,1,9451.194,3,0.0,same
0,490,valid,"[(1135, 808)]",[],[1],[0.5333333333333333],horizontal,"(890.0, 762.0)",0.9666666666666667,0.493,1,9457.145,3,0.0,same
0,491,valid,"[(1165, 776)]",[],[1],[0.55],horizontal,"(390.0, 762.0)",0.9,0.509,1,9463.109,3,0.0,same
0,492,valid,"[(1163, 773)]",[],[1],[0.6],vertical,"(890.0, 762.0)",0.4,0.555,1,9468.61,3,0.0,same
0,493,valid,"[(1129, 791)]",[],[1],[0.55],vertical,"(390.0, 262.0)",0.6166666666666667,0.512,1,9473.928,3,0.0,same
0,494,catch,"[(1128, 778)]",[],[1],[],vertical,"(390.0, 762.0)",1.7,nan,1,9479.343,3,0.0,same
0,495,valid,"[(1128, 770)]",[],[1],[0.5166666666666666],horizontal,"(890.0, 762.0)",1.05,0.479,1,9485.243,3,0.0,same
0,496,invalid_adjacent_other_bar,"[(1111, 794)]",[],[1],[0.5166666666666666],vertical,"(390.0, 762.0)",0.8666666666666667,0.471,1,9490.843,3,0.0,other
0,497,catch,"[(1136, 799)]",[],[1],[],vertical,"(890.0, 262.0)",1.7,nan,1,9496.477,3,0.0,same
0,498,valid,"[(1160, 784)]",[],[1],[0.48333333333333334],horizontal,"(890.0, 262.0)",1.3166666666666667,0.452,1,9502.295,3,0.0,same
0,499,valid,"[(1166, 779)]",[],[1],[0.5333333333333333],vertical,"(390.0, 762.0)",0.36666666666666664,0.492,1,9508.605,3,0.0,same
0,500,valid,"[(1160, 788)]",[],[1],[0.5833333333333334],horizontal,"(890.0, 762.0)",1.0,0.54,1,9513.978,3,0.0,same
0,501,invalid_same_bar,"[(1136, 793)]",[],[1],[0.85],horizontal,"(390.0, 762.0)",0.7333333333333333,nan,0,9520.027,0,0.0,same
0,502,valid,"[(1116, 786)]",[],[1],[0.5],vertical,"(390.0, 762.0)",1.3333333333333333,0.459,1,9524.407,1,0.0,same
0,503,valid,"[(1132, 769)]",[],[1],[0.5666666666666667],vertical,"(890.0, 262.0)",0.65,0.525,1,9529.677,1,0.0,same
0,504,invalid_adjacent_other_bar,"[(1086, 800)]",[],[1],[0.85],horizontal,"(390.0, 262.0)",1.4166666666666667,nan,0,9534.144,0,0.0,other
0,505,valid,"[(1088, 790)]",[],[1],[0.5333333333333333],horizontal,"(390.0, 762.0)",1.25,0.492,1,9539.244,1,0.0,same
0,506,valid,"[(1131, 783)]",[],[1],[0.5166666666666666],vertical,"(390.0, 262.0)",1.3166666666666667,0.472,1,9544.343,1,0.0,same
0,507,invalid_same_bar,"[(1148, 751), (1085, 794)]",[],"[0, 1]",[0.85],horizontal,"(390.0, 262.0)",0.5166666666666666,nan,0,9549.761,0,0.0,same
0,508,valid,"[(1116, 785)]",[],[1],[0.55],vertical,"(890.0, 762.0)",0.7666666666666666,0.505,1,9555.443,1,0.0,same
0,509,valid,"[(1151, 787)]",[],[1],[0.85],vertical,"(390.0, 262.0)",1.0166666666666666,nan,0,9560.393,0,0.0,same
0,510,valid,"[(1134, 782)]",[],[1],[0.5],vertical,"(890.0, 762.0)",1.3333333333333333,0.462,1,9565.528,1,0.0,same
0,511,catch,"[(1160, 793)]",[],[1],[],vertical,"(390.0, 262.0)",1.7,nan,1,9570.591,1,0.0,same
0,512,valid,"[(1133, 769)]",[],[1],[0.85],vertical,"(390.0, 262.0)",1.5,nan,0,9575.607,0,0.0,same
0,513,valid,"[(1116, 783)]",[],[1],[0.55],vertical,"(390.0, 762.0)",0.5166666666666666,0.512,1,9581.069,1,0.0,same
0,514,valid,"[(1141, 789)]",[],[1],[0.5166666666666666],horizontal,"(390.0, 262.0)",1.4166666666666667,0.486,1,9585.51,1,0.0,same
0,515,valid,"[(1136, 778)]",[],[1],[0.48333333333333334],vertical,"(890.0, 762.0)",0.55,0.443,1,9591.094,1,0.0,same
0,516,invalid_adjacent_other_bar,"[(1158, 787)]",[],[1],[0.55],horizontal,"(890.0, 262.0)",0.95,0.51,1,9596.144,2,0.0,other
0,517,valid,"[(1134, 750), (1119, 797)]",[],"[0, 1]",[0.5166666666666666],vertical,"(390.0, 762.0)",1.5,0.475,1,9601.711,2,0.0,same
0,518,valid,"[(1129, 800)]",[],[1],[0.6833333333333333],horizontal,"(390.0, 762.0)",1.3333333333333333,0.637,1,9609.344,2,0.0,same
0,519,invalid_same_bar,"[(1161, 796)]",[],[1],[0.5333333333333333],vertical,"(890.0, 762.0)",0.9166666666666666,0.489,1,9615.428,3,0.0,same
0,520,valid,"[(1151, 786)]",[],[1],[0.55],horizontal,"(890.0, 762.0)",0.7166666666666667,0.51,1,9621.079,3,0.0,same
0,521,invalid_adjacent_other_bar,"[(1160, 770)]",[],[1],[0.55],horizontal,"(390.0, 762.0)",0.5666666666666667,0.505,1,9626.627,3,0.0,other
0,522,valid,"[(1175, 799)]",[],[1],[0.6333333333333333],horizontal,"(390.0, 762.0)",0.7166666666666667,0.592,1,9632.456,3,0.0,same
0,523,valid,"[(1148, 784)]",[],[1],[0.6166666666666667],horizontal,"(890.0, 762.0)",0.8833333333333333,0.575,1,9638.087,3,0.0,same
0,524,catch,"[(1151, 783)]",[],[1],[],vertical,"(890.0, 762.0)",1.7,nan,1,9643.897,3,0.0,same
0,525,catch,"[(1143, 788)]",[],[1],[],horizontal,"(890.0, 262.0)",1.7,nan,1,9650.187,3,0.0,same
0,526,valid,"[(1140, 802)]",[],[1],[0.65],horizontal,"(390.0, 762.0)",0.5833333333333334,0.607,1,9656.109,3,0.0,same
0,527,valid,"[(1136, 789)]",[],[1],[0.5333333333333333],horizontal,"(390.0, 762.0)",0.8666666666666667,0.492,1,9661.566,3,0.0,same
0,528,catch,"[(1130, 778)]",[],[1],[],vertical,"(890.0, 762.0)",1.7,nan,1,9667.227,3,0.0,same
0,529,valid,"[(1160, 800)]",[],[1],[0.5],horizontal,"(890.0, 262.0)",1.5166666666666666,0.455,1,9672.918,3,0.0,same
0,530,valid,"[(1126, 782)]",[],[1],[0.5],horizontal,"(390.0, 262.0)",0.9333333333333333,0.455,1,9679.265,3,0.0,same
0,531,valid,"[(1136, 778)]",[],[1],[0.5166666666666666],horizontal,"(390.0, 262.0)",1.5,0.48,1,9684.926,3,0.0,same
0,532,valid,"[(1139, 787)]",[],[1],[0.6333333333333333],vertical,"(890.0, 262.0)",0.7666666666666666,0.589,1,9691.371,3,0.0,same
0,533,valid,"[(1151, 770)]",[],[1],[0.5],horizontal,"(390.0, 262.0)",1.4833333333333334,0.458,1,9696.94,3,0.0,same
0,534,valid,"[(1130, 769)]",[],[1],[0.5166666666666666],horizontal,"(890.0, 262.0)",0.9333333333333333,0.47,1,9702.978,3,0.0,same
0,535,valid,"[(1165, 780)]",[],[1],[0.6333333333333333],vertical,"(890.0, 762.0)",1.3333333333333333,0.591,1,9708.765,3,0.0,same
0,536,valid,"[(1111, 800)]",[],[1],[0.55],horizontal,"(890.0, 762.0)",0.9666666666666667,0.509,1,9714.611,3,0.0,same
0,537,catch,"[(1141, 789)]",[],[1],[],horizontal,"(890.0, 262.0)",1.7,nan,1,9720.606,3,0.0,same
0,538,valid,"[(1160, 788)]",[],[1],[0.5],horizontal,"(890.0, 262.0)",1.0833333333333333,0.462,1,9726.521,3,0.0,same
0,539,valid,"[(1133, 778)]",[],[1],[0.55],horizontal,"(390.0, 762.0)",0.45,0.507,1,9732.143,3,0.0,same
0,540,catch,"[(1160, 789)]",[],[1],[],vertical,"(390.0, 762.0)",1.7,nan,1,9737.411,3,0.0,same
0,541,catch,"[(1136, 793)]",[],[1],[],vertical,"(390.0, 262.0)",1.7,nan,1,9743.062,3,0.0,same
0,542,valid,"[(1141, 779)]",[],[1],[0.5333333333333333],horizontal,"(390.0, 262.0)",1.25,0.497,1,9749.197,3,0.0,same
0,543,catch,"[(1162, 808)]",[],[1],[],horizontal,"(890.0, 762.0)",1.7,nan,1,9755.245,3,0.0,same
0,544,catch,"[(1138, 795)]",[],[1],[],horizontal,"(390.0, 762.0)",1.7,nan,1,9761.201,3,0.0,same
0,545,invalid_same_bar,"[(1095, 813)]",[],[1],[0.55],horizontal,"(890.0, 262.0)",1.1,0.506,1,9766.994,3,0.0,same
0,546,catch,"[(1140, 796)]",[],[1],[],horizontal,"(890.0, 762.0)",1.7,nan,1,9773.078,3,0.0,same
0,547,valid,"[(1136, 789)]",[],[1],[0.5666666666666667],horizontal,"(390.0, 762.0)",1.2833333333333332,0.528,1,9779.401,3,0.0,same
0,548,valid,"[(1107, 789)]",[],[1],[0.85],horizontal,"(390.0, 262.0)",0.43333333333333335,nan,0,9785.84,0,0.0,same
0,549,valid,"[(1088, 790)]",[],[1],[0.48333333333333334],horizontal,"(890.0, 262.0)",1.3166666666666667,0.44,1,9790.161,1,0.0,same
0,550,valid,"[(1129, 786)]",[],[1],[0.85],horizontal,"(890.0, 762.0)",0.6666666666666666,nan,0,9795.71,0,0.0,same
0,551,valid,"[(1126, 796)]",[],[1],[0.5333333333333333],horizontal,"(390.0, 762.0)",0.6666666666666666,0.489,1,9800.411,1,0.0,same
0,552,catch,"[(1144, 783)]",[],[1],[],vertical,"(890.0, 762.0)",1.7,nan,1,9805.394,1,0.0,same
0,553,valid,"[(1153, 774)]",[],[1],[0.5666666666666667],vertical,"(890.0, 262.0)",1.2833333333333332,0.523,1,9810.612,1,0.0,same
0,554,invalid_same_bar,"[(1117, 794)]",[],[1],[0.5166666666666666],vertical,"(890.0, 262.0)",1.35,0.472,1,9816.046,2,0.0,same
0,555,valid,"[(1128, 793)]",[],[1],[0.55],vertical,"(890.0, 762.0)",1.1666666666666667,0.507,1,9822.294,2,0.0,same
0,556,catch,"[(1151, 792)]",[],[1],[],horizontal,"(390.0, 262.0)",1.7,nan,1,9827.711,2,0.0,same
0,557,valid,"[(1131, 788)]",[],[1],[0.5166666666666666],vertical,"(390.0, 762.0)",0.45,0.475,1,9833.638,3,0.0,same
0,558,valid,"[(1131, 777)]",[],[1],[0.6333333333333333],horizontal,"(890.0, 262.0)",0.43333333333333335,0.586,1,9839.578,3,0.0,same
0,559,valid,"[(1148, 791)]",[],[1],[0.5333333333333333],vertical,"(890.0, 262.0)",0.7833333333333333,0.493,1,9845.061,3,0.0,same
0,560,valid,"[(1131, 779)]",[],[1],[0.55],horizontal,"(390.0, 762.0)",1.3666666666666667,0.509,1,9850.85,3,0.0,same
0,561,valid,"[(1151, 777)]",[],[1],[0.65],vertical,"(390.0, 762.0)",0.75,0.601,1,9857.315,3,0.0,same
0,562,invalid_same_bar,"[(1159, 799)]",[],[1],[0.85],vertical,"(390.0, 262.0)",1.1666666666666667,nan,0,9862.783,0,0.0,same
0,563,valid,"[(1111, 774)]",[],[1],[0.5166666666666666],vertical,"(890.0, 762.0)",1.0666666666666667,0.472,1,9867.945,1,0.0,same
0,564,valid,"[(1131, 817)]",[],[1],[0.5333333333333333],vertical,"(890.0, 262.0)",0.5833333333333334,0.493,1,9873.277,1,0.0,same
0,565,valid,"[(1131, 769)]",[],[1],[0.55],vertical,"(390.0, 762.0)",1.0833333333333333,0.512,1,9877.801,1,0.0,same
0,566,valid,"[(1139, 770)]",[],[1],[0.55],vertical,"(390.0, 762.0)",0.5166666666666666,0.504,1,9883.295,2,0.0,same
0,567,catch,"[(1140, 779)]",[],[1],[],vertical,"(390.0, 762.0)",1.7,nan,1,9888.195,2,0.0,same
0,568,valid,"[(1121, 795)]",[],[1],[0.5166666666666666],horizontal,"(390.0, 262.0)",0.5666666666666667,0.481,1,9893.746,2,0.0,same
0,569,valid,"[(1139, 783)]",[],[1],[0.85],vertical,"(890.0, 762.0)",0.6666666666666666,nan,0,9899.062,0,0.0,same
0,570,valid,"[(1121, 794)]",[],[1],[0.85],horizontal,"(390.0, 762.0)",0.48333333333333334,nan,0,9903.67,0,0.0,same
0,571,valid,"[(1082, 830)]",[],[1],[0.5],horizontal,"(890.0, 762.0)",1.1333333333333333,0.454,1,9907.695,1,0.0,same
0,572,valid,"[(1117, 793)]",[],[1],[0.48333333333333334],horizontal,"(390.0, 262.0)",1.2333333333333334,0.444,1,9941.388,1,0.0,same
0,573,valid,"[(1136, 803)]",[],[1],[0.65],vertical,"(390.0, 762.0)",0.7,0.612,1,9946.96,1,0.0,same
0,574,catch,"[(1132, 770)]",[],[1],[],vertical,"(390.0, 762.0)",1.7,nan,1,9952.179,2,0.0,same
0,575,invalid_same_bar,"[(1160, 777)]",[],[1],[0.5333333333333333],horizontal,"(390.0, 762.0)",0.8,0.497,1,9958.246,2,0.0,same
0,576,valid,"[(1138, 783)]",[],[1],[0.6166666666666667],vertical,"(390.0, 262.0)",1.05,0.567,1,9963.328,2,0.0,same
0,577,catch,"[(1125, 780)]",[],[1],[],vertical,"(390.0, 262.0)",1.7,nan,1,9969.029,3,0.0,same
0,578,valid,"[(1126, 786)]",[],[1],[0.5333333333333333],horizontal,"(890.0, 762.0)",1.1,0.496,1,9975.629,3,0.0,same
0,579,valid,"[(1138, 789)]",[],[1],[0.6333333333333333],vertical,"(390.0, 762.0)",0.4,0.59,1,9981.177,3,0.0,same
0,580,valid,"[(1129, 782)]",[],[1],[0.6333333333333333],vertical,"(390.0, 262.0)",0.9333333333333333,0.591,1,9986.628,3,0.0,same
0,581,valid,"[(1071, 824)]",[],[1],[0.5333333333333333],vertical,"(890.0, 262.0)",0.8666666666666667,0.493,1,9992.635,3,0.0,same
0,582,valid,"[(1131, 771)]",[],[1],[0.5333333333333333],horizontal,"(390.0, 762.0)",1.2166666666666666,0.492,1,9998.378,3,0.0,same
0,583,valid,"[(1134, 786)]",[],[1],[0.5333333333333333],vertical,"(390.0, 262.0)",1.1333333333333333,0.494,1,10003.943,3,0.0,same
0,584,catch,"[(1131, 784)]",[],[1],[],vertical,"(390.0, 762.0)",1.7,nan,1,10009.745,3,0.0,same
0,585,catch,"[(1157, 784)]",[],[1],[],vertical,"(890.0, 762.0)",1.7,nan,1,10016.329,3,0.0,same
0,586,catch,"[(1154, 778)]",[],[1],[],vertical,"(890.0, 262.0)",1.7,nan,1,10022.386,3,0.0,same
0,587,valid,"[(1146, 788)]",[],[1],[0.6],horizontal,"(390.0, 762.0)",1.0166666666666666,0.554,1,10028.679,3,0.0,same
0,588,catch,"[(1126, 778)]",[],[1],[],vertical,"(390.0, 262.0)",1.7,nan,1,10035.01,3,0.0,same
0,589,valid,"[(1136, 793)]",[],[1],[0.55],horizontal,"(890.0, 762.0)",0.7166666666666667,0.513,1,10040.946,3,0.0,same
0,590,catch,"[(1155, 795)]",[],[1],[],horizontal,"(390.0, 762.0)",1.7,nan,1,10046.595,3,0.0,same
0,591,valid,"[(1143, 804)]",[],[1],[0.5666666666666667],vertical,"(890.0, 262.0)",1.1333333333333333,0.521,1,10052.313,3,0.0,same
0,592,valid,"[(1133, 781)]",[],[1],[0.48333333333333334],vertical,"(890.0, 762.0)",1.3833333333333333,0.451,1,10057.913,3,0.0,same
0,593,valid,"[(1126, 799)]",[],[1],[0.5166666666666666],horizontal,"(390.0, 762.0)",0.36666666666666664,0.476,1,10064.312,3,0.0,same
0,594,valid,"[(1142, 787)]",[],[1],[0.85],vertical,"(390.0, 262.0)",1.4166666666666667,nan,0,10069.796,0,0.0,same
0,595,valid,"[(1122, 778)]",[],[1],[0.65],horizontal,"(390.0, 262.0)",1.1666666666666667,0.608,1,10074.681,1,0.0,same
0,596,catch,"[(1131, 793)]",[],[1],[],vertical,"(390.0, 262.0)",1.7,nan,1,10079.861,1,0.0,same
0,597,catch,"[(1146, 793)]",[],[1],[],vertical,"(390.0, 762.0)",1.7,nan,1,10085.198,1,0.0,same
0,598,valid,"[(1126, 779)]",[],[1],[0.6166666666666667],vertical,"(890.0, 762.0)",0.9333333333333333,0.574,1,10090.612,2,0.0,same
0,599,catch,"[(1114, 825)]",[],[1],[],vertical,"(890.0, 762.0)",1.7,nan,1,10096.056,2,0.0,same
0,600,valid,"[(1105, 887)]",[],[1],[0.6333333333333333],vertical,"(390.0, 262.0)",1.1,0.594,1,10101.925,2,0.0,same
0,601,valid,"[(1135, 803)]",[],[1],[0.75],horizontal,"(390.0, 762.0)",1.2333333333333334,0.706,1,10438.014,3,0.0,same
0,602,catch,"[(1156, 808)]",[],[1],[],vertical,"(890.0, 262.0)",1.7,nan,1,10444.096,3,0.0,same
0,603,valid,"[(1084, 823)]",[],[1],[0.5666666666666667],vertical,"(890.0, 762.0)",0.8,0.518,1,10450.197,3,0.0,same
0,604,catch,"[(1132, 808)]",[],[1],[],horizontal,"(390.0, 762.0)",1.7,nan,1,10456.163,3,0.0,same
0,605,valid,"[(1155, 808)]",[],[1],[0.5666666666666667],vertical,"(390.0, 262.0)",0.9333333333333333,0.53,1,10462.098,3,0.0,same
0,606,catch,"[(1170, 811)]",[],[1],[],vertical,"(390.0, 762.0)",1.7,nan,1,10467.778,3,0.0,same
0,607,valid,"[(1147, 809)]",[],[1],[0.5333333333333333],vertical,"(890.0, 262.0)",0.9333333333333333,0.491,1,10473.448,3,0.0,same
0,608,valid,"[(1160, 757)]",[],[1],[0.85],horizontal,"(390.0, 262.0)",1.2833333333333332,nan,0,10478.963,0,0.0,same
0,609,valid,"[(1081, 811)]",[],[1],[0.5833333333333334],horizontal,"(390.0, 262.0)",0.7,0.543,1,10483.93,1,0.0,same
0,610,valid,"[(1184, 819)]",[],[1],[0.2833333333333333],vertical,"(390.0, 762.0)",1.4333333333333333,0.249,1,10488.504,1,0.0,same
0,611,valid,"[(1141, 805)]",[],[1],[],horizontal,"(390.0, 762.0)",,"('cti', 1.148)",0,10493.581,0,0.0,same
0,612,valid,"[(1107, 803)]",[],[1],[0.4666666666666667],horizontal,"(890.0, 262.0)",1.2333333333333334,0.434,1,10498.098,1,0.0,same
0,613,valid,"[(1151, 798)]",[],[1],[0.4666666666666667],horizontal,"(890.0, 262.0)",0.5666666666666667,0.424,1,10504.721,1,0.0,same
0,614,valid,"[(1158, 803)]",[],[1],[0.5666666666666667],vertical,"(890.0, 262.0)",0.9333333333333333,0.523,1,10509.346,1,0.0,same
0,615,valid,"[(1140, 789)]",[],[1],[0.6166666666666667],vertical,"(390.0, 262.0)",1.4,0.575,1,10514.08,2,0.0,same
0,616,valid,"[(1159, 803)]",[],[1],[0.5166666666666666],horizontal,"(890.0, 762.0)",0.8333333333333334,0.483,1,10520.164,2,0.0,same
0,617,catch,"[(1148, 825)]",[],[1],[],horizontal,"(390.0, 762.0)",1.7,nan,1,10525.526,2,0.0,same
0,618,valid,"[(1151, 807)]",[],[1],[0.4666666666666667],horizontal,"(390.0, 262.0)",0.8666666666666667,0.428,1,10531.429,3,0.0,same
0,619,valid,"[(1171, 806)]",[],[1],[0.85],vertical,"(390.0, 762.0)",0.5333333333333333,nan,0,10537.048,0,0.0,same
0,620,valid,"[(1150, 803)]",[],[1],[0.45],vertical,"(390.0, 262.0)",1.1833333333333333,0.416,1,10541.741,1,0.0,same
0,621,valid,"[(1155, 822)]",[],[1],[0.5166666666666666],vertical,"(390.0, 762.0)",1.0166666666666666,0.476,1,10547.068,1,0.0,same
0,622,catch,"[(1163, 779)]",[],[1],[],horizontal,"(390.0, 262.0)",1.7,nan,1,10552.147,1,0.0,same
0,623,valid,"[(1161, 793)]",[],[1],[0.55],vertical,"(890.0, 262.0)",1.0,0.509,1,10556.904,2,0.0,same
0,624,valid,"[(1120, 798)]",[],[1],[0.5666666666666667],horizontal,"(890.0, 762.0)",1.1166666666666667,0.522,1,10562.634,2,0.0,same
0,625,valid,"[(1170, 779)]",[],[1],[0.5166666666666666],horizontal,"(390.0, 262.0)",0.75,0.478,1,10568.743,2,0.0,same
0,626,valid,"[(1160, 791)]",[],[1],[0.5166666666666666],vertical,"(890.0, 262.0)",1.2166666666666666,0.473,1,10574.115,3,0.0,same
0,627,valid,"[(1156, 783)]",[],[1],[0.5],horizontal,"(890.0, 262.0)",0.8666666666666667,0.46,1,10580.083,3,0.0,same
0,628,valid,"[(1164, 803)]",[],[1],[0.6333333333333333],vertical,"(890.0, 762.0)",1.0,0.587,1,10585.825,3,0.0,same
0,629,catch,"[(1161, 798)]",[],[1],[],horizontal,"(890.0, 262.0)",1.7,nan,1,10592.183,3,0.0,same
0,630,invalid_same_bar,"[(1170, 808)]",[],[1],[0.5833333333333334],vertical,"(890.0, 262.0)",1.35,0.539,1,10598.024,3,0.0,same
0,631,valid,"[(1141, 823)]",[],[1],[0.5166666666666666],vertical,"(890.0, 262.0)",0.48333333333333334,0.472,1,10604.051,3,0.0,same
0,632,valid,"[(1159, 808)]",[],[1],[0.85],vertical,"(390.0, 762.0)",1.25,nan,0,10609.691,0,0.0,same
0,633,valid,"[(1130, 809)]",[],[1],[0.85],horizontal,"(390.0, 762.0)",0.55,nan,0,10614.57,0,0.0,same
0,634,valid,"[(1145, 803)]",[],[1],[0.5833333333333334],horizontal,"(890.0, 262.0)",0.4,0.539,1,10618.648,1,0.0,same
0,635,valid,"[(1160, 794)]",[],[1],[0.48333333333333334],vertical,"(390.0, 262.0)",0.36666666666666664,0.44,1,10623.073,1,0.0,same
0,636,catch,"[(1150, 807)]",[],[1],[],vertical,"(890.0, 762.0)",1.7,nan,1,10627.258,1,0.0,same
0,637,catch,"[(1160, 808)]",[],[1],[],vertical,"(390.0, 262.0)",1.7,nan,1,10632.798,2,0.0,same
0,638,valid,"[(1171, 799)]",[],[1],[0.6166666666666667],vertical,"(890.0, 262.0)",1.4166666666666667,0.569,1,10638.364,2,0.0,same
0,639,valid,"[(1141, 794)]",[],[1],[0.5166666666666666],vertical,"(390.0, 762.0)",1.15,0.472,1,10644.013,2,0.0,same
0,640,valid,"[(1083, 813)]",[],[1],[0.5833333333333334],horizontal,"(890.0, 262.0)",1.4166666666666667,0.542,1,10649.849,3,0.0,same
0,641,catch,"[(1158, 789)]",[],[1],[],horizontal,"(890.0, 262.0)",1.7,nan,1,10656.248,3,0.0,same
0,642,catch,"[(1128, 806)]",[],[1],[],vertical,"(890.0, 262.0)",1.7,nan,1,10662.02,3,0.0,same
0,643,valid,"[(1116, 808)]",[],[1],[0.55],vertical,"(390.0, 262.0)",1.2,0.513,1,10668.065,3,0.0,same
0,644,valid,"[(1170, 795)]",[],[1],[0.5166666666666666],vertical,"(390.0, 262.0)",1.35,0.478,1,10674.399,3,0.0,same
0,645,valid,"[(1152, 770)]",[],[1],[0.5166666666666666],vertical,"(890.0, 262.0)",0.9333333333333333,0.477,1,10680.698,3,0.0,same
0,646,valid,"[(1128, 794)]",[],[1],[0.5],vertical,"(890.0, 262.0)",0.5833333333333334,0.458,1,10686.164,3,0.0,same
0,647,catch,"[(1160, 808)]",[],[1],[],horizontal,"(890.0, 262.0)",1.7,nan,1,10691.116,3,0.0,same
0,648,valid,"[(1134, 799)]",[],[1],[0.55],horizontal,"(890.0, 762.0)",1.1833333333333333,0.514,1,10696.964,3,0.0,same
0,649,valid,"[(1152, 813)]",[],[1],[0.4666666666666667],horizontal,"(890.0, 762.0)",1.4166666666666667,0.428,1,10702.814,3,0.0,same
0,650,valid,"[(1159, 792)]",[],[1],[0.5],horizontal,"(890.0, 762.0)",1.2166666666666666,0.461,1,10709.29,3,0.0,same
0,651,catch,"[(1159, 782)]",[],[1],[],horizontal,"(390.0, 762.0)",1.7,nan,1,10715.264,3,0.0,same
0,652,valid,"[(1101, 863)]",[],[1],[0.85],horizontal,"(390.0, 762.0)",1.2166666666666666,nan,0,10721.632,0,0.0,same
0,653,valid,"[(1131, 823)]",[],[1],[0.7833333333333333],horizontal,"(890.0, 762.0)",1.4666666666666666,0.738,1,10841.883,1,0.0,same
0,654,valid,"[(1080, 841)]",[],[1],[0.6166666666666667],vertical,"(890.0, 262.0)",0.9666666666666667,0.575,1,10848.58,1,0.0,same
0,655,valid,"[(1136, 790)]",[],[1],[0.55],horizontal,"(390.0, 762.0)",0.8833333333333333,0.516,1,10853.821,1,0.0,same
0,656,catch,"[(1131, 799)]",[],[1],[],horizontal,"(390.0, 762.0)",1.7,nan,1,10858.731,2,0.0,same
0,657,valid,"[(1124, 804)]",[],[1],[0.5166666666666666],horizontal,"(390.0, 262.0)",1.3,0.479,1,10864.394,2,0.0,same
0,658,catch,"[(1153, 793)]",[],[1],[],horizontal,"(390.0, 262.0)",1.7,nan,1,10870.398,2,0.0,same
