block,practice,trial,change_interval_s,change_interval_frames,taps_start_time_during_fix,taps_end_time_during_fix,taps_start_loc_during_fix,taps_end_loc_during_fix,taps_on_lever_during_fix,taps_on_lever_frame_during_fix,taps_on_lever_s_during_fix,fix_xy,bar_orientation,target_xy,cti,rt,acc,time
1,TRUE,1,0.603,36,,,"(1201, 886)",,1,,,"640.0, 512.0",vertical,"(390.0, 762.0)",,0,0,0.369
1,TRUE,2,0.96,57,,,"(1194, 885)",,1,91,1.516666667,"640.0, 512.0",vertical,"(890.0, 762.0)",0.6,0.543,1,85.952
1,TRUE,3,0.349,20,,,"(1136, 928)",,1,52,0.866666667,"640.0, 512.0",horizontal,"(890.0, 262.0)",1.366666667,0.508,1,90.235
1,TRUE,4,0.38,22,,,"(1158, 892)",,1,26,0.433333333,"640.0, 512.0",horizontal,"(390.0, 762.0)",0.566666667,0.05,1,94.202
1,FALSE,1,0.682,40,,,"(1193, 902)",,1,72,1.2,"640.0, 512.0",vertical,"(890.0, 262.0)",0.933333333,0.506,1,96.766
1,FALSE,2,0.749,44,,,"(1252, 879), (1202, 908)",,"0, 1",77,1.283333333,"640.0, 512.0",vertical,"(890.0, 262.0)",0.566666667,0.523,1,101.122
1,FALSE,3,0.865,51,,,"(1154, 902)",,1,95,1.583333333,"640.0, 512.0",vertical,"(390.0, 262.0)",0.85,0.702,1,116.108
1,FALSE,4,0.655,39,,,"(1221, 887)",,1,,,"640.0, 512.0",vertical,"(890.0, 762.0)",,0,0,120.237
1,FALSE,5,0.364,21,,,"(1142, 889)",,1,71,1.183333333,"640.0, 512.0",vertical,"(890.0, 762.0)",0.633333333,0.799,0,123.742
1,FALSE,6,0.657,39,,,"(1153, 885)",,1,81,1.35,"640.0, 512.0",horizontal,"(390.0, 762.0)",1.5,0.671,1,127.858
1,FALSE,7,0.618,37,,,"(1140, 902)",,1,74,1.233333333,"640.0, 512.0",horizontal,"(890.0, 262.0)",1.2,0.586,1,132.205
1,FALSE,8,0.677,40,,,"(1166, 903)",,1,72,1.2,"640.0, 512.0",horizontal,"(390.0, 262.0)",1.316666667,0.509,1,136.06
1,FALSE,9,0.905,54,,,"(1146, 894)",,1,87,1.45,"640.0, 512.0",horizontal,"(390.0, 262.0)",1.083333333,0.52,1,140.058
1,FALSE,10,0.839,50,,,"(1123, 898)",,1,85,1.416666667,"640.0, 512.0",vertical,"(890.0, 762.0)",1.433333333,0.556,1,143.976
1,FALSE,11,1.031,61,,,"(1118, 907)",,1,94,1.566666667,"640.0, 512.0",horizontal,"(390.0, 262.0)",1.333333333,0.522,1,148.271
1,FALSE,12,1.398,83,,,"(1137, 899)",,1,116,1.933333333,"640.0, 512.0",horizontal,"(390.0, 762.0)",0.65,0.522,1,152.589
1,FALSE,13,0.375,22,,,"(1123, 894)",,1,53,0.883333333,"640.0, 512.0",vertical,"(890.0, 762.0)",1.3,0.492,1,156.631
1,FALSE,14,1.419,85,,,"(1118, 914)",,1,98,1.633333333,"640.0, 512.0",vertical,"(890.0, 262.0)",1.533333333,0.201,1,160.925
1,FALSE,15,1.127,67,,,"(1123, 904)",,1,101,1.683333333,"640.0, 512.0",vertical,"(390.0, 762.0)",0.916666667,0.546,1,165.556
1,FALSE,16,1.496,89,,,"(1117, 897)",,1,127,2.116666667,"640.0, 512.0",horizontal,"(390.0, 762.0)",0.7,0.621,1,169.619
1,FALSE,17,1.368,82,,,"(1136, 888)",,1,108,1.8,"640.0, 512.0",horizontal,"(890.0, 262.0)",1.033333333,0.41,1,173.888
1,FALSE,18,0.696,41,,,"(1122, 909)",,1,82,1.366666667,"640.0, 512.0",horizontal,"(890.0, 262.0)",0.816666667,0.652,1,178.175
1,FALSE,19,0.314,18,,,"(1125, 894)",,1,50,0.833333333,"640.0, 512.0",horizontal,"(390.0, 762.0)",0.733333333,0.505,1,181.829
1,FALSE,20,0.562,33,,,"(1105, 893)",,1,66,1.1,"640.0, 512.0",horizontal,"(890.0, 762.0)",0.933333333,0.528,1,184.904
1,FALSE,21,0.597,35,,,"(1122, 889)",,1,68,1.133333333,"640.0, 512.0",vertical,"(890.0, 762.0)",0.816666667,0.533,1,188.404
1,FALSE,22,1.415,84,,,"(1125, 916)",,1,117,1.95,"640.0, 512.0",horizontal,"(390.0, 262.0)",1.316666667,0.526,1,191.797
1,FALSE,23,1.184,71,,,"(1117, 897)",,1,106,1.766666667,"640.0, 512.0",vertical,"(390.0, 762.0)",1.483333333,0.562,1,196.492
1,FALSE,24,1.378,82,,,"(1127, 917)",,1,117,1.95,"640.0, 512.0",vertical,"(890.0, 762.0)",1.683333333,0.56,1,201.203
1,FALSE,25,0.475,28,,,"(1123, 903)",,1,64,1.066666667,"640.0, 512.0",horizontal,"(890.0, 762.0)",0.566666667,0.581,1,206.273
1,FALSE,26,1.132,67,,,"(1125, 899)",,1,99,1.65,"640.0, 512.0",vertical,"(390.0, 262.0)",0.95,0.507,1,209.388
1,FALSE,27,1.195,71,,,"(1123, 918)",,1,105,1.75,"640.0, 512.0",vertical,"(390.0, 262.0)",0.583333333,0.541,1,213.451
1,FALSE,28,1.165,69,,,"(1099, 907)",,1,100,1.666666667,"640.0, 512.0",vertical,"(390.0, 262.0)",0.633333333,0.489,1,217.283
1,FALSE,29,0.948,56,,,"(1128, 922)",,1,90,1.5,"640.0, 512.0",horizontal,"(890.0, 262.0)",0.6,0.543,1,221.057
1,FALSE,30,1.195,71,,,"(1096, 913)",,1,110,1.833333333,"640.0, 512.0",horizontal,"(390.0, 762.0)",0.583333333,0.62,1,224.677
1,FALSE,31,1.443,86,,,"(1112, 908)",,1,,,"640.0, 512.0",vertical,"(890.0, 262.0)",,0,0,228.574
1,FALSE,32,1.235,74,,,"(1114, 917)",,1,114,1.9,"640.0, 512.0",horizontal,"(890.0, 262.0)",1.35,0.638,1,232.753
1,FALSE,33,1.066,63,,,"(1113, 909)",,1,96,1.6,"640.0, 512.0",vertical,"(890.0, 262.0)",1.283333333,0.528,1,237.982
1,FALSE,34,1.269,76,,,"(1117, 910)",,1,111,1.85,"640.0, 512.0",horizontal,"(890.0, 762.0)",0.783333333,0.554,1,242.338
1,FALSE,35,0.497,29,,,"(1118, 912)",,1,64,1.066666667,"640.0, 512.0",horizontal,"(890.0, 762.0)",1.466666667,0.553,1,246.459
1,FALSE,36,0.419,25,,,"(1122, 891)",,1,60,1,"640.0, 512.0",vertical,"(390.0, 762.0)",1.316666667,0.557,1,250.461
1,FALSE,37,1.075,64,,,"(1117, 919)",,1,98,1.633333333,"640.0, 512.0",vertical,"(890.0, 762.0)",1.616666667,0.542,1,254.224
1,FALSE,38,0.725,43,,,"(1118, 893)",,1,74,1.233333333,"640.0, 512.0",vertical,"(890.0, 262.0)",1.45,0.493,1,258.943
1,FALSE,39,1.346,80,,,"(1144, 904)",,1,130,2.166666667,"640.0, 512.0",vertical,"(890.0, 762.0)",1.383333333,0.801,0,263.068
1,FALSE,40,1.458,87,,,"(1147, 905)",,1,124,2.066666667,"640.0, 512.0",horizontal,"(390.0, 762.0)",0.75,0.586,1,268.098
1,FALSE,41,0.591,35,,,"(1099, 903)",,1,80,1.333333333,"640.0, 512.0",horizontal,"(890.0, 262.0)",1.616666667,0.718,1,272.442
1,FALSE,42,0.809,48,,,"(1113, 893)",,1,83,1.383333333,"640.0, 512.0",horizontal,"(390.0, 762.0)",1.166666667,0.55,1,276.843
1,FALSE,43,0.847,50,,,"(1148, 909)",,1,85,1.416666667,"640.0, 512.0",horizontal,"(390.0, 762.0)",1.083333333,0.553,1,280.855
1,FALSE,44,1.302,78,,,"(1123, 910)",,1,113,1.883333333,"640.0, 512.0",vertical,"(890.0, 762.0)",0.683333333,0.566,1,290.709
1,FALSE,45,1.264,75,,,"(1122, 913)",,1,110,1.833333333,"640.0, 512.0",horizontal,"(390.0, 762.0)",1.633333333,0.556,1,294.992
1,FALSE,46,1.317,79,,,"(1093, 913)",,1,115,1.916666667,"640.0, 512.0",vertical,"(390.0, 762.0)",0.75,0.575,1,299.877
1,FALSE,47,0.532,31,,,"(1121, 898)",,1,64,1.066666667,"640.0, 512.0",horizontal,"(390.0, 262.0)",0.966666667,0.524,1,304.022
1,FALSE,48,0.932,55,,,"(1111, 880)",,1,96,1.6,"640.0, 512.0",vertical,"(390.0, 262.0)",0.766666667,0.648,1,307.496
1,FALSE,49,0.624,37,,,"(1087, 876)",,1,79,1.316666667,"640.0, 512.0",vertical,"(890.0, 262.0)",1.633333333,0.672,1,311.929
1,FALSE,50,1.5,90,,,"(1138, 894)",,1,125,2.083333333,"640.0, 512.0",horizontal,"(890.0, 762.0)",1.233333333,0.554,1,318.509
1,FALSE,51,1.098,65,,,"(1129, 923)",,1,98,1.633333333,"640.0, 512.0",vertical,"(390.0, 762.0)",1,0.524,1,333.02
1,FALSE,52,0.977,58,,,"(1098, 884)",,1,91,1.516666667,"640.0, 512.0",horizontal,"(390.0, 262.0)",1.15,0.522,1,337.24
1,FALSE,53,0.952,57,,,"(1074, 908)",,1,94,1.566666667,"640.0, 512.0",vertical,"(890.0, 262.0)",0.95,0.591,1,341.385
1,FALSE,54,0.344,20,,,"(1090, 908)",,1,59,0.983333333,"640.0, 512.0",vertical,"(890.0, 762.0)",1.133333333,0.621,1,345.513
1,FALSE,55,0.324,19,,,"(1056, 920)",,1,69,1.15,"640.0, 512.0",vertical,"(890.0, 762.0)",0.5,0.799,0,349.121
1,FALSE,56,0.474,28,,,"(1123, 902)",,1,65,1.083333333,"640.0, 512.0",vertical,"(390.0, 262.0)",0.783333333,0.583,1,352.376
1,FALSE,57,0.759,45,,,"(1087, 899)",,1,83,1.383333333,"640.0, 512.0",horizontal,"(890.0, 762.0)",1.516666667,0.607,1,355.767
1,FALSE,58,1.274,76,,,"(1093, 890)",,1,,,"640.0, 512.0",vertical,"(390.0, 262.0)",,0,0,360.17
1,FALSE,59,0.898,53,,,"(1070, 868)",,1,66,1.1,"640.0, 512.0",vertical,"(890.0, 262.0)",1.516666667,0.197,1,363.767
1,FALSE,60,1.372,82,,,"(1123, 884)",,1,115,1.916666667,"640.0, 512.0",horizontal,"(390.0, 762.0)",0.983333333,0.521,1,368.816
2,FALSE,61,0.874,52,,,"(1098, 874)",,1,84,1.4,"640.0, 512.0",vertical,"(890.0, 762.0)",1.516666667,0.504,1,373.161
2,FALSE,62,0.461,27,,,"(1099, 904)",,1,38,0.633333333,"640.0, 512.0",vertical,"(890.0, 762.0)",1.65,0.165,1,377.586
2,FALSE,63,0.57,34,,,"(1100, 894)",,1,70,1.166666667,"640.0, 512.0",horizontal,"(390.0, 262.0)",1.3,0.571,1,381.342
2,FALSE,64,1.437,86,,,"(1105, 886)",,1,112,1.866666667,"640.0, 512.0",vertical,"(390.0, 262.0)",1.05,0.41,1,385.358
2,FALSE,65,1.495,89,,,"(1120, 916)",,1,122,2.033333333,"640.0, 512.0",horizontal,"(390.0, 262.0)",0.916666667,0.519,1,389.76
2,FALSE,66,0.639,38,,,"(1100, 898)",,1,69,1.15,"640.0, 512.0",vertical,"(390.0, 762.0)",1.4,0.494,1,394.159
2,FALSE,67,0.471,28,,,"(1105, 894)",,1,58,0.966666667,"640.0, 512.0",horizontal,"(390.0, 262.0)",1.5,0.479,1,398.193
2,FALSE,68,1.42,85,,,"(1097, 903)",,1,,,"640.0, 512.0",vertical,"(890.0, 262.0)",,0,0,402.144
2,FALSE,69,0.3,18,,,"(1115, 904)",,1,48,0.8,"640.0, 512.0",vertical,"(890.0, 762.0)",1.533333333,0.473,1,405.593
2,FALSE,70,0.6,36,,,"(1138, 906)",,1,69,1.15,"640.0, 512.0",horizontal,"(390.0, 762.0)",1.55,0.528,1,409.417
2,FALSE,71,0.867,52,,,"(1117, 898)",,1,77,1.283333333,"640.0, 512.0",vertical,"(890.0, 262.0)",1.283333333,0.396,1,413.594
2,FALSE,72,1.127,67,,,"(1111, 899)",,1,101,1.683333333,"640.0, 512.0",vertical,"(390.0, 262.0)",0.633333333,0.537,1,417.622
2,FALSE,73,1.179,70,,,"(1097, 905)",,1,98,1.633333333,"640.0, 512.0",vertical,"(890.0, 262.0)",0.7,0.441,1,421.391
2,FALSE,74,0.735,44,,,"(1161, 893)",,1,94,1.566666667,"640.0, 512.0",horizontal,"(390.0, 762.0)",0.716666667,0.798,0,425.222
2,FALSE,75,1.471,88,,,"(1163, 888)",,1,,,"640.0, 512.0",horizontal,"(890.0, 262.0)",,0,0,429.043
2,FALSE,76,0.901,54,,,"(1093, 880)",,1,104,1.733333333,"640.0, 512.0",vertical,"(390.0, 262.0)",0.95,0.797,0,432.572
2,FALSE,77,0.675,40,,,"(1117, 889)",,1,72,1.2,"640.0, 512.0",horizontal,"(390.0, 762.0)",1,0.506,1,437.428
2,FALSE,78,0.604,36,,,"(1098, 884)",,1,68,1.133333333,"640.0, 512.0",vertical,"(890.0, 262.0)",1.133333333,0.503,1,441.158
2,FALSE,79,0.982,58,,,"(1108, 896)",,1,90,1.5,"640.0, 512.0",horizontal,"(390.0, 262.0)",1.55,0.508,1,444.963
2,FALSE,80,1.343,80,,,"(1108, 886)",,1,82,1.366666667,"640.0, 512.0",vertical,"(390.0, 262.0)",1.433333333,0.018,1,449.533
2,FALSE,81,0.495,29,,,"(1145, 887)",,1,58,0.966666667,"640.0, 512.0",vertical,"(890.0, 262.0)",0.75,0.456,1,453.854
2,FALSE,82,1.311,78,,,"(1098, 892)",,1,,,"640.0, 512.0",vertical,"(390.0, 262.0)",,0,0,457.141
2,FALSE,83,0.414,24,,,"(1146, 906)",,1,52,0.866666667,"640.0, 512.0",horizontal,"(390.0, 762.0)",1.55,0.443,1,460.648
2,FALSE,84,0.787,47,,,"(1110, 891)",,1,85,1.416666667,"640.0, 512.0",vertical,"(890.0, 262.0)",0.65,0.608,1,464.755
2,FALSE,85,0.399,23,,,"(1050, 889)",,1,56,0.933333333,"640.0, 512.0",horizontal,"(390.0, 762.0)",0.8,0.529,1,468.377
2,FALSE,86,0.496,29,,,"(1119, 894)",,1,61,1.016666667,"640.0, 512.0",horizontal,"(390.0, 762.0)",1.633333333,0.514,1,471.712
2,FALSE,87,0.741,44,,,"(1123, 881)",,1,90,1.5,"640.0, 512.0",horizontal,"(390.0, 262.0)",0.883333333,0.734,1,475.884
2,FALSE,88,0.665,39,,,"(1107, 889)",,1,77,1.283333333,"640.0, 512.0",horizontal,"(390.0, 762.0)",0.583333333,0.602,1,479.927
2,FALSE,89,0.775,46,,,"(1123, 915)",,1,83,1.383333333,"640.0, 512.0",horizontal,"(390.0, 262.0)",1.066666667,0.591,1,483.306
2,FALSE,90,1.037,62,,,"(1116, 885)",,1,95,1.583333333,"640.0, 512.0",vertical,"(390.0, 262.0)",0.5,0.53,1,487.359
2,FALSE,91,1.057,63,,,"(1110, 894)",,1,98,1.633333333,"640.0, 512.0",vertical,"(390.0, 762.0)",1.616666667,0.557,1,490.997
2,FALSE,92,0.811,48,,,"(1074, 902)",,1,82,1.366666667,"640.0, 512.0",horizontal,"(890.0, 762.0)",0.516666667,0.54,1,495.761
2,FALSE,93,0.376,22,,,"(1098, 907)",,1,53,0.883333333,"640.0, 512.0",horizontal,"(890.0, 262.0)",0.916666667,0.488,1,499.161
2,FALSE,94,0.471,28,,,"(1105, 894)",,1,35,0.583333333,"640.0, 512.0",vertical,"(890.0, 262.0)",1.666666667,0.102,1,502.495
2,FALSE,95,1.477,88,,,"(1128, 903)",,1,122,2.033333333,"640.0, 512.0",vertical,"(390.0, 762.0)",1.3,0.541,1,506.227
2,FALSE,96,0.748,44,,,"(1116, 899)",,1,83,1.383333333,"640.0, 512.0",horizontal,"(890.0, 762.0)",1.566666667,0.621,1,511.007
2,FALSE,97,0.411,24,,,"(1103, 880)",,1,59,0.983333333,"640.0, 512.0",vertical,"(890.0, 762.0)",0.8,0.562,1,515.49
2,FALSE,98,0.621,37,,,"(1089, 877)",,1,64,1.066666667,"640.0, 512.0",vertical,"(890.0, 262.0)",1.183333333,0.425,1,518.791
2,FALSE,99,0.856,51,,,"(1123, 896)",,1,84,1.4,"640.0, 512.0",vertical,"(890.0, 762.0)",1.616666667,0.525,1,522.588
2,FALSE,100,0.582,34,,,"(1110, 888)",,1,66,1.1,"640.0, 512.0",horizontal,"(390.0, 262.0)",1.316666667,0.509,1,527.081
2,FALSE,101,0.819,49,,,"(1050, 909)",,1,85,1.416666667,"640.0, 512.0",vertical,"(890.0, 762.0)",1.233333333,0.573,1,531.01
2,FALSE,102,1.498,89,,,"(1093, 885)",,1,123,2.05,"640.0, 512.0",horizontal,"(890.0, 762.0)",0.533333333,0.536,1,535.197
2,FALSE,103,0.52,31,,,"(1087, 905)",,1,66,1.1,"640.0, 512.0",vertical,"(890.0, 762.0)",1.633333333,0.552,1,552.857
2,FALSE,104,0.619,37,,,"(1109, 901)",,1,74,1.233333333,"640.0, 512.0",vertical,"(890.0, 762.0)",1.6,0.584,1,557.042
2,FALSE,105,1.152,69,,,"(1105, 938)",,1,102,1.7,"640.0, 512.0",vertical,"(390.0, 762.0)",0.65,0.522,1,561.394
2,FALSE,106,0.444,26,,,"(1093, 917)",,1,60,1,"640.0, 512.0",horizontal,"(390.0, 762.0)",1.483333333,0.542,1,565.288
2,FALSE,107,1.291,77,,,"(1111, 894)",,1,108,1.8,"640.0, 512.0",vertical,"(890.0, 762.0)",1.416666667,0.5,1,569.24
2,FALSE,108,1.032,61,,,"(1083, 908)",,1,95,1.583333333,"640.0, 512.0",vertical,"(390.0, 262.0)",0.766666667,0.541,1,574.261
2,FALSE,109,0.906,54,,,"(1076, 894)",,1,101,1.683333333,"640.0, 512.0",horizontal,"(890.0, 262.0)",1.166666667,0.751,1,578.311
2,FALSE,110,0.442,26,,,"(1071, 899)",,1,66,1.1,"640.0, 512.0",horizontal,"(890.0, 762.0)",1.533333333,0.641,1,582.722
2,FALSE,111,0.881,52,,,"(1094, 893)",,1,84,1.4,"640.0, 512.0",horizontal,"(890.0, 262.0)",1,0.504,1,586.851
2,FALSE,112,0.315,18,,,"(1044, 888)",,1,65,1.083333333,"640.0, 512.0",horizontal,"(890.0, 262.0)",0.75,0.768,1,590.795
2,FALSE,113,0.669,40,,,"(1102, 905)",,1,77,1.283333333,"640.0, 512.0",vertical,"(890.0, 762.0)",0.766666667,0.586,1,594.261
2,FALSE,114,0.655,39,,,"(1077, 898)",,1,73,1.216666667,"640.0, 512.0",vertical,"(390.0, 762.0)",0.716666667,0.543,1,597.778
2,FALSE,115,0.838,50,,,"(1091, 889)",,1,98,1.633333333,"640.0, 512.0",vertical,"(390.0, 762.0)",1.333333333,0.764,1,601.229
2,FALSE,116,1.021,61,,,"(1093, 906)",,1,86,1.433333333,"640.0, 512.0",vertical,"(890.0, 262.0)",1.183333333,0.395,1,605.689
2,FALSE,117,0.811,48,,,"(1031, 909)",,1,,,"640.0, 512.0",vertical,"(890.0, 762.0)",,0,0,609.879
2,FALSE,118,1.338,80,,,"(1096, 888)",,1,118,1.966666667,"640.0, 512.0",horizontal,"(390.0, 262.0)",0.616666667,0.615,1,613.728
2,FALSE,119,0.892,53,,,"(1087, 909)",,1,95,1.583333333,"640.0, 512.0",horizontal,"(390.0, 262.0)",0.816666667,0.671,1,617.794
2,FALSE,120,1.066,63,,,"(1064, 897)",,1,111,1.85,"640.0, 512.0",vertical,"(890.0, 762.0)",0.916666667,0.773,1,621.844
3,FALSE,121,1.178,70,,,"(1099, 885)",,1,101,1.683333333,"640.0, 512.0",horizontal,"(390.0, 762.0)",1.55,0.491,1,627.672
3,FALSE,122,0.49,29,,,"(1123, 902)",,1,64,1.066666667,"640.0, 512.0",horizontal,"(890.0, 762.0)",1.266666667,0.559,1,641.807
3,FALSE,123,1.077,64,,,"(1076, 880)",,1,100,1.666666667,"640.0, 512.0",horizontal,"(890.0, 762.0)",0.583333333,0.574,1,645.728
3,FALSE,124,0.78,46,,,"(1078, 889)",,1,78,1.3,"640.0, 512.0",horizontal,"(890.0, 262.0)",0.666666667,0.502,1,649.705
3,FALSE,125,0.959,57,,,"(1066, 889)",,1,77,1.283333333,"640.0, 512.0",vertical,"(890.0, 262.0)",0.833333333,0.313,1,653.178
3,FALSE,126,1.16,69,,,"(1099, 893)",,1,101,1.683333333,"640.0, 512.0",vertical,"(390.0, 762.0)",1.683333333,0.502,1,656.827
3,FALSE,127,0.638,38,,,"(1081, 885)",,1,75,1.25,"640.0, 512.0",horizontal,"(390.0, 262.0)",0.5,0.589,1,661.638
3,FALSE,128,1.329,79,,,"(1093, 930)",,1,111,1.85,"640.0, 512.0",vertical,"(890.0, 262.0)",0.916666667,0.511,1,664.931
3,FALSE,129,0.586,35,,,"(1087, 885)",,1,76,1.266666667,"640.0, 512.0",vertical,"(890.0, 762.0)",0.633333333,0.655,1,669.215
3,FALSE,130,0.362,21,,,"(1105, 918)",,1,55,0.916666667,"640.0, 512.0",horizontal,"(390.0, 762.0)",0.85,0.539,1,672.652
3,FALSE,131,0.911,54,,,"(1056, 888)",,1,89,1.483333333,"640.0, 512.0",horizontal,"(890.0, 762.0)",0.55,0.556,1,675.945
3,FALSE,132,1.373,82,,,"(1074, 862)",,1,117,1.95,"640.0, 512.0",horizontal,"(390.0, 262.0)",1.566666667,0.549,1,679.773
3,FALSE,133,1.326,79,,,"(1090, 880)",,1,118,1.966666667,"640.0, 512.0",horizontal,"(390.0, 762.0)",0.55,0.621,1,684.809
3,FALSE,134,0.943,56,,,"(1080, 889)",,1,89,1.483333333,"640.0, 512.0",vertical,"(390.0, 762.0)",1.3,0.521,1,688.796
3,FALSE,135,0.838,50,,,"(1131, 906)",,1,,,"640.0, 512.0",horizontal,"(390.0, 262.0)",,0,0,693.055
3,FALSE,136,0.912,54,,,"(1131, 906)",,1,68,1.133333333,"640.0, 512.0",vertical,"(390.0, 262.0)",0.566666667,0.213,1,755.608
3,FALSE,137,1.105,66,,,"(1110, 922)",,1,95,1.583333333,"640.0, 512.0",horizontal,"(890.0, 762.0)",0.95,0.459,1,758.763
3,FALSE,138,1.158,69,,,"(1118, 919)",,1,101,1.683333333,"640.0, 512.0",horizontal,"(390.0, 762.0)",0.7,0.507,1,762.763
3,FALSE,139,0.665,39,,,"(1123, 898)",,1,,,"640.0, 512.0",vertical,"(890.0, 262.0)",,0,0,766.567
3,FALSE,140,0.565,33,,,"(1155, 894)",,1,72,1.2,"640.0, 512.0",vertical,"(390.0, 262.0)",0.9,0.627,1,769.978
3,FALSE,141,0.993,59,,,"(1136, 898)",,1,,,"640.0, 512.0",vertical,"(890.0, 262.0)",,0,0,773.583
3,FALSE,142,0.641,38,,,"(1117, 912)",,1,77,1.283333333,"640.0, 512.0",horizontal,"(390.0, 762.0)",0.516666667,0.626,1,777.384
3,FALSE,143,0.974,58,,,"(1084, 890)",,1,85,1.416666667,"640.0, 512.0",vertical,"(890.0, 262.0)",0.666666667,0.427,1,781.031
3,FALSE,144,1.266,75,,,"(1128, 885)",,1,110,1.833333333,"640.0, 512.0",horizontal,"(890.0, 262.0)",1.083333333,0.551,1,784.653
3,FALSE,145,0.469,28,,,"(1109, 881)",,1,60,1,"640.0, 512.0",vertical,"(390.0, 762.0)",1.25,0.509,1,789.043
3,FALSE,146,1.494,89,,,"(1078, 885)",,1,129,2.15,"640.0, 512.0",horizontal,"(390.0, 262.0)",0.933333333,0.643,1,792.761
3,FALSE,147,0.362,21,,,"(1099, 919)",,1,61,1.016666667,"640.0, 512.0",horizontal,"(390.0, 762.0)",1.65,0.636,1,797.267
3,FALSE,148,0.686,41,,,"(1063, 906)",,1,75,1.25,"640.0, 512.0",horizontal,"(390.0, 262.0)",1.65,0.539,1,801.523
3,FALSE,149,1.238,74,,,"(1075, 906)",,1,110,1.833333333,"640.0, 512.0",horizontal,"(890.0, 262.0)",1.3,0.578,1,805.895
3,FALSE,150,0.306,18,,,"(1091, 913)",,1,52,0.866666667,"640.0, 512.0",vertical,"(890.0, 762.0)",1.15,0.541,1,810.573
3,FALSE,151,0.91,54,,,"(1111, 906)",,1,88,1.466666667,"640.0, 512.0",vertical,"(390.0, 762.0)",1.3,0.543,1,814.133
3,FALSE,152,1.041,62,,,"(1099, 893)",,1,112,1.866666667,"640.0, 512.0",horizontal,"(390.0, 262.0)",1.066666667,0.791,0,818.344
3,FALSE,153,1.016,60,,,"(1141, 885)",,1,110,1.833333333,"640.0, 512.0",horizontal,"(390.0, 262.0)",1.55,0.804,0,822.769
3,FALSE,154,1.403,84,,,"(1130, 900)",,1,118,1.966666667,"640.0, 512.0",horizontal,"(390.0, 762.0)",0.8,0.54,1,827.676
3,FALSE,155,0.646,38,,,"(1094, 870)",,1,71,1.183333333,"640.0, 512.0",horizontal,"(390.0, 262.0)",0.816666667,0.522,1,869.763
3,FALSE,156,1.409,84,,,"(1063, 895)",,1,119,1.983333333,"640.0, 512.0",horizontal,"(390.0, 762.0)",1.4,0.556,1,873.256
3,FALSE,157,0.997,59,,,"(1148, 887)",,1,91,1.516666667,"640.0, 512.0",horizontal,"(390.0, 262.0)",0.766666667,0.508,1,878.084
3,FALSE,158,0.932,55,,,"(1123, 889)",,1,89,1.483333333,"640.0, 512.0",vertical,"(390.0, 762.0)",1.383333333,0.543,1,881.842
3,FALSE,159,0.302,18,,,"(1105, 875)",,1,52,0.866666667,"640.0, 512.0",horizontal,"(890.0, 762.0)",0.633333333,0.553,1,890.46
3,FALSE,160,1.096,65,,,"(1099, 896)",,1,115,1.916666667,"640.0, 512.0",vertical,"(390.0, 262.0)",0.75,0.8,0,894.062
3,FALSE,161,0.443,26,,,"(1119, 885)",,1,56,0.933333333,"640.0, 512.0",vertical,"(890.0, 262.0)",1.116666667,0.477,1,898.193
3,FALSE,162,1.21,72,,,"(1140, 912)",,1,,,"640.0, 512.0",vertical,"(890.0, 262.0)",,0,0,901.879
3,FALSE,163,1.283,76,,,"(1134, 870)",,1,111,1.85,"640.0, 512.0",vertical,"(890.0, 262.0)",1.516666667,0.557,1,905.527
3,FALSE,164,1.49,89,,,"(1109, 870)",,1,122,2.033333333,"640.0, 512.0",horizontal,"(890.0, 262.0)",1,0.521,1,910.396
3,FALSE,165,1.295,77,,,"(1096, 894)",,1,102,1.7,"640.0, 512.0",vertical,"(390.0, 262.0)",0.633333333,0.389,1,914.857
3,FALSE,166,1.254,75,,,"(1101, 887)",,1,88,1.466666667,"640.0, 512.0",vertical,"(390.0, 762.0)",1.216666667,0.197,1,918.729
3,FALSE,167,1.014,60,,,"(1098, 877)",,1,98,1.633333333,"640.0, 512.0",vertical,"(390.0, 762.0)",0.6,0.603,1,922.906
3,FALSE,168,0.326,19,,,"(1128, 899)",,1,51,0.85,"640.0, 512.0",vertical,"(890.0, 262.0)",1.266666667,0.503,1,929.045
3,FALSE,169,0.751,45,,,"(1141, 897)",,1,83,1.383333333,"640.0, 512.0",horizontal,"(390.0, 262.0)",1.666666667,0.6,1,932.71
3,FALSE,170,0.36,21,,,"(1104, 898)",,1,53,0.883333333,"640.0, 512.0",horizontal,"(890.0, 262.0)",1.433333333,0.505,1,937.198
3,FALSE,171,1.183,70,,,"(1105, 925)",,1,105,1.75,"640.0, 512.0",vertical,"(890.0, 762.0)",0.833333333,0.553,1,942.268
3,FALSE,172,1.138,68,,,"(1095, 899)",,1,104,1.733333333,"640.0, 512.0",vertical,"(390.0, 762.0)",1.25,0.575,1,946.44
3,FALSE,173,0.363,21,,,"(1080, 900)",,1,55,0.916666667,"640.0, 512.0",horizontal,"(390.0, 262.0)",0.833333333,0.536,1,951.136
3,FALSE,174,0.47,28,,,"(1107, 927)",,1,78,1.3,"640.0, 512.0",horizontal,"(390.0, 262.0)",1.183333333,0.8,0,956.597
3,FALSE,175,1.034,62,,,"(1153, 894)",,1,107,1.783333333,"640.0, 512.0",horizontal,"(890.0, 762.0)",1.016666667,0.72,1,960.659
3,FALSE,176,0.662,39,,,"(1118, 893)",,1,72,1.2,"640.0, 512.0",horizontal,"(390.0, 762.0)",0.5,0.523,1,964.95
3,FALSE,177,1.275,76,,,"(1109, 870)",,1,120,2,"640.0, 512.0",horizontal,"(390.0, 262.0)",0.866666667,0.702,1,968.142
3,FALSE,178,1.176,70,,,"(1050, 899)",,1,120,2,"640.0, 512.0",horizontal,"(390.0, 762.0)",0.55,0.8,0,972.518
3,FALSE,179,0.599,35,,,"(1130, 859)",,1,80,1.333333333,"640.0, 512.0",horizontal,"(890.0, 762.0)",1,0.717,1,976.997
3,FALSE,180,0.723,43,,,"(1119, 875)",,1,78,1.3,"640.0, 512.0",horizontal,"(890.0, 762.0)",1.05,0.551,1,1003.661
4,FALSE,181,0.598,35,,,"(1080, 900)",,1,70,1.166666667,"640.0, 512.0",vertical,"(390.0, 762.0)",0.933333333,0.556,1,1007.545
4,FALSE,182,1.494,89,,,"(1109, 894)",,1,,,"640.0, 512.0",vertical,"(890.0, 262.0)",,0,0,1011.144
4,FALSE,183,0.701,42,,,"(1068, 903)",,1,75,1.25,"640.0, 512.0",vertical,"(390.0, 262.0)",1.266666667,0.523,1,1014.726
4,FALSE,184,1.316,78,,,"(1099, 897)",,1,,,"640.0, 512.0",horizontal,"(890.0, 262.0)",,0,0,1020.078
4,FALSE,185,0.569,34,,,"(1105, 908)",,1,65,1.083333333,"640.0, 512.0",vertical,"(890.0, 262.0)",1.45,0.494,1,1023.439
4,FALSE,186,1.41,84,,,"(1093, 885)",,1,114,1.9,"640.0, 512.0",vertical,"(890.0, 262.0)",0.55,0.478,1,1027.744
4,FALSE,187,0.71,42,,,"(1118, 902)",,1,79,1.316666667,"640.0, 512.0",horizontal,"(390.0, 762.0)",0.583333333,0.585,1,1032.372
4,FALSE,188,1.292,77,,,"(1093, 918)",,1,,,"640.0, 512.0",vertical,"(390.0, 262.0)",,0,0,1035.825
4,FALSE,189,1.439,86,,,"(1079, 851)",,1,124,2.066666667,"640.0, 512.0",vertical,"(390.0, 262.0)",0.633333333,0.605,1,1039.725
4,FALSE,190,1.343,80,,,"(1105, 878)",,1,115,1.916666667,"640.0, 512.0",horizontal,"(390.0, 262.0)",0.933333333,0.556,1,1044.464
4,FALSE,191,1.223,73,,,"(1107, 870)",,1,,,"640.0, 512.0",vertical,"(890.0, 262.0)",,0,0,1048.807
4,FALSE,192,1.499,89,,,"(1104, 883)",,1,119,1.983333333,"640.0, 512.0",horizontal,"(390.0, 262.0)",1.6,0.478,1,1052.86
4,FALSE,193,1.119,67,,,"(1122, 889)",,1,98,1.633333333,"640.0, 512.0",vertical,"(890.0, 262.0)",1.066666667,0.487,1,1059.041
4,FALSE,194,1.267,76,,,"(1112, 908)",,1,,,"640.0, 512.0",vertical,"(890.0, 262.0)",,0,0,1063.228
4,FALSE,195,0.52,31,,,"(1104, 874)",,1,65,1.083333333,"640.0, 512.0",horizontal,"(390.0, 262.0)",1.533333333,0.539,1,1067.323
4,FALSE,196,1.163,69,,,"(1104, 895)",,1,103,1.716666667,"640.0, 512.0",horizontal,"(890.0, 262.0)",1.133333333,0.545,1,1080.66
4,FALSE,197,0.954,57,,,"(1107, 891)",,1,84,1.4,"640.0, 512.0",vertical,"(390.0, 262.0)",1.116666667,0.424,1,1084.974
4,FALSE,198,0.544,32,,,"(1142, 894)",,1,66,1.1,"640.0, 512.0",vertical,"(890.0, 762.0)",1.283333333,0.539,1,1088.94
4,FALSE,199,1.221,73,,,"(1121, 904)",,1,105,1.75,"640.0, 512.0",vertical,"(390.0, 262.0)",0.716666667,0.51,1,1092.78
4,FALSE,200,1.43,85,,,"(1128, 927)",,1,126,2.1,"640.0, 512.0",horizontal,"(390.0, 262.0)",1.133333333,0.66,1,1096.813
4,FALSE,201,0.783,46,,,"(1093, 884)",,1,81,1.35,"640.0, 512.0",horizontal,"(890.0, 762.0)",0.833333333,0.558,1,1101.572
4,FALSE,202,1.183,70,,,"(1099, 927)",,1,105,1.75,"640.0, 512.0",horizontal,"(890.0, 762.0)",1.616666667,0.556,1,1105.238
4,FALSE,203,1.3,78,,,"(1105, 908)",,1,112,1.866666667,"640.0, 512.0",vertical,"(890.0, 762.0)",1.1,0.543,1,1110.084
4,FALSE,204,0.617,37,,,"(1063, 885)",,1,71,1.183333333,"640.0, 512.0",horizontal,"(890.0, 762.0)",1.633333333,0.541,1,1114.541
4,FALSE,205,1.142,68,,1128397,"(1074, 918)","(1063, 905)",1,46,0.766666667,"640.0, 512.0",vertical,"(890.0, 262.0)",,0,0,1118.965
4,FALSE,206,0.92,55,,,"(1105, 920)",,1,94,1.566666667,"640.0, 512.0",vertical,"(890.0, 762.0)",1.15,0.62,1,1121.296
4,FALSE,207,0.963,57,,,"(1141, 899)",,1,90,1.5,"640.0, 512.0",horizontal,"(390.0, 762.0)",1.166666667,0.53,1,1215.097
4,FALSE,208,0.414,24,,,"(1129, 865)",,1,61,1.016666667,"640.0, 512.0",vertical,"(390.0, 262.0)",0.533333333,0.591,1,1219.282
4,FALSE,209,1.393,83,,,"(1112, 913)",,1,117,1.95,"640.0, 512.0",horizontal,"(390.0, 762.0)",1.666666667,0.541,1,1222.242
4,FALSE,210,0.623,37,,,"(1105, 891)",,1,70,1.166666667,"640.0, 512.0",horizontal,"(390.0, 762.0)",0.95,0.531,1,1227.303
4,FALSE,211,1.457,87,,,"(1102, 891)",,1,123,2.05,"640.0, 512.0",vertical,"(890.0, 762.0)",1.3,0.571,1,1231.492
4,FALSE,212,1.48,88,,,"(1116, 913)",,1,119,1.983333333,"640.0, 512.0",vertical,"(890.0, 762.0)",1.45,0.494,1,1236.39
4,FALSE,213,0.938,56,,,"(1129, 906)",,1,90,1.5,"640.0, 512.0",vertical,"(390.0, 762.0)",0.6,0.539,1,1241.297
4,FALSE,214,1.21,72,,,"(1056, 889)",,1,110,1.833333333,"640.0, 512.0",vertical,"(390.0, 762.0)",1.066666667,0.613,1,1244.864
4,FALSE,215,0.876,52,,,"(1117, 892)",,1,83,1.383333333,"640.0, 512.0",vertical,"(890.0, 262.0)",0.8,0.495,1,1249.241
4,FALSE,216,0.903,54,,,"(1111, 878)",,1,85,1.416666667,"640.0, 512.0",horizontal,"(390.0, 762.0)",0.766666667,0.495,1,1252.945
4,FALSE,217,0.65,39,,,"(1109, 869)",,1,89,1.483333333,"640.0, 512.0",vertical,"(890.0, 762.0)",1.35,0.804,0,1256.76
4,FALSE,218,0.549,32,,,"(1152, 909)",,1,34,0.566666667,"640.0, 512.0",horizontal,"(390.0, 262.0)",1.466666667,0.019,1,1261.088
4,FALSE,219,0.969,58,,,"(1117, 894)",,1,89,1.483333333,"640.0, 512.0",vertical,"(390.0, 262.0)",0.683333333,0.498,1,1264.647
4,FALSE,220,1.428,85,,,"(1102, 882)",,1,,,"640.0, 512.0",vertical,"(390.0, 262.0)",,0,0,1268.692
4,FALSE,221,1.274,76,,,"(1087, 880)",,1,109,1.816666667,"640.0, 512.0",horizontal,"(390.0, 762.0)",0.75,0.524,1,1273.005
4,FALSE,222,0.748,44,,,"(1119, 865)",,1,74,1.233333333,"640.0, 512.0",vertical,"(390.0, 762.0)",1.4,0.484,1,1278.649
4,FALSE,223,0.753,45,,,"(1099, 899)",,1,79,1.316666667,"640.0, 512.0",vertical,"(390.0, 762.0)",1.366666667,0.544,1,1282.881
4,FALSE,224,1.37,82,,,"(1096, 881)",,1,113,1.883333333,"640.0, 512.0",horizontal,"(390.0, 762.0)",0.55,0.492,1,1287.084
4,FALSE,225,0.87,52,,,"(1102, 891)",,1,81,1.35,"640.0, 512.0",vertical,"(890.0, 262.0)",1.066666667,0.466,1,1290.998
4,FALSE,226,0.828,49,,,"(1107, 899)",,1,81,1.35,"640.0, 512.0",horizontal,"(390.0, 762.0)",1.3,0.511,1,1294.931
4,FALSE,227,0.371,22,,,"(1107, 852)",,1,55,0.916666667,"640.0, 512.0",vertical,"(890.0, 262.0)",0.8,0.527,1,1336.022
4,FALSE,228,0.717,43,,,"(1093, 863)",,1,76,1.266666667,"640.0, 512.0",horizontal,"(390.0, 262.0)",0.55,0.525,1,1339.193
4,FALSE,229,0.529,31,,,"(1137, 911)",,1,61,1.016666667,"640.0, 512.0",horizontal,"(390.0, 262.0)",0.716666667,0.472,1,1342.894
4,FALSE,230,0.825,49,,,"(1129, 885)",,1,84,1.4,"640.0, 512.0",vertical,"(390.0, 762.0)",0.65,0.554,1,1349.539
4,FALSE,231,0.322,19,,,"(1093, 886)",,1,53,0.883333333,"640.0, 512.0",horizontal,"(890.0, 762.0)",1.216666667,0.542,1,1353.06
4,FALSE,232,0.42,25,,,"(1082, 898)",,1,58,0.966666667,"640.0, 512.0",vertical,"(390.0, 262.0)",1.666666667,0.523,1,1356.664
4,FALSE,233,0.872,52,,,"(1071, 902)",,1,84,1.4,"640.0, 512.0",horizontal,"(390.0, 762.0)",1.616666667,0.509,1,1360.784
4,FALSE,234,1.413,84,,,"(1110, 893)",,1,115,1.916666667,"640.0, 512.0",horizontal,"(390.0, 762.0)",1.5,0.494,1,1365.293
4,FALSE,235,1.272,76,,,"(1109, 869)",,1,114,1.9,"640.0, 512.0",horizontal,"(390.0, 762.0)",1.366666667,0.608,1,1370.231
4,FALSE,236,1.157,69,,,"(1100, 868)",,1,79,1.316666667,"640.0, 512.0",vertical,"(390.0, 762.0)",1.233333333,0.15,1,1397.628
4,FALSE,237,0.907,54,,,"(1105, 888)",,1,87,1.45,"640.0, 512.0",horizontal,"(890.0, 262.0)",1.066666667,0.525,1,1401.656
4,FALSE,238,0.524,31,,,"(1139, 902)",,1,64,1.066666667,"640.0, 512.0",vertical,"(390.0, 262.0)",0.733333333,0.52,1,1405.702
4,FALSE,239,1.274,76,,,"(1098, 913)",,1,,,"640.0, 512.0",vertical,"(890.0, 262.0)",,0,0,1408.931
4,FALSE,240,1.446,86,,,"(1104, 889)",,1,117,1.95,"640.0, 512.0",horizontal,"(390.0, 762.0)",0.5,0.49,1,1412.195
5,FALSE,241,1.19,71,,,"(1105, 912)",,1,103,1.716666667,"640.0, 512.0",horizontal,"(390.0, 262.0)",1.683333333,0.514,1,1416.894
5,FALSE,242,1.499,89,,,"(1102, 896)",,1,136,2.266666667,"640.0, 512.0",horizontal,"(390.0, 262.0)",0.8,0.751,1,1421.864
5,FALSE,243,0.365,21,,,"(1092, 889)",,1,59,0.983333333,"640.0, 512.0",vertical,"(390.0, 762.0)",0.95,0.606,1,1426.428
5,FALSE,244,0.47,28,,,"(1115, 899)",,1,78,1.3,"640.0, 512.0",vertical,"(390.0, 762.0)",1.066666667,0.801,0,1429.828
5,FALSE,245,0.897,53,,,"(1063, 886)",,1,87,1.45,"640.0, 512.0",vertical,"(890.0, 262.0)",1.483333333,0.542,1,1433.764
5,FALSE,246,0.898,53,,,"(1084, 890)",,1,93,1.55,"640.0, 512.0",horizontal,"(390.0, 262.0)",1.166666667,0.646,1,1439.114
5,FALSE,247,0.488,29,,,"(1033, 880)",,1,62,1.033333333,"640.0, 512.0",vertical,"(890.0, 262.0)",0.916666667,0.527,1,1443.296
5,FALSE,248,1.081,64,,,"(1056, 910)",,1,105,1.75,"640.0, 512.0",horizontal,"(890.0, 762.0)",0.666666667,0.661,1,1447.146
5,FALSE,249,0.984,59,,,"(1088, 879)",,1,91,1.516666667,"640.0, 512.0",vertical,"(390.0, 762.0)",0.95,0.507,1,1451.071
5,FALSE,250,1.294,77,,,"(1049, 904)",,1,117,1.95,"640.0, 512.0",horizontal,"(390.0, 262.0)",1.316666667,0.643,1,1455.081
5,FALSE,251,1.476,88,,,"(1077, 867)",,1,107,1.783333333,"640.0, 512.0",vertical,"(890.0, 262.0)",1.183333333,0.295,1,1459.904
5,FALSE,252,1.022,61,,,"(1075, 860)",,1,92,1.533333333,"640.0, 512.0",vertical,"(390.0, 762.0)",1.466666667,0.493,1,1464.428
5,FALSE,253,0.941,56,,,"(1063, 886)",,1,88,1.466666667,"640.0, 512.0",horizontal,"(890.0, 262.0)",0.6,0.507,1,1468.992
5,FALSE,254,0.563,33,,,"(1099, 885)",,1,72,1.2,"640.0, 512.0",horizontal,"(390.0, 262.0)",1.5,0.631,1,1472.649
5,FALSE,255,0.779,46,,,"(1102, 890)",,1,75,1.25,"640.0, 512.0",vertical,"(890.0, 262.0)",0.85,0.462,1,1476.828
5,FALSE,256,0.307,18,,,"(1116, 890)",,1,52,0.866666667,"640.0, 512.0",vertical,"(890.0, 762.0)",1.25,0.541,1,1480.429
5,FALSE,257,1.413,84,,,"(1107, 908)",,1,122,2.033333333,"640.0, 512.0",horizontal,"(390.0, 762.0)",1.083333333,0.606,1,1484.041
5,FALSE,258,0.327,19,,,"(1084, 913)",,1,69,1.15,"640.0, 512.0",horizontal,"(890.0, 762.0)",0.733333333,0.809,0,1488.715
5,FALSE,259,1.335,80,,,"(1105, 880)",,1,85,1.416666667,"640.0, 512.0",vertical,"(890.0, 262.0)",1.566666667,0.067,1,1492.116
5,FALSE,260,1.007,60,,,"(1074, 888)",,1,93,1.55,"640.0, 512.0",vertical,"(890.0, 762.0)",0.933333333,0.524,1,1498.112
5,FALSE,261,1.416,84,,,"(1075, 935)",,1,118,1.966666667,"640.0, 512.0",vertical,"(890.0, 762.0)",0.816666667,0.54,1,1502.26
5,FALSE,262,0.851,51,,,"(1084, 869)",,1,88,1.466666667,"640.0, 512.0",vertical,"(890.0, 762.0)",0.55,0.588,1,1506.73
5,FALSE,263,1.128,67,,,"(1112, 901)",,1,100,1.666666667,"640.0, 512.0",horizontal,"(390.0, 262.0)",0.95,0.525,1,1512.912
5,FALSE,264,0.963,57,,,"(1076, 898)",,1,90,1.5,"640.0, 512.0",horizontal,"(390.0, 762.0)",1.566666667,0.519,1,1516.96
5,FALSE,265,0.842,50,,,"(1085, 902)",,1,84,1.4,"640.0, 512.0",horizontal,"(890.0, 762.0)",0.916666667,0.539,1,1521.505
5,FALSE,266,0.913,54,,,"(1069, 898)",,1,92,1.533333333,"640.0, 512.0",vertical,"(390.0, 262.0)",0.6,0.605,1,1525.399
5,FALSE,267,0.921,55,,,"(1051, 867)",,1,89,1.483333333,"640.0, 512.0",horizontal,"(390.0, 762.0)",1.416666667,0.542,1,1529.101
5,FALSE,268,1.149,68,,,"(1073, 887)",,1,,,"640.0, 512.0",vertical,"(390.0, 262.0)",,0,0,1535.769
5,FALSE,269,1.5,90,,,"(1129, 859)",,1,120,2,"640.0, 512.0",vertical,"(890.0, 262.0)",0.9,0.473,1,1539.762
5,FALSE,270,0.996,59,,,"(1030, 888)",,1,109,1.816666667,"640.0, 512.0",horizontal,"(390.0, 262.0)",1.25,0.803,0,1566.555
5,FALSE,271,0.555,33,,,"(1087, 856)",,1,54,0.9,"640.0, 512.0",vertical,"(890.0, 262.0)",1.383333333,0.333,1,1571.149
5,FALSE,272,1.459,87,,,"(1070, 904)",,1,121,2.016666667,"640.0, 512.0",horizontal,"(390.0, 762.0)",0.783333333,0.538,1,1575.158
5,FALSE,273,0.619,37,,,"(1101, 894)",,1,71,1.183333333,"640.0, 512.0",vertical,"(390.0, 262.0)",1.066666667,0.537,1,1579.481
5,FALSE,274,0.721,43,,,"(1074, 894)",,1,72,1.2,"640.0, 512.0",vertical,"(890.0, 262.0)",1.266666667,0.463,1,1583.215
5,FALSE,275,1.416,84,,,"(1053, 884)",,1,119,1.983333333,"640.0, 512.0",horizontal,"(390.0, 762.0)",0.683333333,0.558,1,1587.224
5,FALSE,276,0.305,18,,,"(1067, 937)",,1,51,0.85,"640.0, 512.0",vertical,"(390.0, 262.0)",0.95,0.53,1,1591.371
5,FALSE,277,0.484,29,,1603989,"(1063, 941)","(1091, 936)",1,26,0.433333333,"640.0, 512.0",horizontal,"(890.0, 262.0)",,0,0,1594.87
5,FALSE,278,1.314,78,,,"(1148, 890)",,1,,,"640.0, 512.0",horizontal,"(890.0, 262.0)",,0,0,1596.882
5,FALSE,279,1.096,65,,,"(1135, 885)",,1,99,1.65,"640.0, 512.0",vertical,"(390.0, 762.0)",0.8,0.539,1,1622.444
5,FALSE,280,0.804,48,,,"(1136, 894)",,1,81,1.35,"640.0, 512.0",vertical,"(890.0, 762.0)",1.033333333,0.531,1,1627.694
5,FALSE,281,0.835,50,,,"(1152, 879)",,1,83,1.383333333,"640.0, 512.0",horizontal,"(390.0, 762.0)",1.15,0.522,1,1631.663
5,FALSE,282,1.074,64,,,"(1140, 872)",,1,98,1.633333333,"640.0, 512.0",horizontal,"(890.0, 762.0)",0.55,0.551,1,1635.695
5,FALSE,283,0.788,47,,,"(1160, 875)",,1,80,1.333333333,"640.0, 512.0",vertical,"(390.0, 762.0)",1.616666667,0.526,1,1639.413
5,FALSE,284,1.379,82,,,"(1093, 884)",,1,114,1.9,"640.0, 512.0",vertical,"(390.0, 262.0)",1.45,0.508,1,1662.195
5,FALSE,285,0.687,41,,,"(1102, 880)",,1,76,1.266666667,"640.0, 512.0",vertical,"(890.0, 762.0)",1.6,0.564,1,1667.034
5,FALSE,286,1.03,61,,,"(1113, 909)",,1,95,1.583333333,"640.0, 512.0",horizontal,"(390.0, 762.0)",0.983333333,0.539,1,1671.346
5,FALSE,287,1.25,75,,,"(1102, 904)",,1,112,1.866666667,"640.0, 512.0",horizontal,"(390.0, 762.0)",0.683333333,0.591,1,1675.428
5,FALSE,288,1.372,82,,,"(1079, 882)",,1,117,1.95,"640.0, 512.0",horizontal,"(390.0, 262.0)",1.45,0.561,1,1679.446
5,FALSE,289,0.828,49,,,"(1090, 871)",,1,82,1.366666667,"640.0, 512.0",horizontal,"(890.0, 262.0)",1.266666667,0.527,1,1684.4
5,FALSE,290,1.013,60,,,"(1074, 910)",,1,93,1.55,"640.0, 512.0",horizontal,"(890.0, 762.0)",1.316666667,0.523,1,1689.629
5,FALSE,291,1.241,74,,,"(1093, 898)",,1,105,1.75,"640.0, 512.0",vertical,"(390.0, 262.0)",0.666666667,0.5,1,1694.359
5,FALSE,292,1.271,76,,,"(1069, 902)",,1,109,1.816666667,"640.0, 512.0",horizontal,"(890.0, 262.0)",1.366666667,0.526,1,1698.512
5,FALSE,293,0.558,33,,,"(1073, 919)",,1,65,1.083333333,"640.0, 512.0",horizontal,"(890.0, 262.0)",1.15,0.509,1,1706.762
5,FALSE,294,0.732,43,,,"(1090, 889)",,1,76,1.266666667,"640.0, 512.0",horizontal,"(390.0, 762.0)",1.2,0.53,1,1710.496
5,FALSE,295,0.796,47,,,"(1072, 900)",,1,89,1.483333333,"640.0, 512.0",horizontal,"(390.0, 262.0)",0.783333333,0.676,1,1714.445
5,FALSE,296,0.782,46,,,"(1097, 907)",,1,81,1.35,"640.0, 512.0",vertical,"(890.0, 762.0)",0.95,0.562,1,1718.228
5,FALSE,297,0.503,30,,,"(1100, 894)",,1,80,1.333333333,"640.0, 512.0",horizontal,"(390.0, 762.0)",1.333333333,0.807,0,1722.066
5,FALSE,298,1.272,76,,,"(1074, 875)",,1,110,1.833333333,"640.0, 512.0",vertical,"(890.0, 762.0)",0.866666667,0.548,1,1726.181
5,FALSE,299,1.086,65,,,"(1105, 872)",,1,,,"640.0, 512.0",vertical,"(390.0, 262.0)",,0,0,1748.616
5,FALSE,300,0.759,45,,,"(1054, 894)",,1,82,1.366666667,"640.0, 512.0",vertical,"(890.0, 762.0)",1.5,0.594,1,1752.153
6,FALSE,301,0.664,39,,,"(1090, 903)",,1,73,1.216666667,"640.0, 512.0",horizontal,"(890.0, 762.0)",0.65,0.543,1,1757.081
6,FALSE,302,0.725,43,,,"(1101, 904)",,1,75,1.25,"640.0, 512.0",horizontal,"(890.0, 762.0)",1.15,0.508,1,1760.461
6,FALSE,303,0.434,26,,,"(1113, 910)",,1,68,1.133333333,"640.0, 512.0",vertical,"(390.0, 262.0)",0.8,0.671,1,1764.365
6,FALSE,304,0.754,45,,,"(1091, 899)",,1,80,1.333333333,"640.0, 512.0",vertical,"(890.0, 762.0)",1.55,0.556,1,1767.766
6,FALSE,305,1.385,83,,,"(1091, 910)",,1,119,1.983333333,"640.0, 512.0",horizontal,"(390.0, 762.0)",0.5,0.57,1,1772.23
6,FALSE,306,0.6,36,,,"(1056, 871)",,1,63,1.05,"640.0, 512.0",vertical,"(890.0, 262.0)",1.4,0.426,1,1776.234
6,FALSE,307,1.051,63,,,"(1081, 883)",,1,95,1.583333333,"640.0, 512.0",horizontal,"(890.0, 262.0)",0.983333333,0.515,1,1780.231
6,FALSE,308,0.624,37,,,"(1056, 876)",,1,71,1.183333333,"640.0, 512.0",vertical,"(890.0, 762.0)",1.666666667,0.541,1,1784.315
6,FALSE,309,0.894,53,,,"(1093, 880)",,1,103,1.716666667,"640.0, 512.0",horizontal,"(390.0, 762.0)",1.216666667,"0, 0.809",0,1788.631
6,FALSE,310,0.774,46,,,"(1093, 894)",,1,80,1.333333333,"640.0, 512.0",vertical,"(890.0, 262.0)",1.216666667,0.543,1,1793.809
6,FALSE,311,0.984,59,,,"(1118, 893)",,1,92,1.533333333,"640.0, 512.0",vertical,"(390.0, 762.0)",0.583333333,0.526,1,2088.583
6,FALSE,312,0.99,59,,,"(1076, 885)",,1,99,1.65,"640.0, 512.0",vertical,"(890.0, 762.0)",1.016666667,0.641,1,2092.251
6,FALSE,313,0.946,56,,,"(1075, 880)",,1,,,"640.0, 512.0",vertical,"(390.0, 262.0)",,0,0,2096.421
6,FALSE,314,0.978,58,,,"(1049, 899)",,1,89,1.483333333,"640.0, 512.0",horizontal,"(390.0, 262.0)",1.366666667,0.497,1,2100.374
6,FALSE,315,0.349,20,,,"(1126, 899)",,1,59,0.983333333,"640.0, 512.0",horizontal,"(890.0, 762.0)",1.45,0.621,1,2106.214
6,FALSE,316,0.311,18,,,"(1081, 908)",,1,52,0.866666667,"640.0, 512.0",horizontal,"(890.0, 762.0)",1,0.539,1,2110.148
6,FALSE,317,0.749,44,,,"(1093, 893)",,1,76,1.266666667,"640.0, 512.0",vertical,"(890.0, 762.0)",1.133333333,0.517,1,2113.646
6,FALSE,318,1.274,76,,,"(1087, 884)",,1,110,1.833333333,"640.0, 512.0",horizontal,"(890.0, 762.0)",1.2,0.553,1,2118.448
6,FALSE,319,0.469,28,,,"(1093, 891)",,1,46,0.766666667,"640.0, 512.0",vertical,"(890.0, 262.0)",0.983333333,0.283,1,2123.029
6,FALSE,320,0.301,18,,,"(1085, 889)",,1,58,0.966666667,"640.0, 512.0",vertical,"(890.0, 262.0)",0.733333333,0.643,1,2126.278
6,FALSE,321,1.209,72,,,"(1075, 902)",,1,,,"640.0, 512.0",vertical,"(890.0, 762.0)",,0,0,2129.53
6,FALSE,322,0.681,40,,,"(1148, 895)",,1,73,1.216666667,"640.0, 512.0",horizontal,"(890.0, 762.0)",0.883333333,0.526,1,2133.75
6,FALSE,323,1.145,68,,,"(1130, 875)",,1,,,"640.0, 512.0",vertical,"(890.0, 262.0)",,0,0,2138.101
6,FALSE,324,0.69,41,,,"(1077, 880)",,1,82,1.366666667,"640.0, 512.0",horizontal,"(890.0, 262.0)",1.166666667,0.655,1,2141.947
6,FALSE,325,1.4,84,,2155696,"(1140, 899)","(1081, 903)",1,56,0.933333333,"640.0, 512.0",horizontal,"(390.0, 762.0)",,0,0,2146.179
6,FALSE,326,1.028,61,,,"(1190, 893)",,1,106,1.766666667,"640.0, 512.0",vertical,"(890.0, 262.0)",0.866666667,0.731,1,2148.599
6,FALSE,327,1.418,85,,,"(1116, 878)",,1,120,2,"640.0, 512.0",vertical,"(390.0, 762.0)",0.9,0.56,1,2174.09
6,FALSE,328,0.588,35,,,"(1123, 875)",,1,74,1.233333333,"640.0, 512.0",horizontal,"(390.0, 762.0)",0.666666667,0.625,1,2178.442
6,FALSE,329,1.354,81,,,"(1101, 896)",,1,118,1.966666667,"640.0, 512.0",vertical,"(890.0, 262.0)",0.5,0.601,1,2181.765
6,FALSE,330,0.835,50,,,"(1093, 895)",,1,,,"640.0, 512.0",horizontal,"(390.0, 762.0)",,0,0,2185.73
6,FALSE,331,1.217,73,,,"(1063, 907)",,1,109,1.816666667,"640.0, 512.0",horizontal,"(890.0, 262.0)",0.766666667,0.573,1,2189.282
6,FALSE,332,0.606,36,,,"(1069, 890)",,1,75,1.25,"640.0, 512.0",vertical,"(890.0, 762.0)",1.233333333,0.622,1,2194.746
6,FALSE,333,1.211,72,,,"(1056, 893)",,1,104,1.733333333,"640.0, 512.0",vertical,"(890.0, 762.0)",0.883333333,0.503,1,2200.396
6,FALSE,334,0.46,27,,,"(1076, 877)",,1,62,1.033333333,"640.0, 512.0",vertical,"(390.0, 262.0)",1.683333333,0.554,1,2204.502
6,FALSE,335,1.102,66,,,"(1148, 736), (1203, 854)",,"0, 1",95,1.583333333,"640.0, 512.0",vertical,"(890.0, 262.0)",0.716666667,0.456,1,2208.814
6,FALSE,336,0.438,26,,,"(1093, 915)",,1,62,1.033333333,"640.0, 512.0",horizontal,"(390.0, 762.0)",1.583333333,0.571,1,2213.233
6,FALSE,337,0.974,58,,,"(1076, 916)",,1,93,1.55,"640.0, 512.0",horizontal,"(390.0, 762.0)",1.65,0.556,1,2217.318
6,FALSE,338,0.476,28,,,"(1068, 896)",,1,63,1.05,"640.0, 512.0",vertical,"(390.0, 262.0)",1.533333333,0.554,1,2222.019
6,FALSE,339,0.97,58,,,"(1099, 868)",,1,94,1.566666667,"640.0, 512.0",horizontal,"(390.0, 262.0)",0.716666667,0.573,1,2226.105
6,FALSE,340,1.274,76,,,"(1073, 902)",,1,104,1.733333333,"640.0, 512.0",vertical,"(390.0, 262.0)",1.483333333,0.444,1,2229.87
6,FALSE,341,0.436,26,,,"(1176, 887)",,1,63,1.05,"640.0, 512.0",horizontal,"(890.0, 262.0)",0.75,0.594,1,2234.556
6,FALSE,342,0.443,26,,,"(1076, 895)",,1,61,1.016666667,"640.0, 512.0",horizontal,"(390.0, 762.0)",1.4,0.556,1,2237.861
6,FALSE,343,0.787,47,,,"(1091, 890)",,1,81,1.35,"640.0, 512.0",vertical,"(390.0, 262.0)",1.083333333,0.543,1,2241.767
6,FALSE,344,0.357,21,,,"(1081, 898)",,1,71,1.183333333,"640.0, 512.0",horizontal,"(390.0, 262.0)",0.966666667,0.8,0,2246.747
6,FALSE,345,1.121,67,,,"(1082, 859)",,1,103,1.716666667,"640.0, 512.0",vertical,"(890.0, 762.0)",1.233333333,0.571,1,2250.417
6,FALSE,346,0.344,20,,,"(1097, 876)",,1,63,1.05,"640.0, 512.0",vertical,"(890.0, 762.0)",0.533333333,0.686,1,2255.23
6,FALSE,347,0.357,21,,,"(1068, 908)",,1,71,1.183333333,"640.0, 512.0",vertical,"(890.0, 762.0)",0.666666667,0.799,0,2258.232
6,FALSE,348,0.494,29,,,"(1142, 870)",,1,74,1.233333333,"640.0, 512.0",vertical,"(890.0, 262.0)",0.966666667,0.723,1,2261.58
6,FALSE,349,0.892,53,,,"(1074, 880)",,1,103,1.716666667,"640.0, 512.0",horizontal,"(390.0, 262.0)",1.066666667,0.808,0,2283.94
6,FALSE,350,0.987,59,,,"(1129, 896)",,1,101,1.683333333,"640.0, 512.0",vertical,"(890.0, 762.0)",1.033333333,0.671,1,2289.963
6,FALSE,351,0.808,48,,,"(1114, 894)",,1,86,1.433333333,"640.0, 512.0",vertical,"(390.0, 762.0)",1.566666667,0.605,1,2301.269
6,FALSE,352,1.073,64,,,"(1111, 859)",,1,108,1.8,"640.0, 512.0",vertical,"(890.0, 262.0)",1.5,0.717,1,2305.728
6,FALSE,353,0.932,55,,,"(1074, 856)",,1,87,1.45,"640.0, 512.0",vertical,"(890.0, 762.0)",1.366666667,0.509,1,2310.467
6,FALSE,354,1.068,64,,,"(1066, 877)",,1,109,1.816666667,"640.0, 512.0",vertical,"(390.0, 262.0)",1.283333333,0.721,1,2331.863
6,FALSE,355,1.424,85,,,"(1080, 903)",,1,128,2.133333333,"640.0, 512.0",horizontal,"(890.0, 762.0)",1.2,0.692,1,2336.446
6,FALSE,356,0.62,37,,,"(1080, 894)",,1,77,1.283333333,"640.0, 512.0",horizontal,"(890.0, 762.0)",0.816666667,0.639,1,2341.279
6,FALSE,357,1.416,84,,,"(1094, 914)",,1,118,1.966666667,"640.0, 512.0",horizontal,"(390.0, 762.0)",1.516666667,0.544,1,2344.835
6,FALSE,358,0.859,51,,,"(1112, 905)",,1,83,1.383333333,"640.0, 512.0",horizontal,"(890.0, 762.0)",1.066666667,0.512,1,2349.868
6,FALSE,359,0.6,36,,,"(1084, 913)",,1,68,1.133333333,"640.0, 512.0",vertical,"(390.0, 762.0)",0.85,0.51,1,2353.783
6,FALSE,360,1.349,80,,,"(1077, 907)",,1,111,1.85,"640.0, 512.0",vertical,"(890.0, 262.0)",0.7,0.488,1,2357.247
7,FALSE,361,1.25,75,,,"(1053, 912)",,1,110,1.833333333,"640.0, 512.0",horizontal,"(890.0, 762.0)",1,0.558,1,2361.298
7,FALSE,362,0.66,39,,,"(1080, 906)",,1,71,1.183333333,"640.0, 512.0",horizontal,"(390.0, 762.0)",1.583333333,0.502,1,2365.632
7,FALSE,363,1.02,61,,,"(1101, 878)",,1,77,1.283333333,"640.0, 512.0",vertical,"(890.0, 262.0)",1.666666667,0.25,1,2369.851
7,FALSE,364,0.568,34,,,"(1085, 871)",,1,70,1.166666667,"640.0, 512.0",horizontal,"(390.0, 762.0)",1.216666667,0.578,1,2374.342
7,FALSE,365,0.843,50,,,"(1089, 881)",,1,81,1.35,"640.0, 512.0",horizontal,"(390.0, 762.0)",1.466666667,0.496,1,2380.835
7,FALSE,366,0.316,18,,,"(1074, 893)",,1,59,0.983333333,"640.0, 512.0",vertical,"(390.0, 762.0)",1.35,0.653,1,2385.202
7,FALSE,367,0.586,35,,,"(1074, 894)",,1,71,1.183333333,"640.0, 512.0",horizontal,"(890.0, 762.0)",0.75,0.573,1,2389.033
7,FALSE,368,1.293,77,,,"(1074, 888)",,1,109,1.816666667,"640.0, 512.0",vertical,"(390.0, 262.0)",1.416666667,0.508,1,2396.466
7,FALSE,369,1.008,60,,,"(1123, 901)",,1,95,1.583333333,"640.0, 512.0",horizontal,"(390.0, 262.0)",1.516666667,0.555,1,2401.141
7,FALSE,370,0.409,24,,,"(1085, 876)",,1,64,1.066666667,"640.0, 512.0",horizontal,"(390.0, 762.0)",1.633333333,0.646,1,2405.752
7,FALSE,371,1.117,67,,,"(1063, 913)",,1,105,1.75,"640.0, 512.0",vertical,"(390.0, 762.0)",1.633333333,0.606,1,2409.916
7,FALSE,372,1.265,75,,,"(1093, 903)",,1,120,2,"640.0, 512.0",horizontal,"(890.0, 262.0)",1.616666667,0.716,1,2414.819
7,FALSE,373,1.395,83,,,"(1081, 908)",,1,118,1.966666667,"640.0, 512.0",horizontal,"(390.0, 762.0)",0.866666667,0.557,1,2419.878
7,FALSE,374,0.433,25,,,"(1093, 886)",,1,58,0.966666667,"640.0, 512.0",horizontal,"(890.0, 262.0)",1.166666667,0.525,1,2424.266
7,FALSE,375,1.403,84,,,"(1087, 904)",,1,119,1.983333333,"640.0, 512.0",vertical,"(890.0, 762.0)",1.633333333,0.557,1,2427.857
7,FALSE,376,0.582,34,,,"(1074, 876)",,1,77,1.283333333,"640.0, 512.0",vertical,"(890.0, 262.0)",0.65,0.686,1,2432.964
7,FALSE,377,1.12,67,,,"(1093, 897)",,1,103,1.716666667,"640.0, 512.0",horizontal,"(890.0, 762.0)",0.933333333,0.578,1,2438.068
7,FALSE,378,0.895,53,,,"(1099, 907)",,1,93,1.55,"640.0, 512.0",vertical,"(890.0, 762.0)",1.216666667,0.643,1,2442.246
7,FALSE,379,0.875,52,,,"(1044, 865)",,1,86,1.433333333,"640.0, 512.0",horizontal,"(390.0, 262.0)",0.733333333,0.545,1,2446.495
7,FALSE,380,0.327,19,,,"(1123, 894)",,1,55,0.916666667,"640.0, 512.0",horizontal,"(890.0, 262.0)",0.7,0.592,1,2450.856
7,FALSE,381,1.165,69,,,"(1081, 902)",,1,103,1.716666667,"640.0, 512.0",horizontal,"(890.0, 762.0)",0.966666667,0.537,1,2454.111
7,FALSE,382,0.712,42,,,"(1093, 884)",,1,73,1.216666667,"640.0, 512.0",vertical,"(890.0, 262.0)",1.05,0.493,1,2458.284
7,FALSE,383,1.339,80,,,"(1092, 898)",,1,114,1.9,"640.0, 512.0",horizontal,"(890.0, 762.0)",0.5,0.539,1,2463.834
7,FALSE,384,0.515,30,,,"(1081, 910)",,1,64,1.066666667,"640.0, 512.0",horizontal,"(890.0, 762.0)",1.166666667,0.552,1,2467.686
7,FALSE,385,1.125,67,,,"(1091, 871)",,1,105,1.75,"640.0, 512.0",vertical,"(390.0, 762.0)",1.1,0.606,1,2471.428
7,FALSE,386,1.278,76,,,"(1056, 905)",,1,118,1.966666667,"640.0, 512.0",vertical,"(890.0, 762.0)",0.75,0.674,1,2475.743
7,FALSE,387,0.586,35,,,"(1100, 941)",,1,73,1.216666667,"640.0, 512.0",horizontal,"(890.0, 762.0)",0.833333333,0.604,1,2480.058
7,FALSE,388,0.515,30,,,"(1074, 905)",,1,63,1.05,"640.0, 512.0",vertical,"(890.0, 262.0)",1.033333333,0.525,1,2483.614
7,FALSE,389,1.204,72,,,"(1093, 917)",,1,105,1.75,"640.0, 512.0",horizontal,"(890.0, 262.0)",1.416666667,0.526,1,2487.199
7,FALSE,390,0.766,45,,2734871,"(1203, 929)","(1203, 929)",1,9,0.15,"640.0, 512.0",horizontal,"(890.0, 762.0)",,0,0,2491.884
7,FALSE,391,1.46,87,,,"(1104, 897)",,1,119,1.983333333,"640.0, 512.0",vertical,"(890.0, 762.0)",0.55,0.508,1,2727.783
7,FALSE,392,1.009,60,,,"(1098, 906)",,1,96,1.6,"640.0, 512.0",vertical,"(890.0, 762.0)",1.033333333,0.567,1,2824.599
7,FALSE,393,0.319,19,,,"(1059, 896)",,1,52,0.866666667,"640.0, 512.0",horizontal,"(390.0, 762.0)",1.533333333,0.523,1,2828.699
7,FALSE,394,0.521,31,,2841486,"(1142, 894)","(1154, 890)",1,8,0.133333333,"640.0, 512.0",horizontal,"(890.0, 762.0)",,0,0,2832.584
7,FALSE,395,1.086,65,,,"(1114, 913)",,1,96,1.6,"640.0, 512.0",horizontal,"(390.0, 762.0)",0.733333333,0.492,1,2834.388
7,FALSE,396,0.503,30,,,"(1066, 872)",,1,64,1.066666667,"640.0, 512.0",vertical,"(890.0, 262.0)",1.183333333,0.538,1,2861.607
7,FALSE,397,1.211,72,,,"(1110, 868)",,1,122,2.033333333,"640.0, 512.0",horizontal,"(890.0, 762.0)",0.5,0.803,0,2865.353
7,FALSE,398,0.756,45,,,"(1104, 880)",,1,85,1.416666667,"640.0, 512.0",horizontal,"(390.0, 762.0)",0.65,0.637,1,2869.338
7,FALSE,399,1.342,80,,,"(1081, 890)",,1,112,1.866666667,"640.0, 512.0",vertical,"(390.0, 762.0)",1.133333333,0.513,1,2872.976
7,FALSE,400,0.837,50,,,"(1107, 869)",,1,100,1.666666667,"640.0, 512.0",vertical,"(390.0, 262.0)",1.583333333,"0, 0.799",0,2877.448
7,FALSE,401,1.221,73,,,"(1117, 894)",,1,100,1.666666667,"640.0, 512.0",horizontal,"(390.0, 262.0)",0.983333333,0.422,1,2998.342
7,FALSE,402,0.832,49,,,"(1103, 876)",,1,81,1.35,"640.0, 512.0",vertical,"(890.0, 262.0)",1.35,0.509,1,3002.461
7,FALSE,403,0.801,48,,,"(1106, 867)",,1,78,1.3,"640.0, 512.0",horizontal,"(390.0, 762.0)",1.6,0.477,1,3006.689
7,FALSE,404,0.396,23,,,"(1099, 889)",,1,56,0.933333333,"640.0, 512.0",horizontal,"(390.0, 762.0)",1.066666667,0.521,1,3011.099
7,FALSE,405,0.552,33,,,"(1107, 906)",,1,65,1.083333333,"640.0, 512.0",vertical,"(890.0, 762.0)",0.833333333,0.51,1,3014.598
7,FALSE,406,1.488,89,,,"(1096, 899)",,1,118,1.966666667,"640.0, 512.0",vertical,"(890.0, 262.0)",1.116666667,0.456,1,3018.019
7,FALSE,407,0.897,53,,,"(1123, 880)",,1,90,1.5,"640.0, 512.0",vertical,"(390.0, 762.0)",1.233333333,0.587,1,3022.567
7,FALSE,408,0.614,36,,,"(1077, 894)",,1,67,1.116666667,"640.0, 512.0",vertical,"(390.0, 762.0)",1.233333333,0.496,1,3026.73
7,FALSE,409,1.218,73,,,"(1091, 873)",,1,107,1.783333333,"640.0, 512.0",vertical,"(890.0, 762.0)",0.683333333,0.541,1,3030.617
7,FALSE,410,0.497,29,,,"(1121, 911)",,1,58,0.966666667,"640.0, 512.0",vertical,"(390.0, 262.0)",1.55,0.458,1,3034.566
7,FALSE,411,1.085,65,,,"(1093, 899)",,1,95,1.583333333,"640.0, 512.0",vertical,"(390.0, 262.0)",0.616666667,0.477,1,3038.542
7,FALSE,412,1.289,77,,,"(1099, 878)",,1,114,1.9,"640.0, 512.0",vertical,"(890.0, 762.0)",0.666666667,0.588,1,3042.265
7,FALSE,413,0.338,20,,,"(1095, 901)",,1,56,0.933333333,"640.0, 512.0",horizontal,"(890.0, 262.0)",0.55,0.578,1,3046.316
7,FALSE,414,0.641,38,,,"(1087, 883)",,1,71,1.183333333,"640.0, 512.0",horizontal,"(390.0, 762.0)",0.9,0.53,1,3049.331
7,FALSE,415,1.282,76,,,"(1123, 893)",,1,111,1.85,"640.0, 512.0",vertical,"(890.0, 262.0)",1.35,0.559,1,3053.726
7,FALSE,416,0.439,26,,,"(1078, 887)",,1,60,1,"640.0, 512.0",vertical,"(390.0, 262.0)",0.85,0.542,1,3058.411
7,FALSE,417,0.883,52,,,"(1107, 897)",,1,89,1.483333333,"640.0, 512.0",vertical,"(890.0, 762.0)",0.983333333,0.59,1,3061.779
7,FALSE,418,1.193,71,,,"(1109, 910)",,1,105,1.75,"640.0, 512.0",vertical,"(890.0, 762.0)",1.15,0.54,1,3065.808
7,FALSE,419,0.326,19,,,"(1128, 914)",,1,54,0.9,"640.0, 512.0",horizontal,"(890.0, 762.0)",0.983333333,0.555,1,3070.271
7,FALSE,420,1.433,85,,,"(1101, 914)",,1,114,1.9,"640.0, 512.0",vertical,"(890.0, 262.0)",1.4,0.464,1,3073.65
8,FALSE,421,1.187,71,,,"(1120, 907)",,1,115,1.916666667,"640.0, 512.0",horizontal,"(890.0, 262.0)",0.966666667,0.711,1,3078.421
8,FALSE,422,0.786,47,,,"(1116, 908)",,1,84,1.4,"640.0, 512.0",vertical,"(390.0, 262.0)",1.483333333,0.586,1,3082.784
8,FALSE,423,0.785,47,,,"(1123, 872)",,1,83,1.383333333,"640.0, 512.0",horizontal,"(390.0, 762.0)",0.933333333,0.572,1,3087.155
8,FALSE,424,1.402,84,,,"(1103, 897)",,1,118,1.966666667,"640.0, 512.0",vertical,"(890.0, 762.0)",0.633333333,0.541,1,3091.054
8,FALSE,425,0.793,47,,,"(1080, 908)",,1,72,1.2,"640.0, 512.0",vertical,"(390.0, 262.0)",1.283333333,0.396,1,3095.139
8,FALSE,426,0.527,31,,,"(1106, 889)",,1,81,1.35,"640.0, 512.0",vertical,"(890.0, 762.0)",1.4,0.806,0,3099.105
8,FALSE,427,0.594,35,,,"(1123, 868)",,1,75,1.25,"640.0, 512.0",vertical,"(890.0, 262.0)",1.2,0.648,1,3103.366
8,FALSE,428,0.634,38,,,"(1099, 863)",,1,75,1.25,"640.0, 512.0",horizontal,"(890.0, 762.0)",1.333333333,0.584,1,3107.689
8,FALSE,429,0.477,28,,,"(1120, 880)",,1,62,1.033333333,"640.0, 512.0",vertical,"(890.0, 262.0)",1.55,0.541,1,3111.709
8,FALSE,430,0.509,30,,,"(1124, 889)",,1,61,1.016666667,"640.0, 512.0",horizontal,"(890.0, 262.0)",1.183333333,0.496,1,3115.749
8,FALSE,431,1.353,81,,,"(1099, 910)",,1,115,1.916666667,"640.0, 512.0",horizontal,"(890.0, 262.0)",0.8,0.543,1,3119.416
8,FALSE,432,0.52,31,,,"(1112, 912)",,1,66,1.1,"640.0, 512.0",vertical,"(390.0, 262.0)",0.616666667,0.56,1,3123.619
8,FALSE,433,0.404,24,,,"(1073, 892)",,1,59,0.983333333,"640.0, 512.0",horizontal,"(390.0, 762.0)",1.216666667,0.553,1,3126.831
8,FALSE,434,0.416,24,,,"(1154, 885)",,1,59,0.983333333,"640.0, 512.0",horizontal,"(890.0, 262.0)",1.483333333,0.556,1,3136.801
8,FALSE,435,0.747,44,,,"(1107, 918)",,1,78,1.3,"640.0, 512.0",vertical,"(890.0, 762.0)",0.583333333,0.551,1,3140.77
8,FALSE,436,0.624,37,,,"(1109, 910)",,1,70,1.166666667,"640.0, 512.0",vertical,"(390.0, 762.0)",1.233333333,0.529,1,3144.172
8,FALSE,437,0.675,40,,,"(1111, 909)",,1,73,1.216666667,"640.0, 512.0",vertical,"(390.0, 762.0)",1.033333333,0.532,1,3148.08
8,FALSE,438,0.468,28,,,"(1099, 890)",,1,66,1.1,"640.0, 512.0",vertical,"(890.0, 762.0)",1.466666667,0.609,1,3151.818
8,FALSE,439,0.749,44,,,"(1099, 889)",,1,77,1.283333333,"640.0, 512.0",horizontal,"(890.0, 762.0)",0.733333333,0.521,1,3155.886
8,FALSE,440,0.923,55,,,"(1077, 907)",,1,88,1.466666667,"640.0, 512.0",vertical,"(390.0, 262.0)",1.416666667,0.529,1,3159.4
8,FALSE,441,0.435,26,,,"(1099, 909)",,1,56,0.933333333,"640.0, 512.0",vertical,"(890.0, 262.0)",1.1,0.474,1,3163.863
8,FALSE,442,1.016,60,,,"(1117, 907)",,1,95,1.583333333,"640.0, 512.0",vertical,"(890.0, 762.0)",0.583333333,0.559,1,3167.368
8,FALSE,443,0.91,54,,,"(1101, 906)",,1,87,1.45,"640.0, 512.0",vertical,"(390.0, 262.0)",1.116666667,0.53,1,3171.02
8,FALSE,444,1.316,78,,,"(1110, 901)",,1,114,1.9,"640.0, 512.0",horizontal,"(890.0, 762.0)",1.566666667,0.57,1,3175.082
8,FALSE,445,1.368,82,,,"(1110, 905)",,1,121,2.016666667,"640.0, 512.0",vertical,"(890.0, 762.0)",0.683333333,0.62,1,3180.076
8,FALSE,446,0.461,27,,,"(1107, 913)",,1,60,1,"640.0, 512.0",horizontal,"(890.0, 262.0)",0.95,0.521,1,3184.269
8,FALSE,447,1.326,79,,,"(1078, 906)",,1,118,1.966666667,"640.0, 512.0",vertical,"(390.0, 762.0)",1.516666667,0.617,1,3187.775
8,FALSE,448,0.522,31,,,"(1099, 910)",,1,72,1.2,"640.0, 512.0",vertical,"(890.0, 762.0)",0.983333333,0.655,1,3193.032
8,FALSE,449,1.218,73,,,"(1079, 888)",,1,109,1.816666667,"640.0, 512.0",horizontal,"(890.0, 262.0)",1.616666667,0.576,1,3196.739
8,FALSE,450,0.846,50,,,"(1123, 873)",,1,83,1.383333333,"640.0, 512.0",vertical,"(390.0, 262.0)",0.533333333,0.527,1,3201.686
8,FALSE,451,1.107,66,,,"(1143, 876)",,1,100,1.666666667,"640.0, 512.0",vertical,"(890.0, 762.0)",1.333333333,0.541,1,3205.048
8,FALSE,452,1.079,64,,,"(1091, 907)",,1,96,1.6,"640.0, 512.0",vertical,"(390.0, 762.0)",0.866666667,0.512,1,3209.537
8,FALSE,453,0.491,29,,,"(1111, 897)",,1,64,1.066666667,"640.0, 512.0",vertical,"(390.0, 762.0)",0.733333333,0.561,1,3213.552
8,FALSE,454,0.368,22,,,"(1099, 890)",,1,55,0.916666667,"640.0, 512.0",vertical,"(390.0, 262.0)",1.4,0.529,1,3216.822
8,FALSE,455,1.026,61,,,"(1075, 913)",,1,96,1.6,"640.0, 512.0",horizontal,"(890.0, 762.0)",1.283333333,0.555,1,3220.688
8,FALSE,456,1.364,81,,,"(1119, 893)",,1,120,2,"640.0, 512.0",horizontal,"(890.0, 762.0)",1,0.625,1,3225.065
8,FALSE,457,1.064,63,,,"(1099, 892)",,1,99,1.65,"640.0, 512.0",horizontal,"(390.0, 762.0)",1.1,0.57,1,3229.602
8,FALSE,458,1.099,65,,,"(1097, 905)",,1,111,1.85,"640.0, 512.0",vertical,"(890.0, 262.0)",0.5,0.739,1,3233.866
8,FALSE,459,0.394,23,,,"(1075, 905)",,1,59,0.983333333,"640.0, 512.0",horizontal,"(890.0, 762.0)",0.75,0.575,1,3237.704
8,FALSE,460,0.746,44,,,"(1125, 908)",,1,94,1.566666667,"640.0, 512.0",horizontal,"(890.0, 762.0)",1.683333333,0.802,0,3240.967
8,FALSE,461,1.027,61,,,"(1110, 911)",,1,63,1.05,"640.0, 512.0",horizontal,"(390.0, 262.0)",0.75,0.02,1,3245.733
8,FALSE,462,0.815,48,,,"(1087, 903)",,1,72,1.2,"640.0, 512.0",vertical,"(390.0, 262.0)",1.333333333,0.377,1,3249.138
8,FALSE,463,0.811,48,,,"(1097, 923)",,1,82,1.366666667,"640.0, 512.0",horizontal,"(390.0, 762.0)",1.483333333,0.543,1,3253.234
8,FALSE,464,0.583,34,,,"(1118, 894)",,1,76,1.266666667,"640.0, 512.0",vertical,"(390.0, 262.0)",1.283333333,0.678,1,3257.606
8,FALSE,465,0.935,56,,,"(1122, 912)",,1,91,1.516666667,"640.0, 512.0",horizontal,"(890.0, 762.0)",1.183333333,0.552,1,3262.35
8,FALSE,466,0.984,59,,,"(1063, 899)",,1,98,1.633333333,"640.0, 512.0",vertical,"(890.0, 262.0)",0.75,0.624,1,3266.554
8,FALSE,467,0.771,46,,,"(1075, 911)",,1,79,1.316666667,"640.0, 512.0",vertical,"(890.0, 762.0)",1.35,0.535,1,3270.477
8,FALSE,468,0.626,37,,,"(1138, 882)",,1,68,1.133333333,"640.0, 512.0",horizontal,"(890.0, 762.0)",0.516666667,0.491,1,3274.683
8,FALSE,469,1.056,63,,,"(1106, 900)",,1,96,1.6,"640.0, 512.0",vertical,"(390.0, 762.0)",0.816666667,0.522,1,3277.804
8,FALSE,470,0.308,18,,,"(1081, 913)",,1,52,0.866666667,"640.0, 512.0",horizontal,"(890.0, 262.0)",0.6,0.538,1,3281.738
8,FALSE,471,1.074,64,,,"(1101, 917)",,1,114,1.9,"640.0, 512.0",horizontal,"(890.0, 762.0)",1.283333333,0.799,0,3284.72
8,FALSE,472,0.827,49,,,"(1100, 880)",,1,,,"640.0, 512.0",horizontal,"(890.0, 762.0)",,0,0,3289.614
8,FALSE,473,0.647,38,,,"(1106, 913)",,1,55,0.916666667,"640.0, 512.0",vertical,"(890.0, 262.0)",1.55,0.268,1,3293.449
8,FALSE,474,0.814,48,,,"(1129, 894)",,1,87,1.45,"640.0, 512.0",vertical,"(390.0, 262.0)",0.75,0.628,1,3297.671
8,FALSE,475,0.924,55,,,"(1093, 913)",,1,91,1.516666667,"640.0, 512.0",horizontal,"(390.0, 262.0)",0.616666667,0.577,1,3301.365
8,FALSE,476,1.403,84,,,"(1094, 883)",,1,119,1.983333333,"640.0, 512.0",horizontal,"(890.0, 762.0)",1.166666667,0.558,1,3304.99
8,FALSE,477,0.697,41,,,"(1091, 912)",,1,51,0.85,"640.0, 512.0",vertical,"(890.0, 262.0)",1.533333333,0.149,1,3309.632
8,FALSE,478,0.689,41,,,"(1101, 918)",,1,73,1.216666667,"640.0, 512.0",horizontal,"(390.0, 762.0)",1.3,0.505,1,3313.521
8,FALSE,479,1.468,88,,,"(1099, 886)",,1,117,1.95,"640.0, 512.0",vertical,"(890.0, 262.0)",0.833333333,0.459,1,3317.582
8,FALSE,480,0.846,50,,,"(1110, 903)",,1,82,1.366666667,"640.0, 512.0",horizontal,"(890.0, 262.0)",0.8,0.505,1,3321.863
9,FALSE,481,1.392,83,,,"(1099, 897)",,1,123,2.05,"640.0, 512.0",vertical,"(390.0, 262.0)",1.416666667,0.638,1,3325.623
9,FALSE,482,0.518,31,,,"(1093, 910)",,1,68,1.133333333,"640.0, 512.0",horizontal,"(890.0, 762.0)",1.4,0.592,1,3330.666
9,FALSE,483,1.12,67,,,"(1097, 923)",,1,101,1.683333333,"640.0, 512.0",vertical,"(390.0, 762.0)",0.7,0.542,1,3334.676
9,FALSE,484,0.38,22,,,"(1065, 900)",,1,56,0.933333333,"640.0, 512.0",vertical,"(890.0, 762.0)",1.083333333,0.546,1,3338.626
9,FALSE,485,0.855,51,,,"(1087, 918)",,1,87,1.45,"640.0, 512.0",horizontal,"(890.0, 262.0)",1.566666667,0.577,1,3342.205
9,FALSE,486,1.499,89,,,"(1107, 901)",,1,133,2.216666667,"640.0, 512.0",vertical,"(390.0, 762.0)",1.1,0.704,1,3346.757
9,FALSE,487,0.835,50,,,"(1087, 888)",,1,92,1.533333333,"640.0, 512.0",horizontal,"(890.0, 762.0)",1.316666667,0.671,1,3351.621
9,FALSE,488,1.194,71,,,"(1101, 917)",,1,111,1.85,"640.0, 512.0",vertical,"(390.0, 262.0)",0.75,0.639,1,3356.047
9,FALSE,489,0.92,55,,,"(1099, 901)",,1,92,1.533333333,"640.0, 512.0",vertical,"(890.0, 762.0)",1.4,0.595,1,3360.126
9,FALSE,490,1.24,74,,,"(1117, 889)",,1,103,1.716666667,"640.0, 512.0",vertical,"(890.0, 262.0)",0.866666667,0.461,1,3364.621
9,FALSE,491,1.319,79,,,"(1097, 897)",,1,,,"640.0, 512.0",vertical,"(390.0, 262.0)",,0,0,3368.681
9,FALSE,492,0.905,54,,,"(1050, 884)",,1,90,1.5,"640.0, 512.0",vertical,"(890.0, 762.0)",1.3,0.575,1,3372.576
9,FALSE,493,0.306,18,,,"(1094, 888)",,1,53,0.883333333,"640.0, 512.0",horizontal,"(390.0, 762.0)",1.466666667,0.559,1,3383.681
9,FALSE,494,1,60,,,"(1113, 925)",,1,110,1.833333333,"640.0, 512.0",vertical,"(390.0, 262.0)",0.55,0.796,0,3387.529
9,FALSE,495,0.862,51,,,"(1147, 889)",,1,83,1.383333333,"640.0, 512.0",horizontal,"(890.0, 262.0)",0.883333333,0.513,1,3391.439
9,FALSE,496,1.486,89,,,"(1101, 892)",,1,120,2,"640.0, 512.0",horizontal,"(390.0, 262.0)",0.966666667,0.496,1,3404.639
9,FALSE,497,1.041,62,,,"(1101, 912)",,1,91,1.516666667,"640.0, 512.0",horizontal,"(890.0, 262.0)",1.416666667,0.46,1,3409.104
9,FALSE,498,1.173,70,,,"(1093, 883)",,1,103,1.716666667,"640.0, 512.0",vertical,"(890.0, 262.0)",1.033333333,0.523,1,3413.549
9,FALSE,499,0.736,44,,,"(1063, 887)",,1,77,1.283333333,"640.0, 512.0",vertical,"(390.0, 262.0)",0.966666667,0.525,1,3417.856
9,FALSE,500,0.478,28,,,"(1082, 904)",,1,58,0.966666667,"640.0, 512.0",vertical,"(890.0, 262.0)",1.083333333,0.473,1,3422.451
9,FALSE,501,0.679,40,,,"(800, 366), (643, 414), (843, 504), (629, 587), (1074, 589), (830, 494), (916, 381), (795, 521), (760, 314), (37, 562), (68, 501), (954, 808), (62, 526), (62, 512), (586, 624), (940, 649), (757, 569), (723, 531), (515, 445), (19, 583), (74, 524), (55, 670), (123, 684), (129, 583), (133, 688), (958, 718), (74, 713), (101, 736), (385, 751), (527, 741), (965, 753), (751, 765), (177, 549), (416, 516), (190, 507), (190, 583), (31, 636), (1091, 911)",,"0, 0, 0, 0, 0, 0, 0, 0, 0, 0, 0, 0, 0, 0, 0, 0, 0, 0, 0, 0, 0, 0, 0, 0, 0, 0, 0, 0, 0, 0, 0, 0, 0, 0, 0, 0, 0, 1",,,"640.0, 512.0",horizontal,"(890.0, 762.0)",,0,0,3426.031
9,FALSE,502,0.657,39,,,"(1118, 896)",,1,75,1.25,"640.0, 512.0",vertical,"(890.0, 762.0)",1.333333333,0.576,1,4185.047
9,FALSE,503,1.461,87,,,"(1053, 906)",,1,,,"640.0, 512.0",horizontal,"(890.0, 762.0)",,0,0,4189.619
9,FALSE,504,0.632,37,,,"(1155, 913)",,1,72,1.2,"640.0, 512.0",horizontal,"(390.0, 762.0)",0.85,0.555,1,4194.15
9,FALSE,505,1.166,69,,,"(1102, 869)",,1,103,1.716666667,"640.0, 512.0",vertical,"(390.0, 262.0)",0.9,0.539,1,4198.693
9,FALSE,506,1.076,64,,,"(1133, 891)",,1,102,1.7,"640.0, 512.0",horizontal,"(890.0, 262.0)",0.783333333,0.611,1,4202.753
9,FALSE,507,0.661,39,,,"(1068, 871)",,1,64,1.066666667,"640.0, 512.0",horizontal,"(890.0, 762.0)",1.3,0.393,1,4206.722
9,FALSE,508,0.999,59,,,"(1200, 880)",,1,109,1.816666667,"640.0, 512.0",horizontal,"(890.0, 762.0)",1.316666667,0.802,0,4211.603
9,FALSE,509,1.437,86,,,"(1143, 891)",,1,126,2.1,"640.0, 512.0",horizontal,"(890.0, 762.0)",0.75,0.633,1,4216.127
9,FALSE,510,0.328,19,,,"(62, 526), (1136, 922)",,"0, 1",53,0.883333333,"640.0, 512.0",horizontal,"(390.0, 262.0)",1.233333333,0.542,1,4220.455
9,FALSE,511,0.545,32,,,"(1110, 876)",,1,63,1.05,"640.0, 512.0",vertical,"(390.0, 762.0)",1.033333333,0.487,1,4247.753
9,FALSE,512,1.391,83,,,"(1136, 917)",,1,118,1.966666667,"640.0, 512.0",horizontal,"(390.0, 762.0)",0.7,0.566,1,4251.609
9,FALSE,513,1.016,60,,,"(1112, 847)",,1,110,1.833333333,"640.0, 512.0",horizontal,"(390.0, 762.0)",1.516666667,0.807,0,4255.783
9,FALSE,514,0.327,19,,,"(1062, 889)",,1,41,0.683333333,"640.0, 512.0",vertical,"(890.0, 262.0)",1.233333333,0.345,1,4260.591
9,FALSE,515,0.715,42,,,"(1117, 880)",,1,73,1.216666667,"640.0, 512.0",vertical,"(890.0, 262.0)",1.55,0.492,1,4274.617
9,FALSE,516,0.472,28,,,"(1128, 887)",,1,59,0.983333333,"640.0, 512.0",horizontal,"(390.0, 762.0)",1.283333333,0.494,1,4279.152
9,FALSE,517,0.861,51,,,"(1132, 880)",,1,101,1.683333333,"640.0, 512.0",horizontal,"(390.0, 762.0)",0.6,0.798,0,4282.923
9,FALSE,518,0.961,57,,,"(1190, 888)",,1,107,1.783333333,"640.0, 512.0",vertical,"(890.0, 262.0)",0.933333333,0.804,0,4286.639
9,FALSE,519,0.572,34,,,"(1121, 892)",,1,84,1.4,"640.0, 512.0",vertical,"(390.0, 262.0)",1.316666667,0.802,0,4290.875
9,FALSE,520,1.477,88,,,"(1154, 859)",,1,138,2.3,"640.0, 512.0",horizontal,"(390.0, 762.0)",0.883333333,0.802,0,4295.159
9,FALSE,521,0.737,44,,,"(1116, 879)",,1,94,1.566666667,"640.0, 512.0",vertical,"(390.0, 762.0)",0.5,0.805,0,4299.895
9,FALSE,522,1.085,65,,,"(1186, 873)",,1,115,1.916666667,"640.0, 512.0",horizontal,"(890.0, 762.0)",0.616666667,0.802,0,4304.177
9,FALSE,523,0.515,30,,,"(1106, 903)",,1,61,1.016666667,"640.0, 512.0",vertical,"(890.0, 262.0)",0.666666667,0.49,1,4308.208
9,FALSE,524,1.268,76,,,"(1123, 913)",,1,110,1.833333333,"640.0, 512.0",horizontal,"(390.0, 762.0)",0.916666667,0.54,1,4316.309
9,FALSE,525,0.376,22,,,"(1116, 874)",,1,58,0.966666667,"640.0, 512.0",vertical,"(890.0, 262.0)",1.416666667,0.576,1,4320.558
9,FALSE,526,1.427,85,,,"(1125, 903)",,1,123,2.05,"640.0, 512.0",horizontal,"(890.0, 762.0)",0.916666667,0.601,1,4324.551
9,FALSE,527,1.37,82,,,"(1135, 899)",,1,111,1.85,"640.0, 512.0",horizontal,"(390.0, 262.0)",1.05,0.461,1,4328.989
9,FALSE,528,0.856,51,,,"(1114, 911)",,1,86,1.433333333,"640.0, 512.0",horizontal,"(390.0, 762.0)",1.466666667,0.561,1,4333.357
9,FALSE,529,1.319,79,,,"(1123, 903)",,1,117,1.95,"640.0, 512.0",horizontal,"(390.0, 762.0)",1.666666667,0.605,1,4337.722
9,FALSE,530,1.429,85,,,"(1090, 905)",,1,135,2.25,"640.0, 512.0",vertical,"(390.0, 762.0)",1.033333333,0.806,0,4342.865
9,FALSE,531,1.441,86,,,"(1107, 900)",,1,100,1.666666667,"640.0, 512.0",vertical,"(390.0, 262.0)",1.383333333,0.214,1,4347.645
9,FALSE,532,0.627,37,,,"(1127, 898)",,1,73,1.216666667,"640.0, 512.0",vertical,"(890.0, 262.0)",1.533333333,0.572,1,4352.545
9,FALSE,533,0.714,42,,,"(1156, 896)",,1,82,1.366666667,"640.0, 512.0",vertical,"(390.0, 262.0)",1.483333333,0.631,1,4356.827
9,FALSE,534,1.462,87,,,"(1068, 878)",,1,116,1.933333333,"640.0, 512.0",horizontal,"(390.0, 262.0)",1.333333333,0.459,1,4361.187
9,FALSE,535,1.15,69,,,"(1097, 903)",,1,108,1.8,"640.0, 512.0",vertical,"(890.0, 762.0)",0.9,0.626,1,4366.285
9,FALSE,536,0.473,28,,,"(1076, 913)",,1,60,1,"640.0, 512.0",horizontal,"(890.0, 262.0)",0.766666667,0.517,1,4370.636
9,FALSE,537,0.535,32,,,"(1085, 891)",,1,,,"640.0, 512.0",vertical,"(890.0, 262.0)",,0,0,4374.127
9,FALSE,538,0.427,25,,,"(1087, 884)",,1,60,1,"640.0, 512.0",vertical,"(890.0, 262.0)",1.566666667,0.556,1,4377.622
9,FALSE,539,0.609,36,,,"(1123, 906)",,1,70,1.166666667,"640.0, 512.0",horizontal,"(390.0, 262.0)",1.55,0.544,1,4382.015
9,FALSE,540,1.397,83,,,"(1072, 884)",,1,117,1.95,"640.0, 512.0",horizontal,"(390.0, 262.0)",0.966666667,0.537,1,4386.226
10,FALSE,541,0.467,28,,,"(1107, 889)",,1,,,"640.0, 512.0",vertical,"(390.0, 262.0)",,0,0,4390.726
10,FALSE,542,1.496,89,,,"(493, 941), (1118, 899)",,"0, 1",120,2,"640.0, 512.0",vertical,"(390.0, 762.0)",1.116666667,0.492,1,4394.413
10,FALSE,543,0.401,24,,,"(1085, 896)",,1,56,0.933333333,"640.0, 512.0",horizontal,"(890.0, 262.0)",1.35,0.501,1,5140.062
10,FALSE,544,1.397,83,,,"(1117, 871)",,1,120,2,"640.0, 512.0",horizontal,"(390.0, 762.0)",1.583333333,0.586,1,5143.844
10,FALSE,545,0.661,39,,,"(1135, 898)",,1,72,1.2,"640.0, 512.0",vertical,"(890.0, 262.0)",0.75,0.525,1,5148.829
10,FALSE,546,0.542,32,,,"(1113, 898)",,1,74,1.233333333,"640.0, 512.0",horizontal,"(890.0, 762.0)",1.4,0.669,1,5152.298
10,FALSE,547,0.727,43,,,"(1117, 882)",,1,74,1.233333333,"640.0, 512.0",vertical,"(890.0, 762.0)",0.85,0.493,1,5158.442
10,FALSE,548,1.132,67,,,"(1141, 887)",,1,95,1.583333333,"640.0, 512.0",vertical,"(390.0, 762.0)",1.45,0.444,1,5162.059
10,FALSE,549,1.475,88,,,"(1101, 874)",,1,121,2.016666667,"640.0, 512.0",vertical,"(390.0, 762.0)",1.15,0.523,1,5194.511
10,FALSE,550,0.341,20,,,"(1105, 899)",,1,52,0.866666667,"640.0, 512.0",horizontal,"(890.0, 262.0)",0.866666667,0.507,1,5199.163
10,FALSE,551,0.326,19,,,"(1121, 889)",,1,55,0.916666667,"640.0, 512.0",vertical,"(390.0, 262.0)",1.666666667,0.573,1,5202.373
10,FALSE,552,1.309,78,,,"(1117, 927)",,1,106,1.766666667,"640.0, 512.0",vertical,"(390.0, 262.0)",0.683333333,0.444,1,5206.364
10,FALSE,553,0.625,37,,,"(1093, 882)",,1,69,1.15,"640.0, 512.0",horizontal,"(390.0, 262.0)",1.116666667,0.519,1,5210.329
10,FALSE,554,1.021,61,,,"(1129, 892)",,1,93,1.55,"640.0, 512.0",horizontal,"(390.0, 762.0)",0.816666667,0.516,1,5214.197
10,FALSE,555,1.015,60,,,"(1067, 911)",,1,91,1.516666667,"640.0, 512.0",horizontal,"(390.0, 762.0)",1.45,0.491,1,5218.014
10,FALSE,556,0.438,26,,,"(1105, 902)",,1,61,1.016666667,"640.0, 512.0",horizontal,"(390.0, 762.0)",0.883333333,0.554,1,5222.491
10,FALSE,557,0.594,35,,,"(1092, 901)",,1,,,"640.0, 512.0",vertical,"(890.0, 762.0)",,0,0,5225.91
10,FALSE,558,0.478,28,,,"(1130, 895)",,1,62,1.033333333,"640.0, 512.0",horizontal,"(390.0, 262.0)",1.55,0.537,1,5229.137
10,FALSE,559,0.689,41,,,"(1105, 883)",,1,74,1.233333333,"640.0, 512.0",horizontal,"(390.0, 762.0)",1.35,0.523,1,5254.952
10,FALSE,560,1.027,61,,,"(1082, 889)",,1,93,1.55,"640.0, 512.0",vertical,"(390.0, 762.0)",0.733333333,0.504,1,5259.018
10,FALSE,561,0.585,35,,,"(1120, 898)",,1,66,1.1,"640.0, 512.0",vertical,"(390.0, 262.0)",0.65,0.491,1,5262.829
10,FALSE,562,0.319,19,,,"(1135, 897)",,1,48,0.8,"640.0, 512.0",horizontal,"(390.0, 762.0)",0.766666667,0.461,1,5266.659
10,FALSE,563,0.399,23,,,"(1099, 890)",,1,68,1.133333333,"640.0, 512.0",vertical,"(890.0, 262.0)",0.633333333,0.716,1,5269.71
10,FALSE,564,0.703,42,,,"(1093, 900)",,1,76,1.266666667,"640.0, 512.0",horizontal,"(890.0, 262.0)",0.95,0.538,1,5272.956
10,FALSE,565,0.523,31,,,"(1095, 910)",,1,62,1.033333333,"640.0, 512.0",vertical,"(390.0, 762.0)",1.15,0.491,1,5276.659
10,FALSE,566,0.6,36,,,"(1113, 897)",,1,67,1.116666667,"640.0, 512.0",horizontal,"(890.0, 262.0)",1.466666667,0.497,1,5280.311
10,FALSE,567,0.896,53,,,"(1084, 884)",,1,85,1.416666667,"640.0, 512.0",vertical,"(890.0, 762.0)",0.516666667,0.508,1,5284.348
10,FALSE,568,1.486,89,,,"(1083, 881)",,1,129,2.15,"640.0, 512.0",horizontal,"(390.0, 762.0)",0.7,0.637,1,5287.913
10,FALSE,569,1.163,69,,,"(1104, 893)",,1,103,1.716666667,"640.0, 512.0",horizontal,"(890.0, 762.0)",0.983333333,0.537,1,5292.307
10,FALSE,570,1.48,88,,,"(1143, 879)",,1,116,1.933333333,"640.0, 512.0",horizontal,"(890.0, 262.0)",1.016666667,0.444,1,5296.479
10,FALSE,571,0.665,39,,,"(1111, 900)",,1,72,1.2,"640.0, 512.0",vertical,"(390.0, 762.0)",0.75,0.525,1,5300.974
10,FALSE,572,1.175,70,,,"(1127, 895)",,1,108,1.8,"640.0, 512.0",vertical,"(390.0, 262.0)",0.75,0.604,1,5304.443
10,FALSE,573,0.318,19,,,"(1103, 872)",,1,51,0.85,"640.0, 512.0",vertical,"(390.0, 762.0)",1.566666667,0.511,1,5309.095
10,FALSE,574,1.353,81,,,"(1106, 903)",,1,114,1.9,"640.0, 512.0",horizontal,"(390.0, 762.0)",0.866666667,0.518,1,5313.004
10,FALSE,575,0.558,33,,,"(1098, 894)",,1,,,"640.0, 512.0",horizontal,"(390.0, 762.0)",,0,0,5317.285
10,FALSE,576,1.395,83,,,"(1178, 892)",,1,116,1.933333333,"640.0, 512.0",horizontal,"(890.0, 762.0)",0.816666667,0.525,1,5320.713
10,FALSE,577,1.443,86,,,"(1112, 898)",,1,136,2.266666667,"640.0, 512.0",horizontal,"(390.0, 262.0)",1.133333333,0.799,0,5324.931
10,FALSE,578,0.889,53,,,"(1160, 855)",,1,80,1.333333333,"640.0, 512.0",vertical,"(890.0, 762.0)",1.45,0.428,1,5329.921
10,FALSE,579,0.897,53,,,"(1143, 907)",,1,86,1.433333333,"640.0, 512.0",horizontal,"(390.0, 262.0)",1.116666667,0.523,1,5334.194
10,FALSE,580,0.4,24,,,"(1119, 899)",,1,58,0.966666667,"640.0, 512.0",horizontal,"(390.0, 762.0)",1.333333333,0.542,1,5338.164
10,FALSE,581,1.015,60,,,"(1107, 885)",,1,99,1.65,"640.0, 512.0",horizontal,"(890.0, 762.0)",1.266666667,0.625,1,5341.931
10,FALSE,582,1.375,82,,,"(1142, 899)",,1,120,2,"640.0, 512.0",vertical,"(390.0, 262.0)",1.15,0.606,1,5346.312
10,FALSE,583,0.846,50,,,"(1123, 918)",,1,84,1.4,"640.0, 512.0",vertical,"(890.0, 762.0)",1.05,0.538,1,5350.981
10,FALSE,584,1.345,80,,,"(1096, 889)",,1,113,1.883333333,"640.0, 512.0",vertical,"(390.0, 762.0)",1.633333333,0.522,1,5354.927
10,FALSE,585,0.883,52,,,"(1092, 890)",,1,87,1.45,"640.0, 512.0",horizontal,"(390.0, 262.0)",1.7,0.554,1,5359.959
10,FALSE,586,1.498,89,,,"(1109, 897)",,1,98,1.633333333,"640.0, 512.0",vertical,"(390.0, 262.0)",1,0.134,1,5364.578
10,FALSE,587,0.763,45,,,"(1106, 899)",,1,78,1.3,"640.0, 512.0",vertical,"(390.0, 262.0)",1.566666667,0.521,1,5368.661
10,FALSE,588,0.881,52,,,"(1085, 884)",,1,84,1.4,"640.0, 512.0",vertical,"(390.0, 762.0)",1.316666667,0.505,1,5372.994
10,FALSE,589,1.266,75,,,"(1095, 897)",,1,125,2.083333333,"640.0, 512.0",vertical,"(890.0, 762.0)",1.1,0.792,0,5377.257
10,FALSE,590,1.011,60,,,"(1174, 874)",,1,103,1.716666667,"640.0, 512.0",vertical,"(390.0, 262.0)",1.35,0.69,1,5381.94
10,FALSE,591,0.323,19,,,"(1112, 874)",,1,51,0.85,"640.0, 512.0",vertical,"(890.0, 262.0)",1.333333333,0.512,1,5386.475
10,FALSE,592,0.457,27,,,"(1133, 889)",,1,59,0.983333333,"640.0, 512.0",vertical,"(890.0, 262.0)",1.4,0.506,1,5390.137
10,FALSE,593,1.11,66,,,"(1093, 895)",,1,100,1.666666667,"640.0, 512.0",vertical,"(390.0, 762.0)",0.6,0.55,1,5393.992
10,FALSE,594,1,60,,,"(1086, 893)",,1,102,1.7,"640.0, 512.0",vertical,"(890.0, 762.0)",0.916666667,0.679,1,5397.777
10,FALSE,595,0.459,27,,,"(1112, 894)",,1,58,0.966666667,"640.0, 512.0",vertical,"(890.0, 262.0)",1.216666667,0.491,1,5401.955
10,FALSE,596,1.153,69,,,"(1063, 906)",,1,101,1.683333333,"640.0, 512.0",vertical,"(890.0, 762.0)",1.116666667,0.507,1,5405.609
10,FALSE,597,0.478,28,,,"(1105, 899)",,1,66,1.1,"640.0, 512.0",horizontal,"(890.0, 762.0)",0.633333333,0.604,1,5409.924
10,FALSE,598,0.78,46,,,"(1096, 892)",,1,82,1.366666667,"640.0, 512.0",vertical,"(390.0, 262.0)",1.666666667,0.574,1,5413.167
10,FALSE,599,0.622,37,,,"(1123, 884)",,1,72,1.2,"640.0, 512.0",vertical,"(890.0, 262.0)",1.516666667,0.556,1,5417.714
10,FALSE,600,0.799,47,,,"(1099, 895)",,1,93,1.55,"640.0, 512.0",horizontal,"(390.0, 262.0)",1.4,0.73,1,5421.975
11,FALSE,601,0.997,59,,,"(1138, 889)",,1,,,"640.0, 512.0",vertical,"(890.0, 262.0)",,0,0,5426.362
11,FALSE,602,0.688,41,,,"(1100, 876)",,1,73,1.216666667,"640.0, 512.0",vertical,"(390.0, 262.0)",0.85,0.511,1,5430.405
11,FALSE,603,0.504,30,,,"(1093, 916)",,1,69,1.15,"640.0, 512.0",horizontal,"(390.0, 762.0)",1.316666667,0.62,1,5434.778
11,FALSE,604,0.68,40,,,"(1086, 889)",,1,76,1.266666667,"640.0, 512.0",horizontal,"(390.0, 262.0)",1.416666667,0.574,1,5438.735
11,FALSE,605,0.65,39,,,"(1113, 897)",,1,71,1.183333333,"640.0, 512.0",horizontal,"(390.0, 262.0)",0.75,0.504,1,5442.977
11,FALSE,606,0.515,30,,,"(1118, 894)",,1,64,1.066666667,"640.0, 512.0",horizontal,"(890.0, 762.0)",0.7,0.539,1,5446.431
11,FALSE,607,0.46,27,,,"(1110, 894)",,1,60,1,"640.0, 512.0",horizontal,"(890.0, 762.0)",1.516666667,0.524,1,5449.706
11,FALSE,608,0.326,19,,,"(1122, 902)",,1,53,0.883333333,"640.0, 512.0",horizontal,"(890.0, 762.0)",1.633333333,0.537,1,5453.809
11,FALSE,609,0.427,25,,,"(1134, 913)",,1,63,1.05,"640.0, 512.0",horizontal,"(390.0, 262.0)",0.6,0.605,1,5457.861
11,FALSE,610,0.419,25,,,"(1072, 882)",,1,61,1.016666667,"640.0, 512.0",horizontal,"(390.0, 762.0)",0.716666667,0.577,1,5461.022
11,FALSE,611,0.736,44,,,"(1116, 875)",,1,77,1.283333333,"640.0, 512.0",horizontal,"(890.0, 762.0)",1.65,0.524,1,5467.797
11,FALSE,612,0.617,37,,,"(1081, 870)",,1,71,1.183333333,"640.0, 512.0",horizontal,"(390.0, 262.0)",1.683333333,0.538,1,5472.179
11,FALSE,613,0.767,46,,,"(1093, 900)",,1,79,1.316666667,"640.0, 512.0",horizontal,"(890.0, 762.0)",1.35,0.529,1,5477.992
11,FALSE,614,1.116,66,,,"(1117, 913)",,1,100,1.666666667,"640.0, 512.0",horizontal,"(890.0, 762.0)",1.683333333,0.542,1,5482.134
11,FALSE,615,1.48,88,,,"(1113, 915)",,1,121,2.016666667,"640.0, 512.0",vertical,"(390.0, 262.0)",1.15,0.524,1,5486.974
11,FALSE,616,1.268,76,,,"(1122, 913)",,1,114,1.9,"640.0, 512.0",vertical,"(390.0, 762.0)",0.8,0.609,1,5491.658
11,FALSE,617,0.917,55,,,"(1092, 894)",,1,86,1.433333333,"640.0, 512.0",horizontal,"(890.0, 262.0)",1.5,0.489,1,5495.977
11,FALSE,618,0.81,48,,,"(1085, 882)",,1,87,1.45,"640.0, 512.0",vertical,"(890.0, 262.0)",1.566666667,0.619,1,5501.58
11,FALSE,619,0.759,45,,,"(1112, 880)",,1,77,1.283333333,"640.0, 512.0",vertical,"(890.0, 762.0)",0.95,0.505,1,5506.159
11,FALSE,620,0.648,38,,,"(1118, 908)",,1,71,1.183333333,"640.0, 512.0",vertical,"(890.0, 762.0)",1.266666667,0.519,1,5509.876
11,FALSE,621,1.483,88,,,"(1130, 903)",,1,122,2.033333333,"640.0, 512.0",horizontal,"(390.0, 762.0)",0.6,0.543,1,5513.809
11,FALSE,622,1.493,89,,,"(1087, 892)",,1,,,"640.0, 512.0",horizontal,"(890.0, 262.0)",,0,0,5517.875
11,FALSE,623,1.278,76,,,"(1057, 885)",,1,108,1.8,"640.0, 512.0",vertical,"(890.0, 762.0)",0.55,0.508,1,5521.371
11,FALSE,624,0.558,33,,,"(1079, 897)",,1,71,1.183333333,"640.0, 512.0",horizontal,"(890.0, 262.0)",1.583333333,0.604,1,5525.838
11,FALSE,625,0.886,53,,,"(1087, 884)",,1,84,1.4,"640.0, 512.0",horizontal,"(390.0, 762.0)",1.283333333,0.487,1,5530.081
11,FALSE,626,0.747,44,,,"(1071, 885)",,1,75,1.25,"640.0, 512.0",horizontal,"(390.0, 262.0)",1.616666667,0.49,1,5534.243
11,FALSE,627,1.036,62,,,"(1095, 891)",,1,97,1.616666667,"640.0, 512.0",horizontal,"(390.0, 762.0)",1.05,0.557,1,5538.594
11,FALSE,628,0.953,57,,,"(1094, 880)",,1,100,1.666666667,"640.0, 512.0",vertical,"(890.0, 262.0)",0.633333333,0.685,1,5542.789
11,FALSE,629,0.63,37,,,"(1099, 902)",,1,68,1.133333333,"640.0, 512.0",vertical,"(390.0, 262.0)",1.683333333,0.49,1,5546.592
11,FALSE,630,1.406,84,,,"(1094, 877)",,1,122,2.033333333,"640.0, 512.0",vertical,"(390.0, 762.0)",0.716666667,0.604,1,5550.881
11,FALSE,631,0.516,30,,,"(1095, 877)",,1,63,1.05,"640.0, 512.0",horizontal,"(390.0, 762.0)",1.05,0.53,1,5555.127
11,FALSE,632,0.927,55,,,"(1072, 872)",,1,89,1.483333333,"640.0, 512.0",horizontal,"(890.0, 762.0)",0.533333333,0.538,1,5558.756
11,FALSE,633,1.24,74,,,"(1091, 897)",,1,107,1.783333333,"640.0, 512.0",horizontal,"(890.0, 262.0)",0.633333333,0.526,1,5562.329
11,FALSE,634,1.385,83,,,"(1100, 894)",,1,124,2.066666667,"640.0, 512.0",vertical,"(390.0, 762.0)",1.1,0.654,1,5566.243
11,FALSE,635,0.474,28,,,"(1093, 894)",,1,57,0.95,"640.0, 512.0",vertical,"(390.0, 762.0)",1.533333333,0.461,1,5571.491
11,FALSE,636,1.193,71,,,"(1114, 902)",,1,104,1.733333333,"640.0, 512.0",vertical,"(390.0, 262.0)",1.083333333,0.525,1,5575.498
11,FALSE,637,0.919,55,,,"(1075, 892)",,1,88,1.466666667,"640.0, 512.0",vertical,"(890.0, 762.0)",1.116666667,0.523,1,5579.796
11,FALSE,638,0.884,53,,,"(1128, 897)",,1,85,1.416666667,"640.0, 512.0",vertical,"(390.0, 762.0)",1.016666667,0.513,1,5586.176
11,FALSE,639,1.275,76,,,"(1080, 890)",,1,109,1.816666667,"640.0, 512.0",vertical,"(890.0, 762.0)",1.4,0.523,1,5590.128
11,FALSE,640,0.393,23,,,"(1099, 885)",,1,61,1.016666667,"640.0, 512.0",vertical,"(390.0, 762.0)",0.5,0.603,1,5594.815
11,FALSE,641,0.428,25,,,"(1099, 902)",,1,59,0.983333333,"640.0, 512.0",vertical,"(390.0, 762.0)",1.05,0.541,1,5597.864
11,FALSE,642,1.196,71,,,"(1095, 900)",,1,110,1.833333333,"640.0, 512.0",vertical,"(890.0, 762.0)",1.083333333,0.618,1,5601.428
11,FALSE,643,0.541,32,,,"(1100, 908)",,1,72,1.2,"640.0, 512.0",vertical,"(390.0, 262.0)",1.25,0.639,1,5605.819
11,FALSE,644,1.457,87,,,"(1063, 914)",,1,121,2.016666667,"640.0, 512.0",horizontal,"(890.0, 262.0)",0.75,0.541,1,5609.747
11,FALSE,645,0.52,31,,,"(1118, 904)",,1,66,1.1,"640.0, 512.0",vertical,"(390.0, 262.0)",0.8,0.554,1,5614.031
11,FALSE,646,0.779,46,,,"(1081, 919)",,1,83,1.383333333,"640.0, 512.0",vertical,"(890.0, 762.0)",1.283333333,0.589,1,5617.453
11,FALSE,647,1.202,72,,,"(1125, 891)",,1,105,1.75,"640.0, 512.0",vertical,"(890.0, 262.0)",0.8,0.523,1,5621.642
11,FALSE,648,1.371,82,,,"(1087, 902)",,1,113,1.883333333,"640.0, 512.0",horizontal,"(890.0, 262.0)",1.2,0.49,1,5625.659
11,FALSE,649,0.61,36,,,"(1123, 879)",,1,86,1.433333333,"640.0, 512.0",vertical,"(390.0, 762.0)",1.433333333,0.807,0,5630.248
11,FALSE,650,0.384,23,,,"(1122, 880)",,1,59,0.983333333,"640.0, 512.0",horizontal,"(390.0, 262.0)",0.933333333,0.572,1,5634.646
11,FALSE,651,1.404,84,,,"(1118, 913)",,1,116,1.933333333,"640.0, 512.0",vertical,"(390.0, 762.0)",0.5,0.504,1,5653.256
11,FALSE,652,1.202,72,,,"(1112, 906)",,1,104,1.733333333,"640.0, 512.0",horizontal,"(390.0, 762.0)",1.2,0.506,1,5657.219
11,FALSE,653,0.368,22,,,"(1110, 876)",,1,54,0.9,"640.0, 512.0",horizontal,"(890.0, 262.0)",1.116666667,0.51,1,5661.644
11,FALSE,654,0.524,31,,,"(1093, 900)",,1,65,1.083333333,"640.0, 512.0",vertical,"(890.0, 762.0)",1.166666667,0.541,1,5665.198
11,FALSE,655,1.334,80,,,"(1107, 891)",,1,115,1.916666667,"640.0, 512.0",horizontal,"(390.0, 262.0)",1.066666667,0.561,1,5668.953
11,FALSE,656,0.548,32,,,"(1099, 891)",,1,64,1.066666667,"640.0, 512.0",horizontal,"(390.0, 262.0)",0.883333333,0.504,1,5673.465
11,FALSE,657,0.998,59,,,"(1123, 898)",,1,92,1.533333333,"640.0, 512.0",vertical,"(890.0, 262.0)",0.716666667,0.521,1,5676.966
11,FALSE,658,0.801,48,,,"(1128, 906)",,1,85,1.416666667,"640.0, 512.0",vertical,"(890.0, 762.0)",1.216666667,0.587,1,5680.647
11,FALSE,659,1.072,64,,,"(1117, 876)",,1,97,1.616666667,"640.0, 512.0",vertical,"(390.0, 262.0)",0.7,0.523,1,5684.713
11,FALSE,660,0.623,37,,,"(1099, 879)",,1,69,1.15,"640.0, 512.0",horizontal,"(390.0, 762.0)",0.566666667,0.51,1,5691.266
12,FALSE,661,0.874,52,,,"(1095, 921)",,1,86,1.433333333,"640.0, 512.0",vertical,"(890.0, 762.0)",1.4,0.545,1,5695.281
12,FALSE,662,1.336,80,,,"(1112, 906)",,1,130,2.166666667,"640.0, 512.0",horizontal,"(390.0, 762.0)",1.3,0.802,0,5699.646
12,FALSE,663,1.128,67,,,"(1088, 884)",,1,100,1.666666667,"640.0, 512.0",horizontal,"(390.0, 762.0)",1.25,0.532,1,5704.623
12,FALSE,664,0.699,41,,,"(1123, 881)",,1,79,1.316666667,"640.0, 512.0",horizontal,"(390.0, 762.0)",1.016666667,0.604,1,5709.292
12,FALSE,665,1.497,89,,,"(1100, 880)",,1,122,2.033333333,"640.0, 512.0",vertical,"(890.0, 762.0)",1.45,0.523,1,5713.092
12,FALSE,666,1.023,61,,,"(1123, 897)",,1,96,1.6,"640.0, 512.0",horizontal,"(390.0, 262.0)",0.95,0.557,1,5718.209
12,FALSE,667,0.681,40,,,"(1137, 901)",,1,72,1.2,"640.0, 512.0",vertical,"(390.0, 762.0)",1.616666667,0.507,1,5722.244
12,FALSE,668,1.099,65,,,"(1117, 887)",,1,115,1.916666667,"640.0, 512.0",horizontal,"(890.0, 762.0)",1.1,0.799,0,5726.598
12,FALSE,669,1.279,76,,,"(1128, 894)",,1,110,1.833333333,"640.0, 512.0",horizontal,"(390.0, 262.0)",1.433333333,0.542,1,5731.065
12,FALSE,670,0.923,55,,,"(1093, 876)",,1,91,1.516666667,"640.0, 512.0",vertical,"(890.0, 762.0)",0.566666667,0.576,1,5766.762
12,FALSE,671,0.409,24,,,"(1098, 918)",,1,59,0.983333333,"640.0, 512.0",vertical,"(890.0, 762.0)",0.6,0.553,1,5770.323
12,FALSE,672,0.878,52,,,"(1124, 901)",,1,87,1.45,"640.0, 512.0",vertical,"(890.0, 762.0)",1.05,0.556,1,5773.546
12,FALSE,673,0.848,50,,,"(1105, 904)",,1,81,1.35,"640.0, 512.0",vertical,"(890.0, 262.0)",1.633333333,0.49,1,5777.449
12,FALSE,674,0.771,46,,,"(1125, 904)",,1,82,1.366666667,"640.0, 512.0",vertical,"(890.0, 762.0)",0.616666667,0.571,1,5781.882
12,FALSE,675,1.437,86,,,"(1093, 894)",,1,119,1.983333333,"640.0, 512.0",vertical,"(390.0, 262.0)",1.183333333,0.525,1,5785.315
12,FALSE,676,1.005,60,,,"(1142, 898)",,1,92,1.533333333,"640.0, 512.0",vertical,"(890.0, 262.0)",0.583333333,0.515,1,5789.963
12,FALSE,677,0.921,55,,,"(1072, 899)",,1,91,1.516666667,"640.0, 512.0",vertical,"(390.0, 262.0)",0.6,0.57,1,5793.577
12,FALSE,678,0.873,52,,,"(1073, 908)",,1,85,1.416666667,"640.0, 512.0",vertical,"(390.0, 262.0)",1.333333333,0.528,1,5797.263
12,FALSE,679,0.634,38,,,"(1083, 883)",,1,69,1.15,"640.0, 512.0",vertical,"(890.0, 762.0)",1.316666667,0.489,1,5801.616
12,FALSE,680,0.846,50,,,"(1129, 913)",,1,87,1.45,"640.0, 512.0",horizontal,"(390.0, 762.0)",0.8,0.583,1,5805.59
12,FALSE,681,0.829,49,,,"(1099, 918)",,1,99,1.65,"640.0, 512.0",vertical,"(390.0, 762.0)",1.183333333,0.806,0,5809.363
12,FALSE,682,0.398,23,,,"(1075, 875)",,1,73,1.216666667,"640.0, 512.0",horizontal,"(890.0, 762.0)",0.533333333,0.8,0,5813.725
12,FALSE,683,0.636,38,,,"(1068, 875)",,1,69,1.15,"640.0, 512.0",vertical,"(390.0, 262.0)",1.166666667,0.492,1,5817.586
12,FALSE,684,0.36,21,,,"(1093, 890)",,1,68,1.133333333,"640.0, 512.0",horizontal,"(390.0, 262.0)",0.9,0.754,1,5821.69
12,FALSE,685,0.539,32,,,"(1096, 898)",,1,68,1.133333333,"640.0, 512.0",horizontal,"(390.0, 262.0)",1.566666667,0.572,1,5825.216
12,FALSE,686,1.163,69,,,"(1150, 898)",,1,101,1.683333333,"640.0, 512.0",horizontal,"(390.0, 262.0)",0.633333333,0.509,1,5829.389
12,FALSE,687,0.856,51,,,"(1118, 894)",,1,83,1.383333333,"640.0, 512.0",vertical,"(890.0, 762.0)",1.383333333,0.505,1,5833.19
12,FALSE,688,0.313,18,,,"(1127, 889)",,1,53,0.883333333,"640.0, 512.0",horizontal,"(890.0, 762.0)",1.1,0.557,1,5837.421
12,FALSE,689,0.311,18,,,"(1166, 919)",,1,52,0.866666667,"640.0, 512.0",vertical,"(390.0, 762.0)",1.35,0.542,1,5840.879
12,FALSE,690,0.357,21,,,"(1127, 898)",,1,56,0.933333333,"640.0, 512.0",horizontal,"(390.0, 262.0)",1.066666667,0.557,1,5844.545
12,FALSE,691,0.38,22,,,"(1110, 906)",,1,56,0.933333333,"640.0, 512.0",vertical,"(390.0, 762.0)",1.666666667,0.54,1,5848.08
12,FALSE,692,0.543,32,,,"(1038, 883)",,1,64,1.066666667,"640.0, 512.0",vertical,"(890.0, 262.0)",1.3,0.507,1,5852.278
12,FALSE,693,0.974,58,,,"(1123, 894)",,1,92,1.533333333,"640.0, 512.0",vertical,"(390.0, 762.0)",1.166666667,0.542,1,5857.813
12,FALSE,694,0.803,48,,,"(1084, 906)",,1,79,1.316666667,"640.0, 512.0",vertical,"(890.0, 262.0)",1.116666667,0.493,1,5862.011
12,FALSE,695,0.727,43,,,"(1063, 876)",,1,74,1.233333333,"640.0, 512.0",vertical,"(890.0, 762.0)",0.633333333,0.486,1,5865.909
12,FALSE,696,1.276,76,,,"(1091, 903)",,1,112,1.866666667,"640.0, 512.0",vertical,"(390.0, 762.0)",0.933333333,0.591,1,5870.661
12,FALSE,697,0.586,35,,,"(1088, 884)",,1,69,1.15,"640.0, 512.0",vertical,"(390.0, 262.0)",1.6,0.543,1,5874.956
12,FALSE,698,0.702,42,,,"(1091, 870)",,1,76,1.266666667,"640.0, 512.0",vertical,"(390.0, 262.0)",0.816666667,0.534,1,5887.857
12,FALSE,699,1.023,61,,,"(1099, 909)",,1,101,1.683333333,"640.0, 512.0",horizontal,"(390.0, 762.0)",0.916666667,0.637,1,5891.36
12,FALSE,700,0.928,55,,,"(1099, 903)",,1,90,1.5,"640.0, 512.0",horizontal,"(890.0, 762.0)",0.716666667,0.559,1,5895.442
12,FALSE,701,1.064,63,,,"(1093, 893)",,1,98,1.633333333,"640.0, 512.0",vertical,"(890.0, 262.0)",1.083333333,0.558,1,5899.122
12,FALSE,702,0.775,46,,,"(1110, 874)",,1,92,1.533333333,"640.0, 512.0",horizontal,"(890.0, 262.0)",0.716666667,0.742,1,5906.744
12,FALSE,703,1.434,86,,,"(1105, 878)",,1,121,2.016666667,"640.0, 512.0",horizontal,"(890.0, 762.0)",1.55,0.558,1,5911.505
12,FALSE,704,0.913,54,,,"(1127, 877)",,1,95,1.583333333,"640.0, 512.0",horizontal,"(390.0, 762.0)",1.033333333,0.658,1,5916.518
12,FALSE,705,1.356,81,,,"(1106, 899)",,1,116,1.933333333,"640.0, 512.0",vertical,"(390.0, 262.0)",0.9,0.556,1,5920.551
12,FALSE,706,1.33,79,,,"(1147, 893)",,1,120,2,"640.0, 512.0",horizontal,"(890.0, 762.0)",0.783333333,0.653,1,5925.943
12,FALSE,707,1.212,72,,,"(1128, 911)",,1,105,1.75,"640.0, 512.0",horizontal,"(890.0, 262.0)",1.233333333,0.531,1,5930.299
12,FALSE,708,1.224,73,,,"(1076, 900)",,1,107,1.783333333,"640.0, 512.0",horizontal,"(890.0, 762.0)",1.566666667,0.542,1,5934.8
