block,trial,trial_type,taps_start_loc_during_fix,taps_end_loc_during_fix,taps_on_lever_during_fix,taps_on_lever_s_during_fix,bar_orientation,target_xy,cti,rt,acc,time,pulses,fa_rate_recent100,actual_invalid_type
0,1,valid,"[(1084, 846)]",[],[1],[0.4],horizontal,"(890.0, 762.0)",0.95,0.367,1,0.433,1,0.0,same
0,2,invalid_same_bar,"[(1157, 829)]",[],[1],[0.3333333333333333],horizontal,"(390.0, 762.0)",1.3666666666666667,0.3,1,14.627,1,0.0,same
0,3,valid,"[(1164, 810)]",[],[1],[0.35],vertical,"(890.0, 762.0)",1.3166666666666667,0.321,1,280.434,1,0.0,same
0,4,valid,"[(1142, 793)]",[],[1],[0.85],horizontal,"(390.0, 762.0)",1.1,nan,0,285.739,0,0.0,same
0,5,valid,"[(1160, 800)]",[],[1],[],horizontal,"(890.0, 762.0)",,"('cti', 1.392)",0,290.868,0,0.0,same
0,6,valid,"[(1109, 798)]",[],[1],[0.6333333333333333],horizontal,"(390.0, 762.0)",0.3833333333333333,0.597,1,308.972,1,0.0,same
0,7,catch,"[(1183, 777)]",[],[1],[],vertical,"(390.0, 762.0)",1.7,nan,1,314.62,1,0.0,same
0,8,valid,"[(1180, 800)]",[],[1],[0.5666666666666667],vertical,"(890.0, 262.0)",1.0833333333333333,0.531,1,319.988,1,0.0,same
0,9,invalid_adjacent_other_bar,"[(1183, 775)]",[],[1],[0.6],vertical,"(890.0, 262.0)",0.6166666666666667,0.564,1,325.001,2,0.0,other
0,10,catch,"[(1185, 778)]",[],[1],[],horizontal,"(390.0, 262.0)",1.7,nan,1,330.493,2,0.0,same
0,11,invalid_same_bar,"[(1177, 793)]",[],[1],[0.85],vertical,"(890.0, 762.0)",0.4,nan,0,335.773,0,0.0,same
0,12,valid,"[(1165, 819)]",[],[1],[0.5],vertical,"(390.0, 262.0)",0.7166666666666667,0.461,1,340.435,1,0.0,same
0,13,valid,"[(1181, 821)]",[],[1],[0.5],vertical,"(390.0, 762.0)",1.4,0.463,1,345.179,1,0.0,same
0,14,catch,"[(1177, 775)]",[],[1],[],horizontal,"(390.0, 262.0)",1.7,nan,1,350.383,1,0.0,same
0,15,valid,"[(1196, 813)]",[],[1],[0.5333333333333333],vertical,"(390.0, 762.0)",1.25,0.491,1,355.178,2,0.0,same
0,16,valid,"[(1137, 814)]",[],[1],[0.6833333333333333],vertical,"(390.0, 762.0)",0.6333333333333333,0.643,1,360.695,2,0.0,same
0,17,valid,"[(1182, 785)]",[],[1],[0.6166666666666667],horizontal,"(890.0, 262.0)",1.35,0.572,1,366.465,2,0.0,same
0,18,valid,"[(1182, 784)]",[],[1],[0.48333333333333334],horizontal,"(390.0, 262.0)",1.5333333333333332,0.444,1,372.162,3,0.0,same
0,19,catch,"[(1200, 799)]",[],[1],[],vertical,"(890.0, 762.0)",1.7,nan,1,378.663,3,0.0,same
0,20,valid,"[(1160, 796)]",[],[1],[0.65],vertical,"(390.0, 262.0)",0.55,0.606,1,384.645,3,0.0,same
0,21,valid,"[(1180, 813)]",[],[1],[0.6333333333333333],vertical,"(890.0, 762.0)",0.4166666666666667,0.588,1,389.786,3,0.0,same
0,22,valid,"[(1180, 789)]",[],[1],[0.6],vertical,"(390.0, 762.0)",1.4166666666666667,0.557,1,395.379,3,0.0,same
0,23,valid,"[(1165, 806)]",[],[1],[0.5],horizontal,"(390.0, 762.0)",1.5333333333333332,0.46,1,401.573,3,0.0,same
0,24,invalid_same_bar,"[(1185, 791)]",[],[1],[0.6166666666666667],horizontal,"(890.0, 262.0)",0.43333333333333335,0.573,1,407.846,3,0.0,same
0,25,valid,"[(1178, 803)]",[],[1],[0.5],vertical,"(890.0, 762.0)",0.75,0.461,1,412.727,3,0.0,same
0,26,valid,"[(1179, 795)]",[],[1],[0.55],horizontal,"(390.0, 762.0)",0.9333333333333333,0.509,1,418.184,3,0.0,same
0,27,valid,"[(1168, 799)]",[],[1],[0.5333333333333333],vertical,"(890.0, 262.0)",1.3833333333333333,0.493,1,424.211,3,0.0,same
0,28,invalid_same_bar,"[(1169, 786)]",[],[1],[0.5666666666666667],vertical,"(890.0, 762.0)",1.4166666666666667,0.528,1,430.212,3,0.0,same
0,29,valid,"[(1170, 791)]",[],[1],[0.4166666666666667],vertical,"(390.0, 262.0)",1.4333333333333333,0.379,1,436.543,3,0.0,same
0,30,valid,"[(1167, 814)]",[],[1],[0.5333333333333333],vertical,"(890.0, 262.0)",1.3,0.495,1,442.911,3,0.0,same
0,31,valid,"[(1161, 775)]",[],[1],[0.5166666666666666],vertical,"(890.0, 762.0)",0.4,0.478,1,448.678,3,0.0,same
0,32,valid,"[(1165, 795)]",[],[1],[0.6166666666666667],horizontal,"(390.0, 262.0)",0.5,0.574,1,454.129,3,0.0,same
0,33,valid,"[(1168, 785)]",[],[1],[0.55],vertical,"(890.0, 762.0)",1.2166666666666666,0.51,1,459.629,3,0.0,same
0,34,catch,"[(1168, 789)]",[],[1],[],vertical,"(890.0, 262.0)",1.7,nan,1,465.845,3,0.0,same
0,35,valid,"[(1167, 801)]",[],[1],[0.25],horizontal,"(390.0, 762.0)",1.4833333333333334,0.212,1,471.599,3,0.0,same
0,36,valid,"[(1166, 797)]",[],[1],[0.6833333333333333],vertical,"(890.0, 262.0)",0.95,0.645,1,477.88,3,0.0,same
0,37,valid,"[(1160, 776)]",[],[1],[0.5333333333333333],horizontal,"(890.0, 762.0)",0.7666666666666666,0.491,1,484.079,3,0.0,same
0,38,valid,"[(1172, 797)]",[],[1],[0.55],vertical,"(390.0, 762.0)",1.2333333333333334,0.505,1,489.907,3,0.0,same
0,39,catch,"[(1170, 782)]",[],[1],[],vertical,"(390.0, 762.0)",1.7,nan,1,495.972,3,0.0,same
0,40,valid,"[(1203, 801)]",[],[1],[0.5333333333333333],horizontal,"(890.0, 262.0)",0.8166666666666667,0.49,1,501.873,3,0.0,same
0,41,catch,"[(1179, 818)]",[],[1],[],vertical,"(390.0, 262.0)",1.7,nan,1,507.563,3,0.0,same
0,42,valid,"[(1171, 813)]",[],[1],[0.6166666666666667],vertical,"(390.0, 262.0)",1.2,0.576,1,513.12,3,0.0,same
0,43,valid,"[(1164, 813)]",[],[1],[0.85],vertical,"(890.0, 262.0)",1.1333333333333333,nan,0,519.329,0,0.0,same
0,44,valid,"[(1148, 793)]",[],[1],[0.7666666666666666],horizontal,"(390.0, 262.0)",1.0833333333333333,0.724,1,524.203,1,0.0,same
0,45,valid,"[(1177, 789)]",[],[1],[0.85],vertical,"(890.0, 762.0)",1.0,nan,0,529.411,0,0.0,same
0,46,catch,"[(1160, 808)]",[],[1],[],horizontal,"(890.0, 762.0)",1.7,nan,1,534.062,1,0.0,same
0,47,valid,"[(1177, 816)]",[],[1],[0.5333333333333333],vertical,"(890.0, 262.0)",0.6,0.495,1,539.211,1,0.0,same
0,48,catch,"[(1178, 782)]",[],[1],[],vertical,"(390.0, 262.0)",1.7,"('cti', 1.683),nan",0,543.702,0,0.020833333333333332,same
0,49,valid,"[(1168, 799)]",[],[1],[0.6],vertical,"(890.0, 762.0)",0.4666666666666667,0.558,1,548.329,1,0.02040816326530612,same
0,50,valid,"[(1176, 801)]",[],[1],[0.6166666666666667],horizontal,"(890.0, 762.0)",1.1,0.576,1,552.666,1,0.02,same
0,51,valid,"[(1165, 801)]",[],[1],[0.5333333333333333],horizontal,"(390.0, 262.0)",1.1333333333333333,0.492,1,557.893,1,0.02,same
0,52,valid,"[(1144, 807)]",[],[1],[0.6333333333333333],horizontal,"(390.0, 262.0)",0.55,0.589,1,562.631,2,0.02,same
0,53,catch,"[(1171, 781)]",[],[1],[],horizontal,"(390.0, 262.0)",1.7,nan,1,568.163,2,0.02,same
0,54,valid,"[(1162, 809)]",[],[1],[0.18333333333333332],horizontal,"(390.0, 262.0)",1.5166666666666666,0.151,0,573.728,0,0.02,same
0,55,valid,"[(1160, 808)]",[],[1],[0.5],vertical,"(390.0, 762.0)",0.95,0.458,1,578.945,1,0.02,same
0,56,valid,"[(1188, 778)]",[],[1],[0.6333333333333333],vertical,"(390.0, 762.0)",0.5166666666666666,0.588,1,583.709,1,0.02,same
0,57,valid,"[(1160, 793)]",[],[1],[0.5833333333333334],vertical,"(390.0, 262.0)",0.8166666666666667,0.543,1,588.313,1,0.02,same
0,58,catch,"[(1183, 789)]",[],[1],[],vertical,"(390.0, 762.0)",1.7,nan,1,593.063,2,0.02,same
0,59,valid,"[(1164, 789)]",[],[1],[0.5833333333333334],horizontal,"(390.0, 762.0)",0.5666666666666667,0.544,1,598.747,2,0.02,same
0,60,valid,"[(1170, 800)]",[],[1],[0.5],horizontal,"(390.0, 762.0)",0.6666666666666666,0.452,1,603.846,2,0.02,same
0,61,valid,"[(1180, 794)]",[],[1],[0.6],horizontal,"(390.0, 262.0)",1.1833333333333333,0.56,1,609.013,3,0.02,same
0,62,invalid_adjacent_other_bar,"[(1165, 786)]",[],[1],[0.85],vertical,"(890.0, 262.0)",1.2666666666666666,nan,0,615.324,0,0.02,other
0,63,valid,"[(1140, 817)]",[],[1],[0.65],horizontal,"(890.0, 262.0)",0.5166666666666666,0.605,1,620.002,1,0.02,same
0,64,valid,"[(1165, 779)]",[],[1],[0.55],horizontal,"(890.0, 762.0)",1.4833333333333334,0.503,1,624.695,1,0.02,same
0,65,invalid_adjacent_other_bar,"[(1165, 782)]",[],[1],[0.5333333333333333],horizontal,"(890.0, 762.0)",1.0166666666666666,0.489,1,630.651,1,0.02,other
0,66,valid,"[(1179, 816)]",[],[1],[0.5666666666666667],horizontal,"(390.0, 762.0)",0.75,0.522,1,635.554,2,0.02,same
0,67,valid,"[(1212, 794)]",[],[1],[0.65],vertical,"(890.0, 262.0)",1.25,0.61,1,640.637,2,0.02,same
0,68,valid,"[(1162, 799)]",[],[1],[0.5166666666666666],horizontal,"(390.0, 762.0)",0.9166666666666666,0.483,1,646.329,2,0.02,same
0,69,valid,"[(1160, 818)]",[],[1],[0.5833333333333334],horizontal,"(890.0, 762.0)",1.3333333333333333,0.544,1,652.079,3,0.02,same
0,70,catch,"[(1184, 794)]",[],[1],[],vertical,"(890.0, 762.0)",1.7,nan,1,658.625,3,0.02,same
0,71,valid,"[(1175, 780)]",[],[1],[0.5833333333333334],horizontal,"(890.0, 762.0)",1.1,0.541,1,665.146,3,0.02,same
0,72,catch,"[(1180, 795)]",[],[1],[],vertical,"(390.0, 262.0)",1.7,nan,1,671.296,3,0.02,same
0,73,invalid_adjacent_other_bar,"[(1175, 796)]",[],[1],[0.5833333333333334],horizontal,"(390.0, 762.0)",0.9833333333333333,0.538,1,676.946,3,0.02,other
0,74,valid,"[(1146, 784)]",[],[1],[0.5166666666666666],horizontal,"(390.0, 762.0)",0.7333333333333333,0.477,1,683.036,3,0.02,same
0,75,invalid_adjacent_other_bar,"[(1161, 782)]",[],[1],[0.5166666666666666],horizontal,"(390.0, 762.0)",0.7833333333333333,0.48,1,688.462,3,0.02,other
0,76,invalid_same_bar,"[(1164, 795)]",[],[1],[0.5166666666666666],horizontal,"(390.0, 762.0)",0.85,0.481,1,694.098,3,0.02,same
0,77,valid,"[(1160, 777)]",[],[1],[0.55],vertical,"(390.0, 262.0)",1.2166666666666666,0.506,1,699.496,3,0.02,same
0,78,catch,"[(1160, 813)]",[],[1],[],horizontal,"(890.0, 762.0)",1.7,nan,1,705.396,3,0.02,same
0,79,valid,"[(1153, 830)]",[],[1],[],horizontal,"(390.0, 762.0)",,"('cti', 0.718)",0,711.676,0,0.02,same
0,80,valid,"[(1145, 850)]",[],[1],[0.8166666666666667],vertical,"(390.0, 762.0)",0.6333333333333333,0.768,1,715.63,1,0.02,same
0,81,valid,"[(1155, 813)]",[],[1],[0.5333333333333333],horizontal,"(890.0, 262.0)",1.3166666666666667,0.49,1,1858.498,1,0.02,same
0,82,valid,"[(1140, 847)]",[],[1],[0.5166666666666666],vertical,"(890.0, 262.0)",0.4166666666666667,0.481,1,1863.916,1,0.02,same
0,83,valid,"[(1170, 848)]",[],[1],[0.5333333333333333],horizontal,"(390.0, 762.0)",1.25,0.499,1,1868.684,2,0.02,same
0,84,catch,"[(1167, 794)]",[],[1],[],vertical,"(390.0, 262.0)",,"('cti', 1.622),nan",0,1874.433,0,0.04,same
0,85,valid,"[(1144, 849)]",[],[1],[0.7666666666666666],horizontal,"(890.0, 762.0)",1.3833333333333333,0.724,1,1879.283,1,0.04,same
0,86,valid,"[(1140, 812)]",[],[1],[0.6666666666666666],vertical,"(390.0, 762.0)",1.3166666666666667,0.626,1,1885.517,1,0.04,same
0,87,valid,"[(1166, 803)]",[],[1],[0.7833333333333333],vertical,"(890.0, 762.0)",0.6333333333333333,0.735,1,1890.865,1,0.04,same
0,88,valid,"[(1189, 804)]",[],[1],[0.85],horizontal,"(890.0, 762.0)",0.43333333333333335,nan,0,1895.45,0,0.04,same
0,89,valid,"[(1133, 838)]",[],[1],[0.85],horizontal,"(890.0, 262.0)",0.6,nan,0,1899.929,0,0.04,same
0,90,catch,"[(1131, 829)]",[],[1],[],horizontal,"(390.0, 262.0)",1.7,nan,1,1904.443,1,0.04,same
0,91,valid,"[(1166, 802)]",[],[1],[0.65],horizontal,"(390.0, 762.0)",0.5166666666666666,0.61,1,1915.089,1,0.04,same
0,92,valid,"[(1176, 848)]",[],[1],[0.48333333333333334],horizontal,"(890.0, 762.0)",1.5166666666666666,0.445,1,1920.016,1,0.04,same
0,93,valid,"[(1178, 790)]",[],[1],[0.6166666666666667],vertical,"(390.0, 262.0)",0.4,0.575,1,1925.566,2,0.04,same
0,94,valid,"[(1171, 843)]",[],[1],[0.55],vertical,"(890.0, 762.0)",1.15,0.508,1,1930.439,2,0.04,same
0,95,valid,"[(1165, 805)]",[],[1],[0.65],vertical,"(390.0, 762.0)",1.0,0.61,1,1936.333,2,0.04,same
0,96,invalid_adjacent_other_bar,"[(1166, 800)]",[],[1],[0.8166666666666667],vertical,"(390.0, 262.0)",0.8,0.767,1,1942.017,3,0.04,other
0,97,valid,"[(1163, 788)]",[],[1],[0.5666666666666667],horizontal,"(390.0, 762.0)",1.1,0.522,1,1948.249,3,0.04,same
0,98,valid,"[(1179, 817)]",[],[1],[0.85],horizontal,"(890.0, 762.0)",0.5833333333333334,nan,0,1954.283,0,0.02,same
0,99,catch,"[(1131, 799)]",[],[1],[],horizontal,"(390.0, 762.0)",1.7,nan,1,1958.429,1,0.02,same
0,100,valid,"[(1153, 828)]",[],[1],[0.5666666666666667],vertical,"(890.0, 262.0)",0.36666666666666664,0.524,1,1967.567,1,0.02,same
0,101,catch,"[(1161, 815)]",[],[1],[],horizontal,"(390.0, 262.0)",1.7,nan,1,1972.188,1,0.02,same
0,102,valid,"[(1165, 843)]",[],[1],[0.5833333333333334],horizontal,"(390.0, 262.0)",1.1333333333333333,0.541,1,1981.516,2,0.02,same
0,103,valid,"[(1166, 785)]",[],[1],[0.55],vertical,"(390.0, 262.0)",1.1833333333333333,0.506,1,1988.863,2,0.02,same
0,104,valid,"[(1179, 789)]",[],[1],[0.6],vertical,"(390.0, 262.0)",0.5833333333333334,0.557,1,1994.639,2,0.02,same
0,105,valid,"[(1175, 803)]",[],[1],[0.16666666666666666],horizontal,"(890.0, 262.0)",1.2166666666666666,0.133,0,1999.488,0,0.02,same
0,106,invalid_same_bar,"[(1144, 798)]",[],[1],[0.5666666666666667],vertical,"(890.0, 262.0)",0.9833333333333333,0.523,1,2004.369,1,0.02,same
0,107,invalid_same_bar,"[(1162, 804)]",[],[1],[0.85],horizontal,"(890.0, 262.0)",1.05,nan,0,2009.615,0,0.02,same
0,108,valid,"[(1136, 822)]",[],[1],[0.85],horizontal,"(390.0, 762.0)",1.05,nan,0,2014.806,0,0.02,same
0,109,catch,"[(1163, 836)]",[],[1],[],vertical,"(890.0, 262.0)",1.7,nan,1,2026.901,1,0.02,same
0,110,valid,"[(1160, 796)]",[],[1],[0.85],vertical,"(890.0, 262.0)",1.05,nan,0,2033.717,0,0.02,same
0,111,valid,"[(1161, 827)]",[],[1],[0.6],vertical,"(890.0, 262.0)",0.4,0.56,1,2038.434,1,0.02,same
0,112,invalid_adjacent_other_bar,"[(1175, 814)]",[],[1],[0.85],horizontal,"(890.0, 762.0)",0.7666666666666666,nan,0,2042.734,0,0.02,other
0,113,valid,"[(1142, 786)]",[],[1],[0.6166666666666667],vertical,"(390.0, 762.0)",1.2333333333333334,0.569,1,2047.318,1,0.02,same
0,114,valid,"[(1169, 795)]",[],[1],[0.3833333333333333],vertical,"(890.0, 262.0)",0.7,0.345,1,2052.733,1,0.02,same
0,115,valid,"[(1162, 785)]",[],[1],[0.85],vertical,"(890.0, 262.0)",0.4166666666666667,nan,0,2057.537,0,0.02,same
0,116,valid,"[(1165, 789)]",[],[1],[0.55],horizontal,"(890.0, 262.0)",0.6833333333333333,0.509,1,2061.942,1,0.02,same
0,117,catch,"[(1178, 779)]",[],[1],[],horizontal,"(890.0, 262.0)",1.7,nan,1,2066.892,1,0.02,same
0,118,valid,"[(1166, 784)]",[],[1],[0.85],vertical,"(890.0, 762.0)",0.6833333333333333,nan,0,2072.534,0,0.02,same
0,119,valid,"[(1180, 794)]",[],[1],[0.06666666666666667],vertical,"(390.0, 262.0)",1.1,0.037,0,2077.5,0,0.02,same
0,120,valid,"[(1156, 825)]",[],[1],[0.65],horizontal,"(890.0, 262.0)",0.8,0.612,1,2081.534,1,0.02,same
0,121,catch,"[(1165, 797)]",[],[1],[],vertical,"(890.0, 762.0)",1.7,nan,1,2090.813,1,0.02,same
0,122,valid,"[(1176, 789)]",[],[1],[0.85],vertical,"(390.0, 762.0)",0.7,nan,0,2096.001,0,0.02,same
0,123,valid,"[(1165, 792)]",[],[1],[0.5833333333333334],vertical,"(390.0, 762.0)",1.5333333333333332,0.539,1,2100.597,1,0.02,same
0,124,valid,"[(1170, 789)]",[],[1],[0.5166666666666666],horizontal,"(890.0, 262.0)",0.75,0.478,1,2105.901,1,0.02,same
0,125,valid,"[(1170, 792)]",[],[1],[0.55],horizontal,"(890.0, 762.0)",1.25,0.507,1,2111.017,1,0.02,same
0,126,catch,"[(1175, 808)]",[],[1],[],vertical,"(890.0, 262.0)",1.7,nan,1,2116.684,2,0.02,same
0,127,invalid_adjacent_other_bar,"[(1203, 813)]",[],[1],[0.65],horizontal,"(390.0, 262.0)",0.75,0.601,1,2122.852,2,0.02,other
0,128,invalid_adjacent_other_bar,"[(1165, 799)]",[],[1],[0.6666666666666666],horizontal,"(390.0, 262.0)",1.35,0.629,1,2128.302,2,0.02,other
0,129,valid,"[(1176, 789)]",[],[1],[0.85],horizontal,"(390.0, 262.0)",1.4333333333333333,nan,0,2134.473,0,0.02,same
0,130,catch,"[(1120, 833)]",[],[1],[],vertical,"(390.0, 262.0)",1.7,nan,1,2139.935,1,0.02,same
0,131,catch,"[(1166, 813)]",[],[1],[],horizontal,"(890.0, 762.0)",1.7,nan,1,2145.584,1,0.02,same
0,132,valid,"[(1174, 786)]",[],[1],[0.5333333333333333],vertical,"(390.0, 262.0)",0.3833333333333333,0.492,1,2150.406,1,0.02,same
0,133,valid,"[(1180, 799)]",[],[1],[0.85],vertical,"(390.0, 262.0)",0.45,nan,0,2154.514,0,0.02,same
0,134,catch,"[(1132, 817)]",[],[1],[],vertical,"(890.0, 262.0)",1.7,nan,1,2159.103,1,0.0,same
0,135,catch,"[(1164, 792)]",[],[1],[],vertical,"(390.0, 262.0)",1.7,nan,1,2166.483,1,0.0,same
0,136,invalid_same_bar,"[(1175, 787)]",[],[1],[0.85],horizontal,"(390.0, 262.0)",0.9833333333333333,nan,0,2171.33,0,0.0,same
0,137,invalid_adjacent_other_bar,"[(1125, 820)]",[],[1],[0.2833333333333333],vertical,"(390.0, 762.0)",1.15,0.248,1,2176.295,1,0.0,other
0,138,valid,"[(1167, 785)]",[],[1],[0.6833333333333333],vertical,"(390.0, 262.0)",1.25,0.634,1,2181.523,1,0.0,same
0,139,invalid_same_bar,"[(1175, 798)]",[],[1],[0.85],horizontal,"(390.0, 262.0)",0.7166666666666667,nan,0,2186.972,0,0.0,same
0,140,valid,"[(1166, 812)]",[],[1],[0.6333333333333333],vertical,"(390.0, 262.0)",1.2,0.586,1,2191.602,1,0.0,same
0,141,catch,"[(1140, 790)]",[],[1],[],horizontal,"(390.0, 762.0)",1.7,nan,1,2197.129,1,0.0,same
0,142,valid,"[(1131, 823)]",[],[1],[0.85],horizontal,"(390.0, 762.0)",1.1,nan,0,2202.352,0,0.0,same
0,143,valid,"[(1164, 827)]",[],[1],[0.5333333333333333],horizontal,"(390.0, 762.0)",1.3666666666666667,0.491,1,2209.402,1,0.0,same
0,144,valid,"[(1164, 797)]",[],[1],[0.5833333333333334],vertical,"(890.0, 262.0)",1.15,0.539,1,2214.867,1,0.0,same
0,145,valid,"[(1166, 794)]",[],[1],[0.85],horizontal,"(890.0, 762.0)",0.48333333333333334,nan,0,2220.111,0,0.0,same
0,146,invalid_adjacent_other_bar,"[(1145, 842)]",[],[1],[0.85],vertical,"(390.0, 762.0)",1.0166666666666666,nan,0,2224.997,0,0.0,other
0,147,valid,"[(1121, 795)]",[],[1],[0.55],vertical,"(390.0, 762.0)",0.36666666666666664,0.502,1,2232.33,1,0.0,same
0,148,catch,"[(1159, 798)]",[],[1],[],vertical,"(890.0, 262.0)",1.7,nan,1,2236.949,1,0.0,same
0,149,catch,"[(1174, 806)]",[],[1],[],vertical,"(390.0, 262.0)",1.7,nan,1,2242.205,1,0.0,same
0,150,valid,"[(1140, 792)]",[],[1],[0.6333333333333333],horizontal,"(390.0, 762.0)",1.1166666666666667,0.593,1,2247.408,2,0.0,same
0,151,valid,"[(1170, 799)]",[],[1],[0.65],horizontal,"(890.0, 262.0)",1.4,0.606,1,2252.973,2,0.0,same
0,152,valid,"[(1180, 792)]",[],[1],[0.7],horizontal,"(890.0, 762.0)",1.5166666666666666,0.653,1,2258.7,2,0.0,same
0,153,catch,"[(1188, 801)]",[],[1],[],vertical,"(890.0, 262.0)",1.7,nan,1,2264.835,3,0.0,same
0,154,valid,"[(1182, 795)]",[],[1],[0.85],vertical,"(390.0, 762.0)",0.4,nan,0,2270.834,0,0.0,same
0,155,valid,"[(1163, 785)]",[],[1],[0.85],horizontal,"(890.0, 762.0)",0.4,nan,0,2274.945,0,0.0,same
0,156,invalid_same_bar,"[(1111, 815)]",[],[1],[0.6333333333333333],horizontal,"(890.0, 262.0)",0.75,0.589,1,2279.351,1,0.0,same
0,157,valid,"[(1161, 808)]",[],[1],[0.7666666666666666],vertical,"(890.0, 262.0)",0.9333333333333333,0.717,1,2285.651,1,0.0,same
0,158,valid,"[(1177, 802)]",[],[1],[0.6],vertical,"(390.0, 762.0)",1.0,0.553,1,2290.875,1,0.0,same
0,159,valid,"[(1173, 821)]",[],[1],[0.85],horizontal,"(890.0, 262.0)",1.0333333333333332,nan,0,2295.977,0,0.0,same
0,160,valid,"[(1166, 799)]",[],[1],[0.6166666666666667],horizontal,"(390.0, 262.0)",0.7,0.574,1,2301.123,1,0.0,same
0,161,catch,"[(1167, 808)]",[],[1],[],vertical,"(890.0, 262.0)",1.7,nan,1,2305.964,1,0.0,same
0,162,invalid_same_bar,"[(1161, 798)]",[],[1],[0.8],horizontal,"(890.0, 762.0)",1.2333333333333334,0.762,1,2311.051,1,0.0,same
0,163,valid,"[(1185, 800)]",[],[1],[0.5833333333333334],horizontal,"(390.0, 762.0)",0.5166666666666666,0.541,1,2316.901,2,0.0,same
0,164,invalid_adjacent_other_bar,"[(1178, 803)]",[],[1],[0.85],horizontal,"(890.0, 262.0)",0.8333333333333334,nan,0,2322.291,0,0.0,other
0,165,valid,"[(1166, 794)]",[],[1],[0.85],vertical,"(890.0, 262.0)",1.4333333333333333,nan,0,2327.151,0,0.0,same
0,166,valid,"[(1135, 815)]",[],[1],[0.7833333333333333],vertical,"(390.0, 262.0)",0.9833333333333333,0.743,1,2332.92,1,0.0,same
0,167,invalid_same_bar,"[(1180, 803)]",[],[1],[0.85],vertical,"(890.0, 762.0)",0.9666666666666667,nan,0,2337.813,0,0.0,same
0,168,catch,"[(1162, 816)]",[],[1],[],vertical,"(890.0, 762.0)",1.7,nan,1,2342.268,1,0.0,same
0,169,valid,"[(1166, 799)]",[],[1],[0.5333333333333333],horizontal,"(390.0, 262.0)",1.1833333333333333,0.494,1,2347.585,1,0.0,same
0,170,invalid_same_bar,"[(1175, 789)]",[],[1],[0.5833333333333334],horizontal,"(890.0, 762.0)",0.8666666666666667,0.547,1,2352.552,1,0.0,same
0,171,catch,"[(1168, 794)]",[],[1],[],horizontal,"(390.0, 262.0)",1.7,nan,1,2357.227,2,0.0,same
0,172,valid,"[(1168, 817)]",[],[1],[0.5833333333333334],vertical,"(890.0, 262.0)",0.7833333333333333,0.543,1,2362.735,2,0.0,same
0,173,invalid_same_bar,"[(1167, 786)]",[],[1],[0.85],vertical,"(890.0, 262.0)",1.45,nan,0,2368.019,0,0.0,same
0,174,catch,"[(1155, 803)]",[],[1],[],horizontal,"(890.0, 262.0)",1.7,nan,1,2373.052,1,0.0,same
0,175,valid,"[(1137, 847)]",[],[1],[0.6333333333333333],horizontal,"(390.0, 262.0)",0.85,0.594,1,2378.285,1,0.0,same
0,176,valid,"[(1164, 790)]",[],[1],[0.5166666666666666],vertical,"(390.0, 762.0)",1.4833333333333334,0.477,1,2383.553,1,0.0,same
0,177,valid,"[(1168, 790)]",[],[1],[0.5666666666666667],vertical,"(890.0, 762.0)",0.8333333333333334,0.521,1,2389.435,2,0.0,same
0,178,valid,"[(1163, 786)]",[],[1],[0.7666666666666666],horizontal,"(390.0, 262.0)",1.05,0.72,1,2394.285,2,0.0,same
0,179,catch,"[(1175, 816)]",[],[1],[],horizontal,"(390.0, 262.0)",1.7,nan,1,2400.317,2,0.0,same
0,180,valid,"[(1167, 808)]",[],[1],[0.85],horizontal,"(390.0, 262.0)",1.1333333333333333,nan,0,2405.803,0,0.0,same
0,181,valid,"[(1139, 786)]",[],[1],[0.55],horizontal,"(390.0, 262.0)",0.6166666666666667,0.508,1,2410.769,1,0.0,same
0,182,catch,"[(1193, 776)]",[],[1],[],vertical,"(390.0, 262.0)",1.7,nan,1,2415.518,1,0.0,same
0,183,valid,"[(1175, 786)]",[],[1],[0.5666666666666667],horizontal,"(890.0, 262.0)",0.65,0.525,1,2421.002,1,0.0,same
0,184,valid,"[(1192, 786)]",[],[1],[0.5833333333333334],horizontal,"(390.0, 262.0)",1.4833333333333334,0.537,1,2425.297,2,0.0,same
0,185,valid,"[(1177, 795)]",[],[1],[0.6666666666666666],horizontal,"(390.0, 262.0)",1.3333333333333333,0.621,1,2431.682,2,0.0,same
0,186,catch,"[(1175, 827)]",[],[1],[],horizontal,"(890.0, 262.0)",1.7,nan,1,2438.084,2,0.0,same
0,187,valid,"[(1177, 797)]",[],[1],[0.6666666666666666],vertical,"(390.0, 262.0)",1.1333333333333333,0.627,1,2443.785,3,0.0,same
0,188,valid,"[(1177, 810)]",[],[1],[0.5666666666666667],horizontal,"(890.0, 262.0)",0.4166666666666667,0.525,1,2450.025,3,0.0,same
0,189,valid,"[(1135, 808)]",[],[1],[0.6333333333333333],horizontal,"(890.0, 762.0)",0.6333333333333333,0.589,1,2455.234,3,0.0,same
0,190,valid,"[(1165, 806)]",[],[1],[0.6166666666666667],vertical,"(390.0, 762.0)",1.1333333333333333,0.572,1,2461.086,3,0.0,same
0,191,valid,"[(1163, 807)]",[],[1],[0.55],vertical,"(890.0, 262.0)",0.5333333333333333,0.5,1,2467.244,3,0.0,same
0,192,catch,"[(1168, 799)]",[],[1],[],horizontal,"(890.0, 762.0)",1.7,nan,1,2472.352,3,0.0,same
0,193,valid,"[(1183, 806)]",[],[1],[0.6666666666666666],horizontal,"(390.0, 262.0)",1.3166666666666667,0.627,1,2478.017,3,0.0,same
0,194,valid,"[(1178, 809)]",[],[1],[0.6166666666666667],vertical,"(390.0, 762.0)",0.6666666666666666,0.577,1,2484.369,3,0.0,same
0,195,valid,"[(1180, 799)]",[],[1],[0.5833333333333334],horizontal,"(390.0, 762.0)",1.4666666666666666,0.547,1,2489.918,3,0.0,same
0,196,valid,"[(1168, 791)]",[],[1],[0.5666666666666667],vertical,"(890.0, 262.0)",1.05,0.528,1,2496.444,3,0.0,same
0,197,catch,"[(1165, 795)]",[],[1],[],horizontal,"(390.0, 762.0)",1.7,nan,1,2502.177,3,0.0,same
0,198,catch,"[(1163, 789)]",[],[1],[],horizontal,"(390.0, 262.0)",1.7,nan,1,2507.846,3,0.0,same
0,199,valid,"[(1169, 802)]",[],[1],[0.6333333333333333],horizontal,"(890.0, 262.0)",1.35,0.591,1,2513.697,3,0.0,same
0,200,valid,"[(1175, 792)]",[],[1],[0.65],vertical,"(390.0, 262.0)",1.4166666666666667,0.605,1,2519.887,3,0.0,same
0,201,valid,"[(1170, 788)]",[],[1],[0.6833333333333333],vertical,"(890.0, 762.0)",0.48333333333333334,0.636,1,2525.853,3,0.0,same
0,202,valid,"[(1167, 799)]",[],[1],[0.6666666666666666],horizontal,"(390.0, 762.0)",1.3833333333333333,0.626,1,2531.469,3,0.0,same
0,203,valid,"[(1164, 778)]",[],[1],[0.85],horizontal,"(390.0, 262.0)",0.7833333333333333,nan,0,2537.486,0,0.0,same
0,204,valid,"[(1165, 796)]",[],[1],[0.65],vertical,"(890.0, 762.0)",1.2833333333333332,0.609,1,2541.935,1,0.0,same
0,205,valid,"[(1180, 785)]",[],[1],[0.85],vertical,"(390.0, 262.0)",0.43333333333333335,nan,0,2547.818,0,0.0,same
0,206,valid,"[(1149, 798)]",[],[1],[0.55],horizontal,"(890.0, 762.0)",0.6333333333333333,0.504,1,2552.268,1,0.0,same
0,207,valid,"[(1168, 792)]",[],[1],[0.85],vertical,"(890.0, 262.0)",0.45,nan,0,2557.019,0,0.0,same
0,208,valid,"[(1169, 799)]",[],[1],[0.6833333333333333],vertical,"(390.0, 762.0)",0.85,0.638,1,2561.569,1,0.0,same
0,209,valid,"[(1188, 802)]",[],[1],[0.6666666666666666],vertical,"(390.0, 262.0)",0.6833333333333333,0.621,1,2566.235,1,0.0,same
0,210,catch,"[(1165, 779)]",[],[1],[],horizontal,"(390.0, 262.0)",1.7,nan,1,2570.658,1,0.0,same
0,211,valid,"[(1180, 786)]",[],[1],[0.55],horizontal,"(890.0, 762.0)",1.1,0.508,1,2576.066,2,0.0,same
0,212,invalid_same_bar,"[(1163, 789)]",[],[1],[0.85],vertical,"(390.0, 762.0)",1.0166666666666666,nan,0,2581.418,0,0.0,same
0,213,valid,"[(1165, 825)]",[],[1],[0.85],vertical,"(390.0, 262.0)",1.15,nan,0,2585.902,0,0.0,same
0,214,catch,"[(1170, 803)]",[],[1],[],vertical,"(390.0, 762.0)",,"('cti', 1.472),nan",0,2591.165,0,0.02,same
0,215,invalid_same_bar,"[(1177, 824)]",[],[1],[0.5666666666666667],vertical,"(890.0, 262.0)",0.7333333333333333,0.527,1,2595.832,1,0.02,same
0,216,valid,"[(1172, 807)]",[],[1],[0.85],horizontal,"(890.0, 262.0)",1.3,nan,0,2600.801,0,0.02,same
0,217,valid,"[(1144, 804)]",[],[1],[0.85],horizontal,"(890.0, 762.0)",1.15,nan,0,2606.127,0,0.02,same
0,218,valid,"[(1136, 798)]",[],[1],[0.6166666666666667],horizontal,"(890.0, 762.0)",0.5333333333333333,0.581,1,2611.417,1,0.02,same
0,219,valid,"[(1179, 787)]",[],[1],[0.85],vertical,"(890.0, 262.0)",0.7333333333333333,nan,0,2616.453,0,0.02,same
0,220,invalid_adjacent_other_bar,"[(1160, 808)]",[],[1],[0.6833333333333333],horizontal,"(390.0, 762.0)",0.7333333333333333,0.647,1,2621.003,1,0.02,other
0,221,valid,"[(1170, 784)]",[],[1],[0.85],horizontal,"(390.0, 762.0)",1.0333333333333332,nan,0,2625.936,0,0.02,same
0,222,valid,"[(1091, 859)]",[],[1],[0.5833333333333334],vertical,"(890.0, 762.0)",0.7166666666666667,0.537,1,2631.037,1,0.02,same
0,223,catch,"[(1155, 798)]",[],[1],[],vertical,"(890.0, 762.0)",1.7,nan,1,2639.105,1,0.02,same
0,224,valid,"[(1182, 804)]",[],[1],[0.6333333333333333],horizontal,"(390.0, 762.0)",1.2166666666666666,0.591,1,2644.203,1,0.02,same
0,225,valid,"[(1188, 802)]",[],[1],[0.65],horizontal,"(890.0, 762.0)",0.4,0.609,1,2649.485,2,0.02,same
0,226,catch,"[(1170, 788)]",[],[1],[],vertical,"(390.0, 262.0)",1.7,nan,1,2654.328,2,0.02,same
0,227,catch,"[(1207, 794)]",[],[1],[],horizontal,"(890.0, 262.0)",1.7,nan,1,2659.952,2,0.02,same
0,228,valid,"[(1165, 804)]",[],[1],[0.6333333333333333],vertical,"(890.0, 262.0)",0.5,0.593,1,2666.065,3,0.02,same
0,229,catch,"[(1165, 791)]",[],[1],[],vertical,"(890.0, 262.0)",1.7,nan,1,2671.519,3,0.02,same
0,230,catch,"[(1167, 789)]",[],[1],[],vertical,"(890.0, 762.0)",1.7,nan,1,2677.763,3,0.02,same
0,231,invalid_adjacent_other_bar,"[(1178, 801)]",[],[1],[0.6833333333333333],horizontal,"(890.0, 262.0)",0.8666666666666667,0.641,1,2683.553,3,0.02,other
0,232,valid,"[(1163, 818)]",[],[1],[0.5666666666666667],vertical,"(390.0, 762.0)",0.8833333333333333,0.524,1,2688.822,3,0.02,same
0,233,valid,"[(1180, 794)]",[],[1],[0.6],vertical,"(890.0, 762.0)",1.2666666666666666,0.558,1,2694.737,3,0.02,same
0,234,invalid_adjacent_other_bar,"[(1155, 781)]",[],[1],[0.5833333333333334],vertical,"(390.0, 762.0)",0.6,0.541,1,2700.586,3,0.02,other
0,235,valid,"[(1166, 768)]",[],[1],[0.6666666666666666],vertical,"(390.0, 262.0)",1.2166666666666666,0.626,1,2705.936,3,0.02,same
0,236,catch,"[(1188, 790)]",[],[1],[],vertical,"(890.0, 262.0)",1.7,nan,1,2712.27,3,0.02,same
0,237,valid,"[(1169, 788)]",[],[1],[0.5666666666666667],vertical,"(890.0, 762.0)",0.9833333333333333,0.518,1,2717.99,3,0.02,same
0,238,valid,"[(1176, 792)]",[],[1],[0.6666666666666666],horizontal,"(890.0, 262.0)",1.4166666666666667,0.626,1,2723.72,3,0.02,same
0,239,catch,"[(1167, 792)]",[],[1],[],vertical,"(890.0, 262.0)",1.7,nan,1,2729.786,3,0.02,same
0,240,catch,"[(1159, 797)]",[],[1],[],horizontal,"(890.0, 762.0)",1.7,nan,1,2735.744,3,0.02,same
0,241,valid,"[(1165, 803)]",[],[1],[0.6],horizontal,"(390.0, 762.0)",1.4166666666666667,0.567,1,2741.789,3,0.02,same
0,242,valid,"[(1170, 802)]",[],[1],[0.55],horizontal,"(890.0, 762.0)",1.5166666666666666,0.51,1,2747.924,3,0.02,same
0,243,catch,"[(1178, 800)]",[],[1],[],horizontal,"(390.0, 762.0)",1.7,nan,1,2754.144,3,0.02,same
0,244,valid,"[(1167, 778)]",[],[1],[0.8],vertical,"(390.0, 762.0)",0.9666666666666667,0.765,1,2759.928,3,0.02,same
0,245,valid,"[(1171, 790)]",[],[1],[0.75],horizontal,"(890.0, 762.0)",1.0166666666666666,0.707,1,2766.249,3,0.02,same
0,246,valid,"[(1161, 795)]",[],[1],[0.65],vertical,"(390.0, 762.0)",1.5166666666666666,0.606,1,2772.541,3,0.02,same
0,247,catch,"[(1165, 802)]",[],[1],[],vertical,"(890.0, 762.0)",1.7,nan,1,2778.965,3,0.02,same
0,248,invalid_adjacent_other_bar,"[(1180, 790)]",[],[1],[0.85],vertical,"(890.0, 262.0)",1.0833333333333333,nan,0,2784.697,0,0.02,other
0,249,catch,"[(1133, 822)]",[],[1],[],vertical,"(390.0, 262.0)",1.7,nan,1,2789.353,1,0.02,same
0,250,catch,"[(1165, 795)]",[],[1],[],vertical,"(890.0, 262.0)",1.7,nan,1,2794.453,1,0.02,same
0,251,valid,"[(1162, 780)]",[],[1],[0.55],vertical,"(390.0, 762.0)",1.5166666666666666,0.511,1,2799.72,1,0.02,same
0,252,valid,"[(1165, 779)]",[],[1],[0.85],vertical,"(390.0, 762.0)",1.2166666666666666,nan,0,2805.173,0,0.02,same
0,253,valid,"[(1172, 812)]",[],[1],[0.6166666666666667],vertical,"(890.0, 262.0)",1.2666666666666666,0.571,1,2810.502,1,0.02,same
0,254,valid,"[(1175, 793)]",[],[1],[0.5666666666666667],vertical,"(390.0, 762.0)",1.35,0.532,1,2816.07,1,0.02,same
0,255,valid,"[(1138, 791)]",[],[1],[0.85],vertical,"(890.0, 262.0)",0.3833333333333333,nan,0,2821.537,0,0.02,same
0,256,valid,"[(1135, 820)]",[],[1],[0.6166666666666667],vertical,"(390.0, 762.0)",0.7333333333333333,0.58,1,2838.069,1,0.02,same
0,257,valid,"[(1152, 796)]",[],[1],[0.6],vertical,"(390.0, 262.0)",0.48333333333333334,0.559,1,2843.24,1,0.02,same
0,258,valid,"[(1179, 801)]",[],[1],[0.6333333333333333],vertical,"(890.0, 262.0)",0.4166666666666667,0.592,1,2848.111,1,0.02,same
0,259,catch,"[(1160, 772)]",[],[1],[],horizontal,"(890.0, 762.0)",1.7,nan,1,2852.837,2,0.02,same
0,260,catch,"[(1180, 820)]",[],[1],[],horizontal,"(890.0, 262.0)",1.7,nan,1,2858.187,2,0.02,same
0,261,valid,"[(1161, 799)]",[],[1],[0.85],vertical,"(890.0, 262.0)",0.4,nan,0,2864.158,0,0.02,same
0,262,valid,"[(1168, 819)]",[],[1],[0.85],vertical,"(890.0, 262.0)",0.4166666666666667,nan,0,2868.803,0,0.02,same
0,263,valid,"[(1170, 869)]",[],[1],[0.65],vertical,"(390.0, 262.0)",1.1,0.618,1,2873.511,1,0.02,same
0,264,valid,"[(1135, 779)]",[],[1],[0.85],vertical,"(890.0, 262.0)",0.35,nan,0,2881.208,0,0.0,same
0,265,valid,"[(1131, 786)]",[],[1],[0.6666666666666666],vertical,"(890.0, 762.0)",0.8333333333333334,0.626,1,2885.687,1,0.0,same
0,266,catch,"[(1181, 804)]",[],[1],[],horizontal,"(390.0, 262.0)",1.7,nan,1,2891.153,1,0.0,same
0,267,catch,"[(1185, 795)]",[],[1],[],horizontal,"(890.0, 762.0)",1.7,nan,1,2896.221,1,0.0,same
0,268,valid,"[(1170, 773)]",[],[1],[0.6],horizontal,"(390.0, 762.0)",1.0833333333333333,0.556,1,2901.314,2,0.0,same
0,269,valid,"[(1165, 791)]",[],[1],[0.85],vertical,"(390.0, 762.0)",1.1833333333333333,nan,0,2906.654,0,0.0,same
0,270,invalid_same_bar,"[(1175, 790)]",[],[1],[0.85],vertical,"(390.0, 262.0)",0.65,nan,0,2911.392,0,0.0,same
0,271,valid,"[(1153, 819)]",[],[1],[0.85],horizontal,"(890.0, 262.0)",0.6666666666666666,nan,0,2916.238,0,0.0,same
0,272,catch,"[(1140, 817)]",[],[1],[],horizontal,"(390.0, 762.0)",1.7,nan,1,2920.569,1,0.0,same
0,273,valid,"[(1177, 814)]",[],[1],[0.85],horizontal,"(890.0, 262.0)",0.8666666666666667,nan,0,2925.87,0,0.0,same
0,274,catch,"[(1146, 800)]",[],[1],[],vertical,"(390.0, 762.0)",1.7,nan,1,2930.853,1,0.0,same
0,275,valid,"[(1179, 802)]",[],[1],[0.6],vertical,"(890.0, 262.0)",1.3666666666666667,0.558,1,2935.978,1,0.0,same
0,276,valid,"[(1177, 790)]",[],[1],[0.5333333333333333],vertical,"(890.0, 762.0)",0.6833333333333333,0.493,1,2941.482,1,0.0,same
0,277,valid,"[(1164, 799)]",[],[1],[0.85],horizontal,"(890.0, 262.0)",1.0833333333333333,nan,0,2946.507,0,0.0,same
0,278,valid,"[(1141, 775)]",[],[1],[0.5833333333333334],vertical,"(890.0, 762.0)",0.8,0.534,1,2951.554,1,0.0,same
0,279,valid,"[(1178, 804)]",[],[1],[0.5666666666666667],horizontal,"(390.0, 762.0)",1.3166666666666667,0.525,1,2956.771,1,0.0,same
0,280,valid,"[(1136, 789)]",[],[1],[0.6333333333333333],horizontal,"(890.0, 262.0)",0.5833333333333334,0.595,1,2962.505,1,0.0,same
0,281,valid,"[(1180, 788)]",[],[1],[0.85],horizontal,"(390.0, 262.0)",1.1,nan,0,2967.369,0,0.0,same
0,282,valid,"[(1161, 827)]",[],[1],[0.6833333333333333],horizontal,"(890.0, 262.0)",0.65,0.644,1,2972.602,1,0.0,same
0,283,catch,"[(1176, 808)]",[],[1],[],horizontal,"(390.0, 762.0)",1.7,nan,1,2977.437,1,0.0,same
0,284,valid,"[(1170, 793)]",[],[1],"[0.85, 0.85]",horizontal,"(890.0, 262.0)",0.9,"0.805,nan",0,2982.551,0,0.0,same
0,285,valid,"[(1175, 814)]",[],[1],[0.6166666666666667],vertical,"(390.0, 762.0)",1.0333333333333332,0.571,1,2987.187,1,0.0,same
0,286,catch,"[(1180, 790)]",[],[1],[],vertical,"(890.0, 262.0)",1.7,nan,1,2992.52,1,0.0,same
0,287,valid,"[(1178, 788)]",[],[1],[0.85],vertical,"(890.0, 262.0)",0.3833333333333333,nan,0,2997.607,0,0.0,same
0,288,catch,"[(1167, 802)]",[],[1],[],horizontal,"(890.0, 762.0)",,"('cti', 1.146),nan",0,3001.756,0,0.02,same
0,289,valid,"[(1137, 794)]",[],[1],[0.5166666666666666],vertical,"(890.0, 762.0)",1.4166666666666667,0.481,1,3006.166,1,0.02,same
0,290,invalid_adjacent_other_bar,"[(1171, 803)]",[],[1],[0.7],horizontal,"(890.0, 762.0)",1.4666666666666666,0.651,1,3011.605,1,0.02,other
0,291,valid,"[(1174, 785)]",[],[1],[0.6666666666666666],vertical,"(890.0, 762.0)",0.9,0.626,1,3016.795,1,0.02,same
0,292,valid,"[(1178, 789)]",[],[1],[0.7166666666666667],vertical,"(390.0, 762.0)",0.7166666666666667,0.673,1,3021.721,2,0.02,same
0,293,valid,"[(1174, 795)]",[],[1],[0.85],vertical,"(390.0, 762.0)",1.0,nan,0,3027.283,0,0.02,same
0,294,valid,"[(1178, 787)]",[],[1],[0.5],horizontal,"(890.0, 262.0)",0.9666666666666667,0.465,1,3032.204,1,0.02,same
0,295,catch,"[(1172, 785)]",[],[1],[],horizontal,"(890.0, 262.0)",1.7,nan,1,3037.019,1,0.02,same
0,296,catch,"[(1185, 778)]",[],[1],[],horizontal,"(390.0, 762.0)",1.7,nan,1,3042.087,1,0.02,same
0,297,catch,"[(1177, 802)]",[],[1],[],horizontal,"(390.0, 762.0)",1.7,nan,1,3047.886,2,0.02,same
0,298,valid,"[(1179, 785)]",[],[1],[0.85],horizontal,"(390.0, 262.0)",1.35,nan,0,3053.531,0,0.02,same
0,299,catch,"[(1151, 782)]",[],[1],[],horizontal,"(890.0, 262.0)",1.7,nan,1,3058.506,1,0.02,same
0,300,valid,"[(1167, 789)]",[],[1],[0.85],vertical,"(390.0, 762.0)",1.2666666666666666,nan,0,3063.445,0,0.02,same
0,301,catch,"[(1165, 813)]",[],[1],[],horizontal,"(390.0, 762.0)",1.7,nan,1,3068.412,1,0.02,same
0,302,valid,"[(1165, 796)]",[],[1],[0.5666666666666667],horizontal,"(890.0, 762.0)",1.4333333333333333,0.526,1,3073.319,1,0.02,same
0,303,invalid_adjacent_other_bar,"[(1175, 811)]",[],[1],[0.85],horizontal,"(890.0, 762.0)",0.6166666666666667,nan,0,3078.787,0,0.02,other
0,304,valid,"[(1165, 794)]",[],[1],[0.75],horizontal,"(390.0, 262.0)",0.4166666666666667,0.703,1,3083.42,1,0.02,same
0,305,valid,"[(1179, 794)]",[],[1],[0.65],horizontal,"(890.0, 762.0)",1.1333333333333333,0.603,1,3087.956,1,0.02,same
0,306,valid,"[(1179, 796)]",[],[1],[0.5333333333333333],vertical,"(390.0, 262.0)",0.6,0.499,1,3093.354,1,0.02,same
0,307,valid,"[(1180, 792)]",[],[1],[0.6166666666666667],vertical,"(390.0, 262.0)",0.48333333333333334,0.576,1,3098.244,2,0.02,same
0,308,valid,"[(1198, 789)]",[],[1],[0.6666666666666666],horizontal,"(390.0, 262.0)",0.7333333333333333,0.621,1,3103.004,2,0.02,same
0,309,valid,"[(1180, 781)]",[],[1],[0.75],horizontal,"(390.0, 262.0)",0.85,0.709,1,3108.139,2,0.02,same
0,310,valid,"[(1164, 799)]",[],[1],[0.5666666666666667],vertical,"(890.0, 262.0)",1.45,0.521,1,3114.279,3,0.02,same
0,311,valid,"[(1170, 781)]",[],[1],[0.7833333333333333],vertical,"(390.0, 262.0)",0.35,0.741,1,3120.822,3,0.02,same
0,312,catch,"[(1165, 786)]",[],[1],[],horizontal,"(890.0, 262.0)",1.7,nan,1,3126.333,3,0.02,same
0,313,valid,"[(1180, 793)]",[],[1],[0.5833333333333334],vertical,"(390.0, 262.0)",1.3666666666666667,0.541,1,3131.947,3,0.02,same
0,314,valid,"[(1168, 795)]",[],[1],[0.55],vertical,"(890.0, 762.0)",0.65,0.512,1,3138.02,3,0.02,same
0,315,catch,"[(1179, 796)]",[],[1],[],vertical,"(390.0, 762.0)",1.7,nan,1,3143.438,3,0.02,same
0,316,valid,"[(1161, 797)]",[],[1],[0.5666666666666667],horizontal,"(890.0, 762.0)",0.8,0.524,1,3149.453,3,0.02,same
0,317,valid,"[(1160, 798)]",[],[1],[0.5833333333333334],vertical,"(390.0, 762.0)",1.2666666666666666,0.554,1,3155.164,3,0.02,same
0,318,catch,"[(1158, 781)]",[],[1],[],vertical,"(890.0, 262.0)",1.7,nan,1,3161.305,3,0.02,same
0,319,valid,"[(1160, 817)]",[],[1],[0.8166666666666667],vertical,"(390.0, 262.0)",0.6833333333333333,0.773,1,3167.674,3,0.02,same
0,320,valid,"[(1160, 789)]",[],[1],[0.6],vertical,"(390.0, 262.0)",1.2333333333333334,0.558,1,3172.943,3,0.02,same
0,321,valid,"[(1183, 787)]",[],[1],[0.85],horizontal,"(890.0, 762.0)",0.75,nan,0,3179.0,0,0.02,same
0,322,valid,"[(1142, 805)]",[],[1],[0.5666666666666667],horizontal,"(890.0, 262.0)",0.9,0.532,1,3183.255,1,0.02,same
0,323,valid,"[(1179, 799)]",[],[1],[0.5666666666666667],horizontal,"(390.0, 262.0)",0.43333333333333335,0.526,1,3190.521,1,0.02,same
0,324,catch,"[(1165, 800)]",[],[1],[],vertical,"(390.0, 262.0)",1.7,nan,1,3195.237,1,0.02,same
0,325,valid,"[(1174, 783)]",[],[1],[0.6166666666666667],horizontal,"(390.0, 262.0)",1.4666666666666666,0.575,1,3200.338,2,0.02,same
0,326,valid,"[(1164, 785)]",[],[1],[0.55],vertical,"(890.0, 262.0)",1.4833333333333334,0.51,1,3206.064,2,0.02,same
0,327,valid,"[(1160, 794)]",[],[1],[0.65],vertical,"(390.0, 762.0)",1.2666666666666666,0.6,1,3212.123,2,0.02,same
0,328,valid,"[(1161, 775)]",[],[1],[0.55],horizontal,"(890.0, 262.0)",0.6333333333333333,0.507,1,3217.689,3,0.02,same
0,329,valid,"[(1180, 788)]",[],[1],[0.75],vertical,"(390.0, 762.0)",0.6666666666666666,0.714,1,3223.239,3,0.02,same
0,330,valid,"[(1163, 795)]",[],[1],[0.6666666666666666],vertical,"(390.0, 762.0)",0.9833333333333333,0.624,1,3229.038,3,0.02,same
0,331,valid,"[(1161, 789)]",[],[1],[0.7333333333333333],vertical,"(890.0, 762.0)",0.8166666666666667,0.687,1,3234.402,3,0.02,same
0,332,valid,"[(1180, 785)]",[],[1],[0.5666666666666667],vertical,"(890.0, 262.0)",1.0333333333333332,0.524,1,3240.348,3,0.02,same
0,333,valid,"[(1165, 796)]",[],[1],[0.55],horizontal,"(890.0, 762.0)",1.3,0.504,1,3245.972,3,0.02,same
0,334,valid,"[(1164, 795)]",[],[1],[0.6333333333333333],horizontal,"(890.0, 262.0)",0.5833333333333334,0.593,1,3252.389,3,0.02,same
0,335,valid,"[(1175, 779)]",[],[1],[0.6166666666666667],vertical,"(390.0, 762.0)",0.7333333333333333,0.574,1,3257.536,3,0.02,same
0,336,valid,"[(1168, 793)]",[],[1],[0.85],horizontal,"(390.0, 262.0)",0.5666666666666667,nan,0,3263.009,0,0.02,same
0,337,valid,"[(1157, 802)]",[],[1],[0.6333333333333333],vertical,"(390.0, 762.0)",1.3166666666666667,0.593,1,3267.456,1,0.02,same
0,338,valid,"[(1186, 788)]",[],[1],[0.65],vertical,"(890.0, 262.0)",1.35,0.612,1,3275.989,1,0.0,same
0,339,valid,"[(1176, 783)]",[],[1],[0.6],vertical,"(890.0, 262.0)",1.3666666666666667,0.564,1,3281.756,1,0.0,same
0,340,valid,"[(1163, 774)]",[],[1],[0.6166666666666667],horizontal,"(390.0, 262.0)",0.35,0.576,1,3287.106,2,0.0,same
0,341,catch,"[(1160, 774)]",[],[1],[],vertical,"(890.0, 762.0)",1.7,nan,1,3291.978,2,0.0,same
0,342,valid,"[(1178, 769)]",[],[1],[0.75],horizontal,"(890.0, 762.0)",0.6166666666666667,0.703,1,3297.121,2,0.0,same
0,343,valid,"[(1162, 785)]",[],[1],[0.7833333333333333],horizontal,"(390.0, 762.0)",0.85,0.748,1,3302.053,3,0.0,same
0,344,catch,"[(1179, 777)]",[],[1],[],vertical,"(390.0, 762.0)",1.7,nan,1,3308.438,3,0.0,same
0,345,valid,"[(1160, 769)]",[],[1],[0.85],vertical,"(390.0, 762.0)",1.3833333333333333,nan,0,3314.188,0,0.0,same
0,346,valid,"[(1146, 829)]",[],[1],[0.85],vertical,"(890.0, 262.0)",0.5166666666666666,nan,0,3319.439,0,0.0,same
0,347,valid,"[(1161, 796)]",[],[1],[0.5666666666666667],horizontal,"(890.0, 762.0)",0.8833333333333333,0.532,1,3323.923,1,0.0,same
0,348,valid,"[(1178, 799)]",[],[1],[0.6666666666666666],horizontal,"(890.0, 762.0)",1.4666666666666666,0.626,1,3328.922,1,0.0,same
0,349,catch,"[(1166, 798)]",[],[1],[],vertical,"(390.0, 762.0)",1.7,nan,1,3334.438,1,0.0,same
0,350,valid,"[(1179, 806)]",[],[1],[0.6333333333333333],vertical,"(890.0, 262.0)",0.5166666666666666,0.588,1,3339.938,2,0.0,same
0,351,catch,"[(1167, 794)]",[],[1],[],vertical,"(390.0, 762.0)",1.7,nan,1,3344.712,2,0.0,same
0,352,valid,"[(1176, 785)]",[],[1],[0.6333333333333333],vertical,"(390.0, 762.0)",1.5333333333333332,0.589,1,3350.081,2,0.0,same
0,353,valid,"[(1189, 801)]",[],[1],[0.7],horizontal,"(390.0, 762.0)",0.7166666666666667,0.655,1,3356.355,3,0.0,same
0,354,valid,"[(1183, 788)]",[],[1],[],horizontal,"(890.0, 262.0)",,"('cti', 0.804)",0,3362.233,0,0.0,same
0,355,catch,"[(1165, 780)]",[],[1],[],horizontal,"(390.0, 262.0)",1.7,nan,1,3366.218,1,0.0,same
0,356,valid,"[(1124, 793)]",[],[1],[0.4666666666666667],vertical,"(890.0, 762.0)",1.15,0.428,1,3371.6,1,0.0,same
0,357,valid,"[(1185, 782)]",[],[1],[0.6166666666666667],vertical,"(890.0, 262.0)",0.7,0.577,1,3377.054,1,0.0,same
0,358,valid,"[(1125, 788)]",[],[1],[],horizontal,"(390.0, 762.0)",,"('cti', 0.686)",0,3381.844,0,0.0,same
0,359,valid,"[(1185, 782)]",[],[1],[0.13333333333333333],vertical,"(390.0, 262.0)",0.35,0.101,0,3385.552,0,0.0,same
0,360,invalid_same_bar,"[(1100, 778)]",[],[1],[0.7166666666666667],vertical,"(390.0, 262.0)",0.7666666666666666,0.683,1,3388.77,1,0.0,same
0,361,valid,"[(1175, 803)]",[],[1],[],horizontal,"(890.0, 262.0)",,"('fix', 0.367)",0,3393.855,0,0.0,same
0,362,invalid_adjacent_other_bar,"[(1161, 808)]","[(1158, 868)]",[1],[0.26666666666666666],horizontal,"(890.0, 262.0)",,"('bar', 0.284)",0,3395.903,0,0.0,other
0,363,catch,"[(1161, 812)]",[],[1],[],vertical,"(390.0, 762.0)",,"('cti', 1.666),nan",0,3398.327,0,0.02,same
0,364,valid,"[(1149, 802)]",[],[1],[0.6],vertical,"(390.0, 762.0)",0.5,0.565,1,3403.138,1,0.02,same
0,365,valid,"[(1166, 787)]",[],[1],[0.2],vertical,"(890.0, 262.0)",1.5,0.167,0,3407.868,0,0.02,same
0,366,valid,"[(1163, 803)]",[],[1],[0.16666666666666666],vertical,"(390.0, 262.0)",1.4166666666666667,0.134,0,3412.814,0,0.02,same
0,367,catch,"[(1140, 795)]",[],[1],[],vertical,"(390.0, 262.0)",1.7,nan,1,3417.779,1,0.02,same
0,368,catch,"[(1163, 780)]",[],[1],[],vertical,"(390.0, 762.0)",1.7,nan,1,3423.222,1,0.02,same
0,369,valid,"[(1172, 785)]",[],[1],[0.5333333333333333],horizontal,"(390.0, 762.0)",0.48333333333333334,0.501,1,3428.822,1,0.02,same
0,370,valid,"[(1161, 808)]",[],[1],[0.5166666666666666],vertical,"(890.0, 262.0)",0.85,0.476,1,3433.275,2,0.02,same
0,371,catch,"[(1162, 786)]",[],[1],[],vertical,"(390.0, 262.0)",1.7,nan,1,3438.805,2,0.02,same
0,372,valid,"[(1173, 791)]",[],[1],[0.65],vertical,"(390.0, 762.0)",0.5,0.609,1,3443.989,2,0.02,same
0,373,valid,"[(1175, 785)]",[],[1],[0.65],vertical,"(890.0, 262.0)",1.3333333333333333,0.606,1,3449.372,3,0.02,same
0,374,valid,"[(1180, 782)]",[],[1],[0.85],horizontal,"(390.0, 262.0)",0.9166666666666666,nan,0,3455.955,0,0.02,same
0,375,invalid_same_bar,"[(1131, 826)]",[],[1],[0.85],horizontal,"(390.0, 262.0)",0.95,nan,0,3460.484,0,0.02,same
0,376,catch,"[(1138, 785)]",[],[1],[],horizontal,"(890.0, 262.0)",,"('cti', 1.589),nan",0,3465.158,0,0.04,same
0,377,catch,"[(1156, 791)]",[],[1],[],horizontal,"(890.0, 262.0)",,"('cti', 1.479),nan",0,3469.907,0,0.06,same
0,378,catch,"[(1163, 808)]",[],[1],[],vertical,"(890.0, 262.0)",1.7,nan,1,3474.803,1,0.06,same
0,379,valid,"[(1179, 782)]",[],[1],[0.6333333333333333],horizontal,"(390.0, 262.0)",1.3833333333333333,0.602,1,3480.224,1,0.06,same
0,380,valid,"[(1175, 786)]",[],[1],[0.7833333333333333],horizontal,"(890.0, 262.0)",1.1666666666666667,0.735,1,3485.64,1,0.06,same
0,381,catch,"[(1180, 783)]",[],[1],[],vertical,"(890.0, 762.0)",1.7,nan,1,3490.92,2,0.06,same
0,382,valid,"[(1169, 789)]",[],[1],[0.5833333333333334],horizontal,"(390.0, 262.0)",1.4166666666666667,0.538,1,3496.518,2,0.06,same
0,383,valid,"[(1168, 833)]",[],[1],[0.8],horizontal,"(390.0, 762.0)",1.05,0.754,1,3502.539,2,0.06,same
0,384,valid,"[(1163, 794)]",[],[1],[0.55],horizontal,"(890.0, 262.0)",1.4666666666666666,0.509,1,3508.339,3,0.06,same
0,385,catch,"[(1153, 787)]",[],[1],[],vertical,"(390.0, 262.0)",1.7,nan,1,3515.189,3,0.06,same
0,386,valid,"[(1170, 777)]",[],[1],[0.6166666666666667],vertical,"(890.0, 762.0)",1.3833333333333333,0.572,1,3521.216,3,0.06,same
0,387,valid,"[(1169, 782)]",[],[1],[0.75],horizontal,"(890.0, 762.0)",0.4166666666666667,0.71,1,3527.423,3,0.06,same
0,388,valid,"[(1159, 779)]",[],[1],[0.5666666666666667],horizontal,"(890.0, 262.0)",0.5833333333333334,0.526,1,3532.705,3,0.06,same
0,389,catch,"[(1179, 769)]",[],[1],[],vertical,"(390.0, 262.0)",1.7,nan,1,3537.937,3,0.06,same
0,390,catch,"[(1166, 786)]",[],[1],[],horizontal,"(390.0, 762.0)",1.7,nan,1,3543.439,3,0.06,same
0,391,catch,"[(1165, 794)]",[],[1],[],vertical,"(890.0, 762.0)",1.7,nan,1,3549.624,3,0.06,same
0,392,invalid_adjacent_other_bar,"[(1163, 781)]",[],[1],[0.6333333333333333],horizontal,"(890.0, 762.0)",0.7,0.598,1,3555.807,3,0.06,other
0,393,invalid_same_bar,"[(1139, 777)]",[],[1],[0.5666666666666667],vertical,"(390.0, 762.0)",0.7166666666666667,0.525,1,3561.534,3,0.06,same
0,394,valid,"[(1163, 797)]",[],[1],[0.6666666666666666],vertical,"(390.0, 262.0)",1.1666666666666667,0.622,1,3567.557,3,0.06,same
0,395,valid,"[(1179, 791)]",[],[1],[0.5666666666666667],horizontal,"(890.0, 762.0)",0.8833333333333333,0.53,1,3573.356,3,0.06,same
0,396,catch,"[(1155, 785)]",[],[1],[],horizontal,"(890.0, 762.0)",1.7,nan,1,3579.182,3,0.06,same
0,397,valid,"[(1165, 790)]",[],[1],[0.6833333333333333],vertical,"(390.0, 262.0)",0.8166666666666667,0.639,1,3585.072,3,0.06,same
0,398,valid,"[(1132, 801)]",[],[1],[0.7166666666666667],horizontal,"(390.0, 262.0)",1.2166666666666666,0.672,1,3591.022,3,0.06,same
0,399,catch,"[(1170, 778)]",[],[1],[],horizontal,"(390.0, 262.0)",1.7,"('cti', 1.686),nan",0,3597.14,0,0.08,same
0,400,catch,"[(1160, 816)]",[],[1],[],vertical,"(890.0, 762.0)",1.7,nan,1,3602.306,1,0.08,same
0,401,valid,"[(1164, 779)]",[],[1],[0.6833333333333333],vertical,"(390.0, 762.0)",0.7166666666666667,0.64,1,3607.054,1,0.08,same
0,402,valid,"[(1168, 799)]",[],[1],[0.5666666666666667],horizontal,"(390.0, 762.0)",1.5333333333333332,0.521,1,3612.357,1,0.08,same
0,403,invalid_same_bar,"[(1172, 787)]",[],[1],[0.85],horizontal,"(390.0, 262.0)",1.2833333333333332,nan,0,3618.119,0,0.08,same
0,404,valid,"[(1167, 805)]",[],[1],[0.6166666666666667],vertical,"(390.0, 262.0)",1.05,0.573,1,3623.428,1,0.08,same
0,405,valid,"[(1175, 795)]",[],[1],[0.85],horizontal,"(390.0, 262.0)",0.4,nan,0,3628.257,0,0.08,same
0,406,invalid_adjacent_other_bar,"[(1150, 825)]",[],[1],[0.5833333333333334],vertical,"(890.0, 762.0)",0.8,0.547,1,3632.622,1,0.08,other
0,407,valid,"[(1162, 828)]",[],[1],[0.85],horizontal,"(390.0, 262.0)",0.3833333333333333,nan,0,3684.648,0,0.08,same
0,408,valid,"[(1163, 799)]",[],[1],[0.85],vertical,"(890.0, 762.0)",0.6,nan,0,3688.909,0,0.08,same
0,409,valid,"[(1164, 825)]",[],[1],[0.7333333333333333],vertical,"(390.0, 262.0)",0.9,0.691,1,3693.284,1,0.08,same
0,410,catch,"[(1173, 798)]",[],[1],[],vertical,"(890.0, 762.0)",1.7,nan,1,3698.457,1,0.08,same
0,411,valid,"[(1185, 792)]",[],[1],[0.5666666666666667],horizontal,"(890.0, 762.0)",1.5,0.524,1,3703.507,1,0.08,same
0,412,valid,"[(1179, 809)]",[],[1],[0.55],horizontal,"(390.0, 262.0)",0.6,0.513,1,3709.039,2,0.08,same
0,413,valid,"[(1162, 795)]",[],[1],[0.75],horizontal,"(390.0, 762.0)",1.0833333333333333,0.703,1,3713.81,2,0.06,same
0,414,catch,"[(1180, 767)]",[],[1],[],horizontal,"(390.0, 262.0)",1.7,nan,1,3719.683,2,0.06,same
0,415,invalid_adjacent_other_bar,"[(1161, 808)]",[],[1],[0.7333333333333333],horizontal,"(890.0, 762.0)",0.5,0.686,1,3725.232,3,0.06,other
0,416,valid,"[(1182, 806)]",[],[1],[0.45],vertical,"(890.0, 262.0)",1.3333333333333333,0.412,1,3730.862,3,0.06,same
0,417,valid,"[(1176, 792)]",[],[1],[0.85],horizontal,"(890.0, 762.0)",0.43333333333333335,nan,0,3736.907,0,0.06,same
0,418,invalid_adjacent_other_bar,"[(1162, 812)]",[],[1],[0.85],vertical,"(390.0, 762.0)",1.1333333333333333,nan,0,3741.069,0,0.06,other
0,419,catch,"[(1167, 820)]",[],[1],[],horizontal,"(390.0, 262.0)",1.7,nan,1,3746.007,1,0.06,same
0,420,invalid_adjacent_other_bar,"[(1175, 797)]",[],[1],[0.6],horizontal,"(890.0, 762.0)",1.5166666666666666,0.552,1,3751.098,1,0.06,other
0,421,valid,"[(1167, 788)]",[],[1],[0.5666666666666667],vertical,"(890.0, 762.0)",1.1833333333333333,0.524,1,3756.223,1,0.06,same
0,422,catch,"[(1179, 799)]",[],[1],[],vertical,"(390.0, 762.0)",1.7,nan,1,3761.024,2,0.06,same
0,423,invalid_same_bar,"[(1183, 790)]",[],[1],[0.85],horizontal,"(390.0, 262.0)",0.7166666666666667,nan,0,3766.212,0,0.06,same
0,424,valid,"[(1161, 777)]",[],[1],[0.6666666666666666],horizontal,"(390.0, 762.0)",0.5666666666666667,0.621,1,3770.591,1,0.06,same
0,425,valid,"[(1180, 785)]",[],[1],[0.5833333333333334],horizontal,"(890.0, 762.0)",1.4166666666666667,0.542,1,3775.773,1,0.06,same
0,426,valid,"[(1165, 795)]",[],[1],[0.6166666666666667],vertical,"(390.0, 262.0)",0.7166666666666667,0.575,1,3781.324,1,0.04,same
0,427,invalid_same_bar,"[(1204, 801)]",[],[1],[0.7333333333333333],vertical,"(390.0, 762.0)",0.7666666666666666,0.686,1,3786.31,2,0.02,same
0,428,valid,"[(1178, 796)]",[],[1],[0.5666666666666667],vertical,"(890.0, 762.0)",1.0333333333333332,0.523,1,3791.924,2,0.02,same
0,429,valid,"[(1203, 807)]",[],[1],[0.7833333333333333],vertical,"(890.0, 262.0)",0.36666666666666664,0.737,1,3797.173,2,0.02,same
0,430,valid,"[(1184, 808)]",[],[1],[0.5333333333333333],horizontal,"(890.0, 262.0)",0.95,0.488,1,3802.448,3,0.02,same
0,431,catch,"[(1180, 787)]",[],[1],[],horizontal,"(390.0, 262.0)",1.7,nan,1,3808.208,3,0.02,same
0,432,valid,"[(1182, 802)]",[],[1],[0.7166666666666667],vertical,"(890.0, 762.0)",1.4333333333333333,0.672,1,3814.34,3,0.02,same
0,433,valid,"[(1166, 797)]",[],[1],[0.6],vertical,"(890.0, 762.0)",0.6166666666666667,0.558,1,3820.303,3,0.02,same
0,434,valid,"[(1142, 803)]",[],[1],[0.5666666666666667],vertical,"(890.0, 262.0)",1.4,0.524,1,3825.907,3,0.02,same
0,435,valid,"[(1176, 792)]",[],[1],[0.55],vertical,"(390.0, 762.0)",0.9666666666666667,0.509,1,3832.573,3,0.02,same
0,436,valid,"[(1163, 781)]",[],[1],[0.7833333333333333],horizontal,"(390.0, 262.0)",1.3333333333333333,0.734,1,3838.023,3,0.02,same
0,437,valid,"[(1160, 804)]",[],[1],[0.6333333333333333],horizontal,"(890.0, 762.0)",1.4666666666666666,0.589,1,3844.257,3,0.02,same
0,438,valid,"[(1164, 790)]",[],[1],[0.5833333333333334],vertical,"(890.0, 262.0)",0.55,0.537,1,3850.376,3,0.02,same
0,439,valid,"[(1162, 800)]",[],[1],[0.7833333333333333],horizontal,"(890.0, 762.0)",0.8833333333333333,0.739,1,3855.288,3,0.02,same
0,440,valid,"[(1150, 796)]",[],[1],[0.85],vertical,"(390.0, 762.0)",1.1666666666666667,nan,0,3861.402,0,0.02,same
0,441,valid,"[(1168, 789)]",[],[1],[0.7],horizontal,"(890.0, 762.0)",0.5833333333333334,0.655,1,3866.661,1,0.02,same
0,442,invalid_adjacent_other_bar,"[(1185, 788)]",[],[1],[0.7666666666666666],horizontal,"(390.0, 762.0)",1.3,0.714,1,3871.39,1,0.02,other
0,443,valid,"[(1175, 789)]",[],[1],[0.5333333333333333],vertical,"(890.0, 762.0)",0.5333333333333333,0.496,1,3876.566,1,0.02,same
0,444,catch,"[(1176, 764)]",[],[1],[],vertical,"(390.0, 762.0)",1.7,nan,1,3880.844,2,0.02,same
0,445,valid,"[(1175, 820)]",[],[1],[0.7333333333333333],vertical,"(890.0, 762.0)",1.1166666666666667,0.686,1,3886.68,2,0.02,same
0,446,invalid_same_bar,"[(1165, 789)]",[],[1],[0.55],horizontal,"(390.0, 262.0)",0.5333333333333333,0.501,1,3892.272,2,0.02,same
0,447,invalid_same_bar,"[(1170, 790)]",[],[1],[0.7],vertical,"(890.0, 262.0)",1.3666666666666667,0.657,1,3897.132,3,0.02,same
0,448,valid,"[(1160, 793)]",[],[1],[0.5833333333333334],horizontal,"(390.0, 762.0)",1.2666666666666666,0.542,1,3903.634,3,0.02,same
0,449,valid,"[(1170, 790)]",[],[1],[0.5333333333333333],horizontal,"(890.0, 262.0)",1.0166666666666666,0.498,1,3909.236,3,0.0,same
0,450,valid,"[(1172, 792)]",[],[1],[0.6333333333333333],vertical,"(890.0, 762.0)",0.55,0.597,1,3914.822,3,0.0,same
0,451,valid,"[(1176, 795)]",[],[1],[0.6166666666666667],vertical,"(390.0, 762.0)",0.7,0.573,1,3920.557,3,0.0,same
0,452,invalid_same_bar,"[(1176, 797)]",[],[1],[0.6166666666666667],horizontal,"(890.0, 262.0)",0.9166666666666666,0.576,1,3925.708,3,0.0,same
0,453,valid,"[(1159, 783)]",[],[1],[0.55],horizontal,"(890.0, 762.0)",0.9666666666666667,0.513,1,3931.424,3,0.0,same
0,454,valid,"[(1160, 790)]",[],[1],[0.5833333333333334],vertical,"(890.0, 762.0)",0.9333333333333333,0.539,1,3936.724,3,0.0,same
0,455,invalid_same_bar,"[(1181, 798)]",[],[1],[0.6166666666666667],vertical,"(390.0, 762.0)",0.7333333333333333,0.575,1,3942.173,3,0.0,same
0,456,valid,"[(1163, 799)]",[],[1],[0.5833333333333334],vertical,"(390.0, 262.0)",1.3833333333333333,0.542,1,3947.533,3,0.0,same
0,457,invalid_adjacent_other_bar,"[(1177, 786)]",[],[1],[0.85],vertical,"(390.0, 762.0)",0.6,nan,0,3953.875,0,0.0,other
0,458,valid,"[(1212, 847)]",[],[1],[],horizontal,"(390.0, 762.0)",,"('fix', 0.385)",0,3958.332,0,0.0,same
0,459,valid,"[(1161, 827)]",[],[1],[0.75],horizontal,"(890.0, 262.0)",0.5833333333333334,0.704,1,3964.19,1,0.0,same
0,460,valid,"[(1137, 789)]",[],[1],[0.5833333333333334],vertical,"(890.0, 762.0)",1.3666666666666667,0.541,1,3969.124,1,0.0,same
0,461,catch,"[(1165, 799)]",[],[1],[],horizontal,"(390.0, 262.0)",1.7,nan,1,3974.617,1,0.0,same
0,462,catch,"[(1146, 803)]",[],[1],[],vertical,"(890.0, 262.0)",1.7,nan,1,3979.424,2,0.0,same
0,463,catch,"[(1166, 789)]",[],[1],[],horizontal,"(390.0, 762.0)",1.7,nan,1,3985.008,2,0.0,same
0,464,catch,"[(1165, 791)]",[],[1],[],vertical,"(890.0, 262.0)",1.7,nan,1,3990.808,2,0.0,same
0,465,valid,"[(1192, 799)]",[],[1],[0.85],vertical,"(890.0, 762.0)",0.8833333333333333,nan,0,3996.758,0,0.0,same
0,466,valid,"[(1132, 820)]",[],[1],[0.5166666666666666],vertical,"(890.0, 262.0)",0.8833333333333333,0.473,1,4001.659,1,0.0,same
0,467,valid,"[(1174, 791)]",[],[1],[0.6666666666666666],horizontal,"(390.0, 262.0)",1.4166666666666667,0.619,1,4006.291,1,0.0,same
0,468,catch,"[(1190, 805)]",[],[1],[],vertical,"(390.0, 262.0)",1.7,nan,1,4011.358,1,0.0,same
0,469,valid,"[(1165, 790)]",[],[1],[0.5],horizontal,"(390.0, 762.0)",1.5,0.457,1,4016.586,2,0.0,same
0,470,valid,"[(1176, 811)]",[],[1],[0.55],vertical,"(890.0, 262.0)",0.7833333333333333,0.507,1,4022.507,2,0.0,same
0,471,valid,"[(1179, 789)]",[],[1],[0.6166666666666667],horizontal,"(390.0, 262.0)",0.8666666666666667,0.571,1,4027.424,2,0.0,same
0,472,catch,"[(1185, 786)]",[],[1],[],horizontal,"(390.0, 262.0)",1.7,nan,1,4032.836,3,0.0,same
0,473,valid,"[(1174, 794)]",[],[1],[0.6666666666666666],vertical,"(890.0, 262.0)",1.4333333333333333,0.622,1,4038.505,3,0.0,same
0,474,invalid_same_bar,"[(1160, 823)]",[],[1],[0.7833333333333333],horizontal,"(390.0, 762.0)",0.8,0.739,1,4044.441,3,0.0,same
0,475,catch,"[(1165, 785)]",[],[1],[],vertical,"(390.0, 762.0)",1.7,nan,1,4050.239,3,0.0,same
0,476,valid,"[(1165, 798)]",[],[1],[0.7166666666666667],horizontal,"(890.0, 762.0)",1.4666666666666666,0.673,1,4055.992,3,0.0,same
0,477,valid,"[(1160, 813)]",[],[1],[0.6333333333333333],horizontal,"(890.0, 262.0)",0.8666666666666667,0.589,1,4062.277,3,0.0,same
0,478,catch,"[(1175, 812)]",[],[1],[],horizontal,"(390.0, 262.0)",1.7,nan,1,4067.908,3,0.0,same
0,479,valid,"[(1178, 795)]",[],[1],[0.5833333333333334],vertical,"(390.0, 262.0)",0.8166666666666667,0.539,1,4073.845,3,0.0,same
0,480,valid,"[(1180, 793)]",[],[1],[0.6],vertical,"(890.0, 262.0)",0.48333333333333334,0.559,1,4079.224,3,0.0,same
0,481,catch,"[(1178, 789)]",[],[1],[],horizontal,"(390.0, 262.0)",1.7,nan,1,4084.808,3,0.0,same
0,482,catch,"[(1165, 799)]",[],[1],[],horizontal,"(890.0, 262.0)",1.7,nan,1,4090.453,3,0.0,same
0,483,valid,"[(1162, 789)]",[],[1],[0.5166666666666666],horizontal,"(890.0, 262.0)",0.9,0.472,1,4096.257,3,0.0,same
0,484,valid,"[(1158, 795)]",[],[1],[0.5333333333333333],horizontal,"(890.0, 762.0)",0.9166666666666666,0.496,1,4101.707,3,0.0,same
0,485,invalid_adjacent_other_bar,"[(1165, 796)]",[],[1],[0.6666666666666666],vertical,"(390.0, 262.0)",0.5666666666666667,0.621,1,4107.491,3,0.0,other
0,486,valid,"[(1161, 826)]",[],[1],[0.6333333333333333],horizontal,"(390.0, 762.0)",0.8833333333333333,0.586,1,4113.079,3,0.0,same
0,487,valid,"[(1161, 786)]",[],[1],[0.26666666666666666],horizontal,"(390.0, 262.0)",1.4666666666666666,0.227,1,4118.607,3,0.0,same
0,488,catch,"[(1165, 789)]",[],[1],[],horizontal,"(390.0, 762.0)",1.7,nan,1,4124.81,3,0.0,same
0,489,invalid_adjacent_other_bar,"[(1168, 785)]",[],[1],[0.6833333333333333],vertical,"(890.0, 762.0)",1.2,0.647,1,4131.158,3,0.0,other
0,490,catch,"[(1165, 798)]",[],[1],[],vertical,"(890.0, 262.0)",1.7,nan,1,4137.457,3,0.0,same
0,491,valid,"[(1175, 793)]",[],[1],[0.55],vertical,"(890.0, 762.0)",0.7,0.506,1,4143.406,3,0.0,same
0,492,valid,"[(1180, 789)]",[],[1],[0.6],vertical,"(890.0, 262.0)",1.4666666666666666,0.562,1,4149.159,3,0.0,same
0,493,valid,"[(1179, 804)]",[],[1],[0.85],horizontal,"(390.0, 762.0)",0.8666666666666667,nan,0,4155.138,0,0.0,same
0,494,catch,"[(1141, 789)]",[],[1],[],horizontal,"(390.0, 762.0)",1.7,nan,1,4159.791,1,0.0,same
0,495,catch,"[(1178, 784)]",[],[1],[],vertical,"(890.0, 262.0)",1.7,nan,1,4165.282,1,0.0,same
0,496,catch,"[(1163, 786)]",[],[1],[],vertical,"(390.0, 762.0)",1.7,nan,1,4170.13,1,0.0,same
0,497,valid,"[(1180, 806)]",[],[1],[0.55],horizontal,"(890.0, 762.0)",1.0166666666666666,0.505,1,4175.532,2,0.0,same
0,498,valid,"[(1182, 794)]",[],[1],[0.75],vertical,"(890.0, 762.0)",1.0166666666666666,0.701,1,4180.716,2,0.0,same
0,499,catch,"[(1180, 783)]",[],[1],[],vertical,"(890.0, 262.0)",1.7,nan,1,4186.034,2,0.0,same
0,500,catch,"[(1161, 799)]",[],[1],[],vertical,"(390.0, 762.0)",1.7,nan,1,4191.296,3,0.0,same
0,501,invalid_same_bar,"[(1165, 779)]",[],[1],[0.7666666666666666],vertical,"(890.0, 762.0)",1.1833333333333333,0.72,1,4197.162,3,0.0,same
0,502,valid,"[(1178, 794)]",[],[1],[0.5166666666666666],horizontal,"(890.0, 762.0)",1.5166666666666666,0.475,1,4203.432,3,0.0,same
0,503,valid,"[(1179, 791)]",[],[1],[0.45],horizontal,"(890.0, 762.0)",0.9166666666666666,0.404,1,4209.775,3,0.0,same
0,504,valid,"[(1157, 793)]",[],[1],[0.5333333333333333],vertical,"(390.0, 762.0)",0.85,0.5,1,4215.325,3,0.0,same
0,505,valid,"[(1175, 798)]",[],[1],[0.7166666666666667],vertical,"(390.0, 762.0)",0.45,0.67,1,4220.926,3,0.0,same
0,506,invalid_same_bar,"[(1164, 798)]",[],[1],[0.85],vertical,"(390.0, 762.0)",1.2,nan,0,4226.024,0,0.0,same
0,507,valid,"[(1140, 823)]",[],[1],[0.85],vertical,"(390.0, 762.0)",1.1666666666666667,nan,0,4230.644,0,0.0,same
0,508,invalid_adjacent_other_bar,"[(1134, 830)]",[],[1],[],horizontal,"(890.0, 262.0)",,"('cti', 0.796)",0,4235.329,0,0.0,other
0,509,valid,"[(1165, 809)]",[],[1],[0.65],vertical,"(390.0, 762.0)",0.5,0.604,1,4239.585,1,0.0,same
0,510,catch,"[(1170, 795)]",[],[1],[],horizontal,"(390.0, 762.0)",1.7,nan,1,4244.075,1,0.0,same
0,511,valid,"[(1175, 783)]",[],[1],[0.6333333333333333],horizontal,"(890.0, 262.0)",0.5666666666666667,0.595,1,4249.454,1,0.0,same
0,512,valid,"[(1171, 779)]",[],[1],[0.6666666666666666],vertical,"(890.0, 262.0)",0.8,0.62,1,4254.127,2,0.0,same
0,513,valid,"[(1177, 805)]",[],[1],[0.6333333333333333],vertical,"(390.0, 262.0)",1.1666666666666667,0.59,1,4259.39,2,0.0,same
0,514,valid,"[(1168, 795)]",[],[1],[0.5166666666666666],horizontal,"(890.0, 262.0)",0.85,0.472,1,4264.759,2,0.0,same
0,515,valid,"[(1183, 798)]",[],[1],[0.6],horizontal,"(390.0, 762.0)",0.6333333333333333,0.556,1,4270.191,3,0.0,same
0,516,valid,"[(1160, 798)]",[],[1],[0.7],vertical,"(890.0, 262.0)",0.9666666666666667,0.658,1,4275.85,3,0.0,same
0,517,valid,"[(1175, 796)]",[],[1],[0.6666666666666666],horizontal,"(890.0, 762.0)",0.5333333333333333,0.62,1,4281.66,3,0.0,same
0,518,valid,"[(1175, 794)]",[],[1],[0.6666666666666666],vertical,"(890.0, 262.0)",1.3,0.623,1,4287.093,3,0.0,same
0,519,valid,"[(1184, 794)]",[],[1],[0.5666666666666667],vertical,"(890.0, 262.0)",0.95,0.519,1,4293.619,3,0.0,same
0,520,valid,"[(1165, 802)]",[],[1],[0.6],horizontal,"(890.0, 262.0)",0.9,0.561,1,4299.376,3,0.0,same
0,521,catch,"[(1173, 799)]",[],[1],[],vertical,"(390.0, 262.0)",1.7,nan,1,4304.941,3,0.0,same
0,522,valid,"[(1162, 799)]",[],[1],[0.5666666666666667],vertical,"(890.0, 762.0)",0.8833333333333333,0.527,1,4310.815,3,0.0,same
0,523,valid,"[(1177, 789)]",[],[1],[0.6333333333333333],horizontal,"(890.0, 262.0)",0.8,0.591,1,4316.814,3,0.0,same
0,524,valid,"[(1150, 818)]",[],[1],[0.5833333333333334],vertical,"(890.0, 762.0)",0.7166666666666667,0.538,1,4322.427,3,0.0,same
0,525,catch,"[(1156, 789)]",[],[1],[],vertical,"(390.0, 762.0)",1.7,nan,1,4328.372,3,0.0,same
0,526,valid,"[(1180, 787)]",[],[1],[0.5333333333333333],vertical,"(890.0, 762.0)",1.0333333333333332,0.506,1,4334.466,3,0.0,same
0,527,catch,"[(1167, 782)]",[],[1],[],horizontal,"(390.0, 262.0)",1.7,nan,1,4340.154,3,0.0,same
0,528,valid,"[(1161, 790)]",[],[1],[0.5833333333333334],horizontal,"(390.0, 762.0)",1.35,0.538,1,4346.21,3,0.0,same
0,529,valid,"[(1183, 793)]",[],[1],[0.7166666666666667],horizontal,"(390.0, 762.0)",0.35,0.668,1,4352.215,3,0.0,same
0,530,valid,"[(1160, 790)]",[],[1],[0.85],vertical,"(890.0, 762.0)",1.3666666666666667,nan,0,4357.838,0,0.0,same
0,531,valid,"[(1136, 816)]",[],[1],[0.6833333333333333],vertical,"(390.0, 262.0)",1.3166666666666667,0.634,1,4363.036,1,0.0,same
0,532,valid,"[(1162, 789)]",[],[1],[0.6],vertical,"(390.0, 762.0)",1.2666666666666666,0.554,1,4368.686,1,0.0,same
0,533,catch,"[(1160, 794)]",[],[1],[],horizontal,"(890.0, 262.0)",1.7,nan,1,4374.012,1,0.0,same
0,534,valid,"[(1180, 790)]",[],[1],[0.85],horizontal,"(390.0, 262.0)",0.9333333333333333,nan,0,4379.102,0,0.0,same
0,535,valid,"[(1142, 794)]",[],[1],[0.85],horizontal,"(890.0, 762.0)",0.6,nan,0,4383.536,0,0.0,same
0,536,valid,"[(1163, 810)]",[],[1],[0.85],horizontal,"(890.0, 262.0)",1.1,nan,0,4387.959,0,0.0,same
0,537,catch,"[(1167, 800)]",[],[1],[],horizontal,"(390.0, 762.0)",1.7,nan,1,4392.463,1,0.0,same
0,538,invalid_adjacent_other_bar,"[(1165, 818)]",[],[1],[0.6166666666666667],horizontal,"(890.0, 262.0)",1.4166666666666667,0.577,1,4410.148,1,0.0,other
0,539,valid,"[(1184, 799)]",[],[1],[0.6],vertical,"(390.0, 262.0)",1.4333333333333333,0.556,1,4415.592,1,0.0,same
0,540,valid,"[(1178, 806)]",[],[1],[0.55],horizontal,"(390.0, 762.0)",0.8333333333333334,0.505,1,4421.1,2,0.0,same
0,541,valid,"[(1167, 794)]",[],[1],[0.55],vertical,"(390.0, 262.0)",0.8166666666666667,0.506,1,4426.092,2,0.0,same
0,542,valid,"[(1162, 783)]",[],[1],[0.6166666666666667],vertical,"(390.0, 262.0)",0.36666666666666664,0.575,1,4431.565,2,0.0,same
0,543,catch,"[(1167, 791)]",[],[1],[],vertical,"(890.0, 762.0)",1.7,nan,1,4436.274,3,0.0,same
0,544,valid,"[(1180, 791)]",[],[1],[0.5333333333333333],horizontal,"(390.0, 262.0)",1.25,0.489,1,4442.61,3,0.0,same
0,545,valid,"[(1181, 805)]",[],[1],[0.6333333333333333],horizontal,"(390.0, 762.0)",1.2,0.586,1,4448.818,3,0.0,same
0,546,valid,"[(1167, 793)]",[],[1],[0.5833333333333334],horizontal,"(890.0, 262.0)",1.4666666666666666,0.538,1,4455.075,3,0.0,same
0,547,catch,"[(1161, 782)]",[],[1],[],vertical,"(390.0, 762.0)",1.7,nan,1,4461.692,3,0.0,same
0,548,valid,"[(1170, 769)]",[],[1],[0.6],horizontal,"(390.0, 762.0)",0.6166666666666667,0.556,1,4467.557,3,0.0,same
0,549,valid,"[(1160, 800)]",[],[1],[0.85],horizontal,"(390.0, 762.0)",0.9833333333333333,nan,0,4473.476,0,0.0,same
0,550,valid,"[(1151, 818)]",[],[1],[0.5666666666666667],horizontal,"(390.0, 262.0)",0.35,0.52,1,4478.282,1,0.0,same
0,551,valid,"[(1162, 797)]",[],[1],[0.6],horizontal,"(890.0, 762.0)",1.0833333333333333,0.557,1,4482.536,1,0.0,same
0,552,catch,"[(1204, 801)]",[],[1],[],horizontal,"(390.0, 262.0)",1.7,nan,1,4487.526,1,0.0,same
0,553,valid,"[(1176, 790)]",[],[1],[0.3],vertical,"(390.0, 262.0)",0.8166666666666667,0.263,1,4492.46,2,0.0,same
0,554,valid,"[(1165, 793)]",[],[1],[0.5166666666666666],vertical,"(390.0, 262.0)",0.7833333333333333,0.476,1,4497.501,2,0.0,same
0,555,valid,"[(1180, 780)]",[],[1],[0.85],vertical,"(390.0, 262.0)",0.5333333333333333,nan,0,4502.542,0,0.0,same
0,556,valid,"[(1128, 807)]",[],[1],[0.6333333333333333],vertical,"(390.0, 762.0)",1.15,0.589,1,4507.408,1,0.0,same
0,557,valid,"[(1175, 803)]",[],[1],[0.5333333333333333],vertical,"(890.0, 262.0)",0.7833333333333333,0.494,1,4514.775,1,0.0,same
0,558,valid,"[(1181, 784)]",[],[1],[0.8],horizontal,"(890.0, 262.0)",1.1666666666666667,0.751,1,4519.286,1,0.0,same
0,559,valid,"[(1173, 783)]",[],[1],[0.6166666666666667],vertical,"(390.0, 762.0)",0.7333333333333333,0.577,1,4524.443,2,0.0,same
0,560,invalid_adjacent_other_bar,"[(1180, 794)]",[],[1],[0.6],horizontal,"(890.0, 262.0)",0.7166666666666667,0.566,1,4529.684,2,0.0,other
0,561,valid,"[(1164, 789)]",[],[1],[0.25],horizontal,"(890.0, 762.0)",1.4833333333333334,0.215,1,4534.436,2,0.0,same
0,562,valid,"[(1180, 787)]",[],[1],[0.6333333333333333],vertical,"(390.0, 262.0)",1.3833333333333333,0.586,1,4540.375,3,0.0,same
0,563,valid,"[(1170, 779)]",[],[1],[0.6166666666666667],vertical,"(890.0, 762.0)",0.6833333333333333,0.574,1,4546.741,3,0.0,same
0,564,valid,"[(1179, 789)]",[],[1],[0.5833333333333334],horizontal,"(390.0, 762.0)",1.1166666666666667,0.539,1,4552.51,3,0.0,same
0,565,valid,"[(1137, 809)]",[],[1],[0.6666666666666666],horizontal,"(390.0, 762.0)",0.9166666666666666,0.623,1,4558.726,3,0.0,same
0,566,valid,"[(1163, 773)]",[],[1],[0.75],horizontal,"(390.0, 762.0)",0.55,0.709,1,4565.571,3,0.0,same
0,567,valid,"[(1181, 787)]",[],[1],[0.43333333333333335],horizontal,"(390.0, 762.0)",1.4833333333333334,0.394,1,4570.935,3,0.0,same
0,568,valid,"[(1167, 777)]",[],[1],[0.5833333333333334],vertical,"(890.0, 762.0)",0.8666666666666667,0.544,1,4577.232,3,0.0,same
0,569,valid,"[(1176, 803)]",[],[1],[0.6],vertical,"(890.0, 262.0)",0.6,0.554,1,4583.22,3,0.0,same
0,570,valid,"[(1163, 777)]",[],[1],[0.6333333333333333],horizontal,"(890.0, 762.0)",0.8166666666666667,0.593,1,4588.628,3,0.0,same
0,571,catch,"[(1162, 789)]",[],[1],[],horizontal,"(890.0, 262.0)",1.7,nan,1,4594.039,3,0.0,same
0,572,valid,"[(1162, 784)]",[],[1],[0.6666666666666666],vertical,"(390.0, 762.0)",1.2833333333333332,0.615,1,4599.998,3,0.0,same
0,573,valid,"[(1173, 792)]",[],[1],[0.65],horizontal,"(890.0, 262.0)",1.5166666666666666,0.609,1,4606.038,3,0.0,same
0,574,valid,"[(1177, 779)]",[],[1],[0.85],horizontal,"(890.0, 262.0)",1.1333333333333333,nan,0,4612.402,0,0.0,same
0,575,valid,"[(1163, 777)]",[],[1],[0.85],vertical,"(390.0, 762.0)",1.2,nan,0,4617.084,0,0.0,same
0,576,valid,"[(1161, 786)]",[],[1],[0.85],vertical,"(390.0, 762.0)",0.5333333333333333,nan,0,4622.146,0,0.0,same
0,577,valid,"[(1140, 774)]",[],[1],[0.55],vertical,"(890.0, 262.0)",0.6,0.503,1,4626.174,1,0.0,same
0,578,valid,"[(1170, 799)]",[],[1],[0.6666666666666666],vertical,"(890.0, 262.0)",1.4666666666666666,0.622,1,4631.019,1,0.0,same
0,579,valid,"[(1166, 772)]",[],[1],[0.5666666666666667],vertical,"(890.0, 762.0)",1.3666666666666667,0.524,1,4636.444,1,0.0,same
0,580,valid,"[(1182, 777)]",[],[1],[0.7166666666666667],horizontal,"(390.0, 262.0)",0.4166666666666667,0.673,1,4641.979,2,0.0,same
0,581,valid,"[(1180, 778)]",[],[1],[0.7166666666666667],vertical,"(890.0, 762.0)",1.4666666666666666,0.67,1,4646.759,2,0.0,same
0,582,valid,"[(1161, 772)]",[],[1],[0.65],vertical,"(390.0, 762.0)",1.2166666666666666,0.6,1,4652.743,2,0.0,same
0,583,valid,"[(1178, 794)]",[],[1],[0.85],vertical,"(390.0, 762.0)",1.1,nan,0,4658.262,0,0.0,same
0,584,valid,"[(1140, 800)]",[],[1],[0.6],horizontal,"(890.0, 762.0)",0.5166666666666666,0.556,1,4663.074,1,0.0,same
0,585,valid,"[(1175, 795)]",[],[1],[0.85],vertical,"(890.0, 762.0)",1.1666666666666667,nan,0,4667.992,0,0.0,same
0,586,valid,"[(1156, 802)]",[],[1],[0.85],vertical,"(390.0, 262.0)",0.4666666666666667,nan,0,4673.269,0,0.0,same
0,587,catch,"[(1135, 779)]",[],[1],[],vertical,"(390.0, 762.0)",1.7,nan,1,4677.959,1,0.0,same
0,588,valid,"[(1175, 794)]",[],[1],[0.55],horizontal,"(390.0, 262.0)",0.8333333333333334,0.509,1,4685.829,1,0.0,same
0,589,valid,"[(1191, 796)]",[],[1],[0.65],horizontal,"(390.0, 262.0)",1.0166666666666666,0.604,1,4690.876,1,0.0,same
0,590,valid,"[(1181, 801)]",[],[1],[0.6166666666666667],horizontal,"(390.0, 762.0)",1.05,0.572,1,4695.958,2,0.0,same
0,591,valid,"[(1179, 781)]",[],[1],[0.5333333333333333],vertical,"(390.0, 262.0)",0.35,0.49,1,4701.891,2,0.0,same
0,592,valid,"[(1182, 782)]",[],[1],[0.6333333333333333],horizontal,"(890.0, 262.0)",0.8833333333333333,0.589,1,4706.773,2,0.0,same
0,593,valid,"[(1182, 809)]",[],[1],[0.6166666666666667],horizontal,"(890.0, 762.0)",1.4166666666666667,0.57,1,4711.911,3,0.0,same
0,594,invalid_same_bar,"[(1160, 828)]",[],[1],[],vertical,"(390.0, 762.0)",,"('cti', 1.485)",0,4718.51,0,0.0,same
0,595,valid,"[(1178, 812)]",[],[1],[0.16666666666666666],horizontal,"(890.0, 762.0)",1.2666666666666666,0.134,0,4723.676,0,0.0,same
0,596,valid,"[(1141, 831)]",[],[1],[0.6666666666666666],horizontal,"(890.0, 262.0)",1.1333333333333333,0.621,1,4728.443,1,0.0,same
0,597,valid,"[(1180, 803)]",[],[1],[0.6166666666666667],horizontal,"(390.0, 262.0)",0.6166666666666667,0.576,1,4733.66,1,0.0,same
0,598,catch,"[(1180, 802)]",[],[1],[],vertical,"(890.0, 262.0)",1.7,nan,1,4738.604,1,0.0,same
0,599,valid,"[(1180, 797)]",[],[1],[0.7],horizontal,"(390.0, 262.0)",1.05,0.654,1,4743.626,2,0.0,same
0,600,invalid_adjacent_other_bar,"[(1188, 783)]",[],[1],[0.85],horizontal,"(890.0, 262.0)",1.3,nan,0,4749.487,0,0.0,other
0,601,valid,"[(1160, 839)]",[],[1],[0.65],vertical,"(390.0, 262.0)",0.48333333333333334,0.61,1,4754.511,1,0.0,same
0,602,catch,"[(1182, 808)]",[],[1],[],horizontal,"(890.0, 262.0)",1.7,nan,1,4759.527,1,0.0,same
0,603,invalid_adjacent_other_bar,"[(1179, 779)]",[],[1],[0.7666666666666666],horizontal,"(890.0, 762.0)",1.4666666666666666,0.72,1,4764.831,1,0.0,other
0,604,valid,"[(1195, 803)]",[],[1],[0.7166666666666667],vertical,"(390.0, 262.0)",0.43333333333333335,0.673,1,4770.32,2,0.0,same
0,605,catch,"[(1180, 779)]",[],[1],[],vertical,"(390.0, 762.0)",1.7,nan,1,4775.426,2,0.0,same
0,606,catch,"[(1160, 789)]",[],[1],[],horizontal,"(390.0, 262.0)",1.7,nan,1,4780.726,2,0.0,same
0,607,valid,"[(1169, 796)]","[(1090, 893)]",[1],[0.3833333333333333],vertical,"(890.0, 762.0)",,"('bar', 0.393)",0,4786.537,0,0.0,same
0,608,valid,"[(1146, 812)]",[],[1],[0.4166666666666667],vertical,"(890.0, 762.0)",0.95,0.378,1,4789.443,1,0.0,same
0,609,catch,"[(1180, 786)]",[],[1],[],horizontal,"(890.0, 262.0)",,"('cti', 1.607),nan",0,4794.705,0,0.02,same
0,610,valid,"[(1158, 802)]",[],[1],[0.5666666666666667],horizontal,"(890.0, 262.0)",0.7833333333333333,0.525,1,4799.461,1,0.02,same
0,611,catch,"[(1180, 804)]",[],[1],[],vertical,"(890.0, 262.0)",1.7,nan,1,4804.036,1,0.02,same
0,612,valid,"[(1169, 788)]",[],[1],[0.55],vertical,"(890.0, 762.0)",0.7833333333333333,0.504,1,4809.002,1,0.02,same
0,613,valid,"[(1175, 789)]",[],[1],[0.65],horizontal,"(390.0, 762.0)",0.5166666666666666,0.607,1,4813.953,2,0.02,same
0,614,invalid_same_bar,"[(1148, 800)]",[],[1],[0.7333333333333333],vertical,"(390.0, 262.0)",0.5333333333333333,0.69,1,4819.297,2,0.02,same
0,615,catch,"[(1160, 811)]",[],[1],[],horizontal,"(890.0, 262.0)",1.7,nan,1,4824.104,2,0.02,same
0,616,invalid_same_bar,"[(1170, 795)]",[],[1],[0.6],vertical,"(390.0, 762.0)",1.2666666666666666,0.557,1,4830.057,3,0.02,same
0,617,valid,"[(1179, 794)]",[],[1],[0.6666666666666666],horizontal,"(390.0, 262.0)",0.65,0.627,1,4836.326,3,0.02,same
0,618,catch,"[(1176, 780)]",[],[1],[],vertical,"(390.0, 762.0)",1.7,nan,1,4841.46,3,0.02,same
0,619,valid,"[(1185, 785)]",[],[1],[0.85],vertical,"(890.0, 762.0)",1.0,nan,0,4847.183,0,0.02,same
0,620,valid,"[(1134, 798)]",[],[1],[0.6666666666666666],horizontal,"(890.0, 762.0)",0.5833333333333334,0.622,1,4852.315,1,0.02,same
0,621,valid,"[(1154, 799)]",[],[1],[0.85],horizontal,"(390.0, 262.0)",1.2166666666666666,nan,0,4856.904,0,0.02,same
0,622,catch,"[(1164, 789)]",[],[1],[],vertical,"(390.0, 262.0)",1.7,nan,1,4862.161,1,0.02,same
0,623,catch,"[(1161, 786)]",[],[1],[],vertical,"(390.0, 762.0)",1.7,nan,1,4867.627,1,0.02,same
0,624,catch,"[(1163, 768)]",[],[1],[],horizontal,"(390.0, 262.0)",1.7,nan,1,4872.898,1,0.02,same
0,625,valid,"[(1178, 786)]",[],[1],[0.6333333333333333],vertical,"(890.0, 762.0)",0.6333333333333333,0.592,1,4878.192,2,0.02,same
0,626,valid,"[(1165, 802)]",[],[1],[0.85],horizontal,"(390.0, 762.0)",1.3,nan,0,4883.693,0,0.02,same
0,627,valid,"[(1137, 794)]",[],[1],[0.3333333333333333],vertical,"(390.0, 262.0)",1.4,0.301,1,4888.542,1,0.02,same
0,628,valid,"[(1161, 784)]",[],[1],[0.55],vertical,"(890.0, 762.0)",0.48333333333333334,0.509,1,4893.942,1,0.02,same
0,629,catch,"[(1178, 797)]",[],[1],[],vertical,"(890.0, 262.0)",1.7,nan,1,4898.477,1,0.02,same
0,630,valid,"[(1161, 774)]",[],[1],[0.6166666666666667],vertical,"(390.0, 262.0)",0.5166666666666666,0.573,1,4903.572,2,0.02,same
0,631,valid,"[(1165, 790)]",[],[1],[0.65],horizontal,"(390.0, 762.0)",1.35,0.608,1,4908.527,2,0.02,same
0,632,valid,"[(1176, 804)]",[],[1],[0.55],vertical,"(890.0, 262.0)",0.55,0.503,1,4914.367,2,0.02,same
0,633,invalid_same_bar,"[(1167, 789)]",[],[1],[0.6],vertical,"(390.0, 762.0)",1.4166666666666667,0.558,1,4919.201,3,0.02,same
0,634,invalid_same_bar,"[(1133, 774)]",[],[1],[0.65],vertical,"(390.0, 262.0)",1.3833333333333333,0.603,1,4925.645,3,0.02,same
0,635,valid,"[(1167, 786)]",[],[1],[0.5333333333333333],vertical,"(390.0, 762.0)",0.6333333333333333,0.495,1,4931.77,3,0.02,same
0,636,catch,"[(1179, 771)]",[],[1],[],vertical,"(390.0, 762.0)",1.7,nan,1,4937.361,3,0.02,same
0,637,catch,"[(1165, 784)]",[],[1],[],vertical,"(390.0, 762.0)",1.7,nan,1,4943.36,3,0.02,same
0,638,catch,"[(1165, 785)]",[],[1],[],vertical,"(390.0, 262.0)",1.7,nan,1,4949.477,3,0.02,same
0,639,valid,"[(1161, 777)]",[],[1],[0.5333333333333333],vertical,"(390.0, 262.0)",1.45,0.49,1,4955.232,3,0.02,same
0,640,catch,"[(1167, 795)]",[],[1],[],vertical,"(890.0, 762.0)",1.7,nan,1,4961.361,3,0.02,same
0,641,valid,"[(1163, 783)]",[],[1],[0.5333333333333333],vertical,"(890.0, 262.0)",1.0166666666666666,0.494,1,4967.227,3,0.02,same
0,642,valid,"[(1160, 799)]",[],[1],[0.85],horizontal,"(890.0, 762.0)",1.2833333333333332,nan,0,4973.06,0,0.02,same
0,643,valid,"[(1165, 799)]",[],[1],[0.6666666666666666],vertical,"(890.0, 262.0)",1.0333333333333332,0.625,1,4977.662,1,0.02,same
0,644,invalid_adjacent_other_bar,"[(1167, 752), (1111, 838)]",[],"[0, 1]",[0.5],vertical,"(390.0, 762.0)",1.5166666666666666,0.459,1,4982.921,1,0.02,other
0,645,valid,"[(1178, 797)]",[],[1],[0.5666666666666667],vertical,"(390.0, 762.0)",0.9333333333333333,0.53,1,4989.792,1,0.02,same
0,646,valid,"[(1161, 785)]",[],[1],[0.6666666666666666],horizontal,"(890.0, 762.0)",1.0166666666666666,0.639,1,4994.822,2,0.02,same
0,647,valid,"[(1160, 799)]",[],[1],[0.6666666666666666],horizontal,"(390.0, 762.0)",0.6333333333333333,0.622,1,4999.98,2,0.02,same
0,648,invalid_same_bar,"[(1179, 779)]",[],[1],[0.8],horizontal,"(890.0, 762.0)",0.5333333333333333,0.754,1,5004.728,2,0.02,same
0,649,valid,"[(1170, 789)]",[],[1],[0.7],horizontal,"(390.0, 262.0)",0.45,0.656,1,5009.867,3,0.02,same
0,650,catch,"[(1152, 807)]",[],[1],[],vertical,"(890.0, 262.0)",1.7,nan,1,5015.232,3,0.02,same
0,651,invalid_adjacent_other_bar,"[(1163, 811)]",[],[1],[0.7833333333333333],vertical,"(890.0, 262.0)",0.6333333333333333,0.743,1,5021.044,3,0.02,other
0,652,invalid_same_bar,"[(1170, 789)]",[],[1],[0.55],horizontal,"(390.0, 262.0)",0.6833333333333333,0.504,1,5026.943,3,0.02,same
0,653,valid,"[(1150, 782)]",[],[1],[0.5333333333333333],vertical,"(890.0, 762.0)",0.5666666666666667,0.494,1,5032.245,3,0.02,same
0,654,valid,"[(1178, 805)]",[],[1],[0.6333333333333333],horizontal,"(890.0, 762.0)",1.3,0.597,1,5037.362,3,0.02,same
0,655,valid,"[(1165, 767)]",[],[1],[0.6166666666666667],vertical,"(390.0, 762.0)",0.6833333333333333,0.577,1,5043.63,3,0.02,same
0,656,valid,"[(1160, 794)]",[],[1],[0.6166666666666667],vertical,"(890.0, 762.0)",0.6833333333333333,0.572,1,5049.338,3,0.02,same
0,657,invalid_same_bar,"[(1165, 779)]",[],[1],[0.65],vertical,"(890.0, 262.0)",0.3833333333333333,0.618,1,5054.659,3,0.02,same
0,658,invalid_same_bar,"[(1163, 773)]",[],[1],[0.85],vertical,"(390.0, 262.0)",1.1333333333333333,nan,0,5059.832,0,0.02,same
0,659,valid,"[(1171, 782)]",[],[1],[0.5666666666666667],vertical,"(390.0, 762.0)",0.6833333333333333,0.52,1,5065.37,1,0.0,same
0,660,invalid_same_bar,"[(1164, 785)]",[],[1],[0.5666666666666667],vertical,"(890.0, 262.0)",1.3666666666666667,0.523,1,5070.078,1,0.0,same
0,661,valid,"[(1184, 818)]",[],[1],[0.6166666666666667],horizontal,"(390.0, 762.0)",0.36666666666666664,0.578,1,5075.144,1,0.0,same
0,662,valid,"[(1160, 775)]",[],[1],[0.6166666666666667],horizontal,"(390.0, 262.0)",0.95,0.57,1,5079.995,2,0.0,same
0,663,catch,"[(1170, 788)]",[],[1],[],vertical,"(390.0, 762.0)",1.7,nan,1,5085.672,2,0.0,same
0,664,invalid_same_bar,"[(1165, 791)]",[],[1],[0.6333333333333333],vertical,"(890.0, 262.0)",0.4166666666666667,0.598,1,5091.294,2,0.0,same
0,665,valid,"[(1177, 788)]",[],[1],[0.6666666666666666],horizontal,"(390.0, 262.0)",1.1833333333333333,0.627,1,5096.317,3,0.0,same
0,666,valid,"[(1180, 780)]",[],[1],[0.5666666666666667],horizontal,"(890.0, 262.0)",0.5333333333333333,0.527,1,5102.708,3,0.0,same
0,667,valid,"[(1162, 782)]",[],[1],[0.7166666666666667],vertical,"(890.0, 762.0)",0.43333333333333335,0.672,1,5107.836,3,0.0,same
0,668,valid,"[(1177, 778)]",[],[1],[0.6666666666666666],vertical,"(390.0, 762.0)",1.35,0.627,1,5113.384,3,0.0,same
0,669,valid,"[(1160, 788)]",[],[1],[0.5],horizontal,"(890.0, 262.0)",1.0333333333333332,0.458,1,5119.81,3,0.0,same
0,670,valid,"[(1165, 783)]",[],[1],[0.7333333333333333],horizontal,"(890.0, 262.0)",0.35,0.687,1,5125.448,3,0.0,same
0,671,valid,"[(1153, 791)]",[],[1],[0.6666666666666666],vertical,"(890.0, 762.0)",0.8166666666666667,0.624,1,5131.108,3,0.0,same
0,672,catch,"[(1159, 779)]",[],[1],[],horizontal,"(390.0, 262.0)",1.7,nan,1,5136.817,3,0.0,same
0,673,catch,"[(1165, 786)]",[],[1],[],vertical,"(390.0, 762.0)",1.7,nan,1,5142.948,3,0.0,same
0,674,invalid_adjacent_other_bar,"[(1165, 789)]",[],[1],[0.5666666666666667],vertical,"(390.0, 262.0)",0.6333333333333333,0.527,1,5148.764,3,0.0,other
0,675,valid,"[(1160, 773)]",[],[1],[0.5833333333333334],vertical,"(390.0, 762.0)",1.4166666666666667,0.539,1,5154.212,3,0.0,same
0,676,valid,"[(1160, 785)]",[],[1],[0.5833333333333334],horizontal,"(390.0, 262.0)",1.4,0.55,1,5160.498,3,0.0,same
0,677,valid,"[(1163, 769)]",[],[1],[0.5166666666666666],horizontal,"(390.0, 762.0)",0.7666666666666666,0.476,1,5166.897,3,0.0,same
0,678,valid,"[(1180, 787)]",[],[1],[0.55],vertical,"(890.0, 262.0)",0.55,0.507,1,5172.645,3,0.0,same
0,679,valid,"[(1172, 779)]",[],[1],[0.5666666666666667],vertical,"(390.0, 762.0)",0.6166666666666667,0.527,1,5178.261,3,0.0,same
0,680,valid,"[(1172, 783)]",[],[1],[0.55],vertical,"(890.0, 762.0)",1.5166666666666666,0.511,1,5183.796,3,0.0,same
0,681,catch,"[(1160, 782)]",[],[1],[],vertical,"(890.0, 762.0)",1.7,nan,1,5190.311,3,0.0,same
0,682,valid,"[(1167, 788)]",[],[1],[0.5666666666666667],horizontal,"(390.0, 262.0)",0.55,0.524,1,5196.095,3,0.0,same
0,683,valid,"[(1178, 783)]",[],[1],[0.5666666666666667],horizontal,"(390.0, 262.0)",0.7166666666666667,0.524,1,5201.518,3,0.0,same
0,684,catch,"[(1171, 766)]",[],[1],[],vertical,"(890.0, 762.0)",1.7,nan,1,5207.111,3,0.0,same
0,685,valid,"[(1160, 788)]",[],[1],[0.7833333333333333],horizontal,"(390.0, 262.0)",1.1,0.733,1,5213.012,3,0.0,same
0,686,catch,"[(1163, 769)]",[],[1],[],vertical,"(390.0, 762.0)",1.7,nan,1,5219.244,3,0.0,same
0,687,catch,"[(1181, 798)]",[],[1],[],vertical,"(390.0, 762.0)",1.7,nan,1,5224.996,3,0.0,same
0,688,valid,"[(1160, 790)]",[],[1],[0.65],horizontal,"(390.0, 762.0)",0.8166666666666667,0.606,1,5231.128,3,0.0,same
0,689,valid,"[(1162, 778)]",[],[1],[0.85],horizontal,"(890.0, 762.0)",0.5,nan,0,5236.617,0,0.0,same
0,690,invalid_same_bar,"[(1163, 779)]",[],[1],[0.5333333333333333],vertical,"(890.0, 262.0)",0.9,0.49,1,5240.929,1,0.0,same
0,691,valid,"[(1138, 810)]",[],[1],[0.85],horizontal,"(890.0, 762.0)",0.5,nan,0,5246.455,0,0.0,same
0,692,invalid_same_bar,"[(1107, 836)]",[],[1],[0.6333333333333333],horizontal,"(390.0, 262.0)",0.6833333333333333,0.587,1,5278.528,1,0.0,same
0,693,invalid_same_bar,"[(1157, 811)]",[],[1],[0.85],horizontal,"(390.0, 262.0)",0.4,nan,0,5285.234,0,0.0,same
0,694,valid,"[(1152, 840)]",[],[1],[0.6166666666666667],horizontal,"(390.0, 762.0)",0.85,0.577,1,5289.147,1,0.0,same
0,695,invalid_adjacent_other_bar,"[(1161, 803)]",[],[1],[0.6666666666666666],horizontal,"(390.0, 762.0)",0.5166666666666666,0.632,1,5294.853,1,0.0,other
0,696,valid,"[(1163, 793)]",[],[1],[0.55],horizontal,"(890.0, 762.0)",1.0166666666666666,0.506,1,5299.228,1,0.0,same
0,697,valid,"[(1157, 774)]",[],[1],[0.6333333333333333],horizontal,"(890.0, 762.0)",1.2,0.586,1,5304.146,2,0.0,same
0,698,invalid_same_bar,"[(1136, 776)]",[],[1],[0.7833333333333333],vertical,"(390.0, 262.0)",1.1166666666666667,0.742,1,5309.895,2,0.0,same
0,699,valid,"[(1179, 776)]",[],[1],[0.85],vertical,"(890.0, 262.0)",0.7166666666666667,nan,0,5315.498,0,0.0,same
0,700,valid,"[(1133, 794)]",[],[1],[0.7],vertical,"(390.0, 262.0)",0.5166666666666666,0.655,1,5320.196,1,0.0,same
0,701,valid,"[(1185, 782)]",[],[1],[0.5166666666666666],horizontal,"(890.0, 262.0)",1.25,0.476,1,5324.96,1,0.0,same
0,702,valid,"[(1175, 765)]",[],[1],[0.55],horizontal,"(390.0, 262.0)",0.48333333333333334,0.516,1,5330.494,1,0.0,same
0,703,catch,"[(1176, 782)]",[],[1],[],horizontal,"(890.0, 262.0)",1.7,nan,1,5334.867,2,0.0,same
0,704,valid,"[(1170, 799)]",[],[1],[0.55],vertical,"(890.0, 262.0)",0.9666666666666667,0.512,1,5340.807,2,0.0,same
0,705,valid,"[(1173, 795)]",[],[1],[0.5666666666666667],vertical,"(390.0, 262.0)",0.9333333333333333,0.533,1,5346.495,2,0.0,same
0,706,valid,"[(1161, 788)]",[],[1],[0.7833333333333333],vertical,"(390.0, 262.0)",1.25,0.744,1,5351.811,3,0.0,same
0,707,catch,"[(1165, 785)]",[],[1],[],horizontal,"(390.0, 262.0)",1.7,nan,1,5358.275,3,0.0,same
0,708,catch,"[(1160, 789)]",[],[1],[],vertical,"(890.0, 262.0)",1.7,nan,1,5364.078,3,0.0,same
0,709,valid,"[(1178, 787)]",[],[1],[0.55],vertical,"(890.0, 762.0)",0.9666666666666667,0.505,1,5369.895,3,0.0,same
0,710,valid,"[(1181, 788)]",[],[1],[0.5666666666666667],vertical,"(890.0, 262.0)",0.8666666666666667,0.529,1,5375.463,3,0.0,same
0,711,catch,"[(1177, 766)]",[],[1],[],horizontal,"(390.0, 762.0)",1.7,nan,1,5381.095,3,0.0,same
0,712,valid,"[(1165, 794)]",[],[1],[0.55],vertical,"(890.0, 762.0)",0.9166666666666666,0.506,1,5386.885,3,0.0,same
0,713,valid,"[(1147, 801)]",[],[1],[0.6833333333333333],horizontal,"(890.0, 262.0)",0.6,0.65,1,5392.797,3,0.0,same
0,714,valid,"[(1184, 786)]",[],[1],[0.55],vertical,"(890.0, 762.0)",1.5166666666666666,0.511,1,5398.68,3,0.0,same
0,715,valid,"[(1178, 785)]",[],[1],[0.8],horizontal,"(390.0, 262.0)",1.1333333333333333,0.755,1,5405.289,3,0.0,same
0,716,valid,"[(1179, 792)]",[],[1],[0.85],vertical,"(390.0, 762.0)",0.4666666666666667,nan,0,5411.361,0,0.0,same
0,717,catch,"[(1175, 772)]",[],[1],[],horizontal,"(390.0, 262.0)",1.7,nan,1,5415.565,1,0.0,same
0,718,valid,"[(1181, 788)]",[],[1],[0.85],vertical,"(390.0, 262.0)",1.1333333333333333,nan,0,5421.054,0,0.0,same
0,719,valid,"[(1163, 808)]",[],[1],[0.6333333333333333],vertical,"(390.0, 762.0)",1.4333333333333333,0.596,1,5426.427,1,0.0,same
0,720,catch,"[(1199, 792)]",[],[1],[],vertical,"(390.0, 262.0)",1.7,nan,1,5432.014,1,0.0,same
0,721,valid,"[(1156, 795)]",[],[1],[0.6666666666666666],vertical,"(890.0, 762.0)",0.4166666666666667,0.62,1,5437.53,1,0.0,same
0,722,valid,"[(1145, 795)]",[],[1],[0.85],horizontal,"(390.0, 262.0)",0.5,nan,0,5442.304,0,0.0,same
0,723,catch,"[(1135, 789)]",[],[1],[],horizontal,"(890.0, 762.0)",1.7,nan,1,5446.197,1,0.0,same
0,724,valid,"[(1160, 794)]",[],[1],[0.6166666666666667],horizontal,"(890.0, 262.0)",0.7833333333333333,0.577,1,5451.62,1,0.0,same
0,725,valid,"[(1179, 808)]",[],[1],[0.7],vertical,"(890.0, 762.0)",0.45,0.667,1,5456.66,1,0.0,same
0,726,valid,"[(1168, 796)]",[],[1],[0.65],horizontal,"(890.0, 762.0)",1.4666666666666666,0.612,1,5461.129,2,0.0,same
0,727,catch,"[(1178, 783)]",[],[1],[],vertical,"(890.0, 762.0)",1.7,nan,1,5467.185,2,0.0,same
0,728,valid,"[(1177, 786)]",[],[1],[0.75],horizontal,"(890.0, 262.0)",1.1833333333333333,0.702,1,5472.712,2,0.0,same
0,729,valid,"[(1164, 792)]",[],[1],[0.7333333333333333],horizontal,"(890.0, 262.0)",1.5333333333333332,0.693,1,5479.032,3,0.0,same
0,730,catch,"[(1180, 789)]",[],[1],[],horizontal,"(890.0, 262.0)",1.7,nan,1,5485.579,3,0.0,same
0,731,valid,"[(1142, 787)]",[],[1],[0.6333333333333333],vertical,"(390.0, 262.0)",0.75,0.601,1,5491.283,3,0.0,same
0,732,invalid_adjacent_other_bar,"[(1161, 772)]",[],[1],[0.8333333333333334],vertical,"(390.0, 762.0)",1.5,0.794,1,5496.896,3,0.0,other
0,733,valid,"[(1167, 799)]",[],[1],[0.5666666666666667],horizontal,"(890.0, 762.0)",1.3833333333333333,0.524,1,5503.462,3,0.0,same
0,734,valid,"[(1183, 772)]",[],[1],[0.5833333333333334],horizontal,"(390.0, 762.0)",1.1666666666666667,0.543,1,5509.797,3,0.0,same
0,735,catch,"[(1185, 784)]",[],[1],[],vertical,"(890.0, 262.0)",1.7,nan,1,5516.246,3,0.0,same
0,736,valid,"[(1147, 786)]",[],[1],[0.6],vertical,"(890.0, 262.0)",0.85,0.561,1,5522.346,3,0.0,same
0,737,valid,"[(1162, 778)]",[],[1],[0.5333333333333333],horizontal,"(390.0, 262.0)",0.8666666666666667,0.487,1,5528.024,3,0.0,same
0,738,valid,"[(1175, 783)]",[],[1],[0.6],horizontal,"(390.0, 762.0)",1.3333333333333333,0.558,1,5533.697,3,0.0,same
0,739,valid,"[(1160, 772)]",[],[1],[0.7],horizontal,"(890.0, 262.0)",1.25,0.666,1,5539.747,3,0.0,same
0,740,valid,"[(1162, 774)]",[],[1],[0.7166666666666667],vertical,"(890.0, 262.0)",0.3833333333333333,0.682,1,5545.894,3,0.0,same
0,741,valid,"[(1171, 772)]",[],[1],[0.5833333333333334],vertical,"(890.0, 762.0)",0.6,0.548,1,5550.812,3,0.0,same
0,742,valid,"[(1182, 761)]",[],[1],[0.5333333333333333],horizontal,"(890.0, 762.0)",0.8,0.495,1,5555.776,3,0.0,same
0,743,valid,"[(1160, 779)]",[],[1],[0.6833333333333333],horizontal,"(890.0, 762.0)",0.45,0.642,1,5561.422,3,0.0,same
0,744,catch,"[(1158, 776)]",[],[1],[],horizontal,"(390.0, 262.0)",1.7,nan,1,5567.028,3,0.0,same
0,745,valid,"[(1165, 787)]",[],[1],[0.8],vertical,"(390.0, 762.0)",0.4666666666666667,0.752,1,5573.08,3,0.0,same
0,746,catch,"[(1162, 774)]",[],[1],[],horizontal,"(390.0, 762.0)",1.7,nan,1,5578.362,3,0.0,same
0,747,valid,"[(1162, 785)]",[],[1],[0.7166666666666667],vertical,"(890.0, 762.0)",1.4166666666666667,0.671,1,5584.064,3,0.0,same
0,748,valid,"[(1160, 784)]",[],[1],[0.85],vertical,"(390.0, 762.0)",1.3333333333333333,nan,0,5590.713,0,0.0,same
0,749,valid,"[(1120, 845)]",[],[1],[0.6],horizontal,"(890.0, 762.0)",0.8,0.555,1,5595.879,1,0.0,same
0,750,invalid_adjacent_other_bar,"[(1172, 816)]",[],[1],[0.85],vertical,"(390.0, 762.0)",0.45,nan,0,5697.98,0,0.0,other
0,751,valid,"[(1136, 828)]",[],[1],[0.55],horizontal,"(390.0, 762.0)",1.2166666666666666,0.51,1,5702.638,1,0.0,same
0,752,invalid_adjacent_other_bar,"[(1165, 809)]",[],[1],[0.5166666666666666],vertical,"(390.0, 262.0)",1.5333333333333332,0.478,1,5708.162,1,0.0,other
0,753,catch,"[(1155, 811)]",[],[1],[],horizontal,"(390.0, 762.0)",1.7,nan,1,5714.013,1,0.0,same
0,754,valid,"[(1129, 815)]",[],[1],[0.7166666666666667],horizontal,"(390.0, 762.0)",0.6166666666666667,0.668,1,5719.082,2,0.0,same
0,755,valid,"[(1174, 794)]",[],[1],[0.5166666666666666],vertical,"(390.0, 762.0)",1.2,0.48,1,5724.365,2,0.0,same
0,756,catch,"[(1157, 792)]",[],[1],[],vertical,"(890.0, 762.0)",1.7,nan,1,5729.751,2,0.0,same
0,757,catch,"[(1160, 783)]",[],[1],[],vertical,"(390.0, 762.0)",1.7,"('cti', 1.687),nan",0,5735.43,0,0.02,same
0,758,valid,"[(1157, 807)]",[],[1],[0.5333333333333333],vertical,"(890.0, 262.0)",1.5333333333333332,0.494,1,5740.364,1,0.02,same
0,759,valid,"[(1165, 799)]",[],[1],[0.7666666666666666],horizontal,"(390.0, 262.0)",1.0166666666666666,0.716,1,5745.713,1,0.02,same
0,760,valid,"[(1182, 758)]",[],[1],[0.5833333333333334],horizontal,"(890.0, 762.0)",1.2166666666666666,0.544,1,5750.866,1,0.02,same
0,761,valid,"[(1181, 780)]",[],[1],[0.5833333333333334],vertical,"(390.0, 262.0)",0.9166666666666666,0.538,1,5756.137,2,0.02,same
0,762,valid,"[(1184, 805)]",[],[1],[0.65],horizontal,"(390.0, 262.0)",0.75,0.611,1,5761.562,2,0.02,same
0,763,valid,"[(1175, 792)]",[],[1],[0.85],horizontal,"(390.0, 762.0)",0.9666666666666667,nan,0,5767.113,0,0.02,same
0,764,valid,"[(1160, 790)]",[],[1],[0.6],horizontal,"(390.0, 762.0)",0.5,0.558,1,5771.814,1,0.02,same
0,765,valid,"[(1178, 809)]",[],[1],[0.5833333333333334],horizontal,"(390.0, 262.0)",1.2833333333333332,0.54,1,5776.368,1,0.02,same
0,766,valid,"[(1157, 800)]",[],[1],[0.5166666666666666],horizontal,"(390.0, 762.0)",1.1,0.476,1,5781.864,1,0.02,same
0,767,catch,"[(1136, 818)]",[],[1],[],vertical,"(890.0, 762.0)",1.7,nan,1,5786.613,2,0.02,same
0,768,valid,"[(1172, 785)]",[],[1],[0.6],horizontal,"(890.0, 262.0)",1.5333333333333332,0.557,1,5792.331,2,0.02,same
0,769,valid,"[(1164, 795)]",[],[1],[0.7],vertical,"(390.0, 262.0)",1.3166666666666667,0.654,1,5798.113,2,0.02,same
0,770,catch,"[(1160, 779)]",[],[1],[],horizontal,"(890.0, 762.0)",1.7,nan,1,5803.813,3,0.02,same
0,771,catch,"[(1180, 785)]",[],[1],[],vertical,"(390.0, 262.0)",1.7,nan,1,5810.297,3,0.02,same
0,772,catch,"[(1163, 793)]",[],[1],[],vertical,"(390.0, 262.0)",1.7,nan,1,5816.098,3,0.02,same
0,773,catch,"[(1160, 816)]",[],[1],[],horizontal,"(390.0, 762.0)",1.7,nan,1,5822.298,3,0.02,same
0,774,valid,"[(1174, 783)]",[],[1],[0.55],horizontal,"(890.0, 762.0)",1.3833333333333333,0.509,1,5827.897,3,0.02,same
0,775,catch,"[(1156, 786)]",[],[1],[],horizontal,"(390.0, 762.0)",1.7,nan,1,5834.363,3,0.02,same
0,776,valid,"[(1177, 793)]",[],[1],[0.6833333333333333],vertical,"(390.0, 762.0)",1.3,0.635,1,5840.214,3,0.02,same
0,777,invalid_same_bar,"[(1169, 781)]",[],[1],[0.23333333333333334],horizontal,"(390.0, 262.0)",0.9666666666666667,0.197,0,5846.63,0,0.02,same
0,778,valid,"[(1135, 794)]",[],[1],[0.4],vertical,"(390.0, 762.0)",1.0166666666666666,0.359,1,5851.18,1,0.02,same
0,779,valid,"[(1165, 862)]",[],[1],[0.85],horizontal,"(390.0, 762.0)",0.4,nan,0,5855.791,0,0.02,same
0,780,catch,"[(1140, 806)]",[],[1],[],vertical,"(890.0, 262.0)",1.7,nan,1,5910.597,1,0.02,same
0,781,valid,"[(1188, 786)]",[],[1],[0.6],horizontal,"(390.0, 762.0)",1.0666666666666667,0.559,1,5916.232,1,0.02,same
0,782,catch,"[(1161, 821)]",[],[1],[],horizontal,"(390.0, 762.0)",1.7,nan,1,5921.141,1,0.02,same
0,783,catch,"[(1180, 796)]",[],[1],[],horizontal,"(890.0, 762.0)",1.7,nan,1,5926.4,2,0.02,same
0,784,catch,"[(1180, 793)]",[],[1],[],horizontal,"(390.0, 762.0)",1.7,nan,1,5932.164,2,0.02,same
0,785,valid,"[(1183, 783)]",[],[1],[0.6],vertical,"(890.0, 762.0)",1.4666666666666666,0.561,1,5937.965,2,0.02,same
0,786,catch,"[(1181, 766)]",[],[1],[],horizontal,"(890.0, 762.0)",1.7,nan,1,5943.682,3,0.02,same
0,787,valid,"[(1155, 777)]",[],[1],[0.5166666666666666],horizontal,"(890.0, 262.0)",1.35,0.483,1,5949.782,3,0.02,same
0,788,valid,"[(1156, 782)]",[],[1],[0.5833333333333334],horizontal,"(890.0, 262.0)",1.3,0.543,1,5955.465,3,0.02,same
0,789,catch,"[(1150, 776)]",[],[1],[],vertical,"(390.0, 762.0)",1.7,nan,1,5961.58,3,0.02,same
0,790,catch,"[(1178, 774)]",[],[1],[],vertical,"(890.0, 762.0)",1.7,nan,1,5967.883,3,0.02,same
0,791,catch,"[(1150, 800)]",[],[1],[],vertical,"(390.0, 762.0)",1.7,nan,1,5974.081,3,0.02,same
0,792,valid,"[(1171, 785)]",[],[1],[0.1],horizontal,"(390.0, 262.0)",1.3666666666666667,0.065,0,5980.032,0,0.02,same
0,793,valid,"[(1162, 796)]",[],[1],[0.55],horizontal,"(890.0, 762.0)",1.5166666666666666,0.509,1,5984.765,1,0.02,same
0,794,valid,"[(1161, 789)]",[],[1],[0.65],horizontal,"(390.0, 762.0)",0.5166666666666666,0.609,1,5990.329,1,0.02,same
0,795,valid,"[(1180, 800)]",[],[1],[0.7333333333333333],horizontal,"(890.0, 762.0)",0.8833333333333333,0.688,1,5995.331,1,0.02,same
0,796,invalid_same_bar,"[(1180, 774)]",[],[1],[0.65],vertical,"(390.0, 262.0)",0.55,0.61,1,6000.609,2,0.02,same
0,797,valid,"[(1157, 777)]",[],[1],[0.6666666666666666],horizontal,"(890.0, 762.0)",0.4666666666666667,0.622,1,6005.656,2,0.02,same
0,798,catch,"[(1165, 770)]",[],[1],[],vertical,"(390.0, 762.0)",1.7,nan,1,6010.581,2,0.02,same
0,799,valid,"[(1180, 769)]",[],[1],[0.6166666666666667],vertical,"(890.0, 762.0)",0.9833333333333333,0.571,1,6016.629,3,0.02,same
0,800,catch,"[(1183, 783)]",[],[1],[],horizontal,"(890.0, 262.0)",1.7,nan,1,6022.351,3,0.02,same
0,801,invalid_adjacent_other_bar,"[(1178, 794)]",[],[1],[0.6833333333333333],vertical,"(390.0, 762.0)",1.3166666666666667,0.639,1,6028.065,3,0.02,other
0,802,catch,"[(1173, 779)]",[],[1],[],vertical,"(390.0, 762.0)",1.7,nan,1,6034.267,3,0.02,same
0,803,catch,"[(1180, 781)]",[],[1],[],horizontal,"(890.0, 262.0)",1.7,nan,1,6040.603,3,0.02,same
0,804,valid,"[(1160, 782)]",[],[1],[0.5666666666666667],vertical,"(890.0, 262.0)",1.0333333333333332,0.523,1,6046.981,3,0.02,same
0,805,catch,"[(1166, 774)]",[],[1],[],vertical,"(890.0, 762.0)",1.7,nan,1,6052.579,3,0.02,same
0,806,valid,"[(1166, 786)]",[],[1],[0.5833333333333334],vertical,"(890.0, 262.0)",0.6,0.538,1,6058.275,3,0.02,same
0,807,invalid_adjacent_other_bar,"[(1161, 784)]",[],[1],[0.7166666666666667],horizontal,"(890.0, 262.0)",1.0,0.671,1,6063.242,3,0.0,other
0,808,catch,"[(1160, 797)]",[],[1],[],horizontal,"(890.0, 262.0)",,"('cti', 1.109),nan",0,6069.181,0,0.02,same
0,809,valid,"[(1161, 801)]",[],[1],[0.26666666666666666],horizontal,"(390.0, 762.0)",1.5166666666666666,0.228,1,6073.618,1,0.02,same
0,810,valid,"[(1181, 792)]",[],[1],[0.5833333333333334],horizontal,"(390.0, 762.0)",1.1333333333333333,0.545,1,6078.951,1,0.02,same
0,811,catch,"[(1183, 769)]",[],[1],[],horizontal,"(390.0, 262.0)",1.7,nan,1,6084.131,1,0.02,same
0,812,catch,"[(1153, 777)]",[],[1],[],vertical,"(390.0, 762.0)",1.7,nan,1,6089.749,2,0.02,same
0,813,valid,"[(1181, 773)]",[],[1],[0.5666666666666667],horizontal,"(890.0, 262.0)",0.9,0.53,1,6095.198,2,0.02,same
0,814,valid,"[(1153, 774)]",[],[1],[0.85],horizontal,"(390.0, 762.0)",1.1833333333333333,nan,0,6100.729,0,0.02,same
0,815,catch,"[(1141, 774)]",[],[1],[],horizontal,"(890.0, 262.0)",1.7,nan,1,6105.29,1,0.02,same
0,816,catch,"[(1162, 790)]",[],[1],[],horizontal,"(890.0, 762.0)",1.7,nan,1,6110.77,1,0.02,same
0,817,valid,"[(1161, 789)]",[],[1],[0.5666666666666667],horizontal,"(390.0, 762.0)",0.8166666666666667,0.521,1,6115.633,1,0.02,same
0,818,catch,"[(1184, 768)]",[],[1],[],horizontal,"(390.0, 262.0)",1.7,nan,1,6120.382,2,0.02,same
0,819,valid,"[(1160, 789)]",[],[1],[0.5666666666666667],vertical,"(390.0, 262.0)",0.6166666666666667,0.522,1,6125.682,2,0.02,same
0,820,invalid_adjacent_other_bar,"[(1135, 766)]",[],[1],[0.6333333333333333],horizontal,"(390.0, 762.0)",0.6166666666666667,0.593,1,6130.733,2,0.02,other
0,821,valid,"[(1178, 789)]",[],[1],[0.43333333333333335],vertical,"(390.0, 762.0)",1.5333333333333332,0.394,1,6135.397,3,0.02,same
0,822,catch,"[(1183, 789)]",[],[1],[],vertical,"(890.0, 762.0)",1.7,nan,1,6141.94,3,0.02,same
0,823,valid,"[(1167, 795)]",[],[1],[0.6166666666666667],vertical,"(390.0, 762.0)",0.7333333333333333,0.569,1,6147.949,3,0.02,same
0,824,valid,"[(1162, 801)]",[],[1],[0.6333333333333333],vertical,"(890.0, 262.0)",0.7,0.587,1,6153.721,3,0.02,same
0,825,valid,"[(1160, 782)]",[],[1],[0.5833333333333334],vertical,"(390.0, 262.0)",0.5833333333333334,0.541,1,6159.948,3,0.02,same
0,826,catch,"[(1180, 799)]",[],[1],[],horizontal,"(890.0, 762.0)",1.7,nan,1,6165.507,3,0.02,same
0,827,valid,"[(1158, 797)]",[],[1],[0.7],horizontal,"(390.0, 262.0)",0.5166666666666666,0.658,1,6171.431,3,0.02,same
0,828,valid,"[(1165, 797)]",[],[1],[0.7333333333333333],horizontal,"(390.0, 762.0)",1.0666666666666667,0.688,1,6177.516,3,0.02,same
0,829,invalid_adjacent_other_bar,"[(1155, 778)]",[],[1],[0.7],vertical,"(390.0, 262.0)",0.5166666666666666,0.657,1,6183.998,3,0.02,other
0,830,valid,"[(1175, 776)]",[],[1],[0.5833333333333334],horizontal,"(390.0, 762.0)",0.8333333333333334,0.541,1,6189.549,3,0.02,same
0,831,catch,"[(1170, 796)]",[],[1],[],vertical,"(390.0, 762.0)",1.7,nan,1,6195.066,3,0.02,same
0,832,valid,"[(1160, 784)]",[],[1],[0.6166666666666667],horizontal,"(890.0, 762.0)",0.5833333333333334,0.577,1,6200.798,3,0.02,same
0,833,valid,"[(1175, 784)]",[],[1],[0.6333333333333333],horizontal,"(890.0, 262.0)",0.7833333333333333,0.587,1,6206.013,3,0.02,same
0,834,valid,"[(1184, 779)]",[],[1],[0.7333333333333333],vertical,"(890.0, 262.0)",1.1333333333333333,0.686,1,6211.928,3,0.02,same
0,835,valid,"[(1180, 783)]",[],[1],[0.4666666666666667],horizontal,"(390.0, 762.0)",1.5333333333333332,0.425,1,6218.166,3,0.02,same
0,836,valid,"[(1135, 787)]",[],[1],[0.5166666666666666],horizontal,"(890.0, 262.0)",1.4833333333333334,0.472,1,6224.566,3,0.02,same
0,837,valid,"[(1153, 789)]",[],[1],[0.5333333333333333],horizontal,"(890.0, 262.0)",1.0333333333333332,0.494,1,6231.832,3,0.02,same
0,838,valid,"[(1163, 779)]",[],[1],"[0.85, 0.85]",horizontal,"(890.0, 262.0)",1.0333333333333332,"0.8,nan",0,6237.666,0,0.02,same
0,839,catch,"[(1165, 807)]",[],[1],[],horizontal,"(890.0, 762.0)",1.7,nan,1,6242.169,1,0.02,same
0,840,catch,"[(1167, 778)]",[],[1],[],vertical,"(390.0, 762.0)",1.7,nan,1,6247.248,1,0.02,same
0,841,valid,"[(1183, 800)]",[],[1],[0.6333333333333333],vertical,"(890.0, 262.0)",0.5333333333333333,0.59,1,6252.827,1,0.02,same
0,842,valid,"[(1195, 794)]",[],[1],[0.5166666666666666],vertical,"(890.0, 262.0)",0.8666666666666667,0.475,1,6257.263,2,0.02,same
0,843,catch,"[(1165, 786)]",[],[1],[],horizontal,"(390.0, 262.0)",1.7,nan,1,6262.198,2,0.02,same
0,844,valid,"[(1170, 812)]",[],[1],[0.65],vertical,"(890.0, 262.0)",0.6666666666666666,0.601,1,6267.566,2,0.02,same
0,845,valid,"[(1180, 781)]",[],[1],[0.55],horizontal,"(390.0, 262.0)",0.8833333333333333,0.505,1,6273.409,3,0.02,same
0,846,valid,"[(1192, 781)]",[],[1],[0.7666666666666666],vertical,"(890.0, 762.0)",1.0333333333333332,0.714,1,6279.266,3,0.02,same
0,847,valid,"[(1178, 789)]",[],[1],[0.7333333333333333],vertical,"(390.0, 762.0)",1.3666666666666667,0.686,1,6285.592,3,0.02,same
0,848,valid,"[(1186, 796)]",[],[1],[0.55],vertical,"(890.0, 262.0)",1.5,0.515,1,6292.151,3,0.02,same
0,849,valid,"[(1178, 796)]",[],[1],[0.55],horizontal,"(890.0, 762.0)",0.9333333333333333,0.508,1,6298.491,3,0.02,same
0,850,valid,"[(1175, 778)]",[],[1],[0.55],horizontal,"(390.0, 262.0)",1.0333333333333332,0.508,1,6304.733,3,0.02,same
0,851,valid,"[(1168, 787)]",[],[1],[0.55],horizontal,"(390.0, 762.0)",1.0666666666666667,0.507,1,6310.387,3,0.02,same
0,852,invalid_adjacent_other_bar,"[(1181, 773)]",[],[1],[0.8],horizontal,"(390.0, 262.0)",0.9,0.749,1,6316.166,3,0.02,other
0,853,valid,"[(1120, 783)]",[],[1],[0.6166666666666667],vertical,"(390.0, 762.0)",0.5833333333333334,0.573,1,6321.933,3,0.02,same
0,854,catch,"[(1179, 794)]",[],[1],[],horizontal,"(390.0, 262.0)",1.7,nan,1,6327.53,3,0.02,same
0,855,valid,"[(1182, 791)]",[],[1],[0.5666666666666667],vertical,"(890.0, 762.0)",0.6833333333333333,0.541,1,6333.458,3,0.02,same
0,856,catch,"[(1168, 782)]",[],[1],[],horizontal,"(890.0, 762.0)",1.7,nan,1,6339.132,3,0.02,same
0,857,valid,"[(1180, 781)]",[],[1],[0.6166666666666667],horizontal,"(390.0, 762.0)",0.75,0.572,1,6344.719,3,0.02,same
0,858,catch,"[(1160, 774)]",[],[1],[],vertical,"(390.0, 762.0)",1.7,nan,1,6349.965,3,0.0,same
0,859,valid,"[(1146, 783)]",[],[1],[0.5833333333333334],vertical,"(890.0, 262.0)",0.4666666666666667,0.546,1,6355.617,3,0.0,same
0,860,valid,"[(1181, 776)]",[],[1],[0.5666666666666667],vertical,"(390.0, 262.0)",1.4833333333333334,0.522,1,6360.464,3,0.0,same
0,861,valid,"[(1177, 774)]",[],[1],[0.55],horizontal,"(890.0, 762.0)",0.4166666666666667,0.506,1,6366.446,3,0.0,same
0,862,invalid_adjacent_other_bar,"[(1204, 769)]",[],[1],[0.7666666666666666],vertical,"(890.0, 762.0)",0.6333333333333333,0.721,1,6371.315,3,0.0,other
0,863,invalid_adjacent_other_bar,"[(1161, 789)]",[],[1],[0.5833333333333334],vertical,"(890.0, 762.0)",0.5333333333333333,0.543,1,6376.682,3,0.0,other
