block,trial,trial_type,taps_start_loc_during_fix,taps_end_loc_during_fix,taps_on_lever_during_fix,taps_on_lever_s_during_fix,bar_orientation,target_xy,cti,rt,acc,time,pulses,fa_rate_recent100,actual_invalid_type
0,1,catch,"[(1116, 834)]",[],[1],[],horizontal,"(890.0, 262.0)",1.7,nan,1,0.395,1,0.0,same
0,2,valid,"[(1100, 845)]",[],[1],[0.85],horizontal,"(390.0, 262.0)",0.48333333333333334,nan,0,10.717,0,0.0,same
0,3,catch,"[(1141, 823)]",[],[1],[],vertical,"(390.0, 762.0)",1.7,nan,1,42.774,1,0.0,same
0,4,valid,"[(1151, 824)]",[],[1],[0.85],horizontal,"(890.0, 762.0)",1.1333333333333333,nan,0,48.212,0,0.0,same
0,5,valid,"[(1134, 877)]",[],[1],[0.85],vertical,"(890.0, 762.0)",1.2166666666666666,nan,0,53.229,0,0.0,same
0,6,valid,"[(1146, 817)]",[],[1],[0.8333333333333334],vertical,"(390.0, 762.0)",0.9833333333333333,0.794,1,60.391,1,0.0,same
0,7,valid,"[(1161, 789)]",[],[1],[0.85],horizontal,"(890.0, 262.0)",0.7166666666666667,nan,0,65.978,0,0.0,same
0,8,valid,"[(1131, 799)]",[],[1],[0.5666666666666667],vertical,"(890.0, 262.0)",0.9,0.521,1,70.544,1,0.0,same
0,9,catch,"[(1171, 799)]",[],[1],[],horizontal,"(390.0, 762.0)",1.7,nan,1,75.812,1,0.0,same
0,10,catch,"[(1175, 798)]",[],[1],[],horizontal,"(390.0, 762.0)",1.7,nan,1,80.962,1,0.0,same
0,11,catch,"[(1163, 776)]",[],[1],[],horizontal,"(890.0, 762.0)",1.7,nan,1,86.153,2,0.0,same
0,12,valid,"[(1170, 786)]",[],[1],[0.5666666666666667],horizontal,"(390.0, 762.0)",1.3333333333333333,0.524,1,91.878,2,0.0,same
0,13,valid,"[(1156, 799)]",[],[1],[0.6333333333333333],vertical,"(890.0, 262.0)",0.9333333333333333,0.606,1,98.291,2,0.0,same
0,14,valid,"[(1160, 796)]",[],[1],[0.85],vertical,"(890.0, 262.0)",0.55,nan,0,104.14,0,0.0,same
0,15,valid,"[(1144, 797)]",[],[1],[0.6],vertical,"(890.0, 262.0)",1.3333333333333333,0.557,1,108.715,1,0.0,same
0,16,catch,"[(1175, 790)]",[],[1],[],horizontal,"(890.0, 762.0)",1.7,nan,1,114.12,1,0.0,same
0,17,catch,"[(1160, 779)]",[],[1],[],horizontal,"(390.0, 262.0)",1.7,nan,1,119.114,1,0.0,same
0,18,valid,"[(1175, 799)]",[],[1],[0.8333333333333334],vertical,"(390.0, 762.0)",0.5,0.785,1,124.268,2,0.0,same
0,19,valid,"[(1160, 788)]",[],[1],[0.6166666666666667],vertical,"(390.0, 762.0)",1.5,0.572,1,129.594,2,0.0,same
0,20,valid,"[(1158, 795)]",[],[1],[0.7333333333333333],horizontal,"(390.0, 762.0)",0.9333333333333333,0.695,1,135.257,2,0.0,same
0,21,valid,"[(1173, 802)]",[],[1],[0.85],vertical,"(890.0, 262.0)",0.7833333333333333,nan,0,140.765,0,0.0,same
0,22,valid,"[(1142, 802)]",[],[1],[0.6333333333333333],vertical,"(390.0, 262.0)",0.9666666666666667,0.588,1,145.704,1,0.0,same
0,23,valid,"[(1171, 798)]",[],[1],[0.6833333333333333],vertical,"(390.0, 762.0)",0.75,0.637,1,150.561,1,0.0,same
0,24,valid,"[(1142, 782)]",[],[1],[0.6166666666666667],vertical,"(890.0, 262.0)",1.35,0.572,1,155.178,1,0.0,same
0,25,catch,"[(1156, 784)]",[],[1],[],vertical,"(890.0, 762.0)",1.7,nan,1,160.367,2,0.0,same
0,26,valid,"[(1201, 799)]",[],[1],[0.7833333333333333],horizontal,"(890.0, 762.0)",0.36666666666666664,0.739,1,165.896,2,0.0,same
0,27,catch,"[(1175, 808)]",[],[1],[],vertical,"(390.0, 262.0)",1.7,nan,1,171.578,2,0.0,same
0,28,catch,"[(1175, 803)]","[(1111, 867)]",[1],[0.43333333333333335],vertical,"(390.0, 762.0)",,"('bar', 0.44),nan",0,177.46,0,0.03571428571428571,same
0,29,catch,"[(1142, 824)]",[],[1],[],vertical,"(390.0, 762.0)",1.7,nan,1,180.161,1,0.034482758620689655,same
0,30,invalid_same_bar,"[(1171, 803)]",[],[1],[0.4666666666666667],horizontal,"(890.0, 762.0)",1.4,0.426,1,185.579,1,0.03333333333333333,same
0,31,valid,"[(1158, 787)]",[],[1],[0.55],vertical,"(390.0, 762.0)",0.7833333333333333,0.505,1,191.014,1,0.03225806451612903,same
0,32,catch,"[(1177, 795)]",[],[1],[],vertical,"(390.0, 762.0)",1.7,nan,1,196.561,2,0.03125,same
0,33,catch,"[(1171, 786)]",[],[1],[],horizontal,"(890.0, 762.0)",1.7,nan,1,201.969,2,0.030303030303030304,same
0,34,valid,"[(1174, 798)]",[],[1],[0.65],vertical,"(890.0, 262.0)",0.45,0.6,1,207.978,2,0.029411764705882353,same
0,35,invalid_same_bar,"[(1170, 799)]",[],[1],[0.6666666666666666],vertical,"(390.0, 762.0)",1.3833333333333333,0.632,1,213.28,3,0.02857142857142857,same
0,36,catch,"[(1161, 777)]",[],[1],[],vertical,"(890.0, 262.0)",1.7,nan,1,219.779,3,0.027777777777777776,same
0,37,valid,"[(1167, 784)]",[],[1],[0.65],horizontal,"(390.0, 762.0)",1.1833333333333333,0.606,1,225.562,3,0.02702702702702703,same
0,38,valid,"[(1158, 785)]",[],[1],[0.6666666666666666],horizontal,"(390.0, 762.0)",1.3166666666666667,0.621,1,231.992,3,0.02631578947368421,same
0,39,valid,"[(1171, 791)]",[],[1],[0.85],horizontal,"(390.0, 262.0)",0.7,nan,0,238.395,0,0.02564102564102564,same
0,40,valid,"[(1158, 789)]",[],[1],[0.5666666666666667],horizontal,"(390.0, 262.0)",0.6,0.528,1,243.012,1,0.025,same
0,41,valid,"[(1158, 779)]",[],[1],[0.6833333333333333],vertical,"(390.0, 262.0)",0.6,0.645,1,247.989,1,0.024390243902439025,same
0,42,valid,"[(1134, 777)]",[],[1],[0.6666666666666666],vertical,"(890.0, 762.0)",1.4666666666666666,0.618,1,252.545,1,0.023809523809523808,same
0,43,valid,"[(1172, 772)]",[],[1],[0.5333333333333333],horizontal,"(390.0, 262.0)",0.7833333333333333,0.5,1,258.083,2,0.023255813953488372,same
0,44,valid,"[(1158, 782)]",[],[1],[0.65],horizontal,"(390.0, 262.0)",0.3833333333333333,0.612,1,263.398,2,0.022727272727272728,same
0,45,valid,"[(1160, 779)]",[],[1],[0.7166666666666667],horizontal,"(390.0, 762.0)",1.05,0.674,1,268.591,2,0.022222222222222223,same
0,46,valid,"[(1165, 788)]",[],[1],[0.5166666666666666],horizontal,"(890.0, 762.0)",1.5,0.476,1,274.378,3,0.021739130434782608,same
0,47,valid,"[(1167, 791)]",[],[1],[0.5833333333333334],vertical,"(890.0, 262.0)",1.45,0.542,1,281.079,3,0.02127659574468085,same
0,48,valid,"[(1161, 784)]",[],[1],[0.55],horizontal,"(890.0, 262.0)",0.5833333333333334,0.506,1,287.583,3,0.020833333333333332,same
0,49,catch,"[(1176, 787)]",[],[1],[],vertical,"(390.0, 262.0)",1.7,nan,1,293.095,3,0.02040816326530612,same
0,50,catch,"[(1172, 790)]",[],[1],[],vertical,"(890.0, 262.0)",1.7,nan,1,299.131,3,0.02,same
0,51,valid,"[(1160, 786)]",[],[1],[0.5833333333333334],horizontal,"(390.0, 262.0)",0.6833333333333333,0.551,1,305.329,3,0.02,same
0,52,valid,"[(1160, 781)]",[],[1],[0.5666666666666667],horizontal,"(390.0, 762.0)",1.1166666666666667,0.521,1,310.829,3,0.02,same
0,53,invalid_adjacent_other_bar,"[(1175, 772)]",[],[1],[0.6333333333333333],vertical,"(890.0, 762.0)",1.3333333333333333,0.586,1,317.053,3,0.02,other
0,54,valid,"[(1171, 787)]",[],[1],[0.5166666666666666],horizontal,"(890.0, 262.0)",1.1,0.479,1,323.345,3,0.02,same
0,55,valid,"[(1175, 789)]",[],[1],[0.7],horizontal,"(890.0, 262.0)",0.65,0.663,1,329.195,3,0.02,same
0,56,valid,"[(1155, 785)]",[],[1],[0.8],vertical,"(890.0, 262.0)",1.1166666666666667,0.749,1,334.674,3,0.02,same
0,57,valid,"[(1171, 769)]",[],[1],[],vertical,"(890.0, 262.0)",,"('cti', 1.181)",0,340.744,0,0.02,same
0,58,valid,"[(1157, 805)]",[],[1],[0.55],vertical,"(890.0, 762.0)",1.0333333333333332,0.511,1,345.103,1,0.02,same
0,59,invalid_adjacent_other_bar,"[(1166, 781)]",[],[1],[0.4666666666666667],horizontal,"(890.0, 262.0)",1.35,0.432,1,349.714,1,0.02,other
0,60,catch,"[(1175, 778)]","[(1149, 836)]",[1],[0.4666666666666667],horizontal,"(890.0, 262.0)",,"('bar', 0.477),nan",0,355.371,0,0.04,same
0,61,catch,"[(1156, 811)]",[],[1],[],vertical,"(890.0, 762.0)",1.7,nan,1,357.979,1,0.04,same
0,62,valid,"[(1165, 794)]",[],[1],[0.5666666666666667],vertical,"(890.0, 262.0)",0.75,0.525,1,363.079,1,0.04,same
0,63,invalid_same_bar,"[(1172, 789)]",[],[1],[0.85],vertical,"(390.0, 262.0)",0.6166666666666667,nan,0,368.429,0,0.04,same
0,64,valid,"[(1134, 806)]",[],[1],[0.5333333333333333],vertical,"(890.0, 762.0)",0.8666666666666667,0.5,1,372.712,1,0.04,same
0,65,valid,"[(1162, 791)]",[],[1],[0.7666666666666666],vertical,"(390.0, 762.0)",1.1833333333333333,0.716,1,377.403,1,0.04,same
0,66,valid,"[(1156, 769)]",[],[1],[0.6666666666666666],vertical,"(390.0, 262.0)",1.05,0.627,1,382.706,1,0.04,same
0,67,catch,"[(1158, 779)]",[],[1],[],horizontal,"(890.0, 262.0)",1.7,nan,1,388.134,2,0.04,same
0,68,valid,"[(1159, 781)]",[],[1],[0.5833333333333334],horizontal,"(390.0, 762.0)",0.4166666666666667,0.54,1,393.97,2,0.04,same
0,69,valid,"[(1150, 774)]",[],[1],[0.55],vertical,"(890.0, 762.0)",0.45,0.51,1,398.395,2,0.04,same
0,70,valid,"[(1170, 779)]",[],[1],[0.65],horizontal,"(390.0, 762.0)",1.25,0.606,1,403.191,3,0.04,same
0,71,valid,"[(1174, 794)]",[],[1],[0.55],horizontal,"(390.0, 762.0)",0.8,0.514,1,409.312,3,0.04,same
0,72,catch,"[(1174, 779)]",[],[1],[],vertical,"(890.0, 262.0)",1.7,nan,1,415.012,3,0.04,same
0,73,valid,"[(1159, 787)]",[],[1],[0.6166666666666667],vertical,"(390.0, 762.0)",0.65,0.574,1,421.329,3,0.04,same
0,74,valid,"[(1157, 779)]",[],[1],[0.5333333333333333],horizontal,"(890.0, 262.0)",0.7666666666666666,0.499,1,426.997,3,0.04,same
0,75,valid,"[(1165, 790)]",[],[1],[0.5333333333333333],vertical,"(390.0, 762.0)",1.1166666666666667,0.499,1,432.364,3,0.04,same
0,76,valid,"[(1158, 774)]",[],[1],[0.6],horizontal,"(390.0, 262.0)",1.2333333333333334,0.559,1,437.935,3,0.04,same
0,77,valid,"[(1159, 806)]",[],[1],[0.5666666666666667],vertical,"(390.0, 262.0)",1.0166666666666666,0.523,1,443.931,3,0.04,same
0,78,catch,"[(1159, 783)]",[],[1],[],horizontal,"(390.0, 262.0)",,"('cti', 1.603),nan",0,449.229,0,0.04,same
0,79,catch,"[(1153, 798)]",[],[1],[],horizontal,"(390.0, 262.0)",1.7,nan,1,454.079,1,0.04,same
0,80,valid,"[(1158, 791)]",[],[1],[0.5833333333333334],vertical,"(890.0, 762.0)",1.15,0.555,1,459.561,1,0.04,same
0,81,valid,"[(1166, 785)]",[],[1],[0.5333333333333333],vertical,"(890.0, 762.0)",1.3833333333333333,0.489,1,464.447,1,0.04,same
0,82,valid,"[(1160, 789)]",[],[1],[0.85],horizontal,"(390.0, 762.0)",0.36666666666666664,nan,0,469.996,0,0.04,same
0,83,valid,"[(1157, 837)]",[],[1],[0.6],horizontal,"(390.0, 762.0)",0.6,0.556,1,473.791,1,0.04,same
0,84,catch,"[(1156, 778)]",[],[1],[],horizontal,"(390.0, 262.0)",1.7,nan,1,478.557,1,0.04,same
0,85,catch,"[(1171, 779)]",[],[1],[],horizontal,"(390.0, 262.0)",1.7,nan,1,483.529,1,0.04,same
0,86,valid,"[(1175, 789)]",[],[1],[0.65],vertical,"(890.0, 262.0)",0.6666666666666666,0.609,1,488.713,2,0.04,same
0,87,catch,"[(1155, 798)]",[],[1],[],horizontal,"(890.0, 762.0)",1.7,nan,1,493.848,2,0.04,same
0,88,valid,"[(1172, 786)]",[],[1],[0.6333333333333333],vertical,"(390.0, 262.0)",1.2833333333333332,0.592,1,499.446,2,0.04,same
0,89,valid,"[(1175, 796)]",[],[1],[0.85],horizontal,"(890.0, 262.0)",0.9166666666666666,nan,0,505.714,0,0.04,same
0,90,valid,"[(1157, 791)]",[],[1],[0.85],horizontal,"(890.0, 262.0)",0.65,nan,0,510.863,0,0.04,same
0,91,valid,"[(1156, 836)]",[],[1],[0.6],vertical,"(890.0, 762.0)",0.7666666666666666,0.554,1,515.052,1,0.04,same
0,92,valid,"[(1173, 773)]",[],[1],[0.5],horizontal,"(890.0, 262.0)",0.45,0.463,1,520.118,1,0.04,same
0,93,valid,"[(1152, 775)]",[],[1],[0.6166666666666667],horizontal,"(390.0, 262.0)",1.1666666666666667,0.576,1,524.788,1,0.04,same
0,94,valid,"[(1170, 795)]",[],[1],[0.6166666666666667],horizontal,"(890.0, 762.0)",0.7166666666666667,0.573,1,530.307,2,0.04,same
0,95,valid,"[(1159, 789)]",[],[1],[0.5333333333333333],horizontal,"(890.0, 262.0)",1.1833333333333333,0.497,1,535.658,2,0.04,same
0,96,valid,"[(1170, 794)]",[],[1],[0.5166666666666666],vertical,"(390.0, 762.0)",1.0333333333333332,0.48,1,540.979,2,0.04,same
0,97,valid,"[(1152, 802)]",[],[1],[0.7333333333333333],horizontal,"(890.0, 262.0)",1.4666666666666666,0.691,1,546.029,3,0.04,same
0,98,catch,"[(1172, 805)]",[],[1],[],vertical,"(390.0, 762.0)",1.7,nan,1,552.863,3,0.04,same
0,99,valid,"[(1162, 792)]",[],[1],[0.6333333333333333],horizontal,"(890.0, 262.0)",0.43333333333333335,0.595,1,559.213,3,0.04,same
0,100,valid,"[(1156, 784)]",[],[1],[0.5833333333333334],vertical,"(890.0, 762.0)",0.85,0.539,1,564.478,3,0.04,same
0,101,valid,"[(1170, 783)]",[],[1],[0.5333333333333333],vertical,"(390.0, 262.0)",1.5166666666666666,0.494,1,570.165,3,0.04,same
0,102,valid,"[(1156, 775)]",[],[1],[0.6833333333333333],horizontal,"(890.0, 262.0)",0.6833333333333333,0.635,1,576.075,3,0.04,same
0,103,valid,"[(1158, 779)]",[],[1],[0.55],vertical,"(890.0, 262.0)",0.6166666666666667,0.509,1,581.661,3,0.04,same
0,104,catch,"[(1171, 786)]",[],[1],[],horizontal,"(890.0, 262.0)",1.7,nan,1,586.83,3,0.04,same
0,105,valid,"[(1163, 780)]",[],[1],[0.85],vertical,"(390.0, 762.0)",1.15,nan,0,593.096,0,0.04,same
0,106,valid,"[(1159, 796)]",[],[1],[0.5666666666666667],vertical,"(390.0, 762.0)",0.36666666666666664,0.525,1,598.069,1,0.04,same
0,107,valid,"[(1157, 789)]",[],[1],[0.6],horizontal,"(890.0, 262.0)",0.8,0.56,1,602.229,1,0.04,same
0,108,catch,"[(1156, 783)]",[],[1],[],vertical,"(390.0, 762.0)",1.7,nan,1,607.515,1,0.04,same
0,109,catch,"[(1174, 783)]",[],[1],[],vertical,"(390.0, 262.0)",1.7,nan,1,612.994,2,0.04,same
0,110,valid,"[(1154, 781)]",[],[1],[0.6333333333333333],vertical,"(390.0, 762.0)",1.2333333333333334,0.589,1,618.324,2,0.02,same
0,111,valid,"[(1160, 780)]",[],[1],[0.6833333333333333],horizontal,"(390.0, 262.0)",0.4666666666666667,0.649,1,623.708,2,0.02,same
0,112,valid,"[(1177, 791)]",[],[1],[0.6],vertical,"(390.0, 762.0)",1.4,0.557,1,628.773,3,0.02,same
0,113,valid,"[(1172, 789)]",[],[1],[0.5333333333333333],vertical,"(890.0, 762.0)",0.7166666666666667,0.494,1,635.178,3,0.02,same
0,114,valid,"[(1174, 789)]",[],[1],[0.6],vertical,"(890.0, 762.0)",0.7666666666666666,0.559,1,640.551,3,0.02,same
0,115,valid,"[(1154, 794)]",[],[1],[0.55],vertical,"(890.0, 262.0)",1.3666666666666667,0.517,1,646.272,3,0.02,same
0,116,valid,"[(1159, 794)]",[],[1],[0.85],horizontal,"(890.0, 762.0)",1.1333333333333333,nan,0,652.547,0,0.02,same
0,117,valid,"[(1130, 795)]",[],[1],[0.85],horizontal,"(390.0, 762.0)",0.55,nan,0,657.153,0,0.02,same
0,118,valid,"[(1122, 789)]",[],[1],[0.5333333333333333],vertical,"(390.0, 262.0)",1.1166666666666667,0.496,1,661.278,1,0.02,same
0,119,valid,"[(1175, 796)]",[],[1],[0.6333333333333333],vertical,"(890.0, 762.0)",1.0833333333333333,0.588,1,666.571,1,0.02,same
0,120,catch,"[(1170, 783)]",[],[1],[],horizontal,"(890.0, 762.0)",1.7,nan,1,671.822,1,0.02,same
0,121,valid,"[(1174, 799)]",[],[1],[0.5333333333333333],vertical,"(390.0, 262.0)",0.3833333333333333,0.492,1,677.241,2,0.02,same
0,122,catch,"[(1163, 783)]",[],[1],[],horizontal,"(890.0, 262.0)",1.7,nan,1,681.755,2,0.02,same
0,123,valid,"[(1160, 786)]",[],[1],[0.6666666666666666],vertical,"(390.0, 762.0)",1.3333333333333333,0.617,1,687.215,2,0.02,same
0,124,valid,"[(1155, 796)]",[],[1],[0.7166666666666667],horizontal,"(390.0, 262.0)",1.1333333333333333,0.676,1,693.472,3,0.02,same
0,125,valid,"[(1173, 795)]",[],[1],[0.5333333333333333],vertical,"(390.0, 762.0)",0.8166666666666667,0.508,1,699.776,3,0.02,same
0,126,catch,"[(1170, 798)]",[],[1],[],horizontal,"(390.0, 262.0)",1.7,nan,1,705.269,3,0.02,same
0,127,valid,"[(1175, 805)]",[],[1],[0.6],horizontal,"(390.0, 762.0)",0.5166666666666666,0.556,1,711.509,3,0.02,same
0,128,valid,"[(1157, 774)]",[],[1],[0.6166666666666667],horizontal,"(890.0, 762.0)",1.0666666666666667,0.576,1,717.263,3,0.0,same
0,129,valid,"[(1175, 794)]",[],[1],[0.55],vertical,"(890.0, 262.0)",0.6333333333333333,0.511,1,723.28,3,0.0,same
0,130,valid,"[(1157, 789)]",[],[1],[0.6166666666666667],vertical,"(390.0, 762.0)",0.8333333333333334,0.579,1,728.886,3,0.0,same
0,131,valid,"[(1161, 783)]",[],[1],[0.6666666666666666],horizontal,"(890.0, 262.0)",0.8,0.622,1,734.781,3,0.0,same
0,132,valid,"[(1163, 778)]",[],[1],[0.6666666666666666],vertical,"(390.0, 262.0)",0.5833333333333334,0.625,1,740.424,3,0.0,same
0,133,valid,"[(1158, 784)]",[],[1],[0.6],horizontal,"(390.0, 762.0)",0.6,0.557,1,746.165,3,0.0,same
0,134,valid,"[(1165, 787)]",[],[1],[0.6166666666666667],horizontal,"(390.0, 762.0)",0.6833333333333333,0.576,1,751.654,3,0.0,same
0,135,valid,"[(1175, 776)]",[],[1],[0.55],horizontal,"(890.0, 762.0)",0.85,0.504,1,757.379,3,0.0,same
0,136,invalid_same_bar,"[(1159, 782)]",[],[1],[0.5833333333333334],horizontal,"(390.0, 762.0)",0.8166666666666667,0.54,1,763.147,3,0.0,same
0,137,valid,"[(1159, 794)]",[],[1],[0.5833333333333334],vertical,"(890.0, 262.0)",1.1333333333333333,0.544,1,768.531,3,0.0,same
0,138,catch,"[(1160, 784)]",[],[1],[],horizontal,"(390.0, 762.0)",1.7,nan,1,774.948,3,0.0,same
0,139,invalid_same_bar,"[(1168, 777)]",[],[1],[0.7166666666666667],horizontal,"(890.0, 262.0)",1.25,0.68,1,781.198,3,0.0,same
0,140,valid,"[(1167, 793)]",[],[1],[0.5833333333333334],horizontal,"(390.0, 762.0)",0.45,0.547,1,787.348,3,0.0,same
0,141,valid,"[(1170, 771)]",[],[1],[0.5833333333333334],vertical,"(890.0, 762.0)",1.35,0.543,1,792.43,3,0.0,same
0,142,catch,"[(1175, 793)]",[],[1],[],horizontal,"(890.0, 262.0)",1.7,nan,1,798.933,3,0.0,same
0,143,valid,"[(1166, 794)]",[],[1],[0.5833333333333334],horizontal,"(890.0, 762.0)",1.5166666666666666,0.539,1,804.681,3,0.0,same
0,144,catch,"[(1173, 770)]",[],[1],[],horizontal,"(390.0, 262.0)",1.7,nan,1,811.276,3,0.0,same
0,145,catch,"[(1160, 778)]",[],[1],[],horizontal,"(390.0, 762.0)",1.7,nan,1,816.821,3,0.0,same
0,146,valid,"[(1175, 783)]",[],[1],[0.55],horizontal,"(890.0, 762.0)",0.5166666666666666,0.516,1,822.662,3,0.0,same
0,147,catch,"[(1167, 783)]",[],[1],[],horizontal,"(890.0, 262.0)",1.7,nan,1,827.815,3,0.0,same
0,148,catch,"[(1170, 794)]",[],[1],[],horizontal,"(390.0, 262.0)",1.7,nan,1,833.797,3,0.0,same
0,149,valid,"[(1175, 780)]",[],[1],[0.85],horizontal,"(890.0, 262.0)",1.2666666666666666,nan,0,839.68,0,0.0,same
0,150,valid,"[(1136, 775)]",[],[1],[0.6166666666666667],horizontal,"(390.0, 262.0)",0.65,0.576,1,844.706,1,0.0,same
0,151,valid,"[(1159, 779)]",[],[1],[0.43333333333333335],vertical,"(890.0, 762.0)",1.5333333333333332,0.395,1,849.846,1,0.0,same
0,152,valid,"[(1159, 781)]",[],[1],[0.7],vertical,"(890.0, 262.0)",1.0666666666666667,0.661,1,855.38,1,0.0,same
0,153,valid,"[(1158, 795)]",[],[1],[0.85],horizontal,"(890.0, 762.0)",0.6166666666666667,nan,0,860.441,0,0.0,same
0,154,valid,"[(1134, 790)]",[],[1],[0.7333333333333333],vertical,"(390.0, 762.0)",1.1166666666666667,0.69,1,864.945,1,0.0,same
0,155,valid,"[(1166, 787)]",[],[1],[0.7166666666666667],vertical,"(890.0, 262.0)",0.7,0.672,1,870.096,1,0.0,same
0,156,catch,"[(1175, 792)]",[],[1],[],vertical,"(890.0, 262.0)",1.7,nan,1,875.081,1,0.0,same
0,157,valid,"[(1154, 776)]",[],[1],[0.65],vertical,"(890.0, 262.0)",0.4166666666666667,0.609,1,880.239,2,0.0,same
0,158,catch,"[(1175, 782)]",[],[1],[],vertical,"(890.0, 262.0)",1.7,nan,1,884.841,2,0.0,same
0,159,valid,"[(1155, 778)]",[],[1],[0.65],horizontal,"(890.0, 762.0)",0.6833333333333333,0.606,1,890.347,2,0.0,same
0,160,catch,"[(1174, 790)]",[],[1],[],vertical,"(890.0, 262.0)",1.7,nan,1,895.865,3,0.0,same
0,161,valid,"[(1157, 772)]",[],[1],[0.6],horizontal,"(890.0, 262.0)",1.3,0.558,1,902.332,3,0.0,same
0,162,catch,"[(1157, 814)]",[],[1],[],horizontal,"(890.0, 762.0)",1.7,nan,1,908.05,3,0.0,same
0,163,valid,"[(1171, 764)]",[],[1],[0.7666666666666666],horizontal,"(890.0, 762.0)",1.2666666666666666,0.727,1,913.882,3,0.0,same
0,164,valid,"[(1157, 800)]",[],[1],[0.55],vertical,"(890.0, 262.0)",0.55,0.509,1,919.982,3,0.0,same
0,165,valid,"[(1163, 781)]",[],[1],[0.5333333333333333],vertical,"(390.0, 262.0)",0.5333333333333333,0.49,1,925.532,3,0.0,same
0,166,valid,"[(1161, 789)]",[],[1],[0.85],horizontal,"(390.0, 262.0)",0.5666666666666667,nan,0,930.68,0,0.0,same
0,167,valid,"[(1155, 783)]",[],[1],[0.7333333333333333],vertical,"(390.0, 762.0)",0.6166666666666667,0.699,1,935.239,1,0.0,same
0,168,catch,"[(1162, 789)]",[],[1],[],horizontal,"(390.0, 762.0)",1.7,nan,1,939.774,1,0.0,same
0,169,valid,"[(1157, 779)]",[],[1],[0.7],horizontal,"(890.0, 762.0)",0.6333333333333333,0.66,1,944.896,1,0.0,same
0,170,catch,"[(1160, 775)]",[],[1],[],horizontal,"(390.0, 762.0)",1.7,nan,1,950.048,2,0.0,same
0,171,valid,"[(1153, 783)]",[],[1],[0.6666666666666666],horizontal,"(390.0, 762.0)",1.05,0.622,1,955.614,2,0.0,same
0,172,valid,"[(1165, 788)]",[],[1],[0.5333333333333333],horizontal,"(390.0, 762.0)",0.4166666666666667,0.491,1,961.298,2,0.0,same
0,173,valid,"[(1173, 790)]",[],[1],[0.5333333333333333],horizontal,"(390.0, 762.0)",0.75,0.499,1,965.661,3,0.0,same
0,174,catch,"[(1173, 784)]",[],[1],[],vertical,"(390.0, 262.0)",1.7,nan,1,971.152,3,0.0,same
0,175,valid,"[(1163, 773)]",[],[1],[0.6333333333333333],horizontal,"(390.0, 762.0)",0.3833333333333333,0.588,1,976.902,3,0.0,same
0,176,valid,"[(1155, 782)]",[],[1],[0.8],horizontal,"(890.0, 762.0)",0.5666666666666667,0.752,1,982.381,3,0.0,same
0,177,valid,"[(1135, 853)]",[],[1],[0.6],vertical,"(890.0, 262.0)",1.4666666666666666,0.562,1,988.394,3,0.0,same
0,178,catch,"[(1165, 820)]",[],[1],[],horizontal,"(390.0, 262.0)",1.7,nan,1,1045.234,3,0.0,same
0,179,valid,"[(1171, 808)]",[],[1],[0.5666666666666667],vertical,"(390.0, 262.0)",0.6,0.531,1,1051.371,3,0.0,same
0,180,invalid_adjacent_other_bar,"[(1166, 799)]",[],[1],[0.8333333333333334],horizontal,"(890.0, 762.0)",1.0,0.789,1,1057.082,3,0.0,other
0,181,valid,"[(1166, 792)]",[],[1],[0.5166666666666666],vertical,"(390.0, 262.0)",0.5666666666666667,0.472,1,1062.948,3,0.0,same
0,182,valid,"[(1166, 799)]",[],[1],[0.5333333333333333],vertical,"(390.0, 762.0)",1.2166666666666666,0.488,1,1067.827,3,0.0,same
0,183,valid,"[(1158, 799)]",[],[1],[0.5666666666666667],horizontal,"(890.0, 262.0)",0.9333333333333333,0.522,1,1074.099,3,0.0,same
0,184,valid,"[(1164, 788)]",[],[1],[0.65],horizontal,"(890.0, 762.0)",0.6666666666666666,0.608,1,1079.881,3,0.0,same
0,185,valid,"[(1169, 789)]",[],[1],[0.5666666666666667],vertical,"(890.0, 762.0)",0.6,0.526,1,1085.481,3,0.0,same
0,186,valid,"[(1170, 789)]",[],[1],[0.85],vertical,"(890.0, 262.0)",1.0666666666666667,nan,0,1090.932,0,0.0,same
0,187,valid,"[(1162, 796)]",[],[1],[0.6833333333333333],vertical,"(390.0, 762.0)",0.6166666666666667,0.643,1,1095.815,1,0.0,same
0,188,catch,"[(1175, 783)]",[],[1],[],vertical,"(890.0, 262.0)",1.7,nan,1,1100.581,1,0.0,same
0,189,catch,"[(1158, 774)]",[],[1],[],horizontal,"(390.0, 762.0)",1.7,nan,1,1105.86,1,0.0,same
0,190,valid,"[(1172, 785)]",[],[1],[0.5833333333333334],horizontal,"(890.0, 262.0)",0.9666666666666667,0.54,1,1111.615,2,0.0,same
0,191,catch,"[(1170, 794)]",[],[1],[],vertical,"(390.0, 762.0)",1.7,nan,1,1117.181,2,0.0,same
0,192,catch,"[(1172, 770)]",[],[1],[],horizontal,"(890.0, 262.0)",1.7,nan,1,1122.93,2,0.0,same
0,193,valid,"[(1175, 775)]",[],[1],[0.65],vertical,"(390.0, 762.0)",0.7166666666666667,0.61,1,1128.715,3,0.0,same
0,194,valid,"[(1170, 777)]",[],[1],[0.6166666666666667],horizontal,"(890.0, 262.0)",0.8833333333333333,0.567,1,1134.963,3,0.0,same
0,195,valid,"[(1175, 794)]",[],[1],[0.6833333333333333],vertical,"(390.0, 262.0)",0.9666666666666667,0.635,1,1140.282,3,0.0,same
0,196,valid,"[(1172, 780)]",[],[1],[0.7],vertical,"(390.0, 762.0)",1.15,0.659,1,1146.349,3,0.0,same
0,197,catch,"[(1175, 779)]",[],[1],[],vertical,"(390.0, 762.0)",1.7,nan,1,1152.726,3,0.0,same
0,198,valid,"[(1175, 796)]",[],[1],[0.7166666666666667],horizontal,"(390.0, 762.0)",0.3833333333333333,0.674,1,1158.672,3,0.0,same
0,199,catch,"[(1175, 789)]",[],[1],[],vertical,"(890.0, 262.0)",1.7,nan,1,1164.265,3,0.0,same
0,200,valid,"[(1180, 789)]",[],[1],[0.6166666666666667],horizontal,"(390.0, 762.0)",1.05,0.578,1,1170.365,3,0.0,same
0,201,valid,"[(1160, 798)]",[],[1],[0.55],horizontal,"(890.0, 262.0)",0.48333333333333334,0.512,1,1176.583,3,0.0,same
0,202,valid,"[(1171, 778)]",[],[1],[0.6833333333333333],horizontal,"(390.0, 262.0)",1.2,0.639,1,1182.078,3,0.0,same
0,203,valid,"[(1166, 787)]",[],[1],[0.85],horizontal,"(390.0, 262.0)",0.8833333333333333,nan,0,1188.082,0,0.0,same
0,204,valid,"[(1161, 789)]",[],[1],[0.7333333333333333],vertical,"(390.0, 762.0)",1.4,0.688,1,1193.114,1,0.0,same
0,205,valid,"[(1174, 774)]",[],[1],[0.5],horizontal,"(890.0, 262.0)",0.7166666666666667,0.464,1,1198.555,1,0.0,same
0,206,valid,"[(1156, 803)]",[],[1],[0.6],vertical,"(390.0, 262.0)",1.1666666666666667,0.56,1,1203.683,1,0.0,same
0,207,valid,"[(1159, 770)]",[],[1],[0.5833333333333334],vertical,"(390.0, 762.0)",0.36666666666666664,0.543,1,1209.261,2,0.0,same
0,208,valid,"[(1181, 802)]",[],[1],[0.5166666666666666],horizontal,"(390.0, 262.0)",1.4166666666666667,0.485,1,1214.214,2,0.0,same
0,209,catch,"[(1159, 795)]",[],[1],[],vertical,"(390.0, 762.0)",1.7,nan,1,1219.774,2,0.0,same
0,210,valid,"[(1175, 789)]",[],[1],[0.5833333333333334],horizontal,"(390.0, 262.0)",0.5833333333333334,0.543,1,1225.373,3,0.0,same
0,211,valid,"[(1175, 797)]",[],[1],[0.65],horizontal,"(890.0, 262.0)",1.0,0.607,1,1231.054,3,0.0,same
0,212,valid,"[(1175, 808)]",[],[1],[0.85],vertical,"(890.0, 762.0)",0.9,nan,0,1236.966,0,0.0,same
0,213,catch,"[(1156, 816)]",[],[1],[],vertical,"(890.0, 762.0)",1.7,nan,1,1241.78,1,0.0,same
0,214,valid,"[(1160, 798)]",[],[1],[0.5833333333333334],horizontal,"(390.0, 762.0)",0.8166666666666667,0.545,1,1247.349,1,0.0,same
0,215,valid,"[(1174, 779)]",[],[1],[0.6333333333333333],vertical,"(390.0, 262.0)",1.3333333333333333,0.585,1,1252.595,1,0.0,same
0,216,valid,"[(1155, 794)]",[],[1],[0.7],vertical,"(390.0, 262.0)",1.25,0.652,1,1258.149,2,0.0,same
0,217,valid,"[(1210, 787)]",[],[1],[0.85],horizontal,"(890.0, 762.0)",0.9666666666666667,nan,0,1264.265,0,0.0,same
0,218,catch,"[(1162, 784)]",[],[1],[],horizontal,"(390.0, 762.0)",1.7,nan,1,1269.15,1,0.0,same
0,219,catch,"[(1173, 786)]",[],[1],[],vertical,"(890.0, 262.0)",1.7,nan,1,1274.497,1,0.0,same
0,220,catch,"[(1171, 795)]",[],[1],[],vertical,"(390.0, 262.0)",1.7,nan,1,1279.918,1,0.0,same
0,221,valid,"[(1172, 793)]",[],[1],[0.5333333333333333],vertical,"(890.0, 262.0)",0.9,0.493,1,1285.332,2,0.0,same
0,222,catch,"[(1175, 796)]",[],[1],[],vertical,"(890.0, 262.0)",1.7,nan,1,1290.221,2,0.0,same
0,223,valid,"[(1173, 784)]",[],[1],[0.5833333333333334],vertical,"(890.0, 262.0)",1.4833333333333334,0.547,1,1295.844,2,0.0,same
0,224,valid,"[(1204, 773)]",[],[1],[0.6666666666666666],horizontal,"(390.0, 262.0)",1.0,0.621,1,1301.987,3,0.0,same
0,225,catch,"[(1175, 817)]",[],[1],[],horizontal,"(390.0, 762.0)",1.7,nan,1,1308.311,3,0.0,same
0,226,catch,"[(1175, 785)]",[],[1],[],horizontal,"(890.0, 262.0)",1.7,nan,1,1314.304,3,0.0,same
0,227,valid,"[(1163, 774)]",[],[1],[0.75],horizontal,"(890.0, 262.0)",0.45,0.701,1,1319.899,3,0.0,same
0,228,valid,"[(1175, 782)]",[],[1],[0.65],vertical,"(890.0, 762.0)",0.6333333333333333,0.61,1,1325.516,3,0.0,same
0,229,catch,"[(1174, 784)]",[],[1],[],vertical,"(390.0, 762.0)",1.7,nan,1,1330.615,3,0.0,same
0,230,valid,"[(1160, 783)]",[],[1],[0.5833333333333334],vertical,"(890.0, 762.0)",0.55,0.545,1,1337.049,3,0.0,same
0,231,valid,"[(1155, 799)]",[],[1],[0.6833333333333333],vertical,"(390.0, 762.0)",0.5166666666666666,0.642,1,1342.656,3,0.0,same
0,232,valid,"[(1155, 779)]",[],[1],[0.85],vertical,"(890.0, 762.0)",0.65,nan,0,1347.93,0,0.0,same
0,233,valid,"[(1161, 808)]",[],[1],[0.6333333333333333],vertical,"(390.0, 262.0)",1.3166666666666667,0.589,1,1351.977,1,0.0,same
0,234,valid,"[(1161, 797)]",[],[1],[0.55],vertical,"(890.0, 262.0)",0.7166666666666667,0.51,1,1357.582,1,0.0,same
0,235,valid,"[(1160, 771)]",[],[1],[0.7833333333333333],vertical,"(390.0, 262.0)",1.05,0.74,1,1362.759,1,0.0,same
0,236,valid,"[(1172, 790)]",[],[1],[0.5666666666666667],horizontal,"(390.0, 262.0)",0.9,0.526,1,1368.165,2,0.0,same
0,237,valid,"[(1173, 789)]",[],[1],[0.6166666666666667],horizontal,"(390.0, 262.0)",0.6666666666666666,0.576,1,1373.5,2,0.0,same
0,238,invalid_same_bar,"[(1175, 813)]",[],[1],[0.6],vertical,"(890.0, 262.0)",1.5166666666666666,0.556,1,1378.79,2,0.0,same
0,239,valid,"[(1156, 799)]",[],[1],[0.85],vertical,"(390.0, 762.0)",1.05,nan,0,1384.629,0,0.0,same
0,240,valid,"[(1160, 797)]",[],[1],[0.5333333333333333],horizontal,"(390.0, 262.0)",1.1833333333333333,0.497,1,1389.864,1,0.0,same
0,241,valid,"[(1175, 796)]",[],[1],[0.65],horizontal,"(890.0, 762.0)",0.5666666666666667,0.608,1,1394.977,1,0.0,same
0,242,valid,"[(1160, 776)]",[],[1],[0.6166666666666667],vertical,"(890.0, 262.0)",1.0666666666666667,0.57,1,1399.751,1,0.0,same
0,243,valid,"[(1159, 819)]",[],[1],[0.5],horizontal,"(890.0, 762.0)",1.3666666666666667,0.46,1,1405.066,2,0.0,same
0,244,catch,"[(1157, 792)]",[],[1],[],vertical,"(890.0, 262.0)",1.7,nan,1,1410.817,2,0.0,same
0,245,valid,"[(1174, 773)]",[],[1],[0.7833333333333333],vertical,"(890.0, 262.0)",0.55,0.734,1,1416.127,2,0.0,same
0,246,valid,"[(1175, 808)]",[],[1],[0.6],horizontal,"(890.0, 762.0)",0.95,0.553,1,1421.276,3,0.0,same
0,247,valid,"[(1176, 807)]",[],[1],[0.5333333333333333],vertical,"(890.0, 262.0)",0.7666666666666666,0.495,1,1427.399,3,0.0,same
0,248,valid,"[(1165, 784)]",[],[1],[0.6],horizontal,"(890.0, 762.0)",0.7166666666666667,0.56,1,1433.132,3,0.0,same
0,249,valid,"[(1172, 801)]",[],[1],[0.6],horizontal,"(390.0, 762.0)",1.5333333333333332,0.555,1,1438.786,3,0.0,same
0,250,valid,"[(1175, 809)]",[],[1],[0.6833333333333333],vertical,"(390.0, 262.0)",1.3166666666666667,0.642,1,1444.79,3,0.0,same
0,251,catch,"[(1175, 789)]",[],[1],[],horizontal,"(390.0, 762.0)",1.7,nan,1,1451.169,3,0.0,same
0,252,catch,"[(1161, 777)]",[],[1],[],vertical,"(390.0, 762.0)",1.7,nan,1,1457.112,3,0.0,same
0,253,valid,"[(1162, 773)]",[],[1],[0.7166666666666667],vertical,"(390.0, 262.0)",1.15,0.679,1,1463.277,3,0.0,same
0,254,valid,"[(1172, 799)]",[],[1],[0.85],vertical,"(890.0, 262.0)",1.2833333333333332,nan,0,1469.257,0,0.0,same
0,255,invalid_adjacent_other_bar,"[(1147, 797)]",[],[1],[0.6833333333333333],horizontal,"(890.0, 262.0)",0.35,0.635,1,1474.192,1,0.0,other
0,256,valid,"[(1172, 778)]",[],[1],[0.6666666666666666],horizontal,"(390.0, 262.0)",1.0666666666666667,0.644,1,1478.949,1,0.0,same
0,257,valid,"[(1169, 780)]",[],[1],[0.5833333333333334],vertical,"(890.0, 262.0)",0.4,0.542,1,1483.778,1,0.0,same
0,258,valid,"[(1166, 786)]",[],[1],[0.65],vertical,"(390.0, 762.0)",1.4,0.606,1,1488.26,2,0.0,same
0,259,catch,"[(1156, 779)]",[],[1],[],vertical,"(390.0, 262.0)",1.7,nan,1,1494.0,2,0.0,same
0,260,catch,"[(1173, 782)]",[],[1],[],horizontal,"(890.0, 762.0)",1.7,nan,1,1499.796,2,0.0,same
0,261,valid,"[(1175, 786)]",[],[1],[0.85],vertical,"(390.0, 762.0)",1.0,nan,0,1505.301,0,0.0,same
0,262,valid,"[(1157, 794)]",[],[1],[0.75],horizontal,"(390.0, 262.0)",0.3833333333333333,0.701,1,1510.133,1,0.0,same
0,263,valid,"[(1156, 803)]",[],[1],[0.6333333333333333],vertical,"(890.0, 762.0)",0.75,0.595,1,1514.7,1,0.0,same
0,264,catch,"[(1174, 789)]",[],[1],[],horizontal,"(390.0, 762.0)",1.7,nan,1,1519.851,1,0.0,same
0,265,valid,"[(1151, 803)]",[],[1],[0.6166666666666667],vertical,"(390.0, 762.0)",1.4833333333333334,0.574,1,1525.131,2,0.0,same
0,266,valid,"[(1178, 804)]",[],[1],[0.7166666666666667],horizontal,"(390.0, 262.0)",1.5166666666666666,0.671,1,1531.283,2,0.0,same
0,267,catch,"[(1172, 794)]",[],[1],[],vertical,"(390.0, 762.0)",1.7,nan,1,1537.503,2,0.0,same
0,268,valid,"[(1151, 805)]",[],[1],[0.6333333333333333],vertical,"(390.0, 762.0)",0.7166666666666667,0.59,1,1543.351,3,0.0,same
0,269,catch,"[(1168, 794)]",[],[1],[],vertical,"(390.0, 762.0)",1.7,nan,1,1549.162,3,0.0,same
0,270,valid,"[(1175, 778)]",[],[1],[0.55],horizontal,"(890.0, 762.0)",0.8333333333333334,0.509,1,1555.285,3,0.0,same
0,271,valid,"[(1156, 813)]",[],[1],[0.5333333333333333],vertical,"(890.0, 262.0)",0.95,0.49,1,1560.716,3,0.0,same
0,272,invalid_adjacent_other_bar,"[(1175, 798)]",[],[1],[0.5833333333333334],horizontal,"(390.0, 762.0)",1.2666666666666666,0.54,1,1566.551,3,0.0,other
0,273,valid,"[(1174, 796)]",[],[1],[0.6],horizontal,"(890.0, 262.0)",0.95,0.565,1,1572.3,3,0.0,same
0,274,catch,"[(1157, 772)]",[],[1],[],vertical,"(390.0, 262.0)",1.7,nan,1,1578.099,3,0.0,same
0,275,valid,"[(1155, 797)]",[],[1],[0.5333333333333333],horizontal,"(390.0, 262.0)",1.3666666666666667,0.496,1,1583.998,3,0.0,same
0,276,catch,"[(1170, 784)]",[],[1],[],horizontal,"(390.0, 262.0)",1.7,nan,1,1589.951,3,0.0,same
0,277,valid,"[(1170, 789)]",[],[1],[0.6833333333333333],horizontal,"(890.0, 262.0)",0.75,0.639,1,1596.067,3,0.0,same
0,278,catch,"[(1175, 799)]",[],[1],[],horizontal,"(390.0, 262.0)",1.7,nan,1,1602.087,3,0.0,same
0,279,valid,"[(1170, 770)]",[],[1],[0.6],vertical,"(890.0, 262.0)",1.1166666666666667,0.553,1,1608.199,3,0.0,same
0,280,valid,"[(1170, 813)]",[],[1],[0.55],horizontal,"(390.0, 262.0)",0.7166666666666667,0.507,1,1614.067,3,0.0,same
0,281,catch,"[(1160, 775)]",[],[1],[],vertical,"(890.0, 762.0)",1.7,nan,1,1619.183,3,0.0,same
0,282,catch,"[(1154, 786)]",[],[1],[],vertical,"(390.0, 262.0)",1.7,nan,1,1625.151,3,0.0,same
0,283,valid,"[(1169, 799)]",[],[1],[0.55],vertical,"(890.0, 762.0)",0.5166666666666666,0.506,1,1631.4,3,0.0,same
0,284,catch,"[(1171, 801)]",[],[1],[],horizontal,"(390.0, 262.0)",1.7,nan,1,1636.666,3,0.0,same
0,285,catch,"[(1156, 789)]",[],[1],[],vertical,"(890.0, 262.0)",1.7,nan,1,1642.706,3,0.0,same
0,286,valid,"[(1155, 790)]",[],[1],[0.65],vertical,"(890.0, 762.0)",1.2666666666666666,0.608,1,1648.461,3,0.0,same
0,287,valid,"[(1172, 785)]",[],[1],[0.5166666666666666],horizontal,"(390.0, 762.0)",1.5,0.48,1,1654.765,3,0.0,same
0,288,valid,"[(1154, 813)]",[],[1],[0.85],horizontal,"(390.0, 762.0)",0.4,nan,0,1660.9,0,0.0,same
0,289,valid,"[(1131, 786)]",[],[1],[0.85],horizontal,"(890.0, 762.0)",1.2666666666666666,nan,0,1667.841,0,0.0,same
0,290,valid,"[(1133, 823)]",[],[1],[0.85],vertical,"(390.0, 762.0)",1.2,nan,0,1672.944,0,0.0,same
0,291,valid,"[(1131, 817)]",[],[1],[0.6166666666666667],vertical,"(890.0, 262.0)",0.6333333333333333,0.57,1,1677.589,1,0.0,same
0,292,valid,"[(1159, 781)]",[],[1],[0.6666666666666666],horizontal,"(890.0, 262.0)",1.4833333333333334,0.622,1,1682.533,1,0.0,same
0,293,valid,"[(1160, 799)]",[],[1],[0.85],vertical,"(390.0, 762.0)",1.35,nan,0,1687.98,0,0.0,same
0,294,catch,"[(1155, 823)]",[],[1],[],vertical,"(890.0, 262.0)",1.7,nan,1,1692.983,1,0.0,same
0,295,catch,"[(1177, 792)]",[],[1],[],horizontal,"(390.0, 262.0)",1.7,nan,1,1698.323,1,0.0,same
0,296,valid,"[(1176, 799)]",[],[1],[0.5166666666666666],vertical,"(390.0, 262.0)",0.43333333333333335,0.474,1,1703.118,1,0.0,same
0,297,catch,"[(1178, 813)]",[],[1],[],vertical,"(390.0, 762.0)",1.7,nan,1,1707.117,2,0.0,same
0,298,valid,"[(1178, 819)]",[],[1],[0.6],vertical,"(390.0, 762.0)",1.05,0.553,1,1713.057,2,0.0,same
0,299,valid,"[(1171, 813)]",[],[1],[0.6833333333333333],vertical,"(390.0, 762.0)",0.85,0.652,1,1718.383,2,0.0,same
0,300,valid,"[(1160, 788)]",[],[1],[0.5333333333333333],vertical,"(890.0, 762.0)",0.35,0.493,1,1723.854,3,0.0,same
0,301,catch,"[(1160, 802)]",[],[1],[],horizontal,"(390.0, 762.0)",1.7,nan,1,1729.267,3,0.0,same
0,302,catch,"[(1175, 802)]",[],[1],[],vertical,"(390.0, 762.0)",1.7,nan,1,1734.932,3,0.0,same
0,303,valid,"[(1177, 794)]",[],[1],[0.55],vertical,"(390.0, 762.0)",1.3,0.51,1,1741.216,3,0.0,same
0,304,valid,"[(1167, 818)]",[],[1],[0.6333333333333333],horizontal,"(890.0, 762.0)",0.8166666666666667,0.588,1,1747.633,3,0.0,same
0,305,valid,"[(1176, 808)]",[],[1],[0.7166666666666667],horizontal,"(890.0, 262.0)",0.36666666666666664,0.669,1,1753.122,3,0.0,same
0,306,valid,"[(1157, 792)]",[],[1],[0.6666666666666666],horizontal,"(890.0, 262.0)",1.3,0.619,1,1758.38,3,0.0,same
0,307,valid,"[(1175, 796)]",[],[1],[0.85],vertical,"(390.0, 762.0)",1.05,nan,0,1764.79,0,0.0,same
0,308,valid,"[(1162, 809)]",[],[1],[0.6],horizontal,"(390.0, 262.0)",1.2833333333333332,0.555,1,1770.036,1,0.0,same
0,309,valid,"[(1122, 818)]",[],[1],"[0.85, 0.85]",horizontal,"(890.0, 262.0)",0.8833333333333333,"0.793,nan",0,1775.427,0,0.0,same
0,310,catch,"[(1160, 813)]",[],[1],[],vertical,"(390.0, 762.0)",1.7,nan,1,1786.95,1,0.0,same
0,311,catch,"[(1160, 815)]",[],[1],[],horizontal,"(390.0, 262.0)",1.7,nan,1,1791.962,1,0.0,same
0,312,valid,"[(1173, 788)]",[],[1],[0.6166666666666667],vertical,"(390.0, 762.0)",0.4,0.573,1,1796.892,1,0.0,same
0,313,valid,"[(1174, 807)]",[],[1],[0.55],vertical,"(890.0, 762.0)",0.8,0.505,1,1801.626,2,0.0,same
0,314,catch,"[(1167, 818)]",[],[1],[],vertical,"(390.0, 762.0)",1.7,nan,1,1806.999,2,0.0,same
0,315,valid,"[(1160, 818)]",[],[1],[0.75],horizontal,"(390.0, 762.0)",1.35,0.703,1,1812.358,2,0.0,same
0,316,invalid_adjacent_other_bar,"[(1195, 803)]",[],[1],[0.5],vertical,"(890.0, 262.0)",1.4833333333333334,0.456,1,1818.019,3,0.0,other
0,317,catch,"[(1164, 818)]",[],[1],[],horizontal,"(390.0, 762.0)",1.7,nan,1,1824.082,3,0.0,same
0,318,valid,"[(1159, 783)]",[],[1],[0.5166666666666666],vertical,"(890.0, 762.0)",0.5333333333333333,0.474,1,1829.983,3,0.0,same
0,319,catch,"[(1148, 805)]",[],[1],[],vertical,"(890.0, 762.0)",1.7,nan,1,1835.512,3,0.0,same
0,320,valid,"[(1160, 798)]",[],[1],[0.5],vertical,"(390.0, 262.0)",0.65,0.456,1,1841.133,3,0.0,same
0,321,invalid_same_bar,"[(1171, 773)]",[],[1],[0.6166666666666667],vertical,"(390.0, 262.0)",0.75,0.571,1,1846.505,3,0.0,same
0,322,catch,"[(1151, 772)]",[],[1],[],vertical,"(390.0, 762.0)",1.7,nan,1,1852.44,3,0.0,same
0,323,catch,"[(1163, 794)]",[],[1],[],vertical,"(390.0, 262.0)",1.7,nan,1,1858.425,3,0.0,same
0,324,valid,"[(1152, 778)]",[],[1],[0.55],horizontal,"(890.0, 762.0)",0.55,0.507,1,1864.754,3,0.0,same
0,325,valid,"[(1168, 812)]",[],[1],[0.65],horizontal,"(890.0, 762.0)",1.1,0.602,1,1869.946,3,0.0,same
0,326,valid,"[(1142, 813)]",[],[1],[0.3333333333333333],horizontal,"(890.0, 762.0)",1.45,0.294,1,1876.181,3,0.0,same
0,327,valid,"[(1157, 794)]",[],[1],[0.5],vertical,"(890.0, 762.0)",0.48333333333333334,0.462,1,1883.635,3,0.0,same
0,328,valid,"[(1167, 795)]",[],[1],[0.5],horizontal,"(890.0, 262.0)",0.9666666666666667,0.458,1,1889.2,3,0.0,same
0,329,valid,"[(1170, 775)]",[],[1],[0.6],vertical,"(390.0, 762.0)",0.6666666666666666,0.558,1,1894.644,3,0.0,same
0,330,valid,"[(1173, 803)]",[],[1],[0.5833333333333334],horizontal,"(390.0, 262.0)",1.5166666666666666,0.539,1,1900.251,3,0.0,same
0,331,catch,"[(1160, 803)]",[],[1],[],vertical,"(890.0, 262.0)",1.7,nan,1,1906.733,3,0.0,same
0,332,valid,"[(1161, 778)]",[],[1],[0.6333333333333333],horizontal,"(890.0, 762.0)",1.1666666666666667,0.585,1,1912.788,3,0.0,same
0,333,valid,"[(1159, 796)]",[],[1],[0.5666666666666667],horizontal,"(890.0, 262.0)",1.0166666666666666,0.519,1,1918.817,3,0.0,same
0,334,valid,"[(1171, 795)]",[],[1],[0.85],vertical,"(890.0, 262.0)",0.6833333333333333,nan,0,1924.71,0,0.0,same
0,335,valid,"[(1171, 779)]",[],[1],[0.55],horizontal,"(890.0, 762.0)",0.9,0.505,1,1929.417,1,0.0,same
0,336,valid,"[(1155, 796)]",[],[1],[0.5166666666666666],vertical,"(390.0, 262.0)",0.75,0.471,1,1934.85,1,0.0,same
0,337,valid,"[(1155, 799)]",[],[1],[0.5833333333333334],horizontal,"(390.0, 262.0)",0.6833333333333333,0.537,1,1939.56,1,0.0,same
0,338,catch,"[(1160, 795)]",[],[1],[],vertical,"(390.0, 762.0)",1.7,nan,1,1944.58,2,0.0,same
0,339,valid,"[(1160, 796)]",[],[1],[0.7],vertical,"(390.0, 262.0)",0.4166666666666667,0.653,1,1950.214,2,0.0,same
0,340,catch,"[(1186, 808)]",[],[1],[],horizontal,"(890.0, 762.0)",1.7,nan,1,1955.58,2,0.0,same
0,341,valid,"[(1162, 804)]",[],[1],[0.6333333333333333],vertical,"(390.0, 262.0)",1.1166666666666667,0.583,1,1961.034,3,0.0,same
0,342,invalid_same_bar,"[(1174, 813), (1165, 876)]",[],"[1, 1]",[0.6666666666666666],horizontal,"(390.0, 762.0)",1.3666666666666667,"('fix', 0.725),0.621",1,1967.101,3,0.0,same
0,343,invalid_same_bar,"[(1186, 797)]",[],[1],[0.7333333333333333],vertical,"(390.0, 262.0)",1.4333333333333333,0.686,1,1973.585,3,0.0,same
0,344,catch,"[(1171, 797)]",[],[1],[],horizontal,"(890.0, 762.0)",1.7,nan,1,1980.088,3,0.0,same
0,345,valid,"[(1172, 774)]",[],[1],[0.6],horizontal,"(890.0, 762.0)",1.3166666666666667,0.557,1,1986.368,3,0.0,same
0,346,valid,"[(1160, 779)]",[],[1],[0.5166666666666666],horizontal,"(890.0, 262.0)",0.7833333333333333,0.474,1,1992.518,3,0.0,same
0,347,valid,"[(1170, 809)]",[],[1],[0.55],horizontal,"(390.0, 262.0)",1.0166666666666666,0.511,1,1997.824,3,0.0,same
0,348,catch,"[(1160, 790)]",[],[1],[],horizontal,"(890.0, 262.0)",1.7,nan,1,2003.302,3,0.0,same
0,349,valid,"[(1175, 798)]",[],[1],[0.6666666666666666],vertical,"(890.0, 762.0)",1.5166666666666666,0.628,1,2009.244,3,0.0,same
0,350,valid,"[(1167, 795)]",[],[1],[0.8333333333333334],horizontal,"(890.0, 762.0)",1.0333333333333332,0.788,1,2015.894,3,0.0,same
0,351,valid,"[(1175, 798)]",[],[1],[0.85],horizontal,"(890.0, 262.0)",1.05,nan,0,2021.914,0,0.0,same
0,352,valid,"[(1153, 797)]",[],[1],[0.3833333333333333],horizontal,"(390.0, 262.0)",1.5166666666666666,0.343,1,2026.34,1,0.0,same
0,353,valid,"[(1174, 784)]",[],[1],[0.5666666666666667],vertical,"(390.0, 762.0)",1.0333333333333332,0.529,1,2032.136,1,0.0,same
0,354,valid,"[(1154, 828)]",[],[1],[0.5333333333333333],horizontal,"(390.0, 762.0)",1.0166666666666666,0.489,1,2037.456,1,0.0,same
0,355,catch,"[(1157, 789)]",[],[1],[],horizontal,"(890.0, 262.0)",1.7,nan,1,2091.101,2,0.0,same
0,356,catch,"[(1159, 799)]",[],[1],[],horizontal,"(390.0, 762.0)",1.7,nan,1,2096.743,2,0.0,same
0,357,valid,"[(1174, 800)]",[],[1],[0.5166666666666666],vertical,"(390.0, 262.0)",1.5,0.476,1,2102.851,2,0.0,same
0,358,catch,"[(1171, 784)]",[],[1],[],vertical,"(390.0, 762.0)",1.7,nan,1,2108.905,3,0.0,same
0,359,valid,"[(1160, 799)]",[],[1],[0.7833333333333333],vertical,"(390.0, 762.0)",0.3833333333333333,0.735,1,2115.135,3,0.0,same
0,360,valid,"[(1172, 794)]",[],[1],[0.6333333333333333],vertical,"(390.0, 262.0)",1.3833333333333333,0.596,1,2120.784,3,0.0,same
0,361,valid,"[(1174, 799)]",[],[1],[0.6166666666666667],vertical,"(390.0, 762.0)",0.6666666666666666,0.571,1,2126.795,3,0.0,same
0,362,valid,"[(1173, 782)]",[],[1],[0.55],vertical,"(890.0, 262.0)",0.8,0.515,1,2131.82,3,0.0,same
0,363,catch,"[(1158, 798)]",[],[1],[],horizontal,"(390.0, 262.0)",1.7,nan,1,2137.463,3,0.0,same
0,364,invalid_same_bar,"[(1171, 783)]",[],[1],[0.5166666666666666],vertical,"(390.0, 262.0)",0.85,0.483,1,2143.6,3,0.0,same
0,365,catch,"[(1172, 789)]",[],[1],[],horizontal,"(390.0, 262.0)",1.7,nan,1,2148.968,3,0.0,same
0,366,valid,"[(1170, 776)]",[],[1],[0.48333333333333334],horizontal,"(390.0, 762.0)",1.2166666666666666,0.447,1,2155.179,3,0.0,same
0,367,valid,"[(1172, 784)]",[],[1],[0.5666666666666667],vertical,"(890.0, 762.0)",1.2833333333333332,0.525,1,2161.536,3,0.0,same
0,368,valid,"[(1176, 794)]",[],[1],[0.5666666666666667],horizontal,"(890.0, 762.0)",0.6833333333333333,0.519,1,2167.753,3,0.0,same
0,369,valid,"[(1195, 790)]",[],[1],[0.5833333333333334],horizontal,"(890.0, 762.0)",0.8,0.541,1,2173.335,3,0.0,same
0,370,valid,"[(1160, 772)]",[],[1],[0.5666666666666667],horizontal,"(390.0, 762.0)",1.4333333333333333,0.525,1,2178.683,3,0.0,same
0,371,valid,"[(1170, 787)]",[],[1],[0.5],horizontal,"(890.0, 262.0)",0.5666666666666667,0.456,1,2184.602,3,0.0,same
0,372,catch,"[(1158, 779)]",[],[1],[],horizontal,"(390.0, 762.0)",1.7,nan,1,2190.039,3,0.0,same
0,373,catch,"[(1174, 791)]",[],[1],[],horizontal,"(390.0, 762.0)",1.7,nan,1,2196.058,3,0.0,same
0,374,catch,"[(1164, 779)]",[],[1],[],vertical,"(390.0, 762.0)",1.7,nan,1,2202.148,3,0.0,same
0,375,invalid_adjacent_other_bar,"[(1167, 799)]",[],[1],[0.7333333333333333],vertical,"(390.0, 762.0)",1.0333333333333332,0.691,1,2208.469,3,0.0,other
0,376,valid,"[(1171, 800)]",[],[1],[0.5666666666666667],horizontal,"(390.0, 262.0)",0.6666666666666666,0.522,1,2214.252,3,0.0,same
0,377,valid,"[(1171, 784)]",[],[1],[0.6166666666666667],vertical,"(390.0, 762.0)",0.3833333333333333,0.575,1,2220.057,3,0.0,same
0,378,valid,"[(1180, 813)]",[],[1],[0.6166666666666667],horizontal,"(390.0, 262.0)",0.85,0.572,1,2225.38,3,0.0,same
0,379,valid,"[(1171, 779)]",[],[1],[0.6833333333333333],vertical,"(390.0, 262.0)",0.8833333333333333,0.639,1,2230.835,3,0.0,same
0,380,catch,"[(1166, 790)]",[],[1],[],horizontal,"(390.0, 762.0)",1.7,nan,1,2236.626,3,0.0,same
0,381,invalid_same_bar,"[(1176, 783)]",[],[1],[0.55],horizontal,"(890.0, 762.0)",0.8666666666666667,0.505,1,2243.003,3,0.0,same
0,382,valid,"[(1159, 780)]",[],[1],[0.65],vertical,"(390.0, 262.0)",0.7333333333333333,0.609,1,2248.834,3,0.0,same
0,383,valid,"[(1172, 789)]",[],[1],[0.85],horizontal,"(390.0, 762.0)",0.7833333333333333,nan,0,2254.629,0,0.0,same
0,384,valid,"[(1154, 791)]",[],[1],[0.6833333333333333],horizontal,"(390.0, 262.0)",0.9166666666666666,0.646,1,2258.715,1,0.0,same
0,385,valid,"[(1173, 785)]",[],[1],[0.48333333333333334],vertical,"(390.0, 762.0)",1.5166666666666666,0.44,1,2263.435,1,0.0,same
0,386,valid,"[(1160, 787)]",[],[1],[0.7],horizontal,"(890.0, 762.0)",1.0666666666666667,0.655,1,2269.19,1,0.0,same
0,387,catch,"[(1159, 780)]",[],[1],[],vertical,"(890.0, 762.0)",1.7,nan,1,2274.569,2,0.0,same
0,388,catch,"[(1156, 787)]",[],[1],[],vertical,"(390.0, 762.0)",1.7,nan,1,2280.302,2,0.0,same
0,389,valid,"[(1172, 792)]",[],[1],[0.6333333333333333],horizontal,"(390.0, 262.0)",1.3,0.592,1,2286.085,2,0.0,same
0,390,valid,"[(1171, 796)]",[],[1],[0.43333333333333335],vertical,"(390.0, 262.0)",1.3333333333333333,0.392,1,2292.019,3,0.0,same
0,391,catch,"[(1161, 794)]",[],[1],[],vertical,"(890.0, 762.0)",1.7,nan,1,2298.385,3,0.0,same
0,392,valid,"[(1170, 792)]",[],[1],[0.7],vertical,"(390.0, 762.0)",0.8166666666666667,0.659,1,2304.115,3,0.0,same
0,393,invalid_adjacent_other_bar,"[(1155, 782)]",[],[1],[0.5666666666666667],horizontal,"(390.0, 762.0)",1.35,0.526,1,2309.876,3,0.0,other
0,394,catch,"[(1166, 777)]",[],[1],[],vertical,"(390.0, 762.0)",1.7,nan,1,2316.019,3,0.0,same
0,395,valid,"[(1174, 791)]",[],[1],[0.5833333333333334],vertical,"(390.0, 262.0)",1.3166666666666667,0.539,1,2321.813,3,0.0,same
0,396,catch,"[(1160, 794)]",[],[1],[],horizontal,"(390.0, 262.0)",1.7,nan,1,2328.003,3,0.0,same
0,397,valid,"[(1171, 791)]",[],[1],[0.85],horizontal,"(390.0, 262.0)",1.2,nan,0,2334.227,0,0.0,same
0,398,valid,"[(1160, 791)]",[],[1],[0.5333333333333333],vertical,"(390.0, 762.0)",1.05,0.486,1,2339.5,1,0.0,same
0,399,valid,"[(1171, 782)]",[],[1],[0.85],horizontal,"(890.0, 762.0)",1.3666666666666667,nan,0,2344.748,0,0.0,same
0,400,catch,"[(1138, 813)]",[],[1],[],horizontal,"(390.0, 762.0)",1.7,"('cti', 1.683),nan",0,2349.543,0,0.02,same
0,401,catch,"[(1134, 798)]",[],[1],[],vertical,"(390.0, 262.0)",,"('cti', 1.327),nan",0,2354.52,0,0.04,same
0,402,catch,"[(1156, 818)]",[],[1],[],vertical,"(890.0, 262.0)",1.7,nan,1,2358.774,1,0.04,same
0,403,valid,"[(1166, 788)]",[],[1],[0.5833333333333334],vertical,"(890.0, 262.0)",1.1,0.548,1,2363.967,1,0.04,same
0,404,valid,"[(1159, 792)]",[],[1],[0.55],horizontal,"(390.0, 262.0)",0.5,0.519,1,2369.113,1,0.04,same
0,405,valid,"[(1160, 808)]",[],[1],[0.7166666666666667],horizontal,"(390.0, 762.0)",0.9166666666666666,0.673,1,2373.619,2,0.04,same
0,406,catch,"[(1172, 799)]",[],[1],[],horizontal,"(390.0, 262.0)",1.7,nan,1,2379.406,2,0.04,same
0,407,valid,"[(1175, 779)]",[],[1],[0.7],horizontal,"(390.0, 762.0)",1.0833333333333333,0.655,1,2384.717,2,0.04,same
0,408,valid,"[(1158, 803)]",[],[1],[0.85],horizontal,"(390.0, 762.0)",0.35,nan,0,2390.469,0,0.04,same
0,409,catch,"[(1138, 785)]",[],[1],[],horizontal,"(390.0, 262.0)",1.7,nan,1,2394.303,1,0.04,same
0,410,valid,"[(1170, 801)]",[],[1],[0.5666666666666667],vertical,"(390.0, 262.0)",0.5666666666666667,0.524,1,2399.585,1,0.04,same
0,411,catch,"[(1159, 817)]",[],[1],[],vertical,"(890.0, 762.0)",1.7,nan,1,2404.427,1,0.04,same
0,412,catch,"[(1171, 796)]",[],[1],[],horizontal,"(890.0, 762.0)",1.7,nan,1,2409.509,2,0.04,same
0,413,valid,"[(1164, 796)]",[],[1],[0.5],horizontal,"(390.0, 762.0)",0.6333333333333333,0.463,1,2414.829,2,0.04,same
0,414,valid,"[(1169, 802)]",[],[1],[0.5166666666666666],horizontal,"(390.0, 762.0)",0.9333333333333333,0.477,1,2420.059,2,0.04,same
0,415,valid,"[(1189, 802)]",[],[1],[0.6],vertical,"(890.0, 762.0)",0.48333333333333334,0.553,1,2425.197,3,0.04,same
0,416,valid,"[(1179, 805)]",[],[1],[0.85],horizontal,"(390.0, 262.0)",1.5,nan,0,2430.763,0,0.04,same
0,417,valid,"[(1159, 815)]",[],[1],[0.31666666666666665],vertical,"(390.0, 762.0)",1.3833333333333333,0.277,1,2436.022,1,0.04,same
0,418,valid,"[(1171, 792)]",[],[1],[0.5833333333333334],vertical,"(390.0, 262.0)",1.3666666666666667,0.538,1,2441.379,1,0.04,same
0,419,valid,"[(1170, 813)]",[],[1],[0.7833333333333333],vertical,"(390.0, 262.0)",1.0833333333333333,0.734,1,2446.353,1,0.04,same
0,420,valid,"[(1172, 767)]",[],[1],[0.6166666666666667],horizontal,"(890.0, 762.0)",0.45,0.571,1,2452.004,2,0.04,same
0,421,valid,"[(1171, 814)]",[],[1],[0.6],horizontal,"(890.0, 262.0)",1.1666666666666667,0.568,1,2457.136,2,0.04,same
0,422,catch,"[(1175, 782)]",[],[1],[],vertical,"(390.0, 262.0)",1.7,nan,1,2462.489,2,0.04,same
0,423,valid,"[(1166, 770)]",[],[1],[0.55],horizontal,"(390.0, 262.0)",0.6166666666666667,0.513,1,2468.158,3,0.04,same
0,424,valid,"[(1175, 781)]",[],[1],[0.7666666666666666],horizontal,"(890.0, 762.0)",0.95,0.725,1,2473.536,3,0.04,same
0,425,valid,"[(1171, 779)]",[],[1],[0.55],vertical,"(890.0, 262.0)",1.35,0.507,1,2479.726,3,0.04,same
0,426,valid,"[(1161, 786)]",[],[1],[0.55],vertical,"(890.0, 262.0)",1.3666666666666667,0.51,1,2485.769,3,0.04,same
0,427,valid,"[(1176, 792)]",[],[1],[0.5666666666666667],horizontal,"(390.0, 762.0)",0.8166666666666667,0.523,1,2492.383,3,0.04,same
0,428,valid,"[(1162, 776)]",[],[1],[0.85],vertical,"(890.0, 762.0)",1.1,nan,0,2497.816,0,0.04,same
0,429,invalid_adjacent_other_bar,"[(1165, 813)]",[],[1],[0.5833333333333334],vertical,"(890.0, 762.0)",0.9,0.538,1,2502.873,1,0.04,other
0,430,valid,"[(1170, 813)]",[],[1],[0.4166666666666667],horizontal,"(890.0, 762.0)",1.4166666666666667,0.379,1,2508.148,1,0.04,same
0,431,valid,"[(1155, 795)]",[],[1],[],horizontal,"(390.0, 262.0)",,"('cti', 1.323)",0,2513.891,0,0.04,same
0,432,catch,"[(1111, 823)]",[],[1],[],horizontal,"(890.0, 762.0)",1.7,nan,1,2518.271,1,0.04,same
0,433,valid,"[(1157, 820)]",[],[1],[0.55],vertical,"(890.0, 262.0)",1.4,0.512,1,2551.916,1,0.04,same
0,434,valid,"[(1112, 815)]",[],[1],[0.6166666666666667],vertical,"(890.0, 762.0)",0.5,0.574,1,2557.697,1,0.04,same
0,435,valid,"[(1158, 791)]",[],[1],[0.45],horizontal,"(390.0, 262.0)",1.5,0.411,1,2562.486,2,0.04,same
0,436,valid,"[(1166, 798)]",[],[1],[0.6166666666666667],horizontal,"(390.0, 762.0)",0.4666666666666667,0.571,1,2568.67,2,0.04,same
0,437,valid,"[(1160, 791)]",[],[1],[0.7833333333333333],horizontal,"(890.0, 262.0)",1.0166666666666666,0.737,1,2573.97,2,0.04,same
0,438,valid,"[(1170, 794)]",[],[1],[0.5166666666666666],vertical,"(890.0, 262.0)",0.9166666666666666,0.473,1,2580.025,3,0.04,same
0,439,valid,"[(1161, 796)]",[],[1],[0.5333333333333333],vertical,"(390.0, 762.0)",0.9833333333333333,0.49,1,2585.274,3,0.04,same
0,440,valid,"[(1169, 783)]",[],[1],[0.85],vertical,"(390.0, 762.0)",1.1333333333333333,nan,0,2590.686,0,0.04,same
0,441,valid,"[(1162, 813)]",[],[1],[0.6166666666666667],horizontal,"(890.0, 762.0)",0.65,0.581,1,2595.737,1,0.04,same
0,442,valid,"[(1160, 806)]",[],[1],[0.6333333333333333],horizontal,"(390.0, 762.0)",1.3,0.593,1,2600.654,1,0.04,same
0,443,catch,"[(1162, 782)]",[],[1],[],vertical,"(890.0, 262.0)",1.7,nan,1,2606.003,1,0.04,same
0,444,valid,"[(1172, 798)]",[],[1],[0.6],vertical,"(390.0, 762.0)",1.4833333333333334,0.555,1,2611.311,2,0.04,same
0,445,catch,"[(1161, 818)]",[],[1],[],horizontal,"(890.0, 262.0)",1.7,nan,1,2617.348,2,0.04,same
0,446,valid,"[(1162, 800)]",[],[1],[0.6666666666666666],vertical,"(390.0, 762.0)",0.5833333333333334,0.622,1,2623.288,2,0.04,same
0,447,valid,"[(1164, 785)]",[],[1],[0.5833333333333334],horizontal,"(890.0, 262.0)",0.5,0.544,1,2628.487,3,0.04,same
0,448,valid,"[(1163, 799)]",[],[1],[0.7833333333333333],horizontal,"(890.0, 762.0)",0.95,0.74,1,2633.887,3,0.04,same
0,449,valid,"[(1174, 799)]",[],[1],[0.55],vertical,"(390.0, 762.0)",0.45,0.504,1,2640.369,3,0.04,same
0,450,valid,"[(1176, 790)]",[],[1],[0.36666666666666664],vertical,"(390.0, 262.0)",0.9666666666666667,0.329,1,2645.303,3,0.02,same
0,451,valid,"[(1160, 789)]",[],[1],[0.5333333333333333],horizontal,"(390.0, 262.0)",0.4666666666666667,0.488,1,2650.72,3,0.0,same
0,452,valid,"[(1159, 783)]",[],[1],[0.6],vertical,"(390.0, 762.0)",1.3166666666666667,0.563,1,2655.704,3,0.0,same
0,453,catch,"[(1165, 786)]",[],[1],[],vertical,"(890.0, 762.0)",1.7,nan,1,2661.738,3,0.0,same
0,454,catch,"[(1160, 790)]",[],[1],[],horizontal,"(390.0, 762.0)",1.7,nan,1,2667.588,3,0.0,same
0,455,valid,"[(1172, 802)]",[],[1],[0.6],vertical,"(390.0, 262.0)",1.2333333333333334,0.56,1,2673.396,3,0.0,same
0,456,valid,"[(1166, 796)]",[],[1],[0.6833333333333333],vertical,"(890.0, 262.0)",1.2666666666666666,0.643,1,2679.615,3,0.0,same
0,457,catch,"[(1165, 789)]",[],[1],[],horizontal,"(390.0, 762.0)",1.7,nan,1,2685.543,3,0.0,same
0,458,valid,"[(1186, 789)]",[],[1],[0.7],vertical,"(390.0, 262.0)",1.1166666666666667,0.652,1,2691.714,3,0.0,same
0,459,valid,"[(1170, 776)]",[],[1],[0.55],vertical,"(890.0, 262.0)",1.4,0.51,1,2697.429,3,0.0,same
0,460,valid,"[(1167, 786)]",[],[1],[0.55],vertical,"(390.0, 762.0)",0.8166666666666667,0.505,1,2703.352,3,0.0,same
0,461,valid,"[(1160, 781)]",[],[1],[0.55],horizontal,"(890.0, 262.0)",0.45,0.508,1,2708.663,3,0.0,same
0,462,valid,"[(1166, 789)]",[],[1],[0.85],horizontal,"(890.0, 762.0)",0.4666666666666667,nan,0,2713.97,0,0.0,same
0,463,valid,"[(1139, 808)]",[],[1],[0.5666666666666667],vertical,"(390.0, 762.0)",0.95,0.526,1,2718.052,1,0.0,same
0,464,valid,"[(1172, 783)]",[],[1],[0.5666666666666667],vertical,"(890.0, 262.0)",1.3666666666666667,0.531,1,2723.582,1,0.0,same
0,465,invalid_adjacent_other_bar,"[(1148, 779)]",[],[1],[0.5833333333333334],horizontal,"(890.0, 262.0)",1.2333333333333334,0.54,1,2728.788,1,0.0,other
0,466,catch,"[(1160, 795)]",[],[1],[],horizontal,"(390.0, 762.0)",1.7,nan,1,2734.327,2,0.0,same
0,467,valid,"[(1170, 782)]",[],[1],[0.5333333333333333],horizontal,"(890.0, 262.0)",1.3,0.497,1,2740.023,2,0.0,same
0,468,valid,"[(1175, 774)]",[],[1],[0.8],vertical,"(890.0, 262.0)",1.15,0.758,1,2746.137,2,0.0,same
0,469,valid,"[(1161, 783)]",[],[1],[0.48333333333333334],vertical,"(890.0, 262.0)",1.25,0.446,1,2752.237,3,0.0,same
0,470,valid,"[(1162, 780)]",[],[1],[0.6],horizontal,"(890.0, 762.0)",0.5333333333333333,0.557,1,2758.245,3,0.0,same
0,471,catch,"[(1162, 797)]",[],[1],[],vertical,"(890.0, 762.0)",1.7,nan,1,2763.587,3,0.0,same
0,472,valid,"[(1170, 775)]",[],[1],[0.5166666666666666],vertical,"(890.0, 262.0)",0.9333333333333333,0.478,1,2769.746,3,0.0,same
0,473,catch,"[(1161, 780)]",[],[1],[],horizontal,"(390.0, 262.0)",1.7,nan,1,2775.404,3,0.0,same
0,474,valid,"[(1151, 790)]",[],[1],[0.5833333333333334],horizontal,"(390.0, 762.0)",0.9,0.542,1,2781.536,3,0.0,same
0,475,valid,"[(1158, 784)]",[],[1],[0.5166666666666666],vertical,"(890.0, 262.0)",0.35,0.475,1,2787.63,3,0.0,same
0,476,valid,"[(1157, 793)]",[],[1],[0.6166666666666667],vertical,"(890.0, 762.0)",1.3666666666666667,0.578,1,2792.514,3,0.0,same
0,477,valid,"[(1166, 794)]",[],[1],[0.7],vertical,"(390.0, 762.0)",1.3,0.674,1,2798.689,3,0.0,same
0,478,valid,"[(1154, 779)]",[],[1],[0.5833333333333334],vertical,"(390.0, 762.0)",0.6833333333333333,0.538,1,2804.704,3,0.0,same
0,479,catch,"[(1159, 803)]",[],[1],[],horizontal,"(890.0, 762.0)",1.7,nan,1,2810.371,3,0.0,same
0,480,catch,"[(1151, 791)]",[],[1],[],horizontal,"(390.0, 762.0)",,"('cti', 1.684),nan",0,2816.454,0,0.02,same
0,481,valid,"[(1131, 795)]",[],[1],[0.6],vertical,"(390.0, 262.0)",0.8666666666666667,0.556,1,2821.288,1,0.02,same
0,482,invalid_same_bar,"[(1159, 787)]",[],[1],[0.85],horizontal,"(890.0, 262.0)",0.4166666666666667,nan,0,2826.171,0,0.02,same
0,483,valid,"[(1141, 794)]",[],[1],[0.55],vertical,"(390.0, 262.0)",1.3166666666666667,0.514,1,2830.521,1,0.02,same
0,484,valid,"[(1175, 791)]",[],[1],[0.5833333333333334],horizontal,"(390.0, 262.0)",0.5833333333333334,0.54,1,2836.024,1,0.02,same
0,485,valid,"[(1163, 803)]",[],[1],[0.75],vertical,"(390.0, 262.0)",0.4166666666666667,0.708,1,2841.072,1,0.02,same
0,486,catch,"[(1156, 771)]",[],[1],[],vertical,"(390.0, 762.0)",1.7,nan,1,2845.871,2,0.02,same
0,487,valid,"[(1166, 783)]",[],[1],[0.5333333333333333],vertical,"(390.0, 762.0)",0.7833333333333333,0.497,1,2851.404,2,0.02,same
0,488,catch,"[(1161, 800)]",[],[1],[],vertical,"(390.0, 762.0)",1.7,nan,1,2856.409,2,0.02,same
0,489,valid,"[(1160, 796)]",[],[1],[0.6833333333333333],vertical,"(390.0, 762.0)",0.85,0.638,1,2862.036,3,0.02,same
0,490,valid,"[(1163, 776)]",[],[1],[0.7333333333333333],horizontal,"(890.0, 762.0)",1.1,0.691,1,2867.714,3,0.02,same
0,491,valid,"[(1200, 803)]",[],[1],[0.5666666666666667],horizontal,"(390.0, 262.0)",0.5833333333333334,0.526,1,2873.791,3,0.02,same
0,492,valid,"[(1155, 803)]",[],[1],[0.65],vertical,"(890.0, 762.0)",0.7,0.605,1,2879.489,3,0.02,same
0,493,valid,"[(1175, 803)]",[],[1],[0.6666666666666666],vertical,"(890.0, 262.0)",0.8166666666666667,0.625,1,2885.005,3,0.02,same
0,494,valid,"[(1156, 774)]",[],[1],[0.85],horizontal,"(390.0, 762.0)",0.9166666666666666,nan,0,2891.021,0,0.02,same
0,495,valid,"[(1155, 795)]",[],[1],[0.55],horizontal,"(890.0, 762.0)",1.3333333333333333,0.519,1,2895.437,1,0.02,same
0,496,valid,"[(1156, 799)]",[],[1],[0.7],horizontal,"(890.0, 762.0)",0.9666666666666667,0.654,1,2900.639,1,0.02,same
0,497,valid,"[(1160, 779)]",[],[1],[0.85],vertical,"(890.0, 262.0)",1.3666666666666667,nan,0,2905.938,0,0.02,same
0,498,valid,"[(1143, 808)]",[],[1],[0.21666666666666667],horizontal,"(390.0, 262.0)",1.45,0.18,0,2911.054,0,0.02,same
0,499,valid,"[(1157, 815)]",[],[1],[0.55],vertical,"(390.0, 762.0)",1.0333333333333332,0.506,1,2915.981,1,0.02,same
0,500,valid,"[(1170, 781)]",[],[1],[0.65],vertical,"(390.0, 762.0)",0.5,0.608,1,2920.982,1,0.02,same
0,501,valid,"[(1171, 793)]",[],[1],[0.7833333333333333],vertical,"(890.0, 262.0)",0.5333333333333333,0.754,1,2925.444,1,0.02,same
0,502,valid,"[(1155, 773)]",[],[1],[0.85],horizontal,"(890.0, 762.0)",0.8666666666666667,nan,0,2930.055,0,0.02,same
0,503,valid,"[(1160, 791)]",[],[1],[0.5833333333333334],horizontal,"(390.0, 762.0)",1.3166666666666667,0.551,1,2934.621,1,0.02,same
0,504,catch,"[(1163, 779)]",[],[1],[],vertical,"(890.0, 262.0)",1.7,nan,1,2940.381,1,0.02,same
0,505,valid,"[(1177, 799)]",[],[1],[0.85],vertical,"(390.0, 762.0)",0.48333333333333334,nan,0,2945.993,0,0.02,same
0,506,valid,"[(1127, 794)]",[],[1],[0.85],horizontal,"(390.0, 262.0)",0.65,nan,0,2950.122,0,0.02,same
0,507,catch,"[(1158, 794)]",[],[1],[],vertical,"(890.0, 262.0)",1.7,nan,1,2954.538,1,0.02,same
0,508,valid,"[(1155, 792)]",[],[1],[0.6],vertical,"(890.0, 762.0)",1.4,0.56,1,2959.796,1,0.02,same
0,509,valid,"[(1160, 793)]",[],[1],[0.85],vertical,"(390.0, 262.0)",0.8833333333333333,nan,0,2965.566,0,0.02,same
0,510,valid,"[(1155, 791)]",[],[1],[],vertical,"(890.0, 262.0)",,"('cti', 1.197)",0,2970.354,0,0.02,same
0,511,valid,"[(1131, 813)]",[],[1],[0.5],vertical,"(390.0, 262.0)",1.1333333333333333,0.464,1,2974.688,1,0.02,same
0,512,invalid_adjacent_other_bar,"[(1155, 779)]",[],[1],[0.85],horizontal,"(390.0, 262.0)",1.1166666666666667,nan,0,2998.401,0,0.02,other
0,513,catch,"[(1156, 796)]",[],[1],[],vertical,"(890.0, 262.0)",1.7,nan,1,3003.656,1,0.02,same
0,514,valid,"[(1176, 776)]",[],[1],[0.5833333333333334],horizontal,"(890.0, 262.0)",1.3,0.536,1,3008.471,1,0.02,same
0,515,valid,"[(1159, 795)]",[],[1],[0.65],horizontal,"(390.0, 762.0)",0.8333333333333334,0.608,1,3013.475,1,0.02,same
0,516,valid,"[(1170, 797)]",[],[1],[0.7],vertical,"(890.0, 262.0)",1.15,0.657,1,3018.476,2,0.02,same
0,517,valid,"[(1175, 789)]",[],[1],[0.6333333333333333],horizontal,"(390.0, 262.0)",0.75,0.594,1,3024.016,2,0.02,same
0,518,valid,"[(1163, 790)]",[],[1],[0.6666666666666666],vertical,"(890.0, 262.0)",1.4,0.622,1,3029.482,2,0.02,same
0,519,catch,"[(1186, 778)]",[],[1],[],vertical,"(390.0, 262.0)",1.7,nan,1,3035.455,3,0.02,same
0,520,catch,"[(1175, 797)]",[],[1],[],vertical,"(390.0, 262.0)",1.7,nan,1,3041.67,3,0.02,same
0,521,valid,"[(1170, 783)]",[],[1],[0.85],horizontal,"(890.0, 762.0)",0.7833333333333333,nan,0,3048.239,0,0.02,same
0,522,catch,"[(1160, 801)]",[],[1],[],vertical,"(890.0, 262.0)",1.7,nan,1,3052.616,1,0.02,same
0,523,valid,"[(1178, 785)]",[],[1],[0.5],horizontal,"(890.0, 262.0)",0.95,0.461,1,3058.025,1,0.02,same
0,524,valid,"[(1171, 779)]",[],[1],[0.55],horizontal,"(890.0, 262.0)",0.9833333333333333,0.507,1,3062.79,1,0.02,same
0,525,catch,"[(1170, 818)]",[],[1],[],horizontal,"(890.0, 262.0)",1.7,nan,1,3068.023,2,0.02,same
0,526,valid,"[(1195, 805)]",[],[1],[0.6],horizontal,"(390.0, 762.0)",0.75,0.556,1,3073.523,2,0.02,same
0,527,valid,"[(1175, 789)]",[],[1],[0.6333333333333333],vertical,"(390.0, 262.0)",1.4,0.59,1,3078.608,2,0.02,same
0,528,valid,"[(1174, 788)]",[],[1],[0.5333333333333333],horizontal,"(390.0, 262.0)",0.6,0.496,1,3084.955,3,0.02,same
0,529,valid,"[(1165, 776)]",[],[1],[0.6166666666666667],horizontal,"(390.0, 762.0)",0.8,0.576,1,3090.473,3,0.02,same
0,530,valid,"[(1161, 799)]",[],[1],[0.6],horizontal,"(390.0, 762.0)",0.7,0.56,1,3096.438,3,0.0,same
0,531,valid,"[(1174, 794)]",[],[1],[0.6166666666666667],vertical,"(890.0, 762.0)",0.7,0.579,1,3101.943,3,0.0,same
0,532,catch,"[(1155, 781)]",[],[1],[],vertical,"(390.0, 762.0)",1.7,nan,1,3107.738,3,0.0,same
0,533,valid,"[(1160, 782)]",[],[1],[0.6166666666666667],vertical,"(390.0, 262.0)",1.0333333333333332,0.572,1,3113.989,3,0.0,same
0,534,valid,"[(1174, 779)]",[],[1],[0.6333333333333333],horizontal,"(890.0, 262.0)",1.5333333333333332,0.592,1,3120.27,3,0.0,same
0,535,catch,"[(1187, 778)]",[],[1],[],vertical,"(890.0, 262.0)",1.7,nan,1,3126.656,3,0.0,same
0,536,valid,"[(1174, 781)]",[],[1],[0.8],vertical,"(890.0, 762.0)",1.2833333333333332,0.755,1,3132.405,3,0.0,same
0,537,valid,"[(1173, 807)]",[],[1],[0.6833333333333333],horizontal,"(890.0, 762.0)",1.2666666666666666,0.643,1,3139.029,3,0.0,same
0,538,valid,"[(1172, 789)]",[],[1],[0.55],horizontal,"(390.0, 762.0)",1.0166666666666666,0.506,1,3145.231,3,0.0,same
0,539,catch,"[(1160, 792)]",[],[1],[],horizontal,"(890.0, 262.0)",1.7,nan,1,3150.914,3,0.0,same
0,540,valid,"[(1170, 789)]",[],[1],[0.65],horizontal,"(890.0, 262.0)",0.8333333333333334,0.607,1,3156.855,3,0.0,same
0,541,valid,"[(1171, 781)]",[],[1],[0.5666666666666667],vertical,"(890.0, 262.0)",0.75,0.526,1,3162.405,3,0.0,same
0,542,valid,"[(1171, 783)]",[],[1],[0.5833333333333334],vertical,"(390.0, 762.0)",0.6,0.539,1,3168.072,3,0.0,same
0,543,valid,"[(1151, 779)]",[],[1],[0.75],horizontal,"(890.0, 762.0)",0.5,0.708,1,3173.306,3,0.0,same
0,544,valid,"[(1173, 790)]",[],[1],[0.5166666666666666],horizontal,"(390.0, 262.0)",0.95,0.472,1,3178.998,3,0.0,same
0,545,invalid_same_bar,"[(1169, 773)]",[],[1],[0.6833333333333333],horizontal,"(890.0, 762.0)",0.75,0.643,1,3184.757,3,0.0,same
0,546,catch,"[(1164, 784)]",[],[1],[],vertical,"(390.0, 262.0)",1.7,nan,1,3190.379,3,0.0,same
0,547,invalid_adjacent_other_bar,"[(1157, 804)]",[],[1],[0.6666666666666666],vertical,"(890.0, 262.0)",0.7166666666666667,0.623,1,3196.473,3,0.0,other
0,548,catch,"[(1177, 792)]",[],[1],[],vertical,"(390.0, 762.0)",1.7,nan,1,3202.381,3,0.0,same
0,549,catch,"[(1160, 778)]",[],[1],[],horizontal,"(890.0, 762.0)",1.7,nan,1,3208.039,3,0.0,same
0,550,catch,"[(1166, 800)]",[],[1],[],vertical,"(890.0, 262.0)",1.7,nan,1,3214.393,3,0.0,same
0,551,valid,"[(1171, 794)]",[],[1],[0.6166666666666667],horizontal,"(390.0, 762.0)",1.0166666666666666,0.578,1,3220.19,3,0.0,same
0,552,catch,"[(1175, 813)]",[],[1],[],vertical,"(890.0, 262.0)",1.7,nan,1,3225.723,3,0.0,same
0,553,valid,"[(1175, 787)]",[],[1],[0.5833333333333334],vertical,"(890.0, 262.0)",0.65,0.552,1,3231.387,3,0.0,same
0,554,catch,"[(1175, 791)]",[],[1],[],vertical,"(390.0, 762.0)",,"('cti', 1.426),nan",0,3237.024,0,0.02,same
0,555,valid,"[(1148, 825)]",[],[1],[0.48333333333333334],horizontal,"(390.0, 762.0)",1.4666666666666666,0.441,1,3241.985,1,0.02,same
0,556,valid,"[(1152, 823)]",[],[1],[0.5666666666666667],vertical,"(890.0, 762.0)",1.0333333333333332,0.523,1,3355.429,1,0.02,same
0,557,valid,"[(1192, 808)]",[],[1],[0.55],horizontal,"(890.0, 762.0)",1.3666666666666667,0.506,1,3360.791,1,0.02,same
0,558,valid,"[(1188, 798)]",[],[1],[0.65],vertical,"(890.0, 762.0)",0.6,0.607,1,3366.291,2,0.02,same
0,559,valid,"[(1161, 816)]",[],[1],[0.85],horizontal,"(890.0, 262.0)",0.7,nan,0,3371.522,0,0.02,same
0,560,valid,"[(1159, 822)]",[],[1],[0.85],vertical,"(890.0, 262.0)",0.85,nan,0,6378.415,0,0.02,same
0,561,valid,"[(1155, 823)]",[],[1],[0.85],horizontal,"(390.0, 762.0)",0.6833333333333333,nan,0,6383.85,0,0.02,same
0,562,catch,"[(1160, 817)]",[],[1],[],vertical,"(890.0, 262.0)",1.7,nan,1,6388.7,1,0.02,same
0,563,valid,"[(1160, 791)]",[],[1],[0.6166666666666667],vertical,"(390.0, 262.0)",0.8666666666666667,0.576,1,6394.051,1,0.02,same
0,564,valid,"[(1174, 812)]",[],[1],[0.5166666666666666],vertical,"(390.0, 762.0)",0.3833333333333333,0.491,1,6399.002,1,0.02,same
0,565,valid,"[(1172, 790)]",[],[1],[0.55],vertical,"(390.0, 262.0)",0.9666666666666667,0.507,1,6403.716,2,0.02,same
0,566,catch,"[(1162, 787)]",[],[1],[],horizontal,"(390.0, 762.0)",1.7,nan,1,6409.583,2,0.02,same
0,567,valid,"[(1168, 780)]",[],[1],[0.85],vertical,"(890.0, 262.0)",0.95,nan,0,6415.967,0,0.02,same
0,568,valid,"[(1161, 786)]",[],[1],[0.85],horizontal,"(890.0, 262.0)",0.9666666666666667,nan,0,6420.743,0,0.02,same
0,569,catch,"[(1111, 799)]",[],[1],[],horizontal,"(890.0, 762.0)",1.7,nan,1,6426.934,1,0.02,same
0,570,valid,"[(1162, 788)]",[],[1],[0.7833333333333333],vertical,"(390.0, 262.0)",0.9333333333333333,0.738,1,6432.586,1,0.02,same
0,571,valid,"[(1116, 803)]",[],[1],[0.6333333333333333],vertical,"(890.0, 262.0)",0.4,0.588,1,6439.231,1,0.02,same
0,572,valid,"[(1163, 799)]",[],[1],[0.85],horizontal,"(390.0, 762.0)",0.5833333333333334,nan,0,6445.15,0,0.02,same
0,573,valid,"[(1152, 782)]",[],[1],[0.6333333333333333],vertical,"(890.0, 762.0)",1.4166666666666667,0.588,1,6450.234,1,0.02,same
0,574,valid,"[(1146, 811)]",[],[1],[0.85],horizontal,"(890.0, 262.0)",1.55,nan,0,6456.283,0,0.02,same
0,575,valid,"[(1091, 818)]",[],[1],[0.7],horizontal,"(890.0, 762.0)",0.7666666666666666,0.656,1,6461.799,1,0.02,same
0,576,catch,"[(1155, 796)]",[],[1],[],vertical,"(890.0, 262.0)",1.7,"('cti', 1.674),nan",0,6471.216,0,0.04,same
0,577,valid,"[(1136, 792)]",[],[1],[0.6166666666666667],horizontal,"(890.0, 262.0)",0.8166666666666667,0.575,1,6476.088,1,0.04,same
0,578,valid,"[(1170, 795)]",[],[1],[0.5666666666666667],horizontal,"(890.0, 762.0)",1.4833333333333334,0.524,1,6481.194,1,0.04,same
0,579,valid,"[(1130, 791)]",[],[1],[0.5166666666666666],horizontal,"(390.0, 262.0)",1.5333333333333332,0.471,1,6486.454,1,0.04,same
0,580,valid,"[(1136, 784)]",[],[1],[0.5333333333333333],horizontal,"(390.0, 262.0)",1.2666666666666666,0.493,1,6492.368,2,0.04,same
0,581,catch,"[(1149, 786)]",[],[1],[],vertical,"(890.0, 262.0)",1.7,nan,1,6498.597,2,0.04,same
0,582,valid,"[(1158, 791)]",[],[1],[0.6],vertical,"(390.0, 262.0)",1.4,0.56,1,6504.227,2,0.04,same
0,583,invalid_adjacent_other_bar,"[(1175, 802)]",[],[1],[0.6333333333333333],vertical,"(390.0, 262.0)",0.75,0.587,1,6510.283,3,0.04,other
0,584,valid,"[(1163, 799)]",[],[1],[0.7333333333333333],horizontal,"(890.0, 262.0)",0.45,0.686,1,6515.982,3,0.04,same
0,585,valid,"[(1160, 808)]",[],[1],[0.55],vertical,"(390.0, 762.0)",1.4166666666666667,0.504,1,6521.207,3,0.04,same
0,586,valid,"[(1171, 804)]",[],[1],[0.8],horizontal,"(390.0, 762.0)",1.4666666666666666,0.749,1,6527.85,3,0.04,same
0,587,catch,"[(1158, 790)]",[],[1],[],vertical,"(890.0, 262.0)",,"('cti', 1.656),nan",0,6534.017,0,0.06,same
0,588,invalid_same_bar,"[(1111, 833)]",[],[1],[0.8333333333333334],horizontal,"(390.0, 762.0)",0.6666666666666666,0.784,1,6538.909,1,0.06,same
0,589,valid,"[(1154, 776)]",[],[1],[],vertical,"(890.0, 262.0)",,"('cti', 1.161)",0,6545.717,0,0.06,same
0,590,valid,"[(1155, 818)]",[],[1],[0.6833333333333333],horizontal,"(390.0, 262.0)",1.2666666666666666,0.638,1,6550.083,1,0.06,same
0,591,valid,"[(1183, 786)]","[(1162, 836)]",[1],[0.08333333333333333],vertical,"(890.0, 262.0)",,"('bar', 0.101)",0,6555.35,0,0.06,same
0,592,valid,"[(1164, 818)]",[],[1],[0.65],vertical,"(390.0, 762.0)",1.0333333333333332,0.606,1,6557.718,1,0.06,same
0,593,valid,"[(1170, 790)]",[],[1],[0.5666666666666667],horizontal,"(890.0, 762.0)",1.2833333333333332,0.523,1,6562.592,1,0.06,same
0,594,valid,"[(1160, 788)]",[],[1],[0.6333333333333333],vertical,"(890.0, 762.0)",1.25,0.589,1,6568.284,1,0.06,same
0,595,catch,"[(1156, 784)]",[],[1],[],vertical,"(890.0, 762.0)",1.7,nan,1,6573.829,2,0.06,same
0,596,valid,"[(1158, 778)]",[],[1],[0.8333333333333334],horizontal,"(890.0, 762.0)",0.5333333333333333,0.794,1,6579.823,2,0.06,same
0,597,valid,"[(1177, 793)]",[],[1],[0.6666666666666666],horizontal,"(390.0, 262.0)",0.8333333333333334,0.624,1,6585.334,2,0.06,same
0,598,valid,"[(1175, 779)]",[],[1],[0.6666666666666666],horizontal,"(890.0, 262.0)",1.1166666666666667,0.62,1,6590.558,3,0.06,same
0,599,valid,"[(1180, 786)]",[],[1],[0.55],vertical,"(390.0, 262.0)",0.4666666666666667,0.506,1,6596.817,3,0.06,same
0,600,catch,"[(1171, 792)]",[],[1],[],vertical,"(890.0, 262.0)",1.7,nan,1,6601.751,3,0.06,same
0,601,catch,"[(1160, 788)]",[],[1],[],vertical,"(390.0, 762.0)",1.7,nan,1,6607.7,3,0.06,same
0,602,valid,"[(1177, 793)]",[],[1],[0.6333333333333333],vertical,"(390.0, 262.0)",0.45,0.591,1,6614.017,3,0.06,same
0,603,valid,"[(1177, 789)]",[],[1],[],vertical,"(390.0, 762.0)",,"('fix', 0.483)",0,6619.745,0,0.06,same
0,604,valid,"[(1136, 847)]",[],[1],[0.6666666666666666],horizontal,"(890.0, 762.0)",0.6333333333333333,0.623,1,6621.883,1,0.04,same
0,605,valid,"[(1175, 809)]","[(1090, 888)]",[1],[0.3],horizontal,"(890.0, 762.0)",,"('bar', 0.311)",0,6627.214,0,0.04,same
0,606,valid,"[(1116, 835)]",[],[1],[0.6166666666666667],horizontal,"(890.0, 762.0)",1.3166666666666667,0.575,1,6630.133,1,0.04,same
0,607,valid,"[(1151, 820)]",[],[1],[0.55],horizontal,"(390.0, 262.0)",0.65,0.505,1,6635.947,1,0.04,same
0,608,valid,"[(1169, 791)]",[],[1],[0.5666666666666667],horizontal,"(390.0, 262.0)",0.5666666666666667,0.526,1,6640.802,1,0.04,same
0,609,valid,"[(1160, 779)]",[],[1],[0.5666666666666667],horizontal,"(890.0, 262.0)",1.5166666666666666,0.522,1,6645.785,2,0.04,same
0,610,valid,"[(1171, 774)]",[],[1],[0.5333333333333333],vertical,"(390.0, 262.0)",1.5,0.496,1,6651.938,2,0.04,same
0,611,valid,"[(1161, 770)]",[],[1],[0.7],vertical,"(890.0, 762.0)",0.5333333333333333,0.653,1,6658.089,2,0.04,same
0,612,invalid_adjacent_other_bar,"[(1169, 804)]",[],[1],[0.5666666666666667],vertical,"(390.0, 262.0)",1.1333333333333333,0.524,1,6663.614,3,0.04,other
0,613,valid,"[(1159, 818)]",[],[1],[0.6333333333333333],horizontal,"(890.0, 762.0)",1.45,0.584,1,6669.696,3,0.04,same
0,614,valid,"[(1166, 804)]",[],[1],[0.5833333333333334],horizontal,"(890.0, 262.0)",0.9833333333333333,0.539,1,6675.509,3,0.04,same
0,615,valid,"[(1170, 805)]",[],[1],[0.85],horizontal,"(390.0, 262.0)",0.43333333333333335,nan,0,6681.493,0,0.04,same
0,616,valid,"[(1173, 798)]",[],[1],[0.5666666666666667],vertical,"(390.0, 262.0)",0.95,0.523,1,6686.218,1,0.04,same
0,617,catch,"[(1170, 786)]",[],[1],[],horizontal,"(390.0, 762.0)",1.7,nan,1,6692.817,1,0.04,same
0,618,catch,"[(1136, 765)]",[],[1],[],horizontal,"(390.0, 262.0)",1.7,nan,1,6698.417,1,0.04,same
0,619,valid,"[(1160, 786)]",[],[1],[0.5166666666666666],horizontal,"(390.0, 262.0)",0.6666666666666666,0.473,1,6704.376,2,0.04,same
0,620,valid,"[(1173, 791)]",[],[1],[0.6],vertical,"(390.0, 262.0)",0.5,0.554,1,6709.416,2,0.04,same
0,621,catch,"[(1163, 778)]",[],[1],[],horizontal,"(890.0, 262.0)",1.7,nan,1,6714.816,2,0.04,same
0,622,valid,"[(1157, 795)]",[],[1],[0.5666666666666667],vertical,"(390.0, 762.0)",1.0166666666666666,0.522,1,6721.035,3,0.04,same
0,623,catch,"[(1159, 795)]",[],[1],[],horizontal,"(390.0, 262.0)",1.7,nan,1,6727.651,3,0.04,same
0,624,catch,"[(1166, 795)]",[],[1],[],vertical,"(390.0, 262.0)",1.7,nan,1,6733.918,3,0.04,same
0,625,valid,"[(1155, 794)]",[],[1],[0.5333333333333333],horizontal,"(890.0, 762.0)",0.4666666666666667,0.494,1,6740.09,3,0.04,same
0,626,valid,"[(1157, 785)]",[],[1],[0.65],vertical,"(390.0, 262.0)",0.6833333333333333,0.601,1,6745.585,3,0.02,same
0,627,catch,"[(1166, 794)]",[],[1],[],horizontal,"(890.0, 262.0)",1.7,nan,1,6751.817,3,0.02,same
0,628,valid,"[(1172, 780)]",[],[1],[0.6833333333333333],horizontal,"(390.0, 262.0)",0.7666666666666666,0.644,1,6757.944,3,0.02,same
0,629,valid,"[(1158, 773)]",[],[1],[0.6],horizontal,"(890.0, 762.0)",0.43333333333333335,0.557,1,6763.484,3,0.02,same
0,630,invalid_adjacent_other_bar,"[(1165, 795)]",[],[1],[0.85],vertical,"(390.0, 762.0)",1.45,nan,0,6769.117,0,0.02,other
0,631,valid,"[(1155, 838)]",[],[1],[0.8333333333333334],horizontal,"(390.0, 762.0)",1.1833333333333333,0.791,1,6774.435,1,0.02,same
0,632,valid,"[(1168, 809)]",[],[1],[0.5166666666666666],horizontal,"(390.0, 762.0)",0.8,0.471,1,6784.738,1,0.02,same
0,633,valid,"[(1165, 793)]",[],[1],[0.7333333333333333],vertical,"(890.0, 762.0)",1.3166666666666667,0.686,1,6790.762,1,0.02,same
0,634,catch,"[(1146, 821)]",[],[1],[],horizontal,"(390.0, 762.0)",1.7,nan,1,6796.974,2,0.02,same
0,635,catch,"[(1159, 822)]",[],[1],[],horizontal,"(890.0, 262.0)",1.7,nan,1,6807.224,2,0.02,same
0,636,valid,"[(1160, 805)]",[],[1],[0.85],vertical,"(890.0, 262.0)",0.43333333333333335,nan,0,6812.762,0,0.02,same
0,637,catch,"[(1160, 798)]",[],[1],[],horizontal,"(890.0, 262.0)",1.7,nan,1,6817.318,1,0.0,same
0,638,invalid_adjacent_other_bar,"[(1142, 804)]",[],[1],[0.55],horizontal,"(890.0, 762.0)",0.3833333333333333,0.508,1,6824.01,1,0.0,other
0,639,valid,"[(1161, 788)]","[(1103, 859)]",[1],[0.08333333333333333],horizontal,"(890.0, 262.0)",,"('bar', 0.099)",0,6829.65,0,0.0,same
0,640,valid,"[(1111, 803)]",[],[1],[0.7166666666666667],horizontal,"(890.0, 262.0)",1.1333333333333333,0.672,1,6832.901,1,0.0,same
0,641,valid,"[(1161, 789)]",[],[1],[0.6166666666666667],vertical,"(390.0, 762.0)",0.9166666666666666,0.574,1,6837.846,1,0.0,same
0,642,valid,"[(1158, 778)]",[],[1],[0.5833333333333334],horizontal,"(390.0, 262.0)",0.3833333333333333,0.54,1,6843.569,1,0.0,same
0,643,invalid_adjacent_other_bar,"[(1160, 799)]",[],[1],[0.65],horizontal,"(390.0, 762.0)",0.6,0.603,1,6848.866,2,0.0,other
0,644,valid,"[(1129, 792)]",[],[1],[0.5666666666666667],vertical,"(890.0, 262.0)",1.5166666666666666,0.522,1,6855.274,2,0.0,same
0,645,valid,"[(1170, 789)]",[],[1],[0.48333333333333334],horizontal,"(890.0, 262.0)",1.3333333333333333,0.441,1,6862.429,2,0.0,same
0,646,valid,"[(1166, 794)]",[],[1],[0.5666666666666667],horizontal,"(390.0, 762.0)",0.6833333333333333,0.523,1,6868.785,3,0.0,same
0,647,valid,"[(1170, 823)]",[],[1],[0.5666666666666667],horizontal,"(390.0, 762.0)",0.6666666666666666,0.522,1,6875.058,3,0.0,same
0,648,valid,"[(1166, 772)]",[],[1],[0.7],horizontal,"(890.0, 762.0)",0.5333333333333333,0.655,1,6880.736,3,0.0,same
0,649,catch,"[(1166, 778)]",[],[1],[],vertical,"(390.0, 262.0)",1.7,nan,1,6887.118,3,0.0,same
0,650,valid,"[(1160, 780)]",[],[1],[0.5666666666666667],horizontal,"(890.0, 762.0)",0.9333333333333333,0.521,1,6893.601,3,0.0,same
0,651,valid,"[(1163, 784)]",[],[1],[0.6666666666666666],horizontal,"(390.0, 262.0)",1.5333333333333332,0.62,1,6899.921,3,0.0,same
0,652,valid,"[(1163, 799)]",[],[1],[0.5333333333333333],horizontal,"(390.0, 262.0)",0.3833333333333333,0.49,1,6905.974,3,0.0,same
0,653,catch,"[(1175, 787)]",[],[1],[],vertical,"(390.0, 262.0)",1.7,nan,1,6911.685,3,0.0,same
0,654,invalid_adjacent_other_bar,"[(1165, 803)]",[],[1],[0.25],horizontal,"(390.0, 762.0)",1.4333333333333333,0.212,1,6918.176,3,0.0,other
0,655,valid,"[(1131, 790)]",[],[1],[0.85],horizontal,"(890.0, 762.0)",1.0833333333333333,nan,0,6924.902,0,0.0,same
0,656,catch,"[(1160, 806)]",[],[1],[],vertical,"(890.0, 762.0)",1.7,nan,1,6930.68,1,0.0,same
0,657,valid,"[(1170, 810)]",[],[1],[0.6833333333333333],vertical,"(890.0, 262.0)",1.25,0.662,1,6938.053,1,0.0,same
0,658,invalid_adjacent_other_bar,"[(1154, 791)]",[],[1],[0.5],horizontal,"(890.0, 262.0)",0.5666666666666667,0.458,1,6944.509,1,0.0,other
0,659,catch,"[(1158, 806)]",[],[1],[],vertical,"(390.0, 762.0)",1.7,nan,1,6949.4,2,0.0,same
0,660,valid,"[(1153, 782)]","[(1105, 859)]",[1],[0.4],vertical,"(390.0, 762.0)",,"('bar', 0.412)",0,6956.716,0,0.0,same
0,661,valid,"[(1121, 820)]",[],[1],[0.5666666666666667],horizontal,"(390.0, 762.0)",1.1166666666666667,0.521,1,6961.167,1,0.0,same
0,662,invalid_adjacent_other_bar,"[(1146, 802)]",[],[1],[0.5833333333333334],vertical,"(890.0, 762.0)",0.75,0.54,1,6966.735,1,0.0,other
0,663,valid,"[(1125, 814)]",[],[1],[0.5166666666666666],vertical,"(390.0, 262.0)",0.36666666666666664,0.477,1,6972.551,1,0.0,same
0,664,valid,"[(1185, 787), (1101, 906)]",[],"[1, 1]",[0.65],vertical,"(890.0, 262.0)",0.6833333333333333,"('fix', 0.76),0.597",1,6978.153,2,0.0,same
0,665,catch,"[(1171, 799)]",[],[1],[],vertical,"(890.0, 762.0)",1.7,nan,1,6985.101,2,0.0,same
0,666,valid,"[(1156, 816)]",[],[1],[0.65],vertical,"(890.0, 762.0)",1.2833333333333332,0.607,1,6992.969,2,0.0,same
0,667,valid,"[(1159, 813)]",[],[1],[0.5666666666666667],horizontal,"(890.0, 262.0)",0.6166666666666667,0.525,1,7000.001,3,0.0,same
0,668,catch,"[(1170, 785)]",[],[1],[],horizontal,"(390.0, 762.0)",1.7,nan,1,7007.615,3,0.0,same
0,669,valid,"[(1173, 792)]",[],[1],[0.6833333333333333],vertical,"(890.0, 262.0)",1.15,0.641,1,7015.068,3,0.0,same
0,670,valid,"[(1161, 806)]",[],[1],[0.7166666666666667],horizontal,"(390.0, 762.0)",1.5166666666666666,0.665,1,7023.129,3,0.0,same
0,671,invalid_same_bar,"[(1160, 775)]",[],[1],[0.55],vertical,"(390.0, 262.0)",0.8666666666666667,0.502,1,7030.87,3,0.0,same
0,672,valid,"[(1158, 830)]",[],[1],[0.6],horizontal,"(890.0, 762.0)",1.2833333333333332,0.557,1,7038.89,3,0.0,same
0,673,valid,"[(1126, 799)]",[],[1],[0.6333333333333333],vertical,"(390.0, 762.0)",1.3333333333333333,0.591,1,7056.971,3,0.0,same
