block,trial,trial_type,taps_start_loc_during_fix,taps_end_loc_during_fix,taps_on_lever_during_fix,taps_on_lever_s_during_fix,bar_orientation,target_xy,cti,rt,acc,time,pulses,fa_rate_recent100,actual_invalid_type
0,1,invalid_same_bar,"[(986, 886), (1043, 839)]",[],"[0, 1]",[0.43333333333333335],horizontal,"(890.0, 262.0)",1.2166666666666666,0.389,1,0.82,1,0.0,same
0,2,valid,"[(974, 819), (1044, 850)]","[(1044, 850)]","[0, 1]",[0.08333333333333333],horizontal,"(390.0, 762.0)",,"('bar', 0.102)",0,14.321,0,0.0,same
0,3,catch,"[(1101, 847)]",[],[1],[],vertical,"(390.0, 762.0)",1.7,nan,1,27.158,1,0.0,same
0,4,valid,"[(1162, 826)]",[],[1],[0.55],vertical,"(890.0, 762.0)",0.6166666666666667,0.512,1,1149.808,1,0.0,same
0,5,valid,"[(1116, 786)]",[],[1],[0.85],vertical,"(390.0, 262.0)",0.3833333333333333,nan,0,1154.766,0,0.0,same
0,6,valid,"[(1112, 766)]",[],[1],[0.5166666666666666],horizontal,"(890.0, 262.0)",1.2666666666666666,0.481,1,1158.787,1,0.0,same
0,7,valid,"[(1132, 785)]",[],[1],[0.5833333333333334],horizontal,"(390.0, 262.0)",1.05,0.542,1,1164.298,1,0.0,same
0,8,valid,"[(1124, 762)]",[],[1],[0.6666666666666666],vertical,"(890.0, 762.0)",0.5166666666666666,0.633,1,1169.582,1,0.0,same
0,9,valid,"[(1141, 785)]",[],[1],[0.5333333333333333],horizontal,"(390.0, 762.0)",0.8166666666666667,0.49,1,1174.331,2,0.0,same
0,10,valid,"[(1163, 778)]",[],[1],[0.85],vertical,"(390.0, 762.0)",1.0333333333333332,nan,0,1179.865,0,0.0,same
0,11,valid,"[(1131, 790)]",[],[1],[0.6666666666666666],vertical,"(890.0, 762.0)",0.8833333333333333,0.628,1,1184.532,1,0.0,same
0,12,valid,"[(1174, 767)]",[],[1],[0.55],vertical,"(390.0, 262.0)",0.9333333333333333,0.506,1,1189.431,1,0.0,same
0,13,invalid_same_bar,"[(1138, 762)]",[],[1],[0.7666666666666666],vertical,"(390.0, 762.0)",1.2,0.728,1,1194.45,1,0.0,same
0,14,catch,"[(1132, 777)]",[],[1],[],horizontal,"(890.0, 262.0)",1.7,nan,1,1199.844,2,0.0,same
0,15,valid,"[(1156, 777)]",[],[1],[0.55],vertical,"(890.0, 262.0)",0.45,0.512,1,1205.759,2,0.0,same
0,16,valid,"[(1137, 779)]",[],[1],[0.5666666666666667],horizontal,"(390.0, 262.0)",0.7,0.532,1,1210.866,2,0.0,same
0,17,valid,"[(1135, 786)]",[],[1],[0.8333333333333334],horizontal,"(390.0, 262.0)",0.6333333333333333,0.786,1,1215.754,3,0.0,same
0,18,invalid_same_bar,"[(1155, 771)]",[],[1],[0.5166666666666666],horizontal,"(890.0, 762.0)",0.85,0.482,1,1221.681,3,0.0,same
0,19,catch,"[(1131, 803)]",[],[1],[],vertical,"(390.0, 762.0)",,"('cti', 0.542),nan",0,1227.548,0,0.05263157894736842,same
0,20,valid,"[(1128, 805)]",[],[1],[0.6333333333333333],horizontal,"(890.0, 262.0)",1.0666666666666667,0.595,1,1231.278,1,0.05,same
0,21,valid,"[(1134, 775)]",[],[1],[0.55],vertical,"(890.0, 762.0)",1.2666666666666666,0.513,1,1236.374,1,0.047619047619047616,same
0,22,catch,"[(1150, 760)]",[],[1],[],vertical,"(390.0, 262.0)",1.7,nan,1,1241.465,1,0.045454545454545456,same
0,23,valid,"[(1131, 802)]",[],[1],[0.5166666666666666],horizontal,"(890.0, 762.0)",0.4666666666666667,0.481,1,1246.35,2,0.043478260869565216,same
0,24,valid,"[(1147, 774)]",[],[1],[],vertical,"(890.0, 762.0)",,"('cti', 0.595)",0,1251.348,0,0.041666666666666664,same
0,25,valid,"[(1124, 795)]",[],[1],[0.6166666666666667],vertical,"(390.0, 762.0)",0.6333333333333333,0.583,1,1255.322,1,0.04,same
0,26,invalid_same_bar,"[(1156, 775)]",[],[1],[0.85],vertical,"(890.0, 262.0)",0.7333333333333333,nan,0,1259.816,0,0.038461538461538464,same
0,27,valid,"[(1118, 772)]",[],[1],[0.48333333333333334],vertical,"(390.0, 762.0)",0.9,0.442,1,1264.082,1,0.037037037037037035,same
0,28,valid,"[(1136, 766)]",[],[1],[0.6],vertical,"(890.0, 762.0)",1.0666666666666667,0.554,1,1268.882,1,0.03571428571428571,same
0,29,catch,"[(1135, 769)]",[],[1],[],horizontal,"(890.0, 762.0)",1.7,nan,1,1273.631,1,0.034482758620689655,same
0,30,invalid_same_bar,"[(1155, 801)]",[],[1],[0.6333333333333333],vertical,"(890.0, 762.0)",0.7333333333333333,0.593,1,1279.066,2,0.03333333333333333,same
0,31,catch,"[(1128, 809)]",[],[1],[],horizontal,"(890.0, 762.0)",1.7,nan,1,1284.365,2,0.03225806451612903,same
0,32,valid,"[(1156, 788)]",[],[1],[0.5333333333333333],horizontal,"(890.0, 762.0)",0.9333333333333333,0.49,1,1290.414,2,0.03125,same
0,33,valid,"[(1156, 778)]",[],[1],[0.85],vertical,"(390.0, 262.0)",0.6666666666666666,nan,0,1296.098,0,0.030303030303030304,same
0,34,invalid_adjacent_other_bar,"[(1132, 786)]",[],[1],[0.85],horizontal,"(390.0, 762.0)",0.4,nan,0,1300.891,0,0.029411764705882353,other
0,35,valid,"[(1134, 777)]",[],[1],[0.85],horizontal,"(390.0, 762.0)",0.4666666666666667,nan,0,1305.266,0,0.02857142857142857,same
0,36,invalid_same_bar,"[(1113, 772)]",[],[1],[0.15],horizontal,"(890.0, 262.0)",1.3333333333333333,0.119,0,1309.298,0,0.027777777777777776,same
0,37,catch,"[(1134, 813)]",[],[1],[],horizontal,"(890.0, 762.0)",,"('cti', 0.444),nan",0,1314.08,0,0.05405405405405406,same
0,38,valid,"[(1134, 783)]",[],[1],[0.55],horizontal,"(390.0, 262.0)",0.9833333333333333,0.51,1,1317.758,1,0.05263157894736842,same
0,39,catch,"[(1176, 759)]",[],[1],[],horizontal,"(890.0, 762.0)",1.7,nan,1,1322.89,1,0.05128205128205128,same
0,40,valid,"[(1157, 782)]",[],[1],[0.5],vertical,"(390.0, 762.0)",0.8166666666666667,0.456,1,1328.049,1,0.05,same
0,41,valid,"[(1156, 796)]",[],[1],[0.5],horizontal,"(890.0, 262.0)",0.8333333333333334,0.461,1,1332.716,2,0.04878048780487805,same
0,42,valid,"[(1135, 772)]",[],[1],[0.6],horizontal,"(390.0, 262.0)",0.6166666666666667,0.563,1,1337.758,2,0.047619047619047616,same
0,43,catch,"[(1156, 773)]",[],[1],[],horizontal,"(890.0, 762.0)",1.7,nan,1,1342.861,2,0.046511627906976744,same
0,44,valid,"[(1136, 798)]",[],[1],[0.6166666666666667],horizontal,"(390.0, 262.0)",1.15,0.589,1,1348.359,3,0.045454545454545456,same
0,45,catch,"[(1156, 794)]",[],[1],[],horizontal,"(390.0, 762.0)",1.7,nan,1,1354.748,3,0.044444444444444446,same
0,46,valid,"[(1158, 772)]",[],[1],[0.5166666666666666],horizontal,"(890.0, 262.0)",1.4833333333333334,0.477,1,1361.089,3,0.043478260869565216,same
0,47,valid,"[(1158, 785)]",[],[1],[0.5833333333333334],horizontal,"(890.0, 262.0)",0.8666666666666667,0.54,1,1367.166,3,0.0425531914893617,same
0,48,invalid_same_bar,"[(1133, 766)]",[],[1],[0.55],horizontal,"(390.0, 262.0)",0.6666666666666666,0.51,1,1373.049,3,0.041666666666666664,same
0,49,valid,"[(1152, 778)]",[],[1],[0.6166666666666667],horizontal,"(390.0, 762.0)",0.85,0.573,1,1378.548,3,0.04081632653061224,same
0,50,invalid_adjacent_other_bar,"[(1158, 769)]",[],[1],[0.85],vertical,"(390.0, 762.0)",1.0666666666666667,nan,0,1384.216,0,0.04,other
0,51,valid,"[(1126, 773)]",[],[1],[0.7666666666666666],horizontal,"(890.0, 762.0)",0.7,0.719,1,1389.361,1,0.04,same
0,52,valid,"[(1158, 796)]",[],[1],[0.65],vertical,"(890.0, 262.0)",0.9166666666666666,0.605,1,1394.623,1,0.04,same
0,53,invalid_adjacent_other_bar,"[(1157, 765)]",[],[1],[0.6],horizontal,"(390.0, 762.0)",0.6833333333333333,0.558,1,1399.8,1,0.04,other
0,54,valid,"[(1160, 799)]",[],[1],[0.55],horizontal,"(390.0, 762.0)",1.0666666666666667,0.513,1,1404.707,2,0.04,same
0,55,valid,"[(1159, 767)]",[],[1],[0.7833333333333333],vertical,"(390.0, 762.0)",0.9333333333333333,0.737,1,1410.38,2,0.04,same
0,56,catch,"[(1177, 760)]",[],[1],[],horizontal,"(390.0, 262.0)",1.7,nan,1,1416.282,2,0.04,same
0,57,valid,"[(1135, 783)]",[],[1],[0.3833333333333333],vertical,"(390.0, 762.0)",1.5166666666666666,0.344,1,1421.956,3,0.04,same
0,58,catch,"[(1153, 785)]",[],[1],[],horizontal,"(890.0, 762.0)",1.7,nan,1,1428.538,3,0.04,same
0,59,valid,"[(1175, 777)]",[],[1],[0.6166666666666667],horizontal,"(890.0, 262.0)",0.75,0.569,1,1434.467,3,0.04,same
0,60,valid,"[(1165, 756)]",[],[1],[0.6166666666666667],horizontal,"(390.0, 762.0)",0.7666666666666666,0.578,1,1440.158,3,0.04,same
0,61,valid,"[(1145, 760)]",[],[1],[0.2833333333333333],vertical,"(890.0, 262.0)",1.4333333333333333,0.248,1,1445.566,3,0.04,same
0,62,catch,"[(1156, 770)]",[],[1],[],vertical,"(890.0, 762.0)",1.7,nan,1,1451.799,3,0.04,same
0,63,catch,"[(1155, 780)]",[],[1],[],horizontal,"(890.0, 262.0)",1.7,nan,1,1457.582,3,0.04,same
0,64,catch,"[(1151, 766)]",[],[1],[],vertical,"(390.0, 262.0)",1.7,nan,1,1464.117,3,0.04,same
0,65,valid,"[(1153, 785)]",[],[1],[0.5166666666666666],horizontal,"(890.0, 262.0)",1.1333333333333333,0.483,1,1469.909,3,0.04,same
0,66,valid,"[(1153, 769)]",[],[1],[0.6333333333333333],horizontal,"(890.0, 262.0)",0.8833333333333333,0.589,1,1475.516,3,0.04,same
0,67,valid,"[(1174, 761)]",[],[1],[0.13333333333333333],horizontal,"(390.0, 762.0)",1.4166666666666667,0.1,0,1481.535,0,0.04,same
0,68,valid,"[(1144, 772)]",[],[1],[0.5666666666666667],vertical,"(890.0, 262.0)",1.4666666666666666,0.528,1,1486.582,1,0.04,same
0,69,valid,"[(1081, 806)]",[],[1],[0.55],horizontal,"(890.0, 262.0)",0.8166666666666667,0.522,1,1492.522,1,0.02,same
0,70,valid,"[(1150, 775)]",[],[1],[0.5333333333333333],horizontal,"(390.0, 762.0)",1.05,0.5,1,1497.746,1,0.02,same
0,71,catch,"[(1164, 774)]",[],[1],[],horizontal,"(390.0, 762.0)",1.7,nan,1,1502.964,2,0.02,same
0,72,invalid_adjacent_other_bar,"[(1172, 802)]",[],[1],[0.6166666666666667],horizontal,"(390.0, 762.0)",1.25,0.589,1,1508.964,2,0.02,other
0,73,invalid_adjacent_other_bar,"[(1160, 786)]",[],[1],[0.5166666666666666],vertical,"(890.0, 762.0)",0.5666666666666667,0.487,1,1514.68,2,0.02,other
0,74,valid,"[(1144, 775)]",[],[1],[0.6],horizontal,"(390.0, 762.0)",0.48333333333333334,0.566,1,1519.964,3,0.02,same
0,75,valid,"[(1154, 778)]",[],[1],[0.5333333333333333],horizontal,"(390.0, 262.0)",1.3833333333333333,0.505,1,1526.047,3,0.02,same
0,76,invalid_adjacent_other_bar,"[(1155, 779)]",[],[1],[0.5166666666666666],vertical,"(390.0, 262.0)",1.1833333333333333,0.48,1,1533.011,3,0.02,other
0,77,catch,"[(1160, 770)]",[],[1],[],horizontal,"(390.0, 262.0)",,"('cti', 1.713),nan",0,1539.095,0,0.04,same
0,78,valid,"[(1133, 803)]",[],[1],[0.85],horizontal,"(890.0, 762.0)",0.6333333333333333,nan,0,1544.345,0,0.04,same
0,79,valid,"[(1145, 783)]",[],[1],[0.5333333333333333],horizontal,"(890.0, 262.0)",0.8,0.501,1,1549.948,1,0.04,same
0,80,valid,"[(1159, 765)]",[],[1],[0.6],vertical,"(390.0, 262.0)",1.2,0.572,1,1555.36,1,0.04,same
0,81,valid,"[(1156, 786)]",[],[1],[0.5333333333333333],horizontal,"(390.0, 262.0)",0.6166666666666667,0.496,1,1560.946,1,0.04,same
0,82,valid,"[(1133, 776)]",[],[1],[0.5166666666666666],vertical,"(390.0, 262.0)",0.6,0.479,1,1565.25,2,0.04,same
0,83,valid,"[(1150, 804)]",[],[1],[0.7],vertical,"(890.0, 762.0)",0.6,0.655,1,1570.261,2,0.04,same
0,84,valid,"[(1158, 773)]",[],[1],[0.6166666666666667],horizontal,"(390.0, 262.0)",1.3166666666666667,0.583,1,1575.724,2,0.04,same
0,85,valid,"[(1140, 773)]",[],[1],[0.85],horizontal,"(890.0, 762.0)",1.3333333333333333,nan,0,1581.587,0,0.04,same
0,86,valid,"[(1107, 806)]",[],[1],[0.5],horizontal,"(890.0, 762.0)",1.55,0.468,1,1586.977,1,0.04,same
0,87,valid,"[(1137, 802)]",[],[1],[0.6],vertical,"(390.0, 762.0)",0.8666666666666667,0.558,1,1592.65,1,0.02,same
0,88,valid,"[(1173, 783)]",[],[1],[0.5],horizontal,"(890.0, 762.0)",1.5333333333333332,0.461,1,1597.575,1,0.02,same
0,89,valid,"[(1131, 776)]",[],[1],[0.5333333333333333],vertical,"(890.0, 762.0)",1.15,0.493,1,1603.184,2,0.02,same
0,90,valid,"[(1170, 764)]",[],[1],[0.5166666666666666],vertical,"(890.0, 262.0)",0.7833333333333333,0.483,1,1608.661,2,0.02,same
0,91,valid,"[(1151, 775)]",[],[1],[0.7166666666666667],vertical,"(390.0, 762.0)",1.4333333333333333,0.681,1,1614.0,2,0.02,same
0,92,valid,"[(1140, 777)]",[],[1],[0.55],horizontal,"(390.0, 262.0)",1.1166666666666667,0.508,1,1620.001,3,0.02,same
0,93,valid,"[(1133, 798)]",[],[1],[0.5833333333333334],horizontal,"(390.0, 762.0)",1.1833333333333333,0.541,1,1626.134,3,0.02,same
0,94,valid,"[(1141, 786)]",[],[1],[0.85],horizontal,"(890.0, 762.0)",1.5166666666666666,nan,0,1632.508,0,0.02,same
0,95,catch,"[(1122, 772)]",[],[1],[],horizontal,"(890.0, 762.0)",1.7,nan,1,1637.801,1,0.02,same
0,96,valid,"[(1153, 778)]",[],[1],[0.48333333333333334],vertical,"(890.0, 762.0)",1.3166666666666667,0.458,1,1643.279,1,0.02,same
0,97,catch,"[(1157, 776)]",[],[1],[],horizontal,"(390.0, 262.0)",1.7,nan,1,1648.651,1,0.02,same
0,98,valid,"[(1175, 766)]",[],[1],[0.6333333333333333],horizontal,"(890.0, 762.0)",0.9833333333333333,0.592,1,1653.918,2,0.02,same
0,99,valid,"[(1176, 783)]",[],[1],[0.6],horizontal,"(890.0, 262.0)",0.6,0.558,1,1659.582,2,0.02,same
0,100,valid,"[(1154, 790)]",[],[1],[0.85],vertical,"(890.0, 762.0)",0.36666666666666664,nan,0,1664.752,0,0.02,same
0,101,catch,"[(1136, 769)]",[],[1],[],horizontal,"(890.0, 262.0)",1.7,nan,1,1669.292,1,0.02,same
0,102,valid,"[(1132, 806)]",[],[1],[0.6166666666666667],vertical,"(890.0, 262.0)",1.4166666666666667,0.574,1,1674.686,1,0.02,same
0,103,valid,"[(1133, 800)]",[],[1],[0.6],horizontal,"(390.0, 262.0)",1.2833333333333332,0.558,1,1680.123,1,0.02,same
0,104,valid,"[(1131, 766)]",[],[1],[0.5166666666666666],vertical,"(390.0, 262.0)",0.5666666666666667,0.481,1,1685.822,2,0.02,same
0,105,valid,"[(1131, 776)]",[],[1],[0.5833333333333334],vertical,"(390.0, 762.0)",0.35,0.54,1,1690.82,2,0.02,same
0,106,valid,"[(1132, 773)]",[],[1],[0.85],horizontal,"(390.0, 262.0)",0.9,nan,0,1695.78,0,0.02,same
0,107,catch,"[(1136, 770)]",[],[1],[],vertical,"(390.0, 262.0)",1.7,nan,1,1700.677,1,0.02,same
0,108,valid,"[(1165, 772)]",[],[1],[0.5166666666666666],vertical,"(390.0, 762.0)",0.5333333333333333,0.474,1,1705.872,1,0.02,same
0,109,invalid_same_bar,"[(1164, 782)]",[],[1],[0.65],vertical,"(390.0, 762.0)",0.5166666666666666,0.613,1,1710.416,1,0.02,same
0,110,catch,"[(1131, 775)]",[],[1],[],horizontal,"(390.0, 762.0)",1.7,nan,1,1715.134,2,0.02,same
0,111,valid,"[(1160, 769)]",[],[1],[0.6166666666666667],horizontal,"(390.0, 762.0)",1.1666666666666667,0.577,1,1720.919,2,0.02,same
0,112,valid,"[(1108, 823)]",[],[1],[0.5166666666666666],vertical,"(890.0, 762.0)",0.85,0.476,1,1726.742,2,0.02,same
0,113,valid,"[(1106, 807)]",[],[1],[0.6666666666666666],horizontal,"(890.0, 762.0)",0.7,0.63,1,1732.337,3,0.02,same
0,114,catch,"[(1109, 826)]",[],[1],[],vertical,"(390.0, 262.0)",1.7,nan,1,1737.968,3,0.02,same
0,115,catch,"[(1158, 774)]",[],[1],[],vertical,"(390.0, 762.0)",1.7,nan,1,1745.368,3,0.02,same
0,116,invalid_same_bar,"[(1145, 772)]",[],[1],[0.4666666666666667],vertical,"(390.0, 262.0)",1.35,0.431,1,1751.73,3,0.02,same
0,117,catch,"[(1155, 801)]",[],[1],[],horizontal,"(890.0, 762.0)",1.7,nan,1,1757.948,3,0.02,same
0,118,invalid_adjacent_other_bar,"[(1136, 773)]",[],[1],[0.5333333333333333],horizontal,"(890.0, 262.0)",0.9333333333333333,0.493,1,1764.065,3,0.02,other
0,119,catch,"[(1156, 762)]",[],[1],[],horizontal,"(390.0, 262.0)",1.7,nan,1,1769.885,3,0.02,same
0,120,catch,"[(1157, 773)]",[],[1],[],vertical,"(890.0, 262.0)",1.7,nan,1,1775.917,3,0.02,same
0,121,valid,"[(1138, 782)]",[],[1],[0.6666666666666666],horizontal,"(390.0, 262.0)",0.8166666666666667,0.632,1,1782.282,3,0.02,same
0,122,catch,"[(1158, 774)]",[],[1],[],horizontal,"(890.0, 262.0)",1.7,nan,1,1787.835,3,0.02,same
0,123,valid,"[(1159, 803)]",[],[1],[0.5666666666666667],vertical,"(890.0, 762.0)",0.5333333333333333,0.525,1,1793.861,3,0.02,same
0,124,valid,"[(1143, 800)]",[],[1],[0.5666666666666667],horizontal,"(390.0, 762.0)",0.5833333333333334,0.527,1,1798.959,3,0.02,same
0,125,valid,"[(1158, 806)]",[],[1],[0.48333333333333334],vertical,"(890.0, 262.0)",0.6,0.446,1,1804.918,3,0.02,same
0,126,invalid_adjacent_other_bar,"[(1148, 769)]",[],[1],[0.36666666666666664],vertical,"(890.0, 762.0)",1.45,0.33,1,1810.632,3,0.02,other
0,127,invalid_same_bar,"[(1091, 830)]",[],[1],[0.5666666666666667],horizontal,"(890.0, 762.0)",0.9833333333333333,0.527,1,1816.749,3,0.0,same
0,128,catch,"[(1156, 772)]",[],[1],[],vertical,"(890.0, 762.0)",1.7,nan,1,1822.838,3,0.0,same
0,129,catch,"[(1158, 771)]",[],[1],[],vertical,"(390.0, 262.0)",1.7,nan,1,1828.655,3,0.0,same
0,130,valid,"[(1156, 765)]",[],[1],[0.5333333333333333],vertical,"(890.0, 762.0)",1.5333333333333332,0.491,1,1835.008,3,0.0,same
0,131,catch,"[(1159, 780)]",[],[1],[],vertical,"(890.0, 762.0)",1.7,nan,1,1841.617,3,0.0,same
0,132,valid,"[(1141, 803)]",[],[1],[0.35],vertical,"(390.0, 762.0)",0.7833333333333333,0.315,1,1848.073,3,0.0,same
0,133,valid,"[(1091, 870)]",[],[1],[0.65],vertical,"(890.0, 262.0)",1.0333333333333332,0.6,1,1853.614,3,0.0,same
0,134,catch,"[(1161, 786)]",[],[1],[],vertical,"(390.0, 262.0)",1.7,nan,1,2521.809,3,0.0,same
0,135,valid,"[(1156, 766)]",[],[1],[0.85],horizontal,"(890.0, 262.0)",1.5166666666666666,nan,0,2527.863,0,0.0,same
0,136,valid,"[(1126, 804)]",[],[1],[0.6833333333333333],horizontal,"(890.0, 262.0)",1.1,0.644,1,2532.673,1,0.0,same
0,137,invalid_adjacent_other_bar,"[(1151, 782)]",[],[1],[0.6],horizontal,"(890.0, 762.0)",1.45,0.553,1,2538.243,1,0.0,other
0,138,valid,"[(1149, 782)]",[],[1],[0.6],horizontal,"(390.0, 762.0)",1.2,0.554,1,2543.847,1,0.0,same
0,139,catch,"[(1156, 796)]",[],[1],[],horizontal,"(390.0, 262.0)",1.7,nan,1,2549.703,2,0.0,same
0,140,invalid_same_bar,"[(1163, 781)]",[],[1],[0.5166666666666666],vertical,"(890.0, 262.0)",1.35,0.478,1,2555.726,2,0.0,same
0,141,valid,"[(1167, 766)]",[],[1],[0.5333333333333333],horizontal,"(890.0, 762.0)",1.4666666666666666,0.492,1,2561.504,2,0.0,same
0,142,valid,"[(1155, 773)]",[],[1],[0.5],horizontal,"(890.0, 762.0)",0.5333333333333333,0.457,1,2567.635,3,0.0,same
0,143,valid,"[(1170, 778)]",[],[1],[0.85],vertical,"(390.0, 262.0)",0.3833333333333333,nan,0,2573.221,0,0.0,same
0,144,catch,"[(1131, 794)]",[],[1],[],vertical,"(890.0, 262.0)",1.7,nan,1,2577.29,1,0.0,same
0,145,valid,"[(1175, 778)]",[],[1],[0.5166666666666666],horizontal,"(390.0, 762.0)",0.8666666666666667,0.475,1,2582.796,1,0.0,same
0,146,valid,"[(1160, 765)]",[],[1],[0.6333333333333333],horizontal,"(890.0, 262.0)",0.36666666666666664,0.597,1,2587.553,1,0.0,same
0,147,invalid_adjacent_other_bar,"[(1158, 782)]",[],[1],[0.5],horizontal,"(390.0, 262.0)",1.1833333333333333,0.464,1,2592.122,2,0.0,other
0,148,valid,"[(1141, 786)]",[],[1],[0.65],vertical,"(390.0, 262.0)",0.7333333333333333,0.611,1,2597.617,2,0.0,same
0,149,catch,"[(1134, 816)]",[],[1],[],horizontal,"(390.0, 262.0)",1.7,nan,1,2603.052,2,0.0,same
0,150,valid,"[(1151, 798)]",[],[1],[0.48333333333333334],vertical,"(390.0, 262.0)",1.4,0.451,1,2608.691,3,0.0,same
0,151,catch,"[(1103, 827)]",[],[1],[],vertical,"(390.0, 762.0)",1.7,nan,1,2614.994,3,0.0,same
0,152,valid,"[(1154, 786)]",[],[1],[0.5333333333333333],horizontal,"(890.0, 262.0)",0.7166666666666667,0.495,1,2621.063,3,0.0,same
0,153,catch,"[(1155, 798)]",[],[1],[],horizontal,"(390.0, 262.0)",,"('cti', 1.458),nan",0,2626.371,0,0.02,same
0,154,valid,"[(1136, 799)]",[],[1],[0.5],vertical,"(890.0, 262.0)",1.5333333333333332,0.464,1,2631.288,1,0.02,same
0,155,valid,"[(1155, 783)]",[],[1],[0.5833333333333334],vertical,"(390.0, 262.0)",0.35,0.543,1,2637.005,1,0.02,same
0,156,catch,"[(1156, 761)]",[],[1],[],horizontal,"(390.0, 762.0)",1.7,nan,1,2641.312,1,0.02,same
0,157,invalid_same_bar,"[(1155, 791)]",[],[1],[0.85],horizontal,"(390.0, 262.0)",0.8333333333333334,nan,0,2646.652,0,0.02,same
0,158,invalid_same_bar,"[(1160, 792)]",[],[1],[0.6],horizontal,"(890.0, 262.0)",0.85,0.55,1,2651.471,1,0.02,same
0,159,catch,"[(1175, 791)]",[],[1],[],horizontal,"(890.0, 762.0)",1.7,nan,1,2656.18,1,0.02,same
0,160,valid,"[(1175, 789)]",[],[1],[0.4666666666666667],horizontal,"(390.0, 262.0)",1.3666666666666667,0.427,1,2661.104,1,0.02,same
0,161,valid,"[(1175, 786)]",[],[1],[0.48333333333333334],vertical,"(390.0, 762.0)",0.5,0.444,1,2666.645,2,0.02,same
0,162,valid,"[(1156, 782)]",[],[1],[0.5],horizontal,"(890.0, 262.0)",0.6833333333333333,0.467,1,2671.474,2,0.02,same
0,163,valid,"[(1166, 764)]",[],[1],[0.4666666666666667],horizontal,"(890.0, 262.0)",1.15,0.426,1,2676.25,2,0.02,same
0,164,valid,"[(1134, 778)]",[],[1],[0.85],horizontal,"(890.0, 262.0)",1.2833333333333332,nan,0,2682.125,0,0.02,same
0,165,valid,"[(1144, 809)]",[],[1],[0.85],horizontal,"(390.0, 262.0)",1.1666666666666667,nan,0,2687.723,0,0.02,same
0,166,catch,"[(1136, 786)]",[],[1],[],horizontal,"(890.0, 262.0)",1.7,nan,1,2692.638,1,0.02,same
0,167,valid,"[(1158, 778)]",[],[1],[0.7],horizontal,"(890.0, 262.0)",1.25,0.655,1,2697.738,1,0.02,same
0,168,valid,"[(1124, 806)]",[],[1],[0.48333333333333334],vertical,"(890.0, 262.0)",0.9166666666666666,0.443,1,2703.671,1,0.02,same
0,169,valid,"[(1171, 768)]",[],[1],[0.48333333333333334],vertical,"(890.0, 262.0)",1.15,0.443,1,2708.837,2,0.02,same
0,170,valid,"[(1166, 770)]",[],[1],[0.85],vertical,"(390.0, 262.0)",0.43333333333333335,nan,0,2714.638,0,0.02,same
0,171,valid,"[(1156, 767)]",[],[1],[0.85],vertical,"(390.0, 262.0)",0.6333333333333333,nan,0,2718.63,0,0.02,same
0,172,valid,"[(1131, 773)]",[],[1],[0.6166666666666667],vertical,"(390.0, 762.0)",1.2833333333333332,0.57,1,2723.473,1,0.02,same
0,173,invalid_adjacent_other_bar,"[(1150, 772)]",[],[1],[0.5666666666666667],vertical,"(390.0, 762.0)",0.3833333333333333,0.532,1,2728.954,1,0.02,other
0,174,valid,"[(1176, 777)]",[],[1],[0.5166666666666666],vertical,"(390.0, 762.0)",0.9,0.474,1,2733.426,1,0.02,same
0,175,invalid_same_bar,"[(1155, 810)]",[],[1],[0.5833333333333334],horizontal,"(390.0, 762.0)",1.3833333333333333,0.543,1,2738.135,2,0.02,same
0,176,valid,"[(1179, 773)]",[],[1],[0.65],vertical,"(890.0, 262.0)",0.35,0.606,1,2744.205,2,0.02,same
0,177,valid,"[(1155, 794)]",[],[1],[0.48333333333333334],vertical,"(390.0, 262.0)",1.3833333333333333,0.445,1,2748.908,2,0.02,same
0,178,invalid_adjacent_other_bar,"[(1131, 777)]",[],[1],[0.7166666666666667],vertical,"(890.0, 262.0)",1.3666666666666667,0.675,1,2754.81,3,0.02,other
0,179,catch,"[(1136, 809)]",[],[1],[],vertical,"(890.0, 262.0)",1.7,nan,1,2760.889,3,0.02,same
0,180,valid,"[(1153, 766)]",[],[1],[0.4166666666666667],horizontal,"(890.0, 262.0)",0.95,0.383,1,2766.904,3,0.02,same
0,181,valid,"[(1180, 779)]",[],[1],[0.55],vertical,"(390.0, 762.0)",0.5333333333333333,0.505,1,2772.81,3,0.02,same
0,182,invalid_adjacent_other_bar,"[(1155, 776)]",[],[1],[0.5],vertical,"(390.0, 762.0)",0.9666666666666667,0.465,1,2778.211,3,0.02,other
0,183,invalid_adjacent_other_bar,"[(1161, 776)]",[],[1],[0.5],horizontal,"(390.0, 262.0)",0.9,0.472,1,2783.99,3,0.02,other
0,184,valid,"[(1156, 772)]",[],[1],[0.5333333333333333],horizontal,"(890.0, 762.0)",1.0833333333333333,0.489,1,2789.959,3,0.02,same
0,185,invalid_adjacent_other_bar,"[(1180, 772)]",[],[1],[0.48333333333333334],vertical,"(390.0, 762.0)",1.1833333333333333,0.447,1,2796.105,3,0.02,other
0,186,valid,"[(1175, 793)]",[],[1],[0.2833333333333333],horizontal,"(390.0, 762.0)",1.45,0.248,1,2802.291,3,0.02,same
0,187,valid,"[(1166, 786)]",[],[1],[0.5166666666666666],vertical,"(390.0, 262.0)",0.8833333333333333,0.479,1,2808.68,3,0.02,same
0,188,catch,"[(1157, 772)]",[],[1],[],horizontal,"(390.0, 262.0)",1.7,nan,1,2814.415,3,0.02,same
0,189,valid,"[(1155, 782)]",[],[1],[0.2],horizontal,"(390.0, 262.0)",1.5166666666666666,0.171,0,2820.805,0,0.02,same
0,190,catch,"[(1138, 794)]",[],[1],[],horizontal,"(890.0, 762.0)",1.7,nan,1,2826.066,1,0.02,same
0,191,valid,"[(1180, 776)]",[],[1],[0.5333333333333333],vertical,"(890.0, 762.0)",0.43333333333333335,0.487,1,2831.088,1,0.02,same
0,192,valid,"[(1175, 801)]",[],[1],[0.55],vertical,"(390.0, 762.0)",0.95,0.506,1,2835.38,1,0.02,same
0,193,catch,"[(1178, 768)]",[],[1],[],horizontal,"(390.0, 762.0)",1.7,nan,1,2840.139,2,0.02,same
0,194,invalid_adjacent_other_bar,"[(1160, 776)]",[],[1],[0.5166666666666666],vertical,"(890.0, 262.0)",0.36666666666666664,0.476,1,2845.728,2,0.02,other
0,195,valid,"[(1131, 821)]",[],[1],[0.85],horizontal,"(890.0, 762.0)",0.9833333333333333,nan,0,2850.359,0,0.02,same
0,196,valid,"[(1132, 790)]",[],[1],[0.43333333333333335],horizontal,"(890.0, 762.0)",1.0166666666666666,0.396,1,2855.629,1,0.02,same
0,197,valid,"[(1155, 782)]",[],[1],[0.5666666666666667],vertical,"(890.0, 762.0)",0.9333333333333333,0.527,1,2860.9,1,0.02,same
0,198,valid,"[(1155, 782)]",[],[1],[0.48333333333333334],vertical,"(390.0, 762.0)",1.3833333333333333,0.439,1,2865.53,1,0.02,same
0,199,valid,"[(1159, 792)]",[],[1],[0.6],vertical,"(890.0, 762.0)",0.35,0.56,1,2871.039,2,0.02,same
0,200,invalid_adjacent_other_bar,"[(1141, 794)]",[],[1],[0.5166666666666666],horizontal,"(890.0, 262.0)",1.3,0.475,1,2876.337,2,0.02,other
0,201,valid,"[(1136, 792)]",[],[1],[0.5],vertical,"(390.0, 262.0)",0.9333333333333333,0.458,1,2882.523,2,0.02,same
0,202,catch,"[(1135, 790)]",[],[1],[],horizontal,"(390.0, 762.0)",1.7,nan,1,2888.52,3,0.02,same
0,203,valid,"[(1158, 795)]",[],[1],[0.5166666666666666],vertical,"(390.0, 262.0)",0.9333333333333333,0.479,1,2894.989,3,0.0,same
0,204,valid,"[(1180, 767)]",[],[1],[0.5833333333333334],horizontal,"(890.0, 762.0)",0.35,0.545,1,2900.385,3,0.0,same
0,205,catch,"[(1156, 782)]",[],[1],[],horizontal,"(390.0, 762.0)",1.7,nan,1,2905.948,3,0.0,same
0,206,valid,"[(1161, 777)]",[],[1],[0.4666666666666667],vertical,"(890.0, 262.0)",1.3,0.432,1,2911.799,3,0.0,same
0,207,invalid_same_bar,"[(1141, 774)]",[],[1],[0.6666666666666666],vertical,"(890.0, 262.0)",0.9666666666666667,0.623,1,2917.561,3,0.0,same
0,208,catch,"[(1156, 773)]",[],[1],[],vertical,"(890.0, 762.0)",1.7,nan,1,2923.651,3,0.0,same
0,209,catch,"[(1156, 764)]",[],[1],[],horizontal,"(890.0, 262.0)",1.7,nan,1,2929.453,3,0.0,same
0,210,valid,"[(1158, 769)]",[],[1],[0.6166666666666667],horizontal,"(890.0, 262.0)",1.0166666666666666,0.573,1,2935.606,3,0.0,same
0,211,invalid_adjacent_other_bar,"[(1154, 770)]",[],[1],[0.85],horizontal,"(390.0, 762.0)",0.5833333333333334,nan,0,2941.713,0,0.0,other
0,212,valid,"[(1133, 782)]",[],[1],[0.85],horizontal,"(890.0, 262.0)",0.5,nan,0,2945.989,0,0.0,same
0,213,valid,"[(1138, 786)]",[],[1],[0.48333333333333334],horizontal,"(390.0, 762.0)",1.4,0.442,1,2950.024,1,0.0,same
0,214,valid,"[(1155, 792)]",[],[1],[0.5333333333333333],horizontal,"(390.0, 262.0)",1.0833333333333333,0.493,1,2955.517,1,0.0,same
0,215,valid,"[(1155, 807)]",[],[1],[0.6166666666666667],vertical,"(890.0, 262.0)",0.8,0.573,1,2960.419,1,0.0,same
0,216,valid,"[(1157, 781)]",[],[1],[0.48333333333333334],horizontal,"(390.0, 762.0)",0.85,0.446,1,2965.272,2,0.0,same
0,217,valid,"[(1158, 782)]",[],[1],[0.5],horizontal,"(390.0, 762.0)",0.8833333333333333,0.458,1,2970.433,2,0.0,same
0,218,valid,"[(1155, 780)]",[],[1],[0.5166666666666666],vertical,"(390.0, 762.0)",0.7833333333333333,0.478,1,2975.581,2,0.0,same
0,219,valid,"[(1168, 780)]",[],[1],[0.4],horizontal,"(890.0, 762.0)",1.3833333333333333,0.364,1,2981.079,3,0.0,same
0,220,valid,"[(1156, 767)]",[],[1],[0.5166666666666666],vertical,"(890.0, 762.0)",0.7333333333333333,0.475,1,2987.637,3,0.0,same
0,221,catch,"[(1150, 781)]",[],[1],[],horizontal,"(390.0, 762.0)",1.7,nan,1,2993.285,3,0.0,same
0,222,valid,"[(1156, 773)]",[],[1],[0.5166666666666666],horizontal,"(390.0, 762.0)",0.5333333333333333,0.475,1,2999.059,3,0.0,same
0,223,valid,"[(1176, 766)]",[],[1],[0.6833333333333333],horizontal,"(890.0, 262.0)",1.1666666666666667,0.637,1,3004.206,3,0.0,same
0,224,catch,"[(1137, 791)]",[],[1],[0.03333333333333333],horizontal,"(890.0, 762.0)",1.7,"0.02,nan",0,3010.157,0,0.02,same
0,225,valid,"[(1134, 797)]",[],[1],[0.85],vertical,"(390.0, 762.0)",0.8666666666666667,nan,0,3015.554,0,0.02,same
0,226,catch,"[(1135, 777)]",[],[1],[],horizontal,"(390.0, 762.0)",1.7,nan,1,3020.091,1,0.02,same
0,227,valid,"[(1153, 777)]",[],[1],[0.6833333333333333],vertical,"(390.0, 262.0)",1.0333333333333332,0.641,1,3024.977,1,0.02,same
0,228,catch,"[(1161, 779)]",[],[1],[],vertical,"(390.0, 262.0)",1.7,nan,1,3030.572,1,0.02,same
0,229,catch,"[(1171, 780)]",[],[1],[],vertical,"(390.0, 762.0)",1.7,nan,1,3035.502,2,0.02,same
0,230,invalid_same_bar,"[(1155, 772)]",[],[1],[0.5666666666666667],vertical,"(390.0, 262.0)",1.3,0.526,1,3041.046,2,0.02,same
0,231,valid,"[(1154, 781)]",[],[1],[0.5833333333333334],horizontal,"(390.0, 262.0)",1.4666666666666666,0.54,1,3046.923,2,0.02,same
0,232,catch,"[(1154, 786)]",[],[1],[],horizontal,"(890.0, 262.0)",1.7,nan,1,3052.668,3,0.02,same
0,233,valid,"[(1140, 779)]",[],[1],[0.48333333333333334],horizontal,"(390.0, 262.0)",1.45,0.44,1,3059.038,3,0.02,same
0,234,valid,"[(1176, 776)]",[],[1],[0.48333333333333334],vertical,"(890.0, 262.0)",0.9333333333333333,0.448,1,3065.521,3,0.02,same
0,235,valid,"[(1158, 774)]",[],[1],[0.85],horizontal,"(390.0, 762.0)",1.5166666666666666,nan,0,3070.762,0,0.02,same
0,236,valid,"[(1091, 836)]",[],[1],[0.5166666666666666],vertical,"(890.0, 762.0)",0.7,0.484,1,3075.97,1,0.02,same
0,237,valid,"[(1135, 792)]",[],[1],[0.5666666666666667],vertical,"(890.0, 762.0)",0.65,0.522,1,3332.534,1,0.02,same
0,238,catch,"[(1156, 778)]",[],[1],[],vertical,"(390.0, 262.0)",1.7,nan,1,3337.657,1,0.02,same
0,239,valid,"[(1134, 811)]",[],[1],[0.06666666666666667],horizontal,"(890.0, 762.0)",1.35,0.037,0,3342.8,0,0.02,same
0,240,valid,"[(1065, 806)]",[],[1],[0.55],vertical,"(890.0, 262.0)",0.7833333333333333,0.507,1,3349.001,1,0.02,same
0,241,valid,"[(1086, 814)]",[],[1],[0.4666666666666667],vertical,"(890.0, 262.0)",1.3666666666666667,0.426,1,3356.556,1,0.02,same
0,242,invalid_adjacent_other_bar,"[(1180, 806)]",[],[1],[0.45],vertical,"(890.0, 262.0)",1.5166666666666666,0.409,1,3361.891,1,0.02,other
0,243,valid,"[(1160, 795)]",[],[1],[0.85],vertical,"(390.0, 262.0)",0.4666666666666667,nan,0,3367.248,0,0.02,same
0,244,valid,"[(1144, 764)]",[],[1],[0.5],horizontal,"(390.0, 262.0)",0.9666666666666667,0.459,1,3371.457,1,0.02,same
0,245,valid,"[(1161, 782)]",[],[1],[0.6],horizontal,"(890.0, 762.0)",1.1166666666666667,0.559,1,3376.401,1,0.02,same
0,246,valid,"[(1156, 777)]",[],[1],[0.85],horizontal,"(390.0, 762.0)",0.7666666666666666,nan,0,3381.189,0,0.02,same
0,247,valid,"[(1138, 780)]",[],[1],[0.85],vertical,"(890.0, 762.0)",0.8333333333333334,nan,0,3386.02,0,0.02,same
0,248,valid,"[(1155, 797)]",[],[1],[0.13333333333333333],horizontal,"(390.0, 262.0)",1.4666666666666666,0.101,0,3390.885,0,0.02,same
0,249,valid,"[(1135, 808)]",[],[1],[0.48333333333333334],horizontal,"(890.0, 262.0)",1.4,0.439,1,3395.893,1,0.02,same
0,250,invalid_same_bar,"[(1188, 791)]",[],[1],[0.6666666666666666],horizontal,"(390.0, 762.0)",1.0333333333333332,0.625,1,3407.235,1,0.02,same
0,251,valid,"[(1156, 791)]",[],[1],[0.55],vertical,"(890.0, 762.0)",0.5,0.51,1,3412.442,1,0.02,same
0,252,valid,"[(1159, 796)]",[],[1],[0.5166666666666666],horizontal,"(390.0, 262.0)",1.4166666666666667,0.479,1,3416.708,2,0.02,same
0,253,catch,"[(1176, 780)]",[],[1],[],vertical,"(390.0, 262.0)",1.7,nan,1,3422.195,2,0.02,same
0,254,catch,"[(1149, 788)]",[],[1],[],horizontal,"(390.0, 762.0)",1.7,nan,1,3427.513,2,0.02,same
0,255,valid,"[(1175, 789)]",[],[1],[0.48333333333333334],horizontal,"(890.0, 262.0)",0.95,0.446,1,3432.983,3,0.02,same
0,256,valid,"[(1166, 785)]",[],[1],[0.5666666666666667],vertical,"(890.0, 762.0)",0.43333333333333335,0.525,1,3438.519,3,0.02,same
0,257,catch,"[(1161, 792)]",[],[1],[],horizontal,"(390.0, 262.0)",1.7,nan,1,3444.224,3,0.02,same
0,258,catch,"[(1115, 871)]",[],[1],[],horizontal,"(890.0, 262.0)",1.7,nan,1,3450.429,3,0.02,same
0,259,valid,"[(1161, 800)]",[],[1],[0.5],horizontal,"(390.0, 762.0)",0.9666666666666667,0.459,1,3465.408,3,0.02,same
0,260,catch,"[(1135, 804)]",[],[1],[],horizontal,"(890.0, 762.0)",1.7,nan,1,3471.358,3,0.02,same
0,261,valid,"[(1174, 796)]",[],[1],[0.5166666666666666],vertical,"(890.0, 262.0)",0.9666666666666667,0.476,1,3477.174,3,0.02,same
0,262,catch,"[(1155, 796)]",[],[1],[],horizontal,"(890.0, 762.0)",1.7,nan,1,3482.639,3,0.02,same
0,263,catch,"[(1160, 786)]",[],[1],[],vertical,"(890.0, 762.0)",1.7,nan,1,3488.576,3,0.02,same
0,264,valid,"[(1166, 780)]",[],[1],[0.5166666666666666],vertical,"(390.0, 762.0)",1.1166666666666667,0.48,1,3494.957,3,0.02,same
0,265,valid,"[(1143, 786)]",[],[1],[0.6],horizontal,"(390.0, 262.0)",1.0666666666666667,0.559,1,3500.942,3,0.02,same
0,266,valid,"[(1176, 781)]",[],[1],[0.5],vertical,"(890.0, 762.0)",0.95,0.466,1,3506.87,3,0.02,same
0,267,valid,"[(1155, 781)]",[],[1],[0.5],vertical,"(390.0, 762.0)",1.0,0.457,1,3512.894,3,0.02,same
0,268,valid,"[(1140, 786)]",[],[1],[0.6333333333333333],vertical,"(890.0, 262.0)",1.45,0.594,1,3518.215,3,0.02,same
0,269,catch,"[(1158, 782)]",[],[1],[],horizontal,"(390.0, 262.0)",1.7,nan,1,3524.752,3,0.02,same
0,270,invalid_adjacent_other_bar,"[(1161, 784)]",[],[1],[0.5166666666666666],horizontal,"(890.0, 262.0)",0.6,0.478,1,3530.441,3,0.02,other
0,271,invalid_same_bar,"[(1158, 778)]",[],[1],[0.85],vertical,"(390.0, 762.0)",0.45,nan,0,3536.024,0,0.02,same
0,272,valid,"[(1136, 801)]",[],[1],[0.85],horizontal,"(390.0, 762.0)",0.7666666666666666,nan,0,3540.108,0,0.02,same
0,273,catch,"[(1136, 782)]",[],[1],[],vertical,"(890.0, 762.0)",1.7,nan,1,3544.818,1,0.02,same
0,274,valid,"[(1160, 786)]",[],[1],[0.48333333333333334],vertical,"(890.0, 262.0)",1.0833333333333333,0.445,1,3549.897,1,0.0,same
0,275,invalid_adjacent_other_bar,"[(1154, 779)]",[],[1],[0.85],vertical,"(390.0, 262.0)",1.5,nan,0,3555.045,0,0.0,other
0,276,invalid_same_bar,"[(1131, 820)]",[],[1],[0.5166666666666666],horizontal,"(390.0, 262.0)",0.55,0.472,1,3560.491,1,0.0,same
0,277,valid,"[(1111, 795)]",[],[1],[0.45],vertical,"(390.0, 762.0)",0.65,0.413,1,3565.502,1,0.0,same
0,278,invalid_adjacent_other_bar,"[(1163, 770)]",[],[1],[0.48333333333333334],horizontal,"(390.0, 762.0)",0.9666666666666667,0.442,1,3570.242,1,0.0,other
0,279,valid,"[(1157, 783)]",[],[1],[0.5333333333333333],vertical,"(890.0, 262.0)",0.35,0.503,1,3574.991,2,0.0,same
0,280,catch,"[(1160, 792)]",[],[1],[],horizontal,"(390.0, 762.0)",1.7,nan,1,3580.051,2,0.0,same
0,281,catch,"[(1151, 798)]",[],[1],[],horizontal,"(390.0, 762.0)",1.7,nan,1,3585.49,2,0.0,same
0,282,valid,"[(1148, 800)]",[],[1],[0.6333333333333333],vertical,"(890.0, 262.0)",0.7833333333333333,0.591,1,3591.19,3,0.0,same
0,283,valid,"[(1166, 789)]",[],[1],[0.85],vertical,"(890.0, 762.0)",0.7,nan,0,3597.417,0,0.0,same
0,284,valid,"[(1146, 778)]",[],[1],[0.5166666666666666],horizontal,"(390.0, 262.0)",0.7833333333333333,0.473,1,3601.531,1,0.0,same
0,285,valid,"[(1161, 772)]",[],[1],[0.43333333333333335],vertical,"(890.0, 262.0)",1.4666666666666666,0.391,1,3606.313,1,0.0,same
0,286,valid,"[(1177, 809)]",[],[1],[0.6],vertical,"(390.0, 262.0)",1.4333333333333333,0.554,1,3611.806,1,0.0,same
0,287,valid,"[(1174, 796)]",[],[1],[0.5666666666666667],horizontal,"(890.0, 262.0)",1.4666666666666666,0.524,1,3617.632,2,0.0,same
0,288,catch,"[(1165, 803)]",[],[1],[],vertical,"(890.0, 762.0)",1.7,nan,1,3623.689,2,0.0,same
0,289,valid,"[(1180, 778)]",[],[1],[0.5],horizontal,"(890.0, 762.0)",1.25,0.467,1,3628.959,2,0.0,same
0,290,valid,"[(1186, 783)]",[],[1],[0.5],horizontal,"(390.0, 762.0)",1.4666666666666666,0.456,1,3634.876,3,0.0,same
0,291,valid,"[(1180, 788)]",[],[1],[0.5833333333333334],vertical,"(390.0, 762.0)",1.15,0.541,1,3641.192,3,0.0,same
0,292,valid,"[(1176, 786)]",[],[1],[0.5833333333333334],horizontal,"(390.0, 762.0)",1.4,0.541,1,3647.701,3,0.0,same
0,293,valid,"[(1178, 796)]",[],[1],[],horizontal,"(390.0, 762.0)",,"('cti', 0.196)",0,3654.074,0,0.0,same
0,294,valid,"[(1135, 790)]",[],[1],[0.5666666666666667],horizontal,"(890.0, 262.0)",0.4166666666666667,0.524,1,3657.481,1,0.0,same
0,295,valid,"[(1180, 781)]",[],[1],[0.5],horizontal,"(890.0, 762.0)",1.4333333333333333,0.459,1,3661.784,1,0.0,same
0,296,valid,"[(1169, 777)]",[],[1],[0.48333333333333334],vertical,"(890.0, 762.0)",1.45,0.445,1,3667.258,1,0.0,same
0,297,valid,"[(1161, 789)]",[],[1],[0.5],vertical,"(890.0, 262.0)",0.6666666666666666,0.458,1,3672.617,2,0.0,same
0,298,valid,"[(1157, 771)]",[],[1],[0.85],horizontal,"(390.0, 762.0)",1.0833333333333333,nan,0,3677.691,0,0.0,same
0,299,catch,"[(1141, 786)]",[],[1],[],horizontal,"(890.0, 262.0)",1.7,nan,1,3682.542,1,0.0,same
0,300,valid,"[(1151, 778)]",[],[1],[0.5833333333333334],vertical,"(390.0, 262.0)",1.2666666666666666,0.553,1,3688.212,1,0.0,same
0,301,catch,"[(1175, 791)]",[],[1],[],horizontal,"(390.0, 762.0)",,"('cti', 1.676),nan",0,3693.336,0,0.02,same
0,302,catch,"[(1101, 809)]",[],[1],[],horizontal,"(390.0, 262.0)",1.7,nan,1,3698.506,1,0.02,same
0,303,valid,"[(1176, 782)]",[],[1],[0.6],vertical,"(390.0, 762.0)",1.5,0.561,1,3703.819,1,0.02,same
0,304,valid,"[(1177, 790)]",[],[1],[0.5],vertical,"(890.0, 262.0)",1.2,0.456,1,3709.192,1,0.02,same
0,305,valid,"[(1153, 763)]",[],[1],[0.4166666666666667],vertical,"(890.0, 762.0)",1.5333333333333332,0.377,1,3714.293,2,0.02,same
0,306,valid,"[(1153, 777)]",[],[1],[0.43333333333333335],vertical,"(890.0, 262.0)",1.3666666666666667,0.392,1,3720.258,2,0.02,same
0,307,catch,"[(1170, 787)]",[],[1],[],vertical,"(890.0, 262.0)",1.7,nan,1,3726.009,2,0.02,same
0,308,valid,"[(1155, 781)]",[],[1],[0.5],horizontal,"(890.0, 262.0)",0.43333333333333335,0.463,1,3731.801,3,0.02,same
0,309,valid,"[(1153, 772)]",[],[1],[0.45],vertical,"(890.0, 262.0)",0.9,0.408,1,3737.176,3,0.02,same
0,310,valid,"[(1159, 765)]",[],[1],[0.5],vertical,"(390.0, 262.0)",1.0333333333333332,0.461,1,3742.857,3,0.02,same
0,311,invalid_same_bar,"[(1158, 785)]",[],[1],[0.5],horizontal,"(390.0, 262.0)",1.0333333333333332,0.471,1,3748.908,3,0.02,same
0,312,valid,"[(1175, 791)]",[],[1],[0.48333333333333334],vertical,"(890.0, 262.0)",1.45,0.441,1,3754.97,3,0.02,same
0,313,valid,"[(1147, 778)]",[],[1],[0.5],vertical,"(390.0, 762.0)",0.55,0.46,1,3761.242,3,0.02,same
0,314,catch,"[(1171, 771)]",[],[1],[],vertical,"(890.0, 762.0)",1.7,"('cti', 1.686),nan",0,3766.767,0,0.04,same
0,315,catch,"[(1144, 815)]",[],[1],[],vertical,"(390.0, 762.0)",1.7,nan,1,3771.677,1,0.04,same
0,316,valid,"[(1166, 788)]",[],[1],[0.6333333333333333],vertical,"(390.0, 762.0)",1.4333333333333333,0.588,1,3777.04,1,0.04,same
0,317,invalid_adjacent_other_bar,"[(1146, 793)]",[],[1],[0.5666666666666667],vertical,"(390.0, 762.0)",1.3166666666666667,0.521,1,3782.276,1,0.04,other
0,318,valid,"[(1171, 786)]",[],[1],[0.85],vertical,"(390.0, 262.0)",1.25,nan,0,3787.657,0,0.04,same
0,319,catch,"[(1142, 780)]",[],[1],[],vertical,"(390.0, 262.0)",1.7,nan,1,3792.534,1,0.04,same
0,320,catch,"[(1170, 788)]",[],[1],[],horizontal,"(390.0, 762.0)",1.7,nan,1,3797.943,1,0.04,same
0,321,catch,"[(1156, 762)]",[],[1],[],horizontal,"(890.0, 262.0)",1.7,nan,1,3803.182,1,0.04,same
0,322,valid,"[(1163, 775)]",[],[1],[0.55],horizontal,"(390.0, 262.0)",0.65,0.521,1,3808.468,2,0.04,same
0,323,valid,"[(1141, 786)]",[],[1],[0.5333333333333333],horizontal,"(390.0, 762.0)",0.95,0.491,1,3813.584,2,0.04,same
0,324,catch,"[(1153, 753), (1130, 792)]",[],"[0, 1]",[],vertical,"(890.0, 762.0)",1.7,nan,1,3819.156,2,0.04,same
0,325,valid,"[(1160, 789)]",[],[1],[0.85],horizontal,"(390.0, 762.0)",0.5833333333333334,nan,0,3826.76,0,0.04,same
0,326,valid,"[(1136, 766)]",[],[1],[0.5833333333333334],vertical,"(390.0, 262.0)",0.5833333333333334,0.537,1,3831.277,1,0.04,same
0,327,catch,"[(1161, 791)]",[],[1],[],vertical,"(890.0, 762.0)",1.7,nan,1,3835.743,1,0.04,same
0,328,valid,"[(1126, 797)]",[],[1],[0.6333333333333333],horizontal,"(390.0, 262.0)",1.0166666666666666,0.591,1,3840.827,1,0.04,same
0,329,valid,"[(1165, 767)]",[],[1],[0.6666666666666666],vertical,"(390.0, 762.0)",0.5166666666666666,0.619,1,3846.21,2,0.04,same
0,330,catch,"[(1160, 771)]",[],[1],[],vertical,"(890.0, 762.0)",1.7,nan,1,3851.346,2,0.04,same
0,331,valid,"[(1136, 791)]",[],[1],[0.5],vertical,"(890.0, 262.0)",1.0666666666666667,0.456,1,3857.475,2,0.04,same
0,332,valid,"[(1163, 786)]",[],[1],[0.5],vertical,"(890.0, 762.0)",0.55,0.455,1,3863.382,3,0.04,same
0,333,valid,"[(1160, 775)]",[],[1],[0.85],vertical,"(390.0, 762.0)",0.5166666666666666,nan,0,3869.261,0,0.04,same
0,334,catch,"[(1132, 785)]",[],[1],[],horizontal,"(890.0, 262.0)",1.7,nan,1,3873.343,1,0.04,same
0,335,valid,"[(1164, 773)]",[],[1],[0.5833333333333334],horizontal,"(890.0, 262.0)",1.3666666666666667,0.536,1,3878.893,1,0.04,same
0,336,valid,"[(1126, 816)]",[],[1],[0.55],vertical,"(390.0, 762.0)",0.8833333333333333,0.512,1,3884.183,1,0.04,same
0,337,invalid_adjacent_other_bar,"[(1166, 793)]",[],[1],[0.5333333333333333],vertical,"(890.0, 262.0)",0.75,0.49,1,3888.911,2,0.04,other
0,338,catch,"[(1155, 798)]",[],[1],[],horizontal,"(890.0, 262.0)",1.7,nan,1,3894.146,2,0.04,same
0,339,catch,"[(1161, 791)]",[],[1],[],horizontal,"(390.0, 762.0)",1.7,nan,1,3900.033,2,0.04,same
0,340,valid,"[(1168, 811)]",[],[1],[0.4666666666666667],vertical,"(890.0, 762.0)",1.5333333333333332,0.426,1,3905.776,3,0.04,same
0,341,catch,"[(1167, 769)]",[],[1],[],vertical,"(390.0, 262.0)",1.7,nan,1,3911.866,3,0.04,same
0,342,valid,"[(1161, 783)]",[],[1],[0.36666666666666664],horizontal,"(890.0, 262.0)",1.4,0.33,1,3917.933,3,0.04,same
0,343,catch,"[(1177, 755)]",[],[1],[],horizontal,"(390.0, 262.0)",1.7,nan,1,3924.32,3,0.04,same
0,344,valid,"[(1159, 780)]",[],[1],[0.4666666666666667],horizontal,"(890.0, 262.0)",0.6833333333333333,0.425,1,3930.115,3,0.04,same
0,345,catch,"[(1171, 789)]",[],[1],[],vertical,"(390.0, 262.0)",1.7,nan,1,3936.154,3,0.04,same
0,346,valid,"[(1167, 779)]",[],[1],[0.6],horizontal,"(890.0, 262.0)",0.3833333333333333,0.558,1,3942.508,3,0.04,same
0,347,valid,"[(1158, 776)]",[],[1],[0.5],vertical,"(890.0, 262.0)",0.48333333333333334,0.46,1,3947.71,3,0.04,same
0,348,valid,"[(1159, 777)]",[],[1],[0.5666666666666667],horizontal,"(890.0, 262.0)",0.7,0.528,1,3953.026,3,0.04,same
0,349,catch,"[(1175, 791)]",[],[1],[],vertical,"(390.0, 262.0)",1.7,nan,1,3959.075,3,0.04,same
0,350,invalid_same_bar,"[(1163, 782)]",[],[1],[0.48333333333333334],vertical,"(890.0, 262.0)",1.4,0.442,1,3964.726,3,0.04,same
0,351,catch,"[(1176, 768)]",[],[1],[],horizontal,"(390.0, 762.0)",1.7,nan,1,3970.999,3,0.02,same
0,352,invalid_same_bar,"[(1171, 772)]",[],[1],[0.85],vertical,"(390.0, 762.0)",0.4666666666666667,nan,0,3977.088,0,0.02,same
0,353,valid,"[(1135, 779)]",[],[1],[0.5],vertical,"(890.0, 262.0)",1.3833333333333333,0.459,1,3980.993,1,0.02,same
0,354,catch,"[(1161, 797)]",[],[1],[],vertical,"(390.0, 262.0)",1.7,nan,1,3986.51,1,0.02,same
0,355,valid,"[(1157, 766)]",[],[1],[0.5333333333333333],vertical,"(390.0, 262.0)",1.0166666666666666,0.488,1,3991.71,1,0.02,same
0,356,catch,"[(1166, 782)]",[],[1],[],horizontal,"(890.0, 262.0)",1.7,nan,1,3996.931,2,0.02,same
0,357,valid,"[(1082, 805)]",[],[1],[0.5],horizontal,"(890.0, 762.0)",0.7166666666666667,0.461,1,4002.508,2,0.02,same
0,358,catch,"[(1161, 772)]",[],[1],[],horizontal,"(390.0, 262.0)",1.7,nan,1,4008.599,2,0.02,same
0,359,valid,"[(1156, 785)]",[],[1],[0.6],vertical,"(390.0, 262.0)",0.45,0.555,1,4014.385,3,0.02,same
0,360,invalid_adjacent_other_bar,"[(1160, 773)]",[],[1],[0.45],vertical,"(390.0, 262.0)",0.45,0.41,1,4020.185,3,0.02,other
0,361,valid,"[(1151, 781)]",[],[1],[0.48333333333333334],vertical,"(890.0, 762.0)",1.0166666666666666,0.444,1,4025.847,3,0.02,same
0,362,invalid_adjacent_other_bar,"[(1163, 765)]",[],[1],[0.5],horizontal,"(390.0, 262.0)",0.6166666666666667,0.458,1,4031.545,3,0.02,other
0,363,valid,"[(1175, 791)]",[],[1],[0.85],vertical,"(890.0, 762.0)",0.7,nan,0,4037.071,0,0.02,same
0,364,valid,"[(1136, 787)]",[],[1],[0.5166666666666666],vertical,"(890.0, 762.0)",0.9833333333333333,0.477,1,4041.632,1,0.0,same
0,365,valid,"[(1177, 785)]",[],[1],[0.5333333333333333],horizontal,"(890.0, 262.0)",1.1666666666666667,0.492,1,4046.427,1,0.0,same
0,366,valid,"[(1204, 776)]",[],[1],[0.5333333333333333],vertical,"(390.0, 262.0)",1.2,0.5,1,4051.674,1,0.0,same
0,367,valid,"[(1139, 800)]",[],[1],[0.85],horizontal,"(390.0, 762.0)",0.55,nan,0,4057.235,0,0.0,same
0,368,valid,"[(1135, 796)]",[],[1],[0.55],horizontal,"(390.0, 262.0)",1.4333333333333333,0.513,1,4061.442,1,0.0,same
0,369,valid,"[(1160, 764)]",[],[1],[0.5],horizontal,"(890.0, 762.0)",0.8833333333333333,0.46,1,4066.926,1,0.0,same
0,370,valid,"[(1177, 775)]",[],[1],[0.85],vertical,"(890.0, 762.0)",1.2166666666666666,nan,0,4072.227,0,0.0,same
0,371,catch,"[(1142, 788)]",[],[1],[],horizontal,"(890.0, 762.0)",1.7,nan,1,4077.415,1,0.0,same
0,372,valid,"[(1180, 779)]",[],[1],[0.5166666666666666],horizontal,"(890.0, 762.0)",0.7333333333333333,0.479,1,4082.544,1,0.0,same
0,373,valid,"[(1166, 767)]",[],[1],[0.5],vertical,"(890.0, 262.0)",1.4333333333333333,0.46,1,4087.524,1,0.0,same
0,374,valid,"[(1158, 782)]",[],[1],[0.48333333333333334],horizontal,"(890.0, 262.0)",1.1166666666666667,0.444,1,4092.849,2,0.0,same
0,375,catch,"[(1164, 770)]",[],[1],[],horizontal,"(390.0, 262.0)",1.7,nan,1,4098.749,2,0.0,same
0,376,valid,"[(1182, 792)]",[],[1],[0.48333333333333334],vertical,"(890.0, 762.0)",1.1333333333333333,0.44,1,4104.444,2,0.0,same
0,377,valid,"[(1137, 776)]",[],[1],[0.5166666666666666],vertical,"(390.0, 762.0)",0.9,0.472,1,4109.851,3,0.0,same
0,378,valid,"[(1156, 780)]",[],[1],[0.31666666666666665],vertical,"(890.0, 262.0)",1.4333333333333333,0.279,1,4115.931,3,0.0,same
0,379,valid,"[(1169, 776)]",[],[1],[0.5],horizontal,"(390.0, 262.0)",1.5333333333333332,0.454,1,4122.443,3,0.0,same
0,380,valid,"[(1157, 796)]",[],[1],[0.16666666666666666],horizontal,"(390.0, 762.0)",1.4166666666666667,0.133,0,4128.593,0,0.0,same
0,381,valid,"[(1132, 802)]",[],[1],[0.5833333333333334],vertical,"(890.0, 262.0)",0.3833333333333333,0.538,1,4133.476,1,0.0,same
0,382,catch,"[(1160, 801)]",[],[1],[],horizontal,"(390.0, 262.0)",1.7,nan,1,4137.97,1,0.0,same
0,383,catch,"[(1156, 784)]",[],[1],[],vertical,"(890.0, 762.0)",1.7,nan,1,4143.177,1,0.0,same
0,384,valid,"[(1165, 788)]",[],[1],[0.85],horizontal,"(390.0, 762.0)",1.0333333333333332,nan,0,4148.653,0,0.0,same
0,385,invalid_same_bar,"[(1137, 790)]",[],[1],[0.6166666666666667],vertical,"(890.0, 262.0)",0.6666666666666666,0.575,1,4153.694,1,0.0,same
0,386,catch,"[(1166, 783)]",[],[1],[],vertical,"(890.0, 762.0)",1.7,nan,1,4158.408,1,0.0,same
0,387,catch,"[(1158, 764)]",[],[1],[],vertical,"(390.0, 262.0)",1.7,nan,1,4163.695,1,0.0,same
0,388,valid,"[(1141, 791)]",[],[1],[0.6],vertical,"(390.0, 262.0)",0.9666666666666667,0.562,1,4169.167,2,0.0,same
0,389,valid,"[(1162, 758)]",[],[1],[0.6],horizontal,"(390.0, 262.0)",0.6,0.558,1,4174.805,2,0.0,same
0,390,valid,"[(1157, 791)]",[],[1],[0.5833333333333334],horizontal,"(890.0, 762.0)",0.9833333333333333,0.544,1,4180.112,2,0.0,same
0,391,invalid_same_bar,"[(1132, 794)]",[],[1],[0.6833333333333333],horizontal,"(390.0, 762.0)",0.4666666666666667,0.638,1,4186.055,3,0.0,same
0,392,valid,"[(1159, 765)]",[],[1],[0.7166666666666667],vertical,"(390.0, 762.0)",1.0666666666666667,0.672,1,4192.095,3,0.0,same
0,393,invalid_same_bar,"[(1159, 801)]",[],[1],[0.5166666666666666],horizontal,"(890.0, 262.0)",1.0166666666666666,0.473,1,4198.411,3,0.0,same
0,394,catch,"[(1148, 789)]",[],[1],[],horizontal,"(890.0, 762.0)",1.7,nan,1,4204.698,3,0.0,same
0,395,valid,"[(1160, 793)]",[],[1],[0.48333333333333334],horizontal,"(390.0, 762.0)",1.4333333333333333,0.448,1,4210.938,3,0.0,same
0,396,valid,"[(1171, 796)]",[],[1],[0.5333333333333333],horizontal,"(390.0, 762.0)",1.2833333333333332,0.501,1,4217.212,3,0.0,same
0,397,valid,"[(1142, 799)]",[],[1],[0.85],vertical,"(890.0, 762.0)",1.4166666666666667,nan,0,4223.533,0,0.0,same
0,398,valid,"[(1136, 782)]",[],[1],[0.85],horizontal,"(390.0, 762.0)",1.2333333333333334,nan,0,4228.628,0,0.0,same
0,399,catch,"[(1168, 806)]",[],[1],[],vertical,"(390.0, 262.0)",1.7,nan,1,4233.648,1,0.0,same
0,400,invalid_same_bar,"[(1164, 781)]",[],[1],[0.85],horizontal,"(890.0, 262.0)",0.5,nan,0,4239.465,0,0.0,same
0,401,valid,"[(1139, 776)]",[],[1],[0.48333333333333334],vertical,"(390.0, 762.0)",1.4333333333333333,0.447,1,4243.888,1,0.0,same
0,402,valid,"[(1171, 776)]",[],[1],[0.48333333333333334],horizontal,"(390.0, 262.0)",0.6666666666666666,0.445,1,4249.75,1,0.0,same
0,403,valid,"[(1156, 786)]",[],[1],[0.5166666666666666],horizontal,"(890.0, 262.0)",0.5,0.477,1,4254.457,1,0.0,same
0,404,valid,"[(1159, 782)]",[],[1],[0.85],horizontal,"(890.0, 762.0)",1.1333333333333333,nan,0,4258.842,0,0.0,same
0,405,valid,"[(1085, 840)]",[],[1],[0.5333333333333333],vertical,"(390.0, 262.0)",0.9,0.49,1,4263.459,1,0.0,same
0,406,valid,"[(1129, 801)]",[],[1],[0.85],horizontal,"(390.0, 262.0)",0.3833333333333333,nan,0,4719.757,0,0.0,same
0,407,valid,"[(1145, 806)]",[],[1],[0.85],vertical,"(390.0, 262.0)",1.4,nan,0,4724.23,0,0.0,same
0,408,valid,"[(1121, 809)]",[],[1],[0.85],horizontal,"(390.0, 762.0)",1.2333333333333334,nan,0,4730.271,0,0.0,same
0,409,catch,"[(1129, 786)]",[],[1],[],vertical,"(390.0, 762.0)",1.7,nan,1,4737.98,1,0.0,same
0,410,invalid_same_bar,"[(1179, 795)]",[],[1],[0.85],vertical,"(390.0, 262.0)",0.6666666666666666,nan,0,4743.365,0,0.0,same
0,411,valid,"[(1118, 812)]",[],[1],[0.5166666666666666],vertical,"(890.0, 262.0)",0.9666666666666667,0.473,1,4747.652,1,0.0,same
0,412,catch,"[(1158, 785)]",[],[1],[],vertical,"(390.0, 262.0)",1.7,nan,1,4753.046,1,0.0,same
0,413,invalid_adjacent_other_bar,"[(1162, 783)]",[],[1],[0.5666666666666667],horizontal,"(890.0, 762.0)",1.2666666666666666,0.529,1,4757.929,1,0.0,other
0,414,valid,"[(1159, 811)]",[],[1],[0.5666666666666667],vertical,"(890.0, 262.0)",0.8666666666666667,0.52,1,4763.318,2,0.0,same
0,415,catch,"[(1161, 788)]",[],[1],[],vertical,"(390.0, 762.0)",1.7,nan,1,4768.557,2,0.0,same
0,416,valid,"[(1171, 793)]",[],[1],[0.55],horizontal,"(890.0, 762.0)",1.1333333333333333,0.509,1,4773.896,2,0.0,same
0,417,valid,"[(1166, 786)]",[],[1],[0.85],vertical,"(390.0, 762.0)",0.9666666666666667,nan,0,4779.515,0,0.0,same
0,418,valid,"[(1131, 817)]",[],[1],[0.85],vertical,"(390.0, 762.0)",0.5166666666666666,nan,0,4784.571,0,0.0,same
0,419,catch,"[(1141, 811)]",[],[1],[],horizontal,"(890.0, 262.0)",1.7,nan,1,4789.297,1,0.0,same
0,420,valid,"[(1148, 808)]",[],[1],[0.48333333333333334],horizontal,"(390.0, 762.0)",0.9,0.446,1,4794.422,1,0.0,same
0,421,valid,"[(1185, 813)]",[],[1],[0.5166666666666666],vertical,"(890.0, 762.0)",0.6166666666666667,0.481,1,4799.046,1,0.0,same
0,422,valid,"[(1179, 793)]",[],[1],[0.6],horizontal,"(390.0, 762.0)",1.1666666666666667,0.568,1,4803.836,2,0.0,same
0,423,valid,"[(1195, 810)]",[],[1],[0.6833333333333333],vertical,"(890.0, 762.0)",1.0833333333333333,0.645,1,4809.305,2,0.0,same
0,424,valid,"[(1162, 764)]",[],[1],[0.48333333333333334],vertical,"(890.0, 762.0)",1.3166666666666667,0.441,1,4814.996,2,0.0,same
0,425,valid,"[(1161, 769)]",[],[1],[0.5],horizontal,"(890.0, 762.0)",0.7666666666666666,0.46,1,4820.743,3,0.0,same
0,426,valid,"[(1183, 777)]",[],[1],[0.4666666666666667],vertical,"(390.0, 762.0)",0.45,0.425,1,4826.67,3,0.0,same
0,427,invalid_adjacent_other_bar,"[(1164, 769)]",[],[1],[0.5833333333333334],horizontal,"(890.0, 262.0)",1.35,0.542,1,4832.044,3,0.0,other
0,428,valid,"[(1166, 775)]",[],[1],[0.4666666666666667],vertical,"(890.0, 262.0)",0.9833333333333333,0.434,1,4838.247,3,0.0,same
0,429,catch,"[(1157, 776)]",[],[1],[],vertical,"(390.0, 262.0)",1.7,nan,1,4843.907,3,0.0,same
0,430,valid,"[(1179, 790)]",[],[1],[0.6166666666666667],horizontal,"(890.0, 262.0)",1.35,0.582,1,4849.632,3,0.0,same
0,431,valid,"[(1157, 782)]",[],[1],[0.5],vertical,"(890.0, 262.0)",0.35,0.463,1,4855.518,3,0.0,same
0,432,valid,"[(1160, 797)]",[],[1],[0.6],horizontal,"(390.0, 262.0)",0.5,0.565,1,4860.543,3,0.0,same
0,433,valid,"[(1133, 817)]",[],[1],[0.4666666666666667],vertical,"(890.0, 762.0)",1.3333333333333333,0.426,1,4865.578,3,0.0,same
0,434,valid,"[(1156, 767)]",[],[1],[0.5333333333333333],vertical,"(390.0, 262.0)",1.4166666666666667,0.493,1,4872.297,3,0.0,same
0,435,valid,"[(1160, 765)]",[],[1],[0.6166666666666667],vertical,"(890.0, 762.0)",0.8,0.576,1,4878.777,3,0.0,same
0,436,catch,"[(1182, 774)]",[],[1],[],horizontal,"(390.0, 762.0)",1.7,nan,1,4884.044,3,0.0,same
0,437,invalid_same_bar,"[(1180, 789)]",[],[1],[0.5],horizontal,"(390.0, 262.0)",1.1333333333333333,0.463,1,4890.232,3,0.0,same
0,438,catch,"[(1160, 781)]",[],[1],[],vertical,"(890.0, 262.0)",1.7,nan,1,4895.879,3,0.0,same
0,439,valid,"[(1159, 782)]",[],[1],[0.85],vertical,"(890.0, 262.0)",0.5333333333333333,nan,0,4901.847,0,0.0,same
0,440,valid,"[(1124, 860)]",[],[1],[0.48333333333333334],vertical,"(890.0, 762.0)",0.5166666666666666,0.448,1,4906.113,1,0.0,same
0,441,catch,"[(1157, 778)]",[],[1],[],vertical,"(890.0, 762.0)",1.7,nan,1,5247.497,1,0.0,same
0,442,invalid_adjacent_other_bar,"[(1172, 781)]",[],[1],[0.85],horizontal,"(890.0, 762.0)",0.7833333333333333,nan,0,5252.499,0,0.0,other
0,443,valid,"[(1139, 789)]",[],[1],[0.85],vertical,"(390.0, 762.0)",0.65,nan,0,5257.353,0,0.0,same
0,444,valid,"[(1163, 806)]",[],[1],[0.5333333333333333],horizontal,"(390.0, 262.0)",1.0666666666666667,0.496,1,5261.588,1,0.0,same
0,445,valid,"[(1180, 777)]",[],[1],[0.55],vertical,"(390.0, 262.0)",0.43333333333333335,0.508,1,5266.406,1,0.0,same
0,446,catch,"[(1180, 793)]",[],[1],[],horizontal,"(390.0, 762.0)",1.7,nan,1,5270.596,1,0.0,same
0,447,valid,"[(1159, 774)]",[],[1],[0.5166666666666666],horizontal,"(390.0, 262.0)",0.9166666666666666,0.482,1,5275.382,2,0.0,same
0,448,catch,"[(1160, 780)]",[],[1],[],horizontal,"(890.0, 762.0)",1.7,nan,1,5280.443,2,0.0,same
0,449,valid,"[(1177, 763)]",[],[1],[0.5],horizontal,"(390.0, 262.0)",0.5833333333333334,0.463,1,5285.993,2,0.0,same
0,450,valid,"[(1174, 769)]",[],[1],[0.6666666666666666],horizontal,"(390.0, 262.0)",0.6,0.627,1,5291.081,3,0.0,same
