block,practice,trial,change_interval_s,change_interval_frames,taps_start_time_during_fix,taps_end_time_during_fix,taps_start_loc_during_fix,taps_end_loc_during_fix,taps_on_lever_during_fix,taps_on_lever_frame_during_fix,taps_on_lever_s_during_fix,fix_xy,bar_orientation,target_xy,rt,acc,time
1,True,1,0.713,42,[],[310350],"[(1128, 889)]","[(1095, 928)]",[1],[34],[0.5666666666666667],"[640.0, 512.0]",horizontal,"(890.0, 262.0)",[0],0,0.362
1,True,2,0.325,19,[],[],"[(1158, 896)]",[],[1],[56],[0.9333333333333333],"[640.0, 512.0]",horizontal,"(390.0, 262.0)",[0.592],1,279.014
1,True,3,1.317,79,[],[],"[(1127, 918)]",[],[1],[90],[1.5],"[640.0, 512.0]",vertical,"(390.0, 762.0)",[0.165],1,281.43
1,True,4,1.495,89,[],[],"[(1122, 909)]",[],[1],[117],[1.95],"[640.0, 512.0]",vertical,"(390.0, 262.0)",[0.445],1,284.545
1,False,1,1.14,68,[],[],"[(1127, 938)]",[],[1],[87],[1.45],"[640.0, 512.0]",vertical,"(890.0, 762.0)",[0.301],1,288.005
1,False,2,1.42,85,[],[364761],"[(1139, 850)]","[(1128, 931)]",[1],[76],[1.2666666666666666],"[640.0, 512.0]",horizontal,"(390.0, 262.0)",[0],0,291.695
1,False,3,0.716,42,[],[],"[(1123, 881)]",[],[1],[92],[1.5333333333333332],"[640.0, 512.0]",horizontal,"(390.0, 762.0)",[0.803],0,333.431
1,False,4,0.755,45,[],[],"[(1153, 938)]",[],[1],[93],[1.55],"[640.0, 512.0]",horizontal,"(390.0, 762.0)",[0.773],1,348.109
1,False,5,1.256,75,[],[],"[(1123, 922)]",[],[1],[92],[1.5333333333333332],"[640.0, 512.0]",horizontal,"(390.0, 262.0)",[0.269],1,351.254
1,False,6,0.867,52,[],[],"[(1109, 922)]",[],[1],[102],[1.7],"[640.0, 512.0]",vertical,"(390.0, 262.0)",[0.818],0,360.059
1,False,7,1.274,76,[],[],"[(1131, 898)]",[],[1],[103],[1.7166666666666666],"[640.0, 512.0]",vertical,"(890.0, 762.0)",[0.43],1,363.532
1,False,8,0.493,29,[],[],"[(1102, 872)]",[],[1],[46],[0.7666666666666666],"[640.0, 512.0]",vertical,"(390.0, 762.0)",[0.268],1,376.263
1,False,9,0.34,20,[],[],"[(1131, 898)]",[],[1],[48],[0.8],"[640.0, 512.0]",horizontal,"(390.0, 262.0)",[0.443],1,379.329
1,False,10,1.31,78,[],[416372],"[(1131, 909)]","[(1116, 930)]",[1],[49],[0.8166666666666667],"[640.0, 512.0]",horizontal,"(390.0, 262.0)",[0],0,382.532
1,False,11,0.311,18,[],[],"[(1157, 889)]",[],[1],[48],[0.8],"[640.0, 512.0]",horizontal,"(890.0, 262.0)",[0.487],1,385.048
1,False,12,1.482,88,[],[428325],"[(692, 816), (683, 849), (712, 895), (658, 909), (850, 652), (575, 726), (1083, 951), (753, 922), (786, 583), (804, 450), (785, 993), (751, 1020), (706, 559), (1117, 929)]","[(1078, 934)]","[0, 0, 0, 0, 0, 0, 0, 0, 0, 0, 0, 0, 0, 1]",[40],[0.6666666666666666],"[640.0, 512.0]",horizontal,"(390.0, 762.0)",[0],0,388.413
1,False,13,0.554,33,[],[],"[(804, 833), (931, 838), (834, 853), (824, 854), (746, 799), (673, 568), (1135, 908)]",[],"[0, 0, 0, 0, 0, 0, 1]",[57],[0.95],"[640.0, 512.0]",vertical,"(390.0, 762.0)",[0.382],1,397.014
1,False,14,0.871,52,[],[434467],"[(736, 675), (1108, 888)]","[(1099, 949)]","[0, 1]",[23],[0.3833333333333333],"[640.0, 512.0]",vertical,"(890.0, 762.0)",[0],0,400.719
1,False,15,0.358,21,[],[],"[(693, 1020), (1127, 903)]",[],"[0, 1]",[64],[1.0666666666666667],"[640.0, 512.0]",vertical,"(890.0, 262.0)",[0.712],1,403.171
1,False,16,0.34,20,[],[],"[(1147, 924)]",[],[1],[48],[0.8],"[640.0, 512.0]",vertical,"(390.0, 262.0)",[0.455],1,407.104
1,False,17,0.889,53,[],[455300],"[(734, 1023), (765, 917), (673, 937), (657, 735), (809, 790), (736, 803), (1119, 953), (1122, 920)]","[(1109, 941)]","[0, 0, 0, 0, 0, 0, 0, 1]",[47],[0.7833333333333333],"[640.0, 512.0]",vertical,"(390.0, 762.0)",[0],0,409.442
1,False,18,0.93,55,[],[460773],"[(1108, 927)]","[(1102, 946)]",[1],[43],[0.7166666666666667],"[640.0, 512.0]",vertical,"(890.0, 762.0)",[0],0,423.981
1,False,19,1.433,85,[],[464847],"[(712, 898), (1044, 944)]","[(657, 981)]","[0, 1]",[83],[1.3833333333333333],"[640.0, 512.0]",horizontal,"(390.0, 762.0)",[0],0,429.455
1,False,20,1.451,87,[],[],"[(1074, 920)]",[],[1],[137],[2.283333333333333],"[640.0, 512.0]",vertical,"(390.0, 762.0)",[0.803],0,433.528
1,False,21,0.329,19,[],[],"[(1151, 957), (1114, 921)]",[],"[0, 1]",[51],[0.85],"[640.0, 512.0]",vertical,"(390.0, 262.0)",[0.507],1,437.893
1,False,22,1.379,82,[],[475634],"[(1137, 934)]","[(1137, 934)]",[1],[4],[0.06666666666666667],"[640.0, 512.0]",horizontal,"(890.0, 762.0)",[0],0,442.583
1,False,23,0.314,18,[],[],"[(1132, 899)]",[],[1],[58],[0.9666666666666667],"[640.0, 512.0]",vertical,"(390.0, 262.0)",[0.642],1,444.317
1,False,24,1.045,62,[],[480306],"[(1101, 939)]","[(1088, 958)]",[1],[34],[0.5666666666666667],"[640.0, 512.0]",horizontal,"(390.0, 762.0)",[0],0,446.779
1,False,25,1.367,82,[],[493934],"[(575, 974), (585, 983), (1105, 930)]","[(1066, 948)]","[0, 0, 1]",[52],[0.8666666666666667],"[640.0, 512.0]",horizontal,"(390.0, 762.0)",[0],0,448.996
1,False,26,1.376,82,[],[],"[(1126, 898)]",[],[1],[132],[2.2],"[640.0, 512.0]",horizontal,"(390.0, 762.0)",[0.808],0,462.616
1,False,27,0.979,58,[],[],"[(1133, 902)]",[],[1],[78],[1.3],"[640.0, 512.0]",vertical,"(390.0, 262.0)",[0.31],1,466.36
1,False,28,1.176,70,[],[],"[(1128, 932)]",[],[1],[84],[1.4],"[640.0, 512.0]",vertical,"(890.0, 762.0)",[0.212],1,469.176
1,False,29,0.937,56,[],[],"[(1133, 922)]",[],[1],[71],[1.1833333333333333],"[640.0, 512.0]",vertical,"(890.0, 762.0)",[0.23],1,472.046
1,False,30,0.426,25,[],[],"[(1123, 918)]",[],[1],[75],[1.25],"[640.0, 512.0]",horizontal,"(390.0, 262.0)",[0.808],0,474.736
1,False,31,1.297,77,[],[512126],"[(1063, 946)]","[(1068, 937)]",[1],[73],[1.2166666666666666],"[640.0, 512.0]",vertical,"(890.0, 762.0)",[0],0,477.492
1,False,32,0.301,18,[],[],"[(1127, 902)]",[],[1],[68],[1.1333333333333333],"[640.0, 512.0]",horizontal,"(390.0, 762.0)",[0.816],0,480.821
1,False,33,1.202,72,[],[],"[(1127, 898)]",[],[1],[122],[2.033333333333333],"[640.0, 512.0]",vertical,"(890.0, 762.0)",[0.828],0,483.523
1,False,34,1.147,68,[],[],"[(1102, 895)]",[],[1],[118],[1.9666666666666666],"[640.0, 512.0]",vertical,"(890.0, 262.0)",[0.826],0,487.134
1,False,35,1.24,74,[],[],"[(718, 853), (1097, 930)]",[],"[0, 1]",[124],[2.0666666666666664],"[640.0, 512.0]",vertical,"(390.0, 762.0)",[0.822],0,492.485
1,False,36,1.045,62,[],[],"[(1146, 932)]",[],[1],[112],[1.8666666666666667],"[640.0, 512.0]",horizontal,"(890.0, 262.0)",[0.826],0,507.5
1,False,37,0.333,19,[],[],"[(663, 893), (1085, 931)]",[],"[0, 1]",[69],[1.15],"[640.0, 512.0]",horizontal,"(890.0, 262.0)",[0.827],0,510.927
1,False,38,1.197,71,[],[],"[(1034, 1015), (1137, 930)]",[],"[0, 1]",[84],[1.4],"[640.0, 512.0]",vertical,"(390.0, 762.0)",[0.201],1,524.011
1,False,39,1.039,62,[],[563538],"[(1127, 911)]","[(1098, 935)]",[1],[52],[0.8666666666666667],"[640.0, 512.0]",vertical,"(890.0, 262.0)",[0],0,529.846
1,False,40,0.918,55,[],[],"[(1139, 915)]",[],[1],[105],[1.75],"[640.0, 512.0]",horizontal,"(890.0, 762.0)",[0.815],0,532.223
1,False,41,0.581,34,[],[],"[(1100, 954), (1083, 915)]",[],"[0, 1]",[84],[1.4],"[640.0, 512.0]",horizontal,"(390.0, 262.0)",[0.814],0,535.578
1,False,42,0.999,59,[],[],"[(1112, 888)]",[],[1],[73],[1.2166666666666666],"[640.0, 512.0]",vertical,"(890.0, 262.0)",[0.213],1,539.903
1,False,43,0.869,52,[],[],"[(1131, 919)]",[],[1],[60],[1.0],"[640.0, 512.0]",horizontal,"(890.0, 262.0)",[0.117],1,546.306
1,False,44,0.854,51,[],[],"[(1126, 910)]",[],[1],[73],[1.2166666666666666],"[640.0, 512.0]",vertical,"(890.0, 262.0)",[0.347],1,548.8
1,False,45,0.98,58,[],[],"[(1101, 919)]",[],[1],[82],[1.3666666666666667],"[640.0, 512.0]",horizontal,"(390.0, 762.0)",[0.383],1,551.504
1,False,46,1.167,70,[],[],"[(1137, 904)]",[],[1],[84],[1.4],"[640.0, 512.0]",vertical,"(390.0, 762.0)",[0.217],1,554.591
1,False,47,1.428,85,[],[],"[(1119, 902)]",[],[1],[116],[1.9333333333333333],"[640.0, 512.0]",horizontal,"(390.0, 262.0)",[0.495],1,557.463
1,False,48,0.432,25,[],[],"[(1094, 916)]",[],[1],[60],[1.0],"[640.0, 512.0]",horizontal,"(390.0, 262.0)",[0.571],1,560.867
1,False,49,0.813,48,[],[],"[(1135, 918)]",[],[1],[76],[1.2666666666666666],"[640.0, 512.0]",horizontal,"(890.0, 262.0)",[0.445],1,563.702
1,False,50,0.932,55,[],[],"[(1127, 907)]",[],[1],[91],[1.5166666666666666],"[640.0, 512.0]",vertical,"(890.0, 262.0)",[0.573],1,566.411
1,False,51,0.396,23,[],[],"[(1093, 914)]",[],[1],[54],[0.9],"[640.0, 512.0]",vertical,"(390.0, 262.0)",[0.498],1,569.435
1,False,52,1.289,77,[],[],"[(1126, 911)]",[],[1],[100],[1.6666666666666667],"[640.0, 512.0]",vertical,"(390.0, 762.0)",[0.363],1,571.868
1,False,53,0.364,21,[],[],"[(1118, 912)]",[],[1],[53],[0.8833333333333333],"[640.0, 512.0]",vertical,"(390.0, 762.0)",[0.508],1,575.259
1,False,54,1.21,72,[],[617059],"[(847, 912), (1109, 914)]","[(1096, 924)]","[0, 1]",[70],[1.1666666666666667],"[640.0, 512.0]",horizontal,"(890.0, 762.0)",[0],0,577.634
1,False,55,0.585,35,[],[],"[(1097, 917)]",[],[1],[85],[1.4166666666666667],"[640.0, 512.0]",vertical,"(390.0, 762.0)",[0.807],0,585.75
1,False,56,0.506,30,[],[],"[(1151, 907)]",[],[1],[61],[1.0166666666666666],"[640.0, 512.0]",horizontal,"(890.0, 262.0)",[0.495],1,589.965
1,False,57,1.042,62,[],[],"[(1093, 915)]",[],[1],[88],[1.4666666666666666],"[640.0, 512.0]",vertical,"(890.0, 262.0)",[0.415],1,592.48
1,False,58,0.996,59,[],[],"[(1124, 910)]",[],[1],[85],[1.4166666666666667],"[640.0, 512.0]",horizontal,"(390.0, 262.0)",[0.414],1,595.472
1,False,59,0.482,28,[],[],"[(1093, 905)]",[],[1],[78],[1.3],"[640.0, 512.0]",horizontal,"(390.0, 262.0)",[0.811],0,598.359
1,False,60,1.471,88,[],[636215],"[(1106, 917)]","[(1094, 926)]",[1],[79],[1.3166666666666667],"[640.0, 512.0]",vertical,"(390.0, 762.0)",[0],0,601.175
2,False,61,0.793,47,[],[],"[(1142, 914)]",[],[1],[77],[1.2833333333333332],"[640.0, 512.0]",horizontal,"(390.0, 262.0)",[0.473],1,604.898
2,False,62,1.092,65,[],[],"[(1136, 903)]",[],[1],[94],[1.5666666666666667],"[640.0, 512.0]",horizontal,"(390.0, 262.0)",[0.462],1,607.741
2,False,63,0.77,46,[],[],"[(1126, 919)]",[],[1],[77],[1.2833333333333332],"[640.0, 512.0]",horizontal,"(390.0, 762.0)",[0.496],1,610.812
2,False,64,0.776,46,[],[],"[(1127, 905)]",[],[1],[77],[1.2833333333333332],"[640.0, 512.0]",horizontal,"(390.0, 762.0)",[0.492],1,613.584
2,False,65,0.592,35,[],[],"[(1137, 926)]",[],[1],[85],[1.4166666666666667],"[640.0, 512.0]",horizontal,"(390.0, 762.0)",[0.803],0,616.359
2,False,66,1.306,78,[],[],"[(1122, 920)]",[],[1],[128],[2.1333333333333333],"[640.0, 512.0]",vertical,"(390.0, 762.0)",[0.808],0,619.222
2,False,67,1.262,75,[],[656919],"[(1166, 901)]","[(1128, 914)]",[1],[72],[1.2],"[640.0, 512.0]",vertical,"(390.0, 262.0)",[0],0,622.874
2,False,68,1.175,70,[],[],"[(1117, 904)]",[],[1],[97],[1.6166666666666667],"[640.0, 512.0]",vertical,"(390.0, 762.0)",[0.428],1,625.598
2,False,69,0.73,43,[],[],"[(1129, 904)]",[],[1],[69],[1.15],"[640.0, 512.0]",vertical,"(390.0, 762.0)",[0.41],1,628.787
2,False,70,0.744,44,[],[],"[(1093, 919)]",[],[1],[77],[1.2833333333333332],"[640.0, 512.0]",horizontal,"(890.0, 762.0)",[0.53],1,631.38
2,False,71,0.866,51,[],[],"[(1082, 918)]",[],[1],[77],[1.2833333333333332],"[640.0, 512.0]",vertical,"(390.0, 762.0)",[0.413],1,634.173
2,False,72,1.041,62,[],[],"[(1126, 910)]",[],[1],[89],[1.4833333333333334],"[640.0, 512.0]",horizontal,"(890.0, 262.0)",[0.427],1,637.002
2,False,73,1.47,88,[],[],"[(1088, 913)]",[],[1],[103],[1.7166666666666666],"[640.0, 512.0]",vertical,"(890.0, 262.0)",[0.231],1,639.966
2,False,74,1.046,62,[],[],"[(1122, 910)]",[],[1],[93],[1.55],"[640.0, 512.0]",vertical,"(390.0, 762.0)",[0.495],1,643.185
2,False,75,0.472,28,[],[],"[(1135, 913)]",[],[1],[61],[1.0166666666666666],"[640.0, 512.0]",horizontal,"(890.0, 762.0)",[0.532],1,646.243
2,False,76,1.378,82,[],[683003],"[(1131, 911)]","[(1104, 924)]",[1],[78],[1.3],"[640.0, 512.0]",horizontal,"(890.0, 762.0)",[0],0,648.815
2,False,77,0.53,31,[],[],"[(1132, 922)]",[],[1],[64],[1.0666666666666667],"[640.0, 512.0]",vertical,"(390.0, 262.0)",[0.527],1,651.68
2,False,78,1.489,89,[],[],"[(1124, 907)]",[],[1],[113],[1.8833333333333333],"[640.0, 512.0]",horizontal,"(890.0, 262.0)",[0.377],1,655.012
2,False,79,1.177,70,[],[],"[(1128, 905)]",[],[1],[101],[1.6833333333333333],"[640.0, 512.0]",horizontal,"(890.0, 762.0)",[0.496],1,658.385
2,False,80,0.579,34,[],[],"[(1116, 906)]",[],[1],[66],[1.1],"[640.0, 512.0]",horizontal,"(890.0, 762.0)",[0.514],1,661.551
2,False,81,0.932,55,[],[],"[(1122, 902)]",[],[1],[87],[1.45],"[640.0, 512.0]",vertical,"(890.0, 262.0)",[0.51],1,664.174
2,False,82,0.857,51,[],[],"[(1135, 900)]",[],[1],[96],[1.6],"[640.0, 512.0]",horizontal,"(890.0, 262.0)",[0.721],1,667.095
2,False,83,1.45,87,[],[],"[(1130, 916)]",[],[1],[126],[2.1],"[640.0, 512.0]",horizontal,"(390.0, 262.0)",[0.627],1,670.209
2,False,84,1.3,78,[],[],"[(1127, 913)]",[],[1],[101],[1.6833333333333333],"[640.0, 512.0]",vertical,"(390.0, 762.0)",[0.361],1,673.861
2,False,85,0.354,21,[],[],"[(1135, 924)]",[],[1],[55],[0.9166666666666666],"[640.0, 512.0]",vertical,"(390.0, 262.0)",[0.545],1,677.141
2,False,86,0.479,28,[],[],"[(1136, 905)]",[],[1],[66],[1.1],"[640.0, 512.0]",horizontal,"(390.0, 762.0)",[0.616],1,679.594
2,False,87,0.531,31,[],[],"[(1131, 914)]",[],[1],[62],[1.0333333333333332],"[640.0, 512.0]",vertical,"(390.0, 262.0)",[0.49],1,682.236
2,False,88,0.879,52,[],[],"[(1142, 912)]",[],[1],[82],[1.3666666666666667],"[640.0, 512.0]",vertical,"(390.0, 762.0)",[0.485],1,684.763
2,False,89,0.988,59,[],[],"[(1122, 902)]",[],[1],[86],[1.4333333333333333],"[640.0, 512.0]",vertical,"(390.0, 762.0)",[0.431],1,687.65
2,False,90,0.877,52,[],[],"[(1144, 910)]",[],[1],[80],[1.3333333333333333],"[640.0, 512.0]",horizontal,"(890.0, 262.0)",[0.442],1,690.568
2,False,91,1.049,62,[],[],"[(1130, 915)]",[],[1],[91],[1.5166666666666666],"[640.0, 512.0]",vertical,"(890.0, 262.0)",[0.455],1,693.39
2,False,92,0.971,58,[],[],"[(1130, 910)]",[],[1],[88],[1.4666666666666666],"[640.0, 512.0]",horizontal,"(890.0, 762.0)",[0.48],1,696.427
2,False,93,1.278,76,[],[],"[(1126, 918)]",[],[1],[98],[1.6333333333333333],"[640.0, 512.0]",horizontal,"(890.0, 762.0)",[0.341],1,699.378
2,False,94,0.498,29,[],[],"[(1131, 901)]",[],[1],[76],[1.2666666666666666],"[640.0, 512.0]",horizontal,"(890.0, 762.0)",[0.762],1,702.547
2,False,95,1.355,81,[],[],"[(1139, 937)]",[],[1],[107],[1.7833333333333332],"[640.0, 512.0]",vertical,"(390.0, 762.0)",[0.414],1,705.308
2,False,96,0.552,33,[],[],"[(1127, 910)]",[],[1],[64],[1.0666666666666667],"[640.0, 512.0]",horizontal,"(390.0, 762.0)",[0.492],1,708.668
2,False,97,1.417,85,[],[],"[(1117, 902)]",[],[1],[113],[1.8833333333333333],"[640.0, 512.0]",vertical,"(390.0, 262.0)",[0.445],1,711.2
2,False,98,0.903,54,[],[],"[(1137, 918)]",[],[1],[98],[1.6333333333333333],"[640.0, 512.0]",horizontal,"(890.0, 762.0)",[0.703],1,714.574
2,False,99,1.239,74,[],[],"[(1131, 921)]",[],[1],[99],[1.65],"[640.0, 512.0]",vertical,"(390.0, 262.0)",[0.394],1,717.697
2,False,100,0.804,48,[],[],"[(1117, 911)]",[],[1],[78],[1.3],"[640.0, 512.0]",vertical,"(390.0, 762.0)",[0.48],1,720.876
2,False,101,1.104,66,[],[],"[(1102, 917)]",[],[1],[69],[1.15],"[640.0, 512.0]",horizontal,"(390.0, 262.0)",[0.035],1,723.711
2,False,102,0.63,37,[],[],"[(1137, 920)]",[],[1],[59],[0.9833333333333333],"[640.0, 512.0]",vertical,"(890.0, 262.0)",[0.352],1,737.947
2,False,103,1.446,86,[],[774441],"[(1113, 903)]","[(1089, 924)]",[1],[64],[1.0666666666666667],"[640.0, 512.0]",vertical,"(390.0, 262.0)",[0],0,740.491
2,False,104,0.936,56,[],[],"[(1130, 914)]",[],[1],[80],[1.3333333333333333],"[640.0, 512.0]",horizontal,"(390.0, 762.0)",[0.381],1,743.129
2,False,105,1.253,75,[],[],"[(1122, 907)]",[],[1],[99],[1.65],"[640.0, 512.0]",horizontal,"(890.0, 262.0)",[0.381],1,746.016
2,False,106,0.718,43,[],[],"[(1127, 907)]",[],[1],[74],[1.2333333333333334],"[640.0, 512.0]",horizontal,"(890.0, 262.0)",[0.492],1,749.172
2,False,107,0.455,27,[],[],"[(1128, 915)]",[],[1],[58],[0.9666666666666667],"[640.0, 512.0]",horizontal,"(890.0, 762.0)",[0.494],1,751.917
2,False,108,0.653,39,[],[],"[(1123, 913)]",[],[1],[68],[1.1333333333333333],"[640.0, 512.0]",horizontal,"(390.0, 262.0)",[0.455],1,754.38
2,False,109,0.4,24,[],[],"[(1131, 902)]",[],[1],[64],[1.0666666666666667],"[640.0, 512.0]",horizontal,"(890.0, 762.0)",[0.644],1,757.06
2,False,110,0.413,24,[],[],"[(1104, 908)]",[],[1],[56],[0.9333333333333333],"[640.0, 512.0]",horizontal,"(890.0, 762.0)",[0.511],1,759.649
2,False,111,1.441,86,[],[796461],"[(1131, 935)]","[(1095, 941)]",[1],[84],[1.4],"[640.0, 512.0]",vertical,"(890.0, 762.0)",[0],0,762.084
2,False,112,1.392,83,[],[],"[(1100, 922)]",[],[1],[90],[1.5],"[640.0, 512.0]",vertical,"(890.0, 762.0)",[0.1],1,765.143
2,False,113,0.579,34,[],[],"[(1130, 918)]",[],[1],[77],[1.2833333333333332],"[640.0, 512.0]",vertical,"(390.0, 762.0)",[0.685],1,768.693
2,False,114,0.928,55,[],[],"[(1124, 909)]",[],[1],[85],[1.4166666666666667],"[640.0, 512.0]",horizontal,"(390.0, 262.0)",[0.478],1,771.523
2,False,115,0.767,46,[],[],"[(1131, 914)]",[],[1],[76],[1.2666666666666666],"[640.0, 512.0]",vertical,"(890.0, 262.0)",[0.479],1,774.471
2,False,116,0.498,29,[],[],"[(1115, 912)]",[],[1],[74],[1.2333333333333334],"[640.0, 512.0]",vertical,"(890.0, 262.0)",[0.723],1,777.26
2,False,117,0.918,55,[],[],"[(1128, 904)]",[],[1],[81],[1.35],"[640.0, 512.0]",horizontal,"(390.0, 262.0)",[0.409],1,780.155
2,False,118,1.072,64,[],[],"[(1127, 915)]",[],[1],[97],[1.6166666666666667],"[640.0, 512.0]",vertical,"(390.0, 262.0)",[0.527],1,783.032
2,False,119,0.985,59,[],[],"[(1122, 914)]",[],[1],[88],[1.4666666666666666],"[640.0, 512.0]",horizontal,"(890.0, 762.0)",[0.46],1,786.106
2,False,120,1.109,66,[],[],"[(1136, 893)]",[],[1],[70],[1.1666666666666667],"[640.0, 512.0]",vertical,"(890.0, 762.0)",[0.049],1,789.051
3,False,121,0.81,48,[],[],"[(1122, 920)]",[],[1],[81],[1.35],"[640.0, 512.0]",vertical,"(390.0, 762.0)",[0.526],1,791.724
3,False,122,1.203,72,[],[],"[(1132, 919)]",[],[1],[111],[1.8499999999999999],"[640.0, 512.0]",horizontal,"(890.0, 262.0)",[0.625],1,794.646
3,False,123,0.989,59,[],[852951],"[(1131, 893)]","[(1093, 919)]",[1],[52],[0.8666666666666667],"[640.0, 512.0]",vertical,"(390.0, 762.0)",[0],0,797.96
3,False,124,0.829,49,[],[],"[(1105, 927)]",[],[1],[72],[1.2],"[640.0, 512.0]",horizontal,"(890.0, 262.0)",[0.36],1,821.634
3,False,125,0.805,48,[],[],"[(1112, 906)]",[],[1],[76],[1.2666666666666666],"[640.0, 512.0]",horizontal,"(890.0, 262.0)",[0.446],1,824.476
3,False,126,0.353,21,[],[],"[(1109, 910)]",[],[1],[59],[0.9833333333333333],"[640.0, 512.0]",horizontal,"(890.0, 262.0)",[0.607],1,827.261
3,False,127,0.757,45,[],[],"[(1127, 920)]",[],[1],[74],[1.2333333333333334],"[640.0, 512.0]",vertical,"(390.0, 762.0)",[0.46],1,829.756
3,False,128,0.853,51,[],[],"[(1124, 910)]",[],[1],[78],[1.3],"[640.0, 512.0]",vertical,"(390.0, 262.0)",[0.429],1,832.527
3,False,129,0.44,26,[],[],"[(1122, 911)]",[],[1],[58],[0.9666666666666667],"[640.0, 512.0]",horizontal,"(390.0, 762.0)",[0.509],1,835.367
3,False,130,0.529,31,[],[],"[(1111, 908)]",[],[1],[59],[0.9833333333333333],"[640.0, 512.0]",horizontal,"(890.0, 762.0)",[0.444],1,843.675
3,False,131,0.987,59,[],[],"[(1102, 907)]",[],[1],[97],[1.6166666666666667],"[640.0, 512.0]",vertical,"(890.0, 762.0)",[0.611],1,846.335
3,False,132,1.256,75,[],[],"[(1109, 907)]",[],[1],[83],[1.3833333333333333],"[640.0, 512.0]",vertical,"(890.0, 762.0)",[0.116],1,849.657
3,False,133,1.432,85,[],[],"[(1115, 910)]",[],[1],[94],[1.5666666666666667],"[640.0, 512.0]",vertical,"(890.0, 262.0)",[0.133],1,852.744
3,False,134,0.984,59,[],[],"[(1126, 910)]",[],[1],[81],[1.35],"[640.0, 512.0]",horizontal,"(390.0, 762.0)",[0.346],1,855.874
3,False,135,1.32,79,[],[893036],"[(1105, 927)]","[(1061, 938)]",[1],[62],[1.0333333333333332],"[640.0, 512.0]",horizontal,"(890.0, 762.0)",[0],0,858.786
3,False,136,1.064,63,[],[896757],"[(1096, 928)]","[(1091, 938)]",[1],"[63, 113]","[1.05, 1.8833333333333333]","[640.0, 512.0]",horizontal,"(390.0, 762.0)","[0, 0.804]",0,861.715
3,False,137,0.35,21,[],[],"[(1136, 916)]",[],[1],[50],[0.8333333333333334],"[640.0, 512.0]",horizontal,"(890.0, 262.0)",[0.469],1,866.234
3,False,138,0.432,25,[],[],"[(1129, 907)]",[],[1],[59],[0.9833333333333333],"[640.0, 512.0]",horizontal,"(390.0, 762.0)",[0.549],1,868.597
3,False,139,0.431,25,[],[],"[(1120, 923)]",[],[1],[63],[1.05],"[640.0, 512.0]",horizontal,"(890.0, 262.0)",[0.613],1,871.097
3,False,140,0.651,39,[],[],"[(1126, 915)]",[],[1],[66],[1.1],"[640.0, 512.0]",horizontal,"(390.0, 262.0)",[0.432],1,873.682
3,False,141,1.482,88,[],[910589],"[(1097, 908)]","[(1073, 924)]",[1],"[88, 138]","[1.4666666666666666, 2.3]","[640.0, 512.0]",vertical,"(890.0, 762.0)","[0, 0.805]",0,876.285
3,False,142,0.981,58,[],[],"[(1132, 912)]",[],[1],[86],[1.4333333333333333],"[640.0, 512.0]",horizontal,"(890.0, 262.0)",[0.443],1,880.06
3,False,143,0.703,42,[],[],"[(1127, 914)]",[],[1],[70],[1.1666666666666667],"[640.0, 512.0]",horizontal,"(390.0, 262.0)",[0.439],1,883.053
3,False,144,1.243,74,[],[],"[(1135, 928)]",[],[1],[93],[1.55],"[640.0, 512.0]",horizontal,"(390.0, 762.0)",[0.296],1,885.731
3,False,145,0.566,33,[],[],"[(1117, 915)]",[],[1],[62],[1.0333333333333332],"[640.0, 512.0]",horizontal,"(390.0, 262.0)",[0.456],1,888.793
3,False,146,0.311,18,[],[],"[(1131, 902)]",[],[1],[62],[1.0333333333333332],"[640.0, 512.0]",vertical,"(890.0, 262.0)",[0.702],1,891.352
3,False,147,1.289,77,[],[],"[(1131, 912)]",[],[1],[86],[1.4333333333333333],"[640.0, 512.0]",horizontal,"(390.0, 762.0)",[0.133],1,893.905
3,False,148,0.98,58,[],[],"[(1122, 903)]",[],[1],[72],[1.2],"[640.0, 512.0]",horizontal,"(390.0, 262.0)",[0.221],1,896.928
3,False,149,0.592,35,[],[],"[(1131, 900)]",[],[1],[65],[1.0833333333333333],"[640.0, 512.0]",horizontal,"(390.0, 762.0)",[0.475],1,899.766
3,False,150,0.964,57,[],[],"[(1102, 902)]",[],[1],[87],[1.45],"[640.0, 512.0]",horizontal,"(390.0, 762.0)",[0.477],1,902.347
3,False,151,1.267,76,[],[],"[(1133, 935)]",[],[1],[84],[1.4],"[640.0, 512.0]",horizontal,"(390.0, 262.0)",[0.115],1,905.257
3,False,152,0.436,26,[],[],"[(1130, 910)]",[],[1],[55],[0.9166666666666666],"[640.0, 512.0]",vertical,"(890.0, 762.0)",[0.462],1,908.167
3,False,153,0.969,58,[],[],"[(1128, 930)]",[],[1],[104],[1.7333333333333334],"[640.0, 512.0]",vertical,"(890.0, 262.0)",[0.745],1,910.629
3,False,154,1.107,66,[],[],"[(1125, 913)]",[],[1],[76],[1.2666666666666666],"[640.0, 512.0]",horizontal,"(390.0, 762.0)",[0.148],1,913.838
3,False,155,0.818,49,[],[],"[(1107, 922)]",[],[1],[78],[1.3],"[640.0, 512.0]",horizontal,"(890.0, 762.0)",[0.46],1,916.71
3,False,156,1.266,75,[],[],"[(1124, 911)]",[],[1],[77],[1.2833333333333332],"[640.0, 512.0]",horizontal,"(890.0, 762.0)",[0.017],1,920.434
3,False,157,0.995,59,[],[],"[(1140, 910)]",[],[1],[89],[1.4833333333333334],"[640.0, 512.0]",vertical,"(890.0, 762.0)",[0.479],1,923.219
3,False,158,1.265,75,[],[],"[(1124, 913)]",[],[1],[89],[1.4833333333333334],"[640.0, 512.0]",horizontal,"(890.0, 762.0)",[0.213],1,926.203
3,False,159,0.506,30,[],[],"[(1132, 906)]",[],[1],[64],[1.0666666666666667],"[640.0, 512.0]",vertical,"(390.0, 262.0)",[0.548],1,929.21
3,False,160,0.53,31,[],[],"[(1117, 912)]",[],[1],[64],[1.0666666666666667],"[640.0, 512.0]",horizontal,"(390.0, 262.0)",[0.522],1,931.787
3,False,161,1.457,87,[],[],"[(1145, 912)]",[],[1],[111],[1.8499999999999999],"[640.0, 512.0]",vertical,"(390.0, 262.0)",[0.377],1,934.349
3,False,162,1.07,64,[],[1006808],"[(1085, 972), (1034, 926)]","[(1084, 940)]","[0, 1]",[39],[0.65],"[640.0, 512.0]",horizontal,"(390.0, 262.0)",[0],0,937.71
3,False,163,0.721,43,[],[],"[(1094, 912)]",[],[1],[66],[1.1],"[640.0, 512.0]",horizontal,"(890.0, 762.0)",[0.366],1,975.485
3,False,164,0.585,35,[],[],"[(1096, 933)]",[],[1],[85],[1.4166666666666667],"[640.0, 512.0]",horizontal,"(390.0, 262.0)",[0.808],0,978.091
3,False,165,1.492,89,[],[1015013],"[(1139, 918)]","[(1076, 944)]",[1],[64],[1.0666666666666667],"[640.0, 512.0]",vertical,"(890.0, 262.0)",[0],0,981.081
3,False,166,0.977,58,[],[1065188],"[(1086, 933)]","[(1065, 939)]",[1],[54],[0.9],"[640.0, 512.0]",horizontal,"(390.0, 262.0)",[0],0,983.703
3,False,167,1.007,60,[],[],"[(1082, 925)]",[],[1],[94],[1.5666666666666667],"[640.0, 512.0]",vertical,"(890.0, 762.0)",[0.543],1,1033.875
3,False,168,0.947,56,[],[],"[(1090, 917)]",[],[1],[105],[1.75],"[640.0, 512.0]",horizontal,"(890.0, 262.0)",[0.784],1,1037.697
3,False,169,1.335,80,[],[],"[(1074, 934)]",[],[1],[89],[1.4833333333333334],"[640.0, 512.0]",horizontal,"(890.0, 762.0)",[0.13],1,1040.999
3,False,170,0.546,32,[],[],"[(1099, 919)]",[],[1],[82],[1.3666666666666667],"[640.0, 512.0]",horizontal,"(890.0, 762.0)",[0.817],0,1044.232
3,False,171,0.634,38,[],[],"[(1067, 925)]",[],[1],[88],[1.4666666666666666],"[640.0, 512.0]",horizontal,"(390.0, 262.0)",[0.81],0,1047.085
3,False,172,0.771,46,[],[],"[(1081, 885)]",[],[1],[96],[1.6],"[640.0, 512.0]",horizontal,"(390.0, 262.0)",[0.808],0,1052.65
3,False,173,0.42,25,[],[],"[(1101, 914)]",[],[1],[70],[1.1666666666666667],"[640.0, 512.0]",vertical,"(890.0, 262.0)",[0.729],1,1056.706
3,False,174,0.573,34,[],[],"[(1095, 911)]",[],[1],[84],[1.4],"[640.0, 512.0]",vertical,"(390.0, 262.0)",[0.81],0,1059.501
3,False,175,0.559,33,[],[],"[(1070, 899)]",[],[1],[44],[0.7333333333333333],"[640.0, 512.0]",horizontal,"(890.0, 262.0)",[0.164],1,1062.712
3,False,176,0.723,43,[],[],"[(1123, 906)]",[],[1],[58],[0.9666666666666667],"[640.0, 512.0]",vertical,"(890.0, 262.0)",[0.234],1,1067.202
3,False,177,1.291,77,[],[],"[(1091, 939)]",[],[1],[127],[2.1166666666666667],"[640.0, 512.0]",horizontal,"(390.0, 262.0)",[0.803],0,1069.667
3,False,178,0.431,25,[],[],"[(1135, 916)]",[],[1],[63],[1.05],"[640.0, 512.0]",vertical,"(390.0, 762.0)",[0.62],1,1073.318
3,False,179,0.85,51,[],[],"[(1131, 925)]",[],[1],[101],[1.6833333333333333],"[640.0, 512.0]",horizontal,"(890.0, 762.0)",[0.806],0,1075.899
3,False,180,0.372,22,[],[],"[(1058, 937)]",[],[1],[72],[1.2],"[640.0, 512.0]",vertical,"(390.0, 762.0)",[0.809],0,1079.04
4,False,181,0.765,45,[],[],"[(1101, 912)]",[],[1],[95],[1.5833333333333333],"[640.0, 512.0]",horizontal,"(390.0, 762.0)",[0.808],0,1082.02
4,False,182,0.819,49,[],[1121313],"[(1060, 952), (1147, 883)]","[(1138, 890)]","[0, 1]",[11],[0.18333333333333332],"[640.0, 512.0]",horizontal,"(390.0, 262.0)",[0],0,1085.135
4,False,183,0.572,34,[],[],"[(1081, 903)]",[],[1],[84],[1.4],"[640.0, 512.0]",vertical,"(390.0, 262.0)",[0.806],0,1090.004
4,False,184,0.63,37,[],[],"[(1058, 913)]",[],[1],[77],[1.2833333333333332],"[640.0, 512.0]",vertical,"(890.0, 762.0)",[0.64],1,1092.944
4,False,185,0.518,31,[],[],"[(1099, 934)]",[],[1],[81],[1.35],"[640.0, 512.0]",vertical,"(890.0, 762.0)",[0.807],0,1097.411
4,False,186,0.324,19,[],[],"[(1031, 935)]",[],[1],[69],[1.15],"[640.0, 512.0]",horizontal,"(890.0, 262.0)",[0.809],0,1100.253
4,False,187,0.672,40,[],[],"[(1048, 957), (1039, 920)]",[],"[0, 1]",[71],[1.1833333333333333],"[640.0, 512.0]",horizontal,"(890.0, 262.0)",[0.488],1,1103.081
4,False,188,1.196,71,[],[1146172],"[(1102, 927)]","[(1084, 950)]",[1],[69],[1.15],"[640.0, 512.0]",horizontal,"(390.0, 762.0)",[0],0,1112.189
4,False,189,1.456,87,[],[1148801],"[(1114, 917)]","[(1074, 941)]",[1],[64],[1.0666666666666667],"[640.0, 512.0]",vertical,"(390.0, 262.0)",[0],0,1114.863
4,False,190,1.463,87,[],[],"[(1115, 899)]",[],[1],[91],[1.5166666666666666],"[640.0, 512.0]",horizontal,"(390.0, 262.0)",[0.05],1,1117.49
4,False,191,0.58,34,[],[],"[(1116, 932)]",[],[1],[70],[1.1666666666666667],"[640.0, 512.0]",horizontal,"(390.0, 762.0)",[0.571],1,1120.515
4,False,192,0.372,22,[],[],"[(1102, 931)]",[],[1],[58],[0.9666666666666667],"[640.0, 512.0]",vertical,"(890.0, 762.0)",[0.578],1,1123.162
4,False,193,0.397,23,[],[],"[(1108, 923)]",[],[1],[68],[1.1333333333333333],"[640.0, 512.0]",horizontal,"(890.0, 262.0)",[0.721],1,1125.602
4,False,194,1.021,61,[],[],"[(1111, 932)]",[],[1],[111],[1.8499999999999999],"[640.0, 512.0]",vertical,"(890.0, 262.0)",[0.812],0,1128.175
4,False,195,0.554,33,[],[],"[(1054, 952), (1092, 916)]",[],"[0, 1]",[75],[1.25],"[640.0, 512.0]",horizontal,"(390.0, 262.0)",[0.679],1,1131.494
4,False,196,0.523,31,[],[],"[(1107, 936)]",[],[1],[66],[1.1],"[640.0, 512.0]",horizontal,"(390.0, 262.0)",[0.556],1,1135.316
4,False,197,0.916,54,[],[],"[(1104, 932)]",[],[1],[79],[1.3166666666666667],"[640.0, 512.0]",horizontal,"(390.0, 262.0)",[0.394],1,1137.919
4,False,198,0.612,36,[],[],"[(1137, 936)]",[],[1],[66],[1.1],"[640.0, 512.0]",horizontal,"(890.0, 262.0)",[0.471],1,1140.71
4,False,199,1.205,72,[],[],"[(1093, 912)]",[],[1],[79],[1.3166666666666667],"[640.0, 512.0]",vertical,"(890.0, 262.0)",[0.097],1,1143.283
4,False,200,0.793,47,[],[],"[(1102, 946)]",[],[1],[71],[1.1833333333333333],"[640.0, 512.0]",horizontal,"(390.0, 762.0)",[0.376],1,1146.054
4,False,201,1.384,83,[],[1182906],"[(1098, 923)]","[(1081, 957)]",[1],[81],[1.35],"[640.0, 512.0]",vertical,"(890.0, 762.0)",[0],0,1148.719
4,False,202,1.292,77,[],[],"[(1084, 932)]",[],[1],[127],[2.1166666666666667],"[640.0, 512.0]",horizontal,"(890.0, 262.0)",[0.803],0,1151.59
4,False,203,1.169,70,[],[],"[(1083, 936)]",[],[1],[83],[1.3833333333333333],"[640.0, 512.0]",vertical,"(390.0, 762.0)",[0.201],1,1155.233
4,False,204,0.678,40,[],[],"[(1097, 934)]",[],[1],[74],[1.2333333333333334],"[640.0, 512.0]",vertical,"(890.0, 262.0)",[0.539],1,1158.228
4,False,205,0.302,18,[],[],"[(1125, 924)]",[],[1],[53],[0.8833333333333333],"[640.0, 512.0]",vertical,"(390.0, 262.0)",[0.557],1,1160.983
4,False,206,0.323,19,[],[],"[(1082, 940)]",[],[1],[52],[0.8666666666666667],"[640.0, 512.0]",horizontal,"(390.0, 762.0)",[0.527],1,1163.35
4,False,207,1.339,80,[],[],"[(1102, 928)]",[],[1],[93],[1.55],"[640.0, 512.0]",horizontal,"(390.0, 262.0)",[0.2],1,1166.614
4,False,208,0.482,28,[],[],"[(1097, 927)]",[],[1],[67],[1.1166666666666667],"[640.0, 512.0]",vertical,"(890.0, 762.0)",[0.64],1,1169.634
4,False,209,0.986,59,[],[],"[(1115, 923)]",[],[1],[95],[1.5833333333333333],"[640.0, 512.0]",horizontal,"(390.0, 762.0)",[0.581],1,1172.286
4,False,210,1.332,79,[],[],"[(1112, 916)]",[],[1],[95],[1.5833333333333333],"[640.0, 512.0]",vertical,"(890.0, 762.0)",[0.256],1,1175.414
4,False,211,1.292,77,[],[],"[(1122, 923)]",[],[1],[88],[1.4666666666666666],"[640.0, 512.0]",vertical,"(890.0, 262.0)",[0.166],1,1178.536
4,False,212,0.923,55,[],[],"[(1122, 932)]",[],[1],[87],[1.45],"[640.0, 512.0]",vertical,"(390.0, 762.0)",[0.511],1,1181.511
4,False,213,1.457,87,[],[],"[(1122, 922)]",[],[1],[108],[1.8],"[640.0, 512.0]",horizontal,"(890.0, 762.0)",[0.339],1,1184.47
4,False,214,0.569,34,[],[],"[(1100, 920)]",[],[1],[61],[1.0166666666666666],"[640.0, 512.0]",vertical,"(890.0, 262.0)",[0.429],1,1187.764
4,False,215,1.199,71,[],[],"[(1146, 903)]",[],[1],[121],[2.0166666666666666],"[640.0, 512.0]",horizontal,"(890.0, 262.0)",[0.804],0,1190.374
4,False,216,1.092,65,[],[],"[(1107, 904)]",[],[1],[81],[1.35],"[640.0, 512.0]",horizontal,"(890.0, 762.0)",[0.251],1,1193.865
4,False,217,1.139,68,[],[],"[(1141, 917)]",[],[1],[97],[1.6166666666666667],"[640.0, 512.0]",horizontal,"(390.0, 262.0)",[0.467],1,1196.743
4,False,218,0.874,52,[],[],"[(1077, 922)]",[],[1],[75],[1.25],"[640.0, 512.0]",vertical,"(390.0, 762.0)",[0.359],1,1199.9
4,False,219,0.693,41,[],[],"[(1120, 921)]",[],[1],[71],[1.1833333333333333],"[640.0, 512.0]",horizontal,"(890.0, 762.0)",[0.481],1,1202.647
4,False,220,0.415,24,[],[],"[(1123, 917)]",[],[1],[58],[0.9666666666666667],"[640.0, 512.0]",vertical,"(890.0, 262.0)",[0.539],1,1205.35
4,False,221,0.582,34,[],[],"[(1110, 909)]",[],[1],[64],[1.0666666666666667],"[640.0, 512.0]",vertical,"(890.0, 262.0)",[0.481],1,1207.799
4,False,222,0.888,53,[],[],"[(1097, 912)]",[],[1],[103],[1.7166666666666666],"[640.0, 512.0]",horizontal,"(890.0, 762.0)",[0.799],0,1210.373
4,False,223,1.309,78,[],[1247750],"[(1156, 898)]","[(1113, 915)]",[1],[77],[1.2833333333333332],"[640.0, 512.0]",horizontal,"(890.0, 262.0)",[0],0,1213.6
4,False,224,0.439,26,[],[],"[(1087, 916)]",[],[1],[59],[0.9833333333333333],"[640.0, 512.0]",horizontal,"(890.0, 262.0)",[0.521],1,1216.433
4,False,225,0.556,33,[],[],"[(1112, 917)]",[],[1],[83],[1.3833333333333333],"[640.0, 512.0]",vertical,"(390.0, 262.0)",[0.807],0,1219.56
4,False,226,1.324,79,[],[],"[(1151, 898)]",[],[1],[85],[1.4166666666666667],"[640.0, 512.0]",vertical,"(390.0, 762.0)",[0.081],1,1222.446
4,False,227,1.329,79,[],[1259486],"[(1102, 917)]","[(1073, 934)]",[1],[73],[1.2166666666666666],"[640.0, 512.0]",vertical,"(390.0, 762.0)",[0],0,1225.35
4,False,228,0.965,57,[],[],"[(1108, 906)]",[],[1],[96],[1.6],"[640.0, 512.0]",vertical,"(890.0, 762.0)",[0.632],1,1228.175
4,False,229,0.767,46,[],[],"[(1131, 919)]",[],[1],[76],[1.2666666666666666],"[640.0, 512.0]",vertical,"(390.0, 762.0)",[0.48],1,1231.397
4,False,230,1.223,73,[],[],"[(1082, 923)]",[],[1],[79],[1.3166666666666667],"[640.0, 512.0]",horizontal,"(390.0, 762.0)",[0.081],1,1234.215
4,False,231,0.971,58,[],[],"[(1102, 923)]",[],[1],[87],[1.45],"[640.0, 512.0]",vertical,"(890.0, 262.0)",[0.463],1,1237.069
4,False,232,1.36,81,[],[],"[(1105, 914)]",[],[1],[98],[1.6333333333333333],"[640.0, 512.0]",vertical,"(890.0, 762.0)",[0.268],1,1240.048
4,False,233,1.108,66,[],[],"[(1087, 920)]",[],[1],[91],[1.5166666666666666],"[640.0, 512.0]",horizontal,"(390.0, 262.0)",[0.39],1,1243.134
4,False,234,0.757,45,[],[],"[(1088, 922)]",[],[1],[74],[1.2333333333333334],"[640.0, 512.0]",horizontal,"(390.0, 262.0)",[0.462],1,1246.152
4,False,235,0.738,44,[],[],"[(1122, 912)]",[],[1],[74],[1.2333333333333334],"[640.0, 512.0]",vertical,"(390.0, 262.0)",[0.481],1,1248.949
4,False,236,0.46,27,[],[],"[(1092, 920)]",[],[1],[59],[0.9833333333333333],"[640.0, 512.0]",horizontal,"(890.0, 262.0)",[0.509],1,1251.695
4,False,237,0.537,32,[],[],"[(1097, 905)]",[],[1],[67],[1.1166666666666667],"[640.0, 512.0]",vertical,"(890.0, 262.0)",[0.559],1,1254.215
4,False,238,1.329,79,[],[],"[(1082, 922)]",[],[1],[91],[1.5166666666666666],"[640.0, 512.0]",horizontal,"(890.0, 762.0)",[0.184],1,1257.346
4,False,239,1.316,78,[],[],"[(1098, 917)]",[],[1],[91],[1.5166666666666666],"[640.0, 512.0]",horizontal,"(890.0, 262.0)",[0.197],1,1260.393
4,False,240,0.479,28,[],[],"[(1087, 914)]",[],[1],[63],[1.05],"[640.0, 512.0]",vertical,"(390.0, 762.0)",[0.558],1,1263.939
5,False,241,0.492,29,[],[],"[(1166, 919)]",[],[1],[60],[1.0],"[640.0, 512.0]",horizontal,"(890.0, 762.0)",[0.493],1,1266.678
5,False,242,0.683,40,[],[],"[(1169, 923)]",[],[1],[68],[1.1333333333333333],"[640.0, 512.0]",horizontal,"(390.0, 262.0)",[0.441],1,1269.217
5,False,243,0.632,37,[],[],"[(1082, 912)]",[],[1],[70],[1.1666666666666667],"[640.0, 512.0]",vertical,"(890.0, 762.0)",[0.525],1,1271.829
5,False,244,0.331,19,[],[],"[(1098, 914)]",[],[1],[53],[0.8833333333333333],"[640.0, 512.0]",horizontal,"(390.0, 762.0)",[0.542],1,1274.489
5,False,245,0.689,41,[],[],"[(1131, 918)]",[],[1],[68],[1.1333333333333333],"[640.0, 512.0]",horizontal,"(890.0, 262.0)",[0.433],1,1276.854
5,False,246,0.463,27,[],[],"[(1122, 916)]",[],[1],[58],[0.9666666666666667],"[640.0, 512.0]",horizontal,"(890.0, 762.0)",[0.495],1,1279.515
5,False,247,0.799,47,[],[],"[(1121, 917)]",[],[1],[74],[1.2333333333333334],"[640.0, 512.0]",vertical,"(390.0, 262.0)",[0.426],1,1282.114
5,False,248,1.5,90,[],[1319287],"[(1122, 923)]","[(1095, 933)]",[1],"[90, 140]","[1.5, 2.3333333333333335]","[640.0, 512.0]",vertical,"(890.0, 262.0)","[0, 0.804]",0,1284.898
5,False,249,0.865,51,[],[],"[(1090, 936)]",[],[1],[101],[1.6833333333333333],"[640.0, 512.0]",vertical,"(390.0, 262.0)",[0.805],0,1288.761
5,False,250,1.095,65,[],[],"[(829, 534), (1105, 903)]",[],"[0, 1]",[115],[1.9166666666666667],"[640.0, 512.0]",horizontal,"(390.0, 762.0)",[0.806],0,1295.349
5,False,251,0.571,34,[],[],"[(1131, 1023), (1093, 916)]",[],"[0, 1]",[84],[1.4],"[640.0, 512.0]",horizontal,"(390.0, 762.0)",[0.804],0,1308.381
5,False,252,1.35,81,[],[],"[(1063, 901)]",[],[1],[94],[1.5666666666666667],"[640.0, 512.0]",vertical,"(890.0, 762.0)",[0.2],1,1312.428
5,False,253,0.305,18,[],[],"[(1086, 914)]",[],[1],[68],[1.1333333333333333],"[640.0, 512.0]",horizontal,"(390.0, 762.0)",[0.814],0,1317.861
5,False,254,0.806,48,[],[],"[(1053, 922)]",[],[1],[98],[1.6333333333333333],"[640.0, 512.0]",vertical,"(890.0, 762.0)",[0.802],0,1320.623
5,False,255,1.407,84,[],[1361041],"[(1130, 909)]","[(1096, 959)]",[1],[67],[1.1166666666666667],"[640.0, 512.0]",horizontal,"(390.0, 262.0)",[0],0,1327.026
5,False,256,1.001,60,[],[],"[(1082, 928)]",[],[1],[110],[1.8333333333333333],"[640.0, 512.0]",vertical,"(890.0, 762.0)",[0.807],0,1329.726
5,False,257,0.557,33,[],[],"[(1117, 893)]",[],[1],[64],[1.0666666666666667],"[640.0, 512.0]",horizontal,"(890.0, 262.0)",[0.485],1,1333.679
5,False,258,0.695,41,[],[],"[(1110, 919)]",[],[1],[56],[0.9333333333333333],"[640.0, 512.0]",horizontal,"(390.0, 762.0)",[0.232],1,1336.225
5,False,259,1.03,61,[],[],"[(1117, 916)]",[],[1],[64],[1.0666666666666667],"[640.0, 512.0]",horizontal,"(390.0, 262.0)",[0.034],1,1338.675
5,False,260,0.948,56,[],[],"[(1118, 912)]",[],[1],[64],[1.0666666666666667],"[640.0, 512.0]",vertical,"(890.0, 762.0)",[0.116],1,1341.22
5,False,261,0.449,26,[],[],"[(1102, 918)]",[],[1],[58],[0.9666666666666667],"[640.0, 512.0]",horizontal,"(390.0, 762.0)",[0.506],1,1343.762
5,False,262,1.181,70,[],[1381770],"[(1064, 932)]","[(1073, 955)]",[1],[53],[0.8833333333333333],"[640.0, 512.0]",vertical,"(890.0, 762.0)",[0],0,1346.232
5,False,263,1.376,82,[],[1384529],"[(1097, 942)]","[(1077, 960)]",[1],[73],[1.2166666666666666],"[640.0, 512.0]",horizontal,"(890.0, 762.0)",[0],0,1350.445
5,False,264,0.713,42,[],[],"[(1110, 922)]",[],[1],[73],[1.2166666666666666],"[640.0, 512.0]",vertical,"(390.0, 762.0)",[0.498],1,1353.217
5,False,265,0.642,38,[],[],"[(1098, 928)]",[],[1],[78],[1.3],"[640.0, 512.0]",vertical,"(890.0, 762.0)",[0.642],1,1355.917
5,False,266,1.352,81,[],[1392754],"[(1101, 912)]","[(1090, 948)]",[1],[71],[1.1833333333333333],"[640.0, 512.0]",horizontal,"(390.0, 762.0)",[0],0,1358.732
5,False,267,1.479,88,[],[],"[(1066, 922)]",[],[1],[99],[1.65],"[640.0, 512.0]",vertical,"(890.0, 762.0)",[0.169],1,1361.434
5,False,268,0.319,19,[],[],"[(1116, 922)]",[],[1],[50],[0.8333333333333334],"[640.0, 512.0]",horizontal,"(890.0, 262.0)",[0.498],1,1364.884
5,False,269,0.445,26,[],[],"[(1093, 924)]",[],[1],[62],[1.0333333333333332],"[640.0, 512.0]",vertical,"(890.0, 762.0)",[0.573],1,1367.211
5,False,270,1.073,64,[],[],"[(1071, 948), (1123, 932)]",[],"[0, 1]",[71],[1.1833333333333333],"[640.0, 512.0]",horizontal,"(390.0, 762.0)",[0.1],1,1369.713
5,False,271,1.116,66,[],[],"[(1127, 916)]",[],[1],[86],[1.4333333333333333],"[640.0, 512.0]",horizontal,"(890.0, 762.0)",[0.313],1,1373.613
5,False,272,1.061,63,[],[],"[(1102, 906)]",[],[1],[71],[1.1833333333333333],"[640.0, 512.0]",horizontal,"(890.0, 262.0)",[0.117],1,1376.566
5,False,273,1.352,81,[],[],"[(1112, 910)]",[],[1],[92],[1.5333333333333332],"[640.0, 512.0]",vertical,"(890.0, 762.0)",[0.167],1,1379.229
5,False,274,1.178,70,[],[],"[(1134, 919)]",[],[1],[89],[1.4833333333333334],"[640.0, 512.0]",vertical,"(390.0, 262.0)",[0.293],1,1382.282
5,False,275,0.879,52,[],[],"[(1131, 920)]",[],[1],[79],[1.3166666666666667],"[640.0, 512.0]",horizontal,"(890.0, 762.0)",[0.427],1,1385.272
5,False,276,0.695,41,[],[],"[(1108, 918)]",[],[1],[71],[1.1833333333333333],"[640.0, 512.0]",vertical,"(890.0, 262.0)",[0.472],1,1388.105
5,False,277,1.313,78,[],[],"[(1113, 911)]",[],[1],[84],[1.4],"[640.0, 512.0]",horizontal,"(390.0, 762.0)",[0.083],1,1390.819
5,False,278,0.875,52,[],[],"[(1120, 920)]",[],[1],[83],[1.3833333333333333],"[640.0, 512.0]",vertical,"(890.0, 762.0)",[0.498],1,1393.682
5,False,279,0.836,50,[],[],"[(1137, 923)]",[],[1],[85],[1.4166666666666667],"[640.0, 512.0]",horizontal,"(890.0, 262.0)",[0.557],1,1396.622
5,False,280,1.222,73,[],[],"[(1107, 923)]",[],[1],[93],[1.55],"[640.0, 512.0]",vertical,"(390.0, 262.0)",[0.312],1,1399.551
5,False,281,1.052,63,[],[],"[(1102, 956), (1071, 950), (677, 858), (1070, 931)]",[],"[0, 0, 0, 1]",[81],[1.35],"[640.0, 512.0]",vertical,"(890.0, 262.0)",[0.282],1,1402.566
5,False,282,0.66,39,[],[],"[(1093, 939)]",[],[1],[64],[1.0666666666666667],"[640.0, 512.0]",horizontal,"(890.0, 762.0)",[0.394],1,1406.197
5,False,283,0.95,57,[],[1446175],"[(1102, 906)]","[(684, 947)]",[1],[8],[0.13333333333333333],"[640.0, 512.0]",horizontal,"(890.0, 762.0)",[0],0,1411.187
5,False,284,0.716,42,[],[],"[(712, 1010), (1101, 906)]",[],"[0, 1]",[92],[1.5333333333333332],"[640.0, 512.0]",horizontal,"(390.0, 262.0)",[0.801],0,1414.857
5,False,285,0.534,32,[],[],"[(1088, 932)]",[],[1],[62],[1.0333333333333332],"[640.0, 512.0]",vertical,"(890.0, 762.0)",[0.479],1,1418.92
5,False,286,1.482,88,[],[1456118],"[(702, 922), (1128, 857)]","[(1102, 881)]","[0, 1]",[10],[0.16666666666666666],"[640.0, 512.0]",horizontal,"(890.0, 762.0)",[0],0,1421.546
5,False,287,1.164,69,[],[],"[(1112, 856)]",[],[1],[71],[1.1833333333333333],"[640.0, 512.0]",vertical,"(890.0, 762.0)",[0.017],1,1424.81
5,False,288,1.297,77,[],[],"[(1083, 912)]",[],[1],[127],[2.1166666666666667],"[640.0, 512.0]",horizontal,"(890.0, 762.0)",[0.804],0,1427.528
5,False,289,0.745,44,[],[],"[(1107, 934)]",[],[1],[59],[0.9833333333333333],"[640.0, 512.0]",vertical,"(890.0, 762.0)",[0.229],1,1431.159
5,False,290,0.664,39,[],[],"[(1083, 921)]",[],[1],[89],[1.4833333333333334],"[640.0, 512.0]",horizontal,"(890.0, 262.0)",[0.81],0,1434.119
5,False,291,1.46,87,[],[],"[(1138, 902)]",[],[1],[137],[2.283333333333333],"[640.0, 512.0]",vertical,"(890.0, 262.0)",[0.807],0,1437.143
5,False,292,1.115,66,[],[1481334],"[(1097, 913)]","[(1074, 923)]",[1],[65],[1.0833333333333333],"[640.0, 512.0]",horizontal,"(890.0, 262.0)",[0],0,1440.926
5,False,293,0.669,40,[],[],"[(1094, 902)]",[],[1],[67],[1.1166666666666667],"[640.0, 512.0]",horizontal,"(390.0, 762.0)",[0.422],1,1450.016
5,False,294,0.65,39,[],[],"[(1080, 919)]",[],[1],[48],[0.8],"[640.0, 512.0]",vertical,"(390.0, 762.0)",[0.135],1,1452.703
5,False,295,1.468,88,[],[1489124],"[(1110, 902)]","[(1088, 923)]",[1],[74],[1.2333333333333334],"[640.0, 512.0]",vertical,"(390.0, 762.0)",[0],0,1455.067
5,False,296,1.343,80,[],[],"[(1102, 911)]",[],[1],[95],[1.5833333333333333],"[640.0, 512.0]",horizontal,"(890.0, 762.0)",[0.232],1,1457.804
5,False,297,0.81,48,[],[],"[(1102, 914)]",[],[1],[82],[1.3666666666666667],"[640.0, 512.0]",horizontal,"(390.0, 262.0)",[0.539],1,1461.002
5,False,298,1.361,81,[],[],"[(1130, 917)]",[],[1],[84],[1.4],"[640.0, 512.0]",horizontal,"(890.0, 262.0)",[0.033],1,1463.851
5,False,299,0.864,51,[],[],"[(1117, 927)]",[],[1],[82],[1.3666666666666667],"[640.0, 512.0]",horizontal,"(890.0, 262.0)",[0.491],1,1466.73
5,False,300,0.899,53,[],[],"[(1102, 917)]",[],[1],[75],[1.25],"[640.0, 512.0]",vertical,"(390.0, 262.0)",[0.347],1,1469.714
6,False,301,0.587,35,[],[],"[(1088, 908)]",[],[1],[70],[1.1666666666666667],"[640.0, 512.0]",vertical,"(390.0, 262.0)",[0.558],1,1473.668
6,False,302,1.08,64,[],[],"[(1120, 899)]",[],[1],[89],[1.4833333333333334],"[640.0, 512.0]",horizontal,"(890.0, 762.0)",[0.394],1,1481.713
6,False,303,0.309,18,[],[],"[(1098, 917)]",[],[1],[50],[0.8333333333333334],"[640.0, 512.0]",vertical,"(390.0, 762.0)",[0.512],1,1484.712
6,False,304,0.535,32,[],[],"[(1105, 902)]",[],[1],[62],[1.0333333333333332],"[640.0, 512.0]",horizontal,"(890.0, 762.0)",[0.489],1,1487.042
6,False,305,1.367,82,[],[],"[(1125, 912)]",[],[1],[116],[1.9333333333333333],"[640.0, 512.0]",vertical,"(390.0, 262.0)",[0.536],1,1489.61
6,False,306,1.13,67,[],[],"[(1112, 902)]",[],[1],[94],[1.5666666666666667],"[640.0, 512.0]",horizontal,"(890.0, 262.0)",[0.432],1,1493.033
6,False,307,0.339,20,[],[],"[(1098, 912)]",[],[1],[51],[0.85],"[640.0, 512.0]",horizontal,"(390.0, 762.0)",[0.497],1,1496.073
6,False,308,0.857,51,[],[],"[(1102, 905)]",[],[1],[79],[1.3166666666666667],"[640.0, 512.0]",horizontal,"(890.0, 262.0)",[0.445],1,1498.466
6,False,309,0.603,36,[],[],"[(1107, 907)]",[],[1],[81],[1.35],"[640.0, 512.0]",vertical,"(390.0, 262.0)",[0.722],1,1501.344
6,False,310,0.699,41,[],[],"[(1123, 924)]",[],[1],[74],[1.2333333333333334],"[640.0, 512.0]",horizontal,"(890.0, 762.0)",[0.528],1,1504.254
6,False,311,1.435,86,[],[],"[(1109, 901)]",[],[1],[99],[1.65],"[640.0, 512.0]",horizontal,"(890.0, 262.0)",[0.202],1,1507.046
6,False,312,0.36,21,[],[],"[(1123, 916)]",[],[1],[63],[1.05],"[640.0, 512.0]",horizontal,"(390.0, 762.0)",[0.68],1,1510.209
6,False,313,1.369,82,[],[],"[(1126, 922)]",[],[1],[110],[1.8333333333333333],"[640.0, 512.0]",horizontal,"(390.0, 262.0)",[0.445],1,1512.82
6,False,314,1.37,82,[],[],"[(1127, 927)]",[],[1],[90],[1.5],"[640.0, 512.0]",vertical,"(390.0, 262.0)",[0.12],1,1516.156
6,False,315,0.726,43,[],[],"[(1097, 922)]",[],[1],[74],[1.2333333333333334],"[640.0, 512.0]",vertical,"(390.0, 762.0)",[0.49],1,1519.281
6,False,316,0.355,21,[],[],"[(1128, 911)]",[],[1],[57],[0.95],"[640.0, 512.0]",vertical,"(890.0, 762.0)",[0.584],1,1522.162
6,False,317,0.849,50,[],[],"[(1125, 923)]",[],[1],[85],[1.4166666666666667],"[640.0, 512.0]",vertical,"(390.0, 762.0)",[0.566],1,1524.637
6,False,318,0.408,24,[],[],"[(1123, 912)]",[],[1],[56],[0.9333333333333333],"[640.0, 512.0]",horizontal,"(890.0, 762.0)",[0.515],1,1527.575
6,False,319,1.339,80,[],[],"[(1093, 914)]",[],[1],[93],[1.55],"[640.0, 512.0]",horizontal,"(890.0, 762.0)",[0.2],1,1530.191
6,False,320,1.455,87,[],[],"[(1099, 902)]",[],[1],[97],[1.6166666666666667],"[640.0, 512.0]",vertical,"(890.0, 262.0)",[0.148],1,1533.218
6,False,321,0.91,54,[],[],"[(1105, 909)]",[],[1],[86],[1.4333333333333333],"[640.0, 512.0]",vertical,"(890.0, 762.0)",[0.513],1,1536.326
6,False,322,0.442,26,[],[],"[(1093, 907)]",[],[1],[55],[0.9166666666666666],"[640.0, 512.0]",horizontal,"(890.0, 262.0)",[0.461],1,1539.299
6,False,323,0.45,27,[],[],"[(1106, 906)]",[],[1],[59],[0.9833333333333333],"[640.0, 512.0]",horizontal,"(390.0, 762.0)",[0.505],1,1541.901
6,False,324,0.827,49,[],[],"[(1101, 906)]",[],[1],[80],[1.3333333333333333],"[640.0, 512.0]",horizontal,"(390.0, 262.0)",[0.493],1,1544.382
6,False,325,1.201,72,[],[],"[(1096, 907)]",[],[1],[97],[1.6166666666666667],"[640.0, 512.0]",vertical,"(390.0, 762.0)",[0.396],1,1547.254
6,False,326,0.558,33,[],[],"[(1099, 903)]",[],[1],[62],[1.0333333333333332],"[640.0, 512.0]",horizontal,"(890.0, 262.0)",[0.467],1,1550.391
6,False,327,0.667,40,[],[],"[(1099, 906)]",[],[1],[69],[1.15],"[640.0, 512.0]",vertical,"(390.0, 262.0)",[0.469],1,1552.961
6,False,328,0.667,40,[],[],"[(1102, 903)]",[],[1],[78],[1.3],"[640.0, 512.0]",vertical,"(390.0, 262.0)",[0.609],1,1555.649
6,False,329,1.432,85,[],[],"[(1102, 909)]",[],[1],[119],[1.9833333333333334],"[640.0, 512.0]",vertical,"(890.0, 262.0)",[0.546],1,1558.47
6,False,330,0.805,48,[],[],"[(1093, 922)]",[],[1],[98],[1.6333333333333333],"[640.0, 512.0]",horizontal,"(890.0, 762.0)",[0.805],0,1562.05
6,False,331,1.144,68,[],[],"[(1093, 927)]",[],[1],[91],[1.5166666666666666],"[640.0, 512.0]",vertical,"(390.0, 762.0)",[0.365],1,1565.289
6,False,332,0.7,42,[],[],"[(1112, 912)]",[],[1],[72],[1.2],"[640.0, 512.0]",horizontal,"(890.0, 262.0)",[0.476],1,1569.063
6,False,333,0.367,22,[],[],"[(1102, 915)]",[],[1],[55],[0.9166666666666666],"[640.0, 512.0]",horizontal,"(390.0, 262.0)",[0.528],1,1571.727
6,False,334,1.003,60,[],[],"[(1115, 902)]",[],[1],[86],[1.4333333333333333],"[640.0, 512.0]",vertical,"(890.0, 762.0)",[0.41],1,1574.136
6,False,335,1.164,69,[],[],"[(1097, 914)]",[],[1],[95],[1.5833333333333333],"[640.0, 512.0]",vertical,"(390.0, 762.0)",[0.41],1,1577.094
6,False,336,0.588,35,[],[],"[(1133, 914)]",[],[1],[67],[1.1166666666666667],"[640.0, 512.0]",horizontal,"(390.0, 762.0)",[0.514],1,1580.348
6,False,337,1.105,66,[],[],"[(1101, 903)]",[],[1],[94],[1.5666666666666667],"[640.0, 512.0]",vertical,"(390.0, 762.0)",[0.443],1,1582.972
6,False,338,0.347,20,[],[],"[(1113, 939)]",[],[1],[53],[0.8833333333333333],"[640.0, 512.0]",vertical,"(890.0, 262.0)",[0.529],1,1586.087
6,False,339,0.522,31,[],[],"[(1097, 905)]",[],[1],[70],[1.1666666666666667],"[640.0, 512.0]",vertical,"(390.0, 762.0)",[0.623],1,1588.653
6,False,340,0.85,51,[],[],"[(1133, 907)]",[],[1],[80],[1.3333333333333333],"[640.0, 512.0]",vertical,"(390.0, 262.0)",[0.459],1,1591.641
6,False,341,1.403,84,[],[1628635],"[(1105, 921)]","[(1068, 933)]",[1],[78],[1.3],"[640.0, 512.0]",horizontal,"(390.0, 262.0)",[0],0,1594.464
6,False,342,0.311,18,[],[],"[(1110, 922)]",[],[1],[67],[1.1166666666666667],"[640.0, 512.0]",vertical,"(890.0, 262.0)",[0.78],1,1597.32
6,False,343,0.75,45,[],[],"[(1102, 923)]",[],[1],[80],[1.3333333333333333],"[640.0, 512.0]",vertical,"(890.0, 262.0)",[0.563],1,1600.534
6,False,344,1.026,61,[],[],"[(1101, 915)]",[],[1],[89],[1.4833333333333334],"[640.0, 512.0]",vertical,"(890.0, 762.0)",[0.445],1,1603.584
6,False,345,0.563,33,[],[],"[(1097, 919)]",[],[1],[70],[1.1666666666666667],"[640.0, 512.0]",vertical,"(390.0, 762.0)",[0.592],1,1606.551
6,False,346,0.584,35,[],[],"[(1078, 925)]",[],[1],[77],[1.2833333333333332],"[640.0, 512.0]",horizontal,"(390.0, 262.0)",[0.668],1,1609.243
6,False,347,1.142,68,[],[],"[(1095, 917)]",[],[1],[85],[1.4166666666666667],"[640.0, 512.0]",horizontal,"(890.0, 762.0)",[0.269],1,1612.557
6,False,348,1.126,67,[],[],"[(1120, 921)]",[],[1],[89],[1.4833333333333334],"[640.0, 512.0]",horizontal,"(890.0, 262.0)",[0.349],1,1615.46
6,False,349,1.135,68,[],[],"[(1110, 906)]",[],[1],[79],[1.3166666666666667],"[640.0, 512.0]",horizontal,"(890.0, 262.0)",[0.165],1,1618.464
6,False,350,1.139,68,[],[],"[(1117, 928)]",[],[1],[98],[1.6333333333333333],"[640.0, 512.0]",horizontal,"(890.0, 762.0)",[0.473],1,1621.275
6,False,351,0.405,24,[],[],"[(1102, 924)]",[],[1],[56],[0.9333333333333333],"[640.0, 512.0]",horizontal,"(390.0, 762.0)",[0.509],1,1624.399
6,False,352,1.207,72,[],[],"[(1105, 929)]",[],[1],[100],[1.6666666666666667],"[640.0, 512.0]",horizontal,"(890.0, 262.0)",[0.444],1,1626.864
6,False,353,1.218,73,[],[],"[(1112, 904)]",[],[1],[97],[1.6166666666666667],"[640.0, 512.0]",horizontal,"(890.0, 262.0)",[0.384],1,1630.048
6,False,354,1.459,87,[],[],"[(1137, 914)]",[],[1],[100],[1.6666666666666667],"[640.0, 512.0]",horizontal,"(390.0, 262.0)",[0.199],1,1633.19
6,False,355,1.078,64,[],[],"[(1111, 928)]",[],[1],[71],[1.1833333333333333],"[640.0, 512.0]",horizontal,"(390.0, 262.0)",[0.099],1,1636.394
6,False,356,1.23,73,[],[],"[(1112, 907)]",[],[1],[82],[1.3666666666666667],"[640.0, 512.0]",vertical,"(390.0, 262.0)",[0.134],1,1639.456
6,False,357,1.422,85,[],[1676606],"[(1129, 909)]","[(1091, 923)]",[1],[82],[1.3666666666666667],"[640.0, 512.0]",vertical,"(390.0, 762.0)",[0],0,1642.317
6,False,358,0.945,56,[],[],"[(1097, 903)]",[],[1],[92],[1.5333333333333332],"[640.0, 512.0]",horizontal,"(890.0, 762.0)",[0.575],1,1645.285
6,False,359,1.149,68,[],[1682731],"[(1108, 920)]","[(1068, 934)]",[1],[60],[1.0],"[640.0, 512.0]",horizontal,"(890.0, 762.0)",[0],0,1648.833
6,False,360,1.462,87,[],[1685672],"[(1109, 918)]","[(1075, 932)]",[1],[80],[1.3333333333333333],"[640.0, 512.0]",vertical,"(890.0, 262.0)",[0],0,1651.425
7,False,361,0.331,19,[],[],"[(1107, 918)]",[],[1],[65],[1.0833333333333333],"[640.0, 512.0]",vertical,"(890.0, 762.0)",[0.737],1,1654.354
7,False,362,0.675,40,[],[],"[(1116, 909)]",[],[1],[64],[1.0666666666666667],"[640.0, 512.0]",vertical,"(390.0, 262.0)",[0.375],1,1657.656
7,False,363,1.431,85,[],[],"[(1123, 922)]",[],[1],[111],[1.8499999999999999],"[640.0, 512.0]",vertical,"(390.0, 262.0)",[0.417],1,1660.253
7,False,364,1.339,80,[],[],"[(1098, 916)]",[],[1],[107],[1.7833333333333332],"[640.0, 512.0]",vertical,"(390.0, 262.0)",[0.426],1,1663.657
7,False,365,0.395,23,[],[],"[(1137, 919)]",[],[1],[56],[0.9333333333333333],"[640.0, 512.0]",vertical,"(390.0, 262.0)",[0.53],1,1666.966
7,False,366,1.366,81,[],[],"[(1115, 912)]",[],[1],[100],[1.6666666666666667],"[640.0, 512.0]",vertical,"(890.0, 262.0)",[0.298],1,1669.41
7,False,367,0.533,31,[],[],"[(1122, 911)]",[],[1],[63],[1.05],"[640.0, 512.0]",horizontal,"(390.0, 762.0)",[0.515],1,1672.598
7,False,368,0.401,24,[],[],"[(1124, 917)]",[],[1],[55],[0.9166666666666666],"[640.0, 512.0]",horizontal,"(890.0, 262.0)",[0.493],1,1675.164
7,False,369,0.468,28,[],[],"[(1120, 912)]",[],[1],[61],[1.0166666666666666],"[640.0, 512.0]",vertical,"(390.0, 262.0)",[0.526],1,1677.607
7,False,370,0.644,38,[],[],"[(1117, 917)]",[],[1],[69],[1.15],"[640.0, 512.0]",vertical,"(390.0, 762.0)",[0.496],1,1680.114
7,False,371,0.458,27,[],[],"[(1118, 910)]",[],[1],[67],[1.1166666666666667],"[640.0, 512.0]",horizontal,"(390.0, 762.0)",[0.637],1,1682.781
7,False,372,0.723,43,[],[],"[(1102, 902)]",[],[1],[75],[1.25],"[640.0, 512.0]",horizontal,"(390.0, 262.0)",[0.51],1,1685.421
7,False,373,1.169,70,[],[],"[(1116, 899)]",[],[1],[80],[1.3333333333333333],"[640.0, 512.0]",horizontal,"(390.0, 762.0)",[0.15],1,1688.187
7,False,374,0.314,18,[],[],"[(1097, 917)]",[],[1],[68],[1.1333333333333333],"[640.0, 512.0]",vertical,"(390.0, 262.0)",[0.802],0,1691.048
7,False,375,0.928,55,[],[],"[(1095, 903)]",[],[1],[83],[1.3833333333333333],"[640.0, 512.0]",horizontal,"(890.0, 262.0)",[0.442],1,1693.744
7,False,376,1.071,64,[],[1731318],"[(1090, 910)]","[(1077, 919)]",[1],[63],[1.05],"[640.0, 512.0]",horizontal,"(390.0, 262.0)",[0],0,1697.465
7,False,377,1.376,82,[],[1733956],"[(1093, 895)]","[(1072, 910)]",[1],[65],[1.0833333333333333],"[640.0, 512.0]",vertical,"(890.0, 762.0)",[0],0,1700.003
7,False,378,1.28,76,[],[],"[(1079, 912)]",[],[1],[88],[1.4666666666666666],"[640.0, 512.0]",horizontal,"(890.0, 262.0)",[0.183],1,1702.648
7,False,379,1.115,66,[],[],"[(1127, 914)]",[],[1],[80],[1.3333333333333333],"[640.0, 512.0]",horizontal,"(390.0, 262.0)",[0.211],1,1706.076
7,False,380,0.763,45,[],[],"[(1093, 929)]",[],[1],[80],[1.3333333333333333],"[640.0, 512.0]",vertical,"(890.0, 762.0)",[0.557],1,1708.927
7,False,381,0.587,35,[],[],"[(1128, 914)]",[],[1],[67],[1.1166666666666667],"[640.0, 512.0]",vertical,"(890.0, 262.0)",[0.509],1,1711.766
7,False,382,1.327,79,[],[],"[(1082, 909)]",[],[1],[102],[1.7],"[640.0, 512.0]",horizontal,"(390.0, 262.0)",[0.362],1,1714.414
7,False,383,0.46,27,[],[],"[(1113, 915)]",[],[1],[58],[0.9666666666666667],"[640.0, 512.0]",vertical,"(890.0, 762.0)",[0.497],1,1717.652
7,False,384,1.297,77,[],[],"[(1123, 912)]",[],[1],[100],[1.6666666666666667],"[640.0, 512.0]",vertical,"(390.0, 762.0)",[0.362],1,1720.201
7,False,385,0.315,18,[],[],"[(1117, 903)]",[],[1],[50],[0.8333333333333334],"[640.0, 512.0]",vertical,"(890.0, 762.0)",[0.509],1,1723.384
7,False,386,0.897,53,[],[],"[(1128, 915)]",[],[1],[83],[1.3833333333333333],"[640.0, 512.0]",vertical,"(890.0, 762.0)",[0.478],1,1725.75
7,False,387,0.806,48,[],[],"[(1115, 907)]",[],[1],[78],[1.3],"[640.0, 512.0]",vertical,"(390.0, 262.0)",[0.478],1,1728.666
7,False,388,0.373,22,[],[],"[(1130, 913)]",[],[1],[53],[0.8833333333333333],"[640.0, 512.0]",vertical,"(890.0, 262.0)",[0.496],1,1731.482
7,False,389,0.592,35,[],[],"[(1129, 905)]",[],[1],[68],[1.1333333333333333],"[640.0, 512.0]",vertical,"(890.0, 762.0)",[0.532],1,1733.859
7,False,390,0.506,30,[],[],"[(1098, 902)]",[],[1],[66],[1.1],"[640.0, 512.0]",vertical,"(390.0, 762.0)",[0.579],1,1736.519
7,False,391,0.889,53,[],[],"[(1135, 900)]",[],[1],[84],[1.4],"[640.0, 512.0]",vertical,"(390.0, 762.0)",[0.497],1,1739.117
7,False,392,1.217,73,[],[],"[(1119, 900)]",[],[1],[86],[1.4333333333333333],"[640.0, 512.0]",vertical,"(390.0, 262.0)",[0.199],1,1742.023
7,False,393,1.024,61,[],[],"[(1097, 918)]",[],[1],[89],[1.4833333333333334],"[640.0, 512.0]",horizontal,"(390.0, 762.0)",[0.44],1,1744.992
7,False,394,0.78,46,[],[],"[(1116, 898)]",[],[1],[78],[1.3],"[640.0, 512.0]",vertical,"(390.0, 762.0)",[0.512],1,1749.682
7,False,395,0.819,49,[],[],"[(1098, 915)]",[],[1],[80],[1.3333333333333333],"[640.0, 512.0]",horizontal,"(390.0, 262.0)",[0.493],1,1752.498
7,False,396,1.178,70,[],[],"[(1097, 896)]",[],[1],[100],[1.6666666666666667],"[640.0, 512.0]",vertical,"(890.0, 262.0)",[0.474],1,1755.331
7,False,397,0.71,42,[],[],"[(1108, 902)]",[],[1],[73],[1.2166666666666666],"[640.0, 512.0]",vertical,"(890.0, 262.0)",[0.493],1,1758.468
7,False,398,0.441,26,[],[],"[(1126, 914)]",[],[1],[58],[0.9666666666666667],"[640.0, 512.0]",vertical,"(890.0, 762.0)",[0.518],1,1761.201
7,False,399,0.426,25,[],[],"[(1110, 905)]",[],[1],[66],[1.1],"[640.0, 512.0]",horizontal,"(890.0, 262.0)",[0.658],1,1763.685
7,False,400,0.352,21,[],[],"[(1112, 910)]",[],[1],[54],[0.9],"[640.0, 512.0]",vertical,"(390.0, 262.0)",[0.52],1,1766.314
7,False,401,1.142,68,[],[],"[(1116, 909)]",[],[1],[86],[1.4333333333333333],"[640.0, 512.0]",vertical,"(390.0, 762.0)",[0.281],1,1768.764
7,False,402,1.285,77,[],[],"[(1097, 907)]",[],[1],[93],[1.55],"[640.0, 512.0]",vertical,"(890.0, 762.0)",[0.252],1,1771.699
7,False,403,1.357,81,[],[],"[(1106, 912)]",[],[1],[96],[1.6],"[640.0, 512.0]",vertical,"(890.0, 762.0)",[0.232],1,1774.971
7,False,404,0.811,48,[],[],"[(1116, 907)]",[],[1],[82],[1.3666666666666667],"[640.0, 512.0]",horizontal,"(390.0, 762.0)",[0.548],1,1778.085
7,False,405,0.411,24,[],[],"[(1123, 918)]",[],[1],[57],[0.95],"[640.0, 512.0]",vertical,"(390.0, 262.0)",[0.523],1,1781.026
7,False,406,0.968,58,[],[],"[(1112, 917)]",[],[1],[95],[1.5833333333333333],"[640.0, 512.0]",vertical,"(890.0, 262.0)",[0.588],1,1783.537
7,False,407,0.906,54,[],[],"[(1112, 915)]",[],[1],[85],[1.4166666666666667],"[640.0, 512.0]",vertical,"(390.0, 762.0)",[0.492],1,1786.596
7,False,408,1.266,75,[],[],"[(1107, 912)]",[],[1],[103],[1.7166666666666666],"[640.0, 512.0]",vertical,"(390.0, 762.0)",[0.443],1,1789.525
7,False,409,0.377,22,[],[],"[(1099, 898)]",[],[1],[54],[0.9],"[640.0, 512.0]",vertical,"(890.0, 262.0)",[0.51],1,1792.723
7,False,410,1.093,65,[],[],"[(1131, 900)]",[],[1],[85],[1.4166666666666667],"[640.0, 512.0]",horizontal,"(890.0, 262.0)",[0.313],1,1795.116
7,False,411,1.196,71,[],[],"[(1128, 903)]",[],[1],[107],[1.7833333333333332],"[640.0, 512.0]",vertical,"(390.0, 262.0)",[0.573],1,1798.04
7,False,412,1.353,81,[],[],"[(1100, 913)]",[],[1],[113],[1.8833333333333333],"[640.0, 512.0]",horizontal,"(890.0, 262.0)",[0.51],1,1801.319
7,False,413,0.799,47,[],[],"[(1100, 907)]",[],[1],[76],[1.2666666666666666],"[640.0, 512.0]",horizontal,"(890.0, 262.0)",[0.462],1,1806.304
7,False,414,1.21,72,[],[],"[(1123, 907)]",[],[1],[101],[1.6833333333333333],"[640.0, 512.0]",vertical,"(890.0, 762.0)",[0.468],1,1809.097
7,False,415,0.402,24,[],[],"[(1107, 910)]",[],[1],[58],[0.9666666666666667],"[640.0, 512.0]",horizontal,"(890.0, 762.0)",[0.545],1,1812.328
7,False,416,1.134,68,[],[],"[(1134, 919)]",[],[1],[99],[1.65],"[640.0, 512.0]",horizontal,"(390.0, 762.0)",[0.492],1,1814.777
7,False,417,0.822,49,[],[],"[(1099, 901)]",[],[1],[78],[1.3],"[640.0, 512.0]",vertical,"(890.0, 262.0)",[0.472],1,1817.937
7,False,418,1.211,72,[],[],"[(1115, 914)]",[],[1],[101],[1.6833333333333333],"[640.0, 512.0]",vertical,"(390.0, 762.0)",[0.47],1,1820.766
7,False,419,1.042,62,[],[],"[(1115, 911)]",[],[1],[93],[1.55],"[640.0, 512.0]",horizontal,"(390.0, 762.0)",[0.494],1,1824.013
7,False,420,1.49,89,[],[],"[(1098, 912)]",[],[1],[117],[1.95],"[640.0, 512.0]",horizontal,"(890.0, 762.0)",[0.445],1,1827.116
8,False,421,0.444,26,[],[],"[(1128, 904)]",[],[1],[59],[0.9833333333333333],"[640.0, 512.0]",horizontal,"(390.0, 762.0)",[0.528],1,1830.538
8,False,422,1.349,80,[],[],"[(619, 899), (1122, 923)]",[],"[0, 1]",[130],[2.1666666666666665],"[640.0, 512.0]",vertical,"(390.0, 762.0)",[0.815],0,1833.06
8,False,423,0.335,20,[],[],"[(1078, 902)]",[],[1],[67],[1.1166666666666667],"[640.0, 512.0]",vertical,"(390.0, 762.0)",[0.754],1,1837.731
8,False,424,0.586,35,[],[],"[(1124, 906)]",[],[1],[81],[1.35],"[640.0, 512.0]",vertical,"(890.0, 262.0)",[0.751],1,1841.878
8,False,425,0.314,18,[],[],"[(1093, 903)]",[],[1],[52],[0.8666666666666667],"[640.0, 512.0]",horizontal,"(890.0, 262.0)",[0.539],1,1844.758
8,False,426,0.465,27,[],[],"[(1107, 875)]",[],[1],[77],[1.2833333333333332],"[640.0, 512.0]",vertical,"(890.0, 262.0)",[0.812],0,1847.199
8,False,427,1.161,69,[],[1902443],"[(1112, 898)]","[(1076, 913)]",[1],[64],[1.0666666666666667],"[640.0, 512.0]",horizontal,"(390.0, 762.0)",[0],0,1852.025
8,False,428,0.395,23,[],[],"[(1122, 917)]",[],[1],[58],[0.9666666666666667],"[640.0, 512.0]",vertical,"(390.0, 262.0)",[0.556],1,1871.125
8,False,429,1.242,74,[],[1907749],"[(1122, 898)]","[(1084, 923)]",[1],[72],[1.2],"[640.0, 512.0]",horizontal,"(890.0, 262.0)",[0],0,1873.663
8,False,430,1.296,77,[],[],"[(1120, 907)]",[],[1],[86],[1.4333333333333333],"[640.0, 512.0]",vertical,"(390.0, 762.0)",[0.132],1,1876.423
8,False,431,1.406,84,[],[1913524],"[(1115, 908)]","[(1068, 927)]",[1],[73],[1.2166666666666666],"[640.0, 512.0]",horizontal,"(390.0, 262.0)",[0],0,1879.411
8,False,432,0.603,36,[],[],"[(1097, 897)]",[],[1],[68],[1.1333333333333333],"[640.0, 512.0]",vertical,"(890.0, 262.0)",[0.509],1,1882.202
8,False,433,0.614,36,[],[],"[(1115, 911)]",[],[1],[77],[1.2833333333333332],"[640.0, 512.0]",vertical,"(390.0, 262.0)",[0.665],1,1885.005
8,False,434,0.463,27,[],[],"[(1117, 905)]",[],[1],[60],[1.0],"[640.0, 512.0]",horizontal,"(890.0, 762.0)",[0.525],1,1887.807
8,False,435,0.819,49,[],[],"[(1107, 893)]",[],[1],[79],[1.3166666666666667],"[640.0, 512.0]",horizontal,"(890.0, 762.0)",[0.477],1,1890.335
8,False,436,0.793,47,[],[],"[(1131, 903)]",[],[1],[72],[1.2],"[640.0, 512.0]",vertical,"(890.0, 262.0)",[0.396],1,1893.197
8,False,437,0.526,31,[],[],"[(1135, 907)]",[],[1],[63],[1.05],"[640.0, 512.0]",horizontal,"(390.0, 262.0)",[0.508],1,1895.898
8,False,438,1.373,82,[],[],"[(1119, 914)]",[],[1],[99],[1.65],"[640.0, 512.0]",vertical,"(390.0, 762.0)",[0.263],1,1898.475
8,False,439,0.673,40,[],[],"[(1093, 901)]",[],[1],[85],[1.4166666666666667],"[640.0, 512.0]",horizontal,"(890.0, 262.0)",[0.725],1,1901.771
8,False,440,0.302,18,[],[],"[(1109, 907)]",[],[1],[54],[0.9],"[640.0, 512.0]",horizontal,"(390.0, 262.0)",[0.582],1,1904.785
8,False,441,0.437,26,[],[],"[(1107, 902)]",[],[1],[58],[0.9666666666666667],"[640.0, 512.0]",vertical,"(390.0, 262.0)",[0.509],1,1907.222
8,False,442,1.389,83,[],[],"[(1112, 906)]",[],[1],[100],[1.6666666666666667],"[640.0, 512.0]",horizontal,"(390.0, 262.0)",[0.267],1,1909.736
8,False,443,0.807,48,[],[],"[(1119, 914)]",[],[1],[78],[1.3],"[640.0, 512.0]",horizontal,"(390.0, 262.0)",[0.479],1,1912.929
8,False,444,0.714,42,[],[],"[(1131, 911)]",[],[1],[71],[1.1833333333333333],"[640.0, 512.0]",horizontal,"(890.0, 262.0)",[0.462],1,1915.769
8,False,445,1.03,61,[],[],"[(1113, 908)]",[],[1],[92],[1.5333333333333332],"[640.0, 512.0]",vertical,"(390.0, 762.0)",[0.496],1,1918.506
8,False,446,0.918,55,[],[],"[(1105, 915)]",[],[1],[84],[1.4],"[640.0, 512.0]",vertical,"(890.0, 262.0)",[0.465],1,1921.575
8,False,447,1.363,81,[],[],"[(1100, 911)]",[],[1],[104],[1.7333333333333334],"[640.0, 512.0]",vertical,"(890.0, 762.0)",[0.36],1,1924.482
8,False,448,1.212,72,[],[],"[(1117, 912)]",[],[1],[122],[2.033333333333333],"[640.0, 512.0]",horizontal,"(390.0, 262.0)",[0.804],0,1927.729
8,False,449,1.278,76,[],[],"[(1126, 893)]",[],[1],[90],[1.5],"[640.0, 512.0]",horizontal,"(390.0, 262.0)",[0.215],1,1931.307
8,False,450,0.851,51,[],[],"[(1105, 931)]",[],[1],[77],[1.2833333333333332],"[640.0, 512.0]",vertical,"(890.0, 762.0)",[0.411],1,1934.446
8,False,451,1.39,83,[],[],"[(1112, 904)]",[],[1],[93],[1.55],"[640.0, 512.0]",horizontal,"(890.0, 262.0)",[0.149],1,1937.298
8,False,452,0.512,30,[],[],"[(1115, 911)]",[],[1],[62],[1.0333333333333332],"[640.0, 512.0]",vertical,"(390.0, 762.0)",[0.514],1,1940.419
8,False,453,1.126,67,[],[],"[(1100, 907)]",[],[1],[98],[1.6333333333333333],"[640.0, 512.0]",vertical,"(890.0, 762.0)",[0.495],1,1943.073
8,False,454,0.925,55,[],[],"[(1115, 912)]",[],[1],[88],[1.4666666666666666],"[640.0, 512.0]",horizontal,"(890.0, 262.0)",[0.53],1,1946.935
8,False,455,1.132,67,[],[],"[(1122, 907)]",[],[1],[113],[1.8833333333333333],"[640.0, 512.0]",vertical,"(890.0, 262.0)",[0.74],1,1949.925
8,False,456,0.332,19,[],[],"[(1093, 916)]",[],[1],[55],[0.9166666666666666],"[640.0, 512.0]",vertical,"(390.0, 762.0)",[0.576],1,1953.341
8,False,457,0.479,28,[],[],"[(1093, 907)]",[],[1],[78],[1.3],"[640.0, 512.0]",vertical,"(390.0, 262.0)",[0.805],0,1957.341
8,False,458,0.408,24,[],[],"[(1091, 918)]",[],[1],[59],[0.9833333333333333],"[640.0, 512.0]",horizontal,"(390.0, 762.0)",[0.557],1,1960.21
8,False,459,0.88,52,[],[],"[(1087, 926)]",[],[1],[82],[1.3666666666666667],"[640.0, 512.0]",horizontal,"(890.0, 762.0)",[0.478],1,1963.961
8,False,460,0.535,32,[],[],"[(1093, 907)]",[],[1],[62],[1.0333333333333332],"[640.0, 512.0]",horizontal,"(890.0, 262.0)",[0.482],1,1976.283
8,False,461,0.323,19,[],[],"[(1092, 915)]",[],[1],[50],[0.8333333333333334],"[640.0, 512.0]",vertical,"(890.0, 262.0)",[0.496],1,1978.888
8,False,462,0.729,43,[],[],"[(1102, 901)]",[],[1],[71],[1.1833333333333333],"[640.0, 512.0]",vertical,"(890.0, 262.0)",[0.449],1,1981.288
8,False,463,0.349,20,[],[],"[(1117, 912)]",[],[1],[69],[1.15],"[640.0, 512.0]",vertical,"(890.0, 262.0)",[0.787],1,1984.018
8,False,464,0.661,39,[],[],"[(1098, 899)]",[],[1],[72],[1.2],"[640.0, 512.0]",horizontal,"(390.0, 762.0)",[0.523],1,1986.682
8,False,465,0.735,44,[],[],"[(1105, 907)]",[],[1],[75],[1.25],"[640.0, 512.0]",horizontal,"(390.0, 762.0)",[0.499],1,1989.476
8,False,466,0.989,59,[],[],"[(1105, 927)]",[],[1],[83],[1.3833333333333333],"[640.0, 512.0]",vertical,"(390.0, 762.0)",[0.379],1,1992.334
8,False,467,1.064,63,[],[],"[(1097, 918)]",[],[1],[87],[1.45],"[640.0, 512.0]",horizontal,"(390.0, 762.0)",[0.375],1,1995.236
8,False,468,1.137,68,[],[],"[(1093, 922)]",[],[1],[93],[1.55],"[640.0, 512.0]",horizontal,"(390.0, 262.0)",[0.395],1,2000.44
8,False,469,0.762,45,[],[],"[(1136, 895)]",[],[1],[78],[1.3],"[640.0, 512.0]",vertical,"(390.0, 762.0)",[0.526],1,2003.528
8,False,470,1.046,62,[],[],"[(1099, 913)]",[],[1],[91],[1.5166666666666666],"[640.0, 512.0]",vertical,"(390.0, 762.0)",[0.461],1,2006.384
8,False,471,0.757,45,[],[],"[(1131, 919)]",[],[1],[84],[1.4],"[640.0, 512.0]",horizontal,"(390.0, 762.0)",[0.625],1,2009.388
8,False,472,1.364,81,[],[],"[(1131, 917)]",[],[1],[114],[1.9],"[640.0, 512.0]",horizontal,"(390.0, 262.0)",[0.525],1,2012.335
8,False,473,1.209,72,[],[],"[(1093, 910)]",[],[1],[102],[1.7],"[640.0, 512.0]",vertical,"(390.0, 262.0)",[0.487],1,2015.748
8,False,474,1.023,61,[],[],"[(1131, 923)]",[],[1],[86],[1.4333333333333333],"[640.0, 512.0]",vertical,"(390.0, 262.0)",[0.395],1,2019.691
8,False,475,0.864,51,[],[],"[(1136, 912)]",[],[1],[81],[1.35],"[640.0, 512.0]",horizontal,"(390.0, 262.0)",[0.481],1,2022.65
8,False,476,1.382,82,[],[],"[(1109, 904)]",[],[1],[108],[1.8],"[640.0, 512.0]",vertical,"(890.0, 262.0)",[0.413],1,2025.535
8,False,477,1.251,75,[],[],"[(1107, 914)]",[],[1],[110],[1.8333333333333333],"[640.0, 512.0]",horizontal,"(390.0, 762.0)",[0.561],1,2028.871
8,False,478,1.476,88,[],[],"[(1089, 913)]",[],[1],[109],[1.8166666666666667],"[640.0, 512.0]",vertical,"(890.0, 262.0)",[0.336],1,2032.265
8,False,479,0.552,33,[],[],"[(1117, 898)]",[],[1],[65],[1.0833333333333333],"[640.0, 512.0]",vertical,"(390.0, 262.0)",[0.515],1,2035.86
8,False,480,1.4,84,[],[],"[(1102, 916)]",[],[1],[110],[1.8333333333333333],"[640.0, 512.0]",horizontal,"(890.0, 762.0)",[0.417],1,2038.484
9,False,481,1.176,70,[],[],"[(1106, 911)]",[],[1],[92],[1.5333333333333332],"[640.0, 512.0]",vertical,"(390.0, 762.0)",[0.349],1,2041.872
9,False,482,1.102,66,[],[],"[(1093, 918)]",[],[1],[87],[1.45],"[640.0, 512.0]",vertical,"(890.0, 262.0)",[0.329],1,2044.95
9,False,483,0.451,27,[],[],"[(1136, 917)]",[],[1],[72],[1.2],"[640.0, 512.0]",vertical,"(890.0, 262.0)",[0.724],1,2047.936
9,False,484,1.241,74,[],[],"[(1102, 915)]",[],[1],[101],[1.6833333333333333],"[640.0, 512.0]",horizontal,"(390.0, 762.0)",[0.425],1,2050.637
9,False,485,0.33,19,[],[],"[(1134, 907)]",[],[1],[69],[1.15],"[640.0, 512.0]",vertical,"(890.0, 762.0)",[0.805],0,2053.838
9,False,486,1.269,76,[],[],"[(1099, 904)]",[],[1],[126],[2.1],"[640.0, 512.0]",vertical,"(390.0, 762.0)",[0.806],0,2056.536
9,False,487,1.042,62,[],[],"[(1092, 908)]",[],[1],[84],[1.4],"[640.0, 512.0]",horizontal,"(890.0, 762.0)",[0.34],1,2060.259
9,False,488,0.647,38,[],[],"[(1099, 914)]",[],[1],[67],[1.1166666666666667],"[640.0, 512.0]",vertical,"(390.0, 262.0)",[0.462],1,2063.483
9,False,489,0.497,29,[],[],"[(1100, 909)]",[],[1],[63],[1.05],"[640.0, 512.0]",vertical,"(390.0, 262.0)",[0.539],1,2066.077
9,False,490,0.431,25,[],[],"[(1102, 915)]",[],[1],[59],[0.9833333333333333],"[640.0, 512.0]",vertical,"(890.0, 762.0)",[0.544],1,2068.712
9,False,491,0.559,33,[],[],"[(1107, 902)]",[],[1],[69],[1.15],"[640.0, 512.0]",vertical,"(890.0, 762.0)",[0.572],1,2071.235
9,False,492,0.513,30,[],[],"[(1098, 914)]",[],[1],[66],[1.1],"[640.0, 512.0]",horizontal,"(390.0, 762.0)",[0.579],1,2073.886
9,False,493,0.659,39,[],[],"[(1102, 909)]",[],[1],[76],[1.2666666666666666],"[640.0, 512.0]",horizontal,"(890.0, 262.0)",[0.592],1,2076.537
9,False,494,1.15,69,[],[],"[(1081, 906)]",[],[1],[88],[1.4666666666666666],"[640.0, 512.0]",vertical,"(890.0, 262.0)",[0.298],1,2079.314
9,False,495,1.36,81,[],[],"[(1092, 909)]",[],[1],[87],[1.45],"[640.0, 512.0]",horizontal,"(890.0, 762.0)",[0.082],1,2082.515
9,False,496,0.892,53,[],[],"[(1107, 917)]",[],[1],[94],[1.5666666666666667],"[640.0, 512.0]",horizontal,"(890.0, 262.0)",[0.664],1,2085.863
9,False,497,1.268,76,[],[],"[(1107, 906)]",[],[1],[104],[1.7333333333333334],"[640.0, 512.0]",vertical,"(390.0, 762.0)",[0.45],1,2088.965
9,False,498,0.636,38,[],[],"[(1134, 894)]",[],[1],[71],[1.1833333333333333],"[640.0, 512.0]",horizontal,"(390.0, 762.0)",[0.533],1,2092.23
9,False,499,1.146,68,[],[],"[(1102, 907)]",[],[1],[96],[1.6],"[640.0, 512.0]",horizontal,"(390.0, 762.0)",[0.451],1,2095.019
9,False,500,0.941,56,[],[],"[(471, 678), (892, 902), (888, 912), (1097, 918)]",[],"[0, 0, 0, 1]",[106],[1.7666666666666666],"[640.0, 512.0]",horizontal,"(890.0, 262.0)",[0.811],0,2098.265
9,False,501,1.013,60,[],[],"[(1073, 897)]",[],[1],[110],[1.8333333333333333],"[640.0, 512.0]",vertical,"(890.0, 762.0)",[0.803],0,2147.6
9,False,502,1.321,79,[],[2190807],"[(872, 579), (1068, 910)]","[(1036, 980)]","[0, 1]",[32],[0.5333333333333333],"[640.0, 512.0]",vertical,"(890.0, 262.0)",[0],0,2153.835
9,False,503,0.927,55,[],[],"[(1082, 928)]",[],[1],[105],[1.75],"[640.0, 512.0]",horizontal,"(390.0, 262.0)",[0.8],0,2159.489
9,False,504,0.36,21,[],[],"[(1088, 905)]",[],[1],[71],[1.1833333333333333],"[640.0, 512.0]",vertical,"(390.0, 262.0)",[0.804],0,2162.802
9,False,505,0.801,48,[],[],"[(1069, 955), (1052, 920)]",[],"[0, 1]",[91],[1.5166666666666666],"[640.0, 512.0]",vertical,"(890.0, 262.0)",[0.69],1,2166.689
9,False,506,0.43,25,[],[],"[(1078, 928)]",[],[1],[44],[0.7333333333333333],"[640.0, 512.0]",vertical,"(890.0, 762.0)",[0.293],1,2173.1
9,False,507,1.033,61,[],[2210484],"[(1104, 948), (1083, 926)]","[(1070, 942)]","[0, 1]",[58],[0.9666666666666667],"[640.0, 512.0]",horizontal,"(390.0, 762.0)",[0],0,2175.404
9,False,508,1.016,60,[],[],"[(1062, 942)]",[],[1],[67],[1.1166666666666667],"[640.0, 512.0]",horizontal,"(390.0, 762.0)",[0.101],1,2179.168
9,False,509,0.861,51,[],[],"[(1109, 917)]",[],[1],[78],[1.3],"[640.0, 512.0]",horizontal,"(390.0, 762.0)",[0.428],1,2182.593
9,False,510,0.478,28,[],[],"[(1102, 918)]",[],[1],[61],[1.0166666666666666],"[640.0, 512.0]",horizontal,"(390.0, 262.0)",[0.525],1,2185.377
9,False,511,0.908,54,[],[],"[(1102, 924)]",[],[1],[76],[1.2666666666666666],"[640.0, 512.0]",vertical,"(390.0, 762.0)",[0.344],1,2187.874
9,False,512,1.223,73,[],[2223781],"[(1124, 914)]","[(1097, 931)]",[1],[22],[0.36666666666666664],"[640.0, 512.0]",vertical,"(890.0, 262.0)",[0],0,2190.507
9,False,513,0.319,19,[],[2225620],"[(827, 884), (1085, 922)]","[(1085, 922)]","[0, 1]",[13],[0.21666666666666667],"[640.0, 512.0]",vertical,"(390.0, 262.0)",[0],0,2192.458
9,False,514,1.291,77,[],[2227666],"[(746, 728), (1104, 936)]","[(1041, 946)]","[0, 1]",[22],[0.36666666666666664],"[640.0, 512.0]",horizontal,"(390.0, 762.0)",[0],0,2194.301
9,False,515,0.457,27,[],[2229500],"[(1072, 929)]","[(1072, 940)]",[1],[14],[0.23333333333333334],"[640.0, 512.0]",horizontal,"(390.0, 262.0)",[0],0,2196.353
9,False,516,0.62,37,[],[],"[(888, 739), (743, 902), (1029, 975), (795, 745), (754, 760), (936, 773), (888, 797), (1073, 897)]",[],"[0, 0, 0, 0, 0, 0, 0, 1]",[70],[1.1666666666666667],"[640.0, 512.0]",vertical,"(390.0, 762.0)",[0.531],1,2198.179
9,False,517,0.599,35,[],[],"[(1077, 914)]",[],[1],[38],[0.6333333333333333],"[640.0, 512.0]",vertical,"(390.0, 262.0)",[0.033],1,2203.918
9,False,518,1.156,69,[],[],"[(759, 657), (738, 878), (1135, 900)]",[],"[0, 0, 1]",[92],[1.5333333333333332],"[640.0, 512.0]",vertical,"(390.0, 262.0)",[0.362],1,2206.075
9,False,519,0.562,33,[],[],"[(768, 971), (1088, 858)]",[],"[0, 1]",[83],[1.3833333333333333],"[640.0, 512.0]",vertical,"(890.0, 762.0)",[0.806],0,2210.079
9,False,520,0.72,43,[],[],"[(1068, 916)]",[],[1],[70],[1.1666666666666667],"[640.0, 512.0]",vertical,"(390.0, 262.0)",[0.432],1,2214.199
9,False,521,0.998,59,[],[],"[(828, 863), (1119, 913)]",[],"[0, 1]",[72],[1.2],"[640.0, 512.0]",horizontal,"(890.0, 762.0)",[0.201],1,2217.124
9,False,522,0.311,18,[],[],"[(1087, 936)]",[],[1],[52],[0.8666666666666667],"[640.0, 512.0]",horizontal,"(390.0, 262.0)",[0.545],1,2219.933
9,False,523,0.464,27,[],[],"[(814, 912), (777, 917), (1050, 956), (864, 971), (1087, 922)]",[],"[0, 0, 0, 0, 1]",[77],[1.2833333333333332],"[640.0, 512.0]",vertical,"(890.0, 762.0)",[0.802],0,2223.601
9,False,524,1.366,81,[],[],"[(1126, 906)]",[],[1],[131],[2.183333333333333],"[640.0, 512.0]",horizontal,"(390.0, 762.0)",[0.813],0,2236.212
9,False,525,1.314,78,[],[2276030],"[(1117, 991), (1078, 896)]","[(1055, 910)]","[0, 1]",[70],[1.1666666666666667],"[640.0, 512.0]",vertical,"(390.0, 762.0)",[0],0,2239.926
9,False,526,0.323,19,[],[],"[(1137, 912)]",[],[1],[69],[1.15],"[640.0, 512.0]",vertical,"(890.0, 262.0)",[0.81],0,2244.719
9,False,527,0.79,47,[],[],"[(1146, 873)]",[],[1],[87],[1.45],"[640.0, 512.0]",horizontal,"(890.0, 262.0)",[0.638],1,2247.387
9,False,528,1.083,64,[],[],"[(1122, 917)]",[],[1],[77],[1.2833333333333332],"[640.0, 512.0]",horizontal,"(890.0, 262.0)",[0.198],1,2250.335
9,False,529,0.962,57,[],[2289039],"[(790, 922), (1085, 950), (1043, 902)]","[(800, 897)]","[0, 0, 1]","[57, 107]","[0.95, 1.7833333333333332]","[640.0, 512.0]",vertical,"(890.0, 762.0)","[0, 0.799]",0,2253.147
9,False,530,0.331,19,[],[],"[(803, 868), (1076, 934)]",[],"[0, 1]",[66],[1.1],"[640.0, 512.0]",horizontal,"(390.0, 262.0)",[0.756],1,2258.509
9,False,531,0.833,49,[],[],"[(1075, 919)]",[],[1],[68],[1.1333333333333333],"[640.0, 512.0]",horizontal,"(390.0, 262.0)",[0.298],1,2262.816
9,False,532,0.66,39,[],[],"[(1101, 904)]",[],[1],[45],[0.75],"[640.0, 512.0]",horizontal,"(890.0, 262.0)",[0.087],1,2266.563
9,False,533,1.011,60,[],[],"[(1102, 917)]",[],[1],[77],[1.2833333333333332],"[640.0, 512.0]",horizontal,"(390.0, 262.0)",[0.267],1,2269.118
9,False,534,0.961,57,[],[],"[(1103, 915)]",[],[1],[85],[1.4166666666666667],"[640.0, 512.0]",vertical,"(390.0, 262.0)",[0.444],1,2272.701
9,False,535,0.701,42,[],[],"[(1092, 912)]",[],[1],[83],[1.3833333333333333],"[640.0, 512.0]",horizontal,"(890.0, 262.0)",[0.659],1,2275.683
9,False,536,0.77,46,[],[2333755],"[(1061, 944)]","[(1053, 947)]",[1],[45],[0.75],"[640.0, 512.0]",horizontal,"(890.0, 762.0)",[0],0,2278.698
9,False,537,0.396,23,[],[],"[(1096, 898)]",[],[1],[55],[0.9166666666666666],"[640.0, 512.0]",horizontal,"(390.0, 762.0)",[0.513],1,2302.436
9,False,538,1.02,61,[],[2339112],"[(1096, 902)]","[(1059, 919)]",[1],"[61, 111]","[1.0166666666666666, 1.8499999999999999]","[640.0, 512.0]",horizontal,"(390.0, 762.0)","[0, 0.823]",0,2304.95
9,False,539,0.843,50,[],[],"[(1112, 892)]",[],[1],[72],[1.2],"[640.0, 512.0]",vertical,"(890.0, 762.0)",[0.344],1,2308.597
9,False,540,0.999,59,[],[],"[(1117, 918)]",[],[1],[61],[1.0166666666666666],"[640.0, 512.0]",vertical,"(890.0, 262.0)",[0.017],1,2311.301
10,False,541,1.349,80,[],[],"[(1126, 904)]",[],[1],[99],[1.65],"[640.0, 512.0]",horizontal,"(890.0, 762.0)",[0.297],1,2313.879
10,False,542,0.992,59,[],[],"[(1097, 929)]",[],[1],[71],[1.1833333333333333],"[640.0, 512.0]",horizontal,"(390.0, 762.0)",[0.181],1,2317.069
10,False,543,0.931,55,[],[],"[(1118, 919)]",[],[1],[87],[1.45],"[640.0, 512.0]",vertical,"(890.0, 762.0)",[0.515],1,2319.929
10,False,544,0.926,55,[],[],"[(1088, 910)]",[],[1],[96],[1.6],"[640.0, 512.0]",horizontal,"(890.0, 262.0)",[0.659],1,2322.866
10,False,545,0.342,20,[],[],"[(1114, 912)]",[],[1],[60],[1.0],"[640.0, 512.0]",vertical,"(390.0, 762.0)",[0.645],1,2326.556
10,False,546,0.736,44,[],[],"[(1123, 927)]",[],[1],[73],[1.2166666666666666],"[640.0, 512.0]",vertical,"(390.0, 262.0)",[0.465],1,2329.053
10,False,547,1.169,70,[],[],"[(1112, 928)]",[],[1],[104],[1.7333333333333334],"[640.0, 512.0]",vertical,"(890.0, 762.0)",[0.542],1,2331.758
10,False,548,0.596,35,[],[],"[(1114, 911)]",[],[1],[67],[1.1166666666666667],"[640.0, 512.0]",horizontal,"(390.0, 762.0)",[0.51],1,2334.988
10,False,549,0.642,38,[],[],"[(1112, 907)]",[],[1],[68],[1.1333333333333333],"[640.0, 512.0]",horizontal,"(890.0, 262.0)",[0.486],1,2337.66
10,False,550,0.687,41,[],[],"[(1096, 920)]",[],[1],[80],[1.3333333333333333],"[640.0, 512.0]",vertical,"(890.0, 762.0)",[0.623],1,2340.329
10,False,551,0.614,36,[],[],"[(1117, 912)]",[],[1],[67],[1.1166666666666667],"[640.0, 512.0]",horizontal,"(890.0, 262.0)",[0.494],1,2343.18
10,False,552,0.851,51,[],[],"[(1107, 910)]",[],[1],[90],[1.5],"[640.0, 512.0]",vertical,"(390.0, 762.0)",[0.619],1,2345.799
10,False,553,0.7,42,[],[],"[(1109, 907)]",[],[1],[70],[1.1666666666666667],"[640.0, 512.0]",horizontal,"(890.0, 262.0)",[0.448],1,2348.784
10,False,554,1.135,68,[],[],"[(1112, 911)]",[],[1],[90],[1.5],"[640.0, 512.0]",horizontal,"(890.0, 762.0)",[0.342],1,2351.475
10,False,555,1.29,77,[],[],"[(1124, 926)]",[],[1],[97],[1.6166666666666667],"[640.0, 512.0]",horizontal,"(390.0, 262.0)",[0.317],1,2354.493
10,False,556,1.48,88,[],[],"[(1112, 914)]",[],[1],[117],[1.95],"[640.0, 512.0]",horizontal,"(890.0, 262.0)",[0.468],1,2357.654
10,False,557,1.075,64,[],[],"[(1119, 909)]",[],[1],[107],[1.7833333333333332],"[640.0, 512.0]",horizontal,"(390.0, 762.0)",[0.692],1,2361.535
10,False,558,1.038,62,[],[],"[(1088, 917)]",[],[1],[89],[1.4833333333333334],"[640.0, 512.0]",horizontal,"(890.0, 762.0)",[0.436],1,2364.877
10,False,559,0.355,21,[],[],"[(1104, 907)]",[],[1],[59],[0.9833333333333333],"[640.0, 512.0]",vertical,"(390.0, 762.0)",[0.608],1,2372.001
10,False,560,0.346,20,[],[],"[(1117, 908)]",[],[1],[66],[1.1],"[640.0, 512.0]",vertical,"(890.0, 262.0)",[0.744],1,2374.479
10,False,561,1.256,75,[],[],"[(1094, 898)]",[],[1],[108],[1.8],"[640.0, 512.0]",vertical,"(390.0, 762.0)",[0.526],1,2377.072
10,False,562,0.73,43,[],[],"[(1124, 907)]",[],[1],[70],[1.1666666666666667],"[640.0, 512.0]",vertical,"(390.0, 262.0)",[0.432],1,2380.387
10,False,563,1.123,67,[],[],"[(1099, 923)]",[],[1],[94],[1.5666666666666667],"[640.0, 512.0]",vertical,"(890.0, 262.0)",[0.429],1,2383.128
10,False,564,0.424,25,[],[],"[(1088, 913)]",[],[1],[57],[0.95],"[640.0, 512.0]",horizontal,"(390.0, 762.0)",[0.516],1,2386.181
10,False,565,1.234,74,[],[],"[(1088, 904)]",[],[1],[104],[1.7333333333333334],"[640.0, 512.0]",horizontal,"(390.0, 762.0)",[0.475],1,2388.677
10,False,566,1.416,84,[],[],"[(1110, 906)]",[],[1],[107],[1.7833333333333332],"[640.0, 512.0]",vertical,"(890.0, 762.0)",[0.361],1,2391.965
10,False,567,1.422,85,[],[],"[(1112, 916)]",[],[1],[114],[1.9],"[640.0, 512.0]",vertical,"(390.0, 762.0)",[0.467],1,2395.259
10,False,568,0.369,22,[],[],"[(1118, 918)]",[],[1],[55],[0.9166666666666666],"[640.0, 512.0]",horizontal,"(890.0, 262.0)",[0.531],1,2399.281
10,False,569,1.29,77,[],[],"[(1092, 910)]",[],[1],[92],[1.5333333333333332],"[640.0, 512.0]",vertical,"(390.0, 262.0)",[0.231],1,2401.718
10,False,570,0.545,32,[],[],"[(1104, 899)]",[],[1],[64],[1.0666666666666667],"[640.0, 512.0]",horizontal,"(390.0, 262.0)",[0.51],1,2404.777
10,False,571,0.807,48,[],[],"[(1108, 921)]",[],[1],[78],[1.3],"[640.0, 512.0]",horizontal,"(890.0, 262.0)",[0.479],1,2408.74
10,False,572,1.022,61,[],[],"[(1101, 900)]",[],[1],[91],[1.5166666666666666],"[640.0, 512.0]",vertical,"(390.0, 762.0)",[0.478],1,2411.753
10,False,573,0.867,52,[],[],"[(1100, 907)]",[],[1],[84],[1.4],"[640.0, 512.0]",vertical,"(390.0, 762.0)",[0.51],1,2414.913
10,False,574,0.764,45,[],[],"[(1115, 912)]",[],[1],[78],[1.3],"[640.0, 512.0]",horizontal,"(390.0, 762.0)",[0.53],1,2417.817
10,False,575,1.103,66,[],[],"[(1110, 913)]",[],[1],[100],[1.6666666666666667],"[640.0, 512.0]",horizontal,"(390.0, 262.0)",[0.547],1,2420.752
10,False,576,0.954,57,[],[],"[(1108, 901)]",[],[1],[92],[1.5333333333333332],"[640.0, 512.0]",vertical,"(390.0, 762.0)",[0.561],1,2423.931
10,False,577,0.986,59,[],[],"[(1104, 923)]",[],[1],[93],[1.55],"[640.0, 512.0]",horizontal,"(390.0, 262.0)",[0.541],1,2427.0
10,False,578,1.047,62,[],[],"[(1068, 917)]",[],[1],[93],[1.55],"[640.0, 512.0]",vertical,"(390.0, 762.0)",[0.496],1,2430.111
10,False,579,1.124,67,[],[],"[(1112, 918)]",[],[1],[99],[1.65],"[640.0, 512.0]",vertical,"(890.0, 762.0)",[0.511],1,2433.156
10,False,580,1.072,64,[],[],"[(1102, 912)]",[],[1],[99],[1.65],"[640.0, 512.0]",horizontal,"(390.0, 762.0)",[0.561],1,2436.35
10,False,581,0.665,39,[],[],"[(1109, 915)]",[],[1],[73],[1.2166666666666666],"[640.0, 512.0]",vertical,"(890.0, 762.0)",[0.546],1,2439.538
10,False,582,0.917,55,[],[],"[(1110, 909)]",[],[1],[92],[1.5333333333333332],"[640.0, 512.0]",vertical,"(890.0, 262.0)",[0.59],1,2442.274
10,False,583,0.643,38,[],[],"[(1107, 913)]",[],[1],[82],[1.3666666666666667],"[640.0, 512.0]",vertical,"(890.0, 762.0)",[0.705],1,2445.358
10,False,584,1.046,62,[],[],"[(1108, 911)]",[],[1],[83],[1.3833333333333333],"[640.0, 512.0]",vertical,"(390.0, 262.0)",[0.33],1,2448.3
10,False,585,0.329,19,[],[],"[(1097, 905)]",[],[1],[67],[1.1166666666666667],"[640.0, 512.0]",horizontal,"(390.0, 762.0)",[0.773],1,2452.044
10,False,586,0.684,41,[],[],"[(1102, 923)]",[],[1],[73],[1.2166666666666666],"[640.0, 512.0]",vertical,"(390.0, 762.0)",[0.509],1,2454.822
10,False,587,1.257,75,[],[],"[(1083, 915)]",[],[1],[107],[1.7833333333333332],"[640.0, 512.0]",vertical,"(390.0, 762.0)",[0.512],1,2457.968
10,False,588,1.418,85,[],[2497232],"[(1115, 920)]","[(1084, 935)]",[1],"[85, 135]","[1.4166666666666667, 2.25]","[640.0, 512.0]",horizontal,"(390.0, 262.0)","[0, 0.8]",0,2462.923
10,False,589,0.608,36,[],[],"[(1104, 897)]",[],[1],[74],[1.2333333333333334],"[640.0, 512.0]",vertical,"(390.0, 262.0)",[0.606],1,2466.707
10,False,590,1.362,81,[],[],"[(1088, 911)]",[],[1],[99],[1.65],"[640.0, 512.0]",horizontal,"(890.0, 262.0)",[0.279],1,2469.49
10,False,591,0.794,47,[],[],"[(1075, 922)]",[],[1],[78],[1.3],"[640.0, 512.0]",vertical,"(890.0, 762.0)",[0.497],1,2472.89
10,False,592,0.944,56,[],[],"[(1097, 906)]",[],[1],[88],[1.4666666666666666],"[640.0, 512.0]",vertical,"(890.0, 762.0)",[0.509],1,2475.867
10,False,593,1.235,74,[],[],"[(1100, 915)]",[],[1],[106],[1.7666666666666666],"[640.0, 512.0]",vertical,"(390.0, 262.0)",[0.509],1,2478.849
10,False,594,0.329,19,[],[],"[(1125, 914)]",[],[1],[55],[0.9166666666666666],"[640.0, 512.0]",vertical,"(890.0, 762.0)",[0.581],1,2482.154
10,False,595,0.941,56,[],[],"[(1093, 918)]",[],[1],[87],[1.45],"[640.0, 512.0]",vertical,"(890.0, 762.0)",[0.501],1,2484.591
10,False,596,0.457,27,[],[],"[(1127, 913)]",[],[1],[60],[1.0],"[640.0, 512.0]",vertical,"(890.0, 762.0)",[0.532],1,2487.608
10,False,597,1.187,71,[],[],"[(1098, 917)]",[],[1],[95],[1.5833333333333333],"[640.0, 512.0]",horizontal,"(390.0, 262.0)",[0.378],1,2490.152
10,False,598,1.162,69,[],[],"[(1105, 922)]",[],[1],[95],[1.5833333333333333],"[640.0, 512.0]",horizontal,"(390.0, 262.0)",[0.412],1,2494.05
10,False,599,0.992,59,[],[],"[(1116, 918)]",[],[1],[89],[1.4833333333333334],"[640.0, 512.0]",horizontal,"(390.0, 762.0)",[0.48],1,2497.178
10,False,600,0.744,44,[],[],"[(1102, 916)]",[],[1],[73],[1.2166666666666666],"[640.0, 512.0]",horizontal,"(890.0, 262.0)",[0.459],1,2500.197
11,False,601,0.358,21,[],[],"[(1098, 907)]",[],[1],[55],[0.9166666666666666],"[640.0, 512.0]",vertical,"(890.0, 762.0)",[0.544],1,2503.366
11,False,602,1.108,66,[],[],"[(1105, 912)]",[],[1],[95],[1.5833333333333333],"[640.0, 512.0]",vertical,"(390.0, 762.0)",[0.457],1,2505.816
11,False,603,1.012,60,[],[],"[(1107, 896)]",[],[1],[91],[1.5166666666666666],"[640.0, 512.0]",horizontal,"(390.0, 762.0)",[0.499],1,2508.876
11,False,604,0.59,35,[],[],"[(1093, 912)]",[],[1],[71],[1.1833333333333333],"[640.0, 512.0]",horizontal,"(890.0, 762.0)",[0.581],1,2511.955
11,False,605,0.982,58,[],[],"[(1107, 912)]",[],[1],[90],[1.5],"[640.0, 512.0]",vertical,"(890.0, 262.0)",[0.516],1,2515.004
11,False,606,0.775,46,[],[],"[(1119, 899)]",[],[1],[80],[1.3333333333333333],"[640.0, 512.0]",vertical,"(390.0, 762.0)",[0.539],1,2518.073
11,False,607,1.135,68,[],[],"[(1112, 897)]",[],[1],[97],[1.6166666666666667],"[640.0, 512.0]",horizontal,"(890.0, 262.0)",[0.458],1,2520.922
11,False,608,1.102,66,[],[],"[(1100, 912)]",[],[1],[93],[1.55],"[640.0, 512.0]",vertical,"(890.0, 262.0)",[0.426],1,2523.985
11,False,609,0.784,47,[],[],"[(1110, 923)]",[],[1],[80],[1.3333333333333333],"[640.0, 512.0]",vertical,"(390.0, 262.0)",[0.52],1,2527.123
11,False,610,0.567,34,[],[],"[(1120, 918)]",[],[1],[69],[1.15],"[640.0, 512.0]",horizontal,"(390.0, 262.0)",[0.563],1,2529.999
11,False,611,1.278,76,[],[],"[(1122, 888)]",[],[1],[105],[1.75],"[640.0, 512.0]",horizontal,"(890.0, 762.0)",[0.461],1,2532.68
11,False,612,1.374,82,[],[],"[(1106, 917)]",[],[1],[111],[1.8499999999999999],"[640.0, 512.0]",vertical,"(890.0, 762.0)",[0.456],1,2535.963
11,False,613,1.259,75,[],[],"[(1108, 923)]",[],[1],[101],[1.6833333333333333],"[640.0, 512.0]",vertical,"(890.0, 262.0)",[0.413],1,2539.928
11,False,614,1.48,88,[],[],"[(1129, 915)]",[],[1],[108],[1.8],"[640.0, 512.0]",horizontal,"(890.0, 262.0)",[0.317],1,2543.166
11,False,615,1.177,70,[],[],"[(1104, 898)]",[],[1],[99],[1.65],"[640.0, 512.0]",horizontal,"(390.0, 762.0)",[0.462],1,2546.554
11,False,616,1.271,76,[],[],"[(1080, 902)]",[],[1],[102],[1.7],"[640.0, 512.0]",vertical,"(390.0, 762.0)",[0.411],1,2549.743
11,False,617,1.095,65,[],[],"[(1102, 913)]",[],[1],[94],[1.5666666666666667],"[640.0, 512.0]",horizontal,"(390.0, 762.0)",[0.463],1,2553.572
11,False,618,1.113,66,[],[],"[(1102, 911)]",[],[1],[94],[1.5666666666666667],"[640.0, 512.0]",horizontal,"(890.0, 262.0)",[0.443],1,2556.699
11,False,619,0.927,55,[],[],"[(1107, 904)]",[],[1],[88],[1.4666666666666666],"[640.0, 512.0]",vertical,"(890.0, 262.0)",[0.531],1,2559.779
11,False,620,1.386,83,[],[],"[(1103, 902)]",[],[1],[106],[1.7666666666666666],"[640.0, 512.0]",vertical,"(890.0, 762.0)",[0.358],1,2562.784
11,False,621,0.535,32,[],[],"[(1109, 907)]",[],[1],[65],[1.0833333333333333],"[640.0, 512.0]",horizontal,"(890.0, 762.0)",[0.523],1,2566.039
11,False,622,0.614,36,[],[],"[(1086, 914)]",[],[1],[68],[1.1333333333333333],"[640.0, 512.0]",horizontal,"(890.0, 262.0)",[0.513],1,2568.668
11,False,623,1.058,63,[],[],"[(1104, 909)]",[],[1],[95],[1.5833333333333333],"[640.0, 512.0]",horizontal,"(890.0, 762.0)",[0.51],1,2571.72
11,False,624,1.098,65,[],[],"[(1106, 918)]",[],[1],[96],[1.6],"[640.0, 512.0]",horizontal,"(390.0, 762.0)",[0.491],1,2574.83
11,False,625,0.48,28,[],[],"[(1089, 919)]",[],[1],[61],[1.0166666666666666],"[640.0, 512.0]",vertical,"(390.0, 762.0)",[0.53],1,2577.943
11,False,626,0.385,23,[],[],"[(1102, 912)]",[],[1],[73],[1.2166666666666666],"[640.0, 512.0]",vertical,"(390.0, 262.0)",[0.808],0,2580.507
11,False,627,0.786,47,[],[],"[(1102, 911)]",[],[1],[80],[1.3333333333333333],"[640.0, 512.0]",vertical,"(890.0, 262.0)",[0.526],1,2583.284
11,False,628,1.089,65,[],[],"[(1134, 925)]",[],[1],[105],[1.75],"[640.0, 512.0]",horizontal,"(890.0, 762.0)",[0.637],1,2586.402
11,False,629,1.324,79,[],[],"[(1103, 898)]",[],[1],[109],[1.8166666666666667],"[640.0, 512.0]",horizontal,"(390.0, 262.0)",[0.483],1,2589.659
11,False,630,0.754,45,[],[],"[(1112, 902)]",[],[1],[87],[1.45],"[640.0, 512.0]",horizontal,"(390.0, 262.0)",[0.688],1,2593.055
11,False,631,1.271,76,[],[],"[(1110, 914)]",[],[1],[111],[1.8499999999999999],"[640.0, 512.0]",horizontal,"(890.0, 262.0)",[0.563],1,2596.043
11,False,632,0.559,33,[],[],"[(1096, 902)]",[],[1],[68],[1.1333333333333333],"[640.0, 512.0]",vertical,"(390.0, 762.0)",[0.556],1,2599.531
11,False,633,1.038,62,[],[],"[(1110, 917)]",[],[1],[91],[1.5166666666666666],"[640.0, 512.0]",vertical,"(390.0, 762.0)",[0.465],1,2605.19
11,False,634,0.604,36,[],[],"[(1122, 909)]",[],[1],[67],[1.1166666666666667],"[640.0, 512.0]",vertical,"(890.0, 262.0)",[0.495],1,2608.254
11,False,635,1.228,73,[],[],"[(1112, 902)]",[],[1],[99],[1.65],"[640.0, 512.0]",horizontal,"(890.0, 262.0)",[0.413],1,2610.882
11,False,636,1.055,63,[],[],"[(1097, 909)]",[],[1],[93],[1.55],"[640.0, 512.0]",horizontal,"(890.0, 262.0)",[0.479],1,2614.095
11,False,637,0.644,38,[],[],"[(1106, 905)]",[],[1],[73],[1.2166666666666666],"[640.0, 512.0]",horizontal,"(390.0, 262.0)",[0.567],1,2617.193
11,False,638,1.255,75,[],[],"[(1103, 912)]",[],[1],[94],[1.5666666666666667],"[640.0, 512.0]",horizontal,"(390.0, 262.0)",[0.298],1,2620.375
11,False,639,1.212,72,[],[],"[(1122, 906)]",[],[1],[90],[1.5],"[640.0, 512.0]",horizontal,"(890.0, 262.0)",[0.285],1,2623.451
11,False,640,0.916,54,[],[],"[(1093, 920)]",[],[1],[84],[1.4],"[640.0, 512.0]",vertical,"(890.0, 262.0)",[0.477],1,2626.483
11,False,641,0.495,29,[],[],"[(1093, 909)]",[],[1],[65],[1.0833333333333333],"[640.0, 512.0]",vertical,"(890.0, 262.0)",[0.578],1,2629.416
11,False,642,1.084,65,[],[],"[(1101, 908)]",[],[1],[95],[1.5833333333333333],"[640.0, 512.0]",vertical,"(890.0, 762.0)",[0.473],1,2632.044
11,False,643,0.533,31,[],[],"[(1078, 907)]",[],[1],[67],[1.1166666666666667],"[640.0, 512.0]",horizontal,"(890.0, 762.0)",[0.574],1,2635.221
11,False,644,1.448,86,[],[],"[(1107, 911)]",[],[1],[113],[1.8833333333333333],"[640.0, 512.0]",vertical,"(390.0, 262.0)",[0.422],1,2638.173
11,False,645,1.105,66,[],[],"[(1112, 918)]",[],[1],[100],[1.6666666666666667],"[640.0, 512.0]",horizontal,"(890.0, 762.0)",[0.55],1,2641.618
11,False,646,0.492,29,[],[],"[(1093, 912)]",[],[1],[72],[1.2],"[640.0, 512.0]",vertical,"(890.0, 262.0)",[0.683],1,2645.051
11,False,647,1.021,61,[],[],"[(1093, 898)]",[],[1],[95],[1.5833333333333333],"[640.0, 512.0]",vertical,"(890.0, 762.0)",[0.544],1,2647.766
11,False,648,1.006,60,[],[],"[(1082, 937)]",[],[1],[77],[1.2833333333333332],"[640.0, 512.0]",horizontal,"(890.0, 762.0)",[0.266],1,2650.95
11,False,649,0.508,30,[],[],"[(1108, 902)]",[],[1],[67],[1.1166666666666667],"[640.0, 512.0]",horizontal,"(890.0, 262.0)",[0.594],1,2675.792
11,False,650,0.54,32,[],[],"[(1097, 907)]",[],[1],[68],[1.1333333333333333],"[640.0, 512.0]",vertical,"(890.0, 262.0)",[0.574],1,2678.438
11,False,651,0.642,38,[],[],"[(1088, 919)]",[],[1],[81],[1.35],"[640.0, 512.0]",vertical,"(390.0, 762.0)",[0.696],1,2681.172
11,False,652,0.335,20,[],[],"[(819, 738), (746, 978), (799, 1004), (746, 1020), (819, 917), (883, 927), (863, 948), (888, 799), (888, 988), (892, 991), (890, 1005), (818, 1013), (1059, 941)]",[],"[0, 0, 0, 0, 0, 0, 0, 0, 0, 0, 0, 0, 1]",[70],[1.1666666666666667],"[640.0, 512.0]",horizontal,"(390.0, 262.0)",[0.815],0,2684.132
11,False,653,1.199,71,[],[2864672],"[(834, 785), (488, 581), (423, 532), (1074, 932)]","[(1059, 930)]","[0, 0, 0, 1]",[11],[0.18333333333333332],"[640.0, 512.0]",vertical,"(890.0, 762.0)",[0],0,2800.421
11,False,654,1.42,85,[],[2867471],"[(1128, 909)]","[(1120, 921)]",[1],[72],[1.2],"[640.0, 512.0]",vertical,"(890.0, 762.0)",[0],0,2833.351
11,False,655,0.751,45,[],[],"[(1112, 922)]",[],[1],[78],[1.3],"[640.0, 512.0]",horizontal,"(390.0, 262.0)",[0.527],1,2836.164
11,False,656,0.425,25,[],[],"[(1100, 928)]",[],[1],[50],[0.8333333333333334],"[640.0, 512.0]",horizontal,"(390.0, 262.0)",[0.394],1,2842.95
11,False,657,1.194,71,[],[2880039],"[(1102, 933)]","[(1089, 934)]",[1],[54],[0.9],"[640.0, 512.0]",horizontal,"(890.0, 262.0)",[0],0,2845.598
11,False,658,1.122,67,[],[],"[(1114, 919)]",[],[1],[71],[1.1833333333333333],"[640.0, 512.0]",horizontal,"(890.0, 262.0)",[0.05],1,2848.725
11,False,659,0.896,53,[],[],"[(1102, 917)]",[],[1],[64],[1.0666666666666667],"[640.0, 512.0]",vertical,"(390.0, 262.0)",[0.166],1,2851.565
11,False,660,0.626,37,[],[],"[(1112, 916)]",[],[1],[68],[1.1333333333333333],"[640.0, 512.0]",vertical,"(890.0, 262.0)",[0.501],1,2854.147
12,False,661,0.957,57,[],[],"[(1107, 918)]",[],[1],[65],[1.0833333333333333],"[640.0, 512.0]",horizontal,"(890.0, 762.0)",[0.116],1,2856.845
12,False,662,0.477,28,[],[],"[(1112, 921)]",[],[1],[53],[0.8833333333333333],"[640.0, 512.0]",horizontal,"(890.0, 762.0)",[0.392],1,2859.468
12,False,663,0.421,25,[],[],"[(1114, 918)]",[],[1],[58],[0.9666666666666667],"[640.0, 512.0]",vertical,"(390.0, 762.0)",[0.526],1,2862.034
12,False,664,1.222,73,[],[2898594],"[(1122, 901)]","[(1088, 919)]",[1],[68],[1.1333333333333333],"[640.0, 512.0]",horizontal,"(390.0, 262.0)",[0],0,2864.552
12,False,665,1.038,62,[],[],"[(1083, 914)]",[],[1],[71],[1.1833333333333333],"[640.0, 512.0]",horizontal,"(890.0, 762.0)",[0.134],1,2867.291
12,False,666,1.105,66,[],[2904233],"[(1109, 913)]","[(1080, 928)]",[1],"[66, 116]","[1.1, 1.9333333333333333]","[640.0, 512.0]",horizontal,"(890.0, 762.0)","[0, 0.805]",0,2870.245
12,False,667,0.678,40,[],[],"[(1137, 907)]",[],[1],[59],[0.9833333333333333],"[640.0, 512.0]",horizontal,"(890.0, 762.0)",[0.3],1,2873.707
12,False,668,1.136,68,[],[],"[(1083, 928)]",[],[1],[78],[1.3],"[640.0, 512.0]",horizontal,"(390.0, 262.0)",[0.149],1,2876.226
12,False,669,0.608,36,[],[],"[(1104, 915)]",[],[1],[65],[1.0833333333333333],"[640.0, 512.0]",vertical,"(890.0, 262.0)",[0.465],1,2879.103
12,False,670,0.613,36,[],[],"[(1105, 909)]",[],[1],[68],[1.1333333333333333],"[640.0, 512.0]",vertical,"(390.0, 762.0)",[0.522],1,2881.728
12,False,671,0.744,44,[],[],"[(1117, 898)]",[],[1],[76],[1.2666666666666666],"[640.0, 512.0]",vertical,"(390.0, 762.0)",[0.514],1,2884.392
12,False,672,0.496,29,[],[],"[(1112, 892)]",[],[1],[70],[1.1666666666666667],"[640.0, 512.0]",vertical,"(390.0, 262.0)",[0.66],1,2887.158
12,False,673,0.982,58,[],[],"[(1105, 902)]",[],[1],[83],[1.3833333333333333],"[640.0, 512.0]",horizontal,"(890.0, 762.0)",[0.399],1,2889.886
12,False,674,0.408,24,[],[],"[(1117, 909)]",[],[1],[60],[1.0],"[640.0, 512.0]",horizontal,"(890.0, 762.0)",[0.581],1,2892.966
12,False,675,0.847,50,[],[],"[(1111, 908)]",[],[1],[89],[1.4833333333333334],"[640.0, 512.0]",vertical,"(890.0, 262.0)",[0.629],1,2895.505
12,False,676,1.161,69,[],[],"[(1092, 932)]",[],[1],[83],[1.3833333333333333],"[640.0, 512.0]",horizontal,"(390.0, 762.0)",[0.218],1,2898.555
12,False,677,0.912,54,[],[],"[(1108, 924)]",[],[1],[81],[1.35],"[640.0, 512.0]",vertical,"(390.0, 262.0)",[0.428],1,2903.142
12,False,678,1.47,88,[],[],"[(1126, 922)]",[],[1],[94],[1.5666666666666667],"[640.0, 512.0]",vertical,"(390.0, 762.0)",[0.083],1,2906.063
12,False,679,1.391,83,[],[2943312],"[(1102, 911)]","[(1074, 926)]",[1],[77],[1.2833333333333332],"[640.0, 512.0]",horizontal,"(390.0, 262.0)",[0],0,2909.178
12,False,680,0.52,31,[],[],"[(1112, 917)]",[],[1],[64],[1.0666666666666667],"[640.0, 512.0]",horizontal,"(890.0, 262.0)",[0.524],1,2911.998
12,False,681,1.212,72,[],[],"[(1112, 902)]",[],[1],[90],[1.5],"[640.0, 512.0]",vertical,"(390.0, 262.0)",[0.28],1,2914.618
12,False,682,1.108,66,[],[],"[(1105, 904)]",[],[1],[97],[1.6166666666666667],"[640.0, 512.0]",horizontal,"(390.0, 762.0)",[0.498],1,2917.644
12,False,683,0.555,33,[],[],"[(1112, 921)]",[],[1],[66],[1.1],"[640.0, 512.0]",horizontal,"(390.0, 762.0)",[0.525],1,2920.806
12,False,684,1.101,66,[],[],"[(1107, 927)]",[],[1],[79],[1.3166666666666667],"[640.0, 512.0]",horizontal,"(390.0, 262.0)",[0.201],1,2923.433
12,False,685,1.46,87,[],[2960490],"[(1097, 899)]","[(1071, 920)]",[1],[81],[1.35],"[640.0, 512.0]",vertical,"(890.0, 262.0)",[0],0,2926.284
12,False,686,1.378,82,[],[2963482],"[(1107, 905)]","[(1069, 920)]",[1],[81],[1.35],"[640.0, 512.0]",horizontal,"(390.0, 262.0)",[0],0,2929.181
12,False,687,1.194,71,[],[],"[(1101, 923)]",[],[1],[85],[1.4166666666666667],"[640.0, 512.0]",horizontal,"(890.0, 762.0)",[0.215],1,2932.175
12,False,688,0.779,46,[],[],"[(1097, 910)]",[],[1],[78],[1.3],"[640.0, 512.0]",horizontal,"(390.0, 762.0)",[0.512],1,2935.266
12,False,689,0.844,50,[],[],"[(1105, 902)]",[],[1],[81],[1.35],"[640.0, 512.0]",horizontal,"(890.0, 262.0)",[0.501],1,2938.134
12,False,690,1.025,61,[],[],"[(1101, 910)]",[],[1],[86],[1.4333333333333333],"[640.0, 512.0]",horizontal,"(890.0, 262.0)",[0.397],1,2941.006
12,False,691,1.186,71,[],[],"[(1088, 917)]",[],[1],[104],[1.7333333333333334],"[640.0, 512.0]",vertical,"(390.0, 762.0)",[0.542],1,2943.985
12,False,692,0.359,21,[],[],"[(1065, 916)]",[],[1],[55],[0.9166666666666666],"[640.0, 512.0]",horizontal,"(890.0, 762.0)",[0.542],1,2948.194
12,False,693,1.238,74,[],[],"[(1102, 918)]",[],[1],[84],[1.4],"[640.0, 512.0]",horizontal,"(890.0, 262.0)",[0.15],1,2951.289
12,False,694,0.742,44,[],[],"[(1100, 904)]",[],[1],[75],[1.25],"[640.0, 512.0]",vertical,"(390.0, 262.0)",[0.496],1,2955.058
12,False,695,0.716,42,[],[],"[(1089, 921)]",[],[1],[73],[1.2166666666666666],"[640.0, 512.0]",vertical,"(390.0, 762.0)",[0.492],1,2957.835
12,False,696,0.493,29,[],[],"[(1112, 914)]",[],[1],[62],[1.0333333333333332],"[640.0, 512.0]",vertical,"(890.0, 262.0)",[0.527],1,2960.568
12,False,697,1.431,85,[],[],"[(1104, 922)]",[],[1],[93],[1.55],"[640.0, 512.0]",horizontal,"(890.0, 762.0)",[0.117],1,2963.152
12,False,698,0.458,27,[],[],"[(1102, 903)]",[],[1],[61],[1.0166666666666666],"[640.0, 512.0]",vertical,"(890.0, 762.0)",[0.546],1,2966.204
12,False,699,1.165,69,[],[],"[(1123, 896)]",[],[1],[88],[1.4666666666666666],"[640.0, 512.0]",vertical,"(890.0, 762.0)",[0.295],1,2968.756
12,False,700,1.079,64,[],[],"[(1102, 907)]",[],[1],[96],[1.6],"[640.0, 512.0]",vertical,"(890.0, 762.0)",[0.508],1,2971.761
12,False,701,0.611,36,[],[],"[(1093, 911)]",[],[1],[68],[1.1333333333333333],"[640.0, 512.0]",horizontal,"(890.0, 762.0)",[0.517],1,2974.879
12,False,702,0.541,32,[],[],"[(1086, 912)]",[],[1],[65],[1.0833333333333333],"[640.0, 512.0]",horizontal,"(390.0, 762.0)",[0.53],1,2978.032
12,False,703,1.497,89,[],[],"[(1117, 914)]",[],[1],[95],[1.5833333333333333],"[640.0, 512.0]",horizontal,"(890.0, 762.0)",[0.084],1,2980.635
12,False,704,0.482,28,[],[],"[(1093, 919)]",[],[1],[61],[1.0166666666666666],"[640.0, 512.0]",horizontal,"(890.0, 762.0)",[0.524],1,2983.793
12,False,705,1.416,84,[],[],"[(1105, 917)]",[],[1],[105],[1.75],"[640.0, 512.0]",vertical,"(390.0, 262.0)",[0.325],1,2986.35
12,False,706,0.595,35,[],[],"[(1093, 910)]",[],[1],[66],[1.1],"[640.0, 512.0]",horizontal,"(890.0, 262.0)",[0.499],1,2989.643
12,False,707,1.394,83,[],[],"[(1095, 913)]",[],[1],[96],[1.6],"[640.0, 512.0]",horizontal,"(390.0, 262.0)",[0.201],1,2992.279
12,False,708,0.462,27,[],[],"[(1093, 917)]",[],[1],[63],[1.05],"[640.0, 512.0]",horizontal,"(390.0, 262.0)",[0.569],1,2995.432
12,False,709,0.549,32,[],[],"[(1092, 898)]",[],[1],[62],[1.0333333333333332],"[640.0, 512.0]",vertical,"(390.0, 262.0)",[0.479],1,2998.045
12,False,710,1.458,87,[],[],"[(1094, 915)]",[],[1],[113],[1.8833333333333333],"[640.0, 512.0]",vertical,"(890.0, 762.0)",[0.407],1,3000.593
12,False,711,0.896,53,[],[],"[(1122, 921)]",[],[1],[84],[1.4],"[640.0, 512.0]",horizontal,"(390.0, 262.0)",[0.496],1,3003.934
12,False,712,0.9,54,[],[],"[(1115, 896)]",[],[1],[84],[1.4],"[640.0, 512.0]",vertical,"(890.0, 762.0)",[0.48],1,3006.822
12,False,713,1.136,68,[],[],"[(1102, 912)]",[],[1],[91],[1.5166666666666666],"[640.0, 512.0]",horizontal,"(390.0, 262.0)",[0.361],1,3009.723
12,False,714,1.249,74,[],[],"[(1107, 902)]",[],[1],[101],[1.6833333333333333],"[640.0, 512.0]",horizontal,"(890.0, 262.0)",[0.425],1,3012.795
12,False,715,0.999,59,[],[],"[(1111, 907)]",[],[1],[85],[1.4166666666666667],"[640.0, 512.0]",vertical,"(890.0, 262.0)",[0.414],1,3015.98
12,False,716,1.095,65,[],[],"[(1115, 895)]",[],[1],[97],[1.6166666666666667],"[640.0, 512.0]",vertical,"(890.0, 262.0)",[0.509],1,3018.913
12,False,717,0.413,24,[],[],"[(1094, 911)]",[],[1],[71],[1.1833333333333333],"[640.0, 512.0]",horizontal,"(390.0, 762.0)",[0.754],1,3022.018
12,False,718,0.705,42,[],[],"[(1093, 917)]",[],[1],[74],[1.2333333333333334],"[640.0, 512.0]",vertical,"(890.0, 762.0)",[0.524],1,3024.717
