block,trial,trial_type,taps_start_loc_during_fix,taps_end_loc_during_fix,taps_on_lever_during_fix,taps_on_lever_s_during_fix,bar_orientation,target_xy,cti,rt,acc,time,pulses,fa_rate_recent100,p_catch
0,1,catch,"[(1142, 864)]",[],[1],[],horizontal,"(890.0, 762.0)",1.7,nan,1,0.52,1,0.0,0.25
0,2,catch,"[(1145, 808)]",[],[1],[],horizontal,"(390.0, 762.0)",1.7,nan,1,12.005,1,0.0,0.25
0,3,target,"[(1145, 781)]",[],[1],[0.5],horizontal,"(390.0, 262.0)",1.15,0.462,1,435.381,1,0.0,0.25
0,4,catch,"[(1180, 813)]",[],[1],[],vertical,"(890.0, 262.0)",1.7,nan,1,440.42,2,0.0,0.25
0,5,target,"[(1176, 781)]",[],[1],[0.65],horizontal,"(890.0, 262.0)",0.7333333333333333,0.6,1,446.263,2,0.0,0.25
0,6,target,"[(1174, 779)]",[],[1],[0.55],vertical,"(890.0, 762.0)",1.4166666666666667,0.503,1,451.448,2,0.0,0.25
0,7,target,"[(1169, 786)]",[],[1],[0.5166666666666666],vertical,"(890.0, 762.0)",0.9333333333333333,0.468,1,457.09,2,0.0,0.25
0,8,target,"[(1177, 783)]",[],[1],[0.7166666666666667],vertical,"(390.0, 762.0)",1.1833333333333333,0.669,1,462.696,3,0.0,0.25
0,9,catch,"[(1178, 779)]",[],[1],[0.03333333333333333],vertical,"(890.0, 762.0)",1.7,"0.02,nan",0,468.53,0,0.1111111111111111,0.25
0,10,target,"[(1161, 761)]",[],[1],[0.48333333333333334],vertical,"(890.0, 262.0)",1.0333333333333332,0.445,1,473.531,1,0.1,0.25
0,11,target,"[(1180, 778)]",[],[1],[0.5833333333333334],vertical,"(390.0, 762.0)",1.0666666666666667,0.544,1,478.779,1,0.09090909090909091,0.25
0,12,catch,"[(1182, 778)]",[],[1],[],horizontal,"(390.0, 762.0)",1.7,nan,1,483.846,1,0.08333333333333333,0.25
0,13,target,"[(1185, 788)]","[(1185, 844)]",[1],[0.48333333333333334],horizontal,"(890.0, 762.0)",,"('bar', 0.491)",0,488.997,0,0.07692307692307693,0.25
0,14,target,"[(1187, 794)]",[],[1],[],horizontal,"(390.0, 762.0)",,"('fix', 0.684)",0,491.846,0,0.07142857142857142,0.25
0,15,target,"[(1189, 821)]",[],[1],[0.48333333333333334],vertical,"(890.0, 262.0)",0.45,0.44,1,494.285,1,0.06666666666666667,0.25
0,16,target,"[(1165, 807)]",[],[1],[0.85],vertical,"(890.0, 762.0)",0.6666666666666666,nan,0,498.948,0,0.0625,0.25
0,17,target,"[(1168, 788)]","[(1150, 794)]",[1],[0.03333333333333333],vertical,"(890.0, 262.0)",,"('bar', 0.051)",0,503.573,0,0.058823529411764705,0.25
0,18,target,"[(1154, 821)]",[],[1],[0.85],vertical,"(390.0, 262.0)",0.5333333333333333,nan,0,505.897,0,0.05555555555555555,0.25
0,19,target,"[(1175, 802)]",[],[1],[0.5333333333333333],horizontal,"(390.0, 762.0)",0.5666666666666667,0.493,1,513.529,1,0.05263157894736842,0.25
0,20,target,"[(1170, 784)]",[],[1],[0.55],horizontal,"(890.0, 262.0)",1.05,0.509,1,518.46,1,0.05,0.25
0,21,catch,"[(1150, 765)]",[],[1],[],horizontal,"(390.0, 262.0)",,"('cti', 1.667),nan",0,523.73,0,0.09523809523809523,0.25
0,22,target,"[(1184, 787)]",[],[1],[0.5],vertical,"(890.0, 762.0)",0.7666666666666666,0.462,1,528.597,1,0.09090909090909091,0.25
0,23,target,"[(1170, 765)]",[],[1],[0.85],vertical,"(390.0, 262.0)",0.5833333333333334,nan,0,533.513,0,0.08695652173913043,0.25
0,24,target,"[(1184, 794)]",[],[1],[0.5],vertical,"(390.0, 262.0)",1.5166666666666666,0.461,1,537.83,1,0.08333333333333333,0.25
0,25,target,"[(1172, 761)]",[],[1],[0.5],horizontal,"(390.0, 262.0)",0.9333333333333333,0.46,1,543.231,1,0.08,0.25
0,26,catch,"[(1166, 778)]",[],[1],[],horizontal,"(390.0, 762.0)",,"('cti', 1.09),nan",0,547.778,0,0.11538461538461539,0.25
0,27,catch,"[(1184, 784)]",[],[1],[],vertical,"(890.0, 262.0)",1.7,nan,1,553.048,1,0.1111111111111111,0.25
0,28,catch,"[(1184, 771)]",[],[1],[],horizontal,"(890.0, 762.0)",1.7,nan,1,558.148,1,0.10714285714285714,0.25
0,29,target,"[(1185, 770)]",[],[1],[0.55],horizontal,"(890.0, 762.0)",0.55,0.507,1,563.463,1,0.10344827586206896,0.25
0,30,catch,"[(1184, 768)]",[],[1],[],vertical,"(890.0, 262.0)",1.7,nan,1,568.268,2,0.1,0.25
0,31,target,"[(1172, 772)]",[],[1],[0.5666666666666667],horizontal,"(390.0, 762.0)",0.6833333333333333,0.526,1,573.813,2,0.0967741935483871,0.25
0,32,catch,"[(1184, 755)]",[],[1],[],horizontal,"(390.0, 262.0)",1.7,nan,1,578.598,2,0.09375,0.25
0,33,catch,"[(1176, 764)]",[],[1],[],horizontal,"(890.0, 762.0)",1.7,nan,1,584.279,2,0.09090909090909091,0.25
0,34,target,"[(1178, 797)]",[],[1],[0.5666666666666667],vertical,"(390.0, 762.0)",0.7666666666666666,0.523,1,589.614,3,0.08823529411764706,0.25
0,35,target,"[(1204, 776)]",[],[1],[0.6],vertical,"(390.0, 762.0)",0.7333333333333333,0.561,1,595.363,3,0.08571428571428572,0.25
0,36,target,"[(1176, 759)]",[],[1],[0.7],vertical,"(890.0, 262.0)",1.15,0.655,1,600.85,3,0.08333333333333333,0.25
0,37,catch,"[(1175, 761)]",[],[1],[],vertical,"(890.0, 762.0)",1.7,nan,1,607.093,3,0.08108108108108109,0.25
0,38,target,"[(1183, 780)]",[],[1],[0.5166666666666666],horizontal,"(890.0, 762.0)",1.0333333333333332,0.473,1,613.351,3,0.07894736842105263,0.25
0,39,target,"[(1182, 781)]",[],[1],[0.48333333333333334],vertical,"(890.0, 762.0)",1.4833333333333334,0.454,1,619.348,3,0.07692307692307693,0.25
0,40,target,"[(1184, 761)]",[],[1],[0.48333333333333334],vertical,"(890.0, 762.0)",0.4,0.441,1,625.716,3,0.075,0.25
0,41,target,"[(1183, 782)]",[],[1],[0.5666666666666667],vertical,"(890.0, 262.0)",1.1166666666666667,0.531,1,630.948,3,0.07317073170731707,0.25
0,42,target,"[(1184, 770)]",[],[1],[0.85],vertical,"(390.0, 262.0)",0.6333333333333333,nan,0,637.003,0,0.07142857142857142,0.25
0,43,target,"[(1176, 788)]",[],[1],[0.5833333333333334],horizontal,"(890.0, 262.0)",1.1,0.544,1,641.262,1,0.06976744186046512,0.25
0,44,catch,"[(1154, 774)]",[],[1],[],horizontal,"(890.0, 262.0)",1.7,nan,1,646.568,1,0.06818181818181818,0.25
0,45,target,"[(1197, 760)]",[],[1],[0.45],horizontal,"(890.0, 262.0)",0.3833333333333333,0.409,1,651.773,1,0.06666666666666667,0.25
0,46,target,"[(1184, 755)]",[],[1],[0.5166666666666666],horizontal,"(890.0, 762.0)",0.48333333333333334,0.475,1,656.343,2,0.06521739130434782,0.25
0,47,target,"[(1184, 772)]",[],[1],[0.85],horizontal,"(890.0, 762.0)",0.5333333333333333,nan,0,661.058,0,0.06382978723404255,0.25
0,48,target,"[(1170, 768)]",[],[1],[0.4666666666666667],horizontal,"(890.0, 262.0)",0.8333333333333334,0.426,1,665.577,1,0.0625,0.25
0,49,target,"[(1184, 760)]",[],[1],[0.5166666666666666],horizontal,"(890.0, 262.0)",1.0666666666666667,0.473,1,670.763,1,0.061224489795918366,0.25
0,50,target,"[(1187, 765)]",[],[1],[0.5333333333333333],vertical,"(890.0, 262.0)",1.2333333333333334,0.491,1,675.497,1,0.06,0.25
0,51,target,"[(1184, 798)]",[],[1],[0.7],horizontal,"(390.0, 762.0)",1.2,0.658,1,680.697,2,0.06,0.25
0,52,target,"[(1183, 769)]",[],[1],[0.5],horizontal,"(390.0, 762.0)",0.75,0.463,1,686.448,2,0.06,0.25
0,53,catch,"[(1184, 778)]",[],[1],[],vertical,"(390.0, 762.0)",1.7,nan,1,691.548,2,0.06,0.25
0,54,target,"[(1184, 778)]",[],[1],[0.6],vertical,"(890.0, 262.0)",0.7833333333333333,0.561,1,696.965,2,0.06,0.25
0,55,target,"[(1185, 779)]",[],[1],[0.5333333333333333],vertical,"(890.0, 262.0)",1.25,0.495,1,702.364,3,0.06,0.25
0,56,target,"[(1184, 778)]",[],[1],[0.48333333333333334],vertical,"(890.0, 262.0)",0.4166666666666667,0.443,1,708.379,3,0.06,0.25
0,57,target,"[(1184, 787)]",[],[1],[0.5666666666666667],vertical,"(390.0, 762.0)",0.6166666666666667,0.519,1,713.36,3,0.06,0.25
0,58,target,"[(1180, 774)]",[],[1],[0.5166666666666666],vertical,"(390.0, 262.0)",0.7333333333333333,0.484,1,718.997,3,0.06,0.25
0,59,target,"[(1165, 765)]",[],[1],[0.85],horizontal,"(890.0, 762.0)",0.75,nan,0,724.913,0,0.04,0.25
0,60,target,"[(1178, 780)]",[],[1],[0.7833333333333333],horizontal,"(390.0, 762.0)",0.75,0.736,1,729.58,1,0.04,0.25
0,61,target,"[(1175, 758)]",[],[1],[0.55],horizontal,"(890.0, 762.0)",0.85,0.515,1,734.74,1,0.04,0.25
0,62,target,"[(1174, 759)]",[],[1],[0.48333333333333334],vertical,"(890.0, 262.0)",0.9,0.448,1,739.444,1,0.04,0.25
0,63,target,"[(1197, 765)]","[(1184, 822)]",[1],[0.3833333333333333],vertical,"(890.0, 762.0)",,"('bar', 0.395)",0,744.164,0,0.04,0.25
0,64,target,"[(1154, 802)]",[],[1],[0.5666666666666667],horizontal,"(390.0, 762.0)",1.4,0.527,1,746.767,1,0.04,0.25
0,65,catch,"[(1181, 770)]",[],[1],[],vertical,"(890.0, 262.0)",1.7,nan,1,752.38,1,0.04,0.25
0,66,target,"[(1150, 760)]",[],[1],[0.3833333333333333],horizontal,"(890.0, 762.0)",1.5333333333333332,0.351,1,757.317,1,0.04,0.25
0,67,target,"[(1184, 808)]",[],[1],[0.5333333333333333],horizontal,"(390.0, 762.0)",0.7333333333333333,0.495,1,762.959,2,0.04,0.25
0,68,catch,"[(1178, 789)]",[],[1],[],horizontal,"(890.0, 262.0)",1.7,nan,1,768.156,2,0.04,0.25
0,69,target,"[(1156, 787)]",[],[1],[0.48333333333333334],horizontal,"(890.0, 762.0)",0.4,0.453,1,774.135,2,0.04,0.25
0,70,catch,"[(1162, 799)]",[],[1],[],horizontal,"(390.0, 762.0)",1.7,nan,1,778.663,2,0.04,0.25
0,71,target,"[(1177, 777)]",[],[1],[0.6],vertical,"(390.0, 762.0)",0.65,0.561,1,784.264,3,0.02,0.25
0,72,target,"[(1175, 774)]",[],[1],[],horizontal,"(890.0, 762.0)",,"('cti', 1.365)",0,790.138,0,0.04,0.25
0,73,catch,"[(1149, 807)]",[],[1],[],vertical,"(890.0, 762.0)",,"('cti', 1.689),nan",0,794.981,0,0.06,0.25
0,74,target,"[(1153, 817)]",[],[1],[0.48333333333333334],horizontal,"(390.0, 762.0)",0.7333333333333333,0.452,1,800.493,1,0.06,0.25
0,75,target,"[(1154, 784)]",[],[1],[0.75],vertical,"(390.0, 262.0)",0.7833333333333333,0.705,1,806.098,1,0.06,0.25
0,76,target,"[(1159, 790)]",[],[1],[0.5],horizontal,"(890.0, 762.0)",1.3166666666666667,0.465,1,811.431,1,0.04,0.25
0,77,target,"[(1178, 791)]",[],[1],[0.85],horizontal,"(890.0, 762.0)",0.4166666666666667,nan,0,816.635,0,0.04,0.25
0,78,catch,"[(1155, 797)]",[],[1],[],horizontal,"(390.0, 762.0)",1.7,nan,1,821.399,1,0.04,0.25
0,79,target,"[(1176, 777)]",[],[1],[0.5333333333333333],vertical,"(890.0, 762.0)",1.15,0.496,1,826.721,1,0.04,0.25
0,80,target,"[(1178, 778)]",[],[1],[0.48333333333333334],vertical,"(890.0, 262.0)",0.8666666666666667,0.451,1,832.276,1,0.04,0.25
0,81,target,"[(1190, 774)]",[],[1],[0.6166666666666667],vertical,"(890.0, 762.0)",0.7666666666666666,0.575,1,836.901,2,0.04,0.25
0,82,catch,"[(1180, 778)]",[],[1],[],horizontal,"(890.0, 762.0)",1.7,nan,1,842.419,2,0.04,0.25
0,83,target,"[(1184, 794)]",[],[1],[0.6333333333333333],vertical,"(890.0, 762.0)",0.7166666666666667,0.593,1,847.977,2,0.04,0.25
0,84,target,"[(1181, 770)]",[],[1],[0.7833333333333333],vertical,"(390.0, 762.0)",0.43333333333333335,0.738,1,853.4,2,0.04,0.25
0,85,target,"[(1154, 803)]",[],[1],[0.5333333333333333],vertical,"(390.0, 762.0)",1.4166666666666667,0.504,1,858.335,3,0.04,0.25
0,86,target,"[(1167, 827)]",[],[1],[0.6333333333333333],horizontal,"(390.0, 762.0)",1.1666666666666667,0.596,1,865.03,3,0.04,0.25
0,87,target,"[(1161, 769)]",[],[1],[0.55],horizontal,"(890.0, 262.0)",1.2,0.511,1,875.165,3,0.04,0.25
0,88,target,"[(1185, 774)]",[],[1],[0.5666666666666667],vertical,"(890.0, 262.0)",0.9166666666666666,0.523,1,881.08,3,0.04,0.25
0,89,target,"[(1175, 780)]",[],[1],[0.55],horizontal,"(390.0, 262.0)",1.4833333333333334,0.516,1,886.565,3,0.04,0.25
0,90,target,"[(1166, 779)]",[],[1],[0.6333333333333333],horizontal,"(890.0, 762.0)",0.7,0.59,1,892.68,3,0.04,0.25
0,91,catch,"[(1175, 778)]",[],[1],[],horizontal,"(890.0, 262.0)",1.7,nan,1,898.181,3,0.04,0.25
0,92,target,"[(1182, 779)]",[],[1],[0.65],horizontal,"(890.0, 762.0)",1.1666666666666667,0.609,1,904.503,3,0.04,0.25
0,93,target,"[(1179, 771)]",[],[1],[0.6333333333333333],vertical,"(390.0, 762.0)",0.6833333333333333,0.594,1,910.932,3,0.04,0.25
0,94,target,"[(1175, 784)]",[],[1],[0.5],horizontal,"(390.0, 262.0)",0.48333333333333334,0.455,1,916.831,3,0.04,0.25
0,95,target,"[(1157, 776)]",[],[1],[0.85],vertical,"(390.0, 762.0)",0.3833333333333333,nan,0,922.049,0,0.04,0.25
0,96,target,"[(1160, 789)]",[],[1],[0.48333333333333334],horizontal,"(390.0, 262.0)",0.85,0.443,1,926.549,1,0.04,0.25
0,97,target,"[(1159, 759)]",[],[1],[0.6833333333333333],horizontal,"(390.0, 762.0)",1.2833333333333332,0.643,1,931.099,1,0.04,0.25
0,98,target,"[(1170, 760)]",[],[1],[0.43333333333333335],horizontal,"(390.0, 762.0)",1.45,0.395,1,936.749,1,0.04,0.25
0,99,target,"[(1169, 781)]",[],[1],[0.5333333333333333],horizontal,"(890.0, 762.0)",0.3833333333333333,0.496,1,941.965,2,0.04,0.25
0,100,target,"[(1174, 782)]",[],[1],[0.6166666666666667],horizontal,"(390.0, 762.0)",1.1666666666666667,0.569,1,946.581,2,0.04,0.25
0,101,target,"[(1170, 781)]",[],[1],[0.5666666666666667],horizontal,"(890.0, 762.0)",0.7666666666666666,0.523,1,952.414,2,0.04,0.25
0,102,target,"[(1154, 789)]",[],[1],[0.4666666666666667],horizontal,"(890.0, 762.0)",1.3333333333333333,0.433,1,957.782,2,0.04,0.25
0,103,target,"[(1169, 777)]",[],[1],[0.55],vertical,"(390.0, 762.0)",0.85,0.507,1,963.433,3,0.04,0.25
0,104,target,"[(1180, 813)]",[],[1],[0.5],vertical,"(890.0, 262.0)",0.6,0.461,1,969.149,3,0.04,0.25
0,105,target,"[(1170, 760)]",[],[1],[0.6],horizontal,"(390.0, 262.0)",0.85,0.558,1,974.549,3,0.04,0.25
0,106,target,"[(1149, 779)]",[],[1],[0.8333333333333334],vertical,"(390.0, 762.0)",0.9833333333333333,0.793,1,980.581,3,0.04,0.25
0,107,target,"[(1154, 778)]",[],[1],[0.5],horizontal,"(890.0, 262.0)",0.4,0.464,1,986.514,3,0.04,0.25
0,108,target,"[(1190, 760)]",[],[1],[0.5833333333333334],vertical,"(390.0, 262.0)",0.5166666666666666,0.545,1,991.716,3,0.04,0.25
0,109,target,"[(1154, 782)]",[],[1],[0.5333333333333333],horizontal,"(390.0, 762.0)",1.2,0.497,1,996.664,3,0.04,0.25
0,110,catch,"[(1155, 760)]",[],[1],[],horizontal,"(890.0, 262.0)",1.7,nan,1,1002.731,3,0.04,0.25
0,111,target,"[(1156, 786)]",[],[1],[0.5166666666666666],horizontal,"(390.0, 762.0)",1.35,0.473,1,1008.856,3,0.04,0.25
0,112,target,"[(1180, 758)]",[],[1],[0.6333333333333333],vertical,"(390.0, 262.0)",1.0,0.586,1,1014.849,3,0.04,0.25
0,113,target,"[(1176, 778)]",[],[1],[0.6],horizontal,"(390.0, 762.0)",0.7333333333333333,0.56,1,1020.748,3,0.04,0.25
0,114,target,"[(1157, 766)]",[],[1],[0.85],horizontal,"(390.0, 762.0)",0.43333333333333335,nan,0,1026.614,0,0.04,0.25
0,115,target,"[(1157, 795)]",[],[1],[0.4],vertical,"(390.0, 762.0)",1.3166666666666667,0.363,1,1030.83,1,0.04,0.25
0,116,target,"[(1173, 756)]",[],[1],[0.5166666666666666],horizontal,"(390.0, 762.0)",0.8166666666666667,0.476,1,1036.516,1,0.04,0.25
0,117,target,"[(1180, 765)]",[],[1],[0.7666666666666666],horizontal,"(390.0, 762.0)",1.0,0.718,1,1041.392,1,0.04,0.25
0,118,target,"[(1178, 776)]",[],[1],[0.7833333333333333],vertical,"(390.0, 262.0)",1.15,0.738,1,1046.949,2,0.04,0.25
0,119,catch,"[(1180, 783)]",[],[1],[],horizontal,"(390.0, 762.0)",1.7,nan,1,1052.515,2,0.04,0.25
0,120,target,"[(1177, 792)]",[],[1],[0.5333333333333333],horizontal,"(390.0, 762.0)",0.95,0.486,1,1058.215,2,0.04,0.25
0,121,target,"[(1195, 808)]",[],[1],[0.6333333333333333],vertical,"(390.0, 262.0)",0.7666666666666666,0.591,1,1063.297,2,0.04,0.25
0,122,target,"[(1154, 817)]",[],[1],[0.5833333333333334],horizontal,"(390.0, 762.0)",1.4666666666666666,0.543,1,1069.331,3,0.02,0.25
0,123,target,"[(1155, 789)]",[],[1],[0.85],horizontal,"(390.0, 262.0)",0.4166666666666667,nan,0,1076.545,0,0.0,0.25
0,124,target,"[(1155, 798)]",[],[1],[0.5166666666666666],vertical,"(890.0, 762.0)",0.5166666666666666,0.473,1,1080.411,1,0.0,0.25
0,125,catch,"[(1169, 772)]",[],[1],[],vertical,"(390.0, 762.0)",1.7,nan,1,1085.158,1,0.0,0.25
0,126,target,"[(1180, 766)]",[],[1],[0.6166666666666667],horizontal,"(390.0, 262.0)",0.43333333333333335,0.579,1,1090.549,1,0.0,0.25
0,127,target,"[(1183, 776)]",[],[1],[0.65],vertical,"(390.0, 262.0)",0.8166666666666667,0.606,1,1095.521,2,0.0,0.25
0,128,target,"[(1185, 789)]",[],[1],[0.3833333333333333],horizontal,"(390.0, 262.0)",1.5,0.341,1,1100.794,2,0.0,0.25
0,129,catch,"[(1181, 782)]",[],[1],[],horizontal,"(390.0, 762.0)",,"('cti', 1.66),nan",0,1106.724,0,0.02,0.25
0,130,target,"[(1145, 794)]",[],[1],[0.5],horizontal,"(890.0, 262.0)",0.35,0.457,1,1111.797,1,0.02,0.25
0,131,catch,"[(1179, 756)]",[],[1],[],vertical,"(890.0, 762.0)",1.7,nan,1,1116.487,1,0.02,0.25
0,132,target,"[(1179, 744), (1163, 809)]",[],"[0, 1]",[0.48333333333333334],vertical,"(890.0, 262.0)",0.6,0.442,1,1121.631,1,0.02,0.25
0,133,target,"[(1195, 778)]",[],[1],[0.5166666666666666],horizontal,"(390.0, 262.0)",0.9666666666666667,0.472,1,1128.036,2,0.02,0.25
0,134,target,"[(1161, 797)]",[],[1],[0.6166666666666667],horizontal,"(890.0, 762.0)",0.7833333333333333,0.572,1,1133.081,2,0.02,0.25
0,135,target,"[(1185, 792)]",[],[1],[0.5166666666666666],horizontal,"(890.0, 262.0)",1.3,0.473,1,1138.522,2,0.02,0.25
0,136,target,"[(1175, 794)]",[],[1],[0.5666666666666667],vertical,"(390.0, 762.0)",0.9,0.522,1,1143.954,2,0.02,0.25
0,137,target,"[(1170, 794)]",[],[1],[0.5166666666666666],horizontal,"(890.0, 262.0)",0.7333333333333333,0.475,1,1149.252,3,0.02,0.25
0,138,catch,"[(1155, 779)]",[],[1],[],vertical,"(390.0, 762.0)",1.7,nan,1,1154.806,3,0.02,0.25
0,139,target,"[(1180, 779)]",[],[1],[0.5166666666666666],vertical,"(890.0, 762.0)",0.6666666666666666,0.473,1,1161.022,3,0.02,0.25
0,140,target,"[(1180, 784)]",[],[1],[0.6666666666666666],horizontal,"(390.0, 262.0)",0.8,0.625,1,1166.204,3,0.02,0.25
0,141,target,"[(1183, 792)]",[],[1],[0.3],vertical,"(890.0, 262.0)",1.4666666666666666,0.265,1,1171.831,3,0.02,0.25
0,142,target,"[(1155, 772)]",[],[1],[0.3333333333333333],horizontal,"(890.0, 262.0)",1.45,0.294,1,1178.275,3,0.02,0.25
0,143,target,"[(1175, 778)]",[],[1],[0.5333333333333333],horizontal,"(390.0, 262.0)",0.36666666666666664,0.496,1,1184.682,3,0.02,0.25
0,144,target,"[(1180, 782)]",[],[1],[0.5666666666666667],vertical,"(890.0, 262.0)",0.7833333333333333,0.525,1,1190.232,3,0.02,0.25
0,145,target,"[(1192, 770)]",[],[1],[0.7666666666666666],vertical,"(390.0, 262.0)",0.9833333333333333,0.718,1,1195.632,3,0.02,0.25
0,146,catch,"[(1154, 794)]",[],[1],[],vertical,"(890.0, 262.0)",1.7,nan,1,1201.583,3,0.02,0.25
0,147,target,"[(1190, 779)]",[],[1],[0.5166666666666666],vertical,"(390.0, 762.0)",1.0166666666666666,0.473,1,1207.871,3,0.02,0.25
0,148,catch,"[(1154, 794)]",[],[1],[],vertical,"(890.0, 762.0)",1.7,nan,1,1213.465,3,0.02,0.25
0,149,target,"[(1183, 775)]",[],[1],[0.85],horizontal,"(890.0, 762.0)",0.43333333333333335,nan,0,1219.281,0,0.02,0.25
0,150,target,"[(1158, 820)]",[],[1],[0.85],horizontal,"(390.0, 262.0)",0.7166666666666667,nan,0,1223.323,0,0.02,0.25
0,151,catch,"[(1154, 803)]",[],[1],[],horizontal,"(390.0, 262.0)",1.7,nan,1,1230.613,1,0.02,0.25
0,152,catch,"[(1174, 782)]",[],[1],[],horizontal,"(890.0, 762.0)",1.7,nan,1,1236.181,1,0.02,0.25
0,153,catch,"[(1186, 769)]",[],[1],[],horizontal,"(890.0, 262.0)",1.7,nan,1,1241.355,1,0.02,0.25
0,154,target,"[(1183, 776)]",[],[1],[0.55],horizontal,"(890.0, 762.0)",0.55,0.503,1,1246.484,2,0.02,0.25
0,155,target,"[(1190, 789)]",[],[1],[0.5333333333333333],vertical,"(390.0, 262.0)",1.5,0.49,1,1251.915,2,0.02,0.25
0,156,catch,"[(1180, 791)]",[],[1],[],horizontal,"(890.0, 262.0)",1.7,nan,1,1258.003,2,0.02,0.25
0,157,catch,"[(1184, 792)]",[],[1],[],vertical,"(890.0, 262.0)",1.7,nan,1,1264.024,2,0.02,0.25
0,158,catch,"[(1180, 789)]",[],[1],[],vertical,"(890.0, 262.0)",1.7,nan,1,1270.298,3,0.02,0.25
0,159,target,"[(1170, 778)]",[],[1],[0.5666666666666667],vertical,"(390.0, 262.0)",0.9833333333333333,0.527,1,1276.698,3,0.02,0.25
0,160,target,"[(1180, 781)]",[],[1],[0.55],vertical,"(890.0, 762.0)",1.3333333333333333,0.507,1,1282.481,3,0.02,0.25
0,161,target,"[(1180, 767)]",[],[1],[0.6333333333333333],horizontal,"(390.0, 762.0)",0.95,0.588,1,1288.541,3,0.02,0.25
0,162,target,"[(1177, 764)]",[],[1],[0.5833333333333334],vertical,"(890.0, 762.0)",1.2,0.536,1,1294.232,3,0.02,0.25
0,163,target,"[(1190, 779)]",[],[1],[0.4666666666666667],horizontal,"(390.0, 262.0)",0.9166666666666666,0.426,1,1300.05,3,0.02,0.25
0,164,target,"[(1190, 769)]",[],[1],[0.48333333333333334],horizontal,"(890.0, 762.0)",1.5333333333333332,0.441,1,1305.462,3,0.02,0.25
0,165,target,"[(1180, 783)]",[],[1],[0.6833333333333333],vertical,"(390.0, 262.0)",1.1,0.637,1,1311.743,3,0.02,0.25
0,166,target,"[(1175, 783)]",[],[1],[0.48333333333333334],horizontal,"(390.0, 262.0)",0.35,0.441,1,1317.776,3,0.02,0.25
0,167,target,"[(1169, 813)]",[],[1],[0.6],horizontal,"(890.0, 262.0)",0.36666666666666664,0.563,1,1322.766,3,0.02,0.25
0,168,target,"[(1190, 785)]",[],[1],[0.5166666666666666],horizontal,"(890.0, 262.0)",0.5,0.473,1,1328.556,3,0.02,0.25
0,169,target,"[(1173, 782)]",[],[1],[0.6333333333333333],vertical,"(890.0, 262.0)",0.5666666666666667,0.585,1,1333.615,3,0.02,0.25
0,170,target,"[(1180, 784)]",[],[1],[0.5],vertical,"(890.0, 262.0)",0.45,0.463,1,1338.948,3,0.02,0.25
0,171,target,"[(1176, 785)]",[],[1],[0.5166666666666666],vertical,"(890.0, 762.0)",0.9833333333333333,0.474,1,1344.076,3,0.02,0.25
0,172,target,"[(1155, 784)]",[],[1],[0.5333333333333333],vertical,"(890.0, 762.0)",0.9666666666666667,0.492,1,1350.035,3,0.02,0.25
0,173,catch,"[(1140, 774)]",[],[1],[],horizontal,"(890.0, 762.0)",1.7,nan,1,1355.555,3,0.02,0.25
0,174,catch,"[(1147, 785)]",[],[1],[],vertical,"(390.0, 262.0)",1.7,nan,1,1361.698,3,0.02,0.25
0,175,catch,"[(1157, 789)]",[],[1],[],vertical,"(890.0, 262.0)",1.7,nan,1,1367.383,3,0.02,0.25
0,176,target,"[(1176, 776)]",[],[1],[0.5833333333333334],vertical,"(390.0, 262.0)",0.4,0.54,1,1373.649,3,0.02,0.25
0,177,target,"[(1190, 790)]",[],[1],[0.45],vertical,"(390.0, 262.0)",1.2666666666666666,0.405,1,1379.165,3,0.02,0.25
0,178,catch,"[(1154, 827)]",[],[1],[],vertical,"(390.0, 762.0)",1.7,nan,1,1385.55,3,0.02,0.25
0,179,target,"[(1176, 796)]",[],[1],[0.5166666666666666],vertical,"(890.0, 262.0)",1.1,0.474,1,1391.782,3,0.0,0.25
0,180,target,"[(1157, 766)]",[],[1],[0.85],vertical,"(390.0, 262.0)",0.35,nan,0,1397.848,0,0.0,0.25
0,181,target,"[(1142, 779)]",[],[1],[0.48333333333333334],horizontal,"(390.0, 262.0)",0.75,0.444,1,1401.87,1,0.0,0.25
0,182,target,"[(1183, 790)]",[],[1],[0.5666666666666667],horizontal,"(390.0, 762.0)",1.1666666666666667,0.528,1,1406.723,1,0.0,0.25
0,183,target,"[(1159, 788)]",[],[1],[0.4666666666666667],vertical,"(390.0, 262.0)",0.36666666666666664,0.424,1,1412.25,1,0.0,0.25
0,184,target,"[(1175, 779)]",[],[1],[0.5333333333333333],vertical,"(890.0, 262.0)",1.0833333333333333,0.495,1,1416.315,2,0.0,0.25
0,185,target,"[(1180, 798)]",[],[1],[0.5666666666666667],horizontal,"(890.0, 262.0)",1.3166666666666667,0.527,1,1422.111,2,0.0,0.25
0,186,target,"[(1193, 798)]",[],[1],[0.6166666666666667],horizontal,"(390.0, 262.0)",0.7,0.576,1,1427.963,2,0.0,0.25
0,187,target,"[(1176, 785)]",[],[1],[0.48333333333333334],vertical,"(890.0, 262.0)",0.36666666666666664,0.446,1,1433.215,2,0.0,0.25
0,188,target,"[(1180, 765)]",[],[1],[0.85],horizontal,"(890.0, 262.0)",0.9833333333333333,nan,0,1437.887,0,0.0,0.25
0,189,catch,"[(1152, 779)]",[],[1],[],horizontal,"(390.0, 762.0)",1.7,nan,1,1443.0,1,0.0,0.25
0,190,catch,"[(1178, 784)]",[],[1],[],vertical,"(890.0, 262.0)",1.7,nan,1,1448.549,1,0.0,0.25
0,191,catch,"[(1098, 983), (1159, 795)]",[],"[0, 1]",[],horizontal,"(390.0, 262.0)",1.7,nan,1,1453.77,1,0.0,0.25
0,192,catch,"[(1190, 791)]",[],[1],[],vertical,"(890.0, 262.0)",,"('cti', 1.651),nan",0,1477.227,0,0.02,0.25
0,193,target,"[(1175, 794)]",[],[1],[0.5333333333333333],horizontal,"(890.0, 762.0)",1.4166666666666667,0.494,1,1482.25,1,0.02,0.25
0,194,catch,"[(1153, 798)]",[],[1],[],vertical,"(890.0, 762.0)",1.7,nan,1,1487.514,1,0.02,0.25
0,195,target,"[(1180, 787)]",[],[1],[0.5],horizontal,"(890.0, 262.0)",1.2666666666666666,0.46,1,1493.033,1,0.02,0.25
0,196,target,"[(1154, 777)]",[],[1],[0.65],vertical,"(390.0, 762.0)",0.5333333333333333,0.605,1,1497.992,2,0.02,0.25
0,197,target,"[(1180, 780)]",[],[1],[0.48333333333333334],vertical,"(390.0, 262.0)",1.0666666666666667,0.449,1,1503.383,2,0.02,0.25
0,198,target,"[(1180, 792)]",[],[1],[0.4666666666666667],vertical,"(390.0, 262.0)",0.55,0.43,1,1508.6,2,0.02,0.25
0,199,target,"[(1157, 776)]",[],[1],[0.48333333333333334],horizontal,"(390.0, 762.0)",0.6333333333333333,0.445,1,1513.365,2,0.02,0.25
0,200,catch,"[(1183, 803)]",[],[1],[],horizontal,"(390.0, 262.0)",1.7,nan,1,1518.447,3,0.02,0.25
0,201,target,"[(1180, 774)]",[],[1],[0.8333333333333334],vertical,"(890.0, 762.0)",1.0,0.796,1,1524.668,3,0.02,0.25
0,202,catch,"[(1176, 777)]",[],[1],[],horizontal,"(890.0, 762.0)",1.7,nan,1,1530.783,3,0.02,0.25
0,203,target,"[(1152, 784)]",[],[1],[0.6666666666666666],vertical,"(390.0, 762.0)",0.8833333333333333,0.628,1,1536.716,3,0.02,0.25
0,204,target,"[(1165, 782)]",[],[1],[0.85],horizontal,"(890.0, 262.0)",0.6166666666666667,nan,0,1542.917,0,0.02,0.25
0,205,target,"[(1179, 793)]",[],[1],[0.55],vertical,"(890.0, 762.0)",1.0166666666666666,0.506,1,1547.151,1,0.02,0.25
0,206,target,"[(1159, 784)]",[],[1],[0.85],vertical,"(390.0, 262.0)",0.7333333333333333,nan,0,1552.382,0,0.02,0.25
0,207,target,"[(1159, 773)]",[],[1],[0.85],vertical,"(890.0, 762.0)",0.5666666666666667,nan,0,1557.117,0,0.02,0.25
0,208,target,"[(1148, 785)]",[],[1],[0.5],horizontal,"(890.0, 262.0)",0.4166666666666667,0.465,1,1561.824,1,0.02,0.25
0,209,target,"[(1159, 781)]",[],[1],[0.5666666666666667],vertical,"(890.0, 762.0)",0.9,0.527,1,1566.283,1,0.02,0.25
0,210,catch,"[(1181, 770)]",[],[1],[],horizontal,"(890.0, 262.0)",1.7,nan,1,1571.221,1,0.02,0.25
0,211,target,"[(1176, 759)]",[],[1],[0.55],horizontal,"(390.0, 262.0)",0.35,0.515,1,1576.282,2,0.02,0.25
0,212,target,"[(1169, 774)]",[],[1],[0.31666666666666665],horizontal,"(390.0, 262.0)",1.2333333333333334,0.283,1,1580.9,2,0.02,0.25
0,213,catch,"[(1175, 783)]",[],[1],[],vertical,"(890.0, 762.0)",1.7,nan,1,1586.782,2,0.02,0.25
0,214,target,"[(1179, 786)]",[],[1],[0.5],vertical,"(890.0, 262.0)",0.55,0.465,1,1592.667,2,0.02,0.25
0,215,target,"[(1175, 781)]",[],[1],[0.5833333333333334],vertical,"(890.0, 262.0)",1.5,0.549,1,1597.989,3,0.02,0.25
0,216,target,"[(1154, 778)]",[],[1],[0.6166666666666667],horizontal,"(390.0, 262.0)",0.8166666666666667,0.579,1,1604.583,3,0.02,0.25
0,217,target,"[(1128, 799)]",[],[1],[0.45],horizontal,"(890.0, 262.0)",1.4,0.417,1,1610.162,3,0.02,0.25
0,218,target,"[(1174, 783)]",[],[1],[0.6166666666666667],horizontal,"(890.0, 262.0)",1.25,0.585,1,1617.115,3,0.02,0.25
0,219,target,"[(1145, 799)]",[],[1],[0.85],horizontal,"(890.0, 262.0)",0.9,nan,0,1623.2,0,0.02,0.25
0,220,target,"[(1163, 774)]",[],[1],[0.85],vertical,"(390.0, 762.0)",0.8333333333333334,nan,0,1628.005,0,0.02,0.25
0,221,target,"[(1155, 778)]",[],[1],[0.3333333333333333],horizontal,"(390.0, 262.0)",0.8,0.299,1,1633.033,1,0.02,0.25
0,222,target,"[(1190, 836)]",[],[1],[0.85],vertical,"(390.0, 262.0)",0.5333333333333333,nan,0,1637.997,0,0.02,0.25
0,223,target,"[(1156, 794)]",[],[1],[0.85],horizontal,"(890.0, 262.0)",1.0833333333333333,nan,0,2126.185,0,0.02,0.25
0,224,target,"[(1147, 780)]",[],[1],[0.48333333333333334],vertical,"(890.0, 262.0)",0.7333333333333333,0.444,1,2130.818,1,0.02,0.25
0,225,target,"[(1140, 796)]",[],[1],[0.55],vertical,"(390.0, 262.0)",1.0,0.506,1,2136.012,1,0.02,0.25
0,226,target,"[(1132, 798)]",[],[1],[0.5],horizontal,"(390.0, 762.0)",0.5666666666666667,0.464,1,2141.201,1,0.02,0.25
0,227,target,"[(1119, 801)]",[],[1],[0.85],horizontal,"(390.0, 262.0)",0.4,nan,0,2145.717,0,0.02,0.25
0,228,catch,"[(1140, 790)]",[],[1],[],horizontal,"(890.0, 762.0)",1.7,nan,1,2150.284,1,0.02,0.25
0,229,target,"[(1155, 787)]",[],[1],[0.55],horizontal,"(390.0, 262.0)",1.1833333333333333,0.512,1,2155.485,1,0.02,0.25
0,230,target,"[(1154, 783)]",[],[1],[0.5],vertical,"(890.0, 262.0)",1.3833333333333333,0.461,1,2160.745,1,0.02,0.25
0,231,target,"[(1119, 796)]",[],[1],[0.6],horizontal,"(390.0, 262.0)",0.9666666666666667,0.558,1,2165.867,2,0.02,0.25
0,232,target,"[(1172, 777)]",[],[1],[0.85],vertical,"(390.0, 262.0)",0.6833333333333333,nan,0,2171.337,0,0.02,0.25
0,233,target,"[(1150, 799)]",[],[1],[0.5333333333333333],horizontal,"(390.0, 762.0)",0.55,0.495,1,2175.986,1,0.02,0.25
0,234,target,"[(1153, 768)]",[],[1],[0.48333333333333334],vertical,"(890.0, 762.0)",0.85,0.447,1,2181.053,1,0.02,0.25
0,235,target,"[(1156, 799)]",[],[1],[0.7333333333333333],vertical,"(390.0, 762.0)",0.5333333333333333,0.68,1,2185.725,1,0.02,0.25
0,236,target,"[(1173, 765)]",[],[1],[0.45],horizontal,"(390.0, 262.0)",1.3166666666666667,0.408,1,2190.752,2,0.02,0.25
0,237,target,"[(1179, 792)]",[],[1],[0.6166666666666667],vertical,"(390.0, 762.0)",1.15,0.577,1,2196.819,2,0.02,0.25
0,238,target,"[(1178, 784)]",[],[1],[0.3],vertical,"(890.0, 762.0)",0.8333333333333334,0.267,1,2202.747,2,0.02,0.25
0,239,target,"[(1178, 786)]",[],[1],[0.4666666666666667],vertical,"(890.0, 262.0)",0.6,0.428,1,2208.166,2,0.02,0.25
0,240,target,"[(1176, 787)]",[],[1],[0.6333333333333333],horizontal,"(890.0, 262.0)",0.9,0.6,1,2213.102,3,0.02,0.25
0,241,catch,"[(1150, 780)]",[],[1],[],horizontal,"(890.0, 762.0)",1.7,nan,1,2219.185,3,0.02,0.25
0,242,catch,"[(1176, 776)]",[],[1],[],vertical,"(890.0, 762.0)",1.7,nan,1,2224.934,3,0.0,0.25
0,243,target,"[(1174, 782)]",[],[1],[0.85],vertical,"(390.0, 762.0)",0.65,nan,0,2231.019,0,0.0,0.25
0,244,target,"[(1129, 782)]",[],[1],[0.55],vertical,"(890.0, 762.0)",0.75,0.509,1,2235.651,1,0.0,0.25
0,245,catch,"[(1138, 794)]",[],[1],[],horizontal,"(890.0, 762.0)",1.7,nan,1,2240.914,1,0.0,0.25
0,246,catch,"[(1148, 783)]",[],[1],[],vertical,"(390.0, 762.0)",1.7,nan,1,2246.102,1,0.0,0.25
0,247,target,"[(1184, 786)]",[],[1],[0.5833333333333334],vertical,"(890.0, 762.0)",0.6666666666666666,0.543,1,2251.451,2,0.0,0.25
0,248,target,"[(1150, 767)]",[],[1],[0.5],vertical,"(890.0, 762.0)",1.5333333333333332,0.461,1,2256.516,2,0.0,0.25
0,249,target,"[(1172, 777)]",[],[1],[0.45],horizontal,"(890.0, 262.0)",1.4166666666666667,0.413,1,2262.416,2,0.0,0.25
0,250,target,"[(1150, 768)]",[],[1],[0.3833333333333333],vertical,"(390.0, 762.0)",1.4666666666666666,0.351,1,2268.044,2,0.0,0.25
0,251,target,"[(1166, 772)]",[],[1],[0.5333333333333333],vertical,"(390.0, 762.0)",0.9833333333333333,0.496,1,2273.834,3,0.0,0.25
0,252,target,"[(1177, 778)]",[],[1],[0.65],horizontal,"(390.0, 262.0)",0.6,0.607,1,2279.367,3,0.0,0.25
0,253,target,"[(1169, 773)]",[],[1],[0.5],vertical,"(390.0, 762.0)",0.85,0.456,1,2284.773,3,0.0,0.25
0,254,target,"[(1181, 772)]",[],[1],[0.48333333333333334],vertical,"(890.0, 762.0)",0.8833333333333333,0.447,1,2290.338,3,0.0,0.25
0,255,target,"[(1210, 772)]","[(1136, 854)]",[1],[0.4],vertical,"(890.0, 762.0)",,"('bar', 0.419)",0,2296.086,0,0.0,0.25
0,256,target,"[(1153, 785)]",[],[1],[0.48333333333333334],vertical,"(890.0, 762.0)",1.3166666666666667,0.447,1,2298.726,1,0.0,0.25
0,257,target,"[(1154, 788)]",[],[1],[0.6333333333333333],horizontal,"(390.0, 762.0)",1.05,0.591,1,2303.885,1,0.0,0.25
0,258,target,"[(1154, 781)]",[],[1],[0.5],vertical,"(390.0, 262.0)",0.6666666666666666,0.458,1,2309.481,1,0.0,0.25
0,259,target,"[(1177, 774)]",[],[1],[0.85],horizontal,"(390.0, 762.0)",0.4666666666666667,nan,0,2314.352,0,0.0,0.25
0,260,target,"[(1135, 782)]",[],[1],[0.5833333333333334],vertical,"(890.0, 262.0)",0.7166666666666667,0.545,1,2318.271,1,0.0,0.25
0,261,catch,"[(1148, 765)]",[],[1],[],vertical,"(890.0, 762.0)",1.7,nan,1,2323.301,1,0.0,0.25
0,262,target,"[(1175, 779)]",[],[1],[0.5666666666666667],horizontal,"(390.0, 262.0)",0.7,0.522,1,2328.301,1,0.0,0.25
0,263,target,"[(1152, 782)]",[],[1],[0.5166666666666666],horizontal,"(390.0, 262.0)",0.85,0.477,1,2333.037,2,0.0,0.25
0,264,catch,"[(1154, 768)]",[],[1],[],horizontal,"(390.0, 762.0)",1.7,nan,1,2338.324,2,0.0,0.25
0,265,catch,"[(1160, 765)]",[],[1],[],vertical,"(890.0, 262.0)",1.7,nan,1,2343.914,2,0.0,0.25
0,266,target,"[(1174, 779)]",[],[1],[0.5],horizontal,"(390.0, 262.0)",0.6,0.461,1,2349.734,2,0.0,0.25
0,267,catch,"[(1155, 757)]",[],[1],[],horizontal,"(390.0, 262.0)",1.7,nan,1,2354.719,3,0.0,0.25
0,268,target,"[(1159, 781)]",[],[1],[0.5333333333333333],horizontal,"(890.0, 262.0)",0.6833333333333333,0.491,1,2360.636,3,0.0,0.25
0,269,target,"[(1162, 769)]",[],[1],[0.5166666666666666],vertical,"(890.0, 262.0)",0.3833333333333333,0.477,1,2366.269,3,0.0,0.25
0,270,catch,"[(1153, 782)]",[],[1],[],vertical,"(390.0, 262.0)",1.7,nan,1,2371.137,3,0.0,0.25
0,271,target,"[(1174, 759)]",[],[1],[0.5333333333333333],horizontal,"(390.0, 762.0)",0.36666666666666664,0.494,1,2377.264,3,0.0,0.25
0,272,catch,"[(1195, 758)]",[],[1],[],vertical,"(890.0, 262.0)",1.7,nan,1,2382.571,3,0.0,0.25
0,273,target,"[(1178, 776)]",[],[1],[0.6333333333333333],vertical,"(890.0, 262.0)",0.85,0.59,1,2388.452,3,0.0,0.25
0,274,catch,"[(1180, 790)]",[],[1],[],vertical,"(890.0, 762.0)",1.7,nan,1,2394.253,3,0.0,0.25
0,275,target,"[(1173, 752), (1134, 804)]",[],"[0, 1]",[0.4166666666666667],vertical,"(890.0, 762.0)",0.8166666666666667,0.378,1,2400.202,3,0.0,0.25
0,276,catch,"[(1153, 769)]",[],[1],[],horizontal,"(390.0, 262.0)",1.7,nan,1,2407.269,3,0.0,0.25
0,277,target,"[(1173, 772)]",[],[1],[0.6],vertical,"(890.0, 762.0)",0.7666666666666666,0.558,1,2413.035,3,0.0,0.25
0,278,target,"[(1180, 794)]",[],[1],[0.5666666666666667],vertical,"(890.0, 262.0)",0.6,0.527,1,2418.666,3,0.0,0.25
0,279,catch,"[(1154, 795)]",[],[1],[],vertical,"(890.0, 762.0)",1.7,nan,1,2424.119,3,0.0,0.25
0,280,catch,"[(1150, 779)]",[],[1],[],horizontal,"(390.0, 262.0)",1.7,nan,1,2430.254,3,0.0,0.25
0,281,catch,"[(1155, 775)]",[],[1],[0.03333333333333333],vertical,"(390.0, 262.0)",1.7,"0.02,nan",0,2436.681,0,0.02,0.25
0,282,catch,"[(1154, 783)]",[],[1],[],horizontal,"(890.0, 262.0)",1.7,nan,1,2441.712,1,0.02,0.25
0,283,target,"[(1155, 765)]",[],[1],[0.65],horizontal,"(890.0, 262.0)",0.65,0.606,1,2447.277,1,0.02,0.25
0,284,target,"[(1155, 764)]",[],[1],[0.48333333333333334],horizontal,"(390.0, 762.0)",1.4166666666666667,0.442,1,2452.061,1,0.02,0.25
0,285,target,"[(1151, 769)]",[],[1],[0.5333333333333333],vertical,"(890.0, 762.0)",0.35,0.49,1,2457.143,2,0.02,0.25
0,286,catch,"[(1171, 757)]",[],[1],[],horizontal,"(890.0, 762.0)",1.7,nan,1,2461.702,2,0.02,0.25
0,287,catch,"[(1155, 783)]",[],[1],[],vertical,"(390.0, 762.0)",1.7,nan,1,2467.086,2,0.02,0.25
0,288,target,"[(1160, 770)]",[],[1],[0.6333333333333333],vertical,"(890.0, 762.0)",0.5666666666666667,0.594,1,2472.728,2,0.02,0.25
0,289,catch,"[(1155, 779)]",[],[1],[],horizontal,"(890.0, 262.0)",1.7,nan,1,2477.702,3,0.02,0.25
0,290,target,"[(1154, 770)]",[],[1],[0.4666666666666667],horizontal,"(890.0, 262.0)",1.45,0.426,1,2483.441,3,0.02,0.25
0,291,catch,"[(1164, 782)]",[],[1],[],vertical,"(890.0, 262.0)",1.7,nan,1,2489.636,3,0.02,0.25
0,292,target,"[(1176, 772)]",[],[1],[0.5166666666666666],vertical,"(390.0, 262.0)",1.4,0.477,1,2495.81,3,0.02,0.25
0,293,target,"[(1154, 795)]",[],[1],[0.48333333333333334],vertical,"(890.0, 762.0)",1.25,0.446,1,2501.852,3,0.02,0.25
0,294,catch,"[(1179, 768)]",[],[1],[],vertical,"(890.0, 262.0)",1.7,nan,1,2508.508,3,0.02,0.25
0,295,target,"[(1135, 799)]",[],[1],[0.48333333333333334],horizontal,"(890.0, 262.0)",1.2,0.449,1,2514.686,3,0.02,0.25
0,296,target,"[(1170, 769)]",[],[1],[0.65],vertical,"(390.0, 762.0)",1.25,0.609,1,2521.104,3,0.02,0.25
0,297,target,"[(1177, 769)]",[],[1],[0.48333333333333334],horizontal,"(890.0, 262.0)",0.4666666666666667,0.446,1,2527.285,3,0.02,0.25
0,298,target,"[(1190, 778)]",[],[1],[0.5166666666666666],horizontal,"(390.0, 762.0)",1.4,0.48,1,2532.598,3,0.02,0.25
0,299,catch,"[(1160, 782)]",[],[1],[],horizontal,"(390.0, 762.0)",1.7,nan,1,2538.486,3,0.02,0.25
0,300,catch,"[(1179, 783)]",[],[1],[],horizontal,"(390.0, 762.0)",1.7,nan,1,2544.186,3,0.02,0.25
0,301,target,"[(1180, 784)]",[],[1],[0.5166666666666666],horizontal,"(390.0, 262.0)",1.5333333333333332,0.477,1,2550.353,3,0.02,0.25
0,302,target,"[(1168, 786)]",[],[1],[0.6666666666666666],horizontal,"(390.0, 262.0)",1.4666666666666666,0.622,1,2556.653,3,0.02,0.25
0,303,target,"[(1173, 768)]",[],[1],[0.5166666666666666],vertical,"(890.0, 762.0)",1.0166666666666666,0.481,1,2563.138,3,0.02,0.25
0,304,catch,"[(1175, 761)]",[],[1],[],horizontal,"(390.0, 262.0)",1.7,nan,1,2568.631,3,0.02,0.25
0,305,target,"[(1180, 769)]",[],[1],[0.85],vertical,"(390.0, 762.0)",0.4666666666666667,nan,0,2574.486,0,0.02,0.25
0,306,target,"[(1128, 782)]",[],[1],[0.65],vertical,"(390.0, 262.0)",0.5666666666666667,0.601,1,2579.036,1,0.02,0.25
0,307,catch,"[(1174, 777)]",[],[1],[],horizontal,"(890.0, 262.0)",1.7,nan,1,2583.546,1,0.02,0.25
0,308,catch,"[(1159, 769)]",[],[1],[],vertical,"(890.0, 762.0)",1.7,nan,1,2588.749,1,0.02,0.25
0,309,catch,"[(1178, 774)]",[],[1],[],vertical,"(390.0, 762.0)",1.7,nan,1,2594.036,2,0.02,0.25
0,310,target,"[(1154, 789)]",[],[1],[0.6833333333333333],vertical,"(390.0, 262.0)",1.0333333333333332,0.654,1,2599.569,2,0.02,0.25
0,311,target,"[(1186, 771)]",[],[1],[0.6666666666666666],vertical,"(890.0, 762.0)",1.1666666666666667,0.621,1,2605.386,2,0.02,0.25
0,312,target,"[(1180, 794)]",[],[1],[0.65],horizontal,"(890.0, 762.0)",0.4666666666666667,0.601,1,2611.298,2,0.02,0.25
0,313,target,"[(1179, 779)]",[],[1],[0.48333333333333334],horizontal,"(890.0, 262.0)",1.4833333333333334,0.44,1,2616.219,3,0.02,0.25
0,314,target,"[(1160, 754)]",[],[1],[0.55],horizontal,"(390.0, 762.0)",0.8166666666666667,0.506,1,2622.468,3,0.02,0.25
0,315,target,"[(1185, 762)]",[],[1],[0.7333333333333333],vertical,"(390.0, 762.0)",0.8666666666666667,0.685,1,2627.839,3,0.02,0.25
0,316,target,"[(1170, 776)]",[],[1],[0.6333333333333333],vertical,"(390.0, 262.0)",0.48333333333333334,0.59,1,2633.701,3,0.02,0.25
0,317,target,"[(1168, 776)]",[],[1],[0.7666666666666666],horizontal,"(890.0, 262.0)",1.4166666666666667,0.721,1,2639.1,3,0.02,0.25
0,318,catch,"[(1176, 782)]",[],[1],[],horizontal,"(390.0, 262.0)",,"('cti', 1.662),nan",0,2645.509,0,0.04,0.25
0,319,target,"[(1178, 794)]",[],[1],[0.55],vertical,"(890.0, 762.0)",1.15,0.507,1,2650.236,1,0.04,0.25
0,320,target,"[(1160, 791)]",[],[1],[0.5],horizontal,"(890.0, 262.0)",1.1166666666666667,0.451,1,2654.911,1,0.04,0.25
0,321,target,"[(1121, 828)]",[],[1],[0.6166666666666667],horizontal,"(890.0, 762.0)",0.9833333333333333,0.576,1,2660.035,1,0.04,0.25
0,322,target,"[(1179, 789)]",[],[1],[0.5333333333333333],vertical,"(890.0, 762.0)",1.1166666666666667,0.488,1,2665.835,2,0.04,0.25
0,323,catch,"[(1154, 781)]",[],[1],[],horizontal,"(390.0, 762.0)",1.7,nan,1,2671.185,2,0.04,0.25
0,324,target,"[(1160, 783)]",[],[1],[0.5166666666666666],horizontal,"(390.0, 262.0)",0.3833333333333333,0.478,1,2676.74,2,0.04,0.25
0,325,target,"[(1179, 775)]",[],[1],[0.65],horizontal,"(890.0, 762.0)",0.7166666666666667,0.602,1,2681.768,2,0.04,0.25
0,326,target,"[(1179, 772)]",[],[1],[0.85],horizontal,"(890.0, 762.0)",0.5333333333333333,nan,0,2686.936,0,0.04,0.25
0,327,target,"[(1136, 786)]",[],[1],[0.6166666666666667],horizontal,"(890.0, 262.0)",0.43333333333333335,0.574,1,2691.552,1,0.04,0.25
0,328,catch,"[(1138, 791)]",[],[1],[],horizontal,"(390.0, 262.0)",1.7,nan,1,2696.085,1,0.04,0.25
0,329,catch,"[(1185, 774)]",[],[1],[],vertical,"(390.0, 762.0)",1.7,nan,1,2701.185,1,0.04,0.25
0,330,target,"[(1154, 784)]",[],[1],[0.6333333333333333],vertical,"(390.0, 762.0)",1.4666666666666666,0.586,1,2706.519,2,0.04,0.25
0,331,catch,"[(1175, 761)]",[],[1],[],vertical,"(390.0, 762.0)",1.7,nan,1,2712.357,2,0.02,0.25
0,332,target,"[(1151, 780)]",[],[1],[0.5166666666666666],vertical,"(890.0, 762.0)",0.8166666666666667,0.474,1,2718.269,2,0.02,0.25
0,333,target,"[(1175, 784)]",[],[1],[0.4666666666666667],horizontal,"(890.0, 762.0)",0.5666666666666667,0.428,1,2723.82,2,0.02,0.25
0,334,target,"[(1185, 784)]",[],[1],[0.55],horizontal,"(390.0, 262.0)",0.85,0.511,1,2728.324,3,0.02,0.25
0,335,catch,"[(1162, 767)]",[],[1],[],horizontal,"(390.0, 262.0)",1.7,nan,1,2734.369,3,0.02,0.25
0,336,target,"[(1151, 768)]",[],[1],[0.5166666666666666],horizontal,"(890.0, 262.0)",1.4,0.475,1,2740.586,3,0.02,0.25
0,337,target,"[(1133, 774)]",[],[1],[0.5333333333333333],vertical,"(890.0, 762.0)",1.3833333333333333,0.493,1,2746.702,3,0.02,0.25
0,338,catch,"[(1170, 778)]",[],[1],[],vertical,"(390.0, 262.0)",,"('cti', 1.322),nan",0,2753.153,0,0.04,0.25
0,339,target,"[(1156, 786)]",[],[1],[0.85],vertical,"(390.0, 762.0)",0.5166666666666666,nan,0,2757.793,0,0.04,0.25
0,340,target,"[(615, 538), (1142, 795)]",[],"[0, 1]",[0.5166666666666666],horizontal,"(390.0, 262.0)",1.3166666666666667,0.478,1,2762.218,1,0.04,0.25
0,341,target,"[(1181, 788)]",[],[1],[0.7],horizontal,"(390.0, 762.0)",1.25,0.656,1,4514.407,1,0.04,0.25
0,342,target,"[(1180, 802)]",[],[1],[0.1],vertical,"(390.0, 262.0)",1.1166666666666667,0.068,0,4520.147,0,0.04,0.25
0,343,target,"[(1154, 795)]",[],[1],[0.45],horizontal,"(890.0, 262.0)",1.2333333333333334,0.42,1,4524.846,1,0.04,0.25
0,344,target,"[(1181, 792)]",[],[1],[0.55],horizontal,"(390.0, 762.0)",0.7166666666666667,0.508,1,4532.372,1,0.04,0.25
0,345,target,"[(1185, 801)]",[],[1],[0.6166666666666667],vertical,"(390.0, 262.0)",0.5666666666666667,0.572,1,4537.307,1,0.04,0.25
0,346,target,"[(1177, 782)]",[],[1],[0.7166666666666667],vertical,"(890.0, 762.0)",0.7666666666666666,0.677,1,4541.841,2,0.04,0.25
0,347,catch,"[(1178, 779)]",[],[1],[0.03333333333333333],vertical,"(390.0, 762.0)",1.7,"0.019,nan",0,4547.422,0,0.06,0.25
0,348,target,"[(1180, 798)]",[],[1],[0.48333333333333334],horizontal,"(390.0, 262.0)",1.45,0.445,1,4552.522,1,0.06,0.25
0,349,target,"[(1154, 800)]",[],[1],[0.48333333333333334],vertical,"(890.0, 262.0)",0.55,0.442,1,4557.841,1,0.06,0.25
0,350,target,"[(1176, 780)]",[],[1],[0.5666666666666667],horizontal,"(390.0, 762.0)",0.8666666666666667,0.526,1,4563.724,1,0.06,0.25
0,351,target,"[(1138, 788)]",[],[1],[0.48333333333333334],vertical,"(390.0, 762.0)",0.5333333333333333,0.443,1,4568.588,2,0.06,0.25
0,352,target,"[(1181, 767)]",[],[1],[0.4666666666666667],vertical,"(890.0, 762.0)",1.35,0.425,1,4573.606,2,0.06,0.25
0,353,target,"[(1157, 779)]",[],[1],[],horizontal,"(390.0, 262.0)",,"('cti', 0.956)",0,4579.051,0,0.08,0.25
0,354,target,"[(1180, 781)]",[],[1],[0.5666666666666667],vertical,"(890.0, 262.0)",1.2,0.521,1,4583.34,1,0.08,0.25
0,355,target,"[(1182, 788)]",[],[1],[0.6333333333333333],horizontal,"(390.0, 762.0)",0.9833333333333333,0.587,1,4588.757,1,0.08,0.25
0,356,target,"[(1180, 779)]",[],[1],[0.5],vertical,"(390.0, 762.0)",0.85,0.455,1,4593.588,1,0.08,0.25
0,357,target,"[(1170, 787)]",[],[1],[0.5833333333333334],horizontal,"(390.0, 262.0)",0.55,0.542,1,4598.196,2,0.08,0.25
0,358,target,"[(1180, 779)]",[],[1],[0.48333333333333334],horizontal,"(890.0, 262.0)",0.5,0.445,1,4602.777,2,0.08,0.25
0,359,target,"[(1155, 782)]",[],[1],[0.5333333333333333],vertical,"(890.0, 762.0)",0.9,0.496,1,4607.901,2,0.08,0.25
0,360,catch,"[(1154, 782)]",[],[1],[],horizontal,"(890.0, 262.0)",1.7,nan,1,4613.373,2,0.08,0.25
0,361,catch,"[(1180, 785)]",[],[1],[],vertical,"(390.0, 262.0)",,"('cti', 1.646),nan",0,4618.666,0,0.1,0.25
0,362,target,"[(1153, 778)]",[],[1],[0.5333333333333333],horizontal,"(390.0, 762.0)",0.6333333333333333,0.491,1,4623.726,1,0.1,0.25
0,363,target,"[(1157, 785)]",[],[1],[0.6666666666666666],horizontal,"(390.0, 262.0)",0.45,0.62,1,4628.341,1,0.1,0.25
0,364,target,"[(1167, 770)]",[],[1],[0.4666666666666667],horizontal,"(890.0, 762.0)",1.5333333333333332,0.427,1,4632.963,1,0.1,0.25
0,365,target,"[(1179, 788)]",[],[1],[0.85],vertical,"(390.0, 762.0)",0.4,nan,0,4638.041,0,0.1,0.25
0,366,target,"[(1130, 787)]",[],[1],[],horizontal,"(390.0, 762.0)",,"('cti', 1.175)",0,4641.874,0,0.12,0.25
0,367,target,"[(1175, 779)]",[],[1],[0.85],vertical,"(390.0, 762.0)",0.7666666666666666,nan,0,4646.375,0,0.12,0.25
0,368,target,"[(1153, 783)]",[],[1],[0.65],horizontal,"(890.0, 262.0)",0.95,0.606,1,4651.024,1,0.1,0.25
0,369,target,"[(1155, 812)]",[],[1],[0.85],vertical,"(390.0, 762.0)",1.0166666666666666,nan,0,4656.199,0,0.1,0.25
0,370,catch,"[(1145, 801)]",[],[1],[],vertical,"(390.0, 262.0)",1.7,nan,1,4661.608,1,0.1,0.25
0,371,target,"[(1162, 777)]","[(1155, 799)]",[1],[0.03333333333333333],horizontal,"(390.0, 762.0)",,"('bar', 0.051)",0,4668.486,0,0.1,0.25
0,372,catch,"[(1146, 808)]",[],[1],[],vertical,"(390.0, 262.0)",1.7,nan,1,4670.485,1,0.1,0.25
0,373,catch,"[(1175, 790)]",[],[1],[],vertical,"(890.0, 262.0)",1.7,nan,1,4684.631,1,0.1,0.25
0,374,catch,"[(1180, 802)]",[],[1],[],vertical,"(390.0, 262.0)",1.7,nan,1,4690.114,1,0.1,0.25
0,375,catch,"[(1160, 787)]",[],[1],[],horizontal,"(390.0, 762.0)",1.7,nan,1,4695.293,2,0.1,0.25
0,376,target,"[(1198, 768)]",[],[1],[0.55],horizontal,"(390.0, 762.0)",0.8333333333333334,0.507,1,4701.083,2,0.1,0.25
0,377,target,"[(1178, 778)]",[],[1],[0.5],vertical,"(890.0, 262.0)",0.9666666666666667,0.46,1,4706.34,2,0.1,0.25
0,378,catch,"[(1180, 771)]",[],[1],[],horizontal,"(390.0, 762.0)",1.7,nan,1,4711.673,2,0.1,0.25
0,379,catch,"[(1161, 781)]",[],[1],[],horizontal,"(890.0, 262.0)",1.7,"('cti', 1.693),nan",0,4717.391,0,0.12,0.25
0,380,catch,"[(1165, 802)]",[],[1],[],horizontal,"(890.0, 762.0)",1.7,nan,1,4722.475,1,0.12,0.25
0,381,catch,"[(1180, 765)]",[],[1],[],horizontal,"(390.0, 762.0)",1.7,nan,1,4727.973,1,0.12,0.25
0,382,target,"[(1167, 769)]",[],[1],[0.6666666666666666],vertical,"(390.0, 762.0)",1.1,0.618,1,4732.823,1,0.12,0.25
0,383,target,"[(1175, 792)]",[],[1],[0.7],vertical,"(890.0, 762.0)",0.9666666666666667,0.662,1,4738.085,2,0.12,0.25
0,384,catch,"[(1154, 772)]",[],[1],[],vertical,"(890.0, 262.0)",1.7,nan,1,4744.035,2,0.12,0.25
0,385,target,"[(1180, 769)]",[],[1],[0.5],vertical,"(890.0, 262.0)",0.4,0.462,1,4749.313,2,0.12,0.25
0,386,target,"[(1154, 778)]",[],[1],[0.4666666666666667],vertical,"(890.0, 262.0)",1.0166666666666666,0.424,1,4753.507,2,0.12,0.25
0,387,catch,"[(1150, 801)]",[],[1],[],horizontal,"(890.0, 262.0)",1.7,nan,1,4758.623,3,0.12,0.25
0,388,target,"[(1175, 788)]",[],[1],[0.6833333333333333],vertical,"(390.0, 262.0)",0.36666666666666664,0.637,1,4764.889,3,0.1,0.25
0,389,target,"[(1178, 770)]",[],[1],[0.6666666666666666],vertical,"(390.0, 762.0)",1.0166666666666666,0.621,1,4770.423,3,0.1,0.25
0,390,target,"[(1179, 776)]",[],[1],[0.6166666666666667],vertical,"(890.0, 262.0)",1.2333333333333334,0.573,1,4776.051,3,0.1,0.25
0,391,catch,"[(1181, 790)]",[],[1],[],horizontal,"(890.0, 262.0)",1.7,nan,1,4782.319,3,0.1,0.25
0,392,target,"[(1200, 769)]","[(1174, 849)]",[1],[0.5833333333333334],horizontal,"(390.0, 762.0)",,"('bar', 0.595)",0,4788.581,0,0.1,0.25
0,393,catch,"[(1154, 782)]",[],[1],[],horizontal,"(890.0, 262.0)",1.7,nan,1,4791.251,1,0.1,0.25
0,394,target,"[(1178, 798)]",[],[1],[0.55],horizontal,"(890.0, 762.0)",0.8166666666666667,0.513,1,4796.818,1,0.1,0.25
0,395,target,"[(1165, 779)]",[],[1],[0.6],horizontal,"(890.0, 762.0)",0.7166666666666667,0.556,1,4801.709,1,0.1,0.25
0,396,catch,"[(1179, 786)]",[],[1],[0.03333333333333333],horizontal,"(390.0, 762.0)",1.7,"0.017,nan",0,4806.269,0,0.12,0.25
0,397,target,"[(1165, 785)]",[],[1],[0.5166666666666666],vertical,"(390.0, 262.0)",1.3333333333333333,0.475,1,4811.192,1,0.1,0.25
0,398,catch,"[(1179, 757)]",[],[1],[],horizontal,"(390.0, 262.0)",1.7,nan,1,4816.635,1,0.1,0.25
0,399,target,"[(1180, 787)]","[(1119, 850)]",[1],[0.5333333333333333],horizontal,"(890.0, 262.0)",,"('bar', 0.554)",0,4821.707,0,0.1,0.25
0,400,catch,"[(1153, 796)]",[],[1],[],vertical,"(390.0, 262.0)",1.7,nan,1,4824.481,1,0.1,0.25
0,401,catch,"[(1180, 769)]",[],[1],[],horizontal,"(390.0, 762.0)",,"('cti', 1.642),nan",0,4829.89,0,0.12,0.25
0,402,catch,"[(1170, 764)]",[],[1],[],horizontal,"(390.0, 262.0)",1.7,nan,1,4834.307,1,0.12,0.25
0,403,target,"[(1178, 777)]",[],[1],[0.5833333333333334],vertical,"(890.0, 262.0)",0.45,0.536,1,4839.454,1,0.1,0.25
0,404,target,"[(1177, 765)]",[],[1],[0.65],horizontal,"(390.0, 762.0)",1.5166666666666666,0.61,1,4843.707,1,0.1,0.25
0,405,target,"[(1181, 784)]",[],[1],[0.5166666666666666],horizontal,"(390.0, 762.0)",0.6166666666666667,0.476,1,4849.54,2,0.1,0.25
0,406,target,"[(1176, 785)]",[],[1],[0.5166666666666666],vertical,"(390.0, 762.0)",1.0333333333333332,0.473,1,4854.615,2,0.1,0.25
0,407,catch,"[(1190, 790)]",[],[1],[],horizontal,"(390.0, 762.0)",1.7,nan,1,4859.874,2,0.1,0.25
0,408,catch,"[(1147, 762)]",[],[1],[],horizontal,"(390.0, 762.0)",1.7,nan,1,4865.571,2,0.1,0.25
0,409,target,"[(1151, 781)]",[],[1],[0.5],horizontal,"(890.0, 762.0)",1.5333333333333332,0.457,1,4870.907,3,0.1,0.25
0,410,target,"[(1180, 786)]",[],[1],[0.5333333333333333],vertical,"(890.0, 762.0)",0.5833333333333334,0.494,1,4877.074,3,0.1,0.25
0,411,target,"[(1157, 779)]",[],[1],[0.85],vertical,"(390.0, 762.0)",0.8666666666666667,nan,0,4882.506,0,0.08,0.25
0,412,target,"[(1148, 790)]",[],[1],[0.5833333333333334],vertical,"(890.0, 762.0)",0.7833333333333333,0.54,1,4887.057,1,0.08,0.25
0,413,catch,"[(1172, 794)]",[],[1],[],horizontal,"(890.0, 762.0)",1.7,nan,1,4892.505,1,0.08,0.25
0,414,target,"[(1179, 783)]",[],[1],[0.3833333333333333],horizontal,"(890.0, 762.0)",0.4666666666666667,0.348,1,4897.392,1,0.08,0.25
0,415,catch,"[(581, 581), (1134, 801)]",[],"[0, 1]",[],vertical,"(390.0, 262.0)",1.7,nan,1,4901.618,2,0.08,0.25
0,416,target,"[(1150, 781)]",[],[1],[0.85],vertical,"(890.0, 762.0)",1.05,nan,0,9252.934,0,0.06,0.25
0,417,catch,"[(1116, 787)]",[],[1],[],horizontal,"(390.0, 262.0)",1.7,nan,1,9257.586,1,0.06,0.25
0,418,catch,"[(1140, 794)]",[],[1],[],horizontal,"(390.0, 262.0)",1.7,nan,1,9263.149,1,0.06,0.25
0,419,catch,"[(1145, 789)]",[],[1],[],horizontal,"(890.0, 762.0)",1.7,nan,1,9268.436,1,0.06,0.25
0,420,target,"[(1173, 751), (1139, 832)]",[],"[0, 1]",[0.5666666666666667],vertical,"(390.0, 262.0)",0.95,0.527,1,9274.003,2,0.06,0.25
0,421,target,"[(1153, 771)]",[],[1],[0.5],vertical,"(390.0, 262.0)",1.0666666666666667,0.463,1,9280.451,2,0.06,0.25
0,422,target,"[(1152, 779)]",[],[1],[0.6833333333333333],vertical,"(890.0, 262.0)",0.55,0.642,1,9285.835,2,0.06,0.25
0,423,target,"[(1184, 765)]",[],[1],[0.5],vertical,"(390.0, 762.0)",0.9666666666666667,0.457,1,9290.7,2,0.06,0.25
0,424,target,"[(1183, 765)]",[],[1],[0.55],horizontal,"(890.0, 262.0)",1.1166666666666667,0.507,1,9296.318,3,0.06,0.25
0,425,target,"[(1184, 785)]",[],[1],[0.85],vertical,"(890.0, 762.0)",0.6833333333333333,nan,0,9301.901,0,0.06,0.25
0,426,target,"[(1165, 794)]",[],[1],[0.48333333333333334],vertical,"(390.0, 262.0)",0.6833333333333333,0.45,1,9306.619,1,0.06,0.25
0,427,target,"[(1178, 779)]",[],[1],[0.6166666666666667],horizontal,"(390.0, 762.0)",0.8166666666666667,0.574,1,9311.181,1,0.06,0.25
0,428,catch,"[(1182, 787)]",[],[1],[],horizontal,"(890.0, 762.0)",1.7,nan,1,9316.318,1,0.06,0.25
0,429,target,"[(1181, 766)]",[],[1],[0.6],horizontal,"(390.0, 762.0)",1.1833333333333333,0.558,1,9321.252,2,0.04,0.25
0,430,target,"[(1182, 778)]",[],[1],[0.5166666666666666],horizontal,"(390.0, 262.0)",0.5666666666666667,0.474,1,9326.72,2,0.04,0.25
0,431,target,"[(1156, 782)]",[],[1],[0.5833333333333334],horizontal,"(390.0, 262.0)",1.2166666666666666,0.541,1,9331.718,2,0.04,0.25
