block,practice,trial,change_interval_s,change_interval_frames,taps_start_time_during_fix,taps_end_time_during_fix,taps_start_loc_during_fix,taps_end_loc_during_fix,taps_on_lever_during_fix,taps_on_lever_frame_during_fix,taps_on_lever_s_during_fix,fix_xy,bar_orientation,target_xy,cti,rt,acc,time
1,True,1,1.007,60,[],[9580],"[(1178, 892)]","[(1132, 905)]",[1],[30],[0.5],"[640.0, 512.0]",horizontal,"(390.0, 262.0)",[],[0],0,0.045
1,True,2,1.326,79,[],[],"[(1228, 870)]",[],[1],[],[],"[640.0, 512.0]",horizontal,"(390.0, 762.0)",[],[0],0,2.599
1,True,3,1.176,70,[],[],"[(1189, 892)]",[],[1],[],[],"[640.0, 512.0]",vertical,"(890.0, 762.0)",[],[0],0,6.127
1,True,4,0.34,20,[],[],"[(1203, 897)]",[],[1],[],[],"[640.0, 512.0]",horizontal,"(890.0, 762.0)",[],[0],0,9.383
1,False,1,1.115,66,[],[],"[(1182, 912)]",[],[1],[101],[1.6833333333333333],"[640.0, 512.0]",vertical,"(390.0, 762.0)",[1.0333333333333332],[0.56],1,11.89
1,False,2,0.969,58,[],[],"[(1195, 903)]",[],[1],[89],[1.4833333333333334],"[640.0, 512.0]",horizontal,"(390.0, 262.0)",[0.8666666666666667],[0.501],1,16.124
1,False,3,0.71,42,[],[],"[(1196, 903)]",[],[1],[],[],"[640.0, 512.0]",horizontal,"(390.0, 262.0)",[],[0],0,19.983
1,False,4,0.936,56,[],[],"[(1213, 894)]",[],[1],[92],[1.5333333333333332],"[640.0, 512.0]",vertical,"(890.0, 762.0)",[1.0833333333333333],[0.572],1,23.771
1,False,5,1.273,76,[],[],"[(1203, 899)]",[],[1],[92],[1.5333333333333332],"[640.0, 512.0]",vertical,"(890.0, 262.0)",[1.5833333333333333],[0.251],1,27.879
1,False,6,0.473,28,[],[],"[(1223, 894)]",[],[1],[60],[1.0],"[640.0, 512.0]",horizontal,"(890.0, 262.0)",[1.3833333333333333],[0.511],1,32.474
1,False,7,1.49,89,[],[],"[(1201, 893)]",[],[1],[115],[1.9166666666666667],"[640.0, 512.0]",horizontal,"(390.0, 262.0)",[0.7],[0.418],1,36.357
1,False,8,1.024,61,[],[],"[(1227, 899)]",[],[1],[94],[1.5666666666666667],"[640.0, 512.0]",horizontal,"(390.0, 762.0)",[0.7666666666666666],[0.527],1,40.457
1,False,9,0.632,37,[],[],"[(1213, 894)]",[],[1],[60],[1.0],"[640.0, 512.0]",horizontal,"(890.0, 762.0)",[0.95],[0.362],1,44.268
1,False,10,1.351,81,[],[],"[(1196, 904)]",[],[1],[113],[1.8833333333333333],"[640.0, 512.0]",horizontal,"(890.0, 762.0)",[0.9166666666666666],[0.512],1,47.691
1,False,11,0.833,49,[],[],"[(1180, 886)]",[],[1],[77],[1.2833333333333332],"[640.0, 512.0]",vertical,"(890.0, 262.0)",[0.7666666666666666],[0.443],1,51.972
1,False,12,0.657,39,[],[],"[(1226, 885)]",[],[1],[67],[1.1166666666666667],"[640.0, 512.0]",horizontal,"(890.0, 262.0)",[1.6333333333333333],[0.44],1,55.606
1,False,13,0.826,49,[],[],"[(1202, 884)]",[],[1],[],[],"[640.0, 512.0]",horizontal,"(890.0, 262.0)",[],[0],0,59.806
1,False,14,0.807,48,[],[],"[(1183, 886)]",[],[1],[77],[1.2833333333333332],"[640.0, 512.0]",horizontal,"(390.0, 262.0)",[0.7666666666666666],[0.461],1,63.281
1,False,15,0.875,52,[],[],"[(1226, 889)]",[],[1],[82],[1.3666666666666667],"[640.0, 512.0]",horizontal,"(390.0, 262.0)",[0.7166666666666667],[0.479],1,67.004
1,False,16,1.284,77,[],[],"[(1212, 880)]",[],[1],[99],[1.65],"[640.0, 512.0]",vertical,"(390.0, 262.0)",[0.8666666666666667],[0.351],1,70.583
1,False,17,0.665,39,[],[],"[(1227, 885)]",[],[1],[73],[1.2166666666666666],"[640.0, 512.0]",horizontal,"(390.0, 262.0)",[0.6],[0.544],1,74.595
1,False,18,1.25,75,[],[],"[(1220, 887)]",[],[1],[107],[1.7833333333333332],"[640.0, 512.0]",horizontal,"(890.0, 262.0)",[1.0833333333333333],[0.511],1,77.902
1,False,19,0.524,31,[],[],"[(1202, 893)]",[],[1],[],[],"[640.0, 512.0]",horizontal,"(890.0, 762.0)",[],[0],0,82.224
1,False,20,1.05,63,[],[],"[(1196, 874)]",[],[1],[],[],"[640.0, 512.0]",vertical,"(890.0, 262.0)",[],[0],0,84.854
1,False,21,1.156,69,[],[],"[(1202, 884)]",[],[1],[82],[1.3666666666666667],"[640.0, 512.0]",horizontal,"(890.0, 262.0)",[1.6],[0.2],1,88.069
1,False,22,0.664,39,[],[],"[(1208, 903)]",[],[1],[74],[1.2333333333333334],"[640.0, 512.0]",vertical,"(390.0, 762.0)",[1.6333333333333333],[0.552],1,92.532
1,False,23,1.217,73,[],[],"[(1200, 899)]",[],[1],[122],[2.033333333333333],"[640.0, 512.0]",vertical,"(390.0, 262.0)",[0.65],[0.785],1,96.92
1,False,24,0.541,32,[],[],"[(1189, 885)]",[],[1],[61],[1.0166666666666666],"[640.0, 512.0]",vertical,"(390.0, 262.0)",[0.7166666666666667],[0.463],1,101.056
1,False,25,1.47,88,[],[],"[(1202, 890)]",[],[1],[],[],"[640.0, 512.0]",horizontal,"(890.0, 262.0)",[],[0],0,110.99
1,False,26,1.093,65,[],[],"[(1197, 883)]",[],[1],[90],[1.5],"[640.0, 512.0]",horizontal,"(390.0, 762.0)",[1.2833333333333332],[0.397],1,114.27
1,False,27,1.379,82,[],[],"[(1210, 901)]",[],[1],[],[],"[640.0, 512.0]",horizontal,"(890.0, 262.0)",[],[0],0,118.585
1,False,28,1.336,80,[],[],"[(1198, 889)]",[],[1],[],[],"[640.0, 512.0]",vertical,"(390.0, 262.0)",[],[0],0,122.621
1,False,29,0.687,41,[],[],"[(1226, 886)]",[],[1],[74],[1.2333333333333334],"[640.0, 512.0]",vertical,"(890.0, 762.0)",[1.5666666666666667],[0.529],1,126.088
1,False,30,0.357,21,[],[],"[(1208, 905)]",[],[1],[71],[1.1833333333333333],"[640.0, 512.0]",vertical,"(390.0, 762.0)",[1.6666666666666667],[0.805],0,130.373
1,False,31,1.471,88,[],[],"[(1201, 899)]",[],[1],[123],[2.05],"[640.0, 512.0]",horizontal,"(390.0, 262.0)",[0.65],[0.562],1,134.706
1,False,32,0.306,18,[],[],"[(1223, 887)]",[],[1],[51],[0.85],"[640.0, 512.0]",vertical,"(890.0, 762.0)",[0.6833333333333333],[0.52],1,138.906
1,False,33,0.451,27,[],[],"[(1196, 890)]",[],[1],[57],[0.95],"[640.0, 512.0]",horizontal,"(890.0, 262.0)",[0.7666666666666666],[0.475],1,141.92
1,False,34,0.587,35,[],[],"[(1225, 891)]",[],[1],[],[],"[640.0, 512.0]",vertical,"(390.0, 762.0)",[],[0],0,145.102
1,False,35,0.869,52,[],[],"[(1224, 880)]",[],[1],[],[],"[640.0, 512.0]",vertical,"(390.0, 762.0)",[],[0],0,148.144
1,False,36,0.636,38,[],[],"[(1228, 880)]",[],[1],[69],[1.15],"[640.0, 512.0]",vertical,"(390.0, 762.0)",[1.4666666666666666],[0.491],1,151.375
1,False,37,0.867,52,[],[],"[(1196, 898)]",[],[1],[80],[1.3333333333333333],"[640.0, 512.0]",vertical,"(890.0, 762.0)",[1.2333333333333334],[0.443],1,155.45
1,False,38,0.457,27,[],[],"[(1214, 899)]",[],[1],[60],[1.0],"[640.0, 512.0]",horizontal,"(890.0, 262.0)",[1.6666666666666667],[0.525],1,159.507
1,False,39,0.636,38,[],[],"[(1198, 882)]",[],[1],[70],[1.1666666666666667],"[640.0, 512.0]",vertical,"(890.0, 262.0)",[0.9333333333333333],[0.512],1,163.622
1,False,40,0.575,34,[],[],"[(1226, 892)]",[],[1],[68],[1.1333333333333333],"[640.0, 512.0]",vertical,"(390.0, 762.0)",[0.5666666666666667],[0.552],1,167.203
1,False,41,1.221,73,[],[],"[(1202, 888)]",[],[1],[107],[1.7833333333333332],"[640.0, 512.0]",vertical,"(890.0, 762.0)",[1.55],[0.551],1,170.427
1,False,42,0.403,24,[],[],"[(1197, 902)]",[],[1],[],[],"[640.0, 512.0]",horizontal,"(390.0, 762.0)",[],[0],0,176.107
1,False,43,0.924,55,[],[],"[(1226, 870)]",[],[1],[84],[1.4],"[640.0, 512.0]",vertical,"(390.0, 262.0)",[0.6166666666666667],[0.459],1,179.738
1,False,44,0.543,32,[],[],"[(1196, 897)]",[],[1],[64],[1.0666666666666667],"[640.0, 512.0]",horizontal,"(890.0, 762.0)",[0.9166666666666666],[0.504],1,183.241
1,False,45,1.114,66,[],[],"[(1183, 898)]",[],[1],[],[],"[640.0, 512.0]",vertical,"(390.0, 762.0)",[],[0],0,186.711
1,False,46,0.881,52,[],[],"[(1189, 884)]",[],[1],[76],[1.2666666666666666],"[640.0, 512.0]",vertical,"(390.0, 762.0)",[1.5],[0.377],1,190.022
1,False,47,1.237,74,[],[],"[(1205, 908)]",[],[1],[107],[1.7833333333333332],"[640.0, 512.0]",horizontal,"(890.0, 262.0)",[1.2666666666666666],[0.523],1,194.302
1,False,48,0.463,27,[],[],"[(1205, 897)]",[],[1],[63],[1.05],"[640.0, 512.0]",horizontal,"(390.0, 762.0)",[0.8],[0.576],1,198.805
1,False,49,1.204,72,[],[],"[(1202, 904)]",[],[1],[76],[1.2666666666666666],"[640.0, 512.0]",vertical,"(390.0, 762.0)",[1.1666666666666667],[0.052],1,202.12
1,False,50,1.373,82,[],[],"[(1227, 880)]",[],[1],[],[],"[640.0, 512.0]",vertical,"(890.0, 262.0)",[],[0],0,206.029
1,False,51,1.107,66,[],[],"[(1171, 869)]",[],[1],[80],[1.3333333333333333],"[640.0, 512.0]",vertical,"(390.0, 762.0)",[0.5833333333333334],[0.215],1,209.75
1,False,52,1.45,87,[],[],"[(1196, 889)]",[],[1],[117],[1.95],"[640.0, 512.0]",vertical,"(390.0, 262.0)",[0.65],[0.472],1,213.392
1,False,53,1.132,67,[],[],"[(1202, 908)]",[],[1],[],[],"[640.0, 512.0]",vertical,"(890.0, 762.0)",[],[0],0,217.458
1,False,54,0.839,50,[],[],"[(1200, 900)]",[],[1],[],[],"[640.0, 512.0]",horizontal,"(390.0, 262.0)",[],[0],0,220.876
1,False,55,1.474,88,[],[],"[(1183, 875)]",[],[1],[],[],"[640.0, 512.0]",vertical,"(390.0, 262.0)",[],[0],0,225.201
1,False,56,0.532,31,[],[],"[(1196, 906)]",[],[1],[69],[1.15],"[640.0, 512.0]",horizontal,"(390.0, 762.0)",[1.3666666666666667],[0.607],1,229.92
1,False,57,1.077,64,[],[],"[(1163, 885)]",[],[1],[100],[1.6666666666666667],"[640.0, 512.0]",horizontal,"(890.0, 762.0)",[0.5],[0.576],1,234.158
1,False,58,1.373,82,[],[],"[(1196, 913)]",[],[1],[],[],"[640.0, 512.0]",vertical,"(390.0, 762.0)",[],[0],0,238.49
1,False,59,0.611,36,[],[],"[(1197, 902)]",[],[1],[65],[1.0833333333333333],"[640.0, 512.0]",vertical,"(390.0, 262.0)",[0.7],[0.461],1,241.895
1,False,60,0.501,30,[],[],"[(1196, 899)]",[],[1],[73],[1.2166666666666666],"[640.0, 512.0]",horizontal,"(890.0, 262.0)",[1.35],[0.684],1,245.203
2,False,61,1.043,62,[],[],"[(1192, 896)]",[],[1],[68],[1.1333333333333333],"[640.0, 512.0]",vertical,"(890.0, 762.0)",[1.4166666666666667],[0.082],1,249.234
2,False,62,1.469,88,[],[],"[(1199, 889)]",[],[1],[109],[1.8166666666666667],"[640.0, 512.0]",vertical,"(890.0, 762.0)",[1.6333333333333333],[0.327],1,253.318
2,False,63,0.554,33,[],[],"[(1198, 909)]",[],[1],[63],[1.05],"[640.0, 512.0]",horizontal,"(890.0, 262.0)",[1.3833333333333333],[0.476],1,258.249
2,False,64,0.571,34,[],[],"[(1198, 907)]",[],[1],[72],[1.2],"[640.0, 512.0]",horizontal,"(890.0, 262.0)",[1.4166666666666667],[0.602],1,262.149
2,False,65,0.943,56,[],[],"[(1213, 877)]",[],[1],[85],[1.4166666666666667],"[640.0, 512.0]",horizontal,"(890.0, 262.0)",[1.45],[0.457],1,266.224
2,False,66,0.751,45,[],[],"[(1194, 905)]",[],[1],[74],[1.2333333333333334],"[640.0, 512.0]",vertical,"(890.0, 262.0)",[1.0833333333333333],[0.463],1,270.557
2,False,67,0.471,28,[],[],"[(1197, 885)]",[],[1],[56],[0.9333333333333333],"[640.0, 512.0]",vertical,"(390.0, 262.0)",[1.6333333333333333],[0.439],1,274.353
2,False,68,1.414,84,[],[],"[(1200, 894)]",[],[1],[129],[2.15],"[640.0, 512.0]",horizontal,"(390.0, 762.0)",[1.25],[0.725],1,278.44
2,False,69,1.383,82,[],[],"[(1205, 893)]",[],[1],[90],[1.5],"[640.0, 512.0]",vertical,"(890.0, 262.0)",[1.4833333333333334],[0.116],1,283.32
2,False,70,1.349,80,[],[],"[(1201, 904)]",[],[1],[],[],"[640.0, 512.0]",vertical,"(390.0, 762.0)",[],[0],0,287.841
2,False,71,0.658,39,[],[],"[(1172, 910)]",[],[1],[73],[1.2166666666666666],"[640.0, 512.0]",vertical,"(890.0, 762.0)",[1.2166666666666666],[0.54],1,293.689
2,False,72,0.406,24,[],[],"[(1193, 921)]",[],[1],[74],[1.2333333333333334],"[640.0, 512.0]",horizontal,"(890.0, 262.0)",[0.6333333333333333],[0.8],0,298.718
2,False,73,0.894,53,[],[],"[(1230, 886)]",[],[1],[81],[1.35],"[640.0, 512.0]",vertical,"(390.0, 762.0)",[0.5166666666666666],[0.443],1,302.106
2,False,74,0.973,58,[],[],"[(1196, 896)]",[],[1],[78],[1.3],"[640.0, 512.0]",vertical,"(390.0, 262.0)",[0.6833333333333333],[0.316],1,305.469
2,False,75,0.928,55,[],[],"[(1200, 899)]",[],[1],[79],[1.3166666666666667],"[640.0, 512.0]",horizontal,"(390.0, 762.0)",[0.9833333333333333],[0.376],1,308.942
2,False,76,0.774,46,[],[],"[(1197, 883)]",[],[1],[],[],"[640.0, 512.0]",vertical,"(890.0, 762.0)",[],[0],0,313.002
2,False,77,1.204,72,[],[],"[(1190, 904)]",[],[1],[],[],"[640.0, 512.0]",horizontal,"(890.0, 262.0)",[],[0],0,317.237
2,False,78,1.17,70,[],[],"[(1198, 894)]",[],[1],[100],[1.6666666666666667],"[640.0, 512.0]",horizontal,"(890.0, 262.0)",[1.2333333333333334],[0.473],1,321.093
2,False,79,0.47,28,[],[],"[(1193, 902)]",[],[1],[67],[1.1166666666666667],"[640.0, 512.0]",vertical,"(890.0, 262.0)",[1.2833333333333332],[0.623],1,325.453
2,False,80,0.894,53,[],[],"[(1205, 902)]",[],[1],[],[],"[640.0, 512.0]",vertical,"(890.0, 762.0)",[],[0],0,329.324
2,False,81,0.792,47,[],[],"[(1201, 901)]",[],[1],[80],[1.3333333333333333],"[640.0, 512.0]",horizontal,"(390.0, 262.0)",[1.4],[0.528],1,332.273
2,False,82,1.375,82,[],[],"[(1196, 893)]",[],[1],[106],[1.7666666666666666],"[640.0, 512.0]",vertical,"(890.0, 762.0)",[1.0],[0.379],1,336.567
2,False,83,1.416,84,[],[],"[(1212, 888)]",[],[1],[105],[1.75],"[640.0, 512.0]",vertical,"(390.0, 262.0)",[1.3833333333333333],[0.327],1,340.852
2,False,84,1.145,68,[],[],"[(1184, 896)]",[],[1],[86],[1.4333333333333333],"[640.0, 512.0]",horizontal,"(890.0, 762.0)",[1.15],[0.28],1,345.456
2,False,85,0.641,38,[],[],"[(1197, 908)]",[],[1],[69],[1.15],"[640.0, 512.0]",vertical,"(890.0, 262.0)",[1.1333333333333333],[0.496],1,349.532
2,False,86,0.312,18,[],[],"[(1217, 889)]",[],[1],[51],[0.85],"[640.0, 512.0]",horizontal,"(390.0, 762.0)",[1.1],[0.518],1,353.275
2,False,87,0.922,55,[],[],"[(1184, 886)]",[],[1],[90],[1.5],"[640.0, 512.0]",vertical,"(890.0, 262.0)",[1.1166666666666667],[0.552],1,357.498
2,False,88,0.775,46,[],[],"[(1206, 894)]",[],[1],[],[],"[640.0, 512.0]",horizontal,"(390.0, 762.0)",[],[0],0,361.569
2,False,89,0.6,36,[],[],"[(1202, 890)]",[],[1],[66],[1.1],"[640.0, 512.0]",vertical,"(890.0, 262.0)",[0.9833333333333333],[0.473],1,364.387
2,False,90,1.013,60,[],[],"[(1233, 910), (1202, 889)]",[],"[0, 1]",[99],[1.65],"[640.0, 512.0]",horizontal,"(390.0, 762.0)",[0.6],[0.619],1,367.957
2,False,91,0.91,54,[],[],"[(1179, 893)]",[],[1],[],[],"[640.0, 512.0]",vertical,"(890.0, 762.0)",[],[0],0,372.625
2,False,92,1.019,61,[],[],"[(1236, 899), (1228, 890)]",[],"[0, 1]",[90],[1.5],"[640.0, 512.0]",vertical,"(890.0, 262.0)",[0.8833333333333333],[0.459],1,375.82
2,False,93,0.988,59,[],[],"[(1190, 878)]",[],[1],[96],[1.6],"[640.0, 512.0]",vertical,"(890.0, 262.0)",[1.2833333333333332],[0.591],1,380.521
2,False,94,0.992,59,[],[],"[(1198, 887)]",[],[1],[],[],"[640.0, 512.0]",vertical,"(890.0, 262.0)",[],[0],0,384.864
2,False,95,0.832,49,[],[],"[(1219, 894)]",[],[1],[99],[1.65],"[640.0, 512.0]",vertical,"(890.0, 762.0)",[0.6833333333333333],[0.803],0,388.703
2,False,96,1.318,79,[],[],"[(1202, 882)]",[],[1],[112],[1.8666666666666667],"[640.0, 512.0]",horizontal,"(390.0, 262.0)",[0.7833333333333333],[0.525],1,392.491
2,False,97,0.325,19,[],[],"[(1202, 876)]",[],[1],[34],[0.5666666666666667],"[640.0, 512.0]",vertical,"(390.0, 762.0)",[1.6666666666666667],[0.233],1,396.616
2,False,98,1.474,88,[],[],"[(1202, 902)]",[],[1],[130],[2.1666666666666665],"[640.0, 512.0]",vertical,"(890.0, 762.0)",[1.0],[0.671],1,400.359
2,False,99,1.131,67,[],[],"[(1227, 893)]",[],[1],[],[],"[640.0, 512.0]",vertical,"(390.0, 762.0)",[],[0],0,405.015
2,False,100,1.19,71,[],[],"[(1179, 875)]",[],[1],[],[],"[640.0, 512.0]",vertical,"(390.0, 762.0)",[],[0],0,408.281
2,False,101,0.802,48,[],[434673],"[(866, 536), (1017, 650), (173, 588), (1208, 916)]","[(1136, 921)]","[0, 0, 0, 1]",[12],[0.2],"[640.0, 512.0]",horizontal,"(890.0, 762.0)",[],[0],0,415.473
2,False,102,0.53,31,[],[436462],"[(1133, 904)]","[(1133, 904)]",[1],[9],[0.15],"[640.0, 512.0]",horizontal,"(890.0, 762.0)",[],[0],0,427.695
2,False,103,1.103,66,[],[438564],"[(1143, 916)]","[(1143, 916)]",[1],[8],[0.13333333333333333],"[640.0, 512.0]",horizontal,"(890.0, 762.0)",[],[0],0,429.492
2,False,104,1.319,79,[],[440918],"[(1154, 916)]","[(1160, 919)]",[1],[43],[0.7166666666666667],"[640.0, 512.0]",vertical,"(890.0, 762.0)",[],[0],0,431.604
2,False,105,1.295,77,[],[],"[(1197, 889)]",[],[1],[],[],"[640.0, 512.0]",vertical,"(390.0, 262.0)",[],[0],0,433.936
2,False,106,1.172,70,[],[446081],"[(1177, 917)]","[(1177, 917)]",[1],[6],[0.1],"[640.0, 512.0]",horizontal,"(890.0, 762.0)",[],[0],0,437.34
2,False,107,0.905,54,[],[447785],"[(1169, 897)]","[(1169, 897)]",[1],[4],[0.06666666666666667],"[640.0, 512.0]",horizontal,"(390.0, 262.0)",[],[0],0,439.102
2,False,108,0.683,40,[],[453064],"[(1017, 753), (757, 519), (1193, 889)]","[(1028, 640)]","[0, 0, 1]",[31],[0.5166666666666666],"[640.0, 512.0]",vertical,"(890.0, 262.0)",[],[0],0,440.807
2,False,109,1.224,73,[],[],"[(1203, 887)]",[],[1],[],[],"[640.0, 512.0]",horizontal,"(890.0, 262.0)",[],[0],0,446.079
2,False,110,0.758,45,[],[],"[(1177, 918)]",[],[1],[],[],"[640.0, 512.0]",horizontal,"(390.0, 762.0)",[],[0],0,449.526
2,False,111,1.199,71,[],[],"[(1173, 679), (1244, 679), (1196, 886)]",[],"[0, 0, 1]",[],[],"[640.0, 512.0]",horizontal,"(390.0, 762.0)",[],[0],0,452.52
2,False,112,0.831,49,[],[],"[(1279, 708), (1155, 921)]",[],"[0, 1]",[],[],"[640.0, 512.0]",vertical,"(890.0, 262.0)",[],[0],0,456.702
2,False,113,0.502,30,[],[],"[(1267, 744), (1177, 922)]",[],"[0, 1]",[71],[1.1833333333333333],"[640.0, 512.0]",horizontal,"(390.0, 262.0)",[0.8166666666666667],[0.66],1,459.342
2,False,114,1.45,87,[],[],"[(1220, 696), (1036, 789)]",[],"[0, 1]",[],[],"[640.0, 512.0]",horizontal,"(390.0, 762.0)",[],[0],0,467.078
2,False,115,0.319,19,[],[],"[(1229, 897)]",[],[1],[69],[1.15],"[640.0, 512.0]",horizontal,"(890.0, 262.0)",[1.4666666666666666],[0.799],0,475.62
2,False,116,1.023,61,[],[],"[(1197, 894)]",[],[1],[],[],"[640.0, 512.0]",vertical,"(890.0, 762.0)",[],[0],0,479.785
2,False,117,1.017,61,[],[],"[(1186, 899)]",[],[1],[68],[1.1333333333333333],"[640.0, 512.0]",vertical,"(890.0, 762.0)",[1.35],[0.098],1,483.803
2,False,118,1.436,86,[],[],"[(1210, 902)]",[],[1],[],[],"[640.0, 512.0]",vertical,"(890.0, 762.0)",[],[0],0,487.984
2,False,119,0.804,48,[],[],"[(1226, 903)]",[],[1],[98],[1.6333333333333333],"[640.0, 512.0]",vertical,"(890.0, 262.0)",[0.9],[0.804],0,491.868
2,False,120,0.956,57,[],[],"[(1176, 904)]",[],[1],[107],[1.7833333333333332],"[640.0, 512.0]",horizontal,"(390.0, 762.0)",[0.85],[0.801],0,496.641
3,False,121,1.435,86,[],[],"[(1173, 901)]",[],[1],[126],[2.1],"[640.0, 512.0]",horizontal,"(390.0, 262.0)",[0.5],[0.642],1,501.942
3,False,122,0.416,24,[],[],"[(1196, 905)]",[],[1],[74],[1.2333333333333334],"[640.0, 512.0]",vertical,"(890.0, 762.0)",[0.7666666666666666],[0.804],0,507.74
3,False,123,0.548,32,[],[],"[(1138, 914)]",[],[1],[48],[0.8],"[640.0, 512.0]",horizontal,"(390.0, 762.0)",[1.5],[0.247],1,511.403
3,False,124,1.371,82,[],[],"[(1193, 892)]",[],[1],[132],[2.2],"[640.0, 512.0]",horizontal,"(390.0, 262.0)",[1.0],[0.8],0,518.637
3,False,125,0.432,25,[],[],"[(1165, 897)]",[],[1],[59],[0.9833333333333333],"[640.0, 512.0]",vertical,"(390.0, 262.0)",[1.1333333333333333],[0.548],1,523.345
3,False,126,1.42,85,[],[],"[(1226, 893)]",[],[1],[135],[2.25],"[640.0, 512.0]",vertical,"(390.0, 262.0)",[1.6166666666666667],[0.801],0,526.99
3,False,127,1.376,82,[],[],"[(1112, 930)]",[],[1],[],[],"[640.0, 512.0]",horizontal,"(890.0, 262.0)",[],[0],0,532.329
3,False,128,1.336,80,[],[],"[(1171, 899)]",[],[1],[118],[1.9666666666666666],"[640.0, 512.0]",vertical,"(390.0, 262.0)",[0.7166666666666667],[0.602],1,536.962
3,False,129,1.493,89,[],[],"[(1202, 906)]",[],[1],[139],[2.3166666666666664],"[640.0, 512.0]",vertical,"(890.0, 262.0)",[0.9],[0.807],0,541.188
3,False,130,0.683,40,[],[],"[(794, 462), (665, 364), (1212, 864)]",[],"[0, 0, 1]",[72],[1.2],"[640.0, 512.0]",vertical,"(890.0, 762.0)",[0.7166666666666667],[0.507],1,545.922
3,False,131,0.749,44,[],[],"[(1227, 908)]",[],[1],[70],[1.1666666666666667],"[640.0, 512.0]",horizontal,"(390.0, 262.0)",[1.35],[0.41],1,551.919
3,False,132,0.992,59,[],[],"[(1196, 899)]",[],[1],[91],[1.5166666666666666],"[640.0, 512.0]",vertical,"(890.0, 262.0)",[1.05],[0.509],1,555.896
3,False,133,1.46,87,[],[],"[(1200, 890)]",[],[1],[109],[1.8166666666666667],"[640.0, 512.0]",vertical,"(890.0, 262.0)",[1.5333333333333332],[0.345],1,559.944
3,False,134,1.306,78,[],[],"[(1177, 880)]",[],[1],[114],[1.9],"[640.0, 512.0]",vertical,"(890.0, 762.0)",[0.8666666666666667],[0.57],1,564.75
3,False,135,0.578,34,[],[],"[(1200, 911)]",[],[1],[74],[1.2333333333333334],"[640.0, 512.0]",vertical,"(390.0, 762.0)",[0.8],[0.642],1,569.183
3,False,136,1.404,84,[],[],"[(1207, 903)]",[],[1],[134],[2.2333333333333334],"[640.0, 512.0]",horizontal,"(890.0, 762.0)",[1.3333333333333333],[0.8],0,572.759
3,False,137,0.619,37,[],[],"[(1226, 893)]",[],[1],[76],[1.2666666666666666],"[640.0, 512.0]",horizontal,"(390.0, 762.0)",[0.7666666666666666],[0.626],1,577.802
3,False,138,0.771,46,[],[],"[(1178, 894)]",[],[1],[96],[1.6],"[640.0, 512.0]",vertical,"(890.0, 262.0)",[0.5666666666666667],[0.803],0,581.422
3,False,139,0.664,39,[],[],"[(1220, 897)]",[],[1],[41],[0.6833333333333333],"[640.0, 512.0]",vertical,"(890.0, 262.0)",[0.55],[0.019],1,585.174
3,False,140,0.923,55,[],[],"[(1199, 899)]",[],[1],[],[],"[640.0, 512.0]",horizontal,"(890.0, 762.0)",[],[0],0,587.925
3,False,141,0.554,33,[],[],"[(1165, 889)]",[],[1],[65],[1.0833333333333333],"[640.0, 512.0]",vertical,"(890.0, 262.0)",[1.1],[0.509],1,591.031
3,False,142,1.054,63,[],[],"[(1192, 875)]",[],[1],[],[],"[640.0, 512.0]",vertical,"(890.0, 762.0)",[],[0],0,594.76
3,False,143,0.752,45,[],[],"[(1177, 888)]",[],[1],[95],[1.5833333333333333],"[640.0, 512.0]",horizontal,"(890.0, 262.0)",[1.1666666666666667],[0.812],0,599.024
3,False,144,0.806,48,[],[],"[(1202, 886)]",[],[1],[82],[1.3666666666666667],"[640.0, 512.0]",vertical,"(390.0, 762.0)",[0.9666666666666667],[0.547],1,603.366
3,False,145,1.344,80,[],[],"[(1180, 902)]",[],[1],[103],[1.7166666666666666],"[640.0, 512.0]",vertical,"(390.0, 262.0)",[1.3],[0.362],1,608.025
3,False,146,0.348,20,[],[],"[(1197, 900)]",[],[1],[70],[1.1666666666666667],"[640.0, 512.0]",vertical,"(890.0, 762.0)",[0.8],[0.799],0,612.508
3,False,147,1.362,81,[],[],"[(1191, 905)]",[],[1],[131],[2.183333333333333],"[640.0, 512.0]",horizontal,"(390.0, 762.0)",[1.3333333333333333],[0.804],0,616.041
3,False,148,0.621,37,[],[],"[(1197, 891)]",[],[1],[87],[1.45],"[640.0, 512.0]",vertical,"(890.0, 262.0)",[1.4666666666666666],[0.803],0,621.145
3,False,149,1.413,84,[],[],"[(1196, 882)]",[],[1],[134],[2.2333333333333334],"[640.0, 512.0]",horizontal,"(890.0, 762.0)",[1.3833333333333333],[0.803],0,625.552
3,False,150,0.822,49,[],[],"[(1183, 886)]",[],[1],[99],[1.65],"[640.0, 512.0]",horizontal,"(890.0, 262.0)",[0.6666666666666666],[0.804],0,630.726
3,False,151,0.478,28,[],[],"[(1199, 897)]",[],[1],[30],[0.5],"[640.0, 512.0]",horizontal,"(390.0, 762.0)",[1.6833333333333333],[0.019],1,635.091
3,False,152,0.366,21,[],[],"[(1198, 894)]",[],[1],[56],[0.9333333333333333],"[640.0, 512.0]",horizontal,"(890.0, 762.0)",[1.0],[0.555],1,638.782
3,False,153,0.474,28,[],[],"[(1171, 903)]",[],[1],[78],[1.3],"[640.0, 512.0]",horizontal,"(390.0, 762.0)",[1.2333333333333334],[0.798],0,642.274
3,False,154,0.917,55,[],[],"[(1189, 888)]",[],[1],[105],[1.75],"[640.0, 512.0]",vertical,"(890.0, 262.0)",[1.4166666666666667],[0.807],0,646.377
3,False,155,0.379,22,[],[],"[(1190, 900)]",[],[1],[72],[1.2],"[640.0, 512.0]",vertical,"(890.0, 262.0)",[0.7333333333333333],[0.797],0,651.54
3,False,156,1.427,85,[],[],"[(1197, 894)]",[],[1],[135],[2.25],"[640.0, 512.0]",horizontal,"(890.0, 262.0)",[0.7],[0.803],0,654.99
3,False,157,0.307,18,[],[],"[(1185, 911)]",[],[1],[68],[1.1333333333333333],"[640.0, 512.0]",horizontal,"(890.0, 762.0)",[1.4],[0.809],0,659.437
3,False,158,0.508,30,[],[],"[(1144, 903)]",[],[1],[80],[1.3333333333333333],"[640.0, 512.0]",vertical,"(890.0, 762.0)",[1.1166666666666667],[0.802],0,668.106
3,False,159,0.459,27,[],[],"[(1135, 937)]",[],[1],[41],[0.6833333333333333],"[640.0, 512.0]",vertical,"(390.0, 262.0)",[1.25],[0.214],1,672.158
3,False,160,1.268,76,[],[686277],"[(1220, 865)]","[(1183, 885)]",[1],[23],[0.3833333333333333],"[640.0, 512.0]",horizontal,"(890.0, 762.0)",[],[0],0,676.553
3,False,161,0.978,58,[],[],"[(1153, 886)]",[],[1],[],[],"[640.0, 512.0]",vertical,"(390.0, 762.0)",[],[0],0,679.305
3,False,162,1.133,67,[],[],"[(1230, 894)]",[],[1],[69],[1.15],"[640.0, 512.0]",horizontal,"(890.0, 762.0)",[0.75],[0.019],1,683.341
3,False,163,1.129,67,[],[],"[(1197, 902)]",[],[1],[117],[1.95],"[640.0, 512.0]",vertical,"(890.0, 762.0)",[0.6],[0.805],0,686.717
3,False,164,0.78,46,[],[],"[(1178, 899)]",[],[1],[],[],"[640.0, 512.0]",vertical,"(390.0, 262.0)",[],[0],0,690.785
3,False,165,0.719,43,[],[],"[(1225, 886)]",[],[1],[93],[1.55],"[640.0, 512.0]",vertical,"(390.0, 762.0)",[0.8833333333333333],[0.797],0,694.122
3,False,166,1.478,88,[],[],"[(1200, 874)]",[],[1],[138],[2.3],"[640.0, 512.0]",vertical,"(390.0, 262.0)",[1.1],[0.795],0,698.041
3,False,167,0.876,52,[],[],"[(1183, 899)]",[],[1],[59],[0.9833333333333333],"[640.0, 512.0]",horizontal,"(890.0, 762.0)",[1.4],[0.102],1,704.75
3,False,168,0.626,37,[],[],"[(1165, 894)]",[],[1],[77],[1.2833333333333332],"[640.0, 512.0]",vertical,"(890.0, 262.0)",[0.7166666666666667],[0.642],1,727.146
3,False,169,0.506,30,[],[],"[(1161, 885)]",[],[1],[61],[1.0166666666666666],"[640.0, 512.0]",vertical,"(890.0, 262.0)",[1.0666666666666667],[0.494],1,730.75
3,False,170,0.887,53,[],[],"[(1165, 901)]",[],[1],[],[],"[640.0, 512.0]",horizontal,"(890.0, 762.0)",[],[0],0,734.379
3,False,171,0.77,46,[],[],"[(1165, 893)]",[],[1],[73],[1.2166666666666666],"[640.0, 512.0]",vertical,"(390.0, 262.0)",[0.8],[0.426],1,737.409
3,False,172,0.904,54,[],[],"[(1177, 880)]",[],[1],[104],[1.7333333333333334],"[640.0, 512.0]",horizontal,"(390.0, 262.0)",[1.1666666666666667],[0.803],0,741.035
3,False,173,0.886,53,[],[],"[(1210, 892)]",[],[1],[95],[1.5833333333333333],"[640.0, 512.0]",horizontal,"(390.0, 762.0)",[1.4],[0.669],1,745.62
3,False,174,1.004,60,[],[],"[(1177, 897)]",[],[1],[88],[1.4666666666666666],"[640.0, 512.0]",horizontal,"(890.0, 262.0)",[0.6166666666666667],[0.445],1,750.108
3,False,175,0.72,43,[],[],"[(1203, 884)]",[],[1],[],[],"[640.0, 512.0]",vertical,"(890.0, 262.0)",[],[0],0,753.709
3,False,176,0.837,50,[],[],"[(1193, 887)]",[],[1],[82],[1.3666666666666667],"[640.0, 512.0]",vertical,"(890.0, 762.0)",[1.3833333333333333],[0.509],1,756.489
3,False,177,1.428,85,[],[],"[(1177, 906)]",[],[1],[119],[1.9833333333333334],"[640.0, 512.0]",horizontal,"(890.0, 762.0)",[0.9333333333333333],[0.542],1,760.757
3,False,178,0.781,46,[],[],"[(1196, 906)]",[],[1],[96],[1.6],"[640.0, 512.0]",vertical,"(390.0, 762.0)",[1.4833333333333334],[0.815],0,765.148
3,False,179,0.732,43,[],[],"[(1193, 907)]",[],[1],[93],[1.55],"[640.0, 512.0]",vertical,"(890.0, 762.0)",[1.1],[0.808],0,769.738
3,False,180,1.045,62,[],[],"[(1232, 884), (1177, 905)]",[],"[0, 1]",[112],[1.8666666666666667],"[640.0, 512.0]",vertical,"(890.0, 762.0)",[1.5833333333333333],[0.808],0,774.042
4,False,181,1.008,60,[],[],"[(1196, 902)]",[],[1],[110],[1.8333333333333333],"[640.0, 512.0]",vertical,"(390.0, 262.0)",[0.7833333333333333],[0.808],0,780.188
4,False,182,0.846,50,[],[],"[(1193, 907)]",[],[1],[100],[1.6666666666666667],"[640.0, 512.0]",vertical,"(390.0, 262.0)",[1.5],[0.806],0,784.292
4,False,183,0.576,34,[],[],"[(1181, 896)]",[],[1],[84],[1.4],"[640.0, 512.0]",horizontal,"(890.0, 262.0)",[1.6],[0.811],0,790.171
4,False,184,1.031,61,[],[],"[(1213, 893)]",[],[1],[90],[1.5],"[640.0, 512.0]",horizontal,"(390.0, 262.0)",[1.3666666666666667],[0.458],1,794.721
4,False,185,1.491,89,[],[],"[(1141, 906)]",[],[1],[139],[2.3166666666666664],"[640.0, 512.0]",vertical,"(890.0, 762.0)",[1.55],[0.812],0,799.104
4,False,186,0.397,23,[819849],[],"[(1133, 908), (1148, 909)]",[],"[1, 1]",[73],[1.2166666666666666],"[640.0, 512.0]",horizontal,"(390.0, 762.0)",[1.2833333333333332],[0.798],0,806.439
4,False,187,0.711,42,[],[],"[(1226, 894)]",[],[1],[],[],"[640.0, 512.0]",horizontal,"(390.0, 762.0)",[],[0],0,815.259
4,False,188,0.6,36,[],[],"[(1219, 880)]",[],[1],"[86, 86]","[1.4333333333333333, 1.4333333333333333]","[640.0, 512.0]",vertical,"(390.0, 762.0)",[0.5333333333333333],"[0.807, 0.807]",0,818.106
4,False,189,0.66,39,[],[],"[(1233, 858), (1183, 909)]",[],"[0, 1]",[80],[1.3333333333333333],"[640.0, 512.0]",vertical,"(390.0, 262.0)",[0.7333333333333333],[0.653],1,821.57
4,False,190,0.744,44,[],[],"[(1172, 884)]",[],[1],[49],[0.8166666666666667],"[640.0, 512.0]",horizontal,"(390.0, 262.0)",[0.9],[0.069],1,828.103
4,False,191,0.781,46,[],[],"[(1196, 898)]",[],[1],[79],[1.3166666666666667],"[640.0, 512.0]",horizontal,"(390.0, 262.0)",[0.5833333333333334],[0.525],1,831.425
4,False,192,1.487,89,[],[],"[(1204, 894)]",[],[1],[],[],"[640.0, 512.0]",horizontal,"(890.0, 762.0)",[],[0],0,834.822
4,False,193,0.503,30,[],[],"[(1177, 904)]",[],[1],[80],[1.3333333333333333],"[640.0, 512.0]",vertical,"(890.0, 262.0)",[1.2166666666666666],[0.807],0,838.589
4,False,194,0.413,24,[],[],"[(834, 623), (1201, 900)]",[],"[0, 1]",[74],[1.2333333333333334],"[640.0, 512.0]",horizontal,"(390.0, 262.0)",[0.9333333333333333],[0.817],0,843.409
4,False,195,0.433,25,[],[],"[(1211, 894)]",[],[1],[62],[1.0333333333333332],"[640.0, 512.0]",horizontal,"(890.0, 762.0)",[0.9],[0.596],1,849.809
4,False,196,1.471,88,[],[],"[(1183, 900)]",[],[1],[119],[1.9833333333333334],"[640.0, 512.0]",vertical,"(890.0, 262.0)",[1.0833333333333333],[0.493],1,853.253
4,False,197,1.402,84,[],[],"[(1200, 896)]",[],[1],[],[],"[640.0, 512.0]",vertical,"(890.0, 762.0)",[],[0],0,857.905
4,False,198,0.723,43,[],[],"[(1200, 894)]",[],[1],[93],[1.55],"[640.0, 512.0]",vertical,"(390.0, 762.0)",[0.9166666666666666],[0.799],0,861.396
4,False,199,1.304,78,[],[],"[(1203, 883)]",[],[1],[128],[2.1333333333333333],"[640.0, 512.0]",vertical,"(390.0, 262.0)",[1.1166666666666667],[0.817],0,865.376
4,False,200,1.323,79,[],[],"[(1189, 894)]",[],[1],[129],[2.15],"[640.0, 512.0]",horizontal,"(390.0, 262.0)",[1.2333333333333334],[0.804],0,871.865
4,False,201,0.448,26,[],[],"[(1206, 883)]",[],[1],[57],[0.95],"[640.0, 512.0]",vertical,"(890.0, 262.0)",[1.15],[0.495],1,876.774
4,False,202,0.795,47,[],[],"[(1203, 898)]",[],[1],[97],[1.6166666666666667],"[640.0, 512.0]",vertical,"(890.0, 262.0)",[0.7],[0.805],0,880.413
4,False,203,1.265,75,[],[],"[(1232, 873), (1189, 899)]",[],"[0, 1]",[104],[1.7333333333333334],"[640.0, 512.0]",vertical,"(890.0, 762.0)",[0.9333333333333333],[0.47],1,884.206
4,False,204,0.914,54,[],[],"[(1202, 894)]",[],[1],[82],[1.3666666666666667],"[640.0, 512.0]",vertical,"(390.0, 762.0)",[1.0666666666666667],[0.444],1,889.477
4,False,205,1.028,61,[],[],"[(1190, 894)]",[],[1],[95],[1.5833333333333333],"[640.0, 512.0]",horizontal,"(890.0, 262.0)",[1.1666666666666667],[0.544],1,893.442
4,False,206,0.368,22,[],[],"[(1177, 904)]",[],[1],[],[],"[640.0, 512.0]",vertical,"(390.0, 762.0)",[],[0],0,897.707
4,False,207,1.218,73,[],[],"[(1183, 886)]",[],[1],[],[],"[640.0, 512.0]",vertical,"(390.0, 262.0)",[],[0],0,900.217
4,False,208,0.411,24,[],[],"[(1226, 884)]",[],[1],[53],[0.8833333333333333],"[640.0, 512.0]",vertical,"(390.0, 262.0)",[1.6666666666666667],[0.464],1,903.674
4,False,209,1.071,64,[],[],"[(1176, 875)]",[],[1],[],[],"[640.0, 512.0]",horizontal,"(390.0, 762.0)",[],[0],0,907.71
4,False,210,0.67,40,[],[],"[(1189, 888)]",[],[1],[],[],"[640.0, 512.0]",horizontal,"(890.0, 762.0)",[],[0],0,911.456
4,False,211,1.006,60,[],[],"[(1180, 899)]",[],[1],[],[],"[640.0, 512.0]",horizontal,"(890.0, 262.0)",[],[0],0,914.294
4,False,212,1.419,85,[],[],"[(1173, 903)]",[],[1],[115],[1.9166666666666667],"[640.0, 512.0]",horizontal,"(390.0, 262.0)",[0.7666666666666666],[0.479],1,918.189
4,False,213,1.05,63,[],[],"[(1183, 894)]",[],[1],[84],[1.4],"[640.0, 512.0]",vertical,"(890.0, 762.0)",[1.1666666666666667],[0.327],1,922.953
4,False,214,0.714,42,[],[],"[(1173, 902)]",[],[1],[60],[1.0],"[640.0, 512.0]",horizontal,"(390.0, 762.0)",[1.0333333333333332],[0.279],1,927.108
4,False,215,0.623,37,[],[],"[(1163, 887)]",[],[1],[],[],"[640.0, 512.0]",vertical,"(890.0, 762.0)",[],[0],0,930.648
4,False,216,0.747,44,[],[],"[(1250, 885), (1181, 897)]",[],"[0, 1]",[77],[1.2833333333333332],"[640.0, 512.0]",horizontal,"(890.0, 762.0)",[1.25],[0.528],1,933.349
4,False,217,0.881,52,[],[],"[(1218, 892)]",[],[1],[],[],"[640.0, 512.0]",vertical,"(390.0, 262.0)",[],[0],0,938.568
4,False,218,0.676,40,[],[],"[(1202, 911)]",[],[1],[],[],"[640.0, 512.0]",horizontal,"(390.0, 262.0)",[],[0],0,942.412
4,False,219,0.744,44,[],[],"[(811, 560), (741, 534), (1183, 909)]",[],"[0, 0, 1]",[],[],"[640.0, 512.0]",vertical,"(890.0, 762.0)",[],[0],0,946.438
4,False,220,0.725,43,[],[],"[(1204, 907)]",[],[1],[93],[1.55],"[640.0, 512.0]",vertical,"(390.0, 262.0)",[1.4833333333333334],[0.811],0,957.622
4,False,221,1.154,69,[],[],"[(833, 833), (1183, 888)]",[],"[0, 1]",[91],[1.5166666666666666],"[640.0, 512.0]",vertical,"(390.0, 262.0)",[1.4333333333333333],[0.342],1,962.366
4,False,222,1.137,68,[],[],"[(1191, 908)]",[],[1],[],[],"[640.0, 512.0]",vertical,"(890.0, 262.0)",[],[0],0,969.486
4,False,223,0.479,28,[],[],"[(1196, 889)]",[],[1],[58],[0.9666666666666667],"[640.0, 512.0]",vertical,"(390.0, 762.0)",[1.5833333333333333],[0.476],1,972.836
4,False,224,1.159,69,[],[],"[(1186, 891)]",[],[1],[97],[1.6166666666666667],"[640.0, 512.0]",vertical,"(390.0, 762.0)",[0.7833333333333333],[0.443],1,976.876
4,False,225,1.107,66,[],[],"[(1153, 891)]",[],[1],[99],[1.65],"[640.0, 512.0]",vertical,"(390.0, 762.0)",[0.7833333333333333],[0.523],1,980.872
4,False,226,0.883,52,[],[],"[(1164, 896)]",[],[1],[81],[1.35],"[640.0, 512.0]",horizontal,"(890.0, 262.0)",[1.4666666666666666],[0.461],1,984.893
4,False,227,0.598,35,[],[],"[(1171, 908)]",[],[1],[73],[1.2166666666666666],"[640.0, 512.0]",horizontal,"(390.0, 262.0)",[1.5166666666666666],[0.607],1,989.275
4,False,228,1.125,67,[],[],"[(1186, 889)]",[],[1],[104],[1.7333333333333334],"[640.0, 512.0]",vertical,"(890.0, 762.0)",[1.0666666666666667],[0.588],1,993.526
4,False,229,0.575,34,[],[],"[(1202, 911)]",[],[1],[84],[1.4],"[640.0, 512.0]",vertical,"(390.0, 762.0)",[0.7333333333333333],[0.805],0,997.882
4,False,230,0.563,33,[],[],"[(1146, 889)]",[],[1],[68],[1.1333333333333333],"[640.0, 512.0]",vertical,"(390.0, 262.0)",[0.7166666666666667],[0.554],1,1001.49
4,False,231,0.565,33,[],[],"[(1183, 904)]",[],[1],[35],[0.5833333333333334],"[640.0, 512.0]",vertical,"(890.0, 262.0)",[1.3666666666666667],[0.019],1,1005.761
4,False,232,1.443,86,[],[],"[(1146, 893)]",[],[1],[],[],"[640.0, 512.0]",vertical,"(390.0, 262.0)",[],[0],0,1009.277
4,False,233,0.962,57,[],[],"[(1203, 893)]",[],[1],[92],[1.5333333333333332],"[640.0, 512.0]",horizontal,"(890.0, 762.0)",[0.75],[0.558],1,1013.13
4,False,234,0.462,27,[],[],"[(1183, 894)]",[],[1],[60],[1.0],"[640.0, 512.0]",vertical,"(890.0, 262.0)",[0.7166666666666667],[0.523],1,1016.871
4,False,235,0.928,55,[],[],"[(1183, 905)]",[],[1],[],[],"[640.0, 512.0]",horizontal,"(390.0, 262.0)",[],[0],0,1020.085
4,False,236,0.791,47,[],[],"[(1165, 900)]",[],[1],[72],[1.2],"[640.0, 512.0]",vertical,"(890.0, 262.0)",[1.3333333333333333],[0.398],1,1023.593
4,False,237,1.043,62,[],[],"[(1160, 904)]",[],[1],[],[],"[640.0, 512.0]",vertical,"(390.0, 762.0)",[],[0],0,1027.67
4,False,238,1.115,66,[],[],"[(1188, 883)]",[],[1],[116],[1.9333333333333333],"[640.0, 512.0]",horizontal,"(390.0, 762.0)",[0.7166666666666667],[0.8],0,1030.817
4,False,239,0.625,37,[],[],"[(1170, 916)]",[],[1],[],[],"[640.0, 512.0]",horizontal,"(890.0, 762.0)",[],[0],0,1035.292
4,False,240,0.409,24,[],[],"[(1177, 895)]",[],[1],[42],[0.7],"[640.0, 512.0]",vertical,"(390.0, 762.0)",[1.1166666666666667],[0.279],1,1049.84
5,False,241,1.361,81,[],[],"[(1141, 910)]",[],[1],[],[],"[640.0, 512.0]",horizontal,"(390.0, 262.0)",[],[0],0,1053.204
5,False,242,0.404,24,[],[],"[(1172, 894)]",[],[1],[65],[1.0833333333333333],"[640.0, 512.0]",vertical,"(890.0, 762.0)",[0.9333333333333333],[0.653],1,1057.058
5,False,243,1.101,66,[],[],"[(1184, 901)]",[],[1],[],[],"[640.0, 512.0]",horizontal,"(890.0, 762.0)",[],[0],0,1060.549
5,False,244,1.21,72,[],[],"[(1182, 903)]",[],[1],[96],[1.6],"[640.0, 512.0]",vertical,"(390.0, 262.0)",[1.0],[0.381],1,1063.773
5,False,245,0.663,39,[],[],"[(1171, 884)]",[],[1],[],[],"[640.0, 512.0]",vertical,"(390.0, 762.0)",[],[0],0,1067.894
5,False,246,1.291,77,[],[],"[(1196, 883)]",[],[1],[108],[1.8],"[640.0, 512.0]",vertical,"(890.0, 262.0)",[0.5666666666666667],[0.497],1,1071.41
5,False,247,0.32,19,[],[],"[(1188, 880)]",[],[1],[52],[0.8666666666666667],"[640.0, 512.0]",vertical,"(390.0, 262.0)",[0.8333333333333334],[0.521],1,1075.256
5,False,248,0.915,54,[],[],"[(1153, 883)]",[],[1],[60],[1.0],"[640.0, 512.0]",horizontal,"(890.0, 262.0)",[1.05],[0.084],1,1078.508
5,False,249,0.554,33,[],[],"[(1165, 893)]",[],[1],[63],[1.05],"[640.0, 512.0]",horizontal,"(390.0, 262.0)",[0.95],[0.473],1,1082.133
5,False,250,0.405,24,[],[],"[(1203, 889)]",[],[1],[56],[0.9333333333333333],"[640.0, 512.0]",horizontal,"(390.0, 762.0)",[0.8333333333333334],[0.502],1,1085.661
5,False,251,1.418,85,[],[],"[(1189, 897)]",[],[1],[107],[1.7833333333333332],"[640.0, 512.0]",vertical,"(890.0, 262.0)",[0.75],[0.348],1,1088.897
5,False,252,1.07,64,[],[],"[(1180, 896)]",[],[1],[],[],"[640.0, 512.0]",horizontal,"(890.0, 262.0)",[],[0],0,1092.929
5,False,253,0.856,51,[],[],"[(1173, 893)]",[],[1],[],[],"[640.0, 512.0]",horizontal,"(890.0, 262.0)",[],[0],0,1096.105
5,False,254,0.581,34,[],[],"[(1177, 900)]",[],[1],[63],[1.05],"[640.0, 512.0]",horizontal,"(890.0, 262.0)",[1.3666666666666667],[0.464],1,1100.053
5,False,255,0.343,20,[],[],"[(1179, 886)]",[],[1],[55],[0.9166666666666666],"[640.0, 512.0]",horizontal,"(390.0, 762.0)",[0.8],[0.555],1,1103.975
5,False,256,0.421,25,[],[],"[(1183, 894)]",[],[1],[59],[0.9833333333333333],"[640.0, 512.0]",vertical,"(890.0, 262.0)",[1.3166666666666667],[0.546],1,1107.155
5,False,257,0.88,52,[],[],"[(1201, 893)]",[],[1],[80],[1.3333333333333333],"[640.0, 512.0]",vertical,"(890.0, 262.0)",[1.6333333333333333],[0.443],1,1110.936
5,False,258,0.473,28,[],[],"[(1192, 885)]",[],[1],[64],[1.0666666666666667],"[640.0, 512.0]",vertical,"(890.0, 762.0)",[0.5],[0.576],1,1115.326
5,False,259,0.937,56,[],[],"[(1190, 885)]",[],[1],[93],[1.55],"[640.0, 512.0]",vertical,"(390.0, 262.0)",[1.0666666666666667],[0.593],1,1118.405
5,False,260,0.94,56,[],[],"[(1192, 880)]",[],[1],[88],[1.4666666666666666],"[640.0, 512.0]",horizontal,"(390.0, 762.0)",[0.5666666666666667],[0.504],1,1122.523
5,False,261,1.133,67,[],[],"[(1194, 898)]",[],[1],[113],[1.8833333333333333],"[640.0, 512.0]",horizontal,"(390.0, 262.0)",[1.4166666666666667],[0.745],1,1126.056
5,False,262,0.805,48,[],[],"[(1191, 888)]",[],[1],[70],[1.1666666666666667],"[640.0, 512.0]",horizontal,"(390.0, 762.0)",[0.6833333333333333],[0.344],1,1130.88
5,False,263,0.549,32,[],[],"[(1197, 888)]",[],[1],[82],[1.3666666666666667],"[640.0, 512.0]",horizontal,"(390.0, 262.0)",[1.2333333333333334],[0.801],0,1134.191
5,False,264,1.234,74,[],[],"[(1189, 885)]",[],[1],[101],[1.6833333333333333],"[640.0, 512.0]",horizontal,"(890.0, 262.0)",[0.9166666666666666],[0.428],1,1138.336
5,False,265,0.788,47,[],[],"[(1177, 888)]",[],[1],[83],[1.3833333333333333],"[640.0, 512.0]",horizontal,"(390.0, 762.0)",[1.2666666666666666],[0.577],1,1142.437
5,False,266,0.87,52,[],[],"[(1184, 902)]",[],[1],[102],[1.7],"[640.0, 512.0]",vertical,"(890.0, 762.0)",[0.7],[0.801],0,1146.677
5,False,267,1.296,77,[],[],"[(1246, 882), (1195, 886)]",[],"[0, 1]",[],[],"[640.0, 512.0]",vertical,"(890.0, 262.0)",[],[0],0,1150.555
5,False,268,0.871,52,[],[],"[(1222, 884)]",[],[1],[82],[1.3666666666666667],"[640.0, 512.0]",vertical,"(890.0, 262.0)",[0.8],[0.474],1,1155.437
5,False,269,0.796,47,[],[],"[(1154, 917)]",[],[1],[],[],"[640.0, 512.0]",horizontal,"(890.0, 762.0)",[],[0],0,1159.109
5,False,270,1.252,75,[],[],"[(1183, 892)]",[],[1],[],[],"[640.0, 512.0]",vertical,"(390.0, 762.0)",[],[0],0,1162.038
5,False,271,1.265,75,[],[],"[(1190, 896)]",[],[1],[],[],"[640.0, 512.0]",horizontal,"(890.0, 762.0)",[],[0],0,1165.392
5,False,272,1.0,60,[],[],"[(1189, 898)]",[],[1],[92],[1.5333333333333332],"[640.0, 512.0]",vertical,"(390.0, 762.0)",[1.05],[0.513],1,1168.917
5,False,273,1.374,82,[],[],"[(1184, 897)]",[],[1],[],[],"[640.0, 512.0]",vertical,"(890.0, 262.0)",[],[0],0,1173.086
5,False,274,1.197,71,[],[],"[(1209, 885)]",[],[1],[109],[1.8166666666666667],"[640.0, 512.0]",horizontal,"(390.0, 762.0)",[1.4333333333333333],[0.606],1,1176.662
5,False,275,1.093,65,[],[],"[(1153, 905)]",[],[1],[99],[1.65],"[640.0, 512.0]",horizontal,"(890.0, 262.0)",[0.5666666666666667],[0.546],1,1181.394
5,False,276,0.309,18,[],[],"[(1183, 900)]",[],[1],[56],[0.9333333333333333],"[640.0, 512.0]",horizontal,"(890.0, 262.0)",[1.25],[0.606],1,1185.27
5,False,277,1.465,87,[],[],"[(1159, 889)]",[],[1],[],[],"[640.0, 512.0]",vertical,"(890.0, 262.0)",[],[0],0,1188.952
5,False,278,0.669,40,[],[],"[(1166, 881)]",[],[1],[45],[0.75],"[640.0, 512.0]",horizontal,"(390.0, 762.0)",[1.5],[0.067],1,1192.692
5,False,279,0.691,41,[],[],"[(1154, 886)]",[],[1],[83],[1.3833333333333333],"[640.0, 512.0]",horizontal,"(390.0, 762.0)",[0.8166666666666667],[0.673],1,1196.946
5,False,280,0.673,40,[],[],"[(1183, 885)]",[],[1],[77],[1.2833333333333332],"[640.0, 512.0]",vertical,"(390.0, 762.0)",[0.5166666666666666],[0.588],1,1200.693
5,False,281,0.946,56,[],[],"[(1189, 900)]",[],[1],[],[],"[640.0, 512.0]",vertical,"(890.0, 762.0)",[],[0],0,1204.021
5,False,282,0.681,40,[],[],"[(1201, 898)]",[],[1],[76],[1.2666666666666666],"[640.0, 512.0]",vertical,"(890.0, 762.0)",[0.7666666666666666],[0.575],1,1207.045
5,False,283,0.599,35,[],[],"[(1183, 897)]",[],[1],[71],[1.1833333333333333],"[640.0, 512.0]",horizontal,"(890.0, 762.0)",[0.9333333333333333],[0.573],1,1210.57
5,False,284,0.378,22,[],[],"[(1153, 910)]",[],[1],[54],[0.9],"[640.0, 512.0]",vertical,"(890.0, 762.0)",[0.6833333333333333],[0.512],1,1214.193
5,False,285,1.481,88,[],[],"[(1189, 897)]",[],[1],[115],[1.9166666666666667],"[640.0, 512.0]",horizontal,"(890.0, 262.0)",[0.9],[0.425],1,1217.448
5,False,286,0.439,26,[],[],"[(1159, 893)]",[],[1],[54],[0.9],"[640.0, 512.0]",vertical,"(890.0, 262.0)",[1.3166666666666667],[0.439],1,1221.735
5,False,287,1.237,74,[],[],"[(1202, 894)]",[],[1],[109],[1.8166666666666667],"[640.0, 512.0]",horizontal,"(390.0, 762.0)",[1.0666666666666667],[0.556],1,1225.471
5,False,288,1.267,76,[],[],"[(1180, 909)]",[],[1],[104],[1.7333333333333334],"[640.0, 512.0]",horizontal,"(890.0, 262.0)",[1.2333333333333334],[0.441],1,1229.819
5,False,289,1.387,83,[],[],"[(1189, 895)]",[],[1],[113],[1.8833333333333333],"[640.0, 512.0]",vertical,"(890.0, 262.0)",[0.6],[0.48],1,1234.249
5,False,290,0.415,24,[],[],"[(1158, 894)]",[],[1],[65],[1.0833333333333333],"[640.0, 512.0]",vertical,"(390.0, 262.0)",[1.6666666666666667],[0.658],1,1238.265
5,False,291,1.381,82,[],[],"[(1196, 896)]",[],[1],[132],[2.2],"[640.0, 512.0]",horizontal,"(390.0, 762.0)",[1.6666666666666667],"[0, 0.803]",0,1242.536
5,False,292,1.413,84,[],[],"[(1202, 885)]",[],[1],[113],[1.8833333333333333],"[640.0, 512.0]",horizontal,"(390.0, 262.0)",[0.6],[0.462],1,1247.835
5,False,293,1.368,82,[],[],"[(1183, 893)]",[],[1],[],[],"[640.0, 512.0]",vertical,"(390.0, 762.0)",[],[0],0,1251.81
5,False,294,0.863,51,[],[],"[(1199, 893)]",[],[1],[],[],"[640.0, 512.0]",vertical,"(390.0, 762.0)",[],[0],0,1255.295
5,False,295,1.216,72,[],[],"[(1162, 901)]",[],[1],[113],[1.8833333333333333],"[640.0, 512.0]",horizontal,"(890.0, 762.0)",[0.7833333333333333],[0.658],1,1258.369
5,False,296,0.494,29,[],[],"[(1166, 886)]",[],[1],[69],[1.15],"[640.0, 512.0]",vertical,"(390.0, 262.0)",[1.0666666666666667],[0.639],1,1262.561
5,False,297,1.14,68,[],[],"[(1153, 907)]",[],[1],[111],[1.8499999999999999],"[640.0, 512.0]",horizontal,"(890.0, 762.0)",[1.3],[0.687],1,1266.261
5,False,298,0.664,39,[],[],"[(1166, 900)]",[],[1],[81],[1.35],"[640.0, 512.0]",vertical,"(390.0, 762.0)",[1.3666666666666667],[0.67],1,1270.906
5,False,299,0.524,31,[],[],"[(1173, 903)]",[],[1],[66],[1.1],"[640.0, 512.0]",vertical,"(890.0, 762.0)",[0.7],[0.558],1,1275.096
5,False,300,0.353,21,[],[],"[(1146, 913)]",[],[1],[58],[0.9666666666666667],"[640.0, 512.0]",vertical,"(890.0, 762.0)",[1.6333333333333333],[0.591],1,1278.42
6,False,301,0.997,59,[],[],"[(1171, 903)]",[],[1],[92],[1.5333333333333332],"[640.0, 512.0]",horizontal,"(890.0, 262.0)",[0.7333333333333333],[0.526],1,1282.541
6,False,302,0.409,24,[],[],"[(1202, 885)]",[],[1],[57],[0.95],"[640.0, 512.0]",horizontal,"(890.0, 762.0)",[1.0],[0.524],1,1286.301
6,False,303,0.611,36,[],[],"[(1188, 896)]",[],[1],[67],[1.1166666666666667],"[640.0, 512.0]",horizontal,"(390.0, 262.0)",[1.1833333333333333],[0.493],1,1289.689
6,False,304,1.482,88,[],[],"[(1209, 889)]",[],[1],[119],[1.9833333333333334],"[640.0, 512.0]",vertical,"(390.0, 762.0)",[1.3833333333333333],[0.494],1,1293.501
6,False,305,1.317,79,[],[],"[(1163, 891)]",[],[1],[],[],"[640.0, 512.0]",horizontal,"(390.0, 762.0)",[],[0],0,1298.321
6,False,306,0.533,31,[],[],"[(1183, 885)]",[],[1],[62],[1.0333333333333332],"[640.0, 512.0]",vertical,"(890.0, 262.0)",[0.7666666666666666],[0.491],1,1301.808
6,False,307,0.322,19,[],[],"[(1159, 894)]",[],[1],[48],[0.8],"[640.0, 512.0]",horizontal,"(390.0, 762.0)",[1.6],[0.464],1,1305.137
6,False,308,0.605,36,[],[],"[(1153, 889)]",[],[1],[79],[1.3166666666666667],"[640.0, 512.0]",vertical,"(390.0, 762.0)",[1.0666666666666667],[0.687],1,1309.141
6,False,309,1.2,72,[],[],"[(1189, 896)]",[],[1],[114],[1.9],"[640.0, 512.0]",horizontal,"(390.0, 762.0)",[0.5666666666666667],[0.667],1,1313.113
6,False,310,1.475,88,[],[],"[(1183, 896)]",[],[1],[],[],"[640.0, 512.0]",vertical,"(890.0, 762.0)",[],[0],0,1317.089
6,False,311,0.873,52,[],[],"[(1190, 888)]",[],[1],[83],[1.3833333333333333],"[640.0, 512.0]",horizontal,"(890.0, 762.0)",[0.7166666666666667],[0.493],1,1320.643
6,False,312,1.334,80,[],[],"[(1146, 910)]",[],[1],[],[],"[640.0, 512.0]",horizontal,"(890.0, 262.0)",[],[0],0,1324.388
6,False,313,1.327,79,[],[],"[(1201, 894)]",[],[1],[113],[1.8833333333333333],"[640.0, 512.0]",vertical,"(390.0, 762.0)",[0.6],[0.537],1,1328.607
6,False,314,0.34,20,[],[],"[(1154, 908)]",[],[1],[59],[0.9833333333333333],"[640.0, 512.0]",horizontal,"(390.0, 762.0)",[0.9166666666666666],[0.619],1,1332.574
6,False,315,0.315,18,[],[],"[(1144, 904)]",[],[1],[55],[0.9166666666666666],"[640.0, 512.0]",vertical,"(390.0, 762.0)",[1.0666666666666667],[0.595],1,1336.044
6,False,316,0.451,27,[],[],"[(1183, 894)]",[],[1],[64],[1.0666666666666667],"[640.0, 512.0]",horizontal,"(890.0, 262.0)",[0.7166666666666667],[0.59],1,1339.665
6,False,317,0.992,59,[],[],"[(1189, 906)]",[],[1],[103],[1.7166666666666666],"[640.0, 512.0]",horizontal,"(390.0, 762.0)",[1.65],[0.7],1,1342.993
6,False,318,1.173,70,[],[],"[(1153, 893)]",[],[1],[103],[1.7166666666666666],"[640.0, 512.0]",vertical,"(890.0, 262.0)",[0.7833333333333333],[0.523],1,1347.842
6,False,319,1.312,78,[],[],"[(1177, 891)]",[],[1],[121],[2.0166666666666666],"[640.0, 512.0]",vertical,"(390.0, 762.0)",[0.6166666666666667],[0.686],1,1352.022
6,False,320,0.925,55,[],[],"[(1158, 903)]",[],[1],[92],[1.5333333333333332],"[640.0, 512.0]",horizontal,"(390.0, 762.0)",[0.5166666666666666],[0.591],1,1356.146
6,False,321,0.843,50,[],[],"[(1150, 885)]",[],[1],[93],[1.55],"[640.0, 512.0]",horizontal,"(890.0, 762.0)",[0.7666666666666666],[0.685],1,1359.776
6,False,322,1.03,61,[],[],"[(1189, 897)]",[],[1],[89],[1.4833333333333334],"[640.0, 512.0]",horizontal,"(890.0, 262.0)",[1.15],[0.443],1,1363.624
6,False,323,0.673,40,[],[],"[(1153, 894)]",[],[1],[75],[1.25],"[640.0, 512.0]",vertical,"(890.0, 762.0)",[1.0666666666666667],[0.552],1,1367.84
6,False,324,0.58,34,[],[],"[(1162, 899)]",[],[1],[71],[1.1833333333333333],"[640.0, 512.0]",vertical,"(390.0, 262.0)",[1.0333333333333332],[0.592],1,1371.826
6,False,325,0.465,27,[],[],"[(1165, 894)]",[],[1],[60],[1.0],"[640.0, 512.0]",vertical,"(890.0, 262.0)",[1.0333333333333332],[0.524],1,1375.514
6,False,326,0.922,55,[],[],"[(1189, 894)]",[],[1],[88],[1.4666666666666666],"[640.0, 512.0]",vertical,"(890.0, 762.0)",[0.7],[0.526],1,1379.08
6,False,327,1.203,72,[],[],"[(1153, 902)]",[],[1],[105],[1.75],"[640.0, 512.0]",vertical,"(890.0, 262.0)",[0.6166666666666667],[0.523],1,1382.745
6,False,328,0.318,19,[],[],"[(1179, 885)]",[],[1],[54],[0.9],"[640.0, 512.0]",horizontal,"(890.0, 762.0)",[1.1333333333333333],[0.55],1,1386.685
6,False,329,0.372,22,[],[],"[(1192, 894)]",[],[1],[64],[1.0666666666666667],"[640.0, 512.0]",vertical,"(390.0, 262.0)",[1.1166666666666667],[0.673],1,1390.261
6,False,330,1.415,84,[],[],"[(1191, 894)]",[],[1],[127],[2.1166666666666667],"[640.0, 512.0]",vertical,"(890.0, 762.0)",[1.5666666666666667],[0.688],1,1393.948
6,False,331,1.381,82,[],[],"[(1165, 894)]",[],[1],[91],[1.5166666666666666],"[640.0, 512.0]",horizontal,"(390.0, 262.0)",[1.35],[0.133],1,1399.138
6,False,332,1.135,68,[],[],"[(1200, 889)]",[],[1],[111],[1.8499999999999999],"[640.0, 512.0]",horizontal,"(890.0, 762.0)",[1.05],[0.679],1,1404.023
6,False,333,0.974,58,[],[],"[(1146, 897)]",[],[1],[96],[1.6],"[640.0, 512.0]",horizontal,"(890.0, 762.0)",[1.25],[0.608],1,1408.391
6,False,334,0.997,59,[],[],"[(1181, 889)]",[],[1],[92],[1.5333333333333332],"[640.0, 512.0]",vertical,"(890.0, 262.0)",[0.8666666666666667],[0.524],1,1412.737
6,False,335,1.3,78,[],[],"[(1191, 897)]",[],[1],[121],[2.0166666666666666],"[640.0, 512.0]",horizontal,"(390.0, 762.0)",[0.5],[0.685],1,1416.645
6,False,336,0.844,50,[],[],"[(1178, 899)]",[],[1],[100],[1.6666666666666667],"[640.0, 512.0]",horizontal,"(390.0, 262.0)",[0.6666666666666666],[0.802],0,1420.688
6,False,337,0.331,19,[],[],"[(1201, 889)]",[],[1],[62],[1.0333333333333332],"[640.0, 512.0]",horizontal,"(390.0, 762.0)",[0.7333333333333333],[0.689],1,1424.524
6,False,338,0.308,18,[],[],"[(1177, 897)]",[],[1],[47],[0.7833333333333333],"[640.0, 512.0]",vertical,"(890.0, 262.0)",[1.3666666666666667],[0.467],1,1427.873
6,False,339,1.459,87,[],[],"[(1206, 885)]",[],[1],[90],[1.5],"[640.0, 512.0]",vertical,"(890.0, 762.0)",[1.4],[0.036],1,1431.585
6,False,340,1.473,88,[],[],"[(1192, 901)]",[],[1],[],[],"[640.0, 512.0]",horizontal,"(890.0, 762.0)",[],[0],0,1435.99
6,False,341,1.149,68,[],[],"[(1168, 898)]",[],[1],[77],[1.2833333333333332],"[640.0, 512.0]",vertical,"(390.0, 262.0)",[0.7166666666666667],[0.137],1,1439.489
6,False,342,0.769,46,[],[],"[(1150, 904)]",[],[1],[81],[1.35],"[640.0, 512.0]",vertical,"(890.0, 262.0)",[1.3],[0.56],1,1443.175
6,False,343,1.391,83,[],[],"[(1157, 905)]",[],[1],[],[],"[640.0, 512.0]",horizontal,"(890.0, 262.0)",[],[0],0,1447.34
6,False,344,1.39,83,[],[],"[(1128, 918)]",[],[1],[],[],"[640.0, 512.0]",horizontal,"(390.0, 262.0)",[],[0],0,1450.931
6,False,345,1.39,83,[],[],"[(1202, 889)]",[],[1],[],[],"[640.0, 512.0]",vertical,"(390.0, 762.0)",[],[0],0,1454.645
6,False,346,1.047,62,[],[],"[(1227, 896)]",[],[1],[],[],"[640.0, 512.0]",horizontal,"(890.0, 762.0)",[],[0],0,1458.122
6,False,347,0.36,21,[],[],"[(1190, 889)]",[],[1],[51],[0.85],"[640.0, 512.0]",horizontal,"(890.0, 762.0)",[1.2166666666666666],[0.476],1,1461.181
6,False,348,1.367,82,[],[],"[(1147, 899)]",[],[1],[],[],"[640.0, 512.0]",vertical,"(890.0, 262.0)",[],[0],0,1464.994
6,False,349,0.666,39,[],[],"[(1150, 894)]",[],[1],[79],[1.3166666666666667],"[640.0, 512.0]",horizontal,"(890.0, 262.0)",[1.3],[0.639],1,1468.668
6,False,350,1.343,80,[],[],"[(1176, 889)]",[],[1],[115],[1.9166666666666667],"[640.0, 512.0]",vertical,"(890.0, 262.0)",[1.3],[0.553],1,1473.411
6,False,351,1.287,77,[],[],"[(1195, 900)]",[],[1],[98],[1.6333333333333333],"[640.0, 512.0]",vertical,"(890.0, 262.0)",[1.05],[0.326],1,1478.135
6,False,352,1.235,74,[],[],"[(1177, 897)]",[],[1],[106],[1.7666666666666666],"[640.0, 512.0]",horizontal,"(390.0, 262.0)",[0.7333333333333333],[0.501],1,1482.314
6,False,353,1.002,60,[],[],"[(1202, 895)]",[],[1],[86],[1.4333333333333333],"[640.0, 512.0]",vertical,"(890.0, 262.0)",[1.1166666666666667],[0.419],1,1486.266
6,False,354,0.504,30,[],[],"[(1202, 908)]",[],[1],[61],[1.0166666666666666],"[640.0, 512.0]",vertical,"(890.0, 262.0)",[1.6166666666666667],[0.489],1,1490.327
6,False,355,0.859,51,[],[],"[(1209, 903)]",[],[1],[87],[1.45],"[640.0, 512.0]",vertical,"(890.0, 762.0)",[0.6833333333333333],[0.578],1,1494.435
6,False,356,1.107,66,[],[],"[(1189, 893)]",[],[1],[100],[1.6666666666666667],"[640.0, 512.0]",vertical,"(390.0, 262.0)",[1.4166666666666667],[0.539],1,1498.033
6,False,357,1.388,83,[],[],"[(1203, 889)]",[],[1],[129],[2.15],"[640.0, 512.0]",vertical,"(390.0, 762.0)",[1.15],[0.739],1,1502.592
6,False,358,1.461,87,[],[],"[(1193, 902)]",[],[1],[],[],"[640.0, 512.0]",horizontal,"(390.0, 762.0)",[],[0],0,1507.357
6,False,359,0.326,19,[],[],"[(1197, 885)]",[],[1],[47],[0.7833333333333333],"[640.0, 512.0]",vertical,"(890.0, 262.0)",[1.6166666666666667],[0.449],1,1511.808
6,False,360,0.714,42,[],[],"[(1189, 887)]",[],[1],[73],[1.2166666666666666],"[640.0, 512.0]",horizontal,"(390.0, 262.0)",[1.45],[0.492],1,1515.801
7,False,361,0.43,25,[],[],"[(1205, 891)]",[],[1],[70],[1.1666666666666667],"[640.0, 512.0]",vertical,"(390.0, 262.0)",[0.95],[0.716],1,1520.002
7,False,362,0.75,45,[],[],"[(1202, 881)]",[],[1],[77],[1.2833333333333332],"[640.0, 512.0]",vertical,"(890.0, 762.0)",[1.5833333333333333],[0.503],1,1523.608
7,False,363,0.531,31,[],[],"[(1202, 894)]",[],[1],[61],[1.0166666666666666],"[640.0, 512.0]",horizontal,"(390.0, 262.0)",[1.1666666666666667],[0.475],1,1528.036
7,False,364,1.399,83,[],[],"[(1202, 893)]",[],[1],[109],[1.8166666666666667],"[640.0, 512.0]",vertical,"(890.0, 262.0)",[0.9833333333333333],[0.41],1,1531.709
7,False,365,0.74,44,[],[],"[(1199, 904)]",[],[1],[69],[1.15],"[640.0, 512.0]",vertical,"(890.0, 262.0)",[1.6333333333333333],[0.396],1,1536.019
7,False,366,0.972,58,[],[],"[(1189, 914)]",[],[1],[91],[1.5166666666666666],"[640.0, 512.0]",vertical,"(890.0, 262.0)",[1.1166666666666667],[0.521],1,1540.318
7,False,367,0.544,32,[],[],"[(1198, 881)]",[],[1],[70],[1.1666666666666667],"[640.0, 512.0]",horizontal,"(390.0, 762.0)",[1.15],[0.605],1,1544.459
7,False,368,0.873,52,[],[],"[(1196, 899)]",[],[1],[56],[0.9333333333333333],"[640.0, 512.0]",horizontal,"(390.0, 262.0)",[1.6333333333333333],[0.052],1,1548.293
7,False,369,0.54,32,[],[],"[(1191, 887)]",[],[1],[70],[1.1666666666666667],"[640.0, 512.0]",horizontal,"(390.0, 762.0)",[1.2],[0.609],1,1552.329
7,False,370,0.927,55,[],[],"[(1183, 898)]",[],[1],[88],[1.4666666666666666],"[640.0, 512.0]",vertical,"(890.0, 262.0)",[0.5666666666666667],[0.525],1,1556.316
7,False,371,1.02,61,[],[],"[(1154, 898)]",[],[1],[87],[1.45],"[640.0, 512.0]",vertical,"(890.0, 762.0)",[0.85],[0.412],1,1559.858
7,False,372,1.238,74,[],[],"[(1189, 899)]",[],[1],[105],[1.75],"[640.0, 512.0]",horizontal,"(890.0, 762.0)",[0.9166666666666666],[0.496],1,1563.709
7,False,373,0.431,25,[],[],"[(1197, 901)]",[],[1],[61],[1.0166666666666666],"[640.0, 512.0]",horizontal,"(390.0, 762.0)",[1.3333333333333333],[0.576],1,1567.941
7,False,374,0.571,34,[],[],"[(1201, 900)]",[],[1],[79],[1.3166666666666667],"[640.0, 512.0]",vertical,"(890.0, 262.0)",[1.25],[0.721],1,1571.79
7,False,375,0.321,19,[],[],"[(1194, 886)]",[],[1],[55],[0.9166666666666666],"[640.0, 512.0]",horizontal,"(390.0, 262.0)",[0.5833333333333334],[0.574],1,1575.844
7,False,376,1.349,80,[],[],"[(1208, 900)]",[],[1],[113],[1.8833333333333333],"[640.0, 512.0]",vertical,"(390.0, 262.0)",[1.3],[0.524],1,1578.983
7,False,377,1.188,71,[],[],"[(1202, 885)]",[],[1],[102],[1.7],"[640.0, 512.0]",horizontal,"(890.0, 262.0)",[1.3333333333333333],[0.488],1,1583.666
7,False,378,1.024,61,[],[],"[(1185, 889)]",[],[1],[],[],"[640.0, 512.0]",horizontal,"(390.0, 262.0)",[],[0],0,1588.152
7,False,379,0.3,18,[],[],"[(1194, 885)]",[],[1],[49],[0.8166666666666667],"[640.0, 512.0]",vertical,"(390.0, 262.0)",[0.75],[0.49],1,1592.326
7,False,380,1.191,71,[],[],"[(1183, 896)]",[],[1],[121],[2.0166666666666666],"[640.0, 512.0]",horizontal,"(390.0, 262.0)",[0.5333333333333333],[0.808],0,1595.665
7,False,381,1.116,66,[],[],"[(1183, 893)]",[],[1],[],[],"[640.0, 512.0]",horizontal,"(890.0, 762.0)",[],[0],0,1599.76
7,False,382,0.399,23,[],[],"[(1162, 893)]",[],[1],[53],[0.8833333333333333],"[640.0, 512.0]",vertical,"(890.0, 262.0)",[1.1166666666666667],[0.48],1,1603.225
7,False,383,1.498,89,[],[],"[(1183, 903)]",[],[1],[],[],"[640.0, 512.0]",vertical,"(390.0, 262.0)",[],[0],0,1606.899
7,False,384,1.437,86,[],[],"[(1188, 884)]",[],[1],[136],[2.2666666666666666],"[640.0, 512.0]",horizontal,"(890.0, 262.0)",[0.5833333333333334],"[0, 0.807]",0,1610.725
7,False,385,0.833,49,[],[],"[(1201, 900)]",[],[1],[79],[1.3166666666666667],"[640.0, 512.0]",vertical,"(890.0, 262.0)",[1.3],[0.475],1,1615.173
7,False,386,1.26,75,[],[],"[(1183, 885)]",[],[1],[],[],"[640.0, 512.0]",horizontal,"(890.0, 762.0)",[],[0],0,1619.577
7,False,387,1.02,61,[],[],"[(1196, 862)]",[],[1],[93],[1.55],"[640.0, 512.0]",vertical,"(890.0, 262.0)",[0.9833333333333333],[0.504],1,1623.145
7,False,388,1.08,64,[],[],"[(1222, 879)]",[],[1],[70],[1.1666666666666667],"[640.0, 512.0]",vertical,"(890.0, 262.0)",[0.6],[0.083],1,1627.185
7,False,389,1.359,81,[],[],"[(1183, 889)]",[],[1],[95],[1.5833333333333333],"[640.0, 512.0]",horizontal,"(390.0, 262.0)",[1.3666666666666667],[0.214],1,1630.468
7,False,390,0.331,19,[],[],"[(1160, 901)]",[],[1],[49],[0.8166666666666667],"[640.0, 512.0]",horizontal,"(890.0, 762.0)",[0.6833333333333333],[0.473],1,1635.123
7,False,391,0.488,29,[],[],"[(1148, 889)]",[],[1],[45],[0.75],"[640.0, 512.0]",vertical,"(390.0, 262.0)",[1.45],[0.25],1,1638.207
7,False,392,0.835,50,[],[],"[(1183, 870)]",[],[1],[76],[1.2666666666666666],"[640.0, 512.0]",vertical,"(390.0, 262.0)",[1.2666666666666666],[0.409],1,1641.927
7,False,393,0.673,40,[],[],"[(1134, 880)]",[],[1],[69],[1.15],"[640.0, 512.0]",vertical,"(890.0, 262.0)",[1.0833333333333333],[0.458],1,1646.143
7,False,394,1.084,65,[],[],"[(1161, 884)]",[],[1],[95],[1.5833333333333333],"[640.0, 512.0]",horizontal,"(890.0, 262.0)",[0.8],[0.473],1,1649.951
7,False,395,0.407,24,[],[],"[(1153, 879)]",[],[1],[60],[1.0],"[640.0, 512.0]",horizontal,"(390.0, 762.0)",[0.7666666666666666],[0.573],1,1653.921
7,False,396,0.557,33,[],[],"[(1207, 872)]",[],[1],[39],[0.65],"[640.0, 512.0]",vertical,"(890.0, 762.0)",[1.3166666666666667],[0.086],1,1657.206
7,False,397,0.782,46,[],[],"[(1177, 893)]",[],[1],[81],[1.35],"[640.0, 512.0]",horizontal,"(890.0, 262.0)",[1.2],[0.568],1,1660.908
7,False,398,1.238,74,[],[],"[(1167, 896)]",[],[1],[],[],"[640.0, 512.0]",vertical,"(890.0, 262.0)",[],[0],0,1664.979
7,False,399,0.876,52,[],[],"[(1163, 893)]",[],[1],[],[],"[640.0, 512.0]",vertical,"(890.0, 762.0)",[],[0],0,1668.333
7,False,400,0.665,39,[],[],"[(1203, 887)]",[],[1],[83],[1.3833333333333333],"[640.0, 512.0]",vertical,"(390.0, 762.0)",[0.8666666666666667],[0.701],1,1672.094
7,False,401,1.38,82,[],[],"[(1140, 898)]",[],[1],[123],[2.05],"[640.0, 512.0]",vertical,"(890.0, 262.0)",[1.55],[0.654],1,1675.839
7,False,402,0.707,42,[],[],"[(1167, 856)]",[],[1],[81],[1.35],"[640.0, 512.0]",vertical,"(890.0, 262.0)",[0.7333333333333333],[0.623],1,1680.959
7,False,403,1.176,70,[],[],"[(1171, 898)]",[],[1],[112],[1.8666666666666667],"[640.0, 512.0]",vertical,"(890.0, 762.0)",[0.8833333333333333],[0.676],1,1684.677
7,False,404,1.474,88,[],[],"[(1163, 889)]",[],[1],[130],[2.1666666666666665],"[640.0, 512.0]",vertical,"(890.0, 762.0)",[1.6],[0.669],1,1688.964
7,False,405,1.166,69,[],[],"[(1153, 898)]",[],[1],[119],[1.9833333333333334],"[640.0, 512.0]",horizontal,"(890.0, 262.0)",[1.3166666666666667],[0.816],0,1694.21
7,False,406,1.262,75,[],[],"[(1196, 885)]",[],[1],[],[],"[640.0, 512.0]",horizontal,"(390.0, 762.0)",[],[0],0,1699.078
7,False,407,0.523,31,[],[],"[(1173, 907)]",[],[1],[75],[1.25],"[640.0, 512.0]",vertical,"(890.0, 262.0)",[0.5166666666666666],[0.709],1,1702.658
7,False,408,0.782,46,[],[],"[(1156, 896)]",[],[1],[81],[1.35],"[640.0, 512.0]",horizontal,"(390.0, 762.0)",[1.6833333333333333],[0.562],1,1706.372
7,False,409,1.078,64,[],[],"[(1180, 891)]",[],[1],[99],[1.65],"[640.0, 512.0]",horizontal,"(390.0, 762.0)",[0.8166666666666667],[0.558],1,1710.959
7,False,410,1.29,77,[],[],"[(1170, 883)]",[],[1],[117],[1.95],"[640.0, 512.0]",horizontal,"(390.0, 262.0)",[1.6166666666666667],[0.642],1,1714.928
7,False,411,1.455,87,[],[],"[(1183, 885)]",[],[1],[119],[1.9833333333333334],"[640.0, 512.0]",vertical,"(890.0, 262.0)",[0.6333333333333333],[0.509],1,1719.975
7,False,412,0.614,36,[],[],"[(1171, 896)]",[],[1],[69],[1.15],"[640.0, 512.0]",horizontal,"(390.0, 762.0)",[1.3666666666666667],[0.523],1,1724.146
7,False,413,1.059,63,[],[],"[(1200, 889)]",[],[1],[101],[1.6833333333333333],"[640.0, 512.0]",vertical,"(390.0, 762.0)",[1.25],[0.604],1,1728.258
7,False,414,0.601,36,[],[],"[(1189, 900)]",[],[1],[72],[1.2],"[640.0, 512.0]",vertical,"(890.0, 762.0)",[0.65],[0.579],1,1732.665
7,False,415,1.285,77,[],[],"[(1186, 895)]",[],[1],[127],[2.1166666666666667],"[640.0, 512.0]",vertical,"(390.0, 262.0)",[1.0666666666666667],[0.808],0,1736.468
7,False,416,0.815,48,[],[],"[(381, 71), (791, 234), (1189, 899)]",[],"[0, 0, 1]",[98],[1.6333333333333333],"[640.0, 512.0]",vertical,"(890.0, 262.0)",[1.05],"[0, 0.805]",0,1741.121
7,False,417,1.03,61,[],[],"[(1204, 882)]",[],[1],[97],[1.6166666666666667],"[640.0, 512.0]",vertical,"(890.0, 762.0)",[0.95],[0.572],1,1755.879
7,False,418,1.22,73,[],[],"[(1201, 906)]",[],[1],[],[],"[640.0, 512.0]",vertical,"(390.0, 762.0)",[],[0],0,1759.987
7,False,419,0.407,24,[],[],"[(1202, 888)]",[],[1],[66],[1.1],"[640.0, 512.0]",horizontal,"(390.0, 762.0)",[0.8166666666666667],[0.673],1,1763.989
7,False,420,0.494,29,[],[1777530],"[(1176, 875)]","[(1176, 875)]",[1],[6],[0.1],"[640.0, 512.0]",vertical,"(390.0, 262.0)",[],[0],0,1767.422
8,False,421,1.481,88,[],[],"[(1198, 870)]",[],[1],[],[],"[640.0, 512.0]",vertical,"(390.0, 762.0)",[],[0],0,1770.561
8,False,422,0.9,54,[],[],"[(1217, 885)]",[],[1],[92],[1.5333333333333332],"[640.0, 512.0]",vertical,"(890.0, 762.0)",[0.95],[0.613],1,1774.067
8,False,423,0.505,30,[],[],"[(1179, 897)]",[],[1],[76],[1.2666666666666666],"[640.0, 512.0]",vertical,"(890.0, 762.0)",[0.6],[0.737],1,1778.045
8,False,424,0.548,32,[],[],"[(1148, 913)]",[],[1],[66],[1.1],"[640.0, 512.0]",vertical,"(390.0, 762.0)",[1.05],[0.542],1,1781.457
8,False,425,0.572,34,[],[],"[(1200, 885)]",[],[1],[70],[1.1666666666666667],"[640.0, 512.0]",vertical,"(390.0, 762.0)",[0.7],[0.575],1,1785.16
8,False,426,1.263,75,[],[],"[(1152, 893)]",[],[1],[125],[2.0833333333333335],"[640.0, 512.0]",vertical,"(890.0, 762.0)",[0.85],[0.806],0,1788.523
8,False,427,1.225,73,[],[],"[(1189, 898)]",[],[1],[],[],"[640.0, 512.0]",horizontal,"(390.0, 762.0)",[],[0],0,1793.0
8,False,428,0.471,28,[],[],"[(1171, 904)]",[],[1],[60],[1.0],"[640.0, 512.0]",vertical,"(890.0, 762.0)",[0.75],[0.508],1,1796.339
8,False,429,1.451,87,[],[],"[(191, 320), (1187, 898)]",[],"[0, 1]",[137],[2.283333333333333],"[640.0, 512.0]",horizontal,"(390.0, 262.0)",[1.4],[0.803],0,1799.796
8,False,430,1.383,82,[],[],"[(1231, 881), (1199, 899)]",[],"[0, 1]",[114],[1.9],"[640.0, 512.0]",horizontal,"(890.0, 762.0)",[0.85],[0.512],1,1806.691
8,False,431,0.569,34,[],[],"[(1177, 896)]",[],[1],[84],[1.4],"[640.0, 512.0]",horizontal,"(890.0, 262.0)",[1.35],[0.811],0,1811.71
8,False,432,0.625,37,[],[],"[(1184, 887)]",[],[1],[73],[1.2166666666666666],"[640.0, 512.0]",vertical,"(890.0, 762.0)",[1.65],[0.575],1,1816.003
8,False,433,0.872,52,[],[],"[(1174, 902)]",[],[1],[84],[1.4],"[640.0, 512.0]",horizontal,"(890.0, 762.0)",[1.0333333333333332],[0.509],1,1820.346
8,False,434,1.41,84,[],[],"[(1178, 900)]",[],[1],[],[],"[640.0, 512.0]",horizontal,"(390.0, 262.0)",[],[0],0,1824.294
8,False,435,1.2,72,[],[],"[(1172, 880)]",[],[1],[122],[2.033333333333333],"[640.0, 512.0]",vertical,"(890.0, 262.0)",[0.9666666666666667],[0.8],0,1828.173
8,False,436,1.378,82,[],[],"[(1165, 904)]",[],[1],[116],[1.9333333333333333],"[640.0, 512.0]",vertical,"(890.0, 262.0)",[1.55],[0.539],1,1833.203
8,False,437,0.956,57,[],[],"[(1154, 889)]",[],[1],[107],[1.7833333333333332],"[640.0, 512.0]",horizontal,"(890.0, 262.0)",[1.1833333333333333],[0.804],0,1838.477
8,False,438,1.066,63,[],[],"[(1156, 897)]",[],[1],[92],[1.5333333333333332],"[640.0, 512.0]",horizontal,"(890.0, 262.0)",[1.5666666666666667],[0.464],1,1843.066
8,False,439,0.636,38,[],[],"[(1175, 900)]",[],[1],[71],[1.1833333333333333],"[640.0, 512.0]",horizontal,"(890.0, 262.0)",[1.4833333333333334],[0.523],1,1847.928
8,False,440,1.286,77,[],[],"[(1193, 890)]",[],[1],[],[],"[640.0, 512.0]",vertical,"(890.0, 262.0)",[],[0],0,1852.178
8,False,441,0.578,34,[],[1865674],"[(1232, 876), (1196, 906)]","[(1190, 917)]","[0, 1]",[10],[0.16666666666666666],"[640.0, 512.0]",horizontal,"(890.0, 762.0)",[],[0],0,1856.095
8,False,442,1.435,86,[],[],"[(264, 443), (1202, 896)]",[],"[0, 1]",[136],[2.2666666666666666],"[640.0, 512.0]",vertical,"(390.0, 262.0)",[1.05],[0.804],0,1858.699
8,False,443,1.286,77,[],[],"[(1170, 918)]",[],[1],[114],[1.9],"[640.0, 512.0]",vertical,"(890.0, 762.0)",[1.2333333333333334],[0.594],1,1865.236
8,False,444,0.985,59,[],[],"[(1195, 905)]",[],[1],[92],[1.5333333333333332],"[640.0, 512.0]",vertical,"(390.0, 262.0)",[0.65],[0.521],1,1869.922
8,False,445,1.396,83,[],[],"[(1182, 882)]",[],[1],[114],[1.9],"[640.0, 512.0]",horizontal,"(390.0, 262.0)",[1.05],[0.493],1,1873.626
8,False,446,1.414,84,[],[],"[(1201, 901)]",[],[1],[],[],"[640.0, 512.0]",horizontal,"(890.0, 762.0)",[],[0],0,1878.17
8,False,447,1.433,85,[],[],"[(902, 483), (1202, 886)]",[],"[0, 1]",[121],[2.0166666666666666],"[640.0, 512.0]",vertical,"(890.0, 762.0)",[0.8],[0.577],1,1881.784
8,False,448,0.849,50,[],[],"[(670, 892), (1201, 896)]",[],"[0, 1]",[],[],"[640.0, 512.0]",vertical,"(890.0, 262.0)",[],[0],0,1886.59
8,False,449,1.122,67,[],[],"[(1223, 882)]",[],[1],[],[],"[640.0, 512.0]",vertical,"(890.0, 262.0)",[],[0],0,1890.862
8,False,450,0.472,28,[],[],"[(1256, 869), (1203, 889)]",[],"[0, 1]",[],[],"[640.0, 512.0]",vertical,"(390.0, 762.0)",[],[0],0,1893.765
8,False,451,0.547,32,[],[],"[(1200, 891)]",[],[1],[82],[1.3666666666666667],"[640.0, 512.0]",vertical,"(390.0, 762.0)",[0.9333333333333333],[0.801],0,1904.355
8,False,452,0.397,23,[],[],"[(1174, 880)]",[],[1],[73],[1.2166666666666666],"[640.0, 512.0]",vertical,"(890.0, 762.0)",[1.3],[0.807],0,1909.075
8,False,453,1.049,62,[],[],"[(1177, 924)]",[],[1],[77],[1.2833333333333332],"[640.0, 512.0]",horizontal,"(890.0, 762.0)",[0.9166666666666666],[0.233],1,1915.509
8,False,454,0.326,19,[],[],"[(1180, 899)]",[],[1],[69],[1.15],"[640.0, 512.0]",vertical,"(390.0, 262.0)",[0.7666666666666666],[0.804],0,1920.223
8,False,455,1.109,66,[],[],"[(1204, 894)]",[],[1],[115],[1.9166666666666667],"[640.0, 512.0]",horizontal,"(890.0, 762.0)",[1.3166666666666667],[0.792],1,1923.894
8,False,456,0.603,36,[],[],"[(1183, 900)]",[],[1],[78],[1.3],"[640.0, 512.0]",horizontal,"(390.0, 762.0)",[0.9166666666666666],[0.668],1,1928.673
8,False,457,0.726,43,[],[],"[(1160, 905)]",[],[1],[73],[1.2166666666666666],"[640.0, 512.0]",horizontal,"(390.0, 262.0)",[0.85],[0.475],1,1932.47
8,False,458,1.084,65,[],[],"[(1189, 894)]",[],[1],[],[],"[640.0, 512.0]",vertical,"(890.0, 262.0)",[],[0],0,1936.112
8,False,459,1.131,67,[],[],"[(1232, 885), (1232, 933), (1189, 892)]",[],"[0, 0, 1]",[97],[1.6166666666666667],"[640.0, 512.0]",horizontal,"(390.0, 762.0)",[1.5666666666666667],[0.474],1,1938.841
8,False,460,0.302,18,[],[],"[(1165, 880)]",[],[1],[],[],"[640.0, 512.0]",horizontal,"(390.0, 762.0)",[],[0],0,1949.861
8,False,461,1.015,60,[],[],"[(1196, 909)]",[],[1],[67],[1.1166666666666667],"[640.0, 512.0]",horizontal,"(390.0, 262.0)",[0.7833333333333333],[0.099],1,1954.126
8,False,462,0.912,54,[],[],"[(1196, 902)]",[],[1],[80],[1.3333333333333333],"[640.0, 512.0]",vertical,"(890.0, 762.0)",[1.5333333333333332],[0.412],1,1957.57
8,False,463,1.365,81,[],[],"[(1176, 907)]",[],[1],[131],[2.183333333333333],"[640.0, 512.0]",horizontal,"(390.0, 762.0)",[1.35],[0.803],0,1962.425
8,False,464,0.862,51,[],[],"[(1119, 912)]",[],[1],[79],[1.3166666666666667],"[640.0, 512.0]",vertical,"(890.0, 262.0)",[1.7],[0.444],1,1967.462
8,False,465,1.225,73,[],[],"[(1213, 894)]",[],[1],[105],[1.75],"[640.0, 512.0]",vertical,"(890.0, 262.0)",[1.1666666666666667],[0.517],1,1972.509
8,False,466,0.759,45,[],[],"[(1187, 910)]",[],[1],[77],[1.2833333333333332],"[640.0, 512.0]",vertical,"(390.0, 262.0)",[1.4],[0.508],1,1976.925
8,False,467,0.85,51,[],[],"[(1216, 892)]",[],[1],[82],[1.3666666666666667],"[640.0, 512.0]",vertical,"(390.0, 262.0)",[1.3833333333333333],[0.495],1,1981.108
8,False,468,0.511,30,[],[],"[(1165, 903)]",[],[1],[80],[1.3333333333333333],"[640.0, 512.0]",vertical,"(890.0, 762.0)",[0.5666666666666667],[0.803],0,1985.358
8,False,469,0.876,52,[],[],"[(1207, 901)]",[],[1],[102],[1.7],"[640.0, 512.0]",vertical,"(390.0, 762.0)",[1.4],[0.807],0,1988.794
8,False,470,0.632,37,[],[],"[(1201, 889)]",[],[1],[68],[1.1333333333333333],"[640.0, 512.0]",vertical,"(890.0, 762.0)",[1.5333333333333332],[0.493],1,1993.441
8,False,471,0.489,29,[],[],"[(1176, 901)]",[],[1],[60],[1.0],"[640.0, 512.0]",vertical,"(390.0, 262.0)",[0.9],[0.495],1,1997.624
8,False,472,0.782,46,[],[],"[(1198, 906)]",[],[1],[96],[1.6],"[640.0, 512.0]",vertical,"(890.0, 262.0)",[0.95],[0.807],0,2001.128
8,False,473,1.473,88,[],[2019515],"[(1091, 927)]","[(1098, 935)]",[1],[66],[1.1],"[640.0, 512.0]",vertical,"(390.0, 762.0)",[],[0],0,2005.184
8,False,474,1.279,76,[],[],"[(1220, 894)]",[],[1],[],[],"[640.0, 512.0]",vertical,"(390.0, 262.0)",[],[0],0,2012.529
8,False,475,1.263,75,[],[],"[(1177, 907)]",[],[1],[],[],"[640.0, 512.0]",vertical,"(890.0, 762.0)",[],[0],0,2015.996
8,False,476,0.367,22,[],[],"[(1168, 879)]",[],[1],[54],[0.9],"[640.0, 512.0]",horizontal,"(390.0, 262.0)",[1.45],[0.51],1,2020.979
8,False,477,1.344,80,[],[],"[(1183, 918)]",[],[1],[130],[2.1666666666666665],"[640.0, 512.0]",vertical,"(390.0, 762.0)",[1.3166666666666667],[0.814],0,2025.379
8,False,478,0.889,53,[],[],"[(1189, 885)]",[],[1],[84],[1.4],"[640.0, 512.0]",vertical,"(890.0, 262.0)",[1.55],[0.493],1,2030.368
8,False,479,1.155,69,[],[],"[(1159, 885)]",[],[1],[105],[1.75],"[640.0, 512.0]",vertical,"(390.0, 762.0)",[0.6333333333333333],[0.576],1,2037.243
8,False,480,0.659,39,[],[],"[(1191, 885)]",[],[1],[70],[1.1666666666666667],"[640.0, 512.0]",horizontal,"(890.0, 262.0)",[1.4166666666666667],[0.496],1,2041.159
9,False,481,0.468,28,[],[],"[(1171, 899)]",[],[1],[77],[1.2833333333333332],"[640.0, 512.0]",vertical,"(390.0, 262.0)",[0.7833333333333333],[0.785],1,2045.294
9,False,482,1.046,62,[],[],"[(1178, 900)]",[],[1],[97],[1.6166666666666667],"[640.0, 512.0]",horizontal,"(890.0, 762.0)",[1.45],[0.556],1,2048.889
9,False,483,1.476,88,[],[],"[(1188, 897)]",[],[1],[],[],"[640.0, 512.0]",horizontal,"(890.0, 762.0)",[],[0],0,2053.521
9,False,484,0.775,46,[],[],"[(1203, 898)]",[],[1],[96],[1.6],"[640.0, 512.0]",horizontal,"(390.0, 262.0)",[1.45],[0.797],0,2057.27
9,False,485,0.687,41,[],[],"[(1153, 897)]",[],[1],[75],[1.25],"[640.0, 512.0]",vertical,"(890.0, 762.0)",[0.7833333333333333],[0.544],1,2061.993
9,False,486,0.813,48,[],[],"[(1161, 903)]",[],[1],[98],[1.6333333333333333],"[640.0, 512.0]",horizontal,"(890.0, 262.0)",[0.5333333333333333],[0.804],0,2068.427
9,False,487,0.796,47,[],[],"[(1207, 887)]",[],[1],[81],[1.35],"[640.0, 512.0]",vertical,"(390.0, 762.0)",[0.5666666666666667],[0.551],1,2072.175
9,False,488,1.224,73,[],[],"[(1183, 901)]",[],[1],[113],[1.8833333333333333],"[640.0, 512.0]",horizontal,"(390.0, 262.0)",[1.0333333333333332],[0.648],1,2075.629
9,False,489,0.766,45,[],[],"[(1190, 903)]",[],[1],[76],[1.2666666666666666],"[640.0, 512.0]",vertical,"(890.0, 262.0)",[1.1333333333333333],[0.489],1,2080.092
9,False,490,0.554,33,[],[],"[(1180, 891)]",[],[1],[68],[1.1333333333333333],"[640.0, 512.0]",horizontal,"(890.0, 262.0)",[0.6666666666666666],[0.558],1,2084.014
9,False,491,0.41,24,[],[],"[(1153, 909)]",[],[1],[54],[0.9],"[640.0, 512.0]",vertical,"(390.0, 262.0)",[0.9166666666666666],[0.487],1,2087.357
9,False,492,1.31,78,[],[],"[(1171, 898)]",[],[1],[112],[1.8666666666666667],"[640.0, 512.0]",horizontal,"(390.0, 762.0)",[1.35],[0.539],1,2090.796
9,False,493,1.004,60,[],[],"[(1183, 895)]",[],[1],[],[],"[640.0, 512.0]",horizontal,"(390.0, 762.0)",[],[0],0,2095.559
9,False,494,0.809,48,[],[],"[(1128, 896)]",[],[1],[88],[1.4666666666666666],"[640.0, 512.0]",vertical,"(890.0, 262.0)",[0.8333333333333334],[0.643],1,2098.732
9,False,495,1.019,61,[],[],"[(1159, 905)]",[],[1],[91],[1.5166666666666666],"[640.0, 512.0]",vertical,"(890.0, 262.0)",[1.1166666666666667],[0.48],1,2103.996
9,False,496,0.795,47,[],[],"[(1168, 855)]",[],[1],[77],[1.2833333333333332],"[640.0, 512.0]",vertical,"(890.0, 762.0)",[1.5833333333333333],[0.472],1,2108.314
9,False,497,1.343,80,[],[],"[(1153, 899)]",[],[1],[106],[1.7666666666666666],"[640.0, 512.0]",vertical,"(390.0, 262.0)",[1.1333333333333333],[0.415],1,2112.721
9,False,498,0.492,29,[],[],"[(1165, 903)]",[],[1],[53],[0.8833333333333333],"[640.0, 512.0]",vertical,"(390.0, 262.0)",[1.5166666666666666],[0.378],1,2117.172
9,False,499,1.155,69,[],[],"[(1149, 912)]",[],[1],[77],[1.2833333333333332],"[640.0, 512.0]",vertical,"(390.0, 762.0)",[1.6833333333333333],[0.119],1,2121.15
9,False,500,0.882,52,[],[],"[(1152, 909)]",[],[1],[65],[1.0833333333333333],"[640.0, 512.0]",horizontal,"(390.0, 762.0)",[1.5833333333333333],[0.197],1,2125.658
9,False,501,1.328,79,[],[],"[(1197, 890)]",[],[1],[109],[1.8166666666666667],"[640.0, 512.0]",horizontal,"(390.0, 262.0)",[0.6333333333333333],[0.476],1,2129.88
9,False,502,0.304,18,[],[],"[(1177, 886)]",[],[1],[68],[1.1333333333333333],"[640.0, 512.0]",vertical,"(890.0, 262.0)",[1.35],[0.81],0,2133.946
9,False,503,0.992,59,[],[],"[(1202, 890)]",[],[1],[96],[1.6],"[640.0, 512.0]",vertical,"(890.0, 762.0)",[0.5833333333333334],[0.59],1,2137.942
9,False,504,1.397,83,[],[],"[(1153, 909)]",[],[1],[104],[1.7333333333333334],"[640.0, 512.0]",vertical,"(390.0, 262.0)",[1.5833333333333333],[0.332],1,2141.606
9,False,505,1.412,84,[],[],"[(1177, 895)]",[],[1],[],[],"[640.0, 512.0]",horizontal,"(390.0, 762.0)",[],[0],0,2146.412
9,False,506,0.891,53,[],[],"[(1174, 904)]",[],[1],[103],[1.7166666666666666],"[640.0, 512.0]",horizontal,"(890.0, 762.0)",[1.1],[0.807],0,2150.04
9,False,507,1.364,81,[],[],"[(1209, 873)]",[],[1],[119],[1.9833333333333334],"[640.0, 512.0]",horizontal,"(890.0, 762.0)",[0.6666666666666666],[0.608],1,2154.508
9,False,508,1.237,74,[],[],"[(1183, 916)]",[],[1],[107],[1.7833333333333332],"[640.0, 512.0]",horizontal,"(890.0, 762.0)",[1.0666666666666667],[0.525],1,2158.633
9,False,509,1.126,67,[],[],"[(1191, 914)]",[],[1],[109],[1.8166666666666667],"[640.0, 512.0]",horizontal,"(890.0, 762.0)",[1.5833333333333333],[0.677],1,2163.143
9,False,510,0.502,30,[],[],"[(1181, 900)]",[],[1],[80],[1.3333333333333333],"[640.0, 512.0]",vertical,"(390.0, 762.0)",[1.2],[0.808],0,2168.039
9,False,511,0.694,41,[],[],"[(1203, 880)]",[],[1],[71],[1.1833333333333333],"[640.0, 512.0]",vertical,"(390.0, 262.0)",[1.3166666666666667],[0.484],1,2172.894
9,False,512,0.446,26,[],[],"[(1190, 908)]",[],[1],[58],[0.9666666666666667],"[640.0, 512.0]",horizontal,"(390.0, 262.0)",[0.8],[0.507],1,2176.912
9,False,513,0.641,38,[],[],"[(1198, 904)]",[],[1],[74],[1.2333333333333334],"[640.0, 512.0]",horizontal,"(890.0, 762.0)",[1.3166666666666667],[0.577],1,2180.257
9,False,514,0.734,44,[],[],"[(1149, 902)]",[],[1],[74],[1.2333333333333334],"[640.0, 512.0]",horizontal,"(390.0, 262.0)",[0.8333333333333334],[0.48],1,2184.449
9,False,515,0.765,45,[],[],"[(1178, 886)]",[],[1],[94],[1.5666666666666667],"[640.0, 512.0]",vertical,"(390.0, 262.0)",[0.55],[0.791],1,2188.079
9,False,516,0.486,29,[],[],"[(1140, 889)]",[],[1],[77],[1.2833333333333332],"[640.0, 512.0]",vertical,"(390.0, 762.0)",[1.4166666666666667],[0.773],1,2191.757
9,False,517,1.267,76,[],[],"[(1150, 908)]",[],[1],[126],[2.1],"[640.0, 512.0]",vertical,"(390.0, 262.0)",[0.6666666666666666],[0.802],0,2196.02
9,False,518,1.041,62,[],[],"[(1169, 902)]",[],[1],[99],[1.65],"[640.0, 512.0]",vertical,"(390.0, 762.0)",[0.5666666666666667],[0.601],1,2200.363
9,False,519,0.354,21,[],[],"[(1171, 899)]",[],[1],[65],[1.0833333333333333],"[640.0, 512.0]",horizontal,"(890.0, 762.0)",[1.6166666666666667],[0.708],1,2204.582
9,False,520,1.433,85,[],[],"[(1190, 891)]",[],[1],[126],[2.1],"[640.0, 512.0]",vertical,"(890.0, 262.0)",[0.6666666666666666],[0.648],1,2208.856
9,False,521,1.055,63,[],[],"[(1184, 898)]",[],[1],[113],[1.8833333333333333],"[640.0, 512.0]",horizontal,"(890.0, 762.0)",[0.7833333333333333],[0.801],0,2213.126
9,False,522,1.394,83,[],[],"[(1177, 895)]",[],[1],[117],[1.95],"[640.0, 512.0]",vertical,"(390.0, 762.0)",[0.9333333333333333],[0.542],1,2217.415
9,False,523,0.899,53,[],[],"[(1171, 899)]",[],[1],[84],[1.4],"[640.0, 512.0]",horizontal,"(390.0, 262.0)",[0.95],[0.492],1,2228.371
9,False,524,0.922,55,[],[],"[(1189, 889)]",[],[1],[95],[1.5833333333333333],"[640.0, 512.0]",horizontal,"(390.0, 262.0)",[0.7666666666666666],[0.644],1,2232.258
9,False,525,1.16,69,[],[],"[(1194, 910)]",[],[1],[119],[1.9833333333333334],"[640.0, 512.0]",vertical,"(390.0, 762.0)",[0.6333333333333333],[0.799],0,2236.188
9,False,526,1.326,79,[],[],"[(1146, 903)]",[],[1],[106],[1.7666666666666666],"[640.0, 512.0]",vertical,"(390.0, 762.0)",[1.35],[0.422],1,2261.87
9,False,527,1.084,65,[],[],"[(1165, 912)]",[],[1],[111],[1.8499999999999999],"[640.0, 512.0]",horizontal,"(890.0, 262.0)",[1.65],[0.742],1,2266.729
9,False,528,0.539,32,[],[],"[(663, 564), (1157, 912)]",[],"[0, 1]",[64],[1.0666666666666667],"[640.0, 512.0]",vertical,"(390.0, 262.0)",[1.2833333333333332],[0.513],1,2271.978
9,False,529,0.634,38,[],[],"[(1179, 894)]",[],[1],[75],[1.25],"[640.0, 512.0]",horizontal,"(890.0, 762.0)",[1.6166666666666667],[0.593],1,2304.013
9,False,530,0.597,35,[],[],"[(1202, 905)]",[],[1],[68],[1.1333333333333333],"[640.0, 512.0]",vertical,"(390.0, 762.0)",[1.45],[0.52],1,2308.854
9,False,531,0.516,30,[],[],"[(1159, 881)]",[],[1],[80],[1.3333333333333333],"[640.0, 512.0]",horizontal,"(890.0, 762.0)",[0.6666666666666666],[0.795],0,2312.926
9,False,532,1.259,75,[],[],"[(1156, 889)]",[],[1],[121],[2.0166666666666666],"[640.0, 512.0]",horizontal,"(390.0, 762.0)",[1.5166666666666666],[0.742],1,2316.453
9,False,533,1.349,80,[],[],"[(1177, 897)]",[],[1],[110],[1.8333333333333333],"[640.0, 512.0]",vertical,"(390.0, 262.0)",[0.5666666666666667],[0.472],1,2321.646
9,False,534,0.622,37,[],[],"[(1177, 918)]",[],[1],[81],[1.35],"[640.0, 512.0]",horizontal,"(390.0, 262.0)",[1.35],[0.705],1,2325.564
9,False,535,1.325,79,[],[],"[(1207, 885)]",[],[1],[129],[2.15],"[640.0, 512.0]",horizontal,"(890.0, 762.0)",[0.7333333333333333],[0.797],0,2329.816
9,False,536,0.307,18,[],[],"[(1159, 880)]",[],[1],[63],[1.05],"[640.0, 512.0]",vertical,"(890.0, 762.0)",[1.2],[0.721],1,2334.143
9,False,537,0.765,45,[],[],"[(1183, 899)]",[],[1],[95],[1.5833333333333333],"[640.0, 512.0]",horizontal,"(390.0, 262.0)",[1.2833333333333332],[0.803],0,2338.442
9,False,538,1.222,73,[],[],"[(1196, 935)]",[],[1],[123],[2.05],"[640.0, 512.0]",vertical,"(890.0, 262.0)",[0.9333333333333333],[0.797],0,2342.918
9,False,539,0.531,31,[],[2410053],"[(1125, 934)]","[(1125, 934)]",[1],[6],[0.1],"[640.0, 512.0]",vertical,"(390.0, 262.0)",[],[0],0,2387.196
9,False,540,0.583,34,[],[],"[(1230, 889)]",[],[1],[],[],"[640.0, 512.0]",horizontal,"(890.0, 262.0)",[],[0],0,2403.072
10,False,541,1.137,68,[],[],"[(1054, 935)]",[],[1],[],[],"[640.0, 512.0]",horizontal,"(890.0, 262.0)",[],[0],0,2406.828
10,False,542,0.584,35,[],[],"[(1013, 755), (1023, 918), (1250, 976), (669, 737), (763, 808), (558, 942), (1189, 861)]",[],"[0, 0, 0, 0, 0, 0, 1]",[85],[1.4166666666666667],"[640.0, 512.0]",vertical,"(890.0, 262.0)",[1.6166666666666667],[0.802],0,2410.225
10,False,543,1.45,87,[],[],"[(1225, 918)]",[],[1],[137],[2.283333333333333],"[640.0, 512.0]",vertical,"(390.0, 762.0)",[0.8666666666666667],[0.805],0,3270.434
10,False,544,1.454,87,[],[],"[(1143, 907)]",[],[1],[137],[2.283333333333333],"[640.0, 512.0]",horizontal,"(890.0, 762.0)",[1.3333333333333333],[0.794],0,3795.106
10,False,545,0.54,32,[],[],"[(1161, 885)]",[],[1],[82],[1.3666666666666667],"[640.0, 512.0]",horizontal,"(390.0, 762.0)",[1.0166666666666666],[0.8],0,3800.639
10,False,546,0.552,33,[],[],"[(1152, 894)]",[],[1],[83],[1.3833333333333333],"[640.0, 512.0]",horizontal,"(890.0, 262.0)",[1.6333333333333333],[0.805],0,3808.068
10,False,547,0.869,52,[],[],"[(1182, 856)]",[],[1],[84],[1.4],"[640.0, 512.0]",horizontal,"(390.0, 762.0)",[1.2333333333333334],[0.513],1,3812.788
10,False,548,1.465,87,[],[],"[(1160, 889)]",[],[1],[132],[2.2],"[640.0, 512.0]",vertical,"(390.0, 262.0)",[0.5333333333333333],[0.72],1,3829.403
10,False,549,0.955,57,[],[],"[(1188, 906)]",[],[1],[89],[1.4833333333333334],"[640.0, 512.0]",vertical,"(890.0, 762.0)",[0.6333333333333333],[0.509],1,3833.95
10,False,550,1.142,68,[],[],"[(1149, 898)]",[],[1],[100],[1.6666666666666667],"[640.0, 512.0]",vertical,"(890.0, 262.0)",[1.4],[0.508],1,3837.684
10,False,551,0.493,29,[],[],"[(1202, 902)]",[],[1],[63],[1.05],"[640.0, 512.0]",horizontal,"(890.0, 262.0)",[0.55],[0.545],1,3842.302
10,False,552,1.332,79,[],[],"[(1201, 918)]",[],[1],[116],[1.9333333333333333],"[640.0, 512.0]",vertical,"(390.0, 762.0)",[0.8166666666666667],[0.593],1,3845.428
10,False,553,0.364,21,[],[],"[(1196, 899)]",[],[1],[60],[1.0],"[640.0, 512.0]",vertical,"(390.0, 262.0)",[1.55],[0.626],1,3849.697
10,False,554,0.604,36,[],[],"[(1147, 886)]",[],[1],[68],[1.1333333333333333],"[640.0, 512.0]",vertical,"(390.0, 762.0)",[0.9666666666666667],[0.51],1,3853.804
10,False,555,0.357,21,[],[],"[(1199, 901)]",[],[1],[71],[1.1833333333333333],"[640.0, 512.0]",vertical,"(890.0, 762.0)",[1.15],[0.807],0,3857.418
10,False,556,1.337,80,[],[],"[(1173, 900)]",[],[1],[120],[2.0],"[640.0, 512.0]",vertical,"(390.0, 762.0)",[0.6666666666666666],[0.634],1,3861.241
10,False,557,0.537,32,[],[],"[(1201, 914)]",[],[1],[69],[1.15],"[640.0, 512.0]",vertical,"(390.0, 262.0)",[0.5666666666666667],[0.591],1,3866.051
10,False,558,0.894,53,[],[],"[(1203, 890)]",[],[1],[100],[1.6666666666666667],"[640.0, 512.0]",vertical,"(890.0, 762.0)",[1.5333333333333332],[0.756],1,3869.366
10,False,559,0.314,18,[],[],"[(1207, 918)]",[],[1],[68],[1.1333333333333333],"[640.0, 512.0]",horizontal,"(390.0, 762.0)",[0.5166666666666666],[0.807],0,3874.031
10,False,560,0.856,51,[],[],"[(1183, 894)]",[],[1],[88],[1.4666666666666666],"[640.0, 512.0]",horizontal,"(890.0, 262.0)",[1.0],[0.589],1,3877.592
10,False,561,1.314,78,[],[],"[(1175, 892)]",[],[1],[115],[1.9166666666666667],"[640.0, 512.0]",vertical,"(890.0, 762.0)",[0.55],[0.591],1,3882.301
10,False,562,1.183,70,[],[],"[(1134, 898)]",[],[1],[99],[1.65],"[640.0, 512.0]",vertical,"(390.0, 762.0)",[1.4333333333333333],[0.465],1,3886.282
10,False,563,1.078,64,[],[],"[(1166, 888)]",[],[1],[],[],"[640.0, 512.0]",vertical,"(390.0, 262.0)",[],[0],0,3890.939
10,False,564,1.146,68,[],[],"[(1162, 880)]",[],[1],[82],[1.3666666666666667],"[640.0, 512.0]",vertical,"(390.0, 762.0)",[1.6333333333333333],[0.214],1,3894.717
10,False,565,1.322,79,[],[],"[(1165, 873)]",[],[1],[118],[1.9666666666666666],"[640.0, 512.0]",horizontal,"(390.0, 762.0)",[1.2166666666666666],[0.624],1,3900.084
10,False,566,0.978,58,[],[],"[(1153, 887)]",[],[1],[96],[1.6],"[640.0, 512.0]",vertical,"(390.0, 262.0)",[0.9166666666666666],[0.611],1,3904.813
10,False,567,1.381,82,[],[],"[(1154, 891)]",[],[1],[114],[1.9],"[640.0, 512.0]",vertical,"(890.0, 262.0)",[0.8666666666666667],[0.511],1,3908.893
10,False,568,1.39,83,[],[],"[(1187, 894)]",[],[1],[108],[1.8],"[640.0, 512.0]",vertical,"(390.0, 762.0)",[0.9166666666666666],[0.394],1,3913.214
10,False,569,1.101,66,[],[],"[(1172, 899)]",[],[1],[106],[1.7666666666666666],"[640.0, 512.0]",vertical,"(890.0, 262.0)",[0.7166666666666667],[0.646],1,3917.443
10,False,570,0.96,57,[],[],"[(1156, 894)]",[],[1],[60],[1.0],"[640.0, 512.0]",vertical,"(390.0, 262.0)",[1.55],[0.035],1,3921.429
10,False,571,0.733,43,[],[],"[(1177, 918)]",[],[1],[71],[1.1833333333333333],"[640.0, 512.0]",horizontal,"(890.0, 262.0)",[1.2166666666666666],[0.444],1,3925.475
10,False,572,0.804,48,[],[],"[(1149, 900)]",[],[1],[81],[1.35],"[640.0, 512.0]",vertical,"(890.0, 762.0)",[0.9833333333333333],[0.529],1,3929.399
10,False,573,0.583,34,[],[],"[(1166, 898)]",[],[1],[77],[1.2833333333333332],"[640.0, 512.0]",horizontal,"(890.0, 762.0)",[1.35],[0.686],1,3933.272
10,False,574,1.44,86,[],[],"[(1172, 897)]",[],[1],[119],[1.9833333333333334],"[640.0, 512.0]",vertical,"(890.0, 762.0)",[0.9166666666666666],[0.525],1,3937.382
10,False,575,0.377,22,[],[],"[(1197, 911)]",[],[1],[55],[0.9166666666666666],"[640.0, 512.0]",horizontal,"(390.0, 262.0)",[1.0166666666666666],[0.522],1,3941.767
10,False,576,0.737,44,[],[],"[(1166, 910)]",[],[1],[84],[1.4],"[640.0, 512.0]",horizontal,"(890.0, 762.0)",[0.7166666666666667],[0.635],1,3945.186
10,False,577,0.786,47,[],[],"[(1153, 903)]",[],[1],[87],[1.45],"[640.0, 512.0]",horizontal,"(890.0, 762.0)",[0.9333333333333333],[0.634],1,3948.802
10,False,578,0.597,35,[],[],"[(1159, 906)]",[],[1],[68],[1.1333333333333333],"[640.0, 512.0]",horizontal,"(890.0, 762.0)",[0.7833333333333333],[0.525],1,3952.702
10,False,579,1.178,70,[],[],"[(1153, 899)]",[],[1],[101],[1.6833333333333333],"[640.0, 512.0]",horizontal,"(390.0, 262.0)",[0.85],[0.494],1,3956.151
10,False,580,0.307,18,[],[],"[(1160, 899)]",[],[1],[50],[0.8333333333333334],"[640.0, 512.0]",horizontal,"(890.0, 262.0)",[1.2166666666666666],[0.505],1,3960.198
10,False,581,1.293,77,[],[],"[(1165, 906)]",[],[1],[127],[2.1166666666666667],"[640.0, 512.0]",horizontal,"(390.0, 262.0)",[1.6333333333333333],[0.804],0,3963.733
10,False,582,0.957,57,[],[],"[(1171, 887)]",[],[1],[89],[1.4833333333333334],"[640.0, 512.0]",horizontal,"(890.0, 762.0)",[1.65],[0.513],1,3968.981
10,False,583,0.685,41,[],[],"[(1200, 905)]",[],[1],[75],[1.25],"[640.0, 512.0]",vertical,"(390.0, 762.0)",[1.3333333333333333],[0.55],1,3973.634
10,False,584,1.371,82,[],[],"[(1160, 886)]",[],[1],[114],[1.9],"[640.0, 512.0]",vertical,"(390.0, 762.0)",[0.8],[0.506],1,3977.914
10,False,585,0.341,20,[],[],"[(1135, 897)]",[],[1],[51],[0.85],"[640.0, 512.0]",vertical,"(890.0, 262.0)",[0.6333333333333333],[0.493],1,3982.378
10,False,586,0.38,22,[],[],"[(1149, 898)]",[],[1],[55],[0.9166666666666666],"[640.0, 512.0]",vertical,"(390.0, 762.0)",[1.4],[0.524],1,3985.412
10,False,587,0.457,27,[],[],"[(1207, 896)]",[],[1],[72],[1.2],"[640.0, 512.0]",horizontal,"(390.0, 762.0)",[0.7666666666666666],[0.724],1,3989.266
10,False,588,1.313,78,[],[],"[(1163, 901)]",[],[1],[110],[1.8333333333333333],"[640.0, 512.0]",horizontal,"(390.0, 762.0)",[0.8],[0.507],1,3992.709
10,False,589,0.53,31,[],[],"[(1196, 921)]",[],[1],[63],[1.05],"[640.0, 512.0]",vertical,"(890.0, 762.0)",[1.3833333333333333],[0.506],1,3996.879
10,False,590,1.026,61,[],[],"[(1164, 886)]",[],[1],[98],[1.6333333333333333],"[640.0, 512.0]",vertical,"(390.0, 762.0)",[0.75],[0.593],1,4000.751
10,False,591,1.152,69,[],[],"[(1156, 896)]",[],[1],[102],[1.7],"[640.0, 512.0]",horizontal,"(890.0, 262.0)",[1.35],[0.522],1,4005.285
10,False,592,1.359,81,[],[],"[(1130, 894)]",[],[1],[112],[1.8666666666666667],"[640.0, 512.0]",horizontal,"(890.0, 262.0)",[0.8333333333333334],[0.499],1,4009.818
10,False,593,1.345,80,[],[],"[(1133, 880)]",[],[1],[113],[1.8833333333333333],"[640.0, 512.0]",vertical,"(890.0, 762.0)",[0.9166666666666666],[0.528],1,4014.033
10,False,594,0.523,31,[],[],"[(1172, 913)]",[],[1],[64],[1.0666666666666667],"[640.0, 512.0]",vertical,"(890.0, 262.0)",[0.9833333333333333],[0.526],1,4018.412
10,False,595,1.369,82,[],[],"[(1145, 890)]",[],[1],[113],[1.8833333333333333],"[640.0, 512.0]",vertical,"(890.0, 762.0)",[0.8333333333333334],[0.494],1,4021.954
10,False,596,0.752,45,[],[],"[(1202, 893)]",[],[1],[94],[1.5666666666666667],"[640.0, 512.0]",horizontal,"(390.0, 762.0)",[1.05],[0.788],1,4026.175
10,False,597,1.025,61,[],[],"[(1152, 901)]",[],[1],[101],[1.6833333333333333],"[640.0, 512.0]",horizontal,"(390.0, 262.0)",[0.6833333333333333],[0.648],1,4030.237
10,False,598,1.132,67,[],[],"[(1167, 889)]",[],[1],[106],[1.7666666666666666],"[640.0, 512.0]",vertical,"(890.0, 762.0)",[0.6],[0.624],1,4034.166
10,False,599,0.449,26,[],[],"[(1176, 900)]",[],[1],[60],[1.0],"[640.0, 512.0]",horizontal,"(890.0, 262.0)",[0.65],[0.544],1,4038.031
10,False,600,1.179,70,[],[],"[(1158, 903)]",[],[1],[109],[1.8166666666666667],"[640.0, 512.0]",vertical,"(390.0, 762.0)",[0.5833333333333334],[0.628],1,4041.215
11,False,601,0.877,52,[],[],"[(1178, 903)]",[],[1],[85],[1.4166666666666667],"[640.0, 512.0]",horizontal,"(890.0, 262.0)",[1.35],[0.524],1,4045.089
11,False,602,1.125,67,[],[],"[(1165, 892)]",[],[1],[99],[1.65],"[640.0, 512.0]",vertical,"(390.0, 762.0)",[1.6166666666666667],[0.505],1,4049.33
11,False,603,1.156,69,[],[],"[(1134, 879)]",[],[1],[102],[1.7],"[640.0, 512.0]",horizontal,"(890.0, 262.0)",[1.1333333333333333],[0.527],1,4054.086
11,False,604,0.938,56,[],[],"[(1186, 930)]",[],[1],[99],[1.65],"[640.0, 512.0]",vertical,"(890.0, 262.0)",[1.6166666666666667],[0.691],1,4058.477
11,False,605,1.344,80,[],[],"[(1148, 891)]",[],[1],[101],[1.6833333333333333],"[640.0, 512.0]",vertical,"(890.0, 262.0)",[1.5166666666666666],[0.329],1,4063.209
11,False,606,0.719,43,[],[],"[(1176, 902)]",[],[1],[80],[1.3333333333333333],"[640.0, 512.0]",vertical,"(890.0, 762.0)",[0.75],[0.598],1,4067.906
11,False,607,1.228,73,[],[],"[(1148, 904)]",[],[1],[114],[1.9],"[640.0, 512.0]",horizontal,"(890.0, 762.0)",[1.55],[0.656],1,4071.517
11,False,608,1.181,70,[],[],"[(1171, 904)]",[],[1],[109],[1.8166666666666667],"[640.0, 512.0]",horizontal,"(390.0, 762.0)",[1.0666666666666667],[0.626],1,4076.486
11,False,609,1.223,73,[],[],"[(1178, 913)]",[],[1],[113],[1.8833333333333333],"[640.0, 512.0]",horizontal,"(390.0, 762.0)",[1.3],[0.639],1,4080.865
11,False,610,0.593,35,[],[],"[(1183, 882)]",[],[1],"[85, 85]","[1.4166666666666667, 1.4166666666666667]","[640.0, 512.0]",horizontal,"(890.0, 262.0)",[1.15],"[0.805, 0.805]",0,4085.564
11,False,611,1.273,76,[],[],"[(1177, 910)]",[],[1],[111],[1.8499999999999999],"[640.0, 512.0]",vertical,"(890.0, 762.0)",[1.0333333333333332],[0.562],1,4089.618
11,False,612,0.557,33,[],[],"[(1151, 901)]",[],[1],[67],[1.1166666666666667],"[640.0, 512.0]",horizontal,"(890.0, 762.0)",[0.5333333333333333],[0.547],1,4094.86
11,False,613,1.076,64,[],[],"[(1171, 908)]",[],[1],[97],[1.6166666666666667],"[640.0, 512.0]",horizontal,"(390.0, 262.0)",[1.5333333333333332],[0.525],1,4098.031
11,False,614,1.267,76,[],[],"[(1154, 899)]",[],[1],[107],[1.7833333333333332],"[640.0, 512.0]",vertical,"(390.0, 262.0)",[1.0833333333333333],[0.498],1,4102.652
11,False,615,1.066,63,[],[],"[(1177, 900)]",[],[1],[113],[1.8833333333333333],"[640.0, 512.0]",horizontal,"(390.0, 762.0)",[0.55],[0.803],0,4107.114
11,False,616,0.459,27,[],[],"[(1171, 913)]",[],[1],[61],[1.0166666666666666],"[640.0, 512.0]",horizontal,"(890.0, 262.0)",[1.35],[0.544],1,4111.049
11,False,617,0.725,43,[],[],"[(1177, 923)]",[],[1],[83],[1.3833333333333333],"[640.0, 512.0]",horizontal,"(890.0, 262.0)",[1.0333333333333332],[0.641],1,4115.545
11,False,618,1.442,86,[],[],"[(1180, 924)]",[],[1],[121],[2.0166666666666666],"[640.0, 512.0]",horizontal,"(390.0, 262.0)",[0.8833333333333333],[0.557],1,4119.453
11,False,619,1.234,74,[],[],"[(1146, 920)]",[],[1],[108],[1.8],"[640.0, 512.0]",vertical,"(890.0, 262.0)",[0.9833333333333333],[0.541],1,4123.884
11,False,620,1.467,88,[],[],"[(1167, 895)]",[],[1],[131],[2.183333333333333],"[640.0, 512.0]",horizontal,"(390.0, 762.0)",[1.65],[0.686],1,4128.218
11,False,621,1.212,72,[],[],"[(1183, 903)]",[],[1],[109],[1.8166666666666667],"[640.0, 512.0]",horizontal,"(890.0, 262.0)",[1.5666666666666667],[0.594],1,4133.578
11,False,622,1.345,80,[],[],"[(1153, 919)]",[],[1],[121],[2.0166666666666666],"[640.0, 512.0]",vertical,"(390.0, 762.0)",[1.3166666666666667],[0.66],1,4138.513
11,False,623,0.616,36,[],[],"[(1160, 914)]",[],[1],[86],[1.4333333333333333],"[640.0, 512.0]",vertical,"(390.0, 262.0)",[1.3166666666666667],[0.805],0,4143.453
11,False,624,0.419,25,[],[],"[(1148, 884)]",[],[1],[60],[1.0],"[640.0, 512.0]",vertical,"(890.0, 762.0)",[1.2333333333333334],[0.556],1,4147.761
11,False,625,0.697,41,[],[],"[(1175, 919)]",[],[1],[91],[1.5166666666666666],"[640.0, 512.0]",vertical,"(390.0, 762.0)",[1.5666666666666667],[0.799],0,4151.879
11,False,626,1.412,84,[],[],"[(1171, 893)]",[],[1],[119],[1.9833333333333334],"[640.0, 512.0]",vertical,"(390.0, 262.0)",[1.2333333333333334],[0.565],1,4156.451
11,False,627,0.844,50,[],[],"[(1129, 894)]",[],[1],[88],[1.4666666666666666],"[640.0, 512.0]",horizontal,"(890.0, 762.0)",[0.6166666666666667],[0.611],1,4161.693
11,False,628,1.446,86,[],[],"[(1196, 898)]",[],[1],[123],[2.05],"[640.0, 512.0]",vertical,"(890.0, 262.0)",[1.0166666666666666],[0.588],1,4165.33
11,False,629,0.832,49,[],[],"[(1129, 892)]",[],[1],[90],[1.5],"[640.0, 512.0]",horizontal,"(390.0, 762.0)",[1.1166666666666667],[0.652],1,4169.851
11,False,630,1.131,67,[],[],"[(1135, 890)]",[],[1],[98],[1.6333333333333333],"[640.0, 512.0]",horizontal,"(890.0, 762.0)",[1.35],[0.496],1,4173.998
11,False,631,1.272,76,[],[],"[(1166, 904)]",[],[1],[114],[1.9],"[640.0, 512.0]",horizontal,"(890.0, 762.0)",[1.3166666666666667],[0.606],1,4178.598
11,False,632,1.169,70,[],[],"[(1163, 908)]",[],[1],[104],[1.7333333333333334],"[640.0, 512.0]",vertical,"(890.0, 262.0)",[1.65],[0.544],1,4183.257
11,False,633,1.148,68,[],[],"[(1145, 890)]",[],[1],[101],[1.6833333333333333],"[640.0, 512.0]",vertical,"(390.0, 762.0)",[1.2833333333333332],[0.524],1,4188.165
11,False,634,1.362,81,[],[],"[(1168, 917)]",[],[1],[114],[1.9],"[640.0, 512.0]",vertical,"(890.0, 262.0)",[1.6166666666666667],[0.522],1,4192.785
11,False,635,1.125,67,[],[],"[(1186, 889)]",[],[1],[101],[1.6833333333333333],"[640.0, 512.0]",vertical,"(390.0, 262.0)",[1.1666666666666667],[0.545],1,4197.812
11,False,636,1.06,63,[],[],"[(1171, 905)]",[],[1],[104],[1.7333333333333334],"[640.0, 512.0]",horizontal,"(390.0, 762.0)",[0.85],[0.67],1,4202.236
11,False,637,1.181,70,[],[],"[(1192, 899)]",[],[1],[106],[1.7666666666666666],"[640.0, 512.0]",horizontal,"(890.0, 762.0)",[1.2666666666666666],[0.578],1,4206.457
11,False,638,1.086,65,[],[],"[(1183, 903)]",[],[1],[110],[1.8333333333333333],"[640.0, 512.0]",horizontal,"(390.0, 262.0)",[1.05],[0.735],1,4210.956
11,False,639,1.085,65,[],[],"[(1144, 918)]",[],[1],[97],[1.6166666666666667],"[640.0, 512.0]",vertical,"(890.0, 262.0)",[0.9166666666666666],[0.52],1,4215.463
11,False,640,1.495,89,[],[],"[(1176, 903)]",[],[1],[131],[2.183333333333333],"[640.0, 512.0]",horizontal,"(890.0, 262.0)",[0.55],[0.681],1,4219.71
11,False,641,0.353,21,[],[],"[(1165, 910)]",[],[1],[56],[0.9333333333333333],"[640.0, 512.0]",vertical,"(390.0, 262.0)",[1.0833333333333333],[0.562],1,4223.93
11,False,642,0.408,24,[],[],"[(1161, 927)]",[],[1],[74],[1.2333333333333334],"[640.0, 512.0]",horizontal,"(890.0, 262.0)",[0.7],[0.803],0,4234.01
11,False,643,1.124,67,[],[],"[(1128, 917)]",[],[1],[111],[1.8499999999999999],"[640.0, 512.0]",horizontal,"(390.0, 762.0)",[0.8666666666666667],[0.705],1,4237.488
11,False,644,0.887,53,[],[],"[(1122, 901)]",[],[1],[85],[1.4166666666666667],"[640.0, 512.0]",horizontal,"(890.0, 262.0)",[1.0],[0.508],1,4243.385
11,False,645,0.856,51,[],[],"[(1143, 922)]",[],[1],[86],[1.4333333333333333],"[640.0, 512.0]",vertical,"(890.0, 762.0)",[0.7],[0.561],1,4248.999
11,False,646,1.057,63,[],[],"[(1141, 913)]",[],[1],[113],[1.8833333333333333],"[640.0, 512.0]",horizontal,"(390.0, 762.0)",[1.4333333333333333],[0.807],0,4252.667
11,False,647,1.489,89,[],[],"[(1166, 902)]",[],[1],[120],[2.0],"[640.0, 512.0]",vertical,"(890.0, 262.0)",[1.0],[0.492],1,4257.47
11,False,648,1.124,67,[],[],"[(1143, 921)]",[],[1],[111],[1.8499999999999999],"[640.0, 512.0]",vertical,"(890.0, 262.0)",[0.5833333333333334],[0.705],1,4262.135
11,False,649,0.669,40,[],[],"[(1151, 912)]",[],[1],[90],[1.5],"[640.0, 512.0]",vertical,"(390.0, 262.0)",[1.1],[0.803],0,4266.18
11,False,650,0.761,45,[],[],"[(1136, 926)]",[],[1],[95],[1.5833333333333333],"[640.0, 512.0]",vertical,"(890.0, 262.0)",[0.7],[0.804],0,4270.636
11,False,651,0.403,24,[],[],"[(1151, 898)]",[],[1],[58],[0.9666666666666667],"[640.0, 512.0]",horizontal,"(390.0, 762.0)",[0.7333333333333333],[0.545],1,4276.201
11,False,652,1.259,75,[],[],"[(1130, 915)]",[],[1],[125],[2.0833333333333335],"[640.0, 512.0]",vertical,"(890.0, 762.0)",[0.6333333333333333],[0.803],0,4279.503
11,False,653,1.369,82,[],[],"[(1208, 893)]",[],[1],[119],[1.9833333333333334],"[640.0, 512.0]",horizontal,"(390.0, 262.0)",[0.75],[0.596],1,4283.932
11,False,654,1.193,71,[],[],"[(1177, 899)]",[],[1],[109],[1.8166666666666667],"[640.0, 512.0]",horizontal,"(390.0, 262.0)",[1.3166666666666667],[0.606],1,4293.15
11,False,655,1.041,62,[],[],"[(1177, 910)]",[],[1],[93],[1.55],"[640.0, 512.0]",vertical,"(390.0, 262.0)",[1.0666666666666667],[0.497],1,4297.798
11,False,656,1.264,75,[],[],"[(1165, 894)]",[],[1],[],[],"[640.0, 512.0]",vertical,"(390.0, 262.0)",[],[0],0,4301.999
11,False,657,0.506,30,[],[],"[(1164, 886)]",[],[1],[62],[1.0333333333333332],"[640.0, 512.0]",vertical,"(390.0, 262.0)",[0.55],[0.513],1,4305.396
11,False,658,1.076,64,[],[],"[(1177, 908)]",[],[1],[97],[1.6166666666666667],"[640.0, 512.0]",horizontal,"(390.0, 762.0)",[0.8333333333333334],[0.523],1,4309.017
11,False,659,1.0,60,[],[],"[(1159, 884)]",[],[1],[75],[1.25],"[640.0, 512.0]",vertical,"(890.0, 762.0)",[1.35],[0.234],1,4313.036
11,False,660,1.389,83,[],[],"[(1176, 893)]",[],[1],[117],[1.95],"[640.0, 512.0]",horizontal,"(890.0, 762.0)",[0.9333333333333333],[0.539],1,4317.146
12,False,661,0.652,39,[],[],"[(1146, 898)]",[],[1],[83],[1.3833333333333333],"[640.0, 512.0]",vertical,"(890.0, 262.0)",[0.85],[0.708],1,4321.547
12,False,662,0.776,46,[],[],"[(1175, 889)]",[],[1],[77],[1.2833333333333332],"[640.0, 512.0]",vertical,"(390.0, 762.0)",[1.15],[0.496],1,4325.317
12,False,663,1.227,73,[],[],"[(1153, 898)]",[],[1],[105],[1.75],"[640.0, 512.0]",vertical,"(890.0, 762.0)",[1.3666666666666667],[0.508],1,4329.436
12,False,664,0.335,20,[],[],"[(1121, 899)]",[],[1],[59],[0.9833333333333333],"[640.0, 512.0]",horizontal,"(390.0, 762.0)",[1.55],[0.622],1,4334.171
12,False,665,1.3,78,[],[],"[(1153, 902)]",[],[1],[116],[1.9333333333333333],"[640.0, 512.0]",horizontal,"(890.0, 262.0)",[0.8333333333333334],[0.614],1,4338.29
12,False,666,1.294,77,[],[],"[(1147, 887)]",[],[1],[111],[1.8499999999999999],"[640.0, 512.0]",horizontal,"(890.0, 762.0)",[0.9],[0.544],1,4343.996
12,False,667,1.06,63,[],[],"[(1149, 895)]",[],[1],[92],[1.5333333333333332],"[640.0, 512.0]",vertical,"(890.0, 262.0)",[1.4666666666666666],[0.465],1,4348.523
12,False,668,0.963,57,[],[],"[(1166, 897)]",[],[1],[101],[1.6833333333333333],"[640.0, 512.0]",horizontal,"(390.0, 262.0)",[1.6666666666666667],[0.706],1,4353.082
12,False,669,0.869,52,[],[],"[(1170, 896)]",[],[1],[87],[1.45],"[640.0, 512.0]",vertical,"(390.0, 262.0)",[0.6333333333333333],[0.567],1,4357.99
12,False,670,0.471,28,[],[],"[(1220, 896)]",[],[1],[60],[1.0],"[640.0, 512.0]",vertical,"(390.0, 262.0)",[0.9166666666666666],[0.511],1,4361.637
12,False,671,0.358,21,[],[],"[(1176, 887)]",[],[1],[70],[1.1666666666666667],"[640.0, 512.0]",horizontal,"(390.0, 262.0)",[0.6833333333333333],[0.787],1,4365.045
12,False,672,0.886,53,[],[],"[(1177, 923)]",[],[1],[89],[1.4833333333333334],"[640.0, 512.0]",vertical,"(390.0, 262.0)",[0.5666666666666667],[0.571],1,4368.502
12,False,673,1.432,85,[],[],"[(1178, 894)]",[],[1],[132],[2.2],"[640.0, 512.0]",horizontal,"(890.0, 762.0)",[1.3166666666666667],[0.754],1,4372.086
12,False,674,1.256,75,[],[],"[(1178, 903)]",[],[1],[112],[1.8666666666666667],"[640.0, 512.0]",horizontal,"(890.0, 262.0)",[0.5166666666666666],[0.589],1,4377.072
12,False,675,0.958,57,[],[],"[(1171, 918)]",[],[1],[98],[1.6333333333333333],"[640.0, 512.0]",horizontal,"(390.0, 262.0)",[1.2166666666666666],[0.657],1,4380.957
12,False,676,0.53,31,[],[],"[(1152, 895)]",[],[1],[81],[1.35],"[640.0, 512.0]",horizontal,"(890.0, 762.0)",[1.5],[0.809],0,4385.317
12,False,677,1.457,87,[],[],"[(1221, 923)]",[],[1],[128],[2.1333333333333333],"[640.0, 512.0]",vertical,"(390.0, 762.0)",[1.1666666666666667],[0.661],1,4389.729
12,False,678,0.832,49,[],[],"[(1142, 890)]",[],[1],[92],[1.5333333333333332],"[640.0, 512.0]",horizontal,"(390.0, 262.0)",[0.5833333333333334],[0.691],1,4394.787
12,False,679,0.559,33,[],[],"[(1177, 899)]",[],[1],[73],[1.2166666666666666],"[640.0, 512.0]",vertical,"(390.0, 762.0)",[0.9666666666666667],[0.639],1,4398.451
12,False,680,0.949,56,[],[],"[(1181, 905)]",[],[1],[89],[1.4833333333333334],"[640.0, 512.0]",horizontal,"(890.0, 262.0)",[1.5],[0.527],1,4402.163
