block,trial,trial_type,taps_start_loc_during_fix,taps_end_loc_during_fix,taps_on_lever_during_fix,taps_on_lever_s_during_fix,bar_orientation,target_xy,cti,rt,acc,time,pulses
0,1,target,"[(1047, 853)]",[],[1],[0.75],vertical,"(890.0, 262.0)",0.6666666666666666,0.718,1,0.437,1
0,2,target,"[(1071, 871)]",[],[1],[0.85],horizontal,"(390.0, 262.0)",0.85,nan,0,13.776,0
0,3,target,"[(1223, 889)]",[],[1],[0.5166666666666666],horizontal,"(390.0, 762.0)",0.9833333333333333,0.491,1,18.674,1
0,4,target,"[(1052, 870)]",[],[1],[0.85],vertical,"(890.0, 762.0)",0.8166666666666667,nan,0,23.829,0
0,5,target,"[(1065, 844)]",[],[1],[0.7333333333333333],horizontal,"(390.0, 262.0)",0.85,0.714,1,28.66,1
0,6,catch,"[(1063, 818)]",[],[1],[],horizontal,"(890.0, 262.0)",1.3666666666666667,nan,1,37.175,1
0,7,target,"[(1074, 824)]",[],[1],[0.48333333333333334],vertical,"(890.0, 262.0)",1.5,0.452,1,42.288,1
0,8,target,"[(1051, 806)]",[],[1],[0.85],horizontal,"(890.0, 762.0)",0.55,nan,0,47.63,0
0,9,target,"[(1046, 841)]",[],[1],[0.5833333333333334],vertical,"(390.0, 262.0)",0.5,0.553,1,52.48,1
0,10,target,"[(1039, 806)]",[],[1],[0.6],horizontal,"(390.0, 762.0)",1.0333333333333332,0.569,1,57.169,1
0,11,target,"[(1076, 801)]",[],[1],[0.5166666666666666],horizontal,"(390.0, 762.0)",1.4833333333333334,0.487,1,62.157,1
0,12,target,"[(1059, 816)]",[],[1],[0.6],horizontal,"(390.0, 262.0)",1.6,0.558,1,67.615,2
0,13,catch,"[(1062, 828)]",[],[1],[],vertical,"(890.0, 262.0)",1.65,nan,1,73.943,2
0,14,catch,"[(1075, 806)]",[],[1],[],vertical,"(390.0, 262.0)",1.5,nan,1,80.792,2
0,15,target,"[(1079, 801)]",[],[1],[0.5666666666666667],vertical,"(390.0, 762.0)",1.2333333333333334,0.542,1,86.344,2
0,16,target,"[(1061, 796)]",[],[1],[0.6],vertical,"(890.0, 262.0)",1.3166666666666667,0.565,1,91.793,2
0,17,target,"[(1058, 798)]",[],[1],[0.6],horizontal,"(390.0, 762.0)",0.8166666666666667,0.559,1,97.893,3
0,18,target,"[(1080, 807)]",[],[1],[0.85],horizontal,"(390.0, 262.0)",0.85,nan,0,103.774,0
0,19,target,"[(1053, 836)]",[],[1],[0.85],horizontal,"(390.0, 262.0)",1.6166666666666667,nan,0,108.195,0
0,20,target,"[(1056, 837)]",[],[1],[0.21666666666666667],vertical,"(890.0, 262.0)",1.35,0.182,1,134.591,1
0,21,target,"[(1061, 825)]",[],[1],[0.5333333333333333],horizontal,"(390.0, 262.0)",1.3333333333333333,0.496,1,139.779,1
0,22,target,"[(1074, 796)]",[],[1],[0.6666666666666666],horizontal,"(390.0, 762.0)",1.0,0.63,1,145.113,1
0,23,target,"[(1080, 796)]",[],[1],[0.85],vertical,"(390.0, 262.0)",1.4166666666666667,nan,0,149.847,0
0,24,target,"[(1061, 796)]",[],[1],[0.85],horizontal,"(890.0, 762.0)",0.9,nan,0,155.605,0
0,25,target,"[(1025, 806)]",[],[1],[0.36666666666666664],horizontal,"(890.0, 262.0)",1.4166666666666667,0.334,1,160.676,1
0,26,target,"[(1055, 798)]",[],[1],[0.11666666666666667],vertical,"(390.0, 762.0)",1.1666666666666667,0.084,0,168.236,0
0,27,target,"[(1072, 841)]",[],[1],[0.5833333333333334],horizontal,"(390.0, 262.0)",0.8,0.536,1,172.881,1
0,28,target,"[(1055, 844)]",[],[1],[0.6666666666666666],horizontal,"(890.0, 762.0)",0.6666666666666666,0.62,1,997.416,1
0,29,target,"[(1066, 832)]",[],[1],[0.6166666666666667],horizontal,"(890.0, 262.0)",0.6166666666666667,0.575,1,1002.403,1
0,30,target,"[(1056, 807)]",[],[1],[],vertical,"(890.0, 762.0)",,"('cti', 1.321)",0,1006.842,0
0,31,target,"[(1056, 830)]",[],[1],[0.85],vertical,"(390.0, 262.0)",1.5,nan,0,1011.544,0
0,32,target,"[(1061, 818)]",[],[1],[0.85],horizontal,"(890.0, 762.0)",1.0666666666666667,nan,0,2266.943,0
0,33,catch,"[(1053, 816)]",[],[1],[],horizontal,"(390.0, 762.0)",1.6333333333333333,nan,1,2271.955,1
0,34,target,"[(1072, 835)]",[],[1],[0.85],horizontal,"(890.0, 262.0)",1.6666666666666667,nan,0,2277.304,0
0,35,target,"[(1059, 801)]",[],[1],[0.4666666666666667],vertical,"(890.0, 262.0)",1.45,0.428,1,2282.782,1
0,36,target,"[(1056, 797)]",[],[1],[0.85],horizontal,"(390.0, 762.0)",1.3833333333333333,nan,0,2288.276,0
0,37,target,"[(1061, 792)]",[],[1],[0.7666666666666666],vertical,"(390.0, 762.0)",1.2333333333333334,0.726,1,2293.267,1
0,38,target,"[(1041, 782)]",[],[1],[0.2],vertical,"(390.0, 262.0)",1.6166666666666667,0.17,1,2298.77,1
0,39,target,"[(1080, 791)]",[],[1],[0.55],horizontal,"(890.0, 762.0)",0.7666666666666666,0.504,1,2303.92,1
0,40,target,"[(1072, 791)]",[],[1],[0.6],vertical,"(890.0, 762.0)",0.6333333333333333,0.56,1,2308.673,2
0,41,target,"[(1080, 781)]",[],[1],[0.43333333333333335],vertical,"(890.0, 762.0)",1.3666666666666667,0.393,1,2313.34,2
0,42,target,"[(1074, 799)]",[],[1],[0.48333333333333334],horizontal,"(390.0, 262.0)",1.65,0.439,1,2318.74,2
0,43,target,"[(1109, 806)]",[],[1],[0.16666666666666666],vertical,"(890.0, 762.0)",1.3833333333333333,0.137,0,2324.44,0
0,44,target,"[(1058, 805)]",[],[1],[0.85],vertical,"(390.0, 262.0)",1.0333333333333332,nan,0,2328.557,0
0,45,catch,"[(1065, 795)]",[],[1],[],horizontal,"(890.0, 262.0)",1.6,nan,1,2333.074,1
0,46,target,"[(1095, 796)]",[],[1],[0.85],vertical,"(390.0, 262.0)",0.5333333333333333,nan,0,2337.891,0
0,47,catch,"[(1064, 789)]",[],[1],[],vertical,"(390.0, 262.0)",1.15,nan,1,2342.657,1
0,48,target,"[(1085, 800)]",[],[1],[0.6333333333333333],vertical,"(390.0, 762.0)",0.7166666666666667,0.59,1,2347.526,1
0,49,target,"[(1080, 795)]",[],[1],[0.6],horizontal,"(390.0, 762.0)",0.9,0.555,1,2351.826,1
0,50,target,"[(1072, 777)]",[],[1],[0.5166666666666666],horizontal,"(890.0, 262.0)",0.65,0.473,1,2356.889,2
0,51,target,"[(1109, 780)]",[],[1],[],horizontal,"(390.0, 262.0)",,"('cti', 1.458)",0,2361.333,0
0,52,target,"[(1056, 806)]",[],[1],[0.6666666666666666],vertical,"(390.0, 262.0)",0.95,0.628,1,2365.94,1
0,53,target,"[(1042, 778)]",[],[1],[0.5],horizontal,"(890.0, 262.0)",1.1,0.453,1,2370.808,1
0,54,target,"[(1042, 761)]",[],[1],[0.5833333333333334],vertical,"(390.0, 262.0)",0.7,0.545,1,2375.515,1
0,55,target,"[(1071, 782)]",[],[1],[0.5333333333333333],vertical,"(390.0, 762.0)",1.1,0.49,1,2380.324,2
0,56,target,"[(1069, 775)]",[],[1],[0.43333333333333335],vertical,"(390.0, 262.0)",1.1833333333333333,0.391,1,2386.125,2
0,57,target,"[(1065, 769)]",[],[1],[0.5833333333333334],horizontal,"(390.0, 762.0)",0.7166666666666667,0.537,1,2391.803,2
0,58,target,"[(1062, 810)]",[],[1],[0.4666666666666667],vertical,"(890.0, 762.0)",0.7166666666666667,0.43,1,2396.814,2
0,59,target,"[(1076, 785)]",[],[1],[],vertical,"(390.0, 262.0)",,"('cti', 1.579)",0,2402.041,0
0,60,catch,"[(1063, 782)]",[],[1],[],vertical,"(390.0, 262.0)",1.6666666666666667,"('cti', 1.655),nan",0,2406.673,0
0,61,target,"[(1079, 803)]",[],[1],[0.6],horizontal,"(890.0, 762.0)",0.8,0.565,1,2410.998,1
0,62,target,"[(1079, 776)]",[],[1],[0.3333333333333333],horizontal,"(890.0, 262.0)",1.5166666666666666,0.296,1,2415.358,1
0,63,target,"[(1056, 772)]",[],[1],[0.15],vertical,"(890.0, 762.0)",1.05,0.114,0,2420.401,0
0,64,target,"[(1062, 791)]",[],[1],[0.6666666666666666],horizontal,"(390.0, 262.0)",1.1,0.626,1,2425.075,1
0,65,target,"[(1056, 766)]",[],[1],[0.8166666666666667],horizontal,"(890.0, 262.0)",0.65,0.77,1,2430.059,1
0,66,target,"[(1067, 782)]",[],[1],[0.5166666666666666],vertical,"(390.0, 762.0)",1.1666666666666667,0.477,1,2435.123,1
0,67,target,"[(1065, 775)]",[],[1],[0.48333333333333334],vertical,"(390.0, 262.0)",1.1666666666666667,0.444,1,2440.145,2
0,68,catch,"[(1059, 765)]",[],[1],[],horizontal,"(390.0, 262.0)",1.5666666666666667,nan,1,2445.607,2
0,69,target,"[(1079, 786)]",[],[1],[0.23333333333333334],vertical,"(890.0, 762.0)",1.4333333333333333,0.199,1,2450.659,2
0,70,target,"[(1070, 778)]",[],[1],[0.6333333333333333],vertical,"(890.0, 262.0)",0.8,0.593,1,2455.924,2
0,71,target,"[(1067, 767)]",[],[1],[0.2],horizontal,"(390.0, 262.0)",1.1666666666666667,0.166,1,2460.591,2
0,72,target,"[(1075, 784)]",[],[1],[0.5333333333333333],horizontal,"(890.0, 262.0)",1.1166666666666667,0.49,1,2465.94,3
0,73,target,"[(1076, 764)]",[],[1],[0.4],vertical,"(390.0, 262.0)",1.3166666666666667,0.358,1,2471.689,3
0,74,target,"[(1065, 765)]",[],[1],[0.5],horizontal,"(390.0, 262.0)",1.4,0.466,1,2477.358,3
0,75,target,"[(1052, 781)]",[],[1],[0.3833333333333333],horizontal,"(890.0, 762.0)",1.6,0.351,1,2483.058,3
0,76,target,"[(1080, 787)]",[],[1],[0.4166666666666667],vertical,"(390.0, 262.0)",1.3333333333333333,0.381,1,2489.266,3
0,77,target,"[(1067, 767)]",[],[1],[0.5833333333333334],vertical,"(890.0, 762.0)",1.2333333333333334,0.544,1,2495.021,3
0,78,target,"[(1070, 771)]",[],[1],[0.6166666666666667],vertical,"(390.0, 762.0)",0.5833333333333334,0.583,1,2500.935,3
0,79,target,"[(1045, 775)]",[],[1],[0.3333333333333333],horizontal,"(390.0, 262.0)",1.0166666666666666,0.303,1,2506.217,3
0,80,target,"[(1061, 769)]",[],[1],[0.6166666666666667],vertical,"(890.0, 262.0)",0.6833333333333333,0.581,1,2511.925,3
0,81,target,"[(1061, 779)]",[],[1],[],vertical,"(390.0, 262.0)",,"('cti', 1.423)",0,2517.151,0
0,82,target,"[(1065, 786)]",[],[1],[0.55],horizontal,"(390.0, 262.0)",0.8,0.506,1,2521.63,1
0,83,target,"[(1057, 761)]",[],[1],[0.5333333333333333],vertical,"(390.0, 262.0)",0.9666666666666667,0.491,1,2526.446,1
0,84,target,"[(1077, 788)]",[],[1],[0.23333333333333334],horizontal,"(390.0, 762.0)",1.4,0.198,1,2531.073,1
0,85,target,"[(1075, 785)]",[],[1],[0.5333333333333333],horizontal,"(390.0, 262.0)",0.9333333333333333,0.493,1,2535.808,2
0,86,target,"[(1066, 773)]",[],[1],[0.43333333333333335],horizontal,"(890.0, 762.0)",1.1833333333333333,0.391,1,2540.624,2
0,87,target,"[(1079, 781)]",[],[1],[0.35],vertical,"(390.0, 262.0)",1.3833333333333333,0.312,1,2545.776,2
0,88,target,"[(1073, 783)]",[],[1],[0.6],vertical,"(890.0, 762.0)",0.5333333333333333,0.558,1,2550.943,2
0,89,target,"[(1064, 793)]",[],[1],[0.18333333333333332],vertical,"(890.0, 762.0)",1.4,0.149,0,2555.883,0
0,90,target,"[(1063, 832)]",[],[1],[0.5166666666666666],vertical,"(390.0, 762.0)",1.5833333333333333,0.468,1,2560.826,1
0,91,target,"[(1057, 781)]",[],[1],[0.25],vertical,"(890.0, 762.0)",1.4,0.221,1,2566.559,1
0,92,target,"[(1064, 799)]",[],[1],[0.5],horizontal,"(890.0, 262.0)",0.9166666666666666,0.461,1,2571.637,1
0,93,target,"[(1050, 779)]",[],[1],[0.16666666666666666],horizontal,"(390.0, 262.0)",1.6166666666666667,0.135,0,2576.309,0
0,94,target,"[(1041, 798)]",[],[1],[0.85],vertical,"(890.0, 762.0)",0.8166666666666667,nan,0,2580.951,0
0,95,target,"[(1052, 806)]",[],[1],[0.5833333333333334],vertical,"(390.0, 762.0)",0.7,0.537,1,2585.574,1
0,96,target,"[(1080, 786)]",[],[1],[0.5333333333333333],vertical,"(390.0, 262.0)",1.5333333333333332,0.492,1,2593.642,1
0,97,target,"[(1049, 788)]",[],[1],[0.5833333333333334],vertical,"(390.0, 262.0)",1.1333333333333333,0.544,1,2599.127,1
0,98,target,"[(1065, 772)]",[],[1],[0.85],vertical,"(390.0, 762.0)",1.1,nan,0,2604.176,0
0,99,target,"[(1056, 814)]",[],[1],[0.5333333333333333],horizontal,"(890.0, 762.0)",0.7833333333333333,0.494,1,2608.892,1
0,100,target,"[(1083, 776)]",[],[1],[0.48333333333333334],vertical,"(390.0, 762.0)",1.3666666666666667,0.444,1,2613.925,1
0,101,target,"[(1046, 798)]",[],[1],[0.5333333333333333],horizontal,"(390.0, 262.0)",1.1333333333333333,0.493,1,2619.041,1
0,102,target,"[(1061, 792)]",[],[1],[0.13333333333333333],horizontal,"(390.0, 262.0)",1.5833333333333333,0.103,0,2637.839,0
0,103,target,"[(1065, 791)]",[],[1],[0.5666666666666667],vertical,"(390.0, 262.0)",0.95,0.528,1,2642.794,1
0,104,catch,"[(1077, 793)]",[],[1],[],horizontal,"(890.0, 762.0)",1.1833333333333333,nan,1,2647.192,1
0,105,target,"[(1066, 801)]",[],[1],[0.5333333333333333],vertical,"(890.0, 762.0)",0.8833333333333333,0.492,1,2652.037,1
0,106,target,"[(1230, 385), (360, 395), (1027, 832)]",[],"[0, 0, 1]",[0.85],vertical,"(390.0, 762.0)",0.5833333333333334,nan,0,2656.522,0
0,107,target,"[(1042, 791)]",[],[1],[0.5333333333333333],horizontal,"(890.0, 262.0)",0.5166666666666666,0.5,1,2912.293,1
0,108,target,"[(1062, 789)]",[],[1],[0.3833333333333333],horizontal,"(390.0, 762.0)",1.5833333333333333,0.343,1,2916.944,1
0,109,target,"[(1059, 802)]",[],[1],[0.7],vertical,"(390.0, 262.0)",0.6833333333333333,0.659,1,2922.061,1
0,110,catch,"[(1047, 778)]",[],[1],[],vertical,"(390.0, 762.0)",1.2333333333333334,nan,1,2927.005,2
0,111,catch,"[(1047, 811)]",[],[1],[],horizontal,"(390.0, 762.0)",1.5333333333333332,nan,1,2931.945,2
0,112,target,"[(1065, 775)]",[],[1],[0.5],vertical,"(890.0, 762.0)",0.5666666666666667,0.454,1,2937.365,2
0,113,target,"[(1074, 789)]",[],[1],[0.45],horizontal,"(390.0, 262.0)",1.0666666666666667,0.413,1,2941.893,2
0,114,catch,"[(1075, 788)]",[],[1],[],horizontal,"(890.0, 262.0)",,"('cti', 1.273),nan",0,2947.15,0
0,115,target,"[(1056, 786)]",[],[1],[0.6333333333333333],vertical,"(390.0, 762.0)",1.1666666666666667,0.594,1,2951.76,1
0,116,target,"[(1063, 806)]",[],[1],[0.5333333333333333],vertical,"(890.0, 262.0)",1.1,0.494,1,2956.495,1
0,117,target,"[(1063, 795)]",[],[1],[0.25],vertical,"(390.0, 262.0)",1.3,0.218,1,2961.627,1
0,118,catch,"[(1074, 790)]",[],[1],[],vertical,"(890.0, 762.0)",1.2666666666666666,nan,1,2966.645,2
0,119,target,"[(1076, 787)]",[],[1],[0.85],vertical,"(390.0, 762.0)",0.6,nan,0,2971.994,0
0,120,target,"[(1065, 806)]",[],[1],[0.23333333333333334],vertical,"(890.0, 762.0)",1.5666666666666667,0.199,1,2976.544,1
0,121,target,"[(1067, 792)]",[],[1],[0.3333333333333333],vertical,"(390.0, 762.0)",1.4,0.299,1,2981.826,1
0,122,target,"[(1075, 781)]",[],[1],[0.5666666666666667],vertical,"(390.0, 262.0)",0.8166666666666667,0.524,1,2987.11,1
0,123,target,"[(1062, 786)]",[],[1],[0.48333333333333334],vertical,"(390.0, 262.0)",0.7333333333333333,0.44,1,2992.228,2
0,124,target,"[(1064, 774)]",[],[1],[0.5333333333333333],vertical,"(890.0, 262.0)",1.25,0.492,1,2997.232,2
0,125,target,"[(1074, 778)]",[],[1],[0.45],horizontal,"(890.0, 762.0)",1.35,0.41,1,3002.728,2
0,126,target,"[(1060, 776)]",[],[1],[0.3333333333333333],vertical,"(890.0, 262.0)",1.3666666666666667,0.296,1,3008.228,2
0,127,target,"[(1082, 766)]",[],[1],[0.8333333333333334],vertical,"(390.0, 762.0)",0.9166666666666666,0.784,1,3013.912,2
0,128,target,"[(1062, 766)]",[],[1],[0.48333333333333334],horizontal,"(890.0, 262.0)",1.05,0.445,1,3019.062,3
0,129,target,"[(1075, 786)]",[],[1],[0.5666666666666667],horizontal,"(390.0, 262.0)",1.05,0.527,1,3024.861,3
0,130,target,"[(1059, 779)]",[],[1],[0.5333333333333333],vertical,"(890.0, 762.0)",0.7333333333333333,0.494,1,3030.228,3
0,131,target,"[(1079, 801)]",[],[1],[0.5333333333333333],vertical,"(890.0, 262.0)",0.8666666666666667,0.491,1,3035.747,3
0,132,target,"[(1069, 771)]",[],[1],[0.4666666666666667],horizontal,"(390.0, 762.0)",1.3,0.426,1,3041.037,3
0,133,target,"[(1067, 772)]",[],[1],[0.7],horizontal,"(890.0, 762.0)",1.1333333333333333,0.652,1,3047.028,3
0,134,target,"[(1051, 784)]",[],[1],[0.85],vertical,"(390.0, 762.0)",0.6,nan,0,3052.763,0
0,135,target,"[(1076, 806)]",[],[1],[0.48333333333333334],horizontal,"(890.0, 262.0)",1.1833333333333333,0.441,1,3057.327,1
0,136,target,"[(1041, 781)]",[],[1],[0.3833333333333333],vertical,"(890.0, 262.0)",1.4333333333333333,0.344,1,3062.529,1
0,137,target,"[(1061, 787)]",[],[1],[0.6333333333333333],horizontal,"(390.0, 262.0)",1.05,0.585,1,3067.856,1
0,138,target,"[(1061, 806)]",[],[1],[0.21666666666666667],horizontal,"(390.0, 762.0)",1.3,0.183,1,3073.056,2
0,139,target,"[(1075, 789)]",[],[1],[0.85],horizontal,"(390.0, 262.0)",0.9333333333333333,nan,0,3078.795,0
0,140,target,"[(1079, 799)]",[],[1],[0.7333333333333333],vertical,"(890.0, 262.0)",1.0333333333333332,0.689,1,3083.761,1
0,141,target,"[(1067, 782)]",[],[1],[0.85],vertical,"(390.0, 762.0)",0.55,nan,0,3088.996,0
0,142,catch,"[(1061, 788)]",[],[1],[],horizontal,"(890.0, 262.0)",1.6,nan,1,3093.012,1
0,143,target,"[(1077, 789)]",[],[1],[0.5666666666666667],horizontal,"(890.0, 262.0)",0.55,0.528,1,3098.196,1
0,144,target,"[(1060, 791)]",[],[1],[0.5],vertical,"(890.0, 262.0)",1.1166666666666667,0.469,1,3102.463,1
0,145,target,"[(1080, 790)]",[],[1],[0.06666666666666667],horizontal,"(890.0, 262.0)",1.6833333333333333,0.036,0,3107.262,0
0,146,target,"[(1080, 785)]",[],[1],[0.31666666666666665],horizontal,"(890.0, 762.0)",1.3666666666666667,0.282,1,3111.994,1
0,147,target,"[(1080, 790)]",[],[1],[0.5666666666666667],horizontal,"(390.0, 762.0)",1.3,0.525,1,3116.909,1
0,148,catch,"[(1061, 769)]",[],[1],[],vertical,"(890.0, 762.0)",1.5166666666666666,nan,1,3122.162,1
0,149,target,"[(1028, 814)]",[],[1],[0.5166666666666666],horizontal,"(890.0, 262.0)",1.1833333333333333,0.484,1,3127.434,2
0,150,target,"[(1082, 777)]",[],[1],[0.5833333333333334],horizontal,"(390.0, 262.0)",1.0833333333333333,0.54,1,3133.114,2
0,151,target,"[(1054, 812)]",[],[1],[0.6333333333333333],vertical,"(890.0, 762.0)",1.1833333333333333,0.589,1,3138.441,2
0,152,target,"[(1076, 812)]",[],[1],[0.5833333333333334],vertical,"(890.0, 762.0)",0.6833333333333333,0.541,1,3143.712,2
0,153,target,"[(1046, 757)]",[],[1],[0.6333333333333333],horizontal,"(890.0, 262.0)",0.6833333333333333,0.593,1,3148.538,2
0,154,target,"[(1071, 777)]",[],[1],[0.6],horizontal,"(390.0, 762.0)",0.7666666666666666,0.559,1,3153.839,3
0,155,target,"[(1065, 778)]",[],[1],[0.5333333333333333],horizontal,"(390.0, 762.0)",1.25,0.492,1,3159.584,3
0,156,catch,"[(1061, 798)]",[],[1],[],vertical,"(390.0, 262.0)",1.3833333333333333,nan,1,3165.494,3
0,157,catch,"[(1071, 806)]",[],[1],[],horizontal,"(890.0, 262.0)",,"('cti', 1.515),nan",0,3170.712,0
0,158,target,"[(1082, 776)]",[],[1],[0.5166666666666666],vertical,"(390.0, 262.0)",1.3833333333333333,0.476,1,3175.335,1
0,159,target,"[(1078, 792)]",[],[1],[0.6166666666666667],horizontal,"(390.0, 262.0)",0.5333333333333333,0.576,1,3180.337,1
0,160,target,"[(1078, 786)]",[],[1],[0.48333333333333334],horizontal,"(390.0, 262.0)",0.6833333333333333,0.443,1,3184.824,1
0,161,target,"[(1061, 770)]",[],[1],[0.5333333333333333],vertical,"(390.0, 262.0)",1.3,0.498,1,3189.297,2
0,162,target,"[(1085, 792)]",[],[1],[0.55],vertical,"(890.0, 762.0)",1.0,0.504,1,3194.664,2
0,163,target,"[(1077, 776)]",[],[1],[0.2],horizontal,"(890.0, 762.0)",1.65,0.165,1,3199.763,2
0,164,target,"[(1107, 770)]",[],[1],[0.8166666666666667],vertical,"(390.0, 262.0)",0.7833333333333333,0.766,1,3205.629,2
0,165,target,"[(1071, 782)]",[],[1],[0.3833333333333333],horizontal,"(890.0, 262.0)",1.55,0.344,1,3211.21,2
0,166,target,"[(1070, 788)]",[],[1],[0.6],horizontal,"(890.0, 762.0)",0.5666666666666667,0.561,1,3216.764,3
0,167,target,"[(1080, 777)]",[],[1],[0.5666666666666667],vertical,"(390.0, 262.0)",1.2,0.533,1,3222.09,3
0,168,target,"[(1067, 786)]",[],[1],[0.5833333333333334],vertical,"(390.0, 262.0)",0.7333333333333333,0.54,1,3227.762,3
0,169,target,"[(1067, 766)]",[],[1],[0.43333333333333335],horizontal,"(890.0, 762.0)",1.2166666666666666,0.395,1,3233.134,3
0,170,target,"[(1061, 771)]",[],[1],[0.4],vertical,"(390.0, 262.0)",1.3666666666666667,0.361,1,3239.122,3
0,171,target,"[(1065, 763)]",[],[1],[0.5666666666666667],horizontal,"(390.0, 262.0)",0.65,0.523,1,3244.947,3
0,172,target,"[(1065, 801)]",[],[1],[0.5333333333333333],horizontal,"(890.0, 762.0)",1.15,0.499,1,3250.498,3
0,173,target,"[(1082, 761)]",[],[1],[0.2833333333333333],horizontal,"(390.0, 262.0)",1.4166666666666667,0.249,1,3256.68,3
0,174,target,"[(1085, 789)]",[],[1],[0.6166666666666667],vertical,"(390.0, 762.0)",0.8,0.575,1,3262.429,3
0,175,target,"[(1082, 766)]",[],[1],[0.7],vertical,"(390.0, 762.0)",0.95,0.652,1,3267.997,3
0,176,target,"[(1077, 769)]",[],[1],[0.7166666666666667],horizontal,"(890.0, 262.0)",0.6,0.672,1,3273.78,3
0,177,target,"[(1085, 766)]",[],[1],[0.5666666666666667],vertical,"(390.0, 762.0)",1.0166666666666666,0.522,1,3279.263,3
0,178,target,"[(1072, 771)]",[],[1],[0.6166666666666667],vertical,"(390.0, 262.0)",0.8166666666666667,0.574,1,3285.063,3
0,179,target,"[(1068, 791)]",[],[1],[0.5666666666666667],vertical,"(890.0, 762.0)",1.0166666666666666,0.52,1,3290.295,3
0,180,target,"[(1071, 762)]",[],[1],[0.6833333333333333],horizontal,"(390.0, 762.0)",1.0,0.641,1,3296.022,3
0,181,target,"[(1072, 767)]",[],[1],[0.55],vertical,"(890.0, 762.0)",0.9333333333333333,0.515,1,3301.96,3
0,182,target,"[(1053, 777)]",[],[1],[0.5],vertical,"(890.0, 262.0)",0.9166666666666666,0.473,1,3307.375,3
0,183,target,"[(1067, 786)]",[],[1],[0.26666666666666666],horizontal,"(390.0, 262.0)",1.1666666666666667,0.232,1,3312.954,3
0,184,target,"[(1082, 766)]",[],[1],[0.43333333333333335],vertical,"(890.0, 262.0)",1.6,0.397,1,3318.861,3
0,185,target,"[(1075, 791)]",[],[1],[0.5333333333333333],vertical,"(890.0, 762.0)",0.8166666666666667,0.491,1,3324.697,3
0,186,target,"[(1045, 776)]",[],[1],[0.35],horizontal,"(890.0, 762.0)",1.55,0.315,1,3330.246,3
0,187,target,"[(1068, 764)]",[],[1],[0.5166666666666666],horizontal,"(890.0, 762.0)",1.1,0.478,1,3336.231,3
0,188,target,"[(1068, 774)]",[],[1],[0.36666666666666664],vertical,"(390.0, 762.0)",1.5333333333333332,0.329,1,3341.759,3
0,189,target,"[(1074, 758)]",[],[1],[0.85],vertical,"(390.0, 762.0)",0.7,nan,0,3347.912,0
0,190,target,"[(1067, 796)]",[],[1],[0.6333333333333333],horizontal,"(890.0, 762.0)",0.6666666666666666,0.586,1,3352.581,1
0,191,target,"[(1047, 754)]",[],[1],[0.5166666666666666],horizontal,"(390.0, 762.0)",1.65,0.472,1,3357.38,1
0,192,target,"[(1066, 769)]",[],[1],[0.6333333333333333],horizontal,"(390.0, 762.0)",0.55,0.586,1,3362.912,1
0,193,target,"[(1081, 771)]",[],[1],[0.45],horizontal,"(390.0, 762.0)",1.3666666666666667,0.422,1,3367.454,2
0,194,target,"[(1083, 779)]",[],[1],[0.5833333333333334],horizontal,"(390.0, 262.0)",0.5333333333333333,0.54,1,3372.697,2
0,195,target,"[(1046, 783)]",[],[1],[0.35],vertical,"(890.0, 762.0)",1.0333333333333332,0.312,1,3377.214,2
0,196,target,"[(1064, 780)]",[],[1],[],horizontal,"(890.0, 262.0)",,"('cti', 1.419)",0,3382.497,0
0,197,target,"[(1083, 776)]",[],[1],[0.6833333333333333],vertical,"(890.0, 262.0)",0.8666666666666667,0.643,1,3387.215,1
0,198,target,"[(1081, 756)]",[],[1],[0.6166666666666667],horizontal,"(390.0, 762.0)",1.0166666666666666,0.576,1,3392.212,1
0,199,target,"[(1068, 758)]",[],[1],[],horizontal,"(390.0, 762.0)",,"('cti', 1.489)",0,3396.963,0
0,200,target,"[(1063, 787)]",[],[1],[0.55],vertical,"(890.0, 762.0)",1.05,0.511,1,3401.487,1
0,201,target,"[(1078, 780)]",[],[1],[0.55],vertical,"(890.0, 762.0)",1.1166666666666667,0.506,1,3406.622,1
0,202,target,"[(1041, 815)]",[],[1],[0.11666666666666667],vertical,"(890.0, 762.0)",1.5166666666666666,0.085,0,3411.246,0
0,203,target,"[(1049, 776)]",[],[1],[0.5833333333333334],vertical,"(390.0, 262.0)",0.8166666666666667,0.541,1,3415.92,1
0,204,target,"[(1041, 765)]",[],[1],[0.5333333333333333],horizontal,"(390.0, 262.0)",0.9666666666666667,0.495,1,3420.807,1
0,205,target,"[(1062, 766)]",[],[1],[0.4666666666666667],vertical,"(890.0, 262.0)",0.7666666666666666,0.432,1,3425.778,1
0,206,target,"[(1054, 781)]",[],[1],[],horizontal,"(390.0, 762.0)",,"('cti', 1.404)",0,3430.475,0
0,207,target,"[(1075, 791)]",[],[1],[0.6166666666666667],vertical,"(890.0, 262.0)",0.5166666666666666,0.576,1,3435.347,1
0,208,target,"[(1057, 783)]",[],[1],[0.3833333333333333],horizontal,"(390.0, 262.0)",1.4333333333333333,0.342,1,3439.825,1
0,209,target,"[(1059, 786)]",[],[1],[0.5166666666666666],vertical,"(390.0, 262.0)",1.4,0.474,1,3445.155,1
0,210,target,"[(1065, 807)]",[],[1],[0.21666666666666667],vertical,"(390.0, 762.0)",1.6666666666666667,0.18,1,3450.407,2
0,211,target,"[(1052, 784)]",[],[1],[0.16666666666666666],horizontal,"(890.0, 762.0)",1.6166666666666667,0.134,0,3455.914,0
0,212,target,"[(1059, 776)]",[],[1],[0.4666666666666667],vertical,"(890.0, 762.0)",0.9,0.424,1,3460.964,1
0,213,target,"[(1067, 809)]",[],[1],[0.5666666666666667],vertical,"(390.0, 762.0)",0.8166666666666667,0.527,1,3465.875,1
0,214,target,"[(1077, 782)]",[],[1],[0.31666666666666665],vertical,"(890.0, 762.0)",1.4666666666666666,0.282,1,3470.813,1
0,215,target,"[(1047, 811)]",[],[1],[0.7],vertical,"(390.0, 762.0)",1.4,0.654,1,3476.347,2
0,216,target,"[(1085, 782)]",[],[1],[0.7333333333333333],horizontal,"(890.0, 262.0)",0.55,0.686,1,3482.076,2
0,217,target,"[(1056, 785)]",[],[1],[0.7833333333333333],vertical,"(390.0, 762.0)",1.0333333333333332,0.75,1,3486.781,2
0,218,target,"[(1065, 777)]",[],[1],[],horizontal,"(390.0, 762.0)",,"('cti', 1.277)",0,3492.484,0
0,219,target,"[(1056, 807)]",[],[1],[0.31666666666666665],horizontal,"(390.0, 262.0)",1.4333333333333333,0.28,1,3496.902,1
0,220,target,"[(1064, 799)]",[],[1],[0.06666666666666667],vertical,"(890.0, 762.0)",1.6833333333333333,0.034,0,3502.264,0
0,221,target,"[(1075, 781)]",[],[1],[0.7833333333333333],vertical,"(390.0, 762.0)",1.2333333333333334,0.75,1,3507.03,1
0,222,target,"[(1061, 786)]",[],[1],[0.35],vertical,"(390.0, 762.0)",1.6,0.309,1,3512.163,1
0,223,catch,"[(1078, 778)]",[],[1],[],vertical,"(890.0, 262.0)",1.6666666666666667,nan,1,3517.664,1
0,224,target,"[(1061, 808)]",[],[1],[0.85],vertical,"(890.0, 762.0)",0.5666666666666667,nan,0,3522.59,0
0,225,catch,"[(1025, 840)]",[],[1],[],vertical,"(390.0, 762.0)",1.2666666666666666,nan,1,3526.639,1
0,226,target,"[(1063, 786)]",[],[1],[0.6],horizontal,"(390.0, 762.0)",1.2833333333333332,0.557,1,3531.331,1
0,227,target,"[(1085, 795)]",[],[1],[0.5333333333333333],horizontal,"(390.0, 762.0)",1.1666666666666667,0.496,1,3536.614,1
0,228,target,"[(1027, 813)]",[],[1],[0.5166666666666666],vertical,"(890.0, 262.0)",0.5833333333333334,0.483,1,3541.833,2
0,229,target,"[(1061, 785)]",[],[1],[0.25],horizontal,"(890.0, 762.0)",1.4833333333333334,0.22,1,3547.203,2
0,230,catch,"[(1076, 794)]",[],[1],[],horizontal,"(390.0, 762.0)",1.55,nan,1,3552.392,2
0,231,target,"[(1065, 779)]",[],[1],[0.5833333333333334],horizontal,"(390.0, 762.0)",0.8,0.544,1,3557.51,2
0,232,target,"[(1084, 795)]",[],[1],[0.25],vertical,"(890.0, 762.0)",1.3666666666666667,0.219,1,3563.002,2
0,233,target,"[(1077, 799)]",[],[1],[0.5833333333333334],vertical,"(890.0, 262.0)",0.6166666666666667,0.539,1,3568.28,3
0,234,target,"[(1075, 796)]",[],[1],[0.6],horizontal,"(390.0, 762.0)",0.95,0.559,1,3573.627,3
0,235,target,"[(1055, 807)]",[],[1],[0.8166666666666667],vertical,"(390.0, 762.0)",1.1,0.777,1,3579.297,3
0,236,catch,"[(1068, 794)]",[],[1],[],vertical,"(390.0, 262.0)",1.6666666666666667,nan,1,3585.441,3
0,237,target,"[(1085, 791)]",[],[1],[0.35],vertical,"(890.0, 262.0)",1.2,0.309,1,3591.282,3
0,238,target,"[(1080, 797)]",[],[1],[0.5833333333333334],vertical,"(890.0, 762.0)",0.9666666666666667,0.537,1,3596.831,3
0,239,target,"[(1065, 779)]",[],[1],[0.5],horizontal,"(390.0, 762.0)",1.2166666666666666,0.457,1,3602.653,3
0,240,target,"[(1038, 816)]",[],[1],[0.5333333333333333],horizontal,"(390.0, 262.0)",0.8666666666666667,0.492,1,3608.652,3
0,241,target,"[(1064, 786)]",[],[1],[0.7166666666666667],vertical,"(390.0, 762.0)",0.8166666666666667,0.669,1,3614.932,3
0,242,catch,"[(1076, 778)]",[],[1],[],horizontal,"(390.0, 762.0)",1.5166666666666666,nan,1,3620.838,3
0,243,target,"[(1061, 790)]",[],[1],[0.4],horizontal,"(890.0, 262.0)",1.3666666666666667,0.36,1,3626.681,3
0,244,target,"[(1066, 786)]",[],[1],[0.31666666666666665],horizontal,"(890.0, 762.0)",1.3166666666666667,0.279,1,3632.731,3
0,245,target,"[(1066, 787)]",[],[1],[0.6666666666666666],horizontal,"(390.0, 762.0)",1.1166666666666667,0.624,1,3638.614,3
0,246,target,"[(1061, 784)]",[],[1],[0.8],horizontal,"(890.0, 262.0)",0.5333333333333333,0.75,1,3644.692,3
0,247,target,"[(1066, 791)]",[],[1],[0.5833333333333334],horizontal,"(890.0, 262.0)",0.75,0.534,1,3650.073,3
0,248,target,"[(1075, 782)]",[],[1],[0.4166666666666667],horizontal,"(390.0, 762.0)",1.3,0.381,1,3655.848,3
0,249,target,"[(1070, 771)]",[],[1],[0.3333333333333333],vertical,"(390.0, 262.0)",1.45,0.295,1,3661.481,3
0,250,target,"[(1061, 779)]",[],[1],[0.5666666666666667],horizontal,"(390.0, 262.0)",0.85,0.543,1,3667.348,3
0,251,target,"[(1079, 776)]",[],[1],[0.5666666666666667],horizontal,"(390.0, 262.0)",0.6,0.53,1,3673.044,3
0,252,target,"[(1071, 777)]",[],[1],[0.36666666666666664],horizontal,"(390.0, 262.0)",1.55,0.329,1,3678.451,3
0,253,target,"[(1085, 783)]",[],[1],[0.85],vertical,"(890.0, 262.0)",0.8833333333333333,nan,0,3684.232,0
0,254,target,"[(1051, 815)]",[],[1],[0.6],vertical,"(390.0, 262.0)",1.15,0.558,1,3688.975,1
0,255,target,"[(1054, 810)]",[],[1],[0.5333333333333333],vertical,"(390.0, 262.0)",1.5833333333333333,0.497,1,3695.197,1
0,256,catch,"[(1070, 808)]",[],[1],[],vertical,"(890.0, 762.0)",1.6333333333333333,nan,1,3700.734,1
0,257,target,"[(1073, 814)]",[],[1],[0.11666666666666667],horizontal,"(890.0, 762.0)",1.6833333333333333,0.086,0,3705.492,0
0,258,target,"[(1082, 781)]",[],[1],[0.55],horizontal,"(390.0, 762.0)",1.35,0.511,1,3710.265,1
0,259,target,"[(1071, 794)]",[],[1],[0.5333333333333333],horizontal,"(390.0, 762.0)",1.4,0.489,1,3715.499,1
0,260,target,"[(1061, 776)]",[],[1],[0.6166666666666667],horizontal,"(890.0, 262.0)",0.9833333333333333,0.575,1,3720.941,1
0,261,target,"[(1082, 806)]",[],[1],[0.5],horizontal,"(390.0, 262.0)",1.3,0.461,1,3725.498,2
0,262,target,"[(1061, 786)]",[],[1],[0.6],vertical,"(890.0, 262.0)",1.2,0.556,1,3731.393,2
0,263,catch,"[(1066, 806)]",[],[1],[],horizontal,"(390.0, 762.0)",1.4,nan,1,3736.881,2
0,264,target,"[(1085, 805)]",[],[1],[0.55],vertical,"(390.0, 762.0)",1.5833333333333333,0.507,1,3742.035,2
0,265,target,"[(1064, 786)]",[],[1],[0.31666666666666665],horizontal,"(390.0, 262.0)",1.4,0.278,1,3747.971,2
0,266,target,"[(1067, 788)]",[],[1],[0.4666666666666667],vertical,"(890.0, 262.0)",1.2166666666666666,0.43,1,3753.499,3
0,267,target,"[(1075, 788)]",[],[1],[0.5],vertical,"(890.0, 262.0)",1.2166666666666666,0.46,1,3759.149,3
0,268,catch,"[(1058, 776)]",[],[1],[],vertical,"(390.0, 262.0)",1.3,nan,1,3764.747,3
0,269,target,"[(1075, 794)]",[],[1],[0.55],vertical,"(890.0, 262.0)",0.6166666666666667,0.51,1,3770.223,3
0,270,target,"[(1089, 763)]",[],[1],[0.4666666666666667],vertical,"(890.0, 762.0)",1.3166666666666667,0.427,1,3775.215,3
0,271,target,"[(1066, 787)]",[],[1],[0.7333333333333333],vertical,"(390.0, 262.0)",1.1,0.689,1,3781.033,3
0,272,target,"[(1053, 797)]",[],[1],[],vertical,"(390.0, 262.0)",,"('cti', 1.421)",0,3786.854,0
0,273,target,"[(1054, 791)]",[],[1],[0.55],vertical,"(390.0, 762.0)",1.25,0.509,1,3791.622,1
0,274,catch,"[(1061, 796)]",[],[1],[],horizontal,"(890.0, 762.0)",1.4166666666666667,nan,1,3796.525,1
0,275,target,"[(1061, 791)]",[],[1],[0.5833333333333334],vertical,"(390.0, 262.0)",0.9,0.541,1,3801.595,1
0,276,target,"[(1055, 812)]",[],[1],[0.26666666666666666],horizontal,"(890.0, 762.0)",1.3833333333333333,0.234,1,3806.783,2
0,277,target,"[(1085, 813)]",[],[1],[0.5666666666666667],vertical,"(890.0, 262.0)",0.6833333333333333,0.528,1,3812.349,2
0,278,target,"[(1061, 781)]",[],[1],[0.55],horizontal,"(390.0, 762.0)",0.5,0.509,1,3817.206,2
0,279,catch,"[(1099, 785)]",[],[1],[],vertical,"(390.0, 262.0)",1.6833333333333333,nan,1,3821.548,2
0,280,target,"[(1080, 791)]",[],[1],[0.5666666666666667],vertical,"(390.0, 262.0)",0.55,0.523,1,3826.777,2
0,281,target,"[(1060, 793)]",[],[1],[0.4166666666666667],vertical,"(390.0, 762.0)",1.5833333333333333,0.383,1,3831.749,3
0,282,target,"[(1085, 792)]",[],[1],[0.6833333333333333],horizontal,"(390.0, 762.0)",0.55,0.647,1,3837.625,3
0,283,target,"[(1061, 770)]",[],[1],[0.6833333333333333],vertical,"(390.0, 262.0)",0.85,0.647,1,3843.455,3
0,284,target,"[(1048, 774)]",[],[1],[],horizontal,"(390.0, 262.0)",,"('cti', 1.467)",0,3849.256,0
0,285,target,"[(1082, 794)]",[],[1],[0.65],vertical,"(890.0, 762.0)",0.7166666666666667,0.613,1,3853.958,1
0,286,catch,"[(1065, 779)]",[],[1],[],vertical,"(390.0, 262.0)",1.3,nan,1,3858.433,1
0,287,catch,"[(1065, 812)]",[],[1],[],vertical,"(890.0, 762.0)",1.5666666666666667,nan,1,3863.338,1
0,288,target,"[(1065, 799)]",[],[1],[0.5833333333333334],horizontal,"(890.0, 262.0)",0.5333333333333333,0.548,1,3868.718,2
0,289,target,"[(1075, 789)]",[],[1],[0.48333333333333334],vertical,"(890.0, 762.0)",1.1666666666666667,0.448,1,3873.703,2
0,290,target,"[(1064, 795)]",[],[1],[0.65],horizontal,"(890.0, 762.0)",0.6333333333333333,0.612,1,3879.011,2
0,291,target,"[(1075, 800)]",[],[1],[0.5333333333333333],vertical,"(390.0, 262.0)",0.5833333333333334,0.495,1,3883.668,2
0,292,target,"[(1059, 784)]",[],[1],[0.5666666666666667],vertical,"(390.0, 262.0)",0.75,0.526,1,3888.393,2
0,293,target,"[(1052, 793)]",[],[1],[0.55],horizontal,"(390.0, 262.0)",0.9833333333333333,0.512,1,3893.519,3
0,294,target,"[(1077, 789)]",[],[1],[0.11666666666666667],horizontal,"(890.0, 762.0)",1.6833333333333333,0.086,0,3899.205,0
0,295,target,"[(1080, 787)]",[],[1],[0.6],vertical,"(890.0, 262.0)",0.75,0.555,1,3903.587,1
0,296,target,"[(1066, 786)]",[],[1],[0.6333333333333333],horizontal,"(890.0, 762.0)",0.55,0.597,1,3908.599,1
0,297,catch,"[(1077, 790)]",[],[1],[],vertical,"(890.0, 262.0)",1.2166666666666666,nan,1,3912.806,1
0,298,target,"[(1080, 792)]",[],[1],[0.65],vertical,"(890.0, 762.0)",1.1,0.613,1,3917.271,2
0,299,target,"[(1061, 799)]",[],[1],[0.11666666666666667],horizontal,"(390.0, 262.0)",1.5833333333333333,0.086,0,3922.99,0
0,300,target,"[(1062, 797)]",[],[1],[0.55],horizontal,"(390.0, 762.0)",1.3333333333333333,0.508,1,3927.947,1
0,301,target,"[(1080, 800)]",[],[1],[0.6333333333333333],vertical,"(390.0, 762.0)",0.9,0.594,1,3933.24,1
0,302,target,"[(1067, 781)]",[],[1],[0.48333333333333334],horizontal,"(890.0, 262.0)",0.65,0.447,1,3937.699,1
0,303,target,"[(1065, 806)]",[],[1],[0.5666666666666667],vertical,"(390.0, 262.0)",1.0166666666666666,0.524,1,3942.384,2
0,304,target,"[(1068, 790)]",[],[1],[0.7666666666666666],horizontal,"(890.0, 762.0)",1.0166666666666666,0.727,1,3947.984,2
0,305,target,"[(1065, 794)]",[],[1],[0.7333333333333333],horizontal,"(890.0, 762.0)",0.65,0.692,1,3953.273,2
0,306,catch,"[(1068, 770)]",[],[1],[],horizontal,"(890.0, 262.0)",1.2,nan,1,3958.459,2
0,307,target,"[(1067, 794)]",[],[1],[0.5166666666666666],vertical,"(890.0, 262.0)",0.55,0.474,1,3963.505,2
0,308,target,"[(1077, 798)]",[],[1],[0.5333333333333333],vertical,"(890.0, 262.0)",0.55,0.505,1,3968.45,3
0,309,target,"[(1072, 791)]",[],[1],[0.5166666666666666],horizontal,"(890.0, 762.0)",1.1666666666666667,0.479,1,3973.589,3
0,310,target,"[(1090, 782)]",[],[1],[0.6333333333333333],vertical,"(890.0, 762.0)",0.6,0.597,1,3979.228,3
0,311,target,"[(1075, 793)]",[],[1],[0.45],horizontal,"(390.0, 762.0)",1.35,0.419,1,3984.183,3
0,312,target,"[(1059, 801)]",[],[1],[0.5833333333333334],horizontal,"(890.0, 762.0)",0.7166666666666667,0.539,1,3989.971,3
0,313,target,"[(1065, 790)]",[],[1],[0.6666666666666666],horizontal,"(390.0, 762.0)",0.8166666666666667,0.627,1,3995.316,3
0,314,target,"[(1065, 800)]",[],[1],[0.2833333333333333],vertical,"(390.0, 262.0)",1.5,0.248,1,4000.684,3
0,315,target,"[(1065, 796)]",[],[1],[0.5833333333333334],vertical,"(390.0, 262.0)",0.8166666666666667,0.542,1,4006.614,3
0,316,target,"[(1073, 789)]",[],[1],[0.85],horizontal,"(390.0, 262.0)",0.65,nan,0,4011.883,0
0,317,target,"[(1064, 800)]",[],[1],[0.5666666666666667],vertical,"(890.0, 262.0)",0.5666666666666667,0.522,1,4015.983,1
0,318,target,"[(1070, 794)]",[],[1],[0.85],vertical,"(390.0, 762.0)",0.5333333333333333,nan,0,4020.453,0
0,319,target,"[(1105, 799)]",[],[1],[0.55],vertical,"(390.0, 762.0)",1.2666666666666666,0.511,1,4024.533,1
0,320,target,"[(1080, 791)]",[],[1],[],horizontal,"(890.0, 262.0)",,"('cti', 1.432)",0,4029.705,0
0,321,target,"[(1075, 796)]",[],[1],[0.7666666666666666],vertical,"(390.0, 262.0)",0.6333333333333333,0.723,1,4034.467,1
0,322,target,"[(1037, 802)]",[],[1],[0.21666666666666667],vertical,"(890.0, 762.0)",1.3666666666666667,0.183,1,4039.368,1
0,323,target,"[(1065, 795)]",[],[1],[0.6666666666666666],horizontal,"(390.0, 762.0)",1.0333333333333332,0.621,1,4044.518,1
0,324,target,"[(1066, 796)]",[],[1],[0.5666666666666667],vertical,"(890.0, 262.0)",1.1333333333333333,0.525,1,4049.73,2
0,325,target,"[(1075, 797)]",[],[1],[0.5833333333333334],horizontal,"(390.0, 262.0)",1.1333333333333333,0.537,1,4055.217,2
0,326,catch,"[(1080, 757)]",[],[1],[],horizontal,"(390.0, 762.0)",1.45,nan,1,4060.399,2
0,327,target,"[(1072, 798)]",[],[1],[0.6],vertical,"(890.0, 262.0)",1.2666666666666666,0.558,1,4065.717,2
0,328,target,"[(1082, 791)]",[],[1],[0.7166666666666667],vertical,"(890.0, 262.0)",1.0333333333333332,0.677,1,4071.738,2
0,329,target,"[(1080, 799)]",[],[1],[0.05],vertical,"(890.0, 762.0)",1.6333333333333333,0.019,0,4077.274,0
0,330,catch,"[(1065, 812)]",[],[1],[],horizontal,"(390.0, 262.0)",1.5,nan,1,4081.935,1
0,331,target,"[(1070, 784)]",[],[1],[0.5833333333333334],horizontal,"(390.0, 762.0)",0.65,0.547,1,4086.751,1
0,332,target,"[(1075, 797)]",[],[1],[0.6833333333333333],vertical,"(390.0, 762.0)",0.7833333333333333,0.637,1,4091.249,1
0,333,target,"[(1080, 803)]",[],[1],[0.6],vertical,"(890.0, 762.0)",1.1333333333333333,0.553,1,4095.909,2
0,334,target,"[(1065, 786)]",[],[1],[0.65],horizontal,"(890.0, 762.0)",0.7166666666666667,0.618,1,4101.116,2
0,335,target,"[(1077, 801)]",[],[1],[0.16666666666666666],vertical,"(890.0, 262.0)",1.55,0.136,0,4106.184,0
0,336,target,"[(1070, 799)]",[],[1],[0.85],horizontal,"(890.0, 762.0)",0.7166666666666667,nan,0,4110.965,0
0,337,target,"[(1061, 802)]",[],[1],[0.55],vertical,"(390.0, 262.0)",1.5833333333333333,0.507,1,4115.25,1
0,338,target,"[(1080, 795)]",[],[1],[0.7833333333333333],horizontal,"(390.0, 762.0)",1.2333333333333334,0.741,1,4120.569,1
0,339,target,"[(1070, 781)]",[],[1],[0.5333333333333333],horizontal,"(890.0, 762.0)",1.1166666666666667,0.492,1,4125.785,1
0,340,target,"[(1072, 794)]",[],[1],[0.45],vertical,"(890.0, 262.0)",1.3666666666666667,0.418,1,4130.701,2
0,341,target,"[(1065, 781)]",[],[1],[0.5666666666666667],vertical,"(890.0, 762.0)",0.7,0.526,1,4135.951,2
0,342,target,"[(1105, 793)]",[],[1],[0.43333333333333335],vertical,"(390.0, 762.0)",1.4666666666666666,0.402,1,4140.765,2
0,343,target,"[(1066, 805)]",[],[1],[0.31666666666666665],horizontal,"(890.0, 262.0)",1.6166666666666667,0.285,1,4146.135,2
0,344,target,"[(1066, 781)]",[],[1],[0.31666666666666665],horizontal,"(390.0, 762.0)",1.55,0.281,1,4152.003,2
0,345,target,"[(1090, 799)]",[],[1],[0.36666666666666664],vertical,"(890.0, 262.0)",1.3333333333333333,0.331,1,4157.65,3
0,346,target,"[(1066, 770)]",[],[1],[0.6333333333333333],horizontal,"(890.0, 262.0)",0.6333333333333333,0.593,1,4163.529,3
0,347,target,"[(1100, 794)]",[],[1],[0.6333333333333333],vertical,"(390.0, 762.0)",0.8666666666666667,0.592,1,4169.023,3
0,348,target,"[(1061, 790)]",[],[1],[0.55],horizontal,"(390.0, 262.0)",0.7666666666666666,0.505,1,4174.902,3
0,349,target,"[(1061, 770)]",[],[1],[0.5],horizontal,"(890.0, 262.0)",1.2833333333333332,0.46,1,4180.301,3
0,350,target,"[(1072, 808)]",[],[1],[0.6166666666666667],horizontal,"(390.0, 762.0)",0.6666666666666666,0.575,1,4186.141,3
0,351,target,"[(1070, 767)]",[],[1],[0.55],horizontal,"(890.0, 762.0)",1.0333333333333332,0.506,1,4191.659,3
0,352,target,"[(1067, 792)]",[],[1],[0.5833333333333334],horizontal,"(890.0, 262.0)",0.9,0.543,1,4197.384,3
0,353,target,"[(1061, 791)]",[],[1],[0.65],horizontal,"(890.0, 762.0)",0.6666666666666666,0.603,1,4203.363,3
0,354,target,"[(1069, 797)]",[],[1],[0.85],horizontal,"(390.0, 762.0)",0.55,nan,0,4208.985,0
0,355,target,"[(1047, 794)]",[],[1],[0.8166666666666667],horizontal,"(890.0, 262.0)",0.5166666666666666,0.774,1,4213.585,1
0,356,target,"[(1052, 784)]",[],[1],[0.2],vertical,"(890.0, 262.0)",1.25,0.166,1,4218.323,1
0,357,target,"[(1065, 791)]",[],[1],[0.85],horizontal,"(390.0, 262.0)",0.6833333333333333,nan,0,4223.19,0
0,358,target,"[(1064, 801)]",[],[1],[0.6833333333333333],horizontal,"(890.0, 262.0)",0.8666666666666667,0.636,1,4227.934,1
0,359,target,"[(1080, 792)]",[],[1],[0.75],vertical,"(390.0, 762.0)",1.25,0.707,1,4232.686,1
0,360,target,"[(1063, 792)]",[],[1],[0.7666666666666666],horizontal,"(890.0, 262.0)",1.1,0.716,1,4238.111,1
0,361,target,"[(1080, 796)]",[],[1],[0.5],horizontal,"(390.0, 762.0)",1.3833333333333333,0.464,1,4243.135,2
0,362,target,"[(1070, 801)]",[],[1],[0.31666666666666665],horizontal,"(890.0, 262.0)",1.1666666666666667,0.283,1,4248.568,2
0,363,target,"[(1070, 797)]",[],[1],[0.5666666666666667],vertical,"(390.0, 262.0)",0.65,0.523,1,4254.152,2
0,364,target,"[(1061, 800)]",[],[1],[0.5333333333333333],horizontal,"(890.0, 762.0)",1.2333333333333334,0.491,1,4259.079,2
0,365,target,"[(1066, 792)]",[],[1],[0.43333333333333335],horizontal,"(390.0, 262.0)",1.4166666666666667,0.391,1,4264.831,2
0,366,target,"[(1065, 767)]",[],[1],[0.7333333333333333],horizontal,"(890.0, 762.0)",1.0,0.686,1,4270.717,3
0,367,target,"[(1075, 799)]",[],[1],[0.5666666666666667],vertical,"(390.0, 762.0)",0.75,0.522,1,4276.435,3
0,368,target,"[(1072, 799)]",[],[1],[0.55],vertical,"(390.0, 262.0)",0.9666666666666667,0.51,1,4282.116,3
0,369,target,"[(1072, 793)]",[],[1],[0.6333333333333333],horizontal,"(390.0, 762.0)",0.5333333333333333,0.588,1,4287.584,3
0,370,target,"[(1056, 770)]",[],[1],[0.05],horizontal,"(890.0, 262.0)",1.6166666666666667,0.018,0,4292.936,0
0,371,target,"[(1065, 791)]",[],[1],[0.5833333333333334],vertical,"(390.0, 262.0)",0.95,0.539,1,4297.666,1
0,372,target,"[(1063, 791)]",[],[1],[0.45],vertical,"(890.0, 262.0)",1.6666666666666667,0.417,1,4302.235,1
0,373,target,"[(1058, 799)]",[],[1],[0.6166666666666667],horizontal,"(390.0, 762.0)",0.9166666666666666,0.578,1,4307.886,1
0,374,target,"[(1061, 781)]",[],[1],[0.35],vertical,"(390.0, 762.0)",1.55,0.312,1,4312.921,2
0,375,target,"[(1065, 796)]",[],[1],[0.85],vertical,"(390.0, 762.0)",0.5166666666666666,nan,0,4318.552,0
0,376,target,"[(1061, 802)]",[],[1],[0.6166666666666667],horizontal,"(390.0, 762.0)",1.0333333333333332,0.571,1,4323.193,1
0,377,target,"[(1061, 798)]",[],[1],[0.4],vertical,"(890.0, 262.0)",1.25,0.36,1,4328.002,1
0,378,target,"[(1064, 776)]",[],[1],[0.5166666666666666],horizontal,"(390.0, 262.0)",0.5666666666666667,0.471,1,4333.069,1
0,379,target,"[(1048, 802)]",[],[1],[0.5666666666666667],vertical,"(890.0, 762.0)",0.6333333333333333,0.525,1,4337.236,2
0,380,target,"[(1068, 774)]",[],[1],[0.85],vertical,"(890.0, 262.0)",1.3,"('cti', 1.282),nan",0,4342.517,0
0,381,target,"[(1068, 825)]",[],[1],[0.23333333333333334],vertical,"(890.0, 762.0)",1.4666666666666666,0.201,1,4347.68,1
0,382,target,"[(1057, 796)]",[],[1],[0.5666666666666667],horizontal,"(890.0, 762.0)",0.9333333333333333,0.522,1,4395.857,1
0,383,target,"[(1070, 811)]",[],[1],[0.5333333333333333],vertical,"(890.0, 262.0)",1.3666666666666667,0.495,1,4400.991,1
0,384,target,"[(1042, 796)]",[],[1],[0.6666666666666666],vertical,"(390.0, 762.0)",0.65,0.627,1,4406.118,2
0,385,target,"[(1066, 801)]",[],[1],[0.5666666666666667],horizontal,"(890.0, 262.0)",0.6333333333333333,0.527,1,4411.186,2
0,386,target,"[(1038, 796)]",[],[1],[0.5666666666666667],horizontal,"(890.0, 762.0)",0.9833333333333333,0.525,1,4416.025,2
0,387,target,"[(1061, 799)]",[],[1],[0.85],horizontal,"(890.0, 762.0)",0.55,nan,0,4421.185,0
0,388,target,"[(1065, 796)]",[],[1],[0.5833333333333334],horizontal,"(390.0, 262.0)",1.25,0.547,1,4425.303,1
0,389,catch,"[(1071, 798)]",[],[1],[],horizontal,"(390.0, 762.0)",1.3833333333333333,nan,1,4430.336,1
0,390,target,"[(1075, 799)]",[],[1],[0.48333333333333334],vertical,"(890.0, 262.0)",1.35,0.443,1,4435.136,1
0,391,target,"[(1046, 791)]",[],[1],[0.6],vertical,"(390.0, 262.0)",0.6333333333333333,0.564,1,4440.654,2
0,392,target,"[(1080, 801)]",[],[1],[0.2],vertical,"(890.0, 762.0)",1.5833333333333333,0.171,1,4445.665,2
0,393,target,"[(1065, 543), (1187, 687), (1187, 662), (1192, 708), (1153, 698), (1158, 672), (1002, 435), (1182, 700), (1085, 702), (1117, 752), (1124, 806)]",[],"[0, 0, 0, 0, 0, 0, 0, 0, 0, 0, 1]",[],horizontal,"(390.0, 762.0)",,"('fix', 0.119)",0,4451.57,0
0,394,target,"[(1172, 361), (1206, 614), (1153, 915)]",[],"[0, 0, 1]",[],horizontal,"(890.0, 762.0)",,"('fix', 0.069)",0,4458.268,0
0,395,target,"[(1027, 624), (1182, 677), (1065, 631), (1136, 910)]",[],"[0, 0, 0, 1]",[],horizontal,"(390.0, 762.0)",,"('fix', 0.162)",0,4460.554,0
0,396,catch,"[(1168, 638), (1127, 640), (1109, 633), (1180, 653), (1128, 594), (1114, 648), (1187, 578), (1197, 577), (1116, 405), (1109, 606), (1095, 569), (1128, 598), (1085, 449), (1049, 508), (1133, 610), (1174, 661), (1041, 635), (1119, 672), (1065, 633), (1065, 667), (1236, 494), (1065, 712), (1046, 684), (1053, 677), (1065, 704), (1128, 747), (1080, 687), (1182, 675), (1008, 796)]",[],"[0, 0, 0, 0, 0, 0, 0, 0, 0, 0, 0, 0, 0, 0, 0, 0, 0, 0, 0, 0, 0, 0, 0, 0, 0, 0, 0, 0, 1]",[],horizontal,"(390.0, 762.0)",1.6666666666666667,"('fix', 0.687),nan",0,4463.32,0
0,397,target,"[(1235, 786), (1143, 705), (1167, 699), (1128, 816)]","[(1143, 812)]","[0, 0, 0, 1]",[0.3833333333333333],horizontal,"(390.0, 762.0)",,"('bar', 0.396)",0,4519.352,0
0,398,catch,"[(1148, 764)]",[],[1],[],vertical,"(890.0, 262.0)",,"('cti', 0.747),nan",0,4538.586,0
0,399,target,"[(1209, 766)]",[],[1],[],vertical,"(390.0, 762.0)",,"('cti', 0.923)",0,4545.238,0
0,400,target,"[(1155, 747), (1051, 849)]",[],"[0, 1]",[0.85],horizontal,"(390.0, 762.0)",0.55,nan,0,4556.108,0
0,401,target,"[(416, 646), (1065, 900)]",[],"[0, 1]",[0.6166666666666667],vertical,"(890.0, 762.0)",0.55,0.572,1,4567.351,1
0,402,target,"[(1058, 821)]",[],[1],[0.85],vertical,"(390.0, 762.0)",0.65,nan,0,4585.454,0
0,403,target,"[(1042, 813)]",[],[1],[0.6333333333333333],vertical,"(390.0, 262.0)",0.8666666666666667,0.586,1,4589.813,1
0,404,target,"[(1073, 815)]",[],[1],[0.85],horizontal,"(390.0, 762.0)",1.6666666666666667,nan,0,4595.155,0
0,405,target,"[(1052, 800)]",[],[1],[0.5833333333333334],vertical,"(390.0, 262.0)",1.1833333333333333,0.541,1,4600.636,1
0,406,target,"[(1081, 821)]",[],[1],[0.6833333333333333],horizontal,"(390.0, 762.0)",0.7166666666666667,0.636,1,4605.809,1
0,407,target,"[(1043, 807)]",[],[1],[0.6666666666666666],horizontal,"(890.0, 262.0)",1.25,0.624,1,4610.456,1
0,408,target,"[(1055, 796)]",[],[1],[0.5666666666666667],vertical,"(890.0, 262.0)",1.25,0.524,1,4615.374,2
0,409,target,"[(1075, 791)]",[],[1],[0.85],horizontal,"(390.0, 262.0)",0.6666666666666666,nan,0,4620.737,0
0,410,target,"[(1064, 811)]",[],[1],[0.5833333333333334],horizontal,"(390.0, 762.0)",1.0666666666666667,0.54,1,4625.145,1
0,411,target,"[(1075, 786)]",[],[1],[0.5833333333333334],vertical,"(890.0, 762.0)",1.1833333333333333,0.538,1,4630.613,1
0,412,target,"[(1078, 812)]",[],[1],[0.5333333333333333],vertical,"(890.0, 262.0)",0.9333333333333333,0.504,1,4636.006,1
0,413,target,"[(1061, 801)]",[],[1],[0.8],horizontal,"(390.0, 762.0)",1.1333333333333333,0.748,1,4640.703,2
0,414,target,"[(1065, 813)]",[],[1],[0.85],horizontal,"(390.0, 762.0)",1.5333333333333332,nan,0,4646.453,0
0,415,target,"[(1065, 824)]",[],[1],[0.7],horizontal,"(890.0, 762.0)",1.1,0.654,1,4651.836,1
0,416,target,"[(1065, 804)]",[],[1],[0.85],vertical,"(890.0, 262.0)",0.5333333333333333,nan,0,4659.577,0
0,417,target,"[(1052, 818)]",[],[1],[0.85],horizontal,"(390.0, 262.0)",0.75,nan,0,4663.753,0
0,418,target,"[(1056, 813)]",[],[1],[0.85],horizontal,"(890.0, 762.0)",0.6,nan,0,4668.419,0
0,419,target,"[(1044, 812)]",[],[1],[0.5],vertical,"(890.0, 762.0)",1.4333333333333333,0.462,1,4688.47,1
0,420,target,"[(1068, 816)]",[],[1],[0.6333333333333333],vertical,"(890.0, 762.0)",0.8333333333333334,0.59,1,4693.971,1
0,421,catch,"[(1070, 815)]",[],[1],[],vertical,"(890.0, 262.0)",1.5833333333333333,nan,1,4698.449,1
0,422,target,"[(1068, 818)]",[],[1],[0.55],vertical,"(390.0, 762.0)",1.5,0.51,1,4703.687,2
0,423,target,"[(1073, 819)]",[],[1],[0.35],horizontal,"(890.0, 762.0)",1.6166666666666667,0.31,1,4709.495,2
0,424,target,"[(1075, 808)]",[],[1],[0.85],vertical,"(390.0, 262.0)",0.9333333333333333,nan,0,4714.833,0
0,425,target,"[(1073, 773)]",[],[1],[0.75],vertical,"(390.0, 762.0)",1.2166666666666666,0.71,1,4719.969,1
0,426,target,"[(1080, 800)]",[],[1],[0.8166666666666667],horizontal,"(390.0, 762.0)",0.95,0.772,1,4725.076,1
0,427,target,"[(1111, 808)]",[],[1],[0.5333333333333333],horizontal,"(390.0, 762.0)",1.0,0.489,1,4730.452,1
0,428,target,"[(1075, 793)]",[],[1],[0.5333333333333333],horizontal,"(390.0, 262.0)",1.55,0.493,1,4735.282,2
0,429,target,"[(1134, 760)]",[],[1],[0.5],horizontal,"(390.0, 262.0)",1.6166666666666667,0.46,1,4741.479,2
0,430,target,"[(1142, 786)]",[],[1],[0.5666666666666667],horizontal,"(890.0, 262.0)",0.8666666666666667,0.528,1,4747.082,2
0,431,target,"[(1080, 790)]",[],[1],[0.85],vertical,"(390.0, 762.0)",0.95,nan,0,4752.52,0
0,432,target,"[(1085, 801)]",[],[1],[0.85],horizontal,"(390.0, 262.0)",1.1,nan,0,4757.654,0
0,433,target,"[(1101, 797)]",[],[1],[0.25],vertical,"(390.0, 262.0)",1.6833333333333333,0.221,1,4762.62,1
0,434,target,"[(1064, 809)]",[],[1],[0.4666666666666667],horizontal,"(890.0, 762.0)",1.1833333333333333,0.428,1,4767.92,1
0,435,target,"[(1087, 795)]",[],[1],[0.8],vertical,"(890.0, 762.0)",0.5833333333333334,0.762,1,4773.255,1
0,436,target,"[(1084, 801)]",[],[1],[0.65],horizontal,"(890.0, 262.0)",0.6833333333333333,0.607,1,4778.304,2
0,437,target,"[(1101, 785)]",[],[1],[0.85],vertical,"(390.0, 762.0)",1.2,nan,0,4783.729,0
0,438,target,"[(1070, 804)]",[],[1],[0.7833333333333333],horizontal,"(390.0, 762.0)",0.6,0.743,1,4789.187,1
0,439,target,"[(1071, 778)]",[],[1],[0.8],vertical,"(390.0, 762.0)",0.6666666666666666,0.758,1,4793.975,1
0,440,target,"[(1070, 800)]",[],[1],[0.5833333333333334],vertical,"(890.0, 262.0)",1.1333333333333333,0.541,1,4798.988,1
0,441,target,"[(1054, 783)]",[],[1],[0.5],vertical,"(390.0, 262.0)",1.6,0.457,1,4804.205,2
0,442,target,"[(1087, 794)]",[],[1],[0.5166666666666666],horizontal,"(390.0, 262.0)",1.4333333333333333,0.482,1,4809.887,2
0,443,target,"[(1099, 786)]",[],[1],[0.55],vertical,"(890.0, 762.0)",1.5333333333333332,0.515,1,4815.792,2
0,444,target,"[(1065, 792)]",[],[1],[0.4666666666666667],horizontal,"(390.0, 262.0)",0.8,0.427,1,4821.834,2
0,445,target,"[(1068, 792)]",[],[1],[0.23333333333333334],horizontal,"(890.0, 262.0)",1.0833333333333333,0.2,1,4827.328,2
0,446,target,"[(1080, 807)]",[],[1],[0.45],horizontal,"(390.0, 262.0)",1.45,0.418,1,4832.205,3
0,447,target,"[(1080, 789)]",[],[1],[0.7666666666666666],vertical,"(890.0, 762.0)",0.5666666666666667,0.717,1,4838.435,3
0,448,target,"[(1070, 800)]",[],[1],[0.85],vertical,"(890.0, 262.0)",0.9666666666666667,nan,0,4843.782,0
0,449,target,"[(1065, 801)]",[],[1],[0.5833333333333334],vertical,"(890.0, 262.0)",0.55,0.548,1,4848.654,1
0,450,target,"[(1081, 804)]",[],[1],[0.6666666666666666],vertical,"(390.0, 762.0)",0.7666666666666666,0.626,1,4853.155,1
0,451,target,"[(1088, 802)]",[],[1],[0.5166666666666666],horizontal,"(390.0, 262.0)",1.65,0.478,1,4858.02,1
0,452,target,"[(1071, 806)]",[],[1],[0.5666666666666667],horizontal,"(390.0, 762.0)",1.4166666666666667,0.531,1,4863.745,2
0,453,target,"[(1066, 815)]",[],[1],[0.5666666666666667],horizontal,"(890.0, 762.0)",1.0,0.528,1,4869.837,2
0,454,target,"[(1065, 795)]",[],[1],[0.6166666666666667],horizontal,"(890.0, 262.0)",0.5666666666666667,0.58,1,4875.471,2
0,455,target,"[(1078, 790)]",[],[1],[0.7666666666666666],vertical,"(890.0, 762.0)",1.1666666666666667,0.735,1,4880.567,2
0,456,target,"[(1085, 804)]",[],[1],[0.6166666666666667],vertical,"(890.0, 762.0)",0.9,0.577,1,4885.922,2
0,457,target,"[(1050, 787)]",[],[1],[0.6333333333333333],vertical,"(390.0, 762.0)",0.9166666666666666,0.586,1,4891.35,3
0,458,target,"[(1043, 802)]",[],[1],[0.4166666666666667],horizontal,"(390.0, 262.0)",1.65,0.384,1,4897.138,3
0,459,target,"[(1070, 790)]",[],[1],[0.48333333333333334],vertical,"(890.0, 762.0)",1.4166666666666667,0.444,1,4903.221,3
0,460,target,"[(1061, 799)]",[],[1],"[0.85, 0.85]",vertical,"(390.0, 262.0)",1.0833333333333333,"0.803,nan",0,4909.154,0
0,461,target,"[(1075, 796)]",[],[1],[0.7833333333333333],vertical,"(890.0, 262.0)",0.8833333333333333,0.735,1,4914.313,1
0,462,target,"[(1060, 801)]",[],[1],[0.6833333333333333],vertical,"(390.0, 762.0)",1.3666666666666667,0.643,1,4919.342,1
0,463,target,"[(1075, 814)]",[],[1],[0.85],horizontal,"(890.0, 762.0)",0.9,nan,0,4924.574,0
0,464,target,"[(1065, 803)]",[],[1],[0.85],horizontal,"(390.0, 262.0)",0.6,nan,0,4929.071,0
0,465,catch,"[(1064, 806)]",[],[1],[],horizontal,"(890.0, 262.0)",1.35,nan,1,4933.806,1
0,466,target,"[(1080, 809)]",[],[1],[0.5666666666666667],horizontal,"(390.0, 262.0)",1.5333333333333332,0.521,1,4938.616,1
0,467,target,"[(1068, 825)]",[],[1],[0.45],vertical,"(390.0, 262.0)",1.65,0.412,1,4944.135,1
0,468,catch,"[(1068, 811)]",[],[1],[],horizontal,"(390.0, 262.0)",1.4666666666666666,nan,1,4949.456,2
0,469,target,"[(1066, 788)]",[],[1],[0.5166666666666666],vertical,"(390.0, 262.0)",0.5833333333333334,0.476,1,4954.939,2
0,470,catch,"[(1074, 787)]",[],[1],[],horizontal,"(890.0, 262.0)",1.3833333333333333,nan,1,4960.288,2
0,471,catch,"[(1068, 806)]",[],[1],[],vertical,"(390.0, 262.0)",1.55,nan,1,4965.577,2
0,472,target,"[(1065, 799)]",[],[1],[0.5666666666666667],horizontal,"(890.0, 762.0)",1.6166666666666667,0.525,1,4970.856,2
0,473,target,"[(1075, 789)]",[],[1],[0.6],horizontal,"(890.0, 262.0)",0.5166666666666666,0.56,1,4976.598,3
0,474,catch,"[(1078, 803)]",[],[1],[],vertical,"(390.0, 262.0)",1.2166666666666666,nan,1,4981.955,3
0,475,target,"[(1072, 800)]",[],[1],[0.5333333333333333],vertical,"(890.0, 262.0)",0.9833333333333333,0.505,1,4986.897,3
0,476,target,"[(1075, 804)]",[],[1],[0.5833333333333334],horizontal,"(390.0, 262.0)",1.3,0.547,1,4992.788,3
0,477,target,"[(1080, 799)]",[],[1],[0.5333333333333333],vertical,"(390.0, 762.0)",1.4166666666666667,0.49,1,4998.925,3
0,478,target,"[(1071, 796)]",[],[1],[0.25],horizontal,"(390.0, 262.0)",1.6666666666666667,0.219,1,5004.922,3
0,479,target,"[(1065, 825)]",[],[1],[0.5166666666666666],horizontal,"(390.0, 262.0)",1.5833333333333333,0.482,1,5010.738,3
0,480,target,"[(1080, 790)]",[],[1],[0.5833333333333334],horizontal,"(390.0, 262.0)",0.5666666666666667,0.545,1,5017.288,3
0,481,target,"[(1080, 800)]",[],[1],[0.4],horizontal,"(390.0, 262.0)",1.5,0.362,1,5022.739,3
0,482,target,"[(1075, 790)]",[],[1],[0.5666666666666667],horizontal,"(890.0, 762.0)",0.6333333333333333,0.533,1,5028.89,3
0,483,target,"[(1177, 800)]",[],[1],[0.4],horizontal,"(390.0, 262.0)",1.5333333333333332,0.363,1,5034.173,3
0,484,target,"[(1081, 773)]",[],[1],[0.5166666666666666],vertical,"(390.0, 262.0)",0.8333333333333334,0.475,1,5040.154,3
0,485,target,"[(1085, 796)]",[],[1],[0.7],vertical,"(890.0, 262.0)",0.6166666666666667,0.659,1,5045.955,3
0,486,target,"[(1093, 776)]",[],[1],[0.85],horizontal,"(890.0, 762.0)",0.6333333333333333,nan,0,5051.69,0
0,487,target,"[(1048, 801)]",[],[1],[0.5166666666666666],horizontal,"(390.0, 262.0)",1.4666666666666666,0.475,1,5056.51,1
0,488,target,"[(1072, 803)]",[],[1],[0.5666666666666667],horizontal,"(390.0, 262.0)",1.2666666666666666,0.534,1,5062.173,1
0,489,target,"[(1065, 801)]",[],[1],[0.85],horizontal,"(390.0, 262.0)",0.6,nan,0,5067.165,0
0,490,target,"[(1071, 798)]",[],[1],[0.85],vertical,"(890.0, 762.0)",0.7333333333333333,nan,0,5071.657,0
0,491,target,"[(1056, 806)]",[],[1],[0.6333333333333333],horizontal,"(890.0, 262.0)",0.8333333333333334,0.597,1,5075.93,1
0,492,target,"[(1061, 799)]",[],[1],[0.4],vertical,"(890.0, 762.0)",1.4333333333333333,0.359,1,5080.76,1
0,493,target,"[(1066, 776)]",[],[1],[0.6],horizontal,"(890.0, 762.0)",0.5833333333333334,0.561,1,5086.067,1
0,494,target,"[(1080, 782)]",[],[1],[0.5333333333333333],horizontal,"(890.0, 762.0)",1.1,0.492,1,5090.79,2
0,495,catch,"[(1080, 788)]",[],[1],[],vertical,"(390.0, 762.0)",1.2666666666666666,nan,1,5096.545,2
0,496,target,"[(1066, 803)]",[],[1],[0.48333333333333334],vertical,"(890.0, 262.0)",1.1166666666666667,0.451,1,5101.62,2
0,497,target,"[(1067, 781)]",[],[1],[0.6166666666666667],horizontal,"(390.0, 262.0)",1.0166666666666666,0.585,1,5107.017,2
0,498,target,"[(1080, 781)]",[],[1],[0.3333333333333333],horizontal,"(890.0, 762.0)",1.35,0.298,1,5112.207,2
0,499,target,"[(1070, 786)]",[],[1],[0.55],vertical,"(390.0, 262.0)",0.75,0.509,1,5117.473,3
0,500,target,"[(1077, 801)]",[],[1],[0.5666666666666667],vertical,"(890.0, 762.0)",1.35,0.529,1,5122.709,3
0,501,target,"[(1066, 806)]",[],[1],[0.6],vertical,"(390.0, 262.0)",1.0,0.562,1,5128.646,3
0,502,catch,"[(1080, 786)]",[],[1],[],vertical,"(890.0, 762.0)",1.6,nan,1,5134.189,3
0,503,target,"[(1067, 795)]",[],[1],[0.6166666666666667],vertical,"(390.0, 762.0)",1.35,0.57,1,5140.078,3
0,504,target,"[(1081, 797)]",[],[1],[0.3],horizontal,"(390.0, 262.0)",1.55,0.262,1,5146.157,3
0,505,target,"[(1069, 781)]",[],[1],[0.5166666666666666],vertical,"(890.0, 762.0)",0.9333333333333333,0.474,1,5151.889,3
0,506,target,"[(1061, 811)]",[],[1],[0.85],horizontal,"(390.0, 762.0)",0.55,nan,0,5157.857,0
0,507,target,"[(1065, 811)]",[],[1],[],horizontal,"(890.0, 762.0)",,"('cti', 1.38)",0,5162.14,0
0,508,target,"[(1065, 790)]",[],[1],[0.85],horizontal,"(390.0, 262.0)",0.9333333333333333,nan,0,5166.565,0
0,509,target,"[(1065, 794)]",[],[1],[0.7],vertical,"(390.0, 762.0)",1.3,0.651,1,5171.329,1
0,510,target,"[(1104, 822)]",[],[1],[0.85],horizontal,"(890.0, 762.0)",0.5166666666666666,nan,0,5176.608,0
0,511,target,"[(1046, 797)]",[],[1],[0.55],horizontal,"(390.0, 762.0)",0.6,0.511,1,5180.839,1
0,512,target,"[(1061, 776)]",[],[1],[0.55],vertical,"(390.0, 262.0)",0.95,0.514,1,5185.806,1
0,513,catch,"[(1063, 816)]",[],[1],[],vertical,"(390.0, 262.0)",1.2,nan,1,5190.792,1
0,514,target,"[(1072, 801)]",[],[1],[],vertical,"(390.0, 762.0)",,"('cti', 1.248)",0,5195.824,0
0,515,target,"[(1070, 805)]",[],[1],[0.6166666666666667],vertical,"(390.0, 762.0)",1.2,0.583,1,5200.423,1
0,516,target,"[(1064, 772)]",[],[1],[],horizontal,"(390.0, 762.0)",,"('cti', 1.132)",0,5205.813,0
0,517,target,"[(1117, 768)]",[],[1],[0.6833333333333333],horizontal,"(890.0, 762.0)",1.0333333333333332,0.646,1,5210.295,1
0,518,target,"[(1109, 801)]",[],[1],[0.65],horizontal,"(390.0, 762.0)",0.7833333333333333,0.613,1,5215.473,1
0,519,target,"[(1070, 796)]",[],[1],[0.7166666666666667],horizontal,"(390.0, 762.0)",0.5,0.678,1,5220.066,1
0,520,target,"[(1075, 795)]",[],[1],[0.5166666666666666],vertical,"(890.0, 762.0)",0.8666666666666667,0.479,1,5224.624,2
0,521,target,"[(1080, 782)]",[],[1],[],vertical,"(390.0, 262.0)",,"('cti', 1.137)",0,5229.723,0
0,522,target,"[(1076, 801)]",[],[1],[0.7166666666666667],horizontal,"(390.0, 262.0)",0.6,0.676,1,5233.89,1
0,523,target,"[(1114, 757)]",[],[1],[0.6166666666666667],vertical,"(390.0, 262.0)",0.9166666666666666,0.581,1,5238.323,1
0,524,target,"[(1044, 802)]",[],[1],[0.5333333333333333],horizontal,"(890.0, 762.0)",0.9166666666666666,0.495,1,5242.823,1
0,525,target,"[(1066, 796)]",[],[1],[0.45],vertical,"(390.0, 262.0)",1.4333333333333333,0.41,1,5247.725,2
0,526,target,"[(1119, 795)]",[],[1],[0.5333333333333333],vertical,"(390.0, 762.0)",1.0666666666666667,0.5,1,5253.374,2
0,527,target,"[(1080, 796)]",[],[1],[0.05],horizontal,"(890.0, 262.0)",1.65,0.02,0,5258.857,0
0,528,target,"[(1064, 809)]",[],[1],[0.7833333333333333],vertical,"(390.0, 762.0)",1.6,0.74,1,5263.523,1
0,529,target,"[(1061, 776)]",[],[1],[0.5166666666666666],horizontal,"(890.0, 262.0)",1.15,0.473,1,5269.194,1
0,530,target,"[(1071, 796)]",[],[1],[0.21666666666666667],horizontal,"(890.0, 762.0)",1.6333333333333333,0.184,1,5273.957,1
0,531,target,"[(1071, 796)]",[],[1],[0.6],horizontal,"(890.0, 762.0)",1.05,0.556,1,5278.987,2
0,532,target,"[(1100, 777)]",[],[1],[0.25],horizontal,"(890.0, 262.0)",1.4666666666666666,0.222,1,5284.347,2
0,533,target,"[(1066, 798)]",[],[1],[0.16666666666666666],horizontal,"(890.0, 262.0)",1.6666666666666667,0.134,0,5290.007,0
0,534,target,"[(1065, 792)]",[],[1],[0.4666666666666667],vertical,"(390.0, 762.0)",1.5833333333333333,0.427,1,5295.022,1
0,535,target,"[(1071, 795)]",[],[1],[0.4666666666666667],vertical,"(890.0, 262.0)",1.4333333333333333,0.428,1,5300.39,1
0,536,target,"[(1079, 770)]",[],[1],[0.7166666666666667],horizontal,"(890.0, 762.0)",1.05,0.673,1,5306.007,1
0,537,target,"[(1113, 795)]",[],[1],[0.26666666666666666],horizontal,"(390.0, 262.0)",1.65,0.23,1,5310.873,2
0,538,target,"[(1060, 802)]",[],[1],[0.65],horizontal,"(390.0, 762.0)",1.1833333333333333,0.603,1,5316.734,2
0,539,catch,"[(1080, 790)]",[],[1],[],horizontal,"(390.0, 262.0)",1.4833333333333334,nan,1,5322.124,2
0,540,target,"[(1070, 777)]",[],[1],[0.5333333333333333],vertical,"(890.0, 262.0)",0.75,0.496,1,5327.59,2
0,541,catch,"[(1114, 775)]",[],[1],[],vertical,"(390.0, 762.0)",1.2666666666666666,nan,1,5332.341,2
0,542,target,"[(1065, 792)]",[],[1],[0.5833333333333334],horizontal,"(890.0, 762.0)",1.1666666666666667,0.543,1,5337.29,3
0,543,target,"[(1053, 778)]",[],[1],[0.7333333333333333],vertical,"(390.0, 262.0)",0.5166666666666666,0.692,1,5342.934,3
0,544,target,"[(1053, 819)]",[],[1],[0.6666666666666666],vertical,"(390.0, 262.0)",0.7,0.619,1,5348.025,3
0,545,target,"[(1066, 790)]",[],[1],[0.5333333333333333],vertical,"(890.0, 262.0)",1.1833333333333333,0.492,1,5354.041,3
0,546,target,"[(1071, 783)]",[],[1],[0.85],vertical,"(390.0, 262.0)",0.7833333333333333,nan,0,5359.875,0
0,547,target,"[(1051, 792)]",[],[1],[0.85],vertical,"(390.0, 762.0)",0.8833333333333333,nan,0,5364.79,0
0,548,target,"[(1051, 791)]",[],[1],[0.5666666666666667],horizontal,"(390.0, 762.0)",1.4166666666666667,0.523,1,5369.74,1
0,549,catch,"[(1059, 792)]",[],[1],[],horizontal,"(390.0, 262.0)",1.1833333333333333,nan,1,5375.562,1
0,550,catch,"[(1080, 797)]",[],[1],[],vertical,"(890.0, 262.0)",1.6666666666666667,nan,1,5380.504,1
0,551,target,"[(1071, 793)]",[],[1],[0.65],horizontal,"(390.0, 762.0)",0.6833333333333333,0.614,1,5385.534,2
0,552,target,"[(1053, 793)]",[],[1],[0.5333333333333333],vertical,"(890.0, 262.0)",0.6,0.491,1,5390.809,2
0,553,target,"[(1117, 784)]",[],[1],[0.5666666666666667],vertical,"(390.0, 762.0)",0.7166666666666667,0.531,1,5395.657,2
0,554,target,"[(1123, 768)]",[],[1],[0.85],horizontal,"(390.0, 262.0)",0.6166666666666667,nan,0,5401.025,0
0,555,target,"[(1058, 794)]",[],[1],[0.5333333333333333],horizontal,"(390.0, 762.0)",0.95,0.498,1,5405.449,1
0,556,target,"[(1075, 789)]",[],[1],[0.6],vertical,"(890.0, 262.0)",1.4833333333333334,0.567,1,5410.558,1
0,557,target,"[(1052, 779)]",[],[1],[0.8166666666666667],horizontal,"(890.0, 262.0)",0.7833333333333333,0.769,1,5415.692,1
0,558,target,"[(1114, 789)]",[],[1],[0.6666666666666666],vertical,"(890.0, 262.0)",1.4833333333333334,0.618,1,5420.991,2
0,559,target,"[(1080, 762)]",[],[1],[0.85],horizontal,"(390.0, 762.0)",0.5333333333333333,nan,0,5426.876,0
0,560,target,"[(1059, 809)]",[],[1],[0.05],vertical,"(390.0, 762.0)",1.35,0.02,0,5431.459,0
0,561,catch,"[(1047, 802)]",[],[1],[],horizontal,"(390.0, 762.0)",1.3166666666666667,nan,1,5436.07,1
0,562,target,"[(1065, 814)]",[],[1],[0.5666666666666667],vertical,"(890.0, 762.0)",0.8833333333333333,0.524,1,5441.25,1
0,563,target,"[(1038, 785)]",[],[1],[0.5333333333333333],vertical,"(390.0, 262.0)",0.8333333333333334,0.492,1,5445.74,1
0,564,target,"[(1063, 799)]",[],[1],[0.5666666666666667],vertical,"(890.0, 262.0)",0.95,0.531,1,5450.274,2
0,565,catch,"[(1075, 782)]",[],[1],[],vertical,"(390.0, 762.0)",1.6333333333333333,nan,1,5455.292,2
0,566,target,"[(1057, 805)]",[],[1],[0.8333333333333334],vertical,"(390.0, 762.0)",1.2333333333333334,0.784,1,5460.718,2
0,567,target,"[(1076, 790)]",[],[1],[0.7],vertical,"(390.0, 762.0)",0.6666666666666666,0.655,1,5466.375,2
0,568,target,"[(1059, 799)]",[],[1],[0.36666666666666664],vertical,"(890.0, 762.0)",1.5833333333333333,0.326,1,5471.191,2
0,569,catch,"[(1068, 799)]",[],[1],[],vertical,"(890.0, 762.0)",1.35,nan,1,5477.209,3
0,570,target,"[(1042, 804)]",[],[1],[0.55],vertical,"(890.0, 262.0)",0.7,0.506,1,5482.624,3
0,571,target,"[(1045, 811)]",[],[1],[0.5166666666666666],horizontal,"(390.0, 262.0)",0.9166666666666666,0.471,1,5487.941,3
0,572,target,"[(1056, 785)]",[],[1],[0.45],horizontal,"(890.0, 762.0)",1.2666666666666666,0.412,1,5493.662,3
0,573,catch,"[(1036, 796)]",[],[1],[],horizontal,"(390.0, 762.0)",1.5333333333333332,nan,1,5499.872,3
0,574,catch,"[(1060, 790)]",[],[1],[],horizontal,"(390.0, 762.0)",1.4333333333333333,nan,1,5505.777,3
0,575,target,"[(1056, 791)]",[],[1],[0.55],vertical,"(890.0, 262.0)",1.45,0.513,1,5511.658,3
0,576,target,"[(1075, 800)]",[],[1],[0.31666666666666665],horizontal,"(390.0, 762.0)",1.4833333333333334,0.285,1,5517.909,3
0,577,target,"[(1072, 787)]",[],[1],[0.85],vertical,"(390.0, 762.0)",0.6666666666666666,nan,0,5524.308,0
0,578,target,"[(1042, 800)]",[],[1],[0.6166666666666667],vertical,"(390.0, 762.0)",0.5666666666666667,0.575,1,5529.166,1
0,579,target,"[(1081, 766)]",[],[1],[0.85],vertical,"(390.0, 762.0)",0.6,nan,0,5533.792,0
0,580,target,"[(1045, 796)]",[],[1],[0.45],horizontal,"(390.0, 262.0)",1.4333333333333333,0.414,1,5538.291,1
0,581,target,"[(1075, 800)]",[],[1],[0.5333333333333333],horizontal,"(390.0, 262.0)",0.7166666666666667,0.49,1,5543.235,1
0,582,target,"[(1100, 783)]",[],[1],[0.5666666666666667],vertical,"(390.0, 762.0)",0.6333333333333333,0.528,1,5547.775,1
0,583,target,"[(1076, 782)]",[],[1],[0.5833333333333334],vertical,"(390.0, 762.0)",0.5833333333333334,0.54,1,5552.804,2
0,584,target,"[(1070, 781)]",[],[1],[0.55],horizontal,"(390.0, 762.0)",0.8166666666666667,0.507,1,5557.642,2
0,585,target,"[(1068, 808)]",[],[1],[0.3],vertical,"(390.0, 262.0)",1.25,0.262,1,5562.79,2
0,586,target,"[(1061, 806)]",[],[1],[],vertical,"(390.0, 762.0)",,"('cti', 1.533)",0,5568.015,0
0,587,target,"[(1046, 811)]",[],[1],[0.6166666666666667],vertical,"(390.0, 762.0)",1.4166666666666667,0.579,1,5572.812,1
0,588,target,"[(1061, 811)]",[],[1],[0.5166666666666666],horizontal,"(390.0, 262.0)",1.35,0.477,1,5578.648,1
0,589,target,"[(1071, 784)]",[],[1],[0.85],vertical,"(390.0, 762.0)",1.2666666666666666,nan,0,5584.176,0
0,590,target,"[(1060, 812)]",[],[1],[0.55],vertical,"(890.0, 262.0)",1.3333333333333333,0.51,1,5589.194,1
0,591,target,"[(1071, 798)]",[],[1],[0.5166666666666666],horizontal,"(890.0, 262.0)",0.9166666666666666,0.473,1,5594.466,1
0,592,target,"[(1110, 785)]",[],[1],[0.4166666666666667],horizontal,"(890.0, 262.0)",1.5333333333333332,0.377,1,5599.522,1
0,593,target,"[(1037, 793)]",[],[1],[0.5833333333333334],vertical,"(890.0, 762.0)",0.7833333333333333,0.539,1,5605.008,2
0,594,catch,"[(1077, 766)]",[],[1],[],horizontal,"(390.0, 762.0)",1.6333333333333333,nan,1,5610.008,2
0,595,target,"[(1062, 792)]",[],[1],[0.48333333333333334],vertical,"(390.0, 762.0)",1.5833333333333333,0.442,1,5615.347,2
0,596,target,"[(1072, 784)]",[],[1],"[0.85, 0.85]",vertical,"(890.0, 762.0)",0.9333333333333333,"0.797,nan",0,5621.083,0
0,597,target,"[(1042, 790)]",[],[1],[0.5333333333333333],vertical,"(390.0, 262.0)",1.5166666666666666,0.49,1,5626.322,1
0,598,target,"[(1060, 783)]",[],[1],[0.5666666666666667],horizontal,"(890.0, 762.0)",1.3,0.52,1,5631.605,1
0,599,target,"[(1064, 801)]",[],[1],[0.7666666666666666],horizontal,"(390.0, 762.0)",1.1,0.721,1,5637.042,1
0,600,target,"[(1064, 791)]",[],[1],[0.6666666666666666],vertical,"(390.0, 262.0)",1.0166666666666666,0.621,1,5642.027,2
0,601,catch,"[(1061, 789)]",[],[1],[],horizontal,"(390.0, 262.0)",1.5333333333333332,nan,1,5647.275,2
0,602,target,"[(1045, 751), (1036, 806)]",[],"[0, 1]",[0.85],vertical,"(390.0, 762.0)",1.0166666666666666,nan,0,5652.793,0
0,603,catch,"[(1039, 782)]",[],[1],[],vertical,"(390.0, 262.0)",1.2333333333333334,nan,1,5659.225,1
0,604,target,"[(1057, 799)]",[],[1],[0.85],horizontal,"(390.0, 262.0)",0.5833333333333334,nan,0,5664.175,0
0,605,catch,"[(1036, 794)]",[],[1],[],vertical,"(890.0, 762.0)",1.5333333333333332,nan,1,5668.939,1
0,606,target,"[(1043, 785)]",[],[1],[0.6166666666666667],horizontal,"(890.0, 262.0)",1.1666666666666667,0.574,1,5674.009,1
0,607,target,"[(1071, 784)]",[],[1],[0.5666666666666667],horizontal,"(890.0, 262.0)",1.4333333333333333,0.53,1,5678.946,1
0,608,target,"[(1037, 800)]",[],[1],[0.5666666666666667],vertical,"(390.0, 262.0)",1.65,0.523,1,5683.96,2
0,609,target,"[(1108, 785)]",[],[1],[0.5166666666666666],vertical,"(890.0, 762.0)",1.2833333333333332,0.476,1,5689.643,2
0,610,target,"[(1065, 797)]",[],[1],[0.85],vertical,"(390.0, 762.0)",0.85,nan,0,5694.826,0
0,611,target,"[(1057, 783)]",[],[1],[0.6],vertical,"(890.0, 762.0)",1.1666666666666667,0.559,1,5700.06,1
0,612,target,"[(1084, 778)]",[],[1],[0.6],horizontal,"(390.0, 262.0)",0.55,0.554,1,5704.966,1
0,613,target,"[(1073, 785)]",[],[1],[0.6833333333333333],horizontal,"(890.0, 762.0)",0.6833333333333333,0.642,1,5709.718,1
0,614,target,"[(1062, 780)]",[],[1],[0.6],horizontal,"(890.0, 762.0)",1.3166666666666667,0.561,1,5714.327,2
0,615,target,"[(1100, 762)]",[],[1],[0.5666666666666667],horizontal,"(390.0, 262.0)",0.8,0.524,1,5719.676,2
0,616,catch,"[(1039, 795)]",[],[1],[],vertical,"(890.0, 262.0)",1.4333333333333333,nan,1,5725.009,2
0,617,target,"[(1073, 796)]",[],[1],[0.55],vertical,"(890.0, 762.0)",0.8666666666666667,0.511,1,5730.471,2
0,618,target,"[(1081, 792)]",[],[1],[0.6],horizontal,"(390.0, 262.0)",1.3166666666666667,0.56,1,5736.029,2
0,619,catch,"[(1070, 773)]",[],[1],[],vertical,"(890.0, 262.0)",1.3666666666666667,nan,1,5741.879,3
0,620,target,"[(1039, 806)]",[],[1],[0.65],horizontal,"(390.0, 262.0)",0.65,0.604,1,5747.773,3
0,621,target,"[(1049, 794)]",[],[1],[0.55],horizontal,"(890.0, 762.0)",0.75,0.503,1,5753.159,3
0,622,target,"[(1061, 796)]",[],[1],[0.5],vertical,"(390.0, 262.0)",1.4166666666666667,0.46,1,5758.444,3
0,623,target,"[(1065, 793)]",[],[1],[0.5666666666666667],vertical,"(390.0, 762.0)",1.0,0.526,1,5764.344,3
0,624,target,"[(1065, 796)]",[],[1],[0.26666666666666666],vertical,"(890.0, 262.0)",1.65,0.232,1,5769.91,3
0,625,target,"[(1062, 786)]",[],[1],[0.55],horizontal,"(890.0, 762.0)",1.0333333333333332,0.51,1,5775.993,3
0,626,target,"[(1049, 783)]",[],[1],[0.7333333333333333],vertical,"(890.0, 762.0)",1.15,0.695,1,5782.061,3
0,627,target,"[(1061, 805)]",[],[1],[0.75],vertical,"(390.0, 262.0)",1.4166666666666667,0.716,1,5787.953,3
0,628,target,"[(1065, 788)]",[],[1],[0.5333333333333333],vertical,"(890.0, 262.0)",0.6833333333333333,0.493,1,5794.026,3
0,629,target,"[(1059, 778)]",[],[1],[0.5833333333333334],vertical,"(890.0, 762.0)",0.85,0.542,1,5799.326,3
0,630,target,"[(1058, 766)]",[],[1],[0.4666666666666667],horizontal,"(890.0, 262.0)",0.7,0.429,1,5804.626,3
0,631,target,"[(1056, 798)]",[],[1],[0.6333333333333333],horizontal,"(390.0, 762.0)",0.8666666666666667,0.592,1,5809.78,3
0,632,target,"[(1065, 796)]",[],[1],[0.45],horizontal,"(390.0, 762.0)",0.7666666666666666,0.409,1,5815.233,3
0,633,catch,"[(1038, 770)]",[],[1],[],horizontal,"(390.0, 762.0)",1.3333333333333333,nan,1,5820.489,3
0,634,target,"[(1053, 802)]",[],[1],[0.5666666666666667],vertical,"(890.0, 262.0)",1.3,0.528,1,5826.011,3
0,635,target,"[(1070, 786)]",[],[1],[0.5333333333333333],vertical,"(890.0, 762.0)",1.05,0.488,1,5831.876,3
0,636,target,"[(1086, 759)]",[],[1],[0.48333333333333334],horizontal,"(890.0, 262.0)",1.1666666666666667,0.445,1,5837.96,3
0,637,target,"[(1056, 782)]",[],[1],[0.5],vertical,"(390.0, 262.0)",1.3166666666666667,0.459,1,5843.993,3
0,638,target,"[(1061, 800)]",[],[1],[0.5],horizontal,"(890.0, 262.0)",1.3833333333333333,0.46,1,5850.454,3
0,639,target,"[(1071, 760)]",[],[1],[0.21666666666666667],vertical,"(390.0, 762.0)",0.8833333333333333,0.182,1,5856.053,3
0,640,target,"[(1056, 777)]",[],[1],[],vertical,"(890.0, 262.0)",,"('cti', 1.493)",0,5861.743,0
0,641,target,"[(1071, 795)]",[],[1],[0.4],vertical,"(890.0, 762.0)",1.5166666666666666,0.361,1,5866.652,1
0,642,target,"[(1037, 806)]",[],[1],[0.45],vertical,"(390.0, 762.0)",1.65,0.409,1,5871.811,1
0,643,target,"[(1113, 781)]",[],[1],[0.16666666666666666],vertical,"(390.0, 762.0)",1.6833333333333333,0.132,0,5877.469,0
0,644,target,"[(1056, 810)]",[],[1],[0.6333333333333333],horizontal,"(890.0, 762.0)",0.6666666666666666,0.59,1,5882.494,1
0,645,target,"[(1069, 793)]",[],[1],[0.6333333333333333],horizontal,"(890.0, 762.0)",0.6,0.595,1,5887.477,1
0,646,target,"[(1056, 790)]",[],[1],[0.43333333333333335],horizontal,"(890.0, 762.0)",1.2833333333333332,0.401,1,5891.751,1
0,647,target,"[(1064, 805)]",[],[1],[0.48333333333333334],horizontal,"(390.0, 762.0)",1.4166666666666667,0.448,1,5896.735,2
0,648,target,"[(1063, 759)]",[],[1],[0.5666666666666667],vertical,"(890.0, 262.0)",0.75,0.535,1,5902.073,2
0,649,target,"[(1054, 799)]",[],[1],[0.18333333333333332],horizontal,"(890.0, 262.0)",1.6333333333333333,0.148,0,5906.86,0
0,650,target,"[(1080, 784)]",[],[1],[0.23333333333333334],horizontal,"(890.0, 762.0)",1.65,0.199,1,5911.628,1
0,651,target,"[(1061, 774)]",[],[1],[0.5833333333333334],vertical,"(890.0, 762.0)",1.1166666666666667,0.541,1,5917.031,1
0,652,target,"[(1042, 801)]",[],[1],[0.45],horizontal,"(390.0, 762.0)",1.5,0.41,1,5921.854,1
0,653,target,"[(1065, 757)]",[],[1],[0.5333333333333333],horizontal,"(890.0, 762.0)",1.1333333333333333,0.491,1,5927.821,2
0,654,target,"[(1100, 773)]",[],[1],[0.5833333333333334],vertical,"(390.0, 262.0)",1.0833333333333333,0.541,1,5933.211,2
0,655,target,"[(1064, 812)]",[],[1],[0.6],vertical,"(890.0, 762.0)",0.75,0.561,1,5938.819,2
0,656,target,"[(1056, 767)]",[],[1],[0.6833333333333333],horizontal,"(390.0, 262.0)",0.7,0.642,1,5945.042,2
0,657,target,"[(1056, 802)]",[],[1],[0.5833333333333334],horizontal,"(390.0, 762.0)",0.9666666666666667,0.544,1,5949.961,2
0,658,catch,"[(1072, 792)]",[],[1],[],horizontal,"(390.0, 262.0)",1.5333333333333332,nan,1,5955.157,3
0,659,target,"[(1061, 778)]",[],[1],[0.05],horizontal,"(890.0, 762.0)",1.6333333333333333,0.018,0,5960.739,0
0,660,target,"[(1056, 781)]",[],[1],[0.85],horizontal,"(390.0, 262.0)",0.6833333333333333,nan,0,5965.459,0
0,661,target,"[(1041, 790)]",[],[1],[0.55],horizontal,"(390.0, 762.0)",1.3,0.508,1,5970.276,1
0,662,target,"[(1099, 781)]",[],[1],[0.65],vertical,"(890.0, 262.0)",0.8,0.605,1,5975.24,1
0,663,target,"[(1060, 777)]",[],[1],[0.65],horizontal,"(890.0, 762.0)",0.6833333333333333,0.617,1,5979.562,1
0,664,target,"[(1059, 766)]",[],[1],[0.25],vertical,"(890.0, 762.0)",1.4666666666666666,0.22,1,5984.311,2
0,665,target,"[(1110, 780)]",[],[1],[],horizontal,"(890.0, 262.0)",,"('cti', 1.152)",0,5989.841,0
0,666,catch,"[(1060, 799)]",[],[1],[],vertical,"(390.0, 262.0)",,"('cti', 1.214),nan",0,5994.169,0
0,667,target,"[(1058, 806)]",[],[1],[0.5],vertical,"(890.0, 262.0)",1.5833333333333333,0.468,1,5998.7,1
0,668,target,"[(1063, 790)]",[],[1],[],horizontal,"(890.0, 762.0)",,"('cti', 1.55)",0,6003.927,0
0,669,target,"[(1032, 756)]",[],[1],[0.55],vertical,"(890.0, 262.0)",0.6666666666666666,0.507,1,6008.844,1
0,670,target,"[(1061, 776)]",[],[1],[0.75],horizontal,"(390.0, 762.0)",0.9166666666666666,0.711,1,6013.862,1
0,671,target,"[(1100, 796)]",[],[1],[0.4666666666666667],horizontal,"(390.0, 762.0)",0.9,0.433,1,6019.017,1
0,672,target,"[(1067, 783)]",[],[1],[0.21666666666666667],vertical,"(390.0, 762.0)",1.6333333333333333,0.185,1,6023.511,2
0,673,target,"[(1067, 850)]",[],[1],[0.5],vertical,"(890.0, 262.0)",1.1,0.457,1,6029.161,2
0,674,catch,"[(1041, 790)]",[],[1],[],horizontal,"(390.0, 762.0)",1.3166666666666667,nan,1,6076.812,2
0,675,target,"[(1051, 790)]",[],[1],[0.75],vertical,"(390.0, 262.0)",0.6,0.704,1,6081.671,2
0,676,target,"[(1072, 778)]",[],[1],[0.6],vertical,"(390.0, 762.0)",0.6,0.567,1,6086.584,2
0,677,target,"[(1058, 778)]",[],[1],[0.5166666666666666],vertical,"(890.0, 762.0)",0.7,0.484,1,6091.563,3
0,678,target,"[(1065, 801)]",[],[1],[0.6],vertical,"(390.0, 262.0)",0.5833333333333334,0.561,1,6097.13,3
0,679,target,"[(1057, 771)]",[],[1],[0.06666666666666667],horizontal,"(890.0, 262.0)",1.1833333333333333,0.035,0,6102.145,0
0,680,target,"[(1061, 771)]",[],[1],[0.5333333333333333],horizontal,"(890.0, 762.0)",1.4666666666666666,0.493,1,6106.638,1
0,681,target,"[(1058, 784)]",[],[1],[0.6166666666666667],vertical,"(890.0, 762.0)",0.8333333333333334,0.583,1,6112.012,1
0,682,target,"[(1063, 789)]",[],[1],[0.5],horizontal,"(890.0, 262.0)",0.9666666666666667,0.458,1,6116.629,1
0,683,target,"[(1059, 784)]",[],[1],[0.6833333333333333],horizontal,"(890.0, 762.0)",1.1,0.633,1,6121.182,2
0,684,target,"[(1058, 776)]",[],[1],[0.5833333333333334],horizontal,"(890.0, 262.0)",1.15,0.548,1,6126.928,2
0,685,target,"[(1060, 787)]",[],[1],[0.5],horizontal,"(390.0, 762.0)",1.05,0.467,1,6132.675,2
0,686,target,"[(1061, 784)]",[],[1],[0.5],horizontal,"(390.0, 262.0)",1.4833333333333334,0.462,1,6138.214,2
0,687,catch,"[(1107, 796)]",[],[1],[],vertical,"(890.0, 762.0)",1.3333333333333333,nan,1,6143.862,2
0,688,target,"[(1105, 791)]",[],[1],[0.45],vertical,"(890.0, 262.0)",1.0666666666666667,0.41,1,6149.045,3
0,689,target,"[(1058, 802)]",[],[1],[0.55],vertical,"(390.0, 262.0)",0.6,0.512,1,6154.531,3
0,690,target,"[(1107, 783)]",[],[1],[0.6333333333333333],horizontal,"(390.0, 262.0)",0.7,0.592,1,6160.145,3
0,691,target,"[(1099, 799)]",[],[1],[0.5166666666666666],vertical,"(390.0, 262.0)",0.8333333333333334,0.481,1,6165.466,3
0,692,target,"[(1058, 797)]",[],[1],[0.43333333333333335],vertical,"(390.0, 762.0)",1.6333333333333333,0.389,1,6171.272,3
0,693,target,"[(1102, 799)]",[],[1],[0.6833333333333333],vertical,"(890.0, 262.0)",0.7666666666666666,0.64,1,6177.529,3
0,694,target,"[(1061, 785)]",[],[1],[0.5166666666666666],horizontal,"(890.0, 762.0)",0.8166666666666667,0.481,1,6182.927,3
0,695,target,"[(1060, 775)]",[],[1],[0.6333333333333333],vertical,"(390.0, 762.0)",0.9166666666666666,0.588,1,6188.512,3
0,696,target,"[(1061, 816)]",[],[1],[0.6],horizontal,"(890.0, 762.0)",1.0833333333333333,0.566,1,6194.314,3
0,697,target,"[(1065, 764)]",[],[1],[0.36666666666666664],vertical,"(390.0, 762.0)",1.6166666666666667,0.328,1,6200.437,3
0,698,target,"[(1085, 781)]",[],[1],[0.4666666666666667],vertical,"(390.0, 262.0)",0.5333333333333333,0.426,1,6206.529,3
0,699,target,"[(1080, 761)]",[],[1],[0.26666666666666666],vertical,"(890.0, 262.0)",0.9666666666666667,0.234,1,6211.912,3
0,700,target,"[(1068, 787)]",[],[1],[0.85],vertical,"(390.0, 762.0)",0.7166666666666667,nan,0,6217.696,0
0,701,target,"[(1064, 797)]",[],[1],[0.6166666666666667],vertical,"(390.0, 262.0)",0.6666666666666666,0.578,1,6222.74,1
0,702,target,"[(1070, 800)]",[],[1],[0.6166666666666667],vertical,"(390.0, 262.0)",0.6833333333333333,0.572,1,6227.594,1
0,703,target,"[(1070, 786)]",[],[1],[0.5],horizontal,"(890.0, 762.0)",1.2666666666666666,0.462,1,6232.122,1
0,704,catch,"[(1066, 769)]",[],[1],[],vertical,"(390.0, 262.0)",1.5833333333333333,nan,1,6237.219,2
0,705,target,"[(1058, 776)]",[],[1],[0.6333333333333333],horizontal,"(890.0, 762.0)",1.15,0.592,1,6242.905,2
0,706,catch,"[(1080, 796)]",[],[1],[],vertical,"(890.0, 762.0)",1.45,nan,1,6248.977,2
0,707,catch,"[(1077, 796)]",[],[1],[],vertical,"(890.0, 762.0)",1.3,nan,1,6254.262,2
0,708,target,"[(1075, 786)]",[],[1],[0.7],horizontal,"(890.0, 262.0)",0.9833333333333333,0.66,1,6259.505,2
0,709,target,"[(1062, 791)]",[],[1],[0.15],horizontal,"(390.0, 762.0)",1.6833333333333333,0.12,0,6265.012,0
0,710,target,"[(1059, 786)]",[],[1],[0.6166666666666667],horizontal,"(390.0, 762.0)",1.15,0.574,1,6270.197,1
0,711,target,"[(1057, 768)]",[],[1],[0.5166666666666666],horizontal,"(390.0, 262.0)",1.2666666666666666,0.479,1,6275.613,1
0,712,target,"[(1064, 792)]",[],[1],[0.5666666666666667],vertical,"(890.0, 262.0)",0.5833333333333334,0.525,1,6280.696,1
0,713,target,"[(1088, 784)]",[],[1],[0.85],vertical,"(390.0, 262.0)",1.05,nan,0,6285.085,0
0,714,catch,"[(1080, 786)]",[],[1],[],vertical,"(390.0, 262.0)",1.3166666666666667,nan,1,6289.883,1
0,715,target,"[(1064, 791)]",[],[1],[0.48333333333333334],vertical,"(390.0, 762.0)",1.6333333333333333,0.446,1,6294.361,1
0,716,target,"[(1080, 806)]",[],[1],[0.21666666666666667],horizontal,"(390.0, 262.0)",1.5,0.185,1,6299.905,1
0,717,target,"[(1065, 800)]",[],[1],[0.7333333333333333],horizontal,"(390.0, 262.0)",1.0166666666666666,0.693,1,6305.111,2
0,718,target,"[(1071, 786)]",[],[1],[0.4666666666666667],horizontal,"(890.0, 262.0)",1.2666666666666666,0.431,1,6310.583,2
0,719,catch,"[(1069, 786)]",[],[1],[],horizontal,"(890.0, 262.0)",1.25,nan,1,6315.971,2
0,720,target,"[(1051, 782)]",[],[1],[0.65],horizontal,"(390.0, 762.0)",0.9333333333333333,0.606,1,6320.962,2
0,721,catch,"[(1046, 790)]",[],[1],[],horizontal,"(890.0, 762.0)",1.5,nan,1,6326.164,2
0,722,target,"[(1065, 761)]",[],[1],[0.1],horizontal,"(390.0, 262.0)",1.5166666666666666,0.067,0,6331.649,0
0,723,target,"[(1040, 785)]",[],[1],[0.55],horizontal,"(890.0, 262.0)",0.6666666666666666,0.51,1,6336.562,1
0,724,catch,"[(1061, 782)]",[],[1],[],vertical,"(890.0, 762.0)",1.3666666666666667,nan,1,6341.261,1
0,725,target,"[(1058, 803)]",[],[1],[0.6833333333333333],horizontal,"(890.0, 762.0)",0.6166666666666667,0.638,1,6346.141,1
0,726,target,"[(1065, 792)]",[],[1],[0.3833333333333333],horizontal,"(390.0, 262.0)",1.5833333333333333,0.346,1,6350.846,2
0,727,target,"[(1070, 772)]",[],[1],[0.5666666666666667],horizontal,"(390.0, 762.0)",0.8166666666666667,0.526,1,6356.448,2
0,728,catch,"[(1084, 776)]",[],[1],[],horizontal,"(390.0, 262.0)",1.1666666666666667,nan,1,6361.514,2
0,729,target,"[(1065, 793)]",[],[1],[0.5166666666666666],vertical,"(390.0, 262.0)",1.0,0.481,1,6366.252,2
0,730,target,"[(1061, 774)]",[],[1],[0.5666666666666667],horizontal,"(390.0, 262.0)",1.1333333333333333,0.524,1,6371.558,2
0,731,target,"[(1079, 765)]",[],[1],[0.26666666666666666],vertical,"(890.0, 262.0)",1.5666666666666667,0.233,1,6377.013,3
0,732,target,"[(1077, 805)]",[],[1],[0.55],horizontal,"(390.0, 762.0)",1.2166666666666666,0.512,1,6382.921,3
0,733,target,"[(1047, 785)]",[],[1],[0.43333333333333335],vertical,"(390.0, 762.0)",1.4833333333333334,0.394,1,6388.928,3
0,734,target,"[(1059, 797)]",[],[1],[0.36666666666666664],vertical,"(890.0, 262.0)",1.5,0.328,1,6395.274,3
0,735,target,"[(1076, 787)]",[],[1],[0.23333333333333334],horizontal,"(390.0, 762.0)",1.6833333333333333,0.203,1,6401.646,3
0,736,target,"[(1068, 773)]",[],[1],[0.5166666666666666],horizontal,"(390.0, 762.0)",1.35,0.479,1,6407.548,3
0,737,target,"[(1114, 780)]",[],[1],[0.5666666666666667],horizontal,"(390.0, 262.0)",0.65,0.527,1,6413.807,3
0,738,target,"[(1056, 808)]",[],[1],[0.65],vertical,"(890.0, 762.0)",1.4,0.615,1,6418.999,3
0,739,target,"[(1052, 791)]",[],[1],[0.85],vertical,"(390.0, 762.0)",0.5666666666666667,nan,0,6425.265,0
0,740,target,"[(1021, 806)]",[],[1],[0.6166666666666667],horizontal,"(390.0, 262.0)",1.3166666666666667,0.578,1,6429.514,1
0,741,target,"[(1072, 789)]",[],[1],[0.5],horizontal,"(390.0, 762.0)",1.6833333333333333,0.459,1,6434.597,1
0,742,target,"[(1081, 784)]",[],[1],[0.5833333333333334],vertical,"(890.0, 762.0)",0.6333333333333333,0.542,1,6440.006,1
0,743,target,"[(1083, 786)]",[],[1],[0.5],horizontal,"(390.0, 262.0)",1.1666666666666667,0.456,1,6444.747,2
0,744,catch,"[(1076, 791)]",[],[1],[],vertical,"(890.0, 262.0)",1.35,nan,1,6449.948,2
0,745,target,"[(1074, 781)]",[],[1],[],vertical,"(890.0, 262.0)",,"('cti', 1.602)",0,6455.221,0
0,746,target,"[(1075, 796)]",[],[1],[0.75],vertical,"(890.0, 262.0)",0.5333333333333333,0.702,1,6602.821,1
0,747,target,"[(1061, 804)]",[],[1],[0.2],horizontal,"(890.0, 762.0)",1.4666666666666666,0.172,1,6607.393,1
0,748,target,"[(1081, 777)]",[],[1],[0.6],vertical,"(390.0, 262.0)",0.7333333333333333,0.558,1,6612.498,1
0,749,target,"[(1080, 776)]",[],[1],[0.4666666666666667],vertical,"(890.0, 262.0)",1.25,0.427,1,6617.111,2
0,750,target,"[(1061, 790)]",[],[1],[0.05],horizontal,"(890.0, 762.0)",1.6666666666666667,0.02,0,6622.809,0
0,751,target,"[(1040, 769)]",[],[1],[0.5333333333333333],vertical,"(890.0, 262.0)",1.1666666666666667,0.493,1,6627.732,1
0,752,target,"[(1054, 778)]",[],[1],[0.6],horizontal,"(890.0, 262.0)",0.7833333333333333,0.557,1,6632.483,1
0,753,target,"[(1082, 792)]",[],[1],[0.5],vertical,"(890.0, 262.0)",1.0833333333333333,0.456,1,6637.609,1
0,754,target,"[(1056, 791)]",[],[1],[0.4666666666666667],vertical,"(890.0, 262.0)",1.2833333333333332,0.428,1,6642.191,2
0,755,target,"[(1056, 792)]",[],[1],[0.45],vertical,"(390.0, 762.0)",1.4666666666666666,0.407,1,6647.582,2
0,756,target,"[(1080, 796)]",[],[1],[0.26666666666666666],vertical,"(890.0, 762.0)",1.55,0.234,1,6653.44,2
0,757,target,"[(1063, 793)]",[],[1],[0.6],vertical,"(890.0, 762.0)",0.6333333333333333,0.552,1,6659.384,2
0,758,target,"[(1051, 766)]",[],[1],[0.5666666666666667],horizontal,"(890.0, 762.0)",1.0166666666666666,0.525,1,6664.673,2
0,759,target,"[(1081, 787)]",[],[1],[0.5166666666666666],horizontal,"(890.0, 762.0)",1.3333333333333333,0.478,1,6669.732,3
0,760,target,"[(1053, 811)]",[],[1],[0.55],horizontal,"(390.0, 262.0)",0.75,0.506,1,6675.914,3
0,761,target,"[(1063, 776)]",[],[1],[0.85],vertical,"(890.0, 262.0)",1.5833333333333333,"('cti', 1.567),nan",0,6681.117,0
0,762,target,"[(1075, 822)]",[],[1],[0.5833333333333334],horizontal,"(390.0, 762.0)",0.85,0.539,1,6686.741,1
0,763,target,"[(1085, 782)]",[],[1],[0.5166666666666666],vertical,"(390.0, 262.0)",1.25,0.474,1,6691.698,1
0,764,target,"[(1059, 781)]",[],[1],[0.5333333333333333],horizontal,"(890.0, 762.0)",0.8666666666666667,0.491,1,6697.182,1
0,765,target,"[(1056, 741), (1046, 796)]",[],"[0, 1]",[0.6],vertical,"(890.0, 762.0)",1.0333333333333332,0.553,1,6701.689,2
0,766,target,"[(1063, 800)]",[],[1],[0.55],horizontal,"(390.0, 762.0)",1.3,0.509,1,6708.931,2
0,767,target,"[(1084, 772)]",[],[1],[0.35],horizontal,"(890.0, 762.0)",1.3,0.312,1,6714.232,2
0,768,target,"[(1076, 772)]",[],[1],[0.7666666666666666],horizontal,"(390.0, 262.0)",0.9166666666666666,0.726,1,6719.782,2
0,769,catch,"[(1075, 804)]",[],[1],[],horizontal,"(390.0, 262.0)",1.2833333333333332,nan,1,6725.364,2
0,770,target,"[(1056, 803)]",[],[1],[0.25],horizontal,"(390.0, 762.0)",1.6833333333333333,0.216,1,6730.731,3
0,771,target,"[(1065, 773)]",[],[1],[0.85],vertical,"(390.0, 262.0)",0.8666666666666667,nan,0,6737.016,0
0,772,target,"[(1039, 801)]",[],[1],[0.5333333333333333],horizontal,"(890.0, 762.0)",0.9166666666666666,0.494,1,6742.081,1
0,773,target,"[(1074, 795)]",[],[1],[0.5833333333333334],horizontal,"(390.0, 762.0)",0.5,0.536,1,6747.234,1
0,774,target,"[(1064, 791)]",[],[1],[0.5166666666666666],vertical,"(890.0, 262.0)",1.0,0.473,1,6752.278,1
0,775,target,"[(1051, 794)]",[],[1],[0.31666666666666665],horizontal,"(390.0, 262.0)",1.1333333333333333,0.285,1,6756.995,2
0,776,catch,"[(1063, 796)]",[],[1],[],horizontal,"(390.0, 762.0)",1.25,nan,1,6762.281,2
0,777,target,"[(1073, 790)]",[],[1],[0.5166666666666666],horizontal,"(390.0, 262.0)",0.85,0.477,1,6767.117,2
0,778,target,"[(1075, 785)]",[],[1],[0.31666666666666665],vertical,"(890.0, 262.0)",1.6,0.281,1,6772.333,2
0,779,target,"[(1075, 795)]",[],[1],[0.5666666666666667],vertical,"(890.0, 762.0)",0.6166666666666667,0.529,1,6778.266,2
0,780,target,"[(1065, 803)]",[],[1],[0.5],horizontal,"(390.0, 762.0)",1.3666666666666667,0.463,1,6783.413,3
0,781,target,"[(1075, 796)]",[],[1],[0.43333333333333335],horizontal,"(390.0, 262.0)",1.2833333333333332,0.4,1,6789.448,3
0,782,target,"[(1077, 795)]",[],[1],[0.6333333333333333],vertical,"(890.0, 262.0)",0.9,0.593,1,6795.266,3
0,783,target,"[(1081, 774)]",[],[1],[0.48333333333333334],vertical,"(890.0, 262.0)",1.25,0.446,1,6800.965,3
0,784,catch,"[(1074, 781)]",[],[1],[],horizontal,"(390.0, 762.0)",1.4666666666666666,nan,1,6807.032,3
0,785,target,"[(1063, 791)]",[],[1],[0.6166666666666667],vertical,"(390.0, 262.0)",0.7,0.577,1,6812.839,3
0,786,target,"[(1062, 791)]",[],[1],[0.6666666666666666],horizontal,"(390.0, 762.0)",1.0,0.625,1,6818.465,3
0,787,target,"[(1066, 777)]",[],[1],[0.5333333333333333],vertical,"(890.0, 762.0)",0.9,0.495,1,6824.317,3
0,788,target,"[(1054, 766)]",[],[1],[0.7333333333333333],horizontal,"(390.0, 262.0)",0.95,0.689,1,6829.755,3
0,789,catch,"[(1060, 768)]",[],[1],[],horizontal,"(390.0, 262.0)",1.5833333333333333,nan,1,6835.941,3
0,790,target,"[(1077, 780)]",[],[1],[0.6],vertical,"(890.0, 762.0)",0.6166666666666667,0.557,1,6841.507,3
0,791,target,"[(1061, 775)]",[],[1],[0.5666666666666667],vertical,"(390.0, 262.0)",0.9166666666666666,0.525,1,6847.106,3
0,792,target,"[(1063, 800)]",[],[1],[0.5],vertical,"(890.0, 262.0)",1.2,0.463,1,6852.45,3
0,793,target,"[(1061, 816)]",[],[1],[0.85],vertical,"(390.0, 762.0)",0.6666666666666666,nan,0,6858.52,0
0,794,target,"[(1063, 786)]",[],[1],[0.6333333333333333],horizontal,"(390.0, 762.0)",1.5333333333333332,0.59,1,6863.183,1
0,795,target,"[(1075, 783)]",[],[1],[0.5833333333333334],vertical,"(390.0, 262.0)",1.1,0.539,1,6868.875,1
0,796,target,"[(1058, 761)]",[],[1],[0.25],vertical,"(890.0, 262.0)",1.4166666666666667,0.218,1,6873.964,1
0,797,catch,"[(1065, 774)]",[],[1],[],vertical,"(390.0, 762.0)",1.1833333333333333,nan,1,6879.073,2
0,798,target,"[(1061, 779)]",[],[1],[0.6166666666666667],vertical,"(890.0, 262.0)",0.9166666666666666,0.585,1,6883.699,2
0,799,target,"[(1073, 782)]",[],[1],[0.65],horizontal,"(390.0, 262.0)",0.7,0.611,1,6888.587,2
0,800,target,"[(1064, 785)]",[],[1],[0.31666666666666665],horizontal,"(890.0, 262.0)",1.3166666666666667,0.28,1,6893.665,2
0,801,catch,"[(1056, 781)]",[],[1],[],horizontal,"(890.0, 762.0)",1.25,nan,1,6899.2,2
0,802,target,"[(1063, 796)]",[],[1],[0.6],vertical,"(390.0, 762.0)",1.1166666666666667,0.557,1,6904.433,3
0,803,target,"[(1075, 783)]",[],[1],[0.2833333333333333],horizontal,"(890.0, 762.0)",1.5166666666666666,0.246,1,6910.397,3
0,804,target,"[(1085, 787)]",[],[1],[0.6166666666666667],horizontal,"(390.0, 762.0)",0.6166666666666667,0.577,1,6916.13,3
0,805,target,"[(1078, 789)]",[],[1],[0.8166666666666667],vertical,"(390.0, 762.0)",1.0666666666666667,0.776,1,6921.227,3
0,806,target,"[(1058, 791)]",[],[1],[0.3],vertical,"(390.0, 762.0)",1.4666666666666666,0.262,1,6927.267,3
0,807,target,"[(1072, 795)]",[],[1],[0.6333333333333333],horizontal,"(390.0, 262.0)",0.7833333333333333,0.594,1,6932.799,3
0,808,target,"[(1065, 788)]",[],[1],[0.26666666666666666],horizontal,"(390.0, 762.0)",1.5,0.234,1,6938.349,3
0,809,target,"[(1058, 781)]",[],[1],[0.6],vertical,"(390.0, 762.0)",1.3666666666666667,0.565,1,6944.316,3
0,810,target,"[(1075, 802)]",[],[1],[0.7333333333333333],horizontal,"(890.0, 762.0)",0.5,0.687,1,6950.732,3
0,811,catch,"[(1057, 788)]",[],[1],[],vertical,"(390.0, 262.0)",1.6,nan,1,6955.967,3
0,812,target,"[(1064, 798)]",[],[1],[0.5],horizontal,"(890.0, 262.0)",1.2666666666666666,0.457,1,6961.807,3
0,813,target,"[(1062, 790)]",[],[1],[0.7666666666666666],vertical,"(890.0, 762.0)",0.9,0.726,1,6967.41,3
0,814,catch,"[(1061, 786)]",[],[1],[],vertical,"(390.0, 762.0)",1.65,nan,1,6973.698,3
0,815,target,"[(1061, 778)]",[],[1],[0.7166666666666667],vertical,"(390.0, 262.0)",0.8,0.671,1,6979.729,3
0,816,target,"[(1065, 781)]",[],[1],[0.6],horizontal,"(390.0, 262.0)",1.1666666666666667,0.56,1,6985.609,3
0,817,catch,"[(1061, 762)]",[],[1],[],vertical,"(390.0, 262.0)",1.5833333333333333,nan,1,6991.683,3
0,818,target,"[(1069, 788)]",[],[1],[0.8166666666666667],horizontal,"(390.0, 762.0)",1.0333333333333332,0.77,1,6997.668,3
0,819,target,"[(1071, 766)]",[],[1],[0.23333333333333334],vertical,"(890.0, 762.0)",1.55,0.197,1,7003.501,3
0,820,target,"[(1079, 787)]",[],[1],[0.6166666666666667],vertical,"(390.0, 762.0)",0.8666666666666667,0.574,1,7009.234,3
0,821,catch,"[(1060, 787)]",[],[1],[],horizontal,"(390.0, 262.0)",1.5666666666666667,nan,1,7014.778,3
0,822,target,"[(1022, 767)]",[],[1],[0.6666666666666666],vertical,"(890.0, 762.0)",1.65,0.62,1,7020.333,3
0,823,target,"[(1061, 795)]",[],[1],[0.4],horizontal,"(890.0, 762.0)",1.5166666666666666,0.371,1,7026.395,3
0,824,target,"[(1060, 786)]",[],[1],[],horizontal,"(890.0, 262.0)",,"('cti', 1.603)",0,7032.44,0
0,825,target,"[(1045, 810)]",[],[1],[0.65],horizontal,"(390.0, 762.0)",0.7666666666666666,0.617,1,7037.55,1
0,826,target,"[(1045, 791)]",[],[1],[0.6166666666666667],vertical,"(890.0, 262.0)",1.0333333333333332,0.576,1,7043.301,1
0,827,target,"[(1082, 800)]",[],[1],[0.48333333333333334],horizontal,"(390.0, 262.0)",0.9166666666666666,0.445,1,7048.366,1
0,828,target,"[(1066, 781)]",[],[1],[0.7333333333333333],vertical,"(890.0, 262.0)",1.1833333333333333,0.692,1,7053.383,2
0,829,target,"[(1043, 804)]",[],[1],[0.7166666666666667],vertical,"(890.0, 762.0)",0.7333333333333333,0.673,1,7058.65,2
0,830,target,"[(1061, 796)]",[],[1],[0.5666666666666667],horizontal,"(390.0, 262.0)",0.5166666666666666,0.533,1,7065.701,2
0,831,target,"[(1061, 839)]",[],[1],[],horizontal,"(390.0, 762.0)",,"('cti', 0.113)",0,7071.134,0
0,832,target,"[(1054, 812)]",[],[1],[0.7333333333333333],horizontal,"(890.0, 262.0)",0.5166666666666666,0.69,1,7316.763,1
0,833,target,"[(1080, 833)]",[],[1],[0.85],vertical,"(890.0, 762.0)",0.9,nan,0,7321.552,0
0,834,target,"[(1023, 811)]",[],[1],[0.4666666666666667],horizontal,"(890.0, 762.0)",1.3,0.435,1,7326.068,1
0,835,target,"[(1074, 808)]",[],[1],[0.4666666666666667],horizontal,"(390.0, 262.0)",1.2833333333333332,0.429,1,7366.012,1
0,836,catch,"[(1075, 785)]",[],[1],[],vertical,"(890.0, 762.0)",1.35,nan,1,7371.052,1
0,837,target,"[(1075, 816)]",[],[1],[0.18333333333333332],horizontal,"(890.0, 762.0)",1.5833333333333333,0.149,0,7375.785,0
0,838,target,"[(1080, 819)]",[],[1],[0.5833333333333334],vertical,"(890.0, 762.0)",0.5833333333333334,0.538,1,7380.902,1
0,839,catch,"[(1085, 795)]",[],[1],[],vertical,"(890.0, 262.0)",1.5666666666666667,nan,1,7385.452,1
0,840,target,"[(1085, 814)]",[],[1],[0.85],horizontal,"(890.0, 262.0)",1.6166666666666667,nan,0,7390.606,0
0,841,target,"[(1063, 797)]",[],[1],[0.7833333333333333],vertical,"(390.0, 762.0)",0.9833333333333333,0.742,1,7396.393,1
0,842,target,"[(1082, 781)]",[],[1],[0.5833333333333334],horizontal,"(390.0, 762.0)",0.9,0.544,1,7401.863,1
0,843,target,"[(1070, 806)]",[],[1],[0.35],horizontal,"(890.0, 762.0)",1.45,0.316,1,7407.041,1
0,844,target,"[(1081, 779)]",[],[1],[0.6],horizontal,"(890.0, 762.0)",0.5833333333333334,0.563,1,7412.014,2
0,845,target,"[(1085, 789)]",[],[1],[0.4166666666666667],vertical,"(390.0, 762.0)",1.5333333333333332,0.378,1,7416.76,2
0,846,target,"[(1058, 779)]",[],[1],[0.4],vertical,"(890.0, 762.0)",1.4,0.359,1,7422.51,2
0,847,target,"[(1059, 786)]",[],[1],[0.4],vertical,"(890.0, 262.0)",1.4333333333333333,0.363,1,7427.687,2
0,848,catch,"[(1086, 793)]",[],[1],[],horizontal,"(890.0, 262.0)",1.5666666666666667,nan,1,7433.32,2
0,849,target,"[(1075, 809)]",[],[1],[0.45],horizontal,"(390.0, 262.0)",1.5333333333333332,0.415,1,7438.524,3
0,850,target,"[(1077, 788)]",[],[1],[0.25],vertical,"(390.0, 762.0)",1.5333333333333332,0.221,1,7444.289,3
0,851,target,"[(1062, 776)]",[],[1],[0.4666666666666667],horizontal,"(890.0, 762.0)",1.1833333333333333,0.432,1,7450.502,3
0,852,target,"[(1081, 782)]",[],[1],[0.8],vertical,"(390.0, 762.0)",1.1833333333333333,0.754,1,7456.352,3
0,853,target,"[(1061, 800)]",[],[1],[0.5],vertical,"(390.0, 762.0)",1.5,0.469,1,7462.233,3
0,854,target,"[(1067, 765)]",[],[1],[0.55],horizontal,"(890.0, 262.0)",1.25,0.509,1,7468.351,3
0,855,target,"[(1080, 776)]",[],[1],[0.65],vertical,"(390.0, 762.0)",0.9166666666666666,0.607,1,7474.152,3
0,856,target,"[(1075, 780)]",[],[1],[0.5333333333333333],vertical,"(890.0, 262.0)",0.8166666666666667,0.492,1,7479.595,3
0,857,target,"[(1061, 778)]",[],[1],[0.3],vertical,"(890.0, 762.0)",1.4,0.268,1,7484.99,3
0,858,target,"[(1052, 796)]",[],[1],[],horizontal,"(390.0, 262.0)",,"('cti', 1.314)",0,7490.863,0
0,859,target,"[(1073, 774)]",[],[1],[0.5833333333333334],vertical,"(890.0, 762.0)",1.05,0.546,1,7495.524,1
0,860,catch,"[(1043, 804)]",[],[1],[0.03333333333333333],horizontal,"(390.0, 762.0)",1.6166666666666667,"0.018,nan",0,7500.186,0
0,861,target,"[(1056, 776)]",[],[1],[0.7166666666666667],horizontal,"(390.0, 762.0)",0.9833333333333333,0.678,1,7505.454,1
0,862,target,"[(1067, 801)]",[],[1],[0.5833333333333334],vertical,"(890.0, 762.0)",0.9166666666666666,0.543,1,7510.851,1
0,863,target,"[(1063, 765)]",[],[1],[0.35],horizontal,"(890.0, 262.0)",1.5833333333333333,0.312,1,7515.819,1
0,864,target,"[(1065, 786)]",[],[1],[0.6333333333333333],horizontal,"(390.0, 762.0)",1.2666666666666666,0.593,1,7520.87,2
0,865,target,"[(1075, 788)]",[],[1],[0.6166666666666667],vertical,"(390.0, 262.0)",0.8166666666666667,0.575,1,7526.436,2
0,866,target,"[(1075, 786)]",[],[1],[0.31666666666666665],horizontal,"(890.0, 762.0)",1.3833333333333333,0.283,1,7531.871,2
0,867,target,"[(1056, 772)]",[],[1],[0.7666666666666666],vertical,"(390.0, 262.0)",0.9,0.718,1,7537.52,2
0,868,target,"[(1069, 772)]",[],[1],[0.85],vertical,"(890.0, 762.0)",0.6166666666666667,nan,0,7543.153,0
0,869,target,"[(1052, 783)]",[],[1],[0.7166666666666667],horizontal,"(890.0, 262.0)",0.5833333333333334,0.678,1,7547.342,1
0,870,target,"[(1052, 773)]",[],[1],[0.4],horizontal,"(390.0, 762.0)",1.5333333333333332,0.364,1,7552.028,1
0,871,target,"[(1090, 801)]",[],[1],[0.5833333333333334],vertical,"(890.0, 262.0)",1.3666666666666667,0.542,1,7557.736,1
0,872,catch,"[(1075, 790)]",[],[1],[],horizontal,"(390.0, 762.0)",1.1666666666666667,nan,1,7562.923,2
0,873,target,"[(1077, 782)]",[],[1],[0.55],horizontal,"(890.0, 262.0)",0.9,0.515,1,7567.996,2
0,874,target,"[(1061, 781)]",[],[1],[0.55],vertical,"(890.0, 262.0)",0.7166666666666667,0.509,1,7573.304,2
0,875,target,"[(1073, 793)]",[],[1],[0.6666666666666666],vertical,"(390.0, 262.0)",1.1333333333333333,0.624,1,7577.855,2
0,876,target,"[(1107, 775)]",[],[1],[0.26666666666666666],horizontal,"(390.0, 262.0)",1.0666666666666667,0.232,1,7583.107,2
0,877,catch,"[(1121, 804)]",[],[1],[],vertical,"(390.0, 262.0)",1.4833333333333334,nan,1,7588.453,3
0,878,target,"[(1076, 796)]",[],[1],[],horizontal,"(890.0, 262.0)",,"('cti', 1.465)",0,7594.321,0
0,879,catch,"[(1069, 796)]",[],[1],[],horizontal,"(890.0, 262.0)",1.6,nan,1,7599.0,1
0,880,catch,"[(1061, 811)]",[],[1],[],horizontal,"(390.0, 762.0)",1.5,nan,1,7603.921,1
0,881,target,"[(1045, 796)]",[],[1],[0.23333333333333334],horizontal,"(890.0, 762.0)",1.5333333333333332,0.196,1,7609.223,1
0,882,target,"[(1066, 762)]",[],[1],[0.6833333333333333],vertical,"(890.0, 762.0)",1.2833333333333332,0.643,1,7614.576,2
0,883,target,"[(1037, 801)]",[],[1],[0.8333333333333334],vertical,"(890.0, 262.0)",1.0,0.78,1,7620.056,2
0,884,target,"[(1009, 800)]",[],[1],[0.85],horizontal,"(390.0, 762.0)",1.6666666666666667,nan,0,7625.971,0
0,885,target,"[(1071, 833)]",[],[1],[0.85],vertical,"(890.0, 762.0)",1.5333333333333332,nan,0,7939.088,0
0,886,target,"[(1065, 812)]",[],[1],[0.85],horizontal,"(890.0, 262.0)",1.0666666666666667,nan,0,7945.754,0
0,887,target,"[(1071, 817)]",[],[1],[0.85],vertical,"(390.0, 262.0)",0.7666666666666666,nan,0,7955.344,0
0,888,target,"[(1077, 818)]","[(1070, 826)]",[1],[0.4],horizontal,"(890.0, 262.0)",,"('bar', 0.407)",0,7960.198,0
0,889,target,"[(1056, 816)]",[],[1],[0.85],vertical,"(890.0, 262.0)",1.0,nan,0,7962.921,0
0,890,target,"[(1060, 796)]",[],[1],[0.85],vertical,"(890.0, 762.0)",0.65,nan,0,7969.988,0
0,891,target,"[(1062, 815)]",[],[1],[0.5666666666666667],vertical,"(890.0, 762.0)",1.2,0.522,1,7978.021,1
0,892,target,"[(1076, 811)]",[],[1],[0.06666666666666667],horizontal,"(890.0, 762.0)",1.6333333333333333,0.035,0,7983.143,0
0,893,catch,"[(1021, 780)]",[],[1],[],horizontal,"(390.0, 262.0)",1.5166666666666666,nan,1,7988.083,1
0,894,target,"[(1060, 796)]",[],[1],[0.5333333333333333],vertical,"(390.0, 262.0)",0.5833333333333334,0.49,1,7993.823,1
0,895,target,"[(1061, 790)]",[],[1],[0.36666666666666664],horizontal,"(890.0, 262.0)",1.4833333333333334,0.33,1,7998.389,1
0,896,catch,"[(1064, 783)]",[],[1],[],vertical,"(890.0, 262.0)",1.2666666666666666,nan,1,8003.518,2
0,897,target,"[(1062, 797)]",[],[1],[0.4],vertical,"(890.0, 262.0)",1.1833333333333333,0.36,1,8008.355,2
0,898,target,"[(1093, 777)]",[],[1],[0.13333333333333333],vertical,"(890.0, 262.0)",1.5833333333333333,0.103,0,8013.823,0
0,899,target,"[(1024, 797)]",[],[1],[0.5833333333333334],vertical,"(890.0, 762.0)",0.9666666666666667,0.544,1,8018.473,1
0,900,target,"[(1090, 790)]",[],[1],[0.6333333333333333],horizontal,"(390.0, 762.0)",0.5833333333333334,0.591,1,8024.225,1
0,901,catch,"[(1088, 780)]",[],[1],[],horizontal,"(390.0, 762.0)",,"('cti', 1.265),nan",0,8028.872,0
0,902,target,"[(1070, 791)]",[],[1],[0.65],vertical,"(390.0, 762.0)",0.5333333333333333,0.613,1,8032.889,1
0,903,target,"[(1061, 808)]",[],[1],[0.5166666666666666],horizontal,"(390.0, 262.0)",1.4666666666666666,0.47,1,8037.612,1
0,904,target,"[(1064, 797)]",[],[1],[0.65],vertical,"(390.0, 762.0)",0.7333333333333333,0.608,1,8043.389,1
0,905,target,"[(1116, 770)]",[],[1],[0.48333333333333334],horizontal,"(390.0, 262.0)",1.2,0.442,1,8048.033,2
0,906,target,"[(1061, 789)]",[],[1],[0.6666666666666666],horizontal,"(890.0, 262.0)",1.05,0.623,1,8053.757,2
0,907,target,"[(1081, 783)]",[],[1],[0.3333333333333333],horizontal,"(390.0, 762.0)",1.5,0.299,1,8059.268,2
