block,trial,trial_type,taps_start_loc_during_fix,taps_end_loc_during_fix,taps_on_lever_during_fix,taps_on_lever_s_during_fix,bar_orientation,target_xy,cti,rt,acc,time,pulses
0,1,target,"[(989, 737), (727, 477), (887, 770), (974, 713), (893, 631), (979, 837), (998, 799), (1017, 684), (1061, 761)]","[(1061, 761)]","[0, 0, 0, 0, 0, 0, 0, 0, 1]",[0.7166666666666667],vertical,"(890.0, 762.0)",,"('bar', 0.738)",0,0.057,0
0,2,catch,"[(1072, 986), (729, 746), (919, 617), (234, 549), (597, 485), (691, 809), (529, 660), (727, 871), (1019, 845)]",[],"[0, 0, 0, 0, 0, 0, 0, 0, 1]",[0.03333333333333333],vertical,"(890.0, 762.0)",1.4833333333333334,0.097,0,377.462,0
0,3,target,"[(1024, 837)]",[],[1],[0.8],vertical,"(890.0, 262.0)",0.6666666666666666,0.753,1,2811.123,1
0,4,target,"[(1013, 851)]",[],[1],[0.3333333333333333],horizontal,"(390.0, 262.0)",1.4333333333333333,0.296,1,2816.065,1
0,5,target,"[(1030, 818)]",[],[1],[0.3333333333333333],horizontal,"(890.0, 762.0)",1.2333333333333334,0.299,1,2821.256,1
0,6,target,"[(1052, 824)]",[],[1],[0.5],horizontal,"(390.0, 762.0)",1.1,0.461,1,2826.24,2
0,7,target,"[(1061, 829)]",[],[1],[0.9666666666666667],horizontal,"(390.0, 762.0)",0.65,0.92,0,2832.014,0
0,8,target,"[(1038, 846)]",[],[1],[0.26666666666666666],vertical,"(890.0, 262.0)",1.6,0.237,1,2836.539,1
0,9,target,"[(1051, 825)]",[],[1],[0.7666666666666666],horizontal,"(390.0, 262.0)",0.8333333333333334,0.721,1,2841.945,1
0,10,target,"[(1045, 823)]",[],[1],[0.06666666666666667],vertical,"(390.0, 262.0)",1.6166666666666667,0.035,0,2847.463,0
0,11,target,"[(1049, 833)]",[],[1],[0.8333333333333334],vertical,"(390.0, 762.0)",0.9,0.789,1,2852.161,1
0,12,target,"[(1020, 816)]",[],[1],[0.5833333333333334],horizontal,"(890.0, 262.0)",0.7166666666666667,0.541,1,2857.452,1
0,13,target,"[(1056, 811)]",[],[1],[0.4166666666666667],horizontal,"(390.0, 262.0)",1.5833333333333333,0.382,1,2862.056,1
0,14,target,"[(1057, 817)]",[],[1],[0.2833333333333333],vertical,"(390.0, 262.0)",1.3666666666666667,0.254,1,2867.39,2
0,15,target,"[(1038, 804)]",[],[1],[0.6666666666666666],horizontal,"(890.0, 762.0)",0.75,0.623,1,2873.174,1
0,16,target,"[(1057, 818)]",[],[1],[0.7],horizontal,"(390.0, 762.0)",0.95,0.657,1,2878.018,1
0,17,target,"[(1078, 832)]",[],[1],[0.5833333333333334],horizontal,"(890.0, 762.0)",0.7333333333333333,0.542,1,2882.822,1
0,18,target,"[(1054, 817)]",[],[1],[0.5833333333333334],horizontal,"(390.0, 762.0)",0.95,0.538,1,2887.554,2
0,19,target,"[(1055, 833)]",[],[1],[0.4166666666666667],vertical,"(390.0, 262.0)",1.35,0.377,1,2893.139,1
0,20,target,"[(1037, 818)]",[],[1],[0.6333333333333333],vertical,"(890.0, 262.0)",0.95,0.588,1,2898.239,1
0,21,catch,"[(1033, 805)]",[],[1],[],horizontal,"(390.0, 262.0)",1.05,nan,1,2903.557,1
0,22,target,"[(1033, 818)]",[],[1],[0.5],horizontal,"(390.0, 262.0)",1.3166666666666667,0.473,1,2908.172,2
0,23,target,"[(1032, 817)]",[],[1],[0.16666666666666666],horizontal,"(890.0, 762.0)",1.55,0.131,1,2913.935,1
0,24,target,"[(1036, 817)]",[],[1],[0.55],horizontal,"(890.0, 762.0)",0.7666666666666666,0.513,1,2918.989,1
0,25,catch,"[(1022, 799)]",[],[1],[],vertical,"(890.0, 762.0)",1.6,nan,1,2923.722,1
0,26,target,"[(1036, 817)]",[],[1],[0.25],horizontal,"(390.0, 762.0)",1.2,0.215,1,2929.182,2
0,27,catch,"[(1033, 809)]",[],[1],[],vertical,"(390.0, 262.0)",,"('cti', 1.047),nan",1,2934.822,1
0,28,target,"[(1032, 812)]",[],[1],[1.15],horizontal,"(390.0, 762.0)",0.5166666666666666,1.09,0,2939.822,0
0,29,target,"[(1025, 812)]",[],[1],[0.5833333333333334],horizontal,"(890.0, 262.0)",0.6666666666666666,0.54,1,2944.658,1
0,30,target,"[(1033, 794)]",[],[1],[0.3833333333333333],vertical,"(890.0, 262.0)",1.3166666666666667,0.345,1,2949.607,1
0,31,target,"[(1026, 804)]",[],[1],[0.4],vertical,"(890.0, 262.0)",1.2666666666666666,0.359,1,2954.672,1
0,32,target,"[(1035, 811)]",[],[1],[0.7166666666666667],horizontal,"(890.0, 262.0)",0.9166666666666666,0.676,1,2959.523,2
0,33,target,"[(1055, 827)]",[],[1],[0.25],horizontal,"(890.0, 762.0)",1.35,0.214,1,2964.859,1
0,34,target,"[(1017, 825)]",[],[1],[0.2],horizontal,"(390.0, 762.0)",1.25,0.165,1,2970.19,1
0,35,target,"[(1037, 830)]",[],[1],[0.18333333333333332],vertical,"(890.0, 262.0)",1.5666666666666667,0.151,1,2977.173,1
0,36,target,"[(1040, 803)]",[],[1],[0.18333333333333332],horizontal,"(890.0, 262.0)",1.5833333333333333,0.147,1,2982.14,2
0,37,target,"[(1036, 813)]",[],[1],[0.25],vertical,"(390.0, 262.0)",1.4333333333333333,0.219,1,2987.873,1
0,38,target,"[(1037, 813)]",[],[1],[0.35],vertical,"(890.0, 762.0)",1.2166666666666666,0.317,1,2993.007,1
0,39,target,"[(1053, 819)]",[],[1],[0.6],horizontal,"(890.0, 262.0)",0.55,0.559,1,2998.289,1
0,40,target,"[(1046, 833)]",[],[1],[0.6833333333333333],horizontal,"(390.0, 762.0)",0.6,0.639,1,3002.936,2
0,41,target,"[(1037, 790)]",[],[1],[0.36666666666666664],horizontal,"(890.0, 262.0)",1.2333333333333334,0.33,1,3008.124,1
0,42,target,"[(1062, 819)]",[],[1],[0.26666666666666666],vertical,"(390.0, 262.0)",1.5333333333333332,0.231,1,3013.057,1
0,43,target,"[(1057, 819)]",[],[1],[0.65],vertical,"(890.0, 762.0)",0.85,0.605,1,3018.323,1
0,44,target,"[(1039, 815)]",[],[1],[0.55],vertical,"(890.0, 762.0)",0.9833333333333333,0.508,1,3023.283,2
0,45,target,"[(1049, 819)]",[],[1],[0.65],horizontal,"(390.0, 762.0)",1.0333333333333332,0.614,1,3028.823,1
0,46,target,"[(1057, 823)]",[],[1],[],horizontal,"(390.0, 762.0)",,"('cti', 1.034)",0,3033.739,0
0,47,catch,"[(1053, 819)]",[],[1],[],vertical,"(390.0, 762.0)",1.55,nan,1,3038.176,1
0,48,target,"[(1057, 825)]",[],[1],[],vertical,"(890.0, 762.0)",,"('cti', 1.625)",0,3043.108,0
0,49,target,"[(1047, 832)]",[],[1],[0.7166666666666667],horizontal,"(890.0, 262.0)",0.5333333333333333,0.67,1,3048.131,1
0,50,target,"[(1034, 814)]",[],[1],[],vertical,"(890.0, 262.0)",,"('cti', 1.527)",0,3052.708,0
0,51,target,"[(1029, 839)]",[],[1],[0.55],vertical,"(890.0, 262.0)",0.6833333333333333,0.508,1,3057.508,1
0,52,target,"[(1042, 820)]",[],[1],[0.5833333333333334],vertical,"(390.0, 262.0)",0.5,0.537,1,3062.091,1
0,53,catch,"[(1057, 819)]",[],[1],[],vertical,"(890.0, 762.0)",1.05,nan,1,3066.99,1
0,54,target,"[(1033, 819)]",[],[1],[0.4],horizontal,"(390.0, 262.0)",1.2,0.366,1,3071.873,2
0,55,target,"[(1053, 807)]",[],[1],[0.6666666666666666],vertical,"(390.0, 762.0)",1.1166666666666667,0.618,1,3077.326,1
0,56,target,"[(1046, 810)]",[],[1],[0.4],vertical,"(390.0, 262.0)",0.9666666666666667,0.359,1,3082.433,1
0,57,target,"[(1017, 816)]",[],[1],[0.6],vertical,"(890.0, 262.0)",0.85,0.557,1,3087.47,1
0,58,target,"[(1033, 825)]",[],[1],[0.55],horizontal,"(390.0, 762.0)",0.9833333333333333,0.504,1,3092.671,2
0,59,catch,"[(1065, 812)]",[],[1],[],vertical,"(390.0, 762.0)",1.1666666666666667,nan,1,3098.508,1
0,60,catch,"[(1054, 826)]",[],[1],[],horizontal,"(890.0, 762.0)",1.4,nan,1,3103.208,1
0,61,target,"[(1054, 823)]",[],[1],[],horizontal,"(390.0, 262.0)",,"('cti', 1.428)",0,3108.641,0
0,62,target,"[(1043, 839)]",[],[1],[0.3333333333333333],horizontal,"(890.0, 762.0)",1.3,0.295,1,3113.424,1
0,63,target,"[(1033, 799)]",[],[1],[0.6],horizontal,"(390.0, 762.0)",0.9833333333333333,0.555,1,3118.324,1
0,64,target,"[(1029, 802)]",[],[1],[0.6166666666666667],horizontal,"(390.0, 762.0)",0.5666666666666667,0.575,1,3123.473,1
0,65,target,"[(1026, 804)]",[],[1],[0.5],horizontal,"(390.0, 762.0)",0.8,0.454,1,3128.252,2
0,66,target,"[(1056, 828)]",[],[1],[0.4666666666666667],horizontal,"(390.0, 762.0)",1.2,0.427,1,3133.569,1
0,67,target,"[(1076, 835)]",[],[1],[0.7333333333333333],vertical,"(890.0, 262.0)",0.5666666666666667,0.686,1,3138.591,1
0,68,target,"[(1057, 818)]",[],[1],[0.31666666666666665],vertical,"(890.0, 762.0)",1.3833333333333333,0.276,1,3143.641,1
0,69,target,"[(1037, 830)]",[],[1],[0.5833333333333334],vertical,"(890.0, 762.0)",0.75,0.543,1,3149.008,2
0,70,catch,"[(1038, 798)]",[],[1],[],horizontal,"(390.0, 762.0)",1.0166666666666666,nan,1,3154.457,1
0,71,target,"[(1034, 813)]",[],[1],[0.5666666666666667],vertical,"(890.0, 262.0)",0.7833333333333333,0.523,1,3158.924,1
0,72,target,"[(1035, 807)]",[],[1],[0.5833333333333334],horizontal,"(890.0, 762.0)",0.9666666666666667,0.545,1,3163.813,1
0,73,target,"[(1053, 800)]",[],[1],[0.5],vertical,"(890.0, 262.0)",1.3333333333333333,0.458,1,3168.757,2
0,74,target,"[(1037, 812)]",[],[1],[0.5],horizontal,"(890.0, 262.0)",0.8,0.464,1,3174.443,1
0,75,target,"[(1037, 812)]",[],[1],[0.6833333333333333],horizontal,"(890.0, 262.0)",0.95,0.64,1,3179.39,1
0,76,target,"[(1022, 808)]",[],[1],[],vertical,"(890.0, 262.0)",,"('cti', 1.204)",0,3184.202,0
0,77,target,"[(1032, 825)]",[],[1],[],vertical,"(890.0, 762.0)",,"('cti', 1.507)",0,3189.276,0
0,78,target,"[(1017, 831)]",[],[1],[0.31666666666666665],horizontal,"(890.0, 262.0)",1.4333333333333333,0.28,1,3193.994,1
0,79,catch,"[(1037, 808)]",[],[1],[0.03333333333333333],vertical,"(890.0, 262.0)",1.6,0.019,0,3199.466,0
0,80,target,"[(1045, 830)]",[],[1],[0.55],vertical,"(390.0, 262.0)",1.2,0.511,1,3204.242,1
0,81,catch,"[(1057, 811)]",[],[1],[],horizontal,"(390.0, 762.0)",1.2,nan,1,3209.801,1
0,82,target,"[(1032, 795)]",[],[1],[0.36666666666666664],horizontal,"(390.0, 762.0)",1.3666666666666667,0.326,1,3214.358,1
0,83,target,"[(1033, 798)]",[],[1],[0.35],vertical,"(390.0, 762.0)",1.5,0.314,1,3219.557,2
0,84,target,"[(1045, 806)]",[],[1],[0.4],horizontal,"(890.0, 262.0)",1.2,0.368,1,3225.374,1
0,85,catch,"[(1057, 816)]",[],[1],[],vertical,"(890.0, 762.0)",1.3166666666666667,nan,1,3230.553,1
0,86,target,"[(1038, 799)]",[],[1],[0.7666666666666666],vertical,"(390.0, 262.0)",0.75,0.717,1,3235.241,1
0,87,catch,"[(1032, 820)]",[],[1],[],horizontal,"(890.0, 762.0)",1.35,nan,1,3240.174,2
0,88,target,"[(1033, 818)]",[],[1],[0.9166666666666666],horizontal,"(390.0, 262.0)",0.7,0.874,0,3245.641,0
0,89,target,"[(1046, 843)]",[],[1],[0.8166666666666667],horizontal,"(890.0, 762.0)",1.5166666666666666,0.767,1,3250.039,1
0,90,target,"[(1055, 812)]",[],[1],[0.6],vertical,"(890.0, 762.0)",1.15,0.559,1,3259.142,1
0,91,target,"[(1053, 823)]",[],[1],[0.5],horizontal,"(890.0, 762.0)",1.6166666666666667,0.461,1,3264.392,1
0,92,target,"[(1053, 805)]",[],[1],[0.31666666666666665],vertical,"(390.0, 262.0)",1.45,0.283,1,3269.924,2
0,93,target,"[(1033, 804)]",[],[1],[0.65],horizontal,"(390.0, 262.0)",0.5833333333333334,0.609,1,3275.874,1
0,94,target,"[(1038, 816)]",[],[1],[0.7333333333333333],vertical,"(890.0, 762.0)",1.0333333333333332,0.694,1,3280.291,1
0,95,target,"[(1069, 816)]",[],[1],[0.5],horizontal,"(390.0, 762.0)",1.2333333333333334,0.458,1,3285.741,1
0,96,target,"[(1017, 810)]",[],[1],[0.65],horizontal,"(890.0, 262.0)",1.0166666666666666,0.606,1,3290.937,2
0,97,catch,"[(1057, 790)]",[],[1],[],horizontal,"(390.0, 762.0)",1.55,nan,1,3296.952,1
0,98,target,"[(1039, 820)]",[],[1],[0.7666666666666666],horizontal,"(890.0, 262.0)",0.8333333333333334,0.731,1,3302.041,1
0,99,target,"[(1039, 817)]",[],[1],[0.5833333333333334],horizontal,"(890.0, 762.0)",1.0666666666666667,0.538,1,3307.174,1
0,100,catch,"[(1033, 820)]",[],[1],[0.03333333333333333],vertical,"(890.0, 262.0)",1.4833333333333334,0.019,0,3312.774,0
0,101,target,"[(1033, 828)]",[],[1],[0.2833333333333333],vertical,"(390.0, 762.0)",1.4833333333333334,0.247,1,3317.475,1
0,102,target,"[(1033, 813)]",[],[1],[],vertical,"(890.0, 262.0)",,"('cti', 1.635)",0,3322.792,0
0,103,target,"[(1022, 831)]",[],[1],[0.6],vertical,"(890.0, 262.0)",1.2333333333333334,0.568,1,3328.158,1
0,104,target,"[(1029, 808)]",[],[1],[0.7],vertical,"(390.0, 762.0)",1.5,0.656,1,3333.492,1
0,105,target,"[(1033, 806)]",[],[1],[0.5333333333333333],horizontal,"(890.0, 262.0)",1.1,0.495,1,3338.959,1
0,106,target,"[(1053, 819)]",[],[1],[0.6666666666666666],vertical,"(890.0, 762.0)",0.6666666666666666,0.628,1,3343.913,2
0,107,target,"[(1022, 828)]",[],[1],[0.43333333333333335],horizontal,"(390.0, 262.0)",0.9833333333333333,0.393,1,3349.441,1
0,108,target,"[(1038, 834)]",[],[1],[0.21666666666666667],vertical,"(890.0, 762.0)",1.5166666666666666,0.182,1,3436.842,1
0,109,target,"[(1054, 808)]",[],[1],[0.5833333333333334],horizontal,"(890.0, 762.0)",0.85,0.543,1,3441.941,1
0,110,target,"[(1022, 824)]",[],[1],[0.5833333333333334],vertical,"(890.0, 762.0)",0.5166666666666666,0.544,1,3447.213,2
0,111,target,"[(1029, 821)]",[],[1],[0.65],horizontal,"(390.0, 762.0)",1.1166666666666667,0.61,1,3452.193,1
0,112,target,"[(1033, 825)]",[],[1],[0.18333333333333332],vertical,"(890.0, 262.0)",1.4166666666666667,0.152,1,3457.141,1
0,113,target,"[(1042, 812)]",[],[1],[0.31666666666666665],vertical,"(390.0, 262.0)",1.2666666666666666,0.283,1,3462.458,1
0,114,target,"[(1033, 813)]",[],[1],[0.9833333333333333],vertical,"(890.0, 262.0)",0.6666666666666666,0.946,0,3467.57,0
0,115,target,"[(1038, 839)]",[],[1],[0.5833333333333334],horizontal,"(390.0, 762.0)",0.8333333333333334,0.543,1,3472.276,1
0,116,target,"[(1054, 811)]",[],[1],[0.36666666666666664],vertical,"(890.0, 262.0)",1.5,0.333,1,3477.559,1
0,117,target,"[(1041, 811)]",[],[1],[0.7166666666666667],horizontal,"(890.0, 762.0)",1.0,0.676,1,3482.808,1
0,118,target,"[(1053, 798)]",[],[1],[0.6333333333333333],vertical,"(890.0, 762.0)",1.0166666666666666,0.588,1,3488.208,2
0,119,target,"[(1053, 837)]",[],[1],[0.5666666666666667],horizontal,"(390.0, 262.0)",0.8333333333333334,0.527,1,3493.676,1
0,120,target,"[(1037, 828)]",[],[1],[0.25],vertical,"(890.0, 262.0)",1.45,0.22,1,3498.859,1
0,121,target,"[(1033, 827)]",[],[1],[0.08333333333333333],vertical,"(390.0, 762.0)",1.4166666666666667,0.051,0,3503.959,0
0,122,catch,"[(1048, 823)]",[],[1],[],vertical,"(890.0, 762.0)",1.1,nan,1,3508.776,1
0,123,target,"[(1045, 809)]",[],[1],[1.1833333333333333],horizontal,"(890.0, 262.0)",0.5,1.14,0,3513.876,0
0,124,target,"[(1035, 810)]",[],[1],[0.5333333333333333],vertical,"(390.0, 262.0)",1.2333333333333334,0.495,1,3518.731,1
0,125,target,"[(1040, 834)]",[],[1],[0.43333333333333335],vertical,"(890.0, 262.0)",1.45,0.398,1,3524.19,1
0,126,target,"[(1043, 816)]",[],[1],[0.36666666666666664],horizontal,"(890.0, 762.0)",1.25,0.327,1,3529.545,1
0,127,target,"[(1053, 830)]",[],[1],[1.1333333333333333],horizontal,"(390.0, 762.0)",0.5166666666666666,1.077,0,3534.912,0
0,128,target,"[(1041, 804)]",[],[1],[0.7333333333333333],horizontal,"(390.0, 762.0)",0.8,0.685,1,3539.174,1
0,129,target,"[(1029, 804)]",[],[1],[0.5833333333333334],vertical,"(890.0, 262.0)",1.1833333333333333,0.543,1,3543.929,1
0,130,target,"[(1010, 831)]",[],[1],[0.6666666666666666],vertical,"(890.0, 762.0)",0.6833333333333333,0.624,1,3549.283,1
0,131,target,"[(1015, 829)]",[],[1],[0.48333333333333334],vertical,"(390.0, 262.0)",1.2333333333333334,0.448,1,3554.55,2
0,132,target,"[(1036, 808)]",[],[1],[1.1],vertical,"(390.0, 762.0)",0.5,1.059,0,3560.768,0
0,133,target,"[(1034, 824)]",[],[1],[0.4],vertical,"(390.0, 262.0)",1.6166666666666667,0.367,1,3565.215,1
0,134,target,"[(1038, 843)]",[],[1],[0.5166666666666666],horizontal,"(890.0, 762.0)",1.4333333333333333,0.478,1,3570.567,1
0,135,target,"[(1030, 839)]",[],[1],[0.75],vertical,"(890.0, 762.0)",1.2833333333333332,0.708,1,3576.361,1
0,136,target,"[(1028, 813)]",[],[1],[0.31666666666666665],horizontal,"(390.0, 262.0)",1.4,0.279,1,3582.91,2
0,137,target,"[(1065, 859)]",[],[1],[0.65],horizontal,"(890.0, 762.0)",1.0666666666666667,0.607,1,3588.742,1
0,138,target,"[(1057, 833)]",[],[1],[0.3833333333333333],vertical,"(890.0, 762.0)",1.4833333333333334,0.342,1,3594.476,1
0,139,target,"[(1032, 814)]",[],[1],[],horizontal,"(390.0, 762.0)",,"('cti', 1.454)",0,3600.292,0
0,140,target,"[(1057, 814)]",[],[1],[0.35],horizontal,"(390.0, 762.0)",1.4833333333333334,0.313,1,3605.386,1
0,141,target,"[(1039, 832)]",[],[1],[0.5],horizontal,"(390.0, 262.0)",0.55,0.459,1,3610.577,1
0,142,target,"[(1034, 802)]",[],[1],[0.35],vertical,"(890.0, 762.0)",1.3,0.313,1,3615.836,1
0,143,target,"[(1074, 837)]",[],[1],[0.4],vertical,"(890.0, 762.0)",1.2833333333333332,0.359,1,3621.353,2
0,144,target,"[(1037, 822)]",[],[1],[0.6],horizontal,"(390.0, 262.0)",0.5166666666666666,0.561,1,3626.865,1
0,145,catch,"[(1057, 829)]",[],[1],[],horizontal,"(390.0, 762.0)",1.2666666666666666,nan,1,3631.772,1
0,146,target,"[(1057, 815)]",[],[1],[0.1],horizontal,"(390.0, 262.0)",1.5,0.068,0,3636.988,0
0,147,target,"[(1029, 818)]",[],[1],[0.6333333333333333],vertical,"(890.0, 762.0)",1.0166666666666666,0.59,1,3641.385,1
0,148,target,"[(1034, 798)]",[],[1],[0.2833333333333333],horizontal,"(890.0, 762.0)",1.4333333333333333,0.248,1,3647.184,1
0,149,target,"[(1043, 821)]",[],[1],[0.6],horizontal,"(890.0, 762.0)",0.7666666666666666,0.556,1,3652.447,1
0,150,target,"[(1037, 805)]",[],[1],[0.5333333333333333],horizontal,"(390.0, 262.0)",0.9333333333333333,0.49,1,3657.576,2
0,151,target,"[(1058, 809)]",[],[1],[0.4166666666666667],horizontal,"(390.0, 262.0)",1.25,0.375,1,3663.467,1
0,152,target,"[(1036, 810)]",[],[1],[0.3833333333333333],vertical,"(890.0, 262.0)",1.3166666666666667,0.342,1,3668.419,1
0,153,target,"[(1043, 811)]",[],[1],[0.6],horizontal,"(890.0, 762.0)",0.6666666666666666,0.556,1,3673.911,1
0,154,target,"[(1037, 823)]",[],[1],[0.65],horizontal,"(390.0, 262.0)",0.5666666666666667,0.605,1,3678.627,2
0,155,target,"[(1041, 799)]",[],[1],[0.3833333333333333],vertical,"(890.0, 262.0)",1.2333333333333334,0.342,1,3683.56,1
0,156,catch,"[(1029, 827)]",[],[1],[],vertical,"(390.0, 762.0)",,"('cti', 1.612),nan",1,3688.776,1
0,157,target,"[(1041, 808)]",[],[1],[],horizontal,"(390.0, 762.0)",,"('cti', 1.454)",0,3694.551,0
0,158,target,"[(1054, 811)]",[],[1],[0.6],horizontal,"(890.0, 762.0)",0.6666666666666666,0.554,1,3699.359,1
0,159,target,"[(1041, 817)]",[],[1],[0.5166666666666666],vertical,"(390.0, 762.0)",1.1333333333333333,0.475,1,3703.894,1
0,160,target,"[(1035, 825)]",[],[1],[0.6],vertical,"(890.0, 262.0)",0.6166666666666667,0.562,1,3709.22,1
0,161,catch,"[(1019, 840)]",[],[1],[],vertical,"(390.0, 762.0)",1.5833333333333333,nan,1,3713.867,2
0,162,target,"[(1033, 845)]",[],[1],[0.4166666666666667],horizontal,"(390.0, 762.0)",0.95,0.379,1,3723.759,1
0,163,target,"[(1054, 839)]",[],[1],[1.0333333333333332],vertical,"(390.0, 762.0)",1.15,0.98,0,3728.909,0
0,164,target,"[(1053, 823)]",[],[1],[0.5333333333333333],horizontal,"(390.0, 762.0)",1.4,0.498,1,3734.572,1
0,165,target,"[(1024, 845)]",[],[1],[0.5333333333333333],vertical,"(890.0, 762.0)",1.05,0.491,1,3740.261,1
0,166,target,"[(1010, 838)]",[],[1],[],vertical,"(390.0, 262.0)",,"('cti', 1.589)",0,3745.911,0
0,167,target,"[(1022, 797)]",[],[1],[0.6666666666666666],vertical,"(890.0, 262.0)",0.7666666666666666,0.618,1,3750.974,1
0,168,target,"[(1010, 810)]",[],[1],[0.3333333333333333],horizontal,"(390.0, 262.0)",1.3,0.296,1,3755.643,1
0,169,target,"[(1022, 805)]",[],[1],[0.55],horizontal,"(390.0, 762.0)",1.4833333333333334,0.518,1,3761.426,1
0,170,target,"[(1031, 809)]",[],[1],[0.6],horizontal,"(890.0, 262.0)",0.65,0.557,1,3767.128,2
0,171,target,"[(1041, 837)]",[],[1],[0.15],vertical,"(890.0, 262.0)",1.2333333333333334,0.118,1,3772.46,1
0,172,target,"[(1036, 822)]",[],[1],[0.5666666666666667],vertical,"(890.0, 762.0)",0.9,0.525,1,3777.478,1
0,173,target,"[(1033, 834)]",[],[1],[0.6],vertical,"(890.0, 262.0)",1.0833333333333333,0.564,1,3782.401,1
0,174,target,"[(998, 799), (1033, 854)]",[],"[0, 1]",[0.6166666666666667],vertical,"(390.0, 262.0)",0.6,0.576,1,3787.773,2
0,175,target,"[(1036, 833)]",[],[1],[0.3333333333333333],horizontal,"(390.0, 762.0)",1.6666666666666667,0.3,1,3794.226,1
0,176,target,"[(1029, 822)]",[],[1],[0.48333333333333334],vertical,"(390.0, 762.0)",1.3833333333333333,0.441,1,3799.745,1
0,177,target,"[(1059, 813)]",[],[1],[0.2833333333333333],horizontal,"(390.0, 262.0)",1.3833333333333333,0.248,1,3805.21,1
0,178,target,"[(1057, 818)]",[],[1],[0.6166666666666667],horizontal,"(890.0, 262.0)",1.2333333333333334,0.574,1,3810.477,2
0,179,target,"[(1038, 822)]",[],[1],[0.5166666666666666],horizontal,"(390.0, 762.0)",1.4833333333333334,0.476,1,3816.785,1
0,180,target,"[(1058, 817)]",[],[1],[0.45],vertical,"(390.0, 262.0)",1.4666666666666666,0.407,1,3822.175,1
0,181,target,"[(1061, 838)]",[],[1],[0.6833333333333333],horizontal,"(390.0, 262.0)",1.1666666666666667,0.64,1,3827.73,1
0,182,target,"[(1049, 850)]",[],[1],[0.75],vertical,"(890.0, 762.0)",0.6,0.704,1,3833.185,2
0,183,target,"[(1045, 796)]",[],[1],[0.5833333333333334],horizontal,"(890.0, 262.0)",0.5166666666666666,0.541,1,3838.161,1
0,184,target,"[(1026, 825)]",[],[1],[0.7],horizontal,"(890.0, 262.0)",1.05,0.66,1,3842.649,1
0,185,target,"[(1028, 807)]",[],[1],[0.6333333333333333],horizontal,"(390.0, 762.0)",0.5333333333333333,0.59,1,3847.996,1
0,186,target,"[(1033, 829)]",[],[1],[0.5333333333333333],vertical,"(390.0, 262.0)",0.9166666666666666,0.491,1,3853.043,2
0,187,target,"[(1045, 809)]",[],[1],[0.5333333333333333],horizontal,"(890.0, 762.0)",1.35,0.494,1,3858.74,1
0,188,target,"[(1020, 843)]",[],[1],[0.4666666666666667],vertical,"(390.0, 762.0)",1.3333333333333333,0.424,1,3863.683,1
0,189,target,"[(1022, 834)]",[],[1],[0.5],horizontal,"(390.0, 262.0)",1.0,0.461,1,3869.771,1
0,190,target,"[(1037, 820)]",[],[1],[0.65],horizontal,"(390.0, 762.0)",0.85,0.603,1,3874.878,2
0,191,target,"[(1040, 860)]",[],[1],[0.6333333333333333],horizontal,"(890.0, 262.0)",0.5833333333333334,0.584,1,3880.378,1
0,192,target,"[(994, 816), (1029, 871)]",[],"[0, 1]",[0.4166666666666667],horizontal,"(390.0, 762.0)",0.7666666666666666,0.378,1,3885.351,1
0,193,target,"[(1039, 846)]",[],[1],[],horizontal,"(390.0, 762.0)",,"('cti', 1.3)",0,3928.459,0
0,194,target,"[(1068, 820)]",[],[1],[1.3],vertical,"(390.0, 762.0)",0.6333333333333333,1.247,0,3933.436,0
0,195,target,"[(1017, 833)]",[],[1],[0.8333333333333334],vertical,"(390.0, 762.0)",0.5333333333333333,0.786,1,3938.43,1
0,196,catch,"[(1030, 841)]",[],[1],[],vertical,"(390.0, 762.0)",1.3333333333333333,nan,1,3943.644,1
0,197,target,"[(1049, 825)]",[],[1],[1.65],vertical,"(890.0, 262.0)",1.6,1.604,0,3948.874,0
0,198,target,"[(1029, 871)]",[],[1],[0.36666666666666664],vertical,"(890.0, 262.0)",1.5833333333333333,0.335,1,3955.31,1
0,199,target,"[(1046, 841)]",[],[1],[1.05],horizontal,"(890.0, 762.0)",0.65,1.011,0,3982.477,0
0,200,target,"[(1056, 813)]",[],[1],[0.05],horizontal,"(890.0, 262.0)",1.6833333333333333,0.019,0,3987.045,0
0,201,target,"[(1057, 833)]",[],[1],[0.7833333333333333],horizontal,"(890.0, 262.0)",1.1166666666666667,0.749,1,3991.811,1
0,202,target,"[(1047, 811)]",[],[1],[0.7833333333333333],horizontal,"(890.0, 262.0)",1.1666666666666667,0.737,1,3996.91,1
0,203,catch,"[(1056, 814)]",[],[1],[0.03333333333333333],vertical,"(890.0, 262.0)",1.6166666666666667,0.034,0,4002.344,0
0,204,catch,"[(1032, 842)]",[],[1],[],horizontal,"(890.0, 262.0)",1.3833333333333333,nan,1,4007.612,1
0,205,target,"[(1057, 813)]",[],[1],[0.6],vertical,"(390.0, 262.0)",0.75,0.555,1,4013.256,1
0,206,target,"[(1025, 829)]",[],[1],[0.5],horizontal,"(890.0, 762.0)",1.0833333333333333,0.458,1,4018.345,1
0,207,target,"[(1037, 811)]",[],[1],[0.5666666666666667],vertical,"(390.0, 262.0)",1.2,0.53,1,4023.837,2
0,208,target,"[(1038, 813)]",[],[1],[0.43333333333333335],horizontal,"(890.0, 262.0)",1.3166666666666667,0.392,1,4029.591,1
0,209,target,"[(1045, 817)]",[],[1],[0.05],vertical,"(390.0, 762.0)",1.5833333333333333,0.019,0,4034.751,0
0,210,target,"[(1033, 813)]",[],[1],[0.3833333333333333],horizontal,"(890.0, 262.0)",1.3333333333333333,0.348,1,4039.694,1
0,211,target,"[(1057, 811)]",[],[1],[],vertical,"(890.0, 262.0)",,"('cti', 1.551)",0,4045.251,0
0,212,catch,"[(1034, 829)]",[],[1],[],horizontal,"(390.0, 762.0)",1.5833333333333333,nan,1,4050.152,1
0,213,target,"[(1013, 818)]",[],[1],[0.3833333333333333],horizontal,"(890.0, 762.0)",1.3333333333333333,0.353,1,4056.845,1
0,214,target,"[(1029, 832)]",[],[1],[0.4166666666666667],horizontal,"(890.0, 262.0)",1.25,0.38,1,4062.907,1
0,215,target,"[(1027, 816)]",[],[1],[0.3833333333333333],horizontal,"(390.0, 762.0)",1.1,0.345,1,4068.179,2
0,216,target,"[(1032, 818)]",[],[1],[0.6333333333333333],horizontal,"(390.0, 762.0)",0.95,0.596,1,4074.006,1
0,217,target,"[(1020, 805)]",[],[1],[0.6333333333333333],vertical,"(390.0, 762.0)",0.95,0.592,1,4079.372,1
0,218,target,"[(1010, 805)]",[],[1],[1.1833333333333333],horizontal,"(890.0, 762.0)",1.45,1.129,0,4084.246,0
0,219,target,"[(1022, 799)]",[],[1],[0.6333333333333333],horizontal,"(390.0, 762.0)",0.9166666666666666,0.594,1,4090.137,1
0,220,target,"[(1026, 809)]",[],[1],[0.5666666666666667],horizontal,"(390.0, 262.0)",1.4,0.525,1,4096.495,1
0,221,target,"[(1046, 827)]",[],[1],[0.5666666666666667],vertical,"(890.0, 262.0)",1.5,0.526,1,4103.595,1
0,222,target,"[(1057, 822)]",[],[1],[0.9],vertical,"(890.0, 262.0)",0.8,0.859,0,4109.156,0
0,223,target,"[(1020, 824)]",[],[1],[1.8333333333333333],vertical,"(890.0, 762.0)",0.55,1.771,0,4113.662,0
0,224,catch,"[(1033, 819)]",[],[1],[],vertical,"(390.0, 262.0)",1.4833333333333334,nan,1,4118.904,1
0,225,target,"[(1041, 823)]",[],[1],[0.6333333333333333],horizontal,"(390.0, 762.0)",1.1,0.592,1,4123.89,1
0,226,target,"[(1022, 828)]",[],[1],[0.5666666666666667],horizontal,"(390.0, 262.0)",0.6333333333333333,0.521,1,4128.895,1
0,227,target,"[(1029, 828)]",[],[1],[0.5166666666666666],vertical,"(890.0, 762.0)",1.0666666666666667,0.479,1,4134.146,2
0,228,target,"[(1013, 823)]",[],[1],[0.4666666666666667],vertical,"(890.0, 762.0)",1.1833333333333333,0.428,1,4139.729,1
0,229,target,"[(1057, 838)]",[],[1],[0.48333333333333334],horizontal,"(390.0, 262.0)",0.75,0.445,1,4188.87,1
0,230,target,"[(1037, 839)]",[],[1],[0.16666666666666666],vertical,"(390.0, 262.0)",1.25,0.136,1,4193.911,1
0,231,catch,"[(1039, 824)]",[],[1],[],vertical,"(890.0, 762.0)",1.25,nan,1,4199.263,2
0,232,target,"[(1053, 799)]",[],[1],[0.7833333333333333],vertical,"(390.0, 762.0)",0.8166666666666667,0.74,1,4204.446,1
0,233,target,"[(997, 838), (1029, 850)]",[],"[0, 1]",[0.6333333333333333],horizontal,"(390.0, 762.0)",0.9,0.588,1,4209.104,1
0,234,target,"[(1024, 828)]",[],[1],[0.5166666666666666],vertical,"(890.0, 262.0)",1.0833333333333333,0.476,1,4215.898,1
0,235,target,"[(994, 828), (1017, 833)]",[],"[0, 1]",[0.36666666666666664],vertical,"(390.0, 762.0)",1.0333333333333332,0.334,1,4221.363,2
0,236,target,"[(1010, 821)]",[],[1],[0.8666666666666667],horizontal,"(890.0, 762.0)",1.0333333333333332,0.818,0,4228.695,0
0,237,target,"[(1036, 813)]",[],[1],[1.3],horizontal,"(390.0, 262.0)",0.6166666666666667,1.243,0,4234.663,0
0,238,target,"[(1022, 828)]",[],[1],[0.65],horizontal,"(390.0, 762.0)",1.35,0.606,1,4239.533,1
0,239,target,"[(1033, 832)]",[],[1],[0.9166666666666666],horizontal,"(390.0, 262.0)",0.8833333333333333,0.866,0,4245.387,0
0,240,target,"[(1025, 780)]",[],[1],[0.75],vertical,"(890.0, 262.0)",0.8666666666666667,0.705,1,4250.282,1
0,241,target,"[(1038, 837)]",[],[1],[0.5666666666666667],vertical,"(890.0, 762.0)",0.6833333333333333,0.522,1,4255.403,1
0,242,catch,"[(1033, 815)]",[],[1],[],vertical,"(890.0, 762.0)",1.4833333333333334,nan,1,4260.212,1
0,243,target,"[(1026, 828)]",[],[1],[0.6666666666666666],horizontal,"(390.0, 262.0)",1.0166666666666666,0.621,1,4265.63,2
0,244,target,"[(1042, 811)]",[],[1],[0.55],horizontal,"(390.0, 262.0)",0.9,0.517,1,4271.613,1
0,245,target,"[(1048, 819)]",[],[1],[0.5666666666666667],horizontal,"(390.0, 762.0)",0.6166666666666667,0.524,1,4276.48,1
0,246,target,"[(1029, 815)]",[],[1],[0.7],horizontal,"(390.0, 762.0)",0.9,0.66,1,4281.324,1
0,247,target,"[(1057, 807)]",[],[1],[0.4666666666666667],vertical,"(890.0, 262.0)",0.9,0.425,1,4286.58,2
0,248,target,"[(1061, 804)]",[],[1],[],vertical,"(890.0, 262.0)",,"('cti', 1.48)",0,4292.149,0
0,249,target,"[(1053, 814)]",[],[1],[0.6],horizontal,"(390.0, 762.0)",1.0,0.555,1,4296.88,1
0,250,target,"[(1041, 832)]",[],[1],[0.5833333333333334],vertical,"(390.0, 262.0)",1.25,0.538,1,4302.174,1
0,251,target,"[(1041, 807)]",[],[1],[0.4666666666666667],horizontal,"(890.0, 262.0)",1.3333333333333333,0.43,1,4307.557,1
0,252,target,"[(1043, 804)]",[],[1],[0.5666666666666667],vertical,"(390.0, 262.0)",0.7833333333333333,0.526,1,4313.029,2
0,253,catch,"[(1072, 802)]",[],[1],[],horizontal,"(390.0, 262.0)",1.3166666666666667,nan,1,4317.846,1
0,254,target,"[(1014, 819)]",[],[1],[0.6333333333333333],vertical,"(890.0, 262.0)",0.6833333333333333,0.586,1,4322.49,1
0,255,target,"[(1061, 827)]",[],[1],[0.6166666666666667],horizontal,"(890.0, 762.0)",1.0833333333333333,0.576,1,4327.575,1
0,256,target,"[(1049, 815)]",[],[1],[0.6333333333333333],vertical,"(890.0, 262.0)",0.8666666666666667,0.59,1,4332.479,2
0,257,target,"[(1028, 847)]",[],[1],[0.06666666666666667],horizontal,"(390.0, 262.0)",1.6666666666666667,0.036,0,4337.796,0
0,258,target,"[(1041, 828)]",[],[1],[0.6166666666666667],vertical,"(390.0, 762.0)",1.25,0.568,1,4342.986,1
0,259,target,"[(1041, 810)]",[],[1],[0.6666666666666666],horizontal,"(390.0, 762.0)",1.0666666666666667,0.629,1,4348.495,1
0,260,target,"[(1033, 801)]",[],[1],[0.6833333333333333],horizontal,"(390.0, 762.0)",1.1333333333333333,0.647,1,4353.828,1
0,261,target,"[(1069, 813)]",[],[1],[0.5833333333333334],horizontal,"(390.0, 762.0)",1.3833333333333333,0.55,1,4359.013,2
0,262,target,"[(1053, 823)]",[],[1],[0.5833333333333334],vertical,"(890.0, 262.0)",1.4666666666666666,0.542,1,4364.742,1
0,263,target,"[(1071, 806)]",[],[1],[0.65],vertical,"(890.0, 262.0)",1.0,0.615,1,4369.97,1
0,264,target,"[(1069, 816)]",[],[1],[0.8166666666666667],vertical,"(390.0, 262.0)",0.65,0.769,1,4375.352,1
0,265,target,"[(1053, 810)]",[],[1],[0.6333333333333333],horizontal,"(890.0, 262.0)",0.95,0.591,1,4380.69,2
0,266,target,"[(1013, 849)]",[],[1],[0.55],horizontal,"(390.0, 262.0)",0.8166666666666667,0.51,1,4386.627,1
0,267,target,"[(1007, 854)]",[],[1],[0.5833333333333334],vertical,"(890.0, 762.0)",0.9833333333333333,0.546,1,4654.129,1
0,268,target,"[(1013, 834)]",[],[1],[1.3666666666666667],horizontal,"(890.0, 762.0)",0.65,1.315,0,4659.825,0
0,269,target,"[(1017, 836)]",[],[1],[0.6],horizontal,"(390.0, 262.0)",0.5,0.573,1,4665.379,1
0,270,target,"[(1030, 802)]",[],[1],[1.2666666666666666],horizontal,"(890.0, 762.0)",0.5166666666666666,1.252,0,4670.192,0
0,271,target,"[(1035, 855)]",[],[1],[0.6166666666666667],horizontal,"(390.0, 262.0)",0.9333333333333333,0.58,1,4675.2,1
0,272,target,"[(1029, 828)]",[],[1],[0.5666666666666667],horizontal,"(390.0, 762.0)",1.1833333333333333,0.536,1,4680.137,1
0,273,target,"[(1057, 806)]",[],[1],[0.8333333333333334],horizontal,"(890.0, 762.0)",1.0833333333333333,0.81,0,4685.345,0
0,274,target,"[(1033, 824)]",[],[1],[0.5333333333333333],vertical,"(890.0, 262.0)",0.8666666666666667,0.502,1,4690.238,1
0,275,target,"[(1017, 810)]",[],[1],[0.5],horizontal,"(890.0, 262.0)",0.95,0.463,1,4695.345,1
0,276,target,"[(1059, 809)]",[],[1],[1.7833333333333332],horizontal,"(390.0, 262.0)",1.2833333333333332,1.753,0,4700.253,0
0,277,target,"[(1056, 829)]",[],[1],[0.65],vertical,"(890.0, 262.0)",0.6666666666666666,0.622,1,4706.175,1
0,278,target,"[(1061, 811)]",[],[1],[0.55],horizontal,"(390.0, 762.0)",1.45,0.52,1,4711.018,1
0,279,target,"[(1040, 833)]",[],[1],[0.43333333333333335],vertical,"(390.0, 262.0)",1.5166666666666666,0.4,1,4716.162,1
0,280,target,"[(1049, 821)]",[],[1],[0.4666666666666667],vertical,"(390.0, 762.0)",1.5,0.432,1,4722.379,2
0,281,target,"[(1061, 821)]",[],[1],[0.7666666666666666],vertical,"(390.0, 762.0)",0.6833333333333333,0.734,1,4728.113,1
0,282,target,"[(1024, 822)]",[],[1],[0.06666666666666667],horizontal,"(390.0, 262.0)",1.6333333333333333,0.035,0,4732.796,0
0,283,target,"[(1026, 814)]",[],[1],[0.7333333333333333],vertical,"(390.0, 762.0)",1.0666666666666667,0.697,1,4737.995,1
0,284,target,"[(1017, 837)]",[],[1],[0.65],vertical,"(390.0, 762.0)",1.0,0.614,1,4743.167,1
0,285,target,"[(1034, 817)]",[],[1],[0.15],vertical,"(390.0, 762.0)",1.4166666666666667,0.117,1,4749.088,1
0,286,target,"[(1037, 794)]",[],[1],[0.23333333333333334],vertical,"(390.0, 262.0)",1.5333333333333332,0.202,1,4754.46,2
0,287,target,"[(1049, 803)]",[],[1],[0.5333333333333333],vertical,"(890.0, 262.0)",1.1666666666666667,0.497,1,4759.77,1
0,288,target,"[(1046, 828)]",[],[1],[0.35],horizontal,"(390.0, 262.0)",1.4666666666666666,0.318,1,4764.949,1
0,289,catch,"[(1057, 821)]",[],[1],[],horizontal,"(390.0, 762.0)",1.15,nan,1,4770.338,1
0,290,target,"[(1057, 830)]",[],[1],[],horizontal,"(890.0, 262.0)",,"('cti', 0.56)",0,4774.933,0
0,291,target,"[(1057, 849)]",[],[1],[0.65],horizontal,"(890.0, 762.0)",0.65,0.613,1,4778.921,1
0,292,target,"[(1033, 813)]",[],[1],[0.43333333333333335],horizontal,"(890.0, 762.0)",1.35,0.4,1,4784.87,1
0,293,catch,"[(1033, 826)]",[],[1],[],vertical,"(890.0, 262.0)",1.2666666666666666,nan,1,4789.886,1
0,294,target,"[(1040, 811)]",[],[1],[0.5333333333333333],vertical,"(890.0, 262.0)",0.9666666666666667,0.503,1,4794.813,2
0,295,target,"[(1037, 825)]",[],[1],[0.6],horizontal,"(390.0, 762.0)",0.55,0.561,1,4800.024,1
0,296,target,"[(1038, 810)]",[],[1],[0.55],vertical,"(890.0, 262.0)",0.7666666666666666,0.516,1,4805.13,1
0,297,target,"[(1037, 816)]",[],[1],[0.9166666666666666],vertical,"(390.0, 262.0)",0.8833333333333333,0.887,0,4810.122,0
0,298,target,"[(1057, 794)]",[],[1],[0.08333333333333333],vertical,"(890.0, 262.0)",1.6833333333333333,0.051,0,4814.859,0
0,299,target,"[(1052, 837)]",[],[1],[],horizontal,"(390.0, 762.0)",,"('cti', 1.185)",0,4819.688,0
0,300,target,"[(1034, 833)]",[],[1],[1.0166666666666666],horizontal,"(390.0, 762.0)",0.85,0.988,0,4824.409,0
0,301,target,"[(1040, 805)]",[],[1],[0.6166666666666667],vertical,"(390.0, 762.0)",1.1833333333333333,0.587,1,4828.898,1
0,302,target,"[(1036, 813)]",[],[1],[0.48333333333333334],horizontal,"(390.0, 762.0)",1.1833333333333333,0.446,1,4834.225,1
0,303,target,"[(1053, 802)]",[],[1],[0.6833333333333333],horizontal,"(390.0, 762.0)",0.9666666666666667,0.642,1,4839.46,1
0,304,target,"[(1035, 824)]",[],[1],[0.5833333333333334],horizontal,"(890.0, 262.0)",1.25,0.545,1,4844.462,2
0,305,target,"[(1058, 797)]",[],[1],[0.6666666666666666],horizontal,"(890.0, 262.0)",1.6166666666666667,0.631,1,4850.297,1
0,306,target,"[(1019, 817)]",[],[1],[0.18333333333333332],horizontal,"(390.0, 762.0)",1.6666666666666667,0.155,1,4856.105,1
0,307,target,"[(1014, 828)]",[],[1],[7.983333333333333],vertical,"(390.0, 262.0)",1.6166666666666667,"('cti', 1.634),8.064",0,4861.512,0
0,308,target,"[(1036, 846)]",[],[1],[0.45],horizontal,"(390.0, 762.0)",1.0666666666666667,0.413,1,4874.551,1
0,309,target,"[(1019, 818)]",[],[1],[0.5],vertical,"(390.0, 762.0)",1.1833333333333333,0.466,1,4879.847,1
0,310,catch,"[(1022, 825)]",[],[1],[],horizontal,"(890.0, 262.0)",1.5,"('cti', 1.503),nan",1,4884.721,1
0,311,catch,"[(1037, 824)]",[],[1],[],horizontal,"(890.0, 762.0)",1.35,nan,1,4890.18,2
0,312,target,"[(1038, 835)]",[],[1],[0.5333333333333333],horizontal,"(390.0, 262.0)",0.9166666666666666,0.502,1,4896.015,1
0,313,target,"[(1017, 806)]",[],[1],[2.8333333333333335],horizontal,"(890.0, 762.0)",1.6,"('cti', 1.626),2.81",0,4901.169,0
0,314,target,"[(1056, 810)]",[],[1],[0.5666666666666667],horizontal,"(890.0, 262.0)",0.6833333333333333,0.542,1,4908.747,1
0,315,target,"[(1038, 828)]",[],[1],[0.5333333333333333],vertical,"(890.0, 762.0)",0.9666666666666667,0.503,1,4913.513,1
0,316,target,"[(1037, 847)]",[],[1],[0.8],vertical,"(390.0, 762.0)",0.85,0.763,1,4918.585,1
0,317,target,"[(1033, 821)]",[],[1],[],horizontal,"(890.0, 262.0)",,"('cti', 1.243)",0,4923.873,0
0,318,target,"[(1041, 818)]",[],[1],[0.4166666666666667],horizontal,"(890.0, 262.0)",1.5,0.388,1,4928.798,1
0,319,target,"[(1057, 808)]",[],[1],[1.15],horizontal,"(390.0, 262.0)",0.5666666666666667,1.133,0,4934.396,0
0,320,target,"[(1057, 806)]",[],[1],[0.5333333333333333],horizontal,"(890.0, 262.0)",1.2833333333333332,0.507,1,4939.048,1
0,321,target,"[(1061, 808)]",[],[1],[0.13333333333333333],horizontal,"(390.0, 762.0)",1.55,0.102,1,4944.564,1
0,322,target,"[(1042, 821)]",[],[1],[0.4166666666666667],horizontal,"(390.0, 262.0)",1.4333333333333333,0.384,1,4949.457,1
0,323,target,"[(1034, 811)]",[],[1],[0.55],vertical,"(890.0, 262.0)",0.6833333333333333,0.519,1,4955.056,2
0,324,target,"[(1056, 794)]",[],[1],[20.566666666666666],horizontal,"(390.0, 262.0)",1.5166666666666666,"('cti', 1.545),20.714",0,4960.537,0
0,325,target,"[(1057, 842)]",[],[1],[0.5166666666666666],horizontal,"(890.0, 262.0)",1.0,0.479,1,4985.882,1
0,326,target,"[(1040, 826)]",[],[1],[1.0333333333333332],vertical,"(390.0, 762.0)",1.2166666666666666,1.017,0,4991.086,0
0,327,target,"[(1033, 833)]",[],[1],[0.5833333333333334],horizontal,"(890.0, 262.0)",0.9333333333333333,0.551,1,4996.181,1
0,328,target,"[(1038, 804)]",[],[1],[0.6166666666666667],horizontal,"(890.0, 262.0)",1.6166666666666667,0.591,1,5001.08,1
0,329,target,"[(1033, 825)]",[],[1],[0.36666666666666664],horizontal,"(890.0, 762.0)",1.25,0.34,1,5006.651,1
0,330,target,"[(1038, 826)]",[],[1],[0.5666666666666667],horizontal,"(890.0, 262.0)",0.75,0.546,1,5011.568,2
0,331,target,"[(1037, 816)]",[],[1],[],vertical,"(890.0, 262.0)",,"('cti', 1.544)",0,5016.561,0
0,332,target,"[(1065, 808)]",[],[1],[0.7166666666666667],vertical,"(890.0, 762.0)",1.0333333333333332,0.692,1,5021.647,1
0,333,target,"[(1037, 823)]",[],[1],[0.6666666666666666],horizontal,"(390.0, 262.0)",1.0,0.639,1,5026.779,1
0,334,catch,"[(1056, 811)]",[],[1],[],vertical,"(390.0, 262.0)",,"('cti', 1.578),nan",1,5031.947,1
0,335,target,"[(1029, 823)]",[],[1],[0.48333333333333334],vertical,"(390.0, 762.0)",1.15,0.448,1,5037.231,2
0,336,target,"[(1028, 810)]",[],[1],[0.3833333333333333],horizontal,"(390.0, 262.0)",1.25,0.35,1,5042.864,1
0,337,target,"[(1053, 809)]",[],[1],[0.5],vertical,"(390.0, 262.0)",1.2166666666666666,0.461,1,5048.347,1
0,338,target,"[(1033, 816)]",[],[1],[0.6333333333333333],vertical,"(890.0, 762.0)",1.25,0.592,1,5053.83,1
0,339,target,"[(1057, 818)]",[],[1],[0.2833333333333333],horizontal,"(890.0, 762.0)",1.55,0.252,1,5059.388,2
0,340,target,"[(1032, 797)]",[],[1],[0.3833333333333333],vertical,"(890.0, 762.0)",1.0833333333333333,0.351,1,5065.233,1
0,341,target,"[(1053, 820)]",[],[1],[0.65],horizontal,"(390.0, 262.0)",0.65,0.623,1,5070.563,1
0,342,target,"[(1034, 815)]",[],[1],[0.6833333333333333],vertical,"(390.0, 262.0)",0.6,0.657,1,5075.98,1
0,343,target,"[(1061, 820)]",[],[1],[0.5666666666666667],vertical,"(890.0, 262.0)",0.55,0.542,1,5081.014,2
0,344,target,"[(1073, 808)]",[],[1],[0.5333333333333333],vertical,"(890.0, 262.0)",0.9666666666666667,0.489,1,5086.149,1
0,345,target,"[(1029, 830)]",[],[1],[0.65],horizontal,"(890.0, 762.0)",0.55,0.607,1,5090.753,1
0,346,target,"[(1037, 806)]",[],[1],[0.6333333333333333],horizontal,"(390.0, 762.0)",0.7333333333333333,0.595,1,5096.087,1
0,347,target,"[(1025, 864)]",[],[1],[0.7166666666666667],horizontal,"(890.0, 762.0)",1.2666666666666666,0.671,1,5101.328,2
0,348,target,"[(1023, 850)]",[],[1],[0.5166666666666666],vertical,"(890.0, 262.0)",1.2833333333333332,0.47,1,6976.309,1
0,349,catch,"[(1040, 825)]",[],[1],[],horizontal,"(390.0, 762.0)",,"('cti', 1.385),nan",1,6982.036,1
0,350,target,"[(1032, 842)]",[],[1],[0.6666666666666666],horizontal,"(390.0, 262.0)",0.6166666666666667,0.619,1,6987.441,1
0,351,target,"[(1056, 818)]",[],[1],[0.4],vertical,"(390.0, 262.0)",1.6,0.363,1,6991.973,2
0,352,target,"[(1024, 820)]",[],[1],[0.5833333333333334],vertical,"(390.0, 762.0)",0.9333333333333333,0.545,1,6997.727,1
0,353,target,"[(998, 822), (1031, 844)]",[],"[0, 1]",[0.4166666666666667],horizontal,"(390.0, 762.0)",0.75,0.378,1,7003.025,1
0,354,catch,"[(1028, 810)]",[],[1],[],horizontal,"(890.0, 262.0)",1.2333333333333334,nan,1,7010.413,1
0,355,target,"[(1049, 819)]",[],[1],[0.36666666666666664],vertical,"(390.0, 762.0)",1.2,0.327,1,7015.346,2
0,356,target,"[(1041, 814)]",[],[1],[0.5166666666666666],horizontal,"(890.0, 262.0)",0.9333333333333333,0.477,1,7020.709,1
0,357,target,"[(1038, 824)]",[],[1],[0.5833333333333334],vertical,"(890.0, 262.0)",0.95,0.543,1,7025.804,1
0,358,target,"[(1033, 804)]",[],[1],[0.6833333333333333],vertical,"(390.0, 762.0)",0.7166666666666667,0.644,1,7031.221,1
0,359,target,"[(1056, 804)]",[],[1],[0.7],vertical,"(390.0, 762.0)",0.8833333333333333,0.655,1,7036.159,2
0,360,target,"[(1053, 822)]",[],[1],[0.4],vertical,"(890.0, 262.0)",1.5666666666666667,0.367,1,7041.336,1
0,361,target,"[(1006, 808)]",[],[1],[0.1],vertical,"(390.0, 262.0)",1.1833333333333333,0.067,0,7046.826,0
0,362,catch,"[(1053, 820)]",[],[1],[],horizontal,"(890.0, 262.0)",1.2666666666666666,nan,1,7051.658,1
0,363,target,"[(1055, 808)]",[],[1],[0.1],horizontal,"(890.0, 762.0)",1.2833333333333332,0.068,0,7056.262,0
0,364,target,"[(1068, 813)]",[],[1],[0.5],vertical,"(890.0, 262.0)",1.2166666666666666,0.46,1,7060.958,1
0,365,target,"[(1068, 804)]",[],[1],[0.5333333333333333],vertical,"(890.0, 262.0)",0.8,0.49,1,7066.093,1
0,366,target,"[(1055, 818)]",[],[1],[0.25],vertical,"(890.0, 762.0)",1.2166666666666666,0.219,1,7070.858,1
0,367,target,"[(1061, 819)]",[],[1],[0.7333333333333333],vertical,"(390.0, 262.0)",0.6333333333333333,0.689,1,7075.566,2
0,368,target,"[(1038, 804)]",[],[1],[0.5666666666666667],horizontal,"(390.0, 762.0)",0.7166666666666667,0.527,1,7081.059,1
0,369,target,"[(1060, 804)]",[],[1],[0.5166666666666666],vertical,"(890.0, 262.0)",0.7,0.48,1,7085.925,1
0,370,target,"[(1056, 824)]",[],[1],[],horizontal,"(890.0, 262.0)",,"('cti', 1.566)",0,7090.959,0
0,371,target,"[(1049, 809)]",[],[1],[0.5666666666666667],vertical,"(390.0, 262.0)",1.65,0.531,1,7095.893,1
0,372,target,"[(1061, 820)]",[],[1],[0.36666666666666664],horizontal,"(390.0, 262.0)",1.2666666666666666,0.334,1,7101.276,1
0,373,target,"[(1033, 795)]",[],[1],[1.1833333333333333],horizontal,"(890.0, 262.0)",0.6333333333333333,1.133,0,7106.397,0
0,374,target,"[(1073, 811)]",[],[1],[0.25],vertical,"(390.0, 762.0)",1.25,0.22,1,7111.021,1
0,375,target,"[(1038, 799)]",[],[1],[0.48333333333333334],vertical,"(390.0, 262.0)",1.1,0.441,1,7116.211,1
0,376,target,"[(1057, 807)]",[],[1],[0.55],vertical,"(390.0, 262.0)",0.5833333333333334,0.508,1,7121.405,1
0,377,target,"[(1033, 807)]",[],[1],[0.65],horizontal,"(390.0, 762.0)",1.6666666666666667,0.615,1,7126.025,2
0,378,target,"[(1039, 833)]",[],[1],[0.7333333333333333],horizontal,"(890.0, 262.0)",0.9,0.688,1,7132.386,1
0,379,target,"[(1053, 819)]",[],[1],[0.7666666666666666],vertical,"(890.0, 262.0)",0.6333333333333333,0.725,1,7137.763,1
0,380,target,"[(1052, 820)]",[],[1],[0.5833333333333334],vertical,"(890.0, 262.0)",0.9333333333333333,0.54,1,7142.292,1
0,381,target,"[(1052, 819)]",[],[1],[0.75],vertical,"(390.0, 262.0)",0.6,0.701,1,7147.209,2
0,382,target,"[(1039, 828)]",[],[1],[0.55],horizontal,"(890.0, 762.0)",0.9666666666666667,0.512,1,7152.61,1
0,383,target,"[(1037, 812)]",[],[1],[0.08333333333333333],horizontal,"(390.0, 262.0)",1.6,0.05,0,7158.076,0
0,384,target,"[(1041, 816)]",[],[1],[0.5333333333333333],vertical,"(890.0, 762.0)",0.7666666666666666,0.497,1,7162.766,1
0,385,target,"[(1055, 814)]",[],[1],[0.65],vertical,"(890.0, 762.0)",0.8166666666666667,0.617,1,7167.814,1
0,386,target,"[(1058, 812)]",[],[1],[0.5833333333333334],vertical,"(890.0, 262.0)",1.1166666666666667,0.546,1,7173.246,1
0,387,target,"[(1033, 822)]",[],[1],[0.55],vertical,"(390.0, 262.0)",1.3666666666666667,0.513,1,7178.576,2
0,388,target,"[(1063, 811)]",[],[1],[0.55],horizontal,"(890.0, 762.0)",0.5666666666666667,0.509,1,7184.693,1
0,389,target,"[(1002, 835), (1022, 836)]",[],"[0, 1]",[0.5833333333333334],horizontal,"(390.0, 262.0)",1.0333333333333332,0.544,1,7189.726,1
0,390,target,"[(1021, 835)]",[],[1],[0.26666666666666666],vertical,"(890.0, 262.0)",1.4833333333333334,0.23,1,7201.182,1
0,391,target,"[(1039, 812)]",[],[1],[0.5333333333333333],horizontal,"(890.0, 262.0)",1.0666666666666667,0.492,1,7206.392,2
0,392,target,"[(1061, 833)]",[],[1],[],vertical,"(390.0, 262.0)",,"('cti', 1.398)",0,7212.243,0
0,393,target,"[(1036, 823)]",[],[1],[0.5333333333333333],horizontal,"(890.0, 262.0)",1.4166666666666667,0.488,1,7216.977,1
0,394,target,"[(1053, 830)]",[],[1],[0.2833333333333333],horizontal,"(890.0, 762.0)",1.25,0.25,1,7222.027,1
0,395,target,"[(1058, 814)]",[],[1],[0.55],horizontal,"(890.0, 762.0)",0.5833333333333334,0.518,1,7227.177,1
0,396,target,"[(1010, 846)]",[],[1],[0.7],horizontal,"(890.0, 762.0)",1.0833333333333333,0.657,1,7232.114,2
