block,trial,trial_type,taps_start_loc_during_fix,taps_end_loc_during_fix,taps_on_lever_during_fix,taps_on_lever_s_during_fix,bar_orientation,target_xy,cti,rt,acc,time,pulses,fa_rate_recent100,actual_invalid_type
0,1,valid,"[(1136, 864)]",[],[1],[0.45],horizontal,"(890.0, 262.0)",1.4833333333333334,0.415,1,0.54,1,0.0,same
0,2,valid,"[(1075, 860)]",[],[1],[0.85],horizontal,"(390.0, 762.0)",0.8,nan,0,10.683,0,0.0,same
0,3,catch,"[(1086, 820)]",[],[1],[],vertical,"(390.0, 262.0)",1.7,nan,1,52.406,1,0.0,same
0,4,catch,"[(1120, 772)]",[],[1],[],vertical,"(390.0, 762.0)",1.7,nan,1,58.084,1,0.0,same
0,5,catch,"[(1125, 830)]",[],[1],[],vertical,"(390.0, 262.0)",1.7,nan,1,63.6,1,0.0,same
0,6,catch,"[(1145, 753), (1112, 858)]",[],"[0, 1]",[],horizontal,"(890.0, 762.0)",1.7,nan,1,68.659,2,0.0,same
0,7,valid,"[(1123, 829)]",[],[1],[0.6833333333333333],horizontal,"(390.0, 262.0)",1.1166666666666667,0.654,1,129.33,2,0.0,same
0,8,invalid_same_bar,"[(1128, 820)]",[],[1],[0.6666666666666666],horizontal,"(890.0, 762.0)",1.3,0.626,1,135.568,2,0.0,same
0,9,valid,"[(1132, 777)]",[],[1],[0.55],horizontal,"(390.0, 762.0)",1.2333333333333334,0.499,1,141.886,2,0.0,same
0,10,valid,"[(1125, 812)]",[],[1],[0.5166666666666666],horizontal,"(390.0, 262.0)",1.3333333333333333,0.488,1,148.064,3,0.0,same
0,11,invalid_adjacent_other_bar,"[(1136, 782)]",[],[1],[0.5],horizontal,"(890.0, 262.0)",1.1333333333333333,0.457,1,154.872,3,0.0,other
0,12,invalid_adjacent_other_bar,"[(1154, 792)]",[],[1],[0.65],horizontal,"(390.0, 262.0)",1.3666666666666667,0.6,1,160.569,3,0.0,other
0,13,valid,"[(1161, 793)]",[],[1],[0.5666666666666667],horizontal,"(390.0, 762.0)",1.0833333333333333,0.53,1,166.57,3,0.0,same
0,14,valid,"[(1124, 803)]",[],[1],[0.26666666666666666],vertical,"(390.0, 262.0)",1.3166666666666667,0.237,1,173.06,3,0.0,same
0,15,invalid_adjacent_other_bar,"[(1135, 762)]",[],[1],[0.85],horizontal,"(890.0, 262.0)",1.1833333333333333,nan,0,178.91,0,0.0,other
0,16,valid,"[(1126, 830)]",[],[1],[0.7333333333333333],horizontal,"(390.0, 262.0)",0.8833333333333333,0.691,1,184.243,1,0.0,same
0,17,valid,"[(1112, 856)]",[],[1],[0.7666666666666666],vertical,"(390.0, 762.0)",1.3166666666666667,0.716,1,193.044,1,0.0,same
0,18,valid,"[(1136, 791)]",[],[1],[0.8166666666666667],horizontal,"(390.0, 262.0)",1.5166666666666666,0.797,1,198.91,1,0.0,same
0,19,catch,"[(1161, 780)]",[],[1],[],horizontal,"(890.0, 762.0)",1.7,nan,1,204.724,2,0.0,same
0,20,valid,"[(1163, 793)]",[],[1],[0.65],vertical,"(390.0, 262.0)",1.2666666666666666,0.626,1,210.466,2,0.0,same
0,21,catch,"[(1164, 779)]",[],[1],[],horizontal,"(890.0, 262.0)",1.7,nan,1,216.355,2,0.0,same
0,22,valid,"[(1148, 769)]",[],[1],[0.6666666666666666],horizontal,"(890.0, 262.0)",1.0833333333333333,0.627,1,222.312,2,0.0,same
0,23,valid,"[(1161, 778)]",[],[1],[0.7166666666666667],vertical,"(890.0, 262.0)",1.5166666666666666,0.678,1,228.208,3,0.0,same
0,24,valid,"[(1161, 789)]",[],[1],[0.5666666666666667],horizontal,"(390.0, 762.0)",0.85,0.528,1,234.559,3,0.0,same
0,25,valid,"[(1164, 771)]",[],[1],[0.85],vertical,"(390.0, 762.0)",1.05,nan,0,240.159,0,0.0,same
0,26,valid,"[(1155, 805)]",[],[1],[0.6166666666666667],vertical,"(390.0, 762.0)",0.6833333333333333,0.578,1,244.628,1,0.0,same
0,27,valid,"[(1160, 786)]",[],[1],[0.6333333333333333],horizontal,"(890.0, 262.0)",1.3,0.589,1,249.572,1,0.0,same
0,28,catch,"[(1146, 778)]",[],[1],[],horizontal,"(890.0, 262.0)",1.7,nan,1,254.975,1,0.0,same
0,29,catch,"[(1150, 778)]",[],[1],[],vertical,"(390.0, 262.0)",1.7,nan,1,260.027,2,0.0,same
0,30,catch,"[(1165, 785)]",[],[1],[],vertical,"(890.0, 262.0)",1.7,nan,1,265.506,2,0.0,same
0,31,valid,"[(1163, 796)]",[],[1],[0.7],vertical,"(890.0, 262.0)",1.3666666666666667,0.654,1,271.36,2,0.0,same
0,32,catch,"[(1170, 769)]",[],[1],[],vertical,"(390.0, 262.0)",1.7,nan,1,277.209,2,0.0,same
0,33,catch,"[(1160, 791)]",[],[1],[],horizontal,"(390.0, 762.0)",1.7,nan,1,283.292,3,0.0,same
0,34,valid,"[(1172, 795)]",[],[1],[0.5333333333333333],vertical,"(390.0, 762.0)",1.5333333333333332,0.493,1,289.654,3,0.0,same
0,35,valid,"[(1165, 790)]",[],[1],[0.2833333333333333],vertical,"(890.0, 262.0)",1.5333333333333332,0.249,1,296.174,3,0.0,same
0,36,valid,"[(1163, 762)]",[],[1],[0.5166666666666666],horizontal,"(390.0, 262.0)",1.4166666666666667,0.483,1,302.144,3,0.0,same
0,37,valid,"[(1170, 789)]",[],[1],[0.6833333333333333],vertical,"(890.0, 262.0)",1.5333333333333332,0.643,1,308.093,3,0.0,same
0,38,valid,"[(1160, 793)]",[],[1],[0.6],horizontal,"(890.0, 262.0)",0.5833333333333334,0.557,1,314.26,3,0.0,same
0,39,catch,"[(1186, 781)]",[],[1],[],vertical,"(390.0, 762.0)",1.7,nan,1,319.626,3,0.0,same
0,40,valid,"[(1159, 774)]",[],[1],[0.5166666666666666],horizontal,"(390.0, 262.0)",0.5666666666666667,0.474,1,325.326,3,0.0,same
0,41,invalid_same_bar,"[(1191, 782)]",[],[1],[0.8333333333333334],vertical,"(390.0, 762.0)",1.1833333333333333,0.786,1,330.393,3,0.0,same
0,42,valid,"[(1160, 786)]",[],[1],[0.4666666666666667],vertical,"(890.0, 262.0)",1.1,0.426,1,336.426,3,0.0,same
0,43,catch,"[(1173, 787)]",[],[1],[],vertical,"(890.0, 762.0)",1.7,nan,1,341.893,3,0.0,same
0,44,valid,"[(1158, 754)]",[],[1],[],horizontal,"(390.0, 762.0)",,"('cti', 1.481)",0,348.03,0,0.0,same
0,45,valid,"[(1119, 799)]",[],[1],[0.65],vertical,"(890.0, 262.0)",1.1,0.605,1,352.901,1,0.0,same
0,46,catch,"[(1161, 770)]",[],[1],[],horizontal,"(890.0, 762.0)",1.7,nan,1,358.49,1,0.0,same
0,47,catch,"[(1168, 766)]",[],[1],[],vertical,"(890.0, 762.0)",1.7,nan,1,363.36,1,0.0,same
0,48,valid,"[(1161, 760)]",[],[1],[0.5333333333333333],horizontal,"(390.0, 762.0)",0.6666666666666666,0.49,1,368.26,2,0.0,same
0,49,valid,"[(1168, 769)]",[],[1],[0.5333333333333333],vertical,"(390.0, 262.0)",0.6333333333333333,0.494,1,373.076,2,0.0,same
0,50,catch,"[(1185, 777)]",[],[1],[],vertical,"(890.0, 262.0)",1.7,nan,1,378.011,2,0.0,same
0,51,valid,"[(1166, 770)]",[],[1],[0.85],vertical,"(390.0, 262.0)",1.2166666666666666,nan,0,383.71,0,0.0,same
0,52,valid,"[(1160, 786)]",[],[1],[0.5666666666666667],horizontal,"(390.0, 262.0)",1.0833333333333333,0.527,1,388.643,1,0.0,same
0,53,catch,"[(1120, 760)]",[],[1],[],vertical,"(890.0, 762.0)",1.7,nan,1,393.661,1,0.0,same
0,54,invalid_same_bar,"[(1144, 775)]",[],[1],[0.85],horizontal,"(890.0, 762.0)",0.5833333333333334,nan,0,398.413,0,0.0,same
0,55,valid,"[(1150, 801)]",[],[1],[0.5],vertical,"(890.0, 762.0)",1.1666666666666667,0.46,1,402.592,1,0.0,same
0,56,invalid_same_bar,"[(1164, 762)]",[],[1],[0.5333333333333333],horizontal,"(890.0, 262.0)",1.1,0.492,1,407.61,1,0.0,same
0,57,valid,"[(1156, 772)]",[],[1],[0.5166666666666666],vertical,"(890.0, 762.0)",0.6833333333333333,0.475,1,412.725,1,0.0,same
0,58,valid,"[(1165, 782)]",[],[1],[0.6833333333333333],vertical,"(390.0, 262.0)",1.4333333333333333,0.639,1,417.525,2,0.0,same
0,59,invalid_same_bar,"[(1180, 764)]",[],[1],[0.85],horizontal,"(890.0, 762.0)",0.5666666666666667,nan,0,423.376,0,0.0,same
0,60,valid,"[(1149, 787)]",[],[1],[0.5666666666666667],vertical,"(390.0, 762.0)",0.6333333333333333,0.534,1,427.494,1,0.0,same
0,61,valid,"[(1158, 773)]",[],[1],[0.55],horizontal,"(890.0, 262.0)",0.9,0.506,1,432.435,1,0.0,same
0,62,valid,"[(1169, 802)]",[],[1],[0.4666666666666667],vertical,"(890.0, 262.0)",0.4166666666666667,0.427,1,437.158,1,0.0,same
0,63,catch,"[(1165, 765)]",[],[1],[],vertical,"(390.0, 262.0)",1.7,nan,1,441.465,2,0.0,same
0,64,valid,"[(1177, 780)]",[],[1],[0.5666666666666667],vertical,"(390.0, 762.0)",0.6166666666666667,0.53,1,446.911,2,0.0,same
0,65,catch,"[(1185, 781)]",[],[1],[],horizontal,"(390.0, 262.0)",1.7,nan,1,451.878,2,0.0,same
0,66,valid,"[(1180, 789)]",[],[1],[0.55],horizontal,"(390.0, 762.0)",1.2,0.508,1,457.511,2,0.0,same
0,67,valid,"[(1169, 809)]",[],[1],[0.5333333333333333],horizontal,"(390.0, 762.0)",0.4166666666666667,0.491,1,463.443,3,0.0,same
0,68,invalid_same_bar,"[(1170, 804)]",[],[1],[0.85],vertical,"(390.0, 262.0)",1.1166666666666667,nan,0,468.817,0,0.0,same
0,69,valid,"[(1089, 782)]",[],[1],[0.5333333333333333],horizontal,"(890.0, 262.0)",1.3333333333333333,0.495,1,473.498,1,0.0,same
0,70,valid,"[(1160, 761)]",[],[1],[0.65],vertical,"(890.0, 762.0)",0.43333333333333335,0.612,1,478.623,1,0.0,same
0,71,invalid_adjacent_other_bar,"[(1175, 767)]",[],[1],[0.6166666666666667],horizontal,"(890.0, 262.0)",1.4,0.577,1,483.105,1,0.0,other
0,72,valid,"[(1165, 781)]",[],[1],[0.55],horizontal,"(390.0, 262.0)",1.0333333333333332,0.509,1,488.538,2,0.0,same
0,73,valid,"[(1163, 766)]",[],[1],[0.85],vertical,"(890.0, 762.0)",0.7,nan,0,494.264,0,0.0,same
0,74,catch,"[(1150, 786)]",[],[1],[],vertical,"(390.0, 762.0)",1.7,"('cti', 1.69),nan",0,498.966,0,0.02,same
0,75,valid,"[(1137, 792)]",[],[1],[0.6666666666666666],horizontal,"(390.0, 762.0)",1.1,0.62,1,503.892,1,0.02,same
0,76,catch,"[(1166, 770)]",[],[1],[],vertical,"(390.0, 262.0)",1.7,nan,1,509.244,1,0.02,same
0,77,invalid_same_bar,"[(1152, 766)]",[],[1],[0.6833333333333333],horizontal,"(890.0, 762.0)",0.4666666666666667,0.637,1,514.293,1,0.02,same
0,78,valid,"[(1180, 764)]",[],[1],[0.55],vertical,"(390.0, 262.0)",0.6333333333333333,0.505,1,518.993,2,0.02,same
0,79,valid,"[(1200, 781)]",[],[1],[0.48333333333333334],vertical,"(890.0, 262.0)",1.3833333333333333,0.441,1,524.211,2,0.02,same
0,80,valid,"[(1183, 772)]",[],[1],[0.85],vertical,"(390.0, 262.0)",0.8666666666666667,nan,0,529.676,0,0.02,same
0,81,valid,"[(1155, 779)]",[],[1],[0.65],vertical,"(390.0, 762.0)",0.36666666666666664,0.601,1,534.415,1,0.02,same
0,82,invalid_adjacent_other_bar,"[(1148, 796)]",[],[1],[0.85],horizontal,"(890.0, 262.0)",0.36666666666666664,nan,0,538.761,0,0.02,other
0,83,valid,"[(1135, 790)]",[],[1],[0.6],vertical,"(390.0, 762.0)",1.0166666666666666,0.554,1,542.961,1,0.02,same
0,84,valid,"[(1150, 768)]",[],[1],[0.5333333333333333],vertical,"(890.0, 762.0)",1.3666666666666667,0.49,1,548.195,1,0.02,same
0,85,catch,"[(1163, 761)]",[],[1],[],horizontal,"(890.0, 262.0)",1.7,nan,1,553.577,1,0.02,same
0,86,catch,"[(1164, 774)]",[],[1],[],horizontal,"(390.0, 262.0)",,"('cti', 1.623),nan",0,558.412,0,0.04,same
0,87,valid,"[(1154, 803)]",[],[1],[0.5166666666666666],vertical,"(890.0, 262.0)",1.45,0.473,1,563.315,1,0.04,same
0,88,valid,"[(1140, 766)]",[],[1],[0.85],vertical,"(890.0, 762.0)",0.8166666666666667,nan,0,568.726,0,0.04,same
0,89,valid,"[(1165, 794)]",[],[1],[0.55],horizontal,"(390.0, 762.0)",1.2833333333333332,0.507,1,573.361,1,0.04,same
0,90,valid,"[(1163, 775)]",[],[1],[0.5],horizontal,"(890.0, 262.0)",0.8666666666666667,0.456,1,578.393,1,0.04,same
0,91,valid,"[(1167, 766)]",[],[1],[0.6166666666666667],horizontal,"(390.0, 762.0)",0.4166666666666667,0.571,1,583.494,1,0.04,same
0,92,valid,"[(1141, 783)]",[],[1],[0.5333333333333333],vertical,"(890.0, 762.0)",1.0333333333333332,0.492,1,588.06,2,0.04,same
0,93,valid,"[(1184, 774)]",[],[1],[0.8],horizontal,"(390.0, 762.0)",0.36666666666666664,0.748,1,593.51,2,0.04,same
0,94,valid,"[(1155, 777)]",[],[1],[0.7333333333333333],horizontal,"(390.0, 762.0)",1.0166666666666666,0.69,1,598.512,2,0.04,same
0,95,invalid_adjacent_other_bar,"[(1160, 801)]",[],[1],[0.31666666666666665],horizontal,"(390.0, 262.0)",1.1833333333333333,0.282,1,603.86,2,0.04,other
0,96,invalid_adjacent_other_bar,"[(1160, 765)]",[],[1],[0.55],vertical,"(890.0, 762.0)",1.0,0.508,1,609.105,3,0.04,other
0,97,valid,"[(1161, 763)]",[],[1],[0.6833333333333333],vertical,"(890.0, 762.0)",1.1,0.641,1,615.312,3,0.04,same
0,98,valid,"[(1141, 772)]",[],[1],[0.5666666666666667],horizontal,"(890.0, 262.0)",0.6333333333333333,0.526,1,621.414,3,0.04,same
0,99,valid,"[(1153, 755)]",[],[1],[0.55],horizontal,"(390.0, 762.0)",1.3666666666666667,0.507,1,627.144,3,0.04,same
0,100,valid,"[(1155, 756)]",[],[1],[0.65],vertical,"(390.0, 762.0)",0.9833333333333333,0.606,1,633.368,3,0.04,same
0,101,invalid_adjacent_other_bar,"[(1163, 769)]",[],[1],[0.5666666666666667],horizontal,"(890.0, 262.0)",1.0833333333333333,0.526,1,639.477,3,0.04,other
0,102,invalid_same_bar,"[(1155, 797)]",[],[1],[0.85],horizontal,"(390.0, 762.0)",0.7833333333333333,nan,0,645.51,0,0.04,same
0,103,catch,"[(1159, 779)]",[],[1],[],horizontal,"(390.0, 262.0)",1.7,nan,1,649.917,1,0.04,same
0,104,valid,"[(1162, 762)]",[],[1],[0.5833333333333334],horizontal,"(390.0, 762.0)",0.8166666666666667,0.541,1,655.361,1,0.04,same
0,105,catch,"[(1160, 763)]",[],[1],[],horizontal,"(890.0, 262.0)",1.7,nan,1,659.984,1,0.04,same
0,106,valid,"[(1160, 773)]",[],[1],[0.6166666666666667],vertical,"(390.0, 262.0)",0.4666666666666667,0.577,1,665.075,2,0.04,same
0,107,valid,"[(1153, 786)]",[],[1],[0.5833333333333334],vertical,"(890.0, 762.0)",0.5333333333333333,0.542,1,669.98,2,0.04,same
0,108,valid,"[(1152, 791)]",[],[1],[0.6166666666666667],vertical,"(890.0, 762.0)",0.7333333333333333,0.573,1,675.144,2,0.04,same
0,109,valid,"[(1170, 783)]",[],[1],[0.7333333333333333],horizontal,"(390.0, 262.0)",1.1166666666666667,0.689,1,680.16,2,0.04,same
0,110,valid,"[(1160, 765)]",[],[1],[0.5333333333333333],vertical,"(390.0, 762.0)",0.6166666666666667,0.491,1,686.051,3,0.04,same
0,111,catch,"[(1161, 788)]",[],[1],[],vertical,"(890.0, 262.0)",1.7,nan,1,691.968,3,0.04,same
0,112,valid,"[(1165, 764)]",[],[1],[0.5],vertical,"(390.0, 262.0)",0.5,0.457,1,698.182,3,0.04,same
0,113,valid,"[(1152, 787)]",[],[1],[0.5333333333333333],horizontal,"(890.0, 762.0)",1.1333333333333333,0.488,1,703.227,3,0.04,same
0,114,valid,"[(1160, 774)]",[],[1],[0.55],horizontal,"(390.0, 262.0)",0.7,0.512,1,709.128,3,0.04,same
0,115,valid,"[(1166, 781)]",[],[1],[0.85],vertical,"(890.0, 762.0)",0.9166666666666666,nan,0,714.336,0,0.04,same
0,116,valid,"[(1121, 774)]",[],[1],[0.5833333333333334],horizontal,"(390.0, 762.0)",0.7833333333333333,0.541,1,718.522,1,0.04,same
0,117,invalid_adjacent_other_bar,"[(1165, 767)]",[],[1],[0.6833333333333333],vertical,"(390.0, 762.0)",1.0,0.632,1,723.562,1,0.04,other
0,118,valid,"[(1161, 772)]",[],[1],[0.7166666666666667],vertical,"(890.0, 762.0)",0.75,0.667,1,728.311,1,0.04,same
0,119,valid,"[(1166, 765)]",[],[1],[0.6833333333333333],vertical,"(890.0, 762.0)",0.8333333333333334,0.637,1,733.459,2,0.04,same
0,120,valid,"[(1185, 774)]",[],[1],[0.6166666666666667],horizontal,"(390.0, 262.0)",1.3333333333333333,0.575,1,738.729,2,0.04,same
0,121,valid,"[(1162, 794)]",[],[1],[0.5833333333333334],horizontal,"(890.0, 762.0)",1.2333333333333334,0.545,1,744.5,2,0.04,same
0,122,valid,"[(1180, 769)]",[],[1],[0.5166666666666666],vertical,"(390.0, 262.0)",0.6166666666666667,0.478,1,750.051,2,0.04,same
0,123,valid,"[(1166, 811)]",[],[1],[0.85],vertical,"(890.0, 762.0)",0.9666666666666667,nan,0,755.605,0,0.04,same
0,124,valid,"[(1149, 772)]",[],[1],[0.7166666666666667],vertical,"(890.0, 262.0)",1.0,0.668,1,760.744,1,0.02,same
0,125,invalid_adjacent_other_bar,"[(1160, 773)]",[],[1],[0.85],vertical,"(390.0, 262.0)",1.4333333333333333,nan,0,766.01,0,0.02,other
0,126,valid,"[(1155, 781)]",[],[1],[0.6166666666666667],horizontal,"(890.0, 762.0)",0.9,0.569,1,771.194,1,0.02,same
0,127,valid,"[(1169, 764)]",[],[1],[0.6333333333333333],horizontal,"(890.0, 762.0)",0.8666666666666667,0.585,1,776.411,1,0.02,same
0,128,valid,"[(1168, 785)]",[],[1],[0.8166666666666667],horizontal,"(390.0, 762.0)",0.6,0.77,1,781.35,1,0.02,same
0,129,catch,"[(1168, 774)]",[],[1],[],horizontal,"(890.0, 762.0)",,"('cti', 1.467),nan",0,786.02,0,0.04,same
0,130,invalid_adjacent_other_bar,"[(1087, 806)]",[],[1],[0.65],horizontal,"(890.0, 262.0)",1.2833333333333332,0.603,1,790.944,1,0.04,other
0,131,invalid_adjacent_other_bar,"[(1146, 765)]",[],[1],[0.5833333333333334],vertical,"(890.0, 262.0)",1.2166666666666666,0.546,1,797.026,1,0.04,other
0,132,valid,"[(1136, 780)]",[],[1],[0.5333333333333333],vertical,"(890.0, 762.0)",0.4166666666666667,0.496,1,802.291,1,0.04,same
0,133,catch,"[(1168, 775)]",[],[1],[],vertical,"(890.0, 762.0)",1.7,nan,1,806.378,2,0.04,same
0,134,catch,"[(1166, 771)]",[],[1],[],vertical,"(390.0, 262.0)",1.7,nan,1,811.79,2,0.04,same
0,135,valid,"[(1136, 782)]",[],[1],[0.6166666666666667],vertical,"(390.0, 762.0)",1.4166666666666667,0.576,1,817.848,2,0.04,same
0,136,valid,"[(1166, 805)]",[],[1],[0.4666666666666667],horizontal,"(890.0, 262.0)",1.0,0.424,1,824.171,2,0.02,same
0,137,valid,"[(1141, 781)]",[],[1],[0.85],horizontal,"(390.0, 762.0)",0.4,nan,0,829.462,0,0.02,same
0,138,catch,"[(1140, 776)]",[],[1],[],horizontal,"(390.0, 762.0)",1.7,nan,1,833.677,1,0.02,same
0,139,invalid_same_bar,"[(1160, 772)]",[],[1],[0.6],vertical,"(890.0, 762.0)",1.05,0.556,1,838.862,1,0.02,same
0,140,valid,"[(1160, 786)]",[],[1],[],vertical,"(390.0, 262.0)",,"('cti', 0.586)",0,843.952,0,0.02,same
0,141,catch,"[(1155, 807)]",[],[1],[],horizontal,"(890.0, 262.0)",1.7,nan,1,847.52,1,0.02,same
0,142,valid,"[(1169, 754)]",[],[1],[0.5],vertical,"(890.0, 762.0)",0.5166666666666666,0.462,1,852.737,1,0.02,same
0,143,catch,"[(1166, 757)]",[],[1],[],vertical,"(390.0, 762.0)",1.7,nan,1,857.306,1,0.02,same
0,144,catch,"[(1160, 771)]",[],[1],[],vertical,"(390.0, 762.0)",1.7,nan,1,862.534,2,0.02,same
0,145,valid,"[(1169, 772)]",[],[1],[0.6166666666666667],vertical,"(890.0, 762.0)",1.2,0.57,1,868.172,2,0.02,same
0,146,catch,"[(1140, 786)]",[],[1],[],horizontal,"(390.0, 262.0)",1.7,nan,1,873.841,2,0.02,same
0,147,valid,"[(1164, 774)]",[],[1],[0.7],vertical,"(390.0, 762.0)",1.4833333333333334,0.659,1,879.613,2,0.02,same
0,148,invalid_adjacent_other_bar,"[(1170, 791)]",[],[1],[0.7666666666666666],horizontal,"(390.0, 262.0)",1.4833333333333334,0.724,1,885.454,3,0.02,other
0,149,valid,"[(1170, 781)]",[],[1],[0.8333333333333334],vertical,"(890.0, 762.0)",1.1333333333333333,0.782,1,891.961,3,0.02,same
0,150,valid,"[(1172, 782)]",[],[1],[0.5833333333333334],vertical,"(390.0, 262.0)",0.7166666666666667,0.538,1,898.162,3,0.02,same
0,151,catch,"[(1169, 774)]",[],[1],[],vertical,"(390.0, 762.0)",1.7,nan,1,903.912,3,0.02,same
0,152,valid,"[(1165, 775)]",[],[1],[0.5333333333333333],vertical,"(890.0, 262.0)",0.5333333333333333,0.49,1,910.055,3,0.02,same
0,153,valid,"[(1140, 758)]",[],[1],[0.55],horizontal,"(390.0, 762.0)",1.1333333333333333,0.504,1,915.424,3,0.02,same
0,154,catch,"[(1145, 792)]",[],[1],[],vertical,"(390.0, 262.0)",1.7,nan,1,921.456,3,0.02,same
0,155,valid,"[(1166, 776)]",[],[1],[0.5666666666666667],vertical,"(890.0, 262.0)",1.0166666666666666,0.529,1,927.454,3,0.02,same
0,156,catch,"[(1170, 795)]",[],[1],[],vertical,"(390.0, 762.0)",1.7,nan,1,933.404,3,0.02,same
0,157,catch,"[(1175, 779)]",[],[1],[],horizontal,"(890.0, 262.0)",1.7,nan,1,939.471,3,0.02,same
0,158,valid,"[(1170, 804)]",[],[1],[0.65],horizontal,"(390.0, 262.0)",1.0333333333333332,0.61,1,945.494,3,0.02,same
0,159,valid,"[(1163, 776)]",[],[1],[0.7833333333333333],horizontal,"(390.0, 262.0)",1.35,0.738,1,951.711,3,0.02,same
0,160,valid,"[(1146, 774)]",[],[1],[0.5833333333333334],vertical,"(890.0, 262.0)",0.4166666666666667,0.535,1,958.581,3,0.02,same
0,161,valid,"[(1170, 756)]",[],[1],[0.48333333333333334],vertical,"(890.0, 262.0)",1.3166666666666667,0.442,1,963.929,3,0.02,same
0,162,catch,"[(1187, 768)]",[],[1],[],vertical,"(890.0, 262.0)",1.7,nan,1,970.091,3,0.02,same
0,163,catch,"[(1170, 756)]",[],[1],[],horizontal,"(890.0, 762.0)",1.7,nan,1,975.795,3,0.02,same
0,164,valid,"[(1170, 795)]",[],[1],[0.6666666666666666],vertical,"(390.0, 262.0)",0.7166666666666667,0.623,1,981.83,3,0.02,same
0,165,valid,"[(1169, 780)]",[],[1],[],horizontal,"(390.0, 262.0)",,"('cti', 1.301)",0,987.666,0,0.02,same
0,166,valid,"[(1156, 780)]",[],[1],[0.5166666666666666],horizontal,"(390.0, 262.0)",0.8,0.48,1,992.367,1,0.02,same
0,167,valid,"[(1170, 782)]",[],[1],[0.5333333333333333],horizontal,"(390.0, 262.0)",1.1,0.491,1,997.561,1,0.02,same
0,168,valid,"[(1165, 756)]",[],[1],[0.8333333333333334],vertical,"(390.0, 262.0)",0.48333333333333334,0.785,1,1002.444,1,0.02,same
0,169,catch,"[(1137, 785)]",[],[1],[],horizontal,"(390.0, 762.0)",1.7,nan,1,1006.786,2,0.02,same
0,170,catch,"[(1180, 779)]",[],[1],[],horizontal,"(390.0, 762.0)",,"('cti', 1.455),nan",0,1012.649,0,0.04,same
0,171,valid,"[(1166, 801)]",[],[1],[0.5],horizontal,"(390.0, 262.0)",1.2166666666666666,0.458,1,1017.429,1,0.04,same
0,172,catch,"[(1170, 758)]",[],[1],[],horizontal,"(390.0, 262.0)",1.7,nan,1,1022.385,1,0.04,same
0,173,valid,"[(1170, 773)]",[],[1],[0.6],vertical,"(390.0, 762.0)",1.2,0.555,1,1027.462,1,0.04,same
0,174,catch,"[(1169, 756)]",[],[1],[],horizontal,"(390.0, 262.0)",,"('cti', 1.227),nan",0,1032.484,0,0.06,same
0,175,valid,"[(1129, 777)]",[],[1],[0.55],horizontal,"(890.0, 762.0)",1.2166666666666666,0.511,1,1037.195,1,0.06,same
0,176,valid,"[(1185, 774)]",[],[1],[0.5],horizontal,"(890.0, 762.0)",0.55,0.46,1,1042.605,1,0.06,same
0,177,valid,"[(1185, 777)]",[],[1],[0.7],horizontal,"(390.0, 262.0)",1.1833333333333333,0.657,1,1047.533,1,0.06,same
0,178,valid,"[(1165, 772)]",[],[1],[0.5666666666666667],horizontal,"(890.0, 762.0)",1.0666666666666667,0.523,1,1053.028,2,0.06,same
0,179,catch,"[(1168, 771)]",[],[1],[],horizontal,"(890.0, 262.0)",1.7,nan,1,1058.786,2,0.04,same
0,180,invalid_same_bar,"[(1190, 779)]",[],[1],[0.48333333333333334],horizontal,"(890.0, 262.0)",1.4833333333333334,0.447,1,1064.635,2,0.04,same
0,181,valid,"[(1185, 770)]",[],[1],[0.5833333333333334],vertical,"(390.0, 762.0)",0.4,0.541,1,1070.938,2,0.04,same
0,182,catch,"[(1187, 766)]",[],[1],[],horizontal,"(390.0, 762.0)",1.7,nan,1,1075.873,3,0.04,same
0,183,catch,"[(1165, 774)]",[],[1],[],vertical,"(890.0, 762.0)",1.7,nan,1,1081.79,3,0.04,same
0,184,catch,"[(1143, 800)]",[],[1],[],vertical,"(390.0, 262.0)",,"('cti', 1.491),nan",0,1087.663,0,0.06,same
0,185,valid,"[(1155, 804)]",[],[1],[0.3833333333333333],horizontal,"(890.0, 762.0)",1.5166666666666666,0.349,1,1092.267,1,0.06,same
0,186,valid,"[(1126, 782)]",[],[1],[0.6],vertical,"(890.0, 262.0)",0.6166666666666667,0.557,1,1097.414,1,0.06,same
0,187,valid,"[(1160, 762)]",[],[1],[0.5833333333333334],vertical,"(890.0, 262.0)",1.2666666666666666,0.542,1,1102.334,1,0.06,same
0,188,valid,"[(1166, 772)]",[],[1],[0.7666666666666666],vertical,"(890.0, 762.0)",0.7166666666666667,0.725,1,1107.772,2,0.06,same
0,189,valid,"[(1169, 776)]",[],[1],[0.5166666666666666],horizontal,"(390.0, 262.0)",0.95,0.488,1,1113.138,2,0.06,same
0,190,valid,"[(1165, 781)]",[],[1],[0.6833333333333333],vertical,"(890.0, 762.0)",1.2,0.639,1,1118.22,2,0.06,same
0,191,invalid_adjacent_other_bar,"[(1171, 781)]",[],[1],[0.5333333333333333],vertical,"(390.0, 762.0)",0.5,0.495,1,1124.283,2,0.06,other
0,192,invalid_adjacent_other_bar,"[(1170, 782)]",[],[1],[0.85],horizontal,"(890.0, 262.0)",0.55,nan,0,1129.295,0,0.06,other
0,193,valid,"[(1146, 781)]",[],[1],[0.6333333333333333],horizontal,"(390.0, 762.0)",0.9,0.594,1,1133.823,1,0.06,same
0,194,valid,"[(1125, 789)]",[],[1],[0.4166666666666667],horizontal,"(890.0, 262.0)",1.3,0.374,1,1139.222,1,0.06,same
0,195,valid,"[(1166, 766)]",[],[1],[0.5333333333333333],vertical,"(890.0, 762.0)",0.5833333333333334,0.494,1,1144.397,1,0.06,same
0,196,catch,"[(1161, 761)]",[],[1],[],vertical,"(390.0, 762.0)",1.7,nan,1,1149.429,2,0.06,same
0,197,invalid_same_bar,"[(1160, 782)]",[],[1],[0.85],vertical,"(390.0, 762.0)",0.95,nan,0,1155.029,0,0.06,same
0,198,catch,"[(1151, 773)]",[],[1],[],horizontal,"(390.0, 262.0)",1.7,nan,1,1159.429,1,0.06,same
0,199,valid,"[(1160, 778)]",[],[1],[0.6333333333333333],vertical,"(390.0, 262.0)",0.48333333333333334,0.595,1,1164.549,1,0.06,same
0,200,valid,"[(1127, 769)]",[],[1],[0.6333333333333333],horizontal,"(890.0, 762.0)",0.65,0.587,1,1168.879,1,0.06,same
0,201,invalid_same_bar,"[(1140, 784)]",[],[1],[0.5166666666666666],horizontal,"(890.0, 262.0)",0.5833333333333334,0.483,1,1173.18,2,0.06,same
0,202,valid,"[(1163, 792)]",[],[1],[0.5166666666666666],vertical,"(890.0, 762.0)",0.6666666666666666,0.472,1,1178.282,2,0.06,same
0,203,valid,"[(1154, 786)]",[],[1],[0.5166666666666666],horizontal,"(890.0, 262.0)",1.2333333333333334,0.479,1,1182.943,2,0.06,same
0,204,valid,"[(1162, 773)]",[],[1],[0.8],horizontal,"(890.0, 762.0)",1.0166666666666666,0.751,1,1188.897,2,0.06,same
0,205,valid,"[(1151, 779)]",[],[1],[0.5],vertical,"(890.0, 262.0)",1.1166666666666667,0.463,1,1195.318,3,0.06,same
0,206,valid,"[(1155, 787)]",[],[1],[0.5166666666666666],vertical,"(890.0, 762.0)",0.8,0.473,1,1201.479,3,0.06,same
0,207,valid,"[(1148, 773)]",[],[1],[0.36666666666666664],horizontal,"(390.0, 262.0)",1.3166666666666667,0.326,1,1207.059,3,0.06,same
0,208,invalid_same_bar,"[(1141, 774)]",[],[1],[0.5833333333333334],horizontal,"(890.0, 262.0)",0.8833333333333333,0.541,1,1213.411,3,0.06,same
0,209,valid,"[(1147, 770)]",[],[1],[0.5166666666666666],vertical,"(890.0, 262.0)",0.9666666666666667,0.474,1,1219.066,3,0.06,same
0,210,valid,"[(1145, 800)]",[],[1],[0.85],vertical,"(390.0, 262.0)",1.0166666666666666,nan,0,1224.521,0,0.06,same
0,211,catch,"[(1145, 768)]",[],[1],[],horizontal,"(890.0, 262.0)",1.7,nan,1,1229.046,1,0.06,same
0,212,valid,"[(1125, 828)]",[],[1],[0.5],horizontal,"(390.0, 762.0)",1.2166666666666666,0.463,1,1233.914,1,0.06,same
0,213,catch,"[(1160, 790)]",[],[1],[],horizontal,"(390.0, 762.0)",1.7,nan,1,1239.168,1,0.06,same
0,214,valid,"[(1131, 766)]",[],[1],[0.85],horizontal,"(390.0, 762.0)",0.65,nan,0,1244.146,0,0.06,same
0,215,invalid_same_bar,"[(1115, 781)]",[],[1],[0.6],horizontal,"(390.0, 762.0)",1.2333333333333334,0.559,1,1248.58,1,0.06,same
0,216,catch,"[(1135, 781)]",[],[1],[],horizontal,"(390.0, 762.0)",1.7,nan,1,1254.347,1,0.06,same
0,217,valid,"[(1150, 756)]",[],[1],[0.6333333333333333],vertical,"(390.0, 262.0)",0.8333333333333334,0.599,1,1259.662,1,0.06,same
0,218,catch,"[(1162, 772)]",[],[1],[],vertical,"(890.0, 762.0)",1.7,nan,1,1264.637,2,0.06,same
0,219,catch,"[(1146, 768)]",[],[1],[],vertical,"(390.0, 762.0)",,"('cti', 1.676),nan",0,1270.281,0,0.08,same
0,220,valid,"[(1150, 798)]",[],[1],[0.55],vertical,"(890.0, 262.0)",1.3166666666666667,0.51,1,1275.413,1,0.06,same
0,221,catch,"[(1138, 773)]",[],[1],[],horizontal,"(890.0, 262.0)",1.7,nan,1,1280.974,1,0.06,same
0,222,valid,"[(1132, 755)]",[],[1],[0.5],horizontal,"(890.0, 262.0)",0.48333333333333334,0.464,1,1286.142,1,0.06,same
0,223,catch,"[(1166, 766)]",[],[1],[],vertical,"(890.0, 262.0)",1.7,nan,1,1290.667,2,0.06,same
0,224,valid,"[(1145, 785)]",[],[1],[0.55],horizontal,"(890.0, 762.0)",1.5166666666666666,0.509,1,1296.268,2,0.04,same
0,225,valid,"[(1182, 785)]",[],[1],[0.6666666666666666],vertical,"(390.0, 762.0)",0.3833333333333333,0.626,1,1302.089,2,0.04,same
0,226,catch,"[(1141, 788)]",[],[1],[],horizontal,"(890.0, 762.0)",1.7,nan,1,1307.35,2,0.04,same
0,227,invalid_adjacent_other_bar,"[(1154, 783)]",[],[1],[0.6166666666666667],vertical,"(890.0, 262.0)",1.4666666666666666,0.57,1,1312.909,3,0.04,other
0,228,catch,"[(1154, 773)]",[],[1],[],vertical,"(890.0, 262.0)",,"('cti', 1.689),nan",0,1319.246,0,0.06,same
0,229,valid,"[(1133, 790)]",[],[1],[0.6333333333333333],vertical,"(390.0, 762.0)",1.2333333333333334,0.592,1,1324.313,1,0.06,same
0,230,valid,"[(1154, 778)]",[],[1],[0.5666666666666667],horizontal,"(390.0, 762.0)",1.1,0.527,1,1329.446,1,0.06,same
0,231,catch,"[(1160, 780)]",[],[1],[],vertical,"(390.0, 262.0)",1.7,nan,1,1334.412,1,0.06,same
0,232,valid,"[(1165, 766)]",[],[1],[0.65],vertical,"(390.0, 262.0)",1.0166666666666666,0.611,1,1339.579,2,0.06,same
0,233,valid,"[(1135, 784)]",[],[1],[0.55],vertical,"(390.0, 262.0)",0.8,0.504,1,1344.78,2,0.06,same
0,234,valid,"[(1135, 777)]",[],[1],[0.48333333333333334],vertical,"(390.0, 762.0)",0.6166666666666667,0.452,1,1350.308,2,0.04,same
0,235,valid,"[(1154, 779)]",[],[1],[0.5],vertical,"(890.0, 262.0)",1.4666666666666666,0.467,1,1355.37,2,0.04,same
0,236,valid,"[(1180, 774)]",[],[1],[0.7833333333333333],vertical,"(390.0, 762.0)",1.5,0.737,1,1361.059,3,0.04,same
0,237,valid,"[(1144, 785)]",[],[1],[0.7166666666666667],horizontal,"(390.0, 762.0)",0.9,0.683,1,1367.857,3,0.04,same
0,238,valid,"[(1160, 780)]",[],[1],[0.5333333333333333],vertical,"(890.0, 762.0)",0.4166666666666667,0.496,1,1373.997,3,0.04,same
0,239,valid,"[(1156, 777)]",[],[1],[0.5166666666666666],horizontal,"(390.0, 762.0)",1.45,0.475,1,1379.363,3,0.04,same
0,240,valid,"[(1135, 761)]",[],[1],[0.7833333333333333],horizontal,"(890.0, 762.0)",1.5,0.745,1,1386.03,3,0.04,same
0,241,valid,"[(1160, 790)]",[],[1],[0.5666666666666667],vertical,"(890.0, 762.0)",1.2166666666666666,0.534,1,1392.235,3,0.04,same
0,242,invalid_adjacent_other_bar,"[(1145, 794)]",[],[1],[0.5333333333333333],horizontal,"(890.0, 762.0)",1.1,0.496,1,1398.547,3,0.04,other
0,243,valid,"[(1140, 772)]",[],[1],[0.7833333333333333],horizontal,"(890.0, 762.0)",1.1666666666666667,0.737,1,1404.299,3,0.04,same
0,244,valid,"[(1165, 777)]",[],[1],[0.6333333333333333],vertical,"(390.0, 262.0)",0.8833333333333333,0.594,1,1410.564,3,0.04,same
0,245,catch,"[(1135, 779)]",[],[1],[],vertical,"(390.0, 762.0)",1.7,nan,1,1416.234,3,0.04,same
0,246,catch,"[(1135, 778)]",[],[1],[],vertical,"(890.0, 262.0)",1.7,nan,1,1422.234,3,0.04,same
0,247,valid,"[(1143, 800)]",[],[1],[],horizontal,"(390.0, 262.0)",,"('cti', 1.021)",0,1428.23,0,0.04,same
0,248,valid,"[(1153, 797)]",[],[1],[0.5],vertical,"(390.0, 262.0)",1.1833333333333333,0.458,1,1432.97,1,0.04,same
0,249,valid,"[(1140, 772)]",[],[1],[0.48333333333333334],vertical,"(890.0, 262.0)",0.5,0.448,1,1437.847,1,0.04,same
0,250,valid,"[(1157, 761)]",[],[1],[0.3833333333333333],horizontal,"(390.0, 762.0)",1.2666666666666666,0.341,1,1442.779,1,0.04,same
0,251,invalid_adjacent_other_bar,"[(1160, 766)]",[],[1],[0.85],horizontal,"(890.0, 262.0)",0.95,nan,0,1447.779,0,0.04,other
0,252,valid,"[(1131, 806)]",[],[1],[0.6166666666666667],vertical,"(890.0, 262.0)",0.36666666666666664,0.574,1,1452.882,1,0.04,same
0,253,valid,"[(1181, 778)]",[],[1],[0.48333333333333334],vertical,"(390.0, 262.0)",0.6666666666666666,0.447,1,1457.868,1,0.04,same
0,254,valid,"[(1155, 766)]",[],[1],[0.6333333333333333],vertical,"(390.0, 762.0)",0.7,0.589,1,1462.648,1,0.04,same
0,255,catch,"[(1158, 773)]",[],[1],[],vertical,"(890.0, 262.0)",1.7,nan,1,1467.229,2,0.04,same
0,256,valid,"[(1150, 773)]",[],[1],[0.7666666666666666],horizontal,"(390.0, 262.0)",1.2,0.732,1,1472.696,2,0.04,same
0,257,valid,"[(1170, 772)]",[],[1],[0.6166666666666667],vertical,"(390.0, 762.0)",1.25,0.571,1,1478.482,2,0.04,same
0,258,valid,"[(1180, 782)]",[],[1],[0.5166666666666666],vertical,"(390.0, 262.0)",1.2166666666666666,0.471,1,1484.23,2,0.04,same
0,259,valid,"[(1135, 776)]",[],[1],[0.75],vertical,"(890.0, 262.0)",0.43333333333333335,0.705,1,1490.154,3,0.04,same
0,260,valid,"[(1163, 776)]",[],[1],[0.48333333333333334],horizontal,"(390.0, 262.0)",0.5,0.446,1,1495.94,3,0.04,same
0,261,valid,"[(1142, 768)]",[],[1],[0.5833333333333334],horizontal,"(890.0, 262.0)",0.7166666666666667,0.544,1,1500.93,3,0.04,same
0,262,valid,"[(1170, 777)]",[],[1],[0.55],vertical,"(890.0, 262.0)",0.7333333333333333,0.505,1,1506.898,3,0.04,same
0,263,catch,"[(1148, 748), (1122, 814)]",[],"[0, 1]",[],vertical,"(390.0, 262.0)",1.7,nan,1,1512.083,3,0.04,same
0,264,valid,"[(1159, 784)]",[],[1],[0.6666666666666666],vertical,"(890.0, 262.0)",1.25,0.625,1,1519.314,3,0.04,same
0,265,invalid_adjacent_other_bar,"[(1167, 777)]",[],[1],[0.55],vertical,"(890.0, 762.0)",0.85,0.505,1,1526.08,3,0.04,other
0,266,invalid_adjacent_other_bar,"[(1135, 757)]",[],[1],[0.6666666666666666],horizontal,"(890.0, 262.0)",1.5333333333333332,0.625,1,1531.898,3,0.04,other
0,267,valid,"[(1142, 785)]",[],[1],[0.75],horizontal,"(890.0, 762.0)",0.5666666666666667,0.718,1,1538.63,3,0.04,same
0,268,invalid_same_bar,"[(1165, 786)]",[],[1],[0.5333333333333333],horizontal,"(890.0, 762.0)",1.3333333333333333,0.495,1,1544.381,3,0.04,same
0,269,valid,"[(1137, 761)]",[],[1],[0.6],horizontal,"(390.0, 762.0)",1.3333333333333333,0.556,1,1550.162,3,0.02,same
0,270,valid,"[(1156, 794)]",[],[1],[0.45],vertical,"(890.0, 262.0)",1.4666666666666666,0.411,1,1556.524,3,0.02,same
0,271,catch,"[(1150, 776)]",[],[1],[],vertical,"(390.0, 262.0)",,"('cti', 1.626),nan",0,1562.851,0,0.04,same
0,272,valid,"[(1117, 812)]",[],[1],[0.48333333333333334],horizontal,"(890.0, 762.0)",1.5166666666666666,0.443,1,1567.631,1,0.04,same
0,273,valid,"[(1136, 792)]",[],[1],[0.8333333333333334],horizontal,"(890.0, 762.0)",0.7,0.782,1,1648.665,1,0.04,same
0,274,valid,"[(1165, 806)]",[],[1],[0.5],vertical,"(890.0, 262.0)",1.1166666666666667,0.468,1,1653.542,1,0.04,same
0,275,valid,"[(1148, 809)]",[],[1],[0.5333333333333333],horizontal,"(390.0, 762.0)",1.15,0.494,1,1659.065,2,0.04,same
0,276,valid,"[(1155, 786)]",[],[1],[0.5666666666666667],vertical,"(390.0, 262.0)",1.15,0.529,1,1664.798,2,0.04,same
0,277,valid,"[(1140, 783)]",[],[1],[0.48333333333333334],vertical,"(390.0, 762.0)",0.6666666666666666,0.443,1,1670.665,2,0.04,same
0,278,catch,"[(1151, 773)]",[],[1],[],vertical,"(390.0, 262.0)",1.7,nan,1,1675.315,2,0.02,same
0,279,valid,"[(1177, 796)]",[],[1],[0.5166666666666666],vertical,"(390.0, 262.0)",0.36666666666666664,0.478,1,1681.004,3,0.02,same
0,280,valid,"[(1148, 774)]",[],[1],[0.5833333333333334],vertical,"(390.0, 262.0)",1.25,0.543,1,1686.298,3,0.02,same
0,281,valid,"[(1146, 774)]",[],[1],[0.5333333333333333],horizontal,"(890.0, 762.0)",1.4833333333333334,0.502,1,1692.173,3,0.02,same
0,282,valid,"[(1179, 772)]",[],[1],[0.7],horizontal,"(890.0, 262.0)",0.55,0.653,1,1698.432,3,0.02,same
0,283,catch,"[(1145, 772)]",[],[1],[],vertical,"(390.0, 762.0)",1.7,nan,1,1703.923,3,0.02,same
0,284,valid,"[(1149, 786)]",[],[1],[0.5],vertical,"(890.0, 262.0)",1.0,0.462,1,1709.621,3,0.02,same
0,285,valid,"[(1167, 772)]",[],[1],[0.6],horizontal,"(890.0, 762.0)",1.4833333333333334,0.559,1,1715.558,3,0.02,same
0,286,valid,"[(1151, 776)]",[],[1],[0.55],vertical,"(890.0, 762.0)",1.1,0.509,1,1722.027,3,0.02,same
0,287,invalid_same_bar,"[(1149, 778)]",[],[1],[0.5833333333333334],horizontal,"(890.0, 762.0)",0.4666666666666667,0.551,1,1728.123,3,0.02,same
0,288,valid,"[(1140, 777)]",[],[1],[0.7],horizontal,"(390.0, 262.0)",0.5833333333333334,0.662,1,1733.347,3,0.02,same
0,289,catch,"[(1146, 769)]",[],[1],[0.03333333333333333],horizontal,"(390.0, 762.0)",1.7,"0.019,nan",0,1738.971,0,0.04,same
0,290,valid,"[(1155, 766)]",[],[1],[0.48333333333333334],vertical,"(890.0, 262.0)",0.48333333333333334,0.451,1,1744.015,1,0.04,same
0,291,valid,"[(1145, 767)]",[],[1],[0.5833333333333334],horizontal,"(390.0, 762.0)",1.2333333333333334,0.541,1,1748.088,1,0.04,same
0,292,valid,"[(1149, 776)]",[],[1],[0.3833333333333333],horizontal,"(390.0, 262.0)",1.5166666666666666,0.343,1,1753.131,1,0.04,same
0,293,valid,"[(1155, 771)]",[],[1],[0.6833333333333333],horizontal,"(390.0, 262.0)",1.0833333333333333,0.651,1,1758.271,2,0.04,same
0,294,invalid_same_bar,"[(1147, 753), (1135, 779)]",[],"[0, 1]",[0.85],horizontal,"(390.0, 262.0)",1.4333333333333333,nan,0,1763.64,0,0.04,same
0,295,catch,"[(1123, 777)]",[],[1],[],horizontal,"(390.0, 762.0)",1.7,nan,1,1770.082,1,0.04,same
0,296,catch,"[(1160, 770)]",[],[1],[],horizontal,"(390.0, 762.0)",1.7,nan,1,1775.512,1,0.04,same
0,297,valid,"[(1167, 769)]",[],[1],[0.5166666666666666],vertical,"(390.0, 762.0)",0.8833333333333333,0.477,1,1780.568,1,0.04,same
0,298,valid,"[(1166, 769)]",[],[1],[0.6],horizontal,"(390.0, 762.0)",1.15,0.558,1,1785.15,2,0.04,same
0,299,catch,"[(1158, 796)]",[],[1],[],vertical,"(890.0, 262.0)",1.7,nan,1,1790.493,2,0.04,same
0,300,valid,"[(1148, 756)]",[],[1],[0.6166666666666667],vertical,"(390.0, 262.0)",0.85,0.571,1,1796.414,2,0.04,same
0,301,catch,"[(1160, 761)]",[],[1],[],horizontal,"(390.0, 262.0)",1.7,nan,1,1801.714,2,0.04,same
0,302,valid,"[(1161, 794)]",[],[1],[0.6],vertical,"(390.0, 262.0)",1.1,0.557,1,1807.599,3,0.04,same
0,303,valid,"[(1160, 771)]",[],[1],[0.5333333333333333],vertical,"(890.0, 762.0)",0.9833333333333333,0.491,1,1813.248,3,0.04,same
0,304,valid,"[(1169, 789)]",[],[1],[0.5166666666666666],vertical,"(390.0, 262.0)",1.0166666666666666,0.48,1,1818.989,3,0.04,same
0,305,valid,"[(1152, 761)]",[],[1],[0.6],vertical,"(890.0, 762.0)",0.75,0.56,1,1825.031,3,0.04,same
0,306,catch,"[(1160, 758)]",[],[1],[],horizontal,"(890.0, 762.0)",1.7,nan,1,1830.515,3,0.04,same
0,307,valid,"[(1149, 753), (1080, 807)]",[],"[0, 1]",[0.5166666666666666],horizontal,"(890.0, 762.0)",0.5333333333333333,0.475,1,1836.931,3,0.04,same
0,308,valid,"[(1164, 777)]",[],[1],[0.55],horizontal,"(890.0, 762.0)",1.0166666666666666,0.508,1,1844.048,3,0.04,same
0,309,invalid_adjacent_other_bar,"[(1160, 769)]",[],[1],[0.6666666666666666],vertical,"(390.0, 762.0)",0.8333333333333334,0.619,1,1850.251,3,0.04,other
0,310,valid,"[(1165, 801)]",[],[1],[0.55],horizontal,"(390.0, 762.0)",0.6333333333333333,0.506,1,1856.248,3,0.04,same
0,311,valid,"[(1162, 794)]",[],[1],[0.6833333333333333],vertical,"(390.0, 262.0)",1.4,0.64,1,1861.467,3,0.04,same
0,312,catch,"[(1157, 775)]",[],[1],[],horizontal,"(390.0, 762.0)",1.7,nan,1,1867.882,3,0.04,same
0,313,valid,"[(1156, 786)]",[],[1],[0.5166666666666666],horizontal,"(890.0, 762.0)",0.4166666666666667,0.477,1,1873.607,3,0.04,same
0,314,valid,"[(1170, 781)]",[],[1],[0.6833333333333333],horizontal,"(890.0, 762.0)",1.45,0.641,1,1878.881,3,0.04,same
0,315,catch,"[(1167, 796)]",[],[1],[],horizontal,"(390.0, 762.0)",1.7,nan,1,1885.582,3,0.04,same
0,316,valid,"[(1168, 744), (1120, 805)]",[],"[0, 1]",[0.55],vertical,"(390.0, 262.0)",1.3166666666666667,0.507,1,1891.748,3,0.04,same
0,317,valid,"[(1155, 781)]",[],[1],[0.5166666666666666],horizontal,"(890.0, 262.0)",0.8333333333333334,0.475,1,1899.949,3,0.04,same
0,318,valid,"[(1170, 760)]",[],[1],[0.7166666666666667],horizontal,"(390.0, 762.0)",1.0166666666666666,0.668,1,1905.548,3,0.04,same
0,319,valid,"[(1159, 770)]",[],[1],[0.5833333333333334],horizontal,"(890.0, 262.0)",0.48333333333333334,0.542,1,1911.505,3,0.04,same
0,320,invalid_adjacent_other_bar,"[(1169, 761)]",[],[1],[0.55],vertical,"(390.0, 762.0)",0.5833333333333334,0.505,1,1917.064,3,0.04,other
0,321,valid,"[(1164, 756)]",[],[1],[0.5333333333333333],horizontal,"(390.0, 762.0)",0.75,0.491,1,1922.698,3,0.02,same
0,322,valid,"[(1160, 772)]",[],[1],[0.6166666666666667],horizontal,"(890.0, 762.0)",0.6166666666666667,0.58,1,1928.423,3,0.02,same
0,323,invalid_same_bar,"[(1180, 766)]",[],[1],[0.5166666666666666],vertical,"(390.0, 262.0)",0.5166666666666666,0.473,1,1934.014,3,0.02,same
0,324,catch,"[(1164, 754)]",[],[1],[],horizontal,"(390.0, 262.0)",1.7,nan,1,1939.632,3,0.02,same
0,325,valid,"[(1169, 768)]",[],[1],[0.5666666666666667],horizontal,"(390.0, 762.0)",1.3333333333333333,0.519,1,1945.448,3,0.02,same
0,326,valid,"[(1142, 772)]",[],[1],[0.6166666666666667],vertical,"(890.0, 262.0)",0.8166666666666667,0.579,1,1952.013,3,0.02,same
0,327,valid,"[(1163, 769)]",[],[1],[0.7333333333333333],horizontal,"(890.0, 262.0)",0.6333333333333333,0.694,1,1957.783,3,0.02,same
0,328,valid,"[(1163, 775)]",[],[1],[0.6166666666666667],vertical,"(390.0, 762.0)",1.0,0.572,1,1963.581,3,0.02,same
0,329,invalid_same_bar,"[(1170, 781)]",[],[1],[0.36666666666666664],horizontal,"(890.0, 762.0)",1.1666666666666667,0.328,1,1969.165,3,0.02,same
0,330,catch,"[(1165, 773)]",[],[1],[],horizontal,"(390.0, 762.0)",1.7,nan,1,1975.382,3,0.02,same
0,331,catch,"[(1153, 754)]",[],[1],[],horizontal,"(890.0, 262.0)",1.7,nan,1,1981.516,3,0.02,same
0,332,catch,"[(1157, 767)]",[],[1],[],vertical,"(390.0, 762.0)",1.7,nan,1,1987.432,3,0.02,same
0,333,valid,"[(1169, 778)]",[],[1],[0.5833333333333334],vertical,"(390.0, 762.0)",1.2833333333333332,0.547,1,1993.331,3,0.02,same
0,334,invalid_adjacent_other_bar,"[(1145, 750), (1135, 808)]",[],"[0, 1]",[0.55],vertical,"(390.0, 762.0)",1.3833333333333333,0.515,1,1999.682,3,0.02,other
0,335,valid,"[(1150, 769)]",[],[1],[0.6333333333333333],vertical,"(890.0, 762.0)",0.7666666666666666,0.594,1,2006.828,3,0.02,same
0,336,valid,"[(1158, 768)]",[],[1],[0.55],horizontal,"(390.0, 762.0)",1.45,0.511,1,2012.699,3,0.02,same
0,337,valid,"[(1170, 774)]",[],[1],[0.5666666666666667],horizontal,"(390.0, 262.0)",0.5833333333333334,0.526,1,2018.716,3,0.02,same
0,338,valid,"[(1141, 781)]",[],[1],[0.5833333333333334],horizontal,"(890.0, 762.0)",0.3833333333333333,0.543,1,2024.379,3,0.02,same
0,339,catch,"[(1150, 771)]",[],[1],[],horizontal,"(390.0, 762.0)",1.7,nan,1,2029.483,3,0.0,same
0,340,catch,"[(1166, 758)]",[],[1],[],horizontal,"(390.0, 262.0)",,"('cti', 0.766),nan",0,2035.366,0,0.02,same
0,341,valid,"[(1086, 831)]",[],[1],[0.55],horizontal,"(890.0, 762.0)",0.6,0.507,1,2039.198,1,0.02,same
0,342,valid,"[(1150, 774)]",[],[1],[0.6333333333333333],vertical,"(390.0, 262.0)",0.4166666666666667,0.59,1,2068.317,1,0.02,same
0,343,valid,"[(1180, 772)]",[],[1],[0.5666666666666667],vertical,"(890.0, 762.0)",0.8166666666666667,0.53,1,2073.089,1,0.02,same
0,344,valid,"[(1170, 793)]",[],[1],[0.5166666666666666],horizontal,"(890.0, 262.0)",0.6,0.475,1,2078.093,2,0.02,same
0,345,valid,"[(1153, 777)]",[],[1],[0.5666666666666667],vertical,"(890.0, 762.0)",0.95,0.521,1,2083.257,2,0.02,same
0,346,valid,"[(1135, 778)]",[],[1],[0.5],vertical,"(890.0, 262.0)",1.3,0.469,1,2088.528,2,0.02,same
0,347,valid,"[(1174, 774)]",[],[1],[0.55],horizontal,"(390.0, 762.0)",1.1833333333333333,0.51,1,2094.215,2,0.02,same
0,348,valid,"[(1167, 791)]",[],[1],[0.5],horizontal,"(890.0, 762.0)",1.3833333333333333,0.458,1,2100.107,3,0.02,same
0,349,invalid_same_bar,"[(1170, 773)]",[],[1],[0.55],horizontal,"(390.0, 262.0)",1.0666666666666667,0.508,1,2106.716,3,0.02,same
0,350,valid,"[(1165, 786)]",[],[1],[0.5666666666666667],vertical,"(890.0, 762.0)",1.1666666666666667,0.523,1,2112.766,3,0.02,same
0,351,valid,"[(1160, 777)]",[],[1],[0.6],vertical,"(890.0, 762.0)",0.5166666666666666,0.559,1,2118.848,3,0.02,same
0,352,valid,"[(1172, 780)]",[],[1],[0.85],vertical,"(890.0, 762.0)",0.5333333333333333,nan,0,2124.033,0,0.02,same
0,353,invalid_same_bar,"[(1147, 763)]",[],[1],[0.6666666666666666],vertical,"(390.0, 762.0)",1.2833333333333332,0.626,1,2128.832,1,0.02,same
0,354,valid,"[(1155, 779)]",[],[1],[0.85],vertical,"(390.0, 262.0)",0.95,nan,0,2134.197,0,0.02,same
0,355,valid,"[(1080, 773)]",[],[1],[0.6833333333333333],vertical,"(390.0, 762.0)",0.9,0.638,1,2138.808,1,0.02,same
0,356,catch,"[(1165, 760)]",[],[1],[],horizontal,"(890.0, 762.0)",1.7,nan,1,2143.779,1,0.02,same
0,357,catch,"[(1158, 782)]",[],[1],[],horizontal,"(890.0, 762.0)",1.7,nan,1,2149.281,1,0.02,same
0,358,valid,"[(1118, 759)]",[],[1],[0.5333333333333333],horizontal,"(890.0, 262.0)",0.4166666666666667,0.498,1,2154.816,2,0.02,same
0,359,valid,"[(1160, 765)]",[],[1],[0.85],horizontal,"(390.0, 262.0)",1.0,nan,0,2159.708,0,0.02,same
0,360,valid,"[(1146, 763)]",[],[1],[0.7666666666666666],horizontal,"(390.0, 762.0)",1.2166666666666666,0.721,1,2164.258,1,0.02,same
0,361,valid,"[(1168, 766)]",[],[1],[0.5833333333333334],horizontal,"(890.0, 262.0)",1.1166666666666667,0.535,1,2169.225,1,0.02,same
0,362,invalid_same_bar,"[(1154, 748), (1076, 781)]",[],"[0, 1]",[0.85],vertical,"(390.0, 262.0)",0.8333333333333334,nan,0,2174.649,0,0.02,same
0,363,catch,"[(1145, 760)]",[],[1],[],horizontal,"(390.0, 262.0)",1.7,nan,1,2180.616,1,0.02,same
0,364,valid,"[(1173, 757)]",[],[1],[0.5333333333333333],vertical,"(390.0, 262.0)",0.7166666666666667,0.49,1,2185.731,1,0.02,same
0,365,valid,"[(1118, 739), (1089, 805)]",[],"[0, 1]",[0.6833333333333333],horizontal,"(890.0, 762.0)",1.1833333333333333,0.636,1,2190.599,1,0.02,same
0,366,catch,"[(1140, 761)]",[],[1],[],horizontal,"(390.0, 762.0)",1.7,nan,1,2196.706,2,0.02,same
0,367,catch,"[(1142, 779)]",[],[1],[],vertical,"(390.0, 262.0)",1.7,nan,1,2202.323,2,0.02,same
0,368,valid,"[(1155, 773)]",[],[1],[0.85],vertical,"(390.0, 262.0)",1.1166666666666667,nan,0,2207.865,0,0.02,same
0,369,valid,"[(1149, 774)]",[],[1],[0.55],vertical,"(390.0, 762.0)",1.0666666666666667,0.506,1,2213.148,1,0.02,same
0,370,invalid_same_bar,"[(1139, 781)]",[],[1],[0.6333333333333333],vertical,"(890.0, 762.0)",0.85,0.591,1,2218.581,1,0.02,same
0,371,catch,"[(1166, 772)]",[],[1],[],horizontal,"(890.0, 762.0)",1.7,nan,1,2223.647,1,0.02,same
0,372,valid,"[(1168, 769)]",[],[1],[0.5166666666666666],horizontal,"(390.0, 762.0)",1.45,0.478,1,2228.695,2,0.02,same
0,373,valid,"[(1151, 753), (1098, 803)]",[],"[0, 1]",[0.5833333333333334],vertical,"(390.0, 262.0)",0.3833333333333333,0.538,1,2234.409,2,0.02,same
0,374,valid,"[(1165, 762)]",[],[1],[0.6],horizontal,"(890.0, 762.0)",0.8,0.554,1,2240.825,2,0.02,same
0,375,catch,"[(1157, 798)]",[],[1],[],vertical,"(390.0, 762.0)",1.7,nan,1,2245.782,2,0.02,same
0,376,catch,"[(1170, 775)]",[],[1],[],vertical,"(390.0, 262.0)",1.7,nan,1,2251.256,3,0.02,same
0,377,invalid_adjacent_other_bar,"[(1168, 769)]",[],[1],[0.5333333333333333],vertical,"(890.0, 762.0)",0.35,0.493,1,2257.275,3,0.02,other
0,378,valid,"[(1146, 774)]",[],[1],[0.75],horizontal,"(390.0, 762.0)",0.7,0.701,1,2262.712,3,0.02,same
0,379,valid,"[(1160, 764)]",[],[1],[0.55],horizontal,"(890.0, 262.0)",0.4666666666666667,0.505,1,2268.597,3,0.02,same
0,380,valid,"[(1138, 782)]",[],[1],[0.7],vertical,"(890.0, 262.0)",1.2166666666666666,0.655,1,2273.469,3,0.02,same
0,381,valid,"[(1145, 787)]",[],[1],[0.5333333333333333],vertical,"(890.0, 262.0)",0.55,0.498,1,2279.383,3,0.02,same
0,382,valid,"[(1142, 787)]",[],[1],[0.5833333333333334],horizontal,"(890.0, 762.0)",1.35,0.545,1,2284.331,3,0.02,same
0,383,valid,"[(1140, 773)]",[],[1],[0.65],horizontal,"(390.0, 762.0)",0.6,0.609,1,2290.16,3,0.02,same
0,384,valid,"[(1140, 765)]",[],[1],[0.5],horizontal,"(890.0, 762.0)",1.45,0.459,1,2295.848,3,0.02,same
0,385,catch,"[(1151, 784)]",[],[1],[],vertical,"(390.0, 762.0)",1.7,nan,1,2302.079,3,0.02,same
0,386,catch,"[(1165, 760)]",[],[1],[],horizontal,"(390.0, 262.0)",1.7,nan,1,2308.092,3,0.02,same
0,387,catch,"[(1169, 776)]",[],[1],[],vertical,"(890.0, 762.0)",1.7,nan,1,2314.067,3,0.02,same
0,388,valid,"[(1177, 783)]",[],[1],[0.5166666666666666],vertical,"(890.0, 262.0)",1.3666666666666667,0.477,1,2320.08,3,0.02,same
0,389,valid,"[(1166, 762)]",[],[1],[0.6333333333333333],vertical,"(890.0, 262.0)",0.48333333333333334,0.599,1,2326.55,3,0.02,same
0,390,valid,"[(1136, 780)]",[],[1],[0.5],vertical,"(890.0, 262.0)",1.2333333333333334,0.469,1,2331.774,3,0.0,same
0,391,catch,"[(1141, 773)]",[],[1],[],horizontal,"(890.0, 762.0)",1.7,nan,1,2338.008,3,0.0,same
0,392,valid,"[(1165, 755)]",[],[1],[0.6],vertical,"(390.0, 762.0)",1.5333333333333332,0.554,1,2344.39,3,0.0,same
0,393,valid,"[(1168, 793)]",[],[1],[0.65],vertical,"(890.0, 762.0)",1.0,0.61,1,2350.834,3,0.0,same
0,394,valid,"[(1140, 773)]",[],[1],[0.7166666666666667],vertical,"(890.0, 762.0)",0.3833333333333333,0.671,1,2356.882,3,0.0,same
0,395,catch,"[(1137, 752), (1129, 822)]",[],"[0, 1]",[],vertical,"(890.0, 762.0)",1.7,nan,1,2362.299,3,0.0,same
0,396,valid,"[(1163, 765)]",[],[1],[0.4166666666666667],vertical,"(890.0, 262.0)",1.5166666666666666,0.38,1,2369.339,3,0.0,same
0,397,valid,"[(1155, 765)]",[],[1],[0.6166666666666667],horizontal,"(390.0, 762.0)",0.6666666666666666,0.578,1,2375.531,3,0.0,same
0,398,catch,"[(1163, 772)]",[],[1],[],vertical,"(390.0, 262.0)",1.7,nan,1,2381.35,3,0.0,same
0,399,valid,"[(1166, 766)]",[],[1],[0.5166666666666666],horizontal,"(390.0, 262.0)",0.6166666666666667,0.473,1,2387.099,3,0.0,same
0,400,valid,"[(1150, 779)]",[],[1],[0.6166666666666667],vertical,"(890.0, 762.0)",1.2,0.575,1,2392.876,3,0.0,same
0,401,valid,"[(1149, 782)]",[],[1],[0.6],vertical,"(390.0, 262.0)",1.2333333333333334,0.555,1,2399.068,3,0.0,same
0,402,catch,"[(1168, 786)]",[],[1],[],vertical,"(390.0, 262.0)",1.7,nan,1,2404.867,3,0.0,same
0,403,valid,"[(1160, 761)]",[],[1],[0.48333333333333334],horizontal,"(890.0, 262.0)",1.25,0.441,1,2411.145,3,0.0,same
0,404,valid,"[(1140, 767)]",[],[1],[0.8],horizontal,"(390.0, 262.0)",1.2833333333333332,0.753,1,2416.999,3,0.0,same
0,405,valid,"[(1155, 802)]",[],[1],[0.65],vertical,"(890.0, 262.0)",0.9833333333333333,0.606,1,2422.855,3,0.0,same
0,406,catch,"[(1146, 789)]",[],[1],[],vertical,"(390.0, 762.0)",1.7,nan,1,2428.624,3,0.0,same
0,407,valid,"[(1160, 777)]",[],[1],[0.7833333333333333],vertical,"(890.0, 762.0)",0.9333333333333333,0.737,1,2434.911,3,0.0,same
0,408,catch,"[(1160, 797)]",[],[1],[],vertical,"(890.0, 262.0)",1.7,nan,1,2441.349,3,0.0,same
0,409,valid,"[(1135, 799)]",[],[1],[0.85],horizontal,"(890.0, 762.0)",0.8833333333333333,nan,0,2447.327,0,0.0,same
0,410,valid,"[(1131, 766)]",[],[1],[0.5166666666666666],horizontal,"(390.0, 762.0)",1.3833333333333333,0.477,1,2451.932,1,0.0,same
0,411,valid,"[(1170, 782)]",[],[1],[0.5166666666666666],horizontal,"(890.0, 762.0)",0.6166666666666667,0.481,1,2457.55,1,0.0,same
0,412,valid,"[(1165, 782)]",[],[1],[0.6],vertical,"(890.0, 262.0)",0.5166666666666666,0.557,1,2462.016,1,0.0,same
0,413,invalid_adjacent_other_bar,"[(1136, 776)]",[],[1],[0.7166666666666667],vertical,"(890.0, 262.0)",0.65,0.677,1,2466.828,2,0.0,other
0,414,invalid_same_bar,"[(1160, 786)]",[],[1],[0.4666666666666667],horizontal,"(390.0, 262.0)",1.3833333333333333,0.425,1,2472.083,2,0.0,same
0,415,catch,"[(1170, 782)]",[],[1],[],vertical,"(390.0, 262.0)",1.7,nan,1,2477.933,2,0.0,same
0,416,invalid_adjacent_other_bar,"[(1165, 791)]",[],[1],[0.5166666666666666],horizontal,"(890.0, 762.0)",1.3833333333333333,0.476,1,2483.799,2,0.0,other
0,417,valid,"[(1143, 779)]",[],[1],[0.6833333333333333],vertical,"(890.0, 262.0)",1.0333333333333332,0.642,1,2489.504,3,0.0,same
0,418,valid,"[(1172, 760)]",[],[1],[0.5166666666666666],vertical,"(390.0, 262.0)",0.5166666666666666,0.474,1,2495.845,3,0.0,same
0,419,invalid_adjacent_other_bar,"[(1150, 779)]",[],[1],[0.5666666666666667],horizontal,"(390.0, 262.0)",0.7166666666666667,0.522,1,2501.388,3,0.0,other
0,420,valid,"[(1125, 788)]",[],[1],[0.5333333333333333],vertical,"(890.0, 262.0)",0.5333333333333333,0.493,1,2507.284,3,0.0,same
0,421,valid,"[(1166, 778)]",[],[1],[0.5333333333333333],vertical,"(890.0, 262.0)",0.9833333333333333,0.493,1,2513.017,3,0.0,same
0,422,valid,"[(1160, 775)]",[],[1],[0.6],vertical,"(390.0, 762.0)",1.3833333333333333,0.555,1,2519.051,3,0.0,same
0,423,valid,"[(1132, 777)]",[],[1],[0.5166666666666666],vertical,"(890.0, 262.0)",1.2333333333333334,0.475,1,2525.717,3,0.0,same
0,424,valid,"[(1154, 767)]",[],[1],[0.6666666666666666],horizontal,"(390.0, 762.0)",0.7333333333333333,0.629,1,2531.949,3,0.0,same
0,425,valid,"[(1140, 777)]",[],[1],[0.6833333333333333],horizontal,"(890.0, 262.0)",0.7833333333333333,0.638,1,2537.627,3,0.0,same
0,426,valid,"[(1155, 767)]",[],[1],[0.5333333333333333],vertical,"(890.0, 762.0)",0.6333333333333333,0.495,1,2543.567,3,0.0,same
0,427,valid,"[(1169, 788)]",[],[1],[0.5833333333333334],vertical,"(890.0, 762.0)",1.1166666666666667,0.539,1,2548.943,3,0.0,same
0,428,valid,"[(1161, 773)]",[],[1],[0.5333333333333333],horizontal,"(390.0, 262.0)",0.7,0.494,1,2555.115,3,0.0,same
0,429,catch,"[(1154, 774)]",[],[1],[],vertical,"(890.0, 762.0)",1.7,nan,1,2561.066,3,0.0,same
0,430,valid,"[(1163, 783)]",[],[1],[0.5],vertical,"(890.0, 762.0)",0.6166666666666667,0.463,1,2567.303,3,0.0,same
0,431,valid,"[(1165, 768)]",[],[1],[0.5833333333333334],horizontal,"(890.0, 762.0)",1.0666666666666667,0.544,1,2572.913,3,0.0,same
0,432,catch,"[(1158, 786)]",[],[1],[],horizontal,"(390.0, 262.0)",,"('cti', 1.429),nan",0,2579.065,0,0.02,same
0,433,valid,"[(1125, 783)]",[],[1],[0.55],vertical,"(390.0, 262.0)",1.2666666666666666,0.503,1,2583.867,1,0.02,same
0,434,valid,"[(1138, 768)]",[],[1],[0.55],vertical,"(890.0, 262.0)",0.9833333333333333,0.506,1,2588.955,1,0.02,same
0,435,catch,"[(1167, 760)]",[],[1],[],horizontal,"(890.0, 262.0)",,"('cti', 1.665),nan",0,2593.719,0,0.04,same
0,436,valid,"[(1127, 796)]",[],[1],[0.5666666666666667],horizontal,"(890.0, 762.0)",1.5333333333333332,0.522,1,2598.433,1,0.04,same
0,437,valid,"[(1160, 786)]",[],[1],[0.6666666666666666],vertical,"(390.0, 262.0)",0.5,0.621,1,2604.062,1,0.04,same
0,438,invalid_same_bar,"[(1168, 778)]",[],[1],[0.85],vertical,"(390.0, 762.0)",1.1833333333333333,nan,0,2608.9,0,0.04,same
0,439,valid,"[(1090, 789)]",[],[1],[0.85],horizontal,"(890.0, 262.0)",1.0166666666666666,nan,0,2614.325,0,0.04,same
0,440,valid,"[(1089, 806)]",[],[1],[0.55],horizontal,"(390.0, 262.0)",0.6333333333333333,0.512,1,2621.801,1,0.04,same
0,441,catch,"[(1140, 783)]",[],[1],[],horizontal,"(890.0, 762.0)",1.7,nan,1,2626.648,1,0.04,same
0,442,valid,"[(1162, 787)]",[],[1],[0.5833333333333334],vertical,"(390.0, 262.0)",1.1,0.542,1,2632.144,1,0.04,same
0,443,valid,"[(1162, 772)]",[],[1],[0.7333333333333333],vertical,"(890.0, 262.0)",0.5333333333333333,0.692,1,2637.386,2,0.04,same
0,444,valid,"[(1160, 767)]",[],[1],[0.5666666666666667],horizontal,"(890.0, 762.0)",1.5,0.529,1,2642.363,2,0.04,same
0,445,catch,"[(1157, 775)]",[],[1],[],vertical,"(390.0, 762.0)",1.7,nan,1,2648.68,2,0.04,same
0,446,catch,"[(1166, 789)]",[],[1],[],vertical,"(390.0, 262.0)",1.7,nan,1,2654.015,2,0.04,same
0,447,valid,"[(1141, 773)]",[],[1],[0.5333333333333333],horizontal,"(890.0, 762.0)",1.0166666666666666,0.493,1,2660.158,3,0.04,same
0,448,valid,"[(1138, 767)]",[],[1],[0.6166666666666667],vertical,"(390.0, 762.0)",1.35,0.586,1,2666.182,3,0.04,same
0,449,valid,"[(1167, 762)]",[],[1],[0.5333333333333333],vertical,"(390.0, 762.0)",0.85,0.507,1,2672.433,3,0.04,same
0,450,valid,"[(1142, 762)]",[],[1],[0.6],horizontal,"(390.0, 762.0)",0.6166666666666667,0.556,1,2678.476,3,0.04,same
0,451,valid,"[(1156, 778)]",[],[1],[0.75],vertical,"(890.0, 762.0)",1.15,0.705,1,2683.75,3,0.04,same
0,452,invalid_same_bar,"[(1164, 770)]",[],[1],[0.85],horizontal,"(390.0, 762.0)",0.4666666666666667,nan,0,2689.679,0,0.04,same
0,453,valid,"[(1123, 774)]",[],[1],[0.5166666666666666],vertical,"(390.0, 262.0)",0.65,0.482,1,2694.032,1,0.04,same
0,454,valid,"[(1161, 761)]",[],[1],[0.08333333333333333],horizontal,"(890.0, 262.0)",1.5166666666666666,0.051,0,2698.834,0,0.04,same
0,455,valid,"[(1148, 804)]",[],[1],[0.5333333333333333],horizontal,"(890.0, 762.0)",0.6666666666666666,0.491,1,2703.8,1,0.04,same
0,456,valid,"[(1135, 752), (1088, 825)]",[],"[0, 1]",[0.85],horizontal,"(890.0, 262.0)",0.65,nan,0,2708.534,0,0.04,same
0,457,valid,"[(1145, 786)]",[],[1],[0.6166666666666667],vertical,"(890.0, 762.0)",1.15,0.584,1,2714.151,1,0.04,same
0,458,valid,"[(1131, 773)]",[],[1],[0.85],horizontal,"(890.0, 262.0)",0.6833333333333333,nan,0,2719.384,0,0.04,same
0,459,catch,"[(1125, 776)]",[],[1],[],horizontal,"(390.0, 762.0)",1.7,nan,1,2723.617,1,0.04,same
0,460,valid,"[(1160, 780)]",[],[1],[0.6],vertical,"(890.0, 762.0)",0.8,0.562,1,2729.01,1,0.04,same
0,461,valid,"[(1172, 788)]",[],[1],[0.55],horizontal,"(890.0, 762.0)",1.3333333333333333,0.51,1,2733.659,1,0.04,same
0,462,valid,"[(1150, 788)]",[],[1],[0.5166666666666666],horizontal,"(390.0, 262.0)",0.4666666666666667,0.477,1,2739.328,2,0.04,same
0,463,valid,"[(1150, 806)]",[],[1],[0.5166666666666666],vertical,"(390.0, 262.0)",0.6166666666666667,0.477,1,2744.017,2,0.04,same
0,464,catch,"[(1156, 753), (1095, 791)]",[],"[0, 1]",[],horizontal,"(890.0, 262.0)",1.7,nan,1,2748.967,2,0.04,same
0,465,catch,"[(1164, 806)]",[],[1],[],horizontal,"(890.0, 262.0)",1.7,nan,1,2759.617,2,0.04,same
0,466,valid,"[(1136, 769)]",[],[1],[0.6],vertical,"(390.0, 762.0)",0.95,0.556,1,2765.234,3,0.04,same
0,467,catch,"[(1158, 766)]",[],[1],[],horizontal,"(390.0, 762.0)",1.7,nan,1,2771.168,3,0.04,same
0,468,invalid_same_bar,"[(1142, 768)]",[],[1],[0.65],vertical,"(890.0, 762.0)",1.4,0.609,1,2776.967,3,0.04,same
0,469,valid,"[(1141, 771)]",[],[1],[0.6166666666666667],horizontal,"(890.0, 762.0)",0.35,0.577,1,2783.541,3,0.04,same
0,470,valid,"[(1145, 752), (1135, 832)]",[],"[0, 1]",[0.6],vertical,"(890.0, 262.0)",0.9333333333333333,0.557,1,2788.901,3,0.04,same
0,471,valid,"[(1140, 785)]",[],[1],[0.7166666666666667],vertical,"(390.0, 262.0)",1.3333333333333333,0.669,1,2795.371,3,0.04,same
0,472,invalid_same_bar,"[(1166, 793)]",[],[1],[0.85],horizontal,"(390.0, 262.0)",1.5,nan,0,2801.643,0,0.04,same
0,473,valid,"[(1145, 756)]",[],[1],[0.45],vertical,"(890.0, 262.0)",1.4333333333333333,0.407,1,2806.864,1,0.04,same
0,474,valid,"[(1146, 774)]",[],[1],[0.8],vertical,"(390.0, 262.0)",0.9166666666666666,0.751,1,2812.491,1,0.04,same
0,475,catch,"[(1166, 767)]",[],[1],[],horizontal,"(890.0, 762.0)",1.7,nan,1,2817.77,1,0.04,same
0,476,valid,"[(1179, 751), (1053, 791)]",[],"[0, 1]",[0.7666666666666666],horizontal,"(390.0, 262.0)",0.7666666666666666,0.725,1,2822.767,2,0.04,same
0,477,valid,"[(1140, 765)]",[],[1],[0.8166666666666667],vertical,"(390.0, 762.0)",0.8666666666666667,0.771,1,2829.885,2,0.04,same
0,478,catch,"[(1167, 788)]",[],[1],[],vertical,"(390.0, 262.0)",1.7,nan,1,2835.228,2,0.04,same
0,479,valid,"[(1135, 786)]",[],[1],[0.7166666666666667],vertical,"(890.0, 762.0)",0.5833333333333334,0.675,1,2841.316,2,0.04,same
0,480,catch,"[(1169, 756)]",[],[1],[],horizontal,"(890.0, 762.0)",1.7,nan,1,2846.924,3,0.04,same
0,481,valid,"[(1160, 794)]",[],[1],[0.55],vertical,"(390.0, 262.0)",0.8333333333333334,0.516,1,2853.412,3,0.04,same
0,482,invalid_adjacent_other_bar,"[(1140, 772)]",[],[1],[0.85],horizontal,"(890.0, 262.0)",1.1333333333333333,nan,0,2859.368,0,0.02,other
0,483,valid,"[(1128, 773)]",[],[1],[0.65],vertical,"(890.0, 262.0)",0.5833333333333334,0.608,1,2864.067,1,0.02,same
0,484,valid,"[(1142, 794)]",[],[1],[0.85],vertical,"(390.0, 762.0)",0.5,nan,0,2868.901,0,0.02,same
0,485,invalid_same_bar,"[(1090, 799)]",[],[1],[0.55],horizontal,"(890.0, 762.0)",0.4,0.511,1,2873.034,1,0.0,same
0,486,catch,"[(1135, 777)]",[],[1],[],horizontal,"(890.0, 262.0)",1.7,nan,1,2877.849,1,0.0,same
0,487,valid,"[(1153, 765)]",[],[1],[0.6166666666666667],horizontal,"(390.0, 262.0)",1.2,0.578,1,2882.976,1,0.0,same
0,488,catch,"[(1167, 767)]",[],[1],[],horizontal,"(390.0, 762.0)",,"('cti', 1.58),nan",0,2888.549,0,0.02,same
0,489,catch,"[(1134, 790)]",[],[1],[],vertical,"(890.0, 762.0)",1.7,nan,1,2893.466,1,0.02,same
0,490,valid,"[(1135, 776)]",[],[1],[0.55],vertical,"(390.0, 762.0)",1.05,0.511,1,2899.033,1,0.02,same
0,491,valid,"[(1135, 778)]",[],[1],[0.35],vertical,"(390.0, 262.0)",1.3666666666666667,0.314,1,2904.017,1,0.02,same
0,492,valid,"[(1174, 790)]",[],[1],[0.5666666666666667],vertical,"(890.0, 762.0)",0.65,0.523,1,2909.495,2,0.02,same
0,493,catch,"[(1129, 774)]",[],[1],[],vertical,"(890.0, 262.0)",1.7,nan,1,2914.198,2,0.02,same
0,494,valid,"[(1136, 778)]",[],[1],[0.5166666666666666],vertical,"(890.0, 262.0)",1.1166666666666667,0.479,1,2919.62,2,0.02,same
0,495,catch,"[(1167, 754)]",[],[1],[],vertical,"(390.0, 762.0)",1.7,nan,1,2924.951,2,0.02,same
0,496,valid,"[(1137, 772)]",[],[1],[0.6666666666666666],vertical,"(390.0, 262.0)",1.0833333333333333,0.623,1,2930.608,3,0.02,same
0,497,valid,"[(1147, 787)]",[],[1],[0.55],horizontal,"(890.0, 262.0)",0.3833333333333333,0.51,1,2937.028,3,0.02,same
0,498,catch,"[(1177, 771)]",[],[1],[],horizontal,"(890.0, 262.0)",1.7,nan,1,2942.151,3,0.02,same
0,499,valid,"[(1170, 786)]",[],[1],[0.6],vertical,"(890.0, 262.0)",0.8833333333333333,0.558,1,2948.426,3,0.02,same
0,500,valid,"[(1146, 805)]",[],[1],[0.5333333333333333],vertical,"(890.0, 762.0)",0.4166666666666667,0.486,1,2953.973,3,0.02,same
0,501,invalid_adjacent_other_bar,"[(1163, 793)]",[],[1],[0.7166666666666667],vertical,"(890.0, 262.0)",1.1333333333333333,0.676,1,2959.252,3,0.02,other
0,502,catch,"[(1179, 765)]",[],[1],[],vertical,"(390.0, 762.0)",1.7,nan,1,2965.234,3,0.02,same
0,503,valid,"[(1167, 761)]",[],[1],[0.5833333333333334],vertical,"(890.0, 262.0)",0.6,0.536,1,2971.319,3,0.02,same
0,504,valid,"[(1163, 789)]",[],[1],[0.55],horizontal,"(890.0, 762.0)",0.9666666666666667,0.512,1,2976.519,3,0.02,same
0,505,catch,"[(1137, 776)]",[],[1],[],vertical,"(890.0, 262.0)",1.7,nan,1,2982.302,3,0.02,same
0,506,valid,"[(1141, 773)]",[],[1],[0.6],vertical,"(890.0, 262.0)",1.5,0.561,1,2988.768,3,0.02,same
0,507,valid,"[(1143, 761)]",[],[1],[0.6666666666666666],vertical,"(390.0, 262.0)",0.35,0.632,1,2994.835,3,0.02,same
0,508,catch,"[(1140, 779)]",[],[1],[],horizontal,"(890.0, 762.0)",1.7,nan,1,3000.402,3,0.02,same
0,509,catch,"[(1172, 763)]",[],[1],[],horizontal,"(390.0, 262.0)",1.7,nan,1,3006.673,3,0.02,same
0,510,catch,"[(1137, 786)]",[],[1],[],vertical,"(390.0, 762.0)",1.7,nan,1,3012.886,3,0.02,same
0,511,valid,"[(1133, 776)]",[],[1],[0.5333333333333333],horizontal,"(890.0, 262.0)",0.9333333333333333,0.495,1,3019.039,3,0.02,same
0,512,valid,"[(1154, 767)]",[],[1],[0.85],horizontal,"(390.0, 762.0)",1.05,nan,0,3024.719,0,0.02,same
0,513,catch,"[(1120, 789)]",[],[1],[],vertical,"(890.0, 762.0)",1.7,nan,1,3029.473,1,0.02,same
0,514,valid,"[(1120, 778)]",[],[1],[0.5],vertical,"(890.0, 762.0)",1.2,0.464,1,3034.386,1,0.02,same
0,515,valid,"[(1153, 781)]",[],[1],[0.5166666666666666],vertical,"(890.0, 262.0)",0.85,0.477,1,3040.202,1,0.02,same
0,516,valid,"[(1150, 775)]",[],[1],[0.85],horizontal,"(390.0, 262.0)",1.2666666666666666,nan,0,3044.869,0,0.02,same
0,517,valid,"[(1143, 767)]",[],[1],[0.5833333333333334],horizontal,"(890.0, 762.0)",0.9666666666666667,0.547,1,3050.069,1,0.02,same
0,518,valid,"[(1163, 769)]",[],[1],[0.5833333333333334],vertical,"(890.0, 762.0)",0.8333333333333334,0.539,1,3055.17,1,0.02,same
0,519,catch,"[(1170, 776)]",[],[1],[],vertical,"(390.0, 262.0)",1.7,nan,1,3060.133,1,0.02,same
0,520,invalid_same_bar,"[(1146, 776)]",[],[1],[0.6666666666666666],horizontal,"(890.0, 762.0)",1.4833333333333334,0.626,1,3065.803,2,0.02,same
0,521,valid,"[(1135, 786)]",[],[1],[0.6166666666666667],horizontal,"(390.0, 262.0)",1.5333333333333332,0.58,1,3071.635,2,0.02,same
0,522,catch,"[(1170, 791)]",[],[1],[],vertical,"(890.0, 262.0)",1.7,nan,1,3077.627,2,0.02,same
0,523,invalid_adjacent_other_bar,"[(1143, 791)]",[],[1],[0.5166666666666666],vertical,"(390.0, 262.0)",1.1,0.472,1,3082.974,2,0.02,other
0,524,valid,"[(1146, 779)]",[],[1],[0.75],vertical,"(890.0, 262.0)",0.9,0.704,1,3088.276,3,0.02,same
0,525,valid,"[(1165, 782)]",[],[1],[0.5166666666666666],vertical,"(890.0, 262.0)",1.5333333333333332,0.475,1,3095.021,3,0.02,same
0,526,valid,"[(1137, 769)]",[],[1],[0.6833333333333333],vertical,"(890.0, 262.0)",1.2666666666666666,0.644,1,3101.151,3,0.02,same
0,527,valid,"[(1160, 776)]",[],[1],[0.5333333333333333],horizontal,"(390.0, 262.0)",0.85,0.495,1,3107.803,3,0.02,same
0,528,valid,"[(1165, 781)]",[],[1],[0.85],vertical,"(390.0, 762.0)",0.45,nan,0,3113.302,0,0.02,same
0,529,valid,"[(1140, 778)]",[],[1],[0.5833333333333334],vertical,"(890.0, 262.0)",0.5,0.544,1,3117.486,1,0.02,same
0,530,valid,"[(1163, 774)]",[],[1],[0.5],horizontal,"(390.0, 762.0)",0.8166666666666667,0.462,1,3122.252,1,0.02,same
0,531,valid,"[(1180, 769)]",[],[1],[0.6666666666666666],vertical,"(390.0, 762.0)",1.1833333333333333,0.631,1,3127.497,1,0.02,same
0,532,valid,"[(1150, 775)]",[],[1],[0.6166666666666667],horizontal,"(390.0, 762.0)",1.3,0.578,1,3132.636,2,0.02,same
0,533,catch,"[(1140, 797)]",[],[1],[],horizontal,"(890.0, 262.0)",1.7,nan,1,3138.469,2,0.02,same
0,534,valid,"[(1136, 778)]",[],[1],[0.5166666666666666],horizontal,"(390.0, 262.0)",0.9166666666666666,0.476,1,3144.062,2,0.02,same
0,535,valid,"[(1166, 778)]",[],[1],[0.7],vertical,"(390.0, 262.0)",1.3333333333333333,0.657,1,3149.133,2,0.02,same
0,536,catch,"[(1138, 779)]",[],[1],[],vertical,"(390.0, 762.0)",1.7,nan,1,3155.306,3,0.02,same
0,537,valid,"[(1166, 786)]",[],[1],[0.6166666666666667],vertical,"(390.0, 762.0)",0.7833333333333333,0.576,1,3161.853,3,0.02,same
0,538,catch,"[(1158, 778)]",[],[1],[],horizontal,"(390.0, 762.0)",1.7,nan,1,3167.553,3,0.0,same
0,539,valid,"[(1149, 799)]",[],[1],[0.55],vertical,"(890.0, 762.0)",1.2833333333333332,0.508,1,3173.435,3,0.0,same
0,540,valid,"[(1136, 801)]",[],[1],[0.5666666666666667],horizontal,"(890.0, 762.0)",0.9166666666666666,0.535,1,3179.633,3,0.0,same
0,541,valid,"[(1188, 762)]",[],[1],[0.7833333333333333],horizontal,"(390.0, 262.0)",0.55,0.738,1,3185.369,3,0.0,same
0,542,valid,"[(1155, 772)]",[],[1],[0.5833333333333334],vertical,"(890.0, 262.0)",1.0333333333333332,0.544,1,3191.17,3,0.0,same
0,543,valid,"[(1154, 792)]",[],[1],[0.65],vertical,"(390.0, 762.0)",0.35,0.604,1,3197.289,3,0.0,same
0,544,valid,"[(1135, 771)]",[],[1],[0.6666666666666666],horizontal,"(390.0, 762.0)",1.2666666666666666,0.623,1,3202.522,3,0.0,same
0,545,catch,"[(1142, 792)]",[],[1],[],vertical,"(390.0, 262.0)",1.7,nan,1,3208.985,3,0.0,same
0,546,valid,"[(1171, 793)]",[],[1],[0.55],horizontal,"(390.0, 762.0)",0.6666666666666666,0.508,1,3214.7,3,0.0,same
0,547,valid,"[(1140, 772)]",[],[1],[0.6166666666666667],vertical,"(890.0, 262.0)",0.45,0.574,1,3220.719,3,0.0,same
0,548,valid,"[(1146, 778)]",[],[1],[0.5833333333333334],horizontal,"(890.0, 762.0)",0.6166666666666667,0.541,1,3226.267,3,0.0,same
0,549,invalid_adjacent_other_bar,"[(1160, 785)]",[],[1],[0.5166666666666666],vertical,"(890.0, 762.0)",0.4,0.477,1,3231.885,3,0.0,other
0,550,valid,"[(1131, 785)]",[],[1],[0.6166666666666667],horizontal,"(890.0, 762.0)",1.3,0.577,1,3236.923,3,0.0,same
0,551,valid,"[(1162, 794)]",[],[1],[0.7666666666666666],vertical,"(390.0, 762.0)",0.6166666666666667,0.718,1,3243.467,3,0.0,same
0,552,valid,"[(1165, 795)]",[],[1],[0.55],vertical,"(390.0, 262.0)",0.35,0.509,1,3249.336,3,0.0,same
0,553,valid,"[(1152, 779)]",[],[1],[0.55],vertical,"(390.0, 762.0)",0.9,0.509,1,3254.769,3,0.0,same
0,554,valid,"[(1170, 796)]",[],[1],[0.8166666666666667],vertical,"(890.0, 262.0)",0.9833333333333333,0.764,1,3260.764,3,0.0,same
0,555,invalid_same_bar,"[(1165, 794)]",[],[1],[0.55],vertical,"(890.0, 762.0)",1.5166666666666666,0.511,1,3266.92,3,0.0,same
0,556,valid,"[(1180, 765)]",[],[1],[0.85],vertical,"(390.0, 262.0)",1.2666666666666666,nan,0,3273.075,0,0.0,same
0,557,valid,"[(1135, 816)]",[],[1],[0.6833333333333333],horizontal,"(390.0, 762.0)",1.1666666666666667,0.64,1,3278.52,1,0.0,same
0,558,valid,"[(1165, 787)]",[],[1],[0.5333333333333333],horizontal,"(890.0, 762.0)",1.1166666666666667,0.489,1,3312.337,1,0.0,same
0,559,catch,"[(1125, 801)]",[],[1],[],vertical,"(890.0, 262.0)",1.7,nan,1,3317.802,1,0.0,same
0,560,valid,"[(1165, 812)]",[],[1],[0.8333333333333334],vertical,"(390.0, 762.0)",1.0833333333333333,0.785,1,3323.21,2,0.0,same
0,561,catch,"[(1160, 802)]",[],[1],[],horizontal,"(390.0, 762.0)",1.7,nan,1,3329.07,2,0.0,same
0,562,valid,"[(1165, 804)]",[],[1],[0.6],vertical,"(390.0, 762.0)",1.4833333333333334,0.557,1,3334.922,2,0.0,same
0,563,valid,"[(1165, 791)]",[],[1],[0.5333333333333333],vertical,"(890.0, 262.0)",0.5333333333333333,0.49,1,3341.009,2,0.0,same
0,564,valid,"[(1162, 787)]",[],[1],[0.5333333333333333],horizontal,"(890.0, 262.0)",1.3833333333333333,0.497,1,3345.824,3,0.0,same
0,565,invalid_same_bar,"[(1165, 776)]",[],[1],[0.5],horizontal,"(390.0, 262.0)",1.0666666666666667,0.462,1,3351.886,3,0.0,same
0,566,valid,"[(1154, 786)]",[],[1],[0.55],horizontal,"(390.0, 262.0)",0.8666666666666667,0.506,1,3357.57,3,0.0,same
0,567,catch,"[(1137, 766)]",[],[1],[],vertical,"(390.0, 762.0)",1.7,nan,1,3362.937,3,0.0,same
0,568,valid,"[(1165, 777)]",[],[1],[0.55],vertical,"(390.0, 262.0)",1.15,0.511,1,3368.644,3,0.0,same
0,569,valid,"[(1145, 763)]",[],[1],[0.5333333333333333],horizontal,"(890.0, 762.0)",1.0666666666666667,0.495,1,3374.82,3,0.0,same
0,570,valid,"[(1167, 789)]",[],[1],[0.75],horizontal,"(390.0, 762.0)",0.43333333333333335,0.707,1,3381.236,3,0.0,same
0,571,valid,"[(1162, 786)]",[],[1],[0.7333333333333333],vertical,"(890.0, 762.0)",0.7833333333333333,0.689,1,3386.854,3,0.0,same
0,572,valid,"[(1166, 796)]",[],[1],[0.5666666666666667],vertical,"(890.0, 262.0)",1.4333333333333333,0.522,1,3392.953,3,0.0,same
0,573,valid,"[(1132, 773)]",[],[1],[0.5166666666666666],horizontal,"(390.0, 262.0)",0.4166666666666667,0.475,1,3399.537,3,0.0,same
0,574,valid,"[(1131, 794)]",[],[1],[0.5166666666666666],vertical,"(390.0, 762.0)",1.3666666666666667,0.475,1,3404.503,3,0.0,same
0,575,valid,"[(1155, 795)]",[],[1],[0.5666666666666667],horizontal,"(390.0, 262.0)",1.3,0.528,1,3410.954,3,0.0,same
0,576,invalid_same_bar,"[(1165, 777)]",[],[1],[0.6333333333333333],vertical,"(890.0, 262.0)",1.1666666666666667,0.585,1,3417.403,3,0.0,same
0,577,valid,"[(1155, 766)]",[],[1],[0.6166666666666667],horizontal,"(890.0, 762.0)",0.9833333333333333,0.568,1,3423.186,3,0.0,same
0,578,valid,"[(1155, 775)]",[],[1],[0.5166666666666666],horizontal,"(390.0, 262.0)",1.2666666666666666,0.471,1,3429.087,3,0.0,same
0,579,catch,"[(1146, 797)]",[],[1],[],horizontal,"(890.0, 762.0)",1.7,nan,1,3435.554,3,0.0,same
0,580,valid,"[(1162, 800)]",[],[1],[0.75],vertical,"(890.0, 762.0)",1.2833333333333332,0.695,1,3441.72,3,0.0,same
0,581,valid,"[(1151, 775)]",[],[1],[0.7166666666666667],horizontal,"(890.0, 762.0)",1.2833333333333332,0.668,1,3447.956,3,0.0,same
0,582,valid,"[(1170, 770)]",[],[1],[0.5333333333333333],horizontal,"(390.0, 762.0)",0.5666666666666667,0.488,1,3454.256,3,0.0,same
0,583,valid,"[(1158, 792)]",[],[1],[0.5],vertical,"(890.0, 262.0)",0.35,0.461,1,3459.422,3,0.0,same
0,584,catch,"[(1170, 781)]",[],[1],[],vertical,"(390.0, 762.0)",1.7,nan,1,3464.521,3,0.0,same
0,585,valid,"[(1159, 804)]",[],[1],[0.6333333333333333],horizontal,"(890.0, 762.0)",0.5333333333333333,0.589,1,3470.486,3,0.0,same
0,586,valid,"[(1162, 799)]",[],[1],[0.5333333333333333],horizontal,"(890.0, 262.0)",0.65,0.485,1,3475.596,3,0.0,same
0,587,catch,"[(1160, 786)]",[],[1],[],horizontal,"(890.0, 762.0)",1.7,nan,1,3481.337,3,0.0,same
0,588,catch,"[(1150, 796)]",[],[1],[],vertical,"(890.0, 762.0)",1.7,nan,1,3487.339,3,0.0,same
0,589,valid,"[(1161, 791)]",[],[1],[0.5166666666666666],vertical,"(390.0, 262.0)",1.1166666666666667,0.472,1,3493.114,3,0.0,same
0,590,valid,"[(1135, 781)]",[],[1],[0.75],horizontal,"(890.0, 762.0)",0.8833333333333333,0.704,1,3498.87,3,0.0,same
0,591,valid,"[(1170, 787)]",[],[1],[0.5833333333333334],vertical,"(390.0, 262.0)",0.8833333333333333,0.558,1,3504.888,3,0.0,same
0,592,valid,"[(1167, 763)]",[],[1],[0.6333333333333333],horizontal,"(390.0, 762.0)",0.9666666666666667,0.586,1,3510.938,3,0.0,same
0,593,valid,"[(1152, 799)]",[],[1],[0.5333333333333333],horizontal,"(390.0, 262.0)",0.8,0.49,1,3516.32,3,0.0,same
0,594,valid,"[(1151, 767)]",[],[1],[0.5666666666666667],vertical,"(390.0, 762.0)",1.2666666666666666,0.524,1,3521.653,3,0.0,same
0,595,invalid_same_bar,"[(1150, 789)]",[],[1],[0.6],vertical,"(890.0, 762.0)",0.35,0.553,1,3527.766,3,0.0,same
0,596,catch,"[(1140, 783)]",[],[1],[],horizontal,"(390.0, 762.0)",1.7,nan,1,3532.887,3,0.0,same
0,597,valid,"[(1131, 799)]",[],[1],[0.5333333333333333],vertical,"(890.0, 762.0)",1.0,0.494,1,3538.804,3,0.0,same
0,598,valid,"[(1146, 792)]",[],[1],[0.7833333333333333],vertical,"(890.0, 762.0)",1.5333333333333332,0.733,1,3544.306,3,0.0,same
0,599,catch,"[(1155, 789)]",[],[1],[],vertical,"(890.0, 262.0)",1.7,nan,1,3550.974,3,0.0,same
0,600,catch,"[(1157, 789)]",[],[1],[],horizontal,"(890.0, 262.0)",1.7,nan,1,3557.319,3,0.0,same
0,601,invalid_adjacent_other_bar,"[(1160, 772)]",[],[1],[0.5333333333333333],vertical,"(390.0, 262.0)",0.7166666666666667,0.494,1,3563.204,3,0.0,other
0,602,invalid_adjacent_other_bar,"[(1156, 792)]",[],[1],[0.85],horizontal,"(390.0, 262.0)",0.5333333333333333,nan,0,3568.769,0,0.0,other
0,603,valid,"[(1149, 764)]",[],[1],[0.85],horizontal,"(390.0, 762.0)",0.4666666666666667,nan,0,3573.353,0,0.0,same
0,604,valid,"[(1145, 774)]",[],[1],[0.5666666666666667],vertical,"(390.0, 262.0)",1.0,0.525,1,3577.769,1,0.0,same
0,605,valid,"[(1190, 771)]",[],[1],[0.6],horizontal,"(390.0, 262.0)",0.7333333333333333,0.56,1,3582.57,1,0.0,same
0,606,catch,"[(1160, 767)]",[],[1],[],horizontal,"(890.0, 262.0)",1.7,nan,1,3587.521,1,0.0,same
0,607,catch,"[(1160, 799)]",[],[1],[],vertical,"(890.0, 262.0)",1.7,nan,1,3593.075,2,0.0,same
0,608,valid,"[(1140, 791)]",[],[1],[0.65],horizontal,"(390.0, 262.0)",0.6666666666666666,0.603,1,3598.95,2,0.0,same
0,609,valid,"[(1150, 786)]",[],[1],[0.48333333333333334],vertical,"(390.0, 762.0)",0.4166666666666667,0.444,1,3603.836,2,0.0,same
0,610,catch,"[(1180, 787)]",[],[1],[],horizontal,"(890.0, 762.0)",1.7,"('cti', 1.68),nan",0,3608.806,0,0.02,same
0,611,valid,"[(1135, 792)]",[],[1],[0.6],vertical,"(390.0, 762.0)",1.5,0.554,1,3613.636,1,0.02,same
0,612,valid,"[(1140, 772)]",[],[1],[0.48333333333333334],horizontal,"(890.0, 762.0)",1.5166666666666666,0.441,1,3619.324,1,0.02,same
0,613,catch,"[(1160, 768)]",[],[1],[],horizontal,"(890.0, 262.0)",1.7,nan,1,3624.736,1,0.02,same
0,614,valid,"[(1140, 779)]",[],[1],[0.7333333333333333],horizontal,"(890.0, 762.0)",1.2333333333333334,0.686,1,3630.016,2,0.02,same
0,615,valid,"[(1153, 773)]",[],[1],[0.5666666666666667],vertical,"(390.0, 762.0)",0.43333333333333335,0.526,1,3635.92,2,0.02,same
0,616,catch,"[(1152, 787)]",[],[1],[],horizontal,"(890.0, 262.0)",1.7,nan,1,3640.67,2,0.02,same
0,617,valid,"[(1134, 791)]",[],[1],[0.6],vertical,"(390.0, 762.0)",1.4333333333333333,0.556,1,3646.515,2,0.02,same
0,618,invalid_adjacent_other_bar,"[(1135, 813)]",[],[1],[0.55],vertical,"(890.0, 762.0)",1.15,0.505,1,3652.403,3,0.02,other
0,619,valid,"[(1140, 789)]",[],[1],[0.55],vertical,"(890.0, 262.0)",0.55,0.507,1,3659.477,3,0.02,same
0,620,valid,"[(1142, 791)]",[],[1],[0.85],vertical,"(390.0, 762.0)",0.35,nan,0,3665.272,0,0.02,same
0,621,invalid_same_bar,"[(1125, 806)]",[],[1],[0.6],horizontal,"(390.0, 762.0)",1.45,0.556,1,3669.297,1,0.02,same
0,622,valid,"[(1144, 764)]",[],[1],[0.85],horizontal,"(390.0, 262.0)",0.85,nan,0,3675.519,0,0.02,same
0,623,valid,"[(1144, 790)]",[],[1],[0.65],horizontal,"(890.0, 762.0)",0.55,0.604,1,3679.901,1,0.02,same
0,624,valid,"[(1168, 799)]",[],[1],[0.85],horizontal,"(390.0, 762.0)",1.1666666666666667,nan,0,3684.695,0,0.02,same
0,625,valid,"[(1150, 795)]",[],[1],[0.5333333333333333],vertical,"(890.0, 262.0)",0.5833333333333334,0.488,1,3689.673,1,0.02,same
0,626,catch,"[(1135, 770)]",[],[1],[],horizontal,"(390.0, 762.0)",1.7,nan,1,3694.064,1,0.02,same
0,627,invalid_same_bar,"[(1146, 801)]",[],[1],[0.8166666666666667],horizontal,"(390.0, 262.0)",1.35,0.767,1,3699.617,1,0.02,same
0,628,valid,"[(1162, 799)]",[],[1],[0.5],vertical,"(890.0, 262.0)",0.5,0.456,1,3705.612,2,0.02,same
0,629,catch,"[(1180, 782)]",[],[1],[],vertical,"(390.0, 762.0)",1.7,nan,1,3710.571,2,0.02,same
0,630,catch,"[(1166, 795)]",[],[1],[],vertical,"(890.0, 262.0)",1.7,nan,1,3716.027,2,0.02,same
0,631,valid,"[(1181, 821)]",[],[1],[0.65],vertical,"(390.0, 262.0)",0.6333333333333333,0.607,1,3721.704,2,0.02,same
0,632,valid,"[(1128, 789)]",[],[1],[0.6166666666666667],horizontal,"(390.0, 762.0)",0.75,0.573,1,3727.013,3,0.02,same
0,633,invalid_adjacent_other_bar,"[(1163, 766)]",[],[1],[0.5333333333333333],vertical,"(890.0, 262.0)",1.3833333333333333,0.489,1,3732.77,3,0.02,other
0,634,catch,"[(1140, 777)]",[],[1],[],horizontal,"(890.0, 262.0)",1.7,nan,1,3739.038,3,0.02,same
0,635,catch,"[(1164, 798)]",[],[1],[],horizontal,"(890.0, 262.0)",1.7,nan,1,3745.144,3,0.02,same
0,636,valid,"[(1149, 772)]",[],[1],[0.7],vertical,"(390.0, 262.0)",0.6,0.656,1,3751.087,3,0.02,same
0,637,valid,"[(1150, 791)]",[],[1],[0.5833333333333334],vertical,"(390.0, 262.0)",1.1,0.54,1,3756.671,3,0.02,same
0,638,invalid_adjacent_other_bar,"[(1150, 781)]",[],[1],[0.5666666666666667],horizontal,"(390.0, 262.0)",1.4,0.526,1,3762.615,3,0.02,other
0,639,catch,"[(1161, 776)]",[],[1],[],horizontal,"(890.0, 762.0)",1.7,nan,1,3768.664,3,0.02,same
0,640,valid,"[(1160, 784)]",[],[1],[0.6833333333333333],horizontal,"(890.0, 262.0)",1.1833333333333333,0.636,1,3774.405,3,0.02,same
0,641,catch,"[(1168, 777)]",[],[1],[],horizontal,"(390.0, 262.0)",1.7,nan,1,3780.414,3,0.02,same
0,642,valid,"[(1140, 792)]",[],[1],[0.55],vertical,"(390.0, 762.0)",0.6,0.514,1,3786.124,3,0.02,same
0,643,valid,"[(1140, 779)]",[],[1],[0.6],vertical,"(890.0, 262.0)",0.7333333333333333,0.556,1,3791.408,3,0.02,same
0,644,catch,"[(1166, 789)]",[],[1],[],horizontal,"(390.0, 762.0)",,"('cti', 1.592),nan",0,3796.928,0,0.04,same
0,645,valid,"[(1145, 789)]",[],[1],[0.5333333333333333],vertical,"(890.0, 262.0)",0.8666666666666667,0.495,1,3801.904,1,0.04,same
0,646,catch,"[(1138, 796)]",[],[1],[],horizontal,"(390.0, 762.0)",1.7,nan,1,3806.504,1,0.04,same
0,647,valid,"[(1165, 759)]",[],[1],[0.5166666666666666],vertical,"(390.0, 262.0)",0.7166666666666667,0.479,1,3811.721,1,0.04,same
0,648,invalid_same_bar,"[(1148, 771)]",[],[1],[0.6666666666666666],horizontal,"(890.0, 262.0)",0.6166666666666667,0.62,1,3816.537,2,0.04,same
0,649,catch,"[(1162, 790)]",[],[1],[],vertical,"(390.0, 262.0)",1.7,nan,1,3821.604,2,0.04,same
0,650,catch,"[(1163, 765)]",[],[1],[],horizontal,"(390.0, 262.0)",1.7,nan,1,3827.105,2,0.04,same
0,651,invalid_same_bar,"[(1140, 786)]",[],[1],[0.6],horizontal,"(390.0, 262.0)",0.6,0.557,1,3833.095,2,0.04,same
0,652,valid,"[(1165, 810)]",[],[1],[0.6],horizontal,"(890.0, 262.0)",0.9666666666666667,0.559,1,3838.09,3,0.04,same
0,653,invalid_same_bar,"[(1145, 781)]",[],[1],[0.6666666666666666],horizontal,"(390.0, 762.0)",1.3166666666666667,0.619,1,3844.184,3,0.04,same
0,654,valid,"[(1171, 780)]",[],[1],[0.85],vertical,"(890.0, 262.0)",0.55,nan,0,3850.246,0,0.04,same
0,655,valid,"[(1134, 769)]",[],[1],[0.6],vertical,"(390.0, 262.0)",0.4,0.557,1,3854.548,1,0.04,same
0,656,valid,"[(1145, 785)]",[],[1],[0.7333333333333333],horizontal,"(390.0, 762.0)",0.6,0.687,1,3859.489,1,0.04,same
0,657,valid,"[(1136, 765)]",[],[1],[0.7],horizontal,"(890.0, 262.0)",0.9166666666666666,0.653,1,3864.355,1,0.04,same
0,658,valid,"[(1164, 794)]",[],[1],[0.6],horizontal,"(890.0, 262.0)",1.0,0.555,1,3869.153,2,0.04,same
0,659,valid,"[(1140, 773)]",[],[1],[0.85],vertical,"(390.0, 762.0)",0.55,nan,0,3874.887,0,0.04,same
0,660,catch,"[(1115, 770)]",[],[1],[],vertical,"(890.0, 262.0)",1.7,nan,1,3879.425,1,0.02,same
0,661,valid,"[(1135, 780)]",[],[1],[0.5666666666666667],horizontal,"(390.0, 762.0)",0.8,0.525,1,3884.554,1,0.02,same
0,662,valid,"[(1162, 762)]",[],[1],[0.55],horizontal,"(890.0, 762.0)",0.5166666666666666,0.51,1,3889.332,1,0.02,same
0,663,catch,"[(1146, 777)]",[],[1],[],vertical,"(390.0, 262.0)",1.7,nan,1,3894.154,2,0.02,same
0,664,catch,"[(1139, 782)]",[],[1],[],vertical,"(390.0, 262.0)",1.7,nan,1,3899.838,2,0.02,same
0,665,invalid_same_bar,"[(1155, 788)]",[],[1],[0.5],vertical,"(390.0, 762.0)",0.8333333333333334,0.458,1,3905.071,2,0.02,same
0,666,valid,"[(1150, 781)]",[],[1],[0.6666666666666666],horizontal,"(890.0, 262.0)",0.8166666666666667,0.616,1,3910.087,2,0.02,same
0,667,catch,"[(1145, 772)]",[],[1],[],vertical,"(890.0, 762.0)",1.7,nan,1,3915.674,3,0.02,same
0,668,valid,"[(1150, 807)]",[],[1],[0.5666666666666667],vertical,"(890.0, 762.0)",0.55,0.526,1,3922.146,3,0.02,same
0,669,invalid_adjacent_other_bar,"[(1175, 786)]",[],[1],[0.85],vertical,"(890.0, 262.0)",1.1833333333333333,nan,0,3927.65,0,0.02,other
0,670,valid,"[(1112, 769)]",[],[1],[0.6],horizontal,"(890.0, 762.0)",0.43333333333333335,0.56,1,3933.154,1,0.02,same
0,671,valid,"[(1121, 796)]",[],[1],[0.65],vertical,"(390.0, 762.0)",0.5,0.611,1,3938.007,1,0.02,same
0,672,catch,"[(1135, 773)]",[],[1],[],horizontal,"(890.0, 762.0)",1.7,nan,1,3942.637,1,0.02,same
0,673,valid,"[(1165, 773)]",[],[1],[0.7666666666666666],vertical,"(390.0, 262.0)",1.0166666666666666,0.725,1,3948.254,2,0.02,same
0,674,catch,"[(1141, 809)]",[],[1],[],vertical,"(390.0, 262.0)",,"('cti', 1.575),nan",0,3954.016,0,0.04,same
0,675,valid,"[(1140, 777)]",[],[1],[0.6333333333333333],vertical,"(390.0, 262.0)",0.65,0.585,1,3958.605,1,0.04,same
0,676,catch,"[(1166, 796)]",[],[1],[],horizontal,"(890.0, 262.0)",1.7,nan,1,3962.919,1,0.04,same
0,677,valid,"[(1148, 777)]",[],[1],[0.5666666666666667],horizontal,"(390.0, 262.0)",0.7166666666666667,0.53,1,3968.354,1,0.04,same
0,678,valid,"[(1139, 792)]",[],[1],[0.55],vertical,"(890.0, 262.0)",0.8833333333333333,0.512,1,3973.071,2,0.04,same
0,679,valid,"[(1143, 772)]",[],[1],[0.85],horizontal,"(390.0, 262.0)",0.95,nan,0,3978.672,0,0.04,same
0,680,catch,"[(1095, 804)]",[],[1],[],horizontal,"(390.0, 262.0)",1.7,nan,1,3983.337,1,0.04,same
0,681,valid,"[(1148, 816)]",[],[1],[0.5833333333333334],vertical,"(890.0, 762.0)",1.1833333333333333,0.546,1,3988.806,1,0.04,same
0,682,valid,"[(1148, 796)]",[],[1],[0.55],vertical,"(390.0, 262.0)",0.43333333333333335,0.509,1,3994.405,1,0.04,same
0,683,valid,"[(1135, 796)]",[],[1],[0.6166666666666667],horizontal,"(890.0, 262.0)",0.8,0.574,1,3998.71,2,0.04,same
0,684,valid,"[(1163, 760)]",[],[1],[0.6333333333333333],vertical,"(390.0, 762.0)",0.8333333333333334,0.595,1,4004.499,2,0.04,same
0,685,catch,"[(1165, 798)]",[],[1],[],vertical,"(390.0, 262.0)",1.7,nan,1,4009.633,2,0.04,same
0,686,catch,"[(1138, 774)]",[],[1],[],vertical,"(390.0, 262.0)",1.7,nan,1,4015.308,2,0.04,same
0,687,catch,"[(1174, 772)]",[],[1],[],vertical,"(890.0, 762.0)",1.7,nan,1,4020.936,3,0.04,same
0,688,valid,"[(1153, 796)]",[],[1],[0.6],vertical,"(390.0, 762.0)",1.35,0.558,1,4027.3,3,0.04,same
0,689,valid,"[(1151, 789)]",[],[1],[0.5833333333333334],horizontal,"(890.0, 762.0)",1.2166666666666666,0.542,1,4034.004,3,0.04,same
0,690,valid,"[(1147, 786)]",[],[1],[0.5666666666666667],vertical,"(890.0, 762.0)",0.9666666666666667,0.528,1,4040.322,3,0.04,same
0,691,valid,"[(1162, 809)]",[],[1],[0.8],vertical,"(390.0, 262.0)",1.3833333333333333,0.75,1,4046.26,3,0.04,same
0,692,catch,"[(1170, 790)]",[],[1],[],horizontal,"(390.0, 762.0)",1.7,nan,1,4052.576,3,0.04,same
0,693,valid,"[(1156, 801)]",[],[1],[0.6666666666666666],horizontal,"(390.0, 262.0)",1.4333333333333333,0.627,1,4059.098,3,0.04,same
0,694,invalid_same_bar,"[(1165, 786)]",[],[1],[0.55],vertical,"(890.0, 262.0)",1.1,0.508,1,4065.456,3,0.02,same
0,695,valid,"[(1146, 766)]",[],[1],[0.6166666666666667],vertical,"(890.0, 262.0)",1.4666666666666666,0.57,1,4071.687,3,0.02,same
0,696,valid,"[(1148, 776)]",[],[1],[0.5833333333333334],vertical,"(890.0, 762.0)",0.85,0.544,1,4077.971,3,0.02,same
0,697,valid,"[(1131, 781)]",[],[1],[0.6333333333333333],horizontal,"(390.0, 762.0)",0.5666666666666667,0.594,1,4083.355,3,0.02,same
0,698,valid,"[(1151, 792)]",[],[1],[0.5666666666666667],vertical,"(890.0, 762.0)",0.48333333333333334,0.531,1,4088.866,3,0.02,same
0,699,valid,"[(1152, 776)]",[],[1],[0.55],horizontal,"(890.0, 762.0)",0.45,0.513,1,4094.211,3,0.02,same
0,700,valid,"[(1168, 775)]",[],[1],[0.85],horizontal,"(890.0, 262.0)",0.6166666666666667,nan,0,4099.222,0,0.02,same
0,701,valid,"[(1122, 800)]",[],[1],[0.5666666666666667],vertical,"(890.0, 762.0)",0.4,0.526,1,4103.821,1,0.02,same
0,702,valid,"[(1150, 776)]",[],[1],[0.5333333333333333],horizontal,"(890.0, 262.0)",0.6,0.494,1,4109.036,1,0.02,same
0,703,catch,"[(1161, 796)]",[],[1],[],horizontal,"(390.0, 762.0)",1.7,nan,1,4113.555,1,0.02,same
0,704,catch,"[(1142, 792)]",[],[1],[],horizontal,"(890.0, 262.0)",1.7,nan,1,4118.802,2,0.02,same
0,705,valid,"[(1165, 795)]",[],[1],[0.5833333333333334],horizontal,"(390.0, 762.0)",1.0833333333333333,0.549,1,4124.403,2,0.02,same
0,706,invalid_same_bar,"[(1166, 784)]",[],[1],[0.6],vertical,"(890.0, 262.0)",1.4833333333333334,0.559,1,4130.38,2,0.02,same
0,707,valid,"[(1169, 787)]",[],[1],[0.5666666666666667],horizontal,"(890.0, 762.0)",0.4,0.525,1,4136.162,2,0.02,same
0,708,invalid_adjacent_other_bar,"[(1143, 804)]",[],[1],[0.5333333333333333],horizontal,"(890.0, 762.0)",1.0833333333333333,0.49,1,4141.188,3,0.02,other
0,709,catch,"[(1138, 784)]",[],[1],[],horizontal,"(390.0, 762.0)",1.7,nan,1,4147.071,3,0.02,same
0,710,valid,"[(1145, 793)]",[],[1],[0.6166666666666667],vertical,"(390.0, 762.0)",1.3666666666666667,0.574,1,4153.156,3,0.02,same
0,711,valid,"[(1168, 768)]",[],[1],[0.6333333333333333],vertical,"(390.0, 262.0)",1.45,0.591,1,4159.271,3,0.02,same
0,712,valid,"[(1086, 862)]",[],[1],[0.85],vertical,"(390.0, 262.0)",1.0333333333333332,nan,0,4165.838,0,0.02,same
0,713,valid,"[(1128, 826)]",[],[1],[0.85],vertical,"(390.0, 762.0)",0.7666666666666666,nan,0,4344.762,0,0.02,same
0,714,valid,"[(1161, 832)]",[],[1],[0.85],vertical,"(390.0, 262.0)",1.4166666666666667,nan,0,4349.972,0,0.02,same
0,715,valid,"[(1162, 828)]",[],[1],[],horizontal,"(390.0, 262.0)",,"('cti', 0.294)",0,4357.298,0,0.02,same
0,716,valid,"[(1125, 802)]","[(1130, 809)]",[1],[0.7],horizontal,"(890.0, 762.0)",,"('bar', 0.705)",0,4361.04,0,0.02,same
0,717,valid,"[(1137, 829)]",[],[1],[],horizontal,"(390.0, 762.0)",,"('fix', 0.643)",0,4364.855,0,0.02,same
0,718,valid,"[(1141, 835)]",[],[1],[0.85],vertical,"(390.0, 262.0)",1.45,nan,0,4367.131,0,0.02,same
0,719,catch,"[(1115, 796)]",[],[1],[],vertical,"(390.0, 762.0)",1.7,nan,1,4372.357,1,0.02,same
0,720,valid,"[(1183, 784)]",[],[1],[0.55],vertical,"(890.0, 262.0)",0.6,0.519,1,4377.995,1,0.02,same
0,721,valid,"[(1152, 777)]",[],[1],[0.5666666666666667],horizontal,"(890.0, 762.0)",1.4333333333333333,0.523,1,4382.943,1,0.02,same
0,722,invalid_adjacent_other_bar,"[(1179, 768)]",[],[1],[0.85],horizontal,"(390.0, 762.0)",0.36666666666666664,nan,0,4388.551,0,0.02,other
0,723,valid,"[(1090, 786)]",[],[1],[0.5166666666666666],vertical,"(890.0, 262.0)",1.3833333333333333,0.482,1,4393.042,1,0.02,same
0,724,valid,"[(1184, 764)]",[],[1],[0.6333333333333333],horizontal,"(890.0, 262.0)",1.1333333333333333,0.594,1,4398.73,1,0.0,same
0,725,catch,"[(1168, 791)]",[],[1],[],vertical,"(390.0, 262.0)",1.7,nan,1,4403.919,1,0.0,same
0,726,valid,"[(1135, 786)]",[],[1],[0.5833333333333334],horizontal,"(890.0, 262.0)",0.8,0.55,1,4409.461,2,0.0,same
0,727,valid,"[(1140, 773)]",[],[1],[0.5166666666666666],vertical,"(390.0, 262.0)",1.0833333333333333,0.474,1,4415.104,2,0.0,same
0,728,valid,"[(1194, 820)]",[],[1],[0.6666666666666666],vertical,"(890.0, 262.0)",0.6,0.627,1,4420.654,2,0.0,same
0,729,valid,"[(1149, 795)]",[],[1],[0.55],vertical,"(890.0, 762.0)",0.43333333333333335,0.517,1,4425.646,2,0.0,same
0,730,invalid_same_bar,"[(1135, 774)]",[],[1],[0.85],horizontal,"(390.0, 262.0)",0.7833333333333333,nan,0,4431.1,0,0.0,same
0,731,catch,"[(1145, 765)]",[],[1],[],vertical,"(890.0, 762.0)",1.7,nan,1,4435.956,1,0.0,same
0,732,catch,"[(1160, 772)]",[],[1],[],vertical,"(390.0, 262.0)",1.7,nan,1,4441.308,1,0.0,same
0,733,valid,"[(1135, 769)]",[],[1],[0.6166666666666667],vertical,"(890.0, 262.0)",0.45,0.579,1,4446.589,1,0.0,same
0,734,catch,"[(1138, 786)]",[],[1],[],horizontal,"(890.0, 762.0)",,"('cti', 1.465),nan",0,4451.339,0,0.02,same
0,735,valid,"[(1126, 793)]",[],[1],[0.35],vertical,"(890.0, 762.0)",0.8,0.312,1,4456.009,1,0.02,same
0,736,catch,"[(1143, 751), (1120, 809)]",[],"[0, 1]",[],horizontal,"(890.0, 262.0)",1.7,nan,1,4460.856,1,0.02,same
0,737,valid,"[(1141, 788)]",[],[1],[0.5666666666666667],vertical,"(890.0, 762.0)",1.45,0.527,1,4466.822,1,0.02,same
0,738,invalid_adjacent_other_bar,"[(1179, 796)]",[],[1],[0.5666666666666667],horizontal,"(890.0, 762.0)",1.4666666666666666,0.532,1,4471.874,2,0.02,other
0,739,valid,"[(1164, 794)]",[],[1],[0.6],horizontal,"(390.0, 262.0)",0.8,0.559,1,4477.689,2,0.02,same
0,740,valid,"[(1160, 771)]",[],[1],[0.5833333333333334],vertical,"(890.0, 262.0)",1.5166666666666666,0.546,1,4482.804,2,0.02,same
0,741,valid,"[(1185, 765)]",[],[1],[0.6666666666666666],vertical,"(890.0, 262.0)",0.45,0.622,1,4489.023,2,0.02,same
0,742,valid,"[(1159, 781)]",[],[1],[0.4666666666666667],vertical,"(390.0, 762.0)",1.45,0.431,1,4494.006,3,0.02,same
0,743,catch,"[(1160, 794)]",[],[1],[],vertical,"(390.0, 762.0)",1.7,nan,1,4500.506,3,0.02,same
0,744,valid,"[(1152, 815)]",[],[1],[0.6],horizontal,"(390.0, 762.0)",1.25,0.557,1,4506.201,3,0.02,same
0,745,catch,"[(1169, 782)]",[],[1],[],vertical,"(890.0, 262.0)",1.7,nan,1,4512.121,3,0.02,same
0,746,catch,"[(1166, 787)]",[],[1],[],horizontal,"(390.0, 262.0)",1.7,nan,1,4518.173,3,0.02,same
0,747,invalid_adjacent_other_bar,"[(1160, 778)]",[],[1],[0.85],vertical,"(390.0, 262.0)",1.0833333333333333,nan,0,4524.119,0,0.02,other
0,748,valid,"[(1121, 776)]",[],[1],[0.5833333333333334],horizontal,"(890.0, 262.0)",0.6333333333333333,0.546,1,4529.132,1,0.02,same
0,749,catch,"[(1160, 784)]",[],[1],[],vertical,"(390.0, 262.0)",1.7,nan,1,4533.64,1,0.02,same
0,750,valid,"[(1152, 781)]",[],[1],[0.85],vertical,"(890.0, 762.0)",0.5833333333333334,nan,0,4538.84,0,0.02,same
0,751,valid,"[(1115, 784)]",[],[1],[0.5],vertical,"(890.0, 262.0)",0.55,0.46,1,4543.233,1,0.02,same
0,752,valid,"[(1140, 780)]",[],[1],[0.5],vertical,"(890.0, 762.0)",0.9166666666666666,0.462,1,4547.353,1,0.02,same
0,753,invalid_adjacent_other_bar,"[(1155, 792)]",[],[1],[0.6166666666666667],horizontal,"(390.0, 762.0)",0.6,0.575,1,4551.897,1,0.02,other
0,754,catch,"[(1121, 795)]",[],[1],[],horizontal,"(890.0, 762.0)",1.7,nan,1,4556.841,2,0.02,same
0,755,valid,"[(1167, 789)]",[],[1],[0.6166666666666667],horizontal,"(890.0, 762.0)",0.8833333333333333,0.578,1,4562.252,2,0.02,same
0,756,valid,"[(1143, 795)]",[],[1],[0.5],vertical,"(390.0, 262.0)",0.6166666666666667,0.462,1,4567.438,2,0.02,same
0,757,valid,"[(1140, 781)]",[],[1],[0.55],vertical,"(890.0, 762.0)",1.1666666666666667,0.507,1,4572.874,2,0.02,same
0,758,valid,"[(1150, 786)]",[],[1],[0.5166666666666666],vertical,"(890.0, 262.0)",1.2666666666666666,0.475,1,4578.967,3,0.02,same
0,759,catch,"[(1135, 773)]",[],[1],[],vertical,"(890.0, 762.0)",1.7,nan,1,4585.239,3,0.02,same
0,760,catch,"[(1158, 790)]",[],[1],[],horizontal,"(390.0, 762.0)",1.7,nan,1,4591.119,3,0.02,same
0,761,invalid_adjacent_other_bar,"[(1154, 801)]",[],[1],[0.6833333333333333],vertical,"(890.0, 762.0)",0.75,0.639,1,4597.423,3,0.02,other
0,762,invalid_adjacent_other_bar,"[(1165, 784)]",[],[1],[0.8],horizontal,"(390.0, 762.0)",1.3,0.756,1,4602.924,3,0.02,other
0,763,catch,"[(1157, 782)]",[],[1],[],vertical,"(390.0, 262.0)",1.7,nan,1,4609.158,3,0.02,same
0,764,catch,"[(1160, 782)]",[],[1],[],vertical,"(390.0, 262.0)",1.7,nan,1,4615.025,3,0.02,same
0,765,valid,"[(1140, 806)]",[],[1],[0.5333333333333333],horizontal,"(390.0, 762.0)",0.4166666666666667,0.495,1,4620.907,3,0.02,same
0,766,valid,"[(1156, 766)]",[],[1],[0.85],vertical,"(390.0, 762.0)",0.55,nan,0,4626.003,0,0.02,same
0,767,catch,"[(1126, 778)]",[],[1],[],vertical,"(390.0, 762.0)",1.7,nan,1,4630.607,1,0.02,same
0,768,invalid_same_bar,"[(1150, 778)]",[],[1],[0.5333333333333333],vertical,"(890.0, 762.0)",1.25,0.495,1,4635.807,1,0.02,same
0,769,valid,"[(1145, 773)]",[],[1],[0.6],horizontal,"(390.0, 762.0)",0.8166666666666667,0.556,1,4641.257,1,0.02,same
0,770,invalid_same_bar,"[(1165, 765)]",[],[1],[0.5833333333333334],horizontal,"(890.0, 262.0)",1.05,0.545,1,4645.805,2,0.02,same
0,771,valid,"[(1140, 797)]",[],[1],[0.5166666666666666],horizontal,"(890.0, 262.0)",0.5,0.483,1,4651.106,2,0.02,same
0,772,catch,"[(1163, 792)]",[],[1],[],horizontal,"(390.0, 262.0)",1.7,nan,1,4656.323,2,0.02,same
0,773,invalid_adjacent_other_bar,"[(1162, 784)]",[],[1],[0.5166666666666666],horizontal,"(890.0, 262.0)",0.8,0.476,1,4661.54,2,0.02,other
0,774,valid,"[(1158, 811)]",[],[1],[0.6],vertical,"(390.0, 762.0)",0.65,0.555,1,4667.083,3,0.02,same
0,775,valid,"[(1155, 781)]",[],[1],[0.6],horizontal,"(890.0, 762.0)",1.4666666666666666,0.554,1,4672.241,3,0.02,same
0,776,valid,"[(1160, 801)]",[],[1],[0.5166666666666666],vertical,"(890.0, 262.0)",1.5,0.471,1,4678.605,3,0.02,same
0,777,valid,"[(1158, 811)]",[],[1],[0.85],horizontal,"(890.0, 762.0)",0.48333333333333334,nan,0,4684.741,0,0.02,same
0,778,catch,"[(1149, 786)]",[],[1],[],horizontal,"(390.0, 762.0)",1.7,nan,1,4689.473,1,0.02,same
0,779,valid,"[(1140, 788)]",[],[1],[0.85],vertical,"(390.0, 762.0)",0.4166666666666667,nan,0,4694.84,0,0.02,same
0,780,valid,"[(1086, 804)]",[],[1],[0.55],horizontal,"(390.0, 762.0)",1.0666666666666667,0.516,1,4699.473,1,0.02,same
0,781,catch,"[(1086, 829)]",[],[1],[],vertical,"(390.0, 262.0)",1.7,nan,1,4704.818,1,0.02,same
0,782,valid,"[(1115, 806)]",[],[1],[0.6],horizontal,"(890.0, 762.0)",1.1833333333333333,0.553,1,5005.142,1,0.02,same
0,783,catch,"[(1115, 804)]",[],[1],[],horizontal,"(390.0, 262.0)",1.7,nan,1,5010.062,2,0.02,same
0,784,catch,"[(1137, 776)]",[],[1],[],vertical,"(890.0, 262.0)",1.7,nan,1,5015.928,2,0.0,same
0,785,invalid_same_bar,"[(1124, 805)]",[],[1],[0.7166666666666667],horizontal,"(390.0, 762.0)",1.2166666666666666,0.671,1,5021.191,2,0.0,same
0,786,valid,"[(1131, 804)]",[],[1],[0.85],vertical,"(390.0, 262.0)",1.1,nan,0,5027.391,0,0.0,same
0,787,valid,"[(1118, 844)]",[],[1],[0.7],vertical,"(390.0, 762.0)",0.5333333333333333,0.654,1,5032.148,1,0.0,same
0,788,valid,"[(1144, 782)]",[],[1],[0.5833333333333334],horizontal,"(890.0, 262.0)",0.5666666666666667,0.543,1,5037.031,1,0.0,same
0,789,invalid_adjacent_other_bar,"[(1163, 770)]",[],[1],[0.85],vertical,"(390.0, 762.0)",1.1333333333333333,nan,0,5041.457,0,0.0,other
0,790,catch,"[(1125, 793)]",[],[1],[],horizontal,"(890.0, 262.0)",,"('cti', 1.045),nan",0,5046.483,0,0.02,same
0,791,valid,"[(1149, 808)]",[],[1],[0.6833333333333333],horizontal,"(390.0, 262.0)",0.35,0.639,1,5050.781,1,0.02,same
0,792,valid,"[(1149, 790)]",[],[1],[0.5166666666666666],horizontal,"(390.0, 262.0)",1.25,0.476,1,5055.363,1,0.02,same
0,793,invalid_adjacent_other_bar,"[(1153, 785)]",[],[1],[0.5666666666666667],horizontal,"(890.0, 262.0)",0.9333333333333333,0.523,1,5060.726,1,0.02,other
0,794,valid,"[(1149, 812)]",[],[1],[0.5666666666666667],vertical,"(390.0, 262.0)",1.3666666666666667,0.523,1,5065.324,2,0.02,same
0,795,invalid_same_bar,"[(1146, 773)]",[],[1],[0.6333333333333333],vertical,"(390.0, 762.0)",1.1,0.588,1,5071.042,2,0.02,same
0,796,valid,"[(1151, 786)]",[],[1],[0.5166666666666666],horizontal,"(890.0, 262.0)",1.1333333333333333,0.474,1,5076.842,2,0.02,same
0,797,valid,"[(1156, 776)]",[],[1],[0.5333333333333333],vertical,"(890.0, 762.0)",1.4833333333333334,0.493,1,5082.226,2,0.02,same
0,798,valid,"[(1143, 798)]",[],[1],[0.5333333333333333],horizontal,"(390.0, 262.0)",0.5666666666666667,0.493,1,5088.346,3,0.02,same
0,799,valid,"[(1149, 776)]",[],[1],[0.5833333333333334],vertical,"(890.0, 762.0)",1.3,0.538,1,5093.758,3,0.02,same
0,800,valid,"[(1131, 786)]",[],[1],[0.5833333333333334],vertical,"(390.0, 762.0)",1.1666666666666667,0.536,1,5099.605,3,0.02,same
0,801,catch,"[(1170, 762)]",[],[1],[],horizontal,"(890.0, 262.0)",1.7,nan,1,5105.691,3,0.02,same
0,802,valid,"[(1146, 775)]",[],[1],[0.5166666666666666],vertical,"(890.0, 762.0)",1.2666666666666666,0.472,1,5111.806,3,0.02,same
0,803,invalid_adjacent_other_bar,"[(1147, 777)]",[],[1],[0.48333333333333334],horizontal,"(890.0, 262.0)",0.45,0.442,1,5117.925,3,0.02,other
0,804,catch,"[(1140, 774)]",[],[1],[],vertical,"(890.0, 762.0)",1.7,nan,1,5122.959,3,0.02,same
0,805,valid,"[(1148, 768)]",[],[1],[0.6166666666666667],horizontal,"(890.0, 762.0)",0.7666666666666666,0.573,1,5128.866,3,0.02,same
0,806,valid,"[(1144, 781)]",[],[1],[0.5833333333333334],vertical,"(390.0, 762.0)",1.1166666666666667,0.54,1,5134.626,3,0.02,same
0,807,valid,"[(1140, 777)]",[],[1],[0.5],horizontal,"(390.0, 262.0)",1.2166666666666666,0.46,1,5140.637,3,0.02,same
0,808,valid,"[(1155, 775)]",[],[1],[0.55],vertical,"(890.0, 262.0)",0.55,0.507,1,5146.651,3,0.02,same
0,809,catch,"[(1149, 766)]",[],[1],[],horizontal,"(890.0, 262.0)",1.7,nan,1,5152.19,3,0.02,same
0,810,catch,"[(1149, 787)]",[],[1],[],vertical,"(390.0, 262.0)",1.7,nan,1,5158.408,3,0.02,same
0,811,invalid_same_bar,"[(1149, 777)]",[],[1],[0.85],vertical,"(390.0, 762.0)",0.55,nan,0,5164.473,0,0.02,same
0,812,catch,"[(1126, 781)]",[],[1],[],horizontal,"(390.0, 262.0)",1.7,nan,1,5168.853,1,0.02,same
0,813,catch,"[(1146, 781)]",[],[1],[],horizontal,"(390.0, 762.0)",,"('cti', 1.184),nan",0,5174.34,0,0.04,same
0,814,valid,"[(1150, 817)]",[],[1],[0.5666666666666667],vertical,"(890.0, 762.0)",0.8833333333333333,0.519,1,5178.509,1,0.04,same
0,815,valid,"[(1145, 773)]",[],[1],[0.85],horizontal,"(390.0, 262.0)",1.3333333333333333,nan,0,5183.361,0,0.04,same
0,816,valid,"[(1145, 779)]",[],[1],[0.6666666666666666],horizontal,"(890.0, 262.0)",1.1166666666666667,0.621,1,5188.612,1,0.04,same
0,817,valid,"[(1137, 793)]",[],[1],[0.5],vertical,"(390.0, 762.0)",0.36666666666666664,0.462,1,5194.028,1,0.04,same
0,818,valid,"[(1140, 784)]",[],[1],[0.5333333333333333],vertical,"(390.0, 762.0)",1.0166666666666666,0.491,1,5198.261,1,0.04,same
0,819,catch,"[(1163, 773)]",[],[1],[],vertical,"(390.0, 762.0)",1.7,nan,1,5203.44,2,0.04,same
0,820,valid,"[(1143, 796)]",[],[1],[0.65],horizontal,"(390.0, 262.0)",1.2166666666666666,0.609,1,5209.367,2,0.04,same
0,821,valid,"[(1141, 782)]",[],[1],[0.5666666666666667],vertical,"(890.0, 262.0)",1.2333333333333334,0.525,1,5215.017,2,0.04,same
0,822,valid,"[(1141, 777)]",[],[1],[0.5333333333333333],vertical,"(390.0, 262.0)",0.8166666666666667,0.486,1,5220.455,2,0.04,same
0,823,valid,"[(1126, 772)]",[],[1],[0.5833333333333334],vertical,"(390.0, 262.0)",1.15,0.54,1,5225.54,3,0.04,same
0,824,valid,"[(1150, 774)]",[],[1],[0.5333333333333333],horizontal,"(890.0, 762.0)",0.3833333333333333,0.497,1,5231.837,3,0.04,same
0,825,valid,"[(1145, 752), (1119, 820)]",[],"[0, 1]",[],vertical,"(890.0, 762.0)",,"('cti', 1.253)",0,5236.775,0,0.04,same
0,826,catch,"[(1132, 792)]",[],[1],[],horizontal,"(890.0, 262.0)",1.7,nan,1,5242.626,1,0.04,same
0,827,catch,"[(1135, 767)]",[],[1],[],horizontal,"(890.0, 262.0)",1.7,nan,1,5247.801,1,0.04,same
0,828,catch,"[(1163, 778)]",[],[1],[],horizontal,"(890.0, 262.0)",1.7,nan,1,5252.708,1,0.04,same
0,829,valid,"[(1115, 769)]",[],[1],[0.6833333333333333],vertical,"(890.0, 262.0)",0.8166666666666667,0.641,1,5257.809,2,0.04,same
0,830,valid,"[(1136, 783)]",[],[1],[0.55],vertical,"(890.0, 762.0)",0.7333333333333333,0.507,1,5262.892,2,0.04,same
0,831,catch,"[(1116, 770)]",[],[1],[],horizontal,"(890.0, 262.0)",1.7,nan,1,5268.248,2,0.04,same
0,832,valid,"[(1135, 787)]",[],[1],[0.5833333333333334],vertical,"(890.0, 262.0)",0.6833333333333333,0.543,1,5274.325,2,0.04,same
0,833,valid,"[(1141, 784)]",[],[1],[0.55],vertical,"(390.0, 262.0)",1.3,0.51,1,5279.408,3,0.04,same
0,834,valid,"[(1156, 791)]",[],[1],[0.5166666666666666],vertical,"(890.0, 262.0)",1.1666666666666667,0.478,1,5285.542,3,0.04,same
0,835,invalid_adjacent_other_bar,"[(1149, 785)]",[],[1],[0.5833333333333334],vertical,"(890.0, 762.0)",1.25,0.537,1,5291.513,3,0.04,other
0,836,valid,"[(1159, 788)]",[],[1],[0.5333333333333333],vertical,"(390.0, 762.0)",0.85,0.492,1,5297.592,3,0.04,same
0,837,valid,"[(1140, 765)]",[],[1],[0.55],horizontal,"(390.0, 762.0)",0.7666666666666666,0.511,1,5303.175,3,0.04,same
0,838,valid,"[(1169, 760)]",[],[1],[0.7166666666666667],horizontal,"(890.0, 762.0)",0.5666666666666667,0.679,1,5308.908,3,0.04,same
0,839,catch,"[(1153, 782)]",[],[1],[],horizontal,"(390.0, 262.0)",1.7,nan,1,5314.437,3,0.04,same
0,840,valid,"[(1135, 773)]",[],[1],[0.55],vertical,"(890.0, 262.0)",1.5333333333333332,0.508,1,5320.468,3,0.02,same
0,841,valid,"[(1153, 799)]",[],[1],[0.85],horizontal,"(890.0, 762.0)",1.2,nan,0,5327.183,0,0.02,same
0,842,catch,"[(1125, 785)]",[],[1],[],vertical,"(390.0, 762.0)",1.7,nan,1,5332.216,1,0.02,same
0,843,catch,"[(1127, 791)]",[],[1],[],horizontal,"(390.0, 262.0)",1.7,nan,1,5337.701,1,0.02,same
0,844,valid,"[(1131, 759)]",[],[1],[0.5333333333333333],horizontal,"(890.0, 262.0)",1.0666666666666667,0.492,1,5342.821,1,0.02,same
0,845,valid,"[(1167, 757)]",[],[1],[0.55],horizontal,"(390.0, 762.0)",1.3833333333333333,0.509,1,5347.642,2,0.02,same
0,846,catch,"[(1190, 779)]",[],[1],[],horizontal,"(890.0, 262.0)",1.7,nan,1,5353.297,2,0.02,same
0,847,valid,"[(1166, 787)]",[],[1],[0.6333333333333333],vertical,"(890.0, 262.0)",1.5333333333333332,0.594,1,5358.604,2,0.02,same
0,848,valid,"[(1164, 803)]",[],[1],[0.55],vertical,"(890.0, 762.0)",0.35,0.502,1,5364.42,2,0.02,same
0,849,valid,"[(1140, 782)]",[],[1],[0.6333333333333333],vertical,"(890.0, 262.0)",0.75,0.592,1,5369.119,3,0.02,same
0,850,invalid_same_bar,"[(1137, 777)]",[],[1],[0.6333333333333333],vertical,"(390.0, 762.0)",1.1833333333333333,0.594,1,5374.807,3,0.02,same
0,851,invalid_same_bar,"[(1164, 775)]",[],[1],[0.85],horizontal,"(390.0, 762.0)",0.8,nan,0,5380.669,0,0.02,same
0,852,catch,"[(1115, 777)]",[],[1],[],vertical,"(390.0, 262.0)",1.7,nan,1,5385.227,1,0.02,same
0,853,valid,"[(1140, 773)]",[],[1],[0.6666666666666666],vertical,"(890.0, 262.0)",0.8,0.623,1,5390.749,1,0.02,same
0,854,valid,"[(1161, 779)]",[],[1],[0.5333333333333333],vertical,"(390.0, 262.0)",0.4666666666666667,0.496,1,5395.344,1,0.02,same
0,855,valid,"[(1163, 772)]",[],[1],[0.6666666666666666],horizontal,"(390.0, 262.0)",0.9,0.633,1,5400.042,2,0.02,same
0,856,valid,"[(1142, 785)]",[],[1],[0.55],horizontal,"(390.0, 762.0)",1.0,0.511,1,5405.691,2,0.02,same
0,857,valid,"[(1161, 796)]",[],[1],[0.55],horizontal,"(390.0, 762.0)",1.0,0.506,1,5411.174,2,0.02,same
0,858,valid,"[(1138, 785)]",[],[1],[0.43333333333333335],horizontal,"(390.0, 762.0)",0.6,0.397,1,5416.743,2,0.02,same
0,859,valid,"[(1140, 777)]",[],[1],[0.5666666666666667],horizontal,"(890.0, 262.0)",0.5,0.527,1,5422.157,3,0.02,same
0,860,valid,"[(1135, 786)]",[],[1],[0.5166666666666666],vertical,"(890.0, 262.0)",1.4,0.472,1,5427.567,3,0.02,same
