block,practice,trial,change_interval_s,change_interval_frames,taps_start_time_during_fix,taps_end_time_during_fix,taps_start_loc_during_fix,taps_end_loc_during_fix,taps_on_lever_during_fix,taps_on_lever_frame_during_fix,taps_on_lever_s_during_fix,fix_xy,bar_orientation,target_xy,cti,rt,acc,time
1,True,1,0.632,37,[],[],"[(1137, 896)]",[],[1],[],[],"[640.0, 512.0]",vertical,"(890.0, 762.0)",[],[0],0,0.1
1,True,2,0.714,42,[],[],"[(1120, 904)]",[],[1],[72],[1.2],"[640.0, 512.0]",horizontal,"(390.0, 762.0)",[1.5],[0.476],1,543.085
1,True,3,0.449,26,[],[],"[(1106, 902)]",[],[1],[66],[1.1],"[640.0, 512.0]",vertical,"(390.0, 762.0)",[0.95],[0.642],1,547.982
1,True,4,0.732,43,[],[],"[(1119, 898)]",[],[1],[73],[1.2166666666666666],"[640.0, 512.0]",vertical,"(890.0, 262.0)",[1.3],[0.474],1,551.949
1,False,1,0.349,20,[],[],"[(1138, 869)]",[],[1],[52],[0.8666666666666667],"[640.0, 512.0]",horizontal,"(890.0, 762.0)",[1.3166666666666667],[0.508],1,556.006
1,False,2,1.089,65,[],[],"[(1132, 905)]",[],[1],[115],[1.9166666666666667],"[640.0, 512.0]",horizontal,"(890.0, 262.0)",[1.2666666666666666],[0.803],0,559.646
1,False,3,0.382,22,[],[],"[(1132, 868)]",[],[1],[54],[0.9],"[640.0, 512.0]",vertical,"(890.0, 262.0)",[0.8333333333333334],[0.506],1,564.319
1,False,4,0.566,33,[],[],"[(1102, 893)]",[],[1],[68],[1.1333333333333333],"[640.0, 512.0]",vertical,"(890.0, 262.0)",[0.6833333333333333],[0.557],1,567.888
1,False,5,0.567,34,[],[],"[(1109, 890)]",[],[1],[64],[1.0666666666666667],"[640.0, 512.0]",horizontal,"(390.0, 262.0)",[1.0333333333333332],[0.474],1,571.284
1,False,6,0.788,47,[],[],"[(1140, 886)]",[],[1],[80],[1.3333333333333333],"[640.0, 512.0]",vertical,"(890.0, 762.0)",[1.5666666666666667],[0.523],1,574.874
1,False,7,1.298,77,[],[],"[(1133, 882)]",[],[1],[119],[1.9833333333333334],"[640.0, 512.0]",horizontal,"(890.0, 762.0)",[0.5666666666666667],[0.673],1,579.217
1,False,8,0.912,54,[],[],"[(1112, 910)]",[],[1],[80],[1.3333333333333333],"[640.0, 512.0]",horizontal,"(890.0, 262.0)",[1.4],[0.406],1,583.223
1,False,9,0.484,29,[],[],"[(1136, 888)]",[],[1],[49],[0.8166666666666667],"[640.0, 512.0]",vertical,"(390.0, 262.0)",[1.4833333333333334],[0.31],1,587.373
1,False,10,1.448,86,[],[],"[(1093, 868)]",[],[1],[120],[2.0],"[640.0, 512.0]",horizontal,"(390.0, 762.0)",[1.15],[0.54],1,591.12
1,False,11,1.028,61,[],[],"[(1098, 888)]",[],[1],[100],[1.6666666666666667],"[640.0, 512.0]",vertical,"(390.0, 762.0)",[1.4],[0.623],1,595.705
1,False,12,1.023,61,[],[],"[(1142, 909)]",[],[1],[],[],"[640.0, 512.0]",horizontal,"(890.0, 262.0)",[],[0],0,600.174
1,False,13,1.355,81,[],[],"[(1122, 889)]",[],[1],[116],[1.9333333333333333],"[640.0, 512.0]",vertical,"(890.0, 262.0)",[0.5333333333333333],[0.558],1,665.384
1,False,14,0.624,37,[],[],"[(1124, 893)]",[],[1],[67],[1.1166666666666667],"[640.0, 512.0]",horizontal,"(390.0, 262.0)",[1.15],[0.477],1,669.433
1,False,15,1.457,87,[],[],"[(1139, 888)]",[],[1],[137],[2.283333333333333],"[640.0, 512.0]",vertical,"(890.0, 762.0)",[1.5],"[0, 0.799]",0,673.188
1,False,16,0.647,38,[],[],"[(1123, 909)]",[],[1],[76],[1.2666666666666666],"[640.0, 512.0]",horizontal,"(390.0, 262.0)",[1.4166666666666667],[0.61],1,678.396
1,False,17,0.372,22,[],[],"[(1122, 909)]",[],[1],[60],[1.0],"[640.0, 512.0]",vertical,"(390.0, 262.0)",[0.8],[0.609],1,728.307
1,False,18,1.491,89,[],[],"[(1096, 890)]",[],[1],[126],[2.1],"[640.0, 512.0]",vertical,"(390.0, 762.0)",[0.9],[0.588],1,731.591
1,False,19,1.042,62,[],[],"[(1077, 883)]",[],[1],[94],[1.5666666666666667],"[640.0, 512.0]",vertical,"(890.0, 762.0)",[0.7],[0.51],1,736.063
1,False,20,0.756,45,[],[],"[(1110, 899)]",[],[1],[77],[1.2833333333333332],"[640.0, 512.0]",vertical,"(890.0, 762.0)",[0.6666666666666666],[0.508],1,739.774
1,False,21,1.039,62,[],[],"[(1082, 875)]",[],[1],[95],[1.5833333333333333],"[640.0, 512.0]",horizontal,"(390.0, 262.0)",[0.55],[0.523],1,743.221
1,False,22,0.503,30,[],[],"[(1117, 902)]",[],[1],[64],[1.0666666666666667],"[640.0, 512.0]",vertical,"(890.0, 762.0)",[1.4333333333333333],[0.544],1,746.809
1,False,23,0.736,44,[],[],"[(1160, 881)]",[],[1],[81],[1.35],"[640.0, 512.0]",horizontal,"(390.0, 762.0)",[1.65],[0.589],1,750.721
1,False,24,1.028,61,[],[],"[(1086, 894)]",[],[1],[92],[1.5333333333333332],"[640.0, 512.0]",horizontal,"(890.0, 762.0)",[1.1833333333333333],[0.496],1,755.173
1,False,25,0.763,45,[],[],"[(1118, 902)]",[],[1],[75],[1.25],"[640.0, 512.0]",vertical,"(390.0, 262.0)",[0.9166666666666666],[0.473],1,759.341
1,False,26,0.565,33,[],[],"[(1117, 894)]",[],[1],[65],[1.0833333333333333],"[640.0, 512.0]",vertical,"(390.0, 762.0)",[1.0666666666666667],[0.514],1,762.957
1,False,27,0.905,54,[],[],"[(1136, 909)]",[],[1],[85],[1.4166666666666667],"[640.0, 512.0]",vertical,"(890.0, 262.0)",[1.6],[0.489],1,766.568
1,False,28,1.384,83,[],[],"[(1087, 905)]",[],[1],[116],[1.9333333333333333],"[640.0, 512.0]",vertical,"(890.0, 762.0)",[1.2666666666666666],[0.523],1,882.809
1,False,29,1.065,63,[],[],"[(1101, 906)]",[],[1],[94],[1.5666666666666667],"[640.0, 512.0]",horizontal,"(390.0, 262.0)",[1.6166666666666667],[0.499],1,887.524
1,False,30,0.445,26,[],[],"[(1113, 864)]",[],[1],[60],[1.0],"[640.0, 512.0]",horizontal,"(890.0, 762.0)",[1.35],[0.54],1,892.172
1,False,31,0.943,56,[],[],"[(1118, 893)]",[],[1],[89],[1.4833333333333334],"[640.0, 512.0]",horizontal,"(890.0, 762.0)",[1.6833333333333333],[0.528],1,895.956
1,False,32,0.404,24,[],[],"[(1111, 903)]",[],[1],[74],[1.2333333333333334],"[640.0, 512.0]",horizontal,"(390.0, 762.0)",[0.6666666666666666],[0.809],0,900.548
1,False,33,1.142,68,[],[],"[(1080, 901)]",[],[1],[106],[1.7666666666666666],"[640.0, 512.0]",vertical,"(390.0, 762.0)",[1.2833333333333332],[0.606],1,903.858
1,False,34,0.836,50,[],[],"[(1093, 899)]",[],[1],[93],[1.55],"[640.0, 512.0]",vertical,"(390.0, 762.0)",[0.7833333333333333],[0.686],1,912.455
1,False,35,0.533,31,[],[],"[(1077, 902)]",[],[1],[61],[1.0166666666666666],"[640.0, 512.0]",vertical,"(890.0, 762.0)",[1.5],[0.473],1,916.326
1,False,36,0.457,27,[],[],"[(1093, 878)]",[],[1],[64],[1.0666666666666667],"[640.0, 512.0]",horizontal,"(890.0, 262.0)",[1.1666666666666667],[0.588],1,920.281
1,False,37,0.769,46,[],[],"[(1115, 895)]",[],[1],[77],[1.2833333333333332],"[640.0, 512.0]",horizontal,"(390.0, 262.0)",[0.7833333333333333],[0.493],1,923.942
1,False,38,1.319,79,[],[],"[(1122, 888)]",[],[1],[110],[1.8333333333333333],"[640.0, 512.0]",vertical,"(390.0, 762.0)",[1.0],[0.492],1,927.483
1,False,39,0.885,53,[],[],"[(1146, 918)]",[],[1],[103],[1.7166666666666666],"[640.0, 512.0]",horizontal,"(390.0, 762.0)",[0.65],[0.798],0,931.722
1,False,40,1.225,73,[],[],"[(1117, 911)]",[],[1],[103],[1.7166666666666666],"[640.0, 512.0]",vertical,"(390.0, 262.0)",[0.9],[0.471],1,936.659
1,False,41,0.457,27,[],[],"[(1103, 900)]",[],[1],[58],[0.9666666666666667],"[640.0, 512.0]",vertical,"(890.0, 262.0)",[1.2333333333333334],[0.486],1,940.838
1,False,42,1.166,69,[],[],"[(1093, 883)]",[],[1],[102],[1.7],"[640.0, 512.0]",horizontal,"(390.0, 262.0)",[0.7166666666666667],[0.519],1,944.59
1,False,43,1.293,77,[],[],"[(1084, 880)]",[],[1],[110],[1.8333333333333333],"[640.0, 512.0]",horizontal,"(890.0, 762.0)",[0.65],[0.519],1,948.443
1,False,44,0.711,42,[],[],"[(1086, 897)]",[],[1],[78],[1.3],"[640.0, 512.0]",horizontal,"(390.0, 762.0)",[1.6666666666666667],[0.574],1,952.392
1,False,45,1.388,83,[],[],"[(1093, 902)]",[],[1],[123],[2.05],"[640.0, 512.0]",horizontal,"(390.0, 762.0)",[0.9333333333333333],[0.637],1,956.852
1,False,46,1.256,75,[],[],"[(1081, 897)]",[],[1],[109],[1.8166666666666667],"[640.0, 512.0]",vertical,"(390.0, 762.0)",[0.5166666666666666],[0.54],1,962.191
1,False,47,0.587,35,[],[],"[(1097, 868)]",[],[1],[73],[1.2166666666666666],"[640.0, 512.0]",vertical,"(890.0, 262.0)",[0.6166666666666667],[0.604],1,966.102
1,False,48,1.145,68,[],[],"[(1087, 877)]",[],[1],[104],[1.7333333333333334],"[640.0, 512.0]",horizontal,"(890.0, 762.0)",[0.7333333333333333],[0.573],1,969.438
1,False,49,0.819,49,[],[],"[(1101, 880)]",[],[1],[81],[1.35],"[640.0, 512.0]",vertical,"(890.0, 262.0)",[1.1333333333333333],[0.509],1,973.38
1,False,50,1.003,60,[],[],"[(1105, 885)]",[],[1],[85],[1.4166666666666667],"[640.0, 512.0]",vertical,"(890.0, 262.0)",[0.9],[0.392],1,977.282
1,False,51,0.806,48,[],[],"[(1067, 892)]",[],[1],[98],[1.6333333333333333],"[640.0, 512.0]",vertical,"(390.0, 262.0)",[1.3333333333333333],[0.794],0,981.915
1,False,52,1.075,64,[],[],"[(1076, 910)]",[],[1],[114],[1.9],"[640.0, 512.0]",vertical,"(890.0, 762.0)",[1.0166666666666666],[0.795],0,996.196
1,False,53,1.171,70,[],[],"[(1069, 909)]",[],[1],[104],[1.7333333333333334],"[640.0, 512.0]",horizontal,"(890.0, 262.0)",[1.6333333333333333],[0.536],1,1002.216
1,False,54,0.858,51,[],[],"[(1089, 898)]",[],[1],[85],[1.4166666666666667],"[640.0, 512.0]",horizontal,"(890.0, 762.0)",[1.1],[0.535],1,1008.162
1,False,55,0.963,57,[],[],"[(1107, 893)]",[],[1],[107],[1.7833333333333332],"[640.0, 512.0]",vertical,"(390.0, 262.0)",[0.6166666666666667],[0.795],0,1012.141
1,False,56,0.869,52,[],[],"[(1074, 875)]",[],[1],[87],[1.45],"[640.0, 512.0]",vertical,"(390.0, 262.0)",[1.5166666666666666],[0.562],1,1020.401
1,False,57,0.624,37,[],[],"[(1130, 879)]",[],[1],[68],[1.1333333333333333],"[640.0, 512.0]",vertical,"(390.0, 262.0)",[1.0833333333333333],[0.492],1,1028.161
1,False,58,0.791,47,[],[],"[(1093, 879)]",[],[1],[81],[1.35],"[640.0, 512.0]",vertical,"(890.0, 762.0)",[1.1],[0.543],1,1031.824
1,False,59,1.485,89,[],[],"[(1093, 899)]",[],[1],[129],[2.15],"[640.0, 512.0]",horizontal,"(890.0, 762.0)",[0.85],[0.635],1,1035.75
1,False,60,0.549,32,[],[],"[(1074, 890)]",[],[1],[63],[1.05],"[640.0, 512.0]",horizontal,"(890.0, 262.0)",[1.55],[0.49],1,1040.243
2,False,61,0.399,23,[],[],"[(1097, 887)]",[],[1],[61],[1.0166666666666666],"[640.0, 512.0]",horizontal,"(390.0, 262.0)",[1.05],[0.608],1,1044.275
2,False,62,0.644,38,[],[],"[(1095, 886)]",[],[1],[73],[1.2166666666666666],"[640.0, 512.0]",vertical,"(390.0, 762.0)",[1.3833333333333333],[0.553],1,1047.801
2,False,63,0.334,20,[],[],"[(1099, 893)]",[],[1],[60],[1.0],"[640.0, 512.0]",vertical,"(390.0, 762.0)",[0.8333333333333334],[0.634],1,1051.975
2,False,64,1.183,70,[],[],"[(1087, 892)]",[],[1],[106],[1.7666666666666666],"[640.0, 512.0]",vertical,"(890.0, 762.0)",[0.6666666666666666],[0.572],1,1055.291
2,False,65,1.173,70,[],[],"[(1095, 878)]",[],[1],[103],[1.7166666666666666],"[640.0, 512.0]",horizontal,"(890.0, 762.0)",[0.9833333333333333],[0.529],1,1059.218
2,False,66,0.404,24,[],[],"[(1093, 881)]",[],[1],[58],[0.9666666666666667],"[640.0, 512.0]",horizontal,"(390.0, 262.0)",[1.5833333333333333],[0.547],1,1063.342
2,False,67,1.176,70,[],[],"[(1099, 886)]",[],[1],[108],[1.8],"[640.0, 512.0]",horizontal,"(390.0, 262.0)",[0.7833333333333333],[0.602],1,1067.368
2,False,68,1.168,70,[],[],"[(1126, 882)]",[],[1],[105],[1.75],"[640.0, 512.0]",vertical,"(390.0, 262.0)",[0.8833333333333333],[0.555],1,1072.874
2,False,69,0.392,23,[],[],"[(1097, 897)]",[],[1],[73],[1.2166666666666666],"[640.0, 512.0]",horizontal,"(390.0, 762.0)",[0.6166666666666667],[0.798],0,1076.936
2,False,70,0.977,58,[],[],"[(1079, 884)]",[],[1],[90],[1.5],"[640.0, 512.0]",vertical,"(890.0, 762.0)",[1.3333333333333333],[0.51],1,1080.275
2,False,71,1.084,65,[],[],"[(1093, 901)]",[],[1],[103],[1.7166666666666666],"[640.0, 512.0]",horizontal,"(890.0, 762.0)",[1.3833333333333333],[0.605],1,1084.943
2,False,72,0.477,28,[],[],"[(1093, 880)]",[],[1],[61],[1.0166666666666666],"[640.0, 512.0]",horizontal,"(390.0, 762.0)",[0.5],[0.524],1,1089.479
2,False,73,0.532,31,[],[],"[(1099, 894)]",[],[1],[71],[1.1833333333333333],"[640.0, 512.0]",vertical,"(390.0, 762.0)",[0.7],[0.643],1,1093.476
2,False,74,1.428,85,[],[],"[(1101, 895)]",[],[1],[135],[2.25],"[640.0, 512.0]",horizontal,"(390.0, 762.0)",[1.2833333333333332],[0.805],0,1096.787
2,False,75,0.41,24,[],[],"[(1109, 899)]",[],[1],[],[],"[640.0, 512.0]",horizontal,"(390.0, 262.0)",[],[0],0,1101.725
2,False,76,0.441,26,[],[],"[(1071, 906)]",[],[1],[63],[1.05],"[640.0, 512.0]",horizontal,"(890.0, 762.0)",[0.7666666666666666],[0.594],1,1103.838
2,False,77,0.555,33,[],[],"[(1083, 898)]",[],[1],[64],[1.0666666666666667],"[640.0, 512.0]",vertical,"(390.0, 762.0)",[1.3666666666666667],[0.495],1,1174.227
2,False,78,0.303,18,[],[],"[(1080, 890)]",[],[1],[50],[0.8333333333333334],"[640.0, 512.0]",vertical,"(890.0, 762.0)",[0.8166666666666667],[0.512],1,1178.125
2,False,79,0.591,35,[],[],"[(1113, 897)]",[],[1],[71],[1.1833333333333333],"[640.0, 512.0]",vertical,"(390.0, 262.0)",[0.9666666666666667],[0.576],1,1181.225
2,False,80,0.469,28,[],[],"[(1107, 898)]",[],[1],[57],[0.95],"[640.0, 512.0]",vertical,"(890.0, 262.0)",[1.3333333333333333],[0.452],1,1184.86
2,False,81,1.046,62,[],[],"[(1101, 899)]",[],[1],[95],[1.5833333333333333],"[640.0, 512.0]",vertical,"(390.0, 262.0)",[1.0666666666666667],[0.526],1,1188.834
2,False,82,0.604,36,[],[],"[(1113, 874)]",[],[1],[74],[1.2333333333333334],"[640.0, 512.0]",vertical,"(890.0, 262.0)",[1.1166666666666667],[0.614],1,1192.89
2,False,83,1.042,62,[],[],"[(1089, 886)]",[],[1],[103],[1.7166666666666666],"[640.0, 512.0]",horizontal,"(390.0, 762.0)",[0.9166666666666666],[0.659],1,1196.686
2,False,84,1.48,88,[],[],"[(1116, 882)]",[],[1],[122],[2.033333333333333],"[640.0, 512.0]",horizontal,"(390.0, 762.0)",[0.9666666666666667],[0.544],1,1200.769
2,False,85,0.526,31,[],[],"[(1082, 896)]",[],[1],[66],[1.1],"[640.0, 512.0]",vertical,"(890.0, 762.0)",[1.5666666666666667],[0.56],1,1205.226
2,False,86,0.671,40,[],[],"[(1112, 873)]",[],[1],[69],[1.15],"[640.0, 512.0]",horizontal,"(890.0, 262.0)",[1.4833333333333334],[0.461],1,1209.553
2,False,87,0.82,49,[],[],"[(1134, 899)]",[],[1],[83],[1.3833333333333333],"[640.0, 512.0]",vertical,"(390.0, 762.0)",[1.0],[0.54],1,1213.657
2,False,88,0.864,51,[],[],"[(1116, 888)]",[],[1],[89],[1.4833333333333334],"[640.0, 512.0]",horizontal,"(890.0, 262.0)",[1.2],[0.606],1,1217.505
2,False,89,0.381,22,[],[],"[(1102, 886)]",[],[1],[53],[0.8833333333333333],"[640.0, 512.0]",horizontal,"(390.0, 262.0)",[1.2],[0.493],1,1221.639
2,False,90,0.624,37,[],[],"[(1088, 899)]",[],[1],[66],[1.1],"[640.0, 512.0]",horizontal,"(890.0, 262.0)",[1.5],[0.464],1,1225.253
2,False,91,1.258,75,[],[],"[(1085, 912)]",[],[1],[107],[1.7833333333333332],"[640.0, 512.0]",vertical,"(390.0, 262.0)",[1.3],[0.512],1,1229.289
2,False,92,1.432,85,[],[],"[(1104, 882)]",[],[1],[117],[1.95],"[640.0, 512.0]",vertical,"(890.0, 262.0)",[0.7],[0.505],1,1233.848
2,False,93,0.598,35,[],[],"[(1101, 890)]",[],[1],[69],[1.15],"[640.0, 512.0]",horizontal,"(390.0, 262.0)",[0.75],[0.543],1,1237.941
2,False,94,0.801,48,[],[],"[(1123, 892)]",[],[1],[84],[1.4],"[640.0, 512.0]",vertical,"(890.0, 262.0)",[0.75],[0.574],1,1241.339
2,False,95,0.606,36,[],[],"[(1136, 880)]",[],[1],[72],[1.2],"[640.0, 512.0]",horizontal,"(390.0, 262.0)",[0.5833333333333334],[0.576],1,1244.977
2,False,96,1.304,78,[],[],"[(1100, 886)]",[],[1],[111],[1.8499999999999999],"[640.0, 512.0]",vertical,"(390.0, 762.0)",[1.4666666666666666],[0.526],1,1248.233
2,False,97,1.02,61,[],[],"[(1112, 891)]",[],[1],[111],[1.8499999999999999],"[640.0, 512.0]",vertical,"(890.0, 762.0)",[1.5],[0.806],0,1253.004
2,False,98,0.722,43,[],[],"[(1117, 898)]",[],[1],[93],[1.55],"[640.0, 512.0]",horizontal,"(890.0, 262.0)",[0.7166666666666667],[0.806],0,1257.801
2,False,99,1.225,73,[],[],"[(1099, 899)]",[],[1],[108],[1.8],"[640.0, 512.0]",horizontal,"(890.0, 762.0)",[1.6],[0.56],1,1262.736
2,False,100,1.245,74,[],[],"[(1116, 889)]",[],[1],[108],[1.8],"[640.0, 512.0]",horizontal,"(390.0, 762.0)",[1.1166666666666667],[0.546],1,1269.278
2,False,101,1.007,60,[],[],"[(1075, 906)]",[],[1],[94],[1.5666666666666667],"[640.0, 512.0]",vertical,"(890.0, 262.0)",[0.5666666666666667],[0.538],1,1273.682
2,False,102,0.944,56,[],[],"[(1100, 897)]",[],[1],[89],[1.4833333333333334],"[640.0, 512.0]",vertical,"(390.0, 262.0)",[1.6666666666666667],[0.528],1,1277.273
2,False,103,0.569,34,[],[],"[(1117, 864)]",[],[1],[75],[1.25],"[640.0, 512.0]",horizontal,"(390.0, 262.0)",[1.2666666666666666],[0.652],1,1281.872
2,False,104,1.291,77,[],[],"[(1095, 892)]",[],[1],[113],[1.8833333333333333],"[640.0, 512.0]",horizontal,"(390.0, 762.0)",[1.2166666666666666],[0.579],1,1285.868
2,False,105,1.36,81,[],[],"[(1079, 903)]",[],[1],[114],[1.9],"[640.0, 512.0]",horizontal,"(890.0, 762.0)",[1.6333333333333333],[0.526],1,1290.612
2,False,106,0.705,42,[],[],"[(1104, 889)]",[],[1],[82],[1.3666666666666667],"[640.0, 512.0]",horizontal,"(890.0, 762.0)",[1.0],[0.641],1,1295.738
2,False,107,0.562,33,[],[],"[(1102, 895)]",[],[1],[67],[1.1166666666666667],"[640.0, 512.0]",horizontal,"(390.0, 262.0)",[0.95],[0.544],1,1299.58
2,False,108,1.229,73,[],[],"[(1103, 895)]",[],[1],[106],[1.7666666666666666],"[640.0, 512.0]",horizontal,"(890.0, 762.0)",[0.9],[0.526],1,1303.238
2,False,109,0.408,24,[],[],"[(1113, 924)]",[],[1],[74],[1.2333333333333334],"[640.0, 512.0]",vertical,"(390.0, 762.0)",[0.6],[0.801],0,1307.38
2,False,110,0.981,58,[],[],"[(1070, 896)]",[],[1],[98],[1.6333333333333333],"[640.0, 512.0]",horizontal,"(390.0, 762.0)",[1.3],[0.638],1,1402.896
2,False,111,0.457,27,[],[],"[(1077, 884)]",[],[1],[77],[1.2833333333333332],"[640.0, 512.0]",horizontal,"(390.0, 762.0)",[0.55],[0.802],0,1450.044
2,False,112,0.721,43,[],[],"[(1073, 887)]",[],[1],[75],[1.25],"[640.0, 512.0]",vertical,"(890.0, 762.0)",[1.0166666666666666],[0.517],1,1453.413
2,False,113,0.504,30,[],[],"[(1113, 892)]",[],[1],[60],[1.0],"[640.0, 512.0]",vertical,"(390.0, 262.0)",[1.45],[0.48],1,1457.305
2,False,114,0.853,51,[],[],"[(1082, 885)]",[],[1],[84],[1.4],"[640.0, 512.0]",horizontal,"(890.0, 762.0)",[1.6166666666666667],[0.525],1,1461.257
2,False,115,0.769,46,[],[],"[(1087, 876)]",[],[1],[84],[1.4],"[640.0, 512.0]",horizontal,"(390.0, 762.0)",[0.9],[0.603],1,1465.761
2,False,116,1.102,66,[],[],"[(1095, 886)]",[],[1],[98],[1.6333333333333333],"[640.0, 512.0]",horizontal,"(890.0, 762.0)",[0.5333333333333333],[0.503],1,1469.527
2,False,117,0.848,50,[],[],"[(1123, 880)]",[],[1],[84],[1.4],"[640.0, 512.0]",horizontal,"(390.0, 262.0)",[1.4],[0.536],1,1473.211
2,False,118,0.65,39,[],[],"[(1087, 896)]",[],[1],[68],[1.1333333333333333],"[640.0, 512.0]",vertical,"(890.0, 262.0)",[0.8666666666666667],[0.458],1,1477.46
2,False,119,0.434,26,[],[],"[(1124, 904)]",[],[1],[57],[0.95],"[640.0, 512.0]",vertical,"(890.0, 762.0)",[1.6],[0.494],1,1481.477
2,False,120,0.658,39,[],[],"[(1121, 880)]",[],[1],[69],[1.15],"[640.0, 512.0]",vertical,"(890.0, 262.0)",[0.6666666666666666],[0.473],1,1485.539
3,False,121,0.84,50,[],[],"[(1093, 876)]",[],[1],[90],[1.5],"[640.0, 512.0]",horizontal,"(890.0, 762.0)",[1.0333333333333332],[0.644],1,1488.824
3,False,122,0.588,35,[],[],"[(1122, 886)]",[],[1],[66],[1.1],"[640.0, 512.0]",vertical,"(890.0, 262.0)",[1.6666666666666667],[0.491],1,1492.877
3,False,123,0.8,48,[],[],"[(1099, 889)]",[],[1],[81],[1.35],"[640.0, 512.0]",horizontal,"(890.0, 262.0)",[0.5],[0.527],1,1497.094
3,False,124,0.553,33,[],[],"[(1106, 891)]",[],[1],[70],[1.1666666666666667],"[640.0, 512.0]",vertical,"(390.0, 262.0)",[0.65],[0.589],1,1500.45
3,False,125,1.061,63,[],[],"[(1083, 878)]",[],[1],[95],[1.5833333333333333],"[640.0, 512.0]",vertical,"(890.0, 762.0)",[0.95],[0.518],1,1503.786
3,False,126,0.364,21,[],[],"[(1076, 874)]",[],[1],[54],[0.9],"[640.0, 512.0]",vertical,"(890.0, 262.0)",[1.5166666666666666],[0.521],1,1507.858
3,False,127,0.575,34,[],[],"[(1090, 868)]",[],[1],[67],[1.1166666666666667],"[640.0, 512.0]",horizontal,"(390.0, 762.0)",[0.7666666666666666],[0.526],1,1511.776
3,False,128,0.844,50,[],[],"[(1100, 889)]",[],[1],[84],[1.4],"[640.0, 512.0]",horizontal,"(390.0, 762.0)",[0.7166666666666667],[0.539],1,1515.144
3,False,129,0.549,32,[],[],"[(1100, 892)]",[],[1],[65],[1.0833333333333333],"[640.0, 512.0]",vertical,"(890.0, 762.0)",[0.5166666666666666],[0.524],1,1518.738
3,False,130,0.585,35,[],[],"[(1093, 907)]",[],[1],[66],[1.1],"[640.0, 512.0]",vertical,"(890.0, 262.0)",[1.3166666666666667],[0.493],1,1521.86
3,False,131,0.576,34,[],[],"[(1087, 909)]",[],[1],[67],[1.1166666666666667],"[640.0, 512.0]",vertical,"(890.0, 262.0)",[1.15],[0.526],1,1525.755
3,False,132,0.879,52,[],[],"[(1063, 906)]",[],[1],[97],[1.6166666666666667],"[640.0, 512.0]",vertical,"(390.0, 762.0)",[1.6666666666666667],[0.722],1,1529.515
3,False,133,1.287,77,[],[],"[(831, 486), (104, 891), (965, 475), (599, 671), (772, 708), (1130, 905)]",[],"[0, 0, 0, 0, 0, 1]",[113],[1.8833333333333333],"[640.0, 512.0]",horizontal,"(390.0, 762.0)",[0.55],[0.576],1,1534.305
3,False,134,1.065,63,[],[],"[(1088, 902)]",[],[1],[113],[1.8833333333333333],"[640.0, 512.0]",vertical,"(390.0, 762.0)",[0.9833333333333333],[0.801],0,1582.48
3,False,135,1.42,85,[],[],"[(1071, 865)]",[],[1],[135],[2.25],"[640.0, 512.0]",vertical,"(390.0, 262.0)",[0.8666666666666667],[0.811],0,1586.87
3,False,136,1.39,83,[],[],"[(1078, 873)]",[],[1],[123],[2.05],"[640.0, 512.0]",vertical,"(390.0, 262.0)",[1.1333333333333333],[0.646],1,1591.961
3,False,137,0.889,53,[],[],"[(1117, 890)]",[],[1],[87],[1.45],"[640.0, 512.0]",vertical,"(390.0, 262.0)",[1.4],[0.535],1,1597.064
3,False,138,1.301,78,[],[],"[(1116, 871)]",[],[1],[112],[1.8666666666666667],"[640.0, 512.0]",vertical,"(390.0, 262.0)",[1.1666666666666667],[0.536],1,1601.411
3,False,139,0.63,37,[],[],"[(178, 808), (744, 459), (1047, 492), (1058, 902)]",[],"[0, 0, 0, 1]",[87],[1.45],"[640.0, 512.0]",horizontal,"(890.0, 262.0)",[1.0666666666666667],[0.798],0,1605.897
3,False,140,1.269,76,[],[],"[(1114, 880)]",[],[1],[116],[1.9333333333333333],"[640.0, 512.0]",vertical,"(890.0, 762.0)",[1.3833333333333333],[0.639],1,1657.199
3,False,141,1.053,63,[],[],"[(1134, 892)]",[],[1],[113],[1.8833333333333333],"[640.0, 512.0]",horizontal,"(390.0, 262.0)",[1.2333333333333334],[0.804],0,1661.985
3,False,142,1.292,77,[],[],"[(1109, 897)]",[],[1],[108],[1.8],"[640.0, 512.0]",horizontal,"(890.0, 262.0)",[0.6],[0.491],1,1666.63
3,False,143,0.429,25,[],[],"[(1099, 902)]",[],[1],[62],[1.0333333333333332],"[640.0, 512.0]",horizontal,"(890.0, 262.0)",[1.4666666666666666],[0.592],1,1670.624
3,False,144,1.432,85,[],[],"[(1116, 897)]",[],[1],[131],[2.183333333333333],"[640.0, 512.0]",horizontal,"(890.0, 762.0)",[0.6333333333333333],[0.742],1,1674.585
3,False,145,1.343,80,[],[],"[(1098, 903)]",[],[1],[130],[2.1666666666666665],"[640.0, 512.0]",horizontal,"(390.0, 262.0)",[0.5666666666666667],[0.809],0,1678.891
3,False,146,1.495,89,[],[],"[(1112, 898)]",[],[1],[139],[2.3166666666666664],"[640.0, 512.0]",horizontal,"(890.0, 762.0)",[1.1333333333333333],[0.8],0,1683.145
3,False,147,0.967,58,[],[],"[(1073, 876)]",[],[1],[108],[1.8],"[640.0, 512.0]",horizontal,"(390.0, 762.0)",[0.6666666666666666],[0.801],0,1689.63
3,False,148,0.492,29,[],[],"[(1079, 879)]",[],[1],[59],[0.9833333333333333],"[640.0, 512.0]",vertical,"(390.0, 262.0)",[1.2333333333333334],[0.479],1,1694.483
3,False,149,1.333,79,[],[],"[(1091, 903)]",[],[1],[118],[1.9666666666666666],"[640.0, 512.0]",horizontal,"(390.0, 262.0)",[0.8833333333333333],[0.626],1,1698.272
3,False,150,0.701,42,[],[],"[(1085, 889)]",[],[1],[80],[1.3333333333333333],"[640.0, 512.0]",horizontal,"(390.0, 262.0)",[1.1],[0.606],1,1702.645
3,False,151,0.636,38,[],[],"[(1096, 895)]",[],[1],[73],[1.2166666666666666],"[640.0, 512.0]",horizontal,"(890.0, 762.0)",[0.95],[0.557],1,1706.608
3,False,152,0.931,55,[],[],"[(1085, 903)]",[],[1],[91],[1.5166666666666666],"[640.0, 512.0]",horizontal,"(890.0, 762.0)",[1.5833333333333333],[0.578],1,1710.782
3,False,153,0.992,59,[],[],"[(1098, 890)]",[],[1],[93],[1.55],"[640.0, 512.0]",horizontal,"(390.0, 262.0)",[0.5833333333333334],[0.544],1,1715.404
3,False,154,0.575,34,[],[],"[(1107, 901)]",[],[1],[67],[1.1166666666666667],"[640.0, 512.0]",vertical,"(390.0, 262.0)",[1.3166666666666667],[0.524],1,1719.002
3,False,155,1.21,72,[],[],"[(1105, 896)]",[],[1],[112],[1.8666666666666667],"[640.0, 512.0]",horizontal,"(390.0, 262.0)",[1.1],[0.642],1,1722.95
3,False,156,0.411,24,[],[],"[(1099, 880)]",[],[1],[55],[0.9166666666666666],"[640.0, 512.0]",horizontal,"(390.0, 762.0)",[1.4166666666666667],[0.49],1,1727.395
3,False,157,1.434,86,[],[],"[(1083, 907)]",[],[1],[121],[2.0166666666666666],"[640.0, 512.0]",horizontal,"(890.0, 762.0)",[1.2],[0.553],1,1731.242
3,False,158,0.414,24,[],[],"[(1090, 886)]",[],[1],[74],[1.2333333333333334],"[640.0, 512.0]",horizontal,"(890.0, 262.0)",[1.2833333333333332],[0.8],0,1736.236
3,False,159,0.871,52,[],[],"[(1087, 894)]",[],[1],[101],[1.6833333333333333],"[640.0, 512.0]",vertical,"(390.0, 262.0)",[1.55],[0.792],1,1740.211
3,False,160,0.993,59,[],[],"[(1092, 884)]",[],[1],[105],[1.75],"[640.0, 512.0]",vertical,"(390.0, 262.0)",[0.7333333333333333],[0.741],1,1745.021
3,False,161,0.834,50,[],[],"[(1103, 903)]",[],[1],[100],[1.6666666666666667],"[640.0, 512.0]",horizontal,"(890.0, 762.0)",[0.9166666666666666],[0.797],0,1749.078
3,False,162,0.656,39,[],[],"[(1110, 884)]",[],[1],[72],[1.2],"[640.0, 512.0]",vertical,"(390.0, 762.0)",[1.6166666666666667],[0.523],1,1753.122
3,False,163,1.176,70,[],[],"[(1113, 880)]",[],[1],[104],[1.7333333333333334],"[640.0, 512.0]",horizontal,"(890.0, 262.0)",[1.4166666666666667],[0.542],1,1757.461
3,False,164,0.732,43,[],[],"[(1136, 881)]",[],[1],[93],[1.55],"[640.0, 512.0]",horizontal,"(390.0, 762.0)",[0.9333333333333333],[0.801],0,1762.073
3,False,165,0.771,46,[],[],"[(1099, 877)]",[],[1],[96],[1.6],"[640.0, 512.0]",vertical,"(890.0, 262.0)",[1.1666666666666667],[0.794],0,1766.025
3,False,166,0.657,39,[],[],"[(1080, 903)]",[],[1],[74],[1.2333333333333334],"[640.0, 512.0]",vertical,"(390.0, 262.0)",[0.8666666666666667],[0.559],1,1774.008
3,False,167,1.351,81,[],[],"[(1116, 880)]",[],[1],[113],[1.8833333333333333],"[640.0, 512.0]",vertical,"(390.0, 262.0)",[1.6166666666666667],[0.512],1,1777.832
3,False,168,0.554,33,[],[],"[(1093, 893)]",[],[1],[67],[1.1166666666666667],"[640.0, 512.0]",horizontal,"(890.0, 762.0)",[1.4833333333333334],[0.531],1,1782.783
3,False,169,1.44,86,[],[],"[(1097, 876)]",[],[1],[121],[2.0166666666666666],"[640.0, 512.0]",vertical,"(390.0, 262.0)",[0.6833333333333333],[0.56],1,1786.878
3,False,170,0.606,36,[],[],"[(1123, 894)]",[],[1],[70],[1.1666666666666667],"[640.0, 512.0]",vertical,"(390.0, 762.0)",[1.3333333333333333],[0.54],1,1791.291
3,False,171,0.56,33,[],[],"[(1098, 888)]",[],[1],[81],[1.35],"[640.0, 512.0]",vertical,"(890.0, 762.0)",[1.6166666666666667],[0.768],1,1795.236
3,False,172,1.406,84,[],[],"[(1093, 890)]",[],[1],[134],[2.2333333333333334],"[640.0, 512.0]",horizontal,"(390.0, 262.0)",[1.6333333333333333],[0.794],0,1799.656
3,False,173,1.103,66,[],[],"[(1136, 875)]",[],[1],[103],[1.7166666666666666],"[640.0, 512.0]",horizontal,"(890.0, 762.0)",[1.3166666666666667],[0.591],1,1804.965
3,False,174,0.788,47,[],[],"[(836, 492), (1099, 866)]",[],"[0, 1]",[81],[1.35],"[640.0, 512.0]",horizontal,"(390.0, 262.0)",[1.6333333333333333],[0.544],1,1809.498
3,False,175,0.924,55,[],[],"[(1124, 884)]",[],[1],[105],[1.75],"[640.0, 512.0]",vertical,"(890.0, 762.0)",[1.0166666666666666],[0.805],0,1823.24
3,False,176,0.701,42,[],[],"[(1142, 874)]",[],[1],[86],[1.4333333333333333],"[640.0, 512.0]",vertical,"(390.0, 762.0)",[0.7166666666666667],[0.705],1,1827.507
3,False,177,1.468,88,[],[],"[(1110, 884)]",[],[1],[133],[2.216666666666667],"[640.0, 512.0]",vertical,"(390.0, 262.0)",[1.7],[0.719],1,1831.114
3,False,178,0.893,53,[],[],"[(1086, 871)]",[],[1],[83],[1.3833333333333333],"[640.0, 512.0]",vertical,"(890.0, 262.0)",[1.2333333333333334],[0.473],1,1836.46
3,False,179,1.426,85,[],[],"[(1125, 892)]",[],[1],[118],[1.9666666666666666],"[640.0, 512.0]",vertical,"(390.0, 762.0)",[0.75],[0.523],1,1841.636
3,False,180,0.925,55,[],[],"[(1105, 883)]",[],[1],[88],[1.4666666666666666],"[640.0, 512.0]",vertical,"(890.0, 762.0)",[0.9166666666666666],[0.522],1,1845.789
4,False,181,0.959,57,[],[],"[(1098, 891)]",[],[1],[87],[1.45],"[640.0, 512.0]",horizontal,"(890.0, 262.0)",[1.3166666666666667],[0.476],1,1849.602
4,False,182,1.35,81,[],[],"[(1084, 901)]",[],[1],[114],[1.9],"[640.0, 512.0]",vertical,"(390.0, 262.0)",[0.8166666666666667],[0.524],1,1853.822
4,False,183,0.585,35,[],[],"[(1112, 890)]",[],[1],[66],[1.1],"[640.0, 512.0]",horizontal,"(390.0, 262.0)",[1.6666666666666667],[0.491],1,1858.028
4,False,184,0.963,57,[],[],"[(1101, 890)]",[],[1],[90],[1.5],"[640.0, 512.0]",horizontal,"(390.0, 762.0)",[1.5333333333333332],[0.544],1,1862.663
4,False,185,1.282,76,[],[],"[(1096, 895)]",[],[1],[107],[1.7833333333333332],"[640.0, 512.0]",horizontal,"(390.0, 262.0)",[1.35],[0.491],1,1867.641
4,False,186,0.826,49,[],[],"[(1096, 877)]",[],[1],[82],[1.3666666666666667],"[640.0, 512.0]",horizontal,"(890.0, 762.0)",[0.8666666666666667],[0.524],1,1872.292
4,False,187,1.024,61,[],[],"[(1115, 889)]",[],[1],[93],[1.55],"[640.0, 512.0]",horizontal,"(890.0, 262.0)",[1.1833333333333333],[0.508],1,1875.965
4,False,188,0.959,57,[],[],"[(1084, 888)]",[],[1],[89],[1.4833333333333334],"[640.0, 512.0]",horizontal,"(390.0, 762.0)",[1.2666666666666666],[0.509],1,1880.15
4,False,189,1.304,78,[],[],"[(1082, 895)]",[],[1],[128],[2.1333333333333333],"[640.0, 512.0]",horizontal,"(890.0, 762.0)",[1.5166666666666666],[0.797],0,1884.399
4,False,190,0.758,45,[],[],"[(1093, 897)]",[],[1],[80],[1.3333333333333333],"[640.0, 512.0]",horizontal,"(390.0, 262.0)",[1.2333333333333334],[0.559],1,1889.521
4,False,191,1.019,61,[],[],"[(1106, 889)]",[],[1],[94],[1.5666666666666667],"[640.0, 512.0]",horizontal,"(890.0, 762.0)",[1.6833333333333333],[0.525],1,1893.662
4,False,192,0.405,24,[],[],"[(1134, 886)]",[],[1],[63],[1.05],"[640.0, 512.0]",vertical,"(390.0, 262.0)",[1.2666666666666666],[0.617],1,1898.38
4,False,193,1.409,84,[],[],"[(1080, 879)]",[],[1],[116],[1.9333333333333333],"[640.0, 512.0]",vertical,"(390.0, 262.0)",[0.5833333333333334],[0.506],1,1902.162
4,False,194,0.323,19,[],[],"[(1100, 890)]",[],[1],[52],[0.8666666666666667],"[640.0, 512.0]",horizontal,"(390.0, 262.0)",[0.8166666666666667],[0.519],1,1906.213
4,False,195,1.261,75,[],[],"[(1119, 869)]",[],[1],[116],[1.9333333333333333],"[640.0, 512.0]",vertical,"(390.0, 762.0)",[1.0],[0.649],1,1909.405
4,False,196,0.735,44,[],[],"[(1104, 893)]",[],[1],[83],[1.3833333333333333],"[640.0, 512.0]",horizontal,"(890.0, 762.0)",[0.6833333333333333],[0.618],1,1914.339
4,False,197,1.095,65,[],[],"[(1105, 893)]",[],[1],[100],[1.6666666666666667],"[640.0, 512.0]",vertical,"(390.0, 762.0)",[0.6833333333333333],[0.552],1,1917.875
4,False,198,1.142,68,[],[],"[(1075, 890)]",[],[1],[112],[1.8666666666666667],"[640.0, 512.0]",vertical,"(390.0, 262.0)",[1.4666666666666666],[0.704],1,1921.724
4,False,199,1.347,80,[],[],"[(1093, 889)]",[],[1],[114],[1.9],"[640.0, 512.0]",horizontal,"(390.0, 762.0)",[0.7333333333333333],[0.535],1,1926.562
4,False,200,1.426,85,[],[],"[(1113, 900)]",[],[1],[135],[2.25],"[640.0, 512.0]",horizontal,"(890.0, 262.0)",[1.3333333333333333],[0.801],0,1930.742
4,False,201,1.443,86,[],[],"[(1091, 898)]",[],[1],[124],[2.0666666666666664],"[640.0, 512.0]",horizontal,"(390.0, 762.0)",[1.35],[0.601],1,1935.813
4,False,202,0.381,22,[],[],"[(1093, 890)]",[],[1],[72],[1.2],"[640.0, 512.0]",vertical,"(890.0, 762.0)",[1.5666666666666667],[0.801],0,1940.905
4,False,203,0.522,31,[],[],"[(1084, 875)]",[],[1],[63],[1.05],"[640.0, 512.0]",vertical,"(390.0, 262.0)",[1.1333333333333333],[0.508],1,1945.184
4,False,204,0.672,40,[],[],"[(1085, 890)]",[],[1],[73],[1.2166666666666666],"[640.0, 512.0]",horizontal,"(890.0, 262.0)",[0.7333333333333333],[0.524],1,1948.979
4,False,205,1.015,60,[],[],"[(1113, 889)]",[],[1],[95],[1.5833333333333333],"[640.0, 512.0]",vertical,"(390.0, 762.0)",[0.9333333333333333],[0.554],1,1952.454
4,False,206,1.36,81,[],[],"[(1101, 892)]",[],[1],[117],[1.95],"[640.0, 512.0]",vertical,"(390.0, 762.0)",[1.4333333333333333],[0.571],1,1956.431
4,False,207,0.768,46,[],[],"[(1099, 898)]",[],[1],[79],[1.3166666666666667],"[640.0, 512.0]",vertical,"(890.0, 762.0)",[0.5333333333333333],[0.525],1,1961.264
4,False,208,0.464,27,[],[],"[(1111, 917)]",[],[1],[60],[1.0],"[640.0, 512.0]",horizontal,"(890.0, 262.0)",[1.2833333333333332],[0.527],1,1964.613
4,False,209,0.668,40,[],[],"[(1058, 884)]",[],[1],[74],[1.2333333333333334],"[640.0, 512.0]",vertical,"(390.0, 262.0)",[0.55],[0.539],1,1968.358
4,False,210,1.05,63,[],[],"[(1093, 904)]",[],[1],[95],[1.5833333333333333],"[640.0, 512.0]",vertical,"(390.0, 262.0)",[1.2833333333333332],[0.515],1,1973.74
4,False,211,1.389,83,[],[],"[(1093, 884)]",[],[1],[116],[1.9333333333333333],"[640.0, 512.0]",horizontal,"(890.0, 762.0)",[0.6333333333333333],[0.523],1,1978.064
4,False,212,1.244,74,[],[],"[(1138, 908)]",[],[1],[120],[2.0],"[640.0, 512.0]",horizontal,"(390.0, 262.0)",[0.5],[0.734],1,1982.139
4,False,213,0.773,46,[],[],"[(1087, 893)]",[],[1],[92],[1.5333333333333332],"[640.0, 512.0]",vertical,"(390.0, 262.0)",[1.2333333333333334],[0.732],1,1986.121
4,False,214,0.323,19,[],[],"[(1095, 892)]",[],[1],[51],[0.85],"[640.0, 512.0]",vertical,"(390.0, 762.0)",[1.0333333333333332],[0.506],1,1990.376
4,False,215,0.69,41,[],[],"[(1081, 891)]",[],[1],[73],[1.2166666666666666],"[640.0, 512.0]",horizontal,"(890.0, 762.0)",[0.8333333333333334],[0.506],1,1994.281
4,False,216,1.329,79,[],[],"[(1103, 890)]",[],[1],[119],[1.9833333333333334],"[640.0, 512.0]",horizontal,"(890.0, 262.0)",[1.2833333333333332],[0.639],1,1997.824
4,False,217,0.832,49,[],[],"[(1093, 894)]",[],[1],[83],[1.3833333333333333],"[640.0, 512.0]",horizontal,"(390.0, 262.0)",[0.8666666666666667],[0.532],1,2002.534
4,False,218,0.663,39,[],[],"[(1081, 896)]",[],[1],[71],[1.1833333333333333],"[640.0, 512.0]",horizontal,"(390.0, 262.0)",[1.6666666666666667],[0.511],1,2006.271
4,False,219,0.714,42,[],[],"[(1073, 898)]",[],[1],[75],[1.25],"[640.0, 512.0]",horizontal,"(390.0, 262.0)",[0.8],[0.519],1,2010.607
4,False,220,0.523,31,[],[],"[(1096, 902)]",[],[1],[65],[1.0833333333333333],"[640.0, 512.0]",vertical,"(890.0, 762.0)",[0.6],[0.537],1,2014.185
4,False,221,0.911,54,[],[],"[(1087, 899)]",[],[1],[88],[1.4666666666666666],"[640.0, 512.0]",horizontal,"(390.0, 262.0)",[1.45],[0.541],1,2017.333
4,False,222,0.431,25,[],[],"[(1087, 895)]",[],[1],[66],[1.1],"[640.0, 512.0]",horizontal,"(890.0, 762.0)",[1.1666666666666667],[0.65],1,2021.714
4,False,223,0.757,45,[],[],"[(1125, 911)]",[],[1],[81],[1.35],"[640.0, 512.0]",horizontal,"(890.0, 762.0)",[1.5333333333333332],[0.567],1,2025.476
4,False,224,1.468,88,[],[],"[(1084, 895)]",[],[1],[120],[2.0],"[640.0, 512.0]",horizontal,"(390.0, 762.0)",[0.9],[0.506],1,2029.81
4,False,225,0.425,25,[],[],"[(1088, 883)]",[],[1],[65],[1.0833333333333333],"[640.0, 512.0]",horizontal,"(390.0, 762.0)",[0.9],[0.634],1,2034.163
4,False,226,0.629,37,[],[],"[(1084, 902)]",[],[1],[69],[1.15],"[640.0, 512.0]",vertical,"(390.0, 262.0)",[0.6833333333333333],[0.511],1,2037.624
4,False,227,1.068,64,[],[],"[(1087, 902)]",[],[1],[99],[1.65],"[640.0, 512.0]",vertical,"(890.0, 762.0)",[0.6],[0.553],1,2040.947
4,False,228,1.321,79,[],[],"[(1093, 902)]",[],[1],[122],[2.033333333333333],"[640.0, 512.0]",horizontal,"(890.0, 762.0)",[1.55],[0.684],1,2044.68
4,False,229,0.39,23,[],[],"[(1109, 891)]",[],[1],[57],[0.95],"[640.0, 512.0]",horizontal,"(390.0, 762.0)",[1.1833333333333333],[0.54],1,2049.764
4,False,230,1.333,79,[],[],"[(1099, 884)]",[],[1],[112],[1.8666666666666667],"[640.0, 512.0]",horizontal,"(890.0, 262.0)",[0.9166666666666666],[0.526],1,2053.363
4,False,231,1.419,85,[],[],"[(1103, 900)]",[],[1],[115],[1.9166666666666667],"[640.0, 512.0]",horizontal,"(890.0, 262.0)",[1.6833333333333333],[0.475],1,2057.654
4,False,232,0.329,19,[],[],"[(1084, 909)]",[],[1],[66],[1.1],"[640.0, 512.0]",horizontal,"(390.0, 762.0)",[1.0166666666666666],[0.757],1,2062.699
4,False,233,1.16,69,[],[],"[(1087, 890)]",[],[1],[99],[1.65],"[640.0, 512.0]",vertical,"(890.0, 262.0)",[1.1833333333333333],[0.478],1,2066.739
4,False,234,1.301,78,[],[],"[(1118, 885)]",[],[1],[115],[1.9166666666666667],"[640.0, 512.0]",vertical,"(890.0, 262.0)",[0.95],[0.592],1,2071.036
4,False,235,0.745,44,[],[],"[(1112, 900)]",[],[1],[80],[1.3333333333333333],"[640.0, 512.0]",horizontal,"(390.0, 762.0)",[1.0333333333333332],[0.574],1,2075.38
4,False,236,0.803,48,[],[],"[(1118, 899)]",[],[1],[88],[1.4666666666666666],"[640.0, 512.0]",vertical,"(390.0, 762.0)",[1.4666666666666666],[0.636],1,2079.204
4,False,237,1.214,72,[],[],"[(1113, 871)]",[],[1],[102],[1.7],"[640.0, 512.0]",vertical,"(390.0, 262.0)",[1.3666666666666667],[0.479],1,2083.615
4,False,238,0.562,33,[],[],"[(1096, 874)]",[],[1],[65],[1.0833333333333333],"[640.0, 512.0]",vertical,"(890.0, 262.0)",[1.2833333333333332],[0.505],1,2097.415
4,False,239,0.706,42,[],[],"[(1090, 886)]",[],[1],[74],[1.2333333333333334],"[640.0, 512.0]",horizontal,"(390.0, 262.0)",[1.4166666666666667],[0.509],1,2101.252
4,False,240,0.941,56,[],[],"[(1106, 880)]",[],[1],[91],[1.5166666666666666],"[640.0, 512.0]",vertical,"(890.0, 262.0)",[1.35],[0.556],1,2105.353
5,False,241,0.911,54,[],[],"[(1113, 878)]",[],[1],[92],[1.5333333333333332],"[640.0, 512.0]",horizontal,"(390.0, 262.0)",[1.1],[0.601],1,2109.746
5,False,242,1.453,87,[],[],"[(1106, 883)]",[],[1],[119],[1.9833333333333334],"[640.0, 512.0]",vertical,"(890.0, 262.0)",[1.25],[0.508],1,2113.824
5,False,243,0.809,48,[],[],"[(1082, 888)]",[],[1],[78],[1.3],"[640.0, 512.0]",vertical,"(890.0, 262.0)",[1.35],[0.479],1,2118.504
5,False,244,0.852,51,[],[],"[(1093, 885)]",[],[1],[84],[1.4],"[640.0, 512.0]",vertical,"(890.0, 762.0)",[0.7833333333333333],[0.519],1,2122.626
5,False,245,0.384,23,[],[],"[(1122, 890)]",[],[1],[57],[0.95],"[640.0, 512.0]",horizontal,"(390.0, 762.0)",[1.25],[0.543],1,2126.264
5,False,246,1.069,64,[],[],"[(1098, 900)]",[],[1],[114],[1.9],"[640.0, 512.0]",vertical,"(390.0, 762.0)",[0.6666666666666666],[0.803],0,2129.936
5,False,247,0.435,26,[],[],"[(1121, 875)]",[],[1],[76],[1.2666666666666666],"[640.0, 512.0]",vertical,"(390.0, 762.0)",[1.2166666666666666],[0.804],0,2133.999
5,False,248,1.462,87,[],[],"[(1123, 908)]",[],[1],[118],[1.9666666666666666],"[640.0, 512.0]",vertical,"(890.0, 262.0)",[1.3666666666666667],[0.495],1,2137.971
5,False,249,0.858,51,[],[],"[(1126, 873)]",[],[1],[85],[1.4166666666666667],"[640.0, 512.0]",vertical,"(890.0, 762.0)",[1.05],[0.538],1,2142.882
5,False,250,0.857,51,[],[],"[(1137, 906)]",[],[1],[81],[1.35],"[640.0, 512.0]",vertical,"(390.0, 762.0)",[0.7166666666666667],[0.474],1,2146.786
5,False,251,0.63,37,[],[],"[(1118, 890)]",[],[1],[84],[1.4],"[640.0, 512.0]",horizontal,"(390.0, 262.0)",[0.6833333333333333],[0.753],1,2150.305
5,False,252,0.888,53,[],[],"[(1117, 884)]",[],[1],[100],[1.6666666666666667],"[640.0, 512.0]",vertical,"(890.0, 262.0)",[0.6],[0.753],1,2153.863
5,False,253,1.232,73,[],[],"[(1120, 909)]",[],[1],[96],[1.6],"[640.0, 512.0]",vertical,"(890.0, 262.0)",[1.3166666666666667],[0.363],1,2157.581
5,False,254,1.22,73,[],[],"[(1103, 873)]",[],[1],[105],[1.75],"[640.0, 512.0]",horizontal,"(890.0, 262.0)",[1.5],[0.509],1,2161.964
5,False,255,0.614,36,[],[],"[(1086, 891)]",[],[1],[80],[1.3333333333333333],"[640.0, 512.0]",vertical,"(890.0, 762.0)",[1.3],[0.71],1,2168.138
5,False,256,1.361,81,[],[],"[(1115, 894)]",[],[1],[113],[1.8833333333333333],"[640.0, 512.0]",vertical,"(890.0, 762.0)",[1.6333333333333333],[0.506],1,2172.263
5,False,257,0.689,41,[],[],"[(1099, 884)]",[],[1],[74],[1.2333333333333334],"[640.0, 512.0]",horizontal,"(390.0, 762.0)",[0.65],[0.521],1,2177.9
5,False,258,1.329,79,[],[],"[(1102, 889)]",[],[1],[111],[1.8499999999999999],"[640.0, 512.0]",vertical,"(390.0, 762.0)",[0.55],[0.514],1,2181.304
5,False,259,1.047,62,[],[],"[(1099, 887)]",[],[1],[99],[1.65],"[640.0, 512.0]",horizontal,"(390.0, 762.0)",[1.6],[0.591],1,2185.174
5,False,260,0.629,37,[],[],"[(1105, 889)]",[],[1],[70],[1.1666666666666667],"[640.0, 512.0]",horizontal,"(390.0, 762.0)",[0.7833333333333333],[0.523],1,2189.897
5,False,261,1.292,77,[],[],"[(1099, 885)]",[],[1],[107],[1.7833333333333332],"[640.0, 512.0]",horizontal,"(390.0, 762.0)",[0.9166666666666666],[0.486],1,2193.367
5,False,262,0.945,56,[],[],"[(1090, 893)]",[],[1],[91],[1.5166666666666666],"[640.0, 512.0]",vertical,"(390.0, 262.0)",[0.6333333333333333],[0.554],1,2197.59
5,False,263,1.434,86,[],[],"[(1098, 875)]",[],[1],[118],[1.9666666666666666],"[640.0, 512.0]",horizontal,"(390.0, 762.0)",[0.7666666666666666],[0.513],1,2201.282
5,False,264,0.481,28,[],[],"[(1099, 892)]",[],[1],[61],[1.0166666666666666],"[640.0, 512.0]",vertical,"(890.0, 762.0)",[1.2833333333333332],[0.525],1,2205.478
5,False,265,1.117,67,[],[],"[(1106, 880)]",[],[1],[100],[1.6666666666666667],"[640.0, 512.0]",horizontal,"(390.0, 762.0)",[1.5666666666666667],[0.524],1,2209.292
5,False,266,0.384,23,[],[],"[(1078, 880)]",[],[1],[59],[0.9833333333333333],"[640.0, 512.0]",horizontal,"(890.0, 762.0)",[1.3833333333333333],[0.58],1,2213.994
5,False,267,0.621,37,[],[],"[(1096, 889)]",[],[1],[71],[1.1833333333333333],"[640.0, 512.0]",vertical,"(890.0, 762.0)",[1.45],[0.54],1,2217.883
5,False,268,0.703,42,[],[],"[(1101, 880)]",[],[1],[84],[1.4],"[640.0, 512.0]",horizontal,"(390.0, 262.0)",[0.6],[0.672],1,2222.014
5,False,269,0.863,51,[],[],"[(1112, 892)]",[],[1],[84],[1.4],"[640.0, 512.0]",horizontal,"(390.0, 262.0)",[0.5],[0.528],1,2225.49
5,False,270,0.811,48,[],[],"[(1097, 902)]",[],[1],[98],[1.6333333333333333],"[640.0, 512.0]",horizontal,"(890.0, 262.0)",[0.5166666666666666],[0.8],0,2228.874
5,False,271,1.257,75,[],[],"[(1080, 878)]",[],[1],[111],[1.8499999999999999],"[640.0, 512.0]",horizontal,"(390.0, 762.0)",[1.5833333333333333],[0.572],1,2232.509
5,False,272,0.687,41,[],[],"[(1095, 876)]",[],[1],[78],[1.3],"[640.0, 512.0]",horizontal,"(890.0, 762.0)",[1.0],[0.592],1,2237.554
5,False,273,0.924,55,[],[],"[(1090, 891)]",[],[1],[86],[1.4333333333333333],"[640.0, 512.0]",horizontal,"(890.0, 262.0)",[0.6833333333333333],[0.492],1,2241.317
5,False,274,0.751,45,[],[],"[(1106, 883)]",[],[1],[75],[1.25],"[640.0, 512.0]",vertical,"(390.0, 762.0)",[1.3833333333333333],[0.477],1,2244.932
5,False,275,0.477,28,[],[],"[(1098, 885)]",[],[1],[70],[1.1666666666666667],"[640.0, 512.0]",horizontal,"(890.0, 762.0)",[1.6166666666666667],[0.674],1,2249.042
5,False,276,0.993,59,[],[],"[(1103, 866)]",[],[1],[92],[1.5333333333333332],"[640.0, 512.0]",vertical,"(390.0, 762.0)",[0.6333333333333333],[0.53],1,2253.394
5,False,277,1.197,71,[],[],"[(1122, 880)]",[],[1],[106],[1.7666666666666666],"[640.0, 512.0]",horizontal,"(390.0, 262.0)",[0.55],[0.558],1,2257.031
5,False,278,1.22,73,[],[],"[(1089, 884)]",[],[1],[108],[1.8],"[640.0, 512.0]",horizontal,"(890.0, 762.0)",[1.0166666666666666],[0.558],1,2260.791
5,False,279,0.841,50,[],[],"[(1086, 894)]",[],[1],[81],[1.35],"[640.0, 512.0]",horizontal,"(390.0, 262.0)",[1.4166666666666667],[0.497],1,2265.132
5,False,280,0.731,43,[],[],"[(1092, 882)]",[],[1],[77],[1.2833333333333332],"[640.0, 512.0]",horizontal,"(890.0, 762.0)",[0.5666666666666667],[0.538],1,2269.423
5,False,281,0.746,44,[],[],"[(1120, 876)]",[],[1],[77],[1.2833333333333332],"[640.0, 512.0]",vertical,"(390.0, 262.0)",[0.6333333333333333],[0.522],1,2272.749
5,False,282,1.363,81,[],[],"[(1116, 868)]",[],[1],[109],[1.8166666666666667],"[640.0, 512.0]",vertical,"(890.0, 262.0)",[1.2166666666666666],[0.45],1,2276.126
5,False,283,0.995,59,[],[],"[(1101, 883)]",[],[1],[94],[1.5666666666666667],"[640.0, 512.0]",vertical,"(390.0, 762.0)",[0.5666666666666667],[0.558],1,2280.629
5,False,284,0.438,26,[],[],"[(1081, 884)]",[],[1],[48],[0.8],"[640.0, 512.0]",horizontal,"(390.0, 262.0)",[1.5166666666666666],[0.349],1,2284.244
5,False,285,0.571,34,[],[],"[(1080, 880)]",[],[1],[66],[1.1],"[640.0, 512.0]",vertical,"(890.0, 262.0)",[1.2],[0.513],1,2288.331
5,False,286,0.483,28,[],[],"[(1097, 893)]",[],[1],[61],[1.0166666666666666],"[640.0, 512.0]",vertical,"(390.0, 262.0)",[0.7],[0.525],1,2292.147
5,False,287,0.5,30,[],[],"[(1093, 896)]",[],[1],[74],[1.2333333333333334],"[640.0, 512.0]",horizontal,"(890.0, 262.0)",[0.8833333333333333],[0.707],1,2295.346
5,False,288,0.679,40,[],[],"[(1086, 885)]",[],[1],[90],[1.5],"[640.0, 512.0]",vertical,"(390.0, 762.0)",[0.5],[0.806],0,2298.979
5,False,289,0.751,45,[],[],"[(1105, 869)]",[],[1],[77],[1.2833333333333332],"[640.0, 512.0]",vertical,"(390.0, 262.0)",[1.45],[0.503],1,2302.528
5,False,290,0.724,43,[],[],"[(1081, 876)]",[],[1],[73],[1.2166666666666666],"[640.0, 512.0]",vertical,"(390.0, 762.0)",[1.55],[0.484],1,2315.131
5,False,291,0.496,29,[],[],"[(1085, 896)]",[],[1],[79],[1.3166666666666667],"[640.0, 512.0]",horizontal,"(890.0, 262.0)",[0.65],[0.8],0,2319.431
5,False,292,0.663,39,[],[],"[(1120, 885)]",[],[1],[74],[1.2333333333333334],"[640.0, 512.0]",vertical,"(390.0, 762.0)",[0.5],[0.556],1,2322.881
5,False,293,0.519,31,[],[],"[(1112, 883)]",[],[1],[68],[1.1333333333333333],"[640.0, 512.0]",vertical,"(890.0, 262.0)",[0.7666666666666666],[0.59],1,2326.101
5,False,294,0.815,48,[],[],"[(1105, 886)]",[],[1],[86],[1.4333333333333333],"[640.0, 512.0]",horizontal,"(890.0, 762.0)",[1.1166666666666667],[0.605],1,2329.516
5,False,295,0.671,40,[],[],"[(1105, 871)]",[],[1],[74],[1.2333333333333334],"[640.0, 512.0]",vertical,"(390.0, 262.0)",[1.65],[0.546],1,2333.509
5,False,296,0.339,20,[],[],"[(1118, 878)]",[],[1],[52],[0.8666666666666667],"[640.0, 512.0]",horizontal,"(890.0, 262.0)",[1.45],[0.513],1,2337.832
5,False,297,1.019,61,[],[],"[(1099, 901)]",[],[1],[],[],"[640.0, 512.0]",vertical,"(890.0, 262.0)",[],[0],0,2341.57
5,False,298,0.721,43,[],[],"[(1087, 879)]",[],[1],[79],[1.3166666666666667],"[640.0, 512.0]",vertical,"(390.0, 762.0)",[0.9333333333333333],[0.582],1,2345.143
5,False,299,1.45,87,[],[],"[(1087, 902)]",[],[1],[121],[2.0166666666666666],"[640.0, 512.0]",vertical,"(890.0, 262.0)",[1.1833333333333333],[0.541],1,2349.815
5,False,300,1.065,63,[],[],"[(1064, 887)]",[],[1],[99],[1.65],"[640.0, 512.0]",horizontal,"(890.0, 762.0)",[1.5333333333333332],[0.571],1,2354.528
6,False,301,1.108,66,[],[],"[(1101, 892)]",[],[1],[99],[1.65],"[640.0, 512.0]",vertical,"(390.0, 262.0)",[1.05],[0.528],1,2359.315
6,False,302,0.849,50,[],[],"[(1085, 886)]",[],[1],[83],[1.3833333333333333],"[640.0, 512.0]",horizontal,"(390.0, 262.0)",[1.2333333333333334],[0.525],1,2363.469
6,False,303,0.844,50,[],[],"[(1092, 866)]",[],[1],[81],[1.35],"[640.0, 512.0]",vertical,"(890.0, 262.0)",[1.1833333333333333],[0.494],1,2367.56
6,False,304,0.361,21,[],[],"[(1079, 902)]",[],[1],[53],[0.8833333333333333],"[640.0, 512.0]",horizontal,"(890.0, 262.0)",[1.45],[0.508],1,2371.629
6,False,305,0.855,51,[],[],"[(1105, 884)]",[],[1],[85],[1.4166666666666667],"[640.0, 512.0]",vertical,"(890.0, 262.0)",[0.5666666666666667],[0.542],1,2375.463
6,False,306,1.424,85,[],[],"[(1120, 897)]",[],[1],[117],[1.95],"[640.0, 512.0]",vertical,"(890.0, 762.0)",[1.5666666666666667],[0.505],1,2378.926
6,False,307,0.382,22,[],[],"[(1123, 882)]",[],[1],[64],[1.0666666666666667],"[640.0, 512.0]",vertical,"(390.0, 262.0)",[0.6],[0.672],1,2383.907
6,False,308,0.897,53,[],[],"[(1106, 888)]",[],[1],[86],[1.4333333333333333],"[640.0, 512.0]",horizontal,"(390.0, 762.0)",[0.85],[0.522],1,2387.061
6,False,309,1.026,61,[],[],"[(1094, 894)]",[],[1],[102],[1.7],"[640.0, 512.0]",horizontal,"(890.0, 262.0)",[1.5],[0.651],1,2390.82
6,False,310,0.873,52,[],[],"[(1099, 886)]",[],[1],[86],[1.4333333333333333],"[640.0, 512.0]",horizontal,"(390.0, 762.0)",[1.3166666666666667],[0.541],1,2395.479
6,False,311,1.304,78,[],[],"[(1098, 879)]",[],[1],[110],[1.8333333333333333],"[640.0, 512.0]",horizontal,"(390.0, 262.0)",[0.6833333333333333],[0.505],1,2399.674
6,False,312,0.917,55,[],[],"[(1123, 893)]",[],[1],[101],[1.6833333333333333],"[640.0, 512.0]",vertical,"(390.0, 762.0)",[0.6],[0.744],1,2403.648
6,False,313,1.242,74,[],[],"[(1105, 888)]",[],[1],[119],[1.9833333333333334],"[640.0, 512.0]",horizontal,"(390.0, 262.0)",[0.5],[0.721],1,2407.413
6,False,314,0.575,34,[],[],"[(1098, 880)]",[],[1],[67],[1.1166666666666667],"[640.0, 512.0]",vertical,"(390.0, 762.0)",[0.8333333333333334],[0.529],1,2411.385
6,False,315,1.199,71,[],[],"[(1090, 878)]",[],[1],[101],[1.6833333333333333],"[640.0, 512.0]",vertical,"(390.0, 262.0)",[0.8333333333333334],[0.482],1,2414.824
6,False,316,1.482,88,[],[],"[(1106, 871)]",[],[1],[120],[2.0],"[640.0, 512.0]",vertical,"(390.0, 262.0)",[1.0166666666666666],[0.508],1,2418.819
6,False,317,1.479,88,[],[],"[(1106, 889)]",[],[1],[116],[1.9333333333333333],"[640.0, 512.0]",horizontal,"(390.0, 262.0)",[1.2166666666666666],[0.442],1,2423.336
6,False,318,0.73,43,[],[],"[(1093, 892)]",[],[1],[77],[1.2833333333333332],"[640.0, 512.0]",horizontal,"(390.0, 262.0)",[1.1166666666666667],[0.545],1,2427.938
6,False,319,0.3,18,[],[],"[(1113, 883)]",[],[1],[49],[0.8166666666666667],"[640.0, 512.0]",vertical,"(890.0, 762.0)",[1.6166666666666667],[0.495],1,2431.822
6,False,320,0.358,21,[],[],"[(1094, 872)]",[],[1],[52],[0.8666666666666667],"[640.0, 512.0]",horizontal,"(390.0, 762.0)",[1.0833333333333333],[0.492],1,2435.75
6,False,321,1.315,78,[],[],"[(1093, 891)]",[],[1],[112],[1.8666666666666667],"[640.0, 512.0]",horizontal,"(890.0, 762.0)",[0.6166666666666667],[0.543],1,2439.148
6,False,322,1.024,61,[],[],"[(1091, 878)]",[],[1],[99],[1.65],"[640.0, 512.0]",horizontal,"(890.0, 262.0)",[0.7333333333333333],[0.606],1,2443.101
6,False,323,0.603,36,[],[],"[(1101, 885)]",[],[1],[86],[1.4333333333333333],"[640.0, 512.0]",horizontal,"(390.0, 262.0)",[0.5],[0.801],0,2446.987
6,False,324,0.706,42,[],[],"[(1099, 885)]",[],[1],[76],[1.2666666666666666],"[640.0, 512.0]",horizontal,"(890.0, 762.0)",[1.2],[0.537],1,2450.414
6,False,325,0.899,53,[],[],"[(1099, 892)]",[],[1],[90],[1.5],"[640.0, 512.0]",horizontal,"(390.0, 762.0)",[1.0166666666666666],[0.589],1,2454.431
6,False,326,1.11,66,[],[],"[(1094, 875)]",[],[1],[99],[1.65],"[640.0, 512.0]",vertical,"(390.0, 762.0)",[1.0833333333333333],[0.527],1,2458.435
6,False,327,1.275,76,[],[],"[(1093, 868)]",[],[1],[109],[1.8166666666666667],"[640.0, 512.0]",vertical,"(390.0, 762.0)",[0.6666666666666666],[0.521],1,2462.666
6,False,328,1.21,72,[],[],"[(1082, 902)]",[],[1],[115],[1.9166666666666667],"[640.0, 512.0]",vertical,"(390.0, 762.0)",[0.55],[0.683],1,2466.611
6,False,329,0.533,31,[],[],"[(1063, 892)]",[],[1],[72],[1.2],"[640.0, 512.0]",horizontal,"(890.0, 262.0)",[0.8833333333333333],[0.653],1,2470.583
6,False,330,1.181,70,[],[],"[(1101, 881)]",[],[1],[103],[1.7166666666666666],"[640.0, 512.0]",vertical,"(390.0, 762.0)",[0.6333333333333333],[0.525],1,2474.199
6,False,331,1.011,60,[],[],"[(1085, 881)]",[],[1],[90],[1.5],"[640.0, 512.0]",horizontal,"(890.0, 262.0)",[1.4833333333333334],[0.472],1,2478.048
6,False,332,1.178,70,[],[],"[(1104, 889)]",[],[1],[103],[1.7166666666666666],"[640.0, 512.0]",vertical,"(390.0, 262.0)",[1.1833333333333333],[0.525],1,2482.475
6,False,333,0.645,38,[],[],"[(1098, 883)]",[],[1],[71],[1.1833333333333333],"[640.0, 512.0]",vertical,"(890.0, 262.0)",[0.8833333333333333],[0.524],1,2486.821
6,False,334,0.724,43,[],[],"[(1100, 885)]",[],[1],[76],[1.2666666666666666],"[640.0, 512.0]",vertical,"(390.0, 762.0)",[1.0],[0.526],1,2490.376
6,False,335,0.977,58,[],[],"[(1074, 887)]",[],[1],[90],[1.5],"[640.0, 512.0]",horizontal,"(390.0, 762.0)",[1.35],[0.509],1,2494.132
6,False,336,1.394,83,[],[],"[(1081, 872)]",[],[1],[115],[1.9166666666666667],"[640.0, 512.0]",horizontal,"(890.0, 262.0)",[0.7166666666666667],[0.504],1,2498.421
6,False,337,0.441,26,[],[],"[(1093, 880)]",[],[1],[68],[1.1333333333333333],"[640.0, 512.0]",vertical,"(390.0, 262.0)",[0.8],[0.67],1,2502.578
6,False,338,1.164,69,[],[],"[(1086, 889)]",[],[1],[99],[1.65],"[640.0, 512.0]",horizontal,"(890.0, 262.0)",[1.6333333333333333],[0.474],1,2506.279
6,False,339,1.112,66,[],[],"[(1089, 889)]",[],[1],[75],[1.25],"[640.0, 512.0]",horizontal,"(390.0, 262.0)",[1.2166666666666666],[0.134],1,2511.115
6,False,340,1.198,71,[],[],"[(1096, 898)]",[],[1],[105],[1.75],"[640.0, 512.0]",vertical,"(890.0, 762.0)",[0.9833333333333333],[0.542],1,2515.077
6,False,341,0.63,37,[],[],"[(1074, 898)]",[],[1],[72],[1.2],"[640.0, 512.0]",horizontal,"(890.0, 762.0)",[0.85],[0.553],1,2519.31
6,False,342,0.63,37,[],[],"[(1093, 868)]",[],[1],[69],[1.15],"[640.0, 512.0]",horizontal,"(890.0, 262.0)",[0.6833333333333333],[0.519],1,2525.051
6,False,343,0.783,46,[],[],"[(1075, 889)]",[],[1],[90],[1.5],"[640.0, 512.0]",horizontal,"(890.0, 762.0)",[1.6166666666666667],[0.705],1,2528.383
6,False,344,0.372,22,[],[],"[(1108, 876)]",[],[1],[55],[0.9166666666666666],"[640.0, 512.0]",vertical,"(890.0, 762.0)",[1.65],[0.525],1,2532.971
6,False,345,0.861,51,[],[],"[(1081, 899)]",[],[1],[95],[1.5833333333333333],"[640.0, 512.0]",vertical,"(890.0, 762.0)",[1.1333333333333333],[0.699],1,2536.991
6,False,346,1.214,72,[],[],"[(1116, 901)]",[],[1],[103],[1.7166666666666666],"[640.0, 512.0]",vertical,"(890.0, 262.0)",[1.6],[0.491],1,2541.178
6,False,347,1.21,72,[],[],"[(1088, 885)]",[],[1],[102],[1.7],"[640.0, 512.0]",vertical,"(890.0, 262.0)",[1.1166666666666667],[0.475],1,2545.954
6,False,348,1.066,63,[],[],"[(1088, 881)]",[],[1],[105],[1.75],"[640.0, 512.0]",horizontal,"(390.0, 762.0)",[1.1333333333333333],[0.68],1,2550.233
6,False,349,1.097,65,[],[],"[(1066, 863)]",[],[1],[98],[1.6333333333333333],"[640.0, 512.0]",horizontal,"(890.0, 262.0)",[1.5666666666666667],[0.531],1,2554.61
6,False,350,1.275,76,[],[],"[(1101, 893)]",[],[1],[109],[1.8166666666666667],"[640.0, 512.0]",vertical,"(390.0, 262.0)",[1.2166666666666666],[0.523],1,2559.29
6,False,351,1.264,75,[],[],"[(1136, 879)]",[],[1],[105],[1.75],"[640.0, 512.0]",horizontal,"(890.0, 262.0)",[1.35],[0.474],1,2563.816
6,False,352,0.573,34,[],[],"[(1099, 880)]",[],[1],[71],[1.1833333333333333],"[640.0, 512.0]",vertical,"(890.0, 262.0)",[1.25],[0.599],1,2568.334
6,False,353,0.735,44,[],[],"[(1101, 888)]",[],[1],[84],[1.4],"[640.0, 512.0]",vertical,"(890.0, 262.0)",[0.5166666666666666],[0.641],1,2572.282
6,False,354,1.025,61,[],[],"[(1103, 889)]",[],[1],[76],[1.2666666666666666],"[640.0, 512.0]",vertical,"(890.0, 262.0)",[1.65],[0.233],1,2575.682
6,False,355,0.783,46,[],[],"[(1105, 883)]",[],[1],[80],[1.3333333333333333],"[640.0, 512.0]",horizontal,"(390.0, 262.0)",[1.5666666666666667],[0.548],1,2580.083
6,False,356,0.845,50,[],[],"[(1113, 889)]",[],[1],[82],[1.3666666666666667],"[640.0, 512.0]",horizontal,"(890.0, 762.0)",[0.7833333333333333],[0.519],1,2584.498
6,False,357,1.5,90,[],[],"[(1084, 880)]",[],[1],[122],[2.033333333333333],"[640.0, 512.0]",horizontal,"(390.0, 762.0)",[0.5333333333333333],[0.511],1,2588.166
6,False,358,0.434,26,[],[],"[(1101, 885)]",[],[1],[59],[0.9833333333333333],"[640.0, 512.0]",horizontal,"(390.0, 762.0)",[1.5166666666666666],[0.527],1,2592.248
6,False,359,0.384,23,[],[],"[(1079, 893)]",[],[1],[37],[0.6166666666666667],"[640.0, 512.0]",vertical,"(390.0, 262.0)",[1.2166666666666666],[0.216],1,2596.224
6,False,360,1.0,60,[],[],"[(1081, 894)]",[],[1],[93],[1.55],"[640.0, 512.0]",horizontal,"(890.0, 762.0)",[1.6166666666666667],[0.524],1,2599.578
7,False,361,0.791,47,[],[],"[(1099, 893)]",[],[1],[79],[1.3166666666666667],"[640.0, 512.0]",vertical,"(390.0, 762.0)",[1.1166666666666667],[0.509],1,2604.244
7,False,362,0.397,23,[],[],"[(1112, 892)]",[],[1],[56],[0.9333333333333333],"[640.0, 512.0]",vertical,"(890.0, 762.0)",[0.8666666666666667],[0.523],1,2608.174
7,False,363,1.449,86,[],[],"[(1110, 863)]",[],[1],[122],[2.033333333333333],"[640.0, 512.0]",vertical,"(890.0, 762.0)",[1.35],[0.574],1,2611.511
7,False,364,1.487,89,[],[],"[(1118, 884)]",[],[1],[122],[2.033333333333333],"[640.0, 512.0]",vertical,"(890.0, 762.0)",[1.1166666666666667],[0.526],1,2616.338
7,False,365,1.246,74,[],[],"[(1099, 879)]",[],[1],[111],[1.8499999999999999],"[640.0, 512.0]",horizontal,"(890.0, 262.0)",[0.9666666666666667],[0.592],1,2620.926
7,False,366,0.518,31,[],[],"[(1123, 875)]",[],[1],[81],[1.35],"[640.0, 512.0]",horizontal,"(390.0, 262.0)",[0.9333333333333333],[0.804],0,2625.2
7,False,367,1.223,73,[],[],"[(1153, 889)]",[],[1],[101],[1.6833333333333333],"[640.0, 512.0]",horizontal,"(890.0, 262.0)",[1.3],[0.443],1,2628.915
7,False,368,0.766,45,[],[],"[(1081, 881)]",[],[1],[77],[1.2833333333333332],"[640.0, 512.0]",vertical,"(390.0, 262.0)",[0.9833333333333333],[0.508],1,2633.409
7,False,369,0.346,20,[],[],"[(1099, 886)]",[],[1],[54],[0.9],"[640.0, 512.0]",vertical,"(390.0, 762.0)",[0.8166666666666667],[0.544],1,2637.172
7,False,370,1.428,85,[],[],"[(1097, 898)]",[],[1],[116],[1.9333333333333333],"[640.0, 512.0]",horizontal,"(390.0, 762.0)",[1.25],[0.496],1,2640.384
7,False,371,0.845,50,[],[],"[(1104, 887)]",[],[1],[84],[1.4],"[640.0, 512.0]",horizontal,"(390.0, 262.0)",[0.9166666666666666],[0.537],1,2645.043
7,False,372,0.961,57,[],[],"[(1109, 875)]",[],[1],[89],[1.4833333333333334],"[640.0, 512.0]",horizontal,"(390.0, 762.0)",[1.6666666666666667],[0.514],1,2648.901
7,False,373,0.309,18,[],[],"[(1097, 863)]",[],[1],[52],[0.8666666666666667],"[640.0, 512.0]",horizontal,"(890.0, 762.0)",[1.3833333333333333],[0.538],1,2653.512
7,False,374,0.429,25,[],[],"[(1118, 884)]",[],[1],[58],[0.9666666666666667],"[640.0, 512.0]",vertical,"(390.0, 762.0)",[1.6333333333333333],[0.519],1,2657.243
7,False,375,0.727,43,[],[],"[(1081, 875)]",[],[1],[79],[1.3166666666666667],"[640.0, 512.0]",horizontal,"(390.0, 262.0)",[1.0666666666666667],[0.579],1,2661.294
7,False,376,1.004,60,[],[],"[(1093, 892)]",[],[1],[97],[1.6166666666666667],"[640.0, 512.0]",horizontal,"(890.0, 762.0)",[1.4833333333333334],[0.592],1,2665.169
7,False,377,1.273,76,[],[],"[(1072, 897)]",[],[1],[114],[1.9],"[640.0, 512.0]",horizontal,"(390.0, 762.0)",[0.8666666666666667],[0.607],1,2669.745
7,False,378,1.273,76,[],[],"[(1089, 885)]",[],[1],[109],[1.8166666666666667],"[640.0, 512.0]",vertical,"(890.0, 762.0)",[0.9],[0.525],1,2674.029
7,False,379,0.621,37,[],[],"[(1112, 880)]",[],[1],[76],[1.2666666666666666],"[640.0, 512.0]",horizontal,"(390.0, 262.0)",[0.5],[0.619],1,2678.256
7,False,380,0.439,26,[],[],"[(1080, 889)]",[],[1],[58],[0.9666666666666667],"[640.0, 512.0]",vertical,"(390.0, 762.0)",[1.5833333333333333],[0.506],1,2681.5
7,False,381,1.345,80,[],[],"[(1098, 889)]",[],[1],[112],[1.8666666666666667],"[640.0, 512.0]",horizontal,"(390.0, 762.0)",[0.9333333333333333],[0.507],1,2685.524
7,False,382,0.751,45,[],[],"[(1086, 884)]",[],[1],[83],[1.3833333333333333],"[640.0, 512.0]",horizontal,"(890.0, 762.0)",[1.6666666666666667],[0.604],1,2689.791
7,False,383,1.258,75,[],[],"[(1095, 871)]",[],[1],[109],[1.8166666666666667],"[640.0, 512.0]",vertical,"(390.0, 762.0)",[1.5666666666666667],[0.54],1,2694.381
7,False,384,1.419,85,[],[],"[(1090, 880)]",[],[1],[122],[2.033333333333333],"[640.0, 512.0]",vertical,"(390.0, 262.0)",[0.65],[0.59],1,2699.233
7,False,385,1.447,86,[],[],"[(1099, 884)]",[],[1],[117],[1.95],"[640.0, 512.0]",vertical,"(890.0, 762.0)",[1.4333333333333333],[0.485],1,2703.384
7,False,386,0.647,38,[],[],"[(1110, 870)]",[],[1],[40],[0.6666666666666666],"[640.0, 512.0]",horizontal,"(390.0, 262.0)",[1.45],[0.02],1,2708.24
7,False,387,1.055,63,[],[],"[(1112, 893)]",[],[1],[100],[1.6666666666666667],"[640.0, 512.0]",vertical,"(890.0, 762.0)",[1.5333333333333332],[0.587],1,2711.815
7,False,388,0.57,34,[],[],"[(1112, 880)]",[],[1],[68],[1.1333333333333333],"[640.0, 512.0]",horizontal,"(390.0, 262.0)",[0.8166666666666667],[0.537],1,2716.518
7,False,389,1.158,69,[],[],"[(1105, 888)]",[],[1],[81],[1.35],"[640.0, 512.0]",vertical,"(390.0, 262.0)",[1.2333333333333334],[0.184],1,2719.944
7,False,390,0.848,50,[],[],"[(1104, 887)]",[],[1],[89],[1.4833333333333334],"[640.0, 512.0]",horizontal,"(890.0, 262.0)",[0.6666666666666666],[0.626],1,2724.511
7,False,391,1.338,80,[],[],"[(1103, 890)]",[],[1],[113],[1.8833333333333333],"[640.0, 512.0]",horizontal,"(890.0, 762.0)",[0.6],[0.523],1,2728.131
7,False,392,1.412,84,[],[],"[(1099, 899)]",[],[1],[],[],"[640.0, 512.0]",vertical,"(890.0, 262.0)",[],[0],0,2732.1
7,False,393,1.331,79,[],[],"[(1093, 894)]",[],[1],[84],[1.4],"[640.0, 512.0]",horizontal,"(390.0, 262.0)",[1.0333333333333332],[0.068],1,2735.876
7,False,394,0.983,58,[],[],"[(1093, 881)]",[],[1],[66],[1.1],"[640.0, 512.0]",vertical,"(890.0, 262.0)",[1.3833333333333333],[0.114],1,2739.81
7,False,395,0.83,49,[],[],"[(1130, 893)]",[],[1],[81],[1.35],"[640.0, 512.0]",vertical,"(890.0, 262.0)",[0.7666666666666666],[0.506],1,2743.832
7,False,396,1.254,75,[],[],"[(1107, 901)]",[],[1],[110],[1.8333333333333333],"[640.0, 512.0]",horizontal,"(890.0, 762.0)",[0.95],[0.565],1,2747.404
7,False,397,0.439,26,[],[],"[(1099, 886)]",[],[1],[59],[0.9833333333333333],"[640.0, 512.0]",vertical,"(890.0, 762.0)",[1.4333333333333333],[0.527],1,2767.3
7,False,398,1.291,77,[],[],"[(1104, 884)]",[],[1],[110],[1.8333333333333333],"[640.0, 512.0]",vertical,"(890.0, 762.0)",[1.3833333333333333],[0.521],1,2771.201
7,False,399,1.297,77,[],[],"[(1076, 878)]",[],[1],[111],[1.8499999999999999],"[640.0, 512.0]",vertical,"(390.0, 262.0)",[0.8666666666666667],[0.544],1,2775.893
7,False,400,1.301,78,[],[],"[(1079, 880)]",[],[1],[111],[1.8499999999999999],"[640.0, 512.0]",horizontal,"(390.0, 762.0)",[0.6166666666666667],[0.525],1,2780.112
7,False,401,1.01,60,[],[],"[(1087, 894)]",[],[1],[92],[1.5333333333333332],"[640.0, 512.0]",vertical,"(390.0, 262.0)",[0.8833333333333333],[0.508],1,2784.054
7,False,402,1.196,71,[],[],"[(1082, 867)]",[],[1],[111],[1.8499999999999999],"[640.0, 512.0]",vertical,"(390.0, 262.0)",[0.65],[0.637],1,2787.959
7,False,403,0.387,23,[],[],"[(1077, 873)]",[],[1],[56],[0.9333333333333333],"[640.0, 512.0]",vertical,"(390.0, 762.0)",[0.6166666666666667],[0.526],1,2791.984
7,False,404,1.321,79,[],[],"[(1077, 886)]",[],[1],[119],[1.9833333333333334],"[640.0, 512.0]",horizontal,"(390.0, 262.0)",[1.1833333333333333],[0.637],1,2795.035
7,False,405,1.401,84,[],[],"[(1099, 877)]",[],[1],[115],[1.9166666666666667],"[640.0, 512.0]",vertical,"(890.0, 762.0)",[0.6],[0.492],1,2799.67
7,False,406,1.211,72,[],[],"[(1084, 890)]",[],[1],[105],[1.75],"[640.0, 512.0]",horizontal,"(390.0, 762.0)",[1.15],[0.524],1,2803.754
7,False,407,1.083,64,[],[],"[(1105, 880)]",[],[1],[97],[1.6166666666666667],"[640.0, 512.0]",horizontal,"(890.0, 262.0)",[0.9833333333333333],[0.525],1,2808.151
7,False,408,1.208,72,[],[],"[(1108, 867)]",[],[1],[91],[1.5166666666666666],"[640.0, 512.0]",vertical,"(890.0, 262.0)",[1.2333333333333334],[0.294],1,2812.245
7,False,409,0.9,54,[],[],"[(1090, 879)]",[],[1],[87],[1.45],"[640.0, 512.0]",vertical,"(890.0, 762.0)",[0.7],[0.525],1,2816.499
7,False,410,1.353,81,[],[],"[(1094, 867)]",[],[1],[115],[1.9166666666666667],"[640.0, 512.0]",horizontal,"(390.0, 262.0)",[1.1166666666666667],[0.541],1,2820.168
7,False,411,0.336,20,[],[],"[(1093, 875)]",[],[1],[51],[0.85],"[640.0, 512.0]",horizontal,"(390.0, 262.0)",[0.7333333333333333],[0.508],1,2824.804
7,False,412,0.984,59,[],[],"[(1103, 881)]",[],[1],[105],[1.75],"[640.0, 512.0]",vertical,"(890.0, 762.0)",[1.5333333333333332],[0.738],1,2827.922
7,False,413,0.609,36,[],[],"[(1099, 878)]",[],[1],[67],[1.1166666666666667],"[640.0, 512.0]",horizontal,"(390.0, 762.0)",[0.8166666666666667],[0.492],1,2832.692
7,False,414,0.612,36,[],[],"[(1087, 875)]",[],[1],[72],[1.2],"[640.0, 512.0]",horizontal,"(390.0, 762.0)",[1.45],[0.575],1,2836.216
7,False,415,1.012,60,[],[],"[(1087, 891)]",[],[1],[93],[1.55],"[640.0, 512.0]",horizontal,"(390.0, 762.0)",[1.3],[0.52],1,2840.328
7,False,416,1.134,68,[],[],"[(1091, 876)]",[],[1],[100],[1.6666666666666667],"[640.0, 512.0]",horizontal,"(890.0, 262.0)",[1.2166666666666666],[0.506],1,2844.78
7,False,417,0.343,20,[],[],"[(1087, 856)]",[],[1],[58],[0.9666666666666667],"[640.0, 512.0]",horizontal,"(390.0, 762.0)",[1.1166666666666667],[0.604],1,2849.108
7,False,418,1.442,86,[],[],"[(1082, 898)]",[],[1],[120],[2.0],"[640.0, 512.0]",vertical,"(390.0, 262.0)",[1.2],[0.542],1,2854.16
7,False,419,0.944,56,[],[],"[(1087, 900)]",[],[1],[106],[1.7666666666666666],"[640.0, 512.0]",horizontal,"(890.0, 762.0)",[0.9666666666666667],[0.799],0,2858.999
7,False,420,1.345,80,[],[],"[(1128, 870)]",[],[1],[114],[1.9],"[640.0, 512.0]",vertical,"(390.0, 262.0)",[0.9],[0.539],1,2863.319
8,False,421,0.955,57,[],[],"[(1099, 867)]",[],[1],[93],[1.55],"[640.0, 512.0]",horizontal,"(890.0, 262.0)",[0.5],[0.57],1,2867.647
8,False,422,0.5,30,[],[],"[(1087, 889)]",[],[1],[65],[1.0833333333333333],"[640.0, 512.0]",vertical,"(390.0, 762.0)",[1.35],[0.555],1,2871.144
8,False,423,1.433,85,[],[],"[(1108, 894)]",[],[1],[121],[2.0166666666666666],"[640.0, 512.0]",vertical,"(390.0, 762.0)",[1.6666666666666667],[0.572],1,2875.135
8,False,424,1.145,68,[],[],"[(1092, 873)]",[],[1],[107],[1.7833333333333332],"[640.0, 512.0]",vertical,"(890.0, 762.0)",[1.5],[0.618],1,2880.277
8,False,425,1.122,67,[],[],"[(1099, 894)]",[],[1],[99],[1.65],"[640.0, 512.0]",vertical,"(890.0, 262.0)",[0.8333333333333334],[0.504],1,2885.861
8,False,426,1.034,62,[],[],"[(1067, 869)]",[],[1],[95],[1.5833333333333333],"[640.0, 512.0]",vertical,"(890.0, 762.0)",[0.8666666666666667],[0.522],1,2889.916
8,False,427,1.009,60,[],[],"[(1111, 880)]",[],[1],[102],[1.7],"[640.0, 512.0]",vertical,"(390.0, 762.0)",[0.5166666666666666],[0.669],1,2893.891
8,False,428,0.394,23,[],[],"[(1085, 886)]",[],[1],[60],[1.0],"[640.0, 512.0]",vertical,"(890.0, 262.0)",[0.5333333333333333],[0.59],1,2897.6
8,False,429,1.323,79,[],[],"[(1059, 904)]",[],[1],[111],[1.8499999999999999],"[640.0, 512.0]",vertical,"(390.0, 262.0)",[1.6333333333333333],[0.508],1,2946.95
8,False,430,1.495,89,[],[],"[(1070, 879)]",[],[1],[123],[2.05],"[640.0, 512.0]",vertical,"(890.0, 762.0)",[1.5833333333333333],[0.537],1,2951.951
8,False,431,1.138,68,[],[],"[(1091, 870)]",[],[1],[101],[1.6833333333333333],"[640.0, 512.0]",horizontal,"(890.0, 262.0)",[1.5333333333333332],[0.528],1,2957.052
8,False,432,0.565,33,[],[],"[(1076, 891)]",[],[1],[80],[1.3333333333333333],"[640.0, 512.0]",vertical,"(890.0, 762.0)",[1.4166666666666667],[0.752],1,2961.726
8,False,433,1.471,88,[],[],"[(1070, 893)]",[],[1],[121],[2.0166666666666666],"[640.0, 512.0]",vertical,"(890.0, 262.0)",[0.9],[0.523],1,2965.922
8,False,434,1.207,72,[],[],"[(1081, 903)]",[],[1],[104],[1.7333333333333334],"[640.0, 512.0]",horizontal,"(390.0, 262.0)",[0.7],[0.504],1,2970.685
8,False,435,1.357,81,[],[],"[(1066, 867)]",[],[1],[115],[1.9166666666666667],"[640.0, 512.0]",horizontal,"(390.0, 262.0)",[1.0333333333333332],[0.54],1,2974.763
8,False,436,1.01,60,[],[],"[(1101, 877)]",[],[1],[99],[1.65],"[640.0, 512.0]",horizontal,"(890.0, 262.0)",[1.1],[0.619],1,2979.235
8,False,437,1.377,82,[],[],"[(1120, 863)]",[],[1],[117],[1.95],"[640.0, 512.0]",horizontal,"(890.0, 762.0)",[0.65],[0.558],1,2983.432
8,False,438,0.354,21,[],[],"[(1098, 885)]",[],[1],[58],[0.9666666666666667],"[640.0, 512.0]",horizontal,"(390.0, 262.0)",[1.1666666666666667],[0.59],1,2987.601
8,False,439,0.743,44,[],[],"[(1102, 866)]",[],[1],[77],[1.2833333333333332],"[640.0, 512.0]",vertical,"(890.0, 762.0)",[0.6666666666666666],[0.528],1,2991.244
8,False,440,1.246,74,[],[],"[(1087, 896)]",[],[1],[109],[1.8166666666666667],"[640.0, 512.0]",horizontal,"(890.0, 262.0)",[0.7166666666666667],[0.561],1,2994.692
8,False,441,1.011,60,[],[],"[(1085, 903)]",[],[1],[],[],"[640.0, 512.0]",horizontal,"(890.0, 262.0)",[],[0],0,2998.715
8,False,442,0.917,55,[],[],"[(1091, 873)]",[],[1],[105],[1.75],"[640.0, 512.0]",vertical,"(890.0, 762.0)",[1.6666666666666667],[0.804],0,3002.311
8,False,443,1.07,64,[],[],"[(1087, 888)]",[],[1],[97],[1.6166666666666667],"[640.0, 512.0]",horizontal,"(390.0, 762.0)",[0.7166666666666667],[0.526],1,3007.396
8,False,444,0.791,47,[],[],"[(1084, 914)]",[],[1],[97],[1.6166666666666667],"[640.0, 512.0]",horizontal,"(890.0, 762.0)",[0.9333333333333333],[0.794],0,3012.101
8,False,445,0.334,20,[],[],"[(1126, 875)]",[],[1],[52],[0.8666666666666667],"[640.0, 512.0]",vertical,"(890.0, 762.0)",[0.6166666666666667],[0.508],1,3016.269
8,False,446,1.124,67,[],[],"[(1080, 879)]",[],[1],[100],[1.6666666666666667],"[640.0, 512.0]",horizontal,"(890.0, 762.0)",[1.5333333333333332],[0.522],1,3019.328
8,False,447,0.522,31,[],[],"[(1093, 875)]",[],[1],[55],[0.9166666666666666],"[640.0, 512.0]",vertical,"(390.0, 262.0)",[1.65],[0.379],1,3023.958
8,False,448,0.583,34,[],[],"[(1111, 889)]",[],[1],[70],[1.1666666666666667],"[640.0, 512.0]",horizontal,"(390.0, 262.0)",[1.1833333333333333],[0.573],1,3027.994
8,False,449,0.871,52,[],[],"[(1124, 881)]",[],[1],[87],[1.45],"[640.0, 512.0]",horizontal,"(390.0, 762.0)",[1.2666666666666666],[0.554],1,3031.828
8,False,450,0.91,54,[],[],"[(1115, 880)]",[],[1],[87],[1.45],"[640.0, 512.0]",vertical,"(390.0, 762.0)",[1.6166666666666667],[0.525],1,3036.758
8,False,451,0.492,29,[],[],"[(1108, 891)]",[],[1],[62],[1.0333333333333332],"[640.0, 512.0]",horizontal,"(390.0, 762.0)",[0.55],[0.523],1,3041.304
8,False,452,1.48,88,[],[],"[(1081, 881)]",[],[1],[121],[2.0166666666666666],"[640.0, 512.0]",vertical,"(890.0, 762.0)",[1.25],[0.524],1,3044.425
8,False,453,1.178,70,[],[],"[(1111, 886)]",[],[1],[100],[1.6666666666666667],"[640.0, 512.0]",horizontal,"(390.0, 762.0)",[0.6166666666666667],[0.48],1,3049.159
8,False,454,0.87,52,[],[],"[(1102, 879)]",[],[1],[88],[1.4666666666666666],"[640.0, 512.0]",vertical,"(890.0, 762.0)",[1.5833333333333333],[0.577],1,3052.918
8,False,455,0.877,52,[],[],"[(1091, 869)]",[],[1],[91],[1.5166666666666666],"[640.0, 512.0]",horizontal,"(390.0, 762.0)",[0.5833333333333334],[0.629],1,3057.445
8,False,456,0.449,26,[],[],"[(1093, 889)]",[],[1],[57],[0.95],"[640.0, 512.0]",vertical,"(890.0, 262.0)",[1.5833333333333333],[0.494],1,3061.021
8,False,457,0.359,21,[],[],"[(1096, 880)]",[],[1],[55],[0.9166666666666666],"[640.0, 512.0]",horizontal,"(890.0, 762.0)",[1.55],[0.538],1,3065.021
8,False,458,0.803,48,[],[],"[(1091, 889)]",[],[1],[82],[1.3666666666666667],"[640.0, 512.0]",horizontal,"(390.0, 762.0)",[0.6666666666666666],[0.544],1,3069.002
8,False,459,0.559,33,[],[],"[(1117, 886)]",[],[1],[68],[1.1333333333333333],"[640.0, 512.0]",horizontal,"(390.0, 762.0)",[1.6666666666666667],[0.561],1,3072.569
8,False,460,1.292,77,[],[],"[(1109, 900)]",[],[1],[112],[1.8666666666666667],"[640.0, 512.0]",horizontal,"(390.0, 762.0)",[0.9],[0.555],1,3076.984
8,False,461,0.354,21,[],[],"[(1087, 883)]",[],[1],[52],[0.8666666666666667],"[640.0, 512.0]",vertical,"(890.0, 762.0)",[1.45],[0.493],1,3081.332
8,False,462,0.776,46,[],[],"[(1094, 868)]",[],[1],[79],[1.3166666666666667],"[640.0, 512.0]",horizontal,"(890.0, 262.0)",[1.0],[0.52],1,3085.182
8,False,463,0.802,48,[],[],"[(1089, 873)]",[],[1],[81],[1.35],"[640.0, 512.0]",horizontal,"(390.0, 262.0)",[1.2666666666666666],[0.523],1,3089.063
8,False,464,1.258,75,[],[],"[(1096, 890)]",[],[1],[109],[1.8166666666666667],"[640.0, 512.0]",horizontal,"(390.0, 262.0)",[1.65],[0.54],1,3093.179
8,False,465,0.368,22,[],[],"[(1121, 906)]",[],[1],[54],[0.9],"[640.0, 512.0]",horizontal,"(390.0, 762.0)",[0.55],[0.509],1,3098.137
8,False,466,0.928,55,[],[],"[(1085, 862)]",[],[1],[79],[1.3166666666666667],"[640.0, 512.0]",horizontal,"(390.0, 262.0)",[1.4333333333333333],[0.375],1,3101.151
8,False,467,0.792,47,[],[],"[(1102, 910)]",[],[1],[77],[1.2833333333333332],"[640.0, 512.0]",horizontal,"(390.0, 262.0)",[1.0166666666666666],[0.476],1,3105.432
8,False,468,1.033,61,[],[],"[(1075, 882)]",[],[1],[94],[1.5666666666666667],"[640.0, 512.0]",vertical,"(390.0, 262.0)",[1.3833333333333333],[0.525],1,3109.351
8,False,469,0.753,45,[],[],"[(1089, 886)]",[],[1],[83],[1.3833333333333333],"[640.0, 512.0]",vertical,"(390.0, 262.0)",[0.75],[0.608],1,3114.168
8,False,470,0.902,54,[],[],"[(1099, 880)]",[],[1],[87],[1.45],"[640.0, 512.0]",vertical,"(890.0, 762.0)",[1.6833333333333333],[0.53],1,3117.861
8,False,471,0.59,35,[],[],"[(1099, 878)]",[],[1],[71],[1.1833333333333333],"[640.0, 512.0]",vertical,"(890.0, 762.0)",[0.75],[0.578],1,3122.501
8,False,472,1.376,82,[],[],"[(1093, 889)]",[],[1],[87],[1.45],"[640.0, 512.0]",horizontal,"(890.0, 262.0)",[1.2666666666666666],[0.07],1,3125.951
8,False,473,0.397,23,[],[],"[(1086, 892)]",[],[1],[56],[0.9333333333333333],"[640.0, 512.0]",horizontal,"(890.0, 762.0)",[0.9],[0.53],1,3130.182
8,False,474,0.408,24,[],[],"[(1093, 891)]",[],[1],[59],[0.9833333333333333],"[640.0, 512.0]",horizontal,"(890.0, 762.0)",[0.5333333333333333],[0.559],1,3133.595
8,False,475,1.473,88,[],[],"[(1105, 894)]",[],[1],[122],[2.033333333333333],"[640.0, 512.0]",horizontal,"(890.0, 262.0)",[0.9333333333333333],[0.541],1,3136.615
8,False,476,0.936,56,[],[],"[(1093, 890)]",[],[1],[86],[1.4333333333333333],"[640.0, 512.0]",vertical,"(390.0, 262.0)",[0.9666666666666667],[0.478],1,3141.07
8,False,477,0.819,49,[],[],"[(1098, 880)]",[],[1],[83],[1.3833333333333333],"[640.0, 512.0]",horizontal,"(890.0, 762.0)",[0.5166666666666666],[0.535],1,3144.981
8,False,478,0.823,49,[],[],"[(1093, 868)]",[],[1],[84],[1.4],"[640.0, 512.0]",horizontal,"(890.0, 762.0)",[1.3],[0.566],1,3148.353
8,False,479,0.674,40,[],[],"[(1095, 884)]",[],[1],[74],[1.2333333333333334],"[640.0, 512.0]",vertical,"(390.0, 262.0)",[0.9333333333333333],[0.545],1,3152.538
8,False,480,1.489,89,[],[],"[(1118, 871)]",[],[1],[96],[1.6],"[640.0, 512.0]",horizontal,"(390.0, 262.0)",[1.2666666666666666],[0.099],1,3156.153
9,False,481,1.367,82,[],[],"[(1093, 889)]",[],[1],[115],[1.9166666666666667],"[640.0, 512.0]",vertical,"(390.0, 262.0)",[0.65],[0.523],1,3160.563
9,False,482,0.713,42,[],[],"[(1100, 875)]",[],[1],[86],[1.4333333333333333],"[640.0, 512.0]",vertical,"(390.0, 262.0)",[1.1666666666666667],[0.703],1,3164.694
9,False,483,0.369,22,[],[],"[(1095, 876)]",[],[1],[56],[0.9333333333333333],"[640.0, 512.0]",vertical,"(390.0, 262.0)",[1.0166666666666666],[0.542],1,3168.825
9,False,484,1.328,79,[],[],"[(1112, 876)]",[],[1],[109],[1.8166666666666667],"[640.0, 512.0]",horizontal,"(390.0, 262.0)",[1.3166666666666667],[0.474],1,3172.263
9,False,485,1.353,81,[],[],"[(1096, 870)]",[],[1],[131],[2.183333333333333],"[640.0, 512.0]",vertical,"(390.0, 762.0)",[0.7833333333333333],[0.805],0,3176.884
9,False,486,0.425,25,[],[],"[(1153, 876)]",[],[1],[55],[0.9166666666666666],"[640.0, 512.0]",vertical,"(390.0, 262.0)",[1.5166666666666666],[0.472],1,3181.354
9,False,487,1.414,84,[],[],"[(1084, 883)]",[],[1],[122],[2.033333333333333],"[640.0, 512.0]",horizontal,"(390.0, 762.0)",[1.2],[0.606],1,3185.323
9,False,488,0.337,20,[],[],"[(1080, 899)]",[],[1],[56],[0.9333333333333333],"[640.0, 512.0]",horizontal,"(890.0, 762.0)",[1.3166666666666667],[0.576],1,3190.124
9,False,489,1.028,61,[],[],"[(1117, 897)]",[],[1],[94],[1.5666666666666667],"[640.0, 512.0]",horizontal,"(890.0, 762.0)",[0.75],[0.529],1,3193.919
9,False,490,1.279,76,[],[],"[(1085, 886)]",[],[1],[110],[1.8333333333333333],"[640.0, 512.0]",vertical,"(890.0, 262.0)",[0.85],[0.539],1,3197.735
9,False,491,1.335,80,[],[],"[(1096, 882)]",[],[1],[111],[1.8499999999999999],"[640.0, 512.0]",horizontal,"(390.0, 262.0)",[1.0166666666666666],[0.494],1,3201.874
9,False,492,0.804,48,[],[],"[(1100, 881)]",[],[1],[81],[1.35],"[640.0, 512.0]",horizontal,"(890.0, 262.0)",[1.2],[0.521],1,3206.247
9,False,493,1.088,65,[],[],"[(1091, 875)]",[],[1],[99],[1.65],"[640.0, 512.0]",vertical,"(890.0, 762.0)",[0.6],[0.539],1,3210.313
9,False,494,1.063,63,[],[],"[(1102, 879)]",[],[1],[94],[1.5666666666666667],"[640.0, 512.0]",horizontal,"(390.0, 262.0)",[1.1333333333333333],[0.491],1,3214.063
9,False,495,1.042,62,[],[],"[(1101, 879)]",[],[1],[95],[1.5833333333333333],"[640.0, 512.0]",vertical,"(390.0, 762.0)",[0.95],[0.525],1,3218.286
9,False,496,1.421,85,[],[],"[(1085, 876)]",[],[1],[120],[2.0],"[640.0, 512.0]",vertical,"(390.0, 762.0)",[1.4],[0.556],1,3222.286
9,False,497,0.35,21,[],[],"[(1095, 884)]",[],[1],[52],[0.8666666666666667],"[640.0, 512.0]",vertical,"(390.0, 762.0)",[0.7166666666666667],[0.492],1,3227.151
9,False,498,0.341,20,[],[],"[(1087, 902)]",[],[1],[64],[1.0666666666666667],"[640.0, 512.0]",horizontal,"(390.0, 262.0)",[0.65],[0.711],1,3230.245
9,False,499,1.416,84,[],[],"[(1081, 896)]",[],[1],[128],[2.1333333333333333],"[640.0, 512.0]",horizontal,"(890.0, 762.0)",[0.6],[0.71],1,3233.515
9,False,500,0.711,42,[],[],"[(1082, 893)]",[],[1],[75],[1.25],"[640.0, 512.0]",horizontal,"(890.0, 762.0)",[1.3],[0.528],1,3237.732
9,False,501,0.966,57,[],[],"[(1080, 891)]",[],[1],[91],[1.5166666666666666],"[640.0, 512.0]",horizontal,"(390.0, 762.0)",[1.2833333333333332],[0.542],1,3241.841
9,False,502,0.627,37,[],[],"[(1093, 870)]",[],[1],[75],[1.25],"[640.0, 512.0]",horizontal,"(390.0, 762.0)",[0.7333333333333333],[0.607],1,3246.147
9,False,503,1.226,73,[],[],"[(1080, 898)]",[],[1],[110],[1.8333333333333333],"[640.0, 512.0]",horizontal,"(890.0, 262.0)",[0.7833333333333333],[0.593],1,3249.618
9,False,504,0.875,52,[],[],"[(1063, 886)]",[],[1],[90],[1.5],"[640.0, 512.0]",horizontal,"(890.0, 762.0)",[1.2333333333333334],[0.61],1,3253.75
9,False,505,1.129,67,[],[],"[(1087, 865)]",[],[1],[107],[1.7833333333333332],"[640.0, 512.0]",vertical,"(390.0, 762.0)",[0.65],[0.639],1,3257.998
9,False,506,1.469,88,[],[],"[(1089, 869)]",[],[1],[],[],"[640.0, 512.0]",vertical,"(390.0, 262.0)",[],[0],0,3262.027
9,False,507,0.535,32,[],[],"[(1091, 855)]",[],[1],[77],[1.2833333333333332],"[640.0, 512.0]",horizontal,"(390.0, 262.0)",[1.6833333333333333],[0.721],1,3266.32
9,False,508,0.667,40,[],[],"[(1051, 883)]",[],[1],[75],[1.25],"[640.0, 512.0]",horizontal,"(890.0, 762.0)",[1.5666666666666667],[0.559],1,3272.047
9,False,509,0.403,24,[],[],"[(1116, 870)]",[],[1],[61],[1.0166666666666666],"[640.0, 512.0]",horizontal,"(390.0, 262.0)",[0.8666666666666667],[0.585],1,3276.406
9,False,510,0.791,47,[],[],"[(1093, 877)]",[],[1],[76],[1.2666666666666666],"[640.0, 512.0]",horizontal,"(890.0, 262.0)",[0.6833333333333333],[0.461],1,3311.836
9,False,511,1.032,61,[],[],"[(1089, 871)]",[],[1],[94],[1.5666666666666667],"[640.0, 512.0]",horizontal,"(890.0, 762.0)",[1.0833333333333333],[0.525],1,3315.304
9,False,512,0.368,22,[],[],"[(1093, 876)]",[],[1],[61],[1.0166666666666666],"[640.0, 512.0]",horizontal,"(890.0, 262.0)",[1.0333333333333332],[0.619],1,3319.429
9,False,513,1.444,86,[],[],"[(1135, 900)]",[],[1],[92],[1.5333333333333332],"[640.0, 512.0]",horizontal,"(890.0, 262.0)",[1.45],[0.085],1,3323.295
9,False,514,1.409,84,[],[],"[(1087, 889)]",[],[1],[104],[1.7333333333333334],"[640.0, 512.0]",horizontal,"(890.0, 262.0)",[1.05],[0.318],1,3327.77
9,False,515,0.661,39,[],[],"[(1106, 896)]",[],[1],[76],[1.2666666666666666],"[640.0, 512.0]",horizontal,"(390.0, 762.0)",[1.25],[0.59],1,3332.081
9,False,516,0.783,46,[],[],"[(1094, 889)]",[],[1],[79],[1.3166666666666667],"[640.0, 512.0]",horizontal,"(390.0, 262.0)",[0.65],[0.523],1,3336.144
9,False,517,0.817,49,[],[],"[(1087, 870)]",[],[1],[84],[1.4],"[640.0, 512.0]",vertical,"(390.0, 262.0)",[0.7],[0.559],1,3339.57
9,False,518,1.15,69,[],[],"[(1098, 898)]",[],[1],[102],[1.7],"[640.0, 512.0]",vertical,"(890.0, 762.0)",[1.4333333333333333],[0.523],1,3343.158
9,False,519,1.378,82,[],[],"[(1098, 875)]",[],[1],[117],[1.95],"[640.0, 512.0]",vertical,"(390.0, 762.0)",[1.0166666666666666],[0.554],1,3347.849
9,False,520,0.999,59,[],[],"[(1097, 885)]",[],[1],[96],[1.6],"[640.0, 512.0]",horizontal,"(390.0, 762.0)",[1.2166666666666666],[0.591],1,3352.287
9,False,521,1.434,86,[],[],"[(1086, 867)]",[],[1],[],[],"[640.0, 512.0]",vertical,"(890.0, 262.0)",[],[0],0,3356.597
9,False,522,0.392,23,[],[],"[(1136, 879)]",[],[1],[54],[0.9],"[640.0, 512.0]",vertical,"(390.0, 262.0)",[1.3833333333333333],[0.494],1,3361.138
9,False,523,0.579,34,[],[],"[(1092, 885)]",[],[1],[69],[1.15],"[640.0, 512.0]",vertical,"(390.0, 262.0)",[0.5],[0.568],1,3364.934
9,False,524,0.564,33,[],[],"[(1131, 885)]",[],[1],[64],[1.0666666666666667],"[640.0, 512.0]",vertical,"(390.0, 262.0)",[1.4666666666666666],[0.493],1,3368.163
9,False,525,0.932,55,[],[],"[(1090, 880)]",[],[1],[89],[1.4833333333333334],"[640.0, 512.0]",vertical,"(390.0, 262.0)",[0.85],[0.54],1,3372.144
9,False,526,1.289,77,[],[],"[(1122, 884)]",[],[1],[109],[1.8166666666666667],"[640.0, 512.0]",vertical,"(890.0, 762.0)",[0.9],[0.506],1,3376.003
9,False,527,0.467,28,[],[],"[(1106, 889)]",[],[1],[64],[1.0666666666666667],"[640.0, 512.0]",vertical,"(390.0, 262.0)",[0.6166666666666667],[0.57],1,3380.182
9,False,528,0.87,52,[],[],"[(1103, 890)]",[],[1],[88],[1.4666666666666666],"[640.0, 512.0]",horizontal,"(890.0, 762.0)",[0.6166666666666667],[0.574],1,3383.369
9,False,529,1.217,73,[],[],"[(1099, 878)]",[],[1],[120],[2.0],"[640.0, 512.0]",horizontal,"(890.0, 762.0)",[1.4333333333333333],[0.752],1,3386.956
9,False,530,0.815,48,[],[],"[(1093, 873)]",[],[1],[80],[1.3333333333333333],"[640.0, 512.0]",vertical,"(890.0, 262.0)",[1.0833333333333333],[0.508],1,3391.817
9,False,531,0.622,37,[],[],"[(1122, 885)]",[],[1],[87],[1.45],"[640.0, 512.0]",horizontal,"(890.0, 762.0)",[1.2833333333333332],[0.802],0,3395.736
9,False,532,0.301,18,[],[],"[(1168, 867)]",[],[1],[49],[0.8166666666666667],"[640.0, 512.0]",horizontal,"(390.0, 762.0)",[0.7666666666666666],[0.491],1,3399.906
9,False,533,0.455,27,[],[],"[(1121, 890)]",[],[1],[64],[1.0666666666666667],"[640.0, 512.0]",horizontal,"(890.0, 262.0)",[0.8166666666666667],[0.59],1,3402.983
9,False,534,1.076,64,[],[],"[(1103, 891)]",[],[1],[74],[1.2333333333333334],"[640.0, 512.0]",vertical,"(390.0, 262.0)",[0.8166666666666667],[0.149],1,3406.382
9,False,535,0.696,41,[],[],"[(1127, 877)]",[],[1],[68],[1.1333333333333333],"[640.0, 512.0]",horizontal,"(390.0, 762.0)",[0.75],[0.43],1,3409.931
9,False,536,0.437,26,[],[],"[(1089, 893)]",[],[1],[70],[1.1666666666666667],"[640.0, 512.0]",horizontal,"(390.0, 262.0)",[0.7666666666666666],[0.71],1,3413.354
9,False,537,0.657,39,[],[],"[(1112, 880)]",[],[1],[45],[0.75],"[640.0, 512.0]",vertical,"(390.0, 262.0)",[1.1833333333333333],[0.083],1,3416.771
9,False,538,0.977,58,[],[],"[(1095, 889)]",[],[1],[90],[1.5],"[640.0, 512.0]",vertical,"(390.0, 762.0)",[1.4666666666666666],[0.515],1,3420.221
9,False,539,1.262,75,[],[],"[(1096, 895)]",[],[1],[115],[1.9166666666666667],"[640.0, 512.0]",vertical,"(390.0, 262.0)",[0.7833333333333333],[0.638],1,3424.67
9,False,540,0.346,20,[],[],"[(1107, 881)]",[],[1],[56],[0.9333333333333333],"[640.0, 512.0]",vertical,"(890.0, 762.0)",[1.4833333333333334],[0.572],1,3428.865
10,False,541,0.908,54,[],[],"[(1112, 884)]",[],[1],[88],[1.4666666666666666],"[640.0, 512.0]",horizontal,"(390.0, 262.0)",[0.9333333333333333],[0.539],1,3432.814
10,False,542,0.554,33,[],[],"[(1106, 896)]",[],[1],[76],[1.2666666666666666],"[640.0, 512.0]",vertical,"(890.0, 762.0)",[1.5833333333333333],[0.688],1,3436.689
10,False,543,0.931,55,[],[],"[(1117, 885)]",[],[1],[88],[1.4666666666666666],"[640.0, 512.0]",vertical,"(890.0, 262.0)",[1.3666666666666667],[0.534],1,3440.999
10,False,544,1.219,73,[],[],"[(1083, 880)]",[],[1],[103],[1.7166666666666666],"[640.0, 512.0]",vertical,"(890.0, 262.0)",[1.0833333333333333],[0.483],1,3445.294
10,False,545,0.374,22,[],[],"[(1082, 875)]",[],[1],[53],[0.8833333333333333],"[640.0, 512.0]",horizontal,"(390.0, 762.0)",[1.0833333333333333],[0.491],1,3449.584
10,False,546,1.28,76,[],[],"[(1116, 875)]",[],[1],[108],[1.8],"[640.0, 512.0]",vertical,"(890.0, 262.0)",[1.2833333333333332],[0.505],1,3453.084
10,False,547,1.378,82,[],[],"[(1098, 865)]",[],[1],[117],[1.95],"[640.0, 512.0]",vertical,"(390.0, 762.0)",[0.5166666666666666],[0.552],1,3457.62
10,False,548,1.076,64,[],[],"[(1088, 878)]",[],[1],[114],[1.9],"[640.0, 512.0]",vertical,"(890.0, 262.0)",[1.0833333333333333],[0.805],0,3461.62
10,False,549,0.705,42,[],[],"[(1112, 884)]",[],[1],[75],[1.25],"[640.0, 512.0]",vertical,"(890.0, 762.0)",[1.05],[0.526],1,3466.103
10,False,550,1.129,67,[],[],"[(1112, 875)]",[],[1],[97],[1.6166666666666667],"[640.0, 512.0]",vertical,"(890.0, 262.0)",[1.2666666666666666],[0.478],1,3470.104
10,False,551,0.886,53,[],[],"[(1093, 883)]",[],[1],[91],[1.5166666666666666],"[640.0, 512.0]",vertical,"(890.0, 762.0)",[1.1333333333333333],[0.604],1,3474.438
10,False,552,0.346,20,[],[],"[(1093, 883)]",[],[1],[67],[1.1166666666666667],"[640.0, 512.0]",vertical,"(890.0, 262.0)",[0.65],[0.761],1,3478.555
10,False,553,1.112,66,[],[],"[(1098, 891)]",[],[1],[83],[1.3833333333333333],"[640.0, 512.0]",horizontal,"(890.0, 762.0)",[1.5333333333333332],[0.267],1,3481.838
10,False,554,1.152,69,[],[],"[(1123, 878)]",[],[1],[106],[1.7666666666666666],"[640.0, 512.0]",vertical,"(390.0, 762.0)",[0.65],[0.588],1,3486.226
10,False,555,0.494,29,[],[],"[(1093, 889)]",[],[1],[60],[1.0],"[640.0, 512.0]",vertical,"(890.0, 262.0)",[1.4666666666666666],[0.493],1,3490.191
10,False,556,0.767,46,[],[],"[(1087, 889)]",[],[1],[79],[1.3166666666666667],"[640.0, 512.0]",horizontal,"(390.0, 262.0)",[0.9333333333333333],[0.525],1,3494.135
10,False,557,1.132,67,[],[],"[(1107, 881)]",[],[1],[],[],"[640.0, 512.0]",vertical,"(390.0, 262.0)",[],[0],0,3497.893
10,False,558,1.465,87,[],[],"[(1090, 870)]",[],[1],[117],[1.95],"[640.0, 512.0]",vertical,"(390.0, 762.0)",[1.1333333333333333],[0.48],1,3501.77
10,False,559,0.732,43,[],[],"[(1106, 873)]",[],[1],[77],[1.2833333333333332],"[640.0, 512.0]",horizontal,"(890.0, 762.0)",[0.55],[0.541],1,3506.336
10,False,560,1.13,67,[],[],"[(1105, 896)]",[],[1],[96],[1.6],"[640.0, 512.0]",horizontal,"(390.0, 262.0)",[1.5166666666666666],[0.454],1,3509.68
10,False,561,0.458,27,[],[],"[(1093, 871)]",[],[1],[66],[1.1],"[640.0, 512.0]",horizontal,"(390.0, 762.0)",[0.85],[0.622],1,3514.244
10,False,562,0.791,47,[],[],"[(1091, 896)]",[],[1],[80],[1.3333333333333333],"[640.0, 512.0]",vertical,"(390.0, 762.0)",[1.2666666666666666],[0.518],1,3517.724
10,False,563,0.847,50,[],[],"[(1099, 884)]",[],[1],[80],[1.3333333333333333],"[640.0, 512.0]",vertical,"(390.0, 762.0)",[1.6],[0.475],1,3521.839
10,False,564,1.155,69,[],[],"[(1093, 895)]",[],[1],[92],[1.5333333333333332],"[640.0, 512.0]",vertical,"(390.0, 262.0)",[0.9166666666666666],[0.361],1,3526.255
10,False,565,0.713,42,[],[],"[(1085, 902)]",[],[1],[74],[1.2333333333333334],"[640.0, 512.0]",horizontal,"(390.0, 762.0)",[1.1833333333333333],[0.507],1,3530.229
10,False,566,0.323,19,[],[],"[(1093, 889)]",[],[1],[51],[0.85],"[640.0, 512.0]",vertical,"(890.0, 762.0)",[0.9],[0.509],1,3534.178
10,False,567,0.357,21,[],[],"[(1093, 898)]",[],[1],[56],[0.9333333333333333],"[640.0, 512.0]",horizontal,"(890.0, 762.0)",[0.65],[0.556],1,3537.471
10,False,568,0.829,49,[],[],"[(1087, 885)]",[],[1],[86],[1.4333333333333333],"[640.0, 512.0]",vertical,"(390.0, 762.0)",[1.1833333333333333],[0.587],1,3540.588
10,False,569,1.345,80,[],[],"[(1120, 888)]",[],[1],[],[],"[640.0, 512.0]",horizontal,"(890.0, 262.0)",[],[0],0,3544.701
10,False,570,1.369,82,[],[],"[(1111, 879)]",[],[1],[128],[2.1333333333333333],"[640.0, 512.0]",vertical,"(890.0, 762.0)",[1.4333333333333333],[0.737],1,3548.837
10,False,571,0.719,43,[],[],"[(1109, 881)]",[],[1],[76],[1.2666666666666666],"[640.0, 512.0]",vertical,"(890.0, 762.0)",[1.6],[0.524],1,3553.89
10,False,572,0.848,50,[],[],"[(1093, 901)]",[],[1],[81],[1.35],"[640.0, 512.0]",vertical,"(890.0, 262.0)",[1.25],[0.495],1,3558.2
10,False,573,1.128,67,[],[],"[(1078, 893)]",[],[1],[109],[1.8166666666666667],"[640.0, 512.0]",horizontal,"(390.0, 762.0)",[1.1666666666666667],[0.678],1,3562.295
10,False,574,0.844,50,[],[],"[(1090, 899)]",[],[1],[84],[1.4],"[640.0, 512.0]",horizontal,"(390.0, 262.0)",[1.0333333333333332],[0.54],1,3566.758
10,False,575,1.331,79,[],[],"[(1118, 881)]",[],[1],[102],[1.7],"[640.0, 512.0]",horizontal,"(890.0, 262.0)",[1.2666666666666666],[0.357],1,3570.729
10,False,576,0.564,33,[],[],"[(1110, 879)]",[],[1],[66],[1.1],"[640.0, 512.0]",vertical,"(890.0, 262.0)",[1.05],[0.53],1,3575.138
10,False,577,0.477,28,[],[],"[(1109, 888)]",[],[1],[65],[1.0833333333333333],"[640.0, 512.0]",vertical,"(390.0, 262.0)",[1.2833333333333332],[0.588],1,3579.433
10,False,578,1.495,89,[],[],"[(1080, 881)]",[],[1],[123],[2.05],"[640.0, 512.0]",vertical,"(890.0, 762.0)",[1.2166666666666666],[0.543],1,3583.274
10,False,579,0.96,57,[],[],"[(1101, 900)]",[],[1],[98],[1.6333333333333333],"[640.0, 512.0]",vertical,"(890.0, 762.0)",[0.7166666666666667],[0.647],1,3589.155
10,False,580,0.759,45,[],[],"[(1102, 898)]",[],[1],[76],[1.2666666666666666],"[640.0, 512.0]",vertical,"(390.0, 262.0)",[1.45],[0.491],1,3592.954
10,False,581,0.859,51,[],[],"[(1116, 871)]",[],[1],[83],[1.3833333333333333],"[640.0, 512.0]",vertical,"(890.0, 762.0)",[0.5666666666666667],[0.506],1,3597.137
10,False,582,0.315,18,[],[],"[(1112, 894)]",[],[1],[54],[0.9],"[640.0, 512.0]",vertical,"(390.0, 262.0)",[0.7],[0.578],1,3600.579
10,False,583,1.218,73,[],[],"[(1112, 883)]",[],[1],[105],[1.75],"[640.0, 512.0]",horizontal,"(890.0, 762.0)",[0.7333333333333333],[0.511],1,3603.673
10,False,584,0.62,37,[],[],"[(1105, 897)]",[],[1],[67],[1.1166666666666667],"[640.0, 512.0]",vertical,"(390.0, 262.0)",[1.4833333333333334],[0.469],1,3607.642
10,False,585,0.862,51,[],[],"[(1085, 886)]",[],[1],[90],[1.5],"[640.0, 512.0]",horizontal,"(890.0, 262.0)",[0.8333333333333334],[0.619],1,3611.71
10,False,586,1.066,63,[],[],"[(1101, 897)]",[],[1],[113],[1.8833333333333333],"[640.0, 512.0]",horizontal,"(890.0, 262.0)",[1.0666666666666667],[0.8],0,3615.542
10,False,587,0.676,40,[],[],"[(1122, 866)]",[],[1],[82],[1.3666666666666667],"[640.0, 512.0]",horizontal,"(390.0, 762.0)",[1.6333333333333333],[0.672],1,3619.987
10,False,588,0.631,37,[],[],"[(1091, 884)]",[],[1],[69],[1.15],"[640.0, 512.0]",horizontal,"(390.0, 262.0)",[1.6833333333333333],[0.504],1,3624.471
10,False,589,0.571,34,[],[],"[(1105, 875)]",[],[1],[64],[1.0666666666666667],"[640.0, 512.0]",horizontal,"(390.0, 262.0)",[1.1833333333333333],[0.474],1,3628.777
10,False,590,0.686,41,[],[],"[(1099, 893)]",[],[1],[73],[1.2166666666666666],"[640.0, 512.0]",vertical,"(890.0, 262.0)",[1.1666666666666667],[0.502],1,3632.517
10,False,591,0.986,59,[],[],"[(1108, 884)]",[],[1],[94],[1.5666666666666667],"[640.0, 512.0]",horizontal,"(390.0, 762.0)",[0.6333333333333333],[0.562],1,3636.341
10,False,592,1.392,83,[],[],"[(1098, 886)]",[],[1],[],[],"[640.0, 512.0]",horizontal,"(390.0, 262.0)",[],[0],0,3640.036
10,False,593,0.949,56,[],[],"[(1090, 881)]",[],[1],[90],[1.5],"[640.0, 512.0]",vertical,"(890.0, 762.0)",[0.9833333333333333],[0.544],1,3644.39
10,False,594,0.429,25,[],[],"[(1112, 878)]",[],[1],[71],[1.1833333333333333],"[640.0, 512.0]",horizontal,"(890.0, 262.0)",[1.1],[0.735],1,3648.366
10,False,595,1.309,78,[],[],"[(1100, 883)]",[],[1],[110],[1.8333333333333333],"[640.0, 512.0]",vertical,"(390.0, 262.0)",[0.6666666666666666],[0.504],1,3652.096
10,False,596,1.387,83,[],[],"[(1119, 875)]",[],[1],[115],[1.9166666666666667],"[640.0, 512.0]",horizontal,"(390.0, 762.0)",[0.8166666666666667],[0.506],1,3656.042
10,False,597,1.29,77,[],[],"[(1123, 878)]",[],[1],[83],[1.3833333333333333],"[640.0, 512.0]",vertical,"(390.0, 262.0)",[1.15],[0.084],1,3660.218
10,False,598,1.457,87,[],[],"[(1089, 902)]",[],[1],[114],[1.9],"[640.0, 512.0]",vertical,"(390.0, 262.0)",[1.5166666666666666],[0.425],1,3664.227
10,False,599,0.926,55,[],[],"[(1119, 888)]",[],[1],[96],[1.6],"[640.0, 512.0]",horizontal,"(390.0, 762.0)",[1.6],[0.652],1,3669.249
10,False,600,0.696,41,[],[],"[(1089, 887)]",[],[1],[46],[0.7666666666666666],"[640.0, 512.0]",vertical,"(890.0, 262.0)",[1.6],[0.068],1,3674.505
11,False,601,1.265,75,[],[],"[(1099, 903)]",[],[1],[108],[1.8],"[640.0, 512.0]",horizontal,"(390.0, 262.0)",[0.8666666666666667],[0.525],1,3678.365
11,False,602,0.709,42,[],[],"[(1063, 883)]",[],[1],[83],[1.3833333333333333],"[640.0, 512.0]",vertical,"(890.0, 762.0)",[1.5666666666666667],[0.657],1,3682.532
11,False,603,0.987,59,[],[],"[(1111, 889)]",[],[1],[91],[1.5166666666666666],"[640.0, 512.0]",horizontal,"(390.0, 262.0)",[0.5166666666666666],[0.509],1,3687.005
11,False,604,0.538,32,[],[],"[(1087, 873)]",[],[1],[63],[1.05],"[640.0, 512.0]",horizontal,"(390.0, 762.0)",[0.9666666666666667],[0.491],1,3690.516
11,False,605,1.084,65,[],[],"[(1093, 879)]",[],[1],[97],[1.6166666666666667],"[640.0, 512.0]",vertical,"(390.0, 762.0)",[1.2166666666666666],[0.512],1,3694.067
11,False,606,0.513,30,[],[],"[(1099, 881)]",[],[1],[46],[0.7666666666666666],"[640.0, 512.0]",horizontal,"(390.0, 762.0)",[0.85],[0.246],1,3698.385
11,False,607,0.812,48,[],[],"[(1101, 881)]",[],[1],[81],[1.35],"[640.0, 512.0]",vertical,"(390.0, 762.0)",[1.2333333333333334],[0.519],1,3701.484
11,False,608,0.616,36,[],[],"[(1087, 865)]",[],[1],[68],[1.1333333333333333],"[640.0, 512.0]",vertical,"(390.0, 762.0)",[1.45],[0.507],1,3705.666
11,False,609,0.444,26,[],[],"[(1105, 880)]",[],[1],[59],[0.9833333333333333],"[640.0, 512.0]",horizontal,"(390.0, 262.0)",[1.1666666666666667],[0.525],1,3709.8
11,False,610,0.434,26,[],[],"[(1098, 881)]",[],[1],[65],[1.0833333333333333],"[640.0, 512.0]",horizontal,"(890.0, 762.0)",[1.3],[0.62],1,3713.414
11,False,611,1.072,64,[],[],"[(1093, 881)]",[],[1],[85],[1.4166666666666667],"[640.0, 512.0]",vertical,"(890.0, 262.0)",[1.6166666666666667],[0.329],1,3717.405
11,False,612,0.301,18,[],[],"[(1118, 878)]",[],[1],[30],[0.5],"[640.0, 512.0]",horizontal,"(890.0, 762.0)",[1.2666666666666666],[0.181],1,3722.371
11,False,613,0.931,55,[],[],"[(1128, 903)]",[],[1],[90],[1.5],"[640.0, 512.0]",horizontal,"(390.0, 762.0)",[0.6],[0.557],1,3725.584
11,False,614,0.722,43,[],[],"[(1089, 889)]",[],[1],[],[],"[640.0, 512.0]",horizontal,"(890.0, 762.0)",[],[0],0,3729.333
11,False,615,1.242,74,[],[],"[(1142, 879)]",[],[1],[105],[1.75],"[640.0, 512.0]",horizontal,"(390.0, 262.0)",[0.5],[0.488],1,3732.816
11,False,616,0.792,47,[],[],"[(1075, 890)]",[],[1],[],[],"[640.0, 512.0]",vertical,"(390.0, 262.0)",[],[0],0,3736.625
11,False,617,0.652,39,[],[],"[(1117, 867)]",[],[1],[79],[1.3166666666666667],"[640.0, 512.0]",vertical,"(890.0, 762.0)",[0.9833333333333333],[0.635],1,3740.071
11,False,618,0.826,49,[],[],"[(1091, 896)]",[],[1],[81],[1.35],"[640.0, 512.0]",horizontal,"(890.0, 762.0)",[0.5166666666666666],[0.508],1,3743.855
11,False,619,0.596,35,[],[],"[(1131, 881)]",[],[1],[66],[1.1],"[640.0, 512.0]",vertical,"(390.0, 762.0)",[0.8],[0.493],1,3747.219
11,False,620,1.149,68,[],[],"[(1128, 885)]",[],[1],[100],[1.6666666666666667],"[640.0, 512.0]",vertical,"(890.0, 762.0)",[0.8166666666666667],[0.505],1,3750.621
11,False,621,1.111,66,[],[],"[(1122, 880)]",[],[1],[108],[1.8],"[640.0, 512.0]",vertical,"(890.0, 762.0)",[1.55],[0.671],1,3754.64
11,False,622,0.867,52,[],[],"[(1100, 889)]",[],[1],[],[],"[640.0, 512.0]",horizontal,"(890.0, 262.0)",[],[0],0,3759.421
11,False,623,1.202,72,[],[],"[(1101, 881)]",[],[1],[104],[1.7333333333333334],"[640.0, 512.0]",vertical,"(390.0, 762.0)",[1.6666666666666667],[0.505],1,3763.084
11,False,624,0.632,37,[],[],"[(1101, 878)]",[],[1],[44],[0.7333333333333333],"[640.0, 512.0]",horizontal,"(390.0, 262.0)",[1.3],[0.099],1,3768.003
11,False,625,1.119,67,[],[],"[(1096, 885)]",[],[1],[102],[1.7],"[640.0, 512.0]",horizontal,"(890.0, 762.0)",[1.5666666666666667],[0.556],1,3771.557
11,False,626,0.954,57,[],[],"[(1090, 882)]",[],[1],[91],[1.5166666666666666],"[640.0, 512.0]",vertical,"(890.0, 762.0)",[1.4666666666666666],[0.537],1,3776.298
11,False,627,0.447,26,[],[],"[(1118, 890)]",[],[1],[48],[0.8],"[640.0, 512.0]",horizontal,"(390.0, 262.0)",[1.1333333333333333],[0.343],1,3780.753
11,False,628,0.854,51,[],[],"[(1100, 898)]",[],[1],[],[],"[640.0, 512.0]",horizontal,"(390.0, 262.0)",[],[0],0,3784.136
11,False,629,0.626,37,[],[],"[(1079, 883)]",[],[1],[69],[1.15],"[640.0, 512.0]",horizontal,"(890.0, 762.0)",[1.0333333333333332],[0.514],1,3787.619
11,False,630,0.465,27,[],[],"[(1113, 885)]",[],[1],[60],[1.0],"[640.0, 512.0]",vertical,"(390.0, 762.0)",[1.0666666666666667],[0.521],1,3791.481
11,False,631,0.533,31,[],[],"[(1080, 868)]",[],[1],[79],[1.3166666666666667],"[640.0, 512.0]",vertical,"(890.0, 262.0)",[1.4666666666666666],[0.767],1,3795.022
11,False,632,1.205,72,[],[],"[(1098, 883)]",[],[1],[105],[1.75],"[640.0, 512.0]",horizontal,"(390.0, 762.0)",[1.6833333333333333],[0.519],1,3799.302
11,False,633,0.531,31,[],[],"[(1087, 881)]",[],[1],[75],[1.25],"[640.0, 512.0]",vertical,"(390.0, 262.0)",[1.1666666666666667],[0.696],1,3804.205
11,False,634,1.02,61,[],[],"[(1083, 882)]",[],[1],[102],[1.7],"[640.0, 512.0]",vertical,"(390.0, 762.0)",[1.2833333333333332],[0.652],1,3808.272
11,False,635,1.447,86,[],[],"[(1081, 905)]",[],[1],[],[],"[640.0, 512.0]",horizontal,"(390.0, 262.0)",[],[0],0,3812.739
11,False,636,0.733,43,[],[],"[(1089, 875)]",[],[1],[82],[1.3666666666666667],"[640.0, 512.0]",vertical,"(390.0, 762.0)",[0.6],[0.621],1,3816.302
11,False,637,1.379,82,[],[],"[(1105, 879)]",[],[1],[118],[1.9666666666666666],"[640.0, 512.0]",horizontal,"(890.0, 762.0)",[0.9666666666666667],[0.571],1,3820.038
11,False,638,1.163,69,[],[],"[(1143, 870)]",[],[1],[100],[1.6666666666666667],"[640.0, 512.0]",vertical,"(890.0, 262.0)",[1.4166666666666667],[0.489],1,3824.406
11,False,639,0.362,21,[],[],"[(1067, 889)]",[],[1],[54],[0.9],"[640.0, 512.0]",horizontal,"(890.0, 262.0)",[1.0666666666666667],[0.521],1,3828.919
11,False,640,0.799,47,[],[],"[(1077, 874)]",[],[1],[82],[1.3666666666666667],"[640.0, 512.0]",horizontal,"(390.0, 262.0)",[0.65],[0.554],1,3832.403
11,False,641,1.273,76,[],[],"[(1096, 881)]",[],[1],[110],[1.8333333333333333],"[640.0, 512.0]",horizontal,"(890.0, 762.0)",[0.5666666666666667],[0.537],1,3836.017
11,False,642,0.98,58,[],[],"[(1082, 883)]",[],[1],[96],[1.6],"[640.0, 512.0]",vertical,"(390.0, 762.0)",[1.2666666666666666],[0.602],1,3839.911
11,False,643,0.52,31,[],[],"[(1087, 870)]",[],[1],[63],[1.05],"[640.0, 512.0]",horizontal,"(390.0, 262.0)",[1.05],[0.522],1,3844.236
11,False,644,1.267,76,[],[],"[(1081, 892)]",[],[1],[102],[1.7],"[640.0, 512.0]",vertical,"(390.0, 262.0)",[1.5166666666666666],[0.407],1,3847.838
11,False,645,0.992,59,[],[],"[(1093, 885)]",[],[1],[],[],"[640.0, 512.0]",horizontal,"(390.0, 762.0)",[],[0],0,3852.506
11,False,646,0.687,41,[],[],"[(1093, 882)]",[],[1],[78],[1.3],"[640.0, 512.0]",horizontal,"(890.0, 762.0)",[0.9],[0.588],1,3856.091
11,False,647,1.234,74,[],[],"[(1106, 875)]",[],[1],[111],[1.8499999999999999],"[640.0, 512.0]",horizontal,"(390.0, 762.0)",[0.6833333333333333],[0.59],1,3860.048
11,False,648,1.159,69,[],[],"[(1094, 889)]",[],[1],[],[],"[640.0, 512.0]",horizontal,"(390.0, 262.0)",[],[0],0,3864.039
11,False,649,0.373,22,[],[],"[(1087, 883)]",[],[1],[56],[0.9333333333333333],"[640.0, 512.0]",horizontal,"(390.0, 762.0)",[0.8666666666666667],[0.539],1,3867.268
11,False,650,1.442,86,[],[],"[(1087, 888)]",[],[1],[120],[2.0],"[640.0, 512.0]",vertical,"(890.0, 262.0)",[0.85],[0.537],1,3870.879
11,False,651,1.204,72,[],[],"[(1093, 888)]",[],[1],[98],[1.6333333333333333],"[640.0, 512.0]",vertical,"(890.0, 262.0)",[1.05],[0.41],1,3875.2
11,False,652,0.787,47,[],[],"[(1087, 875)]",[],[1],[82],[1.3666666666666667],"[640.0, 512.0]",horizontal,"(390.0, 262.0)",[0.8],[0.553],1,3879.326
11,False,653,0.751,45,[],[],"[(1097, 887)]",[],[1],[79],[1.3166666666666667],"[640.0, 512.0]",horizontal,"(890.0, 762.0)",[1.6833333333333333],[0.541],1,3883.363
11,False,654,0.59,35,[],[],"[(1122, 875)]",[],[1],[68],[1.1333333333333333],"[640.0, 512.0]",horizontal,"(890.0, 262.0)",[1.05],[0.526],1,3887.81
11,False,655,0.682,40,[],[],"[(1090, 882)]",[],[1],[74],[1.2333333333333334],"[640.0, 512.0]",horizontal,"(890.0, 262.0)",[0.5666666666666667],[0.534],1,3891.431
11,False,656,1.482,88,[],[],"[(1100, 897)]",[],[1],[117],[1.95],"[640.0, 512.0]",vertical,"(890.0, 262.0)",[0.75],[0.459],1,3894.69
11,False,657,1.474,88,[],[],"[(1093, 888)]",[],[1],[128],[2.1333333333333333],"[640.0, 512.0]",horizontal,"(390.0, 762.0)",[1.0666666666666667],[0.637],1,3898.835
11,False,658,0.331,19,[],[],"[(1086, 878)]",[],[1],[64],[1.0666666666666667],"[640.0, 512.0]",horizontal,"(390.0, 262.0)",[1.0333333333333332],[0.728],1,3903.551
11,False,659,1.458,87,[],[],"[(1089, 886)]",[],[1],[126],[2.1],"[640.0, 512.0]",horizontal,"(390.0, 762.0)",[0.85],[0.621],1,3907.183
11,False,660,0.588,35,[],[],"[(1112, 888)]",[],[1],[70],[1.1666666666666667],"[640.0, 512.0]",vertical,"(390.0, 762.0)",[1.6833333333333333],[0.56],1,3911.632
12,False,661,1.132,67,[],[],"[(1068, 884)]",[],[1],[99],[1.65],"[640.0, 512.0]",vertical,"(390.0, 262.0)",[1.05],[0.507],1,3915.917
12,False,662,0.779,46,[],[],"[(1082, 880)]",[],[1],[82],[1.3666666666666667],"[640.0, 512.0]",horizontal,"(390.0, 262.0)",[0.55],[0.576],1,3920.09
12,False,663,0.818,49,[],[],"[(1093, 870)]",[],[1],[83],[1.3833333333333333],"[640.0, 512.0]",horizontal,"(390.0, 762.0)",[0.75],[0.537],1,3923.523
