block,trial,trial_type,taps_start_loc_during_fix,taps_end_loc_during_fix,taps_on_lever_during_fix,taps_on_lever_s_during_fix,bar_orientation,target_xy,cti,rt,acc,time,pulses,fa_rate_recent100,actual_invalid_type
0,1,invalid_adjacent_other_bar,"[(1164, 790)]",[],[1],[0.6166666666666667],horizontal,"(390.0, 762.0)",0.9666666666666667,0.571,1,1.005,1,0.0,other
0,2,valid,"[(1070, 825)]",[],[1],[0.85],vertical,"(390.0, 762.0)",0.85,nan,0,10.152,0,0.0,same
0,3,valid,"[(1086, 806)]",[],[1],[0.5666666666666667],horizontal,"(390.0, 262.0)",0.75,0.542,1,51.639,1,0.0,same
0,4,catch,"[(1144, 793)]",[],[1],[],vertical,"(390.0, 262.0)",1.7,nan,1,57.576,1,0.0,same
0,5,invalid_adjacent_other_bar,"[(1147, 786)]",[],[1],[0.05],horizontal,"(390.0, 762.0)",1.3666666666666667,0.018,0,62.817,0,0.0,other
0,6,valid,"[(1140, 795)]",[],[1],[0.65],vertical,"(390.0, 762.0)",0.7666666666666666,0.628,1,67.398,1,0.0,same
0,7,valid,"[(1163, 786)]",[],[1],[0.3],horizontal,"(890.0, 762.0)",0.9666666666666667,0.266,1,72.029,1,0.0,same
0,8,catch,"[(1165, 802)]",[],[1],[],vertical,"(390.0, 262.0)",1.7,nan,1,76.873,1,0.0,same
0,9,valid,"[(1089, 805)]",[],[1],[0.6333333333333333],horizontal,"(890.0, 762.0)",0.6333333333333333,0.609,1,81.977,2,0.0,same
0,10,valid,"[(1166, 787)]",[],[1],[0.48333333333333334],horizontal,"(890.0, 762.0)",0.6666666666666666,0.451,1,88.339,2,0.0,same
0,11,invalid_same_bar,"[(1175, 786)]",[],[1],[0.55],horizontal,"(890.0, 262.0)",1.0,0.523,1,93.59,2,0.0,same
0,12,catch,"[(1163, 784)]",[],[1],[],horizontal,"(890.0, 762.0)",,"('cti', 1.622),nan",0,98.888,0,0.08333333333333333,same
0,13,invalid_adjacent_other_bar,"[(1132, 825)]",[],[1],[0.5166666666666666],horizontal,"(390.0, 262.0)",1.0333333333333332,0.467,1,103.623,1,0.07692307692307693,other
0,14,catch,"[(1141, 786)]",[],[1],[],horizontal,"(890.0, 262.0)",1.7,nan,1,375.207,1,0.07142857142857142,same
0,15,valid,"[(1163, 782)]",[],[1],[0.4666666666666667],horizontal,"(890.0, 762.0)",1.4,0.435,1,380.338,1,0.06666666666666667,same
0,16,valid,"[(1157, 802)]",[],[1],[0.5333333333333333],horizontal,"(390.0, 762.0)",0.9833333333333333,0.504,1,385.801,2,0.0625,same
0,17,valid,"[(1176, 769)]",[],[1],[0.5],horizontal,"(390.0, 262.0)",0.7166666666666667,0.472,1,391.597,2,0.058823529411764705,same
0,18,catch,"[(1155, 800)]",[],[1],[],vertical,"(890.0, 262.0)",1.7,nan,1,396.641,2,0.05555555555555555,same
0,19,invalid_same_bar,"[(1134, 810)]",[],[1],[0.4666666666666667],horizontal,"(390.0, 762.0)",1.0666666666666667,0.435,1,402.504,3,0.05263157894736842,same
0,20,invalid_adjacent_other_bar,"[(1158, 796)]",[],[1],[0.5333333333333333],horizontal,"(890.0, 762.0)",0.9833333333333333,0.503,1,409.564,3,0.05,other
0,21,catch,"[(1176, 798)]",[],[1],[],horizontal,"(390.0, 262.0)",1.7,nan,1,415.058,3,0.047619047619047616,same
0,22,valid,"[(1146, 799)]",[],[1],[0.5833333333333334],vertical,"(890.0, 262.0)",0.85,0.557,1,421.095,3,0.045454545454545456,same
0,23,valid,"[(1161, 801)]",[],[1],[0.4166666666666667],horizontal,"(390.0, 262.0)",1.5,0.385,1,427.174,3,0.043478260869565216,same
0,24,valid,"[(1172, 799)]",[],[1],[],vertical,"(390.0, 262.0)",,"('cti', 1.453)",0,433.255,0,0.041666666666666664,same
0,25,valid,"[(1133, 808)]",[],[1],[0.6666666666666666],horizontal,"(390.0, 762.0)",0.6333333333333333,0.644,1,437.934,1,0.04,same
0,26,valid,"[(1136, 796)]",[],[1],[0.5833333333333334],vertical,"(390.0, 762.0)",0.5666666666666667,0.561,1,452.268,1,0.038461538461538464,same
0,27,catch,"[(1175, 799)]",[],[1],[],vertical,"(890.0, 762.0)",1.7,nan,1,457.177,1,0.037037037037037035,same
0,28,valid,"[(1165, 796)]",[],[1],[0.5666666666666667],vertical,"(390.0, 262.0)",0.43333333333333335,0.539,1,462.072,2,0.03571428571428571,same
0,29,valid,"[(1170, 798)]",[],[1],[0.55],horizontal,"(890.0, 262.0)",1.3166666666666667,0.516,1,467.247,2,0.034482758620689655,same
0,30,valid,"[(1164, 816)]",[],[1],[0.5166666666666666],vertical,"(890.0, 262.0)",0.65,0.48,1,472.61,2,0.03333333333333333,same
0,31,valid,"[(1161, 793)]",[],[1],[0.5],vertical,"(390.0, 762.0)",0.8,0.463,1,477.782,3,0.03225806451612903,same
0,32,invalid_adjacent_other_bar,"[(1169, 791)]",[],[1],[0.5166666666666666],horizontal,"(890.0, 762.0)",1.0333333333333332,0.481,1,483.058,3,0.03125,other
0,33,valid,"[(1170, 795)]",[],[1],[0.6833333333333333],vertical,"(890.0, 762.0)",1.3,0.644,1,488.875,3,0.030303030303030304,same
0,34,valid,"[(1178, 799)]",[],[1],[0.55],horizontal,"(890.0, 762.0)",0.7833333333333333,0.511,1,495.447,3,0.029411764705882353,same
0,35,valid,"[(1172, 792)]",[],[1],[0.5666666666666667],horizontal,"(390.0, 262.0)",0.9666666666666667,0.522,1,500.946,3,0.02857142857142857,same
0,36,valid,"[(1175, 796)]",[],[1],[0.5],vertical,"(390.0, 262.0)",0.48333333333333334,0.46,1,507.075,3,0.027777777777777776,same
0,37,valid,"[(1160, 795)]",[],[1],[0.7],horizontal,"(890.0, 262.0)",0.8,0.663,1,512.375,3,0.02702702702702703,same
0,38,valid,"[(1158, 781)]",[],[1],[0.5333333333333333],horizontal,"(390.0, 262.0)",1.15,0.491,1,518.392,3,0.02631578947368421,same
0,39,valid,"[(1155, 801)]",[],[1],[0.5666666666666667],horizontal,"(390.0, 262.0)",1.45,0.528,1,524.406,3,0.02564102564102564,same
0,40,invalid_same_bar,"[(1161, 774)]",[],[1],[0.6],vertical,"(890.0, 262.0)",1.3166666666666667,0.557,1,530.558,3,0.025,same
0,41,valid,"[(1175, 791)]",[],[1],[0.5],vertical,"(390.0, 762.0)",0.6333333333333333,0.457,1,536.553,3,0.024390243902439025,same
0,42,valid,"[(1179, 794)]","[(1167, 808)]",[1],[0.06666666666666667],horizontal,"(890.0, 262.0)",,"('bar', 0.082)",0,542.049,0,0.023809523809523808,same
0,43,valid,"[(1070, 899)]",[],[1],[],vertical,"(390.0, 762.0)",,"('cti', 0.57)",0,544.139,0,0.023255813953488372,same
0,44,valid,"[(1130, 804)]",[],[1],[0.6166666666666667],vertical,"(390.0, 762.0)",0.7666666666666666,0.575,1,547.909,1,0.022727272727272728,same
0,45,valid,"[(1155, 795)]",[],[1],[0.5333333333333333],horizontal,"(390.0, 762.0)",0.5166666666666666,0.496,1,552.952,1,0.022222222222222223,same
0,46,valid,"[(1176, 796)]",[],[1],[0.85],horizontal,"(890.0, 262.0)",1.0,nan,0,557.259,0,0.021739130434782608,same
0,47,valid,"[(1180, 783)]",[],[1],[0.5166666666666666],horizontal,"(390.0, 762.0)",1.4666666666666666,0.485,1,562.069,1,0.02127659574468085,same
0,48,valid,"[(1175, 794)]","[(1165, 829)]",[1],[0.45],vertical,"(390.0, 262.0)",,"('bar', 0.463)",0,567.596,0,0.020833333333333332,same
0,49,valid,"[(1156, 796)]",[],[1],[0.55],horizontal,"(390.0, 762.0)",1.5333333333333332,0.517,1,570.333,1,0.02040816326530612,same
0,50,catch,"[(1170, 787)]",[],[1],[],vertical,"(390.0, 262.0)",1.7,nan,1,575.728,1,0.02,same
0,51,valid,"[(1175, 831)]",[],[1],[0.5333333333333333],horizontal,"(390.0, 262.0)",1.0666666666666667,0.491,1,580.776,1,0.02,same
0,52,invalid_adjacent_other_bar,"[(1175, 802)]",[],[1],[0.45],horizontal,"(890.0, 762.0)",0.45,0.414,1,586.288,2,0.02,other
0,53,valid,"[(1170, 775)]",[],[1],[0.7],vertical,"(890.0, 262.0)",1.45,0.656,1,591.056,2,0.02,same
0,54,valid,"[(1140, 780)]",[],[1],[0.65],horizontal,"(390.0, 762.0)",1.35,0.605,1,597.073,2,0.02,same
0,55,invalid_same_bar,"[(1161, 761)]",[],[1],[0.85],vertical,"(390.0, 762.0)",0.5333333333333333,nan,0,602.914,0,0.02,same
0,56,valid,"[(1141, 796)]",[],[1],[0.5],horizontal,"(390.0, 262.0)",1.2833333333333332,0.46,1,607.658,1,0.02,same
0,57,valid,"[(1175, 777)]",[],[1],[0.5333333333333333],horizontal,"(890.0, 762.0)",0.8833333333333333,0.494,1,613.051,1,0.02,same
0,58,valid,"[(1165, 763)]",[],[1],[],horizontal,"(890.0, 262.0)",,"('cti', 1.496)",0,618.049,0,0.02,same
0,59,valid,"[(1140, 794)]",[],[1],[0.4666666666666667],horizontal,"(390.0, 762.0)",0.6,0.423,1,622.874,1,0.02,same
0,60,valid,"[(1166, 780)]",[],[1],[0.5333333333333333],vertical,"(390.0, 262.0)",0.95,0.496,1,703.862,1,0.02,same
0,61,valid,"[(1171, 792)]",[],[1],[0.55],horizontal,"(890.0, 262.0)",0.48333333333333334,0.508,1,709.173,1,0.02,same
0,62,valid,"[(1166, 793)]",[],[1],[0.5],horizontal,"(890.0, 762.0)",1.5,0.457,1,713.575,2,0.0,same
0,63,catch,"[(1171, 772)]",[],[1],[],vertical,"(890.0, 762.0)",1.7,nan,1,719.342,2,0.0,same
0,64,valid,"[(1179, 777)]",[],[1],[0.7],vertical,"(890.0, 762.0)",1.1666666666666667,0.652,1,725.076,2,0.0,same
0,65,invalid_adjacent_other_bar,"[(1181, 795)]",[],[1],[0.5666666666666667],horizontal,"(390.0, 262.0)",0.8833333333333333,0.524,1,730.859,3,0.0,other
0,66,valid,"[(1184, 803)]",[],[1],[0.85],vertical,"(890.0, 762.0)",0.85,nan,0,736.38,0,0.0,same
0,67,valid,"[(1165, 762)]",[],[1],[0.85],horizontal,"(890.0, 762.0)",0.9333333333333333,nan,0,741.207,0,0.0,same
0,68,valid,"[(1136, 767)]",[],[1],[0.5666666666666667],horizontal,"(390.0, 762.0)",1.0666666666666667,0.524,1,745.648,1,0.0,same
0,69,valid,"[(1201, 802)]",[],[1],[0.5333333333333333],vertical,"(890.0, 262.0)",1.0166666666666666,0.495,1,750.958,1,0.0,same
0,70,catch,"[(1176, 796)]",[],[1],[],horizontal,"(890.0, 262.0)",,"('cti', 1.118),nan",0,755.843,0,0.02,same
0,71,invalid_same_bar,"[(1051, 834)]",[],[1],[0.5],horizontal,"(890.0, 762.0)",1.3,0.457,1,759.926,1,0.02,same
0,72,valid,"[(1180, 813)]",[],[1],[0.48333333333333334],horizontal,"(890.0, 762.0)",0.4,0.44,1,769.293,1,0.02,same
0,73,valid,"[(1167, 796)]",[],[1],[0.85],horizontal,"(890.0, 762.0)",0.7166666666666667,nan,0,773.447,0,0.02,same
0,74,valid,"[(1144, 801)]",[],[1],[0.5833333333333334],horizontal,"(890.0, 762.0)",0.7166666666666667,0.535,1,778.174,1,0.02,same
0,75,valid,"[(1176, 757)]","[(1104, 847)]",[1],[0.7833333333333333],vertical,"(390.0, 762.0)",,"('bar', 0.794)",0,782.653,0,0.02,same
0,76,catch,"[(1148, 796)]",[],[1],[],horizontal,"(390.0, 262.0)",1.7,nan,1,785.395,1,0.02,same
0,77,valid,"[(1201, 795)]","[(1107, 883)]",[1],[0.7666666666666666],horizontal,"(390.0, 262.0)",,"('bar', 0.773)",0,790.392,0,0.02,same
0,78,valid,"[(1148, 786)]",[],[1],[0.6666666666666666],vertical,"(390.0, 762.0)",1.2166666666666666,0.623,1,793.342,1,0.02,same
0,79,invalid_adjacent_other_bar,"[(1175, 796)]",[],[1],[0.5],vertical,"(890.0, 262.0)",0.8,0.461,1,798.426,1,0.02,other
0,80,valid,"[(1180, 786)]",[],[1],[0.85],vertical,"(890.0, 762.0)",0.5666666666666667,nan,0,803.369,0,0.02,same
0,81,valid,"[(1155, 786)]",[],[1],[0.5],vertical,"(890.0, 262.0)",1.0333333333333332,0.457,1,807.859,1,0.02,same
0,82,valid,"[(1183, 797)]",[],[1],[0.5],horizontal,"(890.0, 762.0)",1.25,0.46,1,812.741,1,0.02,same
0,83,valid,"[(1175, 775)]",[],[1],[0.7],horizontal,"(890.0, 262.0)",1.2,0.661,1,818.058,1,0.02,same
0,84,invalid_same_bar,"[(1182, 782)]",[],[1],[],horizontal,"(890.0, 762.0)",,"('cti', 0.733)",0,823.373,0,0.02,same
0,85,valid,"[(1130, 800)]",[],[1],[0.6],horizontal,"(390.0, 762.0)",1.4166666666666667,0.561,1,827.056,1,0.02,same
0,86,valid,"[(1176, 781)]",[],[1],[0.65],horizontal,"(890.0, 262.0)",1.3666666666666667,0.606,1,833.016,1,0.02,same
0,87,invalid_adjacent_other_bar,"[(1177, 787)]",[],[1],[],horizontal,"(890.0, 762.0)",,"('cti', 0.114)",0,838.541,0,0.02,other
0,88,valid,"[(1130, 805)]",[],[1],[0.6333333333333333],vertical,"(390.0, 262.0)",0.7833333333333333,0.593,1,842.041,1,0.02,same
0,89,valid,"[(1179, 787)]",[],[1],[0.6333333333333333],vertical,"(890.0, 762.0)",0.9166666666666666,0.59,1,847.176,1,0.02,same
0,90,valid,"[(1165, 766)]",[],[1],[0.5166666666666666],vertical,"(890.0, 262.0)",1.2166666666666666,0.479,1,852.412,1,0.02,same
0,91,valid,"[(1180, 782)]",[],[1],[0.6],vertical,"(890.0, 762.0)",1.3833333333333333,0.565,1,857.428,2,0.02,same
0,92,valid,"[(1173, 776)]",[],[1],[0.55],vertical,"(890.0, 762.0)",0.9333333333333333,0.516,1,863.17,2,0.02,same
0,93,valid,"[(1187, 801)]",[],[1],[0.85],vertical,"(390.0, 762.0)",1.0166666666666666,nan,0,868.619,0,0.02,same
0,94,invalid_same_bar,"[(1166, 800)]",[],[1],[0.6166666666666667],horizontal,"(390.0, 762.0)",0.6,0.571,1,873.598,1,0.02,same
0,95,valid,"[(1172, 777)]",[],[1],[0.85],horizontal,"(890.0, 262.0)",1.2,nan,0,878.435,0,0.02,same
0,96,invalid_same_bar,"[(1160, 802)]",[],[1],[0.4666666666666667],vertical,"(890.0, 762.0)",1.25,0.427,1,883.476,1,0.02,same
0,97,catch,"[(1175, 796)]","[(1175, 825)]",[1],[0.1],horizontal,"(390.0, 762.0)",,"('bar', 0.119),nan",0,889.054,0,0.04,same
0,98,catch,"[(1119, 759)]",[],[1],[],vertical,"(890.0, 262.0)",1.7,nan,1,891.376,1,0.04,same
0,99,catch,"[(1135, 819)]",[],[1],[],vertical,"(390.0, 262.0)",1.7,nan,1,896.738,1,0.04,same
0,100,valid,"[(1200, 796)]",[],[1],[0.5333333333333333],vertical,"(890.0, 262.0)",0.8166666666666667,0.497,1,902.241,1,0.04,same
0,101,invalid_same_bar,"[(1197, 796)]","[(1178, 870)]",[1],[0.8833333333333333],vertical,"(890.0, 262.0)",,"('bar', 0.894)",0,906.827,0,0.04,same
0,102,valid,"[(1134, 785)]",[],[1],[0.5833333333333334],vertical,"(890.0, 762.0)",0.65,0.542,1,909.825,1,0.04,same
0,103,valid,"[(1170, 781)]",[],[1],[0.85],horizontal,"(390.0, 762.0)",0.3833333333333333,nan,0,914.385,0,0.04,same
0,104,valid,"[(1165, 774), (1165, 872)]","[(1088, 886)]","[1, 1]",[0.5],horizontal,"(390.0, 762.0)",,"('fix', 0.786),('bar', 0.518)",0,918.525,0,0.04,same
0,105,valid,"[(1090, 789)]",[],[1],[0.6666666666666666],vertical,"(390.0, 762.0)",1.3833333333333333,0.622,1,921.411,1,0.04,same
0,106,invalid_adjacent_other_bar,"[(1180, 801)]","[(1170, 822)]",[1],[0.13333333333333333],vertical,"(390.0, 762.0)",,"('bar', 0.146)",0,927.125,0,0.04,other
0,107,valid,"[(1142, 788)]",[],[1],[0.4666666666666667],vertical,"(390.0, 762.0)",1.5,0.426,1,929.529,1,0.04,same
0,108,valid,"[(1175, 798)]",[],[1],[0.48333333333333334],vertical,"(390.0, 762.0)",0.43333333333333335,0.442,1,935.265,1,0.04,same
0,109,invalid_adjacent_other_bar,"[(1203, 804)]","[(1180, 843)]",[1],[0.016666666666666666],horizontal,"(890.0, 262.0)",,"('bar', 0.035)",0,939.586,0,0.04,other
0,110,invalid_same_bar,"[(1130, 806)]",[],[1],[0.85],vertical,"(890.0, 762.0)",0.4666666666666667,nan,0,941.955,0,0.04,same
0,111,catch,"[(1165, 769)]",[],[1],[],vertical,"(890.0, 262.0)",1.7,nan,1,946.548,1,0.04,same
0,112,catch,"[(1176, 801)]",[],[1],[],horizontal,"(890.0, 262.0)",1.7,nan,1,951.935,1,0.04,same
0,113,valid,"[(1185, 782)]",[],[1],[0.55],vertical,"(890.0, 262.0)",0.9333333333333333,0.507,1,956.867,1,0.04,same
0,114,valid,"[(1170, 800)]",[],[1],[0.4666666666666667],vertical,"(390.0, 262.0)",0.43333333333333335,0.431,1,961.609,2,0.04,same
0,115,catch,"[(1170, 795)]",[],[1],[],horizontal,"(390.0, 262.0)",1.7,nan,1,966.317,2,0.04,same
0,116,valid,"[(1178, 792)]",[],[1],[0.5333333333333333],vertical,"(890.0, 762.0)",0.4,0.493,1,971.675,2,0.04,same
0,117,valid,"[(1170, 782)]","[(1175, 821)]",[1],[0.3333333333333333],horizontal,"(390.0, 262.0)",,"('bar', 0.344)",0,976.548,0,0.04,same
0,118,valid,"[(1140, 786)]",[],[1],[0.5666666666666667],horizontal,"(390.0, 262.0)",0.6166666666666667,0.531,1,979.243,1,0.04,same
0,119,valid,"[(1135, 804)]",[],[1],[0.85],horizontal,"(390.0, 762.0)",0.5333333333333333,nan,0,983.976,0,0.04,same
0,120,valid,"[(1144, 795)]",[],[1],[0.45],vertical,"(890.0, 262.0)",0.8166666666666667,0.412,1,988.226,1,0.02,same
0,121,valid,"[(1197, 791)]",[],[1],[0.55],horizontal,"(390.0, 262.0)",1.0333333333333332,0.505,1,993.309,1,0.02,same
0,122,valid,"[(1181, 781)]",[],[1],[0.5166666666666666],vertical,"(390.0, 762.0)",1.35,0.487,1,998.426,1,0.02,same
0,123,valid,"[(1183, 775)]",[],[1],[0.5333333333333333],horizontal,"(390.0, 762.0)",1.4666666666666666,0.492,1,1003.826,2,0.02,same
0,124,valid,"[(1165, 792)]",[],[1],[0.6166666666666667],horizontal,"(390.0, 262.0)",1.1833333333333333,0.577,1,1009.426,2,0.02,same
0,125,catch,"[(1176, 779)]",[],[1],[],vertical,"(390.0, 762.0)",1.7,nan,1,1014.85,2,0.02,same
0,126,valid,"[(1169, 795)]",[],[1],[0.5166666666666666],horizontal,"(890.0, 262.0)",0.7333333333333333,0.477,1,1020.323,3,0.02,same
0,127,valid,"[(1183, 799)]",[],[1],[0.5666666666666667],horizontal,"(390.0, 762.0)",0.4,0.529,1,1025.863,3,0.02,same
0,128,valid,"[(1175, 786)]","[(1172, 828)]",[1],[0.25],horizontal,"(390.0, 262.0)",,"('bar', 0.267)",0,1031.066,0,0.02,same
0,129,invalid_adjacent_other_bar,"[(1131, 811)]",[],[1],[0.55],horizontal,"(890.0, 262.0)",0.4666666666666667,0.509,1,1033.508,1,0.02,other
0,130,valid,"[(1165, 775)]",[],[1],[0.6666666666666666],horizontal,"(390.0, 762.0)",1.2833333333333332,0.631,1,1037.975,1,0.02,same
0,131,valid,"[(1179, 772)]",[],[1],[0.45],vertical,"(890.0, 262.0)",1.3,0.409,1,1043.309,1,0.02,same
0,132,invalid_same_bar,"[(1179, 780)]",[],[1],[0.6166666666666667],vertical,"(390.0, 762.0)",0.5166666666666666,0.586,1,1048.692,2,0.02,same
0,133,valid,"[(1173, 791)]","[(1170, 829)]",[1],[0.43333333333333335],vertical,"(890.0, 262.0)",,"('bar', 0.443)",0,1053.616,0,0.02,same
0,134,valid,"[(1135, 772)]",[],[1],[0.5],horizontal,"(890.0, 762.0)",0.8166666666666667,0.468,1,1056.276,1,0.02,same
0,135,valid,"[(1193, 802)]",[],[1],[0.5666666666666667],vertical,"(390.0, 262.0)",1.35,0.524,1,1061.104,1,0.02,same
0,136,catch,"[(1170, 779)]",[],[1],[],vertical,"(890.0, 262.0)",1.7,nan,1,1066.409,1,0.02,same
0,137,valid,"[(1185, 783)]",[],[1],[0.5333333333333333],horizontal,"(890.0, 762.0)",1.4333333333333333,0.498,1,1071.592,2,0.02,same
0,138,valid,"[(1175, 802)]",[],[1],[0.5333333333333333],vertical,"(890.0, 262.0)",1.35,0.5,1,1077.573,2,0.02,same
0,139,invalid_adjacent_other_bar,"[(1204, 779)]",[],[1],[0.85],vertical,"(390.0, 762.0)",1.3166666666666667,nan,0,1083.237,0,0.02,other
0,140,catch,"[(1175, 798)]","[(1175, 811)]",[1],[0.1],vertical,"(390.0, 762.0)",,"('bar', 0.114),nan",0,1088.262,0,0.04,same
0,141,valid,"[(1146, 772)]",[],[1],[0.5166666666666666],vertical,"(390.0, 762.0)",0.3833333333333333,0.468,1,1090.527,1,0.04,same
0,142,valid,"[(1170, 800)]",[],[1],[0.6],vertical,"(390.0, 762.0)",1.05,0.563,1,1094.878,1,0.04,same
0,143,invalid_adjacent_other_bar,"[(1170, 799)]",[],[1],[0.55],horizontal,"(890.0, 262.0)",1.4,0.512,1,1099.819,1,0.04,other
0,144,valid,"[(1175, 799)]","[(1170, 830)]",[1],[0.05],vertical,"(890.0, 262.0)",,"('bar', 0.067)",0,1105.362,0,0.04,same
0,145,valid,"[(1125, 801)]",[],[1],[0.6333333333333333],horizontal,"(890.0, 762.0)",0.9333333333333333,0.59,1,1107.693,1,0.04,same
0,146,catch,"[(1170, 801)]",[],[1],[],horizontal,"(890.0, 262.0)",1.7,nan,1,1112.942,1,0.04,same
0,147,valid,"[(1176, 787)]",[],[1],[0.5],horizontal,"(890.0, 262.0)",1.3333333333333333,0.46,1,1118.509,1,0.02,same
0,148,valid,"[(1175, 786)]",[],[1],[0.5166666666666666],vertical,"(890.0, 762.0)",0.4,0.48,1,1124.124,2,0.02,same
0,149,invalid_adjacent_other_bar,"[(1141, 825)]",[],[1],[0.5166666666666666],horizontal,"(890.0, 762.0)",0.4666666666666667,0.471,1,1129.013,2,0.02,other
0,150,catch,"[(1165, 777)]",[],[1],[],vertical,"(390.0, 262.0)",1.7,nan,1,1134.058,2,0.02,same
0,151,invalid_same_bar,"[(1186, 807)]","[(1110, 886)]",[1],[0.6333333333333333],vertical,"(890.0, 262.0)",,"('bar', 0.646)",0,1139.434,0,0.02,same
0,152,valid,"[(1162, 800)]",[],[1],[0.6333333333333333],horizontal,"(890.0, 262.0)",0.55,0.588,1,1142.37,1,0.02,same
0,153,catch,"[(1176, 776)]",[],[1],[],horizontal,"(890.0, 262.0)",1.7,nan,1,1147.092,1,0.02,same
0,154,valid,"[(1208, 798)]",[],[1],[0.5166666666666666],vertical,"(390.0, 262.0)",0.48333333333333334,0.477,1,1152.498,1,0.02,same
0,155,invalid_same_bar,"[(1175, 796)]",[],[1],[0.4666666666666667],horizontal,"(890.0, 262.0)",0.7166666666666667,0.438,1,1157.008,2,0.02,same
0,156,catch,"[(1175, 801)]","[(1169, 825)]",[1],[0.11666666666666667],horizontal,"(890.0, 262.0)",,"('bar', 0.134),nan",0,1162.209,0,0.04,same
0,157,valid,"[(1124, 801)]",[],[1],[0.5833333333333334],horizontal,"(890.0, 762.0)",1.4166666666666667,0.545,1,1164.508,1,0.04,same
0,158,valid,"[(1177, 791)]","[(1108, 876)]",[1],[0.6333333333333333],vertical,"(390.0, 262.0)",,"('bar', 0.645)",0,1170.01,0,0.04,same
0,159,valid,"[(1149, 798)]",[],[1],[0.5666666666666667],horizontal,"(390.0, 262.0)",1.05,0.524,1,1172.925,1,0.04,same
0,160,invalid_same_bar,"[(1179, 776)]",[],[1],[0.5833333333333334],horizontal,"(890.0, 262.0)",0.5833333333333334,0.544,1,1178.825,1,0.04,same
0,161,valid,"[(1184, 799)]","[(1176, 837)]",[1],[0.15],horizontal,"(890.0, 762.0)",,"('bar', 0.167)",0,1183.493,0,0.04,same
0,162,valid,"[(1135, 814)]",[],[1],[0.4666666666666667],vertical,"(890.0, 262.0)",1.4833333333333334,0.423,1,1185.876,1,0.04,same
0,163,catch,"[(1174, 799)]",[],[1],[],horizontal,"(390.0, 262.0)",1.7,nan,1,1191.208,1,0.04,same
0,164,valid,"[(1170, 791)]",[],[1],[0.5833333333333334],vertical,"(390.0, 262.0)",0.5,0.54,1,1196.475,1,0.04,same
0,165,catch,"[(1174, 773)]",[],[1],[],horizontal,"(890.0, 762.0)",1.7,nan,1,1201.075,2,0.04,same
0,166,valid,"[(1164, 791)]",[],[1],[0.5333333333333333],vertical,"(890.0, 262.0)",1.1333333333333333,0.493,1,1206.343,2,0.04,same
0,167,catch,"[(1165, 783)]",[],[1],[],vertical,"(890.0, 262.0)",1.7,nan,1,1212.008,2,0.04,same
0,168,catch,"[(1168, 781)]",[],[1],[],horizontal,"(890.0, 762.0)",1.7,nan,1,1217.231,3,0.04,same
0,169,valid,"[(1183, 802)]",[],[1],[0.4666666666666667],horizontal,"(890.0, 762.0)",1.5,0.425,1,1223.183,3,0.04,same
0,170,valid,"[(1175, 788)]",[],[1],[0.6],vertical,"(890.0, 762.0)",1.45,0.557,1,1229.014,3,0.04,same
0,171,valid,"[(1166, 806)]",[],[1],[0.85],horizontal,"(390.0, 762.0)",0.5,nan,0,1235.243,0,0.04,same
0,172,invalid_adjacent_other_bar,"[(1165, 781)]",[],[1],[0.5166666666666666],vertical,"(390.0, 262.0)",1.4666666666666666,0.473,1,1239.609,1,0.04,other
0,173,valid,"[(1169, 796)]",[],[1],[0.5166666666666666],horizontal,"(390.0, 262.0)",0.65,0.474,1,1245.361,1,0.04,same
0,174,catch,"[(1172, 786)]",[],[1],[],horizontal,"(390.0, 262.0)",1.7,nan,1,1250.049,1,0.04,same
0,175,valid,"[(1170, 796)]",[],[1],[0.6],vertical,"(390.0, 262.0)",1.4,0.553,1,1255.098,2,0.04,same
0,176,catch,"[(1171, 795)]",[],[1],[],vertical,"(390.0, 262.0)",1.7,nan,1,1260.419,2,0.04,same
0,177,valid,"[(1190, 785)]",[],[1],[0.5666666666666667],vertical,"(890.0, 262.0)",0.6,0.521,1,1265.687,2,0.04,same
0,178,valid,"[(1167, 787)]",[],[1],[0.6666666666666666],vertical,"(390.0, 762.0)",1.3333333333333333,0.621,1,1270.792,3,0.04,same
0,179,catch,"[(1170, 790)]",[],[1],[],vertical,"(390.0, 762.0)",1.7,nan,1,1277.062,3,0.04,same
0,180,valid,"[(1172, 799)]","[(1117, 869)]",[1],[0.5166666666666666],horizontal,"(390.0, 762.0)",,"('bar', 0.523)",0,1282.902,0,0.04,same
0,181,catch,"[(1134, 805)]",[],[1],[],vertical,"(390.0, 762.0)",1.7,nan,1,1285.62,1,0.04,same
0,182,valid,"[(1167, 799)]",[],[1],[0.6],horizontal,"(390.0, 262.0)",0.9833333333333333,0.556,1,1292.509,1,0.04,same
0,183,catch,"[(1165, 773)]",[],[1],[],horizontal,"(390.0, 262.0)",1.7,nan,1,1297.325,1,0.04,same
0,184,valid,"[(1170, 797)]",[],[1],[0.48333333333333334],horizontal,"(890.0, 262.0)",0.65,0.445,1,1302.752,2,0.04,same
0,185,invalid_adjacent_other_bar,"[(1200, 799)]",[],[1],[0.6],horizontal,"(390.0, 262.0)",1.45,0.562,1,1307.375,2,0.04,other
0,186,valid,"[(1165, 779)]",[],[1],[0.5],vertical,"(390.0, 262.0)",0.8666666666666667,0.461,1,1313.102,2,0.04,same
0,187,invalid_adjacent_other_bar,"[(1205, 794)]",[],[1],[0.6833333333333333],vertical,"(890.0, 262.0)",0.6666666666666666,0.637,1,1318.31,3,0.04,other
0,188,catch,"[(1177, 802)]",[],[1],[],horizontal,"(890.0, 762.0)",1.7,nan,1,1323.543,3,0.04,same
0,189,valid,"[(1172, 806)]",[],[1],[0.5333333333333333],vertical,"(390.0, 762.0)",0.9666666666666667,0.489,1,1329.545,3,0.04,same
0,190,valid,"[(1165, 796)]",[],[1],[0.85],vertical,"(890.0, 762.0)",0.3833333333333333,nan,0,1335.539,0,0.02,same
0,191,valid,"[(1135, 795)]",[],[1],[0.5],vertical,"(390.0, 762.0)",1.4,0.463,1,1339.443,1,0.02,same
0,192,valid,"[(1173, 807)]",[],[1],[0.5],vertical,"(390.0, 262.0)",0.48333333333333334,0.469,1,1344.725,1,0.02,same
0,193,catch,"[(1170, 791)]",[],[1],[],horizontal,"(890.0, 762.0)",1.7,nan,1,1349.505,1,0.02,same
0,194,valid,"[(1175, 771)]",[],[1],[0.85],horizontal,"(390.0, 762.0)",1.05,nan,0,1354.435,0,0.02,same
0,195,invalid_same_bar,"[(1139, 819)]",[],[1],[0.5833333333333334],horizontal,"(390.0, 762.0)",1.0666666666666667,0.542,1,1359.159,1,0.02,same
0,196,catch,"[(1178, 788)]","[(1164, 860)]",[1],[0.55],vertical,"(890.0, 762.0)",,"('bar', 0.56),nan",0,1482.697,0,0.04,same
0,197,valid,"[(1135, 774)]",[],[1],[0.48333333333333334],horizontal,"(890.0, 762.0)",0.3833333333333333,0.442,1,1485.375,1,0.04,same
0,198,valid,"[(1200, 782)]","[(1171, 838)]",[1],[0.26666666666666666],vertical,"(390.0, 762.0)",,"('bar', 0.281)",0,1489.859,0,0.04,same
0,199,valid,"[(1165, 788)]",[],[1],[0.5],vertical,"(390.0, 262.0)",1.5166666666666666,0.458,1,1492.242,1,0.04,same
0,200,invalid_same_bar,"[(1167, 796)]",[],[1],[0.6166666666666667],horizontal,"(890.0, 762.0)",1.3,0.579,1,1497.507,1,0.04,same
0,201,valid,"[(1198, 788)]",[],[1],[0.48333333333333334],horizontal,"(890.0, 262.0)",0.4666666666666667,0.446,1,1502.809,1,0.04,same
0,202,catch,"[(1206, 804)]","[(1146, 885)]",[1],[0.7666666666666666],horizontal,"(390.0, 762.0)",,"('bar', 0.768),nan",0,1507.175,0,0.06,same
0,203,valid,"[(1165, 777)]",[],[1],[0.5666666666666667],vertical,"(390.0, 262.0)",1.0833333333333333,0.526,1,1510.077,1,0.06,same
0,204,valid,"[(1202, 780)]",[],[1],[0.5166666666666666],horizontal,"(390.0, 262.0)",1.5333333333333332,0.473,1,1515.208,1,0.06,same
0,205,valid,"[(1204, 801)]","[(1137, 854)]",[1],[0.18333333333333332],horizontal,"(390.0, 262.0)",,"('bar', 0.196)",0,1521.061,0,0.06,same
0,206,catch,"[(1140, 777)]",[],[1],[],horizontal,"(390.0, 262.0)",,"('cti', 1.19),nan",0,1523.452,0,0.06,same
0,207,valid,"[(1157, 781)]",[],[1],[0.6333333333333333],vertical,"(390.0, 262.0)",1.0333333333333332,0.594,1,1527.965,1,0.06,same
0,208,valid,"[(1185, 778)]",[],[1],[0.5666666666666667],horizontal,"(390.0, 762.0)",0.5,0.517,1,1533.524,1,0.06,same
0,209,valid,"[(1209, 801)]",[],[1],[0.5166666666666666],vertical,"(890.0, 262.0)",1.2333333333333334,0.473,1,1538.279,1,0.06,same
0,210,valid,"[(1165, 794)]",[],[1],[0.6166666666666667],horizontal,"(890.0, 762.0)",1.4333333333333333,0.578,1,1543.38,2,0.06,same
0,211,valid,"[(1172, 783)]",[],[1],[0.5333333333333333],horizontal,"(890.0, 262.0)",0.4666666666666667,0.49,1,1549.143,2,0.06,same
0,212,invalid_adjacent_other_bar,"[(1186, 788)]",[],[1],[0.6333333333333333],vertical,"(390.0, 762.0)",0.8166666666666667,0.592,1,1554.271,2,0.06,other
0,213,invalid_adjacent_other_bar,"[(1175, 773)]",[],[1],[0.4666666666666667],vertical,"(390.0, 762.0)",0.6166666666666667,0.428,1,1559.159,3,0.06,other
0,214,valid,"[(1177, 771)]","[(1168, 838)]",[1],[0.3833333333333333],vertical,"(890.0, 762.0)",,"('bar', 0.395)",0,1564.374,0,0.06,same
0,215,invalid_same_bar,"[(1135, 783)]",[],[1],[0.6666666666666666],horizontal,"(390.0, 262.0)",0.5666666666666667,0.624,1,1566.793,1,0.06,same
0,216,valid,"[(1166, 795)]",[],[1],[0.5166666666666666],vertical,"(890.0, 262.0)",1.2333333333333334,0.478,1,1571.693,1,0.06,same
0,217,catch,"[(1199, 787)]","[(1116, 887)]",[1],[0.7333333333333333],horizontal,"(390.0, 262.0)",,"('bar', 0.742),nan",0,1576.944,0,0.08,same
0,218,invalid_same_bar,"[(1160, 798)]",[],[1],[0.45],vertical,"(890.0, 262.0)",0.4166666666666667,0.411,1,1579.859,1,0.08,same
0,219,valid,"[(1171, 772)]",[],[1],[0.5],vertical,"(890.0, 762.0)",0.7833333333333333,0.457,1,1584.276,1,0.08,same
0,220,valid,"[(1175, 778)]",[],[1],[0.55],vertical,"(390.0, 262.0)",1.4666666666666666,0.509,1,1588.869,1,0.08,same
0,221,valid,"[(1200, 800)]","[(1159, 874)]",[1],[0.4666666666666667],horizontal,"(390.0, 262.0)",,"('bar', 0.48)",0,1594.409,0,0.08,same
0,222,valid,"[(1150, 817)]",[],[1],[0.55],vertical,"(890.0, 762.0)",0.85,0.509,1,1597.093,1,0.08,same
0,223,invalid_same_bar,"[(1173, 801)]",[],[1],[0.85],vertical,"(390.0, 262.0)",0.8333333333333334,nan,0,1601.895,0,0.08,same
0,224,valid,"[(1150, 801)]",[],[1],[0.5666666666666667],horizontal,"(390.0, 262.0)",0.8333333333333334,0.527,1,1606.561,1,0.08,same
0,225,valid,"[(1206, 796)]",[],[1],[0.48333333333333334],horizontal,"(890.0, 762.0)",1.2,0.441,1,1611.265,1,0.08,same
0,226,valid,"[(1213, 798)]","[(1172, 836)]",[1],[0.25],horizontal,"(390.0, 762.0)",,"('bar', 0.263)",0,1616.011,0,0.08,same
0,227,invalid_adjacent_other_bar,"[(1160, 804)]",[],[1],[0.5833333333333334],horizontal,"(890.0, 762.0)",0.7166666666666667,0.539,1,1618.311,1,0.08,other
0,228,valid,"[(1204, 773)]",[],[1],[0.5],vertical,"(390.0, 762.0)",0.7833333333333333,0.46,1,1623.293,1,0.08,same
0,229,catch,"[(1220, 774)]",[],[1],[],horizontal,"(390.0, 762.0)",1.7,nan,1,1627.551,1,0.08,same
0,230,valid,"[(1202, 796)]",[],[1],[0.6833333333333333],horizontal,"(390.0, 762.0)",1.15,0.639,1,1632.792,2,0.08,same
0,231,catch,"[(1175, 800)]",[],[1],[],horizontal,"(890.0, 762.0)",,"('cti', 1.593),nan",0,1638.493,0,0.1,same
0,232,valid,"[(1165, 799)]",[],[1],[0.5333333333333333],horizontal,"(390.0, 762.0)",1.25,0.493,1,1643.179,1,0.1,same
0,233,valid,"[(1204, 799)]",[],[1],[0.5166666666666666],horizontal,"(890.0, 262.0)",0.9666666666666667,0.476,1,1648.459,1,0.1,same
0,234,valid,"[(1175, 796)]",[],[1],[0.55],vertical,"(890.0, 262.0)",1.5166666666666666,0.507,1,1653.594,1,0.1,same
0,235,valid,"[(1207, 796)]",[],[1],[0.5333333333333333],horizontal,"(390.0, 762.0)",0.7166666666666667,0.493,1,1658.937,2,0.1,same
0,236,catch,"[(1207, 787)]",[],[1],[],horizontal,"(890.0, 762.0)",1.7,nan,1,1664.142,2,0.1,same
0,237,catch,"[(1191, 792)]","[(1123, 875)]",[1],[0.3],horizontal,"(890.0, 262.0)",,"('bar', 0.309),nan",0,1669.626,0,0.12,same
0,238,valid,"[(1162, 768)]",[],[1],[0.5833333333333334],horizontal,"(890.0, 762.0)",1.0166666666666666,0.537,1,1672.293,1,0.12,same
0,239,invalid_same_bar,"[(1180, 789)]",[],[1],[0.85],horizontal,"(890.0, 262.0)",0.7833333333333333,nan,0,1677.193,0,0.12,same
0,240,valid,"[(1130, 794)]",[],[1],[0.48333333333333334],vertical,"(890.0, 262.0)",0.9666666666666667,0.441,1,1682.037,1,0.12,same
0,241,catch,"[(1209, 801)]",[],[1],[],horizontal,"(390.0, 262.0)",1.7,nan,1,1686.876,1,0.12,same
0,242,valid,"[(1193, 784)]","[(1162, 836)]",[1],[0.1],vertical,"(390.0, 762.0)",,"('bar', 0.116)",0,1691.592,0,0.12,same
0,243,valid,"[(1155, 808)]",[],[1],[0.6333333333333333],vertical,"(390.0, 262.0)",0.65,0.594,1,1693.887,1,0.12,same
0,244,valid,"[(1180, 786)]",[],[1],[0.5333333333333333],vertical,"(890.0, 262.0)",1.1333333333333333,0.487,1,1698.494,1,0.12,same
0,245,invalid_same_bar,"[(1185, 779)]",[],[1],[0.55],vertical,"(890.0, 762.0)",0.9166666666666666,0.509,1,1703.953,1,0.12,same
0,246,valid,"[(1209, 784)]",[],[1],[0.65],horizontal,"(890.0, 762.0)",1.2166666666666666,0.608,1,1708.901,2,0.1,same
0,247,valid,"[(1180, 804)]",[],[1],[0.6833333333333333],horizontal,"(890.0, 762.0)",1.15,0.638,1,1714.736,2,0.1,same
0,248,valid,"[(1211, 765)]",[],[1],[0.5],horizontal,"(890.0, 262.0)",1.4333333333333333,0.458,1,1720.644,2,0.1,same
0,249,catch,"[(1185, 796)]","[(1172, 858)]",[1],[0.6666666666666666],vertical,"(390.0, 762.0)",,"('bar', 0.675),nan",0,1726.944,0,0.12,same
0,250,valid,"[(1150, 800)]",[],[1],[0.6166666666666667],horizontal,"(890.0, 262.0)",0.9333333333333333,0.574,1,1729.761,1,0.12,same
0,251,valid,"[(1171, 801)]",[],[1],[0.5666666666666667],vertical,"(890.0, 262.0)",0.55,0.522,1,1734.831,1,0.12,same
0,252,invalid_same_bar,"[(1173, 769)]",[],[1],[0.85],horizontal,"(390.0, 262.0)",0.4,nan,0,1739.426,0,0.1,same
0,253,valid,"[(1146, 780)]",[],[1],[],horizontal,"(890.0, 762.0)",,"('cti', 0.593)",0,1743.181,0,0.1,same
0,254,catch,"[(1135, 831)]",[],[1],[],horizontal,"(890.0, 762.0)",1.7,nan,1,1747.214,1,0.1,same
0,255,valid,"[(1170, 802)]",[],[1],[0.48333333333333334],horizontal,"(890.0, 262.0)",1.4333333333333333,0.45,1,1756.942,1,0.1,same
0,256,valid,"[(1180, 798)]",[],[1],[0.5666666666666667],horizontal,"(890.0, 262.0)",0.48333333333333334,0.526,1,1762.308,1,0.08,same
0,257,valid,"[(1195, 780)]","[(1132, 863)]",[1],[0.4666666666666667],vertical,"(390.0, 262.0)",,"('bar', 0.482)",0,1767.095,0,0.08,same
0,258,valid,"[(1165, 787)]",[],[1],[0.5],vertical,"(890.0, 262.0)",0.45,0.462,1,1769.716,1,0.08,same
0,259,invalid_adjacent_other_bar,"[(1214, 807)]",[],[1],[0.7],vertical,"(390.0, 262.0)",0.6666666666666666,0.655,1,1774.011,1,0.08,other
0,260,catch,"[(1170, 798)]","[(1173, 820)]",[1],[0.18333333333333332],horizontal,"(390.0, 762.0)",,"('bar', 0.2),nan",0,1778.876,0,0.1,same
0,261,catch,"[(1164, 772)]",[],[1],[],horizontal,"(890.0, 262.0)",1.7,nan,1,1781.405,1,0.1,same
0,262,valid,"[(1183, 806)]",[],[1],[0.4],vertical,"(390.0, 262.0)",1.5,0.362,1,1786.829,1,0.1,same
0,263,invalid_adjacent_other_bar,"[(1179, 772)]",[],[1],[0.5],horizontal,"(890.0, 762.0)",0.9166666666666666,0.458,1,1792.427,1,0.1,other
0,264,valid,"[(1142, 818)]",[],[1],[0.55],vertical,"(390.0, 762.0)",1.3333333333333333,0.508,1,1797.567,2,0.1,same
0,265,catch,"[(1175, 786)]",[],[1],[],horizontal,"(890.0, 762.0)",1.7,nan,1,1803.294,2,0.1,same
0,266,valid,"[(1191, 788)]","[(1115, 870)]",[1],[0.6833333333333333],horizontal,"(390.0, 262.0)",,"('bar', 0.687)",0,1809.199,0,0.1,same
0,267,valid,"[(1166, 789)]",[],[1],[0.5333333333333333],vertical,"(890.0, 262.0)",1.2833333333333332,0.493,1,1811.993,1,0.08,same
0,268,catch,"[(1174, 786)]",[],[1],[],vertical,"(890.0, 262.0)",1.7,nan,1,1817.159,1,0.08,same
0,269,valid,"[(1207, 786)]",[],[1],[0.65],vertical,"(890.0, 762.0)",0.8666666666666667,0.608,1,1822.409,1,0.08,same
0,270,valid,"[(1180, 791)]",[],[1],[0.5333333333333333],vertical,"(890.0, 762.0)",0.8666666666666667,0.491,1,1827.477,2,0.08,same
0,271,catch,"[(1180, 787)]",[],[1],[],vertical,"(390.0, 262.0)",1.7,nan,1,1832.71,2,0.08,same
0,272,valid,"[(1180, 803)]",[],[1],[0.48333333333333334],horizontal,"(890.0, 262.0)",0.9,0.446,1,1837.801,2,0.08,same
0,273,catch,"[(1181, 785)]",[],[1],[],horizontal,"(890.0, 762.0)",1.7,nan,1,1843.445,3,0.08,same
0,274,valid,"[(1171, 796)]",[],[1],[0.4666666666666667],vertical,"(890.0, 262.0)",0.4666666666666667,0.433,1,1849.644,3,0.08,same
0,275,valid,"[(1175, 789)]",[],[1],[0.55],vertical,"(390.0, 262.0)",1.0666666666666667,0.511,1,1855.044,3,0.08,same
0,276,catch,"[(1193, 796)]",[],[1],[],horizontal,"(390.0, 762.0)",1.7,nan,1,1860.7,3,0.08,same
0,277,catch,"[(1137, 814)]",[],[1],[],vertical,"(890.0, 262.0)",1.7,nan,1,1866.776,3,0.08,same
0,278,catch,"[(1176, 791)]",[],[1],[],horizontal,"(890.0, 762.0)",,"('cti', 1.617),nan",0,1873.056,0,0.1,same
0,279,valid,"[(1155, 786)]",[],[1],[0.55],vertical,"(890.0, 262.0)",0.4,0.517,1,1878.059,1,0.1,same
0,280,valid,"[(1191, 803)]",[],[1],[0.5166666666666666],horizontal,"(890.0, 262.0)",1.3333333333333333,0.479,1,1882.687,1,0.1,same
0,281,catch,"[(1180, 767)]",[],[1],[],vertical,"(390.0, 262.0)",1.7,nan,1,1888.339,1,0.08,same
0,282,valid,"[(1194, 777)]",[],[1],[0.4666666666666667],horizontal,"(890.0, 762.0)",1.4166666666666667,0.427,1,1893.26,2,0.08,same
0,283,valid,"[(1207, 782)]","[(1130, 861)]",[1],[0.4],vertical,"(890.0, 762.0)",,"('bar', 0.412)",0,1898.758,0,0.08,same
0,284,valid,"[(1160, 801)]",[],[1],[0.5333333333333333],vertical,"(390.0, 262.0)",0.43333333333333335,0.494,1,1901.282,1,0.08,same
0,285,catch,"[(1175, 782)]",[],[1],[],vertical,"(390.0, 762.0)",1.7,nan,1,1906.054,1,0.08,same
0,286,valid,"[(1180, 791)]",[],[1],[0.5333333333333333],horizontal,"(890.0, 262.0)",0.35,0.494,1,1911.267,1,0.08,same
0,287,valid,"[(1185, 770)]",[],[1],[0.5833333333333334],horizontal,"(390.0, 762.0)",0.8666666666666667,0.545,1,1915.514,2,0.06,same
0,288,valid,"[(1204, 791)]","[(1136, 871)]",[1],[0.4666666666666667],vertical,"(890.0, 762.0)",,"('bar', 0.476)",0,1920.962,0,0.06,same
0,289,valid,"[(1146, 783)]",[],[1],[0.48333333333333334],vertical,"(890.0, 262.0)",1.5,0.446,1,1923.736,1,0.06,same
0,290,valid,"[(1205, 792)]",[],[1],[0.48333333333333334],horizontal,"(390.0, 262.0)",1.2666666666666666,0.443,1,1929.242,1,0.06,same
0,291,valid,"[(1180, 803)]",[],[1],[],vertical,"(390.0, 762.0)",,"('fix', 0.547)",0,1934.682,0,0.06,same
0,292,valid,"[(1165, 781)]",[],[1],[0.5166666666666666],vertical,"(890.0, 762.0)",0.9333333333333333,0.477,1,1936.847,1,0.06,same
0,293,valid,"[(1170, 770)]",[],[1],[0.5833333333333334],horizontal,"(890.0, 262.0)",1.1333333333333333,0.539,1,1941.992,1,0.06,same
0,294,catch,"[(1175, 782)]",[],[1],[],horizontal,"(890.0, 762.0)",1.7,nan,1,1946.959,1,0.06,same
0,295,catch,"[(1181, 782)]",[],[1],[],horizontal,"(890.0, 762.0)",1.7,nan,1,1951.993,2,0.06,same
0,296,valid,"[(1175, 788)]",[],[1],[0.6666666666666666],horizontal,"(890.0, 762.0)",1.4166666666666667,0.627,1,1957.169,2,0.06,same
0,297,valid,"[(1175, 799)]",[],[1],[0.85],horizontal,"(390.0, 762.0)",0.45,nan,0,1962.927,0,0.06,same
0,298,valid,"[(1177, 796)]","[(1171, 837)]",[1],[0.3333333333333333],vertical,"(390.0, 262.0)",,"('bar', 0.35)",0,1967.309,0,0.06,same
0,299,valid,"[(1160, 781)]",[],[1],[0.48333333333333334],horizontal,"(390.0, 762.0)",1.4833333333333334,0.44,1,1969.752,1,0.04,same
0,300,valid,"[(1201, 774)]",[],[1],[0.55],vertical,"(890.0, 762.0)",0.6166666666666667,0.507,1,1975.11,1,0.04,same
0,301,valid,"[(1180, 783)]","[(1161, 854)]",[1],[0.35],horizontal,"(390.0, 262.0)",,"('bar', 0.365)",0,1979.626,0,0.04,same
0,302,catch,"[(1165, 809)]",[],[1],[],horizontal,"(890.0, 262.0)",1.7,nan,1,1982.2,1,0.04,same
0,303,catch,"[(1188, 790)]",[],[1],[],horizontal,"(890.0, 762.0)",1.7,nan,1,1987.001,1,0.04,same
0,304,invalid_same_bar,"[(1200, 785)]",[],[1],[0.65],vertical,"(890.0, 262.0)",0.95,0.61,1,1992.28,1,0.04,same
0,305,valid,"[(1204, 798)]",[],[1],[],horizontal,"(890.0, 762.0)",,"('cti', 1.402)",0,1997.261,0,0.04,same
0,306,catch,"[(1160, 796)]",[],[1],[],horizontal,"(390.0, 762.0)",1.7,nan,1,2001.867,1,0.04,same
0,307,catch,"[(1199, 794)]",[],[1],[],vertical,"(390.0, 262.0)",1.7,nan,1,2007.01,1,0.04,same
0,308,valid,"[(1175, 801)]",[],[1],[],horizontal,"(890.0, 262.0)",,"('fix', 0.485)",0,2012.353,0,0.04,same
0,309,catch,"[(1150, 786)]",[],[1],[],horizontal,"(890.0, 762.0)",,"('cti', 1.536),nan",0,2014.411,0,0.06,same
0,310,catch,"[(1141, 807)]",[],[1],[],vertical,"(890.0, 762.0)",1.7,nan,1,2019.196,1,0.04,same
0,311,valid,"[(1210, 784)]",[],[1],[0.5666666666666667],vertical,"(890.0, 762.0)",0.6666666666666666,0.524,1,2025.326,1,0.04,same
0,312,invalid_same_bar,"[(1208, 806)]",[],[1],[],vertical,"(390.0, 762.0)",,"('cti', 0.212)",0,2029.81,0,0.04,same
0,313,catch,"[(1159, 770)]",[],[1],[],vertical,"(390.0, 262.0)",1.7,nan,1,2033.226,1,0.04,same
0,314,valid,"[(1200, 783)]",[],[1],[0.5166666666666666],horizontal,"(390.0, 762.0)",0.7833333333333333,0.471,1,2038.394,1,0.04,same
0,315,valid,"[(1200, 804)]",[],[1],[0.55],vertical,"(390.0, 262.0)",0.9666666666666667,0.507,1,2043.022,1,0.04,same
0,316,valid,"[(1191, 796)]",[],[1],[0.5666666666666667],horizontal,"(890.0, 262.0)",1.2333333333333334,0.526,1,2048.145,2,0.04,same
0,317,catch,"[(1195, 806)]",[],[1],[],horizontal,"(390.0, 262.0)",1.7,nan,1,2053.566,2,0.04,same
0,318,invalid_same_bar,"[(1174, 805)]",[],[1],[],vertical,"(390.0, 262.0)",,"('cti', 0.658)",0,2059.277,0,0.04,same
0,319,valid,"[(1179, 803)]",[],[1],[0.6333333333333333],horizontal,"(390.0, 262.0)",0.55,0.593,1,2062.768,1,0.04,same
0,320,valid,"[(1207, 802)]","[(1176, 843)]",[1],[0.016666666666666666],horizontal,"(390.0, 262.0)",,"('bar', 0.034)",0,2067.848,0,0.04,same
0,321,catch,"[(1165, 790)]",[],[1],[],horizontal,"(390.0, 762.0)",1.7,nan,1,2070.121,1,0.04,same
0,322,valid,"[(1183, 782)]",[],[1],[],vertical,"(890.0, 262.0)",,"('cti', 0.67)",0,2075.368,0,0.04,same
0,323,valid,"[(1160, 792)]",[],[1],[0.48333333333333334],vertical,"(890.0, 262.0)",0.9333333333333333,0.442,1,2078.878,1,0.04,same
0,324,valid,"[(1175, 778)]",[],[1],[0.5333333333333333],horizontal,"(890.0, 262.0)",0.8666666666666667,0.491,1,2083.436,1,0.04,same
0,325,catch,"[(1205, 782)]",[],[1],[],vertical,"(890.0, 762.0)",1.7,nan,1,2088.378,1,0.04,same
0,326,invalid_adjacent_other_bar,"[(1200, 798)]",[],[1],[0.5333333333333333],vertical,"(890.0, 762.0)",1.45,0.493,1,2093.294,2,0.04,other
0,327,catch,"[(1175, 800)]",[],[1],[],vertical,"(390.0, 762.0)",1.7,nan,1,2098.943,2,0.04,same
0,328,catch,"[(1180, 796)]",[],[1],[],horizontal,"(390.0, 762.0)",1.7,nan,1,2104.716,2,0.02,same
0,329,valid,"[(1187, 804)]",[],[1],[0.5333333333333333],vertical,"(890.0, 762.0)",1.2,0.491,1,2110.06,3,0.02,same
0,330,valid,"[(1199, 778)]",[],[1],[0.48333333333333334],vertical,"(390.0, 262.0)",1.0333333333333332,0.441,1,2116.261,3,0.02,same
0,331,valid,"[(1178, 796)]",[],[1],[0.85],vertical,"(390.0, 762.0)",0.55,nan,0,2122.061,0,0.02,same
0,332,invalid_adjacent_other_bar,"[(1168, 765)]",[],[1],[0.7166666666666667],vertical,"(390.0, 762.0)",1.4333333333333333,0.67,1,2126.41,1,0.02,other
0,333,valid,"[(1205, 774)]",[],[1],[0.48333333333333334],horizontal,"(890.0, 262.0)",0.8666666666666667,0.443,1,2131.778,1,0.02,same
0,334,catch,"[(1180, 799)]",[],[1],[],horizontal,"(890.0, 262.0)",1.7,"('cti', 1.679),nan",0,2136.628,0,0.04,same
0,335,valid,"[(1135, 808)]",[],[1],[0.75],horizontal,"(390.0, 762.0)",0.43333333333333335,0.707,1,2141.727,1,0.04,same
0,336,valid,"[(1200, 772)]",[],[1],[0.65],vertical,"(890.0, 762.0)",0.85,0.607,1,2146.811,1,0.04,same
0,337,valid,"[(1178, 796)]",[],[1],[0.8333333333333334],vertical,"(890.0, 762.0)",1.1833333333333333,0.784,1,2151.512,1,0.04,same
0,338,valid,"[(1175, 783)]",[],[1],[0.5333333333333333],horizontal,"(390.0, 762.0)",0.7,0.49,1,2157.143,2,0.04,same
0,339,invalid_same_bar,"[(1176, 801)]",[],[1],[0.45],horizontal,"(390.0, 262.0)",1.4666666666666666,0.418,1,2162.393,2,0.04,same
0,340,catch,"[(1175, 773)]",[],[1],[],vertical,"(390.0, 762.0)",1.7,nan,1,2167.811,2,0.04,same
0,341,valid,"[(1180, 806)]","[(1170, 854)]",[1],[0.2833333333333333],vertical,"(390.0, 762.0)",,"('bar', 0.297)",0,2173.394,0,0.04,same
0,342,catch,"[(1166, 784)]",[],[1],[],vertical,"(390.0, 762.0)",1.7,nan,1,2176.181,1,0.04,same
0,343,catch,"[(1200, 801)]",[],[1],[],horizontal,"(390.0, 762.0)",1.7,nan,1,2181.576,1,0.04,same
0,344,invalid_same_bar,"[(1202, 803)]",[],[1],[],horizontal,"(390.0, 262.0)",,"('cti', 1.0)",0,2186.783,0,0.04,same
0,345,valid,"[(1161, 807)]",[],[1],[0.48333333333333334],horizontal,"(890.0, 262.0)",1.1833333333333333,0.444,1,2191.194,1,0.04,same
0,346,catch,"[(1204, 796)]",[],[1],[],horizontal,"(390.0, 762.0)",1.7,nan,1,2196.811,1,0.04,same
0,347,catch,"[(1183, 780)]",[],[1],[],vertical,"(390.0, 262.0)",1.7,nan,1,2201.744,1,0.04,same
0,348,valid,"[(1203, 800)]",[],[1],[0.45],horizontal,"(390.0, 262.0)",1.2333333333333334,0.407,1,2207.167,2,0.04,same
0,349,catch,"[(1203, 792)]",[],[1],[],horizontal,"(890.0, 262.0)",1.7,nan,1,2212.827,2,0.04,same
0,350,catch,"[(1222, 787)]",[],[1],[],vertical,"(390.0, 762.0)",1.7,nan,1,2218.375,2,0.04,same
0,351,valid,"[(1183, 796)]",[],[1],[0.48333333333333334],horizontal,"(890.0, 262.0)",0.75,0.445,1,2224.511,3,0.04,same
0,352,valid,"[(1178, 801)]",[],[1],[0.5166666666666666],vertical,"(390.0, 262.0)",0.6333333333333333,0.475,1,2230.542,3,0.04,same
0,353,valid,"[(1179, 765)]",[],[1],[0.6333333333333333],horizontal,"(390.0, 762.0)",0.95,0.589,1,2236.277,3,0.04,same
0,354,invalid_same_bar,"[(1209, 786)]",[],[1],[0.6666666666666666],horizontal,"(390.0, 262.0)",0.9833333333333333,0.619,1,2241.878,3,0.04,same
0,355,catch,"[(1175, 782)]",[],[1],[],horizontal,"(890.0, 262.0)",1.7,nan,1,2247.522,3,0.04,same
0,356,valid,"[(1176, 773)]",[],[1],[0.5333333333333333],horizontal,"(390.0, 762.0)",0.7333333333333333,0.486,1,2253.294,3,0.04,same
0,357,invalid_same_bar,"[(1206, 785)]",[],[1],[0.6666666666666666],horizontal,"(890.0, 262.0)",0.8833333333333333,0.627,1,2258.394,3,0.04,same
0,358,catch,"[(1194, 791)]",[],[1],[],horizontal,"(390.0, 262.0)",1.7,nan,1,2264.363,3,0.04,same
0,359,valid,"[(1193, 792)]","[(1106, 868)]",[1],[0.45],vertical,"(390.0, 262.0)",,"('bar', 0.462)",0,2270.428,0,0.02,same
0,360,valid,"[(1147, 798)]",[],[1],[0.5833333333333334],vertical,"(390.0, 762.0)",0.95,0.544,1,2272.942,1,0.02,same
0,361,valid,"[(1205, 777)]",[],[1],[0.45],horizontal,"(890.0, 262.0)",1.3833333333333333,0.413,1,2277.928,1,0.02,same
0,362,valid,"[(1170, 766)]",[],[1],[0.4666666666666667],vertical,"(390.0, 262.0)",1.45,0.427,1,2283.418,1,0.02,same
0,363,valid,"[(1180, 762)]",[],[1],[0.5333333333333333],horizontal,"(390.0, 262.0)",1.3,0.498,1,2288.835,2,0.02,same
0,364,valid,"[(1195, 791)]",[],[1],[],horizontal,"(390.0, 762.0)",,"('fix', 0.642)",0,2294.443,0,0.02,same
0,365,valid,"[(1164, 801)]",[],[1],[0.5166666666666666],horizontal,"(890.0, 762.0)",0.36666666666666664,0.479,1,2296.678,1,0.02,same
0,366,valid,"[(1180, 792)]",[],[1],[0.5333333333333333],horizontal,"(890.0, 762.0)",0.8833333333333333,0.494,1,2300.888,1,0.02,same
0,367,catch,"[(1180, 784)]",[],[1],[],vertical,"(890.0, 262.0)",1.7,nan,1,2305.578,1,0.02,same
0,368,invalid_same_bar,"[(1220, 782)]",[],[1],[],horizontal,"(390.0, 262.0)",,"('fix', 0.166)",0,2310.545,0,0.02,same
0,369,catch,"[(1167, 824)]",[],[1],[],horizontal,"(890.0, 762.0)",1.7,nan,1,2312.263,1,0.02,same
0,370,valid,"[(1195, 786)]",[],[1],[0.6],horizontal,"(890.0, 262.0)",1.1166666666666667,0.561,1,2318.547,1,0.02,same
0,371,valid,"[(1204, 791)]",[],[1],[0.6],vertical,"(890.0, 262.0)",0.5166666666666666,0.571,1,2323.518,1,0.02,same
0,372,invalid_same_bar,"[(1203, 800)]",[],[1],[0.13333333333333333],vertical,"(890.0, 262.0)",1.3833333333333333,0.104,0,2328.237,0,0.02,same
0,373,invalid_same_bar,"[(1142, 801)]",[],[1],[0.6333333333333333],horizontal,"(890.0, 762.0)",0.8,0.604,1,2332.993,1,0.02,same
0,374,valid,"[(1180, 772)]","[(1100, 853)]",[1],[0.5333333333333333],vertical,"(890.0, 262.0)",,"('bar', 0.542)",0,2362.429,0,0.02,same
0,375,valid,"[(1161, 797)]",[],[1],[0.65],vertical,"(390.0, 262.0)",1.0,0.606,1,2365.209,1,0.02,same
0,376,invalid_same_bar,"[(1166, 798)]",[],[1],[0.45],vertical,"(390.0, 762.0)",0.7,0.41,1,2370.21,1,0.02,same
0,377,catch,"[(1185, 772)]",[],[1],[],vertical,"(890.0, 262.0)",1.7,nan,1,2374.504,1,0.02,same
0,378,valid,"[(1213, 798)]",[],[1],[],horizontal,"(390.0, 262.0)",,"('cti', 0.327)",0,2379.527,0,0.02,same
0,379,catch,"[(1165, 781)]",[],[1],[],horizontal,"(390.0, 262.0)",1.7,nan,1,2382.464,1,0.02,same
0,380,valid,"[(1205, 790)]","[(1126, 886)]",[1],[0.4666666666666667],vertical,"(890.0, 262.0)",,"('bar', 0.472)",0,2387.839,0,0.02,same
0,381,valid,"[(1165, 764)]",[],[1],[0.48333333333333334],vertical,"(890.0, 762.0)",1.4666666666666666,0.442,1,2390.571,1,0.02,same
0,382,valid,"[(1165, 817)]",[],[1],[0.48333333333333334],horizontal,"(390.0, 762.0)",1.2333333333333334,0.444,1,2396.094,1,0.02,same
0,383,valid,"[(1195, 788)]",[],[1],[0.5],horizontal,"(890.0, 762.0)",0.9166666666666666,0.466,1,2402.044,1,0.02,same
0,384,valid,"[(1192, 801)]",[],[1],[0.5],vertical,"(390.0, 262.0)",0.5833333333333334,0.46,1,2407.023,2,0.0,same
0,385,invalid_same_bar,"[(1175, 781)]",[],[1],[0.5333333333333333],vertical,"(890.0, 262.0)",0.9666666666666667,0.492,1,2412.095,2,0.0,same
0,386,catch,"[(1178, 779)]",[],[1],[],horizontal,"(390.0, 262.0)",1.7,nan,1,2417.694,2,0.0,same
0,387,valid,"[(1195, 800)]","[(1112, 860)]",[1],[0.3833333333333333],vertical,"(390.0, 762.0)",,"('bar', 0.398)",0,2423.221,0,0.0,same
0,388,catch,"[(1165, 789)]",[],[1],[],horizontal,"(390.0, 262.0)",1.7,nan,1,2425.928,1,0.0,same
0,389,valid,"[(1190, 782)]",[],[1],[0.5666666666666667],horizontal,"(390.0, 762.0)",1.0333333333333332,0.529,1,2431.452,1,0.0,same
0,390,catch,"[(1200, 776)]",[],[1],[],vertical,"(390.0, 262.0)",1.7,nan,1,2436.357,1,0.0,same
0,391,valid,"[(1207, 800)]",[],[1],[0.5],vertical,"(890.0, 762.0)",0.7833333333333333,0.462,1,2441.411,2,0.0,same
0,392,catch,"[(1208, 796)]",[],[1],[],vertical,"(390.0, 262.0)",,"('fix', 0.199),nan",0,2446.527,0,0.02,same
0,393,valid,"[(1165, 793)]",[],[1],[0.85],horizontal,"(390.0, 262.0)",0.8833333333333333,nan,0,2448.33,0,0.02,same
0,394,valid,"[(1162, 777)]",[],[1],[0.6666666666666666],horizontal,"(890.0, 262.0)",0.36666666666666664,0.621,1,2453.162,1,0.02,same
0,395,valid,"[(1200, 792)]",[],[1],[0.55],horizontal,"(890.0, 262.0)",1.2666666666666666,0.504,1,2457.913,1,0.02,same
0,396,valid,"[(1165, 831)]",[],[1],[0.6166666666666667],horizontal,"(890.0, 262.0)",0.3833333333333333,0.577,1,2463.078,1,0.02,same
0,397,catch,"[(1203, 781)]",[],[1],[],horizontal,"(390.0, 262.0)",1.7,nan,1,2468.078,2,0.02,same
0,398,valid,"[(1175, 794)]","[(1168, 853)]",[1],[0.36666666666666664],vertical,"(890.0, 262.0)",,"('bar', 0.376)",0,2474.027,0,0.02,same
0,399,catch,"[(1170, 791)]",[],[1],[],vertical,"(390.0, 262.0)",1.7,nan,1,2476.678,1,0.02,same
0,400,catch,"[(1200, 775)]",[],[1],[],horizontal,"(390.0, 762.0)",1.7,nan,1,2481.544,1,0.02,same
0,401,catch,"[(1205, 780)]","[(1131, 866)]",[1],[0.55],horizontal,"(390.0, 262.0)",,"('bar', 0.565),nan",0,2486.528,0,0.04,same
0,402,catch,"[(1140, 770)]",[],[1],[],horizontal,"(890.0, 262.0)",1.7,nan,1,2489.17,1,0.04,same
0,403,catch,"[(1175, 817)]",[],[1],[],horizontal,"(890.0, 762.0)",1.7,nan,1,2503.988,1,0.04,same
0,404,valid,"[(1194, 778)]",[],[1],[0.55],horizontal,"(390.0, 262.0)",1.0666666666666667,0.512,1,2509.027,1,0.04,same
0,405,valid,"[(1163, 835)]",[],[1],[0.65],vertical,"(890.0, 762.0)",1.1,0.609,1,2514.271,2,0.04,same
0,406,valid,"[(1209, 792)]",[],[1],[],horizontal,"(890.0, 262.0)",,"('cti', 0.081)",0,2520.295,0,0.04,same
0,407,valid,"[(1138, 797)]",[],[1],[0.5833333333333334],horizontal,"(390.0, 262.0)",1.2333333333333334,0.54,1,2523.445,1,0.04,same
0,408,valid,"[(1179, 799)]",[],[1],[0.43333333333333335],vertical,"(890.0, 262.0)",0.75,0.393,1,2536.845,1,0.04,same
0,409,valid,"[(1177, 796)]",[],[1],[0.5666666666666667],horizontal,"(390.0, 262.0)",0.35,0.521,1,2541.162,1,0.04,same
0,410,valid,"[(1190, 806)]",[],[1],[0.5],horizontal,"(390.0, 262.0)",0.7166666666666667,0.461,1,2545.877,2,0.04,same
0,411,valid,"[(1192, 819)]","[(1172, 869)]",[1],[0.5666666666666667],horizontal,"(890.0, 262.0)",,"('bar', 0.572)",0,2550.865,0,0.04,same
0,412,catch,"[(1158, 806)]",[],[1],[],horizontal,"(390.0, 262.0)",1.7,nan,1,2553.795,1,0.04,same
0,413,valid,"[(1160, 841)]",[],[1],[0.4666666666666667],horizontal,"(890.0, 262.0)",1.35,0.429,1,2558.877,1,0.04,same
0,414,valid,"[(1175, 781)]",[],[1],[0.7],horizontal,"(890.0, 762.0)",0.43333333333333335,0.658,1,2801.97,1,0.04,same
0,415,invalid_same_bar,"[(1192, 776)]",[],[1],[0.45],horizontal,"(390.0, 762.0)",1.45,0.408,1,2806.812,2,0.04,same
0,416,valid,"[(1180, 777)]",[],[1],[0.5833333333333334],vertical,"(390.0, 262.0)",1.2166666666666666,0.548,1,2812.564,2,0.04,same
0,417,catch,"[(1189, 765)]",[],[1],[],vertical,"(890.0, 762.0)",1.7,nan,1,2818.316,2,0.04,same
0,418,valid,"[(1171, 796)]",[],[1],[0.45],vertical,"(390.0, 762.0)",1.3666666666666667,0.417,1,2823.628,3,0.04,same
0,419,valid,"[(1175, 773)]",[],[1],[0.4666666666666667],vertical,"(890.0, 762.0)",0.7333333333333333,0.432,1,2829.664,3,0.04,same
0,420,catch,"[(1177, 780)]",[],[1],[],horizontal,"(390.0, 262.0)",,"('cti', 1.529),nan",0,2834.944,0,0.06,same
0,421,invalid_same_bar,"[(1156, 758)]",[],[1],[0.85],horizontal,"(890.0, 762.0)",0.5333333333333333,nan,0,2839.528,0,0.06,same
0,422,catch,"[(1155, 766)]",[],[1],[],vertical,"(390.0, 262.0)",1.7,nan,1,2844.312,1,0.06,same
0,423,valid,"[(1190, 773)]",[],[1],[0.5333333333333333],vertical,"(390.0, 262.0)",0.7,0.493,1,2849.501,1,0.06,same
0,424,valid,"[(1210, 760)]",[],[1],[0.5166666666666666],horizontal,"(390.0, 762.0)",1.0833333333333333,0.475,1,2853.883,1,0.06,same
0,425,valid,"[(1205, 768)]",[],[1],[],horizontal,"(890.0, 762.0)",,"('cti', 0.667)",0,2859.15,0,0.06,same
0,426,valid,"[(1170, 776)]",[],[1],[0.5833333333333334],vertical,"(390.0, 762.0)",0.7166666666666667,0.542,1,2863.188,1,0.06,same
0,427,invalid_adjacent_other_bar,"[(1203, 796)]",[],[1],[0.48333333333333334],horizontal,"(890.0, 762.0)",0.7833333333333333,0.448,1,2867.879,1,0.06,other
0,428,valid,"[(1204, 765)]","[(1177, 837)]",[1],[0.06666666666666667],horizontal,"(390.0, 262.0)",,"('bar', 0.084)",0,2872.329,0,0.06,same
0,429,valid,"[(1166, 776)]","[(1110, 856)]",[1],[0.45],vertical,"(390.0, 762.0)",,"('bar', 0.459)",0,2874.791,0,0.06,same
0,430,valid,"[(1175, 777)]",[],[1],[0.4],horizontal,"(890.0, 762.0)",0.6833333333333333,0.36,1,2877.528,1,0.06,same
0,431,valid,"[(1186, 793)]",[],[1],[0.5666666666666667],horizontal,"(890.0, 762.0)",1.2166666666666666,0.528,1,2882.28,1,0.06,same
0,432,valid,"[(1180, 772)]",[],[1],[0.45],vertical,"(890.0, 262.0)",1.3333333333333333,0.41,1,2887.088,1,0.06,same
0,433,catch,"[(1181, 765)]",[],[1],[],horizontal,"(390.0, 762.0)",1.7,nan,1,2892.413,2,0.06,same
0,434,catch,"[(1205, 811)]",[],[1],[],vertical,"(890.0, 762.0)",,"('cti', 1.048),nan",0,2897.852,0,0.08,same
0,435,invalid_adjacent_other_bar,"[(1165, 786)]","[(1113, 843)]",[1],[0.26666666666666666],horizontal,"(890.0, 262.0)",,"('bar', 0.279)",0,2901.827,0,0.08,other
0,436,valid,"[(1165, 789)]",[],[1],[0.6],vertical,"(390.0, 262.0)",0.65,0.557,1,2904.448,1,0.08,same
0,437,catch,"[(1199, 786)]",[],[1],[],vertical,"(890.0, 262.0)",1.7,nan,1,2909.071,1,0.08,same
0,438,valid,"[(1209, 775)]",[],[1],[0.65],vertical,"(890.0, 762.0)",0.9166666666666666,0.612,1,2913.855,1,0.08,same
0,439,valid,"[(1175, 775)]",[],[1],[0.8166666666666667],horizontal,"(890.0, 762.0)",0.55,0.778,1,2919.019,2,0.08,same
0,440,valid,"[(1176, 773)]",[],[1],[0.6],horizontal,"(390.0, 262.0)",0.5833333333333334,0.559,1,2924.41,2,0.08,same
0,441,valid,"[(1175, 781)]",[],[1],[0.6333333333333333],horizontal,"(890.0, 262.0)",1.1666666666666667,0.593,1,2929.267,2,0.08,same
0,442,valid,"[(1204, 788)]",[],[1],[0.5333333333333333],vertical,"(390.0, 762.0)",0.6833333333333333,0.489,1,2934.629,3,0.06,same
0,443,invalid_adjacent_other_bar,"[(1172, 773)]",[],[1],[0.5],vertical,"(890.0, 262.0)",0.7333333333333333,0.456,1,2939.93,3,0.06,other
0,444,invalid_adjacent_other_bar,"[(1175, 786)]",[],[1],[0.5],horizontal,"(390.0, 762.0)",1.4333333333333333,0.458,1,2944.976,3,0.06,other
0,445,valid,"[(1181, 778)]",[],[1],[0.5],horizontal,"(890.0, 762.0)",1.0166666666666666,0.457,1,2951.011,3,0.06,same
0,446,valid,"[(1187, 771)]",[],[1],[0.65],vertical,"(390.0, 262.0)",0.8166666666666667,0.606,1,2956.612,3,0.06,same
0,447,valid,"[(1180, 774)]",[],[1],[0.6833333333333333],vertical,"(890.0, 262.0)",0.9166666666666666,0.637,1,2962.096,3,0.06,same
0,448,valid,"[(1206, 779)]",[],[1],[0.85],vertical,"(890.0, 762.0)",1.1166666666666667,nan,0,2967.718,0,0.06,same
0,449,invalid_adjacent_other_bar,"[(1170, 794)]",[],[1],[0.6666666666666666],vertical,"(390.0, 262.0)",0.7,0.624,1,2972.624,1,0.06,other
0,450,valid,"[(1206, 766)]",[],[1],[0.5],vertical,"(390.0, 262.0)",0.5166666666666666,0.458,1,2977.68,1,0.06,same
0,451,valid,"[(1202, 784)]",[],[1],[0.5666666666666667],horizontal,"(890.0, 762.0)",1.0333333333333332,0.526,1,2981.645,1,0.04,same
0,452,valid,"[(1188, 790)]",[],[1],[],horizontal,"(890.0, 762.0)",,"('cti', 0.195)",0,2986.996,0,0.04,same
0,453,valid,"[(1161, 774)]",[],[1],[0.65],horizontal,"(890.0, 762.0)",0.5,0.605,1,2989.963,1,0.04,same
0,454,catch,"[(1201, 793)]",[],[1],[],horizontal,"(390.0, 262.0)",1.7,nan,1,2994.627,1,0.04,same
0,455,valid,"[(1192, 793)]",[],[1],[],horizontal,"(390.0, 762.0)",,"('cti', 1.16)",0,2999.512,0,0.04,same
0,456,valid,"[(1165, 798)]",[],[1],[0.4],horizontal,"(890.0, 762.0)",1.1666666666666667,0.358,1,3003.946,1,0.04,same
0,457,valid,"[(1197, 789)]",[],[1],[0.6],horizontal,"(390.0, 762.0)",1.15,0.558,1,3009.426,1,0.04,same
0,458,valid,"[(1197, 784)]",[],[1],[0.5666666666666667],vertical,"(390.0, 262.0)",0.9666666666666667,0.523,1,3014.445,1,0.04,same
0,459,catch,"[(1211, 782)]",[],[1],[],horizontal,"(390.0, 262.0)",,"('fix', 0.195),nan",0,3019.462,0,0.06,same
0,460,valid,"[(1165, 784)]",[],[1],[0.5833333333333334],vertical,"(890.0, 762.0)",0.8666666666666667,0.536,1,3021.262,1,0.06,same
0,461,valid,"[(1170, 781)]",[],[1],[0.5166666666666666],horizontal,"(390.0, 762.0)",0.7833333333333333,0.475,1,3026.528,1,0.06,same
0,462,invalid_adjacent_other_bar,"[(1204, 786)]",[],[1],[0.5333333333333333],vertical,"(890.0, 262.0)",0.5,0.487,1,3031.595,1,0.06,other
0,463,catch,"[(1223, 789)]",[],[1],[],horizontal,"(390.0, 762.0)",1.7,nan,1,3036.145,2,0.06,same
0,464,valid,"[(1175, 789)]",[],[1],[0.45],vertical,"(890.0, 762.0)",1.4166666666666667,0.407,1,3042.179,2,0.06,same
0,465,valid,"[(1175, 774)]",[],[1],[0.48333333333333334],vertical,"(390.0, 262.0)",0.6666666666666666,0.446,1,3048.034,2,0.06,same
0,466,valid,"[(1183, 772)]",[],[1],[0.75],horizontal,"(390.0, 762.0)",0.7666666666666666,0.697,1,3053.062,3,0.06,same
0,467,valid,"[(1175, 772)]",[],[1],[0.6333333333333333],horizontal,"(890.0, 262.0)",1.1833333333333333,0.589,1,3059.023,3,0.06,same
0,468,valid,"[(1205, 784)]",[],[1],[0.85],vertical,"(890.0, 762.0)",0.7333333333333333,nan,0,3064.734,0,0.06,same
0,469,valid,"[(1154, 798)]",[],[1],[0.6333333333333333],vertical,"(390.0, 262.0)",0.9166666666666666,0.592,1,3069.104,1,0.06,same
0,470,valid,"[(1206, 766)]",[],[1],[0.4166666666666667],vertical,"(390.0, 262.0)",1.2833333333333332,0.377,1,3074.163,1,0.04,same
0,471,valid,"[(1190, 778)]","[(1103, 861)]",[1],[0.7166666666666667],horizontal,"(390.0, 762.0)",,"('bar', 0.732)",0,3079.534,0,0.04,same
0,472,valid,"[(1141, 771)]",[],[1],[0.5166666666666666],vertical,"(390.0, 762.0)",0.8333333333333334,0.473,1,3082.362,1,0.04,same
0,473,valid,"[(1183, 776)]",[],[1],[0.6],vertical,"(390.0, 262.0)",0.7166666666666667,0.556,1,3087.196,1,0.04,same
0,474,valid,"[(1180, 778)]",[],[1],[0.6166666666666667],vertical,"(390.0, 762.0)",0.5166666666666666,0.573,1,3091.846,1,0.04,same
0,475,invalid_same_bar,"[(1180, 799)]",[],[1],[0.6666666666666666],vertical,"(390.0, 262.0)",1.1833333333333333,0.622,1,3096.227,2,0.04,same
0,476,valid,"[(1177, 782)]","[(1121, 834)]",[1],[0.43333333333333335],horizontal,"(890.0, 262.0)",,"('bar', 0.443)",0,3102.009,0,0.04,same
0,477,catch,"[(1160, 773)]",[],[1],[],horizontal,"(890.0, 262.0)",1.7,nan,1,3104.602,1,0.04,same
0,478,catch,"[(1213, 785), (1223, 795)]",[],"[1, 1]",[],horizontal,"(890.0, 762.0)",,"('fix', 0.181),nan",0,3109.691,0,0.06,same
0,479,catch,"[(1161, 795)]",[],[1],[],vertical,"(890.0, 262.0)",,"('cti', 1.669),nan",0,3111.549,0,0.08,same
0,480,catch,"[(1131, 836)]",[],[1],[],horizontal,"(390.0, 762.0)",1.7,nan,1,3116.096,1,0.08,same
0,481,valid,"[(1185, 778)]","[(1104, 860)]",[1],[0.6],vertical,"(890.0, 262.0)",,"('bar', 0.607)",0,3126.388,0,0.08,same
0,482,valid,"[(1146, 811)]",[],[1],[0.55],vertical,"(390.0, 262.0)",1.4333333333333333,0.506,1,3129.156,1,0.08,same
0,483,invalid_same_bar,"[(1165, 783)]",[],[1],[0.5833333333333334],vertical,"(890.0, 762.0)",0.48333333333333334,0.539,1,3134.291,1,0.08,same
0,484,invalid_adjacent_other_bar,"[(1205, 786)]",[],[1],[0.5],horizontal,"(890.0, 762.0)",0.5333333333333333,0.463,1,3138.87,1,0.06,other
0,485,valid,"[(1171, 821)]",[],[1],[0.5166666666666666],horizontal,"(890.0, 762.0)",1.25,0.474,1,3143.712,2,0.06,same
0,486,catch,"[(1175, 779)]",[],[1],[],vertical,"(890.0, 762.0)",1.7,nan,1,3149.346,2,0.06,same
0,487,valid,"[(1205, 796)]",[],[1],[0.4666666666666667],horizontal,"(890.0, 262.0)",0.4666666666666667,0.425,1,3155.329,2,0.06,same
0,488,valid,"[(1217, 779)]",[],[1],[],vertical,"(390.0, 262.0)",,"('fix', 0.148)",0,3160.325,0,0.06,same
0,489,valid,"[(1158, 787)]",[],[1],[0.5833333333333334],vertical,"(890.0, 262.0)",1.2833333333333332,0.542,1,3162.241,1,0.06,same
0,490,valid,"[(1184, 773)]",[],[1],[0.5833333333333334],horizontal,"(890.0, 762.0)",0.7,0.539,1,3167.842,1,0.06,same
0,491,catch,"[(1188, 781)]",[],[1],[],vertical,"(390.0, 262.0)",1.7,nan,1,3172.898,1,0.06,same
0,492,valid,"[(1210, 786)]",[],[1],[0.4666666666666667],vertical,"(890.0, 262.0)",0.48333333333333334,0.43,1,3178.545,2,0.06,same
0,493,valid,"[(1209, 801)]",[],[1],[0.55],vertical,"(890.0, 762.0)",1.3833333333333333,0.509,1,3183.524,2,0.06,same
0,494,valid,"[(1200, 798)]",[],[1],[],vertical,"(890.0, 762.0)",,"('cti', 0.113)",0,3189.278,0,0.06,same
0,495,valid,"[(1165, 777)]",[],[1],[0.7333333333333333],vertical,"(890.0, 262.0)",0.5666666666666667,0.69,1,3192.13,1,0.06,same
0,496,valid,"[(1162, 805)]",[],[1],[0.5],vertical,"(890.0, 762.0)",1.3,0.464,1,3196.546,1,0.06,same
0,497,valid,"[(1199, 784)]",[],[1],[0.5833333333333334],horizontal,"(390.0, 262.0)",0.5166666666666666,0.545,1,3202.378,1,0.06,same
0,498,invalid_same_bar,"[(1161, 800)]",[],[1],[0.5166666666666666],horizontal,"(390.0, 262.0)",0.9833333333333333,0.479,1,3207.09,2,0.06,same
0,499,valid,"[(1210, 800)]",[],[1],[0.5166666666666666],horizontal,"(390.0, 262.0)",1.2833333333333332,0.477,1,3212.396,2,0.06,same
0,500,catch,"[(1178, 780)]",[],[1],[],horizontal,"(890.0, 762.0)",,"('cti', 1.494),nan",0,3217.762,0,0.08,same
0,501,invalid_same_bar,"[(1150, 770)]","[(1126, 817)]",[1],[0.5333333333333333],vertical,"(890.0, 262.0)",,"('bar', 0.546)",0,3222.434,0,0.08,same
0,502,valid,"[(1176, 783)]",[],[1],[0.5833333333333334],vertical,"(390.0, 262.0)",0.55,0.548,1,3225.002,1,0.08,same
0,503,valid,"[(1172, 774)]",[],[1],[0.5],vertical,"(890.0, 262.0)",0.7,0.459,1,3229.886,1,0.08,same
0,504,catch,"[(1194, 768)]",[],[1],[],horizontal,"(890.0, 262.0)",1.7,nan,1,3234.41,1,0.08,same
0,505,valid,"[(1212, 793)]",[],[1],[0.5333333333333333],horizontal,"(390.0, 262.0)",1.1333333333333333,0.494,1,3239.728,2,0.08,same
0,506,catch,"[(1194, 777)]",[],[1],[],horizontal,"(390.0, 262.0)",1.7,nan,1,3245.08,2,0.08,same
0,507,valid,"[(1202, 791)]",[],[1],[0.5166666666666666],vertical,"(390.0, 262.0)",1.3,0.478,1,3250.612,2,0.08,same
0,508,valid,"[(1202, 772)]",[],[1],[0.6333333333333333],vertical,"(390.0, 762.0)",0.4,0.594,1,3255.882,3,0.08,same
0,509,valid,"[(1198, 794)]",[],[1],[0.55],vertical,"(890.0, 762.0)",0.7666666666666666,0.512,1,3261.044,3,0.06,same
0,510,valid,"[(1211, 789)]",[],[1],[],horizontal,"(390.0, 262.0)",,"('fix', 0.181)",0,3266.296,0,0.06,same
0,511,valid,"[(1140, 807)]",[],[1],[0.5166666666666666],horizontal,"(890.0, 262.0)",0.6333333333333333,0.479,1,3268.047,1,0.06,same
0,512,valid,"[(1208, 794)]",[],[1],[0.65],horizontal,"(390.0, 262.0)",0.9833333333333333,0.617,1,3272.69,1,0.06,same
0,513,catch,"[(1185, 788)]",[],[1],[],vertical,"(890.0, 262.0)",1.7,nan,1,3277.77,1,0.06,same
0,514,invalid_adjacent_other_bar,"[(1200, 797)]",[],[1],[0.85],horizontal,"(890.0, 262.0)",1.25,nan,0,3282.751,0,0.06,other
0,515,catch,"[(1166, 781)]",[],[1],[],vertical,"(890.0, 762.0)",1.7,nan,1,3287.811,1,0.06,same
0,516,valid,"[(1204, 794)]",[],[1],[0.35],horizontal,"(890.0, 262.0)",1.5166666666666666,0.311,1,3293.248,1,0.06,same
0,517,valid,"[(1200, 770)]","[(1146, 838)]",[1],[0.23333333333333334],horizontal,"(890.0, 262.0)",,"('bar', 0.251)",0,3298.795,0,0.06,same
0,518,invalid_adjacent_other_bar,"[(1200, 769)]",[],[1],[0.85],horizontal,"(890.0, 262.0)",0.5333333333333333,nan,0,3301.333,0,0.06,other
0,519,valid,"[(1190, 776)]",[],[1],[0.48333333333333334],vertical,"(390.0, 762.0)",0.7333333333333333,0.438,1,3305.746,1,0.06,same
0,520,valid,"[(1200, 794)]",[],[1],[0.48333333333333334],vertical,"(890.0, 262.0)",1.0833333333333333,0.442,1,3310.429,1,0.06,same
0,521,valid,"[(1190, 777)]",[],[1],[0.5],horizontal,"(390.0, 262.0)",0.95,0.458,1,3315.513,1,0.06,same
0,522,valid,"[(1200, 779)]",[],[1],[0.7166666666666667],horizontal,"(390.0, 262.0)",0.8666666666666667,0.674,1,3320.196,2,0.06,same
0,523,valid,"[(1195, 796)]",[],[1],[],vertical,"(890.0, 762.0)",,"('cti', 0.931)",0,3325.829,0,0.06,same
0,524,valid,"[(1166, 779)]",[],[1],[0.48333333333333334],horizontal,"(890.0, 262.0)",0.4666666666666667,0.452,1,3329.53,1,0.06,same
0,525,valid,"[(1206, 773)]",[],[1],[0.5666666666666667],vertical,"(390.0, 262.0)",0.6,0.523,1,3334.413,1,0.06,same
0,526,valid,"[(1200, 791)]",[],[1],[0.5166666666666666],horizontal,"(890.0, 262.0)",1.2833333333333332,0.48,1,3338.753,1,0.06,same
0,527,catch,"[(1196, 784)]",[],[1],[],horizontal,"(890.0, 762.0)",1.7,nan,1,3344.014,2,0.06,same
0,528,catch,"[(1194, 769)]",[],[1],[],vertical,"(390.0, 762.0)",1.7,nan,1,3349.78,2,0.04,same
0,529,valid,"[(1175, 790)]",[],[1],[0.6],vertical,"(890.0, 762.0)",0.43333333333333335,0.555,1,3355.545,2,0.02,same
0,530,valid,"[(1184, 799)]",[],[1],[0.6833333333333333],vertical,"(890.0, 262.0)",0.36666666666666664,0.645,1,3360.979,3,0.02,same
0,531,catch,"[(1180, 776)]",[],[1],[],horizontal,"(390.0, 762.0)",1.7,nan,1,3366.695,3,0.02,same
0,532,catch,"[(1200, 794)]",[],[1],[],horizontal,"(890.0, 762.0)",1.7,nan,1,3372.261,3,0.02,same
0,533,valid,"[(1204, 794)]",[],[1],[0.4666666666666667],horizontal,"(890.0, 762.0)",1.5,0.427,1,3378.312,3,0.02,same
0,534,valid,"[(1186, 789)]",[],[1],[0.5],vertical,"(890.0, 762.0)",0.5333333333333333,0.469,1,3384.479,3,0.02,same
0,535,catch,"[(1186, 776)]",[],[1],[],vertical,"(390.0, 762.0)",1.7,nan,1,3390.065,3,0.02,same
0,536,valid,"[(1205, 787)]",[],[1],[0.55],vertical,"(390.0, 262.0)",0.7833333333333333,0.511,1,3396.423,3,0.02,same
0,537,valid,"[(1188, 772)]",[],[1],[0.4666666666666667],horizontal,"(890.0, 262.0)",0.6666666666666666,0.429,1,3401.853,3,0.02,same
0,538,valid,"[(1204, 785)]",[],[1],[0.6166666666666667],vertical,"(390.0, 762.0)",0.36666666666666664,0.574,1,3407.012,3,0.02,same
0,539,catch,"[(1185, 775)]",[],[1],[],vertical,"(890.0, 262.0)",1.7,nan,1,3412.58,3,0.02,same
0,540,valid,"[(1198, 788)]",[],[1],[0.5666666666666667],horizontal,"(390.0, 762.0)",1.2166666666666666,0.526,1,3418.879,3,0.02,same
0,541,valid,"[(1175, 773)]",[],[1],[0.48333333333333334],horizontal,"(390.0, 262.0)",0.8,0.445,1,3424.852,3,0.02,same
0,542,catch,"[(1207, 783)]",[],[1],[],vertical,"(890.0, 762.0)",,"('cti', 1.408),nan",0,3430.325,0,0.04,same
0,543,valid,"[(1165, 773)]",[],[1],[0.5666666666666667],vertical,"(390.0, 762.0)",1.1833333333333333,0.525,1,3434.363,1,0.04,same
0,544,valid,"[(1175, 783)]",[],[1],[0.6166666666666667],horizontal,"(390.0, 262.0)",0.8333333333333334,0.581,1,3439.436,1,0.04,same
0,545,invalid_same_bar,"[(1191, 777)]",[],[1],[0.13333333333333333],horizontal,"(390.0, 762.0)",1.5,0.101,0,3444.448,0,0.04,same
0,546,catch,"[(1165, 787)]",[],[1],[],horizontal,"(890.0, 262.0)",1.7,nan,1,3449.277,1,0.04,same
0,547,valid,"[(1175, 775)]","[(1096, 863)]",[1],[0.5166666666666666],vertical,"(390.0, 762.0)",,"('bar', 0.523)",0,3454.571,0,0.04,same
0,548,invalid_adjacent_other_bar,"[(1162, 778)]",[],[1],[0.5166666666666666],vertical,"(890.0, 762.0)",1.4333333333333333,0.475,1,3457.247,1,0.04,other
0,549,valid,"[(1194, 769)]",[],[1],[0.5666666666666667],horizontal,"(390.0, 762.0)",0.5333333333333333,0.529,1,3462.681,1,0.04,same
0,550,valid,"[(1202, 793)]",[],[1],[0.85],horizontal,"(890.0, 762.0)",0.5833333333333334,nan,0,3466.947,0,0.02,same
0,551,valid,"[(1165, 782)]",[],[1],[0.5333333333333333],vertical,"(890.0, 762.0)",1.4666666666666666,0.491,1,3471.179,1,0.02,same
0,552,catch,"[(1203, 789)]",[],[1],[],horizontal,"(890.0, 262.0)",1.7,nan,1,3476.547,1,0.02,same
0,553,valid,"[(1176, 775)]",[],[1],[0.5666666666666667],vertical,"(890.0, 262.0)",0.75,0.524,1,3481.912,1,0.02,same
0,554,valid,"[(1183, 778)]",[],[1],[0.55],horizontal,"(890.0, 262.0)",0.75,0.504,1,3486.503,2,0.02,same
0,555,valid,"[(1210, 796), (1222, 801)]",[],"[1, 1]",[],horizontal,"(390.0, 762.0)",,"('fix', 0.169)",0,3492.228,0,0.02,same
0,556,invalid_adjacent_other_bar,"[(1169, 779)]",[],[1],[0.6],vertical,"(390.0, 262.0)",0.7833333333333333,0.562,1,3493.962,1,0.02,other
0,557,catch,"[(1180, 793)]",[],[1],[],vertical,"(890.0, 762.0)",1.7,nan,1,3498.962,1,0.02,same
0,558,valid,"[(1197, 773)]",[],[1],[0.85],horizontal,"(390.0, 262.0)",0.8833333333333333,nan,0,3504.313,0,0.02,same
0,559,valid,"[(1162, 772)]",[],[1],[0.5166666666666666],horizontal,"(390.0, 262.0)",1.3833333333333333,0.474,1,3509.067,1,0.02,same
0,560,valid,"[(1189, 775)]",[],[1],[0.65],vertical,"(890.0, 762.0)",1.0,0.603,1,3514.151,1,0.02,same
0,561,catch,"[(1183, 778)]",[],[1],[],vertical,"(890.0, 262.0)",1.7,nan,1,3519.375,1,0.02,same
0,562,catch,"[(1175, 782)]",[],[1],[],vertical,"(890.0, 762.0)",1.7,nan,1,3524.796,2,0.02,same
0,563,valid,"[(1206, 787)]","[(1115, 860)]",[1],[0.5833333333333334],vertical,"(890.0, 262.0)",,"('bar', 0.588)",0,3530.255,0,0.02,same
0,564,invalid_same_bar,"[(1177, 777)]",[],[1],[],vertical,"(890.0, 762.0)",,"('cti', 0.556)",0,3532.897,0,0.02,same
0,565,valid,"[(1178, 781)]",[],[1],[0.48333333333333334],vertical,"(890.0, 262.0)",0.8,0.445,1,3536.813,1,0.02,same
0,566,valid,"[(1180, 765)]",[],[1],[0.6166666666666667],horizontal,"(390.0, 262.0)",0.7333333333333333,0.575,1,3541.435,1,0.02,same
0,567,catch,"[(1183, 767)]",[],[1],[],horizontal,"(890.0, 762.0)",1.7,nan,1,3546.345,1,0.02,same
0,568,catch,"[(1160, 815)]",[],[1],[],horizontal,"(390.0, 762.0)",1.7,nan,1,3552.029,2,0.02,same
0,569,valid,"[(1185, 795)]",[],[1],[0.7],horizontal,"(890.0, 262.0)",1.0666666666666667,0.666,1,3557.687,2,0.02,same
0,570,catch,"[(1199, 794)]",[],[1],[],vertical,"(390.0, 762.0)",1.7,nan,1,3563.063,2,0.02,same
0,571,valid,"[(1200, 799)]",[],[1],[0.7666666666666666],horizontal,"(390.0, 262.0)",1.45,0.724,1,3568.88,3,0.02,same
0,572,catch,"[(1197, 795)]",[],[1],[],vertical,"(890.0, 762.0)",1.7,nan,1,3575.679,3,0.02,same
0,573,valid,"[(1191, 787)]",[],[1],[0.5],vertical,"(390.0, 262.0)",0.9833333333333333,0.461,1,3581.967,3,0.02,same
0,574,catch,"[(1171, 768)]",[],[1],[],vertical,"(390.0, 262.0)",1.7,nan,1,3587.446,3,0.02,same
0,575,valid,"[(1191, 789)]",[],[1],[0.5],horizontal,"(890.0, 762.0)",0.55,0.459,1,3593.795,3,0.02,same
0,576,catch,"[(1180, 770)]",[],[1],[],horizontal,"(890.0, 262.0)",1.7,nan,1,3599.507,3,0.02,same
0,577,valid,"[(1180, 780)]",[],[1],[0.6],vertical,"(890.0, 762.0)",0.5166666666666666,0.56,1,3605.078,3,0.02,same
0,578,valid,"[(1190, 772)]",[],[1],[0.5666666666666667],horizontal,"(890.0, 762.0)",0.7666666666666666,0.527,1,3610.546,3,0.02,same
0,579,catch,"[(1174, 772)]",[],[1],[],horizontal,"(390.0, 762.0)",1.7,nan,1,3616.262,3,0.02,same
0,580,catch,"[(1205, 787)]",[],[1],[],horizontal,"(390.0, 262.0)",1.7,nan,1,3622.585,3,0.02,same
0,581,valid,"[(1208, 798)]",[],[1],[0.55],vertical,"(390.0, 762.0)",0.6166666666666667,0.502,1,3628.663,3,0.02,same
0,582,valid,"[(1202, 772)]",[],[1],[0.5333333333333333],vertical,"(390.0, 262.0)",0.7666666666666666,0.49,1,3634.28,3,0.02,same
0,583,valid,"[(1190, 777)]",[],[1],[0.85],horizontal,"(890.0, 762.0)",0.7666666666666666,nan,0,3639.629,0,0.02,same
0,584,valid,"[(1162, 761)]",[],[1],[0.6333333333333333],horizontal,"(890.0, 262.0)",0.4666666666666667,0.589,1,3643.817,1,0.02,same
0,585,valid,"[(1185, 769)]",[],[1],[],vertical,"(890.0, 762.0)",,"('cti', 0.032)",0,3648.71,0,0.02,same
0,586,valid,"[(1166, 801)]",[],[1],[0.48333333333333334],vertical,"(890.0, 262.0)",0.6333333333333333,0.447,1,3651.358,1,0.02,same
0,587,invalid_adjacent_other_bar,"[(1205, 772)]",[],[1],[0.5166666666666666],horizontal,"(890.0, 762.0)",1.4833333333333334,0.473,1,3656.046,1,0.02,other
0,588,valid,"[(1189, 784)]",[],[1],[0.5333333333333333],vertical,"(390.0, 762.0)",0.8166666666666667,0.491,1,3661.233,1,0.02,same
0,589,invalid_same_bar,"[(1195, 776)]",[],[1],[0.45],horizontal,"(890.0, 762.0)",1.15,0.407,1,3666.379,2,0.02,same
0,590,valid,"[(1208, 796)]",[],[1],[0.85],vertical,"(890.0, 762.0)",0.6333333333333333,nan,0,3672.437,0,0.02,same
0,591,catch,"[(1161, 772)]",[],[1],[],vertical,"(390.0, 762.0)",1.7,nan,1,3676.557,1,0.02,same
0,592,catch,"[(1202, 777)]",[],[1],[],horizontal,"(390.0, 762.0)",1.7,nan,1,3681.983,1,0.0,same
0,593,invalid_same_bar,"[(1206, 775), (1223, 785)]",[],"[1, 1]",[],vertical,"(390.0, 762.0)",,"('fix', 0.184)",0,3687.447,0,0.0,same
0,594,valid,"[(1161, 826)]",[],[1],[0.55],horizontal,"(890.0, 762.0)",0.7666666666666666,0.509,1,3689.148,1,0.0,same
0,595,valid,"[(1178, 773)]",[],[1],[0.65],horizontal,"(390.0, 262.0)",0.5333333333333333,0.609,1,3694.225,1,0.0,same
0,596,valid,"[(1209, 786)]",[],[1],[],horizontal,"(890.0, 762.0)",,"('fix', 0.185)",0,3698.673,0,0.0,same
0,597,invalid_adjacent_other_bar,"[(1168, 798)]",[],[1],[0.7333333333333333],horizontal,"(890.0, 262.0)",0.8166666666666667,0.691,1,3700.449,1,0.0,other
0,598,valid,"[(1211, 789)]",[],[1],[0.5166666666666666],horizontal,"(390.0, 762.0)",1.5333333333333332,0.477,1,3705.407,1,0.0,same
0,599,valid,"[(1210, 786)]",[],[1],[],vertical,"(890.0, 762.0)",,"('cti', 0.279)",0,3710.579,0,0.0,same
0,600,valid,"[(1165, 780)]",[],[1],[0.65],vertical,"(390.0, 262.0)",0.95,0.604,1,3713.62,1,0.0,same
0,601,valid,"[(1185, 773)]",[],[1],[0.6],horizontal,"(890.0, 262.0)",0.7166666666666667,0.562,1,3718.246,1,0.0,same
0,602,catch,"[(1215, 779)]",[],[1],[],horizontal,"(890.0, 762.0)",1.7,nan,1,3723.259,1,0.0,same
0,603,valid,"[(1203, 775)]",[],[1],[0.6166666666666667],horizontal,"(390.0, 762.0)",0.36666666666666664,0.581,1,3728.213,2,0.0,same
0,604,catch,"[(1193, 791)]",[],[1],[],horizontal,"(390.0, 262.0)",1.7,nan,1,3732.959,2,0.0,same
0,605,valid,"[(1208, 778)]",[],[1],[0.5333333333333333],vertical,"(390.0, 762.0)",0.95,0.493,1,3738.748,2,0.0,same
0,606,valid,"[(1197, 794)]",[],[1],[0.5333333333333333],horizontal,"(890.0, 262.0)",1.45,0.494,1,3743.946,3,0.0,same
0,607,valid,"[(1208, 772)]",[],[1],[0.5666666666666667],vertical,"(390.0, 262.0)",1.3,0.527,1,3750.714,3,0.0,same
0,608,invalid_same_bar,"[(1190, 782)]",[],[1],[0.5666666666666667],vertical,"(390.0, 262.0)",1.0,0.532,1,3756.531,3,0.0,same
0,609,valid,"[(1183, 794)]",[],[1],[0.7666666666666666],horizontal,"(390.0, 262.0)",0.85,0.726,1,3762.361,3,0.0,same
0,610,invalid_adjacent_other_bar,"[(1203, 770)]",[],[1],[0.6],vertical,"(890.0, 262.0)",0.5833333333333334,0.552,1,3768.03,3,0.0,other
0,611,valid,"[(1191, 779)]",[],[1],[0.75],horizontal,"(390.0, 762.0)",1.0166666666666666,0.707,1,3773.213,3,0.0,same
0,612,valid,"[(1200, 780)]",[],[1],[0.5333333333333333],vertical,"(390.0, 262.0)",0.4666666666666667,0.496,1,3779.02,3,0.0,same
0,613,invalid_same_bar,"[(1180, 781)]",[],[1],[0.6166666666666667],horizontal,"(890.0, 762.0)",1.2333333333333334,0.574,1,3784.479,3,0.0,same
0,614,catch,"[(1200, 775)]",[],[1],[],horizontal,"(390.0, 262.0)",1.7,nan,1,3790.529,3,0.0,same
0,615,valid,"[(1180, 808)]",[],[1],[0.6166666666666667],horizontal,"(890.0, 762.0)",1.15,0.584,1,3796.662,3,0.0,same
0,616,valid,"[(1158, 806)]",[],[1],[0.85],vertical,"(390.0, 262.0)",0.8166666666666667,nan,0,3802.947,0,0.0,same
0,617,catch,"[(1169, 774)]",[],[1],[],horizontal,"(390.0, 262.0)",1.7,nan,1,3807.575,1,0.0,same
0,618,catch,"[(1192, 771)]",[],[1],[],vertical,"(390.0, 762.0)",1.7,nan,1,3813.19,1,0.0,same
0,619,valid,"[(1210, 757)]",[],[1],[0.65],horizontal,"(890.0, 762.0)",0.9666666666666667,0.609,1,3818.814,1,0.0,same
0,620,invalid_adjacent_other_bar,"[(1183, 777)]",[],[1],[0.5333333333333333],horizontal,"(890.0, 762.0)",1.0333333333333332,0.492,1,3824.079,2,0.0,other
0,621,valid,"[(1206, 771)]",[],[1],[0.55],vertical,"(390.0, 262.0)",1.3666666666666667,0.512,1,3829.209,2,0.0,same
0,622,valid,"[(1210, 791)]",[],[1],[0.5],vertical,"(890.0, 262.0)",1.0333333333333332,0.461,1,3835.097,2,0.0,same
0,623,valid,"[(1201, 796)]",[],[1],[0.6333333333333333],horizontal,"(890.0, 262.0)",0.45,0.592,1,3840.08,3,0.0,same
0,624,invalid_same_bar,"[(1216, 774)]",[],[1],[0.5166666666666666],vertical,"(390.0, 262.0)",0.6,0.473,1,3845.331,3,0.0,same
0,625,invalid_same_bar,"[(1200, 786)]",[],[1],[0.6833333333333333],horizontal,"(390.0, 762.0)",1.5166666666666666,0.636,1,3850.613,3,0.0,same
0,626,valid,"[(1180, 771)]",[],[1],[0.5333333333333333],vertical,"(890.0, 762.0)",1.1666666666666667,0.501,1,3856.914,3,0.0,same
0,627,valid,"[(1180, 766)]",[],[1],[0.5666666666666667],horizontal,"(390.0, 762.0)",1.3833333333333333,0.525,1,3863.122,3,0.0,same
0,628,valid,"[(1179, 777)]",[],[1],[0.45],horizontal,"(390.0, 262.0)",1.4833333333333334,0.407,1,3869.075,3,0.0,same
0,629,valid,"[(1195, 782)]",[],[1],[0.5166666666666666],vertical,"(390.0, 762.0)",0.6833333333333333,0.476,1,3875.438,3,0.0,same
0,630,catch,"[(1197, 783)]",[],[1],[],vertical,"(390.0, 262.0)",1.7,nan,1,3881.276,3,0.0,same
0,631,invalid_adjacent_other_bar,"[(1211, 781)]",[],[1],[0.65],vertical,"(890.0, 262.0)",0.9166666666666666,0.602,1,3886.981,3,0.0,other
0,632,valid,"[(1200, 788)]",[],[1],[0.5166666666666666],horizontal,"(890.0, 262.0)",1.2333333333333334,0.48,1,3892.87,3,0.0,same
0,633,invalid_same_bar,"[(1175, 766)]",[],[1],[0.6166666666666667],horizontal,"(890.0, 762.0)",1.3166666666666667,0.572,1,3898.963,3,0.0,same
0,634,valid,"[(1194, 772)]",[],[1],[0.5],horizontal,"(890.0, 262.0)",0.8666666666666667,0.457,1,3905.196,3,0.0,same
0,635,valid,"[(1175, 772)]",[],[1],[0.6666666666666666],horizontal,"(390.0, 262.0)",1.2,0.616,1,3910.596,3,0.0,same
0,636,catch,"[(1202, 786)]",[],[1],[],horizontal,"(390.0, 262.0)",1.7,nan,1,3916.713,3,0.0,same
0,637,valid,"[(1185, 776)]",[],[1],[0.5],horizontal,"(890.0, 262.0)",0.5833333333333334,0.456,1,3922.847,3,0.0,same
0,638,catch,"[(1204, 786)]",[],[1],[],horizontal,"(890.0, 762.0)",1.7,nan,1,3928.381,3,0.0,same
0,639,catch,"[(1222, 799)]",[],[1],[],horizontal,"(890.0, 762.0)",,"('fix', 0.05),nan",0,3934.079,0,0.02,same
0,640,catch,"[(1159, 777)]",[],[1],[],vertical,"(390.0, 262.0)",1.7,nan,1,3935.745,1,0.02,same
0,641,catch,"[(1208, 766)]",[],[1],[],vertical,"(390.0, 262.0)",1.7,nan,1,3940.605,1,0.02,same
0,642,valid,"[(1188, 781)]",[],[1],[0.6666666666666666],horizontal,"(890.0, 262.0)",1.2666666666666666,0.628,1,3945.688,1,0.02,same
0,643,invalid_adjacent_other_bar,"[(1202, 772)]",[],[1],[0.5166666666666666],vertical,"(390.0, 762.0)",0.75,0.473,1,3951.088,2,0.02,other
0,644,valid,"[(1205, 769)]",[],[1],[0.6],horizontal,"(390.0, 262.0)",0.48333333333333334,0.553,1,3956.016,2,0.02,same
0,645,valid,"[(1204, 785)]",[],[1],[0.55],horizontal,"(390.0, 762.0)",0.4,0.513,1,3960.896,2,0.02,same
0,646,invalid_same_bar,"[(1202, 785)]",[],[1],[0.85],vertical,"(890.0, 262.0)",0.6333333333333333,nan,0,3966.129,0,0.02,same
0,647,valid,"[(1162, 781)]",[],[1],[0.5166666666666666],vertical,"(890.0, 762.0)",0.9,0.473,1,3970.4,1,0.02,same
0,648,catch,"[(1177, 766)]",[],[1],[],horizontal,"(390.0, 762.0)",1.7,nan,1,3975.436,1,0.02,same
0,649,valid,"[(1175, 783)]",[],[1],[0.6],vertical,"(390.0, 262.0)",1.4166666666666667,0.557,1,3980.696,1,0.02,same
0,650,invalid_adjacent_other_bar,"[(1192, 778)]",[],[1],[0.5666666666666667],vertical,"(890.0, 762.0)",0.6166666666666667,0.524,1,3986.042,2,0.02,other
0,651,catch,"[(1190, 771)]",[],[1],[],horizontal,"(390.0, 262.0)",1.7,nan,1,3991.447,2,0.02,same
0,652,valid,"[(1185, 786)]",[],[1],[0.5],horizontal,"(890.0, 762.0)",0.4666666666666667,0.46,1,3996.624,2,0.02,same
0,653,invalid_adjacent_other_bar,"[(1185, 789)]",[],[1],[0.5],vertical,"(390.0, 762.0)",1.0333333333333332,0.462,1,4001.118,3,0.02,other
0,654,valid,"[(1195, 790)]",[],[1],[0.31666666666666665],vertical,"(390.0, 262.0)",1.5,0.277,1,4007.12,3,0.02,same
0,655,valid,"[(1183, 783)]",[],[1],[0.45],vertical,"(390.0, 262.0)",1.5,0.414,1,4013.379,3,0.02,same
0,656,valid,"[(1168, 816)]",[],[1],[0.5666666666666667],horizontal,"(390.0, 262.0)",1.3166666666666667,0.527,1,4019.678,3,0.02,same
0,657,valid,"[(1189, 795)]",[],[1],[0.7],vertical,"(390.0, 262.0)",0.9333333333333333,0.655,1,4025.912,3,0.02,same
0,658,valid,"[(1176, 789)]",[],[1],[0.5166666666666666],vertical,"(390.0, 262.0)",0.5166666666666666,0.475,1,4031.763,3,0.02,same
0,659,catch,"[(1190, 779)]",[],[1],[],horizontal,"(390.0, 762.0)",1.7,nan,1,4037.216,3,0.02,same
0,660,valid,"[(1175, 798)]",[],[1],[0.5166666666666666],horizontal,"(390.0, 262.0)",1.3166666666666667,0.476,1,4043.281,3,0.02,same
0,661,invalid_adjacent_other_bar,"[(1197, 795)]",[],[1],[0.6166666666666667],vertical,"(390.0, 762.0)",1.3833333333333333,0.574,1,4049.189,3,0.02,other
0,662,valid,"[(1195, 780)]","[(1100, 862)]",[1],[0.6],vertical,"(390.0, 762.0)",,"('bar', 0.606)",0,4055.272,0,0.02,same
0,663,valid,"[(1160, 816)]",[],[1],[0.7],vertical,"(890.0, 762.0)",0.95,0.656,1,4058.008,1,0.02,same
0,664,valid,"[(1200, 810)]",[],[1],[0.7166666666666667],vertical,"(390.0, 262.0)",1.05,0.671,1,4063.465,1,0.02,same
0,665,valid,"[(1176, 809)]",[],[1],[0.5],horizontal,"(890.0, 262.0)",1.2833333333333332,0.456,1,4068.523,1,0.02,same
0,666,valid,"[(1168, 777)]",[],[1],[0.5],horizontal,"(390.0, 262.0)",0.5833333333333334,0.455,1,4074.038,2,0.02,same
0,667,valid,"[(1180, 781)]",[],[1],[0.6166666666666667],vertical,"(890.0, 762.0)",0.65,0.572,1,4078.814,2,0.02,same
0,668,catch,"[(1205, 786)]",[],[1],[],horizontal,"(890.0, 262.0)",1.7,nan,1,4083.704,2,0.02,same
0,669,valid,"[(1198, 791)]",[],[1],[0.48333333333333334],horizontal,"(890.0, 262.0)",1.0166666666666666,0.444,1,4088.98,3,0.02,same
0,670,catch,"[(1185, 796)]",[],[1],[],horizontal,"(890.0, 762.0)",1.7,nan,1,4095.296,3,0.02,same
0,671,valid,"[(1175, 792)]",[],[1],[0.85],horizontal,"(890.0, 762.0)",0.6833333333333333,nan,0,4101.462,0,0.02,same
0,672,valid,"[(1160, 785)]",[],[1],[0.6166666666666667],horizontal,"(890.0, 762.0)",1.3,0.575,1,4106.413,1,0.02,same
0,673,catch,"[(1183, 783)]",[],[1],[],vertical,"(390.0, 762.0)",1.7,nan,1,4111.943,1,0.02,same
0,674,valid,"[(1203, 783)]",[],[1],[0.55],horizontal,"(390.0, 762.0)",1.1,0.516,1,4116.99,1,0.02,same
0,675,catch,"[(1204, 802)]",[],[1],[],vertical,"(890.0, 262.0)",1.7,nan,1,4121.842,2,0.02,same
0,676,catch,"[(1185, 777)]",[],[1],[],vertical,"(890.0, 262.0)",1.7,nan,1,4127.548,2,0.02,same
0,677,catch,"[(1205, 774)]",[],[1],[],horizontal,"(890.0, 762.0)",1.7,nan,1,4133.214,2,0.02,same
0,678,valid,"[(1200, 792)]",[],[1],[0.6166666666666667],horizontal,"(890.0, 262.0)",1.5166666666666666,0.577,1,4139.33,3,0.02,same
0,679,catch,"[(1175, 779)]",[],[1],[],horizontal,"(390.0, 762.0)",,"('cti', 0.243),nan",0,4146.147,0,0.04,same
0,680,valid,"[(1159, 782)]",[],[1],[0.6166666666666667],horizontal,"(390.0, 262.0)",1.05,0.571,1,4148.948,1,0.04,same
0,681,catch,"[(1185, 788)]",[],[1],[],horizontal,"(390.0, 762.0)",1.7,nan,1,4153.848,1,0.04,same
0,682,valid,"[(1197, 786)]",[],[1],[],horizontal,"(390.0, 762.0)",,"('cti', 0.441)",0,4158.666,0,0.04,same
0,683,valid,"[(1183, 782)]",[],[1],[0.5833333333333334],horizontal,"(390.0, 762.0)",1.35,0.541,1,4162.57,1,0.04,same
0,684,invalid_same_bar,"[(1201, 783)]",[],[1],[0.5333333333333333],vertical,"(390.0, 762.0)",0.6833333333333333,0.494,1,4168.05,1,0.04,same
0,685,valid,"[(1179, 787)]",[],[1],[0.5],vertical,"(890.0, 262.0)",1.2166666666666666,0.456,1,4172.898,1,0.04,same
0,686,valid,"[(1202, 788)]",[],[1],[0.6833333333333333],horizontal,"(390.0, 762.0)",1.1,0.643,1,4178.041,2,0.04,same
0,687,invalid_same_bar,"[(1204, 796)]",[],[1],[],horizontal,"(890.0, 762.0)",,"('fix', 0.184)",0,4183.603,0,0.04,same
0,688,catch,"[(1135, 816)]",[],[1],[],horizontal,"(890.0, 262.0)",1.7,nan,1,4185.332,1,0.04,same
0,689,catch,"[(1191, 777)]",[],[1],[],horizontal,"(890.0, 262.0)",,"('cti', 0.049),nan",0,4190.763,0,0.04,same
0,690,valid,"[(1160, 776)]",[],[1],[0.3333333333333333],horizontal,"(390.0, 762.0)",1.35,0.295,1,4193.514,1,0.04,same
0,691,valid,"[(1177, 795)]",[],[1],[0.5333333333333333],horizontal,"(390.0, 262.0)",0.6833333333333333,0.491,1,4198.881,1,0.04,same
0,692,invalid_same_bar,"[(1186, 780)]",[],[1],[0.5166666666666666],vertical,"(390.0, 762.0)",1.2833333333333332,0.483,1,4203.506,1,0.04,same
0,693,valid,"[(1198, 782)]",[],[1],[0.4],horizontal,"(890.0, 262.0)",1.3333333333333333,0.361,1,4208.713,2,0.04,same
0,694,valid,"[(1203, 781)]",[],[1],[0.5333333333333333],vertical,"(390.0, 262.0)",1.4333333333333333,0.497,1,4214.498,2,0.04,same
0,695,valid,"[(1187, 774)]",[],[1],[0.6666666666666666],horizontal,"(390.0, 762.0)",1.4833333333333334,0.623,1,4220.546,2,0.04,same
0,696,catch,"[(1208, 782)]",[],[1],[],horizontal,"(890.0, 262.0)",1.7,nan,1,4226.781,3,0.04,same
0,697,valid,"[(1189, 776)]",[],[1],[0.5333333333333333],horizontal,"(890.0, 762.0)",1.15,0.493,1,4232.696,3,0.04,same
0,698,valid,"[(1195, 802)]",[],[1],[0.6],vertical,"(890.0, 762.0)",1.25,0.564,1,4238.684,3,0.04,same
0,699,valid,"[(1195, 791)]",[],[1],[0.75],vertical,"(890.0, 762.0)",0.5833333333333334,0.706,1,4244.68,3,0.04,same
0,700,invalid_same_bar,"[(1179, 768)]",[],[1],[0.75],vertical,"(890.0, 762.0)",0.7166666666666667,0.713,1,4250.141,3,0.04,same
0,701,valid,"[(1185, 776)]",[],[1],[0.55],horizontal,"(390.0, 762.0)",1.05,0.511,1,4255.9,3,0.04,same
0,702,invalid_adjacent_other_bar,"[(1179, 772)]",[],[1],[0.85],vertical,"(890.0, 762.0)",1.1333333333333333,nan,0,4261.764,0,0.04,other
0,703,catch,"[(1155, 779)]",[],[1],[],horizontal,"(890.0, 262.0)",1.7,nan,1,4266.832,1,0.04,same
0,704,catch,"[(1183, 786)]",[],[1],[],vertical,"(390.0, 762.0)",1.7,nan,1,4272.314,1,0.04,same
0,705,valid,"[(1180, 781)]",[],[1],[0.4666666666666667],vertical,"(390.0, 762.0)",0.6833333333333333,0.437,1,4277.613,1,0.04,same
0,706,catch,"[(1196, 804)]","[(1152, 855)]",[1],[0.13333333333333333],horizontal,"(390.0, 762.0)",,"('bar', 0.15),nan",0,4282.281,0,0.06,same
0,707,valid,"[(1180, 790)]",[],[1],[0.7333333333333333],horizontal,"(890.0, 762.0)",0.9333333333333333,0.692,1,4284.747,1,0.06,same
0,708,catch,"[(1181, 790)]",[],[1],[],vertical,"(390.0, 762.0)",1.7,nan,1,4289.616,1,0.06,same
0,709,invalid_same_bar,"[(1191, 767)]",[],[1],[0.6333333333333333],vertical,"(890.0, 262.0)",0.36666666666666664,0.59,1,4294.948,1,0.06,same
0,710,invalid_same_bar,"[(1203, 780)]",[],[1],[0.85],horizontal,"(890.0, 762.0)",0.9666666666666667,nan,0,4299.323,0,0.06,same
0,711,valid,"[(1169, 771)]",[],[1],[0.6],vertical,"(890.0, 762.0)",0.8333333333333334,0.562,1,4304.113,1,0.06,same
0,712,valid,"[(1186, 786)]",[],[1],[0.5333333333333333],horizontal,"(890.0, 762.0)",0.6833333333333333,0.501,1,4308.931,1,0.06,same
0,713,valid,"[(1199, 789)]",[],[1],[0.55],vertical,"(390.0, 262.0)",1.1833333333333333,0.515,1,4313.503,1,0.06,same
0,714,valid,"[(1185, 760)]",[],[1],[0.5333333333333333],horizontal,"(390.0, 762.0)",0.9666666666666667,0.491,1,4318.312,2,0.06,same
0,715,valid,"[(1190, 797)]",[],[1],[0.5],vertical,"(390.0, 762.0)",0.65,0.457,1,4324.114,2,0.06,same
0,716,catch,"[(1203, 771)]",[],[1],[],horizontal,"(890.0, 762.0)",1.7,nan,1,4328.704,2,0.06,same
0,717,valid,"[(1205, 776)]",[],[1],[0.5666666666666667],vertical,"(890.0, 762.0)",0.65,0.524,1,4334.097,3,0.06,same
0,718,catch,"[(1180, 774)]",[],[1],[],vertical,"(390.0, 762.0)",1.7,nan,1,4339.374,3,0.06,same
0,719,valid,"[(1192, 788)]",[],[1],[0.5166666666666666],horizontal,"(390.0, 262.0)",0.9,0.484,1,4345.835,3,0.06,same
0,720,catch,"[(1190, 779)]",[],[1],[],horizontal,"(390.0, 762.0)",1.7,nan,1,4351.651,3,0.06,same
0,721,valid,"[(1185, 769)]",[],[1],[0.7],horizontal,"(390.0, 762.0)",1.0166666666666666,0.652,1,4357.981,3,0.06,same
0,722,valid,"[(1202, 782)]",[],[1],[0.6],horizontal,"(890.0, 262.0)",1.1,0.555,1,4363.665,3,0.06,same
0,723,catch,"[(1197, 776)]",[],[1],[],vertical,"(890.0, 762.0)",1.7,nan,1,4369.665,3,0.06,same
0,724,valid,"[(1181, 774)]",[],[1],[0.5],vertical,"(390.0, 762.0)",0.9333333333333333,0.461,1,4375.522,3,0.06,same
0,725,valid,"[(1205, 786)]",[],[1],[0.5166666666666666],vertical,"(890.0, 262.0)",0.6166666666666667,0.476,1,4381.374,3,0.06,same
0,726,valid,"[(1200, 776)]",[],[1],[0.65],vertical,"(890.0, 762.0)",0.3833333333333333,0.607,1,4386.68,3,0.06,same
0,727,valid,"[(1192, 766)]",[],[1],[0.6333333333333333],horizontal,"(390.0, 762.0)",0.95,0.588,1,4392.278,3,0.06,same
0,728,catch,"[(1190, 774)]",[],[1],[],vertical,"(890.0, 262.0)",1.7,nan,1,4398.048,3,0.06,same
0,729,catch,"[(1195, 772)]",[],[1],[],vertical,"(890.0, 262.0)",1.7,nan,1,4403.987,3,0.04,same
0,730,valid,"[(1189, 773)]",[],[1],[0.5],vertical,"(890.0, 762.0)",0.9666666666666667,0.466,1,4410.198,3,0.04,same
0,731,invalid_adjacent_other_bar,"[(1190, 791)]",[],[1],[0.7333333333333333],vertical,"(390.0, 762.0)",0.9,0.698,1,4415.99,3,0.04,other
0,732,valid,"[(1175, 770)]",[],[1],[0.6],horizontal,"(890.0, 762.0)",0.9,0.559,1,4422.047,3,0.04,same
0,733,catch,"[(1202, 779)]",[],[1],[],vertical,"(890.0, 262.0)",1.7,nan,1,4427.514,3,0.04,same
0,734,invalid_adjacent_other_bar,"[(1195, 782)]",[],[1],[0.6],vertical,"(390.0, 262.0)",0.9666666666666667,0.551,1,4433.731,3,0.04,other
0,735,valid,"[(1205, 776)]",[],[1],[0.5],horizontal,"(390.0, 262.0)",0.8833333333333333,0.466,1,4439.73,3,0.04,same
0,736,catch,"[(1215, 777)]",[],[1],[],horizontal,"(890.0, 762.0)",,"('fix', 0.2),nan",0,4445.691,0,0.06,same
0,737,valid,"[(1175, 792)]",[],[1],[0.5],horizontal,"(390.0, 262.0)",0.5333333333333333,0.466,1,4447.449,1,0.06,same
0,738,valid,"[(1202, 787)]",[],[1],[0.5166666666666666],horizontal,"(890.0, 262.0)",1.4333333333333333,0.476,1,4451.731,1,0.06,same
0,739,valid,"[(1193, 778)]",[],[1],[0.3833333333333333],vertical,"(890.0, 762.0)",1.5,0.348,1,4457.163,1,0.04,same
0,740,invalid_same_bar,"[(1204, 788)]",[],[1],[0.6],vertical,"(390.0, 762.0)",1.2,0.556,1,4462.915,2,0.04,same
0,741,invalid_adjacent_other_bar,"[(1204, 774)]",[],[1],[0.6666666666666666],vertical,"(890.0, 262.0)",0.9833333333333333,0.618,1,4468.889,2,0.04,other
0,742,valid,"[(1175, 778)]",[],[1],[0.48333333333333334],vertical,"(390.0, 262.0)",0.5,0.446,1,4473.997,2,0.04,same
0,743,valid,"[(1175, 775)]",[],[1],[0.5],vertical,"(390.0, 762.0)",1.25,0.463,1,4479.098,3,0.04,same
0,744,catch,"[(1175, 788)]",[],[1],[],horizontal,"(890.0, 762.0)",1.7,nan,1,4485.539,3,0.04,same
0,745,invalid_adjacent_other_bar,"[(1204, 774)]",[],[1],[0.5666666666666667],horizontal,"(390.0, 762.0)",1.4333333333333333,0.519,1,4491.897,3,0.04,other
0,746,valid,"[(1201, 781)]",[],[1],[0.5666666666666667],horizontal,"(390.0, 262.0)",0.55,0.524,1,4497.88,3,0.04,same
0,747,catch,"[(1190, 772)]",[],[1],[],horizontal,"(390.0, 762.0)",1.7,nan,1,4503.69,3,0.04,same
0,748,valid,"[(1200, 769)]",[],[1],[0.6166666666666667],horizontal,"(390.0, 762.0)",1.0,0.573,1,4509.604,3,0.04,same
0,749,invalid_same_bar,"[(1164, 802)]",[],[1],[0.5333333333333333],vertical,"(890.0, 762.0)",1.1833333333333333,0.494,1,4515.33,3,0.04,same
0,750,catch,"[(1195, 789)]",[],[1],[],vertical,"(390.0, 262.0)",1.7,nan,1,4521.864,3,0.04,same
0,751,valid,"[(1181, 777)]",[],[1],[0.5166666666666666],horizontal,"(390.0, 262.0)",1.0,0.477,1,4527.783,3,0.04,same
0,752,catch,"[(1181, 767)]",[],[1],[],vertical,"(890.0, 262.0)",1.7,nan,1,4533.515,3,0.04,same
0,753,valid,"[(1204, 777)]",[],[1],[0.6333333333333333],horizontal,"(390.0, 262.0)",1.05,0.598,1,4539.757,3,0.04,same
0,754,valid,"[(1181, 778)]",[],[1],[0.5333333333333333],horizontal,"(890.0, 762.0)",0.36666666666666664,0.493,1,4545.681,3,0.04,same
0,755,valid,"[(1203, 796)]",[],[1],[0.5666666666666667],horizontal,"(390.0, 262.0)",0.7833333333333333,0.524,1,4550.831,3,0.04,same
0,756,valid,"[(1180, 772)]",[],[1],[0.5166666666666666],vertical,"(390.0, 262.0)",1.45,0.476,1,4556.329,3,0.02,same
0,757,valid,"[(1187, 777)]",[],[1],[0.65],vertical,"(890.0, 262.0)",0.5166666666666666,0.607,1,4562.965,3,0.02,same
0,758,valid,"[(1206, 782)]",[],[1],[0.5666666666666667],vertical,"(390.0, 762.0)",1.0166666666666666,0.525,1,4568.515,3,0.02,same
0,759,catch,"[(1206, 780)]",[],[1],[],vertical,"(890.0, 762.0)",1.7,nan,1,4574.779,3,0.02,same
0,760,valid,"[(1203, 778)]",[],[1],[0.5],vertical,"(390.0, 262.0)",1.1166666666666667,0.46,1,4580.487,3,0.02,same
0,761,valid,"[(1201, 781)]",[],[1],[0.6166666666666667],vertical,"(390.0, 762.0)",0.4166666666666667,0.572,1,4586.732,3,0.02,same
0,762,catch,"[(1216, 784)]",[],[1],[],vertical,"(890.0, 262.0)",,"('fix', 0.15),nan",0,4592.152,0,0.04,same
0,763,valid,"[(1165, 782)]",[],[1],[0.6166666666666667],vertical,"(890.0, 762.0)",0.65,0.576,1,4593.882,1,0.04,same
0,764,invalid_same_bar,"[(1179, 770)]",[],[1],[0.5166666666666666],horizontal,"(890.0, 762.0)",0.65,0.477,1,4598.417,1,0.04,same
0,765,valid,"[(1205, 804), (1222, 796)]",[],"[1, 1]",[],horizontal,"(390.0, 262.0)",,"('fix', 0.186)",0,4603.269,0,0.04,same
0,766,valid,"[(1138, 784)]",[],[1],[0.5],horizontal,"(890.0, 262.0)",1.3666666666666667,0.459,1,4605.082,1,0.04,same
0,767,valid,"[(1186, 772)]",[],[1],[0.5833333333333334],horizontal,"(890.0, 262.0)",0.9333333333333333,0.541,1,4610.421,1,0.04,same
0,768,catch,"[(1185, 778)]",[],[1],[],vertical,"(390.0, 762.0)",,"('cti', 1.312),nan",0,4615.304,0,0.06,same
0,769,catch,"[(1165, 761)]",[],[1],[],vertical,"(890.0, 262.0)",1.7,nan,1,4619.565,1,0.06,same
0,770,valid,"[(1192, 797)]",[],[1],[0.7166666666666667],vertical,"(890.0, 762.0)",1.0666666666666667,0.67,1,4624.709,1,0.06,same
0,771,catch,"[(1179, 778)]",[],[1],[],horizontal,"(890.0, 762.0)",1.7,nan,1,4629.577,1,0.06,same
0,772,valid,"[(1190, 791)]",[],[1],[0.85],horizontal,"(890.0, 262.0)",0.4666666666666667,nan,0,4635.015,0,0.06,same
0,773,valid,"[(1140, 770)]",[],[1],[0.7833333333333333],horizontal,"(890.0, 262.0)",1.1833333333333333,0.738,1,4639.315,1,0.06,same
0,774,catch,"[(1190, 770)]",[],[1],[],horizontal,"(890.0, 762.0)",1.7,nan,1,4644.6,1,0.06,same
0,775,catch,"[(1184, 779)]",[],[1],[],horizontal,"(890.0, 762.0)",1.7,nan,1,4649.655,1,0.06,same
0,776,catch,"[(1175, 801)]","[(1099, 878)]",[1],[0.7166666666666667],horizontal,"(890.0, 762.0)",,"('bar', 0.727),nan",0,4654.931,0,0.08,same
0,777,valid,"[(1166, 773)]",[],[1],[0.5333333333333333],vertical,"(890.0, 762.0)",1.0333333333333332,0.494,1,4657.833,1,0.08,same
0,778,invalid_adjacent_other_bar,"[(1200, 782)]",[],[1],[0.5166666666666666],horizontal,"(890.0, 262.0)",0.6,0.475,1,4663.082,1,0.08,other
0,779,valid,"[(1217, 787), (1221, 790)]",[],"[1, 1]",[0.5333333333333333],horizontal,"(890.0, 762.0)",0.65,0.494,1,4667.866,1,0.08,same
0,780,catch,"[(1202, 777)]",[],[1],[],horizontal,"(390.0, 762.0)",1.7,nan,1,4672.732,2,0.08,same
0,781,catch,"[(1205, 779)]",[],[1],[0.03333333333333333],vertical,"(890.0, 262.0)",1.7,"0.019,nan",0,4677.903,0,0.1,same
0,782,catch,"[(1175, 763)]",[],[1],[],vertical,"(890.0, 762.0)",1.7,nan,1,4682.448,1,0.1,same
0,783,valid,"[(1165, 768)]",[],[1],[0.5333333333333333],vertical,"(890.0, 762.0)",1.2,0.497,1,4687.313,1,0.1,same
0,784,valid,"[(1195, 797)]",[],[1],[0.5166666666666666],horizontal,"(390.0, 762.0)",1.5333333333333332,0.478,1,4692.664,1,0.1,same
0,785,catch,"[(1183, 777)]",[],[1],[],horizontal,"(890.0, 762.0)",1.7,nan,1,4697.888,2,0.1,same
0,786,invalid_adjacent_other_bar,"[(1201, 790)]",[],[1],[],horizontal,"(890.0, 262.0)",,"('fix', 0.233)",0,4703.364,0,0.08,other
0,787,invalid_adjacent_other_bar,"[(1165, 797)]",[],[1],[0.16666666666666666],horizontal,"(390.0, 762.0)",1.2166666666666666,0.134,0,4705.181,0,0.08,other
0,788,valid,"[(1096, 811)]",[],[1],[0.5333333333333333],vertical,"(890.0, 762.0)",0.7333333333333333,0.49,1,4709.499,1,0.08,same
0,789,valid,"[(1197, 792)]",[],[1],[0.7166666666666667],horizontal,"(390.0, 262.0)",0.9,0.675,1,4716.805,1,0.08,same
0,790,valid,"[(1190, 774)]",[],[1],[0.5833333333333334],horizontal,"(390.0, 762.0)",0.7166666666666667,0.543,1,4721.758,1,0.08,same
0,791,valid,"[(1177, 791)]",[],[1],[0.5833333333333334],vertical,"(890.0, 762.0)",0.9,0.543,1,4726.57,2,0.08,same
0,792,valid,"[(1179, 775)]",[],[1],[0.55],vertical,"(890.0, 762.0)",1.35,0.508,1,4731.66,2,0.08,same
0,793,valid,"[(1186, 772)]",[],[1],[0.48333333333333334],vertical,"(390.0, 262.0)",0.65,0.445,1,4737.264,2,0.08,same
0,794,invalid_adjacent_other_bar,"[(1177, 781)]",[],[1],[0.3333333333333333],vertical,"(390.0, 762.0)",1.4166666666666667,0.294,1,4742.278,3,0.08,other
0,795,valid,"[(1183, 769)]",[],[1],[0.4666666666666667],horizontal,"(890.0, 262.0)",0.6333333333333333,0.425,1,4748.781,3,0.08,same
0,796,catch,"[(1186, 777)]",[],[1],[],vertical,"(390.0, 762.0)",1.7,nan,1,4754.332,3,0.08,same
0,797,valid,"[(1180, 782)]",[],[1],[0.55],vertical,"(890.0, 262.0)",1.2666666666666666,0.509,1,4760.206,3,0.08,same
0,798,invalid_adjacent_other_bar,"[(1191, 772)]",[],[1],[0.85],vertical,"(390.0, 262.0)",0.95,nan,0,4766.131,0,0.08,other
0,799,valid,"[(1163, 774)]",[],[1],[0.6333333333333333],vertical,"(390.0, 762.0)",1.35,0.586,1,4770.506,1,0.08,same
0,800,catch,"[(1207, 767)]",[],[1],[],horizontal,"(390.0, 762.0)",1.7,nan,1,4775.782,1,0.08,same
0,801,valid,"[(1180, 762)]",[],[1],[0.4666666666666667],vertical,"(390.0, 762.0)",1.5333333333333332,0.424,1,4780.492,1,0.08,same
0,802,valid,"[(1213, 782)]","[(1173, 856)]",[1],[0.5],vertical,"(390.0, 262.0)",,"('bar', 0.509)",0,4785.787,0,0.08,same
0,803,valid,"[(1170, 772)]",[],[1],[0.5166666666666666],horizontal,"(890.0, 262.0)",0.5833333333333334,0.471,1,4788.583,1,0.08,same
0,804,catch,"[(1180, 765)]",[],[1],[],vertical,"(390.0, 762.0)",,"('cti', 1.19),nan",0,4792.865,0,0.1,same
0,805,valid,"[(1177, 766)]",[],[1],[0.7166666666666667],horizontal,"(890.0, 762.0)",0.4166666666666667,0.671,1,4797.46,1,0.1,same
0,806,valid,"[(1180, 786)]",[],[1],[0.85],horizontal,"(890.0, 762.0)",1.2833333333333332,nan,0,4802.198,0,0.1,same
0,807,valid,"[(1158, 778)]",[],[1],[0.6],horizontal,"(890.0, 762.0)",0.3833333333333333,0.552,1,4807.105,1,0.1,same
0,808,catch,"[(1175, 786)]","[(1175, 832)]",[1],[0.3333333333333333],vertical,"(390.0, 762.0)",,"('bar', 0.349),nan",0,4811.599,0,0.12,same
0,809,valid,"[(1175, 767)]",[],[1],[0.5666666666666667],horizontal,"(390.0, 262.0)",1.1166666666666667,0.522,1,4814.099,1,0.12,same
0,810,catch,"[(1185, 791)]",[],[1],[],vertical,"(390.0, 762.0)",1.7,nan,1,4819.598,1,0.12,same
0,811,valid,"[(1181, 781)]",[],[1],[0.5666666666666667],horizontal,"(890.0, 762.0)",0.7166666666666667,0.522,1,4824.731,1,0.12,same
0,812,valid,"[(1204, 790)]",[],[1],[0.85],horizontal,"(390.0, 762.0)",0.7166666666666667,nan,0,4829.578,0,0.1,same
0,813,catch,"[(1165, 775)]",[],[1],[],vertical,"(890.0, 762.0)",1.7,nan,1,4833.716,1,0.1,same
0,814,invalid_adjacent_other_bar,"[(1177, 787)]",[],[1],[0.85],horizontal,"(390.0, 762.0)",0.9833333333333333,nan,0,4838.9,0,0.1,other
0,815,catch,"[(1140, 779)]",[],[1],[],horizontal,"(890.0, 762.0)",1.7,nan,1,4843.44,1,0.1,same
0,816,catch,"[(1188, 776)]",[],[1],[],horizontal,"(890.0, 262.0)",1.7,nan,1,4848.74,1,0.1,same
0,817,valid,"[(1190, 791)]",[],[1],[0.5333333333333333],horizontal,"(890.0, 262.0)",1.2166666666666666,0.494,1,4854.166,1,0.1,same
0,818,valid,"[(1206, 796)]",[],[1],[0.5],vertical,"(390.0, 262.0)",0.5666666666666667,0.457,1,4859.55,2,0.08,same
0,819,valid,"[(1176, 766)]",[],[1],[0.55],vertical,"(890.0, 262.0)",0.7833333333333333,0.511,1,4864.349,2,0.08,same
0,820,valid,"[(1180, 786)]",[],[1],[0.55],vertical,"(390.0, 262.0)",1.3833333333333333,0.503,1,4869.938,2,0.08,same
0,821,valid,"[(1178, 780)]",[],[1],[0.5833333333333334],horizontal,"(390.0, 762.0)",0.4666666666666667,0.539,1,4875.754,3,0.08,same
0,822,valid,"[(1198, 781)]",[],[1],[0.5333333333333333],vertical,"(890.0, 262.0)",1.1666666666666667,0.49,1,4881.347,3,0.08,same
0,823,catch,"[(1175, 781)]",[],[1],[],vertical,"(890.0, 762.0)",1.7,nan,1,4887.644,3,0.08,same
0,824,valid,"[(1190, 779)]",[],[1],[0.6333333333333333],vertical,"(890.0, 262.0)",1.1166666666666667,0.588,1,4893.231,3,0.08,same
0,825,valid,"[(1210, 796)]",[],[1],[],vertical,"(890.0, 762.0)",,"('fix', 0.213)",0,4899.416,0,0.08,same
0,826,valid,"[(1164, 806)]",[],[1],[0.7],horizontal,"(890.0, 762.0)",0.6333333333333333,0.656,1,4901.147,1,0.06,same
0,827,invalid_same_bar,"[(1205, 781)]",[],[1],[0.5166666666666666],vertical,"(390.0, 262.0)",0.7333333333333333,0.476,1,4905.996,1,0.06,same
0,828,valid,"[(1169, 775)]",[],[1],[0.5333333333333333],horizontal,"(390.0, 762.0)",1.5166666666666666,0.487,1,4910.814,1,0.06,same
0,829,valid,"[(1202, 821)]",[],[1],[0.6166666666666667],vertical,"(890.0, 762.0)",1.1166666666666667,0.565,1,4916.757,2,0.06,same
0,830,catch,"[(1185, 784)]",[],[1],[],horizontal,"(390.0, 762.0)",1.7,nan,1,4921.989,2,0.06,same
0,831,catch,"[(1183, 779)]",[],[1],[],vertical,"(890.0, 762.0)",1.7,nan,1,4927.625,2,0.04,same
0,832,valid,"[(1175, 772)]",[],[1],[0.6333333333333333],vertical,"(890.0, 762.0)",0.9166666666666666,0.592,1,4933.281,3,0.04,same
0,833,invalid_same_bar,"[(1175, 795)]",[],[1],[0.6166666666666667],horizontal,"(390.0, 262.0)",0.9666666666666667,0.576,1,4939.302,3,0.04,same
0,834,valid,"[(1175, 796)]",[],[1],[0.5833333333333334],vertical,"(890.0, 762.0)",1.3,0.537,1,4945.106,3,0.04,same
0,835,catch,"[(1177, 770)]",[],[1],[],vertical,"(390.0, 262.0)",1.7,nan,1,4950.967,3,0.04,same
0,836,catch,"[(1180, 799)]",[],[1],[],vertical,"(390.0, 762.0)",1.7,nan,1,4956.848,3,0.04,same
0,837,catch,"[(1179, 796)]",[],[1],[],vertical,"(890.0, 262.0)",,"('cti', 1.65),nan",0,4962.416,0,0.06,same
0,838,valid,"[(1161, 796)]",[],[1],[0.6333333333333333],vertical,"(890.0, 262.0)",0.7166666666666667,0.592,1,4967.448,1,0.06,same
0,839,catch,"[(1175, 786)]",[],[1],[],horizontal,"(390.0, 262.0)",1.7,nan,1,4971.948,1,0.06,same
0,840,catch,"[(1190, 792)]",[],[1],[],horizontal,"(890.0, 762.0)",1.7,nan,1,4977.139,1,0.06,same
0,841,valid,"[(1207, 774)]",[],[1],[0.6166666666666667],vertical,"(390.0, 762.0)",0.5,0.574,1,4982.131,2,0.06,same
0,842,valid,"[(1183, 787)]",[],[1],[0.55],vertical,"(890.0, 262.0)",1.1666666666666667,0.506,1,4987.212,2,0.06,same
0,843,valid,"[(1183, 780)]",[],[1],[0.5333333333333333],vertical,"(390.0, 262.0)",1.0,0.498,1,4992.999,2,0.06,same
