block,trial,trial_type,taps_start_loc_during_fix,taps_end_loc_during_fix,taps_on_lever_during_fix,taps_on_lever_s_during_fix,bar_orientation,target_xy,cti,rt,acc,time,pulses,fa_rate_recent100,p_catch
0,1,target,"[(1126, 840)]",[],[1],[0.4666666666666667],horizontal,"(890.0, 262.0)",0.3833333333333333,0.429,1,0.44,1,0.0,0.25
0,2,target,"[(1244, 977), (1256, 218), (1179, 857)]",[],"[0, 0, 1]",[],vertical,"(390.0, 262.0)",,"('fix', 0.529)",0,128.524,0,0.0,0.25
0,3,target,"[(763, 705), (988, 892), (972, 909), (1268, 933), (1248, 958), (1184, 972), (1136, 835)]",[],"[0, 0, 0, 0, 0, 0, 1]",[],horizontal,"(390.0, 762.0)",,"('fix', 0.284)",0,660.347,0,0.0,0.25
0,4,target,"[(973, 903), (1053, 943)]","[(1057, 927)]","[0, 1]",[0.06666666666666667],horizontal,"(390.0, 262.0)",,"('bar', 0.083)",0,669.628,0,0.0,0.25
0,5,target,"[(1123, 874)]",[],[1],[],vertical,"(890.0, 262.0)",,"('fix', 0.052)",0,685.277,0,0.0,0.25
0,6,target,"[(1023, 903)]",[],[1],[0.85],horizontal,"(890.0, 262.0)",0.45,"('fix', 0.596),nan",0,687.58,0,0.0,0.25
0,7,catch,"[(1026, 809)]","[(983, 911)]",[1],[0.3],horizontal,"(890.0, 762.0)",,"('bar', 0.312),nan",0,691.912,0,0.14285714285714285,0.25
0,8,target,"[(351, 963), (550, 977), (1078, 359), (1089, 1002), (127, 871), (737, 186), (1103, 378), (1219, 355), (1219, 787)]",[],"[0, 0, 0, 0, 0, 0, 0, 0, 1]",[],vertical,"(890.0, 262.0)",,"('fix', 0.067)",0,708.083,0,0.125,0.25
0,9,target,"[(763, 856), (1246, 890), (1095, 531), (1249, 933), (805, 917), (853, 301), (681, 997), (776, 172), (595, 614), (556, 165), (1279, 392), (1214, 997), (262, 1006), (15, 931), (116, 54), (1147, 281), (1146, 885)]","[(1146, 885)]","[0, 0, 0, 0, 0, 0, 0, 0, 0, 0, 0, 0, 0, 0, 0, 0, 1]",[0.26666666666666666],horizontal,"(890.0, 262.0)",,"('bar', 0.276)",0,713.746,0,0.1111111111111111,0.25
0,10,catch,"[(1151, 857)]",[],[1],[],vertical,"(390.0, 262.0)",,"('fix', 0.248),nan",0,726.598,0,0.2,0.25
0,11,catch,"[(1149, 859)]",[],[1],[],vertical,"(890.0, 262.0)",,"('fix', 0.214),nan",0,728.528,0,0.2727272727272727,0.25
0,12,target,"[(1132, 862)]",[],[1],[],vertical,"(390.0, 262.0)",,"('fix', 0.067)",0,730.3,0,0.25,0.25
0,13,target,"[(964, 910), (965, 868), (1158, 866)]",[],"[0, 0, 1]",[0.85],horizontal,"(390.0, 762.0)",0.65,"('cti', 0.655),nan",0,732.841,0,0.3076923076923077,0.25
0,14,catch,"[(1179, 876)]",[],[1],[],vertical,"(890.0, 762.0)",1.65,nan,1,740.947,1,0.2857142857142857,0.25
0,15,target,"[(1180, 865)]",[],[1],[0.3333333333333333],vertical,"(890.0, 762.0)",0.8333333333333334,0.302,1,748.18,1,0.26666666666666666,0.25
0,16,target,"[(1108, 869)]",[],[1],[],horizontal,"(890.0, 762.0)",,"('fix', 0.118)",0,754.37,0,0.25,0.25
0,17,target,"[(1132, 819)]","[(1123, 821)]",[1],[0.2833333333333333],vertical,"(890.0, 762.0)",,"('bar', 0.301)",0,757.029,0,0.23529411764705882,0.25
0,18,target,"[(1250, 973), (1159, 842)]",[],"[0, 1]",[],horizontal,"(890.0, 762.0)",,"('cti', 0.567)",0,759.361,0,0.2777777777777778,0.25
0,19,target,"[(1159, 819)]",[],[1],[0.48333333333333334],vertical,"(390.0, 262.0)",0.5,0.444,1,1132.245,1,0.2631578947368421,0.25
0,20,catch,"[(1180, 785)]",[],[1],[],horizontal,"(390.0, 762.0)",,"('cti', 1.587),nan",0,1137.446,0,0.3,0.25
0,21,target,"[(1169, 795)]",[],[1],[0.48333333333333334],vertical,"(890.0, 262.0)",1.3,0.44,1,1142.636,1,0.2857142857142857,0.25
0,22,catch,"[(1194, 805)]",[],[1],[],vertical,"(890.0, 762.0)",1.65,nan,1,1148.054,1,0.2727272727272727,0.25
0,23,target,"[(1180, 786)]",[],[1],[0.85],horizontal,"(890.0, 262.0)",0.9833333333333333,nan,0,1152.985,0,0.2608695652173913,0.25
0,24,target,"[(1148, 818)]",[],[1],[0.85],vertical,"(390.0, 762.0)",0.5,nan,0,1158.095,0,0.25,0.25
0,25,catch,"[(1149, 805)]",[],[1],[],vertical,"(390.0, 262.0)",,"('cti', 1.21),nan",0,1162.143,0,0.28,0.25
0,26,catch,"[(1170, 797)]",[],[1],[],vertical,"(890.0, 262.0)",1.65,nan,1,1166.617,1,0.2692307692307692,0.25
0,27,target,"[(1159, 797)]",[],[1],[0.5333333333333333],horizontal,"(390.0, 762.0)",1.0833333333333333,0.493,1,1171.893,1,0.25925925925925924,0.25
0,28,target,"[(1179, 791)]",[],[1],[0.5166666666666666],vertical,"(390.0, 262.0)",1.4833333333333334,0.475,1,1176.946,1,0.25,0.25
0,29,target,"[(1192, 767)]",[],[1],[0.48333333333333334],horizontal,"(890.0, 762.0)",1.4833333333333334,0.441,1,1182.876,2,0.2413793103448276,0.25
0,30,target,"[(1174, 785)]",[],[1],[0.48333333333333334],vertical,"(390.0, 262.0)",0.43333333333333335,0.442,1,1189.233,2,0.23333333333333334,0.25
0,31,catch,"[(1176, 779)]",[],[1],[],horizontal,"(890.0, 762.0)",1.65,nan,1,1194.072,2,0.22580645161290322,0.25
0,32,target,"[(1166, 797)]",[],[1],[0.5666666666666667],vertical,"(390.0, 262.0)",1.1666666666666667,0.526,1,1199.913,2,0.21875,0.25
0,33,catch,"[(1181, 784)]",[],[1],[],vertical,"(390.0, 262.0)",1.65,nan,1,1205.59,3,0.21212121212121213,0.25
0,34,target,"[(1163, 773)]",[],[1],[0.85],horizontal,"(890.0, 762.0)",0.5,nan,0,1211.237,0,0.20588235294117646,0.25
0,35,catch,"[(1142, 784)]",[],[1],[],vertical,"(890.0, 762.0)",1.65,nan,1,1215.648,1,0.2,0.25
0,36,catch,"[(1158, 784)]",[],[1],[],vertical,"(390.0, 262.0)",1.65,nan,1,1220.681,1,0.19444444444444445,0.25
0,37,catch,"[(1165, 776)]",[],[1],[],horizontal,"(890.0, 262.0)",1.65,nan,1,1225.59,1,0.1891891891891892,0.25
0,38,target,"[(1155, 779)]",[],[1],[0.5333333333333333],horizontal,"(390.0, 262.0)",1.35,0.488,1,1230.464,2,0.18421052631578946,0.25
0,39,target,"[(1159, 792)]",[],[1],[0.65],vertical,"(390.0, 762.0)",0.9,0.608,1,1236.064,2,0.1794871794871795,0.25
0,40,target,"[(1158, 774)]",[],[1],[0.05],horizontal,"(390.0, 762.0)",1.5333333333333332,0.02,0,1241.347,0,0.175,0.25
0,41,catch,"[(1159, 783)]",[],[1],[],horizontal,"(390.0, 762.0)",1.65,nan,1,1246.13,1,0.17073170731707318,0.25
0,42,target,"[(1138, 755)]",[],[1],[0.48333333333333334],vertical,"(390.0, 262.0)",0.85,0.44,1,1251.347,1,0.16666666666666666,0.25
0,43,target,"[(1179, 782)]",[],[1],[0.48333333333333334],horizontal,"(390.0, 762.0)",1.2666666666666666,0.447,1,1255.899,1,0.16279069767441862,0.25
0,44,target,"[(1165, 805)]",[],[1],[0.48333333333333334],vertical,"(890.0, 262.0)",0.6833333333333333,0.446,1,1261.262,2,0.1590909090909091,0.25
0,45,target,"[(1181, 784)]",[],[1],[0.5833333333333334],vertical,"(890.0, 262.0)",1.1833333333333333,0.541,1,1270.915,2,0.15555555555555556,0.25
0,46,target,"[(1164, 760)]",[],[1],[0.85],horizontal,"(890.0, 762.0)",0.3833333333333333,nan,0,1276.416,0,0.15217391304347827,0.25
0,47,target,"[(1149, 782)]",[],[1],[0.23333333333333334],vertical,"(390.0, 762.0)",1.4666666666666666,0.198,0,1280.564,0,0.14893617021276595,0.25
0,48,target,"[(1152, 789)]",[],[1],[0.5833333333333334],vertical,"(890.0, 762.0)",1.3166666666666667,0.547,1,1285.495,1,0.14583333333333334,0.25
0,49,target,"[(1180, 784)]",[],[1],[0.6],vertical,"(390.0, 262.0)",1.1333333333333333,0.557,1,1291.145,1,0.14285714285714285,0.25
0,50,catch,"[(1154, 780)]",[],[1],[],vertical,"(890.0, 762.0)",1.65,nan,1,1296.481,1,0.14,0.25
0,51,target,"[(1180, 789)]",[],[1],[0.48333333333333334],horizontal,"(890.0, 262.0)",0.9666666666666667,0.445,1,1301.365,2,0.14,0.25
0,52,target,"[(1179, 775)]",[],[1],[0.85],vertical,"(890.0, 762.0)",0.7833333333333333,nan,0,1307.03,0,0.14,0.25
0,53,target,"[(1144, 788)]",[],[1],[0.7333333333333333],horizontal,"(890.0, 762.0)",1.0333333333333332,0.69,1,1311.581,1,0.14,0.25
0,54,target,"[(1152, 765)]",[],[1],[0.5333333333333333],vertical,"(390.0, 262.0)",1.2166666666666666,0.492,1,1317.06,1,0.14,0.25
0,55,target,"[(1179, 771)]",[],[1],[0.5],vertical,"(890.0, 762.0)",1.0666666666666667,0.457,1,1322.148,1,0.14,0.25
0,56,target,"[(1179, 789)]",[],[1],[0.85],horizontal,"(890.0, 762.0)",0.5166666666666666,nan,0,1327.114,0,0.14,0.25
0,57,target,"[(1156, 751), (1134, 789)]",[],"[0, 1]",[0.43333333333333335],horizontal,"(890.0, 262.0)",1.1333333333333333,0.396,1,1331.13,1,0.12,0.25
0,58,catch,"[(1167, 770)]",[],[1],[],horizontal,"(390.0, 762.0)",1.65,nan,1,1337.665,1,0.12,0.25
0,59,catch,"[(1149, 799)]",[],[1],[],vertical,"(890.0, 262.0)",1.65,nan,1,1342.631,1,0.12,0.25
0,60,catch,"[(1162, 779)]",[],[1],[],horizontal,"(890.0, 762.0)",1.65,nan,1,1350.85,2,0.1,0.25
0,61,catch,"[(1179, 790)]",[],[1],[],horizontal,"(890.0, 262.0)",1.65,nan,1,1356.53,2,0.08,0.25
0,62,target,"[(1154, 787)]",[],[1],[0.6666666666666666],horizontal,"(890.0, 762.0)",1.0166666666666666,0.634,1,1362.363,2,0.08,0.25
0,63,target,"[(1188, 791)]",[],[1],[0.43333333333333335],vertical,"(890.0, 262.0)",1.0,0.398,1,1367.815,2,0.06,0.25
0,64,target,"[(1154, 771)]",[],[1],[0.5],vertical,"(890.0, 762.0)",0.7666666666666666,0.462,1,1373.115,3,0.06,0.25
0,65,catch,"[(1179, 787)]",[],[1],[],vertical,"(890.0, 262.0)",1.65,nan,1,1379.132,3,0.06,0.25
0,66,target,"[(1150, 756)]",[],[1],[0.6666666666666666],vertical,"(390.0, 262.0)",0.36666666666666664,0.626,1,1385.036,3,0.06,0.25
0,67,catch,"[(1177, 779)]",[],[1],[],horizontal,"(390.0, 762.0)",1.65,nan,1,1389.914,3,0.06,0.25
0,68,target,"[(1155, 773)]",[],[1],[],horizontal,"(890.0, 262.0)",,"('cti', 0.876)",0,1395.915,0,0.06,0.25
0,69,target,"[(1146, 788)]",[],[1],[0.6333333333333333],horizontal,"(390.0, 762.0)",1.0833333333333333,0.594,1,1399.848,1,0.06,0.25
0,70,target,"[(1169, 792)]",[],[1],[0.5833333333333334],horizontal,"(890.0, 762.0)",0.85,0.551,1,1404.615,1,0.04,0.25
0,71,catch,"[(1158, 772)]",[],[1],[],horizontal,"(890.0, 262.0)",1.65,nan,1,1409.765,1,0.04,0.25
0,72,target,"[(1181, 774)]",[],[1],[0.45],horizontal,"(890.0, 262.0)",0.9,0.413,1,1414.682,2,0.04,0.25
0,73,target,"[(1184, 782)]",[],[1],[0.7666666666666666],horizontal,"(890.0, 762.0)",1.0166666666666666,0.726,1,1420.082,2,0.04,0.25
0,74,target,"[(1199, 789)]",[],[1],[0.85],vertical,"(390.0, 762.0)",0.48333333333333334,nan,0,1425.525,0,0.04,0.25
0,75,catch,"[(1154, 779)]",[],[1],[],horizontal,"(390.0, 262.0)",1.65,nan,1,1430.079,1,0.02,0.25
0,76,target,"[(1156, 761)]",[],[1],[0.48333333333333334],vertical,"(890.0, 262.0)",0.6833333333333333,0.447,1,1435.732,1,0.02,0.25
0,77,target,"[(1181, 760)]",[],[1],[0.55],horizontal,"(890.0, 262.0)",0.6,0.512,1,1440.117,1,0.02,0.25
0,78,catch,"[(1179, 764)]",[],[1],[],horizontal,"(890.0, 762.0)",1.65,nan,1,1444.919,2,0.02,0.25
0,79,catch,"[(1177, 787)]",[],[1],[],horizontal,"(890.0, 262.0)",,"('cti', 1.138),nan",0,1450.329,0,0.04,0.25
0,80,target,"[(1175, 783)]",[],[1],[0.6166666666666667],horizontal,"(890.0, 762.0)",1.2,0.569,1,1454.83,1,0.04,0.25
0,81,catch,"[(1157, 783)]",[],[1],[],horizontal,"(390.0, 262.0)",1.65,nan,1,1460.077,1,0.04,0.25
0,82,target,"[(1181, 762)]",[],[1],[0.4166666666666667],horizontal,"(890.0, 262.0)",1.4833333333333334,0.378,1,1464.903,1,0.04,0.25
0,83,catch,"[(1177, 773)]",[],[1],[],vertical,"(390.0, 262.0)",1.65,nan,1,1470.509,2,0.04,0.25
0,84,catch,"[(1182, 784)]",[],[1],[],horizontal,"(890.0, 762.0)",1.65,nan,1,1476.415,2,0.04,0.25
0,85,target,"[(1174, 787)]",[],[1],[0.5166666666666666],horizontal,"(390.0, 762.0)",0.8833333333333333,0.472,1,1482.267,2,0.04,0.25
0,86,catch,"[(1183, 790)]",[],[1],[],vertical,"(390.0, 262.0)",1.65,nan,1,1487.384,2,0.04,0.25
0,87,target,"[(1181, 767)]",[],[1],"[0.85, 0.85]",vertical,"(390.0, 262.0)",0.9833333333333333,"0.799,nan",0,1493.247,0,0.04,0.25
0,88,target,"[(1166, 779)]",[],[1],[0.5333333333333333],vertical,"(390.0, 262.0)",0.6666666666666666,0.493,1,1498.446,1,0.04,0.25
0,89,target,"[(1174, 769)]",[],[1],[0.5],vertical,"(890.0, 262.0)",0.8,0.461,1,1503.115,1,0.04,0.25
0,90,target,"[(1166, 781)]",[],[1],[0.5166666666666666],horizontal,"(390.0, 762.0)",0.8,0.474,1,1507.673,1,0.04,0.25
0,91,catch,"[(1184, 762)]",[],[1],[],horizontal,"(890.0, 262.0)",1.65,nan,1,1512.966,2,0.04,0.25
0,92,target,"[(1158, 787)]",[],[1],[0.5333333333333333],vertical,"(390.0, 762.0)",1.35,0.491,1,1518.865,2,0.04,0.25
0,93,target,"[(1174, 776)]",[],[1],[0.13333333333333333],horizontal,"(890.0, 262.0)",1.5,0.103,0,1524.814,0,0.04,0.25
0,94,target,"[(1161, 784)]",[],[1],[0.48333333333333334],horizontal,"(390.0, 262.0)",1.05,0.438,1,1529.848,1,0.04,0.25
0,95,target,"[(1154, 791)]",[],[1],[0.48333333333333334],horizontal,"(390.0, 262.0)",1.5333333333333332,0.447,1,1535.237,1,0.04,0.25
0,96,target,"[(1159, 775)]",[],[1],[0.45],horizontal,"(890.0, 262.0)",0.6166666666666667,0.414,1,1540.498,1,0.04,0.25
0,97,target,"[(1158, 787)]",[],[1],[0.5],horizontal,"(890.0, 262.0)",0.8666666666666667,0.462,1,1544.849,2,0.04,0.25
0,98,target,"[(1182, 786)]",[],[1],[0.6],horizontal,"(890.0, 262.0)",1.4,0.554,1,1550.131,2,0.04,0.25
0,99,target,"[(1159, 757)]",[],[1],[0.5],vertical,"(890.0, 262.0)",0.35,0.457,1,1555.809,2,0.04,0.25
0,100,target,"[(1179, 782)]",[],[1],[0.5833333333333334],vertical,"(890.0, 762.0)",0.95,0.541,1,1560.548,2,0.04,0.25
0,101,target,"[(1174, 786)]",[],[1],[0.4],horizontal,"(390.0, 762.0)",1.5,0.355,1,1566.073,3,0.04,0.25
0,102,target,"[(1182, 778)]",[],[1],[0.4666666666666667],horizontal,"(890.0, 262.0)",1.1166666666666667,0.423,1,1572.115,3,0.04,0.25
0,103,target,"[(1156, 788)]",[],[1],[0.5833333333333334],horizontal,"(890.0, 762.0)",0.3833333333333333,0.543,1,1577.697,3,0.04,0.25
0,104,target,"[(1179, 789)]",[],[1],[0.3333333333333333],horizontal,"(390.0, 762.0)",1.4833333333333334,0.3,1,1583.062,3,0.04,0.25
0,105,target,"[(1179, 760)]",[],[1],[0.6166666666666667],horizontal,"(390.0, 262.0)",1.1166666666666667,0.587,1,1588.852,3,0.04,0.25
0,106,catch,"[(1159, 766)]",[],[1],[],vertical,"(390.0, 262.0)",1.65,nan,1,1594.897,3,0.04,0.25
0,107,target,"[(1184, 765)]",[],[1],[0.6166666666666667],vertical,"(890.0, 762.0)",0.7,0.571,1,1601.047,3,0.04,0.25
0,108,target,"[(1166, 776)]",[],[1],[0.5833333333333334],vertical,"(890.0, 262.0)",0.4,0.545,1,1606.709,3,0.04,0.25
0,109,target,"[(1182, 789)]",[],[1],[0.5666666666666667],horizontal,"(890.0, 262.0)",0.6333333333333333,0.524,1,1611.947,3,0.04,0.25
0,110,target,"[(1181, 764)]",[],[1],[0.5],vertical,"(890.0, 262.0)",1.35,0.458,1,1617.381,3,0.04,0.25
0,111,target,"[(1159, 795)]",[],[1],[0.55],horizontal,"(890.0, 762.0)",0.8666666666666667,0.512,1,1623.464,3,0.04,0.25
0,112,target,"[(1181, 786)]",[],[1],[0.7833333333333333],vertical,"(890.0, 762.0)",1.0333333333333332,0.739,1,1629.314,3,0.04,0.25
0,113,target,"[(1181, 789)]",[],[1],[0.5166666666666666],horizontal,"(890.0, 262.0)",0.5166666666666666,0.474,1,1635.547,3,0.04,0.25
0,114,target,"[(1173, 784)]",[],[1],[0.5166666666666666],vertical,"(890.0, 762.0)",1.1666666666666667,0.481,1,1641.047,3,0.04,0.25
0,115,target,"[(1168, 784)]",[],[1],[0.48333333333333334],horizontal,"(890.0, 262.0)",1.0833333333333333,0.451,1,1646.697,3,0.04,0.25
0,116,target,"[(1179, 786)]",[],[1],[0.55],horizontal,"(890.0, 762.0)",1.1333333333333333,0.503,1,1652.725,3,0.04,0.25
0,117,target,"[(1165, 776)]",[],[1],[0.6666666666666666],horizontal,"(890.0, 262.0)",0.8166666666666667,0.62,1,1658.959,3,0.04,0.25
0,118,target,"[(1178, 779)]",[],[1],[0.36666666666666664],horizontal,"(390.0, 262.0)",1.5333333333333332,0.325,1,1664.331,3,0.02,0.25
0,119,catch,"[(1164, 769)]",[],[1],[],vertical,"(890.0, 262.0)",1.65,nan,1,1670.709,3,0.02,0.25
0,120,target,"[(1179, 771)]",[],[1],[0.45],vertical,"(890.0, 262.0)",1.4666666666666666,0.411,1,1676.272,3,0.02,0.25
0,121,target,"[(1160, 816)]",[],[1],[0.5833333333333334],horizontal,"(390.0, 762.0)",0.4666666666666667,0.545,1,1682.285,3,0.02,0.25
0,122,target,"[(927, 401), (1159, 811)]",[],"[0, 1]",[],horizontal,"(390.0, 762.0)",,"('fix', 0.197)",0,1687.842,0,0.02,0.25
0,123,target,"[(983, 890), (1119, 919)]",[],"[0, 1]",[],vertical,"(890.0, 262.0)",,"('fix', 0.051)",0,3351.47,0,0.02,0.25
0,124,target,"[(1129, 929)]","[(1123, 925)]",[1],[0.3],vertical,"(390.0, 262.0)",,"('bar', 0.32)",0,3363.219,0,0.02,0.25
0,125,target,"[(170, 842), (1194, 822)]",[],"[0, 1]",[0.85],horizontal,"(890.0, 762.0)",0.43333333333333335,nan,0,3366.001,0,0.02,0.25
0,126,catch,"[(1153, 815)]",[],[1],[],horizontal,"(890.0, 262.0)",1.65,nan,1,5899.022,1,0.02,0.25
0,127,target,"[(1183, 794)]",[],[1],[0.5166666666666666],vertical,"(390.0, 262.0)",1.3833333333333333,0.478,1,5904.043,1,0.02,0.25
0,128,target,"[(1180, 791)]",[],[1],[0.6166666666666667],horizontal,"(390.0, 762.0)",1.0,0.58,1,5909.315,1,0.02,0.25
0,129,catch,"[(1185, 794)]",[],[1],[],vertical,"(890.0, 762.0)",1.65,nan,1,5914.754,2,0.0,0.25
0,130,target,"[(1164, 781)]",[],[1],[0.6],horizontal,"(890.0, 762.0)",0.85,0.559,1,5920.641,2,0.0,0.25
0,131,catch,"[(1157, 795)]",[],[1],[],vertical,"(390.0, 262.0)",,"('cti', 1.488),nan",0,5926.725,0,0.02,0.25
0,132,catch,"[(1179, 835)]",[],[1],[],horizontal,"(390.0, 262.0)",1.65,nan,1,5931.342,1,0.02,0.25
0,133,target,"[(1149, 789)]",[],[1],[0.5833333333333334],horizontal,"(890.0, 262.0)",0.35,0.541,1,5936.699,1,0.02,0.25
0,134,target,"[(1169, 789)]",[],[1],[0.6],vertical,"(890.0, 762.0)",1.45,0.561,1,5941.026,1,0.02,0.25
0,135,catch,"[(1183, 796)]",[],[1],[],horizontal,"(890.0, 262.0)",1.65,nan,1,5946.876,2,0.02,0.25
0,136,target,"[(1161, 764)]",[],[1],[0.6833333333333333],vertical,"(890.0, 762.0)",0.7166666666666667,0.639,1,5952.692,2,0.02,0.25
0,137,target,"[(1180, 789)]",[],[1],[0.5833333333333334],vertical,"(390.0, 262.0)",1.5,0.543,1,5958.439,2,0.02,0.25
0,138,catch,"[(1181, 763)]",[],[1],[],horizontal,"(890.0, 262.0)",1.65,nan,1,5964.142,2,0.02,0.25
0,139,catch,"[(1167, 792)]",[],[1],[],vertical,"(390.0, 762.0)",1.65,nan,1,5969.877,3,0.02,0.25
0,140,target,"[(1183, 797)]",[],[1],[0.6333333333333333],vertical,"(390.0, 762.0)",1.4666666666666666,0.588,1,5976.126,3,0.02,0.25
0,141,target,"[(1155, 763)]",[],[1],[0.48333333333333334],vertical,"(390.0, 762.0)",1.3333333333333333,0.443,1,5982.845,3,0.02,0.25
0,142,catch,"[(1178, 763)]",[],[1],[],vertical,"(890.0, 762.0)",1.65,nan,1,5988.808,3,0.02,0.25
0,143,catch,"[(1159, 764)]",[],[1],[],horizontal,"(390.0, 262.0)",1.65,nan,1,5995.158,3,0.02,0.25
0,144,target,"[(1162, 764)]",[],[1],[0.6166666666666667],horizontal,"(890.0, 762.0)",0.8333333333333334,0.573,1,6000.643,3,0.02,0.25
0,145,target,"[(1168, 769)]",[],[1],[0.5833333333333334],horizontal,"(890.0, 262.0)",0.6,0.543,1,6006.708,3,0.02,0.25
0,146,target,"[(1174, 751), (1131, 833)]",[],"[0, 1]",[0.85],vertical,"(390.0, 762.0)",1.0,nan,0,6011.826,0,0.02,0.25
0,147,target,"[(1154, 795)]",[],[1],[0.7166666666666667],horizontal,"(390.0, 262.0)",0.7,0.682,1,6017.926,1,0.02,0.25
0,148,target,"[(1130, 760)]",[],[1],[0.23333333333333334],horizontal,"(890.0, 762.0)",1.1833333333333333,0.201,1,6023.075,1,0.02,0.25
0,149,target,"[(1184, 780)]",[],[1],[0.6666666666666666],horizontal,"(390.0, 762.0)",1.15,0.629,1,6028.426,1,0.02,0.25
0,150,target,"[(1159, 770)]",[],[1],[0.7666666666666666],vertical,"(890.0, 762.0)",0.9833333333333333,0.725,1,6033.821,2,0.02,0.25
0,151,target,"[(1159, 766)]",[],[1],[0.7166666666666667],horizontal,"(390.0, 762.0)",0.7,0.672,1,6039.437,2,0.02,0.25
0,152,target,"[(1171, 808)]",[],[1],[0.6],vertical,"(890.0, 262.0)",1.2333333333333334,0.561,1,6044.564,2,0.02,0.25
0,153,target,"[(1184, 780)]",[],[1],[0.6666666666666666],horizontal,"(890.0, 262.0)",0.48333333333333334,0.622,1,6050.276,2,0.02,0.25
0,154,catch,"[(1164, 781)]",[],[1],[],horizontal,"(890.0, 262.0)",1.65,nan,1,6055.365,3,0.02,0.25
0,155,target,"[(1160, 768)]",[],[1],[0.4666666666666667],horizontal,"(390.0, 762.0)",0.6833333333333333,0.424,1,6061.485,3,0.02,0.25
0,156,target,"[(1166, 766)]",[],[1],[0.7333333333333333],horizontal,"(390.0, 762.0)",0.5666666666666667,0.686,1,6067.025,3,0.02,0.25
0,157,target,"[(1179, 767)]",[],[1],[0.55],horizontal,"(390.0, 262.0)",0.85,0.509,1,6072.591,3,0.02,0.25
0,158,target,"[(1159, 793)]",[],[1],[0.6333333333333333],vertical,"(390.0, 262.0)",0.95,0.591,1,6078.217,3,0.02,0.25
0,159,target,"[(1166, 798)]",[],[1],[0.26666666666666666],horizontal,"(890.0, 762.0)",1.4833333333333334,0.236,1,6083.776,3,0.02,0.25
0,160,target,"[(1164, 769)]",[],[1],[0.55],horizontal,"(390.0, 762.0)",0.9,0.509,1,6090.109,3,0.02,0.25
0,161,catch,"[(1164, 771)]",[],[1],[],horizontal,"(890.0, 262.0)",1.65,nan,1,6095.892,3,0.02,0.25
0,162,target,"[(1164, 791)]",[],[1],[0.5833333333333334],horizontal,"(390.0, 762.0)",0.6333333333333333,0.544,1,6102.042,3,0.02,0.25
0,163,target,"[(1181, 774)]",[],[1],[0.6],vertical,"(390.0, 762.0)",1.3333333333333333,0.56,1,6107.292,3,0.02,0.25
0,164,target,"[(1154, 779)]",[],[1],[0.4],horizontal,"(890.0, 762.0)",1.4333333333333333,0.358,1,6113.543,3,0.02,0.25
0,165,target,"[(1156, 766)]",[],[1],[0.7],horizontal,"(390.0, 762.0)",0.6833333333333333,0.656,1,6119.477,3,0.02,0.25
0,166,target,"[(1179, 789)]",[],[1],[0.6166666666666667],vertical,"(390.0, 762.0)",1.05,0.569,1,6124.998,3,0.02,0.25
0,167,target,"[(1150, 766)]",[],[1],[0.5833333333333334],horizontal,"(890.0, 262.0)",0.5333333333333333,0.542,1,6131.126,3,0.02,0.25
0,168,target,"[(1191, 776)]",[],[1],[0.6166666666666667],horizontal,"(390.0, 762.0)",1.0833333333333333,0.573,1,6136.772,3,0.02,0.25
0,169,target,"[(1165, 794)]",[],[1],[0.6166666666666667],vertical,"(390.0, 762.0)",0.4666666666666667,0.574,1,6142.792,3,0.02,0.25
0,170,catch,"[(1157, 772)]",[],[1],[],vertical,"(390.0, 762.0)",,"('cti', 1.563),nan",0,6148.049,0,0.04,0.25
0,171,target,"[(1150, 793)]",[],[1],[0.6166666666666667],vertical,"(390.0, 762.0)",0.5833333333333334,0.577,1,6152.407,1,0.04,0.25
0,172,target,"[(1169, 795)]",[],[1],[0.6833333333333333],horizontal,"(890.0, 262.0)",0.4,0.638,1,6157.526,1,0.04,0.25
0,173,target,"[(1158, 767)]",[],[1],[0.5333333333333333],horizontal,"(890.0, 262.0)",0.5333333333333333,0.491,1,6162.012,1,0.04,0.25
0,174,target,"[(1177, 753), (1161, 780)]",[],"[0, 1]",[0.5166666666666666],vertical,"(390.0, 762.0)",1.45,0.476,1,6166.593,2,0.04,0.25
0,175,catch,"[(1179, 761)]",[],[1],[],vertical,"(890.0, 262.0)",1.65,nan,1,6173.243,2,0.04,0.25
0,176,target,"[(1154, 773)]",[],[1],[0.6833333333333333],horizontal,"(890.0, 262.0)",1.25,0.643,1,6178.526,2,0.04,0.25
0,177,target,"[(1174, 789)]",[],[1],[0.6],horizontal,"(890.0, 262.0)",0.5,0.558,1,6183.943,2,0.04,0.25
0,178,catch,"[(1163, 745), (1149, 829)]",[],"[0, 1]",[],horizontal,"(390.0, 262.0)",,"('cti', 1.392),nan",0,6189.012,0,0.06,0.25
0,179,target,"[(1157, 789)]",[],[1],[0.55],vertical,"(390.0, 262.0)",0.48333333333333334,0.512,1,6194.425,1,0.06,0.25
0,180,catch,"[(1169, 748), (1129, 799)]",[],"[0, 1]",[],horizontal,"(390.0, 262.0)",1.65,nan,1,6198.789,1,0.06,0.25
0,181,target,"[(1178, 794)]",[],[1],[0.6],vertical,"(890.0, 762.0)",0.48333333333333334,0.562,1,6205.126,1,0.04,0.25
0,182,target,"[(1167, 794)]",[],[1],[0.6333333333333333],vertical,"(390.0, 262.0)",1.3833333333333333,0.593,1,6209.526,2,0.04,0.25
0,183,target,"[(1154, 779)]",[],[1],[0.65],horizontal,"(890.0, 262.0)",0.7166666666666667,0.604,1,6215.276,2,0.04,0.25
0,184,target,"[(1156, 789)]",[],[1],[0.7166666666666667],vertical,"(390.0, 762.0)",1.5166666666666666,0.671,1,6220.559,2,0.04,0.25
0,185,catch,"[(1184, 773)]",[],[1],[],horizontal,"(890.0, 262.0)",1.65,nan,1,6226.308,2,0.04,0.25
0,186,target,"[(1157, 764)]",[],[1],[0.55],vertical,"(890.0, 262.0)",0.6833333333333333,0.506,1,6231.726,3,0.04,0.25
0,187,target,"[(1174, 777)]",[],[1],[0.55],vertical,"(890.0, 762.0)",1.5166666666666666,0.509,1,6237.509,3,0.04,0.25
0,188,target,"[(1154, 794)]",[],[1],[0.7333333333333333],vertical,"(390.0, 762.0)",1.1,0.692,1,6243.812,3,0.04,0.25
0,189,catch,"[(1179, 763)]",[],[1],[],vertical,"(390.0, 762.0)",1.65,nan,1,6250.002,3,0.04,0.25
0,190,target,"[(1134, 770)]",[],[1],[0.85],vertical,"(390.0, 762.0)",0.6833333333333333,nan,0,6255.754,0,0.04,0.25
0,191,target,"[(1153, 779)]",[],[1],[0.5333333333333333],horizontal,"(890.0, 262.0)",1.1666666666666667,0.496,1,6259.874,1,0.04,0.25
0,192,target,"[(1169, 789)]",[],[1],[0.55],vertical,"(390.0, 262.0)",0.6,0.511,1,6265.672,1,0.04,0.25
0,193,target,"[(1177, 789)]",[],[1],[0.6333333333333333],horizontal,"(890.0, 762.0)",0.8333333333333334,0.596,1,6270.209,1,0.04,0.25
0,194,target,"[(1156, 797)]",[],[1],[0.6666666666666666],vertical,"(890.0, 262.0)",0.8333333333333334,0.627,1,6274.886,2,0.04,0.25
0,195,target,"[(1181, 770)]",[],[1],[0.6333333333333333],vertical,"(890.0, 762.0)",0.5333333333333333,0.592,1,6280.464,2,0.04,0.25
0,196,catch,"[(1177, 792)]",[],[1],[],vertical,"(890.0, 762.0)",1.65,nan,1,6284.93,2,0.04,0.25
0,197,target,"[(1155, 770)]",[],[1],[0.55],vertical,"(890.0, 262.0)",0.43333333333333335,0.503,1,6290.732,2,0.04,0.25
0,198,target,"[(1179, 753), (1135, 813)]",[],"[0, 1]",[0.75],horizontal,"(890.0, 262.0)",0.7833333333333333,0.71,1,6295.492,3,0.04,0.25
0,199,target,"[(1158, 773)]",[],[1],[0.5],horizontal,"(390.0, 762.0)",0.7833333333333333,0.458,1,6302.435,3,0.04,0.25
0,200,target,"[(1163, 789)]",[],[1],[0.6166666666666667],vertical,"(390.0, 262.0)",1.4833333333333334,0.577,1,6308.245,3,0.04,0.25
0,201,catch,"[(1109, 784)]",[],[1],[],vertical,"(390.0, 262.0)",,"('cti', 1.399),nan",0,6314.544,0,0.06,0.25
0,202,catch,"[(1164, 794)]",[],[1],[],horizontal,"(390.0, 262.0)",1.65,nan,1,6319.133,1,0.06,0.25
0,203,catch,"[(1168, 816)]",[],[1],[],horizontal,"(390.0, 762.0)",1.65,nan,1,6324.192,1,0.06,0.25
0,204,target,"[(1144, 764)]",[],[1],[0.7],vertical,"(390.0, 262.0)",0.8833333333333333,0.666,1,6329.86,1,0.06,0.25
0,205,target,"[(1155, 778)]",[],[1],[0.5833333333333334],vertical,"(890.0, 762.0)",0.5333333333333333,0.552,1,6335.043,2,0.06,0.25
0,206,catch,"[(1153, 765)]",[],[1],[],horizontal,"(390.0, 762.0)",1.65,nan,1,6339.859,2,0.06,0.25
0,207,target,"[(1157, 789)]",[],[1],[0.7833333333333333],vertical,"(390.0, 762.0)",1.2,0.746,1,6345.674,2,0.06,0.25
0,208,target,"[(1144, 792)]",[],[1],[0.7833333333333333],vertical,"(390.0, 262.0)",1.2666666666666666,0.739,1,6351.757,2,0.06,0.25
0,209,catch,"[(1158, 759)]",[],[1],[],vertical,"(390.0, 262.0)",1.65,nan,1,6357.674,3,0.06,0.25
0,210,target,"[(1159, 780)]",[],[1],[0.7166666666666667],horizontal,"(890.0, 762.0)",0.6166666666666667,0.676,1,6363.579,3,0.06,0.25
0,211,catch,"[(1172, 788)]",[],[1],[],horizontal,"(390.0, 262.0)",1.65,nan,1,6369.292,3,0.06,0.25
0,212,catch,"[(1149, 790)]",[],[1],[],horizontal,"(890.0, 262.0)",1.65,nan,1,6375.407,3,0.06,0.25
0,213,catch,"[(1139, 772)]",[],[1],[],vertical,"(390.0, 762.0)",1.65,nan,1,6381.793,3,0.06,0.25
0,214,catch,"[(1154, 766)]",[],[1],[],vertical,"(390.0, 262.0)",1.65,nan,1,6387.287,3,0.06,0.25
0,215,catch,"[(1173, 792)]",[],[1],[],horizontal,"(890.0, 262.0)",1.65,nan,1,6393.163,3,0.06,0.25
0,216,target,"[(1159, 779)]",[],[1],[0.85],horizontal,"(390.0, 262.0)",1.4833333333333334,nan,0,6399.443,0,0.06,0.25
0,217,target,"[(1148, 794)]",[],[1],[0.6333333333333333],vertical,"(390.0, 262.0)",0.8,0.591,1,6404.302,1,0.06,0.25
0,218,target,"[(1199, 808)]",[],[1],[0.7],horizontal,"(390.0, 762.0)",0.7166666666666667,0.657,1,6409.194,1,0.06,0.25
0,219,target,"[(1153, 782)]",[],[1],[0.6166666666666667],horizontal,"(890.0, 262.0)",0.7166666666666667,0.576,1,6414.06,1,0.06,0.25
0,220,target,"[(1139, 830)]",[],[1],[0.5666666666666667],horizontal,"(890.0, 762.0)",1.0,0.529,1,6419.094,2,0.04,0.25
0,221,catch,"[(1159, 806)]",[],[1],[],horizontal,"(390.0, 262.0)",1.65,nan,1,6426.626,2,0.04,0.25
0,222,target,"[(1153, 795)]",[],[1],[0.4666666666666667],vertical,"(390.0, 762.0)",1.3833333333333333,0.425,1,6432.143,2,0.04,0.25
0,223,target,"[(1144, 808)]",[],[1],[0.5833333333333334],horizontal,"(890.0, 262.0)",1.5333333333333332,0.54,1,6437.776,2,0.04,0.25
0,224,catch,"[(1159, 790)]",[],[1],[],horizontal,"(890.0, 762.0)",1.65,nan,1,6443.794,3,0.04,0.25
0,225,catch,"[(1158, 783)]",[],[1],[],horizontal,"(890.0, 762.0)",1.65,nan,1,6450.153,3,0.04,0.25
0,226,catch,"[(1169, 794)]",[],[1],[],horizontal,"(390.0, 262.0)",1.65,nan,1,6456.033,3,0.04,0.25
0,227,catch,"[(1162, 789)]",[],[1],[],vertical,"(890.0, 762.0)",1.65,nan,1,6461.959,3,0.04,0.25
0,228,target,"[(1155, 762)]",[],[1],[0.5833333333333334],horizontal,"(390.0, 762.0)",0.43333333333333335,0.538,1,6468.21,3,0.02,0.25
0,229,catch,"[(1154, 789)]",[],[1],[],horizontal,"(390.0, 262.0)",1.65,nan,1,6473.061,3,0.02,0.25
0,230,target,"[(1183, 790)]",[],[1],[0.7333333333333333],horizontal,"(390.0, 262.0)",1.4,0.685,1,6479.36,3,0.02,0.25
0,231,catch,"[(1146, 765)]",[],[1],[],vertical,"(390.0, 262.0)",1.65,nan,1,6485.544,3,0.02,0.25
0,232,target,"[(1157, 762)]",[],[1],[0.5333333333333333],horizontal,"(890.0, 262.0)",1.2166666666666666,0.496,1,6491.327,3,0.02,0.25
0,233,target,"[(1144, 780)]",[],[1],[0.65],horizontal,"(890.0, 262.0)",0.85,0.606,1,6497.61,3,0.02,0.25
0,234,catch,"[(1153, 788)]",[],[1],[],vertical,"(890.0, 762.0)",1.65,nan,1,6503.528,3,0.02,0.25
0,235,catch,"[(1177, 789)]",[],[1],[],vertical,"(390.0, 762.0)",1.65,nan,1,6509.277,3,0.02,0.25
0,236,catch,"[(1160, 794)]",[],[1],[],horizontal,"(390.0, 262.0)",1.65,nan,1,6515.31,3,0.02,0.25
0,237,catch,"[(1155, 777)]",[],[1],[],horizontal,"(890.0, 762.0)",1.65,nan,1,6521.559,3,0.02,0.25
0,238,target,"[(1155, 782)]",[],[1],[0.6166666666666667],horizontal,"(390.0, 762.0)",0.8666666666666667,0.57,1,6527.263,3,0.02,0.25
0,239,target,"[(1126, 789)]",[],[1],[0.6333333333333333],horizontal,"(390.0, 762.0)",0.7166666666666667,0.585,1,6532.859,3,0.02,0.25
0,240,target,"[(1159, 778)]",[],[1],[0.5833333333333334],vertical,"(890.0, 762.0)",0.95,0.542,1,6538.609,3,0.02,0.25
0,241,target,"[(1179, 808)]",[],[1],[0.5666666666666667],horizontal,"(390.0, 262.0)",1.4,0.52,1,6543.977,3,0.02,0.25
0,242,target,"[(1140, 776)]",[],[1],[0.6166666666666667],horizontal,"(890.0, 762.0)",1.35,0.57,1,6550.175,3,0.02,0.25
0,243,target,"[(1157, 769)]",[],[1],[0.5666666666666667],horizontal,"(890.0, 762.0)",0.35,0.527,1,6556.454,3,0.02,0.25
0,244,target,"[(1139, 775)]",[],[1],[0.8333333333333334],horizontal,"(890.0, 262.0)",0.5833333333333334,0.788,1,6561.692,3,0.02,0.25
0,245,catch,"[(1160, 768)]",[],[1],[],vertical,"(890.0, 262.0)",1.65,nan,1,6567.394,3,0.02,0.25
0,246,target,"[(1159, 794)]",[],[1],[0.8333333333333334],horizontal,"(890.0, 262.0)",1.3166666666666667,0.792,1,6573.306,3,0.02,0.25
0,247,catch,"[(1158, 764)]",[],[1],[],horizontal,"(890.0, 762.0)",1.65,nan,1,6579.46,3,0.02,0.25
0,248,target,"[(1138, 760)]",[],[1],[0.6666666666666666],horizontal,"(890.0, 762.0)",0.8,0.62,1,6585.36,3,0.02,0.25
0,249,target,"[(1153, 794)]",[],[1],[0.55],vertical,"(890.0, 262.0)",0.4666666666666667,0.508,1,6590.976,3,0.02,0.25
0,250,catch,"[(1160, 790)]",[],[1],[],vertical,"(390.0, 262.0)",1.65,nan,1,6596.277,3,0.02,0.25
0,251,target,"[(1157, 760)]",[],[1],[0.5833333333333334],vertical,"(390.0, 262.0)",0.95,0.543,1,6602.126,3,0.0,0.25
0,252,catch,"[(1158, 803)]",[],[1],[],vertical,"(390.0, 762.0)",1.65,nan,1,6607.856,3,0.0,0.25
0,253,target,"[(1169, 794)]",[],[1],[0.7],horizontal,"(390.0, 262.0)",0.9,0.659,1,6614.109,3,0.0,0.25
0,254,target,"[(1163, 789)]",[],[1],[0.85],vertical,"(390.0, 762.0)",0.45,nan,0,6620.143,0,0.0,0.25
0,255,target,"[(1145, 794)]",[],[1],[0.7333333333333333],horizontal,"(390.0, 262.0)",0.6833333333333333,0.688,1,6624.56,1,0.0,0.25
0,256,target,"[(1176, 776)]",[],[1],[0.5666666666666667],horizontal,"(890.0, 262.0)",0.36666666666666664,0.526,1,6629.704,1,0.0,0.25
0,257,target,"[(1159, 789)]",[],[1],[0.45],horizontal,"(390.0, 762.0)",1.5,0.415,1,6634.194,1,0.0,0.25
0,258,target,"[(1162, 797)]",[],[1],[0.6],vertical,"(890.0, 762.0)",0.36666666666666664,0.556,1,6639.304,2,0.0,0.25
0,259,target,"[(1154, 791)]",[],[1],[0.6666666666666666],horizontal,"(890.0, 762.0)",0.8333333333333334,0.62,1,6644.152,2,0.0,0.25
0,260,target,"[(1184, 794)]",[],[1],[0.7166666666666667],vertical,"(890.0, 262.0)",0.85,0.672,1,6649.802,2,0.0,0.25
0,261,target,"[(937, 301), (939, 306), (937, 301), (936, 312), (937, 312), (935, 311), (1144, 821)]",[],"[0, 0, 0, 0, 0, 0, 1]",[0.21666666666666667],horizontal,"(390.0, 262.0)",1.45,0.181,0,6655.344,0,0.0,0.25
0,262,target,"[(1147, 803)]",[],[1],[0.5166666666666666],vertical,"(890.0, 262.0)",1.0,0.477,1,6963.961,1,0.0,0.25
0,263,target,"[(1158, 760)]",[],[1],[0.7333333333333333],vertical,"(890.0, 262.0)",0.85,0.687,1,6969.009,1,0.0,0.25
0,264,catch,"[(1154, 819)]",[],[1],[],vertical,"(390.0, 262.0)",1.65,nan,1,6974.074,1,0.0,0.25
0,265,target,"[(1167, 781)]",[],[1],[0.8],vertical,"(890.0, 762.0)",0.5666666666666667,0.756,1,6979.164,2,0.0,0.25
0,266,target,"[(1156, 794)]",[],[1],[0.6666666666666666],vertical,"(890.0, 262.0)",0.9166666666666666,0.626,1,6984.494,2,0.0,0.25
0,267,target,"[(1194, 804)]",[],[1],[0.6833333333333333],vertical,"(890.0, 262.0)",1.25,0.64,1,6990.065,2,0.0,0.25
0,268,catch,"[(1175, 806)]",[],[1],[],horizontal,"(890.0, 762.0)",1.65,nan,1,6995.927,2,0.0,0.25
0,269,target,"[(1183, 774)]",[],[1],[0.6833333333333333],vertical,"(390.0, 762.0)",0.8833333333333333,0.645,1,7001.383,3,0.0,0.25
0,270,target,"[(1185, 791)]",[],[1],[0.55],vertical,"(890.0, 762.0)",0.95,0.504,1,7007.217,3,0.0,0.25
0,271,target,"[(1182, 774)]",[],[1],[0.6333333333333333],vertical,"(890.0, 762.0)",0.6666666666666666,0.592,1,7013.078,3,0.0,0.25
0,272,target,"[(1165, 789)]",[],[1],[0.5],horizontal,"(390.0, 262.0)",1.0666666666666667,0.456,1,7018.594,3,0.0,0.25
0,273,target,"[(1160, 790)]",[],[1],[0.5833333333333334],vertical,"(390.0, 762.0)",0.4166666666666667,0.544,1,7024.436,3,0.0,0.25
0,274,target,"[(1184, 779)]",[],[1],[0.6166666666666667],vertical,"(390.0, 262.0)",0.45,0.576,1,7029.555,3,0.0,0.25
0,275,catch,"[(1188, 772)]",[],[1],[],horizontal,"(390.0, 262.0)",1.65,nan,1,7034.896,3,0.0,0.25
0,276,target,"[(1155, 756)]",[],[1],[0.55],vertical,"(890.0, 262.0)",0.9666666666666667,0.507,1,7041.046,3,0.0,0.25
0,277,target,"[(1146, 763)]",[],[1],[0.5666666666666667],horizontal,"(890.0, 262.0)",0.8,0.527,1,7046.961,3,0.0,0.25
0,278,catch,"[(1160, 774)]",[],[1],[],vertical,"(390.0, 262.0)",,"('cti', 1.148),nan",0,7052.637,0,0.02,0.25
0,279,target,"[(1178, 784)]",[],[1],[0.6],horizontal,"(390.0, 262.0)",0.7166666666666667,0.556,1,7057.048,1,0.02,0.25
0,280,target,"[(1162, 792)]",[],[1],[0.5833333333333334],horizontal,"(390.0, 262.0)",0.36666666666666664,0.543,1,7062.177,1,0.02,0.25
0,281,target,"[(1159, 792)]",[],[1],[0.3833333333333333],horizontal,"(890.0, 262.0)",1.3,0.344,1,7066.862,1,0.02,0.25
0,282,target,"[(1160, 774)]",[],[1],[0.5166666666666666],horizontal,"(890.0, 262.0)",1.5166666666666666,0.476,1,7072.429,2,0.02,0.25
0,283,target,"[(1184, 792)]",[],[1],[0.55],vertical,"(390.0, 262.0)",1.4833333333333334,0.509,1,7078.827,2,0.02,0.25
0,284,catch,"[(1181, 800)]",[],[1],[],vertical,"(890.0, 262.0)",1.65,nan,1,7084.729,2,0.02,0.25
0,285,target,"[(1180, 785)]",[],[1],[0.6333333333333333],horizontal,"(890.0, 262.0)",0.35,0.588,1,7090.166,2,0.02,0.25
0,286,target,"[(1179, 790)]",[],[1],[0.5166666666666666],vertical,"(890.0, 762.0)",1.2,0.483,1,7095.245,3,0.02,0.25
0,287,target,"[(1178, 813)]",[],[1],[0.5666666666666667],horizontal,"(390.0, 262.0)",1.1166666666666667,0.527,1,7101.417,3,0.02,0.25
0,288,catch,"[(1180, 813)]",[],[1],[],vertical,"(390.0, 762.0)",1.65,nan,1,7107.346,3,0.02,0.25
0,289,catch,"[(1184, 789)]",[],[1],[],horizontal,"(390.0, 262.0)",1.65,nan,1,7113.508,3,0.02,0.25
0,290,target,"[(1167, 789)]",[],[1],[0.6833333333333333],horizontal,"(390.0, 262.0)",1.2333333333333334,0.646,1,7119.612,3,0.02,0.25
0,291,target,"[(1154, 792)]",[],[1],[0.6],horizontal,"(390.0, 262.0)",0.6166666666666667,0.563,1,7125.978,3,0.02,0.25
0,292,target,"[(1158, 801)]",[],[1],[0.85],vertical,"(390.0, 762.0)",1.0833333333333333,nan,0,7131.112,0,0.02,0.25
0,293,catch,"[(1154, 794)]",[],[1],[],horizontal,"(890.0, 262.0)",1.65,nan,1,7135.901,1,0.02,0.25
0,294,target,"[(1182, 779)]",[],[1],[0.6333333333333333],horizontal,"(390.0, 262.0)",0.8333333333333334,0.592,1,7141.2,1,0.02,0.25
0,295,target,"[(1167, 791)]",[],[1],[0.5666666666666667],vertical,"(890.0, 262.0)",1.45,0.526,1,7146.15,1,0.02,0.25
0,296,target,"[(1152, 769)]",[],[1],[0.6166666666666667],horizontal,"(390.0, 762.0)",0.9666666666666667,0.575,1,7151.629,2,0.02,0.25
0,297,target,"[(1183, 783)]",[],[1],[0.6666666666666666],vertical,"(890.0, 762.0)",0.7,0.622,1,7157.423,2,0.02,0.25
0,298,catch,"[(1159, 788)]",[],[1],[],horizontal,"(890.0, 762.0)",1.65,nan,1,7162.913,2,0.02,0.25
0,299,target,"[(1163, 789)]",[],[1],[0.55],vertical,"(390.0, 262.0)",1.0,0.519,1,7168.217,2,0.02,0.25
0,300,catch,"[(1174, 789)]",[],[1],[],vertical,"(390.0, 262.0)",1.65,nan,1,7174.022,3,0.02,0.25
0,301,catch,"[(1159, 819)]",[],[1],[],vertical,"(390.0, 762.0)",1.65,"('cti', 1.648),nan",0,7180.396,0,0.04,0.25
0,302,target,"[(1158, 818)]",[],[1],[0.5833333333333334],vertical,"(890.0, 762.0)",1.4833333333333334,0.546,1,7188.812,1,0.04,0.25
0,303,catch,"[(1173, 793)]",[],[1],[],horizontal,"(890.0, 262.0)",1.65,nan,1,7194.012,1,0.04,0.25
0,304,catch,"[(1147, 781)]",[],[1],[],vertical,"(890.0, 262.0)",1.65,nan,1,7199.079,1,0.04,0.25
0,305,target,"[(1164, 774)]",[],[1],[0.5833333333333334],horizontal,"(390.0, 762.0)",0.7666666666666666,0.538,1,7204.646,2,0.04,0.25
0,306,target,"[(1155, 794)]",[],[1],[0.55],horizontal,"(890.0, 762.0)",1.0166666666666666,0.516,1,7210.329,2,0.04,0.25
0,307,target,"[(1190, 776)]",[],[1],[0.85],horizontal,"(390.0, 262.0)",0.5666666666666667,nan,0,7215.663,0,0.04,0.25
0,308,target,"[(1139, 774)]",[],[1],[0.7166666666666667],horizontal,"(390.0, 762.0)",1.5,0.683,1,7219.984,1,0.04,0.25
0,309,target,"[(1140, 769)]",[],[1],[0.85],horizontal,"(390.0, 762.0)",0.9333333333333333,nan,0,7226.012,0,0.04,0.25
0,310,catch,"[(1135, 789)]",[],[1],[],vertical,"(890.0, 262.0)",1.65,nan,1,7230.654,1,0.04,0.25
0,311,catch,"[(1126, 793)]",[],[1],[],horizontal,"(390.0, 762.0)",1.65,nan,1,7235.862,1,0.04,0.25
0,312,target,"[(1165, 777)]",[],[1],[0.85],vertical,"(390.0, 762.0)",0.9333333333333333,nan,0,7241.025,0,0.04,0.25
0,313,catch,"[(1155, 799)]",[],[1],[],horizontal,"(890.0, 762.0)",1.65,nan,1,7245.944,1,0.04,0.25
0,314,target,"[(1154, 774)]",[],[1],[0.6833333333333333],horizontal,"(390.0, 762.0)",0.4166666666666667,0.636,1,7250.812,1,0.04,0.25
0,315,target,"[(1152, 771)]",[],[1],[0.75],horizontal,"(890.0, 762.0)",0.8333333333333334,0.702,1,7255.453,1,0.04,0.25
0,316,target,"[(1156, 761)]",[],[1],[0.55],vertical,"(890.0, 262.0)",0.7666666666666666,0.511,1,7260.243,2,0.04,0.25
0,317,target,"[(1156, 774)]",[],[1],[0.5833333333333334],vertical,"(390.0, 762.0)",1.5,0.543,1,7265.807,2,0.04,0.25
0,318,target,"[(1158, 792)]",[],[1],[0.6],horizontal,"(890.0, 262.0)",1.2833333333333332,0.557,1,7271.527,2,0.04,0.25
0,319,target,"[(1162, 803)]",[],[1],[0.5833333333333334],vertical,"(390.0, 762.0)",0.7666666666666666,0.537,1,7277.628,2,0.04,0.25
0,320,target,"[(1171, 790)]",[],[1],[0.55],vertical,"(890.0, 762.0)",1.0,0.504,1,7282.823,3,0.04,0.25
0,321,target,"[(1161, 773)]",[],[1],[0.55],vertical,"(890.0, 262.0)",1.0833333333333333,0.518,1,7288.812,3,0.04,0.25
0,322,target,"[(1149, 772)]",[],[1],[0.6666666666666666],vertical,"(390.0, 762.0)",1.35,0.627,1,7295.141,3,0.04,0.25
0,323,target,"[(1179, 794)]",[],[1],[0.8],vertical,"(890.0, 762.0)",0.8166666666666667,0.757,1,7301.179,3,0.04,0.25
0,324,target,"[(1164, 794)]",[],[1],[0.85],vertical,"(390.0, 262.0)",0.5,nan,0,7306.962,0,0.04,0.25
0,325,target,"[(1134, 789)]",[],[1],[0.6333333333333333],horizontal,"(890.0, 762.0)",0.43333333333333335,0.595,1,7311.146,1,0.04,0.25
0,326,target,"[(1154, 755)]",[],[1],[0.7833333333333333],vertical,"(390.0, 262.0)",1.35,0.732,1,7316.041,1,0.04,0.25
0,327,target,"[(1149, 788)]",[],[1],[0.7666666666666666],vertical,"(890.0, 762.0)",0.55,0.72,1,7321.751,1,0.04,0.25
0,328,catch,"[(1171, 765)]",[],[1],[],vertical,"(890.0, 262.0)",1.65,nan,1,7326.878,2,0.02,0.25
0,329,target,"[(1145, 819)]",[],[1],[0.4166666666666667],vertical,"(390.0, 762.0)",1.4833333333333334,0.383,1,7332.412,2,0.02,0.25
0,330,target,"[(1141, 798)]",[],[1],[0.5833333333333334],vertical,"(390.0, 762.0)",1.0,0.541,1,7505.178,2,0.02,0.25
0,331,target,"[(1182, 773)]",[],[1],[0.48333333333333334],vertical,"(890.0, 262.0)",1.4833333333333334,0.444,1,7510.797,2,0.02,0.25
0,332,target,"[(1169, 802)]",[],[1],[0.55],horizontal,"(390.0, 262.0)",0.85,0.507,1,7516.456,3,0.02,0.25
0,333,target,"[(1199, 796)]",[],[1],[0.75],vertical,"(390.0, 762.0)",0.6,0.705,1,7522.599,3,0.02,0.25
0,334,target,"[(1155, 800)]",[],[1],[0.5166666666666666],vertical,"(890.0, 262.0)",0.5333333333333333,0.477,1,7528.613,3,0.02,0.25
0,335,target,"[(1179, 794)]",[],[1],[0.6166666666666667],horizontal,"(890.0, 762.0)",1.3666666666666667,0.574,1,7533.728,3,0.02,0.25
0,336,target,"[(1142, 793)]",[],[1],[0.5666666666666667],vertical,"(390.0, 762.0)",0.9333333333333333,0.524,1,7539.826,3,0.02,0.25
0,337,catch,"[(1120, 760)]",[],[1],[],vertical,"(890.0, 262.0)",1.65,nan,1,7545.353,3,0.02,0.25
0,338,target,"[(1154, 800)]",[],[1],[0.6333333333333333],horizontal,"(890.0, 262.0)",1.5166666666666666,0.59,1,7551.128,3,0.02,0.25
0,339,target,"[(1159, 772)]",[],[1],[0.55],vertical,"(890.0, 762.0)",0.5333333333333333,0.51,1,7557.257,3,0.02,0.25
0,340,target,"[(1182, 779)]",[],[1],[0.85],horizontal,"(890.0, 762.0)",0.4666666666666667,nan,0,7562.919,0,0.02,0.25
0,341,catch,"[(1154, 794)]",[],[1],[],vertical,"(390.0, 262.0)",1.65,nan,1,7567.523,1,0.02,0.25
0,342,target,"[(1154, 808)]",[],[1],[0.7833333333333333],vertical,"(390.0, 762.0)",0.7166666666666667,0.735,1,7572.731,1,0.02,0.25
0,343,target,"[(1187, 789)]",[],[1],"[0.85, 0.85]",horizontal,"(890.0, 262.0)",1.1333333333333333,"0.803,nan",0,7577.529,0,0.02,0.25
0,344,target,"[(1154, 821)]",[],[1],[0.65],vertical,"(390.0, 262.0)",1.3166666666666667,0.611,1,7582.329,1,0.02,0.25
0,345,catch,"[(1159, 776)]",[],[1],[],horizontal,"(390.0, 262.0)",1.65,nan,1,7587.729,1,0.02,0.25
0,346,target,"[(1181, 775)]",[],[1],[0.6],horizontal,"(390.0, 262.0)",0.85,0.557,1,7592.778,1,0.02,0.25
0,347,catch,"[(1160, 789)]",[],[1],[],vertical,"(390.0, 262.0)",1.65,nan,1,7598.013,2,0.02,0.25
0,348,catch,"[(1184, 773)]",[],[1],[],horizontal,"(390.0, 762.0)",1.65,nan,1,7603.345,2,0.02,0.25
0,349,target,"[(1167, 792)]",[],[1],[0.7833333333333333],horizontal,"(390.0, 262.0)",1.5166666666666666,0.742,1,7609.134,2,0.02,0.25
0,350,catch,"[(1160, 798)]",[],[1],[],horizontal,"(890.0, 262.0)",1.65,nan,1,7615.029,2,0.02,0.25
0,351,target,"[(1181, 794)]",[],[1],[0.7],vertical,"(390.0, 262.0)",0.45,0.66,1,7620.712,3,0.0,0.25
0,352,catch,"[(1184, 792)]",[],[1],[],vertical,"(390.0, 262.0)",1.65,nan,1,7625.921,3,0.0,0.25
0,353,target,"[(1154, 789)]",[],[1],[0.65],horizontal,"(890.0, 262.0)",0.7833333333333333,0.609,1,7631.862,3,0.0,0.25
0,354,catch,"[(1154, 778)]",[],[1],[],horizontal,"(890.0, 262.0)",1.65,nan,1,7637.695,3,0.0,0.25
0,355,target,"[(1171, 790)]",[],[1],[0.6166666666666667],horizontal,"(390.0, 262.0)",0.8,0.579,1,7643.63,3,0.0,0.25
0,356,target,"[(1159, 791)]",[],[1],[0.55],horizontal,"(890.0, 262.0)",1.4666666666666666,0.509,1,7649.171,3,0.0,0.25
0,357,target,"[(1159, 781)]",[],[1],[0.6],vertical,"(890.0, 762.0)",0.8333333333333334,0.561,1,7655.572,3,0.0,0.25
0,358,target,"[(1165, 794)]",[],[1],[0.7],vertical,"(390.0, 262.0)",0.5666666666666667,0.658,1,7661.449,3,0.0,0.25
0,359,target,"[(1162, 798)]",[],[1],[0.6],vertical,"(390.0, 262.0)",1.4,0.556,1,7666.929,3,0.0,0.25
0,360,catch,"[(1199, 776)]",[],[1],[],vertical,"(390.0, 762.0)",1.65,nan,1,7672.997,3,0.0,0.25
0,361,target,"[(1172, 779)]",[],[1],[0.55],vertical,"(390.0, 262.0)",1.3,0.51,1,7678.894,3,0.0,0.25
0,362,target,"[(1177, 772)]",[],[1],[0.7166666666666667],horizontal,"(390.0, 762.0)",0.9,0.68,1,7684.829,3,0.0,0.25
0,363,target,"[(1178, 791)]",[],[1],[0.5166666666666666],vertical,"(390.0, 762.0)",1.5333333333333332,0.474,1,7691.247,3,0.0,0.25
0,364,catch,"[(1155, 789)]",[],[1],[],vertical,"(890.0, 762.0)",1.65,nan,1,7697.412,3,0.0,0.25
0,365,target,"[(1184, 790)]",[],[1],[0.5166666666666666],horizontal,"(390.0, 762.0)",1.4333333333333333,0.475,1,7703.546,3,0.0,0.25
0,366,target,"[(1159, 769)]",[],[1],[0.7333333333333333],vertical,"(890.0, 762.0)",1.1333333333333333,0.695,1,7709.896,3,0.0,0.25
0,367,target,"[(1165, 796)]",[],[1],[0.65],horizontal,"(890.0, 762.0)",0.4,0.604,1,7716.241,3,0.0,0.25
0,368,target,"[(1152, 794)]",[],[1],[0.85],horizontal,"(390.0, 262.0)",0.9,nan,0,7721.603,0,0.0,0.25
0,369,target,"[(1155, 793)]",[],[1],[0.5666666666666667],vertical,"(390.0, 262.0)",1.15,0.522,1,7726.2,1,0.0,0.25
0,370,target,"[(1155, 779)]",[],[1],[0.6333333333333333],horizontal,"(390.0, 262.0)",0.6333333333333333,0.598,1,7731.446,1,0.0,0.25
0,371,target,"[(1157, 800)]",[],[1],[0.85],vertical,"(890.0, 262.0)",1.2666666666666666,nan,0,7736.163,0,0.0,0.25
0,372,catch,"[(1154, 778)]",[],[1],[],horizontal,"(390.0, 762.0)",1.65,nan,1,7741.496,1,0.0,0.25
0,373,target,"[(1168, 774)]",[],[1],[0.6833333333333333],vertical,"(890.0, 762.0)",1.4333333333333333,0.642,1,7746.813,1,0.0,0.25
0,374,target,"[(1154, 761)]",[],[1],[0.75],vertical,"(890.0, 762.0)",0.4,0.706,1,7752.596,1,0.0,0.25
0,375,catch,"[(1159, 786)]",[],[1],[],horizontal,"(390.0, 762.0)",1.65,nan,1,7757.4,2,0.0,0.25
0,376,target,"[(1184, 793)]",[],[1],[0.5666666666666667],horizontal,"(390.0, 762.0)",1.2833333333333332,0.525,1,7762.941,2,0.0,0.25
0,377,target,"[(1199, 789)]",[],[1],[0.65],horizontal,"(890.0, 762.0)",0.65,0.611,1,7768.324,2,0.0,0.25
0,378,target,"[(1159, 812)]",[],[1],[0.5666666666666667],horizontal,"(390.0, 762.0)",0.8,0.531,1,7773.609,2,0.0,0.25
0,379,catch,"[(1151, 784)]",[],[1],[],horizontal,"(390.0, 762.0)",1.65,nan,1,7778.966,3,0.0,0.25
0,380,catch,"[(1154, 766)]",[],[1],[],horizontal,"(390.0, 762.0)",1.65,nan,1,7784.861,3,0.0,0.25
0,381,catch,"[(1158, 789)]",[],[1],[],vertical,"(890.0, 762.0)",1.65,nan,1,7790.611,3,0.0,0.25
0,382,target,"[(1170, 792)]",[],[1],[0.6166666666666667],vertical,"(390.0, 762.0)",0.7666666666666666,0.57,1,7796.714,3,0.0,0.25
0,383,target,"[(1155, 803)]",[],[1],[0.85],horizontal,"(890.0, 762.0)",0.48333333333333334,nan,0,7802.18,0,0.0,0.25
0,384,target,"[(1098, 839)]","[(1108, 865)]",[1],[0.8333333333333334],vertical,"(390.0, 262.0)",,"('bar', 0.846)",0,7806.679,0,0.0,0.25
0,385,target,"[(489, 562), (1152, 844)]",[],"[0, 1]",[],vertical,"(890.0, 262.0)",,"('cti', 1.491)",0,7907.68,0,0.02,0.25
0,386,target,"[(1137, 815)]",[],[1],[0.85],horizontal,"(390.0, 762.0)",1.3833333333333333,nan,0,7913.58,0,0.02,0.25
0,387,target,"[(1121, 809)]","[(1042, 921)]",[1],[0.7666666666666666],vertical,"(890.0, 762.0)",,"('bar', 0.771)",0,7919.069,0,0.02,0.25
0,388,catch,"[(1134, 816)]",[],[1],[],vertical,"(890.0, 262.0)",,"('cti', 1.318),nan",0,7922.546,0,0.04,0.25
0,389,target,"[(1144, 784)]",[],[1],[0.6166666666666667],horizontal,"(390.0, 762.0)",0.55,0.573,1,7929.289,1,0.04,0.25
0,390,target,"[(1165, 803)]",[],[1],[0.85],vertical,"(390.0, 762.0)",1.3333333333333333,nan,0,7934.345,0,0.04,0.25
0,391,target,"[(1154, 829)]",[],[1],[0.85],vertical,"(390.0, 262.0)",0.35,nan,0,7939.842,0,0.04,0.25
0,392,target,"[(1194, 767)]",[],[1],[0.85],vertical,"(890.0, 762.0)",0.65,nan,0,7946.362,0,0.04,0.25
0,393,target,"[(441, 519), (1102, 880)]",[],"[0, 1]",[],horizontal,"(390.0, 262.0)",,"('fix', 0.052)",0,7952.079,0,0.04,0.25
0,394,target,"[(1108, 897)]",[],[1],[],horizontal,"(390.0, 762.0)",,"('fix', 0.018)",0,7954.581,0,0.04,0.25
