block,trial,trial_type,taps_start_loc_during_fix,taps_end_loc_during_fix,taps_on_lever_during_fix,taps_on_lever_s_during_fix,bar_orientation,target_xy,cti,rt,acc,time,pulses
0,1,catch,"[(993, 838), (1077, 887)]",[],"[0, 1]",[],vertical,"(890.0, 762.0)",1.2166666666666666,nan,1,0.063,1
0,2,target,"[(987, 838), (994, 886), (1028, 850)]",[],"[0, 0, 1]",[0.4],horizontal,"(390.0, 262.0)",0.8666666666666667,0.365,1,197.326,1
0,3,target,"[(1045, 878)]",[],[1],[0.85],vertical,"(890.0, 262.0)",0.65,nan,0,236.272,0
0,4,target,"[(372, 500), (1017, 836)]",[],"[0, 1]",[],vertical,"(390.0, 762.0)",,"('cti', 1.232)",0,240.954,0
0,5,target,"[(1057, 845)]",[],[1],[0.7],vertical,"(890.0, 262.0)",0.5833333333333334,0.654,1,265.963,1
0,6,catch,"[(1059, 836)]",[],[1],[],horizontal,"(890.0, 262.0)",1.55,nan,1,270.496,1
0,7,target,"[(1065, 841)]",[],[1],[0.45],vertical,"(390.0, 262.0)",1.0166666666666666,0.413,1,275.642,1
0,8,target,"[(1070, 834)]",[],[1],[0.85],horizontal,"(890.0, 262.0)",1.3833333333333333,nan,0,280.367,0
0,9,target,"[(1033, 894)]",[],[1],[],vertical,"(390.0, 262.0)",,"('cti', 0.474)",0,285.358,0
0,10,target,"[(1017, 843)]",[],[1],[0.3833333333333333],vertical,"(890.0, 262.0)",1.2166666666666666,0.347,1,291.515,1
0,11,target,"[(1022, 846)]",[],[1],[0.65],horizontal,"(890.0, 262.0)",0.8333333333333334,0.611,1,296.343,1
0,12,target,"[(1053, 855)]",[],[1],[0.65],horizontal,"(390.0, 762.0)",1.1166666666666667,0.605,1,301.389,1
0,13,target,"[(1038, 818)]",[],[1],[0.25],vertical,"(890.0, 262.0)",1.3166666666666667,0.216,1,306.814,2
0,14,target,"[(1051, 852)]",[],[1],[0.13333333333333333],vertical,"(890.0, 762.0)",1.1833333333333333,0.102,1,312.509,1
0,15,target,"[(1025, 849)]",[],[1],[],vertical,"(390.0, 262.0)",,"('cti', 1.409)",0,317.61,0
0,16,target,"[(1036, 834)]",[],[1],[0.6666666666666666],vertical,"(890.0, 762.0)",0.8333333333333334,0.621,1,322.376,1
0,17,target,"[(1049, 847)]",[],[1],[0.5666666666666667],horizontal,"(890.0, 762.0)",1.0666666666666667,0.522,1,327.611,1
0,18,target,"[(1033, 852)]",[],[1],[0.5],horizontal,"(890.0, 762.0)",1.2166666666666666,0.464,1,333.187,1
0,19,target,"[(1068, 829)]",[],[1],[0.5666666666666667],horizontal,"(890.0, 762.0)",0.7666666666666666,0.523,1,338.347,2
0,20,target,"[(1056, 831)]",[],[1],[0.5833333333333334],vertical,"(890.0, 262.0)",1.0833333333333333,0.536,1,343.66,1
0,21,catch,"[(1068, 830)]",[],[1],[],vertical,"(890.0, 762.0)",1.0333333333333332,nan,1,348.509,1
0,22,target,"[(1032, 838)]",[],[1],[0.7333333333333333],horizontal,"(390.0, 762.0)",0.8166666666666667,0.691,1,352.914,1
0,23,target,"[(1051, 825)]",[],[1],[],horizontal,"(890.0, 762.0)",,"('cti', 1.469)",0,357.959,0
0,24,target,"[(1042, 809)]",[],[1],[0.6],horizontal,"(890.0, 762.0)",0.8666666666666667,0.552,1,362.833,1
0,25,catch,"[(1053, 826)]",[],[1],[],horizontal,"(890.0, 262.0)",1.05,nan,1,367.561,1
0,26,target,"[(1053, 860)]",[],[1],[],horizontal,"(890.0, 262.0)",,"('cti', 1.173)",0,372.308,0
0,27,target,"[(1026, 843)]",[],[1],[0.4666666666666667],horizontal,"(890.0, 762.0)",1.3,0.422,1,376.97,1
0,28,target,"[(1049, 843)]",[],[1],[0.5333333333333333],horizontal,"(890.0, 262.0)",0.9333333333333333,0.496,1,383.66,1
0,29,target,"[(1069, 838)]",[],[1],[0.5],horizontal,"(390.0, 262.0)",0.9166666666666666,0.458,1,388.79,1
0,30,target,"[(1057, 821)]",[],[1],[0.43333333333333335],horizontal,"(390.0, 262.0)",1.3166666666666667,0.401,1,393.897,2
0,31,target,"[(1068, 815)]",[],[1],[0.5833333333333334],vertical,"(890.0, 762.0)",1.3,0.542,1,399.557,1
0,32,target,"[(1068, 837)]",[],[1],[0.5166666666666666],horizontal,"(890.0, 762.0)",1.0166666666666666,0.479,1,404.44,1
0,33,target,"[(1030, 846)]",[],[1],[0.2],vertical,"(890.0, 762.0)",1.5,0.167,1,409.394,1
0,34,catch,"[(1053, 815)]",[],[1],[],horizontal,"(890.0, 762.0)",1.0666666666666667,nan,1,415.343,2
0,35,target,"[(1048, 838)]",[],[1],[0.85],horizontal,"(390.0, 262.0)",0.8833333333333333,nan,0,420.144,0
0,36,target,"[(1058, 855)]",[],[1],[0.5833333333333334],horizontal,"(390.0, 762.0)",0.65,0.55,1,425.133,1
0,37,catch,"[(1061, 819)]",[],[1],[],vertical,"(390.0, 762.0)",1.3166666666666667,nan,1,429.693,1
0,38,catch,"[(1061, 824)]",[],[1],[],horizontal,"(390.0, 262.0)",1.5,nan,1,434.204,1
0,39,target,"[(1061, 832)]",[],[1],[],vertical,"(890.0, 762.0)",,"('cti', 1.333)",0,439.176,0
0,40,target,"[(1051, 824)]",[],[1],[0.3833333333333333],horizontal,"(890.0, 262.0)",1.3666666666666667,0.346,1,444.227,1
0,41,target,"[(1066, 829)]",[],[1],[0.7166666666666667],horizontal,"(390.0, 762.0)",0.5333333333333333,0.681,1,449.56,1
0,42,target,"[(1064, 828)]",[],[1],[0.6833333333333333],vertical,"(890.0, 262.0)",0.9,0.64,1,454.444,1
0,43,catch,"[(1061, 824)]",[],[1],[],vertical,"(390.0, 762.0)",1.6,nan,1,459.543,2
0,44,target,"[(1061, 816)]",[],[1],[0.5166666666666666],horizontal,"(890.0, 262.0)",1.1833333333333333,0.481,1,464.919,1
0,45,target,"[(1057, 823)]",[],[1],[0.45],vertical,"(390.0, 762.0)",1.3833333333333333,0.413,1,470.49,1
0,46,target,"[(1046, 833)]",[],[1],[0.65],vertical,"(890.0, 762.0)",0.5,0.611,1,475.81,1
0,47,target,"[(1038, 819)]",[],[1],[],horizontal,"(890.0, 262.0)",,"('cti', 1.546)",0,480.669,0
0,48,target,"[(1057, 820)]",[],[1],[],vertical,"(390.0, 762.0)",,"('cti', 1.668)",0,485.394,0
0,49,target,"[(1033, 822)]",[],[1],[0.55],horizontal,"(890.0, 762.0)",0.95,0.51,1,490.06,1
0,50,target,"[(1039, 818)]",[],[1],[0.85],vertical,"(390.0, 762.0)",0.5333333333333333,nan,0,494.888,0
0,51,target,"[(1027, 832)]",[],[1],[0.55],vertical,"(390.0, 262.0)",1.5833333333333333,0.505,1,498.813,1
0,52,target,"[(1008, 881)]",[],[1],[0.5666666666666667],horizontal,"(390.0, 762.0)",1.15,0.524,1,505.723,1
0,53,target,"[(1053, 832)]",[],[1],[0.5166666666666666],horizontal,"(890.0, 762.0)",0.7833333333333333,0.471,1,546.546,1
0,54,target,"[(1061, 821)]",[],[1],[0.4166666666666667],horizontal,"(390.0, 262.0)",1.0833333333333333,0.383,1,551.494,2
0,55,target,"[(1068, 829)]",[],[1],[0.7333333333333333],vertical,"(390.0, 262.0)",0.95,0.689,1,556.828,1
0,56,target,"[(1061, 819)]",[],[1],[0.6833333333333333],vertical,"(890.0, 262.0)",0.7166666666666667,0.634,1,562.17,1
0,57,target,"[(1067, 833)]",[],[1],[0.5],horizontal,"(890.0, 762.0)",0.7833333333333333,0.464,1,567.077,1
0,58,target,"[(1030, 821)]",[],[1],[0.05],horizontal,"(390.0, 262.0)",1.3,0.019,0,571.677,0
0,59,target,"[(1040, 816)]",[],[1],[0.48333333333333334],horizontal,"(390.0, 262.0)",0.8666666666666667,0.443,1,576.328,1
0,60,target,"[(1065, 817)]",[],[1],[0.08333333333333333],horizontal,"(890.0, 262.0)",1.6166666666666667,0.051,0,581.369,0
0,61,target,"[(1038, 821)]",[],[1],[0.65],vertical,"(890.0, 762.0)",0.8,0.604,1,586.028,1
0,62,target,"[(1061, 827)]",[],[1],[0.31666666666666665],horizontal,"(890.0, 762.0)",1.5,0.281,1,591.017,1
0,63,target,"[(1057, 819)]",[],[1],[0.85],horizontal,"(390.0, 762.0)",1.6,"('cti', 1.59),nan",0,596.294,0
0,64,target,"[(1053, 821)]",[],[1],[0.5],horizontal,"(390.0, 762.0)",1.35,0.459,1,601.876,1
0,65,target,"[(1071, 811)]",[],[1],[0.3833333333333333],horizontal,"(890.0, 262.0)",1.6666666666666667,0.342,1,606.812,1
0,66,target,"[(1059, 810)]",[],[1],[0.7],horizontal,"(390.0, 762.0)",0.8666666666666667,0.655,1,612.128,1
0,67,target,"[(1063, 826)]",[],[1],[0.7],vertical,"(390.0, 262.0)",1.1,0.653,1,617.445,2
0,68,target,"[(1057, 820)]",[],[1],[0.5],vertical,"(890.0, 262.0)",0.5,0.468,1,623.298,1
0,69,target,"[(1068, 829)]",[],[1],[0.16666666666666666],vertical,"(890.0, 262.0)",1.5166666666666666,0.138,1,627.894,1
0,70,target,"[(1082, 821)]",[],[1],[],horizontal,"(390.0, 262.0)",,"('cti', 1.57)",0,633.106,0
0,71,catch,"[(1058, 821)]",[],[1],[],horizontal,"(390.0, 262.0)",,"('cti', 1.605),nan",0,637.571,0
0,72,target,"[(1038, 798)]",[],[1],[0.48333333333333334],horizontal,"(890.0, 762.0)",1.3333333333333333,0.443,1,642.329,1
0,73,target,"[(1057, 803)]",[],[1],[0.55],horizontal,"(890.0, 762.0)",0.7666666666666666,0.513,1,647.679,1
0,74,target,"[(1037, 825)]",[],[1],[0.8],horizontal,"(390.0, 262.0)",0.6666666666666666,0.753,1,652.181,1
0,75,target,"[(1064, 812)]",[],[1],[0.6666666666666666],vertical,"(390.0, 762.0)",1.1333333333333333,0.622,1,657.245,2
0,76,target,"[(1061, 807)]",[],[1],[0.55],horizontal,"(390.0, 262.0)",1.1,0.507,1,663.011,1
0,77,target,"[(1074, 827)]",[],[1],[0.6333333333333333],horizontal,"(390.0, 262.0)",0.7,0.589,1,668.362,1
0,78,target,"[(1064, 819)]",[],[1],[],horizontal,"(390.0, 762.0)",,"('cti', 1.518)",0,672.961,0
0,79,target,"[(1061, 822)]",[],[1],[0.5333333333333333],horizontal,"(390.0, 262.0)",1.0,0.498,1,677.545,1
0,80,target,"[(1071, 820)]",[],[1],[0.6666666666666666],horizontal,"(390.0, 762.0)",1.0,0.625,1,682.605,1
0,81,target,"[(1077, 817)]",[],[1],[0.11666666666666667],vertical,"(890.0, 762.0)",1.3833333333333333,0.084,0,688.113,0
0,82,target,"[(1041, 829)]",[],[1],[0.3],horizontal,"(390.0, 762.0)",1.35,0.266,1,692.361,1
0,83,target,"[(1077, 821)]",[],[1],[0.55],vertical,"(390.0, 262.0)",1.1333333333333333,0.509,1,697.329,1
0,84,target,"[(1063, 808)]",[],[1],[],vertical,"(890.0, 762.0)",,"('cti', 1.471)",0,702.58,0
0,85,target,"[(1061, 832)]",[],[1],[0.6666666666666666],vertical,"(390.0, 762.0)",0.7666666666666666,0.622,1,707.361,1
0,86,target,"[(1065, 814)]",[],[1],[0.55],vertical,"(890.0, 762.0)",0.9,0.518,1,712.362,1
0,87,target,"[(1063, 808)]",[],[1],[0.6],vertical,"(390.0, 262.0)",0.8333333333333334,0.558,1,717.836,1
0,88,target,"[(1057, 826)]",[],[1],[0.5166666666666666],horizontal,"(890.0, 262.0)",1.5166666666666666,0.48,1,722.909,2
0,89,target,"[(1068, 813)]",[],[1],[0.85],vertical,"(390.0, 762.0)",0.6333333333333333,nan,0,728.683,0
0,90,target,"[(1028, 822)]",[],[1],[0.5],vertical,"(390.0, 762.0)",1.6,0.457,1,733.011,1
0,91,catch,"[(1037, 359), (1037, 860)]",[],"[0, 1]",[],horizontal,"(390.0, 262.0)",1.4666666666666666,nan,1,738.618,1
0,92,catch,"[(1065, 486), (286, 478), (1029, 876)]",[],"[0, 0, 1]",[],vertical,"(890.0, 762.0)",,"('fix', 0.017),nan",0,745.028,0
0,93,target,"[(1096, 362), (986, 385), (915, 524), (1019, 829)]",[],"[0, 0, 0, 1]",[0.85],horizontal,"(390.0, 762.0)",1.2833333333333332,nan,0,749.555,0
0,94,target,"[(1028, 843)]",[],[1],[0.85],vertical,"(890.0, 262.0)",0.5166666666666666,nan,0,779.375,0
0,95,catch,"[(1053, 823)]",[],[1],[],vertical,"(390.0, 762.0)",1.5166666666666666,nan,1,785.524,1
0,96,target,"[(1029, 869)]",[],[1],[0.05],horizontal,"(890.0, 762.0)",1.3166666666666667,0.019,0,790.93,0
0,97,target,"[(1070, 831)]",[],[1],[0.85],horizontal,"(890.0, 262.0)",1.3,nan,0,840.578,0
0,98,target,"[(1037, 837)]",[],[1],[0.5166666666666666],horizontal,"(390.0, 762.0)",1.2166666666666666,0.476,1,845.439,1
0,99,target,"[(1046, 838)]",[],[1],[0.5666666666666667],vertical,"(890.0, 762.0)",0.7166666666666667,0.525,1,850.494,1
0,100,target,"[(1052, 824)]",[],[1],[0.3],horizontal,"(390.0, 262.0)",1.3,0.269,1,855.015,1
0,101,target,"[(1056, 808)]",[],[1],[0.85],vertical,"(890.0, 762.0)",0.8333333333333334,nan,0,860.412,0
0,102,target,"[(1010, 826)]",[],[1],[0.5666666666666667],horizontal,"(390.0, 762.0)",1.1833333333333333,0.527,1,865.197,1
0,103,target,"[(1065, 828)]",[],[1],[0.6833333333333333],vertical,"(390.0, 262.0)",0.5833333333333334,0.641,1,873.68,1
0,104,target,"[(1029, 821)]",[],[1],[0.65],vertical,"(890.0, 762.0)",1.0,0.605,1,878.197,1
0,105,target,"[(1071, 821)]",[],[1],[0.5333333333333333],vertical,"(890.0, 762.0)",1.3666666666666667,0.494,1,883.746,2
0,106,target,"[(1057, 807)]",[],[1],[0.85],horizontal,"(890.0, 262.0)",1.0,nan,0,889.244,0
0,107,target,"[(1064, 846)]",[],[1],[0.85],horizontal,"(890.0, 262.0)",1.3,nan,0,893.914,0
0,108,target,"[(1057, 838)]",[],[1],[0.5833333333333334],horizontal,"(390.0, 762.0)",0.5166666666666666,0.548,1,900.538,1
0,109,target,"[(1046, 829)]",[],[1],[0.85],vertical,"(390.0, 262.0)",0.9,nan,0,904.84,0
0,110,target,"[(1017, 821)]",[],[1],[0.6666666666666666],horizontal,"(890.0, 762.0)",0.7833333333333333,0.623,1,909.905,1
0,111,target,"[(1053, 835)]",[],[1],[0.5],horizontal,"(390.0, 262.0)",0.85,0.462,1,915.329,1
0,112,target,"[(1077, 828)]",[],[1],[0.65],vertical,"(390.0, 262.0)",0.9166666666666666,0.613,1,920.696,1
0,113,catch,"[(1053, 824)]",[],[1],[],horizontal,"(890.0, 262.0)",1.3666666666666667,nan,1,925.638,2
0,114,target,"[(1082, 812)]",[],[1],[0.25],horizontal,"(890.0, 762.0)",1.6666666666666667,0.214,1,930.721,1
0,115,target,"[(1054, 840)]",[],[1],[0.15],horizontal,"(390.0, 762.0)",1.5166666666666666,0.119,1,936.297,1
0,116,target,"[(1049, 825)]",[],[1],[0.05],horizontal,"(390.0, 762.0)",1.45,0.021,0,941.519,0
0,117,target,"[(1072, 824)]",[],[1],[0.65],horizontal,"(390.0, 262.0)",1.2,0.605,1,945.969,1
0,118,target,"[(1066, 809)]",[],[1],[0.6],horizontal,"(890.0, 762.0)",0.5833333333333334,0.56,1,951.54,1
0,119,target,"[(1066, 833)]",[],[1],[0.55],vertical,"(890.0, 262.0)",0.8166666666666667,0.508,1,956.129,1
0,120,target,"[(1047, 852)]",[],[1],[0.23333333333333334],horizontal,"(890.0, 762.0)",1.5166666666666666,0.202,1,961.036,2
0,121,target,"[(1053, 815)]",[],[1],[0.4],vertical,"(890.0, 762.0)",1.3166666666666667,0.362,1,966.813,1
0,122,target,"[(1072, 808)]",[],[1],[0.5666666666666667],vertical,"(390.0, 262.0)",1.05,0.526,1,972.176,1
0,123,target,"[(1079, 808)]",[],[1],[0.18333333333333332],vertical,"(890.0, 762.0)",1.6333333333333333,0.153,1,977.213,1
0,124,target,"[(1068, 820)]",[],[1],[0.7],horizontal,"(390.0, 262.0)",0.7166666666666667,0.655,1,982.846,2
0,125,target,"[(1053, 808)]",[],[1],[0.85],vertical,"(390.0, 762.0)",0.7,nan,0,988.163,0
0,126,target,"[(1045, 850)]",[],[1],[0.5833333333333334],horizontal,"(390.0, 762.0)",0.8166666666666667,0.54,1,992.369,1
0,127,target,"[(1038, 824)]",[],[1],[],horizontal,"(890.0, 762.0)",,"('cti', 1.499)",0,997.931,0
0,128,target,"[(1053, 812)]",[],[1],[],vertical,"(890.0, 762.0)",,"('cti', 1.563)",0,1002.339,0
0,129,catch,"[(1022, 815)]",[],[1],[],vertical,"(390.0, 262.0)",1.2,nan,1,1006.815,1
0,130,target,"[(1055, 825)]",[],[1],[0.35],horizontal,"(890.0, 262.0)",1.2166666666666666,0.317,1,1011.998,1
0,131,target,"[(1045, 805)]",[],[1],[0.65],horizontal,"(390.0, 262.0)",0.8833333333333333,0.613,1,1017.264,1
0,132,target,"[(1022, 834)]",[],[1],[0.7],vertical,"(390.0, 762.0)",0.6833333333333333,0.658,1,1021.998,2
0,133,target,"[(1028, 816)]",[],[1],[0.5],vertical,"(890.0, 262.0)",1.2833333333333332,0.462,1,1027.258,1
0,134,target,"[(1049, 805)]",[],[1],[0.7166666666666667],vertical,"(390.0, 762.0)",0.6,0.671,1,1032.764,1
0,135,catch,"[(1071, 810)]",[],[1],[],vertical,"(390.0, 762.0)",1.5166666666666666,nan,1,1037.297,1
0,136,target,"[(1072, 833)]",[],[1],[0.4166666666666667],vertical,"(390.0, 762.0)",1.1833333333333333,0.377,1,1042.19,2
0,137,target,"[(1062, 806)]",[],[1],[0.85],vertical,"(390.0, 262.0)",1.4,nan,0,1047.781,0
0,138,target,"[(1036, 830)]",[],[1],[0.6333333333333333],horizontal,"(890.0, 262.0)",0.8666666666666667,0.589,1,1052.736,1
0,139,target,"[(1068, 816)]",[],[1],[0.4666666666666667],horizontal,"(890.0, 262.0)",1.45,0.428,1,1057.73,1
0,140,target,"[(1052, 824)]",[],[1],[0.36666666666666664],vertical,"(390.0, 262.0)",1.6666666666666667,0.334,1,1063.012,1
0,141,target,"[(1039, 824)]",[],[1],[0.85],vertical,"(890.0, 262.0)",0.6666666666666666,nan,0,1068.353,0
0,142,target,"[(1030, 837)]",[],[1],[0.85],horizontal,"(890.0, 762.0)",0.65,nan,0,1073.03,0
0,143,target,"[(1033, 842)]",[],[1],[0.4666666666666667],horizontal,"(890.0, 762.0)",1.35,0.428,1,1077.73,1
0,144,target,"[(1080, 807)]","[(1002, 863)]",[1],[0.7333333333333333],horizontal,"(390.0, 262.0)",,"('bar', 0.739)",0,1083.013,0
0,145,target,"[(1029, 823)]",[],[1],[0.5666666666666667],vertical,"(890.0, 262.0)",0.5166666666666666,0.53,1,1086.065,1
0,146,target,"[(1068, 816)]",[],[1],[0.43333333333333335],horizontal,"(390.0, 262.0)",1.1666666666666667,0.395,1,1091.147,1
0,147,target,"[(1075, 830)]",[],[1],[0.7166666666666667],vertical,"(390.0, 762.0)",1.05,0.675,1,1096.365,1
0,148,target,"[(1061, 794)]",[],[1],[],horizontal,"(390.0, 762.0)",,"('cti', 1.413)",0,1101.315,0
0,149,target,"[(1066, 844)]",[],[1],[0.3833333333333333],horizontal,"(890.0, 262.0)",1.45,0.346,1,1105.679,1
0,150,target,"[(1076, 809)]",[],[1],[0.65],horizontal,"(390.0, 262.0)",0.7666666666666666,0.612,1,1111.215,1
0,151,target,"[(1077, 817)]",[],[1],[0.5666666666666667],horizontal,"(390.0, 262.0)",1.15,0.524,1,1115.709,1
0,152,target,"[(1033, 810)]",[],[1],[0.5666666666666667],horizontal,"(890.0, 762.0)",0.55,0.525,1,1121.064,2
0,153,target,"[(942, 814), (943, 859), (1035, 836)]",[],"[0, 0, 1]",[0.85],vertical,"(390.0, 262.0)",1.3666666666666667,nan,0,1126.254,0
0,154,target,"[(940, 837), (590, 493), (616, 620), (648, 783), (600, 911), (547, 667), (1025, 863)]",[],"[0, 0, 0, 0, 0, 0, 1]",[],vertical,"(390.0, 262.0)",,"('cti', 1.049)",0,1136.644,0
0,155,target,"[(1013, 814)]",[],[1],[0.55],horizontal,"(390.0, 262.0)",1.1166666666666667,0.516,1,1146.363,1
0,156,target,"[(1072, 820)]",[],[1],[0.85],horizontal,"(890.0, 762.0)",1.35,nan,0,1151.576,0
0,157,target,"[(1024, 826)]",[],[1],[0.85],horizontal,"(890.0, 762.0)",1.0666666666666667,nan,0,1156.403,0
0,158,target,"[(302, 886), (776, 362), (1000, 857), (1041, 863)]",[],"[0, 0, 0, 1]",[0.5666666666666667],horizontal,"(390.0, 262.0)",0.9833333333333333,0.522,1,1161.965,1
0,159,target,"[(1053, 856)]",[],[1],[0.85],vertical,"(390.0, 262.0)",0.6,nan,0,7883.921,0
0,160,target,"[(1056, 816)]",[],[1],[0.5833333333333334],vertical,"(890.0, 762.0)",0.8666666666666667,0.539,1,7888.461,1
0,161,target,"[(1053, 838)]",[],[1],[0.7166666666666667],vertical,"(390.0, 762.0)",0.9833333333333333,0.673,1,7893.671,1
0,162,target,"[(1053, 831)]",[],[1],[0.85],vertical,"(390.0, 262.0)",1.2333333333333334,nan,0,7898.72,0
0,163,catch,"[(1055, 846)]",[],[1],[],horizontal,"(890.0, 762.0)",1.45,nan,1,7903.954,1
0,164,target,"[(1060, 828)]",[],[1],[0.5166666666666666],vertical,"(390.0, 762.0)",1.1833333333333333,0.481,1,7909.438,1
0,165,catch,"[(1037, 839)]",[],[1],[],horizontal,"(390.0, 762.0)",1.6833333333333333,nan,1,7914.737,1
0,166,target,"[(1065, 822)]",[],[1],[0.5666666666666667],horizontal,"(390.0, 262.0)",0.9333333333333333,0.534,1,7919.87,2
0,167,target,"[(1065, 833)]",[],[1],[0.31666666666666665],vertical,"(890.0, 762.0)",1.1666666666666667,0.282,1,7925.503,1
0,168,target,"[(1057, 834)]",[],[1],[0.6333333333333333],horizontal,"(890.0, 262.0)",1.3333333333333333,0.591,1,7930.675,1
0,169,target,"[(1068, 842)]",[],[1],[0.6333333333333333],horizontal,"(390.0, 762.0)",1.0666666666666667,0.602,1,7936.279,1
0,170,target,"[(1069, 832)]",[],[1],[0.36666666666666664],vertical,"(390.0, 262.0)",1.3,0.333,1,7942.101,2
0,171,target,"[(1057, 816)]",[],[1],[0.4166666666666667],horizontal,"(890.0, 762.0)",1.4833333333333334,0.383,1,7948.037,1
0,172,catch,"[(1066, 815)]",[],[1],[],vertical,"(890.0, 262.0)",1.0833333333333333,nan,1,7953.15,1
0,173,target,"[(1066, 816)]",[],[1],[0.6666666666666666],vertical,"(390.0, 762.0)",1.65,0.633,1,7957.83,1
0,174,catch,"[(1064, 820)]",[],[1],[],vertical,"(890.0, 762.0)",1.3166666666666667,nan,1,7963.469,2
0,175,target,"[(1065, 810)]",[],[1],[0.6666666666666666],horizontal,"(890.0, 262.0)",1.65,0.625,1,7969.085,1
0,176,target,"[(1057, 828)]",[],[1],[],vertical,"(890.0, 762.0)",,"('cti', 1.465)",0,7975.053,0
0,177,target,"[(1068, 836)]",[],[1],[0.3],vertical,"(390.0, 262.0)",1.3833333333333333,0.267,1,7979.869,1
0,178,target,"[(1068, 806)]",[],[1],[0.5166666666666666],vertical,"(890.0, 262.0)",1.3666666666666667,0.479,1,7985.148,1
0,179,target,"[(1072, 839)]",[],[1],[0.85],horizontal,"(390.0, 762.0)",1.6833333333333333,nan,0,7990.891,0
0,180,target,"[(1048, 834)]",[],[1],[0.85],vertical,"(390.0, 762.0)",0.6166666666666667,nan,0,7996.877,0
0,181,target,"[(1046, 806)]",[],[1],[0.26666666666666666],horizontal,"(890.0, 762.0)",1.4666666666666666,0.231,1,8001.487,1
0,182,target,"[(1053, 830)]",[],[1],[0.55],vertical,"(390.0, 262.0)",1.4166666666666667,0.508,1,8007.324,1
0,183,target,"[(1037, 828)]",[],[1],[0.85],vertical,"(890.0, 762.0)",1.15,nan,0,8013.406,0
0,184,target,"[(1037, 831)]",[],[1],[0.55],vertical,"(390.0, 262.0)",1.0166666666666666,0.509,1,8018.317,1
0,185,target,"[(1058, 824)]",[],[1],[0.6333333333333333],horizontal,"(390.0, 262.0)",0.6833333333333333,0.594,1,8023.105,1
0,186,target,"[(1056, 832)]",[],[1],[0.5666666666666667],horizontal,"(890.0, 262.0)",1.4666666666666666,0.527,1,8027.909,1
0,187,target,"[(1061, 819)]",[],[1],[0.5166666666666666],vertical,"(890.0, 762.0)",1.3833333333333333,0.473,1,8033.588,2
0,188,target,"[(1049, 833)]",[],[1],[0.5],vertical,"(890.0, 262.0)",0.7333333333333333,0.472,1,8039.704,1
0,189,target,"[(1061, 838)]",[],[1],[0.4],horizontal,"(890.0, 262.0)",1.65,0.37,1,8044.438,1
0,190,target,"[(1058, 842)]",[],[1],[0.5666666666666667],horizontal,"(390.0, 262.0)",1.1666666666666667,0.525,1,8049.96,1
0,191,target,"[(1053, 838)]",[],[1],[0.85],horizontal,"(390.0, 262.0)",1.0833333333333333,nan,0,8055.009,0
0,192,target,"[(1051, 811)]",[],[1],[0.5333333333333333],vertical,"(390.0, 262.0)",1.3166666666666667,0.492,1,8060.088,1
0,193,target,"[(1068, 833)]",[],[1],[0.5666666666666667],horizontal,"(890.0, 262.0)",1.4833333333333334,0.531,1,8065.834,1
0,194,target,"[(1072, 821)]",[],[1],[0.85],vertical,"(390.0, 762.0)",1.1,nan,0,8071.489,0
0,195,target,"[(1069, 830)]",[],[1],[0.85],horizontal,"(890.0, 762.0)",0.9333333333333333,nan,0,8076.28,0
0,196,target,"[(1061, 814)]",[],[1],[0.85],vertical,"(390.0, 262.0)",0.5333333333333333,nan,0,8081.571,0
0,197,target,"[(1029, 811)]",[],[1],[0.8],vertical,"(390.0, 762.0)",0.8666666666666667,0.754,1,8086.005,1
0,198,target,"[(1071, 814)]",[],[1],[0.6166666666666667],horizontal,"(390.0, 262.0)",1.5333333333333332,0.576,1,8091.456,1
0,199,target,"[(1057, 842)]",[],[1],[0.55],horizontal,"(890.0, 762.0)",0.65,0.511,1,8096.814,1
0,200,target,"[(1050, 835)]",[],[1],[0.6666666666666666],horizontal,"(390.0, 762.0)",1.5666666666666667,0.624,1,8101.588,2
0,201,target,"[(1070, 819)]",[],[1],[0.85],vertical,"(390.0, 762.0)",0.95,nan,0,8107.487,0
0,202,target,"[(1093, 834)]",[],[1],[0.7],vertical,"(890.0, 762.0)",0.6,0.659,1,8112.454,1
0,203,target,"[(1091, 820)]",[],[1],[0.5666666666666667],horizontal,"(390.0, 262.0)",1.2166666666666666,0.528,1,8117.238,1
0,204,target,"[(1071, 836)]",[],[1],[0.7333333333333333],horizontal,"(390.0, 762.0)",0.8833333333333333,0.685,1,8122.326,1
0,205,catch,"[(1071, 829)]",[],[1],[],vertical,"(390.0, 262.0)",1.6333333333333333,nan,1,8127.689,2
0,206,target,"[(1071, 825)]",[],[1],[0.8],vertical,"(390.0, 762.0)",0.8833333333333333,0.755,1,8133.205,1
0,207,target,"[(1053, 810)]",[],[1],[0.5833333333333334],horizontal,"(390.0, 262.0)",1.3833333333333333,0.54,1,8138.792,1
0,208,catch,"[(1069, 830)]",[],[1],[],vertical,"(390.0, 262.0)",1.3333333333333333,nan,1,8144.405,1
0,209,target,"[(1072, 836)]",[],[1],[0.06666666666666667],vertical,"(890.0, 262.0)",0.9833333333333333,0.036,0,8149.655,0
0,210,target,"[(1052, 820)]",[],[1],[0.4666666666666667],vertical,"(890.0, 762.0)",0.7666666666666666,0.438,1,8154.146,1
0,211,target,"[(1071, 809)]",[],[1],[0.5166666666666666],vertical,"(390.0, 262.0)",1.2333333333333334,0.482,1,8158.755,1
0,212,target,"[(1075, 824)]",[],[1],[0.55],vertical,"(390.0, 762.0)",0.7833333333333333,0.514,1,8164.288,1
0,213,target,"[(1057, 819)]",[],[1],[0.6166666666666667],horizontal,"(890.0, 762.0)",0.7166666666666667,0.578,1,8169.159,2
0,214,catch,"[(1053, 835)]",[],[1],[],horizontal,"(390.0, 762.0)",1.5833333333333333,nan,1,8174.387,1
0,215,target,"[(1072, 837)]",[],[1],[0.6166666666666667],horizontal,"(390.0, 762.0)",0.8,0.576,1,8179.413,1
0,216,target,"[(1071, 826)]",[],[1],[0.21666666666666667],horizontal,"(390.0, 262.0)",1.35,0.182,1,8184.673,1
0,217,target,"[(1069, 842)]",[],[1],[0.7333333333333333],horizontal,"(890.0, 262.0)",0.55,0.687,1,8189.821,2
0,218,target,"[(1074, 802)]",[],[1],[0.55],horizontal,"(390.0, 262.0)",1.3,0.51,1,8195.004,1
0,219,target,"[(1069, 807)]",[],[1],[0.65],vertical,"(890.0, 762.0)",1.0166666666666666,0.61,1,8200.16,1
0,220,target,"[(1069, 811)]",[],[1],[0.5333333333333333],vertical,"(390.0, 262.0)",1.0666666666666667,0.502,1,8205.272,1
0,221,target,"[(1068, 830)]",[],[1],[0.85],horizontal,"(890.0, 762.0)",1.6833333333333333,"('cti', 1.693),nan",0,8210.025,0
0,222,target,"[(1057, 830)]",[],[1],[0.8],vertical,"(890.0, 762.0)",0.6666666666666666,0.767,1,8215.911,1
0,223,target,"[(1069, 806)]",[],[1],[0.31666666666666665],horizontal,"(390.0, 762.0)",1.3333333333333333,0.277,1,8221.205,1
0,224,target,"[(1075, 821)]",[],[1],[0.6666666666666666],horizontal,"(890.0, 262.0)",0.5166666666666666,0.63,1,8226.49,1
0,225,target,"[(1068, 830)]",[],[1],[0.5833333333333334],horizontal,"(390.0, 262.0)",0.6333333333333333,0.539,1,8231.039,2
0,226,target,"[(1072, 815)]",[],[1],[0.4666666666666667],vertical,"(890.0, 762.0)",1.2166666666666666,0.429,1,8236.305,1
0,227,target,"[(1072, 824)]",[],[1],[0.6333333333333333],vertical,"(390.0, 262.0)",1.2,0.592,1,8241.862,1
0,228,catch,"[(1066, 833)]",[],[1],[],vertical,"(890.0, 762.0)",1.3,nan,1,8247.255,1
0,229,target,"[(1072, 815)]",[],[1],[0.5333333333333333],vertical,"(890.0, 262.0)",0.6333333333333333,0.488,1,8252.258,2
0,230,target,"[(1061, 826)]",[],[1],[0.43333333333333335],horizontal,"(390.0, 262.0)",1.3,0.398,1,8257.307,1
0,231,target,"[(1068, 826)]",[],[1],[0.85],horizontal,"(890.0, 762.0)",0.9333333333333333,nan,0,8262.457,0
0,232,target,"[(1041, 806)]",[],[1],[0.85],horizontal,"(890.0, 262.0)",0.6833333333333333,nan,0,8267.123,0
0,233,target,"[(1053, 800)]",[],[1],[0.26666666666666666],horizontal,"(390.0, 262.0)",1.4833333333333334,0.231,1,8271.655,1
0,234,catch,"[(1072, 811)]",[],[1],[],horizontal,"(890.0, 762.0)",1.55,nan,1,8277.222,1
0,235,target,"[(1041, 847)]",[],[1],[0.5333333333333333],vertical,"(890.0, 262.0)",0.55,0.491,1,8282.461,1
0,236,catch,"[(1072, 810)]",[],[1],[],vertical,"(890.0, 262.0)",1.1166666666666667,nan,1,8287.071,2
0,237,catch,"[(1053, 829)]",[],[1],[],horizontal,"(390.0, 262.0)",1.4166666666666667,nan,1,8292.156,1
0,238,target,"[(1068, 828)]",[],[1],[0.4],vertical,"(890.0, 762.0)",1.3,0.361,1,8297.173,1
0,239,target,"[(1069, 838)]",[],[1],[0.6833333333333333],horizontal,"(890.0, 762.0)",0.7333333333333333,0.643,1,8302.872,1
0,240,target,"[(1070, 813)]",[],[1],[0.3],vertical,"(890.0, 762.0)",1.4,0.274,1,8307.525,2
0,241,catch,"[(1072, 857)]",[],[1],[],horizontal,"(390.0, 762.0)",1.4833333333333334,nan,1,8312.99,1
0,242,target,"[(1049, 832)]",[],[1],[0.5666666666666667],vertical,"(390.0, 762.0)",1.1666666666666667,0.526,1,8318.071,1
0,243,target,"[(1068, 817)]",[],[1],[0.5333333333333333],vertical,"(890.0, 762.0)",1.65,0.492,1,8323.828,1
0,244,target,"[(1066, 814)]",[],[1],[0.48333333333333334],vertical,"(390.0, 262.0)",1.3833333333333333,0.441,1,8329.618,2
0,245,target,"[(1046, 841)]",[],[1],[0.5166666666666666],horizontal,"(890.0, 762.0)",1.5833333333333333,0.477,1,8335.107,1
0,246,target,"[(1027, 835)]",[],[1],[0.3833333333333333],horizontal,"(890.0, 762.0)",1.4666666666666666,0.344,1,8341.001,1
0,247,target,"[(1038, 839)]",[],[1],[0.7833333333333333],vertical,"(390.0, 762.0)",0.9,0.739,1,8347.007,1
0,248,target,"[(1038, 856)]",[],[1],[0.85],horizontal,"(890.0, 262.0)",1.65,nan,0,8352.102,0
0,249,catch,"[(1033, 830)]",[],[1],[],vertical,"(890.0, 762.0)",1.0333333333333332,nan,1,8357.406,1
0,250,target,"[(1046, 807)]",[],[1],[0.3],horizontal,"(390.0, 762.0)",1.3166666666666667,0.269,1,8361.756,1
0,251,target,"[(1057, 817)]",[],[1],[0.5],horizontal,"(390.0, 262.0)",1.25,0.459,1,8367.24,1
0,252,target,"[(1048, 824)]",[],[1],[0.5333333333333333],vertical,"(890.0, 262.0)",1.1333333333333333,0.491,1,8372.878,2
0,253,target,"[(1072, 820)]",[],[1],[0.7],horizontal,"(390.0, 762.0)",0.95,0.657,1,8378.328,1
0,254,target,"[(1061, 825)]",[],[1],[0.5166666666666666],vertical,"(390.0, 762.0)",1.25,0.482,1,8383.227,1
0,255,target,"[(1061, 827)]",[],[1],[0.25],vertical,"(890.0, 262.0)",1.55,0.218,1,8388.239,1
0,256,target,"[(1033, 831)]",[],[1],[0.7166666666666667],horizontal,"(890.0, 762.0)",1.0833333333333333,0.682,1,8393.511,2
0,257,target,"[(1059, 805)]",[],[1],[0.5666666666666667],vertical,"(890.0, 262.0)",0.5666666666666667,0.54,1,8399.707,1
0,258,target,"[(1063, 807)]",[],[1],[0.13333333333333333],horizontal,"(890.0, 262.0)",1.6833333333333333,0.098,0,8404.573,0
0,259,target,"[(1057, 813)]",[],[1],[0.65],vertical,"(890.0, 262.0)",0.85,0.607,1,8409.575,1
0,260,catch,"[(1022, 856)]",[],[1],[],horizontal,"(890.0, 762.0)",1.4166666666666667,nan,1,8414.51,1
0,261,catch,"[(1032, 830)]",[],[1],[],horizontal,"(390.0, 762.0)",1.3833333333333333,nan,1,8421.956,1
0,262,target,"[(1053, 828)]",[],[1],[0.7166666666666667],horizontal,"(890.0, 262.0)",1.0333333333333332,0.678,1,8427.351,2
0,263,target,"[(1067, 820)]",[],[1],[0.55],horizontal,"(890.0, 262.0)",1.5,0.508,1,8433.075,1
0,264,target,"[(1053, 831)]",[],[1],[0.5833333333333334],horizontal,"(890.0, 762.0)",0.7333333333333333,0.543,1,8438.455,1
0,265,target,"[(1053, 814)]",[],[1],[0.65],horizontal,"(390.0, 762.0)",1.3833333333333333,0.609,1,8443.169,1
0,266,target,"[(1053, 833)]",[],[1],[0.5166666666666666],horizontal,"(390.0, 762.0)",1.6833333333333333,0.472,1,8448.873,2
0,267,catch,"[(1017, 866)]",[],[1],[],vertical,"(890.0, 262.0)",,"('cti', 1.563),nan",0,8455.432,0
0,268,target,"[(1053, 852)]",[],[1],[0.2],horizontal,"(390.0, 262.0)",1.2166666666666666,0.17,1,8462.647,1
0,269,target,"[(1049, 838)]",[],[1],[0.85],horizontal,"(390.0, 262.0)",1.2333333333333334,nan,0,8467.724,0
0,270,target,"[(1033, 852)]",[],[1],[0.85],vertical,"(890.0, 262.0)",0.95,nan,0,8473.124,0
0,271,catch,"[(1023, 846)]",[],[1],[],horizontal,"(390.0, 262.0)",1.55,nan,1,8485.519,1
0,272,target,"[(1025, 724), (1006, 121), (457, 668), (1033, 676), (1002, 867), (1025, 868)]",[],"[0, 0, 0, 0, 0, 1]",[0.7833333333333333],vertical,"(890.0, 262.0)",0.7833333333333333,0.746,1,8490.875,1
0,273,target,"[(1034, 849)]",[],[1],[0.4166666666666667],horizontal,"(890.0, 262.0)",1.5333333333333332,0.379,1,11997.977,1
0,274,target,"[(1067, 844)]",[],[1],[0.6166666666666667],horizontal,"(390.0, 262.0)",0.7,0.581,1,12003.759,2
0,275,target,"[(1051, 842)]",[],[1],[0.55],vertical,"(390.0, 762.0)",1.3,0.515,1,12008.898,1
0,276,target,"[(1068, 853)]",[],[1],[0.31666666666666665],horizontal,"(890.0, 762.0)",1.35,0.278,1,12014.345,1
0,277,target,"[(1088, 837)]",[],[1],[0.75],vertical,"(890.0, 262.0)",0.7,0.706,1,12020.173,1
0,278,target,"[(1043, 808)]",[],[1],[0.6],horizontal,"(390.0, 262.0)",1.1166666666666667,0.555,1,12025.911,2
0,279,target,"[(1069, 838)]",[],[1],[0.85],horizontal,"(390.0, 762.0)",1.35,nan,0,12031.737,0
0,280,target,"[(1068, 798)]",[],[1],[0.6],vertical,"(390.0, 762.0)",0.7666666666666666,0.556,1,12037.211,1
0,281,catch,"[(1063, 819)]",[],[1],[],horizontal,"(390.0, 762.0)",1.3833333333333333,nan,1,12041.995,1
0,282,target,"[(1053, 821)]",[],[1],[0.5833333333333334],vertical,"(390.0, 762.0)",1.2666666666666666,0.541,1,12047.544,1
0,283,target,"[(1053, 825)]",[],[1],[0.85],horizontal,"(890.0, 262.0)",1.4,nan,0,12052.928,0
0,284,catch,"[(1070, 819)]",[],[1],[],horizontal,"(390.0, 262.0)",1.4666666666666666,nan,1,12058.724,1
0,285,target,"[(1065, 844)]",[],[1],[0.85],vertical,"(890.0, 762.0)",1.3833333333333333,nan,0,12063.952,0
0,286,target,"[(1033, 834)]",[],[1],[0.7333333333333333],vertical,"(390.0, 762.0)",0.8333333333333334,0.688,1,12069.827,1
0,287,target,"[(1068, 820)]",[],[1],[0.85],vertical,"(390.0, 762.0)",1.0666666666666667,nan,0,12074.946,0
0,288,target,"[(1038, 824)]",[],[1],[0.5],horizontal,"(890.0, 762.0)",1.6166666666666667,0.464,1,12080.11,1
0,289,target,"[(1057, 814)]",[],[1],[0.55],horizontal,"(890.0, 762.0)",1.4833333333333334,0.507,1,12085.976,1
0,290,target,"[(1055, 815)]",[],[1],[0.5666666666666667],horizontal,"(890.0, 262.0)",0.7666666666666666,0.527,1,12091.895,1
0,291,target,"[(1072, 813)]",[],[1],[0.6333333333333333],horizontal,"(890.0, 762.0)",1.05,0.588,1,12096.594,2
0,292,target,"[(1068, 831)]",[],[1],[0.75],horizontal,"(390.0, 762.0)",0.6166666666666667,0.705,1,12101.91,1
0,293,catch,"[(1065, 836)]",[],[1],[],vertical,"(390.0, 262.0)",1.65,nan,1,12106.394,1
0,294,target,"[(1055, 797)]",[],[1],[0.8],vertical,"(890.0, 262.0)",0.7833333333333333,0.761,1,12112.146,1
0,295,target,"[(1061, 804)]",[],[1],[0.6333333333333333],horizontal,"(390.0, 762.0)",0.7,0.591,1,12117.009,2
0,296,target,"[(1054, 821)]",[],[1],[0.45],vertical,"(890.0, 262.0)",1.3,0.41,1,12122.149,1
0,297,target,"[(1070, 836)]",[],[1],[0.48333333333333334],vertical,"(890.0, 262.0)",1.3666666666666667,0.44,1,12127.503,1
0,298,target,"[(1042, 806)]",[],[1],[0.5666666666666667],horizontal,"(390.0, 762.0)",1.2,0.524,1,12133.178,1
0,299,target,"[(1068, 813)]",[],[1],[0.8],horizontal,"(890.0, 762.0)",0.9,0.754,1,12138.682,2
0,300,target,"[(1066, 804)]",[],[1],[0.16666666666666666],vertical,"(390.0, 762.0)",1.4666666666666666,0.136,1,12144.446,1
0,301,target,"[(1067, 831)]",[],[1],[0.85],horizontal,"(390.0, 262.0)",0.5,nan,0,12150.011,0
0,302,target,"[(1055, 817)]",[],[1],[0.6166666666666667],horizontal,"(390.0, 262.0)",0.8333333333333334,0.572,1,12154.326,1
0,303,catch,"[(1065, 803)]",[],[1],[],vertical,"(890.0, 262.0)",1.2833333333333332,nan,1,12159.624,1
0,304,target,"[(1053, 842)]",[],[1],[0.85],vertical,"(390.0, 762.0)",1.3166666666666667,nan,0,12164.428,0
0,305,target,"[(1053, 832)]",[],[1],[0.5833333333333334],vertical,"(890.0, 762.0)",0.7666666666666666,0.541,1,12169.646,1
0,306,target,"[(1061, 821)]",[],[1],[0.5333333333333333],horizontal,"(890.0, 762.0)",1.1166666666666667,0.494,1,12174.745,1
0,307,target,"[(1057, 822)]",[],[1],[0.6166666666666667],horizontal,"(890.0, 762.0)",0.95,0.584,1,12180.168,1
0,308,target,"[(1058, 817)]",[],[1],[0.5666666666666667],horizontal,"(890.0, 262.0)",1.1333333333333333,0.535,1,12185.207,2
0,309,target,"[(1058, 821)]",[],[1],[0.48333333333333334],vertical,"(390.0, 262.0)",1.4666666666666666,0.452,1,12190.61,1
0,310,target,"[(1061, 814)]",[],[1],[0.48333333333333334],horizontal,"(890.0, 762.0)",1.3,0.449,1,12195.811,1
0,311,target,"[(1057, 836)]",[],[1],[0.6166666666666667],vertical,"(390.0, 262.0)",0.8833333333333333,0.573,1,12201.496,1
0,312,target,"[(1046, 807)]",[],[1],[0.5333333333333333],vertical,"(890.0, 762.0)",1.6333333333333333,0.491,1,12206.278,2
0,313,target,"[(1068, 814)]",[],[1],[0.6166666666666667],vertical,"(890.0, 762.0)",1.1833333333333333,0.567,1,12212.278,1
0,314,target,"[(1069, 825)]",[],[1],[0.6],vertical,"(390.0, 762.0)",0.9,0.557,1,12217.399,1
0,315,catch,"[(1054, 805)]",[],[1],[],vertical,"(390.0, 762.0)",1.5833333333333333,nan,1,12222.328,1
0,316,target,"[(1053, 815)]",[],[1],[0.45],vertical,"(890.0, 762.0)",1.0666666666666667,0.411,1,12227.363,2
0,317,target,"[(1066, 803)]",[],[1],[0.7166666666666667],horizontal,"(390.0, 762.0)",0.8166666666666667,0.676,1,12233.181,1
0,318,target,"[(1045, 832)]",[],[1],[0.6],horizontal,"(390.0, 262.0)",1.5,0.565,1,12238.513,1
0,319,target,"[(1072, 826)]",[],[1],[0.36666666666666664],vertical,"(390.0, 262.0)",1.6333333333333333,0.33,1,12244.494,1
0,320,target,"[(1059, 821)]",[],[1],[0.5166666666666666],vertical,"(890.0, 262.0)",1.45,0.476,1,12250.095,2
0,321,target,"[(1072, 807)]",[],[1],[0.6333333333333333],vertical,"(390.0, 262.0)",1.35,0.591,1,12256.646,1
0,322,target,"[(1042, 819)]",[],[1],[0.5833333333333334],horizontal,"(890.0, 262.0)",1.6,0.543,1,12261.946,1
0,323,target,"[(1023, 865)]",[],[1],[0.65],horizontal,"(890.0, 262.0)",1.1666666666666667,0.602,1,12270.628,1
0,324,target,"[(1065, 843)]",[],[1],[0.65],vertical,"(390.0, 762.0)",1.15,0.601,1,13073.657,2
0,325,catch,"[(1065, 830)]",[],[1],[],vertical,"(890.0, 262.0)",,"('cti', 1.464),nan",0,13079.637,0
0,326,target,"[(1051, 809)]",[],[1],[0.6333333333333333],horizontal,"(890.0, 762.0)",0.6833333333333333,0.593,1,13084.468,1
0,327,target,"[(1071, 828)]",[],[1],[0.6333333333333333],vertical,"(890.0, 262.0)",1.5666666666666667,0.583,1,13089.087,1
0,328,catch,"[(1063, 816)]",[],[1],[],horizontal,"(390.0, 262.0)",1.1,nan,1,13094.384,1
0,329,target,"[(1039, 859)]",[],[1],[0.36666666666666664],horizontal,"(390.0, 262.0)",1.6333333333333333,0.331,1,13099.467,2
0,330,target,"[(1065, 806)]",[],[1],[0.7333333333333333],vertical,"(890.0, 262.0)",1.45,0.685,1,13105.682,1
0,331,target,"[(1058, 813)]",[],[1],[0.21666666666666667],horizontal,"(890.0, 262.0)",1.45,0.183,1,13111.487,1
0,332,target,"[(1049, 811)]",[],[1],[0.85],vertical,"(390.0, 262.0)",1.3666666666666667,nan,0,13116.855,0
0,333,target,"[(1044, 843)]",[],[1],[0.85],vertical,"(890.0, 762.0)",1.0,nan,0,13121.609,0
0,334,target,"[(1033, 850)]","[(1040, 848)]",[1],[0.08333333333333333],vertical,"(890.0, 262.0)",,"('bar', 0.099)",0,13126.634,0
0,335,target,"[(1038, 838)]",[],[1],[0.85],vertical,"(390.0, 262.0)",1.55,nan,0,13129.151,0
0,336,target,"[(1043, 834)]",[],[1],[0.85],horizontal,"(390.0, 762.0)",0.9833333333333333,nan,0,13136.575,0
0,337,target,"[(1043, 855)]",[],[1],[0.85],vertical,"(390.0, 762.0)",1.6,nan,0,13141.784,0
0,338,catch,"[(1045, 835)]",[],[1],[],vertical,"(390.0, 262.0)",1.35,nan,1,13148.564,1
0,339,target,"[(1037, 843)]",[],[1],[0.6166666666666667],vertical,"(890.0, 762.0)",1.5166666666666666,0.574,1,13153.617,1
0,340,target,"[(1045, 840)]",[],[1],[0.7833333333333333],horizontal,"(890.0, 262.0)",1.4666666666666666,0.738,1,13159.701,1
0,341,target,"[(1038, 825)]",[],[1],[0.85],horizontal,"(390.0, 262.0)",0.6333333333333333,nan,0,13166.384,0
0,342,target,"[(1035, 809)]",[],[1],[0.75],vertical,"(390.0, 762.0)",0.95,0.712,1,13171.151,1
0,343,target,"[(1035, 824)]",[],[1],[0.85],horizontal,"(890.0, 762.0)",0.5166666666666666,nan,0,13176.791,0
0,344,target,"[(1048, 804)]",[],[1],[0.85],vertical,"(890.0, 762.0)",1.0666666666666667,nan,0,13180.984,0
0,345,target,"[(1033, 825)]",[],[1],[0.8],horizontal,"(890.0, 262.0)",1.45,0.75,1,13185.983,1
0,346,target,"[(1069, 826)]",[],[1],[0.5666666666666667],vertical,"(390.0, 262.0)",1.1666666666666667,0.527,1,13192.3,1
0,347,target,"[(1061, 822)]",[],[1],[0.6],vertical,"(390.0, 262.0)",1.15,0.561,1,13197.384,1
0,348,target,"[(1068, 815)]",[],[1],[0.85],vertical,"(890.0, 262.0)",1.0,nan,0,13202.799,0
0,349,target,"[(1053, 818)]",[],[1],[0.7333333333333333],vertical,"(390.0, 262.0)",0.85,0.693,1,13207.784,1
0,350,target,"[(1044, 813)]",[],[1],[0.85],vertical,"(390.0, 762.0)",1.5333333333333332,nan,0,13212.801,0
0,351,target,"[(1068, 816)]",[],[1],[0.7666666666666666],horizontal,"(890.0, 262.0)",0.75,0.729,1,13218.131,1
0,352,catch,"[(1079, 810)]",[],[1],[],vertical,"(390.0, 762.0)",1.4333333333333333,nan,1,13223.467,1
0,353,target,"[(1050, 821)]",[],[1],[0.7166666666666667],horizontal,"(390.0, 762.0)",1.5166666666666666,0.673,1,13228.784,1
0,354,target,"[(1053, 826)]",[],[1],[0.6833333333333333],horizontal,"(390.0, 762.0)",0.6833333333333333,0.643,1,13234.15,2
0,355,target,"[(1049, 797)]",[],[1],[0.6],horizontal,"(390.0, 262.0)",1.1,0.558,1,13239.633,1
0,356,target,"[(1072, 825)]",[],[1],[0.6],vertical,"(390.0, 262.0)",0.7666666666666666,0.554,1,13244.704,1
0,357,target,"[(1068, 817)]",[],[1],[0.6666666666666666],horizontal,"(390.0, 762.0)",0.5333333333333333,0.629,1,13250.602,1
0,358,catch,"[(1053, 811)]",[],[1],[],horizontal,"(890.0, 262.0)",1.2,nan,1,13255.269,2
0,359,catch,"[(1068, 809)]",[],[1],[],horizontal,"(390.0, 262.0)",1.0666666666666667,nan,1,13260.069,1
0,360,target,"[(1062, 832)]",[],[1],[0.3833333333333333],horizontal,"(890.0, 262.0)",1.55,0.349,1,13264.418,1
0,361,target,"[(1049, 838)]",[],[1],[0.43333333333333335],vertical,"(890.0, 762.0)",1.2833333333333332,0.394,1,13269.751,1
0,362,target,"[(1038, 823)]",[],[1],[0.45],horizontal,"(890.0, 262.0)",1.6166666666666667,0.416,1,13275.584,2
0,363,target,"[(1052, 807)]",[],[1],[0.7333333333333333],vertical,"(390.0, 762.0)",1.25,0.701,1,13281.768,1
0,364,catch,"[(1083, 810)]",[],[1],[],vertical,"(890.0, 262.0)",1.5,nan,1,13286.951,1
0,365,target,"[(1051, 832)]",[],[1],[0.85],vertical,"(390.0, 262.0)",1.6333333333333333,nan,0,13291.729,0
0,366,target,"[(1055, 817)]",[],[1],[0.65],vertical,"(390.0, 762.0)",1.3,0.61,1,13297.123,1
0,367,target,"[(1054, 802)]",[],[1],[0.5333333333333333],horizontal,"(390.0, 762.0)",1.4,0.492,1,13303.001,1
0,368,target,"[(1054, 802)]",[],[1],[0.55],horizontal,"(890.0, 262.0)",0.9833333333333333,0.512,1,13308.651,1
0,369,target,"[(1063, 809)]",[],[1],[0.8166666666666667],vertical,"(390.0, 262.0)",0.5,0.77,1,13313.624,2
0,370,target,"[(1068, 789)]",[],[1],[0.85],horizontal,"(390.0, 762.0)",0.8666666666666667,nan,0,13318.601,0
0,371,target,"[(1066, 821)]",[],[1],[0.06666666666666667],horizontal,"(390.0, 762.0)",1.6166666666666667,0.036,0,13323.249,0
0,372,target,"[(1073, 817)]",[],[1],[0.65],horizontal,"(390.0, 762.0)",1.0833333333333333,0.61,1,13328.38,1
0,373,target,"[(1068, 832)]",[],[1],[0.5],horizontal,"(390.0, 762.0)",0.7333333333333333,0.457,1,13333.547,1
0,374,catch,"[(1068, 827)]",[],[1],[],horizontal,"(390.0, 262.0)",1.45,nan,1,13338.636,1
0,375,target,"[(1049, 829)]",[],[1],[0.35],vertical,"(890.0, 262.0)",1.1,0.313,1,13343.684,2
0,376,target,"[(1059, 804)]",[],[1],[0.55],horizontal,"(390.0, 262.0)",1.0333333333333332,0.513,1,13349.401,1
0,377,target,"[(1047, 829)]",[],[1],[0.85],vertical,"(390.0, 262.0)",0.9666666666666667,nan,0,13354.543,0
0,378,target,"[(1038, 814)]",[],[1],"[0.85, 0.85]",vertical,"(390.0, 262.0)",0.5166666666666666,"0.802,nan",0,13359.169,0
0,379,target,"[(1056, 773)]",[],[1],[0.6333333333333333],horizontal,"(890.0, 762.0)",1.4666666666666666,0.59,1,13363.434,1
0,380,target,"[(1061, 819)]",[],[1],[0.65],horizontal,"(890.0, 762.0)",1.1166666666666667,0.605,1,13368.614,1
0,381,target,"[(1037, 795)]",[],[1],[0.06666666666666667],horizontal,"(390.0, 262.0)",1.5333333333333332,0.035,0,13374.024,0
0,382,target,"[(988, 808), (1041, 839)]",[],"[0, 1]",[0.85],vertical,"(890.0, 262.0)",0.75,nan,0,13378.905,0
0,383,target,"[(1008, 848)]",[],[1],[0.4],horizontal,"(890.0, 262.0)",1.3666666666666667,0.357,1,13388.451,1
0,384,target,"[(1057, 803)]",[],[1],[0.6833333333333333],horizontal,"(390.0, 262.0)",0.9333333333333333,0.637,1,13419.069,1
0,385,target,"[(1057, 817)]",[],[1],[0.36666666666666664],horizontal,"(890.0, 762.0)",1.2666666666666666,0.332,1,13423.911,1
0,386,target,"[(1057, 815)]",[],[1],[0.7166666666666667],vertical,"(390.0, 262.0)",0.5,0.685,1,13429.502,2
0,387,catch,"[(1071, 816)]",[],[1],[],vertical,"(390.0, 762.0)",1.4166666666666667,nan,1,13434.74,1
0,388,target,"[(1058, 808)]",[],[1],[0.85],vertical,"(390.0, 762.0)",0.7166666666666667,nan,0,13439.502,0
0,389,target,"[(1065, 829)]",[],[1],[0.5333333333333333],horizontal,"(890.0, 762.0)",0.9833333333333333,0.494,1,13443.935,1
0,390,target,"[(1057, 803)]",[],[1],[0.5666666666666667],horizontal,"(890.0, 262.0)",0.9833333333333333,0.532,1,13449.194,1
0,391,target,"[(1068, 799)]",[],[1],[0.8333333333333334],vertical,"(390.0, 762.0)",0.5166666666666666,0.792,1,13454.451,1
0,392,target,"[(1071, 807)]",[],[1],[0.55],vertical,"(890.0, 762.0)",0.6333333333333333,0.517,1,13459.684,2
0,393,target,"[(1077, 790)]",[],[1],[0.5666666666666667],horizontal,"(890.0, 262.0)",0.9666666666666667,0.525,1,13464.769,1
0,394,target,"[(1095, 809)]",[],[1],[0.5833333333333334],vertical,"(890.0, 762.0)",0.5,0.544,1,13469.702,1
0,395,target,"[(1049, 806)]",[],[1],[0.85],horizontal,"(390.0, 262.0)",1.1333333333333333,nan,0,13474.501,0
0,396,target,"[(1065, 815)]",[],[1],[0.5666666666666667],horizontal,"(390.0, 262.0)",1.0666666666666667,0.523,1,13479.285,1
0,397,target,"[(1074, 816)]",[],[1],[0.5],horizontal,"(390.0, 762.0)",1.4166666666666667,0.457,1,13484.551,1
0,398,target,"[(1053, 810)]",[],[1],[0.5166666666666666],horizontal,"(890.0, 262.0)",0.8833333333333333,0.474,1,13490.085,1
0,399,target,"[(1057, 813)]",[],[1],[0.8],vertical,"(390.0, 262.0)",1.35,0.755,1,13495.052,2
0,400,target,"[(1069, 798)]",[],[1],[0.5833333333333334],horizontal,"(390.0, 762.0)",0.6166666666666667,0.54,1,13500.853,1
0,401,target,"[(1057, 821)]",[],[1],[0.5833333333333334],vertical,"(390.0, 262.0)",1.3666666666666667,0.54,1,13505.631,1
0,402,target,"[(1072, 826)]",[],[1],[],horizontal,"(390.0, 762.0)",,"('cti', 1.067)",0,13511.002,0
0,403,target,"[(1060, 791)]",[],[1],[0.43333333333333335],vertical,"(890.0, 762.0)",1.35,0.393,1,13515.352,1
0,404,catch,"[(1058, 800)]",[],[1],[],vertical,"(390.0, 762.0)",1.45,nan,1,13520.743,1
0,405,target,"[(1089, 808)]",[],[1],[0.85],vertical,"(390.0, 262.0)",0.7,nan,0,13525.569,0
0,406,target,"[(1045, 802)]",[],[1],[0.6333333333333333],horizontal,"(390.0, 262.0)",1.1166666666666667,0.597,1,13530.354,1
0,407,target,"[(1068, 806)]",[],[1],[0.7333333333333333],horizontal,"(890.0, 762.0)",1.0166666666666666,0.693,1,13535.536,1
0,408,catch,"[(1046, 842)]",[],[1],[],vertical,"(390.0, 762.0)",1.65,nan,1,13540.676,1
0,409,target,"[(1043, 811)]",[],[1],[0.13333333333333333],vertical,"(890.0, 762.0)",1.5333333333333332,0.101,1,13545.854,2
0,410,target,"[(1053, 803)]",[],[1],[0.36666666666666664],vertical,"(390.0, 262.0)",1.6333333333333333,0.326,1,13551.519,1
0,411,target,"[(1066, 821)]",[],[1],[0.5333333333333333],vertical,"(890.0, 262.0)",1.2666666666666666,0.497,1,13556.954,1
0,412,target,"[(1055, 817)]",[],[1],[0.55],vertical,"(890.0, 762.0)",0.75,0.507,1,13562.34,1
0,413,target,"[(1061, 800)]",[],[1],[0.5833333333333334],vertical,"(890.0, 762.0)",0.6666666666666666,0.544,1,13567.037,2
0,414,catch,"[(1068, 788)]",[],[1],[],horizontal,"(390.0, 262.0)",1.2666666666666666,nan,1,13572.103,1
0,415,target,"[(1058, 799)]",[],[1],[0.55],horizontal,"(390.0, 262.0)",1.1833333333333333,0.508,1,13576.631,1
0,416,target,"[(1057, 807)]",[],[1],[0.45],vertical,"(890.0, 262.0)",1.4166666666666667,0.409,1,13581.854,1
0,417,target,"[(1069, 813)]",[],[1],[0.6333333333333333],vertical,"(890.0, 262.0)",0.6666666666666666,0.591,1,13587.645,2
0,418,target,"[(1072, 807)]",[],[1],[0.85],horizontal,"(390.0, 762.0)",0.8833333333333333,nan,0,13593.003,0
0,419,target,"[(1035, 818)]",[],[1],[0.5833333333333334],vertical,"(390.0, 262.0)",1.6666666666666667,0.545,1,13597.557,1
0,420,catch,"[(1053, 814)]",[],[1],[],vertical,"(890.0, 262.0)",1.55,nan,1,13603.076,1
0,421,target,"[(1061, 817)]",[],[1],[0.6333333333333333],vertical,"(390.0, 762.0)",1.3333333333333333,0.593,1,13608.353,1
0,422,catch,"[(1062, 825)]",[],[1],[],vertical,"(890.0, 762.0)",1.0833333333333333,nan,1,13613.835,2
0,423,target,"[(1069, 788)]",[],[1],[0.45],horizontal,"(890.0, 262.0)",1.6,0.412,1,13618.986,1
0,424,target,"[(1061, 794)]",[],[1],[],vertical,"(890.0, 762.0)",,"('cti', 1.537)",0,13624.136,0
0,425,target,"[(1058, 809)]",[],[1],[0.5833333333333334],vertical,"(390.0, 262.0)",0.8166666666666667,0.545,1,13629.106,1
0,426,target,"[(1057, 799)]",[],[1],[0.85],horizontal,"(390.0, 262.0)",1.0833333333333333,nan,0,13634.215,0
0,427,target,"[(1053, 812)]",[],[1],[0.5333333333333333],horizontal,"(890.0, 762.0)",1.4833333333333334,0.492,1,13639.418,1
0,428,catch,"[(1060, 821)]",[],[1],[],vertical,"(890.0, 262.0)",1.65,nan,1,13644.714,1
0,429,target,"[(1057, 809)]",[],[1],[0.85],horizontal,"(390.0, 262.0)",0.8166666666666667,nan,0,13649.72,0
0,430,target,"[(1032, 825)]",[],[1],[0.5666666666666667],vertical,"(390.0, 762.0)",1.3833333333333333,0.526,1,13654.256,1
0,431,target,"[(1055, 809)]",[],[1],[0.85],vertical,"(890.0, 262.0)",1.3333333333333333,nan,0,13659.653,0
0,432,target,"[(1057, 815)]",[],[1],[0.6666666666666666],vertical,"(890.0, 762.0)",0.6666666666666666,0.619,1,13664.703,1
0,433,target,"[(1055, 798)]",[],[1],[0.6666666666666666],vertical,"(890.0, 262.0)",0.6166666666666667,0.624,1,13669.787,1
0,434,target,"[(1043, 817)]",[],[1],[0.5666666666666667],vertical,"(890.0, 762.0)",1.05,0.528,1,13674.704,1
0,435,target,"[(1038, 786)]",[],[1],[0.5666666666666667],vertical,"(890.0, 262.0)",1.3,0.531,1,13679.934,2
0,436,catch,"[(1061, 785)]",[],[1],[],horizontal,"(390.0, 762.0)",1.1333333333333333,nan,1,13685.405,1
0,437,target,"[(1068, 814)]",[],[1],[0.35],vertical,"(890.0, 762.0)",1.3666666666666667,0.319,1,13690.022,1
0,438,target,"[(1055, 798)]",[],[1],[0.7166666666666667],horizontal,"(390.0, 762.0)",1.0333333333333332,0.667,1,13694.856,1
0,439,catch,"[(1056, 809)]",[],[1],[],horizontal,"(890.0, 762.0)",1.25,nan,1,13699.855,2
0,440,target,"[(1051, 817)]",[],[1],[0.6],vertical,"(390.0, 262.0)",1.2,0.562,1,13705.105,1
0,441,catch,"[(1062, 819)]",[],[1],[],horizontal,"(890.0, 762.0)",1.0,nan,1,13710.171,1
0,442,target,"[(1061, 805)]",[],[1],[0.5666666666666667],horizontal,"(890.0, 762.0)",0.85,0.526,1,13714.854,1
0,443,target,"[(1057, 790)]",[],[1],[0.3333333333333333],horizontal,"(390.0, 762.0)",1.4,0.292,1,13720.255,2
0,444,target,"[(1061, 799)]",[],[1],[0.5666666666666667],horizontal,"(890.0, 762.0)",0.9833333333333333,0.529,1,13725.856,1
0,445,target,"[(1065, 831)]",[],[1],[0.36666666666666664],horizontal,"(390.0, 262.0)",1.6,0.326,1,13730.671,1
0,446,target,"[(1061, 800)]",[],[1],[0.06666666666666667],horizontal,"(390.0, 262.0)",1.6333333333333333,0.035,0,13736.122,0
0,447,catch,"[(1057, 786)]",[],[1],[],horizontal,"(390.0, 762.0)",1.3166666666666667,nan,1,13740.83,1
0,448,target,"[(1057, 816)]",[],[1],[0.6166666666666667],horizontal,"(390.0, 262.0)",1.3333333333333333,0.576,1,13745.638,1
0,449,target,"[(1057, 811)]",[],[1],[0.6833333333333333],horizontal,"(390.0, 762.0)",0.9,0.64,1,13750.936,1
0,450,catch,"[(1040, 816)]",[],[1],[],horizontal,"(890.0, 762.0)",1.55,nan,1,13756.188,2
0,451,target,"[(1025, 820)]",[],[1],[0.5],horizontal,"(890.0, 762.0)",1.5333333333333332,0.46,1,13761.738,1
0,452,target,"[(977, 854), (388, 550), (463, 666), (990, 861), (421, 709), (1040, 863)]",[],"[0, 0, 0, 0, 0, 1]",[0.85],vertical,"(890.0, 262.0)",1.6833333333333333,nan,0,13769.638,0
0,453,target,"[(1022, 833)]",[],[1],[0.85],horizontal,"(890.0, 262.0)",0.6666666666666666,nan,0,14369.475,0
0,454,catch,"[(360, 671), (1017, 856)]",[],"[0, 1]",[],vertical,"(890.0, 762.0)",1.1666666666666667,nan,1,14374.468,1
0,455,target,"[(1036, 840)]",[],[1],[0.85],horizontal,"(390.0, 762.0)",0.7166666666666667,nan,0,14382.28,0
0,456,target,"[(1050, 897)]",[],[1],[0.85],vertical,"(890.0, 762.0)",0.6333333333333333,nan,0,14387.291,0
0,457,target,"[(1037, 859)]",[],[1],[0.4666666666666667],vertical,"(390.0, 762.0)",1.3333333333333333,0.439,1,14392.674,1
0,458,target,"[(1079, 833)]",[],[1],[0.85],vertical,"(890.0, 762.0)",0.9666666666666667,nan,0,14399.205,0
0,459,target,"[(1049, 819)]",[],[1],[0.85],vertical,"(890.0, 762.0)",0.6833333333333333,nan,0,14404.189,0
0,460,target,"[(1055, 824)]",[],[1],[0.5666666666666667],horizontal,"(890.0, 762.0)",0.7166666666666667,0.539,1,14408.831,1
0,461,target,"[(1038, 829)]",[],[1],[0.6833333333333333],horizontal,"(390.0, 762.0)",1.1166666666666667,0.655,1,14413.806,1
0,462,target,"[(1053, 810)]",[],[1],[0.55],horizontal,"(390.0, 262.0)",1.1333333333333333,0.509,1,14419.357,1
0,463,target,"[(1053, 816)]",[],[1],[0.85],vertical,"(390.0, 762.0)",0.65,nan,0,14424.674,0
0,464,target,"[(1068, 839)]",[],[1],[0.55],horizontal,"(390.0, 762.0)",1.5666666666666667,0.504,1,14428.954,1
0,465,target,"[(1046, 823)]",[],[1],[0.5833333333333334],horizontal,"(890.0, 762.0)",1.2,0.543,1,14435.113,1
0,466,target,"[(1057, 798)]",[],[1],[0.5666666666666667],horizontal,"(890.0, 762.0)",1.1666666666666667,0.524,1,14440.273,1
0,467,target,"[(1057, 835)]",[],[1],[0.3],vertical,"(890.0, 762.0)",1.5,0.268,1,14445.674,2
0,468,target,"[(1069, 822)]",[],[1],[0.45],vertical,"(390.0, 762.0)",1.3666666666666667,0.404,1,14451.358,1
0,469,target,"[(1061, 805)]",[],[1],[0.5833333333333334],horizontal,"(390.0, 262.0)",0.6666666666666666,0.539,1,14456.758,1
0,470,target,"[(1077, 809)]",[],[1],[0.75],horizontal,"(890.0, 762.0)",0.55,0.703,1,14462.024,1
0,471,target,"[(1069, 820)]",[],[1],[0.7333333333333333],vertical,"(890.0, 262.0)",0.7166666666666667,0.691,1,14467.009,2
0,472,target,"[(1077, 808)]",[],[1],[0.6666666666666666],horizontal,"(890.0, 262.0)",1.35,0.624,1,14472.227,1
0,473,target,"[(1037, 820)]",[],[1],[0.15],horizontal,"(390.0, 762.0)",1.3666666666666667,0.117,1,14477.786,1
0,474,catch,"[(1068, 824)]",[],[1],[],vertical,"(890.0, 262.0)",1.1,nan,1,14483.249,1
0,475,target,"[(1063, 807)]",[],[1],[0.6333333333333333],vertical,"(390.0, 262.0)",0.7,0.591,1,14488.075,2
0,476,target,"[(1065, 817)]",[],[1],[0.6833333333333333],horizontal,"(390.0, 762.0)",1.1,0.641,1,14493.208,1
0,477,target,"[(1046, 808)]",[],[1],[0.6],horizontal,"(390.0, 762.0)",1.2833333333333332,0.554,1,14498.396,1
0,478,target,"[(1061, 795)]",[],[1],[0.6],vertical,"(390.0, 762.0)",0.6333333333333333,0.561,1,14503.708,1
0,479,target,"[(1057, 808)]",[],[1],[0.4666666666666667],horizontal,"(390.0, 762.0)",1.2166666666666666,0.424,1,14508.633,2
0,480,target,"[(1072, 800)]",[],[1],[0.65],vertical,"(890.0, 262.0)",0.75,0.599,1,14514.158,1
0,481,target,"[(1050, 805)]",[],[1],[0.6666666666666666],horizontal,"(390.0, 262.0)",0.7,0.623,1,14519.141,1
0,482,target,"[(1036, 797)]",[],[1],[0.4],vertical,"(390.0, 262.0)",1.5333333333333332,0.362,1,14524.052,1
0,483,target,"[(1035, 810)]",[],[1],[0.65],vertical,"(390.0, 762.0)",0.95,0.614,1,14529.692,2
0,484,target,"[(1034, 795)]",[],[1],[0.6333333333333333],vertical,"(890.0, 762.0)",0.6833333333333333,0.587,1,14535.377,1
0,485,target,"[(1065, 798)]",[],[1],[0.5833333333333334],horizontal,"(890.0, 762.0)",0.7166666666666667,0.54,1,14540.362,1
0,486,target,"[(1062, 815)]",[],[1],[0.36666666666666664],horizontal,"(390.0, 762.0)",0.7833333333333333,0.327,1,14545.548,1
0,487,target,"[(1070, 808)]",[],[1],[0.55],horizontal,"(890.0, 762.0)",0.9,0.517,1,14550.526,2
0,488,target,"[(1057, 824)]",[],[1],[0.5833333333333334],vertical,"(890.0, 762.0)",1.0666666666666667,0.546,1,14555.642,1
0,489,target,"[(1060, 804)]",[],[1],[0.6166666666666667],vertical,"(890.0, 262.0)",0.5333333333333333,0.575,1,14560.895,1
0,490,target,"[(1046, 817)]",[],[1],[0.16666666666666666],vertical,"(890.0, 762.0)",1.3833333333333333,0.135,1,14565.592,1
0,491,target,"[(1059, 810)]",[],[1],[0.85],horizontal,"(390.0, 762.0)",0.55,nan,0,14570.559,0
0,492,target,"[(1058, 830)]",[],[1],[0.6],horizontal,"(890.0, 262.0)",1.5166666666666666,0.56,1,14575.08,1
0,493,target,"[(1037, 816)]",[],[1],[0.65],vertical,"(890.0, 762.0)",0.7833333333333333,0.605,1,14580.759,1
0,494,target,"[(1058, 800)]",[],[1],[0.5333333333333333],vertical,"(890.0, 262.0)",1.1333333333333333,0.498,1,14585.742,1
0,495,target,"[(1033, 797)]",[],[1],[0.5833333333333334],vertical,"(390.0, 262.0)",0.8833333333333333,0.542,1,14590.842,2
0,496,target,"[(1054, 804)]",[],[1],[0.8333333333333334],vertical,"(390.0, 762.0)",0.7333333333333333,0.782,1,14596.443,1
0,497,target,"[(1057, 815)]",[],[1],[0.4666666666666667],horizontal,"(390.0, 762.0)",1.0833333333333333,0.426,1,14601.453,1
0,498,target,"[(1059, 817)]",[],[1],[0.55],horizontal,"(390.0, 762.0)",0.9666666666666667,0.514,1,14606.842,1
0,499,target,"[(1030, 807)]",[],[1],[0.5833333333333334],vertical,"(890.0, 262.0)",0.7,0.539,1,14611.704,2
0,500,target,"[(1061, 790)]",[],[1],[],horizontal,"(890.0, 762.0)",,"('cti', 1.583)",0,14616.795,0
0,501,catch,"[(1037, 793)]",[],[1],[],horizontal,"(890.0, 262.0)",1.1166666666666667,nan,1,14621.674,1
0,502,catch,"[(1058, 808)]",[],[1],[0.03333333333333333],vertical,"(890.0, 262.0)",1.6,"0.02,nan",0,14626.331,0
0,503,catch,"[(1065, 806)]",[],[1],[],vertical,"(390.0, 762.0)",1.65,nan,1,14631.15,1
0,504,target,"[(1059, 823)]",[],[1],[0.6],horizontal,"(890.0, 262.0)",0.9333333333333333,0.564,1,14635.993,1
0,505,target,"[(1061, 819)]",[],[1],[0.05],vertical,"(890.0, 762.0)",1.6666666666666667,0.02,0,14641.39,0
0,506,target,"[(1033, 811)]",[],[1],[0.6333333333333333],horizontal,"(390.0, 262.0)",0.85,0.586,1,14646.359,1
0,507,target,"[(1058, 810)]",[],[1],[0.5833333333333334],vertical,"(390.0, 262.0)",0.6833333333333333,0.541,1,14651.376,1
0,508,target,"[(1041, 823)]",[],[1],[0.8166666666666667],horizontal,"(390.0, 262.0)",1.0,0.777,1,14656.26,1
0,509,catch,"[(1037, 819)]",[],[1],[],horizontal,"(390.0, 262.0)",1.4,nan,1,14661.459,2
0,510,target,"[(1057, 803)]",[],[1],[0.75],horizontal,"(390.0, 262.0)",0.8666666666666667,0.7,1,14666.692,1
0,511,target,"[(1061, 808)]",[],[1],[0.6833333333333333],vertical,"(390.0, 762.0)",0.8333333333333334,0.66,1,14671.912,1
0,512,target,"[(1062, 821)]",[],[1],[0.5833333333333334],horizontal,"(890.0, 762.0)",1.0166666666666666,0.541,1,14676.836,1
0,513,target,"[(1033, 810)]",[],[1],[],vertical,"(390.0, 262.0)",,"('cti', 1.491)",0,14682.927,0
0,514,target,"[(1033, 811)]",[],[1],[0.85],horizontal,"(890.0, 762.0)",0.6166666666666667,nan,0,14687.826,0
0,515,target,"[(1033, 803)]",[],[1],[0.6],vertical,"(890.0, 262.0)",0.7333333333333333,0.563,1,14692.198,1
0,516,target,"[(1061, 805)]",[],[1],[0.7166666666666667],vertical,"(390.0, 762.0)",1.0166666666666666,0.676,1,14697.046,1
0,517,target,"[(1063, 814)]",[],[1],[0.55],vertical,"(390.0, 762.0)",1.3333333333333333,0.508,1,14702.094,1
0,518,target,"[(1072, 814)]",[],[1],[0.3],horizontal,"(390.0, 262.0)",1.5166666666666666,0.268,1,14707.27,2
0,519,target,"[(1071, 813)]",[],[1],[0.6166666666666667],horizontal,"(890.0, 762.0)",0.5833333333333334,0.571,1,14712.826,1
0,520,target,"[(1057, 813)]",[],[1],[0.4666666666666667],horizontal,"(390.0, 762.0)",1.5,0.424,1,14717.326,1
0,521,catch,"[(1036, 804)]",[],[1],[],horizontal,"(390.0, 762.0)",,"('cti', 1.083),nan",0,14722.808,0
0,522,target,"[(1061, 810)]",[],[1],[0.5666666666666667],horizontal,"(890.0, 762.0)",1.0166666666666666,0.529,1,14726.896,1
0,523,target,"[(1061, 813)]",[],[1],[0.23333333333333334],vertical,"(390.0, 762.0)",1.55,0.198,1,14732.263,1
0,524,target,"[(1038, 821)]",[],[1],[0.7],horizontal,"(390.0, 262.0)",0.95,0.656,1,14737.827,1
0,525,target,"[(1059, 824)]",[],[1],[0.7],vertical,"(890.0, 262.0)",0.7833333333333333,0.651,1,14742.727,2
0,526,target,"[(1058, 820)]",[],[1],[0.5666666666666667],horizontal,"(890.0, 262.0)",0.9833333333333333,0.527,1,14748.343,1
0,527,target,"[(1030, 812)]",[],[1],[0.7],horizontal,"(890.0, 262.0)",0.8,0.659,1,14753.416,1
0,528,target,"[(1062, 816)]",[],[1],[0.6666666666666666],vertical,"(390.0, 762.0)",0.5166666666666666,0.623,1,14758.712,1
0,529,target,"[(1057, 817)]",[],[1],[0.8166666666666667],horizontal,"(390.0, 262.0)",1.0333333333333332,0.776,1,14763.269,2
0,530,target,"[(1033, 795)]",[],[1],[0.4],horizontal,"(890.0, 762.0)",1.2,0.36,1,14768.902,1
0,531,target,"[(1064, 810)]",[],[1],[0.31666666666666665],vertical,"(390.0, 262.0)",1.5,0.283,1,14773.96,1
0,532,target,"[(1033, 825)]",[],[1],[0.06666666666666667],vertical,"(890.0, 262.0)",1.6333333333333333,0.034,0,14779.36,0
0,533,target,"[(1049, 780)]",[],[1],[0.23333333333333334],horizontal,"(890.0, 262.0)",1.5666666666666667,0.2,1,14784.502,1
0,534,target,"[(1061, 816)]",[],[1],[0.5],vertical,"(890.0, 262.0)",0.7833333333333333,0.467,1,14789.693,1
0,535,target,"[(1037, 801)]",[],[1],[0.5833333333333334],vertical,"(890.0, 762.0)",1.0833333333333333,0.542,1,14794.593,1
0,536,target,"[(1036, 798)]",[],[1],[0.1],horizontal,"(390.0, 262.0)",1.3666666666666667,0.069,0,14799.748,0
0,537,target,"[(1061, 824)]",[],[1],[0.5166666666666666],horizontal,"(890.0, 262.0)",1.3166666666666667,0.475,1,14804.16,1
0,538,catch,"[(1058, 816)]",[],[1],[],horizontal,"(890.0, 262.0)",1.5666666666666667,nan,1,14809.275,1
0,539,catch,"[(1036, 805)]",[],[1],[],horizontal,"(390.0, 762.0)",1.3666666666666667,nan,1,14814.414,1
0,540,target,"[(1038, 828)]",[],[1],[0.85],horizontal,"(890.0, 762.0)",1.65,"('cti', 1.65),nan",0,14819.419,0
0,541,catch,"[(1049, 828)]",[],[1],[],vertical,"(890.0, 262.0)",1.5333333333333332,nan,1,14825.019,1
0,542,target,"[(1069, 821)]",[],[1],[0.6],vertical,"(890.0, 762.0)",1.0666666666666667,0.556,1,14830.45,1
0,543,target,"[(1036, 812)]",[],[1],[0.05],vertical,"(890.0, 762.0)",1.55,0.019,0,14835.518,0
0,544,target,"[(1038, 835)]",[],[1],[0.55],horizontal,"(890.0, 262.0)",1.2333333333333334,0.513,1,14839.83,1
0,545,target,"[(1055, 823)]",[],[1],[0.5833333333333334],vertical,"(390.0, 762.0)",1.2833333333333332,0.543,1,14845.407,1
0,546,target,"[(1064, 797)]",[],[1],[0.13333333333333333],horizontal,"(890.0, 762.0)",1.5666666666666667,0.102,1,14850.966,1
0,547,target,"[(1061, 791)]",[],[1],[0.5166666666666666],vertical,"(890.0, 262.0)",1.1666666666666667,0.48,1,14856.44,2
0,548,target,"[(1062, 794)]",[],[1],[0.6],vertical,"(390.0, 262.0)",1.2333333333333334,0.559,1,14862.168,1
0,549,catch,"[(1063, 810)]",[],[1],[],vertical,"(390.0, 762.0)",1.3833333333333333,nan,1,14867.776,1
0,550,target,"[(1043, 803)]",[],[1],[0.43333333333333335],horizontal,"(890.0, 762.0)",1.3833333333333333,0.396,1,14872.645,1
0,551,target,"[(1034, 802)]",[],[1],[0.4],vertical,"(390.0, 262.0)",1.1333333333333333,0.369,1,14878.042,2
0,552,target,"[(1037, 800)]",[],[1],[0.5666666666666667],horizontal,"(390.0, 262.0)",1.4666666666666666,0.521,1,14883.865,1
0,553,catch,"[(1033, 815)]",[],[1],[],horizontal,"(390.0, 262.0)",1.5666666666666667,nan,1,14889.08,1
0,554,target,"[(1063, 816)]",[],[1],[0.48333333333333334],vertical,"(390.0, 762.0)",1.0666666666666667,0.443,1,14894.469,1
0,555,target,"[(1069, 819)]",[],[1],[0.6],horizontal,"(390.0, 262.0)",0.8166666666666667,0.558,1,14899.567,2
0,556,target,"[(1071, 834)]",[],[1],[0.65],horizontal,"(890.0, 762.0)",0.7166666666666667,0.605,1,14905.327,1
0,557,target,"[(1065, 824)]",[],[1],[0.5],horizontal,"(890.0, 762.0)",1.2333333333333334,0.46,1,14910.377,1
0,558,target,"[(1063, 814)]",[],[1],[0.6833333333333333],horizontal,"(890.0, 762.0)",0.5666666666666667,0.638,1,14915.261,1
0,559,target,"[(1072, 819)]",[],[1],[0.5833333333333334],vertical,"(390.0, 762.0)",1.3833333333333333,0.54,1,14920.303,2
0,560,target,"[(1065, 804)]",[],[1],[0.65],horizontal,"(390.0, 762.0)",0.8666666666666667,0.604,1,14926.214,1
0,561,catch,"[(1063, 821)]",[],[1],[],vertical,"(890.0, 762.0)",1.25,nan,1,14931.627,1
0,562,target,"[(1028, 844)]",[],[1],[0.45],horizontal,"(390.0, 262.0)",1.4166666666666667,0.413,1,14936.316,1
0,563,catch,"[(1037, 815)]",[],[1],[],vertical,"(890.0, 262.0)",1.65,nan,1,14946.27,2
0,564,target,"[(1062, 819)]",[],[1],[0.7833333333333333],horizontal,"(890.0, 262.0)",0.75,0.738,1,14951.494,1
0,565,target,"[(1029, 838)]",[],[1],[0.3333333333333333],vertical,"(390.0, 262.0)",1.5,0.302,1,14956.811,1
0,566,target,"[(1036, 819)]",[],[1],[0.6333333333333333],horizontal,"(390.0, 262.0)",1.05,0.593,1,14962.405,1
0,567,target,"[(1057, 819)]",[],[1],[0.45],vertical,"(890.0, 262.0)",1.6166666666666667,0.411,1,14967.878,2
0,568,catch,"[(1042, 809)]",[],[1],[],vertical,"(390.0, 262.0)",1.3833333333333333,nan,1,14974.093,1
0,569,target,"[(1058, 813)]",[],[1],[0.6],horizontal,"(890.0, 762.0)",0.7166666666666667,0.56,1,14979.211,1
0,570,target,"[(1057, 818)]",[],[1],[0.85],vertical,"(390.0, 262.0)",0.6,nan,0,14984.265,0
0,571,target,"[(1039, 804)]",[],[1],[0.16666666666666666],horizontal,"(890.0, 762.0)",1.6833333333333333,0.134,1,14989.196,1
0,572,target,"[(1040, 826)]",[],[1],[],vertical,"(890.0, 762.0)",,"('cti', 1.604)",0,14994.529,0
0,573,catch,"[(1057, 807)]",[],[1],[],vertical,"(390.0, 262.0)",1.65,nan,1,14999.244,1
0,574,target,"[(1058, 821)]",[],[1],[0.5833333333333334],vertical,"(890.0, 262.0)",0.9166666666666666,0.543,1,15004.144,1
0,575,target,"[(1053, 813)]",[],[1],[0.6333333333333333],vertical,"(390.0, 762.0)",1.1666666666666667,0.592,1,15008.916,1
0,576,target,"[(1055, 832)]",[],[1],[0.6166666666666667],horizontal,"(890.0, 762.0)",0.6833333333333333,0.57,1,15014.478,2
0,577,catch,"[(1058, 801)]",[],[1],[],vertical,"(890.0, 262.0)",1.6333333333333333,nan,1,15020.061,1
0,578,target,"[(1037, 828)]",[],[1],[0.6333333333333333],horizontal,"(390.0, 262.0)",1.0333333333333332,0.589,1,15024.729,1
0,579,target,"[(1037, 829)]",[],[1],[0.6333333333333333],horizontal,"(390.0, 262.0)",0.9,0.589,1,15029.96,1
0,580,catch,"[(1046, 831)]",[],[1],[],horizontal,"(890.0, 762.0)",1.5666666666666667,nan,1,15035.081,2
0,581,target,"[(1045, 819)]",[],[1],[0.65],horizontal,"(890.0, 262.0)",1.35,0.611,1,15041.128,1
0,582,catch,"[(1036, 803)]",[],[1],[],horizontal,"(890.0, 262.0)",1.1,nan,1,15046.694,1
0,583,target,"[(1056, 825)]",[],[1],[0.7333333333333333],vertical,"(390.0, 262.0)",1.0666666666666667,0.692,1,15051.214,1
0,584,target,"[(1057, 820)]",[],[1],[0.23333333333333334],horizontal,"(890.0, 762.0)",1.6666666666666667,0.201,1,15056.616,2
0,585,target,"[(1063, 814)]",[],[1],[0.8166666666666667],vertical,"(890.0, 262.0)",0.55,0.779,1,15062.844,1
0,586,target,"[(1056, 815)]",[],[1],[0.45],horizontal,"(890.0, 262.0)",1.4833333333333334,0.406,1,15067.68,1
0,587,target,"[(1026, 813)]",[],[1],[0.6],horizontal,"(390.0, 262.0)",1.0,0.566,1,15073.579,1
0,588,target,"[(1056, 810)]",[],[1],[0.4666666666666667],horizontal,"(390.0, 262.0)",1.0666666666666667,0.43,1,15079.063,2
0,589,target,"[(1057, 805)]",[],[1],[0.4166666666666667],vertical,"(890.0, 762.0)",1.0666666666666667,0.376,1,15084.762,1
0,590,target,"[(1071, 814)]",[],[1],[0.7333333333333333],vertical,"(390.0, 262.0)",0.8,0.686,1,15089.829,1
0,591,catch,"[(1058, 819)]",[],[1],[],horizontal,"(390.0, 762.0)",1.3666666666666667,nan,1,15095.054,1
0,592,target,"[(1061, 811)]",[],[1],[0.75],horizontal,"(890.0, 762.0)",0.9666666666666667,0.708,1,15099.86,2
0,593,target,"[(1061, 831)]",[],[1],[0.6333333333333333],horizontal,"(890.0, 262.0)",0.5666666666666667,0.592,1,15105.954,1
0,594,target,"[(1038, 807)]",[],[1],[0.5333333333333333],horizontal,"(390.0, 762.0)",1.2333333333333334,0.497,1,15110.611,1
0,595,target,"[(1060, 809)]",[],[1],[0.2],horizontal,"(390.0, 762.0)",1.4333333333333333,0.165,1,15116.113,1
0,596,target,"[(1044, 814)]",[],[1],[0.55],horizontal,"(890.0, 762.0)",1.1333333333333333,0.508,1,15121.557,2
0,597,target,"[(1069, 819)]",[],[1],[0.5833333333333334],horizontal,"(890.0, 262.0)",1.0166666666666666,0.541,1,15127.353,1
0,598,target,"[(1033, 813)]",[],[1],[0.6833333333333333],vertical,"(390.0, 762.0)",0.8,0.638,1,15132.452,1
0,599,target,"[(1036, 820)]",[],[1],[0.5833333333333334],horizontal,"(890.0, 262.0)",0.65,0.548,1,15137.846,1
0,600,target,"[(1037, 817)]",[],[1],[0.85],vertical,"(390.0, 762.0)",0.5666666666666667,nan,0,15142.73,0
0,601,target,"[(1061, 814)]",[],[1],[0.3],horizontal,"(890.0, 762.0)",1.55,0.272,1,15147.146,1
0,602,target,"[(1051, 807)]",[],[1],[0.65],vertical,"(390.0, 762.0)",0.6666666666666666,0.605,1,15152.67,1
0,603,catch,"[(1060, 796)]",[],[1],[],horizontal,"(390.0, 762.0)",1.05,nan,1,15157.615,1
0,604,catch,"[(1036, 803)]",[],[1],[0.03333333333333333],vertical,"(890.0, 762.0)",1.6,"0.019,nan",0,15162.412,0
0,605,catch,"[(1061, 797)]",[],[1],[],vertical,"(890.0, 762.0)",1.6666666666666667,nan,1,15166.896,1
0,606,target,"[(1061, 811)]",[],[1],[0.4666666666666667],horizontal,"(890.0, 262.0)",1.65,0.425,1,15172.148,1
0,607,target,"[(1061, 819)]",[],[1],[0.3],horizontal,"(890.0, 762.0)",1.5333333333333332,0.266,1,15177.48,1
0,608,target,"[(1053, 833)]",[],[1],[0.4166666666666667],horizontal,"(390.0, 262.0)",1.4,0.375,1,15182.827,2
0,609,target,"[(1030, 833)]",[],[1],[0.7],vertical,"(390.0, 762.0)",0.7166666666666667,0.657,1,15188.448,1
0,610,target,"[(1061, 833)]",[],[1],[0.75],vertical,"(390.0, 762.0)",0.7833333333333333,0.705,1,15193.67,1
0,611,catch,"[(1053, 811)]",[],[1],[],vertical,"(390.0, 262.0)",,"('cti', 1.479),nan",0,15198.518,0
0,612,target,"[(1061, 812)]",[],[1],[0.23333333333333334],horizontal,"(390.0, 762.0)",1.6666666666666667,0.198,1,15203.305,1
0,613,target,"[(1057, 824)]",[],[1],[0.5833333333333334],vertical,"(890.0, 262.0)",1.0,0.543,1,15208.225,1
0,614,target,"[(1039, 804)]",[],[1],[0.6666666666666666],vertical,"(390.0, 262.0)",0.5833333333333334,0.621,1,15212.994,1
0,615,catch,"[(1047, 818)]",[],[1],[],vertical,"(890.0, 262.0)",1.35,nan,1,15217.73,2
0,616,target,"[(1053, 809)]",[],[1],[0.5166666666666666],horizontal,"(890.0, 262.0)",1.3666666666666667,0.477,1,15222.987,1
0,617,target,"[(1057, 799)]",[],[1],[0.31666666666666665],horizontal,"(890.0, 762.0)",1.3333333333333333,0.277,1,15228.296,1
0,618,catch,"[(1065, 811)]",[],[1],[],vertical,"(890.0, 762.0)",1.0833333333333333,nan,1,15233.239,1
0,619,target,"[(1044, 825)]",[],[1],[0.4666666666666667],horizontal,"(890.0, 262.0)",1.3,0.427,1,15238.205,2
0,620,target,"[(1052, 819)]",[],[1],[0.43333333333333335],vertical,"(890.0, 762.0)",1.15,0.398,1,15243.975,1
0,621,target,"[(1025, 802)]",[],[1],[0.3],vertical,"(890.0, 262.0)",1.35,0.269,1,15248.913,1
0,622,target,"[(1049, 815)]",[],[1],[0.35],horizontal,"(390.0, 262.0)",1.5,0.313,1,15254.297,1
0,623,target,"[(1058, 832)]",[],[1],[],vertical,"(890.0, 762.0)",,"('cti', 1.046)",0,15259.614,0
0,624,target,"[(1063, 795)]",[],[1],[0.5833333333333334],horizontal,"(390.0, 262.0)",0.5166666666666666,0.542,1,15264.079,1
0,625,catch,"[(1036, 792)]",[],[1],[],vertical,"(390.0, 762.0)",1.0166666666666666,nan,1,15268.68,1
0,626,target,"[(1058, 830)]",[],[1],[0.4166666666666667],vertical,"(390.0, 762.0)",1.3166666666666667,0.384,1,15273.496,1
0,627,target,"[(1037, 819)]",[],[1],[0.16666666666666666],vertical,"(390.0, 262.0)",1.6,0.133,1,15278.796,2
0,628,target,"[(1053, 804)]",[],[1],[0.06666666666666667],vertical,"(890.0, 262.0)",1.3666666666666667,0.037,0,15284.728,0
0,629,target,"[(1065, 811)]",[],[1],[0.85],vertical,"(890.0, 762.0)",1.0,nan,0,15289.695,0
0,630,target,"[(1053, 808)]",[],[1],[0.6],vertical,"(890.0, 762.0)",0.7833333333333333,0.562,1,15294.581,1
0,631,target,"[(1016, 881)]",[],[1],[0.5666666666666667],horizontal,"(890.0, 262.0)",0.9,0.524,1,15299.682,1
0,632,target,"[(1045, 847)]",[],[1],[0.43333333333333335],vertical,"(890.0, 762.0)",1.4833333333333334,0.392,1,15902.748,1
0,633,target,"[(1066, 812)]",[],[1],[0.3],vertical,"(390.0, 262.0)",1.2166666666666666,0.265,1,15907.986,2
0,634,target,"[(1041, 797)]",[],[1],[0.4166666666666667],horizontal,"(890.0, 762.0)",0.8333333333333334,0.38,1,15913.65,1
0,635,target,"[(1053, 820)]",[],[1],[0.23333333333333334],vertical,"(390.0, 262.0)",1.4833333333333334,0.197,1,15918.605,1
0,636,target,"[(1065, 819)]",[],[1],[0.85],horizontal,"(390.0, 762.0)",0.8666666666666667,nan,0,15923.784,0
0,637,target,"[(1049, 810)]",[],[1],[0.85],vertical,"(390.0, 762.0)",0.6,nan,0,15928.869,0
0,638,target,"[(1033, 790)]",[],[1],[0.31666666666666665],horizontal,"(390.0, 762.0)",1.5333333333333332,0.285,1,15933.069,1
0,639,target,"[(1041, 815)]",[],[1],[0.4166666666666667],horizontal,"(890.0, 262.0)",1.3,0.376,1,15938.862,1
0,640,target,"[(1034, 821)]",[],[1],[0.35],vertical,"(390.0, 762.0)",1.5666666666666667,0.32,1,15945.068,1
0,641,target,"[(1059, 810)]",[],[1],[0.85],horizontal,"(890.0, 262.0)",1.0833333333333333,nan,0,15950.482,0
0,642,target,"[(1055, 806)]",[],[1],[0.5666666666666667],horizontal,"(390.0, 762.0)",0.8333333333333334,0.529,1,15955.767,1
0,643,target,"[(1049, 833)]",[],[1],[0.6],horizontal,"(890.0, 762.0)",1.15,0.555,1,15960.788,1
0,644,target,"[(1029, 832)]",[],[1],[0.85],horizontal,"(390.0, 762.0)",0.95,nan,0,15966.202,0
0,645,target,"[(1057, 799)]",[],[1],[],vertical,"(890.0, 262.0)",,"('fix', 0.166)",0,15971.237,0
0,646,target,"[(1010, 823)]",[],[1],[0.21666666666666667],vertical,"(890.0, 762.0)",1.4333333333333333,0.186,1,15972.85,1
0,647,target,"[(1061, 810)]",[],[1],[0.5666666666666667],vertical,"(390.0, 762.0)",0.9666666666666667,0.523,1,15977.684,1
0,648,target,"[(1041, 820)]",[],[1],[0.55],vertical,"(890.0, 262.0)",1.1,0.515,1,15983.2,1
0,649,target,"[(1075, 810)]",[],[1],[0.4166666666666667],horizontal,"(890.0, 762.0)",1.3166666666666667,0.377,1,15988.49,2
0,650,target,"[(1061, 809)]",[],[1],[0.85],vertical,"(390.0, 762.0)",0.9166666666666666,nan,0,15994.42,0
0,651,target,"[(1045, 810)]",[],[1],[0.4166666666666667],horizontal,"(390.0, 762.0)",1.4833333333333334,0.381,1,15998.861,1
0,652,target,"[(1061, 814)]",[],[1],[0.55],horizontal,"(390.0, 262.0)",1.05,0.501,1,16004.65,1
0,653,target,"[(1071, 814)]",[],[1],[0.6666666666666666],horizontal,"(390.0, 262.0)",0.7666666666666666,0.62,1,16009.608,1
0,654,target,"[(1039, 808)]",[],[1],[0.6],vertical,"(890.0, 262.0)",0.7,0.56,1,16015.018,2
0,655,target,"[(1033, 790)]",[],[1],[0.21666666666666667],vertical,"(390.0, 262.0)",1.5166666666666666,0.182,1,16020.133,1
0,656,target,"[(1061, 828)]",[],[1],[0.6],horizontal,"(390.0, 262.0)",0.75,0.555,1,16025.625,1
0,657,target,"[(1037, 810)]",[],[1],[0.7],vertical,"(390.0, 762.0)",0.5666666666666667,0.655,1,16030.866,1
0,658,target,"[(1060, 819)]",[],[1],[],horizontal,"(390.0, 762.0)",,"('cti', 1.602)",0,16035.438,0
0,659,target,"[(1038, 796)]",[],[1],[0.6166666666666667],horizontal,"(890.0, 762.0)",0.7833333333333333,0.581,1,16040.291,1
0,660,target,"[(1065, 812)]",[],[1],[0.65],horizontal,"(890.0, 762.0)",0.6666666666666666,0.607,1,16044.918,1
0,661,target,"[(1057, 824)]",[],[1],[0.5333333333333333],horizontal,"(390.0, 762.0)",0.9833333333333333,0.496,1,16049.816,1
0,662,catch,"[(1038, 801)]",[],[1],[],horizontal,"(390.0, 762.0)",1.3333333333333333,nan,1,16055.286,2
0,663,target,"[(1057, 803)]",[],[1],[0.6166666666666667],horizontal,"(890.0, 762.0)",1.4,0.572,1,16061.033,1
0,664,target,"[(1068, 813)]",[],[1],[0.5666666666666667],horizontal,"(390.0, 262.0)",0.85,0.525,1,16066.402,1
0,665,target,"[(1066, 791)]",[],[1],[0.05],horizontal,"(890.0, 262.0)",1.2666666666666666,0.02,0,16071.574,0
0,666,target,"[(1054, 803)]",[],[1],[0.6333333333333333],horizontal,"(390.0, 762.0)",0.5166666666666666,0.595,1,16076.404,1
0,667,target,"[(1037, 814)]",[],[1],[0.5666666666666667],vertical,"(890.0, 262.0)",1.2333333333333334,0.526,1,16080.773,1
0,668,target,"[(1026, 845)]",[],[1],[0.85],vertical,"(390.0, 762.0)",0.8333333333333334,nan,0,16085.993,0
0,669,target,"[(1053, 810)]",[],[1],[0.6166666666666667],horizontal,"(390.0, 762.0)",0.9,0.569,1,16091.2,1
0,670,target,"[(1036, 787)]",[],[1],[],horizontal,"(890.0, 762.0)",,"('cti', 1.623)",0,16096.8,0
0,671,target,"[(1049, 784)]",[],[1],[0.55],vertical,"(890.0, 262.0)",1.0666666666666667,0.513,1,16101.654,1
0,672,target,"[(1053, 817)]",[],[1],[0.45],vertical,"(390.0, 262.0)",1.4,0.41,1,16106.817,1
0,673,target,"[(1061, 829)]",[],[1],[0.5333333333333333],vertical,"(390.0, 762.0)",1.0666666666666667,0.496,1,16111.961,1
0,674,target,"[(1037, 812)]",[],[1],[0.26666666666666666],horizontal,"(390.0, 762.0)",1.2333333333333334,0.23,1,16117.089,2
0,675,target,"[(1061, 801)]",[],[1],[0.55],horizontal,"(390.0, 262.0)",0.5166666666666666,0.514,1,16123.024,1
0,676,target,"[(1103, 820)]",[],[1],[0.5833333333333334],horizontal,"(390.0, 262.0)",0.85,0.536,1,16127.502,1
0,677,target,"[(1037, 810)]",[],[1],[0.15],vertical,"(890.0, 762.0)",1.6666666666666667,0.118,1,16132.61,1
0,678,target,"[(1033, 807)]",[],[1],[0.65],horizontal,"(390.0, 262.0)",1.2,0.608,1,16137.907,2
0,679,catch,"[(1077, 798)]",[],[1],[],vertical,"(890.0, 262.0)",1.1,nan,1,16143.299,1
0,680,target,"[(1044, 799)]",[],[1],[0.5],horizontal,"(390.0, 262.0)",1.35,0.466,1,16147.919,1
0,681,target,"[(1035, 787)]",[],[1],[0.1],vertical,"(890.0, 262.0)",1.6,0.068,0,16153.05,0
0,682,target,"[(1055, 811)]",[],[1],[0.15],vertical,"(890.0, 762.0)",1.6,0.115,1,16157.603,1
0,683,catch,"[(1057, 802)]",[],[1],[],vertical,"(890.0, 762.0)",1.1333333333333333,nan,1,16162.617,1
0,684,target,"[(1035, 799)]",[],[1],[0.06666666666666667],vertical,"(890.0, 762.0)",1.65,0.036,0,16167.446,0
0,685,target,"[(1065, 790)]",[],[1],[0.6],vertical,"(390.0, 262.0)",0.8833333333333333,0.565,1,16171.901,1
0,686,catch,"[(1029, 799)]",[],[1],[],horizontal,"(390.0, 762.0)",1.65,nan,1,16177.066,1
0,687,target,"[(1057, 813)]",[],[1],[0.5],horizontal,"(390.0, 762.0)",1.2,0.462,1,16182.134,1
0,688,target,"[(1061, 814)]",[],[1],[0.26666666666666666],vertical,"(390.0, 262.0)",1.2333333333333334,0.232,1,16187.5,2
0,689,target,"[(1057, 813)]",[],[1],[0.6666666666666666],vertical,"(890.0, 262.0)",0.75,0.624,1,16193.433,1
0,690,target,"[(1033, 799)]",[],[1],[0.6],vertical,"(890.0, 762.0)",1.0833333333333333,0.566,1,16198.096,1
0,691,target,"[(1069, 800)]",[],[1],[0.5833333333333334],horizontal,"(390.0, 262.0)",1.1166666666666667,0.538,1,16203.107,1
0,692,target,"[(1062, 805)]",[],[1],[],vertical,"(390.0, 762.0)",,"('cti', 1.579)",0,16208.471,0
0,693,target,"[(1071, 822)]",[],[1],[0.5833333333333334],vertical,"(390.0, 262.0)",0.9333333333333333,0.545,1,16213.16,1
0,694,target,"[(1059, 803)]",[],[1],[0.5833333333333334],vertical,"(390.0, 262.0)",0.6,0.544,1,16218.54,1
0,695,target,"[(1066, 833)]",[],[1],[0.85],horizontal,"(390.0, 762.0)",1.1,nan,0,16223.377,0
0,696,target,"[(1066, 801)]",[],[1],[0.6666666666666666],horizontal,"(890.0, 262.0)",0.9,0.633,1,16227.935,1
0,697,target,"[(1046, 817)]",[],[1],[0.55],vertical,"(890.0, 262.0)",1.3,0.511,1,16233.218,1
0,698,target,"[(1057, 808)]",[],[1],[0.5333333333333333],vertical,"(890.0, 762.0)",1.1166666666666667,0.486,1,16238.519,1
0,699,target,"[(1061, 821)]",[],[1],[0.75],vertical,"(890.0, 262.0)",0.85,0.711,1,16243.535,2
0,700,target,"[(1073, 787)]",[],[1],[0.6666666666666666],vertical,"(390.0, 762.0)",1.05,0.626,1,16249.071,1
0,701,target,"[(1057, 804)]",[],[1],[0.26666666666666666],vertical,"(390.0, 762.0)",1.4333333333333333,0.232,1,16254.334,1
0,702,target,"[(1029, 799)]",[],[1],[0.6],vertical,"(890.0, 762.0)",0.8,0.565,1,16259.803,1
0,703,target,"[(1053, 801)]",[],[1],[0.4666666666666667],horizontal,"(390.0, 262.0)",1.1833333333333333,0.432,1,16264.468,2
0,704,target,"[(1057, 822)]",[],[1],[0.7333333333333333],horizontal,"(890.0, 762.0)",0.9,0.686,1,16270.202,1
0,705,target,"[(1061, 827)]",[],[1],[0.6833333333333333],vertical,"(390.0, 262.0)",0.8,0.642,1,16275.679,1
0,706,target,"[(1061, 808)]",[],[1],[0.3333333333333333],horizontal,"(890.0, 262.0)",1.5,0.3,1,16280.768,1
0,707,target,"[(1053, 800)]",[],[1],[0.6166666666666667],horizontal,"(390.0, 262.0)",0.6166666666666667,0.573,1,16285.985,2
0,708,target,"[(1068, 776)]",[],[1],[0.5333333333333333],horizontal,"(390.0, 262.0)",1.05,0.494,1,16291.269,1
0,709,target,"[(1061, 820)]",[],[1],[0.6333333333333333],vertical,"(890.0, 762.0)",0.9166666666666666,0.597,1,16296.052,1
0,710,target,"[(1033, 796)]",[],[1],[0.85],horizontal,"(890.0, 262.0)",1.4833333333333334,"('cti', 1.481),nan",0,16301.535,0
0,711,target,"[(1058, 806)]",[],[1],[0.7166666666666667],horizontal,"(390.0, 762.0)",0.85,0.674,1,16306.969,1
0,712,target,"[(1053, 811)]",[],[1],[0.7333333333333333],vertical,"(890.0, 262.0)",0.8666666666666667,0.689,1,16312.07,1
0,713,catch,"[(1053, 812)]",[],[1],[],horizontal,"(890.0, 262.0)",1.0333333333333332,nan,1,16317.319,1
0,714,target,"[(1056, 821)]",[],[1],[0.5666666666666667],vertical,"(890.0, 262.0)",0.9,0.531,1,16322.185,2
0,715,target,"[(1057, 787)]",[],[1],[0.23333333333333334],horizontal,"(890.0, 262.0)",1.5833333333333333,0.195,1,16327.169,1
0,716,target,"[(1071, 816)]",[],[1],[0.85],horizontal,"(390.0, 262.0)",0.8166666666666667,nan,0,16332.57,0
0,717,target,"[(1051, 824)]",[],[1],[0.18333333333333332],vertical,"(890.0, 762.0)",1.5,0.149,1,16337.078,1
0,718,target,"[(1053, 819)]",[],[1],[0.7333333333333333],horizontal,"(390.0, 262.0)",0.9,0.686,1,16342.227,1
0,719,catch,"[(1054, 812)]",[],[1],[],vertical,"(890.0, 262.0)",1.2,nan,1,16347.601,1
0,720,target,"[(1031, 815)]",[],[1],[0.4666666666666667],horizontal,"(890.0, 762.0)",1.1833333333333333,0.435,1,16352.809,2
0,721,target,"[(1053, 795)]",[],[1],[0.7333333333333333],horizontal,"(890.0, 262.0)",1.1666666666666667,0.705,1,16358.157,1
0,722,target,"[(1012, 883)]",[],[1],[0.5166666666666666],horizontal,"(390.0, 262.0)",1.4333333333333333,0.475,1,16363.337,1
0,723,target,"[(1052, 852)]",[],[1],[0.85],vertical,"(390.0, 762.0)",1.6333333333333333,nan,0,19123.019,0
0,724,catch,"[(1051, 815)]",[],[1],[],horizontal,"(890.0, 262.0)",1.0166666666666666,nan,1,19128.835,1
0,725,target,"[(1052, 828)]",[],[1],[0.85],horizontal,"(390.0, 762.0)",1.5,nan,0,19133.573,0
0,726,catch,"[(1041, 808)]",[],[1],[],horizontal,"(390.0, 762.0)",1.05,nan,1,19138.968,1
0,727,target,"[(1093, 819)]",[],[1],[0.85],vertical,"(390.0, 762.0)",1.6833333333333333,nan,0,19143.515,0
0,728,target,"[(1052, 797)]",[],[1],[0.48333333333333334],horizontal,"(890.0, 762.0)",1.15,0.447,1,19148.765,1
0,729,target,"[(1053, 808)]",[],[1],[0.5666666666666667],vertical,"(890.0, 262.0)",1.05,0.52,1,19154.045,1
0,730,target,"[(1061, 819)]",[],[1],[0.5666666666666667],horizontal,"(390.0, 762.0)",0.7833333333333333,0.527,1,19159.42,1
0,731,target,"[(1068, 813)]",[],[1],[0.5166666666666666],horizontal,"(890.0, 262.0)",0.55,0.478,1,19164.285,2
0,732,target,"[(1061, 829)]",[],[1],[0.5833333333333334],vertical,"(890.0, 762.0)",1.1666666666666667,0.536,1,19168.856,1
0,733,target,"[(1033, 812)]",[],[1],[0.55],horizontal,"(390.0, 762.0)",0.7666666666666666,0.508,1,19174.26,1
0,734,target,"[(1037, 804)]",[],[1],[0.65],vertical,"(390.0, 762.0)",0.85,0.607,1,19179.153,1
0,735,target,"[(1037, 800)]",[],[1],[0.6333333333333333],horizontal,"(390.0, 762.0)",0.8833333333333333,0.59,1,19183.867,2
0,736,catch,"[(1041, 818)]",[],[1],[],vertical,"(390.0, 262.0)",1.5,nan,1,19188.922,1
0,737,target,"[(1072, 832)]",[],[1],[0.5666666666666667],horizontal,"(390.0, 762.0)",1.15,0.524,1,19193.886,1
0,738,target,"[(1065, 812)]",[],[1],[0.6166666666666667],vertical,"(390.0, 762.0)",0.95,0.571,1,19199.099,1
0,739,target,"[(1038, 833)]",[],[1],[0.6333333333333333],vertical,"(390.0, 762.0)",1.05,0.597,1,19203.832,2
0,740,target,"[(1033, 812)]",[],[1],[0.6333333333333333],vertical,"(390.0, 262.0)",0.8833333333333333,0.593,1,19209.11,1
0,741,target,"[(1037, 801)]",[],[1],[0.6333333333333333],vertical,"(890.0, 762.0)",0.55,0.601,1,19214.019,1
0,742,target,"[(1072, 793)]",[],[1],[0.4166666666666667],horizontal,"(890.0, 262.0)",1.2666666666666666,0.381,1,19218.84,1
0,743,target,"[(1033, 824)]",[],[1],[0.55],horizontal,"(890.0, 262.0)",0.8833333333333333,0.506,1,19224.137,2
0,744,target,"[(1058, 802)]",[],[1],[0.5],horizontal,"(890.0, 262.0)",1.3666666666666667,0.462,1,19229.275,1
0,745,catch,"[(1063, 810)]",[],[1],[],horizontal,"(390.0, 262.0)",1.6166666666666667,nan,1,19234.371,1
0,746,target,"[(1037, 806)]",[],[1],[0.5],horizontal,"(890.0, 262.0)",0.9166666666666666,0.458,1,19239.43,1
0,747,target,"[(1072, 830)]",[],[1],[0.6666666666666666],vertical,"(890.0, 262.0)",0.85,0.62,1,19244.575,2
0,748,target,"[(1071, 802)]",[],[1],[0.23333333333333334],horizontal,"(390.0, 762.0)",1.6166666666666667,0.203,1,19249.951,1
0,749,target,"[(1072, 804)]",[],[1],[0.6833333333333333],horizontal,"(890.0, 762.0)",0.6,0.642,1,19254.819,1
0,750,target,"[(1057, 802)]",[],[1],[0.6666666666666666],horizontal,"(390.0, 762.0)",0.7666666666666666,0.639,1,19259.686,1
0,751,target,"[(1061, 804)]",[],[1],[0.5666666666666667],horizontal,"(390.0, 762.0)",0.6,0.53,1,19264.935,2
0,752,target,"[(1057, 817)]",[],[1],[],horizontal,"(390.0, 262.0)",,"('cti', 1.589)",0,19270.047,0
0,753,target,"[(1052, 790)]",[],[1],[0.55],vertical,"(390.0, 762.0)",1.25,0.512,1,19274.869,1
0,754,target,"[(1032, 814)]",[],[1],[0.55],vertical,"(390.0, 262.0)",0.8333333333333334,0.515,1,19279.93,1
0,755,target,"[(1038, 820)]",[],[1],[0.31666666666666665],vertical,"(390.0, 262.0)",0.95,0.281,1,19285.003,1
0,756,target,"[(1062, 823)]",[],[1],[0.5],vertical,"(390.0, 262.0)",1.15,0.461,1,19290.154,2
0,757,catch,"[(1049, 800)]",[],[1],[],horizontal,"(390.0, 762.0)",1.0,nan,1,19295.436,1
0,758,target,"[(1036, 817)]",[],[1],[0.5166666666666666],vertical,"(890.0, 262.0)",0.7666666666666666,0.476,1,19299.798,1
0,759,target,"[(1042, 813)]",[],[1],[],horizontal,"(390.0, 762.0)",,"('cti', 1.376)",0,19304.811,0
0,760,catch,"[(1053, 821)]",[],[1],[],horizontal,"(890.0, 262.0)",1.0833333333333333,nan,1,19309.054,1
0,761,target,"[(1051, 803)]",[],[1],[],horizontal,"(390.0, 762.0)",,"('cti', 1.332)",0,19313.836,0
0,762,target,"[(1057, 799)]",[],[1],[0.6333333333333333],vertical,"(890.0, 762.0)",0.5333333333333333,0.59,1,19318.494,1
0,763,target,"[(1039, 805)]",[],[1],[0.5666666666666667],horizontal,"(890.0, 762.0)",0.6333333333333333,0.525,1,19322.968,1
0,764,target,"[(1022, 810)]",[],[1],[0.6166666666666667],horizontal,"(390.0, 262.0)",0.7,0.575,1,19327.833,1
0,765,target,"[(1042, 800)]",[],[1],[0.75],horizontal,"(390.0, 762.0)",0.6,0.702,1,19332.536,2
0,766,target,"[(1068, 823)]",[],[1],[0.65],horizontal,"(390.0, 762.0)",1.0333333333333332,0.607,1,19337.369,1
0,767,target,"[(1056, 816)]",[],[1],[],horizontal,"(390.0, 262.0)",,"('cti', 1.411)",0,19342.471,0
0,768,target,"[(1057, 795)]",[],[1],[0.6666666666666666],vertical,"(890.0, 262.0)",0.6,0.63,1,19347.188,1
0,769,target,"[(1032, 816)]",[],[1],[0.13333333333333333],vertical,"(390.0, 262.0)",1.5666666666666667,0.1,1,19351.725,1
0,770,target,"[(1057, 817)]",[],[1],[],horizontal,"(890.0, 762.0)",,"('cti', 1.572)",0,19356.946,0
0,771,target,"[(1058, 829)]",[],[1],[],horizontal,"(390.0, 762.0)",,"('cti', 1.622)",0,19361.821,0
0,772,target,"[(1033, 810)]",[],[1],[0.6],horizontal,"(390.0, 262.0)",0.9833333333333333,0.556,1,19366.493,1
0,773,catch,"[(1057, 818)]",[],[1],[],vertical,"(390.0, 262.0)",1.6,nan,1,19371.793,1
0,774,catch,"[(1068, 808)]",[],[1],[],vertical,"(390.0, 762.0)",1.45,nan,1,19376.948,1
0,775,target,"[(1058, 812)]",[],[1],[0.43333333333333335],horizontal,"(890.0, 762.0)",1.1,0.396,1,19381.686,2
0,776,target,"[(1062, 795)]",[],[1],[0.5833333333333334],vertical,"(890.0, 762.0)",0.6833333333333333,0.547,1,19387.17,1
0,777,target,"[(1059, 799)]",[],[1],[0.3333333333333333],horizontal,"(890.0, 762.0)",1.3666666666666667,0.293,1,19391.854,1
0,778,target,"[(1058, 797)]",[],[1],[0.5],vertical,"(890.0, 262.0)",1.0666666666666667,0.457,1,19396.738,1
0,779,target,"[(1061, 815)]",[],[1],[],horizontal,"(390.0, 762.0)",,"('cti', 1.183)",0,19401.879,0
0,780,target,"[(1053, 802)]",[],[1],[0.5833333333333334],vertical,"(390.0, 762.0)",0.8666666666666667,0.545,1,19406.325,1
0,781,target,"[(1059, 799)]",[],[1],[0.5666666666666667],vertical,"(890.0, 762.0)",0.7833333333333333,0.527,1,19411.287,1
0,782,target,"[(1031, 819)]",[],[1],[0.6],horizontal,"(890.0, 262.0)",0.8833333333333333,0.557,1,19416.169,1
0,783,target,"[(1033, 822)]",[],[1],[0.21666666666666667],horizontal,"(390.0, 262.0)",1.0,0.185,1,19421.37,2
0,784,catch,"[(1059, 801)]",[],[1],[],horizontal,"(890.0, 262.0)",1.2666666666666666,nan,1,19427.021,1
0,785,catch,"[(1010, 855)]",[],[1],[],horizontal,"(390.0, 262.0)",1.65,nan,1,19432.237,1
0,786,target,"[(1061, 837)]",[],[1],[],vertical,"(390.0, 762.0)",,"('cti', 1.576)",0,19454.605,0
0,787,target,"[(1049, 824)]",[],[1],[0.8333333333333334],vertical,"(390.0, 262.0)",0.5666666666666667,0.786,1,19459.353,1
0,788,target,"[(1059, 820)]",[],[1],[0.5833333333333334],horizontal,"(890.0, 762.0)",1.0666666666666667,0.539,1,19464.13,1
0,789,target,"[(1041, 821)]",[],[1],[],vertical,"(390.0, 762.0)",,"('cti', 1.575)",0,19469.482,0
0,790,target,"[(1053, 823)]",[],[1],[0.6333333333333333],vertical,"(890.0, 262.0)",1.2166666666666666,0.6,1,19474.39,1
0,791,catch,"[(1061, 796)]",[],[1],[],vertical,"(890.0, 262.0)",,"('cti', 1.483),nan",0,19479.888,0
0,792,target,"[(1047, 831)]",[],[1],[0.7833333333333333],vertical,"(890.0, 262.0)",1.0666666666666667,0.734,1,19484.524,1
0,793,target,"[(1060, 822)]",[],[1],[0.7],horizontal,"(890.0, 262.0)",1.3333333333333333,0.657,1,19489.672,1
0,794,target,"[(1066, 785)]",[],[1],[0.08333333333333333],horizontal,"(390.0, 262.0)",1.4833333333333334,0.053,0,19495.387,0
0,795,target,"[(1041, 798)]",[],[1],[0.3],vertical,"(390.0, 262.0)",1.3333333333333333,0.27,1,19500.242,1
0,796,target,"[(1072, 817)]",[],[1],[0.06666666666666667],horizontal,"(890.0, 262.0)",1.6,0.037,0,19505.337,0
0,797,catch,"[(1037, 811)]",[],[1],[],vertical,"(890.0, 262.0)",,"('cti', 1.58),nan",0,19510.072,0
0,798,target,"[(1061, 808)]",[],[1],[0.3833333333333333],horizontal,"(890.0, 262.0)",1.5,0.343,1,19514.904,1
0,799,target,"[(1038, 820)]",[],[1],[0.3],horizontal,"(890.0, 262.0)",1.2833333333333332,0.27,1,19519.984,1
0,800,target,"[(1055, 821)]",[],[1],[0.5],vertical,"(890.0, 262.0)",1.0,0.46,1,19525.334,1
0,801,target,"[(1034, 827)]",[],[1],[0.5333333333333333],horizontal,"(890.0, 762.0)",0.5166666666666666,0.494,1,19529.896,2
0,802,target,"[(1045, 819)]",[],[1],[0.6666666666666666],vertical,"(390.0, 262.0)",0.9833333333333333,0.624,1,19535.288,1
0,803,target,"[(1061, 827)]",[],[1],[0.4166666666666667],horizontal,"(390.0, 262.0)",1.1166666666666667,0.377,1,19540.589,1
0,804,target,"[(1054, 812)]",[],[1],[0.85],horizontal,"(390.0, 762.0)",0.6666666666666666,nan,0,19545.554,0
0,805,target,"[(1017, 827)]",[],[1],[0.11666666666666667],vertical,"(890.0, 762.0)",1.5666666666666667,0.086,0,19549.852,0
0,806,target,"[(1033, 812)]",[],[1],[0.7166666666666667],horizontal,"(390.0, 762.0)",0.6833333333333333,0.673,1,19556.771,1
0,807,target,"[(1033, 836)]",[],[1],[0.85],vertical,"(390.0, 762.0)",1.0,nan,0,19561.463,0
0,808,target,"[(370, 478), (1022, 847)]",[],"[0, 1]",[0.45],vertical,"(890.0, 262.0)",1.2166666666666666,0.406,1,19566.637,1
0,809,target,"[(1036, 832)]",[],[1],[0.5333333333333333],horizontal,"(390.0, 262.0)",0.9333333333333333,0.491,1,19575.058,1
0,810,target,"[(1035, 819)]",[],[1],[0.85],horizontal,"(890.0, 262.0)",1.5833333333333333,"('cti', 1.57),nan",0,19580.121,0
0,811,target,"[(1057, 815)]",[],[1],[0.23333333333333334],vertical,"(390.0, 262.0)",1.6,0.2,1,19585.659,1
0,812,target,"[(1057, 819)]",[],[1],[0.5833333333333334],vertical,"(390.0, 262.0)",1.1,0.544,1,19590.922,1
0,813,catch,"[(1056, 829)]",[],[1],[],horizontal,"(890.0, 762.0)",1.1333333333333333,nan,1,19595.776,1
0,814,target,"[(1061, 841)]",[],[1],[0.48333333333333334],vertical,"(890.0, 262.0)",1.3833333333333333,0.446,1,19600.482,2
0,815,target,"[(1057, 834)]",[],[1],[0.43333333333333335],vertical,"(890.0, 262.0)",1.35,0.4,1,19606.656,1
0,816,target,"[(1065, 838)]",[],[1],[0.7],vertical,"(390.0, 762.0)",0.7,0.661,1,19611.671,1
0,817,target,"[(1030, 832)]",[],[1],[0.5166666666666666],horizontal,"(890.0, 262.0)",1.4666666666666666,0.475,1,19616.578,1
0,818,target,"[(1061, 821)]",[],[1],[0.6666666666666666],horizontal,"(890.0, 262.0)",1.05,0.618,1,19622.458,2
0,819,target,"[(1054, 830)]",[],[1],[0.6333333333333333],vertical,"(390.0, 762.0)",1.65,0.588,1,19628.01,1
0,820,target,"[(1072, 810)]",[],[1],[0.6],horizontal,"(390.0, 262.0)",0.7166666666666667,0.561,1,19634.621,1
0,821,target,"[(1053, 808)]",[],[1],[0.6166666666666667],horizontal,"(890.0, 262.0)",0.8333333333333334,0.572,1,19639.322,1
0,822,target,"[(1071, 825)]",[],[1],[0.6666666666666666],vertical,"(390.0, 262.0)",0.6666666666666666,0.626,1,19644.089,2
0,823,target,"[(1054, 799)]",[],[1],[0.5833333333333334],vertical,"(390.0, 262.0)",0.9,0.542,1,19649.128,1
0,824,target,"[(1056, 811)]",[],[1],[0.4666666666666667],vertical,"(890.0, 262.0)",1.35,0.423,1,19654.267,1
0,825,target,"[(1061, 817)]",[],[1],[0.5833333333333334],vertical,"(390.0, 262.0)",1.0833333333333333,0.541,1,19659.36,1
0,826,target,"[(1061, 831)]",[],[1],[0.48333333333333334],horizontal,"(890.0, 262.0)",1.2333333333333334,0.447,1,19664.956,2
0,827,target,"[(1057, 816)]",[],[1],[0.85],horizontal,"(390.0, 262.0)",0.7666666666666666,nan,0,19670.94,0
0,828,target,"[(1025, 822)]",[],[1],[0.6666666666666666],horizontal,"(890.0, 262.0)",1.6666666666666667,0.621,1,19675.273,1
0,829,target,"[(1033, 824)]",[],[1],[0.6166666666666667],horizontal,"(890.0, 262.0)",0.5166666666666666,0.575,1,19681.306,1
0,830,catch,"[(1038, 813)]",[],[1],[],vertical,"(890.0, 262.0)",1.65,nan,1,19686.46,1
0,831,target,"[(1064, 826)]",[],[1],[0.45],vertical,"(890.0, 262.0)",1.2666666666666666,0.412,1,19691.372,2
0,832,target,"[(1058, 804)]",[],[1],[0.6166666666666667],horizontal,"(390.0, 762.0)",0.7333333333333333,0.574,1,19696.673,1
0,833,target,"[(1046, 826)]",[],[1],[0.3333333333333333],vertical,"(890.0, 262.0)",1.3833333333333333,0.298,1,19701.774,1
0,834,target,"[(1033, 837)]",[],[1],[0.48333333333333334],horizontal,"(390.0, 762.0)",1.3666666666666667,0.44,1,19707.055,1
0,835,target,"[(1038, 827)]",[],[1],[0.35],vertical,"(390.0, 262.0)",1.6,0.313,1,19712.456,2
0,836,target,"[(1056, 795)]",[],[1],[0.26666666666666666],horizontal,"(890.0, 262.0)",1.2166666666666666,0.229,1,19718.159,1
0,837,target,"[(1041, 818)]",[],[1],[0.5166666666666666],vertical,"(390.0, 262.0)",0.7166666666666667,0.473,1,19723.202,1
0,838,target,"[(1036, 820)]",[],[1],[0.11666666666666667],horizontal,"(390.0, 762.0)",1.45,0.085,0,19727.987,0
0,839,target,"[(1065, 819)]",[],[1],[0.1],vertical,"(890.0, 762.0)",1.6833333333333333,0.066,0,19732.868,0
0,840,target,"[(1068, 803)]",[],[1],[0.1],horizontal,"(890.0, 762.0)",1.5,0.068,0,19737.361,0
0,841,target,"[(1036, 810)]",[],[1],[0.65],horizontal,"(890.0, 262.0)",1.2166666666666666,0.604,1,19742.158,1
0,842,catch,"[(1069, 822)]",[],[1],[],vertical,"(390.0, 762.0)",1.1166666666666667,nan,1,19747.812,1
0,843,target,"[(1057, 816)]",[],[1],[0.7333333333333333],vertical,"(890.0, 262.0)",1.0166666666666666,0.684,1,19752.468,1
0,844,target,"[(1057, 812)]",[],[1],[0.5166666666666666],vertical,"(390.0, 262.0)",1.1,0.475,1,19757.255,2
0,845,target,"[(1076, 781)]",[],[1],[0.5833333333333334],horizontal,"(890.0, 762.0)",0.7,0.541,1,19762.973,1
0,846,target,"[(1029, 827)]",[],[1],[0.6166666666666667],horizontal,"(390.0, 762.0)",0.7833333333333333,0.58,1,19767.689,1
0,847,catch,"[(1061, 799)]",[],[1],[],vertical,"(890.0, 762.0)",1.1666666666666667,nan,1,19772.846,1
0,848,target,"[(1041, 822)]",[],[1],[0.45],horizontal,"(890.0, 762.0)",1.1833333333333333,0.407,1,19777.655,2
0,849,target,"[(1058, 799)]",[],[1],[0.6166666666666667],horizontal,"(390.0, 262.0)",0.8,0.572,1,19783.505,1
0,850,target,"[(1063, 833)]",[],[1],[0.4666666666666667],horizontal,"(890.0, 762.0)",1.1,0.426,1,19788.514,1
0,851,target,"[(1055, 800)]",[],[1],[0.65],horizontal,"(890.0, 262.0)",0.6166666666666667,0.605,1,19793.943,1
0,852,target,"[(1061, 816)]",[],[1],[0.5166666666666666],horizontal,"(890.0, 762.0)",0.7666666666666666,0.472,1,19798.885,2
0,853,target,"[(1058, 801)]",[],[1],[0.4166666666666667],horizontal,"(390.0, 262.0)",1.1666666666666667,0.374,1,19804.287,1
0,854,target,"[(1039, 828)]",[],[1],[0.48333333333333334],vertical,"(390.0, 762.0)",1.1833333333333333,0.44,1,19809.355,1
0,855,catch,"[(1061, 828)]",[],[1],[0.03333333333333333],horizontal,"(890.0, 762.0)",1.4333333333333333,"0.018,nan",0,19814.557,0
0,856,target,"[(1038, 806)]",[],[1],[0.5333333333333333],horizontal,"(890.0, 262.0)",1.3333333333333333,0.486,1,19819.345,1
0,857,target,"[(1022, 833)]",[],[1],[0.05],vertical,"(890.0, 762.0)",1.5166666666666666,0.017,0,19824.558,0
0,858,target,"[(1055, 816)]",[],[1],[0.5333333333333333],horizontal,"(890.0, 262.0)",1.1,0.492,1,19829.056,1
0,859,target,"[(1071, 820)]",[],[1],[0.16666666666666666],horizontal,"(390.0, 762.0)",1.3666666666666667,0.135,1,19834.223,1
0,860,target,"[(1051, 825)]",[],[1],[0.6833333333333333],vertical,"(390.0, 262.0)",0.6,0.636,1,19839.426,1
0,861,target,"[(1061, 819)]",[],[1],[0.4666666666666667],horizontal,"(390.0, 762.0)",1.1,0.427,1,19843.839,2
0,862,target,"[(1028, 790)]",[],[1],[0.8333333333333334],horizontal,"(390.0, 262.0)",1.4833333333333334,0.782,1,19849.489,1
0,863,target,"[(1066, 829)]",[],[1],[0.65],vertical,"(890.0, 762.0)",1.05,0.61,1,19854.807,1
0,864,target,"[(1031, 836)]",[],[1],[0.21666666666666667],horizontal,"(390.0, 762.0)",1.4,0.186,1,19859.756,1
0,865,target,"[(1072, 826)]",[],[1],[0.6666666666666666],vertical,"(390.0, 262.0)",0.6666666666666666,0.624,1,19865.507,2
0,866,target,"[(1052, 838)]",[],[1],[0.55],vertical,"(890.0, 262.0)",1.2833333333333332,0.507,1,19870.707,1
0,867,target,"[(1057, 809)]",[],[1],[0.7333333333333333],horizontal,"(890.0, 262.0)",0.5166666666666666,0.692,1,19876.189,1
0,868,target,"[(1033, 830)]",[],[1],[0.85],horizontal,"(890.0, 762.0)",0.9166666666666666,nan,0,19880.703,0
0,869,target,"[(999, 821), (1028, 842)]",[],"[0, 1]",[0.7],horizontal,"(390.0, 262.0)",0.6666666666666666,0.654,1,19886.824,1
0,870,target,"[(1053, 827)]",[],[1],[0.85],horizontal,"(890.0, 262.0)",1.1666666666666667,nan,0,19893.751,0
0,871,target,"[(1038, 829)]",[],[1],[0.85],horizontal,"(890.0, 762.0)",1.0166666666666666,nan,0,19898.641,0
0,872,target,"[(1018, 827)]",[],[1],[0.55],horizontal,"(390.0, 762.0)",0.95,0.51,1,19903.706,1
0,873,target,"[(1058, 836)]",[],[1],[0.85],vertical,"(390.0, 762.0)",0.65,nan,0,19910.557,0
0,874,target,"[(1061, 816)]",[],[1],[0.85],horizontal,"(890.0, 762.0)",0.9666666666666667,nan,0,19915.357,0
0,875,target,"[(1033, 812)]",[],[1],[0.4666666666666667],vertical,"(890.0, 262.0)",1.2166666666666666,0.434,1,19920.473,1
0,876,target,"[(1006, 852)]",[],[1],[0.85],vertical,"(390.0, 762.0)",1.1,nan,0,19925.823,0
0,877,target,"[(1037, 890)]",[],[1],[0.85],horizontal,"(890.0, 762.0)",0.7,nan,0,22212.12,0
0,878,target,"[(1048, 832)]",[],[1],[0.5166666666666666],horizontal,"(890.0, 262.0)",1.1666666666666667,0.475,1,22218.036,1
0,879,target,"[(1057, 855)]",[],[1],[0.5666666666666667],horizontal,"(890.0, 262.0)",1.0333333333333332,0.531,1,22223.311,1
0,880,target,"[(1060, 841)]",[],[1],[0.5833333333333334],horizontal,"(890.0, 262.0)",0.65,0.541,1,22228.736,1
0,881,target,"[(1072, 825)]",[],[1],[0.21666666666666667],vertical,"(890.0, 262.0)",1.5833333333333333,0.182,1,22233.531,2
0,882,catch,"[(1030, 855)]",[],[1],[],vertical,"(890.0, 762.0)",1.5166666666666666,nan,1,22239.145,1
0,883,catch,"[(1072, 819)]",[],[1],[],vertical,"(390.0, 262.0)",1.3333333333333333,nan,1,22244.67,1
0,884,target,"[(1054, 832)]",[],[1],[0.5833333333333334],vertical,"(390.0, 262.0)",1.35,0.537,1,22249.654,1
0,885,target,"[(1081, 819)]",[],[1],[0.85],horizontal,"(390.0, 762.0)",1.45,nan,0,22255.12,0
0,886,target,"[(1050, 810)]",[],[1],[0.85],horizontal,"(890.0, 762.0)",1.35,nan,0,22260.752,0
0,887,target,"[(1037, 825)]",[],[1],[0.8333333333333334],horizontal,"(390.0, 262.0)",0.7833333333333333,0.792,1,22266.036,1
0,888,target,"[(1069, 826)]",[],[1],[0.6],horizontal,"(390.0, 762.0)",1.3166666666666667,0.567,1,22271.988,1
0,889,target,"[(1061, 792)]",[],[1],[0.8333333333333334],vertical,"(390.0, 762.0)",0.8333333333333334,0.785,1,22277.121,1
0,890,target,"[(1068, 820)]",[],[1],[0.85],horizontal,"(890.0, 762.0)",1.6,nan,0,22282.571,0
0,891,target,"[(1068, 802)]",[],[1],[0.55],horizontal,"(890.0, 762.0)",1.5833333333333333,0.51,1,22287.974,1
0,892,target,"[(1061, 810)]",[],[1],[0.6],horizontal,"(390.0, 762.0)",0.5166666666666666,0.559,1,22293.437,1
0,893,target,"[(1061, 814)]",[],[1],[0.85],vertical,"(890.0, 262.0)",0.7666666666666666,nan,0,22297.78,0
0,894,target,"[(1065, 819)]",[],[1],[0.65],vertical,"(390.0, 262.0)",0.65,0.607,1,22302.566,1
0,895,target,"[(1061, 815)]",[],[1],[0.5333333333333333],vertical,"(890.0, 762.0)",1.2666666666666666,0.491,1,22307.733,1
0,896,target,"[(1042, 794)]",[],[1],[0.6833333333333333],vertical,"(390.0, 762.0)",1.1333333333333333,0.639,1,22313.242,1
0,897,target,"[(1065, 795)]",[],[1],[0.5333333333333333],vertical,"(890.0, 262.0)",0.7166666666666667,0.501,1,22318.112,2
0,898,target,"[(1069, 802)]",[],[1],[0.6166666666666667],horizontal,"(890.0, 262.0)",0.65,0.583,1,22323.42,1
0,899,target,"[(1069, 816)]",[],[1],[0.16666666666666666],vertical,"(890.0, 262.0)",1.5166666666666666,0.136,1,22327.987,1
0,900,target,"[(1061, 812)]",[],[1],[0.85],horizontal,"(890.0, 262.0)",1.6833333333333333,"('cti', 1.674),nan",0,22333.31,0
0,901,target,"[(1054, 789)]",[],[1],[0.48333333333333334],horizontal,"(890.0, 262.0)",1.6166666666666667,0.445,1,22338.673,1
0,902,target,"[(1029, 805)]",[],[1],[0.4],horizontal,"(890.0, 762.0)",1.2833333333333332,0.362,1,22344.399,1
0,903,catch,"[(1068, 814)]",[],[1],[],horizontal,"(390.0, 762.0)",1.2833333333333332,nan,1,22349.605,1
0,904,target,"[(1068, 800)]",[],[1],[0.5],horizontal,"(890.0, 262.0)",0.9,0.461,1,22354.126,2
0,905,target,"[(1065, 817)]",[],[1],[0.4166666666666667],vertical,"(390.0, 762.0)",1.2833333333333332,0.385,1,22359.618,1
0,906,target,"[(1065, 803)]",[],[1],[0.11666666666666667],vertical,"(390.0, 262.0)",1.1833333333333333,0.085,0,22364.835,0
0,907,target,"[(1068, 816)]",[],[1],[0.65],vertical,"(890.0, 762.0)",0.8166666666666667,0.616,1,22369.404,1
0,908,target,"[(1065, 801)]",[],[1],[0.8],vertical,"(390.0, 762.0)",1.2,0.753,1,22374.771,1
0,909,target,"[(1051, 788)]",[],[1],[0.31666666666666665],vertical,"(890.0, 262.0)",1.65,0.285,1,22379.79,1
0,910,catch,"[(1068, 825)]",[],[1],[],horizontal,"(890.0, 262.0)",1.2833333333333332,nan,1,22385.247,2
0,911,target,"[(1057, 786)]",[],[1],[0.55],horizontal,"(390.0, 262.0)",0.9833333333333333,0.509,1,22390.421,1
0,912,target,"[(1068, 806)]",[],[1],[0.6166666666666667],vertical,"(390.0, 762.0)",1.05,0.575,1,22395.405,1
