block,trial,trial_type,taps_start_loc_during_fix,taps_end_loc_during_fix,taps_on_lever_during_fix,taps_on_lever_s_during_fix,bar_orientation,target_xy,cti,rt,acc,time,pulses
0,1,target,"[(1019, 789)]",[],[1],[0.5333333333333333],horizontal,"(390.0, 762.0)",0.9833333333333333,0.489,1,0.48,1
0,2,target,"[(1048, 807)]",[],[1],[0.6166666666666667],vertical,"(890.0, 762.0)",0.8,0.569,1,326.943,1
0,3,catch,"[(1094, 833)]",[],[1],[],vertical,"(390.0, 762.0)",,"('cti', 1.097),nan",0,331.777,0
0,4,target,"[(1063, 821)]",[],[1],[0.5833333333333334],vertical,"(890.0, 762.0)",1.0833333333333333,0.54,1,336.894,1
0,5,target,"[(1102, 807)]",[],[1],[0.6166666666666667],vertical,"(890.0, 762.0)",0.85,0.578,1,341.762,1
0,6,target,"[(1110, 782)]",[],[1],[0.3333333333333333],vertical,"(390.0, 262.0)",0.9333333333333333,0.294,1,347.25,2
0,7,target,"[(1105, 798)]",[],[1],[0.05],vertical,"(890.0, 262.0)",1.4333333333333333,0.02,0,352.726,0
0,8,target,"[(1081, 809)]",[],[1],[0.31666666666666665],horizontal,"(390.0, 262.0)",1.6166666666666667,0.281,1,357.725,1
0,9,target,"[(1101, 801)]",[],[1],[0.45],vertical,"(890.0, 762.0)",1.2666666666666666,0.407,1,370.279,1
0,10,target,"[(1104, 795)]",[],[1],[0.7833333333333333],vertical,"(890.0, 762.0)",0.5333333333333333,0.737,1,375.494,2
0,11,target,"[(1110, 796)]",[],[1],[0.48333333333333334],vertical,"(890.0, 762.0)",0.7166666666666667,0.44,1,381.292,2
0,12,target,"[(1106, 786)]",[],[1],[0.35],vertical,"(390.0, 762.0)",1.3166666666666667,0.311,1,386.643,2
0,13,target,"[(1115, 780)]",[],[1],[0.4166666666666667],horizontal,"(390.0, 262.0)",1.2166666666666666,0.374,1,392.546,2
0,14,target,"[(1114, 787)]",[],[1],[0.6666666666666666],vertical,"(390.0, 762.0)",0.5166666666666666,0.622,1,397.836,3
0,15,target,"[(1107, 792)]",[],[1],[0.5333333333333333],horizontal,"(890.0, 762.0)",1.0,0.497,1,403.59,3
0,16,target,"[(1101, 792)]",[],[1],[0.48333333333333334],vertical,"(390.0, 262.0)",0.9666666666666667,0.447,1,409.36,3
0,17,target,"[(1120, 799)]",[],[1],[0.55],horizontal,"(390.0, 762.0)",0.5833333333333334,0.507,1,414.992,3
0,18,target,"[(1114, 793)]",[],[1],[0.21666666666666667],horizontal,"(890.0, 262.0)",1.15,0.184,0,420.054,0
0,19,target,"[(1099, 823)]",[],[1],[],vertical,"(890.0, 762.0)",,"('cti', 1.583)",0,424.46,0
0,20,target,"[(1082, 786)]",[],[1],[0.36666666666666664],vertical,"(890.0, 762.0)",1.5166666666666666,0.331,1,431.81,1
0,21,target,"[(1110, 811)]",[],[1],[0.85],vertical,"(390.0, 262.0)",0.5,nan,0,436.816,0
0,22,catch,"[(1097, 792)]",[],[1],[],horizontal,"(890.0, 762.0)",1.6,nan,1,441.061,1
0,23,target,"[(1091, 790)]",[],[1],[0.55],horizontal,"(390.0, 262.0)",0.85,0.507,1,446.262,1
0,24,target,"[(1138, 795)]",[],[1],[0.5166666666666666],horizontal,"(890.0, 262.0)",0.8,0.471,1,451.106,2
0,25,target,"[(1114, 812)]",[],[1],[],vertical,"(890.0, 262.0)",,"('cti', 1.154)",0,456.527,0
0,26,target,"[(1091, 796)]",[],[1],[0.48333333333333334],vertical,"(890.0, 262.0)",1.3166666666666667,0.443,1,463.91,1
0,27,target,"[(1107, 777)]",[],[1],[0.5833333333333334],vertical,"(390.0, 762.0)",0.7333333333333333,0.549,1,468.968,1
0,28,target,"[(1114, 802)]",[],[1],[0.5],horizontal,"(890.0, 762.0)",0.7,0.458,1,473.721,2
0,29,target,"[(1113, 801)]",[],[1],[0.43333333333333335],horizontal,"(390.0, 762.0)",0.9,0.394,1,478.753,2
0,30,target,"[(1104, 778)]",[],[1],[0.85],vertical,"(890.0, 762.0)",0.5,nan,0,484.128,0
0,31,target,"[(1101, 785)]",[],[1],[0.5333333333333333],vertical,"(890.0, 762.0)",1.1,0.492,1,488.311,1
0,32,target,"[(1071, 775)]",[],[1],[0.7833333333333333],vertical,"(890.0, 762.0)",0.8166666666666667,0.738,1,493.425,1
0,33,target,"[(1104, 795)]",[],[1],[0.85],horizontal,"(890.0, 762.0)",0.5333333333333333,nan,0,498.012,0
0,34,target,"[(1081, 778)]",[],[1],[0.5],vertical,"(890.0, 762.0)",0.9,0.458,1,502.468,1
0,35,target,"[(1061, 805)]",[],[1],[0.3333333333333333],vertical,"(890.0, 762.0)",1.1666666666666667,0.294,1,507.128,1
0,36,target,"[(1121, 802)]",[],[1],[0.15],horizontal,"(890.0, 262.0)",1.2333333333333334,0.116,0,1199.714,0
0,37,catch,"[(1109, 820)]",[],[1],[],horizontal,"(390.0, 262.0)",1.6,nan,1,1204.216,1
0,38,catch,"[(1086, 797)]",[],[1],[],horizontal,"(890.0, 262.0)",1.6,nan,1,1778.652,1
0,39,target,"[(1093, 798)]",[],[1],[0.7333333333333333],horizontal,"(890.0, 262.0)",0.5333333333333333,0.688,1,1783.721,2
0,40,target,"[(1098, 806)]",[],[1],[0.85],vertical,"(890.0, 762.0)",0.5166666666666666,nan,0,1788.443,0
0,41,catch,"[(1100, 786)]",[],[1],[],vertical,"(390.0, 262.0)",,"('cti', 1.23),nan",0,1792.867,0
0,42,target,"[(1083, 811)]",[],[1],[0.26666666666666666],vertical,"(890.0, 762.0)",1.4833333333333334,0.231,1,2199.108,1
0,43,target,"[(1103, 817)]",[],[1],[0.6166666666666667],horizontal,"(390.0, 762.0)",0.9333333333333333,0.577,1,2204.157,1
0,44,target,"[(1104, 797)]",[],[1],[0.13333333333333333],vertical,"(390.0, 762.0)",0.5666666666666667,0.101,0,2208.912,0
0,45,target,"[(1055, 788)]",[],[1],[0.7666666666666666],horizontal,"(390.0, 262.0)",0.9,0.72,1,2212.704,1
0,46,target,"[(1081, 804)]",[],[1],[0.5166666666666666],vertical,"(890.0, 762.0)",0.7166666666666667,0.476,1,2222.467,1
0,47,target,"[(1102, 809)]",[],[1],[0.85],vertical,"(390.0, 762.0)",0.7,nan,0,2227.244,0
0,48,catch,"[(1047, 791)]",[],[1],[],vertical,"(890.0, 262.0)",1.6,nan,1,2231.404,1
0,49,catch,"[(1081, 777)]",[],[1],[],vertical,"(890.0, 762.0)",,"('cti', 1.522),nan",0,2244.647,0
0,50,target,"[(1066, 782)]",[],[1],[0.7166666666666667],vertical,"(390.0, 262.0)",0.9333333333333333,0.67,1,2249.306,1
0,51,target,"[(1060, 841)]",[],[1],[0.5166666666666666],vertical,"(890.0, 262.0)",0.65,0.476,1,2275.2,1
0,52,target,"[(1098, 798)]",[],[1],[0.48333333333333334],vertical,"(390.0, 262.0)",0.8833333333333333,0.442,1,2280.354,2
0,53,target,"[(1089, 797)]",[],[1],[0.6666666666666666],vertical,"(890.0, 262.0)",0.7166666666666667,0.623,1,2284.953,2
0,54,target,"[(1116, 803)]",[],[1],[0.5333333333333333],horizontal,"(890.0, 762.0)",0.65,0.491,1,2290.171,2
0,55,target,"[(1080, 782)]",[],[1],[0.3333333333333333],horizontal,"(390.0, 762.0)",1.2333333333333334,0.294,1,2294.871,2
0,56,target,"[(1088, 789)]",[],[1],[0.6],vertical,"(390.0, 262.0)",1.15,0.561,1,2300.304,3
0,57,target,"[(1109, 799)]",[],[1],[0.5833333333333334],horizontal,"(890.0, 762.0)",1.0833333333333333,0.543,1,2305.856,3
0,58,target,"[(1104, 797)]",[],[1],[0.35],vertical,"(890.0, 762.0)",1.5166666666666666,0.31,1,2311.288,3
0,59,target,"[(1102, 785)]",[],[1],[0.3333333333333333],horizontal,"(890.0, 262.0)",1.45,0.295,1,2317.521,3
0,60,target,"[(1104, 798)]",[],[1],[0.6166666666666667],vertical,"(390.0, 762.0)",1.3166666666666667,0.571,1,2323.187,3
0,61,catch,"[(1079, 778)]",[],[1],[],vertical,"(390.0, 762.0)",,"('cti', 0.587),nan",0,2329.189,0
0,62,target,"[(1066, 798)]",[],[1],[0.6333333333333333],horizontal,"(390.0, 262.0)",1.0,0.595,1,2333.171,1
0,63,target,"[(1105, 807)]",[],[1],[0.85],horizontal,"(390.0, 762.0)",0.65,nan,0,2347.836,0
0,64,target,"[(1081, 825)]",[],[1],[0.16666666666666666],vertical,"(890.0, 262.0)",1.3333333333333333,0.132,0,2352.655,0
0,65,catch,"[(1071, 816)]",[],[1],[],vertical,"(390.0, 262.0)",1.6,nan,1,2357.377,1
0,66,target,"[(1060, 803)]",[],[1],[0.5333333333333333],horizontal,"(890.0, 762.0)",1.45,0.495,1,2363.071,1
0,67,target,"[(1102, 805)]",[],[1],[0.65],horizontal,"(890.0, 762.0)",1.2333333333333334,0.612,1,2368.114,2
0,68,target,"[(1110, 782)]",[],[1],[0.65],horizontal,"(890.0, 762.0)",0.9833333333333333,0.606,1,2373.389,2
0,69,target,"[(1112, 802)]",[],[1],[0.6333333333333333],horizontal,"(390.0, 262.0)",0.5833333333333334,0.599,1,2378.396,2
0,70,target,"[(1108, 798)]",[],[1],[0.05],vertical,"(390.0, 762.0)",1.6833333333333333,0.019,0,2383.24,0
0,71,target,"[(1095, 827)]",[],[1],[0.6666666666666666],horizontal,"(890.0, 762.0)",0.65,0.628,1,2388.324,1
0,72,target,"[(1077, 835)]",[],[1],[0.6],vertical,"(890.0, 262.0)",0.65,0.562,1,2393.145,1
0,73,target,"[(1114, 790)]",[],[1],[0.48333333333333334],horizontal,"(390.0, 762.0)",1.3666666666666667,0.449,1,2397.892,2
0,74,target,"[(1112, 797)]",[],[1],[0.5333333333333333],horizontal,"(390.0, 762.0)",1.25,0.49,1,2403.522,2
0,75,target,"[(1109, 773)]",[],[1],[0.3833333333333333],vertical,"(890.0, 262.0)",1.45,0.349,1,2408.688,2
0,76,catch,"[(1094, 789)]",[],[1],[],horizontal,"(390.0, 762.0)",1.6,nan,1,2414.103,2
0,77,target,"[(1114, 781)]",[],[1],[0.6],horizontal,"(890.0, 262.0)",0.55,0.562,1,2419.211,3
0,78,target,"[(1104, 758)]",[],[1],[0.5166666666666666],vertical,"(890.0, 262.0)",1.25,0.474,1,2424.165,3
0,79,target,"[(1106, 794)]",[],[1],[0.5166666666666666],horizontal,"(890.0, 262.0)",1.3833333333333333,0.477,1,2429.69,3
0,80,target,"[(1109, 803)]",[],[1],[0.3833333333333333],vertical,"(890.0, 262.0)",1.5333333333333332,0.347,1,2435.405,3
0,81,target,"[(1105, 794)]",[],[1],[0.6666666666666666],vertical,"(390.0, 262.0)",0.5666666666666667,0.625,1,2441.472,3
0,82,target,"[(1119, 799)]",[],[1],[0.6833333333333333],vertical,"(390.0, 262.0)",1.3666666666666667,0.642,1,2447.038,3
0,83,target,"[(1118, 795)]",[],[1],[0.5333333333333333],horizontal,"(890.0, 262.0)",1.5333333333333332,0.49,1,2453.168,3
0,84,target,"[(1119, 788)]",[],[1],[0.18333333333333332],horizontal,"(890.0, 762.0)",1.6666666666666667,0.154,0,2459.538,0
0,85,target,"[(1081, 804)]",[],[1],[0.45],vertical,"(890.0, 762.0)",1.4333333333333333,0.409,1,2464.298,1
0,86,target,"[(1110, 773)]",[],[1],[0.6833333333333333],horizontal,"(390.0, 262.0)",0.9,0.645,1,2469.824,1
0,87,target,"[(1109, 798)]",[],[1],[0.55],horizontal,"(890.0, 762.0)",1.3333333333333333,0.506,1,2474.672,2
0,88,target,"[(1119, 786)]",[],[1],[0.6833333333333333],horizontal,"(390.0, 762.0)",1.0666666666666667,0.641,1,2480.105,2
0,89,target,"[(1088, 791)]",[],[1],[0.65],vertical,"(890.0, 262.0)",0.5333333333333333,0.606,1,2485.306,2
0,90,target,"[(1106, 777)]",[],[1],[0.4666666666666667],vertical,"(390.0, 762.0)",1.5833333333333333,0.432,1,2490.107,2
0,91,target,"[(1114, 794)]",[],[1],[0.85],horizontal,"(390.0, 262.0)",0.65,nan,0,2496.003,0
0,92,target,"[(1064, 838)]",[],[1],[0.4666666666666667],horizontal,"(390.0, 762.0)",1.0166666666666666,0.431,1,2500.388,1
0,93,target,"[(1123, 776)]",[],[1],[0.85],vertical,"(390.0, 262.0)",0.95,nan,0,2505.939,0
0,94,target,"[(1058, 803)]",[],[1],[0.48333333333333334],vertical,"(390.0, 762.0)",1.2666666666666666,0.442,1,2510.889,1
0,95,target,"[(1123, 774)]",[],[1],[0.18333333333333332],vertical,"(390.0, 262.0)",1.35,0.153,0,2516.156,0
0,96,target,"[(1077, 799)]",[],[1],[0.5333333333333333],horizontal,"(890.0, 262.0)",0.6166666666666667,0.495,1,2521.002,1
0,97,target,"[(1104, 773)]",[],[1],[0.6166666666666667],vertical,"(390.0, 762.0)",1.3,0.58,1,2525.888,1
0,98,target,"[(1104, 794)]",[],[1],[0.5833333333333334],horizontal,"(390.0, 762.0)",0.95,0.541,1,2530.855,2
0,99,target,"[(1081, 781)]",[],[1],[0.5],horizontal,"(890.0, 262.0)",1.35,0.461,1,2535.844,2
0,100,target,"[(1119, 766)]",[],[1],[],vertical,"(390.0, 762.0)",,"('fix', 0.066)",0,2541.272,0
0,101,target,"[(1099, 841)]",[],[1],[0.55],horizontal,"(390.0, 262.0)",1.2,0.508,1,2542.748,1
0,102,target,"[(1096, 790)]",[],[1],[0.5],vertical,"(390.0, 762.0)",0.8833333333333333,0.463,1,2547.784,1
0,103,target,"[(1119, 790)]",[],[1],[0.5166666666666666],vertical,"(890.0, 262.0)",1.2666666666666666,0.482,1,2552.356,2
0,104,target,"[(1100, 785)]",[],[1],[0.6],vertical,"(890.0, 262.0)",0.6666666666666666,0.558,1,2557.404,2
0,105,target,"[(1106, 787)]",[],[1],[0.11666666666666667],vertical,"(890.0, 762.0)",1.25,0.084,0,2562.237,0
0,106,target,"[(1077, 818)]",[],[1],[0.6],vertical,"(890.0, 762.0)",0.8833333333333333,0.563,1,2566.474,1
0,107,target,"[(1107, 792)]",[],[1],[0.5166666666666666],horizontal,"(390.0, 262.0)",0.7833333333333333,0.472,1,2571.474,1
0,108,target,"[(1112, 794)]",[],[1],[0.36666666666666664],vertical,"(390.0, 762.0)",1.6833333333333333,0.332,1,2575.714,2
0,109,target,"[(1106, 777)]",[],[1],[0.85],vertical,"(890.0, 762.0)",0.9833333333333333,nan,0,2581.424,0
0,110,catch,"[(1066, 792)]",[],[1],[],horizontal,"(390.0, 762.0)",1.6,nan,1,2586.064,1
0,111,target,"[(1100, 797)]",[],[1],[0.6666666666666666],horizontal,"(890.0, 262.0)",0.6666666666666666,0.628,1,2591.714,1
0,112,target,"[(1106, 781)]",[],[1],[0.5833333333333334],horizontal,"(390.0, 762.0)",1.2166666666666666,0.544,1,2596.121,2
0,113,target,"[(1107, 792)]",[],[1],[0.5333333333333333],vertical,"(890.0, 262.0)",0.8833333333333333,0.488,1,2601.244,2
0,114,target,"[(1116, 795)]",[],[1],[0.5666666666666667],horizontal,"(390.0, 262.0)",0.65,0.534,1,2606.139,2
0,115,target,"[(1099, 792)]",[],[1],[0.6166666666666667],vertical,"(390.0, 262.0)",0.5666666666666667,0.572,1,2611.139,2
0,116,target,"[(1127, 785)]",[],[1],[0.5],horizontal,"(890.0, 262.0)",1.35,0.458,1,2616.157,3
0,117,catch,"[(1095, 801)]",[],[1],[],vertical,"(390.0, 262.0)",1.6,nan,1,2622.462,3
0,118,target,"[(1073, 823)]",[],[1],[0.5833333333333334],vertical,"(890.0, 762.0)",0.9,0.544,1,2628.34,3
0,119,target,"[(1075, 802)]",[],[1],[0.6833333333333333],vertical,"(890.0, 762.0)",0.8833333333333333,0.641,1,2633.989,3
0,120,catch,"[(1102, 806)]",[],[1],[],horizontal,"(390.0, 762.0)",1.6,nan,1,2639.907,3
0,121,target,"[(1090, 798)]",[],[1],[0.55],horizontal,"(390.0, 762.0)",0.5666666666666667,0.521,1,2645.838,3
0,122,catch,"[(1113, 783)]",[],[1],[],vertical,"(890.0, 762.0)",,"('cti', 1.571),nan",0,2651.49,0
0,123,target,"[(1062, 802)]",[],[1],[0.21666666666666667],horizontal,"(890.0, 762.0)",1.5833333333333333,0.182,0,2656.39,0
0,124,target,"[(1099, 796)]",[],[1],[0.6666666666666666],vertical,"(390.0, 762.0)",0.9166666666666666,0.623,1,2660.976,1
0,125,target,"[(1098, 795)]",[],[1],[0.5166666666666666],vertical,"(890.0, 262.0)",1.1166666666666667,0.477,1,2666.066,1
0,126,target,"[(1103, 767)]",[],[1],[0.6166666666666667],vertical,"(390.0, 262.0)",0.6833333333333333,0.573,1,2670.894,2
0,127,catch,"[(1120, 792)]",[],[1],[],horizontal,"(390.0, 262.0)",1.6,nan,1,2675.457,2
0,128,target,"[(1102, 810)]",[],[1],[0.5666666666666667],horizontal,"(390.0, 262.0)",1.1666666666666667,0.53,1,2680.795,2
0,129,target,"[(1092, 774)]",[],[1],[0.85],horizontal,"(890.0, 262.0)",0.6,nan,0,2686.242,0
0,130,target,"[(1080, 792)]",[],[1],[0.48333333333333334],horizontal,"(890.0, 262.0)",0.7666666666666666,0.447,1,2690.43,1
0,131,target,"[(1102, 778)]",[],[1],[0.55],vertical,"(390.0, 262.0)",0.9666666666666667,0.507,1,2695.348,1
0,132,target,"[(1080, 787)]",[],[1],[],horizontal,"(890.0, 762.0)",,"('cti', 1.603)",0,2700.16,0
0,133,target,"[(1066, 808)]",[],[1],[0.4166666666666667],horizontal,"(890.0, 262.0)",1.15,0.375,1,2704.976,1
0,134,target,"[(1107, 795)]",[],[1],[0.6],vertical,"(390.0, 262.0)",0.5166666666666666,0.553,1,2710.205,1
0,135,target,"[(1112, 789)]",[],[1],[0.4166666666666667],horizontal,"(390.0, 762.0)",1.3,0.38,1,2714.839,2
0,136,target,"[(1103, 796)]",[],[1],[0.13333333333333333],horizontal,"(890.0, 262.0)",1.4333333333333333,0.102,0,2719.914,0
0,137,target,"[(1123, 796)]",[],[1],[0.5666666666666667],vertical,"(890.0, 262.0)",1.25,0.519,1,2724.232,1
0,138,target,"[(1101, 788)]",[],[1],[],horizontal,"(390.0, 262.0)",,"('cti', 1.265)",0,2728.924,0
0,139,catch,"[(1065, 812)]",[],[1],[0.03333333333333333],horizontal,"(890.0, 762.0)",1.6,"0.017,nan",0,2733.591,0
0,140,target,"[(1123, 795)]",[],[1],[0.35],vertical,"(390.0, 262.0)",1.5666666666666667,0.315,1,2740.572,1
0,141,target,"[(1097, 802)]",[],[1],[],horizontal,"(390.0, 262.0)",,"('cti', 1.52)",0,2745.805,0
0,142,catch,"[(1091, 803)]",[],[1],[],vertical,"(890.0, 262.0)",1.6,nan,1,2750.74,1
0,143,target,"[(1095, 801)]",[],[1],[0.6166666666666667],horizontal,"(890.0, 262.0)",0.6666666666666666,0.574,1,2755.748,1
0,144,target,"[(1109, 774)]",[],[1],[0.5833333333333334],horizontal,"(890.0, 762.0)",1.25,0.542,1,2760.166,2
0,145,target,"[(1104, 782)]",[],[1],[0.5833333333333334],horizontal,"(890.0, 762.0)",0.6,0.538,1,2765.457,2
0,146,target,"[(1102, 794)]",[],[1],[0.55],horizontal,"(390.0, 262.0)",0.8666666666666667,0.513,1,2770.018,2
0,147,target,"[(1105, 806)]",[],[1],[0.16666666666666666],vertical,"(390.0, 762.0)",1.45,0.136,0,2775.057,0
0,148,target,"[(1095, 794)]",[],[1],[0.2833333333333333],horizontal,"(890.0, 262.0)",1.6833333333333333,0.248,1,2780.098,1
0,149,catch,"[(1097, 788)]",[],[1],[],vertical,"(890.0, 762.0)",1.6,nan,1,2785.29,1
0,150,target,"[(1116, 787)]",[],[1],[0.6333333333333333],vertical,"(390.0, 262.0)",1.2166666666666666,0.586,1,2790.272,2
0,151,catch,"[(1104, 787)]",[],[1],[],vertical,"(890.0, 262.0)",1.6,nan,1,2795.34,2
0,152,target,"[(1107, 790)]",[],[1],[0.55],vertical,"(890.0, 762.0)",0.8333333333333334,0.504,1,2800.854,2
0,153,target,"[(1100, 795)]",[],[1],[0.5166666666666666],horizontal,"(390.0, 262.0)",0.5666666666666667,0.482,1,2805.684,2
0,154,target,"[(1109, 762)]",[],[1],[0.6666666666666666],horizontal,"(390.0, 762.0)",0.7166666666666667,0.621,1,2810.567,3
0,155,target,"[(1104, 788)]",[],[1],[0.36666666666666664],horizontal,"(890.0, 262.0)",1.6666666666666667,0.329,1,2816.101,3
0,156,target,"[(1100, 789)]",[],[1],[0.55],horizontal,"(890.0, 262.0)",1.2166666666666666,0.504,1,2821.862,3
0,157,target,"[(1126, 787)]",[],[1],[0.25],vertical,"(890.0, 262.0)",1.5666666666666667,0.214,1,2828.0,3
0,158,target,"[(1099, 790)]",[],[1],[0.48333333333333334],horizontal,"(890.0, 262.0)",1.6666666666666667,0.444,1,2834.241,3
0,159,target,"[(1103, 778)]",[],[1],[0.6],horizontal,"(390.0, 762.0)",1.25,0.554,1,2840.404,3
0,160,target,"[(1101, 787)]",[],[1],[0.55],horizontal,"(890.0, 262.0)",1.05,0.506,1,2846.523,3
0,161,target,"[(1105, 777)]",[],[1],[0.13333333333333333],horizontal,"(390.0, 262.0)",1.6833333333333333,0.099,0,2852.228,0
0,162,target,"[(1079, 794)]",[],[1],[0.8333333333333334],horizontal,"(890.0, 762.0)",1.1166666666666667,0.782,1,2857.422,1
0,163,target,"[(1109, 802)]",[],[1],[],horizontal,"(890.0, 262.0)",,"('cti', 1.191)",0,2862.441,0
0,164,catch,"[(1118, 791)]",[],[1],[],vertical,"(390.0, 762.0)",1.6,nan,1,2866.866,1
0,165,target,"[(1106, 803)]",[],[1],[0.6166666666666667],vertical,"(890.0, 262.0)",1.1,0.569,1,2871.43,1
0,166,target,"[(1126, 760)]",[],[1],[0.7166666666666667],vertical,"(890.0, 762.0)",0.55,0.669,1,2876.407,2
0,167,target,"[(1104, 805)]",[],[1],[0.5166666666666666],vertical,"(890.0, 262.0)",1.1166666666666667,0.472,1,2881.189,2
0,168,target,"[(1100, 812)]",[],[1],[0.6],vertical,"(890.0, 262.0)",0.8,0.553,1,2886.846,2
0,169,target,"[(1104, 792)]",[],[1],[0.5833333333333334],vertical,"(390.0, 262.0)",1.2833333333333332,0.536,1,2892.006,2
0,170,target,"[(1067, 781)]",[],[1],[0.5833333333333334],horizontal,"(390.0, 262.0)",0.6166666666666667,0.535,1,2897.706,3
0,171,target,"[(1104, 816)]",[],[1],[0.43333333333333335],horizontal,"(390.0, 262.0)",1.4166666666666667,0.395,1,2902.921,3
0,172,target,"[(1104, 777)]",[],[1],[],horizontal,"(390.0, 262.0)",,"('cti', 1.171)",0,2908.818,0
0,173,target,"[(1078, 795)]",[],[1],[],horizontal,"(890.0, 262.0)",,"('cti', 1.337)",0,2913.118,0
0,174,target,"[(1090, 782)]",[],[1],[0.5666666666666667],vertical,"(890.0, 762.0)",1.1,0.522,1,2917.959,1
0,175,target,"[(1107, 790)]",[],[1],[0.6],vertical,"(890.0, 762.0)",1.0,0.558,1,2922.962,1
0,176,catch,"[(1081, 795)]",[],[1],[],horizontal,"(890.0, 262.0)",1.6,nan,1,2927.726,2
0,177,target,"[(1110, 791)]",[],[1],[0.5333333333333333],horizontal,"(890.0, 762.0)",1.2833333333333332,0.49,1,2933.391,2
0,178,target,"[(1108, 791)]",[],[1],[0.6166666666666667],vertical,"(390.0, 262.0)",0.7333333333333333,0.579,1,2939.17,2
0,179,target,"[(1101, 795)]",[],[1],[0.5666666666666667],horizontal,"(390.0, 762.0)",0.65,0.521,1,2943.927,2
0,180,target,"[(1076, 781)]",[],[1],[0.08333333333333333],horizontal,"(890.0, 762.0)",1.6166666666666667,0.05,0,2949.056,0
0,181,target,"[(1081, 796)]",[],[1],[0.5],horizontal,"(390.0, 762.0)",1.2333333333333334,0.457,1,2953.568,1
0,182,target,"[(1081, 789)]",[],[1],[0.55],vertical,"(390.0, 262.0)",1.6333333333333333,0.506,1,2958.423,1
0,183,target,"[(1099, 791)]",[],[1],[0.6666666666666666],horizontal,"(890.0, 262.0)",0.8,0.625,1,2964.207,2
0,184,target,"[(1117, 786)]",[],[1],[0.4166666666666667],horizontal,"(890.0, 762.0)",1.4833333333333334,0.38,1,2969.396,2
0,185,target,"[(1083, 778)]",[],[1],[0.21666666666666667],vertical,"(390.0, 762.0)",1.6,0.186,0,2974.652,0
0,186,target,"[(1092, 810)]",[],[1],[0.5333333333333333],vertical,"(890.0, 262.0)",1.1666666666666667,0.488,1,2979.581,1
0,187,target,"[(1122, 761)]",[],[1],[0.55],vertical,"(890.0, 262.0)",0.6,0.511,1,2984.467,1
0,188,target,"[(1127, 781)]",[],[1],[0.4],vertical,"(890.0, 262.0)",1.4,0.363,1,2988.959,2
0,189,target,"[(1107, 779)]",[],[1],[0.85],vertical,"(390.0, 762.0)",0.5,nan,0,2994.342,0
0,190,catch,"[(1071, 799)]",[],[1],[],vertical,"(390.0, 262.0)",1.6,nan,1,2998.467,1
0,191,target,"[(1095, 805)]",[],[1],[0.7166666666666667],horizontal,"(890.0, 262.0)",0.9333333333333333,0.67,1,3003.274,1
0,192,target,"[(1083, 805)]",[],[1],[0.5166666666666666],horizontal,"(390.0, 262.0)",1.2333333333333334,0.471,1,3008.376,2
0,193,target,"[(1082, 779)]",[],[1],[0.6],horizontal,"(390.0, 262.0)",0.5,0.552,1,3013.774,2
0,194,target,"[(1106, 783)]",[],[1],[0.6666666666666666],vertical,"(890.0, 762.0)",1.0333333333333332,0.622,1,3018.057,2
0,195,target,"[(1081, 785)]",[],[1],[0.5166666666666666],vertical,"(890.0, 762.0)",0.8666666666666667,0.475,1,3023.292,2
0,196,target,"[(1073, 789)]",[],[1],[0.48333333333333334],horizontal,"(390.0, 762.0)",1.2333333333333334,0.444,1,3028.474,3
0,197,target,"[(1098, 800)]",[],[1],[0.6333333333333333],vertical,"(390.0, 762.0)",1.1833333333333333,0.608,1,3034.491,3
0,198,target,"[(1089, 784)]",[],[1],[0.5666666666666667],horizontal,"(390.0, 762.0)",0.8166666666666667,0.523,1,3040.355,3
0,199,target,"[(1074, 782)]",[],[1],[0.25],horizontal,"(890.0, 762.0)",1.25,0.213,1,3045.965,3
0,200,target,"[(1102, 805)]",[],[1],[0.5666666666666667],vertical,"(390.0, 262.0)",0.7666666666666666,0.528,1,3051.954,3
0,201,target,"[(1081, 798)]",[],[1],[0.5166666666666666],horizontal,"(890.0, 762.0)",1.2333333333333334,0.477,1,3057.123,3
0,202,target,"[(1110, 800)]",[],[1],[0.55],vertical,"(390.0, 762.0)",0.75,0.507,1,3062.759,3
0,203,target,"[(1081, 792)]",[],[1],[0.5333333333333333],vertical,"(890.0, 262.0)",1.2333333333333334,0.49,1,3068.142,3
0,204,target,"[(1110, 801)]",[],[1],[0.3],horizontal,"(890.0, 262.0)",1.4,0.268,1,3073.842,3
0,205,target,"[(1082, 787)]",[],[1],[0.4666666666666667],vertical,"(390.0, 262.0)",1.3166666666666667,0.429,1,3079.718,3
0,206,target,"[(1107, 782)]",[],[1],[0.6],vertical,"(890.0, 762.0)",0.8333333333333334,0.562,1,3085.853,3
0,207,target,"[(1081, 766)]",[],[1],[0.55],horizontal,"(390.0, 262.0)",0.8,0.511,1,3091.175,3
0,208,target,"[(1109, 790)]",[],[1],[0.2833333333333333],horizontal,"(890.0, 262.0)",1.45,0.246,1,3096.645,3
0,209,catch,"[(1100, 782)]",[],[1],[],vertical,"(890.0, 262.0)",,"('cti', 1.479),nan",0,3102.259,0
0,210,target,"[(1079, 786)]",[],[1],[0.5166666666666666],horizontal,"(890.0, 262.0)",0.8333333333333334,0.474,1,3106.576,1
0,211,target,"[(1106, 778)]",[],[1],[0.5666666666666667],vertical,"(390.0, 262.0)",1.1,0.522,1,3111.659,1
0,212,target,"[(1103, 787)]",[],[1],[0.43333333333333335],horizontal,"(390.0, 262.0)",1.6166666666666667,0.39,1,3116.693,2
0,213,target,"[(1112, 777)]",[],[1],[0.5833333333333334],horizontal,"(890.0, 262.0)",1.3,0.536,1,3122.159,2
0,214,target,"[(1079, 769)]",[],[1],[0.36666666666666664],horizontal,"(890.0, 262.0)",1.5,0.327,1,3127.509,2
0,215,target,"[(1088, 800)]",[],[1],[0.5833333333333334],vertical,"(890.0, 762.0)",0.6,0.538,1,3132.586,2
0,216,catch,"[(1100, 800)]",[],[1],[],vertical,"(890.0, 262.0)",1.6,nan,1,3137.288,3
0,217,target,"[(1102, 809)]",[],[1],[0.5666666666666667],horizontal,"(390.0, 762.0)",1.1666666666666667,0.53,1,3142.908,3
0,218,target,"[(1111, 778)]",[],[1],[0.85],horizontal,"(890.0, 762.0)",0.55,nan,0,3148.509,0
0,219,target,"[(1103, 800)]",[],[1],[0.5166666666666666],vertical,"(890.0, 762.0)",1.1666666666666667,0.477,1,3152.714,1
0,220,target,"[(1111, 781)]",[],[1],[0.48333333333333334],vertical,"(890.0, 262.0)",1.2,0.441,1,3157.648,1
0,221,target,"[(1082, 798)]",[],[1],[0.5333333333333333],horizontal,"(390.0, 262.0)",0.7833333333333333,0.492,1,3162.858,2
0,222,catch,"[(1091, 792)]",[],[1],[],vertical,"(890.0, 262.0)",1.6,nan,1,3167.91,2
0,223,target,"[(1111, 771)]",[],[1],[0.11666666666666667],vertical,"(890.0, 262.0)",1.6833333333333333,0.083,0,3173.393,0
0,224,target,"[(1063, 798)]",[],[1],[0.25],horizontal,"(890.0, 262.0)",1.5833333333333333,0.213,1,3178.337,1
0,225,target,"[(1095, 786)]",[],[1],[],horizontal,"(890.0, 762.0)",,"('cti', 0.576)",0,3183.428,0
0,226,target,"[(1077, 799)]",[],[1],[0.5333333333333333],vertical,"(390.0, 262.0)",0.6,0.495,1,3187.324,1
0,227,target,"[(1081, 790)]",[],[1],[0.5666666666666667],vertical,"(890.0, 262.0)",1.0333333333333332,0.527,1,3192.097,1
0,228,target,"[(1056, 795)]",[],[1],[0.5333333333333333],horizontal,"(390.0, 262.0)",0.9666666666666667,0.491,1,3196.578,2
0,229,catch,"[(1061, 802)]",[],[1],[],vertical,"(890.0, 762.0)",,"('cti', 1.507),nan",0,3214.78,0
0,230,target,"[(1085, 790)]",[],[1],[0.13333333333333333],vertical,"(390.0, 262.0)",1.4666666666666666,0.105,0,3221.36,0
0,231,target,"[(1061, 791)]",[],[1],[0.3],vertical,"(390.0, 762.0)",1.7,0.259,1,3225.869,1
0,232,target,"[(1085, 789)]",[],[1],[0.5666666666666667],horizontal,"(890.0, 762.0)",1.3666666666666667,0.52,1,3231.166,1
0,233,target,"[(1063, 792)]",[],[1],[0.85],vertical,"(890.0, 762.0)",0.75,nan,0,3235.921,0
0,234,target,"[(1071, 782)]",[],[1],[0.6333333333333333],horizontal,"(890.0, 262.0)",1.15,0.589,1,3240.702,1
0,235,catch,"[(1100, 790)]",[],[1],[],vertical,"(390.0, 762.0)",1.6,nan,1,3245.444,1
0,236,target,"[(1087, 806)]",[],[1],[0.5333333333333333],vertical,"(890.0, 262.0)",1.3166666666666667,0.494,1,3250.476,2
0,237,target,"[(1118, 785)]",[],[1],[0.55],vertical,"(890.0, 262.0)",1.0,0.504,1,3256.309,2
0,238,target,"[(1107, 780)]",[],[1],[0.4166666666666667],horizontal,"(390.0, 762.0)",1.25,0.378,1,3261.8,2
0,239,target,"[(1105, 782)]",[],[1],[0.11666666666666667],horizontal,"(890.0, 762.0)",1.4833333333333334,0.086,0,3267.074,0
0,240,target,"[(1099, 798)]",[],[1],[0.15],horizontal,"(390.0, 762.0)",1.5666666666666667,0.118,0,3271.693,0
0,241,target,"[(1051, 829)]",[],[1],"[0.85, 0.85]",horizontal,"(890.0, 262.0)",0.7166666666666667,"0.801,nan",0,3276.226,0
0,242,target,"[(1043, 803)]",[],[1],[0.6666666666666666],horizontal,"(390.0, 262.0)",0.8166666666666667,0.618,1,3282.506,1
0,243,catch,"[(1086, 787)]",[],[1],[],vertical,"(890.0, 262.0)",1.6,nan,1,3288.443,1
0,244,target,"[(1071, 795)]",[],[1],[0.5166666666666666],vertical,"(890.0, 762.0)",0.75,0.474,1,3293.376,2
0,245,target,"[(1101, 787)]",[],[1],[0.4666666666666667],horizontal,"(390.0, 262.0)",1.1833333333333333,0.427,1,3298.394,2
0,246,target,"[(1090, 793)]",[],[1],[0.5166666666666666],vertical,"(890.0, 762.0)",0.5,0.474,1,3303.447,2
0,247,target,"[(1109, 789)]",[],[1],[0.6833333333333333],horizontal,"(390.0, 762.0)",0.6666666666666666,0.644,1,3308.11,2
0,248,target,"[(1089, 793)]",[],[1],[0.05],horizontal,"(390.0, 762.0)",1.6833333333333333,0.019,0,3312.894,0
0,249,target,"[(1090, 802)]",[],[1],[0.6333333333333333],horizontal,"(890.0, 762.0)",1.1,0.586,1,3317.809,1
0,250,target,"[(1090, 802)]",[],[1],[0.7333333333333333],horizontal,"(890.0, 262.0)",0.5,0.695,1,3323.173,1
0,251,catch,"[(1103, 788)]",[],[1],[],vertical,"(390.0, 262.0)",,"('cti', 1.499),nan",0,3327.564,0
0,252,catch,"[(1100, 787)]",[],[1],[],vertical,"(890.0, 762.0)",,"('cti', 1.455),nan",0,3332.494,0
0,253,catch,"[(1118, 804)]",[],[1],[],horizontal,"(890.0, 762.0)",1.6,nan,1,3337.146,1
0,254,target,"[(1102, 795)]",[],[1],[0.5833333333333334],horizontal,"(890.0, 762.0)",1.1833333333333333,0.547,1,3341.701,1
0,255,target,"[(1114, 801)]",[],[1],[0.7],horizontal,"(390.0, 762.0)",0.7166666666666667,0.658,1,3346.328,2
0,256,target,"[(1076, 807)]",[],[1],[0.5333333333333333],horizontal,"(890.0, 262.0)",0.8333333333333334,0.501,1,3351.315,2
0,257,target,"[(1110, 791)]",[],[1],[0.5166666666666666],horizontal,"(890.0, 262.0)",1.15,0.477,1,3356.085,2
0,258,target,"[(1109, 798)]",[],[1],[0.5333333333333333],vertical,"(890.0, 762.0)",0.6833333333333333,0.5,1,3361.361,2
0,259,target,"[(1087, 792)]",[],[1],[0.55],vertical,"(890.0, 262.0)",0.85,0.507,1,3366.497,3
0,260,target,"[(1097, 789)]",[],[1],[0.5333333333333333],vertical,"(890.0, 262.0)",0.95,0.497,1,3372.344,3
0,261,target,"[(1092, 792)]",[],[1],[0.5166666666666666],horizontal,"(890.0, 262.0)",1.2666666666666666,0.475,1,3377.643,3
0,262,target,"[(1078, 786)]",[],[1],[0.5666666666666667],horizontal,"(390.0, 762.0)",1.1,0.525,1,3383.377,3
0,263,target,"[(1099, 787)]",[],[1],[0.45],horizontal,"(390.0, 262.0)",1.4833333333333334,0.408,1,3388.983,3
0,264,catch,"[(1085, 773)]",[],[1],[],vertical,"(390.0, 262.0)",1.6,nan,1,3394.804,3
0,265,target,"[(1084, 782)]",[],[1],[0.6],vertical,"(390.0, 762.0)",1.3,0.566,1,3400.635,3
0,266,target,"[(1077, 782)]",[],[1],[0.5333333333333333],horizontal,"(890.0, 262.0)",1.3,0.501,1,3406.197,3
0,267,target,"[(1104, 792)]",[],[1],[0.05],horizontal,"(390.0, 262.0)",1.6,0.019,0,3412.159,0
0,268,target,"[(1068, 803)]",[],[1],[0.55],horizontal,"(890.0, 762.0)",1.2833333333333332,0.506,1,3416.889,1
0,269,catch,"[(1107, 782)]",[],[1],[],horizontal,"(890.0, 262.0)",1.6,nan,1,3421.99,1
0,270,target,"[(1103, 797)]",[],[1],[0.5833333333333334],horizontal,"(390.0, 762.0)",0.7666666666666666,0.542,1,3427.167,2
0,271,target,"[(1107, 792)]",[],[1],[0.55],vertical,"(390.0, 262.0)",1.2333333333333334,0.511,1,3432.586,2
0,272,target,"[(1103, 798)]",[],[1],[0.18333333333333332],horizontal,"(890.0, 762.0)",1.6333333333333333,0.148,0,3437.866,0
0,273,catch,"[(1085, 799)]",[],[1],[],vertical,"(390.0, 262.0)",1.6,nan,1,3442.914,1
0,274,target,"[(1108, 782)]",[],[1],[0.5833333333333334],vertical,"(890.0, 262.0)",0.6833333333333333,0.54,1,3447.568,1
0,275,target,"[(1078, 808)]",[],[1],[0.23333333333333334],horizontal,"(890.0, 762.0)",1.6833333333333333,0.196,0,3451.845,0
0,276,target,"[(1104, 787)]",[],[1],[0.6333333333333333],vertical,"(390.0, 762.0)",0.7333333333333333,0.6,1,3456.611,1
0,277,target,"[(1104, 782)]",[],[1],[0.48333333333333334],horizontal,"(890.0, 762.0)",1.45,0.444,1,3460.926,1
0,278,target,"[(1085, 786)]",[],[1],[0.5833333333333334],horizontal,"(890.0, 262.0)",0.75,0.548,1,3466.033,2
0,279,catch,"[(1104, 792)]",[],[1],[],vertical,"(390.0, 762.0)",1.6,nan,1,3470.875,2
0,280,target,"[(1098, 805)]",[],[1],[0.6166666666666667],horizontal,"(390.0, 762.0)",1.0166666666666666,0.573,1,3475.986,2
0,281,target,"[(1110, 792)]",[],[1],[0.35],vertical,"(390.0, 762.0)",1.3333333333333333,0.311,1,3481.546,2
0,282,catch,"[(1081, 798)]",[],[1],[],vertical,"(390.0, 262.0)",1.6,nan,1,3487.099,3
0,283,target,"[(1126, 792)]",[],[1],[0.5833333333333334],vertical,"(390.0, 262.0)",0.5666666666666667,0.545,1,3492.866,3
0,284,target,"[(1066, 791)]",[],[1],[0.6666666666666666],horizontal,"(890.0, 762.0)",0.55,0.622,1,3497.882,3
0,285,target,"[(1104, 796)]",[],[1],[0.85],vertical,"(890.0, 762.0)",0.6166666666666667,nan,0,3503.41,0
0,286,target,"[(1086, 807)]",[],[1],[0.6166666666666667],horizontal,"(390.0, 262.0)",0.6166666666666667,0.576,1,3507.827,1
0,287,target,"[(1108, 796)]",[],[1],[0.4666666666666667],vertical,"(890.0, 262.0)",1.15,0.428,1,3512.597,1
0,288,target,"[(1098, 796)]",[],[1],[0.7],horizontal,"(390.0, 762.0)",0.6333333333333333,0.658,1,3517.861,2
0,289,target,"[(1108, 773)]",[],[1],[0.43333333333333335],vertical,"(890.0, 262.0)",1.35,0.4,1,3522.816,2
0,290,target,"[(1095, 792)]",[],[1],[0.5833333333333334],horizontal,"(890.0, 762.0)",0.65,0.543,1,3528.228,2
0,291,target,"[(1100, 791)]",[],[1],[0.65],horizontal,"(890.0, 762.0)",0.5333333333333333,0.608,1,3533.462,2
0,292,target,"[(1085, 783)]",[],[1],[0.55],vertical,"(390.0, 262.0)",1.0666666666666667,0.512,1,3538.344,3
0,293,target,"[(1101, 802)]",[],[1],[0.5833333333333334],vertical,"(890.0, 262.0)",1.2833333333333332,0.54,1,3543.812,3
0,294,target,"[(1103, 798)]",[],[1],[0.5666666666666667],vertical,"(390.0, 262.0)",1.2166666666666666,0.526,1,3549.563,3
0,295,target,"[(1109, 797)]",[],[1],[0.5833333333333334],horizontal,"(390.0, 762.0)",0.5,0.545,1,3555.711,3
0,296,target,"[(1072, 802)]",[],[1],[0.6166666666666667],horizontal,"(390.0, 762.0)",0.8666666666666667,0.577,1,3560.744,3
0,297,target,"[(1076, 794)]",[],[1],[0.21666666666666667],vertical,"(890.0, 762.0)",1.4666666666666666,0.186,0,3566.483,0
0,298,target,"[(1093, 808)]",[],[1],[0.55],vertical,"(390.0, 262.0)",0.8,0.514,1,3571.44,1
0,299,catch,"[(1097, 795)]",[],[1],[],horizontal,"(890.0, 762.0)",1.6,nan,1,3576.353,1
0,300,catch,"[(1106, 779)]",[],[1],[],horizontal,"(390.0, 262.0)",1.6,"('cti', 1.601),nan",0,3581.739,0
0,301,target,"[(1098, 792)]",[],[1],[0.5666666666666667],vertical,"(890.0, 262.0)",0.8166666666666667,0.523,1,3586.239,1
0,302,target,"[(1119, 782)]",[],[1],[0.4],horizontal,"(890.0, 262.0)",1.55,0.366,1,3590.712,1
0,303,target,"[(1076, 797)]",[],[1],[0.5666666666666667],horizontal,"(390.0, 762.0)",0.9,0.525,1,3596.11,2
0,304,target,"[(1101, 768)]",[],[1],[0.85],horizontal,"(390.0, 262.0)",0.7833333333333333,nan,0,3601.268,0
0,305,target,"[(1073, 795)]",[],[1],[0.55],horizontal,"(390.0, 262.0)",1.1833333333333333,0.508,1,3605.628,1
0,306,target,"[(1105, 779)]",[],[1],[0.65],horizontal,"(390.0, 262.0)",1.2333333333333334,0.612,1,3610.843,1
0,307,target,"[(1077, 772)]",[],[1],[0.6333333333333333],vertical,"(390.0, 262.0)",0.9833333333333333,0.588,1,3615.84,2
0,308,target,"[(1102, 774)]",[],[1],[0.6],horizontal,"(890.0, 262.0)",0.6166666666666667,0.556,1,3621.261,2
0,309,target,"[(1105, 782)]",[],[1],[0.5166666666666666],vertical,"(390.0, 262.0)",0.9,0.477,1,3625.879,2
0,310,target,"[(1095, 795)]",[],[1],[0.25],horizontal,"(890.0, 262.0)",1.3666666666666667,0.213,1,3630.628,2
0,311,target,"[(1095, 786)]",[],[1],[0.5],vertical,"(890.0, 262.0)",1.55,0.462,1,3636.228,3
0,312,target,"[(1095, 792)]",[],[1],[0.5833333333333334],vertical,"(390.0, 262.0)",0.8,0.544,1,3642.715,3
0,313,target,"[(1093, 778)]",[],[1],[0.05],vertical,"(390.0, 262.0)",1.5166666666666666,0.019,0,3648.139,0
0,314,catch,"[(1061, 803)]",[],[1],[],horizontal,"(390.0, 762.0)",1.6,nan,1,3652.962,1
0,315,catch,"[(1087, 790)]",[],[1],[],horizontal,"(390.0, 762.0)",1.6,nan,1,3660.733,1
0,316,target,"[(1119, 802)]",[],[1],[0.6833333333333333],vertical,"(890.0, 762.0)",0.8333333333333334,0.639,1,3665.762,2
0,317,target,"[(1104, 759)]",[],[1],[0.45],vertical,"(390.0, 262.0)",1.35,0.415,1,3671.29,2
0,318,target,"[(1123, 795)]",[],[1],[0.5333333333333333],vertical,"(890.0, 762.0)",1.0166666666666666,0.49,1,3676.447,2
0,319,target,"[(1123, 792)]",[],[1],[0.5333333333333333],vertical,"(390.0, 262.0)",0.85,0.495,1,3681.789,2
0,320,target,"[(1100, 795)]",[],[1],[],horizontal,"(890.0, 262.0)",,"('cti', 1.538)",0,3686.682,0
0,321,target,"[(1080, 789)]",[],[1],[0.5833333333333334],vertical,"(890.0, 262.0)",0.7833333333333333,0.547,1,3691.414,1
0,322,target,"[(1107, 802)]",[],[1],[0.26666666666666666],horizontal,"(390.0, 262.0)",1.5666666666666667,0.228,1,3695.653,1
0,323,target,"[(1081, 787)]",[],[1],[0.55],horizontal,"(390.0, 262.0)",1.0833333333333333,0.511,1,3701.011,2
0,324,target,"[(1108, 799)]",[],[1],[0.6333333333333333],horizontal,"(390.0, 262.0)",0.6166666666666667,0.599,1,3706.199,2
0,325,target,"[(1096, 786)]",[],[1],[0.85],vertical,"(390.0, 262.0)",0.5833333333333334,nan,0,3710.975,0
0,326,target,"[(1070, 793)]",[],[1],[0.6],vertical,"(390.0, 762.0)",0.9,0.561,1,3715.092,1
0,327,target,"[(1097, 798)]",[],[1],[0.7833333333333333],vertical,"(390.0, 762.0)",0.9166666666666666,0.743,1,3719.813,1
0,328,target,"[(1109, 793)]",[],[1],[0.4],vertical,"(390.0, 262.0)",1.4333333333333333,0.365,1,3724.896,2
0,329,target,"[(1116, 795)]",[],[1],[0.45],vertical,"(890.0, 262.0)",1.5,0.413,1,3730.537,2
0,330,target,"[(1105, 800)]",[],[1],[0.5166666666666666],horizontal,"(390.0, 762.0)",0.9,0.483,1,3736.007,2
0,331,catch,"[(1086, 779)]",[],[1],[],horizontal,"(890.0, 262.0)",1.6,nan,1,3740.916,2
0,332,target,"[(1105, 787)]",[],[1],[0.6666666666666666],horizontal,"(390.0, 762.0)",0.9666666666666667,0.629,1,3745.979,3
0,333,target,"[(1103, 793)]",[],[1],[0.6166666666666667],horizontal,"(890.0, 262.0)",1.0666666666666667,0.578,1,3752.061,3
0,334,target,"[(1093, 791)]",[],[1],[0.5333333333333333],horizontal,"(890.0, 262.0)",0.75,0.493,1,3757.865,3
0,335,target,"[(1104, 795)]",[],[1],[0.3833333333333333],horizontal,"(390.0, 762.0)",1.4833333333333334,0.344,1,3763.007,3
0,336,target,"[(1098, 793)]",[],[1],[0.85],vertical,"(890.0, 762.0)",0.5666666666666667,nan,0,3769.245,0
0,337,target,"[(1090, 792)]",[],[1],[0.2833333333333333],horizontal,"(390.0, 262.0)",1.4333333333333333,0.246,1,3773.662,1
0,338,target,"[(1086, 779)]",[],[1],[0.3],vertical,"(390.0, 262.0)",1.6166666666666667,0.264,1,3778.913,1
0,339,target,"[(1123, 777)]",[],[1],[0.7333333333333333],horizontal,"(890.0, 762.0)",1.0,0.689,1,3783.929,2
0,340,target,"[(1077, 786)]",[],[1],[0.7333333333333333],vertical,"(390.0, 262.0)",1.0333333333333332,0.689,1,3788.963,2
0,341,target,"[(1105, 788)]",[],[1],[0.65],horizontal,"(390.0, 262.0)",0.7166666666666667,0.603,1,3794.563,2
0,342,catch,"[(1113, 780)]",[],[1],[],horizontal,"(390.0, 762.0)",1.6,nan,1,3799.566,2
0,343,target,"[(1100, 778)]",[],[1],[0.23333333333333334],vertical,"(890.0, 262.0)",1.5333333333333332,0.199,0,3804.663,0
0,344,target,"[(1078, 786)]",[],[1],[0.75],vertical,"(890.0, 762.0)",1.05,0.705,1,3809.521,1
0,345,target,"[(1108, 753), (1075, 790)]",[],"[0, 1]",[0.6333333333333333],horizontal,"(890.0, 262.0)",0.7166666666666667,0.593,1,3814.646,1
0,346,target,"[(1114, 782)]",[],[1],[0.5],horizontal,"(390.0, 262.0)",1.4666666666666666,0.455,1,3820.776,2
0,347,target,"[(1101, 801)]",[],[1],[0.5333333333333333],vertical,"(890.0, 762.0)",0.7166666666666667,0.501,1,3826.429,2
0,348,target,"[(1107, 786)]",[],[1],[0.23333333333333334],horizontal,"(890.0, 762.0)",1.5666666666666667,0.202,1,3831.996,2
0,349,target,"[(1105, 796)]",[],[1],[0.4666666666666667],horizontal,"(390.0, 262.0)",1.15,0.424,1,3837.487,2
0,350,target,"[(1088, 782)]",[],[1],[0.6333333333333333],vertical,"(390.0, 262.0)",0.6,0.589,1,3844.613,3
0,351,catch,"[(1074, 787)]",[],[1],[],horizontal,"(890.0, 262.0)",1.6,nan,1,3850.037,3
0,352,target,"[(1104, 778)]",[],[1],[0.18333333333333332],vertical,"(890.0, 762.0)",1.6666666666666667,0.152,0,3855.659,0
0,353,catch,"[(1085, 791)]",[],[1],[],vertical,"(390.0, 262.0)",1.6,nan,1,3860.379,1
0,354,target,"[(1100, 787)]",[],[1],[0.2],horizontal,"(390.0, 262.0)",1.65,0.17,0,3865.03,0
0,355,target,"[(1103, 780)]",[],[1],[0.48333333333333334],horizontal,"(390.0, 762.0)",1.0666666666666667,0.442,1,3869.98,1
0,356,target,"[(1119, 773)]",[],[1],[0.06666666666666667],vertical,"(390.0, 262.0)",1.6833333333333333,0.036,0,3874.988,0
0,357,target,"[(1077, 785)]",[],[1],[0.43333333333333335],horizontal,"(390.0, 762.0)",1.4166666666666667,0.393,1,3879.923,1
0,358,catch,"[(1093, 789)]",[],[1],[],vertical,"(390.0, 762.0)",1.6,nan,1,3885.141,1
0,359,target,"[(1080, 802)]",[],[1],[0.5666666666666667],horizontal,"(390.0, 262.0)",0.7166666666666667,0.523,1,3890.029,2
0,360,target,"[(1121, 811)]",[],[1],[0.11666666666666667],horizontal,"(390.0, 762.0)",1.6666666666666667,0.083,0,3895.242,0
0,361,target,"[(1072, 798)]",[],[1],[0.55],horizontal,"(890.0, 262.0)",0.95,0.506,1,3900.229,1
0,362,target,"[(1100, 799)]",[],[1],[0.65],horizontal,"(390.0, 262.0)",0.8833333333333333,0.615,1,3904.983,1
0,363,target,"[(1104, 800)]",[],[1],[0.4166666666666667],horizontal,"(890.0, 262.0)",1.4833333333333334,0.374,1,3910.214,2
0,364,target,"[(1105, 792)]",[],[1],[0.55],vertical,"(890.0, 262.0)",0.7333333333333333,0.505,1,3915.734,2
0,365,target,"[(1106, 788)]",[],[1],[0.5166666666666666],horizontal,"(390.0, 262.0)",0.95,0.475,1,3920.464,2
0,366,target,"[(1110, 781)]",[],[1],[0.5666666666666667],vertical,"(390.0, 762.0)",0.8333333333333334,0.527,1,3925.853,2
0,367,target,"[(1086, 783)]",[],[1],[0.6166666666666667],horizontal,"(890.0, 262.0)",0.5,0.572,1,3930.555,3
0,368,target,"[(1114, 782)]",[],[1],[0.5666666666666667],horizontal,"(390.0, 762.0)",0.8,0.521,1,3935.969,3
0,369,catch,"[(1107, 784)]",[],[1],[],horizontal,"(390.0, 262.0)",1.6,nan,1,3941.291,3
0,370,target,"[(1108, 798)]",[],[1],[0.5666666666666667],horizontal,"(390.0, 762.0)",0.7166666666666667,0.525,1,3946.716,3
0,371,target,"[(1071, 774)]",[],[1],[0.6166666666666667],vertical,"(890.0, 262.0)",0.9166666666666666,0.573,1,3952.104,3
0,372,target,"[(1104, 779)]",[],[1],[0.2833333333333333],horizontal,"(890.0, 762.0)",1.45,0.244,1,3957.476,3
0,373,target,"[(1080, 809)]",[],[1],[0.48333333333333334],vertical,"(890.0, 262.0)",1.6166666666666667,0.44,1,3962.998,3
0,374,target,"[(1076, 787)]",[],[1],[0.1],horizontal,"(390.0, 762.0)",1.4,0.068,0,3968.885,0
0,375,target,"[(1095, 798)]",[],[1],[0.18333333333333332],vertical,"(390.0, 762.0)",1.5833333333333333,0.153,0,3973.306,0
0,376,target,"[(1085, 781)]",[],[1],[0.5833333333333334],vertical,"(390.0, 762.0)",0.8666666666666667,0.541,1,3978.43,1
0,377,target,"[(1103, 772)]",[],[1],[0.5833333333333334],horizontal,"(390.0, 762.0)",1.0666666666666667,0.535,1,3983.047,1
0,378,target,"[(1109, 777)]",[],[1],[0.31666666666666665],vertical,"(890.0, 262.0)",1.35,0.283,1,3987.98,2
0,379,target,"[(1091, 780)]",[],[1],[0.85],horizontal,"(390.0, 762.0)",0.5166666666666666,nan,0,3993.525,0
0,380,target,"[(1086, 782)]",[],[1],[0.5333333333333333],vertical,"(390.0, 262.0)",0.5833333333333334,0.492,1,3998.198,1
0,381,catch,"[(1120, 786)]",[],[1],[],horizontal,"(890.0, 262.0)",1.6,nan,1,4002.712,1
0,382,target,"[(1099, 797)]",[],[1],[0.2],vertical,"(390.0, 762.0)",1.5666666666666667,0.17,0,4007.948,0
0,383,target,"[(1116, 802)]",[],[1],[0.5333333333333333],horizontal,"(390.0, 762.0)",1.0666666666666667,0.495,1,4012.942,1
0,384,target,"[(1102, 772)]",[],[1],[],horizontal,"(390.0, 762.0)",,"('cti', 1.438)",0,4017.846,0
0,385,catch,"[(1097, 795)]",[],[1],[0.03333333333333333],horizontal,"(390.0, 762.0)",1.6,"0.019,nan",0,4022.283,0
0,386,target,"[(1101, 800)]",[],[1],[0.4],horizontal,"(890.0, 762.0)",1.3333333333333333,0.36,1,4026.682,1
0,387,target,"[(1092, 780)]",[],[1],[0.55],vertical,"(390.0, 762.0)",0.6833333333333333,0.508,1,4031.641,1
0,388,target,"[(1104, 784)]",[],[1],[0.5],horizontal,"(890.0, 262.0)",0.8,0.462,1,4036.363,2
0,389,target,"[(1120, 780)]",[],[1],[0.4],horizontal,"(390.0, 262.0)",1.3166666666666667,0.357,1,4041.78,2
0,390,catch,"[(1104, 785)]",[],[1],[],horizontal,"(390.0, 262.0)",,"('cti', 1.222),nan",0,4046.833,0
0,391,target,"[(1102, 791)]",[],[1],[0.18333333333333332],vertical,"(890.0, 762.0)",1.5666666666666667,0.149,0,4051.213,0
0,392,target,"[(1083, 809)]",[],[1],[0.5],horizontal,"(890.0, 262.0)",1.4666666666666666,0.458,1,4055.859,1
0,393,target,"[(1120, 782)]",[],[1],[0.5333333333333333],vertical,"(390.0, 262.0)",0.5,0.492,1,4061.351,1
0,394,target,"[(1090, 776)]",[],[1],[0.48333333333333334],vertical,"(890.0, 762.0)",1.3833333333333333,0.441,1,4066.004,2
0,395,target,"[(1100, 782)]",[],[1],[0.55],horizontal,"(390.0, 762.0)",1.0333333333333332,0.511,1,4071.399,2
0,396,target,"[(1088, 800)]",[],[1],[0.7166666666666667],horizontal,"(890.0, 262.0)",0.5833333333333334,0.672,1,4076.563,2
0,397,target,"[(1100, 793)]",[],[1],[0.1],horizontal,"(890.0, 762.0)",1.2833333333333332,0.07,0,4081.559,0
0,398,target,"[(1108, 792)]",[],[1],[0.6333333333333333],vertical,"(390.0, 262.0)",1.0833333333333333,0.585,1,4086.347,1
0,399,target,"[(1118, 793)]",[],[1],[0.43333333333333335],vertical,"(390.0, 762.0)",1.3,0.392,1,4091.267,1
0,400,target,"[(1110, 772)]",[],[1],[],horizontal,"(390.0, 262.0)",,"('cti', 1.557)",0,4096.197,0
0,401,target,"[(1111, 786)]",[],[1],[0.85],horizontal,"(390.0, 762.0)",1.65,"('cti', 1.634),nan",0,4100.851,0
0,402,target,"[(1093, 797)]",[],[1],[0.43333333333333335],horizontal,"(890.0, 262.0)",0.85,0.395,1,4106.134,1
0,403,target,"[(1114, 782)]",[],[1],[0.7],vertical,"(390.0, 762.0)",0.5666666666666667,0.669,1,4110.685,1
0,404,target,"[(1103, 796)]",[],[1],[0.31666666666666665],horizontal,"(390.0, 262.0)",1.3,0.281,1,4115.047,2
0,405,target,"[(1108, 783)]",[],[1],[0.5333333333333333],vertical,"(890.0, 762.0)",1.35,0.491,1,4120.53,2
0,406,target,"[(1105, 782)]",[],[1],[0.13333333333333333],horizontal,"(390.0, 762.0)",1.5833333333333333,0.1,0,4126.256,0
0,407,target,"[(1082, 779)]",[],[1],[0.5],horizontal,"(390.0, 762.0)",1.6166666666666667,0.455,1,4130.955,1
0,408,target,"[(1105, 783)]",[],[1],[0.6333333333333333],vertical,"(890.0, 262.0)",1.15,0.586,1,4135.927,1
0,409,target,"[(1124, 787)]",[],[1],[0.5166666666666666],vertical,"(890.0, 262.0)",0.9666666666666667,0.475,1,4140.581,2
0,410,catch,"[(1100, 787)]",[],[1],[],horizontal,"(890.0, 262.0)",1.6,nan,1,4145.998,2
0,411,target,"[(1109, 783)]",[],[1],[0.6166666666666667],horizontal,"(890.0, 262.0)",1.35,0.569,1,4151.376,2
0,412,target,"[(1106, 784)]",[],[1],[0.23333333333333334],vertical,"(390.0, 762.0)",1.65,0.194,0,4156.761,0
0,413,target,"[(1085, 783)]",[],[1],[0.5],vertical,"(390.0, 762.0)",1.25,0.456,1,4161.535,1
0,414,target,"[(1103, 784)]",[],[1],[0.6],vertical,"(390.0, 762.0)",1.0333333333333332,0.557,1,4166.632,1
0,415,target,"[(1113, 791)]",[],[1],[0.5333333333333333],vertical,"(890.0, 262.0)",1.1833333333333333,0.486,1,4171.305,2
0,416,target,"[(1110, 774)]",[],[1],[0.55],vertical,"(890.0, 762.0)",0.9166666666666666,0.508,1,4177.147,2
0,417,target,"[(1126, 791)]",[],[1],[0.6],vertical,"(890.0, 762.0)",1.1666666666666667,0.557,1,4182.608,2
0,418,target,"[(1102, 782)]",[],[1],[0.45],vertical,"(890.0, 762.0)",1.35,0.41,1,4188.431,2
0,419,target,"[(1108, 782)]",[],[1],[0.5166666666666666],vertical,"(390.0, 762.0)",1.4,0.475,1,4193.846,3
0,420,catch,"[(1097, 796)]",[],[1],[],vertical,"(390.0, 762.0)",1.6,nan,1,4199.909,3
0,421,target,"[(1101, 817)]",[],[1],[0.7333333333333333],horizontal,"(390.0, 262.0)",0.75,0.683,1,4205.757,3
0,422,catch,"[(1104, 797)]",[],[1],[],horizontal,"(390.0, 762.0)",,"('cti', 1.165),nan",0,4211.519,0
0,423,target,"[(1081, 787)]",[],[1],[0.4166666666666667],horizontal,"(890.0, 762.0)",1.2166666666666666,0.378,1,4215.782,1
0,424,target,"[(1081, 798)]",[],[1],[0.21666666666666667],vertical,"(390.0, 762.0)",1.5333333333333332,0.179,0,4221.091,0
0,425,target,"[(1104, 794)]",[],[1],[0.45],horizontal,"(890.0, 762.0)",1.2666666666666666,0.412,1,4225.627,1
0,426,catch,"[(1105, 785)]",[],[1],[],horizontal,"(390.0, 762.0)",1.6,nan,1,4230.65,1
0,427,target,"[(1110, 781)]",[],[1],[0.5166666666666666],horizontal,"(390.0, 262.0)",0.9,0.483,1,4235.918,2
0,428,target,"[(1103, 781)]",[],[1],[0.6],vertical,"(390.0, 762.0)",0.8166666666666667,0.558,1,4240.765,2
0,429,target,"[(1108, 780)]",[],[1],[0.65],horizontal,"(390.0, 262.0)",0.7333333333333333,0.603,1,4245.597,2
0,430,target,"[(1104, 772)]",[],[1],[0.6333333333333333],horizontal,"(390.0, 762.0)",0.6333333333333333,0.591,1,4250.499,2
0,431,target,"[(1106, 789)]",[],[1],[0.6166666666666667],horizontal,"(890.0, 762.0)",0.9833333333333333,0.582,1,4255.519,3
0,432,target,"[(1104, 782)]",[],[1],[0.55],horizontal,"(890.0, 262.0)",0.95,0.51,1,4261.144,3
0,433,catch,"[(1108, 781)]",[],[1],[],horizontal,"(390.0, 262.0)",1.6,nan,1,4266.625,3
0,434,target,"[(1095, 784)]",[],[1],[0.5333333333333333],horizontal,"(890.0, 262.0)",0.8833333333333333,0.491,1,4272.248,3
0,435,target,"[(1098, 796)]",[],[1],[0.6333333333333333],horizontal,"(890.0, 762.0)",1.15,0.587,1,4277.974,3
0,436,target,"[(1079, 789)]",[],[1],[0.7666666666666666],vertical,"(390.0, 262.0)",0.95,0.724,1,4283.923,3
0,437,target,"[(1104, 785)]",[],[1],[0.65],vertical,"(890.0, 762.0)",0.6833333333333333,0.605,1,4290.118,3
0,438,target,"[(1087, 786)]",[],[1],[0.85],vertical,"(890.0, 762.0)",0.5166666666666666,nan,0,4295.358,0
0,439,target,"[(1061, 796)]",[],[1],[0.85],horizontal,"(890.0, 762.0)",0.6333333333333333,nan,0,4299.762,0
0,440,target,"[(1070, 787)]",[],[1],[0.13333333333333333],vertical,"(390.0, 762.0)",1.6666666666666667,0.104,0,4304.651,0
0,441,target,"[(1100, 791)]",[],[1],[0.5833333333333334],horizontal,"(890.0, 262.0)",1.0833333333333333,0.541,1,4309.551,1
0,442,catch,"[(1106, 788)]",[],[1],[],horizontal,"(890.0, 262.0)",1.6,nan,1,4314.541,1
0,443,target,"[(1110, 782)]",[],[1],[0.5666666666666667],vertical,"(390.0, 762.0)",1.0166666666666666,0.529,1,4319.443,2
0,444,target,"[(1107, 778)]",[],[1],[0.35],horizontal,"(390.0, 762.0)",1.1,0.315,1,4324.398,2
0,445,catch,"[(1109, 791)]",[],[1],[],horizontal,"(890.0, 262.0)",,"('cti', 1.222),nan",0,4330.123,0
0,446,target,"[(1080, 786)]",[],[1],[0.55],vertical,"(890.0, 762.0)",1.3,0.515,1,4334.358,1
0,447,target,"[(1110, 791)]",[],[1],[0.16666666666666666],horizontal,"(390.0, 262.0)",1.6833333333333333,0.136,0,4339.215,0
0,448,catch,"[(1079, 792)]",[],[1],[],vertical,"(390.0, 262.0)",1.6,nan,1,4344.333,1
0,449,target,"[(1130, 783)]",[],[1],[],vertical,"(890.0, 762.0)",,"('cti', 1.376)",0,4349.065,0
0,450,target,"[(1085, 780)]",[],[1],[0.6],horizontal,"(890.0, 762.0)",0.5333333333333333,0.563,1,4353.916,1
0,451,target,"[(1105, 777)]",[],[1],[0.6],horizontal,"(390.0, 762.0)",1.05,0.557,1,4358.506,1
0,452,target,"[(1113, 777)]",[],[1],[0.5],vertical,"(890.0, 262.0)",0.9,0.459,1,4363.082,2
0,453,target,"[(1103, 772)]",[],[1],[0.15],horizontal,"(390.0, 762.0)",0.9833333333333333,0.116,0,4367.902,0
0,454,target,"[(1070, 782)]",[],[1],[],vertical,"(890.0, 262.0)",,"('cti', 1.652)",0,4371.699,0
0,455,target,"[(1077, 785)]",[],[1],[0.48333333333333334],horizontal,"(890.0, 762.0)",1.3666666666666667,0.443,1,4376.599,1
0,456,target,"[(1110, 782)]",[],[1],[0.75],horizontal,"(890.0, 762.0)",1.05,0.704,1,4381.581,1
0,457,target,"[(1108, 783)]",[],[1],[0.6666666666666666],vertical,"(390.0, 762.0)",0.6833333333333333,0.621,1,4386.4,2
0,458,target,"[(1107, 787)]",[],[1],[0.5333333333333333],horizontal,"(390.0, 262.0)",1.1,0.492,1,4391.922,2
0,459,target,"[(1122, 794)]",[],[1],[0.4166666666666667],vertical,"(390.0, 262.0)",1.4666666666666666,0.378,1,4397.082,2
0,460,target,"[(1085, 792)]",[],[1],[0.36666666666666664],horizontal,"(890.0, 262.0)",1.4666666666666666,0.327,1,4402.216,2
0,461,target,"[(1106, 786)]",[],[1],[0.85],vertical,"(390.0, 762.0)",0.5166666666666666,nan,0,4407.773,0
0,462,target,"[(1080, 788)]",[],[1],[0.85],horizontal,"(390.0, 762.0)",0.65,nan,0,4411.833,0
0,463,target,"[(1074, 788)]",[],[1],[0.4],vertical,"(390.0, 762.0)",1.1,0.367,1,4416.167,1
0,464,catch,"[(1083, 775)]",[],[1],[],horizontal,"(890.0, 262.0)",1.6,nan,1,4421.185,1
0,465,target,"[(1107, 781)]",[],[1],[0.6],horizontal,"(390.0, 762.0)",1.2833333333333332,0.557,1,4425.927,2
0,466,target,"[(1128, 783)]",[],[1],[0.6833333333333333],horizontal,"(390.0, 762.0)",0.65,0.641,1,4431.762,2
0,467,target,"[(1109, 782)]",[],[1],[0.85],horizontal,"(390.0, 762.0)",0.5666666666666667,nan,0,4436.817,0
0,468,target,"[(1072, 782)]",[],[1],[0.6],horizontal,"(890.0, 262.0)",0.75,0.556,1,4440.922,1
0,469,target,"[(1107, 762)]",[],[1],[0.5166666666666666],vertical,"(890.0, 262.0)",1.25,0.477,1,4445.75,1
0,470,target,"[(1109, 785)]",[],[1],[0.1],vertical,"(390.0, 762.0)",1.6666666666666667,0.068,0,4450.716,0
0,471,target,"[(1078, 795)]",[],[1],[0.5333333333333333],vertical,"(890.0, 262.0)",0.8666666666666667,0.499,1,4455.616,1
0,472,target,"[(1114, 779)]",[],[1],[0.5333333333333333],horizontal,"(390.0, 762.0)",0.9833333333333333,0.497,1,4460.703,1
0,473,target,"[(1105, 772)]",[],[1],[0.65],horizontal,"(890.0, 262.0)",0.5333333333333333,0.61,1,4465.849,2
0,474,target,"[(1108, 792)]",[],[1],[0.3833333333333333],vertical,"(390.0, 262.0)",1.5333333333333332,0.349,1,4470.855,2
0,475,target,"[(1105, 783)]",[],[1],[0.55],vertical,"(890.0, 262.0)",0.85,0.511,1,4476.316,2
0,476,target,"[(1074, 781)]",[],[1],[0.65],horizontal,"(390.0, 762.0)",0.5166666666666666,0.606,1,4481.061,2
0,477,target,"[(1108, 779)]",[],[1],[0.23333333333333334],horizontal,"(390.0, 762.0)",1.5666666666666667,0.195,0,4485.816,0
0,478,catch,"[(1078, 790)]",[],[1],[],horizontal,"(890.0, 762.0)",1.6,nan,1,4490.581,1
0,479,target,"[(1105, 776)]",[],[1],[0.6333333333333333],horizontal,"(390.0, 262.0)",0.5333333333333333,0.598,1,4496.972,1
0,480,target,"[(1108, 772)]",[],[1],[0.45],horizontal,"(890.0, 262.0)",1.2,0.412,1,4501.566,2
0,481,target,"[(1101, 781)]",[],[1],[0.5333333333333333],vertical,"(890.0, 762.0)",0.8166666666666667,0.494,1,4507.05,2
0,482,target,"[(1088, 769)]",[],[1],[0.5666666666666667],horizontal,"(890.0, 762.0)",1.1166666666666667,0.523,1,4512.349,2
0,483,target,"[(1088, 796)]",[],[1],[],vertical,"(390.0, 262.0)",,"('cti', 1.115)",0,4517.739,0
0,484,target,"[(1085, 794)]",[],[1],[0.6166666666666667],vertical,"(890.0, 762.0)",0.5333333333333333,0.573,1,4521.817,1
0,485,target,"[(1143, 749), (1074, 799)]",[],"[0, 1]",[0.55],horizontal,"(890.0, 762.0)",1.15,0.511,1,4526.416,1
0,486,target,"[(1107, 782)]",[],[1],[0.5333333333333333],vertical,"(390.0, 762.0)",0.7333333333333333,0.496,1,4532.876,2
0,487,target,"[(1117, 785)]",[],[1],[0.3333333333333333],vertical,"(890.0, 262.0)",1.5666666666666667,0.292,1,4537.998,2
0,488,target,"[(1084, 782)]",[],[1],[0.21666666666666667],horizontal,"(390.0, 762.0)",1.4666666666666666,0.178,0,4543.288,0
0,489,target,"[(1090, 787)]",[],[1],[0.5166666666666666],vertical,"(390.0, 262.0)",1.1166666666666667,0.483,1,4547.916,1
0,490,target,"[(1081, 780)]",[],[1],[0.48333333333333334],horizontal,"(390.0, 762.0)",1.2333333333333334,0.441,1,4553.168,1
0,491,catch,"[(1113, 777)]",[],[1],[],vertical,"(390.0, 262.0)",1.6,nan,1,4558.301,2
0,492,catch,"[(1123, 786)]",[],[1],[],vertical,"(390.0, 262.0)",1.6,nan,1,4563.517,2
0,493,target,"[(1128, 789)]",[],[1],[0.6333333333333333],horizontal,"(390.0, 262.0)",0.7166666666666667,0.596,1,4568.593,2
0,494,target,"[(1112, 761)]",[],[1],[0.85],vertical,"(890.0, 762.0)",0.65,nan,0,4573.634,0
0,495,target,"[(1077, 789)]",[],[1],[0.26666666666666666],horizontal,"(390.0, 262.0)",1.5333333333333332,0.231,1,4578.174,1
0,496,catch,"[(1100, 778)]",[],[1],[],vertical,"(390.0, 262.0)",1.6,nan,1,4583.25,1
0,497,target,"[(1100, 775)]",[],[1],[0.6666666666666666],horizontal,"(390.0, 762.0)",0.7833333333333333,0.629,1,4587.916,2
0,498,target,"[(1124, 789)]",[],[1],[0.5166666666666666],vertical,"(890.0, 262.0)",1.2666666666666666,0.48,1,4592.9,2
0,499,target,"[(1110, 786)]",[],[1],[0.5166666666666666],vertical,"(890.0, 762.0)",1.2666666666666666,0.483,1,4598.373,2
0,500,target,"[(1109, 782)]",[],[1],[0.5333333333333333],horizontal,"(890.0, 262.0)",1.1166666666666667,0.495,1,4603.604,2
0,501,target,"[(1111, 780)]",[],[1],[0.4166666666666667],vertical,"(890.0, 262.0)",1.4833333333333334,0.376,1,4608.888,3
0,502,target,"[(1107, 787)]",[],[1],[0.6166666666666667],horizontal,"(890.0, 262.0)",0.6833333333333333,0.572,1,4615.069,3
0,503,target,"[(1109, 775)]",[],[1],[0.5166666666666666],horizontal,"(890.0, 262.0)",1.2333333333333334,0.475,1,4620.527,3
0,504,target,"[(1128, 789)]",[],[1],[0.3833333333333333],horizontal,"(390.0, 762.0)",1.3166666666666667,0.344,1,4626.217,3
0,505,target,"[(1073, 783)]",[],[1],[0.45],horizontal,"(390.0, 762.0)",1.2666666666666666,0.411,1,4631.848,3
0,506,target,"[(1094, 799)]",[],[1],[0.5333333333333333],vertical,"(890.0, 762.0)",1.5666666666666667,0.49,1,4637.685,3
0,507,catch,"[(1098, 793)]",[],[1],[],vertical,"(890.0, 762.0)",1.6,nan,1,4644.201,3
0,508,catch,"[(1088, 782)]",[],[1],[],horizontal,"(390.0, 762.0)",,"('cti', 1.526),nan",0,4649.735,0
0,509,target,"[(1076, 795)]",[],[1],[0.6666666666666666],horizontal,"(890.0, 762.0)",1.1,0.635,1,4654.601,1
0,510,target,"[(1124, 773)]",[],[1],[0.6166666666666667],horizontal,"(390.0, 762.0)",0.6,0.575,1,4659.885,1
0,511,catch,"[(1100, 791)]",[],[1],[],horizontal,"(390.0, 262.0)",1.6,nan,1,4664.031,2
0,512,target,"[(1100, 789)]",[],[1],[0.5166666666666666],vertical,"(390.0, 262.0)",0.75,0.479,1,4669.766,2
0,513,target,"[(1109, 782)]",[],[1],[0.7166666666666667],horizontal,"(390.0, 262.0)",0.8833333333333333,0.676,1,4674.87,2
0,514,target,"[(1111, 776)]",[],[1],[0.55],horizontal,"(890.0, 262.0)",0.8666666666666667,0.508,1,4680.286,2
0,515,catch,"[(1102, 787)]",[],[1],[],vertical,"(390.0, 762.0)",1.6,nan,1,4685.573,3
0,516,target,"[(1091, 789)]",[],[1],[0.15],vertical,"(890.0, 262.0)",1.65,0.116,0,4691.551,0
0,517,target,"[(1075, 792)]",[],[1],[0.7166666666666667],vertical,"(890.0, 762.0)",0.95,0.672,1,4696.452,1
0,518,target,"[(1098, 790)]",[],[1],[0.5166666666666666],vertical,"(890.0, 262.0)",0.9333333333333333,0.478,1,4701.534,1
0,519,target,"[(1108, 789)]",[],[1],[0.6166666666666667],horizontal,"(390.0, 762.0)",0.6166666666666667,0.575,1,4705.985,2
0,520,target,"[(1086, 781)]",[],[1],[0.5333333333333333],vertical,"(390.0, 262.0)",0.7166666666666667,0.495,1,4710.893,2
0,521,catch,"[(1106, 787)]",[],[1],[],vertical,"(390.0, 762.0)",,"('cti', 1.595),nan",0,4715.785,0
0,522,target,"[(1071, 802)]",[],[1],[0.5],vertical,"(890.0, 262.0)",0.8,0.463,1,4720.517,1
0,523,target,"[(1098, 826)]",[],[1],[0.5],vertical,"(890.0, 762.0)",1.2833333333333332,0.467,1,4740.285,1
0,524,target,"[(1098, 798)]",[],[1],[0.5166666666666666],vertical,"(890.0, 762.0)",1.1,0.476,1,4745.354,2
0,525,target,"[(1113, 790)]",[],[1],[0.26666666666666666],horizontal,"(890.0, 262.0)",1.6666666666666667,0.23,1,4750.966,2
0,526,target,"[(1104, 796)]",[],[1],[0.2833333333333333],vertical,"(390.0, 262.0)",1.4,0.251,1,4756.32,2
0,527,target,"[(1111, 772)]",[],[1],[0.21666666666666667],horizontal,"(390.0, 762.0)",1.1166666666666667,0.182,0,4761.819,0
0,528,catch,"[(1111, 791)]",[],[1],[],horizontal,"(390.0, 762.0)",,"('cti', 1.513),nan",0,4766.336,0
0,529,target,"[(1109, 787)]",[],[1],[0.15],vertical,"(390.0, 762.0)",1.6166666666666667,0.12,0,4771.002,0
0,530,target,"[(1104, 786)]",[],[1],[0.08333333333333333],horizontal,"(390.0, 762.0)",1.5166666666666666,0.05,0,4775.402,0
0,531,target,"[(1104, 795)]",[],[1],[0.16666666666666666],horizontal,"(390.0, 762.0)",1.6166666666666667,0.138,0,4779.772,0
0,532,target,"[(1063, 813)]",[],[1],[0.5166666666666666],vertical,"(890.0, 262.0)",1.3333333333333333,0.472,1,4784.568,1
0,533,catch,"[(1127, 786)]",[],[1],[],vertical,"(390.0, 762.0)",1.6,nan,1,4789.636,1
0,534,target,"[(1122, 785)]",[],[1],[0.48333333333333334],vertical,"(890.0, 262.0)",1.6833333333333333,0.445,1,4794.104,2
0,535,target,"[(1124, 797)]",[],[1],[0.4],horizontal,"(890.0, 762.0)",1.3666666666666667,0.36,1,4800.28,2
0,536,target,"[(1113, 784)]",[],[1],[0.5],horizontal,"(890.0, 262.0)",0.9666666666666667,0.459,1,4805.475,2
0,537,target,"[(1122, 783)]",[],[1],[0.26666666666666666],horizontal,"(890.0, 262.0)",1.5833333333333333,0.233,1,4810.662,2
0,538,target,"[(1100, 798)]",[],[1],[0.43333333333333335],horizontal,"(390.0, 762.0)",1.2666666666666666,0.395,1,4816.37,3
0,539,target,"[(1116, 816)]",[],[1],[0.5],vertical,"(390.0, 262.0)",0.9666666666666667,0.457,1,4823.802,3
0,540,target,"[(424, 377), (382, 349), (1100, 804)]",[],"[0, 0, 1]",[0.5666666666666667],vertical,"(390.0, 262.0)",0.7666666666666666,0.53,1,4834.825,3
0,541,target,"[(1088, 796)]",[],[1],[0.6],vertical,"(390.0, 762.0)",0.8,0.56,1,4841.103,3
0,542,target,"[(1097, 810)]",[],[1],[0.48333333333333334],horizontal,"(890.0, 262.0)",1.5,0.444,1,4847.092,3
0,543,target,"[(1110, 813)]",[],[1],[0.5666666666666667],vertical,"(390.0, 762.0)",1.1,0.524,1,4853.586,3
0,544,target,"[(1105, 789)]",[],[1],[0.6166666666666667],vertical,"(890.0, 262.0)",0.5833333333333334,0.574,1,4859.324,3
0,545,target,"[(1101, 798)]",[],[1],[0.5666666666666667],horizontal,"(390.0, 262.0)",0.7333333333333333,0.522,1,4864.407,3
0,546,target,"[(1106, 803)]",[],[1],[0.5666666666666667],horizontal,"(390.0, 262.0)",0.5166666666666666,0.524,1,4870.053,3
0,547,target,"[(1095, 786)]",[],[1],[0.5833333333333334],horizontal,"(390.0, 762.0)",0.8166666666666667,0.541,1,4875.619,3
0,548,target,"[(1108, 772)]",[],[1],[0.4666666666666667],vertical,"(390.0, 762.0)",1.3833333333333333,0.427,1,4881.258,3
0,549,target,"[(1106, 781)]",[],[1],[0.5333333333333333],vertical,"(390.0, 762.0)",0.7,0.492,1,4886.768,3
0,550,target,"[(1109, 786)]",[],[1],[0.11666666666666667],vertical,"(390.0, 762.0)",1.4166666666666667,0.086,0,4892.42,0
0,551,catch,"[(1101, 802)]",[],[1],[],horizontal,"(390.0, 762.0)",1.6,nan,1,4897.37,1
0,552,target,"[(1104, 779)]",[],[1],[0.55],vertical,"(890.0, 762.0)",1.2166666666666666,0.505,1,4901.922,1
0,553,target,"[(1123, 787)]",[],[1],[0.3],vertical,"(390.0, 262.0)",1.6333333333333333,0.266,1,4906.969,2
0,554,catch,"[(1104, 786)]",[],[1],[],horizontal,"(890.0, 262.0)",1.6,nan,1,4912.82,2
0,555,target,"[(1125, 792)]",[],[1],[0.5833333333333334],horizontal,"(890.0, 262.0)",1.1166666666666667,0.546,1,4917.974,2
0,556,target,"[(1113, 778)]",[],[1],[0.4666666666666667],vertical,"(890.0, 262.0)",1.3666666666666667,0.428,1,4923.235,2
0,557,target,"[(1110, 798)]",[],[1],[0.2833333333333333],vertical,"(390.0, 262.0)",1.65,0.25,1,4928.912,3
0,558,catch,"[(1103, 792)]",[],[1],[],horizontal,"(390.0, 262.0)",1.6,nan,1,4934.556,3
0,559,target,"[(1105, 786)]",[],[1],[0.36666666666666664],horizontal,"(390.0, 762.0)",1.4166666666666667,0.328,1,4940.435,3
0,560,catch,"[(1100, 793)]",[],[1],[],vertical,"(890.0, 762.0)",1.6,nan,1,4946.202,3
0,561,target,"[(1113, 794)]",[],[1],[0.5],vertical,"(390.0, 762.0)",1.1833333333333333,0.459,1,4951.825,3
0,562,catch,"[(1104, 790)]",[],[1],[],vertical,"(890.0, 762.0)",1.6,nan,1,4957.425,3
0,563,target,"[(1120, 790)]",[],[1],[0.4666666666666667],horizontal,"(390.0, 762.0)",1.4666666666666666,0.427,1,4963.055,3
0,564,target,"[(1107, 793)]",[],[1],[0.55],vertical,"(890.0, 262.0)",1.1166666666666667,0.512,1,4968.705,3
0,565,target,"[(1093, 807)]",[],[1],[0.6166666666666667],horizontal,"(390.0, 262.0)",1.15,0.571,1,4974.74,3
0,566,target,"[(1106, 788)]",[],[1],[0.55],horizontal,"(890.0, 262.0)",1.3333333333333333,0.508,1,4980.903,3
0,567,target,"[(1104, 786)]",[],[1],[0.6833333333333333],horizontal,"(890.0, 762.0)",0.7833333333333333,0.635,1,4986.499,3
0,568,catch,"[(1123, 781)]",[],[1],[],horizontal,"(890.0, 262.0)",1.6,nan,1,4992.135,3
0,569,target,"[(1109, 777)]",[],[1],[0.6],vertical,"(890.0, 262.0)",0.75,0.554,1,4997.903,3
0,570,target,"[(1113, 795)]",[],[1],[0.5666666666666667],vertical,"(390.0, 262.0)",0.8666666666666667,0.524,1,5003.104,3
0,571,catch,"[(1114, 792)]",[],[1],[],vertical,"(390.0, 762.0)",1.6,nan,1,5008.504,3
0,572,target,"[(1101, 792)]",[],[1],[0.6166666666666667],vertical,"(390.0, 262.0)",1.05,0.589,1,5014.489,3
0,573,target,"[(1101, 783)]",[],[1],[0.6166666666666667],horizontal,"(890.0, 262.0)",1.0333333333333332,0.573,1,5020.166,3
0,574,target,"[(1120, 778)]",[],[1],[0.4],horizontal,"(890.0, 262.0)",1.3166666666666667,0.358,1,5026.269,3
0,575,target,"[(1110, 787)]",[],[1],[0.55],vertical,"(890.0, 262.0)",1.3666666666666667,0.507,1,5032.343,3
0,576,target,"[(1109, 762)]",[],[1],[0.5],vertical,"(890.0, 262.0)",0.9,0.461,1,5038.202,3
0,577,target,"[(1108, 794)]",[],[1],[0.85],horizontal,"(390.0, 262.0)",1.25,nan,0,5043.641,0
0,578,catch,"[(1107, 782)]",[],[1],[],vertical,"(390.0, 762.0)",1.6,nan,1,5048.427,1
0,579,target,"[(1110, 781)]",[],[1],[0.6666666666666666],horizontal,"(390.0, 762.0)",1.0833333333333333,0.617,1,5053.493,1
0,580,target,"[(1106, 781)]",[],[1],[0.75],vertical,"(890.0, 262.0)",0.5,0.705,1,5058.272,2
0,581,target,"[(1125, 787)]",[],[1],[0.55],horizontal,"(890.0, 762.0)",1.2333333333333334,0.504,1,5063.104,2
0,582,target,"[(1107, 776)]",[],[1],[0.5333333333333333],horizontal,"(390.0, 762.0)",0.75,0.487,1,5068.361,2
0,583,target,"[(1122, 777)]",[],[1],[0.5],vertical,"(890.0, 262.0)",1.1666666666666667,0.458,1,5073.502,2
0,584,target,"[(1109, 763)]",[],[1],[0.5666666666666667],vertical,"(890.0, 262.0)",0.8,0.518,1,5079.169,3
0,585,target,"[(1096, 792)]",[],[1],[0.5166666666666666],vertical,"(390.0, 762.0)",1.3,0.474,1,5084.452,3
0,586,target,"[(1110, 790)]",[],[1],[0.7],vertical,"(890.0, 762.0)",0.95,0.651,1,5090.596,3
0,587,target,"[(1090, 778)]",[],[1],[0.6],vertical,"(390.0, 762.0)",0.7333333333333333,0.553,1,5096.785,3
0,588,target,"[(1090, 790)]",[],[1],[0.5333333333333333],vertical,"(390.0, 762.0)",0.8166666666666667,0.491,1,5102.003,3
0,589,target,"[(1098, 778)]",[],[1],[0.5833333333333334],horizontal,"(890.0, 762.0)",1.1666666666666667,0.544,1,5107.604,3
0,590,target,"[(1107, 777)]",[],[1],[0.6333333333333333],vertical,"(390.0, 762.0)",1.1,0.586,1,5113.369,3
0,591,target,"[(1086, 804)]",[],[1],[0.18333333333333332],horizontal,"(890.0, 262.0)",1.3666666666666667,0.149,0,5119.014,0
0,592,catch,"[(1068, 816)]",[],[1],[],vertical,"(890.0, 762.0)",1.6,nan,1,5125.233,1
0,593,target,"[(1109, 781)]",[],[1],[0.65],horizontal,"(390.0, 262.0)",1.15,0.607,1,5131.815,1
0,594,target,"[(1110, 794)]",[],[1],[0.4666666666666667],vertical,"(390.0, 762.0)",1.35,0.426,1,5136.854,2
0,595,target,"[(1126, 770)]",[],[1],[0.35],vertical,"(390.0, 262.0)",1.6833333333333333,0.31,1,5141.987,2
0,596,target,"[(1126, 784)]",[],[1],[0.5166666666666666],horizontal,"(890.0, 262.0)",1.0833333333333333,0.47,1,5147.731,2
0,597,target,"[(1114, 787)]",[],[1],[0.6833333333333333],horizontal,"(390.0, 762.0)",1.05,0.637,1,5153.275,2
0,598,target,"[(1081, 792)]",[],[1],[0.5666666666666667],horizontal,"(390.0, 262.0)",0.7333333333333333,0.522,1,5159.106,3
0,599,target,"[(1104, 804)]",[],[1],[0.85],vertical,"(890.0, 762.0)",0.5,nan,0,5164.803,0
0,600,target,"[(1061, 786)]",[],[1],[0.5166666666666666],horizontal,"(890.0, 262.0)",0.9,0.476,1,5169.035,1
0,601,target,"[(1082, 777)]",[],[1],[0.6],horizontal,"(890.0, 262.0)",1.0333333333333332,0.558,1,5173.728,1
0,602,target,"[(1107, 769)]",[],[1],[0.65],horizontal,"(890.0, 262.0)",1.1,0.612,1,5178.87,2
0,603,target,"[(1085, 794)]",[],[1],[0.7],vertical,"(390.0, 762.0)",0.95,0.65,1,5184.287,2
0,604,target,"[(1085, 782)]",[],[1],[0.7166666666666667],horizontal,"(390.0, 762.0)",0.95,0.67,1,5189.728,2
0,605,target,"[(1106, 778)]",[],[1],[0.16666666666666666],vertical,"(390.0, 762.0)",1.6166666666666667,0.136,0,5195.07,0
0,606,target,"[(1107, 786)]",[],[1],[0.5166666666666666],vertical,"(390.0, 262.0)",1.4833333333333334,0.476,1,5199.494,1
0,607,target,"[(1109, 783)]",[],[1],[0.48333333333333334],vertical,"(390.0, 762.0)",1.6666666666666667,0.442,1,5204.302,1
0,608,target,"[(1073, 792)]",[],[1],[0.5833333333333334],vertical,"(890.0, 762.0)",1.1,0.543,1,5209.829,2
0,609,target,"[(1100, 787)]",[],[1],[0.3333333333333333],horizontal,"(890.0, 762.0)",1.5333333333333332,0.294,1,5215.506,2
0,610,target,"[(1100, 780)]",[],[1],[0.5166666666666666],horizontal,"(890.0, 262.0)",0.6833333333333333,0.477,1,5220.756,2
0,611,catch,"[(1105, 796)]",[],[1],[],horizontal,"(890.0, 262.0)",,"('cti', 1.487),nan",0,5225.25,0
0,612,target,"[(1065, 803)]",[],[1],[0.6166666666666667],vertical,"(390.0, 262.0)",0.5166666666666666,0.576,1,5230.164,1
0,613,catch,"[(1119, 779)]",[],[1],[],vertical,"(390.0, 262.0)",1.6,nan,1,5235.642,1
0,614,target,"[(1075, 789)]",[],[1],[0.5],horizontal,"(890.0, 762.0)",1.2666666666666666,0.457,1,5240.82,2
0,615,target,"[(1142, 770)]",[],[1],[0.7166666666666667],vertical,"(390.0, 762.0)",1.0,0.671,1,5246.556,2
0,616,target,"[(1107, 785)]",[],[1],[0.55],vertical,"(390.0, 762.0)",0.9833333333333333,0.508,1,5251.864,2
0,617,target,"[(1114, 766)]",[],[1],[0.5833333333333334],vertical,"(390.0, 762.0)",1.15,0.541,1,5257.405,2
0,618,target,"[(1109, 787)]",[],[1],[0.65],vertical,"(890.0, 762.0)",1.1166666666666667,0.607,1,5262.974,3
0,619,target,"[(1082, 777)]",[],[1],[0.6],horizontal,"(890.0, 762.0)",0.8333333333333334,0.553,1,5268.771,3
0,620,catch,"[(1125, 774)]",[],[1],[],vertical,"(390.0, 762.0)",1.6,nan,1,5274.128,3
0,621,target,"[(1107, 782)]",[],[1],[0.5666666666666667],horizontal,"(890.0, 262.0)",1.0333333333333332,0.522,1,5279.988,3
0,622,target,"[(1113, 786)]",[],[1],[0.5333333333333333],vertical,"(890.0, 262.0)",1.5666666666666667,0.488,1,5285.755,3
0,623,target,"[(1124, 794)]",[],[1],[0.5333333333333333],vertical,"(890.0, 762.0)",1.1333333333333333,0.492,1,5291.804,3
0,624,target,"[(1109, 780)]",[],[1],[0.6166666666666667],vertical,"(390.0, 762.0)",1.2,0.57,1,5297.22,3
0,625,target,"[(1100, 795)]",[],[1],[0.5333333333333333],vertical,"(390.0, 762.0)",1.3333333333333333,0.494,1,5303.088,3
0,626,target,"[(1101, 797)]",[],[1],[0.43333333333333335],horizontal,"(390.0, 762.0)",1.1833333333333333,0.395,1,5309.144,3
0,627,target,"[(1116, 783)]",[],[1],[0.55],horizontal,"(390.0, 262.0)",0.8,0.522,1,5315.154,3
0,628,target,"[(1094, 788)]",[],[1],[0.5166666666666666],horizontal,"(890.0, 762.0)",1.4166666666666667,0.475,1,5320.824,3
0,629,target,"[(1112, 786)]",[],[1],[0.4666666666666667],horizontal,"(390.0, 262.0)",1.5,0.428,1,5326.449,3
0,630,target,"[(1105, 785)]",[],[1],[0.7833333333333333],vertical,"(390.0, 262.0)",0.9666666666666667,0.739,1,5332.254,3
0,631,target,"[(1109, 753), (1099, 826)]",[],"[0, 1]",[0.5666666666666667],vertical,"(390.0, 762.0)",0.55,0.525,1,5337.871,3
0,632,target,"[(1122, 782)]",[],[1],[0.5666666666666667],horizontal,"(890.0, 762.0)",1.0333333333333332,0.52,1,5344.704,3
0,633,target,"[(1092, 797)]",[],[1],[0.5333333333333333],vertical,"(390.0, 262.0)",0.7,0.496,1,5350.653,3
0,634,target,"[(1073, 792)]",[],[1],[0.85],vertical,"(890.0, 262.0)",0.5,nan,0,5356.188,0
0,635,target,"[(1066, 778)]",[],[1],[0.5333333333333333],vertical,"(390.0, 262.0)",0.9166666666666666,0.492,1,5360.248,1
0,636,target,"[(1103, 777)]",[],[1],[0.7666666666666666],horizontal,"(390.0, 762.0)",1.0333333333333332,0.721,1,5365.271,1
0,637,catch,"[(1082, 778)]",[],[1],[],vertical,"(890.0, 762.0)",1.6,nan,1,5370.139,2
0,638,target,"[(1080, 781)]",[],[1],[0.85],vertical,"(390.0, 762.0)",0.6166666666666667,nan,0,5375.755,0
0,639,target,"[(1080, 791)]",[],[1],[0.3333333333333333],vertical,"(890.0, 762.0)",1.4,0.298,1,5380.432,1
0,640,target,"[(1113, 786)]",[],[1],[0.85],vertical,"(390.0, 762.0)",1.2833333333333332,nan,0,5385.57,0
0,641,target,"[(1095, 798)]",[],[1],[0.6333333333333333],vertical,"(390.0, 762.0)",1.4333333333333333,0.588,1,5390.814,1
0,642,catch,"[(1115, 782)]",[],[1],[],horizontal,"(890.0, 762.0)",1.6,nan,1,5395.854,1
0,643,target,"[(1071, 785)]",[],[1],[0.4666666666666667],vertical,"(390.0, 262.0)",1.2,0.428,1,5400.62,2
0,644,target,"[(1113, 792)]",[],[1],[0.75],vertical,"(390.0, 762.0)",0.6666666666666666,0.708,1,5406.234,2
0,645,target,"[(1107, 786)]",[],[1],[0.4166666666666667],horizontal,"(890.0, 262.0)",1.5,0.385,1,5411.389,2
0,646,target,"[(1108, 780)]",[],[1],[0.6],horizontal,"(890.0, 762.0)",1.25,0.56,1,5417.105,2
0,647,target,"[(1105, 789)]",[],[1],[0.6],vertical,"(390.0, 262.0)",1.35,0.562,1,5422.406,3
0,648,target,"[(1100, 793)]",[],[1],[0.6833333333333333],vertical,"(890.0, 762.0)",0.55,0.64,1,5428.256,3
0,649,target,"[(1100, 778)]",[],[1],[0.36666666666666664],vertical,"(890.0, 762.0)",1.3833333333333333,0.326,1,5433.772,3
0,650,target,"[(1102, 793)]",[],[1],[0.5666666666666667],vertical,"(390.0, 762.0)",0.5833333333333334,0.524,1,5439.227,3
0,651,target,"[(1075, 786)]",[],[1],[0.13333333333333333],vertical,"(390.0, 262.0)",1.65,0.1,0,5444.468,0
0,652,target,"[(1107, 779)]",[],[1],[0.6333333333333333],horizontal,"(390.0, 262.0)",1.2833333333333332,0.596,1,5449.839,1
0,653,target,"[(1111, 778)]",[],[1],[0.16666666666666666],horizontal,"(890.0, 262.0)",1.5833333333333333,0.134,0,5454.79,0
0,654,target,"[(1083, 785)]",[],[1],[0.7333333333333333],vertical,"(890.0, 762.0)",0.9166666666666666,0.692,1,5459.361,1
0,655,target,"[(1107, 777)]",[],[1],[0.55],vertical,"(390.0, 262.0)",0.8,0.507,1,5464.573,1
0,656,catch,"[(1085, 777)]",[],[1],[],vertical,"(890.0, 262.0)",1.6,nan,1,5469.514,2
0,657,target,"[(1110, 792)]",[],[1],[0.5833333333333334],vertical,"(390.0, 262.0)",0.6333333333333333,0.542,1,5474.729,2
0,658,target,"[(1108, 797)]",[],[1],[0.4166666666666667],vertical,"(390.0, 262.0)",1.4666666666666666,0.376,1,5479.868,2
0,659,target,"[(1100, 786)]",[],[1],[0.5833333333333334],horizontal,"(890.0, 262.0)",1.15,0.543,1,5485.391,2
0,660,target,"[(1107, 767)]",[],[1],[0.45],vertical,"(390.0, 762.0)",1.3833333333333333,0.414,1,5490.623,3
0,661,catch,"[(1104, 793)]",[],[1],[],vertical,"(890.0, 762.0)",1.6,nan,1,5496.454,3
0,662,target,"[(1109, 791)]",[],[1],[0.23333333333333334],horizontal,"(890.0, 762.0)",1.5666666666666667,0.197,0,5501.961,0
0,663,target,"[(1089, 778)]",[],[1],[0.5166666666666666],vertical,"(390.0, 762.0)",1.15,0.474,1,5507.038,1
0,664,target,"[(1123, 777)]",[],[1],[0.5833333333333334],horizontal,"(390.0, 762.0)",0.8166666666666667,0.54,1,5512.344,1
0,665,target,"[(1108, 781)]",[],[1],[0.7666666666666666],horizontal,"(390.0, 262.0)",1.4166666666666667,0.723,1,5516.937,2
0,666,target,"[(1107, 787)]",[],[1],[0.7833333333333333],horizontal,"(390.0, 762.0)",0.9166666666666666,0.74,1,5522.522,2
0,667,catch,"[(1134, 778)]",[],[1],[],vertical,"(390.0, 762.0)",1.6,nan,1,5528.074,2
0,668,target,"[(1119, 796)]",[],[1],[0.55],vertical,"(390.0, 762.0)",1.4666666666666666,0.511,1,5533.455,2
0,669,target,"[(1128, 777)]",[],[1],[0.5333333333333333],vertical,"(890.0, 762.0)",1.2166666666666666,0.492,1,5539.473,3
0,670,catch,"[(1104, 777)]",[],[1],[],horizontal,"(890.0, 762.0)",1.6,nan,1,5545.189,3
0,671,target,"[(1100, 788)]",[],[1],[0.75],vertical,"(390.0, 762.0)",0.5833333333333334,0.705,1,5550.947,3
0,672,target,"[(1096, 785)]",[],[1],[0.55],vertical,"(390.0, 762.0)",0.6666666666666666,0.507,1,5556.163,3
0,673,target,"[(1104, 761)]",[],[1],[0.85],horizontal,"(890.0, 762.0)",0.5166666666666666,nan,0,5561.522,0
0,674,target,"[(1097, 793)]",[],[1],[0.3333333333333333],horizontal,"(390.0, 762.0)",1.4666666666666666,0.295,1,5566.044,1
0,675,target,"[(1107, 781)]",[],[1],[0.7],vertical,"(890.0, 762.0)",1.55,0.666,1,5571.366,1
0,676,target,"[(1102, 781)]",[],[1],[0.36666666666666664],horizontal,"(390.0, 262.0)",1.3333333333333333,0.332,1,5577.189,2
0,677,catch,"[(1126, 778)]",[],[1],[],vertical,"(890.0, 762.0)",1.6,nan,1,5582.55,2
0,678,target,"[(1066, 804)]",[],[1],[0.85],horizontal,"(390.0, 762.0)",0.9666666666666667,nan,0,5587.912,0
0,679,catch,"[(1072, 831)]",[],[1],[],horizontal,"(390.0, 762.0)",1.6,nan,1,5593.202,1
0,680,target,"[(1128, 798)]",[],[1],[0.48333333333333334],vertical,"(890.0, 262.0)",1.0833333333333333,0.452,1,5614.723,1
0,681,target,"[(1112, 782)]",[],[1],[0.4166666666666667],vertical,"(390.0, 262.0)",1.3333333333333333,0.383,1,5619.752,2
0,682,target,"[(1122, 772)]",[],[1],[0.6333333333333333],horizontal,"(890.0, 762.0)",0.7,0.585,1,5625.104,2
0,683,target,"[(1122, 782)]",[],[1],[0.15],horizontal,"(890.0, 262.0)",1.5666666666666667,0.116,0,5630.344,0
0,684,target,"[(1109, 796)]",[],[1],[0.4666666666666667],horizontal,"(890.0, 762.0)",0.95,0.425,1,5634.691,1
0,685,target,"[(1101, 768)]",[],[1],[0.23333333333333334],vertical,"(390.0, 762.0)",1.6,0.196,0,5639.365,0
0,686,target,"[(1081, 797)]",[],[1],[0.43333333333333335],vertical,"(390.0, 762.0)",1.45,0.392,1,5644.109,1
0,687,target,"[(1114, 762)]",[],[1],[0.6666666666666666],horizontal,"(390.0, 762.0)",0.55,0.622,1,5649.089,1
0,688,target,"[(1129, 782)]",[],[1],[0.6166666666666667],horizontal,"(890.0, 262.0)",1.2833333333333332,0.573,1,5653.854,2
0,689,target,"[(1134, 786)]",[],[1],[0.85],vertical,"(390.0, 762.0)",0.6,nan,0,5659.356,0
0,690,target,"[(1075, 786)]",[],[1],[0.48333333333333334],horizontal,"(390.0, 262.0)",1.4,0.444,1,5663.54,1
0,691,target,"[(1133, 790)]",[],[1],[0.5333333333333333],horizontal,"(890.0, 262.0)",0.5,0.493,1,5668.531,1
0,692,target,"[(1131, 782)]",[],[1],[0.16666666666666666],horizontal,"(890.0, 762.0)",1.4833333333333334,0.134,0,5672.802,0
0,693,target,"[(1103, 785)]",[],[1],[0.85],vertical,"(390.0, 762.0)",0.5333333333333333,nan,0,5677.705,0
0,694,target,"[(1078, 768)]",[],[1],[0.5833333333333334],horizontal,"(390.0, 762.0)",1.6166666666666667,0.542,1,5681.789,1
0,695,target,"[(1127, 801)]",[],[1],[0.6166666666666667],vertical,"(890.0, 262.0)",0.5333333333333333,0.572,1,5687.339,1
0,696,catch,"[(1106, 783)]",[],[1],[],vertical,"(890.0, 262.0)",1.6,nan,1,5692.591,2
0,697,catch,"[(1106, 776)]",[],[1],[],vertical,"(890.0, 762.0)",1.6,nan,1,5697.788,2
0,698,target,"[(1098, 826)]",[],[1],[0.5333333333333333],horizontal,"(890.0, 262.0)",0.9833333333333333,0.496,1,5702.985,2
0,699,catch,"[(1112, 795)]",[],[1],[],horizontal,"(890.0, 762.0)",1.6,nan,1,5708.133,2
0,700,target,"[(1125, 791)]",[],[1],[0.85],vertical,"(390.0, 262.0)",1.2,nan,0,5713.656,0
0,701,target,"[(1066, 783)]",[],[1],[0.85],vertical,"(390.0, 262.0)",0.6333333333333333,nan,0,5718.418,0
0,702,target,"[(1075, 790)]",[],[1],[0.6],vertical,"(390.0, 762.0)",0.9,0.566,1,5722.956,1
0,703,catch,"[(1123, 785)]",[],[1],[],vertical,"(890.0, 262.0)",1.6,nan,1,5728.006,1
0,704,target,"[(1111, 770)]",[],[1],[0.85],horizontal,"(890.0, 762.0)",0.6333333333333333,nan,0,5732.778,0
0,705,catch,"[(1065, 783)]",[],[1],[],horizontal,"(390.0, 762.0)",1.6,nan,1,5737.078,1
0,706,target,"[(1128, 788)]",[],[1],[0.5333333333333333],vertical,"(390.0, 762.0)",1.2666666666666666,0.5,1,5742.415,1
0,707,target,"[(1132, 786)]",[],[1],[0.4666666666666667],horizontal,"(390.0, 262.0)",1.1666666666666667,0.425,1,5747.31,2
0,708,target,"[(1105, 795)]",[],[1],[0.5833333333333334],horizontal,"(890.0, 762.0)",1.55,0.552,1,5752.763,2
0,709,target,"[(1108, 785)]",[],[1],[0.7],vertical,"(390.0, 262.0)",1.0166666666666666,0.658,1,5758.241,2
0,710,target,"[(1105, 788)]",[],[1],[0.36666666666666664],vertical,"(390.0, 262.0)",1.55,0.324,1,5763.538,2
0,711,target,"[(1104, 782)]",[],[1],[0.6],horizontal,"(890.0, 262.0)",0.85,0.564,1,5769.15,3
0,712,catch,"[(1128, 786)]",[],[1],[],vertical,"(390.0, 762.0)",1.6,nan,1,5774.457,3
0,713,target,"[(1105, 783)]",[],[1],[0.48333333333333334],horizontal,"(890.0, 762.0)",1.2,0.442,1,5779.979,3
0,714,target,"[(1124, 790)]",[],[1],[0.05],horizontal,"(390.0, 262.0)",1.4833333333333334,0.018,0,5785.941,0
0,715,target,"[(1100, 789)]",[],[1],[0.45],vertical,"(890.0, 262.0)",1.0166666666666666,0.41,1,5790.54,1
0,716,catch,"[(1138, 778)]",[],[1],[],horizontal,"(390.0, 762.0)",1.6,nan,1,5795.708,1
0,717,target,"[(1108, 786)]",[],[1],[0.85],horizontal,"(390.0, 762.0)",0.6833333333333333,nan,0,5800.64,0
0,718,target,"[(1100, 788)]",[],[1],[0.6833333333333333],horizontal,"(890.0, 262.0)",0.5166666666666666,0.636,1,5804.972,1
0,719,target,"[(1133, 787)]",[],[1],[0.5666666666666667],horizontal,"(890.0, 762.0)",0.7166666666666667,0.533,1,5809.309,1
0,720,target,"[(1108, 777)]",[],[1],[0.35],horizontal,"(890.0, 762.0)",1.45,0.312,1,5813.96,2
0,721,target,"[(1129, 789)]",[],[1],[0.3333333333333333],horizontal,"(890.0, 262.0)",1.4666666666666666,0.295,1,5819.495,2
0,722,target,"[(1109, 786)]",[],[1],[0.6666666666666666],vertical,"(390.0, 762.0)",0.7333333333333333,0.623,1,5825.007,2
0,723,target,"[(1133, 787)]",[],[1],[0.65],horizontal,"(890.0, 762.0)",0.6,0.608,1,5830.32,2
0,724,target,"[(1104, 785)]",[],[1],[0.85],vertical,"(890.0, 262.0)",1.05,nan,0,5835.492,0
0,725,target,"[(1103, 784)]",[],[1],[0.3833333333333333],horizontal,"(390.0, 762.0)",1.15,0.35,1,5840.158,1
0,726,target,"[(1074, 785)]",[],[1],[0.55],vertical,"(890.0, 762.0)",0.8833333333333333,0.51,1,5845.385,1
0,727,target,"[(1105, 787)]",[],[1],[0.5166666666666666],horizontal,"(390.0, 262.0)",1.2666666666666666,0.477,1,5850.974,2
0,728,target,"[(1129, 786)]",[],[1],[0.5],vertical,"(890.0, 262.0)",0.95,0.462,1,5856.242,2
0,729,target,"[(1099, 767)]",[],[1],[0.5],vertical,"(890.0, 262.0)",0.7166666666666667,0.459,1,5861.294,2
0,730,target,"[(1130, 800)]",[],[1],[0.85],horizontal,"(390.0, 762.0)",0.5166666666666666,nan,0,5866.374,0
0,731,target,"[(1072, 791)]",[],[1],[0.5166666666666666],vertical,"(390.0, 262.0)",1.0833333333333333,0.481,1,5870.794,1
0,732,target,"[(1101, 780)]",[],[1],[0.4166666666666667],horizontal,"(890.0, 762.0)",1.4,0.376,1,5875.62,1
0,733,target,"[(1103, 784)]",[],[1],[0.5833333333333334],horizontal,"(890.0, 262.0)",0.7166666666666667,0.545,1,5880.476,2
0,734,catch,"[(1131, 792)]",[],[1],[],vertical,"(390.0, 262.0)",1.6,nan,1,5885.377,2
0,735,target,"[(1084, 785)]",[],[1],[0.6166666666666667],vertical,"(390.0, 262.0)",0.5,0.578,1,5890.425,2
0,736,target,"[(1109, 770)]",[],[1],[0.6333333333333333],horizontal,"(890.0, 762.0)",1.0,0.599,1,5895.441,2
0,737,target,"[(1133, 772)]",[],[1],[0.25],horizontal,"(890.0, 262.0)",1.5666666666666667,0.215,1,5900.874,3
0,738,target,"[(1110, 797)]",[],[1],[0.6166666666666667],horizontal,"(890.0, 262.0)",0.55,0.574,1,5906.609,3
0,739,target,"[(1125, 768)]",[],[1],[0.5333333333333333],horizontal,"(890.0, 262.0)",1.15,0.492,1,5911.757,3
0,740,target,"[(1109, 771)]",[],[1],[0.4666666666666667],vertical,"(390.0, 262.0)",1.5166666666666666,0.432,1,5917.281,3
0,741,target,"[(1106, 785)]",[],[1],[0.25],horizontal,"(390.0, 262.0)",1.2666666666666666,0.216,1,5923.26,3
0,742,target,"[(1120, 782)]",[],[1],[0.7166666666666667],horizontal,"(390.0, 262.0)",1.0833333333333333,0.672,1,5929.071,3
0,743,target,"[(1100, 789)]",[],[1],[0.6833333333333333],vertical,"(390.0, 762.0)",0.7,0.639,1,5934.746,3
0,744,target,"[(1133, 799)]",[],[1],[0.26666666666666666],horizontal,"(390.0, 262.0)",1.5666666666666667,0.231,1,5940.558,3
0,745,target,"[(1104, 767)]",[],[1],[0.4],vertical,"(390.0, 762.0)",1.6,0.365,1,5946.392,3
0,746,target,"[(1097, 807)]",[],[1],[0.6666666666666666],horizontal,"(890.0, 762.0)",1.5666666666666667,0.626,1,5952.509,3
0,747,target,"[(1100, 780)]",[],[1],[0.5],horizontal,"(390.0, 262.0)",0.8833333333333333,0.463,1,5958.889,3
0,748,target,"[(1114, 782)]",[],[1],[0.23333333333333334],horizontal,"(890.0, 262.0)",0.9333333333333333,0.196,0,5964.242,0
0,749,target,"[(1084, 784)]",[],[1],[0.5666666666666667],vertical,"(890.0, 262.0)",0.6,0.527,1,5968.676,1
0,750,target,"[(1133, 771)]",[],[1],[0.5],horizontal,"(890.0, 262.0)",1.35,0.461,1,5973.083,1
0,751,target,"[(1129, 774)]",[],[1],[0.5666666666666667],vertical,"(890.0, 262.0)",1.0666666666666667,0.528,1,5977.857,2
0,752,target,"[(1131, 761)]",[],[1],[0.5666666666666667],horizontal,"(890.0, 762.0)",0.65,0.528,1,5983.019,2
0,753,target,"[(1106, 786)]",[],[1],[0.1],horizontal,"(890.0, 262.0)",1.2,0.07,0,5987.715,0
0,754,target,"[(1085, 777)]",[],[1],[0.43333333333333335],vertical,"(390.0, 262.0)",1.35,0.395,1,5992.31,1
0,755,target,"[(1097, 792)]",[],[1],[0.85],horizontal,"(390.0, 762.0)",0.5166666666666666,nan,0,5997.179,0
0,756,target,"[(1066, 802)]",[],[1],[0.65],horizontal,"(890.0, 762.0)",0.6666666666666666,0.604,1,6001.369,1
0,757,target,"[(1127, 792)]",[],[1],[0.21666666666666667],vertical,"(890.0, 762.0)",1.45,0.185,0,6006.017,0
0,758,catch,"[(1084, 799)]",[],[1],[],horizontal,"(390.0, 762.0)",1.6,nan,1,6010.813,1
0,759,target,"[(1097, 777)]",[],[1],[0.85],horizontal,"(390.0, 262.0)",0.7,nan,0,6015.543,0
0,760,target,"[(1073, 791)]",[],[1],[0.2],horizontal,"(890.0, 762.0)",1.6666666666666667,0.168,0,6020.302,0
0,761,target,"[(1095, 808)]",[],[1],[0.6166666666666667],horizontal,"(890.0, 262.0)",1.3166666666666667,0.577,1,6025.009,1
0,762,target,"[(1111, 778)]",[],[1],[0.5833333333333334],horizontal,"(890.0, 262.0)",1.0166666666666666,0.543,1,6030.008,1
0,763,target,"[(1133, 774)]",[],[1],[0.85],vertical,"(390.0, 762.0)",0.7,nan,0,6034.843,0
0,764,target,"[(1069, 795)]",[],[1],[0.5166666666666666],vertical,"(890.0, 762.0)",1.1833333333333333,0.48,1,6039.49,1
0,765,target,"[(1105, 770)]",[],[1],[0.6],horizontal,"(890.0, 762.0)",0.6166666666666667,0.553,1,6044.915,1
0,766,target,"[(1102, 792)]",[],[1],[0.23333333333333334],horizontal,"(890.0, 762.0)",0.9666666666666667,0.198,0,6049.501,0
0,767,target,"[(1080, 804)]",[],[1],[0.7666666666666666],vertical,"(390.0, 762.0)",1.0166666666666666,0.727,1,6053.868,1
0,768,target,"[(1103, 777)]",[],[1],[0.43333333333333335],horizontal,"(390.0, 762.0)",1.3333333333333333,0.393,1,6058.654,1
0,769,catch,"[(1106, 759)]",[],[1],[],vertical,"(890.0, 762.0)",1.6,nan,1,6063.818,2
0,770,target,"[(1103, 787)]",[],[1],[0.85],vertical,"(390.0, 262.0)",0.5,nan,0,6069.127,0
0,771,target,"[(1076, 789)]",[],[1],[0.55],vertical,"(890.0, 262.0)",1.3666666666666667,0.512,1,6073.269,1
0,772,target,"[(1105, 793)]",[],[1],[0.6333333333333333],vertical,"(390.0, 262.0)",0.8166666666666667,0.588,1,6078.361,1
0,773,target,"[(1101, 786)]",[],[1],[0.6333333333333333],vertical,"(390.0, 762.0)",0.65,0.59,1,6083.204,2
0,774,target,"[(1109, 776)]",[],[1],[0.11666666666666667],horizontal,"(890.0, 262.0)",1.6166666666666667,0.085,0,6088.301,0
0,775,target,"[(1099, 808)]",[],[1],[0.85],vertical,"(890.0, 762.0)",0.6,nan,0,6093.162,0
0,776,catch,"[(1081, 784)]",[],[1],[],horizontal,"(390.0, 262.0)",1.6,nan,1,6097.743,1
0,777,target,"[(1116, 770)]",[],[1],[0.6166666666666667],vertical,"(890.0, 262.0)",0.8,0.573,1,6102.993,1
0,778,target,"[(1109, 782)]",[],[1],[0.4166666666666667],vertical,"(890.0, 762.0)",1.4833333333333334,0.375,1,6107.908,2
0,779,target,"[(1125, 792)]",[],[1],[0.5166666666666666],horizontal,"(890.0, 262.0)",1.2166666666666666,0.473,1,6113.217,2
0,780,target,"[(1109, 789)]",[],[1],[0.35],vertical,"(890.0, 262.0)",1.4333333333333333,0.312,1,6118.885,2
0,781,target,"[(1123, 785)]",[],[1],[0.5333333333333333],horizontal,"(890.0, 762.0)",0.9,0.494,1,6124.583,2
0,782,target,"[(1110, 772)]",[],[1],[0.21666666666666667],horizontal,"(890.0, 762.0)",1.4833333333333334,0.18,0,6129.825,0
0,783,target,"[(1075, 796)]",[],[1],[0.5666666666666667],horizontal,"(890.0, 262.0)",0.6666666666666666,0.523,1,6134.493,1
0,784,target,"[(1105, 777)]",[],[1],[0.5166666666666666],horizontal,"(890.0, 762.0)",1.1333333333333333,0.481,1,6139.241,1
0,785,target,"[(1074, 772)]",[],[1],[0.85],horizontal,"(390.0, 262.0)",0.9166666666666666,nan,0,6144.588,0
0,786,catch,"[(1086, 788)]",[],[1],[],horizontal,"(890.0, 762.0)",1.6,nan,1,6149.343,1
0,787,target,"[(1104, 783)]",[],[1],[0.55],horizontal,"(890.0, 262.0)",1.2166666666666666,0.522,1,6154.718,1
0,788,target,"[(1109, 784)]",[],[1],[0.15],vertical,"(390.0, 762.0)",1.6333333333333333,0.117,0,6159.763,0
0,789,target,"[(1075, 787)]",[],[1],[0.6833333333333333],horizontal,"(390.0, 762.0)",0.55,0.638,1,6164.849,1
0,790,catch,"[(1093, 790)]",[],[1],[],vertical,"(390.0, 262.0)",1.6,nan,1,6185.043,1
0,791,catch,"[(1113, 788)]",[],[1],[],vertical,"(890.0, 762.0)",1.6,nan,1,6190.081,2
0,792,target,"[(1136, 786)]",[],[1],[0.55],horizontal,"(890.0, 262.0)",0.6333333333333333,0.504,1,6195.426,2
0,793,target,"[(1129, 802)]",[],[1],[0.3333333333333333],horizontal,"(890.0, 262.0)",1.5833333333333333,0.294,1,6199.992,2
0,794,target,"[(1133, 782)]",[],[1],[0.43333333333333335],vertical,"(890.0, 262.0)",1.3166666666666667,0.395,1,6205.342,2
0,795,target,"[(1106, 777)]",[],[1],[0.6],vertical,"(390.0, 262.0)",1.15,0.561,1,6210.704,3
0,796,target,"[(1135, 782)]",[],[1],[0.26666666666666666],horizontal,"(390.0, 262.0)",1.5,0.23,1,6216.676,3
0,797,target,"[(1131, 781)]",[],[1],[0.6666666666666666],horizontal,"(890.0, 262.0)",0.65,0.625,1,6222.582,3
0,798,target,"[(1098, 792)]",[],[1],[0.6833333333333333],horizontal,"(390.0, 262.0)",0.5666666666666667,0.637,1,6227.892,3
0,799,target,"[(1129, 794)]",[],[1],[0.48333333333333334],horizontal,"(890.0, 262.0)",1.0,0.445,1,6233.639,3
0,800,target,"[(1126, 788)]",[],[1],[0.5333333333333333],vertical,"(390.0, 262.0)",1.2,0.489,1,6239.443,3
0,801,target,"[(1116, 786)]",[],[1],[0.7833333333333333],horizontal,"(890.0, 262.0)",0.9166666666666666,0.732,1,6245.259,3
0,802,target,"[(1075, 796)]",[],[1],[0.85],horizontal,"(890.0, 762.0)",0.5833333333333334,nan,0,6250.876,0
0,803,target,"[(1076, 773)]",[],[1],[0.6],vertical,"(390.0, 762.0)",1.05,0.562,1,6255.003,1
0,804,catch,"[(1104, 784)]",[],[1],[],vertical,"(890.0, 762.0)",1.6,nan,1,6259.889,1
0,805,target,"[(1108, 789)]",[],[1],[0.85],horizontal,"(390.0, 262.0)",0.7,nan,0,6264.876,0
0,806,target,"[(1079, 789)]",[],[1],[0.26666666666666666],vertical,"(890.0, 762.0)",1.6333333333333333,0.231,1,6269.492,1
0,807,target,"[(1125, 776)]",[],[1],[0.55],vertical,"(390.0, 762.0)",1.1333333333333333,0.512,1,6274.535,1
0,808,target,"[(1120, 790)]",[],[1],[0.4166666666666667],horizontal,"(390.0, 762.0)",1.5333333333333332,0.374,1,6279.142,2
0,809,target,"[(1122, 781)]",[],[1],[0.6],vertical,"(390.0, 762.0)",0.95,0.557,1,6284.494,2
0,810,target,"[(1101, 778)]",[],[1],[0.6],vertical,"(890.0, 262.0)",1.0833333333333333,0.561,1,6289.498,2
0,811,target,"[(1116, 768)]",[],[1],[0.6166666666666667],horizontal,"(890.0, 762.0)",0.7166666666666667,0.576,1,6294.878,2
0,812,target,"[(1114, 767)]",[],[1],[0.6333333333333333],vertical,"(390.0, 262.0)",1.0,0.589,1,6300.169,3
0,813,target,"[(1118, 785)]",[],[1],[0.6166666666666667],vertical,"(890.0, 762.0)",1.6166666666666667,0.571,1,6305.876,3
0,814,catch,"[(1129, 786)]",[],[1],[],vertical,"(890.0, 762.0)",1.6,nan,1,6311.86,3
0,815,target,"[(1120, 787)]",[],[1],[0.6666666666666666],horizontal,"(390.0, 762.0)",0.5833333333333334,0.62,1,6317.661,3
0,816,target,"[(1105, 777)]",[],[1],[0.16666666666666666],horizontal,"(890.0, 762.0)",1.5,0.132,0,6323.11,0
0,817,target,"[(1094, 787)]",[],[1],[0.85],vertical,"(390.0, 762.0)",0.6166666666666667,nan,0,6327.516,0
0,818,target,"[(1095, 787)]",[],[1],[0.55],horizontal,"(390.0, 262.0)",0.6,0.505,1,6331.917,1
0,819,target,"[(1123, 796)]",[],[1],[0.4666666666666667],vertical,"(390.0, 762.0)",1.1833333333333333,0.425,1,6336.913,1
0,820,target,"[(1105, 782)]",[],[1],[0.85],horizontal,"(890.0, 262.0)",0.8166666666666667,nan,0,6342.203,0
0,821,target,"[(1079, 764)]",[],[1],[0.85],vertical,"(890.0, 762.0)",0.5,nan,0,6346.36,0
0,822,catch,"[(1076, 752), (1099, 807)]",[],"[0, 1]",[],vertical,"(390.0, 262.0)",1.6,nan,1,6350.872,1
0,823,target,"[(1105, 781)]",[],[1],[0.5666666666666667],horizontal,"(390.0, 262.0)",1.4333333333333333,0.527,1,6357.173,1
0,824,target,"[(1128, 787)]",[],[1],[0.6333333333333333],vertical,"(390.0, 262.0)",1.25,0.587,1,6362.061,2
0,825,catch,"[(1107, 782)]",[],[1],[],vertical,"(890.0, 762.0)",,"('cti', 1.54),nan",0,6367.693,0
0,826,target,"[(1081, 782)]",[],[1],[0.4666666666666667],horizontal,"(390.0, 762.0)",1.2333333333333334,0.43,1,6372.386,1
0,827,target,"[(1098, 796)]",[],[1],[0.45],horizontal,"(390.0, 762.0)",1.3166666666666667,0.406,1,6385.986,1
0,828,target,"[(1124, 786)]",[],[1],[0.23333333333333334],horizontal,"(390.0, 262.0)",1.5666666666666667,0.197,0,6390.893,0
0,829,target,"[(1128, 787)]",[],[1],[0.5833333333333334],vertical,"(890.0, 262.0)",0.85,0.555,1,6395.577,1
0,830,target,"[(1100, 784)]",[],[1],[0.55],horizontal,"(390.0, 262.0)",1.4,0.511,1,6400.134,1
0,831,target,"[(1143, 777)]",[],[1],[0.6],horizontal,"(890.0, 262.0)",1.0833333333333333,0.562,1,6405.364,2
0,832,target,"[(1107, 781)]",[],[1],[0.85],horizontal,"(890.0, 262.0)",0.6333333333333333,nan,0,6411.045,0
0,833,catch,"[(1098, 793)]",[],[1],[],vertical,"(890.0, 262.0)",1.6,nan,1,6415.195,1
0,834,target,"[(1110, 777)]",[],[1],[0.5],horizontal,"(890.0, 262.0)",1.1833333333333333,0.458,1,6420.112,1
0,835,target,"[(1123, 794)]",[],[1],[0.4666666666666667],vertical,"(390.0, 762.0)",1.55,0.425,1,6424.809,2
0,836,target,"[(1123, 795)]",[],[1],[0.3333333333333333],vertical,"(890.0, 762.0)",1.4166666666666667,0.296,1,6430.461,2
0,837,target,"[(1104, 787)]",[],[1],[0.26666666666666666],vertical,"(390.0, 762.0)",1.4666666666666666,0.231,1,6435.861,2
0,838,target,"[(1113, 757)]",[],[1],[0.75],horizontal,"(890.0, 762.0)",0.5833333333333334,0.703,1,6441.309,2
0,839,target,"[(1128, 787)]",[],[1],[0.06666666666666667],horizontal,"(890.0, 762.0)",1.5166666666666666,0.036,0,6446.487,0
0,840,target,"[(1103, 802)]",[],[1],[0.7166666666666667],horizontal,"(390.0, 262.0)",0.85,0.674,1,6451.374,1
0,841,target,"[(1100, 761)]",[],[1],[0.7166666666666667],horizontal,"(890.0, 762.0)",0.5,0.674,1,6456.11,1
0,842,target,"[(1108, 785)]",[],[1],[0.6],vertical,"(890.0, 262.0)",0.7166666666666667,0.557,1,6460.861,2
0,843,target,"[(1103, 777)]",[],[1],[0.5833333333333334],vertical,"(390.0, 262.0)",1.0166666666666666,0.539,1,6465.827,2
0,844,target,"[(1101, 769)]",[],[1],[0.5333333333333333],horizontal,"(390.0, 762.0)",1.1666666666666667,0.49,1,6471.509,2
0,845,target,"[(1120, 781)]",[],[1],[0.6],horizontal,"(390.0, 262.0)",1.15,0.557,1,6476.774,2
0,846,target,"[(1122, 779)]",[],[1],[0.8],horizontal,"(390.0, 762.0)",0.8833333333333333,0.757,1,6482.274,3
0,847,target,"[(1123, 800)]",[],[1],[0.5833333333333334],horizontal,"(390.0, 762.0)",1.25,0.544,1,6487.807,3
0,848,target,"[(1127, 779)]",[],[1],[],horizontal,"(890.0, 262.0)",,"('cti', 1.609)",0,6493.457,0
0,849,target,"[(1091, 786)]",[],[1],[0.85],vertical,"(890.0, 762.0)",0.5333333333333333,nan,0,6498.378,0
0,850,target,"[(1075, 782)]",[],[1],[0.6166666666666667],horizontal,"(890.0, 262.0)",0.9166666666666666,0.573,1,6502.539,1
0,851,target,"[(1109, 780)]",[],[1],[0.65],vertical,"(890.0, 262.0)",0.7,0.608,1,6507.662,1
0,852,target,"[(1095, 791)]",[],[1],[0.5666666666666667],horizontal,"(390.0, 762.0)",0.95,0.529,1,6512.381,2
0,853,target,"[(1124, 787)]",[],[1],[0.5],horizontal,"(390.0, 262.0)",1.3666666666666667,0.46,1,6517.468,2
0,854,target,"[(1103, 777)]",[],[1],[0.55],horizontal,"(890.0, 262.0)",0.9666666666666667,0.503,1,6522.67,2
0,855,target,"[(1105, 795)]",[],[1],[0.23333333333333334],horizontal,"(390.0, 762.0)",1.2833333333333332,0.196,0,6527.928,0
0,856,catch,"[(1098, 802)]",[],[1],[],horizontal,"(390.0, 262.0)",1.6,nan,1,6532.677,1
0,857,target,"[(1086, 798)]",[],[1],[0.2],vertical,"(390.0, 762.0)",1.0833333333333333,0.17,0,6537.741,0
0,858,target,"[(1079, 782)]",[],[1],[0.6],vertical,"(890.0, 762.0)",0.95,0.559,1,6542.119,1
0,859,target,"[(1086, 768)]",[],[1],[0.6166666666666667],vertical,"(890.0, 762.0)",0.75,0.575,1,6547.111,1
0,860,target,"[(1104, 785)]",[],[1],[0.11666666666666667],horizontal,"(890.0, 762.0)",1.6,0.082,0,6551.536,0
0,861,target,"[(1111, 792)]",[],[1],[0.6833333333333333],vertical,"(390.0, 262.0)",1.15,0.642,1,6556.16,1
0,862,target,"[(1122, 759)]",[],[1],[0.5166666666666666],vertical,"(890.0, 262.0)",1.1166666666666667,0.475,1,6560.905,1
0,863,target,"[(1113, 794)]",[],[1],[0.6666666666666666],horizontal,"(390.0, 762.0)",0.8666666666666667,0.62,1,6565.931,2
0,864,target,"[(1114, 793)]",[],[1],[0.36666666666666664],vertical,"(390.0, 762.0)",1.4333333333333333,0.325,1,6571.23,2
0,865,catch,"[(1122, 790)]",[],[1],[],horizontal,"(390.0, 762.0)",1.6,nan,1,6577.097,2
0,866,target,"[(1109, 782)]",[],[1],[0.6333333333333333],horizontal,"(390.0, 762.0)",1.35,0.596,1,6582.17,2
0,867,target,"[(1130, 794)]",[],[1],[0.5333333333333333],horizontal,"(890.0, 762.0)",1.2833333333333332,0.494,1,6587.6,3
0,868,target,"[(1108, 782)]",[],[1],[0.85],vertical,"(890.0, 762.0)",0.5333333333333333,nan,0,6593.329,0
0,869,target,"[(1069, 796)]",[],[1],[0.85],horizontal,"(390.0, 262.0)",0.75,nan,0,6597.911,0
0,870,catch,"[(1062, 787)]",[],[1],[],vertical,"(390.0, 262.0)",1.6,nan,1,6602.613,1
0,871,target,"[(1122, 782)]",[],[1],[0.11666666666666667],vertical,"(390.0, 262.0)",1.5666666666666667,0.083,0,6608.295,0
0,872,target,"[(1100, 782)]",[],[1],[0.48333333333333334],horizontal,"(890.0, 762.0)",1.65,0.438,1,6613.146,1
0,873,target,"[(1118, 796)]",[],[1],[0.6833333333333333],horizontal,"(390.0, 262.0)",1.1,0.639,1,6637.227,1
0,874,target,"[(1119, 782)]",[],[1],[0.85],horizontal,"(390.0, 262.0)",0.5666666666666667,nan,0,6642.195,0
0,875,target,"[(1086, 784)]",[],[1],[0.85],horizontal,"(390.0, 262.0)",0.7,nan,0,6646.608,0
0,876,target,"[(1053, 788)]",[],[1],[0.6333333333333333],vertical,"(390.0, 762.0)",0.6666666666666666,0.595,1,6651.2,1
0,877,target,"[(1116, 762)]",[],[1],[0.5833333333333334],vertical,"(390.0, 762.0)",0.7166666666666667,0.545,1,6656.149,1
0,878,target,"[(1119, 777)]",[],[1],[0.3],vertical,"(890.0, 762.0)",1.4166666666666667,0.264,1,6661.166,2
0,879,target,"[(1109, 787)]",[],[1],[0.8333333333333334],horizontal,"(390.0, 262.0)",0.8666666666666667,0.789,1,6666.641,2
0,880,target,"[(1108, 782)]",[],[1],[0.3833333333333333],vertical,"(890.0, 262.0)",1.4166666666666667,0.346,1,6672.319,2
0,881,target,"[(1128, 778)]",[],[1],[0.6333333333333333],vertical,"(390.0, 262.0)",0.7333333333333333,0.591,1,6678.184,2
0,882,target,"[(1108, 794)]",[],[1],[0.6333333333333333],horizontal,"(390.0, 762.0)",0.6833333333333333,0.592,1,6683.195,3
0,883,target,"[(1120, 806)]",[],[1],[0.26666666666666666],horizontal,"(390.0, 262.0)",0.9166666666666666,0.231,1,6688.579,3
0,884,target,"[(1106, 790)]",[],[1],[0.7833333333333333],horizontal,"(890.0, 262.0)",0.9666666666666667,0.749,1,6694.405,3
0,885,catch,"[(1126, 796)]",[],[1],[],vertical,"(890.0, 762.0)",1.6,nan,1,6700.662,3
0,886,target,"[(1119, 759)]",[],[1],[0.85],horizontal,"(390.0, 762.0)",0.6666666666666666,nan,0,6707.096,0
0,887,target,"[(1082, 797)]",[],[1],[0.6333333333333333],horizontal,"(890.0, 762.0)",0.5666666666666667,0.594,1,6711.239,1
0,888,target,"[(1131, 790)]",[],[1],[0.85],vertical,"(890.0, 762.0)",0.6166666666666667,nan,0,6715.546,0
0,889,target,"[(1076, 790)]",[],[1],[0.5833333333333334],vertical,"(390.0, 262.0)",0.7166666666666667,0.542,1,6720.256,1
0,890,target,"[(1106, 786)]",[],[1],[0.36666666666666664],vertical,"(890.0, 262.0)",1.5833333333333333,0.333,1,6725.329,1
0,891,catch,"[(1150, 782)]",[],[1],[],vertical,"(390.0, 762.0)",1.6,nan,1,6730.664,2
0,892,target,"[(1125, 795)]",[],[1],[0.3833333333333333],horizontal,"(890.0, 762.0)",1.4,0.344,1,6735.901,2
0,893,target,"[(1109, 767)]",[],[1],[0.55],vertical,"(890.0, 762.0)",1.25,0.511,1,6741.529,2
0,894,target,"[(1130, 796)]",[],[1],[0.25],horizontal,"(890.0, 762.0)",1.4833333333333334,0.214,1,6746.794,2
0,895,target,"[(1111, 764)]",[],[1],[0.85],vertical,"(890.0, 762.0)",0.5166666666666666,nan,0,6752.579,0
0,896,target,"[(1077, 777)]",[],[1],[0.5333333333333333],horizontal,"(890.0, 262.0)",1.1333333333333333,0.493,1,6756.862,1
0,897,target,"[(1109, 772)]",[],[1],[0.36666666666666664],horizontal,"(390.0, 262.0)",1.3333333333333333,0.33,1,6761.829,1
0,898,catch,"[(1105, 772)]",[],[1],[],vertical,"(390.0, 262.0)",1.6,nan,1,6766.947,2
0,899,target,"[(1110, 782)]",[],[1],[0.55],horizontal,"(890.0, 262.0)",0.8666666666666667,0.514,1,6772.319,2
0,900,catch,"[(1126, 787)]",[],[1],[],horizontal,"(390.0, 262.0)",1.6,nan,1,6777.363,2
0,901,target,"[(1104, 782)]",[],[1],[0.5],horizontal,"(890.0, 262.0)",0.5333333333333333,0.463,1,6782.598,2
0,902,target,"[(1116, 769)]",[],[1],[0.5166666666666666],horizontal,"(390.0, 262.0)",0.7833333333333333,0.473,1,6787.663,3
0,903,target,"[(1131, 789)]",[],[1],[0.5166666666666666],horizontal,"(890.0, 262.0)",0.95,0.479,1,6793.151,3
0,904,target,"[(1109, 782)]",[],[1],[0.5666666666666667],horizontal,"(390.0, 762.0)",0.7833333333333333,0.529,1,6798.847,3
0,905,target,"[(1135, 799)]",[],[1],[0.6666666666666666],vertical,"(890.0, 762.0)",0.6,0.62,1,6804.801,3
0,906,target,"[(1075, 790)]",[],[1],[],horizontal,"(890.0, 262.0)",,"('cti', 1.265)",0,6810.053,0
0,907,target,"[(1104, 812)]",[],[1],[0.55],horizontal,"(390.0, 262.0)",0.6333333333333333,0.52,1,6814.874,1
0,908,target,"[(1104, 782)]",[],[1],[0.5333333333333333],horizontal,"(890.0, 762.0)",1.2,0.494,1,6819.662,1
0,909,target,"[(1122, 790)]",[],[1],[0.5666666666666667],horizontal,"(890.0, 762.0)",0.7666666666666666,0.528,1,6825.046,2
0,910,target,"[(1104, 782)]",[],[1],[0.5666666666666667],horizontal,"(390.0, 262.0)",0.8,0.523,1,6830.214,2
0,911,catch,"[(1096, 785)]",[],[1],[],vertical,"(390.0, 762.0)",1.6,nan,1,6834.906,2
0,912,target,"[(1120, 786)]",[],[1],[0.6666666666666666],vertical,"(390.0, 762.0)",1.0,0.624,1,6840.218,2
0,913,target,"[(1128, 797)]",[],[1],[0.55],vertical,"(890.0, 262.0)",1.1,0.507,1,6845.663,3
0,914,catch,"[(1128, 777)]",[],[1],[],vertical,"(390.0, 762.0)",1.6,nan,1,6851.597,3
0,915,target,"[(1104, 772)]",[],[1],[0.06666666666666667],horizontal,"(390.0, 762.0)",1.4,0.035,0,6857.193,0
0,916,catch,"[(1123, 787)]",[],[1],[],horizontal,"(390.0, 262.0)",1.6,nan,1,6862.02,1
0,917,target,"[(1104, 778)]",[],[1],[0.6],vertical,"(390.0, 762.0)",1.3,0.559,1,6867.553,1
0,918,target,"[(1110, 774)]",[],[1],[0.5333333333333333],vertical,"(890.0, 262.0)",0.9666666666666667,0.493,1,6872.79,2
0,919,target,"[(1120, 760)]",[],[1],[0.6666666666666666],horizontal,"(890.0, 762.0)",0.9666666666666667,0.623,1,6877.723,2
0,920,target,"[(1101, 800)]",[],[1],[0.85],vertical,"(390.0, 262.0)",0.7166666666666667,nan,0,6883.076,0
0,921,target,"[(1073, 791)]",[],[1],[0.5833333333333334],vertical,"(390.0, 762.0)",1.2166666666666666,0.54,1,6887.363,1
0,922,target,"[(1126, 787)]",[],[1],[0.31666666666666665],vertical,"(890.0, 262.0)",1.55,0.28,1,6892.605,1
