block,trial,trial_type,taps_start_loc_during_fix,taps_end_loc_during_fix,taps_on_lever_during_fix,taps_on_lever_s_during_fix,bar_orientation,target_xy,cti,rt,acc,time,pulses,fa_rate_recent100,actual_invalid_type
0,1,valid,"[(1059, 811)]",[],[1],[0.48333333333333334],horizontal,"(390.0, 762.0)",1.4666666666666666,0.446,1,0.438,1,0.0,same
0,2,catch,"[(1108, 864)]",[],[1],[],vertical,"(390.0, 762.0)",1.7,nan,1,20.745,1,0.0,same
0,3,valid,"[(1126, 827)]",[],[1],[0.6],horizontal,"(390.0, 262.0)",0.5333333333333333,0.56,1,35.425,1,0.0,same
0,4,valid,"[(1081, 826)]",[],[1],[0.5666666666666667],vertical,"(890.0, 762.0)",0.95,0.525,1,40.67,2,0.0,same
0,5,invalid_same_bar,"[(1161, 797)]",[],[1],[0.85],horizontal,"(890.0, 762.0)",0.5,nan,0,47.859,0,0.0,same
0,6,catch,"[(1113, 788)]",[],[1],[],horizontal,"(390.0, 762.0)",1.7,nan,1,51.882,1,0.0,same
0,7,catch,"[(1155, 798)]",[],[1],[],vertical,"(890.0, 262.0)",1.7,nan,1,57.376,1,0.0,same
0,8,catch,"[(1134, 803)]",[],[1],[],horizontal,"(890.0, 262.0)",1.7,nan,1,63.068,1,0.0,same
0,9,valid,"[(1136, 804)]",[],[1],[0.85],horizontal,"(390.0, 262.0)",0.9166666666666666,nan,0,68.761,0,0.0,same
0,10,valid,"[(1160, 851)]",[],[1],[0.55],vertical,"(890.0, 762.0)",0.6,0.526,1,73.539,1,0.0,same
0,11,invalid_adjacent_other_bar,"[(1155, 797)]",[],[1],[0.5666666666666667],vertical,"(890.0, 262.0)",1.2333333333333334,0.534,1,78.472,1,0.0,other
0,12,valid,"[(1112, 809)]",[],[1],[0.55],horizontal,"(890.0, 262.0)",1.0333333333333332,0.509,1,84.157,1,0.0,same
0,13,valid,"[(1130, 813)]",[],[1],[0.6166666666666667],horizontal,"(390.0, 262.0)",1.1666666666666667,0.585,1,88.98,2,0.0,same
0,14,valid,"[(1187, 781)]",[],[1],[0.6],vertical,"(890.0, 262.0)",0.9833333333333333,0.57,1,95.407,2,0.0,same
0,15,valid,"[(1168, 825)]",[],[1],[0.5666666666666667],horizontal,"(390.0, 762.0)",1.3,0.531,1,101.207,2,0.0,same
0,16,valid,"[(1162, 796)]",[],[1],[0.85],vertical,"(390.0, 262.0)",1.2666666666666666,nan,0,107.576,0,0.0,same
0,17,valid,"[(1135, 792)]",[],[1],[0.6333333333333333],horizontal,"(390.0, 762.0)",1.1,0.593,1,113.025,1,0.0,same
0,18,valid,"[(1175, 796)]",[],[1],[0.55],vertical,"(390.0, 762.0)",0.6166666666666667,0.51,1,118.038,1,0.0,same
0,19,valid,"[(1166, 778)]",[],[1],[0.5333333333333333],horizontal,"(890.0, 262.0)",1.55,0.492,1,122.803,1,0.0,same
0,20,valid,"[(1166, 777)]",[],[1],[0.55],vertical,"(890.0, 762.0)",1.4333333333333333,0.508,1,128.326,2,0.0,same
0,21,invalid_adjacent_other_bar,"[(1183, 782)]",[],[1],[0.85],horizontal,"(390.0, 762.0)",1.4833333333333334,nan,0,133.915,0,0.0,other
0,22,valid,"[(1115, 807)]",[],[1],[0.55],vertical,"(390.0, 762.0)",1.1166666666666667,0.509,1,139.192,1,0.0,same
0,23,catch,"[(1176, 770)]",[],[1],[],horizontal,"(390.0, 762.0)",1.7,nan,1,144.633,1,0.0,same
0,24,catch,"[(1185, 802)]",[],[1],[],horizontal,"(390.0, 262.0)",1.7,nan,1,149.958,1,0.0,same
0,25,valid,"[(1165, 773)]",[],[1],[0.5],horizontal,"(890.0, 762.0)",1.1333333333333333,0.458,1,155.258,2,0.0,same
0,26,valid,"[(1189, 772)]",[],[1],[0.55],horizontal,"(890.0, 762.0)",1.1166666666666667,0.51,1,161.008,2,0.0,same
0,27,valid,"[(1176, 796)]",[],[1],[0.7833333333333333],vertical,"(390.0, 262.0)",1.2833333333333332,0.736,1,166.404,2,0.0,same
0,28,valid,"[(1161, 768)]",[],[1],[0.85],horizontal,"(390.0, 262.0)",0.9666666666666667,nan,0,172.269,0,0.0,same
0,29,invalid_same_bar,"[(1136, 778)]",[],[1],[0.7333333333333333],vertical,"(890.0, 762.0)",1.2666666666666666,0.685,1,177.358,1,0.0,same
0,30,valid,"[(1175, 773)]",[],[1],[0.5333333333333333],horizontal,"(390.0, 762.0)",0.5833333333333334,0.486,1,182.479,1,0.0,same
0,31,valid,"[(1178, 764)]",[],[1],[0.48333333333333334],horizontal,"(890.0, 262.0)",1.2833333333333332,0.445,1,187.091,1,0.0,same
0,32,catch,"[(1205, 755)]",[],[1],[],horizontal,"(890.0, 262.0)",1.7,nan,1,192.41,2,0.0,same
0,33,valid,"[(1189, 773)]",[],[1],[0.6],horizontal,"(890.0, 762.0)",0.5,0.56,1,198.109,2,0.0,same
0,34,catch,"[(1199, 810)]",[],[1],[],horizontal,"(390.0, 262.0)",1.7,nan,1,202.943,2,0.0,same
0,35,valid,"[(1174, 751), (1123, 816)]",[],"[0, 1]",[0.6833333333333333],vertical,"(890.0, 262.0)",0.9833333333333333,0.638,1,208.666,3,0.0,same
0,36,valid,"[(1168, 798)]",[],[1],[0.5833333333333334],horizontal,"(890.0, 262.0)",1.4166666666666667,0.541,1,215.733,3,0.0,same
0,37,catch,"[(1166, 792)]",[],[1],[],horizontal,"(890.0, 762.0)",1.7,nan,1,222.154,3,0.0,same
0,38,valid,"[(1193, 796)]",[],[1],[0.85],vertical,"(390.0, 762.0)",0.95,nan,0,227.896,0,0.0,same
0,39,valid,"[(1126, 812)]",[],[1],[0.6666666666666666],horizontal,"(890.0, 262.0)",1.0833333333333333,0.637,1,233.173,1,0.0,same
0,40,valid,"[(1161, 786)]",[],[1],[0.85],horizontal,"(390.0, 262.0)",0.7333333333333333,nan,0,238.356,0,0.0,same
0,41,valid,"[(1132, 774)]",[],[1],[0.6166666666666667],vertical,"(390.0, 262.0)",1.35,0.583,1,243.385,1,0.0,same
0,42,invalid_same_bar,"[(1180, 792)]",[],[1],[0.5666666666666667],vertical,"(890.0, 762.0)",1.4166666666666667,0.544,1,249.251,1,0.0,same
0,43,valid,"[(1174, 792)]",[],[1],[0.5333333333333333],horizontal,"(890.0, 262.0)",1.4666666666666666,0.498,1,254.853,1,0.0,same
0,44,valid,"[(1182, 772)]",[],[1],[0.7166666666666667],horizontal,"(890.0, 762.0)",0.95,0.686,1,260.613,2,0.0,same
0,45,valid,"[(1173, 796)]",[],[1],[0.6333333333333333],horizontal,"(890.0, 262.0)",0.36666666666666664,0.595,1,266.056,2,0.0,same
0,46,valid,"[(1179, 768)]",[],[1],[0.65],horizontal,"(890.0, 262.0)",0.48333333333333334,0.617,1,270.872,2,0.0,same
0,47,invalid_adjacent_other_bar,"[(1162, 765)]",[],[1],[0.6833333333333333],horizontal,"(390.0, 762.0)",0.5,0.65,1,275.75,3,0.0,other
0,48,catch,"[(1171, 770)]",[],[1],[],horizontal,"(890.0, 762.0)",1.7,nan,1,281.672,3,0.0,same
0,49,catch,"[(1165, 770)]",[],[1],[],horizontal,"(890.0, 262.0)",1.7,nan,1,287.66,3,0.0,same
0,50,valid,"[(1176, 779)]",[],[1],[0.5666666666666667],vertical,"(890.0, 762.0)",1.3166666666666667,0.538,1,293.737,3,0.0,same
0,51,invalid_same_bar,"[(1162, 773)]",[],[1],[0.7833333333333333],vertical,"(390.0, 762.0)",1.4833333333333334,0.744,1,299.784,3,0.0,same
0,52,valid,"[(1161, 791)]",[],[1],[0.85],horizontal,"(390.0, 262.0)",1.05,nan,0,306.656,0,0.0,same
0,53,valid,"[(1136, 824)]",[],[1],[0.7666666666666666],horizontal,"(890.0, 262.0)",0.5666666666666667,0.734,1,311.235,1,0.0,same
0,54,valid,"[(1166, 797)]",[],[1],[0.5166666666666666],vertical,"(390.0, 262.0)",0.9333333333333333,0.49,1,316.172,1,0.0,same
0,55,valid,"[(1160, 764)]",[],[1],[0.5166666666666666],vertical,"(390.0, 762.0)",1.45,0.493,1,321.436,1,0.0,same
0,56,invalid_adjacent_other_bar,"[(1189, 773)]",[],[1],[0.6],horizontal,"(890.0, 762.0)",1.3666666666666667,0.577,1,326.737,2,0.0,other
0,57,valid,"[(1171, 787)]",[],[1],[0.5],vertical,"(890.0, 262.0)",0.9666666666666667,0.473,1,332.722,2,0.0,same
0,58,catch,"[(1165, 784)]",[],[1],[],vertical,"(890.0, 762.0)",1.7,nan,1,337.596,2,0.0,same
0,59,catch,"[(1183, 779)]",[],[1],[],horizontal,"(890.0, 262.0)",1.7,nan,1,343.583,3,0.0,same
0,60,valid,"[(1185, 761)]",[],[1],[0.7166666666666667],vertical,"(890.0, 262.0)",0.5333333333333333,0.692,1,350.269,3,0.0,same
0,61,catch,"[(1165, 785)]",[],[1],[],horizontal,"(390.0, 262.0)",1.7,nan,1,355.551,3,0.0,same
0,62,valid,"[(1181, 776)]",[],[1],[0.5833333333333334],vertical,"(890.0, 762.0)",0.5666666666666667,0.548,1,361.194,3,0.0,same
0,63,valid,"[(1161, 769)]",[],[1],[0.5833333333333334],horizontal,"(390.0, 262.0)",0.35,0.548,1,366.863,3,0.0,same
0,64,valid,"[(1176, 777)]",[],[1],[0.5833333333333334],horizontal,"(390.0, 762.0)",1.05,0.551,1,371.927,3,0.0,same
0,65,catch,"[(1160, 792)]",[],[1],[],vertical,"(890.0, 262.0)",1.7,nan,1,377.63,3,0.0,same
0,66,valid,"[(1165, 778)]",[],[1],[0.85],horizontal,"(890.0, 762.0)",0.36666666666666664,nan,0,383.661,0,0.0,same
0,67,catch,"[(1165, 794)]",[],[1],[],vertical,"(390.0, 762.0)",1.7,nan,1,387.997,1,0.0,same
0,68,catch,"[(1132, 772)]",[],[1],[],horizontal,"(890.0, 262.0)",1.7,nan,1,393.692,1,0.0,same
0,69,valid,"[(1134, 770)]",[],[1],[0.85],vertical,"(390.0, 762.0)",0.35,nan,0,398.929,0,0.0,same
0,70,catch,"[(1160, 827)]",[],[1],[],horizontal,"(890.0, 262.0)",1.7,nan,1,403.009,1,0.0,same
0,71,catch,"[(1165, 768)]",[],[1],[],vertical,"(890.0, 262.0)",1.7,nan,1,408.699,1,0.0,same
0,72,valid,"[(1170, 792)]",[],[1],[0.85],vertical,"(390.0, 762.0)",0.4666666666666667,nan,0,413.774,0,0.0,same
0,73,valid,"[(1131, 792)]",[],[1],[0.6166666666666667],horizontal,"(390.0, 262.0)",0.7666666666666666,0.578,1,418.409,1,0.0,same
0,74,valid,"[(1166, 804)]",[],[1],[0.5666666666666667],horizontal,"(890.0, 262.0)",1.1833333333333333,0.528,1,423.942,1,0.0,same
0,75,valid,"[(1131, 781)]",[],[1],[0.5166666666666666],horizontal,"(390.0, 762.0)",0.9833333333333333,0.475,1,428.869,1,0.0,same
0,76,valid,"[(1081, 843)]",[],[1],[],horizontal,"(390.0, 262.0)",,"('cti', 0.787)",0,434.054,0,0.0,same
0,77,valid,"[(1118, 833)]",[],[1],[0.4666666666666667],horizontal,"(890.0, 762.0)",1.0833333333333333,0.431,1,485.077,1,0.0,same
0,78,invalid_same_bar,"[(1166, 806)]",[],[1],[0.7333333333333333],vertical,"(890.0, 262.0)",0.35,0.694,1,491.931,1,0.0,same
0,79,valid,"[(1196, 817)]",[],[1],[0.7333333333333333],horizontal,"(890.0, 262.0)",0.3833333333333333,0.695,1,496.362,1,0.0,same
0,80,invalid_same_bar,"[(1162, 806)]",[],[1],[0.5833333333333334],vertical,"(390.0, 262.0)",1.0666666666666667,0.546,1,500.565,2,0.0,same
0,81,valid,"[(1122, 842)]",[],[1],[0.5333333333333333],vertical,"(890.0, 762.0)",1.0833333333333333,0.5,1,506.196,2,0.0,same
0,82,catch,"[(1175, 797)]",[],[1],[],vertical,"(390.0, 262.0)",1.7,nan,1,512.07,2,0.0,same
0,83,valid,"[(1184, 826)]",[],[1],[0.7],vertical,"(390.0, 762.0)",1.35,0.68,1,517.995,3,0.0,same
0,84,invalid_adjacent_other_bar,"[(1194, 796)]",[],[1],[0.36666666666666664],horizontal,"(890.0, 762.0)",1.3833333333333333,0.329,1,524.599,3,0.0,other
0,85,valid,"[(1159, 821)]",[],[1],[0.4666666666666667],vertical,"(890.0, 262.0)",1.2333333333333334,0.43,1,530.726,3,0.0,same
0,86,valid,"[(1164, 789)]",[],[1],[0.85],vertical,"(390.0, 762.0)",0.36666666666666664,nan,0,537.022,0,0.0,same
0,87,valid,"[(1135, 791)]",[],[1],[0.21666666666666667],horizontal,"(390.0, 762.0)",1.4333333333333333,0.179,0,540.96,0,0.0,same
0,88,valid,"[(1160, 839)]",[],[1],[0.4666666666666667],horizontal,"(890.0, 762.0)",1.3666666666666667,0.427,1,546.025,1,0.0,same
0,89,valid,"[(1161, 790)]",[],[1],[0.85],vertical,"(390.0, 262.0)",1.1833333333333333,nan,0,560.2,0,0.0,same
0,90,valid,"[(1124, 803)]",[],[1],[0.31666666666666665],horizontal,"(390.0, 762.0)",1.2833333333333332,0.285,1,565.227,1,0.0,same
0,91,valid,"[(1160, 799)]",[],[1],[0.5333333333333333],horizontal,"(890.0, 762.0)",1.3833333333333333,0.502,1,570.656,1,0.0,same
0,92,valid,"[(1179, 791)]",[],[1],[0.7666666666666666],vertical,"(390.0, 262.0)",0.65,0.733,1,575.986,1,0.0,same
0,93,valid,"[(1160, 790)]",[],[1],[0.55],horizontal,"(890.0, 262.0)",0.5333333333333333,0.51,1,580.841,2,0.0,same
0,94,valid,"[(1160, 804)]",[],[1],[0.55],horizontal,"(890.0, 262.0)",0.3833333333333333,0.51,1,585.614,2,0.0,same
0,95,valid,"[(1159, 821)]",[],[1],[0.6666666666666666],vertical,"(390.0, 762.0)",1.1666666666666667,0.631,1,590.367,2,0.0,same
0,96,valid,"[(1165, 763)]",[],[1],[0.5666666666666667],vertical,"(390.0, 762.0)",1.35,0.526,1,596.659,3,0.0,same
0,97,valid,"[(1156, 786)]",[],[1],[0.6833333333333333],vertical,"(890.0, 262.0)",0.8166666666666667,0.633,1,602.803,3,0.0,same
0,98,valid,"[(1175, 790)]",[],[1],[0.5666666666666667],horizontal,"(890.0, 762.0)",1.1666666666666667,0.527,1,608.977,3,0.0,same
0,99,invalid_adjacent_other_bar,"[(1161, 802)]",[],[1],[0.5833333333333334],vertical,"(890.0, 262.0)",0.7333333333333333,0.543,1,614.809,3,0.0,other
0,100,invalid_same_bar,"[(1160, 773)]",[],[1],[0.85],horizontal,"(390.0, 762.0)",0.4166666666666667,nan,0,620.027,0,0.0,same
0,101,valid,"[(1131, 801)]",[],[1],[0.6166666666666667],vertical,"(390.0, 262.0)",0.5833333333333334,0.57,1,623.889,1,0.0,same
0,102,valid,"[(1167, 777)]",[],[1],[0.75],vertical,"(390.0, 262.0)",0.9333333333333333,0.706,1,628.926,1,0.0,same
0,103,catch,"[(1175, 782)]",[],[1],[],vertical,"(390.0, 262.0)",1.7,nan,1,634.36,1,0.0,same
0,104,catch,"[(1166, 778)]",[],[1],[],horizontal,"(890.0, 762.0)",1.7,"('cti', 1.691),nan",0,639.553,0,0.02,same
0,105,catch,"[(1164, 797)]",[],[1],[],vertical,"(390.0, 262.0)",1.7,nan,1,644.593,1,0.02,same
0,106,valid,"[(1170, 788)]",[],[1],[0.55],vertical,"(390.0, 762.0)",0.65,0.514,1,650.06,1,0.02,same
0,107,valid,"[(1180, 790)]",[],[1],[0.6166666666666667],horizontal,"(390.0, 762.0)",0.45,0.578,1,654.526,1,0.02,same
0,108,catch,"[(1165, 778)]",[],[1],[],horizontal,"(890.0, 262.0)",1.7,nan,1,658.876,2,0.02,same
0,109,valid,"[(1166, 782)]",[],[1],[0.5666666666666667],horizontal,"(890.0, 762.0)",1.5333333333333332,0.523,1,664.326,2,0.02,same
0,110,valid,"[(1160, 786)]",[],[1],[0.55],horizontal,"(890.0, 262.0)",1.5166666666666666,0.509,1,670.31,2,0.02,same
0,111,valid,"[(1161, 775)]",[],[1],[0.6833333333333333],vertical,"(390.0, 762.0)",0.36666666666666664,0.642,1,676.26,3,0.02,same
0,112,valid,"[(1179, 779)]",[],[1],[0.55],horizontal,"(890.0, 262.0)",1.2833333333333332,0.52,1,681.994,3,0.02,same
0,113,valid,"[(1160, 797)]",[],[1],[0.5666666666666667],horizontal,"(390.0, 762.0)",1.1333333333333333,0.524,1,687.875,3,0.02,same
0,114,catch,"[(1163, 778)]",[],[1],[],vertical,"(390.0, 762.0)",1.7,nan,1,694.21,3,0.02,same
0,115,valid,"[(1160, 792)]",[],[1],[0.55],vertical,"(890.0, 762.0)",0.9,0.511,1,700.078,3,0.02,same
0,116,catch,"[(1170, 783)]",[],[1],[],vertical,"(390.0, 262.0)",1.7,nan,1,705.626,3,0.02,same
0,117,catch,"[(1177, 788)]",[],[1],[],vertical,"(890.0, 262.0)",1.7,nan,1,711.9,3,0.02,same
0,118,valid,"[(1165, 764)]",[],[1],[0.5166666666666666],horizontal,"(890.0, 762.0)",1.4833333333333334,0.474,1,718.187,3,0.02,same
0,119,invalid_same_bar,"[(1170, 778)]",[],[1],[0.7333333333333333],horizontal,"(390.0, 762.0)",1.2666666666666666,0.687,1,724.277,3,0.02,same
0,120,valid,"[(1160, 778)]",[],[1],[0.6666666666666666],horizontal,"(890.0, 262.0)",0.6166666666666667,0.625,1,730.47,3,0.02,same
0,121,catch,"[(1173, 780)]",[],[1],[],horizontal,"(390.0, 262.0)",1.7,nan,1,736.094,3,0.02,same
0,122,valid,"[(1163, 776)]",[],[1],[0.65],horizontal,"(390.0, 762.0)",0.3833333333333333,0.609,1,742.328,3,0.02,same
0,123,catch,"[(1173, 771)]",[],[1],[],vertical,"(390.0, 262.0)",,"('cti', 1.602),nan",0,747.794,0,0.04,same
0,124,invalid_same_bar,"[(1132, 802)]",[],[1],[0.7166666666666667],vertical,"(890.0, 762.0)",1.45,0.668,1,752.634,1,0.04,same
0,125,invalid_same_bar,"[(1180, 804)]",[],[1],[0.5833333333333334],horizontal,"(890.0, 262.0)",0.4166666666666667,0.543,1,758.144,1,0.04,same
0,126,invalid_adjacent_other_bar,"[(1165, 778)]",[],[1],[0.5166666666666666],vertical,"(390.0, 262.0)",0.5,0.477,1,762.526,1,0.04,other
0,127,valid,"[(1162, 811)]",[],[1],[0.6666666666666666],vertical,"(390.0, 762.0)",0.9333333333333333,0.622,1,767.36,2,0.04,same
0,128,valid,"[(1157, 768)]",[],[1],[0.6333333333333333],vertical,"(890.0, 262.0)",0.9166666666666666,0.588,1,773.044,2,0.04,same
0,129,valid,"[(1160, 786)]",[],[1],[0.75],horizontal,"(390.0, 262.0)",0.6666666666666666,0.696,1,778.775,2,0.04,same
0,130,valid,"[(1170, 807)]",[],[1],[0.85],horizontal,"(390.0, 262.0)",0.5,nan,0,783.842,0,0.04,same
0,131,valid,"[(1142, 763)]",[],[1],[0.7333333333333333],horizontal,"(390.0, 262.0)",1.0,0.685,1,788.505,1,0.04,same
0,132,valid,"[(1164, 790)]",[],[1],[0.6166666666666667],vertical,"(890.0, 262.0)",1.1833333333333333,0.577,1,794.029,1,0.04,same
0,133,valid,"[(1166, 796)]",[],[1],[0.7],vertical,"(890.0, 262.0)",0.35,0.656,1,799.493,1,0.04,same
0,134,catch,"[(1174, 812)]",[],[1],[],horizontal,"(890.0, 762.0)",1.7,nan,1,804.044,2,0.04,same
0,135,valid,"[(1170, 787)]",[],[1],[0.6166666666666667],vertical,"(890.0, 262.0)",1.4833333333333334,0.574,1,809.793,2,0.04,same
0,136,catch,"[(1174, 774)]",[],[1],[],horizontal,"(890.0, 262.0)",1.7,nan,1,815.526,2,0.04,same
0,137,valid,"[(1175, 776)]",[],[1],[0.5333333333333333],vertical,"(890.0, 262.0)",0.8166666666666667,0.497,1,821.024,3,0.04,same
0,138,valid,"[(1170, 787)]",[],[1],[0.5666666666666667],horizontal,"(390.0, 262.0)",0.5666666666666667,0.524,1,826.576,3,0.04,same
0,139,catch,"[(1174, 780)]",[],[1],[],horizontal,"(390.0, 262.0)",1.7,nan,1,831.676,3,0.04,same
0,140,valid,"[(1164, 791)]",[],[1],[0.6333333333333333],horizontal,"(890.0, 262.0)",0.6333333333333333,0.59,1,837.51,3,0.04,same
0,141,valid,"[(1170, 769)]",[],[1],[0.6333333333333333],horizontal,"(890.0, 262.0)",1.1666666666666667,0.586,1,843.234,3,0.04,same
0,142,invalid_adjacent_other_bar,"[(1167, 777)]",[],[1],[0.55],horizontal,"(890.0, 762.0)",0.75,0.507,1,849.419,3,0.04,other
0,143,catch,"[(1164, 781)]",[],[1],[],vertical,"(890.0, 262.0)",1.7,nan,1,854.811,3,0.04,same
0,144,valid,"[(1174, 782)]",[],[1],[0.7333333333333333],vertical,"(890.0, 762.0)",1.3333333333333333,0.679,1,861.193,3,0.04,same
0,145,valid,"[(1161, 777)]",[],[1],[0.5333333333333333],vertical,"(890.0, 262.0)",0.95,0.49,1,867.25,3,0.04,same
0,146,valid,"[(1151, 771)]",[],[1],[0.5833333333333334],horizontal,"(890.0, 262.0)",0.5666666666666667,0.544,1,872.792,3,0.04,same
0,147,valid,"[(1170, 778)]",[],[1],[0.5833333333333334],horizontal,"(890.0, 762.0)",1.0,0.536,1,877.997,3,0.04,same
0,148,valid,"[(1164, 756)]",[],[1],[0.5666666666666667],horizontal,"(390.0, 262.0)",0.6333333333333333,0.519,1,883.499,3,0.04,same
0,149,valid,"[(1156, 766)]",[],[1],[0.36666666666666664],horizontal,"(890.0, 262.0)",1.3666666666666667,0.329,1,888.965,3,0.04,same
0,150,valid,"[(1174, 779)]",[],[1],[0.6166666666666667],horizontal,"(390.0, 762.0)",1.2333333333333334,0.569,1,895.075,3,0.04,same
0,151,invalid_adjacent_other_bar,"[(1180, 758)]",[],[1],[0.7],vertical,"(890.0, 762.0)",1.3666666666666667,0.653,1,901.331,3,0.04,other
0,152,catch,"[(1172, 782)]",[],[1],[],vertical,"(890.0, 262.0)",1.7,nan,1,907.359,3,0.04,same
0,153,valid,"[(1171, 769)]",[],[1],[0.7333333333333333],vertical,"(390.0, 262.0)",1.25,0.685,1,913.41,3,0.04,same
0,154,catch,"[(1160, 758)]",[],[1],[],horizontal,"(890.0, 762.0)",1.7,nan,1,920.061,3,0.02,same
0,155,valid,"[(1160, 778)]",[],[1],[0.85],horizontal,"(390.0, 262.0)",1.3666666666666667,nan,0,925.735,0,0.02,same
0,156,catch,"[(1139, 776)]",[],[1],[],horizontal,"(890.0, 762.0)",1.7,nan,1,930.798,1,0.02,same
0,157,valid,"[(1148, 773)]",[],[1],[0.6666666666666666],horizontal,"(390.0, 762.0)",0.9166666666666666,0.625,1,936.314,1,0.02,same
0,158,invalid_adjacent_other_bar,"[(1170, 779)]",[],[1],[0.5166666666666666],horizontal,"(890.0, 262.0)",0.5166666666666666,0.474,1,941.278,1,0.02,other
0,159,valid,"[(1174, 777)]",[],[1],"[0.85, 0.85]",vertical,"(890.0, 762.0)",0.8166666666666667,"0.802,nan",0,945.845,0,0.02,same
0,160,valid,"[(1147, 793)]",[],[1],[0.5333333333333333],horizontal,"(890.0, 762.0)",0.9833333333333333,0.488,1,950.692,1,0.02,same
0,161,valid,"[(1170, 778)]",[],[1],[0.6333333333333333],vertical,"(890.0, 762.0)",0.4666666666666667,0.588,1,955.393,1,0.02,same
0,162,valid,"[(1176, 769)]",[],[1],[0.6333333333333333],horizontal,"(890.0, 262.0)",0.7,0.592,1,959.544,1,0.02,same
0,163,valid,"[(1172, 767)]",[],[1],[0.7333333333333333],horizontal,"(890.0, 262.0)",0.5333333333333333,0.696,1,964.528,2,0.02,same
0,164,valid,"[(1171, 771)]",[],[1],[0.5166666666666666],vertical,"(890.0, 262.0)",0.9666666666666667,0.476,1,969.611,2,0.02,same
0,165,valid,"[(1175, 770)]",[],[1],[0.5666666666666667],vertical,"(390.0, 262.0)",0.5833333333333334,0.525,1,974.802,2,0.02,same
0,166,invalid_same_bar,"[(1169, 776)]",[],[1],[0.5333333333333333],vertical,"(390.0, 262.0)",0.75,0.492,1,980.21,3,0.02,same
0,167,valid,"[(1160, 764)]",[],[1],[0.55],vertical,"(890.0, 262.0)",0.6166666666666667,0.507,1,986.11,3,0.02,same
0,168,valid,"[(1160, 768)]",[],[1],[0.5166666666666666],vertical,"(890.0, 262.0)",1.5,0.475,1,991.271,3,0.02,same
0,169,valid,"[(1172, 772)]",[],[1],[0.4666666666666667],horizontal,"(890.0, 762.0)",1.3333333333333333,0.429,1,997.613,3,0.02,same
0,170,valid,"[(1205, 757)]",[],[1],[0.7666666666666666],vertical,"(390.0, 262.0)",0.4166666666666667,0.721,1,1003.692,3,0.02,same
0,171,invalid_adjacent_other_bar,"[(1171, 779)]",[],[1],[0.55],vertical,"(390.0, 762.0)",0.5666666666666667,0.506,1,1009.544,3,0.02,other
0,172,invalid_adjacent_other_bar,"[(1175, 788)]",[],[1],[0.85],horizontal,"(890.0, 262.0)",0.45,nan,0,1015.244,0,0.02,other
0,173,catch,"[(1160, 781)]",[],[1],[],horizontal,"(390.0, 762.0)",1.7,nan,1,1019.674,1,0.0,same
0,174,catch,"[(1161, 773)]",[],[1],[],horizontal,"(890.0, 262.0)",1.7,nan,1,1025.439,1,0.0,same
0,175,invalid_adjacent_other_bar,"[(1173, 785)]",[],[1],[0.85],vertical,"(390.0, 262.0)",1.1,nan,0,1030.288,0,0.0,other
0,176,catch,"[(1160, 769)]",[],[1],[],horizontal,"(890.0, 762.0)",1.7,nan,1,1035.237,1,0.0,same
0,177,catch,"[(1170, 790)]",[],[1],[],horizontal,"(390.0, 762.0)",,"('cti', 1.652),nan",0,1040.5,0,0.02,same
0,178,catch,"[(1121, 790)]",[],[1],[],vertical,"(390.0, 262.0)",1.7,nan,1,1044.837,1,0.02,same
0,179,catch,"[(1160, 766)]",[],[1],[],horizontal,"(390.0, 262.0)",1.7,nan,1,1049.832,1,0.02,same
0,180,valid,"[(1180, 748), (1116, 781)]",[],"[0, 1]",[0.6],horizontal,"(890.0, 762.0)",1.2666666666666666,0.556,1,1054.876,1,0.02,same
0,181,catch,"[(1166, 767)]",[],[1],[],vertical,"(890.0, 262.0)",1.7,nan,1,1061.735,2,0.02,same
0,182,valid,"[(1180, 792)]",[],[1],[0.5666666666666667],vertical,"(390.0, 262.0)",0.6333333333333333,0.522,1,1067.405,2,0.02,same
0,183,catch,"[(1194, 766)]",[],[1],[],vertical,"(390.0, 262.0)",1.7,nan,1,1072.445,2,0.02,same
0,184,catch,"[(1175, 795)]",[],[1],[],vertical,"(890.0, 262.0)",1.7,nan,1,1078.068,3,0.02,same
0,185,valid,"[(1160, 794)]",[],[1],[0.6166666666666667],horizontal,"(390.0, 262.0)",0.4166666666666667,0.575,1,1084.101,3,0.02,same
0,186,invalid_same_bar,"[(1166, 769)]",[],[1],[0.7],vertical,"(390.0, 762.0)",0.75,0.658,1,1089.924,3,0.02,same
0,187,catch,"[(1160, 769)]",[],[1],[],vertical,"(390.0, 762.0)",1.7,nan,1,1095.613,3,0.02,same
0,188,valid,"[(1170, 768)]",[],[1],[0.65],horizontal,"(390.0, 762.0)",1.4833333333333334,0.607,1,1101.374,3,0.02,same
0,189,valid,"[(1158, 783)]",[],[1],[0.6666666666666666],horizontal,"(890.0, 762.0)",0.43333333333333335,0.624,1,1107.653,3,0.02,same
0,190,invalid_adjacent_other_bar,"[(1165, 768)]",[],[1],[0.85],horizontal,"(890.0, 262.0)",0.7333333333333333,nan,0,1112.744,0,0.02,other
0,191,invalid_adjacent_other_bar,"[(1166, 772)]",[],[1],[0.85],vertical,"(390.0, 762.0)",1.2833333333333332,nan,0,1117.112,0,0.02,other
0,192,valid,"[(1147, 791)]",[],[1],[0.6],vertical,"(390.0, 762.0)",0.8333333333333334,0.56,1,1121.926,1,0.02,same
0,193,valid,"[(1181, 772)]",[],[1],[0.6833333333333333],vertical,"(390.0, 762.0)",1.4833333333333334,0.638,1,1126.904,1,0.02,same
0,194,valid,"[(1165, 781)]",[],[1],[0.5166666666666666],vertical,"(890.0, 762.0)",0.75,0.476,1,1132.361,1,0.02,same
0,195,catch,"[(1179, 769)]",[],[1],[],horizontal,"(390.0, 762.0)",1.7,nan,1,1137.326,2,0.02,same
0,196,invalid_same_bar,"[(1166, 775)]",[],[1],[0.6],vertical,"(890.0, 762.0)",1.4,0.564,1,1143.001,2,0.02,same
0,197,valid,"[(1160, 773)]",[],[1],[0.5],horizontal,"(390.0, 762.0)",0.6666666666666666,0.456,1,1149.006,2,0.02,same
0,198,valid,"[(1161, 777)]",[],[1],[0.85],vertical,"(390.0, 262.0)",0.9,nan,0,1154.344,0,0.02,same
0,199,catch,"[(1132, 776)]",[],[1],[],horizontal,"(390.0, 262.0)",1.7,nan,1,1159.378,1,0.02,same
0,200,valid,"[(1156, 748), (1133, 815)]",[],"[0, 1]",[0.6],horizontal,"(890.0, 762.0)",0.6333333333333333,0.556,1,1164.554,1,0.02,same
0,201,valid,"[(1172, 762)]",[],[1],[0.5833333333333334],vertical,"(390.0, 762.0)",0.4,0.543,1,1170.314,1,0.02,same
0,202,valid,"[(1176, 803)]",[],[1],[0.5666666666666667],vertical,"(390.0, 262.0)",1.3,0.523,1,1174.519,2,0.02,same
0,203,valid,"[(1164, 775)]",[],[1],[0.6333333333333333],vertical,"(390.0, 762.0)",1.4,0.597,1,1180.394,2,0.02,same
0,204,catch,"[(1165, 772)]",[],[1],[],horizontal,"(890.0, 762.0)",1.7,nan,1,1185.932,2,0.02,same
0,205,valid,"[(1162, 763)]",[],[1],[],horizontal,"(390.0, 762.0)",,"('cti', 1.097)",0,1191.687,0,0.02,same
0,206,catch,"[(1163, 777)]",[],[1],[],horizontal,"(890.0, 262.0)",1.7,nan,1,1196.019,1,0.02,same
0,207,valid,"[(1160, 781)]",[],[1],[0.5666666666666667],horizontal,"(890.0, 262.0)",0.9166666666666666,0.526,1,1201.144,1,0.02,same
0,208,catch,"[(1175, 782)]",[],[1],[],vertical,"(390.0, 262.0)",1.7,nan,1,1206.163,1,0.02,same
0,209,invalid_adjacent_other_bar,"[(1171, 782)]",[],[1],[0.85],horizontal,"(890.0, 262.0)",0.48333333333333334,nan,0,1211.164,0,0.02,other
0,210,valid,"[(1166, 782)]",[],[1],[0.6333333333333333],vertical,"(390.0, 762.0)",0.6166666666666667,0.594,1,1215.478,1,0.02,same
0,211,catch,"[(1182, 772)]",[],[1],[],vertical,"(890.0, 762.0)",1.7,nan,1,1220.013,1,0.02,same
0,212,catch,"[(1166, 777)]",[],[1],[],horizontal,"(390.0, 262.0)",1.7,nan,1,1224.971,1,0.02,same
0,213,valid,"[(1160, 777)]",[],[1],[0.6],horizontal,"(390.0, 762.0)",1.1333333333333333,0.564,1,1230.115,2,0.02,same
0,214,valid,"[(1175, 771)]",[],[1],[0.5666666666666667],horizontal,"(890.0, 262.0)",1.4,0.526,1,1235.762,2,0.02,same
0,215,catch,"[(1160, 768)]",[],[1],[],vertical,"(390.0, 262.0)",1.7,nan,1,1241.518,2,0.02,same
0,216,invalid_adjacent_other_bar,"[(1175, 788)]",[],[1],[0.6],horizontal,"(890.0, 262.0)",1.15,0.559,1,1247.043,3,0.02,other
0,217,invalid_same_bar,"[(1165, 782)]",[],[1],[0.6333333333333333],horizontal,"(390.0, 762.0)",0.6666666666666666,0.592,1,1253.544,3,0.02,same
0,218,catch,"[(1164, 780)]",[],[1],[],horizontal,"(390.0, 262.0)",1.7,nan,1,1258.896,3,0.02,same
0,219,valid,"[(1160, 772)]",[],[1],[0.5666666666666667],horizontal,"(390.0, 262.0)",1.4166666666666667,0.527,1,1264.571,3,0.02,same
0,220,catch,"[(1160, 773)]",[],[1],[],vertical,"(390.0, 762.0)",1.7,nan,1,1270.611,3,0.02,same
0,221,catch,"[(1149, 785)]",[],[1],[],vertical,"(390.0, 262.0)",1.7,nan,1,1276.629,3,0.02,same
0,222,catch,"[(1153, 756)]",[],[1],[],vertical,"(890.0, 262.0)",1.7,nan,1,1282.757,3,0.02,same
0,223,catch,"[(1160, 792)]",[],[1],[],vertical,"(390.0, 262.0)",1.7,nan,1,1289.072,3,0.02,same
0,224,valid,"[(1160, 770)]",[],[1],[0.5166666666666666],horizontal,"(890.0, 262.0)",0.5333333333333333,0.482,1,1294.779,3,0.02,same
0,225,catch,"[(1162, 768)]",[],[1],[],horizontal,"(390.0, 262.0)",1.7,nan,1,1300.028,3,0.02,same
0,226,valid,"[(1169, 772)]",[],[1],[0.6],horizontal,"(390.0, 762.0)",0.9333333333333333,0.56,1,1305.761,3,0.02,same
0,227,valid,"[(1160, 782)]",[],[1],[0.65],vertical,"(390.0, 762.0)",0.6666666666666666,0.609,1,1311.811,3,0.0,same
0,228,catch,"[(1161, 768)]",[],[1],[],horizontal,"(890.0, 262.0)",1.7,nan,1,1317.334,3,0.0,same
0,229,valid,"[(1131, 771)]",[],[1],[0.85],horizontal,"(890.0, 762.0)",1.1666666666666667,nan,0,1323.579,0,0.0,same
0,230,valid,"[(1157, 771)]",[],[1],[0.7833333333333333],horizontal,"(890.0, 262.0)",0.5,0.735,1,1328.445,1,0.0,same
0,231,catch,"[(1175, 783)]",[],[1],[],vertical,"(390.0, 762.0)",1.7,nan,1,1333.56,1,0.0,same
0,232,catch,"[(1169, 755)]",[],[1],[],vertical,"(890.0, 762.0)",1.7,nan,1,1338.465,1,0.0,same
0,233,valid,"[(1174, 780)]",[],[1],[0.6666666666666666],vertical,"(890.0, 762.0)",0.8,0.631,1,1343.662,2,0.0,same
0,234,catch,"[(1165, 762)]",[],[1],[],vertical,"(390.0, 262.0)",1.7,nan,1,1348.698,2,0.0,same
0,235,valid,"[(1154, 763)]",[],[1],[0.5333333333333333],vertical,"(390.0, 762.0)",0.8166666666666667,0.493,1,1354.107,2,0.0,same
0,236,catch,"[(1161, 749), (1130, 793)]",[],"[0, 1]",[],horizontal,"(890.0, 262.0)",1.7,nan,1,1359.391,3,0.0,same
0,237,valid,"[(1160, 756)]",[],[1],[0.55],vertical,"(890.0, 262.0)",1.35,0.509,1,1366.645,3,0.0,same
0,238,invalid_adjacent_other_bar,"[(1160, 758)]",[],[1],[0.6666666666666666],vertical,"(390.0, 762.0)",1.4166666666666667,0.622,1,1373.05,3,0.0,other
0,239,catch,"[(1160, 762)]",[],[1],[],vertical,"(890.0, 262.0)",1.7,nan,1,1379.312,3,0.0,same
0,240,valid,"[(1179, 765)]",[],[1],[0.6833333333333333],vertical,"(390.0, 262.0)",0.5666666666666667,0.646,1,1385.288,3,0.0,same
0,241,catch,"[(1167, 772)]",[],[1],[],vertical,"(390.0, 762.0)",1.7,nan,1,1390.71,3,0.0,same
0,242,invalid_adjacent_other_bar,"[(1162, 773)]",[],[1],[0.4666666666666667],vertical,"(890.0, 262.0)",1.4833333333333334,0.431,1,1396.845,3,0.0,other
0,243,valid,"[(1170, 771)]",[],[1],[0.6],vertical,"(390.0, 262.0)",1.0666666666666667,0.568,1,1403.486,3,0.0,same
0,244,valid,"[(1163, 766)]",[],[1],[0.7666666666666666],vertical,"(390.0, 762.0)",0.7833333333333333,0.724,1,1409.707,3,0.0,same
0,245,invalid_adjacent_other_bar,"[(1156, 759)]",[],[1],[0.85],horizontal,"(890.0, 762.0)",0.4666666666666667,nan,0,1415.758,0,0.0,other
0,246,valid,"[(1133, 758)]",[],[1],[0.5833333333333334],vertical,"(890.0, 262.0)",0.48333333333333334,0.543,1,1419.908,1,0.0,same
0,247,catch,"[(1160, 748), (1167, 739), (1115, 812)]",[],"[0, 0, 1]",[],vertical,"(390.0, 262.0)",1.7,nan,1,1424.986,1,0.0,same
0,248,valid,"[(1160, 764)]",[],[1],[0.6333333333333333],horizontal,"(890.0, 762.0)",1.0,0.59,1,1431.114,1,0.0,same
0,249,valid,"[(1165, 763)]",[],[1],[0.7],horizontal,"(890.0, 262.0)",0.48333333333333334,0.653,1,1436.366,2,0.0,same
0,250,valid,"[(1162, 768)]",[],[1],[0.85],vertical,"(390.0, 262.0)",0.9666666666666667,nan,0,1441.184,0,0.0,same
0,251,valid,"[(1160, 787)]",[],[1],[0.85],horizontal,"(390.0, 262.0)",1.4,nan,0,1446.375,0,0.0,same
0,252,valid,"[(1141, 813)]",[],[1],[0.5166666666666666],horizontal,"(890.0, 262.0)",0.8666666666666667,0.479,1,1451.197,1,0.0,same
0,253,valid,"[(1158, 782)]",[],[1],[0.5166666666666666],vertical,"(390.0, 262.0)",0.9333333333333333,0.484,1,1455.725,1,0.0,same
0,254,valid,"[(1171, 771)]",[],[1],[0.8],vertical,"(890.0, 262.0)",0.85,0.755,1,1460.549,1,0.0,same
0,255,catch,"[(1165, 790)]",[],[1],[],vertical,"(890.0, 762.0)",1.7,nan,1,1465.521,2,0.0,same
0,256,catch,"[(1156, 765)]",[],[1],[],vertical,"(390.0, 762.0)",1.7,nan,1,1471.076,2,0.0,same
0,257,valid,"[(1159, 768)]",[],[1],[],vertical,"(890.0, 762.0)",,"('cti', 1.174)",0,1477.041,0,0.0,same
0,258,valid,"[(1147, 798)]",[],[1],[0.5166666666666666],horizontal,"(390.0, 262.0)",0.4666666666666667,0.479,1,1480.995,1,0.0,same
0,259,invalid_same_bar,"[(1149, 763)]",[],[1],[0.6666666666666666],vertical,"(890.0, 762.0)",1.5,0.628,1,1485.712,1,0.0,same
0,260,catch,"[(1137, 781)]",[],[1],[],horizontal,"(390.0, 262.0)",1.7,nan,1,1491.298,1,0.0,same
0,261,catch,"[(1147, 810)]",[],[1],[],vertical,"(890.0, 762.0)",,"('cti', 1.292),nan",0,1496.63,0,0.02,same
0,262,valid,"[(1111, 813)]",[],[1],[0.55],horizontal,"(890.0, 262.0)",0.9166666666666666,0.51,1,1501.002,1,0.02,same
0,263,valid,"[(1153, 821)]",[],[1],[0.5333333333333333],horizontal,"(890.0, 762.0)",1.5166666666666666,0.494,1,1517.463,1,0.02,same
0,264,valid,"[(1172, 808)]",[],[1],[0.6666666666666666],horizontal,"(390.0, 262.0)",1.3666666666666667,0.624,1,1522.733,1,0.02,same
0,265,valid,"[(1141, 792)]",[],[1],[0.7333333333333333],horizontal,"(390.0, 762.0)",1.0333333333333332,0.684,1,1528.262,2,0.02,same
0,266,valid,"[(1161, 801)]",[],[1],[0.6833333333333333],horizontal,"(890.0, 762.0)",1.4,0.635,1,1534.062,2,0.02,same
0,267,catch,"[(1168, 794)]",[],[1],[],vertical,"(890.0, 762.0)",1.7,nan,1,1540.212,2,0.02,same
0,268,valid,"[(1156, 792)]",[],[1],[0.55],horizontal,"(390.0, 262.0)",0.7833333333333333,0.508,1,1545.838,3,0.02,same
0,269,valid,"[(1157, 799)]",[],[1],[0.85],horizontal,"(890.0, 762.0)",1.1333333333333333,nan,0,1551.468,0,0.02,same
0,270,valid,"[(1120, 821)]",[],[1],[0.5166666666666666],vertical,"(390.0, 262.0)",1.5333333333333332,0.475,1,1556.345,1,0.02,same
0,271,valid,"[(1155, 798)]",[],[1],[0.5666666666666667],horizontal,"(890.0, 762.0)",1.0666666666666667,0.525,1,1561.894,1,0.02,same
0,272,valid,"[(1159, 788)]",[],[1],[0.75],horizontal,"(890.0, 262.0)",0.85,0.704,1,1567.237,1,0.02,same
0,273,catch,"[(1160, 773)]",[],[1],[],horizontal,"(890.0, 262.0)",1.7,nan,1,1572.282,2,0.02,same
0,274,valid,"[(1156, 768)]",[],[1],[0.5333333333333333],horizontal,"(390.0, 262.0)",0.8833333333333333,0.493,1,1577.648,2,0.02,same
0,275,invalid_adjacent_other_bar,"[(1161, 774)]",[],[1],[0.6166666666666667],horizontal,"(390.0, 762.0)",0.6166666666666667,0.584,1,1583.138,2,0.02,other
0,276,catch,"[(1156, 774)]",[],[1],[],horizontal,"(390.0, 262.0)",1.7,nan,1,1588.211,3,0.02,same
0,277,valid,"[(1158, 792)]",[],[1],[0.5833333333333334],horizontal,"(890.0, 762.0)",0.8833333333333333,0.54,1,1594.428,3,0.02,same
0,278,valid,"[(1136, 776)]",[],[1],[0.6166666666666667],vertical,"(390.0, 262.0)",1.1,0.57,1,1599.917,3,0.02,same
0,279,catch,"[(1157, 774)]",[],[1],[],vertical,"(890.0, 762.0)",1.7,nan,1,1605.729,3,0.02,same
0,280,catch,"[(1164, 800)]",[],[1],[],horizontal,"(390.0, 762.0)",1.7,nan,1,1612.028,3,0.02,same
0,281,valid,"[(1157, 786)]",[],[1],[0.5833333333333334],horizontal,"(890.0, 262.0)",0.35,0.54,1,1618.26,3,0.02,same
0,282,invalid_same_bar,"[(1158, 770)]",[],[1],[0.5333333333333333],horizontal,"(890.0, 262.0)",1.0666666666666667,0.494,1,1623.762,3,0.02,same
0,283,invalid_same_bar,"[(1150, 768)]",[],[1],[0.7333333333333333],horizontal,"(890.0, 762.0)",0.8166666666666667,0.684,1,1629.794,3,0.02,same
0,284,invalid_same_bar,"[(1159, 758)]",[],[1],[0.5666666666666667],vertical,"(390.0, 762.0)",1.3666666666666667,0.525,1,1635.462,3,0.02,same
0,285,valid,"[(1155, 773)]",[],[1],[0.3333333333333333],vertical,"(390.0, 262.0)",1.4833333333333334,0.301,1,1642.073,3,0.02,same
0,286,valid,"[(1106, 799)]",[],[1],[0.5833333333333334],vertical,"(390.0, 262.0)",1.1666666666666667,0.54,1,1648.13,3,0.02,same
0,287,valid,"[(1121, 796)]",[],[1],[0.5666666666666667],horizontal,"(390.0, 762.0)",1.5,0.523,1,1654.382,3,0.02,same
0,288,catch,"[(1156, 772)]",[],[1],[],horizontal,"(890.0, 762.0)",1.7,nan,1,1661.096,3,0.02,same
0,289,valid,"[(1160, 778)]",[],[1],[0.7],horizontal,"(390.0, 262.0)",0.4666666666666667,0.651,1,1667.187,3,0.02,same
0,290,valid,"[(1156, 788)]",[],[1],[0.5166666666666666],vertical,"(390.0, 762.0)",0.7666666666666666,0.476,1,1672.679,3,0.02,same
0,291,valid,"[(1160, 765)]",[],[1],[0.5666666666666667],horizontal,"(890.0, 262.0)",1.1333333333333333,0.524,1,1677.798,3,0.02,same
0,292,catch,"[(1154, 765)]",[],[1],[],horizontal,"(890.0, 762.0)",1.7,nan,1,1683.729,3,0.02,same
0,293,valid,"[(1151, 778)]",[],[1],[0.65],horizontal,"(390.0, 262.0)",1.4166666666666667,0.606,1,1690.042,3,0.02,same
0,294,valid,"[(1156, 778)]",[],[1],[0.85],horizontal,"(390.0, 262.0)",1.25,nan,0,1696.045,0,0.02,same
0,295,valid,"[(1137, 771)]",[],[1],[0.5666666666666667],vertical,"(390.0, 762.0)",0.6666666666666666,0.525,1,1700.731,1,0.02,same
0,296,invalid_same_bar,"[(1160, 782)]",[],[1],[0.85],horizontal,"(890.0, 762.0)",0.45,nan,0,1705.207,0,0.02,same
0,297,catch,"[(1155, 762)]",[],[1],[],vertical,"(890.0, 262.0)",1.7,nan,1,1709.49,1,0.02,same
0,298,catch,"[(1155, 774)]",[],[1],[],vertical,"(390.0, 262.0)",1.7,nan,1,1714.459,1,0.02,same
0,299,valid,"[(1156, 763)]",[],[1],[0.5666666666666667],vertical,"(390.0, 762.0)",0.6,0.523,1,1719.63,1,0.02,same
0,300,valid,"[(1160, 782)]",[],[1],[0.5833333333333334],vertical,"(890.0, 262.0)",0.8,0.543,1,1723.878,2,0.02,same
0,301,valid,"[(1159, 771)]",[],[1],[0.6],vertical,"(390.0, 762.0)",0.75,0.562,1,1728.852,2,0.02,same
0,302,valid,"[(1156, 774)]",[],[1],[0.5333333333333333],vertical,"(890.0, 762.0)",1.5,0.491,1,1734.155,2,0.02,same
0,303,invalid_adjacent_other_bar,"[(1162, 763)]",[],[1],[0.6666666666666666],vertical,"(390.0, 762.0)",0.9,0.62,1,1739.893,3,0.02,other
0,304,valid,"[(1160, 773)]",[],[1],[0.7],vertical,"(390.0, 262.0)",1.15,0.656,1,1745.794,3,0.02,same
0,305,valid,"[(1155, 768)]",[],[1],[0.55],vertical,"(890.0, 762.0)",1.4166666666666667,0.511,1,1751.985,3,0.02,same
0,306,valid,"[(1167, 773)]",[],[1],[0.55],horizontal,"(890.0, 762.0)",1.5333333333333332,0.504,1,1758.36,3,0.02,same
0,307,catch,"[(1176, 776)]",[],[1],[],horizontal,"(390.0, 262.0)",1.7,nan,1,1764.403,3,0.02,same
0,308,catch,"[(1160, 778)]",[],[1],[],vertical,"(390.0, 262.0)",1.7,nan,1,1770.623,3,0.02,same
0,309,invalid_same_bar,"[(1172, 782)]",[],[1],[0.55],horizontal,"(390.0, 762.0)",0.6666666666666666,0.512,1,1776.631,3,0.02,same
0,310,catch,"[(1180, 781)]",[],[1],[],vertical,"(390.0, 262.0)",1.7,nan,1,1782.279,3,0.02,same
0,311,valid,"[(1156, 776)]",[],[1],[0.5166666666666666],vertical,"(890.0, 262.0)",1.1333333333333333,0.473,1,1787.93,3,0.0,same
0,312,valid,"[(1160, 762)]",[],[1],[0.7],horizontal,"(890.0, 262.0)",0.7666666666666666,0.659,1,1793.762,3,0.0,same
0,313,valid,"[(1160, 766)]",[],[1],[0.8333333333333334],horizontal,"(390.0, 262.0)",0.7833333333333333,0.794,1,1799.412,3,0.0,same
0,314,valid,"[(1156, 767)]",[],[1],[0.6],vertical,"(390.0, 762.0)",1.3166666666666667,0.559,1,1805.335,3,0.0,same
0,315,valid,"[(1160, 766)]",[],[1],[0.85],horizontal,"(390.0, 262.0)",1.3833333333333333,nan,0,1811.467,0,0.0,same
0,316,invalid_same_bar,"[(1131, 774)]",[],[1],[0.55],horizontal,"(390.0, 762.0)",1.0,0.512,1,1816.53,1,0.0,same
0,317,valid,"[(1157, 765)]",[],[1],[0.6166666666666667],horizontal,"(890.0, 762.0)",1.0666666666666667,0.581,1,1821.522,1,0.0,same
0,318,valid,"[(1136, 788)]",[],[1],[0.6833333333333333],horizontal,"(890.0, 262.0)",1.05,0.647,1,1826.64,1,0.0,same
0,319,catch,"[(1159, 769)]",[],[1],[],vertical,"(890.0, 262.0)",1.7,nan,1,1831.446,2,0.0,same
0,320,invalid_adjacent_other_bar,"[(1172, 781)]",[],[1],[0.85],vertical,"(390.0, 762.0)",0.9333333333333333,nan,0,1836.812,0,0.0,other
0,321,catch,"[(1150, 771)]",[],[1],[],horizontal,"(890.0, 762.0)",1.7,nan,1,1841.812,1,0.0,same
0,322,valid,"[(1170, 780)]",[],[1],[0.6166666666666667],vertical,"(890.0, 262.0)",1.0333333333333332,0.577,1,1847.052,1,0.0,same
0,323,catch,"[(1178, 775)]",[],[1],[],horizontal,"(890.0, 762.0)",1.7,nan,1,1852.426,1,0.0,same
0,324,valid,"[(1119, 814)]",[],[1],[0.6166666666666667],horizontal,"(390.0, 762.0)",0.9,0.578,1,1857.618,2,0.0,same
0,325,valid,"[(1136, 778)]",[],[1],[0.6333333333333333],horizontal,"(890.0, 762.0)",0.9,0.589,1,1863.496,2,0.0,same
0,326,catch,"[(1156, 776)]",[],[1],[],vertical,"(890.0, 262.0)",1.7,nan,1,1868.813,2,0.0,same
0,327,valid,"[(1157, 759)]",[],[1],[0.5333333333333333],vertical,"(390.0, 262.0)",1.0166666666666666,0.498,1,1874.346,3,0.0,same
0,328,valid,"[(1141, 808)]",[],[1],[0.5666666666666667],vertical,"(890.0, 262.0)",0.8,0.525,1,1880.416,3,0.0,same
0,329,valid,"[(1160, 764)]",[],[1],[0.7],horizontal,"(890.0, 762.0)",0.6166666666666667,0.661,1,1886.363,3,0.0,same
0,330,valid,"[(1159, 794)]",[],[1],[0.85],horizontal,"(890.0, 762.0)",1.0333333333333332,nan,0,1891.896,0,0.0,same
0,331,valid,"[(1154, 815)]",[],[1],[0.43333333333333335],vertical,"(390.0, 762.0)",1.2,0.398,1,1896.563,1,0.0,same
0,332,valid,"[(1174, 807)]",[],[1],[0.6],horizontal,"(390.0, 262.0)",1.4666666666666666,0.561,1,1925.964,1,0.0,same
0,333,valid,"[(1170, 783)]",[],[1],[0.55],horizontal,"(390.0, 262.0)",1.2666666666666666,0.511,1,1931.722,1,0.0,same
0,334,catch,"[(1175, 802)]",[],[1],[],vertical,"(390.0, 262.0)",1.7,nan,1,1937.079,2,0.0,same
0,335,valid,"[(1185, 777)]",[],[1],[0.5666666666666667],horizontal,"(890.0, 762.0)",0.7,0.528,1,1942.775,2,0.0,same
0,336,invalid_same_bar,"[(1170, 787)]",[],[1],[0.65],vertical,"(390.0, 262.0)",0.5833333333333334,0.607,1,1947.931,2,0.0,same
0,337,valid,"[(1156, 801)]",[],[1],[0.65],vertical,"(390.0, 262.0)",1.05,0.609,1,1953.225,3,0.0,same
0,338,valid,"[(1174, 788)]",[],[1],[0.7166666666666667],vertical,"(390.0, 762.0)",0.3833333333333333,0.673,1,1959.646,3,0.0,same
0,339,valid,"[(1179, 792)]",[],[1],[0.55],vertical,"(390.0, 262.0)",0.36666666666666664,0.51,1,1965.145,3,0.0,same
0,340,valid,"[(1141, 762)]",[],[1],[0.7166666666666667],vertical,"(890.0, 762.0)",0.7,0.669,1,1969.871,3,0.0,same
0,341,valid,"[(1169, 781)]",[],[1],[0.5333333333333333],vertical,"(890.0, 262.0)",0.85,0.497,1,1975.242,3,0.0,same
0,342,valid,"[(1141, 782)]",[],[1],[0.5833333333333334],vertical,"(390.0, 762.0)",1.4,0.544,1,1980.639,3,0.0,same
0,343,valid,"[(1162, 779)]",[],[1],[0.7166666666666667],vertical,"(890.0, 762.0)",0.95,0.671,1,1987.275,3,0.0,same
0,344,valid,"[(1161, 781)]",[],[1],[0.5333333333333333],horizontal,"(390.0, 762.0)",1.3166666666666667,0.499,1,1993.039,3,0.0,same
0,345,valid,"[(1172, 776)]",[],[1],[0.6833333333333333],vertical,"(890.0, 262.0)",0.7833333333333333,0.635,1,1999.28,3,0.0,same
0,346,invalid_same_bar,"[(1160, 782)]",[],[1],[0.55],horizontal,"(890.0, 262.0)",1.4166666666666667,0.509,1,2004.765,3,0.0,same
0,347,catch,"[(1171, 776)]",[],[1],[],horizontal,"(890.0, 262.0)",1.7,nan,1,2010.985,3,0.0,same
0,348,valid,"[(1156, 786)]",[],[1],[0.6166666666666667],vertical,"(390.0, 262.0)",0.65,0.574,1,2016.661,3,0.0,same
0,349,invalid_adjacent_other_bar,"[(1177, 790)]",[],[1],[0.8],vertical,"(890.0, 262.0)",0.7333333333333333,0.753,1,2022.33,3,0.0,other
0,350,valid,"[(1160, 796)]",[],[1],[0.48333333333333334],vertical,"(890.0, 262.0)",1.3166666666666667,0.442,1,2028.13,3,0.0,same
0,351,valid,"[(1156, 782)]",[],[1],[0.5833333333333334],horizontal,"(890.0, 262.0)",1.1833333333333333,0.542,1,2034.38,3,0.0,same
0,352,invalid_same_bar,"[(1163, 796)]",[],[1],[0.5666666666666667],vertical,"(390.0, 262.0)",0.7333333333333333,0.527,1,2040.213,3,0.0,same
0,353,catch,"[(1169, 782)]",[],[1],[],vertical,"(890.0, 262.0)",1.7,nan,1,2045.935,3,0.0,same
0,354,invalid_same_bar,"[(1157, 780)]",[],[1],[0.5666666666666667],horizontal,"(390.0, 762.0)",0.5333333333333333,0.525,1,2051.564,3,0.0,same
0,355,valid,"[(1161, 769)]",[],[1],[0.55],horizontal,"(890.0, 762.0)",1.1833333333333333,0.512,1,2057.263,3,0.0,same
0,356,valid,"[(1171, 777)]",[],[1],[0.6],horizontal,"(390.0, 762.0)",0.7666666666666666,0.574,1,2063.164,3,0.0,same
0,357,valid,"[(1164, 784)]",[],[1],[0.85],horizontal,"(890.0, 762.0)",1.1166666666666667,nan,0,2068.813,0,0.0,same
0,358,catch,"[(1171, 785)]",[],[1],[],vertical,"(390.0, 762.0)",1.7,nan,1,2073.73,1,0.0,same
0,359,valid,"[(1172, 790)]",[],[1],[0.6666666666666666],horizontal,"(390.0, 262.0)",0.8666666666666667,0.622,1,2079.347,1,0.0,same
0,360,valid,"[(1154, 778)]",[],[1],[0.55],vertical,"(390.0, 262.0)",0.7333333333333333,0.514,1,2084.162,1,0.0,same
0,361,catch,"[(1174, 770)]",[],[1],[],vertical,"(890.0, 262.0)",1.7,nan,1,2088.623,2,0.0,same
0,362,catch,"[(1160, 788)]",[],[1],[],vertical,"(890.0, 762.0)",1.7,nan,1,2094.362,2,0.0,same
0,363,valid,"[(1160, 782)]",[],[1],[0.85],vertical,"(890.0, 762.0)",0.6333333333333333,nan,0,2099.922,0,0.0,same
0,364,valid,"[(1160, 790)]",[],[1],[0.85],horizontal,"(890.0, 262.0)",0.3833333333333333,nan,0,2104.13,0,0.0,same
0,365,valid,"[(1156, 781)]",[],[1],[0.5833333333333334],horizontal,"(890.0, 262.0)",1.2166666666666666,0.552,1,2108.38,1,0.0,same
0,366,valid,"[(1204, 802)]",[],[1],[0.5333333333333333],horizontal,"(390.0, 762.0)",0.55,0.492,1,2113.53,1,0.0,same
0,367,valid,"[(1160, 785)]",[],[1],[0.5166666666666666],horizontal,"(390.0, 762.0)",0.7833333333333333,0.475,1,2117.73,1,0.0,same
0,368,valid,"[(1158, 782)]",[],[1],[0.85],horizontal,"(390.0, 262.0)",1.0666666666666667,nan,0,2122.172,0,0.0,same
0,369,invalid_same_bar,"[(1151, 793)]",[],[1],[0.5333333333333333],vertical,"(890.0, 262.0)",1.0333333333333332,0.495,1,2127.147,1,0.0,same
0,370,invalid_same_bar,"[(1160, 802)]",[],[1],[0.6333333333333333],horizontal,"(390.0, 762.0)",1.5333333333333332,0.589,1,2132.298,1,0.0,same
0,371,valid,"[(1171, 773)]",[],[1],[0.5333333333333333],vertical,"(890.0, 262.0)",1.45,0.49,1,2138.005,1,0.0,same
0,372,valid,"[(1160, 787)]",[],[1],[0.5666666666666667],horizontal,"(390.0, 762.0)",1.2166666666666666,0.521,1,2143.431,2,0.0,same
0,373,valid,"[(1179, 773)]",[],[1],[0.5166666666666666],vertical,"(390.0, 262.0)",0.8166666666666667,0.479,1,2148.847,2,0.0,same
0,374,valid,"[(1178, 771)]",[],[1],[0.6166666666666667],horizontal,"(390.0, 762.0)",0.5166666666666666,0.578,1,2154.164,2,0.0,same
0,375,valid,"[(1170, 773)]",[],[1],[0.7],horizontal,"(890.0, 762.0)",1.5,0.653,1,2159.07,3,0.0,same
0,376,valid,"[(1166, 786)]",[],[1],[0.75],vertical,"(390.0, 762.0)",1.2833333333333332,0.706,1,2165.831,3,0.0,same
0,377,catch,"[(1160, 790)]",[],[1],[],vertical,"(390.0, 262.0)",1.7,nan,1,2171.996,3,0.0,same
0,378,catch,"[(1164, 781)]",[],[1],[],vertical,"(890.0, 262.0)",1.7,nan,1,2178.225,3,0.0,same
0,379,catch,"[(1160, 783)]",[],[1],[],vertical,"(890.0, 262.0)",1.7,nan,1,2183.819,3,0.0,same
0,380,valid,"[(1160, 773)]",[],[1],[0.6],vertical,"(890.0, 762.0)",1.3666666666666667,0.554,1,2189.435,3,0.0,same
0,381,valid,"[(1161, 791)]",[],[1],[0.85],vertical,"(890.0, 762.0)",0.4666666666666667,nan,0,2195.78,0,0.0,same
0,382,valid,"[(1125, 764)]",[],[1],[0.55],vertical,"(890.0, 262.0)",1.0,0.508,1,2199.88,1,0.0,same
0,383,catch,"[(1156, 768)]",[],[1],[],vertical,"(890.0, 262.0)",1.7,nan,1,2205.33,1,0.0,same
0,384,valid,"[(1158, 782)]",[],[1],[0.6],horizontal,"(390.0, 762.0)",1.1333333333333333,0.556,1,2210.446,1,0.0,same
0,385,catch,"[(1175, 786)]",[],[1],[],horizontal,"(890.0, 262.0)",,"('cti', 1.661),nan",0,2215.621,0,0.02,same
0,386,valid,"[(1151, 777)]",[],[1],[0.6666666666666666],vertical,"(890.0, 262.0)",0.5,0.62,1,2220.502,1,0.02,same
0,387,catch,"[(1170, 789)]",[],[1],[],vertical,"(390.0, 262.0)",1.7,nan,1,2225.19,1,0.02,same
0,388,catch,"[(1158, 773)]",[],[1],[],horizontal,"(890.0, 262.0)",1.7,nan,1,2230.135,1,0.02,same
0,389,valid,"[(1180, 791)]",[],[1],[0.5166666666666666],horizontal,"(390.0, 262.0)",0.8166666666666667,0.472,1,2234.891,2,0.02,same
0,390,catch,"[(1158, 777)]",[],[1],[],vertical,"(390.0, 762.0)",1.7,nan,1,2240.193,2,0.02,same
0,391,valid,"[(1162, 787)]",[],[1],[0.5833333333333334],horizontal,"(390.0, 262.0)",1.0166666666666666,0.54,1,2245.299,2,0.02,same
0,392,valid,"[(1178, 796)]",[],[1],[0.6333333333333333],horizontal,"(890.0, 262.0)",1.0333333333333332,0.591,1,2251.269,3,0.02,same
0,393,valid,"[(1167, 767)]",[],[1],[0.6166666666666667],vertical,"(390.0, 262.0)",0.65,0.57,1,2257.253,3,0.02,same
0,394,valid,"[(1168, 772)]",[],[1],[0.5833333333333334],vertical,"(890.0, 762.0)",0.7666666666666666,0.542,1,2262.497,3,0.02,same
0,395,invalid_adjacent_other_bar,"[(1179, 783)]",[],[1],[0.5333333333333333],vertical,"(890.0, 262.0)",0.8666666666666667,0.49,1,2268.351,3,0.02,other
0,396,valid,"[(1158, 782)]",[],[1],[0.85],vertical,"(390.0, 762.0)",0.9166666666666666,nan,0,2273.783,0,0.02,same
0,397,catch,"[(1138, 786)]",[],[1],[],vertical,"(890.0, 762.0)",1.7,nan,1,2278.338,1,0.02,same
0,398,valid,"[(1165, 770)]",[],[1],[0.5666666666666667],horizontal,"(390.0, 262.0)",0.8166666666666667,0.525,1,2283.817,1,0.02,same
0,399,valid,"[(1179, 778)]",[],[1],[0.43333333333333335],horizontal,"(890.0, 262.0)",1.5166666666666666,0.391,1,2288.569,1,0.02,same
0,400,valid,"[(1171, 778)]",[],[1],[0.5333333333333333],vertical,"(890.0, 262.0)",1.1833333333333333,0.495,1,2294.34,2,0.02,same
0,401,catch,"[(1170, 784)]",[],[1],[],vertical,"(390.0, 762.0)",1.7,nan,1,2300.138,2,0.02,same
0,402,valid,"[(1170, 792)]",[],[1],[0.85],horizontal,"(890.0, 762.0)",0.36666666666666664,nan,0,2305.438,0,0.02,same
0,403,valid,"[(1131, 771)]",[],[1],[0.6333333333333333],vertical,"(890.0, 262.0)",0.8333333333333334,0.588,1,2310.039,1,0.02,same
0,404,invalid_adjacent_other_bar,"[(1156, 784)]",[],[1],[0.5833333333333334],horizontal,"(890.0, 762.0)",0.4666666666666667,0.541,1,2314.974,1,0.02,other
0,405,invalid_same_bar,"[(1172, 786)]",[],[1],[0.7],horizontal,"(390.0, 762.0)",0.65,0.647,1,2319.434,1,0.02,same
0,406,catch,"[(1159, 773)]",[],[1],[],vertical,"(390.0, 262.0)",1.7,nan,1,2324.272,2,0.02,same
0,407,valid,"[(1198, 778)]",[],[1],[0.5],vertical,"(390.0, 762.0)",0.55,0.462,1,2330.265,2,0.02,same
0,408,valid,"[(1191, 790)]",[],[1],[0.5833333333333334],horizontal,"(390.0, 262.0)",1.4833333333333334,0.541,1,2335.344,2,0.02,same
0,409,valid,"[(1175, 791)]",[],[1],[0.5333333333333333],vertical,"(890.0, 762.0)",0.8833333333333333,0.497,1,2340.94,3,0.02,same
0,410,valid,"[(1156, 778)]",[],[1],[0.5666666666666667],vertical,"(890.0, 762.0)",0.45,0.52,1,2346.746,3,0.02,same
0,411,invalid_same_bar,"[(1151, 787)]",[],[1],[0.6],horizontal,"(390.0, 262.0)",1.2,0.558,1,2352.146,3,0.02,same
0,412,valid,"[(1160, 773)]",[],[1],[0.6833333333333333],horizontal,"(390.0, 262.0)",0.6666666666666666,0.637,1,2357.923,3,0.02,same
0,413,valid,"[(1170, 782)]",[],[1],[0.5833333333333334],vertical,"(390.0, 762.0)",1.1666666666666667,0.542,1,2363.697,3,0.02,same
0,414,catch,"[(1162, 782)]",[],[1],[],horizontal,"(890.0, 262.0)",1.7,nan,1,2370.097,3,0.02,same
0,415,valid,"[(1182, 795)]",[],[1],[0.7166666666666667],horizontal,"(890.0, 762.0)",0.65,0.669,1,2376.164,3,0.02,same
0,416,valid,"[(1157, 774)]",[],[1],[0.5833333333333334],horizontal,"(390.0, 262.0)",0.4666666666666667,0.544,1,2381.862,3,0.02,same
0,417,valid,"[(1179, 777)]",[],[1],[0.6333333333333333],vertical,"(890.0, 262.0)",0.6833333333333333,0.592,1,2387.044,3,0.02,same
0,418,valid,"[(1171, 778)]",[],[1],[0.48333333333333334],vertical,"(390.0, 262.0)",0.7833333333333333,0.441,1,2392.551,3,0.02,same
0,419,valid,"[(1172, 786)]",[],[1],[0.05],horizontal,"(890.0, 762.0)",0.43333333333333335,0.02,0,2397.964,0,0.02,same
0,420,valid,"[(1154, 780)]",[],[1],[0.48333333333333334],vertical,"(890.0, 762.0)",1.2666666666666666,0.448,1,2401.65,1,0.02,same
0,421,invalid_adjacent_other_bar,"[(1165, 786)]",[],[1],[0.7333333333333333],vertical,"(390.0, 262.0)",1.2333333333333334,0.684,1,2406.614,1,0.02,other
0,422,catch,"[(1185, 785)]",[],[1],[],horizontal,"(890.0, 762.0)",1.7,nan,1,2411.833,1,0.02,same
0,423,valid,"[(1177, 769)]",[],[1],[0.75],vertical,"(890.0, 762.0)",0.6666666666666666,0.706,1,2417.242,2,0.02,same
0,424,catch,"[(1166, 783)]",[],[1],[],horizontal,"(890.0, 262.0)",1.7,nan,1,2422.112,2,0.02,same
0,425,catch,"[(1170, 821)]",[],[1],[],vertical,"(890.0, 762.0)",1.7,nan,1,2427.673,2,0.02,same
0,426,invalid_adjacent_other_bar,"[(1160, 795)]",[],[1],[0.5666666666666667],vertical,"(390.0, 762.0)",0.4166666666666667,0.525,1,2433.53,3,0.02,other
0,427,valid,"[(1170, 772)]",[],[1],[0.85],horizontal,"(890.0, 762.0)",0.48333333333333334,nan,0,2439.223,0,0.02,same
0,428,valid,"[(1156, 772)]",[],[1],[0.6333333333333333],horizontal,"(890.0, 262.0)",0.8,0.588,1,2443.247,1,0.02,same
0,429,valid,"[(1162, 775)]",[],[1],[0.6333333333333333],vertical,"(890.0, 762.0)",0.5166666666666666,0.592,1,2448.103,1,0.02,same
0,430,catch,"[(1158, 769)]",[],[1],[],horizontal,"(890.0, 762.0)",1.7,nan,1,2452.864,1,0.02,same
0,431,catch,"[(1169, 776)]",[],[1],[],vertical,"(890.0, 262.0)",1.7,nan,1,2458.109,2,0.02,same
0,432,catch,"[(1158, 786)]",[],[1],[],horizontal,"(890.0, 762.0)",1.7,nan,1,2463.713,2,0.02,same
0,433,valid,"[(1156, 787)]",[],[1],[0.55],horizontal,"(890.0, 762.0)",1.2833333333333332,0.511,1,2469.598,2,0.02,same
0,434,invalid_adjacent_other_bar,"[(1173, 799)]",[],[1],[0.5833333333333334],horizontal,"(390.0, 262.0)",0.6833333333333333,0.539,1,2475.287,3,0.02,other
0,435,valid,"[(1170, 781)]",[],[1],[0.7333333333333333],horizontal,"(890.0, 762.0)",1.3666666666666667,0.7,1,2481.481,3,0.0,same
0,436,valid,"[(1156, 774)]",[],[1],[0.5833333333333334],horizontal,"(390.0, 762.0)",0.5166666666666666,0.543,1,2487.647,3,0.0,same
0,437,catch,"[(1156, 769)]",[],[1],[],vertical,"(390.0, 762.0)",1.7,nan,1,2493.432,3,0.0,same
0,438,invalid_same_bar,"[(1160, 777)]",[],[1],[0.5333333333333333],vertical,"(890.0, 262.0)",1.1333333333333333,0.491,1,2499.797,3,0.0,same
0,439,valid,"[(1156, 777)]",[],[1],[0.7],horizontal,"(390.0, 262.0)",1.1,0.647,1,2505.798,3,0.0,same
0,440,valid,"[(1177, 773)]",[],[1],[0.6166666666666667],vertical,"(390.0, 262.0)",0.7666666666666666,0.576,1,2512.214,3,0.0,same
0,441,valid,"[(1133, 790)]",[],[1],[],vertical,"(890.0, 262.0)",,"('cti', 1.099)",0,2517.564,0,0.0,same
0,442,invalid_adjacent_other_bar,"[(1156, 777)]",[],[1],[0.6666666666666666],horizontal,"(390.0, 262.0)",1.1166666666666667,0.622,1,2521.638,1,0.0,other
0,443,valid,"[(1136, 816)]",[],[1],[0.7833333333333333],horizontal,"(890.0, 762.0)",0.8166666666666667,0.738,1,2527.132,1,0.0,same
0,444,valid,"[(1175, 786)]",[],[1],[0.65],vertical,"(390.0, 262.0)",1.2333333333333334,0.606,1,2532.815,1,0.0,same
0,445,valid,"[(1175, 784)]",[],[1],"[0.85, 0.85]",horizontal,"(390.0, 262.0)",0.6833333333333333,"0.804,nan",0,2538.314,0,0.0,same
0,446,valid,"[(1150, 816)]",[],[1],[0.5666666666666667],vertical,"(390.0, 762.0)",0.9166666666666666,0.526,1,2542.796,1,0.0,same
0,447,invalid_same_bar,"[(1156, 782)]",[],[1],[0.5333333333333333],horizontal,"(390.0, 762.0)",0.55,0.494,1,2552.681,1,0.0,same
0,448,valid,"[(1158, 781)]",[],[1],[0.5666666666666667],horizontal,"(390.0, 262.0)",0.9166666666666666,0.526,1,2557.264,1,0.0,same
0,449,catch,"[(1176, 791)]",[],[1],[],vertical,"(890.0, 262.0)",1.7,nan,1,2562.2,2,0.0,same
0,450,valid,"[(1170, 772)]",[],[1],[0.4666666666666667],horizontal,"(890.0, 262.0)",0.7,0.433,1,2568.006,2,0.0,same
0,451,invalid_same_bar,"[(1160, 787)]",[],[1],[0.2833333333333333],horizontal,"(890.0, 762.0)",1.5,0.248,1,2572.782,2,0.0,same
0,452,valid,"[(1160, 774)]",[],[1],[0.5166666666666666],vertical,"(890.0, 262.0)",0.5166666666666666,0.478,1,2578.583,3,0.0,same
0,453,valid,"[(1175, 781)]",[],[1],[0.55],horizontal,"(890.0, 762.0)",1.35,0.51,1,2584.004,3,0.0,same
0,454,catch,"[(1180, 767)]",[],[1],[],vertical,"(890.0, 762.0)",1.7,nan,1,2589.768,3,0.0,same
0,455,valid,"[(1182, 765)]",[],[1],[0.6833333333333333],vertical,"(890.0, 762.0)",0.7833333333333333,0.639,1,2595.898,3,0.0,same
0,456,valid,"[(1151, 778)]",[],[1],[0.55],vertical,"(890.0, 762.0)",0.5166666666666666,0.511,1,2601.399,3,0.0,same
0,457,valid,"[(1157, 788)]",[],[1],[0.5],horizontal,"(390.0, 762.0)",0.43333333333333335,0.459,1,2606.644,3,0.0,same
0,458,catch,"[(1166, 781)]",[],[1],[],horizontal,"(390.0, 762.0)",1.7,nan,1,2612.131,3,0.0,same
0,459,valid,"[(1131, 792)]",[],[1],[0.5666666666666667],vertical,"(390.0, 262.0)",1.1666666666666667,0.523,1,2618.331,3,0.0,same
0,460,catch,"[(1152, 791)]",[],[1],[],horizontal,"(890.0, 762.0)",1.7,nan,1,2630.726,3,0.0,same
0,461,catch,"[(1164, 790)]",[],[1],[],horizontal,"(390.0, 762.0)",1.7,"('cti', 1.712),nan",0,2636.816,0,0.02,same
0,462,valid,"[(1136, 798)]",[],[1],[0.5666666666666667],vertical,"(390.0, 762.0)",1.3666666666666667,0.526,1,2641.789,1,0.02,same
0,463,catch,"[(1175, 773)]",[],[1],[],horizontal,"(390.0, 262.0)",1.7,nan,1,2647.3,1,0.02,same
0,464,valid,"[(1171, 785)]",[],[1],[0.75],vertical,"(390.0, 762.0)",0.7166666666666667,0.706,1,2652.585,1,0.02,same
0,465,valid,"[(1175, 768)]",[],[1],[0.6],vertical,"(890.0, 762.0)",1.2,0.561,1,2657.422,2,0.02,same
0,466,valid,"[(1166, 777)]",[],[1],[0.5833333333333334],vertical,"(890.0, 762.0)",1.2,0.549,1,2662.622,2,0.02,same
0,467,valid,"[(1160, 793)]",[],[1],[0.5833333333333334],horizontal,"(890.0, 762.0)",1.45,0.55,1,2668.766,2,0.02,same
0,468,valid,"[(1175, 791)]",[],[1],[0.5666666666666667],vertical,"(390.0, 262.0)",1.35,0.534,1,2674.828,3,0.02,same
0,469,valid,"[(1159, 770)]",[],[1],[0.21666666666666667],horizontal,"(890.0, 262.0)",1.3833333333333333,0.188,0,2681.121,0,0.02,same
0,470,valid,"[(1136, 783)]",[],[1],[0.6666666666666666],horizontal,"(890.0, 762.0)",0.4666666666666667,0.627,1,2685.763,1,0.02,same
0,471,invalid_same_bar,"[(1175, 778)]",[],[1],[0.85],vertical,"(390.0, 762.0)",0.8,nan,0,2690.781,0,0.02,same
0,472,valid,"[(1163, 768)]",[],[1],[0.6666666666666666],horizontal,"(890.0, 262.0)",1.3833333333333333,0.624,1,2695.343,1,0.02,same
0,473,valid,"[(1131, 785)]",[],[1],[0.8],vertical,"(390.0, 762.0)",0.75,0.759,1,2700.648,1,0.02,same
0,474,invalid_same_bar,"[(1136, 773)]",[],[1],[0.5833333333333334],vertical,"(390.0, 762.0)",1.3333333333333333,0.541,1,2706.03,1,0.02,same
0,475,valid,"[(1179, 783)]",[],[1],[0.7666666666666666],horizontal,"(390.0, 762.0)",0.8166666666666667,0.729,1,2711.558,2,0.02,same
0,476,catch,"[(1161, 772)]",[],[1],[],vertical,"(890.0, 762.0)",1.7,nan,1,2717.182,2,0.02,same
0,477,valid,"[(1156, 786)]",[],[1],[0.6333333333333333],vertical,"(390.0, 262.0)",1.4833333333333334,0.595,1,2722.899,2,0.02,same
0,478,valid,"[(1175, 795)]",[],[1],[0.55],horizontal,"(890.0, 262.0)",0.7833333333333333,0.511,1,2729.115,3,0.02,same
0,479,valid,"[(1155, 769)]",[],[1],[0.6333333333333333],vertical,"(890.0, 262.0)",1.0333333333333332,0.588,1,2735.168,3,0.02,same
0,480,valid,"[(1160, 757)]",[],[1],[0.5333333333333333],vertical,"(890.0, 262.0)",0.8333333333333334,0.493,1,2740.948,3,0.02,same
0,481,catch,"[(1161, 772)]",[],[1],[],vertical,"(390.0, 762.0)",1.7,nan,1,2746.654,3,0.02,same
0,482,catch,"[(1159, 761)]",[],[1],[],horizontal,"(890.0, 762.0)",1.7,nan,1,2752.298,3,0.02,same
0,483,valid,"[(1172, 783)]",[],[1],[0.55],horizontal,"(890.0, 762.0)",1.15,0.509,1,2758.198,3,0.02,same
0,484,valid,"[(1164, 782)]",[],[1],[0.23333333333333334],horizontal,"(390.0, 762.0)",0.75,0.198,0,2764.249,0,0.02,same
0,485,valid,"[(1119, 777)]",[],[1],[0.5166666666666666],vertical,"(390.0, 262.0)",1.3,0.476,1,2768.633,1,0.02,same
0,486,catch,"[(1160, 783)]",[],[1],[],horizontal,"(890.0, 762.0)",1.7,nan,1,2774.566,1,0.02,same
0,487,invalid_adjacent_other_bar,"[(1146, 802)]",[],[1],[0.6],horizontal,"(890.0, 262.0)",1.0666666666666667,0.56,1,2779.949,1,0.02,other
0,488,invalid_same_bar,"[(1171, 780)]",[],[1],[0.5666666666666667],vertical,"(890.0, 762.0)",0.6333333333333333,0.534,1,2785.016,2,0.02,same
0,489,valid,"[(1179, 782)]",[],[1],[0.5666666666666667],horizontal,"(890.0, 262.0)",1.2333333333333334,0.52,1,2789.855,2,0.02,same
0,490,valid,"[(1157, 779)]",[],[1],[0.5166666666666666],vertical,"(890.0, 762.0)",1.4166666666666667,0.482,1,2795.561,2,0.02,same
0,491,invalid_adjacent_other_bar,"[(1159, 782)]",[],[1],[0.5666666666666667],horizontal,"(890.0, 762.0)",0.9166666666666666,0.524,1,2801.461,3,0.02,other
0,492,valid,"[(1164, 779)]",[],[1],[0.23333333333333334],horizontal,"(390.0, 762.0)",1.4333333333333333,0.196,0,2807.765,0,0.02,same
0,493,catch,"[(1153, 787)]",[],[1],[],horizontal,"(890.0, 762.0)",1.7,nan,1,2812.565,1,0.02,same
0,494,valid,"[(1164, 790)]",[],[1],[0.5333333333333333],horizontal,"(390.0, 762.0)",0.65,0.493,1,2817.9,1,0.02,same
0,495,catch,"[(1162, 782)]",[],[1],[],vertical,"(390.0, 262.0)",1.7,nan,1,2822.448,1,0.02,same
0,496,valid,"[(1165, 752), (1141, 810)]",[],"[0, 1]",[0.5333333333333333],horizontal,"(890.0, 262.0)",1.0,0.499,1,2827.575,2,0.02,same
0,497,valid,"[(1147, 776)]",[],[1],[0.5166666666666666],horizontal,"(890.0, 262.0)",0.75,0.473,1,2833.882,2,0.02,same
0,498,catch,"[(1165, 789)]",[],[1],[],horizontal,"(390.0, 762.0)",1.7,nan,1,2839.482,2,0.02,same
0,499,valid,"[(1158, 777)]",[],[1],[0.5333333333333333],horizontal,"(890.0, 262.0)",1.5333333333333332,0.493,1,2845.067,3,0.02,same
0,500,valid,"[(1163, 774)]",[],[1],[0.31666666666666665],horizontal,"(890.0, 262.0)",1.4666666666666666,0.282,1,2851.501,3,0.02,same
0,501,valid,"[(1167, 795)]",[],[1],[0.7],horizontal,"(390.0, 762.0)",1.4333333333333333,0.66,1,2857.506,3,0.02,same
0,502,catch,"[(1158, 781)]",[],[1],[],vertical,"(390.0, 762.0)",,"('cti', 1.638),nan",0,2863.95,0,0.04,same
0,503,valid,"[(1160, 804)]",[],[1],[0.7166666666666667],vertical,"(890.0, 262.0)",0.9,0.665,1,2868.727,1,0.04,same
0,504,valid,"[(1157, 777)]",[],[1],[0.5833333333333334],horizontal,"(890.0, 262.0)",1.3333333333333333,0.539,1,2873.724,1,0.04,same
0,505,valid,"[(1159, 769)]",[],[1],[0.7],horizontal,"(390.0, 762.0)",0.48333333333333334,0.655,1,2879.182,1,0.04,same
0,506,valid,"[(1160, 764)]",[],[1],[0.85],vertical,"(890.0, 762.0)",1.0833333333333333,nan,0,2883.896,0,0.04,same
0,507,invalid_adjacent_other_bar,"[(1161, 782)]",[],[1],[0.85],horizontal,"(890.0, 262.0)",0.5166666666666666,nan,0,2889.048,0,0.04,other
0,508,valid,"[(1135, 764)]",[],[1],[0.5],vertical,"(390.0, 262.0)",0.5666666666666667,0.46,1,2893.271,1,0.04,same
0,509,valid,"[(1153, 778)]",[],[1],[0.7],vertical,"(890.0, 762.0)",0.9333333333333333,0.658,1,2897.865,1,0.04,same
0,510,valid,"[(1160, 771)]",[],[1],[0.5666666666666667],vertical,"(890.0, 262.0)",0.4166666666666667,0.532,1,2902.884,1,0.04,same
0,511,invalid_same_bar,"[(1140, 759)]",[],[1],[0.5333333333333333],vertical,"(390.0, 262.0)",0.48333333333333334,0.49,1,2907.265,2,0.02,same
0,512,valid,"[(1158, 768)]",[],[1],[0.85],horizontal,"(890.0, 762.0)",0.4166666666666667,nan,0,2912.006,0,0.02,same
0,513,catch,"[(1120, 755)]",[],[1],[],horizontal,"(890.0, 262.0)",1.7,nan,1,2916.565,1,0.02,same
0,514,catch,"[(1158, 771)]",[],[1],[],horizontal,"(890.0, 262.0)",1.7,nan,1,2921.806,1,0.02,same
0,515,valid,"[(1175, 774)]",[],[1],[0.5833333333333334],horizontal,"(390.0, 262.0)",1.0166666666666666,0.542,1,2926.808,1,0.02,same
0,516,valid,"[(1153, 771)]",[],[1],[0.5166666666666666],vertical,"(890.0, 762.0)",1.3166666666666667,0.482,1,2931.763,2,0.02,same
0,517,valid,"[(1177, 781)]",[],[1],[0.85],horizontal,"(390.0, 762.0)",0.7,nan,0,2937.649,0,0.02,same
0,518,valid,"[(1116, 760)]",[],[1],[0.5333333333333333],vertical,"(890.0, 262.0)",0.7166666666666667,0.493,1,2941.838,1,0.02,same
0,519,valid,"[(1169, 789)]",[],[1],[0.85],vertical,"(390.0, 262.0)",1.25,nan,0,2946.336,0,0.02,same
0,520,valid,"[(1158, 771)]",[],[1],[0.5666666666666667],horizontal,"(890.0, 762.0)",1.0833333333333333,0.527,1,2951.565,1,0.02,same
0,521,catch,"[(1160, 796)]",[],[1],[],horizontal,"(390.0, 762.0)",1.7,nan,1,2956.975,1,0.02,same
0,522,valid,"[(1175, 779)]",[],[1],[0.5],horizontal,"(890.0, 762.0)",1.4333333333333333,0.461,1,2962.532,1,0.02,same
0,523,valid,"[(1157, 795)]",[],[1],[0.5333333333333333],vertical,"(890.0, 262.0)",1.0666666666666667,0.494,1,2968.033,2,0.02,same
0,524,valid,"[(1170, 784)]",[],[1],[0.6],vertical,"(390.0, 262.0)",1.1166666666666667,0.559,1,2973.615,2,0.02,same
0,525,catch,"[(1159, 776)]",[],[1],[],vertical,"(390.0, 762.0)",1.7,nan,1,2979.499,2,0.02,same
0,526,valid,"[(1177, 769)]",[],[1],[0.6],horizontal,"(890.0, 262.0)",1.05,0.554,1,2985.283,3,0.02,same
0,527,valid,"[(1154, 784)]",[],[1],[0.7],vertical,"(390.0, 262.0)",0.55,0.659,1,2991.276,3,0.02,same
0,528,valid,"[(1164, 771)]",[],[1],[0.85],horizontal,"(390.0, 762.0)",0.35,nan,0,2996.5,0,0.02,same
0,529,catch,"[(1136, 763)]",[],[1],[],horizontal,"(390.0, 262.0)",1.7,nan,1,3000.399,1,0.02,same
0,530,valid,"[(1168, 772)]",[],[1],[0.5333333333333333],vertical,"(890.0, 262.0)",0.5666666666666667,0.49,1,3005.752,1,0.02,same
0,531,valid,"[(1161, 764)]",[],[1],[0.75],horizontal,"(390.0, 262.0)",0.8166666666666667,0.702,1,3010.215,1,0.02,same
0,532,catch,"[(1131, 773)]",[],[1],[],vertical,"(890.0, 262.0)",1.7,nan,1,3015.5,2,0.02,same
0,533,valid,"[(1176, 766)]",[],[1],[0.85],vertical,"(890.0, 262.0)",1.0166666666666666,nan,0,3020.82,0,0.02,same
0,534,valid,"[(1153, 772)]",[],[1],[0.4],horizontal,"(890.0, 262.0)",1.3333333333333333,0.364,1,3025.766,1,0.02,same
0,535,valid,"[(1136, 774)]",[],[1],[0.5833333333333334],horizontal,"(890.0, 262.0)",1.1666666666666667,0.535,1,3031.262,1,0.02,same
0,536,catch,"[(1156, 765)]",[],[1],[],horizontal,"(390.0, 762.0)",1.7,nan,1,3035.965,1,0.02,same
0,537,catch,"[(1170, 776)]",[],[1],[],vertical,"(890.0, 762.0)",1.7,nan,1,3041.315,2,0.02,same
0,538,catch,"[(1170, 792)]",[],[1],[],vertical,"(890.0, 262.0)",1.7,nan,1,3046.746,2,0.02,same
0,539,valid,"[(1166, 778)]",[],[1],[0.55],vertical,"(390.0, 262.0)",1.2166666666666666,0.509,1,3052.095,2,0.02,same
0,540,valid,"[(1160, 777)]",[],[1],[0.7666666666666666],vertical,"(390.0, 262.0)",1.3833333333333333,0.722,1,3057.42,3,0.02,same
0,541,catch,"[(1166, 772)]",[],[1],[],vertical,"(890.0, 762.0)",1.7,nan,1,3063.615,3,0.02,same
0,542,valid,"[(1166, 769)]",[],[1],[0.5333333333333333],horizontal,"(390.0, 762.0)",0.36666666666666664,0.492,1,3069.383,3,0.02,same
0,543,valid,"[(1168, 777)]",[],[1],[0.6],horizontal,"(890.0, 762.0)",1.2333333333333334,0.551,1,3074.607,3,0.02,same
0,544,invalid_same_bar,"[(1167, 766)]",[],[1],[0.6],horizontal,"(890.0, 762.0)",0.7666666666666666,0.563,1,3080.703,3,0.02,same
0,545,valid,"[(1131, 778)]",[],[1],[0.5833333333333334],horizontal,"(390.0, 262.0)",0.8333333333333334,0.542,1,3085.814,3,0.02,same
0,546,valid,"[(1133, 796)]",[],[1],[0.6166666666666667],horizontal,"(890.0, 762.0)",0.95,0.573,1,3091.288,3,0.02,same
0,547,valid,"[(1160, 769)]",[],[1],[0.7333333333333333],vertical,"(390.0, 262.0)",1.1,0.68,1,3097.458,3,0.02,same
0,548,invalid_same_bar,"[(1170, 778)]",[],[1],[0.7333333333333333],vertical,"(390.0, 262.0)",0.36666666666666664,0.685,1,3103.712,3,0.02,same
0,549,valid,"[(1161, 768)]",[],[1],[0.5833333333333334],horizontal,"(890.0, 762.0)",0.43333333333333335,0.539,1,3109.261,3,0.02,same
0,550,catch,"[(1162, 769)]",[],[1],[],vertical,"(390.0, 262.0)",1.7,nan,1,3114.568,3,0.02,same
0,551,catch,"[(1177, 770)]",[],[1],[],vertical,"(890.0, 762.0)",1.7,nan,1,3120.339,3,0.02,same
0,552,valid,"[(1165, 778)]",[],[1],[0.7333333333333333],horizontal,"(390.0, 762.0)",1.5,0.689,1,3126.333,3,0.0,same
0,553,catch,"[(1175, 778)]",[],[1],[],horizontal,"(390.0, 762.0)",1.7,nan,1,3132.428,3,0.0,same
0,554,valid,"[(1159, 773)]",[],[1],[0.5833333333333334],vertical,"(390.0, 262.0)",0.4666666666666667,0.542,1,3138.201,3,0.0,same
0,555,valid,"[(1156, 764)]",[],[1],[0.6833333333333333],vertical,"(890.0, 762.0)",1.2166666666666666,0.64,1,3143.9,3,0.0,same
0,556,valid,"[(1158, 773)]",[],[1],[0.7],vertical,"(890.0, 762.0)",0.7833333333333333,0.656,1,3150.183,3,0.0,same
0,557,valid,"[(1147, 769)]",[],[1],[0.55],horizontal,"(390.0, 762.0)",1.4,0.509,1,3156.453,3,0.0,same
0,558,catch,"[(1160, 770)]",[],[1],[],horizontal,"(390.0, 262.0)",1.7,nan,1,3162.25,3,0.0,same
0,559,valid,"[(1174, 768)]",[],[1],[0.6833333333333333],vertical,"(890.0, 262.0)",0.6666666666666666,0.639,1,3168.292,3,0.0,same
0,560,valid,"[(1171, 774)]",[],[1],[0.5666666666666667],horizontal,"(890.0, 262.0)",1.4166666666666667,0.527,1,3173.998,3,0.0,same
0,561,catch,"[(1156, 767)]",[],[1],[],horizontal,"(390.0, 762.0)",1.7,nan,1,3179.903,3,0.0,same
0,562,valid,"[(1158, 772)]",[],[1],[0.55],vertical,"(890.0, 262.0)",1.3,0.511,1,3186.115,3,0.0,same
0,563,invalid_adjacent_other_bar,"[(1165, 767)]",[],[1],[0.5333333333333333],vertical,"(390.0, 262.0)",1.0,0.497,1,3192.665,3,0.0,other
0,564,catch,"[(1162, 782)]",[],[1],[],vertical,"(390.0, 262.0)",1.7,nan,1,3198.136,3,0.0,same
0,565,catch,"[(1166, 764)]",[],[1],[],vertical,"(890.0, 262.0)",1.7,nan,1,3204.029,3,0.0,same
0,566,catch,"[(1151, 759)]",[],[1],[],horizontal,"(890.0, 262.0)",1.7,nan,1,3210.049,3,0.0,same
0,567,catch,"[(1160, 775)]",[],[1],[],vertical,"(390.0, 262.0)",1.7,nan,1,3216.076,3,0.0,same
0,568,valid,"[(1157, 776)]",[],[1],[0.5333333333333333],vertical,"(390.0, 762.0)",0.7166666666666667,0.49,1,3221.843,3,0.0,same
0,569,valid,"[(1157, 774)]",[],[1],[0.5],horizontal,"(890.0, 262.0)",1.1166666666666667,0.46,1,3227.466,3,0.0,same
0,570,valid,"[(1155, 782)]",[],[1],[0.5166666666666666],vertical,"(890.0, 762.0)",1.5333333333333332,0.476,1,3233.167,3,0.0,same
0,571,valid,"[(1160, 773)]",[],[1],[0.7166666666666667],vertical,"(390.0, 262.0)",1.1833333333333333,0.678,1,3239.294,3,0.0,same
0,572,valid,"[(1142, 771)]",[],[1],[0.6666666666666666],horizontal,"(390.0, 262.0)",0.7,0.625,1,3245.532,3,0.0,same
0,573,valid,"[(1163, 786)]",[],[1],[0.5333333333333333],vertical,"(890.0, 762.0)",0.4166666666666667,0.495,1,3251.349,3,0.0,same
0,574,valid,"[(1146, 790)]",[],[1],[0.5833333333333334],vertical,"(890.0, 762.0)",0.5,0.543,1,3256.584,3,0.0,same
0,575,catch,"[(1136, 766)]",[],[1],[],horizontal,"(890.0, 262.0)",1.7,nan,1,3261.965,3,0.0,same
0,576,valid,"[(1153, 771)]",[],[1],[0.7166666666666667],vertical,"(890.0, 762.0)",0.35,0.671,1,3267.699,3,0.0,same
0,577,valid,"[(1161, 786)]",[],[1],[0.85],vertical,"(890.0, 762.0)",0.7333333333333333,nan,0,3273.201,0,0.0,same
0,578,valid,"[(1138, 790)]",[],[1],[0.6333333333333333],horizontal,"(890.0, 262.0)",0.9333333333333333,0.588,1,3277.84,1,0.0,same
0,579,valid,"[(1174, 782)]",[],[1],[0.6],vertical,"(890.0, 762.0)",1.1833333333333333,0.56,1,3282.899,1,0.0,same
0,580,valid,"[(1156, 768)]",[],[1],[0.7666666666666666],horizontal,"(390.0, 262.0)",1.1333333333333333,0.725,1,3288.149,1,0.0,same
0,581,valid,"[(1175, 792)]",[],[1],[0.85],vertical,"(390.0, 762.0)",0.5166666666666666,nan,0,3293.385,0,0.0,same
0,582,catch,"[(1138, 766)]",[],[1],[],vertical,"(890.0, 262.0)",,"('cti', 1.488),nan",0,3297.966,0,0.02,same
0,583,valid,"[(1158, 803)]",[],[1],[0.5333333333333333],horizontal,"(390.0, 262.0)",1.1833333333333333,0.494,1,3302.39,1,0.02,same
0,584,catch,"[(1175, 770)]",[],[1],[],vertical,"(390.0, 262.0)",1.7,nan,1,3307.578,1,0.02,same
0,585,valid,"[(1175, 773)]",[],[1],[0.8],vertical,"(890.0, 262.0)",0.9166666666666666,0.757,1,3312.637,1,0.02,same
0,586,valid,"[(1165, 780)]",[],[1],[0.5666666666666667],vertical,"(390.0, 262.0)",0.7,0.523,1,3317.754,2,0.02,same
0,587,catch,"[(1166, 792)]",[],[1],[],vertical,"(390.0, 262.0)",1.7,nan,1,3322.95,2,0.02,same
0,588,invalid_same_bar,"[(1152, 786)]",[],[1],[0.55],horizontal,"(390.0, 762.0)",0.8166666666666667,0.51,1,3328.389,2,0.02,same
0,589,valid,"[(1175, 783)]",[],[1],[0.5666666666666667],horizontal,"(390.0, 762.0)",0.8833333333333333,0.523,1,3333.585,3,0.02,same
0,590,valid,"[(1136, 767)]",[],[1],[0.85],vertical,"(890.0, 262.0)",1.0666666666666667,nan,0,3339.69,0,0.02,same
0,591,valid,"[(1138, 764)]",[],[1],[0.5833333333333334],horizontal,"(890.0, 262.0)",0.5666666666666667,0.549,1,3344.925,1,0.02,same
0,592,catch,"[(1136, 767)]",[],[1],[],horizontal,"(390.0, 262.0)",1.7,nan,1,3349.365,1,0.02,same
0,593,catch,"[(1170, 777)]",[],[1],[],horizontal,"(890.0, 762.0)",1.7,nan,1,3354.792,1,0.02,same
0,594,valid,"[(1172, 772)]",[],[1],[0.1],horizontal,"(890.0, 262.0)",1.5166666666666666,0.069,0,3360.24,0,0.02,same
0,595,valid,"[(1160, 776)]",[],[1],[0.65],vertical,"(390.0, 762.0)",0.9833333333333333,0.607,1,3364.941,1,0.02,same
0,596,invalid_same_bar,"[(1207, 774)]",[],[1],[0.8333333333333334],horizontal,"(390.0, 262.0)",1.1833333333333333,0.791,1,3370.484,1,0.02,same
0,597,catch,"[(1136, 770)]",[],[1],[],vertical,"(890.0, 262.0)",1.7,nan,1,3375.767,1,0.02,same
0,598,invalid_same_bar,"[(1132, 764)]",[],[1],[0.85],vertical,"(390.0, 262.0)",0.7166666666666667,nan,0,3380.517,0,0.02,same
0,599,invalid_adjacent_other_bar,"[(1175, 779)]",[],[1],[0.5666666666666667],horizontal,"(390.0, 762.0)",0.75,0.525,1,3385.419,1,0.02,other
0,600,catch,"[(1128, 773)]",[],[1],[],vertical,"(390.0, 262.0)",1.7,nan,1,3389.851,1,0.02,same
0,601,valid,"[(1174, 775)]",[],[1],[0.6333333333333333],horizontal,"(390.0, 762.0)",1.25,0.59,1,3395.017,1,0.02,same
0,602,catch,"[(1161, 763)]",[],[1],[],horizontal,"(390.0, 262.0)",1.7,nan,1,3400.118,2,0.02,same
0,603,invalid_adjacent_other_bar,"[(1146, 765)]",[],[1],[0.6833333333333333],vertical,"(890.0, 262.0)",0.5333333333333333,0.643,1,3405.892,2,0.02,other
0,604,valid,"[(1147, 776)]",[],[1],[0.5666666666666667],vertical,"(390.0, 262.0)",0.9666666666666667,0.525,1,3411.116,2,0.02,same
0,605,valid,"[(1163, 795)]",[],[1],[0.85],horizontal,"(890.0, 262.0)",1.0333333333333332,nan,0,3416.334,0,0.02,same
0,606,invalid_adjacent_other_bar,"[(1136, 760)]",[],[1],[0.5666666666666667],horizontal,"(390.0, 762.0)",0.85,0.528,1,3421.501,1,0.02,other
0,607,valid,"[(1158, 768)]",[],[1],[0.85],vertical,"(390.0, 762.0)",0.55,nan,0,3426.35,0,0.02,same
0,608,catch,"[(1126, 748), (1126, 778)]",[],"[0, 1]",[],vertical,"(890.0, 762.0)",1.7,nan,1,3430.779,1,0.02,same
0,609,valid,"[(1165, 781)]",[],[1],[0.55],vertical,"(390.0, 262.0)",0.45,0.512,1,3437.295,1,0.02,same
0,610,valid,"[(1171, 794)]",[],[1],[0.85],vertical,"(890.0, 762.0)",1.0833333333333333,nan,0,3441.815,0,0.02,same
0,611,catch,"[(1167, 778)]",[],[1],[],vertical,"(390.0, 762.0)",1.7,nan,1,3446.895,1,0.02,same
0,612,valid,"[(1138, 777)]",[],[1],[0.55],vertical,"(390.0, 262.0)",0.65,0.509,1,3452.11,1,0.02,same
0,613,invalid_adjacent_other_bar,"[(1166, 799)]",[],[1],[0.85],vertical,"(390.0, 262.0)",0.85,nan,0,3456.815,0,0.02,other
0,614,valid,"[(1140, 766)]",[],[1],[0.6833333333333333],horizontal,"(890.0, 262.0)",1.45,0.643,1,3461.8,1,0.02,same
0,615,invalid_same_bar,"[(1160, 778)]",[],[1],[0.8166666666666667],vertical,"(390.0, 762.0)",1.2833333333333332,0.775,1,3467.483,1,0.02,same
0,616,valid,"[(1172, 782)]",[],[1],[0.6],horizontal,"(390.0, 262.0)",1.2166666666666666,0.558,1,3473.051,1,0.02,same
0,617,catch,"[(1153, 761)]",[],[1],[],horizontal,"(890.0, 262.0)",1.7,nan,1,3478.468,2,0.02,same
0,618,valid,"[(1158, 768)]",[],[1],[0.5333333333333333],vertical,"(890.0, 262.0)",0.5,0.492,1,3484.232,2,0.02,same
0,619,valid,"[(1171, 778)]",[],[1],[0.55],vertical,"(890.0, 262.0)",1.3666666666666667,0.511,1,3489.401,2,0.02,same
0,620,valid,"[(1157, 772)]",[],[1],[0.6333333333333333],vertical,"(390.0, 762.0)",1.4666666666666666,0.591,1,3495.185,3,0.02,same
0,621,invalid_same_bar,"[(1175, 767)]",[],[1],[0.85],vertical,"(390.0, 762.0)",1.2666666666666666,nan,0,3501.924,0,0.02,same
0,622,catch,"[(1137, 759)]",[],[1],[],vertical,"(390.0, 262.0)",1.7,nan,1,3507.0,1,0.02,same
0,623,invalid_adjacent_other_bar,"[(1165, 779)]",[],[1],[0.6833333333333333],horizontal,"(390.0, 262.0)",0.45,0.636,1,3512.034,1,0.02,other
0,624,catch,"[(1171, 781)]",[],[1],[],vertical,"(890.0, 762.0)",1.7,nan,1,3516.289,1,0.02,same
0,625,valid,"[(1146, 768)]",[],[1],[0.55],vertical,"(390.0, 262.0)",1.1833333333333333,0.512,1,3521.65,2,0.02,same
0,626,valid,"[(1177, 774)]",[],[1],[0.55],vertical,"(390.0, 262.0)",0.65,0.511,1,3526.911,2,0.02,same
0,627,valid,"[(1154, 755)]",[],[1],[0.65],vertical,"(390.0, 762.0)",1.1666666666666667,0.608,1,3531.718,2,0.02,same
0,628,catch,"[(1148, 771)]",[],[1],[],vertical,"(390.0, 762.0)",1.7,nan,1,3537.153,3,0.02,same
0,629,valid,"[(1174, 775)]",[],[1],[0.5833333333333334],horizontal,"(390.0, 262.0)",1.5166666666666666,0.542,1,3543.4,3,0.02,same
0,630,catch,"[(1162, 773)]",[],[1],[],vertical,"(890.0, 262.0)",1.7,nan,1,3549.268,3,0.02,same
0,631,valid,"[(1173, 767)]",[],[1],[0.5666666666666667],horizontal,"(890.0, 762.0)",0.9,0.525,1,3555.187,3,0.02,same
0,632,catch,"[(1151, 773)]",[],[1],[],vertical,"(890.0, 262.0)",1.7,nan,1,3560.935,3,0.0,same
0,633,valid,"[(1136, 765)]",[],[1],[0.55],horizontal,"(390.0, 262.0)",1.1,0.51,1,3566.765,3,0.0,same
0,634,valid,"[(1161, 793)]",[],[1],[0.6666666666666666],horizontal,"(390.0, 262.0)",0.36666666666666664,0.624,1,3572.2,3,0.0,same
0,635,invalid_same_bar,"[(1148, 759)]",[],[1],[0.6],vertical,"(890.0, 762.0)",1.4166666666666667,0.557,1,3577.568,3,0.0,same
0,636,valid,"[(1156, 772)]",[],[1],[0.85],vertical,"(890.0, 762.0)",0.45,nan,0,3583.796,0,0.0,same
0,637,valid,"[(1139, 770)]",[],[1],[0.7],vertical,"(890.0, 262.0)",1.3166666666666667,0.657,1,3588.251,1,0.0,same
0,638,valid,"[(1147, 764)]",[],[1],[0.85],horizontal,"(390.0, 262.0)",0.8166666666666667,nan,0,3593.734,0,0.0,same
0,639,invalid_same_bar,"[(1148, 783)]",[],[1],[0.5666666666666667],vertical,"(890.0, 262.0)",1.2666666666666666,0.528,1,3598.251,1,0.0,same
0,640,valid,"[(1169, 789)]",[],[1],[0.6],horizontal,"(390.0, 262.0)",0.5666666666666667,0.557,1,3603.3,1,0.0,same
0,641,catch,"[(1152, 774)]",[],[1],[],horizontal,"(390.0, 262.0)",1.7,nan,1,3608.267,1,0.0,same
0,642,valid,"[(1158, 763)]",[],[1],[0.5666666666666667],horizontal,"(890.0, 262.0)",0.7333333333333333,0.525,1,3613.568,2,0.0,same
0,643,invalid_adjacent_other_bar,"[(1161, 782)]",[],[1],[0.6166666666666667],vertical,"(390.0, 262.0)",0.6833333333333333,0.578,1,3618.683,2,0.0,other
0,644,valid,"[(1166, 797)]",[],[1],[0.5333333333333333],vertical,"(890.0, 262.0)",0.95,0.487,1,3624.201,2,0.0,same
0,645,valid,"[(1161, 773)]",[],[1],[0.6333333333333333],vertical,"(890.0, 262.0)",1.35,0.59,1,3629.829,3,0.0,same
0,646,valid,"[(1154, 769)]",[],[1],[0.7166666666666667],horizontal,"(890.0, 262.0)",0.9,0.671,1,3636.068,3,0.0,same
0,647,valid,"[(1169, 775)]",[],[1],[0.7],horizontal,"(390.0, 762.0)",0.5833333333333334,0.662,1,3642.185,3,0.0,same
0,648,valid,"[(1161, 782)]",[],[1],[0.5333333333333333],horizontal,"(890.0, 762.0)",0.6166666666666667,0.491,1,3647.929,3,0.0,same
0,649,invalid_same_bar,"[(1154, 770)]",[],[1],[0.6333333333333333],horizontal,"(890.0, 262.0)",0.4666666666666667,0.589,1,3653.568,3,0.0,same
0,650,valid,"[(1151, 777)]",[],[1],[0.6333333333333333],horizontal,"(390.0, 762.0)",0.7166666666666667,0.592,1,3658.72,3,0.0,same
0,651,valid,"[(1165, 754)]",[],[1],[0.6],vertical,"(390.0, 262.0)",0.45,0.556,1,3664.467,3,0.0,same
0,652,valid,"[(1160, 797)]",[],[1],[0.6],vertical,"(390.0, 262.0)",1.3,0.556,1,3669.694,3,0.0,same
0,653,valid,"[(1146, 776)]",[],[1],[0.55],vertical,"(890.0, 262.0)",1.35,0.51,1,3675.821,3,0.0,same
0,654,valid,"[(1160, 782)]",[],[1],[0.85],vertical,"(390.0, 762.0)",0.8166666666666667,nan,0,3681.886,0,0.0,same
0,655,invalid_same_bar,"[(1124, 784)]",[],[1],[0.65],horizontal,"(890.0, 262.0)",0.5166666666666666,0.61,1,3686.888,1,0.0,same
0,656,catch,"[(1157, 795)]",[],[1],[],vertical,"(390.0, 762.0)",1.7,nan,1,3691.249,1,0.0,same
0,657,valid,"[(1155, 770)]",[],[1],[0.6666666666666666],vertical,"(890.0, 262.0)",1.2666666666666666,0.621,1,3696.617,1,0.0,same
0,658,invalid_adjacent_other_bar,"[(1165, 790)]",[],[1],[0.6],horizontal,"(390.0, 762.0)",0.85,0.554,1,3701.617,2,0.0,other
0,659,catch,"[(1173, 777)]",[],[1],[],horizontal,"(890.0, 262.0)",1.7,nan,1,3706.759,2,0.0,same
0,660,valid,"[(1170, 773)]",[],[1],[0.6166666666666667],horizontal,"(890.0, 762.0)",1.1166666666666667,0.573,1,3712.167,2,0.0,same
0,661,catch,"[(1170, 775)]",[],[1],[],vertical,"(890.0, 762.0)",1.7,nan,1,3717.439,3,0.0,same
0,662,valid,"[(1131, 817)]",[],[1],[0.85],vertical,"(890.0, 262.0)",1.2833333333333332,nan,0,3723.333,0,0.0,same
0,663,valid,"[(1125, 803)]",[],[1],[0.5333333333333333],horizontal,"(890.0, 262.0)",0.3833333333333333,0.496,1,3805.799,1,0.0,same
0,664,valid,"[(1170, 826)]",[],[1],[0.85],vertical,"(390.0, 762.0)",0.7,nan,0,3810.334,0,0.0,same
0,665,invalid_same_bar,"[(1149, 787)]",[],[1],[0.6333333333333333],horizontal,"(890.0, 762.0)",1.0333333333333332,0.595,1,3815.107,1,0.0,same
0,666,catch,"[(1112, 826)]",[],[1],[],horizontal,"(890.0, 262.0)",1.7,nan,1,3820.304,1,0.0,same
0,667,valid,"[(1160, 774)]",[],[1],[0.5166666666666666],horizontal,"(890.0, 262.0)",0.9,0.477,1,3826.011,1,0.0,same
0,668,valid,"[(1175, 797)]",[],[1],[0.5833333333333334],vertical,"(390.0, 262.0)",0.6166666666666667,0.542,1,3830.883,2,0.0,same
0,669,invalid_adjacent_other_bar,"[(1175, 800)]",[],[1],[0.55],horizontal,"(890.0, 262.0)",1.3666666666666667,0.505,1,3836.027,2,0.0,other
0,670,valid,"[(1156, 791)]",[],[1],[0.6666666666666666],vertical,"(890.0, 262.0)",0.4166666666666667,0.627,1,3842.077,2,0.0,same
0,671,catch,"[(1169, 781)]",[],[1],[],horizontal,"(890.0, 262.0)",1.7,nan,1,3846.818,3,0.0,same
0,672,valid,"[(1169, 799)]",[],[1],[0.6166666666666667],horizontal,"(890.0, 762.0)",1.3,0.571,1,3852.868,3,0.0,same
0,673,valid,"[(1175, 793)]",[],[1],[0.6333333333333333],horizontal,"(390.0, 762.0)",1.05,0.592,1,3859.334,3,0.0,same
0,674,catch,"[(1175, 774)]",[],[1],[],vertical,"(890.0, 262.0)",1.7,nan,1,3865.55,3,0.0,same
0,675,valid,"[(1165, 791)]",[],[1],[0.31666666666666665],vertical,"(390.0, 762.0)",0.85,0.282,1,3871.231,3,0.0,same
0,676,valid,"[(1156, 779)]",[],[1],[0.85],vertical,"(890.0, 762.0)",0.4,nan,0,3876.678,0,0.0,same
0,677,valid,"[(1136, 755)]",[],[1],[0.85],vertical,"(390.0, 762.0)",0.5333333333333333,nan,0,3880.934,0,0.0,same
0,678,valid,"[(1136, 777)]",[],[1],[0.85],horizontal,"(390.0, 262.0)",0.9333333333333333,nan,0,3885.144,0,0.0,same
0,679,invalid_same_bar,"[(1139, 776)]",[],[1],[0.85],horizontal,"(390.0, 762.0)",0.7833333333333333,nan,0,3889.451,0,0.0,same
0,680,catch,"[(1131, 795)]",[],[1],[],horizontal,"(390.0, 762.0)",1.7,nan,1,3893.818,1,0.0,same
0,681,catch,"[(1147, 773)]",[],[1],[],vertical,"(890.0, 262.0)",1.7,nan,1,3899.593,1,0.0,same
0,682,valid,"[(1175, 792)]",[],[1],[0.6],horizontal,"(890.0, 262.0)",0.9,0.557,1,3905.007,1,0.0,same
0,683,valid,"[(1169, 775)]",[],[1],[0.6333333333333333],vertical,"(390.0, 262.0)",1.1333333333333333,0.59,1,3909.863,2,0.0,same
0,684,invalid_same_bar,"[(1169, 778)]",[],[1],[0.85],horizontal,"(890.0, 762.0)",0.8666666666666667,nan,0,3915.419,0,0.0,same
0,685,valid,"[(1138, 769)]",[],[1],[0.55],horizontal,"(890.0, 262.0)",1.1833333333333333,0.504,1,3920.184,1,0.0,same
0,686,valid,"[(1146, 802)]",[],[1],[0.6],horizontal,"(390.0, 262.0)",0.6166666666666667,0.563,1,3925.634,1,0.0,same
0,687,catch,"[(1150, 807)]",[],[1],[],vertical,"(390.0, 762.0)",1.7,nan,1,3930.216,1,0.0,same
0,688,invalid_same_bar,"[(1153, 789)]",[],[1],[0.5333333333333333],vertical,"(890.0, 762.0)",0.7666666666666666,0.489,1,3935.762,2,0.0,same
0,689,valid,"[(1160, 773)]",[],[1],[0.5833333333333334],horizontal,"(890.0, 762.0)",1.5166666666666666,0.543,1,3940.735,2,0.0,same
0,690,valid,"[(1160, 773)]",[],[1],[0.5666666666666667],horizontal,"(890.0, 262.0)",0.7666666666666666,0.528,1,3946.629,2,0.0,same
0,691,invalid_adjacent_other_bar,"[(1146, 773)]",[],[1],[0.55],vertical,"(890.0, 762.0)",0.7333333333333333,0.511,1,3951.838,3,0.0,other
0,692,invalid_same_bar,"[(1160, 767)]",[],[1],[0.5666666666666667],horizontal,"(390.0, 262.0)",0.6333333333333333,0.525,1,3957.696,3,0.0,same
0,693,valid,"[(1165, 792)]",[],[1],[0.85],horizontal,"(390.0, 262.0)",0.7,nan,0,3963.285,0,0.0,same
0,694,valid,"[(1140, 772)]",[],[1],[0.55],vertical,"(890.0, 262.0)",0.75,0.511,1,3968.134,1,0.0,same
0,695,catch,"[(1161, 769)]",[],[1],[],vertical,"(890.0, 262.0)",1.7,nan,1,3972.847,1,0.0,same
0,696,valid,"[(1166, 787)]",[],[1],[0.5],vertical,"(890.0, 262.0)",0.4,0.46,1,3978.085,1,0.0,same
0,697,valid,"[(1157, 807)]",[],[1],[0.85],horizontal,"(890.0, 762.0)",0.4166666666666667,nan,0,3982.501,0,0.0,same
0,698,valid,"[(1151, 787)]",[],[1],[0.7],vertical,"(390.0, 762.0)",1.1333333333333333,0.656,1,3986.64,1,0.0,same
0,699,valid,"[(1176, 777)]",[],[1],[0.5333333333333333],vertical,"(890.0, 762.0)",1.1833333333333333,0.5,1,3991.874,1,0.0,same
0,700,valid,"[(1165, 778)]",[],[1],[0.85],horizontal,"(390.0, 262.0)",1.1666666666666667,nan,0,3996.617,0,0.0,same
0,701,invalid_adjacent_other_bar,"[(1142, 773)]",[],[1],[0.85],vertical,"(890.0, 262.0)",1.4833333333333334,nan,0,4001.485,0,0.0,other
0,702,catch,"[(1167, 782)]",[],[1],[],horizontal,"(890.0, 762.0)",1.7,nan,1,4006.799,1,0.0,same
0,703,valid,"[(1170, 796)]",[],[1],[0.6166666666666667],vertical,"(390.0, 262.0)",0.5333333333333333,0.575,1,4011.728,1,0.0,same
0,704,valid,"[(1165, 766)]",[],[1],[0.85],horizontal,"(890.0, 762.0)",0.8333333333333334,nan,0,4015.884,0,0.0,same
0,705,valid,"[(1148, 754)]",[],[1],[0.5666666666666667],horizontal,"(890.0, 762.0)",0.6,0.526,1,4020.675,1,0.0,same
0,706,valid,"[(1165, 782)]",[],[1],[0.8],vertical,"(890.0, 262.0)",0.9333333333333333,0.757,1,4025.414,1,0.0,same
0,707,valid,"[(1147, 777)]",[],[1],[0.5833333333333334],horizontal,"(890.0, 762.0)",1.1666666666666667,0.546,1,4030.679,1,0.0,same
0,708,catch,"[(1169, 786)]",[],[1],[],horizontal,"(890.0, 262.0)",1.7,nan,1,4035.434,2,0.0,same
0,709,valid,"[(1144, 796)]",[],[1],[0.85],vertical,"(390.0, 762.0)",1.2,nan,0,4041.151,0,0.0,same
0,710,catch,"[(1144, 766)]",[],[1],[],horizontal,"(390.0, 262.0)",1.7,nan,1,4046.018,1,0.0,same
0,711,valid,"[(1144, 778)]",[],[1],[0.65],horizontal,"(890.0, 762.0)",0.7666666666666666,0.607,1,4051.259,1,0.0,same
0,712,valid,"[(1162, 778)]",[],[1],[0.5333333333333333],horizontal,"(390.0, 762.0)",0.65,0.496,1,4056.15,1,0.0,same
0,713,invalid_same_bar,"[(1171, 775)]",[],[1],[0.5666666666666667],vertical,"(890.0, 762.0)",0.5833333333333334,0.524,1,4060.462,2,0.0,same
0,714,catch,"[(1159, 772)]",[],[1],[],horizontal,"(890.0, 262.0)",,"('cti', 1.234),nan",0,4065.786,0,0.02,same
0,715,catch,"[(1126, 793)]",[],[1],[],horizontal,"(390.0, 762.0)",1.7,nan,1,4069.897,1,0.02,same
0,716,valid,"[(1156, 773)]",[],[1],[0.5833333333333334],vertical,"(890.0, 262.0)",1.5333333333333332,0.539,1,4075.087,1,0.02,same
0,717,catch,"[(1147, 768)]",[],[1],[],vertical,"(890.0, 262.0)",1.7,nan,1,4080.381,1,0.02,same
0,718,valid,"[(1170, 773)]",[],[1],[0.5666666666666667],vertical,"(390.0, 262.0)",1.4333333333333333,0.525,1,4085.602,2,0.02,same
0,719,catch,"[(1165, 761)]",[],[1],[],horizontal,"(890.0, 262.0)",1.7,nan,1,4091.314,2,0.02,same
0,720,catch,"[(1166, 772)]",[],[1],[],vertical,"(890.0, 762.0)",1.7,nan,1,4097.053,2,0.02,same
0,721,valid,"[(1143, 773)]",[],[1],[0.5166666666666666],vertical,"(390.0, 762.0)",0.6166666666666667,0.481,1,4102.685,3,0.02,same
0,722,catch,"[(1136, 783)]",[],[1],[],vertical,"(890.0, 262.0)",1.7,nan,1,4107.935,3,0.02,same
0,723,valid,"[(1144, 781)]",[],[1],[0.65],vertical,"(890.0, 762.0)",1.2833333333333332,0.606,1,4113.904,3,0.02,same
0,724,valid,"[(1156, 756)]",[],[1],[0.7833333333333333],horizontal,"(390.0, 262.0)",0.7,0.738,1,4120.432,3,0.02,same
0,725,valid,"[(1163, 787)]",[],[1],[0.5],vertical,"(890.0, 262.0)",1.2666666666666666,0.462,1,4126.586,3,0.02,same
0,726,valid,"[(1156, 797)]",[],[1],[0.6666666666666666],horizontal,"(890.0, 762.0)",1.5,0.629,1,4132.552,3,0.02,same
0,727,catch,"[(1160, 798)]",[],[1],[],horizontal,"(890.0, 262.0)",1.7,nan,1,4138.818,3,0.02,same
0,728,valid,"[(1160, 789)]",[],[1],[0.85],horizontal,"(390.0, 262.0)",1.3166666666666667,nan,0,4144.686,0,0.02,same
0,729,valid,"[(1163, 782)]",[],[1],[0.5],horizontal,"(390.0, 762.0)",0.6666666666666666,0.462,1,4149.735,1,0.02,same
0,730,valid,"[(1146, 748), (1111, 815)]",[],"[0, 1]",[0.5666666666666667],horizontal,"(890.0, 262.0)",1.1666666666666667,0.531,1,4154.294,1,0.02,same
0,731,valid,"[(1153, 789)]",[],[1],[0.5333333333333333],horizontal,"(890.0, 262.0)",1.2166666666666666,0.498,1,4161.736,1,0.02,same
0,732,valid,"[(1163, 788)]",[],[1],[0.55],vertical,"(390.0, 262.0)",0.55,0.507,1,4166.686,2,0.02,same
0,733,catch,"[(1206, 774)]",[],[1],[],horizontal,"(890.0, 262.0)",1.7,nan,1,4171.318,2,0.02,same
0,734,valid,"[(1156, 799)]",[],[1],[0.5166666666666666],vertical,"(890.0, 262.0)",0.5666666666666667,0.482,1,4176.604,2,0.02,same
0,735,valid,"[(1138, 773)]",[],[1],[0.5833333333333334],horizontal,"(890.0, 762.0)",0.9166666666666666,0.545,1,4181.789,3,0.02,same
0,736,valid,"[(1170, 799)]",[],[1],[0.5],horizontal,"(390.0, 262.0)",0.4666666666666667,0.463,1,4188.069,3,0.02,same
0,737,valid,"[(1162, 794)]",[],[1],[0.85],vertical,"(890.0, 762.0)",0.6,nan,0,4193.036,0,0.02,same
0,738,catch,"[(1137, 768)]",[],[1],[],vertical,"(390.0, 262.0)",1.7,nan,1,4197.554,1,0.02,same
0,739,catch,"[(1161, 774)]",[],[1],[],vertical,"(890.0, 762.0)",1.7,nan,1,4202.726,1,0.02,same
0,740,catch,"[(1170, 769)]",[],[1],[],vertical,"(890.0, 762.0)",1.7,nan,1,4208.168,1,0.02,same
0,741,valid,"[(1151, 785)]",[],[1],[0.6166666666666667],horizontal,"(890.0, 262.0)",1.25,0.578,1,4213.085,2,0.02,same
0,742,catch,"[(1170, 772)]",[],[1],[],horizontal,"(890.0, 262.0)",1.7,nan,1,4218.935,2,0.02,same
0,743,catch,"[(1162, 779)]",[],[1],[],horizontal,"(390.0, 262.0)",1.7,nan,1,4224.67,2,0.02,same
0,744,invalid_adjacent_other_bar,"[(1162, 788)]",[],[1],[0.48333333333333334],vertical,"(890.0, 262.0)",0.48333333333333334,0.443,1,4230.202,3,0.02,other
0,745,catch,"[(1156, 765)]",[],[1],[],vertical,"(890.0, 262.0)",1.7,nan,1,4235.286,3,0.02,same
0,746,valid,"[(1159, 779)]",[],[1],[0.5666666666666667],horizontal,"(390.0, 262.0)",0.6,0.522,1,4241.36,3,0.02,same
0,747,valid,"[(1153, 755)]",[],[1],[0.55],horizontal,"(390.0, 762.0)",1.1166666666666667,0.505,1,4246.412,3,0.02,same
0,748,catch,"[(1138, 824)]",[],[1],[],vertical,"(890.0, 762.0)",1.7,nan,1,4252.751,3,0.02,same
0,749,valid,"[(1121, 800)]",[],[1],[0.55],vertical,"(890.0, 262.0)",1.15,0.512,1,4258.902,3,0.02,same
0,750,catch,"[(1157, 769)]",[],[1],[],vertical,"(390.0, 262.0)",1.7,nan,1,4264.685,3,0.02,same
0,751,invalid_adjacent_other_bar,"[(1148, 782)]",[],[1],[0.5166666666666666],vertical,"(890.0, 262.0)",1.3666666666666667,0.473,1,4270.503,3,0.02,other
0,752,catch,"[(1175, 773)]",[],[1],[],vertical,"(890.0, 762.0)",1.7,nan,1,4276.436,3,0.02,same
0,753,valid,"[(1156, 763)]",[],[1],[0.5],vertical,"(890.0, 262.0)",0.7333333333333333,0.459,1,4282.12,3,0.02,same
0,754,valid,"[(1141, 774)]",[],[1],[0.6333333333333333],vertical,"(890.0, 262.0)",0.4166666666666667,0.593,1,4287.288,3,0.02,same
0,755,catch,"[(1159, 772)]",[],[1],[],vertical,"(890.0, 762.0)",1.7,nan,1,4292.35,3,0.02,same
0,756,valid,"[(1138, 773)]",[],[1],[0.55],horizontal,"(390.0, 762.0)",1.4166666666666667,0.506,1,4298.719,3,0.02,same
0,757,invalid_adjacent_other_bar,"[(1170, 773)]",[],[1],[0.85],vertical,"(390.0, 762.0)",0.65,nan,0,4305.063,0,0.02,other
0,758,valid,"[(1121, 779)]",[],[1],[0.6666666666666666],horizontal,"(390.0, 762.0)",0.45,0.62,1,4309.381,1,0.02,same
0,759,valid,"[(1151, 792)]",[],[1],[0.6666666666666666],horizontal,"(890.0, 762.0)",1.3833333333333333,0.62,1,4314.048,1,0.02,same
0,760,valid,"[(1160, 787)]",[],[1],[0.7],vertical,"(390.0, 262.0)",1.1166666666666667,0.655,1,4319.594,1,0.02,same
0,761,valid,"[(1156, 779)]",[],[1],[0.5666666666666667],vertical,"(390.0, 762.0)",1.2166666666666666,0.522,1,4325.1,2,0.02,same
0,762,valid,"[(1121, 812)]",[],[1],[0.7],horizontal,"(390.0, 762.0)",1.4666666666666666,0.661,1,4331.495,2,0.02,same
0,763,catch,"[(1140, 773)]",[],[1],[],vertical,"(390.0, 762.0)",1.7,nan,1,4337.39,2,0.02,same
0,764,catch,"[(1160, 782)]",[],[1],[],horizontal,"(390.0, 262.0)",1.7,nan,1,4343.106,3,0.0,same
0,765,valid,"[(1159, 769)]",[],[1],[0.6333333333333333],vertical,"(390.0, 762.0)",1.4166666666666667,0.586,1,4349.201,3,0.0,same
0,766,invalid_same_bar,"[(1166, 765)]",[],[1],[0.5833333333333334],vertical,"(890.0, 262.0)",1.3833333333333333,0.535,1,4355.097,3,0.0,same
0,767,valid,"[(1172, 779)]",[],[1],[0.5],horizontal,"(390.0, 262.0)",0.5333333333333333,0.457,1,4361.328,3,0.0,same
0,768,valid,"[(1166, 782)]",[],[1],[0.8166666666666667],vertical,"(390.0, 762.0)",1.2333333333333334,0.768,1,4366.533,3,0.0,same
0,769,invalid_adjacent_other_bar,"[(1146, 777)]",[],[1],[0.5666666666666667],vertical,"(390.0, 762.0)",1.35,0.522,1,4372.84,3,0.0,other
0,770,valid,"[(1142, 769)]",[],[1],[0.6],vertical,"(890.0, 762.0)",0.36666666666666664,0.555,1,4379.028,3,0.0,same
0,771,valid,"[(1136, 768)]",[],[1],[0.55],horizontal,"(890.0, 262.0)",1.4,0.502,1,4384.207,3,0.0,same
0,772,catch,"[(1168, 767)]",[],[1],[],vertical,"(890.0, 762.0)",1.7,nan,1,4390.572,3,0.0,same
0,773,valid,"[(1165, 778)]",[],[1],[0.5166666666666666],vertical,"(890.0, 262.0)",0.4666666666666667,0.473,1,4396.213,3,0.0,same
0,774,catch,"[(1161, 776)]",[],[1],[],horizontal,"(390.0, 762.0)",1.7,nan,1,4401.41,3,0.0,same
0,775,valid,"[(1142, 772)]",[],[1],[0.5833333333333334],vertical,"(890.0, 262.0)",1.05,0.539,1,4407.385,3,0.0,same
0,776,invalid_adjacent_other_bar,"[(1156, 771)]",[],[1],[0.7],horizontal,"(390.0, 762.0)",1.2166666666666666,0.657,1,4413.653,3,0.0,other
0,777,valid,"[(1170, 786)]",[],[1],[0.5666666666666667],horizontal,"(390.0, 762.0)",0.55,0.525,1,4419.791,3,0.0,same
0,778,valid,"[(1136, 774)]",[],[1],[0.6833333333333333],vertical,"(390.0, 762.0)",0.9,0.645,1,4425.464,3,0.0,same
0,779,valid,"[(1160, 769)]",[],[1],[0.7833333333333333],horizontal,"(890.0, 262.0)",0.9833333333333333,0.739,1,4431.258,3,0.0,same
0,780,valid,"[(1163, 770)]",[],[1],[0.5333333333333333],vertical,"(890.0, 762.0)",0.4166666666666667,0.493,1,4436.93,3,0.0,same
0,781,catch,"[(1168, 769)]",[],[1],[],horizontal,"(890.0, 262.0)",1.7,nan,1,4442.419,3,0.0,same
0,782,valid,"[(1165, 772)]",[],[1],[0.65],vertical,"(890.0, 262.0)",1.2,0.604,1,4448.035,3,0.0,same
0,783,catch,"[(1165, 774)]",[],[1],[],horizontal,"(890.0, 262.0)",1.7,nan,1,4454.436,3,0.0,same
0,784,valid,"[(1146, 773)]",[],[1],[0.6333333333333333],horizontal,"(890.0, 262.0)",0.7666666666666666,0.585,1,4460.244,3,0.0,same
0,785,valid,"[(1162, 762)]",[],[1],[0.65],vertical,"(890.0, 262.0)",1.2,0.606,1,4465.785,3,0.0,same
0,786,valid,"[(1165, 787)]",[],[1],[0.5833333333333334],vertical,"(390.0, 262.0)",1.0833333333333333,0.538,1,4472.126,3,0.0,same
0,787,catch,"[(1160, 773)]",[],[1],[],horizontal,"(890.0, 262.0)",1.7,nan,1,4478.18,3,0.0,same
0,788,catch,"[(1158, 763)]",[],[1],[],horizontal,"(390.0, 262.0)",1.7,nan,1,4484.376,3,0.0,same
0,789,valid,"[(1152, 770)]",[],[1],[0.55],vertical,"(390.0, 262.0)",0.85,0.513,1,4490.502,3,0.0,same
0,790,valid,"[(1156, 773)]",[],[1],[0.55],horizontal,"(890.0, 262.0)",1.0833333333333333,0.511,1,4496.394,3,0.0,same
0,791,invalid_adjacent_other_bar,"[(1151, 770)]",[],[1],[0.7333333333333333],vertical,"(390.0, 762.0)",1.3166666666666667,0.684,1,4502.069,3,0.0,other
0,792,valid,"[(1156, 781)]",[],[1],[0.5833333333333334],horizontal,"(890.0, 762.0)",0.36666666666666664,0.544,1,4508.286,3,0.0,same
0,793,valid,"[(1165, 779)]",[],[1],[0.7],horizontal,"(890.0, 762.0)",0.8166666666666667,0.653,1,4513.737,3,0.0,same
0,794,catch,"[(1161, 769)]",[],[1],[],vertical,"(890.0, 262.0)",1.7,nan,1,4519.384,3,0.0,same
0,795,invalid_adjacent_other_bar,"[(1171, 782)]",[],[1],[0.7833333333333333],vertical,"(390.0, 762.0)",1.1666666666666667,0.74,1,4524.984,3,0.0,other
0,796,valid,"[(1162, 770)]",[],[1],[0.85],horizontal,"(390.0, 262.0)",1.45,nan,0,4531.009,0,0.0,same
0,797,catch,"[(1136, 785)]",[],[1],[],vertical,"(890.0, 762.0)",1.7,nan,1,4535.919,1,0.0,same
0,798,valid,"[(1175, 765)]",[],[1],[0.7666666666666666],horizontal,"(390.0, 262.0)",1.2333333333333334,0.721,1,4541.392,1,0.0,same
0,799,valid,"[(1179, 787)]",[],[1],[0.85],horizontal,"(390.0, 262.0)",0.8333333333333334,nan,0,4546.823,0,0.0,same
0,800,valid,"[(1144, 764)]",[],[1],[0.6333333333333333],vertical,"(890.0, 262.0)",1.2333333333333334,0.588,1,4551.185,1,0.0,same
0,801,valid,"[(1162, 762)]",[],[1],[0.6833333333333333],horizontal,"(890.0, 762.0)",0.8666666666666667,0.643,1,4556.527,1,0.0,same
0,802,catch,"[(1157, 783)]",[],[1],[],horizontal,"(890.0, 762.0)",1.7,nan,1,4561.534,1,0.0,same
0,803,invalid_adjacent_other_bar,"[(1159, 783)]",[],[1],[0.7],horizontal,"(890.0, 762.0)",1.15,0.658,1,4566.924,2,0.0,other
0,804,valid,"[(1148, 789)]",[],[1],[0.65],vertical,"(390.0, 762.0)",1.4833333333333334,0.603,1,4572.748,2,0.0,same
0,805,valid,"[(1158, 771)]",[],[1],[0.65],vertical,"(890.0, 262.0)",0.55,0.61,1,4578.452,2,0.0,same
0,806,valid,"[(1161, 781)]",[],[1],[0.5166666666666666],vertical,"(890.0, 762.0)",0.43333333333333335,0.489,1,4583.331,3,0.0,same
0,807,catch,"[(1150, 785)]",[],[1],[],vertical,"(390.0, 762.0)",1.7,nan,1,4588.669,3,0.0,same
0,808,catch,"[(1146, 769)]",[],[1],[],horizontal,"(390.0, 762.0)",1.7,nan,1,4594.713,3,0.0,same
0,809,valid,"[(1161, 769)]",[],[1],[0.5333333333333333],vertical,"(890.0, 762.0)",1.2,0.495,1,4600.568,3,0.0,same
0,810,valid,"[(1170, 781)]",[],[1],[0.6166666666666667],vertical,"(390.0, 762.0)",0.3833333333333333,0.574,1,4606.418,3,0.0,same
0,811,invalid_adjacent_other_bar,"[(1126, 791)]",[],[1],[0.5333333333333333],vertical,"(890.0, 262.0)",1.0666666666666667,0.495,1,4611.487,3,0.0,other
0,812,valid,"[(1157, 772)]",[],[1],[0.65],horizontal,"(390.0, 762.0)",1.25,0.604,1,4617.337,3,0.0,same
0,813,valid,"[(1162, 774)]",[],[1],[0.65],vertical,"(390.0, 262.0)",0.55,0.607,1,4623.719,3,0.0,same
0,814,valid,"[(1153, 773)]",[],[1],[0.6333333333333333],vertical,"(390.0, 262.0)",0.9666666666666667,0.589,1,4628.964,3,0.0,same
0,815,catch,"[(1146, 783)]",[],[1],[],vertical,"(890.0, 262.0)",1.7,nan,1,4634.836,3,0.0,same
0,816,valid,"[(1155, 765)]",[],[1],[0.6],horizontal,"(390.0, 762.0)",0.4166666666666667,0.556,1,4641.219,3,0.0,same
0,817,catch,"[(1136, 751), (1121, 821)]",[],"[0, 1]",[],vertical,"(890.0, 262.0)",1.7,nan,1,4646.252,3,0.0,same
0,818,valid,"[(1164, 781)]",[],[1],[0.5666666666666667],vertical,"(390.0, 262.0)",0.35,0.525,1,4653.793,3,0.0,same
0,819,valid,"[(1159, 773)]",[],[1],[0.6333333333333333],vertical,"(890.0, 762.0)",0.7,0.596,1,4659.145,3,0.0,same
0,820,catch,"[(1167, 795)]",[],[1],[],vertical,"(390.0, 262.0)",1.7,nan,1,4664.653,3,0.0,same
0,821,valid,"[(1139, 758)]",[],[1],[0.5],vertical,"(390.0, 262.0)",0.6,0.459,1,4670.713,3,0.0,same
0,822,invalid_same_bar,"[(1160, 765)]",[],[1],[0.5833333333333334],vertical,"(890.0, 262.0)",1.5,0.542,1,4676.019,3,0.0,same
0,823,catch,"[(1183, 769)]",[],[1],[],vertical,"(890.0, 762.0)",1.7,nan,1,4682.369,3,0.0,same
0,824,valid,"[(1176, 769)]",[],[1],[0.5],vertical,"(390.0, 762.0)",0.7833333333333333,0.464,1,4688.16,3,0.0,same
0,825,valid,"[(1166, 781)]",[],[1],[0.5666666666666667],horizontal,"(390.0, 262.0)",0.9666666666666667,0.525,1,4693.481,3,0.0,same
0,826,valid,"[(1160, 767)]",[],[1],[0.7333333333333333],vertical,"(890.0, 762.0)",0.9666666666666667,0.688,1,4699.403,3,0.0,same
0,827,catch,"[(1168, 782)]",[],[1],[],vertical,"(890.0, 762.0)",1.7,nan,1,4705.103,3,0.0,same
0,828,valid,"[(1153, 767)]",[],[1],[0.65],vertical,"(890.0, 262.0)",0.8166666666666667,0.609,1,4710.836,3,0.0,same
0,829,valid,"[(1162, 779)]",[],[1],[0.6833333333333333],horizontal,"(890.0, 762.0)",1.4166666666666667,0.644,1,4716.392,3,0.0,same
0,830,valid,"[(1157, 767)]",[],[1],[0.6333333333333333],vertical,"(890.0, 262.0)",1.2833333333333332,0.588,1,4722.669,3,0.0,same
0,831,catch,"[(1166, 777)]",[],[1],[],horizontal,"(390.0, 262.0)",1.7,nan,1,4728.991,3,0.0,same
0,832,valid,"[(1160, 768)]",[],[1],[0.5666666666666667],vertical,"(890.0, 262.0)",1.25,0.526,1,4734.865,3,0.0,same
0,833,catch,"[(1157, 802)]",[],[1],[],vertical,"(390.0, 262.0)",1.7,nan,1,4740.923,3,0.0,same
0,834,valid,"[(1157, 805)]",[],[1],[0.65],horizontal,"(890.0, 762.0)",0.7833333333333333,0.613,1,4746.728,3,0.0,same
0,835,invalid_adjacent_other_bar,"[(1136, 797)]",[],[1],[0.5666666666666667],horizontal,"(390.0, 762.0)",1.3166666666666667,0.523,1,4752.698,3,0.0,other
0,836,valid,"[(1159, 773)]",[],[1],[0.5666666666666667],vertical,"(390.0, 262.0)",1.4166666666666667,0.523,1,4758.523,3,0.0,same
0,837,catch,"[(1136, 772)]",[],[1],[],horizontal,"(890.0, 762.0)",1.7,nan,1,4764.654,3,0.0,same
0,838,valid,"[(1156, 752), (1126, 818)]",[],"[0, 1]",[0.55],horizontal,"(890.0, 262.0)",0.5333333333333333,0.508,1,4770.753,3,0.0,same
0,839,catch,"[(1137, 781)]",[],[1],[],vertical,"(390.0, 262.0)",1.7,nan,1,4777.054,3,0.0,same
0,840,valid,"[(1169, 797)]",[],[1],[0.6166666666666667],horizontal,"(390.0, 262.0)",1.4666666666666666,0.581,1,4783.471,3,0.0,same
0,841,valid,"[(1141, 778)]",[],[1],[0.6],horizontal,"(890.0, 762.0)",0.9166666666666666,0.568,1,4789.837,3,0.0,same
0,842,catch,"[(1161, 757)]",[],[1],[],horizontal,"(390.0, 762.0)",1.7,nan,1,4795.909,3,0.0,same
0,843,valid,"[(1155, 777)]",[],[1],[0.5833333333333334],horizontal,"(890.0, 762.0)",0.4166666666666667,0.549,1,4801.952,3,0.0,same
0,844,valid,"[(1161, 772)]",[],[1],[0.5833333333333334],horizontal,"(890.0, 262.0)",1.1,0.544,1,4807.404,3,0.0,same
0,845,valid,"[(1149, 765)]",[],[1],[0.6333333333333333],vertical,"(390.0, 762.0)",1.3833333333333333,0.599,1,4813.27,3,0.0,same
0,846,catch,"[(1136, 762)]",[],[1],[],vertical,"(890.0, 762.0)",1.7,nan,1,4819.668,3,0.0,same
0,847,valid,"[(1149, 771)]",[],[1],[0.7],vertical,"(890.0, 262.0)",0.7,0.66,1,4825.705,3,0.0,same
0,848,valid,"[(1136, 786)]",[],[1],[0.85],horizontal,"(890.0, 762.0)",0.48333333333333334,nan,0,4831.704,0,0.0,same
0,849,valid,"[(1136, 774)]",[],[1],[0.5333333333333333],horizontal,"(890.0, 262.0)",1.1333333333333333,0.496,1,4836.179,1,0.0,same
0,850,valid,"[(1151, 770)]",[],[1],[0.3833333333333333],horizontal,"(390.0, 762.0)",1.3666666666666667,0.349,1,4841.381,1,0.0,same
0,851,valid,"[(1161, 779)]",[],[1],[0.6666666666666666],vertical,"(390.0, 262.0)",0.85,0.633,1,4846.407,1,0.0,same
0,852,invalid_adjacent_other_bar,"[(1136, 782)]",[],[1],[0.5166666666666666],horizontal,"(890.0, 762.0)",0.8333333333333334,0.484,1,4851.267,2,0.0,other
0,853,valid,"[(1145, 775)]",[],[1],[0.85],horizontal,"(890.0, 762.0)",0.48333333333333334,nan,0,4856.203,0,0.0,same
0,854,valid,"[(1136, 797)]",[],[1],[0.7166666666666667],horizontal,"(890.0, 262.0)",0.45,0.677,1,4860.428,1,0.0,same
0,855,valid,"[(1173, 778)]",[],[1],[0.6166666666666667],horizontal,"(390.0, 262.0)",1.0,0.577,1,4864.797,1,0.0,same
0,856,valid,"[(1185, 781)]",[],[1],[0.85],horizontal,"(390.0, 762.0)",0.5,nan,0,4870.061,0,0.0,same
0,857,catch,"[(1158, 778)]",[],[1],[],vertical,"(390.0, 262.0)",1.7,nan,1,4874.222,1,0.0,same
0,858,valid,"[(1131, 782)]",[],[1],[0.85],horizontal,"(890.0, 762.0)",0.45,nan,0,4879.537,0,0.0,same
0,859,valid,"[(1111, 781)]",[],[1],[0.6333333333333333],vertical,"(890.0, 262.0)",0.8333333333333334,0.594,1,4883.804,1,0.0,same
0,860,valid,"[(1173, 765)]",[],[1],[0.7166666666666667],horizontal,"(890.0, 262.0)",1.3833333333333333,0.684,1,4889.82,1,0.0,same
0,861,valid,"[(1146, 764)]",[],[1],[0.55],vertical,"(890.0, 262.0)",0.7666666666666666,0.51,1,4895.762,1,0.0,same
0,862,valid,"[(1146, 775)]",[],[1],[0.55],horizontal,"(390.0, 762.0)",0.5166666666666666,0.517,1,4900.414,2,0.0,same
