block,trial,trial_type,taps_start_loc_during_fix,taps_end_loc_during_fix,taps_on_lever_during_fix,taps_on_lever_s_during_fix,bar_orientation,target_xy,cti,rt,acc,time,pulses,fa_rate_recent100,actual_invalid_type
0,1,valid,"[(1128, 808)]",[],[1],[0.5],vertical,"(390.0, 262.0)",0.75,0.459,1,0.498,1,0.0,same
0,2,valid,"[(1123, 829)]",[],[1],[0.45],vertical,"(890.0, 762.0)",0.8833333333333333,0.41,1,7.786,1,0.0,same
0,3,valid,"[(1135, 772)]",[],[1],[0.4666666666666667],horizontal,"(390.0, 262.0)",1.3666666666666667,0.434,1,306.314,1,0.0,same
0,4,valid,"[(1137, 782)]",[],[1],[0.6166666666666667],horizontal,"(390.0, 762.0)",0.5333333333333333,0.585,1,311.84,2,0.0,same
0,5,catch,"[(1154, 791)]",[],[1],[],vertical,"(390.0, 262.0)",,"('cti', 1.478),nan",0,316.921,0,0.2,same
0,6,valid,"[(1095, 802)]",[],[1],[0.7166666666666667],vertical,"(890.0, 762.0)",1.25,0.685,1,321.52,1,0.16666666666666666,same
0,7,catch,"[(1133, 788)]",[],[1],[],horizontal,"(390.0, 762.0)",1.7,nan,1,339.546,1,0.14285714285714285,same
0,8,valid,"[(1146, 813)]",[],[1],[0.7666666666666666],vertical,"(390.0, 262.0)",0.8666666666666667,0.719,1,344.373,1,0.125,same
0,9,catch,"[(1170, 778)]",[],[1],[],horizontal,"(390.0, 762.0)",1.7,nan,1,349.124,2,0.1111111111111111,same
0,10,invalid_same_bar,"[(1164, 787)]",[],[1],[0.48333333333333334],horizontal,"(890.0, 762.0)",1.45,0.441,1,354.51,2,0.1,same
0,11,valid,"[(1179, 788)]",[],[1],[0.5666666666666667],vertical,"(390.0, 262.0)",0.3833333333333333,0.529,1,360.225,2,0.09090909090909091,same
0,12,valid,"[(1145, 769)]",[],[1],[0.85],horizontal,"(890.0, 762.0)",1.2,nan,0,365.25,0,0.08333333333333333,same
0,13,valid,"[(1149, 775)]",[],[1],[0.48333333333333334],horizontal,"(390.0, 262.0)",0.7666666666666666,0.445,1,369.963,1,0.07692307692307693,same
0,14,valid,"[(1176, 791)]",[],[1],[0.85],vertical,"(890.0, 762.0)",1.05,nan,0,374.596,0,0.07142857142857142,same
0,15,catch,"[(1141, 763)]",[],[1],[],vertical,"(890.0, 762.0)",1.7,nan,1,379.43,1,0.06666666666666667,same
0,16,valid,"[(1139, 782)]",[],[1],[0.5666666666666667],vertical,"(390.0, 262.0)",0.6833333333333333,0.526,1,384.864,1,0.0625,same
0,17,valid,"[(1133, 766)]",[],[1],[0.5166666666666666],vertical,"(890.0, 762.0)",1.2333333333333334,0.478,1,389.595,1,0.058823529411764705,same
0,18,invalid_same_bar,"[(1145, 793)]",[],[1],[0.3],vertical,"(390.0, 262.0)",1.1166666666666667,0.261,1,394.646,2,0.05555555555555555,same
0,19,catch,"[(1165, 783)]",[],[1],[],vertical,"(890.0, 262.0)",1.7,nan,1,399.879,2,0.05263157894736842,same
0,20,valid,"[(1152, 786)]",[],[1],[0.5166666666666666],horizontal,"(390.0, 262.0)",1.0333333333333332,0.476,1,405.399,2,0.05,same
0,21,catch,"[(1153, 792)]",[],[1],[],vertical,"(890.0, 262.0)",1.7,nan,1,411.132,3,0.047619047619047616,same
0,22,catch,"[(1170, 783)]",[],[1],[],vertical,"(390.0, 762.0)",1.7,nan,1,416.779,3,0.045454545454545456,same
0,23,valid,"[(1175, 812)]",[],[1],[0.5333333333333333],horizontal,"(390.0, 762.0)",0.9,0.495,1,423.245,3,0.043478260869565216,same
0,24,valid,"[(1179, 799)]",[],[1],[0.48333333333333334],horizontal,"(890.0, 762.0)",0.7333333333333333,0.445,1,429.112,3,0.041666666666666664,same
0,25,valid,"[(1145, 796)]",[],[1],[],vertical,"(390.0, 762.0)",,"('fix', 0.519)",0,434.5,0,0.04,same
0,26,valid,"[(1071, 825)]",[],[1],[0.85],horizontal,"(890.0, 762.0)",0.75,nan,0,436.546,0,0.038461538461538464,same
0,27,valid,"[(1120, 840)]",[],[1],[0.85],horizontal,"(390.0, 762.0)",1.0166666666666666,nan,0,833.498,0,0.037037037037037035,same
0,28,valid,"[(1120, 817)]",[],[1],[0.6333333333333333],vertical,"(390.0, 262.0)",0.5666666666666667,0.59,1,2309.23,1,0.03571428571428571,same
0,29,valid,"[(1141, 811)]",[],[1],[0.48333333333333334],horizontal,"(390.0, 262.0)",1.35,0.44,1,2314.406,1,0.034482758620689655,same
0,30,catch,"[(1101, 839)]",[],[1],[],vertical,"(890.0, 262.0)",1.7,nan,1,2319.6,1,0.03333333333333333,same
0,31,valid,"[(1150, 762)]",[],[1],[0.5166666666666666],vertical,"(890.0, 762.0)",0.8833333333333333,0.483,1,2909.469,2,0.03225806451612903,same
0,32,valid,"[(1161, 770)]",[],[1],[0.55],horizontal,"(390.0, 262.0)",1.3,0.518,1,2914.326,2,0.03125,same
0,33,catch,"[(1168, 786)]",[],[1],[],vertical,"(390.0, 762.0)",1.7,nan,1,2919.892,2,0.030303030303030304,same
0,34,valid,"[(1174, 801)]",[],[1],[0.5],vertical,"(390.0, 762.0)",1.3833333333333333,0.46,1,2925.276,3,0.029411764705882353,same
0,35,valid,"[(1161, 796)]",[],[1],[0.85],vertical,"(390.0, 762.0)",0.6,nan,0,2931.576,0,0.02857142857142857,same
0,36,invalid_adjacent_other_bar,"[(1161, 785)]",[],[1],[0.5166666666666666],horizontal,"(890.0, 262.0)",1.4166666666666667,0.48,1,2936.247,1,0.027777777777777776,other
0,37,valid,"[(1158, 783)]",[],[1],[0.5],vertical,"(890.0, 762.0)",0.43333333333333335,0.468,1,2941.798,1,0.02702702702702703,same
0,38,invalid_same_bar,"[(1155, 779)]",[],[1],[0.48333333333333334],vertical,"(390.0, 262.0)",0.7833333333333333,0.439,1,2946.354,1,0.02631578947368421,same
0,39,catch,"[(1131, 773)]",[],[1],[],vertical,"(890.0, 262.0)",1.7,nan,1,2951.353,2,0.02564102564102564,same
0,40,valid,"[(1155, 767)]",[],[1],[0.55],horizontal,"(890.0, 762.0)",0.55,0.508,1,2956.954,2,0.025,same
0,41,valid,"[(1128, 810)]",[],[1],[0.43333333333333335],horizontal,"(890.0, 262.0)",0.95,0.4,1,2962.379,2,0.024390243902439025,same
0,42,valid,"[(1139, 811)]",[],[1],[0.85],horizontal,"(390.0, 262.0)",1.3,nan,0,2968.386,0,0.023809523809523808,same
0,43,catch,"[(1049, 825)]",[],[1],[],horizontal,"(390.0, 762.0)",1.7,nan,1,2973.715,1,0.023255813953488372,same
0,44,valid,"[(1120, 786)]",[],[1],[0.48333333333333334],vertical,"(890.0, 262.0)",1.1666666666666667,0.448,1,2979.635,1,0.022727272727272728,same
0,45,valid,"[(1155, 763)]",[],[1],[0.43333333333333335],horizontal,"(890.0, 262.0)",1.4833333333333334,0.4,1,2984.872,1,0.022222222222222223,same
0,46,valid,"[(1163, 774)]",[],[1],[0.5666666666666667],vertical,"(890.0, 262.0)",0.6,0.525,1,2990.086,2,0.021739130434782608,same
0,47,valid,"[(1158, 785)]",[],[1],[0.7],vertical,"(390.0, 262.0)",0.55,0.665,1,2995.387,2,0.02127659574468085,same
0,48,valid,"[(1161, 821)]",[],[1],[0.6],vertical,"(390.0, 262.0)",1.0833333333333333,0.559,1,3000.686,2,0.020833333333333332,same
0,49,valid,"[(1166, 780)]",[],[1],[0.48333333333333334],vertical,"(890.0, 262.0)",1.0,0.45,1,3006.685,3,0.02040816326530612,same
0,50,valid,"[(1178, 775)]","[(1163, 816)]",[1],[0.1],vertical,"(890.0, 262.0)",,"('bar', 0.118)",0,3012.271,0,0.02,same
0,51,catch,"[(1136, 766)]",[],[1],[],vertical,"(890.0, 262.0)",1.7,nan,1,3014.47,1,0.02,same
0,52,valid,"[(1131, 773)]",[],[1],[0.65],horizontal,"(390.0, 762.0)",0.7166666666666667,0.608,1,3019.427,1,0.02,same
0,53,catch,"[(1175, 801)]",[],[1],[],vertical,"(890.0, 762.0)",1.7,nan,1,3024.387,1,0.02,same
0,54,valid,"[(1130, 777)]",[],[1],[0.48333333333333334],horizontal,"(390.0, 762.0)",1.4166666666666667,0.449,1,3029.41,2,0.02,same
0,55,catch,"[(1161, 788)]",[],[1],[],vertical,"(890.0, 762.0)",1.7,nan,1,3035.376,2,0.0,same
0,56,valid,"[(1130, 791)]",[],[1],[0.6],horizontal,"(890.0, 262.0)",1.15,0.556,1,3040.618,2,0.0,same
0,57,valid,"[(1162, 771)]",[],[1],[0.7333333333333333],vertical,"(390.0, 762.0)",0.8666666666666667,0.7,1,3046.118,3,0.0,same
0,58,invalid_same_bar,"[(1165, 796)]",[],[1],[0.5],vertical,"(390.0, 762.0)",0.9166666666666666,0.461,1,3051.835,3,0.0,same
0,59,catch,"[(1165, 798)]",[],[1],[],vertical,"(390.0, 762.0)",1.7,nan,1,3057.554,3,0.0,same
0,60,valid,"[(1161, 791)]",[],[1],[0.85],horizontal,"(390.0, 262.0)",0.3833333333333333,nan,0,3063.753,0,0.0,same
0,61,valid,"[(1078, 802)]",[],[1],[0.85],horizontal,"(390.0, 762.0)",0.75,nan,0,3068.02,0,0.0,same
0,62,catch,"[(1127, 791)]",[],[1],[],vertical,"(390.0, 762.0)",1.7,nan,1,3566.955,1,0.0,same
0,63,valid,"[(1174, 806)]",[],[1],[0.55],vertical,"(390.0, 762.0)",0.4666666666666667,0.506,1,3572.4,1,0.0,same
0,64,catch,"[(1157, 795)]",[],[1],[],horizontal,"(890.0, 262.0)",1.7,nan,1,3577.03,1,0.0,same
0,65,valid,"[(1170, 783)]",[],[1],[0.85],horizontal,"(390.0, 262.0)",0.3833333333333333,nan,0,3582.472,0,0.0,same
0,66,catch,"[(1159, 782)]",[],[1],[],vertical,"(890.0, 262.0)",1.7,nan,1,3586.439,1,0.0,same
0,67,valid,"[(1125, 791)]",[],[1],[0.85],vertical,"(890.0, 762.0)",0.7166666666666667,nan,0,3591.238,0,0.0,same
0,68,valid,"[(1127, 757)]",[],[1],[0.85],vertical,"(390.0, 762.0)",0.4666666666666667,nan,0,3596.155,0,0.0,same
0,69,valid,"[(1115, 750), (1101, 762)]",[],"[0, 1]",[0.6333333333333333],horizontal,"(890.0, 262.0)",0.4666666666666667,0.589,1,3600.838,1,0.0,same
0,70,valid,"[(1163, 774)]",[],[1],[0.6833333333333333],vertical,"(890.0, 762.0)",1.2833333333333332,0.637,1,3606.639,1,0.0,same
0,71,catch,"[(1165, 791)]",[],[1],[],vertical,"(890.0, 762.0)",1.7,nan,1,3611.814,1,0.0,same
0,72,valid,"[(1111, 864)]",[],[1],[0.5],vertical,"(390.0, 262.0)",0.7666666666666666,0.454,1,3617.319,2,0.0,same
0,73,valid,"[(1120, 824)]",[],[1],[0.45],horizontal,"(890.0, 262.0)",0.6,0.409,1,3623.873,2,0.0,same
0,74,valid,"[(1124, 791)]",[],[1],[0.6333333333333333],horizontal,"(890.0, 262.0)",0.6833333333333333,0.588,1,3628.871,2,0.0,same
0,75,valid,"[(1165, 787)]",[],[1],[0.5166666666666666],vertical,"(890.0, 762.0)",0.85,0.475,1,3634.422,3,0.0,same
0,76,catch,"[(1160, 798)]",[],[1],[],horizontal,"(890.0, 762.0)",1.7,nan,1,3640.255,3,0.0,same
0,77,valid,"[(1159, 773)]",[],[1],[0.6833333333333333],vertical,"(390.0, 262.0)",1.0666666666666667,0.641,1,3646.095,3,0.0,same
0,78,catch,"[(1178, 769)]",[],[1],[],horizontal,"(890.0, 262.0)",1.7,nan,1,3652.322,3,0.0,same
0,79,invalid_same_bar,"[(1133, 768)]",[],[1],[0.55],vertical,"(890.0, 762.0)",1.5333333333333332,0.507,1,3658.389,3,0.0,same
0,80,invalid_same_bar,"[(1174, 783)]",[],[1],[0.6],horizontal,"(390.0, 262.0)",0.6333333333333333,0.562,1,3664.551,3,0.0,same
0,81,catch,"[(1160, 811)]",[],[1],[],vertical,"(890.0, 762.0)",1.7,nan,1,3670.138,3,0.0,same
0,82,invalid_same_bar,"[(1158, 826)]",[],[1],[0.7666666666666666],horizontal,"(890.0, 762.0)",0.43333333333333335,0.73,1,3675.648,3,0.0,same
0,83,invalid_same_bar,"[(1159, 791)]",[],[1],[0.6],vertical,"(390.0, 762.0)",1.4333333333333333,0.555,1,3681.455,3,0.0,same
0,84,catch,"[(1168, 778)]",[],[1],[],vertical,"(390.0, 762.0)",1.7,nan,1,3688.162,3,0.0,same
0,85,valid,"[(1159, 772)]",[],[1],[0.5833333333333334],vertical,"(890.0, 762.0)",0.48333333333333334,0.54,1,3694.071,3,0.0,same
0,86,valid,"[(1169, 795)]",[],[1],[0.5333333333333333],vertical,"(390.0, 262.0)",0.6,0.498,1,3699.589,3,0.0,same
0,87,catch,"[(1161, 781)]",[],[1],[],vertical,"(390.0, 262.0)",1.7,nan,1,3704.987,3,0.0,same
0,88,valid,"[(1155, 779)]",[],[1],[0.5],horizontal,"(390.0, 262.0)",0.9333333333333333,0.466,1,3710.772,3,0.0,same
0,89,valid,"[(1160, 782)]",[],[1],[0.7666666666666666],vertical,"(890.0, 262.0)",0.5,0.724,1,3716.772,3,0.0,same
0,90,valid,"[(1161, 792)]",[],[1],[0.85],horizontal,"(890.0, 262.0)",0.55,nan,0,3721.955,0,0.0,same
0,91,valid,"[(1129, 772)]",[],[1],[0.85],horizontal,"(390.0, 762.0)",0.7166666666666667,nan,0,3726.168,0,0.0,same
0,92,valid,"[(1118, 799)]",[],[1],[0.48333333333333334],vertical,"(390.0, 262.0)",1.15,0.444,1,3730.786,1,0.0,same
0,93,valid,"[(1160, 776)]",[],[1],[0.85],horizontal,"(390.0, 262.0)",1.0166666666666666,nan,0,3736.822,0,0.0,same
0,94,valid,"[(1141, 782)]",[],[1],[0.15],horizontal,"(890.0, 762.0)",1.2666666666666666,0.115,0,3741.677,0,0.0,same
0,95,catch,"[(1133, 801)]",[],[1],[],horizontal,"(890.0, 262.0)",1.7,nan,1,3746.376,1,0.0,same
0,96,valid,"[(1110, 834)]",[],[1],[0.5],vertical,"(390.0, 262.0)",0.5666666666666667,0.457,1,3754.623,1,0.0,same
0,97,invalid_same_bar,"[(1160, 787)]",[],[1],[0.5166666666666666],vertical,"(390.0, 262.0)",0.4166666666666667,0.473,1,3761.539,1,0.0,same
0,98,valid,"[(1159, 778)]",[],[1],[0.6166666666666667],horizontal,"(390.0, 262.0)",0.7,0.576,1,3765.954,2,0.0,same
0,99,catch,"[(1155, 778)]",[],[1],[],vertical,"(390.0, 262.0)",1.7,nan,1,3771.502,2,0.0,same
0,100,valid,"[(1159, 773)]",[],[1],[0.55],vertical,"(390.0, 262.0)",0.6166666666666667,0.515,1,3777.026,2,0.0,same
0,101,catch,"[(1164, 773)]",[],[1],[],horizontal,"(890.0, 762.0)",1.7,nan,1,3782.095,3,0.0,same
0,102,valid,"[(1161, 773)]",[],[1],[0.85],horizontal,"(890.0, 762.0)",0.45,nan,0,3788.339,0,0.0,same
0,103,valid,"[(1129, 776)]",[],[1],[0.85],horizontal,"(390.0, 762.0)",0.3833333333333333,nan,0,3792.606,0,0.0,same
0,104,valid,"[(1132, 806)]",[],[1],[0.5333333333333333],vertical,"(890.0, 762.0)",0.7666666666666666,0.496,1,3797.355,1,0.0,same
0,105,valid,"[(1160, 783)]",[],[1],[0.5833333333333334],vertical,"(890.0, 262.0)",0.6,0.543,1,3802.65,1,0.0,same
0,106,invalid_same_bar,"[(1159, 778)]",[],[1],[0.7],horizontal,"(390.0, 762.0)",0.5333333333333333,0.659,1,3807.581,1,0.0,same
0,107,catch,"[(1140, 795)]",[],[1],[],horizontal,"(890.0, 762.0)",1.7,nan,1,3812.522,2,0.0,same
0,108,valid,"[(1177, 789)]",[],[1],[0.5166666666666666],vertical,"(890.0, 262.0)",1.45,0.476,1,3817.906,2,0.0,same
0,109,catch,"[(1162, 766)]",[],[1],[],horizontal,"(890.0, 762.0)",1.7,nan,1,3823.672,2,0.0,same
0,110,invalid_adjacent_other_bar,"[(1124, 804)]",[],[1],[0.6333333333333333],horizontal,"(890.0, 762.0)",1.15,0.587,1,3829.106,3,0.0,other
0,111,valid,"[(1162, 795)]",[],[1],[0.5666666666666667],horizontal,"(390.0, 262.0)",1.0,0.521,1,3835.686,3,0.0,same
0,112,catch,"[(1171, 796)]",[],[1],[],vertical,"(890.0, 762.0)",1.7,nan,1,3841.46,3,0.0,same
0,113,valid,"[(1142, 825)]",[],[1],[0.5166666666666666],horizontal,"(390.0, 762.0)",1.3166666666666667,0.476,1,3847.489,3,0.0,same
0,114,valid,"[(1162, 774)]",[],[1],[0.5333333333333333],vertical,"(890.0, 262.0)",0.8166666666666667,0.492,1,3853.907,3,0.0,same
0,115,catch,"[(1170, 787)]",[],[1],[],vertical,"(390.0, 762.0)",1.7,nan,1,3859.557,3,0.0,same
0,116,valid,"[(1105, 838)]",[],[1],[0.5],vertical,"(390.0, 762.0)",0.8333333333333334,0.46,1,3865.772,3,0.0,same
0,117,catch,"[(1153, 775)]",[],[1],[],vertical,"(390.0, 262.0)",1.7,nan,1,3871.743,3,0.0,same
0,118,valid,"[(1159, 776)]",[],[1],[0.5333333333333333],vertical,"(390.0, 262.0)",1.3,0.5,1,3877.94,3,0.0,same
0,119,invalid_adjacent_other_bar,"[(1161, 786)]",[],[1],[0.6333333333333333],vertical,"(390.0, 262.0)",1.35,0.594,1,3884.382,3,0.0,other
0,120,valid,"[(1165, 773)]",[],[1],[0.8],horizontal,"(390.0, 262.0)",1.2,0.761,1,3890.374,3,0.0,same
0,121,valid,"[(1160, 786)]",[],[1],[0.5166666666666666],horizontal,"(390.0, 762.0)",0.6666666666666666,0.473,1,3896.922,3,0.0,same
0,122,valid,"[(1160, 786)]",[],[1],[0.48333333333333334],horizontal,"(390.0, 262.0)",0.43333333333333335,0.444,1,3902.389,3,0.0,same
0,123,valid,"[(1175, 790)]",[],[1],[0.5666666666666667],vertical,"(390.0, 762.0)",0.95,0.527,1,3907.823,3,0.0,same
0,124,valid,"[(1156, 772)]",[],[1],[0.85],horizontal,"(890.0, 262.0)",0.95,nan,0,3913.606,0,0.0,same
0,125,valid,"[(1129, 783)]",[],[1],[0.85],horizontal,"(890.0, 262.0)",0.85,nan,0,3918.739,0,0.0,same
0,126,invalid_same_bar,"[(1140, 777)]",[],[1],[0.6166666666666667],vertical,"(890.0, 762.0)",0.48333333333333334,0.579,1,3923.221,1,0.0,same
0,127,valid,"[(1162, 787)]",[],[1],[0.45],horizontal,"(890.0, 262.0)",0.6833333333333333,0.413,1,3928.089,1,0.0,same
0,128,valid,"[(1144, 805)]",[],[1],[0.5833333333333334],horizontal,"(390.0, 262.0)",0.5833333333333334,0.535,1,3932.722,1,0.0,same
0,129,valid,"[(1168, 787)]",[],[1],[0.85],vertical,"(390.0, 262.0)",0.5,nan,0,3937.655,0,0.0,same
0,130,valid,"[(1130, 781)]",[],[1],[0.7833333333333333],vertical,"(890.0, 762.0)",1.0666666666666667,0.758,1,3941.839,1,0.0,same
0,131,catch,"[(1135, 814)]",[],[1],[],vertical,"(890.0, 262.0)",1.7,nan,1,3947.238,1,0.0,same
0,132,catch,"[(1128, 838)]",[],[1],[],horizontal,"(390.0, 762.0)",1.7,nan,1,3952.622,1,0.0,same
0,133,invalid_same_bar,"[(1157, 762)]",[],[1],[0.85],horizontal,"(390.0, 762.0)",1.0166666666666666,nan,0,3958.321,0,0.0,same
0,134,valid,"[(1114, 791)]",[],[1],[0.5166666666666666],horizontal,"(890.0, 262.0)",0.36666666666666664,0.477,1,3963.479,1,0.0,same
0,135,invalid_same_bar,"[(1174, 788)]",[],[1],[0.6166666666666667],vertical,"(890.0, 262.0)",1.3166666666666667,0.583,1,3967.705,1,0.0,same
0,136,valid,"[(1150, 791)]",[],[1],[0.7],vertical,"(390.0, 262.0)",1.3166666666666667,0.66,1,3972.726,1,0.0,same
0,137,valid,"[(1160, 778)]",[],[1],[0.6],vertical,"(890.0, 262.0)",0.7333333333333333,0.56,1,3978.145,2,0.0,same
0,138,catch,"[(1155, 769)]",[],[1],[],horizontal,"(890.0, 762.0)",1.7,nan,1,3983.606,2,0.0,same
0,139,valid,"[(1164, 781)]",[],[1],[0.5],vertical,"(890.0, 762.0)",1.3,0.46,1,3988.974,2,0.0,same
0,140,catch,"[(1134, 789)]",[],[1],[],vertical,"(890.0, 762.0)",1.7,nan,1,3994.551,3,0.0,same
0,141,invalid_same_bar,"[(1175, 773)]",[],[1],[0.5166666666666666],horizontal,"(390.0, 262.0)",0.7,0.479,1,4000.913,3,0.0,same
0,142,valid,"[(1158, 777)]",[],[1],[0.5],vertical,"(390.0, 762.0)",1.3833333333333333,0.455,1,4006.342,3,0.0,same
0,143,valid,"[(1128, 766)]",[],[1],[0.48333333333333334],horizontal,"(890.0, 262.0)",1.0,0.451,1,4012.605,3,0.0,same
0,144,invalid_adjacent_other_bar,"[(1160, 784)]",[],[1],[0.85],horizontal,"(890.0, 262.0)",0.35,nan,0,4018.156,0,0.0,other
0,145,valid,"[(1122, 772)]",[],[1],[0.5333333333333333],vertical,"(890.0, 762.0)",1.0666666666666667,0.49,1,4022.192,1,0.0,same
0,146,valid,"[(1120, 845)]",[],[1],[0.7833333333333333],horizontal,"(390.0, 262.0)",0.9166666666666666,0.734,1,4030.989,1,0.0,same
0,147,valid,"[(1155, 788)]",[],[1],[0.48333333333333334],vertical,"(890.0, 762.0)",1.2166666666666666,0.448,1,4036.445,1,0.0,same
0,148,valid,"[(1155, 784)]",[],[1],[0.48333333333333334],horizontal,"(890.0, 762.0)",0.9,0.444,1,4041.762,2,0.0,same
0,149,catch,"[(1153, 774)]",[],[1],[],vertical,"(390.0, 262.0)",1.7,nan,1,4046.956,2,0.0,same
0,150,valid,"[(1158, 788)]",[],[1],[0.6],horizontal,"(390.0, 762.0)",1.3,0.561,1,4052.189,2,0.0,same
0,151,valid,"[(1156, 798)]",[],[1],[0.7833333333333333],vertical,"(390.0, 262.0)",0.43333333333333335,0.737,1,4057.731,3,0.0,same
0,152,valid,"[(1158, 783)]",[],[1],[0.55],horizontal,"(890.0, 762.0)",0.5166666666666666,0.512,1,4063.79,3,0.0,same
0,153,valid,"[(1160, 781)]",[],[1],[0.7],vertical,"(890.0, 262.0)",0.4666666666666667,0.651,1,4069.341,3,0.0,same
0,154,catch,"[(1161, 782)]",[],[1],[],horizontal,"(890.0, 762.0)",,"('cti', 1.14),nan",0,4074.891,0,0.02,same
0,155,valid,"[(1106, 867)]",[],[1],[],vertical,"(890.0, 762.0)",,"('cti', 0.031)",0,4079.417,0,0.02,same
0,156,valid,"[(1124, 802)]",[],[1],[0.6],horizontal,"(890.0, 262.0)",0.75,0.567,1,5101.71,1,0.02,same
0,157,invalid_adjacent_other_bar,"[(1158, 769)]",[],[1],[0.6666666666666666],horizontal,"(390.0, 262.0)",1.5333333333333332,0.634,1,5106.91,1,0.02,other
0,158,valid,"[(1159, 795)]",[],[1],[0.7166666666666667],horizontal,"(890.0, 262.0)",1.5333333333333332,0.671,1,5112.56,1,0.02,same
0,159,valid,"[(1115, 800)]",[],[1],[0.7166666666666667],vertical,"(390.0, 262.0)",0.7333333333333333,0.669,1,5118.31,2,0.02,same
0,160,valid,"[(1162, 780)]",[],[1],[0.85],horizontal,"(890.0, 262.0)",1.15,nan,0,5124.348,0,0.02,same
0,161,valid,"[(1158, 787)]",[],[1],[0.55],vertical,"(890.0, 262.0)",1.3333333333333333,0.509,1,5129.26,1,0.02,same
0,162,catch,"[(1163, 794)]",[],[1],[],vertical,"(890.0, 762.0)",1.7,nan,1,5134.644,1,0.02,same
0,163,valid,"[(1164, 775)]",[],[1],[0.7666666666666666],horizontal,"(890.0, 262.0)",0.5166666666666666,0.728,1,5139.962,1,0.02,same
0,164,valid,"[(1184, 795)]","[(1134, 838)]",[1],[0.15],vertical,"(390.0, 262.0)",,"('bar', 0.169)",0,5144.703,0,0.02,same
0,165,valid,"[(1120, 777)]",[],[1],[0.55],horizontal,"(390.0, 262.0)",0.4666666666666667,0.507,1,5147.132,1,0.02,same
0,166,valid,"[(1160, 780)]",[],[1],[0.5],horizontal,"(890.0, 262.0)",0.7833333333333333,0.459,1,5151.768,1,0.02,same
0,167,catch,"[(1159, 781)]",[],[1],[],horizontal,"(390.0, 262.0)",1.7,nan,1,5155.999,1,0.02,same
0,168,valid,"[(1165, 786)]",[],[1],[0.45],vertical,"(890.0, 262.0)",1.25,0.418,1,5161.083,2,0.02,same
0,169,catch,"[(1157, 772)]",[],[1],[],vertical,"(890.0, 262.0)",1.7,nan,1,5166.96,2,0.02,same
0,170,invalid_adjacent_other_bar,"[(1159, 780)]",[],[1],[0.85],vertical,"(390.0, 262.0)",1.25,nan,0,5172.276,0,0.02,other
0,171,invalid_adjacent_other_bar,"[(1125, 808)]",[],[1],[0.6],vertical,"(890.0, 262.0)",1.3833333333333333,0.561,1,5177.587,1,0.02,other
0,172,catch,"[(1178, 791)]",[],[1],[],vertical,"(390.0, 262.0)",1.7,nan,1,5184.105,1,0.02,same
0,173,valid,"[(1105, 819)]",[],[1],[0.85],vertical,"(390.0, 762.0)",0.36666666666666664,nan,0,5189.521,0,0.02,same
0,174,valid,"[(1120, 809)]",[],[1],[0.85],horizontal,"(390.0, 762.0)",1.0833333333333333,nan,0,5855.561,0,0.02,same
0,175,valid,"[(1125, 789)]",[],[1],[],horizontal,"(890.0, 762.0)",,"('cti', 0.811)",0,5860.392,0,0.02,same
0,176,valid,"[(1136, 811)]",[],[1],[0.5],horizontal,"(390.0, 762.0)",0.43333333333333335,0.461,1,5864.23,1,0.02,same
0,177,invalid_same_bar,"[(1148, 782)]",[],[1],[0.43333333333333335],horizontal,"(890.0, 762.0)",1.2333333333333334,0.39,1,5868.697,1,0.02,same
0,178,valid,"[(1149, 767)]",[],[1],[0.6],vertical,"(390.0, 762.0)",0.4666666666666667,0.56,1,5873.946,1,0.02,same
0,179,valid,"[(1146, 786)]",[],[1],[0.48333333333333334],horizontal,"(890.0, 262.0)",0.43333333333333335,0.44,1,5877.984,2,0.02,same
0,180,valid,"[(1154, 770)]",[],[1],[0.6166666666666667],horizontal,"(390.0, 762.0)",0.7,0.575,1,5882.912,2,0.02,same
0,181,catch,"[(1147, 785)]",[],[1],[],horizontal,"(890.0, 762.0)",1.7,nan,1,5888.162,2,0.02,same
0,182,valid,"[(1191, 777)]",[],[1],[0.5166666666666666],vertical,"(890.0, 262.0)",1.25,0.475,1,5893.296,3,0.02,same
0,183,valid,"[(1150, 792)]",[],[1],[0.85],vertical,"(890.0, 762.0)",1.1666666666666667,nan,0,5899.378,0,0.02,same
0,184,valid,"[(1130, 773)]",[],[1],[0.55],horizontal,"(390.0, 762.0)",1.0666666666666667,0.51,1,5904.212,1,0.02,same
0,185,valid,"[(1146, 781)]",[],[1],[0.48333333333333334],vertical,"(390.0, 762.0)",1.1833333333333333,0.441,1,5909.527,1,0.02,same
0,186,valid,"[(1155, 782)]",[],[1],[0.5666666666666667],horizontal,"(890.0, 762.0)",1.0666666666666667,0.522,1,5914.412,1,0.02,same
0,187,invalid_adjacent_other_bar,"[(1131, 783)]",[],[1],[0.5833333333333334],horizontal,"(890.0, 262.0)",1.3666666666666667,0.542,1,5919.645,2,0.02,other
0,188,invalid_adjacent_other_bar,"[(1151, 781)]",[],[1],[0.85],horizontal,"(390.0, 262.0)",1.1166666666666667,nan,0,5925.312,0,0.02,other
0,189,valid,"[(1120, 775)]",[],[1],[0.85],vertical,"(390.0, 262.0)",0.8,nan,0,5930.044,0,0.02,same
0,190,catch,"[(1117, 793)]",[],[1],[],vertical,"(890.0, 762.0)",1.7,nan,1,5934.645,1,0.02,same
0,191,valid,"[(1136, 789)]",[],[1],[0.6],vertical,"(390.0, 762.0)",0.8333333333333334,0.561,1,5939.495,1,0.02,same
0,192,catch,"[(1122, 825)]",[],[1],[],vertical,"(890.0, 762.0)",1.7,nan,1,5944.339,1,0.02,same
0,193,valid,"[(1130, 796)]",[],[1],[0.5833333333333334],vertical,"(390.0, 762.0)",1.0833333333333333,0.54,1,5949.398,2,0.02,same
0,194,valid,"[(1156, 787)]",[],[1],[0.5166666666666666],horizontal,"(390.0, 762.0)",0.9833333333333333,0.483,1,5954.929,2,0.02,same
0,195,valid,"[(1130, 780)]",[],[1],[0.85],horizontal,"(390.0, 762.0)",1.0666666666666667,nan,0,5960.179,0,0.02,same
0,196,catch,"[(1119, 782)]",[],[1],[],vertical,"(890.0, 762.0)",1.7,nan,1,5965.062,1,0.02,same
0,197,catch,"[(1146, 811)]",[],[1],[],horizontal,"(890.0, 762.0)",,"('cti', 0.52),nan",0,5970.395,0,0.04,same
0,198,catch,"[(1110, 818)]",[],[1],[],horizontal,"(890.0, 762.0)",1.7,nan,1,5973.973,1,0.04,same
0,199,catch,"[(1160, 793)]",[],[1],[],horizontal,"(890.0, 762.0)",1.7,nan,1,5979.462,1,0.04,same
0,200,valid,"[(1160, 772)]",[],[1],[0.5333333333333333],vertical,"(890.0, 262.0)",1.4333333333333333,0.489,1,5984.479,1,0.04,same
0,201,invalid_adjacent_other_bar,"[(1162, 782)]",[],[1],[0.55],vertical,"(390.0, 762.0)",1.4166666666666667,0.507,1,5989.553,2,0.04,other
0,202,valid,"[(1125, 765)]",[],[1],[0.5666666666666667],vertical,"(890.0, 262.0)",0.5833333333333334,0.52,1,5995.244,2,0.04,same
0,203,valid,"[(1163, 777)]",[],[1],[0.5166666666666666],vertical,"(890.0, 262.0)",1.4,0.475,1,6000.496,2,0.04,same
0,204,invalid_same_bar,"[(1130, 785)]",[],[1],[0.6666666666666666],horizontal,"(890.0, 762.0)",1.3166666666666667,0.625,1,6005.959,3,0.02,same
0,205,valid,"[(1170, 792)]","[(1167, 819)]",[1],[0.0],vertical,"(390.0, 762.0)",,"('bar', 0.019)",0,6012.295,0,0.02,same
0,206,catch,"[(1115, 773)]",[],[1],[],horizontal,"(390.0, 262.0)",1.7,nan,1,6014.33,1,0.02,same
0,207,catch,"[(1127, 775)]",[],[1],[],vertical,"(890.0, 262.0)",1.7,nan,1,6019.496,1,0.02,same
0,208,catch,"[(1134, 800)]",[],[1],[],vertical,"(390.0, 262.0)",1.7,nan,1,6024.361,1,0.02,same
0,209,valid,"[(1158, 801)]",[],[1],[0.5166666666666666],vertical,"(890.0, 262.0)",1.15,0.474,1,6029.401,2,0.02,same
0,210,valid,"[(1115, 795)]",[],[1],[0.5],horizontal,"(390.0, 762.0)",1.4,0.462,1,6035.049,2,0.02,same
0,211,valid,"[(1130, 782)]",[],[1],[0.5],vertical,"(390.0, 762.0)",0.5166666666666666,0.46,1,6040.94,2,0.02,same
0,212,valid,"[(1125, 772)]",[],[1],[0.5],horizontal,"(890.0, 762.0)",0.85,0.465,1,6046.088,3,0.02,same
0,213,invalid_same_bar,"[(1148, 781)]",[],[1],[0.5166666666666666],vertical,"(390.0, 262.0)",0.9166666666666666,0.477,1,6051.813,3,0.02,same
0,214,valid,"[(1158, 776)]",[],[1],[0.5666666666666667],vertical,"(390.0, 262.0)",0.5333333333333333,0.531,1,6057.12,3,0.02,same
0,215,valid,"[(1159, 792)]",[],[1],[0.85],vertical,"(390.0, 262.0)",0.7333333333333333,nan,0,6062.564,0,0.02,same
0,216,valid,"[(1086, 817)]",[],[1],[0.7166666666666667],horizontal,"(390.0, 262.0)",1.5333333333333332,0.667,1,6066.551,1,0.02,same
0,217,invalid_same_bar,"[(1134, 851)]",[],[1],[0.5166666666666666],vertical,"(890.0, 762.0)",0.9,0.473,1,6072.785,1,0.02,same
0,218,invalid_adjacent_other_bar,"[(1110, 852)]",[],[1],[0.7666666666666666],vertical,"(890.0, 762.0)",0.6666666666666666,0.724,1,6077.98,1,0.02,other
0,219,catch,"[(1110, 874)]",[],[1],[],horizontal,"(890.0, 762.0)",1.7,nan,1,6083.445,2,0.02,same
0,220,valid,"[(1121, 824)]",[],[1],[0.7833333333333333],vertical,"(890.0, 262.0)",0.5166666666666666,0.735,1,6089.537,2,0.02,same
0,221,valid,"[(1133, 796)]",[],[1],[0.85],horizontal,"(890.0, 762.0)",0.3833333333333333,nan,0,6095.962,0,0.02,same
0,222,valid,"[(1122, 773)]",[],[1],[0.8],vertical,"(390.0, 762.0)",1.4833333333333334,0.76,1,6100.425,1,0.02,same
0,223,valid,"[(1110, 815)]",[],[1],[0.85],horizontal,"(390.0, 762.0)",0.6833333333333333,nan,0,6105.86,0,0.02,same
0,224,valid,"[(1121, 787)]",[],[1],[0.85],vertical,"(390.0, 762.0)",1.4,nan,0,6110.197,0,0.02,same
0,225,valid,"[(1108, 829)]",[],[1],[0.5666666666666667],horizontal,"(390.0, 262.0)",0.8833333333333333,0.523,1,6115.48,1,0.02,same
0,226,valid,"[(1155, 804)]",[],[1],[0.5833333333333334],horizontal,"(390.0, 762.0)",0.8,0.542,1,6127.448,1,0.02,same
0,227,valid,"[(1128, 823)]",[],[1],[0.5833333333333334],horizontal,"(390.0, 262.0)",0.6166666666666667,0.545,1,6132.005,1,0.02,same
0,228,invalid_adjacent_other_bar,"[(1157, 797)]",[],[1],[0.55],vertical,"(890.0, 262.0)",0.7,0.509,1,6136.584,2,0.02,other
0,229,valid,"[(1157, 808)]",[],[1],[0.45],vertical,"(890.0, 762.0)",1.5333333333333332,0.41,1,6141.579,2,0.02,same
0,230,valid,"[(1141, 786)]",[],[1],[0.6166666666666667],horizontal,"(390.0, 762.0)",1.35,0.573,1,6147.216,2,0.02,same
0,231,valid,"[(1158, 777)]",[],[1],[0.85],vertical,"(390.0, 262.0)",1.4,nan,0,6152.879,0,0.02,same
0,232,catch,"[(1115, 781)]",[],[1],[],horizontal,"(390.0, 762.0)",1.7,nan,1,6158.279,1,0.02,same
0,233,catch,"[(1157, 812)]",[],[1],[],vertical,"(390.0, 262.0)",1.7,nan,1,6163.391,1,0.02,same
0,234,valid,"[(1160, 782)]",[],[1],[0.5333333333333333],vertical,"(890.0, 762.0)",1.4666666666666666,0.49,1,6168.438,1,0.02,same
0,235,valid,"[(1167, 782)]",[],[1],[0.6],vertical,"(890.0, 762.0)",0.5333333333333333,0.551,1,6173.597,2,0.02,same
0,236,catch,"[(1128, 788)]",[],[1],[],horizontal,"(390.0, 262.0)",1.7,nan,1,6178.629,2,0.02,same
0,237,catch,"[(1158, 795)]",[],[1],[],vertical,"(390.0, 762.0)",1.7,nan,1,6184.039,2,0.02,same
0,238,valid,"[(1147, 780)]",[],[1],[0.5],vertical,"(890.0, 262.0)",0.36666666666666664,0.46,1,6189.574,3,0.02,same
0,239,valid,"[(1107, 851)]",[],[1],[],horizontal,"(390.0, 262.0)",,"('cti', 0.754)",0,6194.591,0,0.02,same
0,240,valid,"[(1111, 855)]",[],[1],[0.5166666666666666],horizontal,"(390.0, 262.0)",1.05,0.474,1,6201.461,1,0.02,same
0,241,valid,"[(1087, 820)]",[],[1],[0.5833333333333334],vertical,"(390.0, 262.0)",1.1333333333333333,0.542,1,8835.747,1,0.02,same
0,242,valid,"[(1158, 783)]",[],[1],[0.85],horizontal,"(390.0, 262.0)",0.4166666666666667,nan,0,8847.885,0,0.02,same
0,243,catch,"[(1115, 780)]",[],[1],[],horizontal,"(390.0, 262.0)",1.7,nan,1,8852.326,1,0.02,same
0,244,valid,"[(1164, 774)]",[],[1],[0.85],horizontal,"(890.0, 262.0)",1.2166666666666666,nan,0,8858.022,0,0.02,same
0,245,valid,"[(1135, 777)]",[],[1],[0.5166666666666666],vertical,"(390.0, 262.0)",1.4666666666666666,0.476,1,8862.738,1,0.02,same
0,246,valid,"[(1145, 766)]",[],[1],[0.55],vertical,"(390.0, 762.0)",1.3166666666666667,0.517,1,8867.937,1,0.02,same
0,247,valid,"[(1164, 784)]",[],[1],[0.85],vertical,"(890.0, 762.0)",0.9166666666666666,nan,0,8873.505,0,0.0,same
0,248,valid,"[(1118, 776)]",[],[1],[0.85],vertical,"(890.0, 762.0)",0.8166666666666667,nan,0,8878.663,0,0.0,same
0,249,valid,"[(1129, 772)]",[],[1],[0.5333333333333333],horizontal,"(890.0, 262.0)",1.3166666666666667,0.493,1,8883.304,1,0.0,same
0,250,invalid_adjacent_other_bar,"[(1132, 795)]",[],[1],[0.85],vertical,"(890.0, 262.0)",1.5,nan,0,8888.615,0,0.0,other
0,251,valid,"[(1105, 822)]",[],[1],[0.6666666666666666],vertical,"(890.0, 762.0)",1.3,0.625,1,8894.188,1,0.0,same
0,252,valid,"[(1159, 788)]",[],[1],[0.5166666666666666],vertical,"(890.0, 262.0)",1.35,0.484,1,8899.738,1,0.0,same
0,253,catch,"[(1159, 796)]",[],[1],[],vertical,"(390.0, 762.0)",1.7,nan,1,8905.005,1,0.0,same
0,254,valid,"[(1159, 770)]",[],[1],[0.5],horizontal,"(890.0, 762.0)",0.75,0.463,1,8910.454,2,0.0,same
0,255,valid,"[(1160, 772)]",[],[1],[0.5],vertical,"(390.0, 762.0)",0.7333333333333333,0.463,1,8915.551,2,0.0,same
0,256,catch,"[(1161, 760)]",[],[1],[],horizontal,"(890.0, 262.0)",1.7,nan,1,8920.722,2,0.0,same
0,257,invalid_same_bar,"[(1159, 763)]",[],[1],[0.5],vertical,"(890.0, 762.0)",1.5333333333333332,0.459,1,8926.162,3,0.0,same
0,258,invalid_adjacent_other_bar,"[(1150, 808)]",[],[1],[0.4666666666666667],vertical,"(390.0, 762.0)",1.1833333333333333,0.426,1,8932.553,3,0.0,other
0,259,valid,"[(1128, 787)]",[],[1],[0.5],horizontal,"(890.0, 762.0)",0.6833333333333333,0.463,1,8938.72,3,0.0,same
0,260,valid,"[(1161, 784)]",[],[1],[0.4666666666666667],horizontal,"(390.0, 762.0)",0.5333333333333333,0.43,1,8944.039,3,0.0,same
0,261,valid,"[(1161, 796)]",[],[1],[0.4666666666666667],horizontal,"(890.0, 262.0)",0.95,0.425,1,8948.961,3,0.0,same
0,262,valid,"[(1164, 771)]",[],[1],[0.5333333333333333],horizontal,"(890.0, 762.0)",1.0166666666666666,0.492,1,8954.583,3,0.0,same
0,263,catch,"[(1130, 786)]",[],[1],[],vertical,"(390.0, 762.0)",1.7,nan,1,8960.262,3,0.0,same
0,264,valid,"[(1157, 773)]",[],[1],[0.5833333333333334],vertical,"(390.0, 262.0)",1.1333333333333333,0.544,1,8966.176,3,0.0,same
0,265,invalid_adjacent_other_bar,"[(1166, 777)]",[],[1],[0.85],vertical,"(390.0, 762.0)",0.9333333333333333,nan,0,8972.04,0,0.0,other
0,266,valid,"[(1131, 782)]",[],[1],[0.6166666666666667],horizontal,"(890.0, 762.0)",1.1333333333333333,0.57,1,8977.163,1,0.0,same
0,267,catch,"[(1124, 793)]",[],[1],[],vertical,"(890.0, 762.0)",1.7,nan,1,8982.261,1,0.0,same
0,268,invalid_adjacent_other_bar,"[(1145, 775)]",[],[1],[0.5],vertical,"(390.0, 262.0)",1.5333333333333332,0.458,1,8987.76,1,0.0,other
0,269,valid,"[(1136, 791)]",[],[1],[0.5166666666666666],horizontal,"(390.0, 762.0)",0.4666666666666667,0.483,1,8993.265,2,0.0,same
0,270,valid,"[(1143, 787)]",[],[1],[0.5166666666666666],horizontal,"(390.0, 762.0)",1.1833333333333333,0.484,1,8998.415,2,0.0,same
0,271,valid,"[(1157, 795)]",[],[1],[0.5666666666666667],horizontal,"(390.0, 262.0)",1.1833333333333333,0.535,1,9003.68,2,0.0,same
0,272,catch,"[(1172, 787)]",[],[1],[],vertical,"(390.0, 262.0)",1.7,nan,1,9009.678,3,0.0,same
0,273,valid,"[(1159, 793)]",[],[1],[0.85],horizontal,"(390.0, 262.0)",1.5333333333333332,nan,0,9015.56,0,0.0,same
0,274,invalid_same_bar,"[(1137, 786)]",[],[1],[0.85],vertical,"(390.0, 262.0)",1.15,nan,0,9021.12,0,0.0,same
0,275,valid,"[(1160, 787)]",[],[1],[0.5166666666666666],horizontal,"(390.0, 262.0)",0.65,0.476,1,9026.308,1,0.0,same
0,276,invalid_adjacent_other_bar,"[(1161, 787)]",[],[1],[0.48333333333333334],vertical,"(890.0, 762.0)",1.3166666666666667,0.452,1,9031.047,1,0.0,other
0,277,catch,"[(1156, 791)]",[],[1],[],vertical,"(390.0, 762.0)",1.7,nan,1,9036.738,1,0.0,same
0,278,valid,"[(1129, 773)]",[],[1],[0.4666666666666667],vertical,"(890.0, 262.0)",1.3166666666666667,0.438,1,9041.78,2,0.0,same
0,279,valid,"[(1165, 781)]",[],[1],[0.5333333333333333],vertical,"(390.0, 762.0)",0.5333333333333333,0.493,1,9047.571,2,0.0,same
0,280,valid,"[(1159, 816)]",[],[1],[0.5333333333333333],vertical,"(890.0, 762.0)",0.8,0.499,1,9052.396,2,0.0,same
0,281,catch,"[(1158, 793)]",[],[1],[],vertical,"(390.0, 262.0)",1.7,nan,1,9057.301,3,0.0,same
0,282,catch,"[(1159, 781)]",[],[1],[],vertical,"(390.0, 262.0)",1.7,nan,1,9063.227,3,0.0,same
0,283,valid,"[(1160, 787)]",[],[1],[0.85],horizontal,"(890.0, 762.0)",1.1166666666666667,nan,0,9069.222,0,0.0,same
0,284,catch,"[(1135, 793)]",[],[1],[],vertical,"(890.0, 762.0)",1.7,nan,1,9074.018,1,0.0,same
0,285,valid,"[(1159, 776)]",[],[1],[0.5833333333333334],vertical,"(390.0, 762.0)",0.35,0.542,1,9079.126,1,0.0,same
0,286,valid,"[(1165, 780)]",[],[1],[0.5],vertical,"(890.0, 262.0)",1.5,0.464,1,9083.721,1,0.0,same
0,287,valid,"[(1160, 787)]",[],[1],[0.6333333333333333],vertical,"(890.0, 762.0)",0.7166666666666667,0.589,1,9089.156,2,0.0,same
0,288,valid,"[(1158, 787)]",[],[1],[0.6333333333333333],vertical,"(390.0, 762.0)",0.9166666666666666,0.595,1,9093.972,2,0.0,same
0,289,valid,"[(1127, 792)]",[],[1],[0.6166666666666667],horizontal,"(890.0, 762.0)",0.85,0.571,1,9099.139,2,0.0,same
0,290,valid,"[(1160, 793)]",[],[1],[0.5],horizontal,"(390.0, 262.0)",1.0,0.457,1,9104.673,3,0.0,same
0,291,valid,"[(1158, 780)]",[],[1],[0.6666666666666666],horizontal,"(390.0, 262.0)",0.3833333333333333,0.619,1,9110.981,3,0.0,same
0,292,valid,"[(1155, 792)]",[],[1],[0.7166666666666667],vertical,"(390.0, 762.0)",0.8166666666666667,0.675,1,9115.988,3,0.0,same
0,293,catch,"[(1156, 789)]",[],[1],[],horizontal,"(890.0, 262.0)",1.7,nan,1,9122.161,3,0.0,same
0,294,catch,"[(1160, 781)]",[],[1],[],horizontal,"(390.0, 762.0)",1.7,nan,1,9127.956,3,0.0,same
0,295,invalid_same_bar,"[(1158, 789)]",[],[1],[0.85],horizontal,"(890.0, 262.0)",0.35,nan,0,9133.729,0,0.0,same
0,296,valid,"[(1114, 787)]",[],[1],[0.55],horizontal,"(890.0, 262.0)",0.45,0.512,1,9137.872,1,0.0,same
0,297,valid,"[(1160, 786)]",[],[1],[],horizontal,"(390.0, 762.0)",,"('fix', 0.538)",0,9142.565,0,0.0,same
0,298,valid,"[(1118, 829)]",[],[1],[0.55],vertical,"(890.0, 262.0)",0.5333333333333333,0.508,1,9144.639,1,0.0,same
0,299,catch,"[(1159, 764)]",[],[1],[],vertical,"(890.0, 262.0)",1.7,nan,1,11590.462,1,0.0,same
0,300,valid,"[(1156, 767)]",[],[1],[0.5833333333333334],horizontal,"(390.0, 262.0)",1.1666666666666667,0.548,1,11595.715,1,0.0,same
0,301,catch,"[(1156, 775)]",[],[1],[],vertical,"(390.0, 762.0)",1.7,nan,1,11601.288,2,0.0,same
0,302,valid,"[(1165, 783)]",[],[1],[0.6333333333333333],horizontal,"(390.0, 262.0)",0.4666666666666667,0.587,1,11607.016,2,0.0,same
0,303,catch,"[(1164, 790)]",[],[1],[],vertical,"(390.0, 262.0)",1.7,nan,1,11611.693,2,0.0,same
0,304,valid,"[(1152, 794)]",[],[1],[0.85],horizontal,"(390.0, 762.0)",0.7333333333333333,nan,0,11617.626,0,0.0,same
0,305,valid,"[(1112, 772)]",[],[1],[0.45],vertical,"(390.0, 262.0)",0.9,0.424,1,11622.552,1,0.0,same
0,306,catch,"[(1121, 770)]",[],[1],[],horizontal,"(890.0, 762.0)",1.7,nan,1,11627.496,1,0.0,same
0,307,valid,"[(1160, 788)]",[],[1],[0.6166666666666667],horizontal,"(390.0, 762.0)",0.55,0.574,1,11632.865,1,0.0,same
0,308,valid,"[(1169, 803)]",[],[1],[0.45],horizontal,"(890.0, 262.0)",1.1333333333333333,0.416,1,11637.213,2,0.0,same
0,309,catch,"[(1165, 794)]",[],[1],[],vertical,"(890.0, 762.0)",1.7,nan,1,11643.229,2,0.0,same
0,310,valid,"[(1169, 785)]",[],[1],[0.4666666666666667],horizontal,"(890.0, 762.0)",1.5333333333333332,0.422,1,11648.268,2,0.0,same
0,311,valid,"[(1160, 785)]",[],[1],[0.48333333333333334],horizontal,"(890.0, 762.0)",1.4833333333333334,0.44,1,11654.741,3,0.0,same
0,312,valid,"[(1165, 801)]","[(1154, 839)]",[1],[0.5166666666666666],vertical,"(890.0, 262.0)",,"('bar', 0.528)",0,11661.347,0,0.0,same
0,313,invalid_same_bar,"[(1011, 796)]",[],[1],[],horizontal,"(390.0, 762.0)",,"('fix', 0.084)",0,11663.834,0,0.0,same
0,314,valid,"[(1007, 830)]",[],[1],[],vertical,"(390.0, 262.0)",,"('fix', 0.116)",0,11981.445,0,0.0,same
0,315,invalid_same_bar,"[(1122, 917)]",[],[1],[],vertical,"(890.0, 762.0)",,"('fix', 0.561)",0,11985.34,0,0.0,same
0,316,invalid_adjacent_other_bar,"[(1153, 886)]",[],[1],[0.1],vertical,"(890.0, 762.0)",0.5333333333333333,0.069,0,12113.162,0,0.0,other
0,317,valid,"[(56, 1023), (56, 1023), (1135, 886)]",[],"[0, 0, 1]",[0.35],horizontal,"(390.0, 762.0)",1.4666666666666666,0.317,1,12116.623,1,0.0,same
0,318,valid,"[(1084, 873)]",[],[1],[],horizontal,"(390.0, 762.0)",,"('fix', 0.365)",0,12143.412,0,0.0,same
0,319,invalid_same_bar,"[(1115, 880)]",[],[1],[0.6333333333333333],vertical,"(890.0, 262.0)",0.7333333333333333,0.61,1,12156.979,1,0.0,same
0,320,catch,"[(1118, 757)]",[],[1],[],horizontal,"(390.0, 262.0)",,"('fix', 0.301),nan",0,12164.912,0,0.02,same
0,321,catch,"[(1093, 747), (1160, 880)]",[],"[0, 1]",[],vertical,"(890.0, 762.0)",,"('fix', 0.186),nan",0,12167.462,0,0.04,same
0,322,valid,"[(1119, 953), (1179, 801)]",[],"[0, 1]",[],vertical,"(390.0, 262.0)",,"('fix', 0.182)",0,12170.065,0,0.04,same
0,323,valid,"[(1111, 910)]",[],[1],[],horizontal,"(890.0, 262.0)",,"('fix', 0.051)",0,12172.046,0,0.04,same
0,324,valid,"[(1208, 912)]",[],[1],[],vertical,"(390.0, 262.0)",,"('fix', 0.233)",0,12181.312,0,0.04,same
0,325,valid,"[(1082, 840)]",[],[1],[],vertical,"(890.0, 262.0)",,"('cti', 0.971)",0,12183.743,0,0.04,same
0,326,catch,"[(1096, 796)]",[],[1],[],vertical,"(890.0, 762.0)",1.7,nan,1,12400.985,1,0.04,same
0,327,valid,"[(1151, 803)]",[],[1],[0.48333333333333334],vertical,"(890.0, 762.0)",1.2833333333333332,0.44,1,12406.013,1,0.04,same
0,328,valid,"[(1152, 802)]",[],[1],[0.6333333333333333],horizontal,"(390.0, 262.0)",1.1,0.589,1,12411.016,1,0.04,same
0,329,catch,"[(1134, 795)]",[],[1],[],horizontal,"(890.0, 762.0)",1.7,nan,1,12416.13,2,0.04,same
0,330,valid,"[(1101, 860)]",[],[1],[0.85],horizontal,"(890.0, 762.0)",0.4,nan,0,12421.699,0,0.04,same
0,331,invalid_same_bar,"[(1101, 800)]",[],[1],[0.55],horizontal,"(890.0, 262.0)",0.8166666666666667,0.509,1,12467.978,1,0.04,same
0,332,valid,"[(1113, 805)]",[],[1],[0.31666666666666665],horizontal,"(890.0, 762.0)",1.3333333333333333,0.279,1,12473.086,1,0.04,same
0,333,valid,"[(1163, 791)]",[],[1],[0.5833333333333334],horizontal,"(890.0, 762.0)",0.7333333333333333,0.55,1,12478.88,1,0.04,same
0,334,valid,"[(1153, 766)]",[],[1],[0.5666666666666667],horizontal,"(890.0, 262.0)",1.1333333333333333,0.534,1,12483.649,2,0.04,same
0,335,catch,"[(1172, 771)]",[],[1],[],horizontal,"(390.0, 262.0)",1.7,nan,1,12489.382,2,0.04,same
0,336,catch,"[(1110, 824)]",[],[1],[],horizontal,"(390.0, 262.0)",1.7,nan,1,12494.95,2,0.04,same
0,337,catch,"[(1154, 786)]",[],[1],[],horizontal,"(390.0, 262.0)",1.7,nan,1,12500.775,3,0.04,same
0,338,valid,"[(1132, 821)]",[],[1],[0.55],horizontal,"(890.0, 762.0)",1.1166666666666667,0.506,1,12507.298,3,0.04,same
0,339,valid,"[(1113, 800)]",[],[1],[0.6166666666666667],horizontal,"(390.0, 262.0)",1.2,0.584,1,12513.199,3,0.04,same
0,340,valid,"[(1090, 842)]",[],[1],[0.85],vertical,"(390.0, 762.0)",0.8,nan,0,12532.216,0,0.04,same
0,341,valid,"[(1122, 783)]",[],[1],[0.5833333333333334],horizontal,"(890.0, 262.0)",0.8166666666666667,0.54,1,12537.205,1,0.04,same
0,342,catch,"[(1112, 810)]",[],[1],[],vertical,"(890.0, 762.0)",1.7,nan,1,12542.148,1,0.04,same
0,343,catch,"[(1153, 804)]",[],[1],[],vertical,"(890.0, 762.0)",1.7,nan,1,12555.616,1,0.04,same
0,344,catch,"[(1118, 833)]","[(1126, 825)]",[1],[0.03333333333333333],horizontal,"(390.0, 262.0)",,"('bar', 0.05),nan",0,12560.933,0,0.06,same
0,345,valid,"[(1125, 843)]",[],[1],[0.5166666666666666],vertical,"(890.0, 762.0)",1.05,0.48,1,12563.298,1,0.06,same
0,346,valid,"[(1140, 799)]",[],[1],[0.85],vertical,"(390.0, 762.0)",0.5333333333333333,nan,0,12822.864,0,0.06,same
0,347,catch,"[(1155, 801)]",[],[1],[],horizontal,"(390.0, 762.0)",1.7,nan,1,12826.932,1,0.06,same
0,348,invalid_adjacent_other_bar,"[(1125, 797)]",[],[1],[0.85],horizontal,"(390.0, 762.0)",0.85,nan,0,12832.382,0,0.06,other
0,349,valid,"[(1154, 792)]",[],[1],[0.85],vertical,"(890.0, 262.0)",0.5166666666666666,nan,0,12837.432,0,0.06,same
0,350,valid,"[(1097, 791)]",[],[1],[0.6333333333333333],horizontal,"(390.0, 262.0)",0.9666666666666667,0.588,1,12841.665,1,0.06,same
0,351,valid,"[(1125, 786)]",[],[1],[0.85],vertical,"(890.0, 762.0)",0.6,nan,0,14259.959,0,0.06,same
0,352,catch,"[(1079, 817)]",[],[1],[],horizontal,"(390.0, 262.0)",1.7,nan,1,14264.383,1,0.06,same
0,353,valid,"[(1160, 786)]",[],[1],[0.55],vertical,"(390.0, 762.0)",1.45,0.51,1,15916.041,1,0.06,same
0,354,valid,"[(1157, 779)]",[],[1],[0.7666666666666666],horizontal,"(390.0, 262.0)",1.1166666666666667,0.725,1,15921.929,1,0.06,same
0,355,catch,"[(1169, 798)]",[],[1],[],vertical,"(890.0, 762.0)",1.7,nan,1,15927.592,2,0.06,same
0,356,valid,"[(1157, 800)]",[],[1],[0.85],horizontal,"(390.0, 262.0)",1.4,nan,0,15933.016,0,0.06,same
0,357,valid,"[(1115, 786)]",[],[1],[0.7333333333333333],horizontal,"(890.0, 762.0)",1.1,0.699,1,15938.43,1,0.06,same
0,358,valid,"[(1129, 811)]","[(1090, 879)]",[1],[0.03333333333333333],horizontal,"(390.0, 762.0)",,"('bar', 0.051)",0,15945.012,0,0.06,same
0,359,valid,"[(1116, 832)]",[],[1],[0.7833333333333333],vertical,"(390.0, 262.0)",0.85,0.734,1,15964.238,1,0.06,same
0,360,catch,"[(1090, 841)]",[],[1],[],horizontal,"(890.0, 262.0)",1.7,nan,1,19501.061,1,0.06,same
0,361,catch,"[(1086, 825)]",[],[1],[],vertical,"(890.0, 762.0)",1.7,nan,1,19508.203,1,0.06,same
