block,practice,trial,change_interval_s,change_interval_frames,taps_start_time_during_fix,taps_end_time_during_fix,taps_start_loc_during_fix,taps_end_loc_during_fix,taps_on_lever_during_fix,taps_on_lever_frame_during_fix,taps_on_lever_s_during_fix,fix_xy,bar_orientation,target_xy,cti,rt,acc,time
1,True,1,0.473,28,[],[],"[(1176, 867)]",[],[1],[56],[0.9333333333333333],"[640.0, 512.0]",vertical,"(390.0, 762.0)",[1.5],[0.453],1,0.355
1,True,2,1.453,87,[],[],"[(1178, 885)]",[],[1],[],[],"[640.0, 512.0]",horizontal,"(890.0, 262.0)",[],[0],0,27.41
1,True,3,0.906,54,[],[],"[(1166, 883)]",[],[1],[87],[1.45],"[640.0, 512.0]",vertical,"(390.0, 762.0)",[1.0],[0.525],1,31.292
1,True,4,0.646,38,[],[],"[(1117, 887)]",[],[1],[88],[1.4666666666666666],"[640.0, 512.0]",vertical,"(890.0, 762.0)",[0.8666666666666667],[0.804],0,35.726
1,False,1,0.561,33,[],[],"[(1153, 905)]",[],[1],[66],[1.1],"[640.0, 512.0]",vertical,"(390.0, 762.0)",[1.0833333333333333],[0.528],1,39.618
1,False,2,1.331,79,[],[],"[(1113, 892)]",[],[1],[114],[1.9],"[640.0, 512.0]",horizontal,"(390.0, 762.0)",[0.5833333333333334],[0.554],1,45.049
1,False,3,0.549,32,[],[],"[(1105, 884)]",[],[1],[82],[1.3666666666666667],"[640.0, 512.0]",vertical,"(390.0, 262.0)",[0.7],[0.802],0,49.044
1,False,4,0.893,53,[],[],"[(1143, 901)]",[],[1],[98],[1.6333333333333333],"[640.0, 512.0]",vertical,"(390.0, 762.0)",[0.7],[0.721],1,52.693
1,False,5,1.024,61,[],[],"[(1032, 885)]",[],[1],[109],[1.8166666666666667],"[640.0, 512.0]",horizontal,"(390.0, 762.0)",[1.65],[0.765],1,56.566
1,False,6,0.465,27,[],[],"[(1129, 888)]",[],[1],[61],[1.0166666666666666],"[640.0, 512.0]",vertical,"(390.0, 262.0)",[1.6666666666666667],[0.546],1,61.576
1,False,7,1.162,69,[],[],"[(1096, 896)]",[],[1],[111],[1.8499999999999999],"[640.0, 512.0]",horizontal,"(890.0, 762.0)",[0.85],[0.67],1,65.745
1,False,8,1.122,67,[],[],"[(1100, 897)]",[],[1],[105],[1.75],"[640.0, 512.0]",vertical,"(390.0, 762.0)",[1.1666666666666667],[0.607],1,69.961
1,False,9,1.467,88,[],[],"[(1106, 876)]",[],[1],[122],[2.033333333333333],"[640.0, 512.0]",vertical,"(890.0, 762.0)",[0.8666666666666667],[0.539],1,74.36
1,False,10,1.025,61,[],[],"[(1067, 884)]",[],[1],[105],[1.75],"[640.0, 512.0]",vertical,"(390.0, 262.0)",[0.5833333333333334],[0.703],1,78.712
1,False,11,0.815,48,[],[],"[(1100, 886)]",[],[1],[77],[1.2833333333333332],"[640.0, 512.0]",horizontal,"(390.0, 262.0)",[1.6],[0.461],1,82.602
1,False,12,0.647,38,[],[],"[(1091, 887)]",[],[1],[74],[1.2333333333333334],"[640.0, 512.0]",horizontal,"(890.0, 262.0)",[1.5333333333333332],[0.577],1,87.064
1,False,13,0.7,42,[],[],"[(1051, 866)]",[],[1],[76],[1.2666666666666666],"[640.0, 512.0]",vertical,"(890.0, 762.0)",[1.1833333333333333],[0.549],1,91.313
1,False,14,1.4,84,[],[],"[(1112, 903)]",[],[1],[119],[1.9833333333333334],"[640.0, 512.0]",vertical,"(390.0, 762.0)",[1.4166666666666667],[0.556],1,95.296
1,False,15,1.232,73,[],[],"[(1088, 881)]",[],[1],[110],[1.8333333333333333],"[640.0, 512.0]",vertical,"(390.0, 762.0)",[0.9166666666666666],[0.59],1,100.156
1,False,16,0.843,50,[],[],"[(1087, 913)]",[],[1],[82],[1.3666666666666667],"[640.0, 512.0]",vertical,"(390.0, 762.0)",[1.2666666666666666],[0.51],1,104.4
1,False,17,0.93,55,[],[],"[(1053, 895)]",[],[1],[101],[1.6833333333333333],"[640.0, 512.0]",vertical,"(390.0, 762.0)",[0.5166666666666666],[0.735],1,108.532
1,False,18,1.288,77,[],[],"[(1058, 899)]",[],[1],[110],[1.8333333333333333],"[640.0, 512.0]",horizontal,"(890.0, 762.0)",[0.75],[0.529],1,112.261
1,False,19,1.41,84,[],[],"[(1066, 903)]",[],[1],[115],[1.9166666666666667],"[640.0, 512.0]",vertical,"(390.0, 262.0)",[1.4],[0.499],1,116.48
1,False,20,0.671,40,[],[],"[(1093, 884)]",[],[1],[78],[1.3],"[640.0, 512.0]",vertical,"(890.0, 762.0)",[0.6166666666666667],[0.604],1,121.284
1,False,21,0.551,33,[],[],"[(1084, 889)]",[],[1],[82],[1.3666666666666667],"[640.0, 512.0]",horizontal,"(890.0, 762.0)",[1.2166666666666666],[0.786],1,124.667
1,False,22,0.906,54,[],[],"[(1087, 891)]",[],[1],[88],[1.4666666666666666],"[640.0, 512.0]",vertical,"(890.0, 762.0)",[1.2166666666666666],[0.539],1,128.746
1,False,23,0.822,49,[],[],"[(1087, 892)]",[],[1],[83],[1.3833333333333333],"[640.0, 512.0]",vertical,"(890.0, 762.0)",[0.7166666666666667],[0.541],1,132.924
1,False,24,0.775,46,[],[],"[(1118, 890)]",[],[1],[84],[1.4],"[640.0, 512.0]",vertical,"(390.0, 262.0)",[1.55],[0.605],1,136.516
1,False,25,0.359,21,[],[],"[(1099, 886)]",[],[1],[61],[1.0166666666666666],"[640.0, 512.0]",horizontal,"(890.0, 762.0)",[1.1166666666666667],[0.639],1,140.897
1,False,26,0.318,19,[],[],"[(1096, 876)]",[],[1],[57],[0.95],"[640.0, 512.0]",horizontal,"(390.0, 762.0)",[1.55],[0.608],1,144.511
1,False,27,0.676,40,[],[],"[(1086, 882)]",[],[1],[74],[1.2333333333333334],"[640.0, 512.0]",horizontal,"(390.0, 262.0)",[0.7],[0.541],1,148.496
1,False,28,0.518,31,[],[],"[(1087, 888)]",[],[1],[62],[1.0333333333333332],"[640.0, 512.0]",horizontal,"(890.0, 262.0)",[1.15],[0.49],1,151.977
1,False,29,0.477,28,[],[],"[(1081, 879)]",[],[1],[64],[1.0666666666666667],"[640.0, 512.0]",horizontal,"(890.0, 762.0)",[0.6166666666666667],[0.575],1,155.844
1,False,30,0.492,29,[],[],"[(1082, 905)]",[],[1],[60],[1.0],"[640.0, 512.0]",vertical,"(390.0, 762.0)",[0.5],[0.491],1,159.031
1,False,31,1.139,68,[],[],"[(1093, 897)]",[],[1],[101],[1.6833333333333333],"[640.0, 512.0]",horizontal,"(390.0, 762.0)",[1.4],[0.526],1,162.041
1,False,32,1.181,70,[],[],"[(1051, 898)]",[],[1],[106],[1.7666666666666666],"[640.0, 512.0]",horizontal,"(890.0, 262.0)",[0.9166666666666666],[0.573],1,166.625
1,False,33,0.687,41,[],[],"[(1081, 888)]",[],[1],[76],[1.2666666666666666],"[640.0, 512.0]",vertical,"(890.0, 262.0)",[1.4],[0.555],1,170.778
1,False,34,0.508,30,[],[],"[(1096, 905)]",[],[1],[65],[1.0833333333333333],"[640.0, 512.0]",horizontal,"(890.0, 762.0)",[1.0333333333333332],[0.557],1,174.921
1,False,35,0.732,43,[],[],"[(1095, 889)]",[],[1],"[93, 93]","[1.55, 1.55]","[640.0, 512.0]",horizontal,"(890.0, 262.0)",[1.35],"[0.807, 0.807]",0,178.532
1,False,36,1.492,89,[],[],"[(1139, 868)]",[],[1],[121],[2.0166666666666666],"[640.0, 512.0]",horizontal,"(390.0, 762.0)",[1.5666666666666667],[0.513],1,182.93
1,False,37,1.307,78,[],[],"[(1118, 899)]",[],[1],[114],[1.9],"[640.0, 512.0]",vertical,"(390.0, 762.0)",[1.4833333333333334],[0.571],1,188.935
1,False,38,0.956,57,[],[],"[(1093, 890)]",[],[1],[94],[1.5666666666666667],"[640.0, 512.0]",vertical,"(890.0, 262.0)",[0.7666666666666666],[0.586],1,193.799
1,False,39,1.494,89,[],[],"[(1099, 889)]",[],[1],[123],[2.05],"[640.0, 512.0]",horizontal,"(890.0, 762.0)",[0.8333333333333334],[0.543],1,197.583
1,False,40,0.397,23,[],[],"[(1093, 877)]",[],[1],[55],[0.9166666666666666],"[640.0, 512.0]",vertical,"(390.0, 262.0)",[1.3666666666666667],[0.509],1,201.917
1,False,41,0.559,33,[],[],"[(1080, 873)]",[],[1],[83],[1.3833333333333333],"[640.0, 512.0]",vertical,"(390.0, 262.0)",[1.15],[0.808],0,205.663
1,False,42,0.44,26,[],[],"[(1112, 873)]",[],[1],[58],[0.9666666666666667],"[640.0, 512.0]",horizontal,"(390.0, 262.0)",[1.25],[0.512],1,209.681
1,False,43,0.506,30,[],[],"[(1087, 890)]",[],[1],[62],[1.0333333333333332],"[640.0, 512.0]",vertical,"(890.0, 262.0)",[1.2166666666666666],[0.514],1,213.463
1,False,44,1.188,71,[],[],"[(1110, 898)]",[],[1],[102],[1.7],"[640.0, 512.0]",vertical,"(390.0, 262.0)",[1.65],[0.49],1,217.233
1,False,45,1.155,69,[],[],"[(1070, 884)]",[],[1],[105],[1.75],"[640.0, 512.0]",vertical,"(890.0, 762.0)",[1.0],[0.576],1,222.028
1,False,46,1.317,79,[],[],"[(1093, 889)]",[],[1],[118],[1.9666666666666666],"[640.0, 512.0]",horizontal,"(390.0, 262.0)",[1.0],[0.63],1,226.256
1,False,47,0.763,45,[],[],"[(1098, 887)]",[],[1],[77],[1.2833333333333332],"[640.0, 512.0]",horizontal,"(890.0, 262.0)",[0.6666666666666666],[0.506],1,230.682
1,False,48,0.816,48,[],[],"[(1087, 876)]",[],[1],[81],[1.35],"[640.0, 512.0]",vertical,"(390.0, 762.0)",[0.6166666666666667],[0.53],1,234.112
1,False,49,1.38,82,[],[],"[(1074, 885)]",[],[1],[124],[2.0666666666666664],"[640.0, 512.0]",vertical,"(390.0, 762.0)",[0.95],[0.676],1,237.561
1,False,50,1.097,65,[],[],"[(1089, 889)]",[],[1],[100],[1.6666666666666667],"[640.0, 512.0]",horizontal,"(890.0, 762.0)",[0.7833333333333333],[0.555],1,242.042
1,False,51,1.142,68,[],[],"[(1103, 889)]",[],[1],[102],[1.7],"[640.0, 512.0]",vertical,"(890.0, 762.0)",[0.7],[0.541],1,245.918
1,False,52,0.838,50,[],[],"[(1093, 891)]",[],[1],[78],[1.3],"[640.0, 512.0]",vertical,"(390.0, 262.0)",[1.4833333333333334],[0.444],1,249.834
1,False,53,1.362,81,[],[],"[(1088, 888)]",[],[1],[114],[1.9],"[640.0, 512.0]",horizontal,"(390.0, 262.0)",[1.4],[0.527],1,254.057
1,False,54,1.5,90,[],[],"[(1066, 881)]",[],[1],[127],[2.1166666666666667],"[640.0, 512.0]",vertical,"(390.0, 762.0)",[1.4833333333333334],[0.588],1,258.809
1,False,55,0.944,56,[],[],"[(1066, 879)]",[],[1],[89],[1.4833333333333334],"[640.0, 512.0]",horizontal,"(890.0, 262.0)",[0.6666666666666666],[0.527],1,263.901
1,False,56,1.187,71,[],[],"[(1063, 880)]",[],[1],[104],[1.7333333333333334],"[640.0, 512.0]",horizontal,"(890.0, 262.0)",[1.1],[0.525],1,267.51
1,False,57,1.241,74,[],[],"[(1080, 884)]",[],[1],[113],[1.8833333333333333],"[640.0, 512.0]",horizontal,"(390.0, 762.0)",[0.6],[0.623],1,271.801
1,False,58,1.314,78,[],[],"[(1032, 870)]",[],[1],[112],[1.8666666666666667],"[640.0, 512.0]",horizontal,"(390.0, 262.0)",[1.3666666666666667],[0.541],1,275.782
1,False,59,0.677,40,[],[],"[(1069, 880)]",[],[1],[84],[1.4],"[640.0, 512.0]",horizontal,"(390.0, 262.0)",[0.95],[0.713],1,280.531
1,False,60,0.418,25,[],[],"[(1073, 880)]",[],[1],[58],[0.9666666666666667],"[640.0, 512.0]",vertical,"(890.0, 762.0)",[1.5166666666666666],[0.53],1,284.368
2,False,61,1.432,85,[],[],"[(1091, 881)]",[],[1],[120],[2.0],"[640.0, 512.0]",horizontal,"(390.0, 762.0)",[0.55],[0.553],1,288.332
2,False,62,1.069,64,[],[],"[(1074, 889)]",[],[1],[101],[1.6833333333333333],"[640.0, 512.0]",vertical,"(890.0, 762.0)",[0.9833333333333333],[0.601],1,292.346
2,False,63,1.277,76,[],[],"[(1095, 885)]",[],[1],[112],[1.8666666666666667],"[640.0, 512.0]",vertical,"(890.0, 762.0)",[0.9833333333333333],[0.578],1,296.512
2,False,64,1.041,62,[],[],"[(1094, 884)]",[],[1],[96],[1.6],"[640.0, 512.0]",horizontal,"(890.0, 762.0)",[1.0],[0.546],1,300.868
2,False,65,1.202,72,[],[],"[(1093, 894)]",[],[1],[106],[1.7666666666666666],"[640.0, 512.0]",horizontal,"(890.0, 762.0)",[1.3833333333333333],[0.541],1,304.935
2,False,66,1.138,68,[],[],"[(1091, 883)]",[],[1],[106],[1.7666666666666666],"[640.0, 512.0]",horizontal,"(390.0, 762.0)",[0.7666666666666666],[0.609],1,309.522
2,False,67,1.085,65,[],[],"[(1084, 879)]",[],[1],[99],[1.65],"[640.0, 512.0]",horizontal,"(890.0, 762.0)",[0.5666666666666667],[0.539],1,313.518
2,False,68,0.554,33,[],[],"[(1117, 880)]",[],[1],[65],[1.0833333333333333],"[640.0, 512.0]",horizontal,"(890.0, 262.0)",[1.1333333333333333],[0.507],1,317.223
2,False,69,0.725,43,[],[],"[(1094, 880)]",[],[1],[76],[1.2666666666666666],"[640.0, 512.0]",vertical,"(890.0, 262.0)",[1.35],[0.522],1,320.951
2,False,70,1.487,89,[],[],"[(1093, 875)]",[],[1],[121],[2.0166666666666666],"[640.0, 512.0]",vertical,"(890.0, 262.0)",[0.55],[0.509],1,325.051
2,False,71,1.019,61,[],[],"[(1101, 875)]",[],[1],[95],[1.5833333333333333],"[640.0, 512.0]",vertical,"(390.0, 762.0)",[1.6],[0.539],1,329.168
2,False,72,0.447,26,[],[],"[(1098, 880)]",[],[1],[61],[1.0166666666666666],"[640.0, 512.0]",vertical,"(390.0, 262.0)",[0.75],[0.562],1,333.868
2,False,73,1.299,77,[],[],"[(1096, 885)]",[],[1],[109],[1.8166666666666667],"[640.0, 512.0]",vertical,"(390.0, 762.0)",[1.65],[0.509],1,337.136
2,False,74,0.994,59,[],[],"[(1099, 884)]",[],[1],[93],[1.55],"[640.0, 512.0]",vertical,"(390.0, 762.0)",[1.4166666666666667],[0.541],1,342.145
2,False,75,0.346,20,[],[],"[(1076, 875)]",[],[1],[58],[0.9666666666666667],"[640.0, 512.0]",vertical,"(390.0, 262.0)",[0.5666666666666667],[0.611],1,346.602
2,False,76,0.498,29,[],[],"[(1060, 875)]",[],[1],[74],[1.2333333333333334],"[640.0, 512.0]",vertical,"(890.0, 762.0)",[1.35],[0.721],1,349.698
2,False,77,0.357,21,[],[],"[(1079, 884)]",[],[1],[65],[1.0833333333333333],"[640.0, 512.0]",horizontal,"(390.0, 262.0)",[0.5],[0.706],1,353.795
2,False,78,1.338,80,[],[],"[(1072, 875)]",[],[1],[110],[1.8333333333333333],"[640.0, 512.0]",vertical,"(890.0, 262.0)",[1.6333333333333333],[0.48],1,356.868
2,False,79,0.699,41,[],[],"[(1090, 880)]",[],[1],[89],[1.4833333333333334],"[640.0, 512.0]",horizontal,"(890.0, 762.0)",[1.1666666666666667],[0.771],1,361.801
2,False,80,1.335,80,[],[],"[(1095, 881)]",[],[1],[127],[2.1166666666666667],"[640.0, 512.0]",horizontal,"(890.0, 762.0)",[1.35],[0.754],1,365.926
2,False,81,1.451,87,[],[],"[(1091, 879)]",[],[1],[119],[1.9833333333333334],"[640.0, 512.0]",horizontal,"(890.0, 262.0)",[0.75],[0.509],1,370.881
2,False,82,0.418,25,[],[],"[(1093, 884)]",[],[1],[58],[0.9666666666666667],"[640.0, 512.0]",horizontal,"(390.0, 762.0)",[1.35],[0.524],1,375.123
2,False,83,0.914,54,[],[],"[(1104, 884)]",[],[1],[99],[1.65],"[640.0, 512.0]",vertical,"(890.0, 262.0)",[1.3666666666666667],[0.724],1,378.952
2,False,84,0.821,49,[],[],"[(1087, 880)]",[],[1],[81],[1.35],"[640.0, 512.0]",vertical,"(390.0, 262.0)",[1.2],[0.511],1,383.501
2,False,85,0.428,25,[],[],"[(1087, 884)]",[],[1],[62],[1.0333333333333332],"[640.0, 512.0]",vertical,"(890.0, 262.0)",[0.8333333333333334],[0.59],1,387.574
2,False,86,1.041,62,[],[],"[(1075, 885)]",[],[1],[96],[1.6],"[640.0, 512.0]",vertical,"(890.0, 762.0)",[1.4833333333333334],[0.544],1,390.935
2,False,87,0.309,18,[],[],"[(1098, 880)]",[],[1],[53],[0.8833333333333333],"[640.0, 512.0]",vertical,"(890.0, 762.0)",[0.5166666666666666],[0.56],1,395.566
2,False,88,0.427,25,[],[],"[(1105, 889)]",[],[1],[60],[1.0],"[640.0, 512.0]",vertical,"(390.0, 762.0)",[0.7833333333333333],[0.554],1,398.452
2,False,89,0.914,54,[],[],"[(1087, 878)]",[],[1],[98],[1.6333333333333333],"[640.0, 512.0]",horizontal,"(390.0, 262.0)",[0.9833333333333333],[0.708],1,401.739
2,False,90,0.417,25,[],[],"[(1076, 879)]",[],[1],[59],[0.9833333333333333],"[640.0, 512.0]",horizontal,"(890.0, 762.0)",[1.1333333333333333],[0.544],1,406.901
2,False,91,1.405,84,[],[],"[(1092, 880)]",[],[1],[118],[1.9666666666666666],"[640.0, 512.0]",vertical,"(890.0, 762.0)",[0.85],[0.54],1,410.499
2,False,92,1.402,84,[],[],"[(1038, 870)]",[],[1],[119],[1.9833333333333334],"[640.0, 512.0]",vertical,"(890.0, 762.0)",[1.5333333333333332],[0.564],1,414.818
2,False,93,1.291,77,[],[],"[(1081, 880)]",[],[1],[115],[1.9166666666666667],"[640.0, 512.0]",vertical,"(390.0, 762.0)",[0.6833333333333333],[0.611],1,419.881
2,False,94,1.347,80,[],[],"[(1097, 884)]",[],[1],[113],[1.8833333333333333],"[640.0, 512.0]",horizontal,"(890.0, 262.0)",[0.55],[0.523],1,423.951
2,False,95,0.614,36,[],[],"[(1095, 879)]",[],[1],[70],[1.1666666666666667],"[640.0, 512.0]",vertical,"(890.0, 762.0)",[1.4833333333333334],[0.551],1,428.001
2,False,96,1.048,62,[],[],"[(1070, 875)]",[],[1],[97],[1.6166666666666667],"[640.0, 512.0]",vertical,"(890.0, 762.0)",[1.4666666666666666],[0.555],1,432.119
2,False,97,1.179,70,[],[],"[(1114, 881)]",[],[1],[105],[1.75],"[640.0, 512.0]",vertical,"(390.0, 262.0)",[0.8666666666666667],[0.557],1,436.697
2,False,98,0.425,25,[],[],"[(1056, 881)]",[],[1],[60],[1.0],"[640.0, 512.0]",horizontal,"(390.0, 762.0)",[1.1],[0.556],1,440.812
2,False,99,1.141,68,[],[],"[(1096, 880)]",[],[1],[103],[1.7166666666666666],"[640.0, 512.0]",vertical,"(390.0, 262.0)",[0.6166666666666667],[0.564],1,444.401
2,False,100,1.399,83,[],[],"[(1071, 888)]",[],[1],[117],[1.95],"[640.0, 512.0]",horizontal,"(890.0, 262.0)",[1.1666666666666667],[0.543],1,448.201
2,False,101,1.158,69,[],[],"[(1108, 880)]",[],[1],[106],[1.7666666666666666],"[640.0, 512.0]",horizontal,"(890.0, 262.0)",[0.95],[0.59],1,452.819
2,False,102,1.025,61,[],[],"[(1072, 881)]",[],[1],[95],[1.5833333333333333],"[640.0, 512.0]",horizontal,"(390.0, 262.0)",[0.7666666666666666],[0.552],1,457.0
2,False,103,1.334,80,[],[],"[(1072, 889)]",[],[1],[110],[1.8333333333333333],"[640.0, 512.0]",horizontal,"(890.0, 262.0)",[0.8666666666666667],[0.478],1,460.861
2,False,104,1.307,78,[],[],"[(1070, 892)]",[],[1],[112],[1.8666666666666667],"[640.0, 512.0]",vertical,"(390.0, 262.0)",[0.5833333333333334],[0.547],1,465.066
2,False,105,0.774,46,[],[],"[(1080, 889)]",[],[1],[78],[1.3],"[640.0, 512.0]",horizontal,"(890.0, 262.0)",[0.8666666666666667],[0.518],1,469.009
2,False,106,1.407,84,[],[],"[(1068, 888)]",[],[1],[128],[2.1333333333333333],"[640.0, 512.0]",horizontal,"(390.0, 762.0)",[0.75],[0.713],1,472.667
2,False,107,0.625,37,[],[],"[(1073, 885)]",[],[1],[74],[1.2333333333333334],"[640.0, 512.0]",horizontal,"(390.0, 762.0)",[1.5833333333333333],[0.59],1,477.17
2,False,108,0.552,33,[],[],"[(1078, 877)]",[],[1],[66],[1.1],"[640.0, 512.0]",vertical,"(890.0, 762.0)",[1.6],[0.525],1,481.463
2,False,109,1.493,89,[],[],"[(1090, 875)]",[],[1],[124],[2.0666666666666664],"[640.0, 512.0]",vertical,"(390.0, 262.0)",[0.6833333333333333],[0.561],1,485.657
2,False,110,0.529,31,[],[],"[(1073, 887)]",[],[1],[66],[1.1],"[640.0, 512.0]",horizontal,"(390.0, 262.0)",[0.95],[0.561],1,489.901
2,False,111,0.336,20,[],[],"[(1078, 889)]",[],[1],[56],[0.9333333333333333],"[640.0, 512.0]",vertical,"(390.0, 262.0)",[0.6],[0.577],1,493.45
2,False,112,0.891,53,[],[],"[(1116, 884)]",[],[1],[88],[1.4666666666666666],"[640.0, 512.0]",horizontal,"(390.0, 762.0)",[1.25],[0.559],1,496.517
2,False,113,0.708,42,[],[],"[(1079, 886)]",[],[1],[91],[1.5166666666666666],"[640.0, 512.0]",vertical,"(390.0, 262.0)",[0.6666666666666666],[0.787],1,501.135
2,False,114,1.112,66,[],[],"[(1074, 875)]",[],[1],[97],[1.6166666666666667],"[640.0, 512.0]",vertical,"(890.0, 262.0)",[0.7],[0.499],1,504.872
2,False,115,1.296,77,[],[],"[(1076, 879)]",[],[1],[127],[2.1166666666666667],"[640.0, 512.0]",horizontal,"(390.0, 262.0)",[0.8666666666666667],[0.804],0,508.741
2,False,116,1.434,86,[],[],"[(1074, 880)]",[],[1],[117],[1.95],"[640.0, 512.0]",vertical,"(890.0, 262.0)",[1.1333333333333333],[0.489],1,513.182
2,False,117,0.657,39,[],[],"[(1091, 875)]",[],[1],[72],[1.2],"[640.0, 512.0]",horizontal,"(890.0, 262.0)",[0.95],[0.527],1,517.798
2,False,118,1.016,60,[],[],"[(1076, 875)]",[],[1],[94],[1.5666666666666667],"[640.0, 512.0]",horizontal,"(890.0, 262.0)",[0.8166666666666667],[0.542],1,521.388
2,False,119,0.923,55,[],[],"[(1081, 886)]",[],[1],[89],[1.4833333333333334],"[640.0, 512.0]",horizontal,"(390.0, 762.0)",[0.8166666666666667],[0.541],1,525.27
2,False,120,0.708,42,[],[],"[(1093, 875)]",[],[1],[80],[1.3333333333333333],"[640.0, 512.0]",vertical,"(390.0, 762.0)",[0.65],[0.609],1,529.047
3,False,121,0.424,25,[],[],"[(1064, 883)]",[],[1],[58],[0.9666666666666667],"[640.0, 512.0]",vertical,"(390.0, 762.0)",[1.2833333333333332],[0.526],1,532.546
3,False,122,1.421,85,[],[],"[(1068, 886)]",[],[1],[135],[2.25],"[640.0, 512.0]",horizontal,"(890.0, 762.0)",[1.3],[0.801],0,536.302
3,False,123,1.007,60,[],[],"[(1117, 881)]",[],[1],[92],[1.5333333333333332],"[640.0, 512.0]",vertical,"(890.0, 262.0)",[0.95],[0.51],1,541.335
3,False,124,0.556,33,[],[],"[(1073, 878)]",[],[1],[68],[1.1333333333333333],"[640.0, 512.0]",vertical,"(390.0, 262.0)",[1.6666666666666667],[0.558],1,545.368
3,False,125,0.868,52,[],[],"[(1089, 885)]",[],[1],[85],[1.4166666666666667],"[640.0, 512.0]",vertical,"(890.0, 762.0)",[0.55],[0.53],1,549.634
3,False,126,0.558,33,[],[],"[(1087, 881)]",[],[1],[73],[1.2166666666666666],"[640.0, 512.0]",horizontal,"(890.0, 262.0)",[0.8],[0.64],1,553.132
3,False,127,0.703,42,[],[],"[(1093, 889)]",[],[1],[74],[1.2333333333333334],"[640.0, 512.0]",horizontal,"(890.0, 262.0)",[1.0],[0.515],1,556.622
3,False,128,0.595,35,[],[],"[(1056, 885)]",[],[1],[69],[1.15],"[640.0, 512.0]",horizontal,"(390.0, 762.0)",[1.4333333333333333],[0.543],1,560.376
3,False,129,0.508,30,[],[],"[(1032, 900)]",[],[1],[59],[0.9833333333333333],"[640.0, 512.0]",horizontal,"(390.0, 262.0)",[1.4333333333333333],[0.462],1,564.516
3,False,130,0.973,58,[],[],"[(1066, 871)]",[],[1],[91],[1.5166666666666666],"[640.0, 512.0]",horizontal,"(890.0, 762.0)",[1.2],[0.521],1,568.447
3,False,131,0.704,42,[],[],"[(1087, 888)]",[],[1],[82],[1.3666666666666667],"[640.0, 512.0]",horizontal,"(890.0, 262.0)",[0.65],[0.647],1,572.642
3,False,132,0.603,36,[],[],"[(1099, 884)]",[],[1],[67],[1.1166666666666667],"[640.0, 512.0]",horizontal,"(890.0, 262.0)",[1.4833333333333334],[0.49],1,576.138
3,False,133,0.81,48,[],[],"[(1085, 870)]",[],[1],[82],[1.3666666666666667],"[640.0, 512.0]",horizontal,"(890.0, 262.0)",[1.2166666666666666],[0.542],1,580.368
3,False,134,1.414,84,[],[],"[(1087, 880)]",[],[1],[121],[2.0166666666666666],"[640.0, 512.0]",vertical,"(390.0, 262.0)",[1.4],[0.594],1,584.541
3,False,135,1.291,77,[],[],"[(1082, 874)]",[],[1],[112],[1.8666666666666667],"[640.0, 512.0]",horizontal,"(890.0, 762.0)",[0.5],[0.556],1,589.59
3,False,136,0.435,26,[],[],"[(1056, 889)]",[],[1],[58],[0.9666666666666667],"[640.0, 512.0]",vertical,"(390.0, 262.0)",[1.5166666666666666],[0.507],1,593.511
3,False,137,1.354,81,[],[],"[(1050, 884)]",[],[1],[114],[1.9],"[640.0, 512.0]",horizontal,"(390.0, 762.0)",[0.8666666666666667],[0.53],1,597.55
3,False,138,0.527,31,[],[],"[(1050, 890)]",[],[1],[66],[1.1],"[640.0, 512.0]",vertical,"(890.0, 762.0)",[0.8833333333333333],[0.559],1,601.803
3,False,139,0.581,34,[],[],"[(1074, 879)]",[],[1],[66],[1.1],"[640.0, 512.0]",vertical,"(890.0, 262.0)",[1.6333333333333333],[0.506],1,605.286
3,False,140,0.485,29,[],[],"[(1056, 880)]",[],[1],[65],[1.0833333333333333],"[640.0, 512.0]",vertical,"(890.0, 262.0)",[1.1333333333333333],[0.573],1,609.506
3,False,141,1.01,60,[],[],"[(1078, 892)]",[],[1],[93],[1.55],"[640.0, 512.0]",horizontal,"(890.0, 262.0)",[1.6833333333333333],[0.528],1,613.23
3,False,142,0.744,44,[],[],"[(1056, 888)]",[],[1],[77],[1.2833333333333332],"[640.0, 512.0]",vertical,"(390.0, 262.0)",[1.0666666666666667],[0.525],1,617.919
3,False,143,1.154,69,[],[],"[(1079, 883)]",[],[1],[103],[1.7166666666666666],"[640.0, 512.0]",horizontal,"(390.0, 262.0)",[1.0],[0.542],1,621.773
3,False,144,0.371,22,[],[],"[(1046, 881)]",[],[1],[59],[0.9833333333333333],"[640.0, 512.0]",vertical,"(890.0, 762.0)",[0.7666666666666666],[0.593],1,625.935
3,False,145,1.206,72,[],[],"[(1082, 897)]",[],[1],[106],[1.7666666666666666],"[640.0, 512.0]",horizontal,"(390.0, 262.0)",[1.0666666666666667],[0.54],1,629.183
3,False,146,0.749,44,[],[],"[(1078, 885)]",[],[1],[79],[1.3166666666666667],"[640.0, 512.0]",horizontal,"(390.0, 262.0)",[1.1833333333333333],[0.557],1,633.629
3,False,147,1.421,85,[],[],"[(1080, 890)]",[],[1],[118],[1.9666666666666666],"[640.0, 512.0]",horizontal,"(890.0, 762.0)",[1.3833333333333333],[0.531],1,637.623
3,False,148,1.467,88,[],[],"[(1123, 884)]",[],[1],[120],[2.0],"[640.0, 512.0]",vertical,"(890.0, 762.0)",[1.65],[0.512],1,642.449
3,False,149,0.643,38,[],[],"[(1096, 884)]",[],[1],[72],[1.2],"[640.0, 512.0]",horizontal,"(890.0, 262.0)",[1.2333333333333334],[0.542],1,647.652
3,False,150,0.814,48,[],[],"[(1083, 893)]",[],[1],[85],[1.4166666666666667],"[640.0, 512.0]",vertical,"(890.0, 762.0)",[1.6666666666666667],[0.592],1,651.552
3,False,151,1.418,85,[],[],"[(1085, 886)]",[],[1],[125],[2.0833333333333335],"[640.0, 512.0]",vertical,"(890.0, 762.0)",[1.4166666666666667],[0.639],1,656.128
3,False,152,0.944,56,[],[],"[(1033, 884)]",[],[1],[88],[1.4666666666666666],"[640.0, 512.0]",horizontal,"(890.0, 262.0)",[1.5],[0.506],1,661.071
3,False,153,0.773,46,[],[],"[(1047, 886)]",[],[1],[96],[1.6],"[640.0, 512.0]",vertical,"(390.0, 262.0)",[0.5166666666666666],[0.805],0,665.518
3,False,154,0.527,31,[],[],"[(1080, 894)]",[],[1],[64],[1.0666666666666667],"[640.0, 512.0]",vertical,"(390.0, 262.0)",[0.5666666666666667],[0.524],1,669.202
3,False,155,0.751,45,[],[],"[(1077, 885)]",[],[1],[50],[0.8333333333333334],"[640.0, 512.0]",horizontal,"(890.0, 262.0)",[1.3333333333333333],[0.07],1,672.576
3,False,156,0.564,33,[],[],"[(1041, 889)]",[],[1],[67],[1.1166666666666667],"[640.0, 512.0]",horizontal,"(890.0, 762.0)",[0.6333333333333333],[0.545],1,676.285
3,False,157,0.778,46,[],[],"[(1076, 898)]",[],[1],[79],[1.3166666666666667],"[640.0, 512.0]",vertical,"(390.0, 762.0)",[1.6333333333333333],[0.528],1,679.618
3,False,158,0.732,43,[],[],"[(1051, 889)]",[],[1],[75],[1.25],"[640.0, 512.0]",horizontal,"(390.0, 762.0)",[0.8666666666666667],[0.514],1,684.052
3,False,159,0.792,47,[],[],"[(1072, 887)]",[],[1],[83],[1.3833333333333333],"[640.0, 512.0]",horizontal,"(390.0, 262.0)",[0.6833333333333333],[0.573],1,687.686
3,False,160,0.807,48,[],[],"[(1070, 886)]",[],[1],[84],[1.4],"[640.0, 512.0]",horizontal,"(890.0, 262.0)",[0.9833333333333333],[0.576],1,691.266
3,False,161,0.46,27,[],[],"[(1081, 873)]",[],[1],[72],[1.2],"[640.0, 512.0]",horizontal,"(890.0, 262.0)",[1.0666666666666667],[0.725],1,695.164
3,False,162,1.076,64,[],[],"[(1083, 893)]",[],[1],[97],[1.6166666666666667],"[640.0, 512.0]",horizontal,"(390.0, 762.0)",[0.9333333333333333],[0.53],1,698.93
3,False,163,1.37,82,[],[],"[(1057, 889)]",[],[1],[120],[2.0],"[640.0, 512.0]",horizontal,"(890.0, 762.0)",[0.9333333333333333],[0.612],1,702.984
3,False,164,1.126,67,[],[],"[(1075, 884)]",[],[1],[100],[1.6666666666666667],"[640.0, 512.0]",horizontal,"(890.0, 262.0)",[0.9666666666666667],[0.527],1,707.41
3,False,165,0.734,44,[],[],"[(1063, 875)]",[],[1],[],[],"[640.0, 512.0]",vertical,"(390.0, 262.0)",[],[0],0,711.553
3,False,166,0.678,40,[],[],"[(1046, 884)]",[],[1],[73],[1.2166666666666666],"[640.0, 512.0]",vertical,"(390.0, 262.0)",[1.6166666666666667],[0.526],1,714.903
3,False,167,0.783,46,[],[],"[(1074, 881)]",[],[1],[80],[1.3333333333333333],"[640.0, 512.0]",vertical,"(390.0, 762.0)",[1.45],[0.542],1,721.084
3,False,168,1.423,85,[],[],"[(1036, 888)]",[],[1],[117],[1.95],"[640.0, 512.0]",horizontal,"(890.0, 262.0)",[0.6166666666666667],[0.508],1,725.419
3,False,169,0.603,36,[],[],"[(1066, 879)]",[],[1],[68],[1.1333333333333333],"[640.0, 512.0]",vertical,"(890.0, 262.0)",[0.6666666666666666],[0.51],1,729.56
3,False,170,1.117,67,[],[],"[(1063, 899)]",[],[1],[103],[1.7166666666666666],"[640.0, 512.0]",vertical,"(890.0, 262.0)",[0.9],[0.578],1,732.831
3,False,171,0.4,24,[],[],"[(1078, 884)]",[],[1],[57],[0.95],"[640.0, 512.0]",vertical,"(890.0, 762.0)",[0.5166666666666666],[0.524],1,736.953
3,False,172,1.405,84,[],[],"[(1091, 880)]",[],[1],[122],[2.033333333333333],"[640.0, 512.0]",horizontal,"(890.0, 762.0)",[0.5666666666666667],[0.607],1,739.919
3,False,173,0.528,31,[],[],"[(1093, 881)]",[],[1],[71],[1.1833333333333333],"[640.0, 512.0]",vertical,"(390.0, 762.0)",[1.25],[0.64],1,743.991
3,False,174,0.898,53,[],[],"[(1079, 889)]",[],[1],[87],[1.45],"[640.0, 512.0]",vertical,"(890.0, 762.0)",[1.5],[0.542],1,748.735
3,False,175,0.683,40,[],[],"[(1113, 886)]",[],[1],[73],[1.2166666666666666],"[640.0, 512.0]",horizontal,"(390.0, 262.0)",[0.55],[0.524],1,753.218
3,False,176,0.704,42,[],[],"[(1102, 888)]",[],[1],[76],[1.2666666666666666],"[640.0, 512.0]",horizontal,"(890.0, 762.0)",[0.9166666666666666],[0.538],1,756.497
3,False,177,0.699,41,[],[],"[(1064, 895)]",[],[1],[77],[1.2833333333333332],"[640.0, 512.0]",horizontal,"(390.0, 762.0)",[1.05],[0.573],1,762.615
3,False,178,0.39,23,[],[],"[(1077, 886)]",[],[1],[57],[0.95],"[640.0, 512.0]",vertical,"(390.0, 762.0)",[0.9666666666666667],[0.54],1,766.415
3,False,179,0.507,30,[],[],"[(1059, 887)]",[],[1],[64],[1.0666666666666667],"[640.0, 512.0]",vertical,"(390.0, 762.0)",[1.1666666666666667],[0.54],1,769.847
3,False,180,0.746,44,[],[],"[(1063, 886)]",[],[1],[77],[1.2833333333333332],"[640.0, 512.0]",vertical,"(390.0, 262.0)",[1.7],[0.529],1,773.588
4,False,181,1.105,66,[],[],"[(1076, 887)]",[],[1],[101],[1.6833333333333333],"[640.0, 512.0]",horizontal,"(890.0, 762.0)",[0.75],[0.558],1,778.046
4,False,182,0.882,52,[],[],"[(1074, 893)]",[],[1],[92],[1.5333333333333332],"[640.0, 512.0]",vertical,"(390.0, 762.0)",[1.1333333333333333],[0.637],1,782.004
4,False,183,0.597,35,[],[],"[(1051, 889)]",[],[1],[71],[1.1833333333333333],"[640.0, 512.0]",vertical,"(890.0, 762.0)",[0.85],[0.572],1,786.137
4,False,184,1.139,68,[],[],"[(1088, 885)]",[],[1],[104],[1.7333333333333334],"[640.0, 512.0]",vertical,"(890.0, 762.0)",[0.8333333333333334],[0.575],1,789.82
4,False,185,0.446,26,[],[],"[(1094, 883)]",[],[1],[76],[1.2666666666666666],"[640.0, 512.0]",vertical,"(890.0, 762.0)",[1.5666666666666667],[0.804],0,793.904
4,False,186,1.051,63,[],[],"[(1105, 884)]",[],[1],[99],[1.65],"[640.0, 512.0]",vertical,"(890.0, 762.0)",[0.6333333333333333],[0.575],1,798.173
4,False,187,0.735,44,[],[],"[(1090, 885)]",[],[1],[78],[1.3],"[640.0, 512.0]",horizontal,"(390.0, 762.0)",[0.6666666666666666],[0.543],1,801.98
4,False,188,0.385,23,[],[],"[(1056, 875)]",[],[1],[56],[0.9333333333333333],"[640.0, 512.0]",horizontal,"(390.0, 262.0)",[0.6333333333333333],[0.524],1,805.427
4,False,189,1.064,63,[],[],"[(1075, 881)]",[],[1],[97],[1.6166666666666667],"[640.0, 512.0]",horizontal,"(890.0, 762.0)",[1.45],[0.538],1,808.502
4,False,190,0.415,24,[],[],"[(1086, 887)]",[],[1],[58],[0.9666666666666667],"[640.0, 512.0]",horizontal,"(390.0, 262.0)",[0.5166666666666666],[0.542],1,813.097
4,False,191,1.226,73,[],[],"[(1080, 875)]",[],[1],[107],[1.7833333333333332],"[640.0, 512.0]",horizontal,"(890.0, 762.0)",[0.7833333333333333],[0.536],1,816.117
4,False,192,1.132,67,[],[],"[(1063, 870)]",[],[1],[98],[1.6333333333333333],"[640.0, 512.0]",vertical,"(890.0, 262.0)",[1.25],[0.487],1,820.203
4,False,193,1.103,66,[],[],"[(1089, 888)]",[],[1],[107],[1.7833333333333332],"[640.0, 512.0]",horizontal,"(890.0, 762.0)",[0.7666666666666666],[0.654],1,824.613
4,False,194,0.928,55,[],[],"[(1042, 878)]",[],[1],[91],[1.5166666666666666],"[640.0, 512.0]",horizontal,"(890.0, 762.0)",[1.65],[0.575],1,828.675
4,False,195,0.991,59,[],[],"[(1080, 885)]",[],[1],[91],[1.5166666666666666],"[640.0, 512.0]",horizontal,"(390.0, 762.0)",[1.6166666666666667],[0.504],1,833.353
4,False,196,1.478,88,[],[],"[(1053, 868)]",[],[1],[119],[1.9833333333333334],"[640.0, 512.0]",horizontal,"(390.0, 262.0)",[1.0666666666666667],[0.493],1,837.987
4,False,197,0.614,36,[],[],"[(1109, 877)]",[],[1],[86],[1.4333333333333333],"[640.0, 512.0]",vertical,"(890.0, 762.0)",[1.5166666666666666],[0.805],0,842.537
4,False,198,1.405,84,[],[],"[(1123, 877)]",[],[1],[132],[2.2],"[640.0, 512.0]",vertical,"(390.0, 762.0)",[0.8166666666666667],[0.768],1,846.982
4,False,199,1.225,73,[],[],"[(1084, 873)]",[],[1],[106],[1.7666666666666666],"[640.0, 512.0]",horizontal,"(890.0, 262.0)",[0.8333333333333334],[0.518],1,851.484
4,False,200,0.368,22,[],[],"[(1117, 884)]",[],[1],[67],[1.1166666666666667],"[640.0, 512.0]",horizontal,"(390.0, 262.0)",[0.8833333333333333],[0.724],1,855.566
4,False,201,0.43,25,[],[],"[(1082, 884)]",[],[1],[58],[0.9666666666666667],"[640.0, 512.0]",vertical,"(390.0, 262.0)",[1.2166666666666666],[0.523],1,859.058
4,False,202,0.433,25,[],[],"[(1074, 866)]",[],[1],[66],[1.1],"[640.0, 512.0]",horizontal,"(890.0, 762.0)",[0.6666666666666666],[0.658],1,862.756
4,False,203,0.732,43,[],[],"[(1044, 871)]",[],[1],[76],[1.2666666666666666],"[640.0, 512.0]",horizontal,"(890.0, 762.0)",[1.6833333333333333],[0.52],1,866.036
4,False,204,1.018,61,[],[],"[(1033, 888)]",[],[1],[96],[1.6],"[640.0, 512.0]",horizontal,"(390.0, 762.0)",[1.05],[0.556],1,870.487
4,False,205,0.42,25,[],[],"[(1069, 881)]",[],[1],[61],[1.0166666666666666],"[640.0, 512.0]",vertical,"(890.0, 262.0)",[0.7666666666666666],[0.571],1,874.658
4,False,206,1.337,80,[],[],"[(1084, 888)]",[],[1],[115],[1.9166666666666667],"[640.0, 512.0]",vertical,"(390.0, 762.0)",[1.4166666666666667],[0.554],1,878.071
4,False,207,1.462,87,[],[],"[(1074, 876)]",[],[1],[137],[2.283333333333333],"[640.0, 512.0]",vertical,"(890.0, 762.0)",[1.2166666666666666],[0.793],0,882.861
4,False,208,1.188,71,[],[],"[(1121, 882)]",[],[1],[103],[1.7166666666666666],"[640.0, 512.0]",vertical,"(890.0, 262.0)",[1.4],[0.51],1,887.837
4,False,209,0.456,27,[],[],"[(1058, 875)]",[],[1],[65],[1.0833333333333333],"[640.0, 512.0]",horizontal,"(890.0, 262.0)",[1.5333333333333332],[0.607],1,892.441
4,False,210,0.488,29,[],[],"[(1093, 874)]",[],[1],[63],[1.05],"[640.0, 512.0]",vertical,"(890.0, 762.0)",[0.5],[0.538],1,896.548
4,False,211,1.387,83,[],[],"[(487, 934), (1131, 887)]",[],"[0, 1]",[121],[2.0166666666666666],"[640.0, 512.0]",horizontal,"(390.0, 262.0)",[1.2333333333333334],[0.608],1,899.573
4,False,212,0.557,33,[],[],"[(1108, 882)]",[],[1],[65],[1.0833333333333333],"[640.0, 512.0]",horizontal,"(890.0, 262.0)",[1.5333333333333332],[0.506],1,917.137
4,False,213,1.202,72,[],[],"[(1116, 885)]",[],[1],[105],[1.75],"[640.0, 512.0]",vertical,"(890.0, 762.0)",[0.6166666666666667],[0.527],1,921.229
4,False,214,1.483,88,[],[],"[(1093, 886)]",[],[1],[126],[2.1],"[640.0, 512.0]",vertical,"(890.0, 762.0)",[1.2666666666666666],[0.606],1,925.101
4,False,215,0.483,28,[],[],"[(1093, 879)]",[],[1],[68],[1.1333333333333333],"[640.0, 512.0]",vertical,"(390.0, 762.0)",[0.8166666666666667],[0.641],1,929.884
4,False,216,0.644,38,[],[],"[(1087, 890)]",[],[1],[88],[1.4666666666666666],"[640.0, 512.0]",vertical,"(390.0, 762.0)",[0.85],[0.802],0,933.32
4,False,217,1.008,60,[],[],"[(1118, 880)]",[],[1],[93],[1.55],"[640.0, 512.0]",vertical,"(890.0, 762.0)",[1.15],[0.522],1,937.205
4,False,218,0.946,56,[],[],"[(390, 810), (397, 843), (1145, 884)]",[],"[0, 0, 1]",[88],[1.4666666666666666],"[640.0, 512.0]",vertical,"(390.0, 762.0)",[1.2666666666666666],[0.512],1,941.401
4,False,219,0.823,49,[],[],"[(1095, 892)]",[],[1],[81],[1.35],"[640.0, 512.0]",vertical,"(390.0, 762.0)",[1.1166666666666667],[0.509],1,1083.622
4,False,220,1.397,83,[],[],"[(1076, 889)]",[],[1],[120],[2.0],"[640.0, 512.0]",vertical,"(890.0, 262.0)",[0.8],[0.589],1,1087.575
4,False,221,0.911,54,[],[],"[(1074, 897)]",[],[1],[86],[1.4333333333333333],"[640.0, 512.0]",horizontal,"(890.0, 762.0)",[1.2333333333333334],[0.514],1,1091.808
4,False,222,1.069,64,[],[],"[(1081, 884)]",[],[1],[98],[1.6333333333333333],"[640.0, 512.0]",vertical,"(390.0, 262.0)",[1.0],[0.541],1,1095.978
4,False,223,0.705,42,[],[],"[(1078, 888)]",[],[1],[75],[1.25],"[640.0, 512.0]",horizontal,"(390.0, 262.0)",[0.8333333333333334],[0.524],1,1100.539
4,False,224,0.352,21,[],[],"[(1086, 880)]",[],[1],[62],[1.0333333333333332],"[640.0, 512.0]",vertical,"(890.0, 262.0)",[0.8666666666666667],[0.659],1,1104.101
4,False,225,0.409,24,[],[],"[(1082, 898)]",[],[1],[53],[0.8833333333333333],"[640.0, 512.0]",vertical,"(390.0, 262.0)",[1.15],[0.462],1,1107.462
4,False,226,1.176,70,[],[],"[(1079, 880)]",[],[1],[106],[1.7666666666666666],"[640.0, 512.0]",vertical,"(390.0, 262.0)",[1.4333333333333333],[0.574],1,1111.004
4,False,227,0.796,47,[],[],"[(1095, 876)]",[],[1],[79],[1.3166666666666667],"[640.0, 512.0]",vertical,"(390.0, 762.0)",[1.1166666666666667],[0.507],1,1115.706
4,False,228,1.453,87,[],[],"[(1096, 888)]",[],[1],[120],[2.0],"[640.0, 512.0]",horizontal,"(390.0, 762.0)",[1.3],[0.53],1,1119.739
4,False,229,0.494,29,[],[],"[(1074, 877)]",[],[1],[59],[0.9833333333333333],"[640.0, 512.0]",vertical,"(890.0, 262.0)",[1.1833333333333333],[0.475],1,1124.517
4,False,230,1.339,80,[],[],"[(1093, 889)]",[],[1],[112],[1.8666666666666667],"[640.0, 512.0]",vertical,"(390.0, 262.0)",[0.8833333333333333],[0.507],1,1128.171
4,False,231,0.43,25,[],[],"[(1087, 864)]",[],[1],[59],[0.9833333333333333],"[640.0, 512.0]",vertical,"(890.0, 262.0)",[1.0333333333333332],[0.539],1,1132.382
4,False,232,1.006,60,[],[],"[(1091, 889)]",[],[1],[97],[1.6166666666666667],"[640.0, 512.0]",horizontal,"(890.0, 762.0)",[1.4833333333333334],[0.593],1,1135.918
4,False,233,0.605,36,[],[],"[(1125, 885)]",[],[1],[67],[1.1166666666666667],"[640.0, 512.0]",vertical,"(890.0, 262.0)",[1.5666666666666667],[0.489],1,1140.514
4,False,234,0.34,20,[],[],"[(1096, 881)]",[],[1],[51],[0.85],"[640.0, 512.0]",horizontal,"(890.0, 262.0)",[1.2166666666666666],[0.492],1,1144.635
4,False,235,1.409,84,[],[],"[(1117, 861)]",[],[1],[116],[1.9333333333333333],"[640.0, 512.0]",horizontal,"(390.0, 762.0)",[1.5666666666666667],[0.51],1,1148.157
4,False,236,1.301,78,[],[],"[(1080, 853)]",[],[1],[108],[1.8],"[640.0, 512.0]",vertical,"(890.0, 262.0)",[1.5333333333333332],[0.478],1,1153.069
4,False,237,1.249,74,[],[],"[(1087, 881)]",[],[1],[107],[1.7833333333333332],"[640.0, 512.0]",vertical,"(890.0, 762.0)",[1.25],[0.525],1,1157.823
4,False,238,0.637,38,[],[],"[(1108, 873)]",[],[1],[68],[1.1333333333333333],"[640.0, 512.0]",vertical,"(890.0, 262.0)",[1.6333333333333333],[0.475],1,1162.305
4,False,239,0.756,45,[],[],"[(1087, 875)]",[],[1],[78],[1.3],"[640.0, 512.0]",horizontal,"(890.0, 762.0)",[0.95],[0.519],1,1167.605
4,False,240,1.132,67,[],[],"[(1093, 880)]",[],[1],[97],[1.6166666666666667],"[640.0, 512.0]",horizontal,"(390.0, 262.0)",[1.5],[0.478],1,1171.29
5,False,241,1.142,68,[],[],"[(1110, 882)]",[],[1],[103],[1.7166666666666666],"[640.0, 512.0]",horizontal,"(890.0, 762.0)",[1.4166666666666667],[0.558],1,1175.851
5,False,242,1.204,72,[],[],"[(1095, 887)]",[],[1],[105],[1.75],"[640.0, 512.0]",vertical,"(390.0, 262.0)",[0.75],[0.519],1,1180.508
5,False,243,0.36,21,[],[],"[(1057, 898)]",[],[1],[53],[0.8833333333333333],"[640.0, 512.0]",vertical,"(390.0, 262.0)",[1.6333333333333333],[0.513],1,1184.493
5,False,244,1.326,79,[],[],"[(1095, 880)]",[],[1],[111],[1.8499999999999999],"[640.0, 512.0]",vertical,"(390.0, 262.0)",[1.05],[0.506],1,1188.548
5,False,245,1.307,78,[],[],"[(1085, 884)]",[],[1],[110],[1.8333333333333333],"[640.0, 512.0]",vertical,"(390.0, 262.0)",[0.7166666666666667],[0.515],1,1192.929
5,False,246,1.294,77,[],[],"[(1150, 880)]",[],[1],[116],[1.9333333333333333],"[640.0, 512.0]",horizontal,"(890.0, 762.0)",[0.9833333333333333],[0.624],1,1196.959
5,False,247,0.666,39,[],[],"[(1100, 880)]",[],[1],[70],[1.1666666666666667],"[640.0, 512.0]",horizontal,"(390.0, 262.0)",[1.5666666666666667],[0.499],1,1201.34
5,False,248,1.325,79,[],[],"[(1087, 889)]",[],[1],[111],[1.8499999999999999],"[640.0, 512.0]",vertical,"(390.0, 262.0)",[0.9166666666666666],[0.51],1,1205.555
5,False,249,1.165,69,[],[],"[(1090, 888)]",[],[1],[119],[1.9833333333333334],"[640.0, 512.0]",horizontal,"(890.0, 762.0)",[1.5333333333333332],[0.809],0,1209.812
5,False,250,0.507,30,[],[],"[(1129, 866)]",[],[1],[63],[1.05],"[640.0, 512.0]",vertical,"(890.0, 762.0)",[0.8833333333333333],[0.534],1,1214.788
5,False,251,1.111,66,[],[],"[(1091, 880)]",[],[1],[103],[1.7166666666666666],"[640.0, 512.0]",horizontal,"(890.0, 762.0)",[0.6666666666666666],[0.593],1,1218.234
5,False,252,0.711,42,[],[],"[(1098, 893)]",[],[1],[75],[1.25],"[640.0, 512.0]",vertical,"(390.0, 762.0)",[0.7666666666666666],[0.524],1,1222.122
5,False,253,1.114,66,[],[],"[(1083, 864)]",[],[1],[95],[1.5833333333333333],"[640.0, 512.0]",horizontal,"(390.0, 262.0)",[1.3],[0.465],1,1225.619
5,False,254,1.311,78,[],[],"[(1092, 889)]",[],[1],[111],[1.8499999999999999],"[640.0, 512.0]",vertical,"(390.0, 762.0)",[1.2666666666666666],[0.537],1,1229.981
5,False,255,1.159,69,[],[],"[(1083, 889)]",[],[1],[104],[1.7333333333333334],"[640.0, 512.0]",vertical,"(890.0, 262.0)",[0.8],[0.558],1,1234.633
5,False,256,0.807,48,[],[],"[(1090, 888)]",[],[1],[76],[1.2666666666666666],"[640.0, 512.0]",horizontal,"(390.0, 262.0)",[1.65],[0.445],1,1238.66
5,False,257,1.144,68,[],[],"[(1093, 874)]",[],[1],[99],[1.65],"[640.0, 512.0]",vertical,"(390.0, 262.0)",[1.6333333333333333],[0.494],1,1243.033
5,False,258,1.022,61,[],[],"[(1090, 866)]",[],[1],[93],[1.55],"[640.0, 512.0]",vertical,"(890.0, 262.0)",[1.15],[0.513],1,1247.818
5,False,259,1.093,65,[],[],"[(1063, 866)]",[],[1],[95],[1.5833333333333333],"[640.0, 512.0]",vertical,"(890.0, 262.0)",[1.4833333333333334],[0.479],1,1251.987
5,False,260,1.11,66,[],[],"[(1099, 889)]",[],[1],[98],[1.6333333333333333],"[640.0, 512.0]",horizontal,"(890.0, 262.0)",[1.2833333333333332],[0.511],1,1256.552
5,False,261,0.488,29,[],[],"[(1095, 869)]",[],[1],[73],[1.2166666666666666],"[640.0, 512.0]",horizontal,"(390.0, 262.0)",[0.5666666666666667],[0.716],1,1260.991
5,False,262,0.848,50,[],[],"[(1106, 889)]",[],[1],[94],[1.5666666666666667],"[640.0, 512.0]",horizontal,"(890.0, 262.0)",[0.5],[0.718],1,1264.233
5,False,263,0.737,44,[],[],"[(1109, 863)]",[],[1],[76],[1.2666666666666666],"[640.0, 512.0]",horizontal,"(890.0, 762.0)",[1.0],[0.517],1,1267.828
5,False,264,0.506,30,[],[],"[(1128, 877)]",[],[1],[59],[0.9833333333333333],"[640.0, 512.0]",vertical,"(390.0, 262.0)",[1.65],[0.467],1,1271.584
5,False,265,1.27,76,[],[],"[(1091, 889)]",[],[1],[105],[1.75],"[640.0, 512.0]",horizontal,"(890.0, 262.0)",[1.6333333333333333],[0.462],1,1275.685
5,False,266,0.746,44,[],[],"[(1093, 873)]",[],[1],[77],[1.2833333333333332],"[640.0, 512.0]",vertical,"(390.0, 762.0)",[1.5],[0.527],1,1280.585
5,False,267,1.477,88,[],[],"[(1093, 897)]",[],[1],[119],[1.9833333333333334],"[640.0, 512.0]",horizontal,"(390.0, 262.0)",[1.15],[0.499],1,1284.913
5,False,268,1.087,65,[],[],"[(1092, 885)]",[],[1],[99],[1.65],"[640.0, 512.0]",vertical,"(890.0, 762.0)",[1.3166666666666667],[0.544],1,1289.556
5,False,269,0.365,21,[],[],"[(1084, 878)]",[],[1],[53],[0.8833333333333333],"[640.0, 512.0]",vertical,"(890.0, 262.0)",[1.6],[0.508],1,1295.93
5,False,270,0.801,48,[],[],"[(1082, 893)]",[],[1],[80],[1.3333333333333333],"[640.0, 512.0]",vertical,"(390.0, 262.0)",[1.35],[0.524],1,1299.88
5,False,271,0.37,22,[],[],"[(1056, 893)]",[],[1],[56],[0.9333333333333333],"[640.0, 512.0]",horizontal,"(890.0, 262.0)",[1.5],[0.539],1,1304.106
5,False,272,0.635,38,[],[],"[(1083, 888)]",[],[1],[71],[1.1833333333333333],"[640.0, 512.0]",vertical,"(890.0, 262.0)",[0.9],[0.527],1,1308.066
5,False,273,0.679,40,[],[],"[(1085, 899)]",[],[1],[76],[1.2666666666666666],"[640.0, 512.0]",vertical,"(390.0, 762.0)",[0.5],[0.569],1,1311.622
5,False,274,0.581,34,[],[],"[(1079, 894)]",[],[1],[71],[1.1833333333333333],"[640.0, 512.0]",vertical,"(890.0, 762.0)",[1.2333333333333334],[0.598],1,1314.918
5,False,275,1.145,68,[],[],"[(1053, 894)]",[],[1],[97],[1.6166666666666667],"[640.0, 512.0]",vertical,"(890.0, 262.0)",[1.1666666666666667],[0.461],1,1318.82
5,False,276,1.267,76,[],[],"[(1038, 898)]",[],[1],[109],[1.8166666666666667],"[640.0, 512.0]",horizontal,"(390.0, 262.0)",[0.65],[0.529],1,1323.182
5,False,277,1.293,77,[],[],"[(1088, 881)]",[],[1],[127],[2.1166666666666667],"[640.0, 512.0]",vertical,"(390.0, 262.0)",[1.6],[0.802],0,1327.151
5,False,278,0.658,39,[],[],"[(1153, 866)]",[],[1],[72],[1.2],"[640.0, 512.0]",vertical,"(390.0, 762.0)",[1.0833333333333333],[0.525],1,1332.35
5,False,279,0.646,38,[],[],"[(1076, 884)]",[],[1],[74],[1.2333333333333334],"[640.0, 512.0]",horizontal,"(390.0, 262.0)",[1.5166666666666666],[0.577],1,1336.156
5,False,280,0.33,19,[],[],"[(1057, 867)]",[],[1],[51],[0.85],"[640.0, 512.0]",horizontal,"(890.0, 262.0)",[0.8666666666666667],[0.507],1,1340.422
5,False,281,0.533,31,[],[],"[(1089, 890)]",[],[1],[61],[1.0166666666666666],"[640.0, 512.0]",horizontal,"(390.0, 262.0)",[1.4833333333333334],[0.477],1,1343.67
5,False,282,1.321,79,[],[],"[(1089, 897)]",[],[1],[109],[1.8166666666666667],"[640.0, 512.0]",vertical,"(390.0, 262.0)",[0.85],[0.479],1,1347.655
5,False,283,0.421,25,[],[],"[(1059, 884)]",[],[1],[62],[1.0333333333333332],"[640.0, 512.0]",vertical,"(890.0, 262.0)",[1.55],[0.586],1,1351.808
5,False,284,1.257,75,[],[],"[(1059, 886)]",[],[1],[111],[1.8499999999999999],"[640.0, 512.0]",vertical,"(390.0, 762.0)",[0.9833333333333333],[0.573],1,1355.903
5,False,285,0.97,58,[],[],"[(1086, 875)]",[],[1],[87],[1.45],"[640.0, 512.0]",horizontal,"(390.0, 262.0)",[1.1333333333333333],[0.469],1,1360.241
5,False,286,1.462,87,[],[],"[(1080, 890)]",[],[1],[119],[1.9833333333333334],"[640.0, 512.0]",horizontal,"(890.0, 762.0)",[1.5166666666666666],[0.508],1,1364.394
5,False,287,1.483,88,[],[],"[(1085, 882)]",[],[1],[118],[1.9666666666666666],"[640.0, 512.0]",horizontal,"(390.0, 262.0)",[0.7166666666666667],[0.476],1,1369.372
5,False,288,0.932,55,[],[],"[(1081, 879)]",[],[1],[88],[1.4666666666666666],"[640.0, 512.0]",vertical,"(890.0, 762.0)",[0.8833333333333333],[0.521],1,1373.503
5,False,289,0.716,42,[],[],"[(1089, 884)]",[],[1],[76],[1.2666666666666666],"[640.0, 512.0]",horizontal,"(890.0, 762.0)",[0.65],[0.537],1,1377.352
5,False,290,0.818,49,[],[],"[(1098, 871)]",[],[1],"[99, 99]","[1.65, 1.65]","[640.0, 512.0]",horizontal,"(890.0, 762.0)",[1.6333333333333333],"[0.806, 0.806]",0,1380.773
5,False,291,0.627,37,[],[],"[(1119, 871)]",[],[1],[74],[1.2333333333333334],"[640.0, 512.0]",horizontal,"(890.0, 262.0)",[0.5666666666666667],[0.591],1,1385.6
5,False,292,0.559,33,[],[],"[(1088, 868)]",[],[1],[78],[1.3],"[640.0, 512.0]",horizontal,"(890.0, 762.0)",[1.4666666666666666],[0.725],1,1388.934
5,False,293,0.911,54,[],[],"[(1071, 859)]",[],[1],[73],[1.2166666666666666],"[640.0, 512.0]",vertical,"(890.0, 262.0)",[1.25],[0.295],1,1393.234
5,False,294,0.892,53,[],[],"[(1107, 885)]",[],[1],[84],[1.4],"[640.0, 512.0]",vertical,"(890.0, 262.0)",[1.2333333333333334],[0.492],1,1397.253
5,False,295,0.932,55,[],[],"[(1087, 884)]",[],[1],[82],[1.3666666666666667],"[640.0, 512.0]",vertical,"(890.0, 762.0)",[1.6],[0.43],1,1401.419
5,False,296,1.371,82,[],[],"[(1082, 888)]",[],[1],[108],[1.8],"[640.0, 512.0]",vertical,"(390.0, 262.0)",[1.4666666666666666],[0.41],1,1405.89
5,False,297,1.405,84,[],[],"[(1104, 863)]",[],[1],[114],[1.9],"[640.0, 512.0]",vertical,"(390.0, 762.0)",[1.15],[0.476],1,1410.686
5,False,298,0.315,18,[],[],"[(1092, 890)]",[],[1],[54],[0.9],"[640.0, 512.0]",vertical,"(890.0, 262.0)",[1.6666666666666667],[0.575],1,1415.248
5,False,299,0.986,59,[],[],"[(1076, 884)]",[],[1],[90],[1.5],"[640.0, 512.0]",horizontal,"(890.0, 762.0)",[1.35],[0.495],1,1419.362
5,False,300,0.954,57,[],[],"[(1086, 892)]",[],[1],[89],[1.4833333333333334],"[640.0, 512.0]",vertical,"(890.0, 762.0)",[1.0166666666666666],[0.511],1,1424.317
6,False,301,0.329,19,[],[],"[(1099, 884)]",[],[1],[53],[0.8833333333333333],"[640.0, 512.0]",vertical,"(390.0, 262.0)",[1.4166666666666667],[0.54],1,1428.327
6,False,302,1.164,69,[],[],"[(1091, 886)]",[],[1],[100],[1.6666666666666667],"[640.0, 512.0]",vertical,"(390.0, 262.0)",[0.8833333333333333],[0.497],1,1432.195
6,False,303,1.033,61,[],[],"[(1087, 888)]",[],[1],[93],[1.55],"[640.0, 512.0]",vertical,"(890.0, 262.0)",[0.5166666666666666],[0.515],1,1436.255
6,False,304,1.152,69,[],[],"[(1080, 894)]",[],[1],[101],[1.6833333333333333],"[640.0, 512.0]",vertical,"(390.0, 262.0)",[1.2833333333333332],[0.513],1,1439.823
6,False,305,0.507,30,[],[],"[(1114, 884)]",[],[1],[64],[1.0666666666666667],"[640.0, 512.0]",vertical,"(890.0, 762.0)",[1.3],[0.539],1,1444.3
6,False,306,1.431,85,[],[],"[(1089, 893)]",[],[1],[127],[2.1166666666666667],"[640.0, 512.0]",vertical,"(890.0, 262.0)",[1.1166666666666667],[0.671],1,1448.16
6,False,307,1.074,64,[],[],"[(1079, 884)]",[],[1],[98],[1.6333333333333333],"[640.0, 512.0]",horizontal,"(890.0, 762.0)",[0.6666666666666666],[0.543],1,1452.919
6,False,308,1.493,89,[],[],"[(1090, 885)]",[],[1],[134],[2.2333333333333334],"[640.0, 512.0]",horizontal,"(390.0, 262.0)",[0.6666666666666666],[0.721],1,1456.741
6,False,309,0.895,53,[],[],"[(1056, 887)]",[],[1],[85],[1.4166666666666667],"[640.0, 512.0]",vertical,"(390.0, 262.0)",[1.1666666666666667],[0.516],1,1461.2
6,False,310,1.045,62,[],[],"[(1099, 896)]",[],[1],[96],[1.6],"[640.0, 512.0]",horizontal,"(890.0, 762.0)",[0.6833333333333333],[0.542],1,1465.277
6,False,311,0.793,47,[],[],"[(1153, 885)]",[],[1],[79],[1.3166666666666667],"[640.0, 512.0]",vertical,"(390.0, 262.0)",[0.7666666666666666],[0.512],1,1469.077
6,False,312,1.14,68,[],[],"[(1091, 894)]",[],[1],[102],[1.7],"[640.0, 512.0]",horizontal,"(890.0, 762.0)",[1.1],[0.549],1,1473.566
6,False,313,0.627,37,[],[],"[(1102, 880)]",[],[1],[72],[1.2],"[640.0, 512.0]",vertical,"(890.0, 762.0)",[0.6833333333333333],[0.558],1,1477.9
6,False,314,1.309,78,[],[],"[(1098, 896)]",[],[1],[105],[1.75],"[640.0, 512.0]",vertical,"(390.0, 262.0)",[1.6333333333333333],[0.427],1,1481.27
6,False,315,0.893,53,[],[],"[(1087, 882)]",[],[1],[82],[1.3666666666666667],"[640.0, 512.0]",vertical,"(390.0, 262.0)",[0.7666666666666666],[0.459],1,1486.189
6,False,316,1.006,60,[],[],"[(1108, 892)]",[],[1],[97],[1.6166666666666667],"[640.0, 512.0]",horizontal,"(890.0, 762.0)",[1.5833333333333333],[0.597],1,1489.805
6,False,317,0.616,36,[],[],"[(1093, 870)]",[],[1],[71],[1.1833333333333333],"[640.0, 512.0]",horizontal,"(890.0, 762.0)",[0.6166666666666667],[0.556],1,1494.522
6,False,318,1.154,69,[],[],"[(1109, 899)]",[],[1],[99],[1.65],"[640.0, 512.0]",horizontal,"(890.0, 262.0)",[1.0333333333333332],[0.474],1,1497.806
6,False,319,1.183,70,[],[],"[(1074, 899)]",[],[1],[105],[1.75],"[640.0, 512.0]",vertical,"(890.0, 262.0)",[0.5833333333333334],[0.553],1,1502.039
6,False,320,0.487,29,[],[],"[(1080, 888)]",[],[1],[57],[0.95],"[640.0, 512.0]",vertical,"(390.0, 262.0)",[1.0333333333333332],[0.444],1,1505.908
6,False,321,1.438,86,[],[],"[(1091, 885)]",[],[1],[125],[2.0833333333333335],"[640.0, 512.0]",horizontal,"(390.0, 262.0)",[1.2833333333333332],[0.625],1,1509.407
6,False,322,1.274,76,[],[],"[(1093, 885)]",[],[1],[113],[1.8833333333333333],"[640.0, 512.0]",horizontal,"(390.0, 262.0)",[1.1166666666666667],[0.591],1,1514.241
6,False,323,0.502,30,[],[],"[(1060, 880)]",[],[1],[63],[1.05],"[640.0, 512.0]",horizontal,"(390.0, 762.0)",[1.0166666666666666],[0.522],1,1518.673
6,False,324,0.525,31,[],[],"[(1080, 889)]",[],[1],[66],[1.1],"[640.0, 512.0]",vertical,"(390.0, 262.0)",[1.2833333333333332],[0.551],1,1522.268
6,False,325,0.58,34,[],[],"[(1099, 888)]",[],[1],[69],[1.15],"[640.0, 512.0]",vertical,"(390.0, 762.0)",[1.2333333333333334],[0.557],1,1526.139
6,False,326,1.197,71,[],[],"[(1087, 894)]",[],[1],[104],[1.7333333333333334],"[640.0, 512.0]",horizontal,"(890.0, 262.0)",[0.8833333333333333],[0.526],1,1530.106
6,False,327,1.376,82,[],[],"[(1082, 885)]",[],[1],[118],[1.9666666666666666],"[640.0, 512.0]",horizontal,"(890.0, 262.0)",[0.85],[0.575],1,1534.273
6,False,328,0.542,32,[],[],"[(1079, 880)]",[],[1],[66],[1.1],"[640.0, 512.0]",horizontal,"(890.0, 762.0)",[0.7333333333333333],[0.548],1,1540.04
6,False,329,1.465,87,[],[],"[(1078, 896)]",[],[1],[121],[2.0166666666666666],"[640.0, 512.0]",vertical,"(390.0, 262.0)",[0.6],[0.539],1,1543.385
6,False,330,1.444,86,[],[],"[(1059, 864)]",[],[1],[],[],"[640.0, 512.0]",horizontal,"(390.0, 262.0)",[],[0],0,1547.502
6,False,331,1.465,87,[],[],"[(1082, 889)]",[],[1],[117],[1.95],"[640.0, 512.0]",horizontal,"(890.0, 262.0)",[1.3166666666666667],[0.476],1,1551.035
6,False,332,0.698,41,[],[],"[(1093, 894)]",[],[1],[78],[1.3],"[640.0, 512.0]",horizontal,"(390.0, 762.0)",[1.4333333333333333],[0.591],1,1556.058
6,False,333,0.491,29,[],[],"[(1087, 893)]",[],[1],[62],[1.0333333333333332],"[640.0, 512.0]",horizontal,"(890.0, 762.0)",[0.75],[0.524],1,1560.324
6,False,334,0.914,54,[],[],"[(1080, 885)]",[],[1],[],[],"[640.0, 512.0]",vertical,"(390.0, 262.0)",[],[0],0,1563.64
6,False,335,1.418,85,[],[],"[(1087, 886)]",[],[1],[117],[1.95],"[640.0, 512.0]",horizontal,"(390.0, 762.0)",[1.5166666666666666],[0.517],1,1566.874
6,False,336,0.787,47,[],[],"[(1096, 889)]",[],[1],[79],[1.3166666666666667],"[640.0, 512.0]",vertical,"(890.0, 262.0)",[1.15],[0.51],1,1572.663
6,False,337,1.318,79,[],[],"[(1096, 877)]",[],[1],[117],[1.95],"[640.0, 512.0]",vertical,"(390.0, 762.0)",[1.5666666666666667],[0.608],1,1576.636
6,False,338,1.06,63,[],[],"[(1087, 884)]",[],[1],[97],[1.6166666666666667],"[640.0, 512.0]",horizontal,"(890.0, 262.0)",[1.0],[0.543],1,1581.624
6,False,339,0.689,41,[],[],"[(1099, 862)]",[],[1],[73],[1.2166666666666666],"[640.0, 512.0]",horizontal,"(390.0, 762.0)",[1.25],[0.518],1,1585.704
6,False,340,0.938,56,[],[],"[(1083, 898)]",[],[1],[92],[1.5333333333333332],"[640.0, 512.0]",horizontal,"(390.0, 762.0)",[0.75],[0.574],1,1589.641
6,False,341,0.351,21,[],[],"[(1079, 880)]",[],[1],[53],[0.8833333333333333],"[640.0, 512.0]",vertical,"(890.0, 262.0)",[0.7666666666666666],[0.511],1,1593.44
6,False,342,0.762,45,[],[],"[(1081, 884)]",[],[1],[80],[1.3333333333333333],"[640.0, 512.0]",horizontal,"(390.0, 262.0)",[1.5833333333333333],[0.561],1,1596.659
6,False,343,0.771,46,[],[],"[(1099, 894)]",[],[1],[80],[1.3333333333333333],"[640.0, 512.0]",vertical,"(390.0, 762.0)",[1.3666666666666667],[0.547],1,1602.885
6,False,344,0.383,22,[],[],"[(1033, 893)]",[],[1],[66],[1.1],"[640.0, 512.0]",horizontal,"(890.0, 762.0)",[0.5],[0.708],1,1607.164
6,False,345,0.614,36,[],[],"[(1081, 893)]",[],[1],[71],[1.1833333333333333],"[640.0, 512.0]",vertical,"(390.0, 262.0)",[0.6666666666666666],[0.556],1,1610.307
6,False,346,1.07,64,[],[],"[(1070, 893)]",[],[1],[91],[1.5166666666666666],"[640.0, 512.0]",vertical,"(890.0, 262.0)",[1.6333333333333333],[0.428],1,1613.728
6,False,347,0.304,18,[],[],"[(1069, 895)]",[],[1],[50],[0.8333333333333334],"[640.0, 512.0]",horizontal,"(390.0, 262.0)",[1.5333333333333332],[0.505],1,1618.386
6,False,348,0.449,26,[],[],"[(1117, 884)]",[],[1],[60],[1.0],"[640.0, 512.0]",vertical,"(890.0, 262.0)",[1.0333333333333332],[0.543],1,1622.258
6,False,349,0.989,59,[],[],"[(1089, 880)]",[],[1],[90],[1.5],"[640.0, 512.0]",vertical,"(890.0, 262.0)",[0.85],[0.491],1,1626.657
6,False,350,1.476,88,[],[],"[(1080, 881)]",[],[1],[120],[2.0],"[640.0, 512.0]",horizontal,"(390.0, 262.0)",[0.7],[0.511],1,1630.558
6,False,351,0.798,47,[],[],"[(1080, 888)]",[],[1],[80],[1.3333333333333333],"[640.0, 512.0]",horizontal,"(390.0, 262.0)",[1.1666666666666667],[0.525],1,1635.605
6,False,352,0.797,47,[],[],"[(1074, 880)]",[],[1],[83],[1.3833333333333333],"[640.0, 512.0]",vertical,"(390.0, 262.0)",[0.8666666666666667],[0.573],1,1639.618
6,False,353,1.129,67,[],[],"[(1081, 879)]",[],[1],[106],[1.7666666666666666],"[640.0, 512.0]",horizontal,"(390.0, 762.0)",[1.2333333333333334],[0.623],1,1643.39
6,False,354,1.013,60,[],[],"[(1079, 880)]",[],[1],[93],[1.55],"[640.0, 512.0]",horizontal,"(890.0, 262.0)",[1.0166666666666666],[0.53],1,1647.942
6,False,355,1.467,88,[],[],"[(1047, 895)]",[],[1],[122],[2.033333333333333],"[640.0, 512.0]",vertical,"(390.0, 262.0)",[1.6166666666666667],[0.549],1,1652.137
6,False,356,1.159,69,[],[],"[(1086, 884)]",[],[1],[119],[1.9833333333333334],"[640.0, 512.0]",vertical,"(890.0, 262.0)",[1.1166666666666667],[0.795],0,1657.302
6,False,357,0.978,58,[],[],"[(1142, 837)]",[],[1],[91],[1.5166666666666666],"[640.0, 512.0]",vertical,"(890.0, 762.0)",[0.75],[0.529],1,1662.072
6,False,358,1.371,82,[],[],"[(1112, 879)]",[],[1],[115],[1.9166666666666667],"[640.0, 512.0]",horizontal,"(890.0, 762.0)",[0.9166666666666666],[0.531],1,1665.874
6,False,359,1.366,81,[],[],"[(1123, 879)]",[],[1],[114],[1.9],"[640.0, 512.0]",vertical,"(890.0, 762.0)",[1.65],[0.525],1,1670.192
6,False,360,0.536,32,[],[],"[(1099, 884)]",[],[1],[66],[1.1],"[640.0, 512.0]",horizontal,"(390.0, 762.0)",[1.6333333333333333],[0.543],1,1675.236
7,False,361,0.822,49,[],[],"[(1128, 880)]",[],[1],[82],[1.3666666666666667],"[640.0, 512.0]",horizontal,"(890.0, 762.0)",[0.7666666666666666],[0.528],1,1679.439
7,False,362,1.088,65,[],[],"[(1084, 889)]",[],[1],[103],[1.7166666666666666],"[640.0, 512.0]",vertical,"(390.0, 762.0)",[1.3333333333333333],[0.613],1,1683.105
7,False,363,1.346,80,[],[],"[(1053, 879)]",[],[1],[114],[1.9],"[640.0, 512.0]",horizontal,"(890.0, 262.0)",[0.6666666666666666],[0.545],1,1687.692
7,False,364,0.871,52,[],[],"[(1083, 886)]",[],[1],[84],[1.4],"[640.0, 512.0]",horizontal,"(890.0, 762.0)",[1.6333333333333333],[0.505],1,1691.772
7,False,365,1.198,71,[],[],"[(1084, 880)]",[],[1],[109],[1.8166666666666667],"[640.0, 512.0]",horizontal,"(390.0, 762.0)",[1.4333333333333333],[0.605],1,1696.293
7,False,366,0.535,32,[],[],"[(1096, 884)]",[],[1],[65],[1.0833333333333333],"[640.0, 512.0]",vertical,"(390.0, 262.0)",[1.1],[0.524],1,1701.034
7,False,367,0.77,46,[],[],"[(1053, 879)]",[],[1],[79],[1.3166666666666667],"[640.0, 512.0]",vertical,"(390.0, 262.0)",[1.3166666666666667],[0.529],1,1705.059
7,False,368,1.388,83,[],[],"[(1082, 896)]",[],[1],[113],[1.8833333333333333],"[640.0, 512.0]",vertical,"(390.0, 262.0)",[1.2666666666666666],[0.476],1,1709.504
7,False,369,0.496,29,[],[],"[(1080, 881)]",[],[1],[61],[1.0166666666666666],"[640.0, 512.0]",horizontal,"(390.0, 262.0)",[0.7833333333333333],[0.511],1,1714.234
7,False,370,0.977,58,[],[],"[(1073, 894)]",[],[1],[90],[1.5],"[640.0, 512.0]",vertical,"(390.0, 262.0)",[0.5166666666666666],[0.508],1,1717.491
7,False,371,1.463,87,[],[],"[(1073, 885)]",[],[1],[124],[2.0666666666666664],"[640.0, 512.0]",vertical,"(390.0, 262.0)",[0.7666666666666666],[0.591],1,1721.054
7,False,372,0.31,18,[],[],"[(1105, 881)]",[],[1],[57],[0.95],"[640.0, 512.0]",horizontal,"(390.0, 262.0)",[1.2666666666666666],[0.622],1,1725.441
7,False,373,1.068,64,[],[],"[(1080, 875)]",[],[1],[99],[1.65],"[640.0, 512.0]",vertical,"(890.0, 762.0)",[1.2666666666666666],[0.56],1,1729.151
7,False,374,0.945,56,[],[],"[(1078, 876)]",[],[1],[97],[1.6166666666666667],"[640.0, 512.0]",horizontal,"(890.0, 262.0)",[1.1166666666666667],[0.659],1,1733.573
7,False,375,0.601,36,[],[],"[(1080, 881)]",[],[1],[70],[1.1666666666666667],"[640.0, 512.0]",vertical,"(890.0, 262.0)",[0.9833333333333333],[0.534],1,1737.824
7,False,376,0.927,55,[],[],"[(1099, 892)]",[],[1],[88],[1.4666666666666666],"[640.0, 512.0]",horizontal,"(890.0, 262.0)",[1.3666666666666667],[0.529],1,1741.453
7,False,377,1.414,84,[],[],"[(1080, 880)]",[],[1],[114],[1.9],"[640.0, 512.0]",vertical,"(390.0, 262.0)",[1.3833333333333333],[0.476],1,1745.759
7,False,378,0.517,31,[],[],"[(1101, 879)]",[],[1],[70],[1.1666666666666667],"[640.0, 512.0]",vertical,"(890.0, 762.0)",[1.2333333333333334],[0.623],1,1750.524
7,False,379,0.34,20,[],[],"[(1093, 884)]",[],[1],[53],[0.8833333333333333],"[640.0, 512.0]",horizontal,"(890.0, 762.0)",[1.3],[0.524],1,1754.405
7,False,380,0.407,24,[],[],"[(1080, 884)]",[],[1],[67],[1.1166666666666667],"[640.0, 512.0]",vertical,"(390.0, 762.0)",[0.8666666666666667],[0.683],1,1758.051
7,False,381,0.877,52,[],[],"[(1085, 886)]",[],[1],[85],[1.4166666666666667],"[640.0, 512.0]",vertical,"(890.0, 262.0)",[1.45],[0.524],1,1761.524
7,False,382,0.639,38,[],[],"[(1080, 885)]",[],[1],[71],[1.1833333333333333],"[640.0, 512.0]",horizontal,"(390.0, 762.0)",[0.7833333333333333],[0.53],1,1765.91
7,False,383,0.71,42,[],[],"[(1085, 876)]",[],[1],[79],[1.3166666666666667],"[640.0, 512.0]",vertical,"(890.0, 762.0)",[0.65],[0.586],1,1769.438
7,False,384,0.776,46,[],[],"[(1081, 894)]",[],[1],[81],[1.35],"[640.0, 512.0]",vertical,"(890.0, 262.0)",[0.9666666666666667],[0.564],1,1773.008
7,False,385,1.203,72,[],[],"[(1080, 880)]",[],[1],[106],[1.7666666666666666],"[640.0, 512.0]",vertical,"(390.0, 262.0)",[1.2666666666666666],[0.541],1,1776.786
7,False,386,0.678,40,[],[],"[(1074, 880)]",[],[1],[74],[1.2333333333333334],"[640.0, 512.0]",horizontal,"(890.0, 762.0)",[1.1333333333333333],[0.537],1,1781.332
7,False,387,1.262,75,[],[],"[(1080, 883)]",[],[1],[111],[1.8499999999999999],"[640.0, 512.0]",vertical,"(390.0, 762.0)",[0.6833333333333333],[0.575],1,1785.307
7,False,388,0.61,36,[],[],"[(1098, 880)]",[],[1],[70],[1.1666666666666667],"[640.0, 512.0]",vertical,"(890.0, 262.0)",[1.15],[0.538],1,1789.327
7,False,389,1.095,65,[],[],"[(1125, 880)]",[],[1],[101],[1.6833333333333333],"[640.0, 512.0]",vertical,"(890.0, 762.0)",[0.9166666666666666],[0.57],1,1793.167
7,False,390,1.206,72,[],[],"[(1081, 884)]",[],[1],[107],[1.7833333333333332],"[640.0, 512.0]",horizontal,"(890.0, 762.0)",[1.55],[0.555],1,1797.387
7,False,391,0.898,53,[],[],"[(1076, 875)]",[],[1],[95],[1.5833333333333333],"[640.0, 512.0]",vertical,"(890.0, 262.0)",[1.0],[0.672],1,1802.202
7,False,392,0.515,30,[],[],"[(1055, 879)]",[],[1],[62],[1.0333333333333332],"[640.0, 512.0]",vertical,"(390.0, 262.0)",[1.4833333333333334],[0.51],1,1807.903
7,False,393,0.374,22,[],[],"[(1074, 880)]",[],[1],[64],[1.0666666666666667],"[640.0, 512.0]",vertical,"(390.0, 262.0)",[0.9166666666666666],[0.67],1,1811.954
7,False,394,0.92,55,[],[],"[(1101, 889)]",[],[1],[90],[1.5],"[640.0, 512.0]",vertical,"(890.0, 262.0)",[0.6666666666666666],[0.56],1,1815.49
7,False,395,0.623,37,[],[],"[(1083, 880)]",[],[1],[87],[1.45],"[640.0, 512.0]",horizontal,"(890.0, 262.0)",[1.1666666666666667],[0.802],0,1819.163
7,False,396,0.447,26,[],[],"[(244, 880), (1171, 909)]",[],"[0, 1]",[76],[1.2666666666666666],"[640.0, 512.0]",vertical,"(890.0, 262.0)",[0.95],[0.8],0,1823.309
7,False,397,0.745,44,[],[2080294],"[(526, 529), (452, 845), (1209, 886)]","[(1066, 902)]","[0, 0, 1]",[26],[0.43333333333333335],"[640.0, 512.0]",vertical,"(390.0, 762.0)",[],[0],0,1915.77
7,False,398,0.942,56,[],[],"[(1102, 899)]",[],[1],[106],[1.7666666666666666],"[640.0, 512.0]",vertical,"(390.0, 262.0)",[1.35],[0.802],0,1935.699
7,False,399,0.723,43,[],[],"[(1074, 898)]",[],[1],[75],[1.25],"[640.0, 512.0]",horizontal,"(390.0, 262.0)",[1.6],[0.514],1,1940.807
7,False,400,0.888,53,[],[],"[(1148, 859)]",[],[1],[84],[1.4],"[640.0, 512.0]",vertical,"(390.0, 262.0)",[1.4666666666666666],[0.489],1,1945.243
7,False,401,1.378,82,[],[],"[(1121, 868)]",[],[1],[115],[1.9166666666666667],"[640.0, 512.0]",vertical,"(390.0, 762.0)",[1.5333333333333332],[0.52],1,1949.623
7,False,402,1.03,61,[],[],"[(1075, 879)]",[],[1],[95],[1.5833333333333333],"[640.0, 512.0]",vertical,"(890.0, 262.0)",[1.5166666666666666],[0.54],1,1954.573
7,False,403,0.995,59,[],[],"[(1039, 883)]",[],[1],[109],[1.8166666666666667],"[640.0, 512.0]",horizontal,"(890.0, 262.0)",[1.05],[0.808],0,1959.171
7,False,404,1.294,77,[],[],"[(1112, 891)]",[],[1],[111],[1.8499999999999999],"[640.0, 512.0]",horizontal,"(890.0, 762.0)",[1.0833333333333333],[0.54],1,1963.537
7,False,405,0.743,44,[],[],"[(1111, 894)]",[],[1],[83],[1.3833333333333333],"[640.0, 512.0]",horizontal,"(390.0, 762.0)",[0.6333333333333333],[0.621],1,1968.96
7,False,406,0.407,24,[],[],"[(1118, 895)]",[],[1],[62],[1.0333333333333332],"[640.0, 512.0]",horizontal,"(390.0, 262.0)",[1.1166666666666667],[0.609],1,1972.47
7,False,407,0.519,31,[],[],"[(1111, 888)]",[],[1],[64],[1.0666666666666667],"[640.0, 512.0]",horizontal,"(390.0, 762.0)",[1.25],[0.524],1,1976.109
7,False,408,0.67,40,[],[],"[(1105, 869)]",[],[1],[70],[1.1666666666666667],"[640.0, 512.0]",vertical,"(390.0, 262.0)",[1.4333333333333333],[0.478],1,1979.942
7,False,409,0.925,55,[],[],"[(1113, 879)]",[],[1],[105],[1.75],"[640.0, 512.0]",vertical,"(390.0, 262.0)",[1.4],[0.804],0,1984.087
7,False,410,1.394,83,[],[],"[(1128, 860)]",[],[1],[116],[1.9333333333333333],"[640.0, 512.0]",horizontal,"(890.0, 262.0)",[1.3],[0.521],1,1988.71
7,False,411,0.311,18,[],[],"[(1117, 878)]",[],[1],[51],[0.85],"[640.0, 512.0]",horizontal,"(890.0, 262.0)",[0.95],[0.522],1,2003.058
7,False,412,0.791,47,[],[],"[(1105, 884)]",[],[1],[89],[1.4833333333333334],"[640.0, 512.0]",horizontal,"(390.0, 262.0)",[1.0333333333333332],[0.673],1,2006.357
7,False,413,1.037,62,[],[],"[(1118, 877)]",[],[1],[90],[1.5],"[640.0, 512.0]",horizontal,"(890.0, 262.0)",[0.9666666666666667],[0.444],1,2010.354
7,False,414,1.324,79,[],[],"[(1099, 872)]",[],[1],[112],[1.8666666666666667],"[640.0, 512.0]",horizontal,"(390.0, 262.0)",[1.55],[0.522],1,2014.281
7,False,415,0.861,51,[],[],"[(1096, 884)]",[],[1],[101],[1.6833333333333333],"[640.0, 512.0]",horizontal,"(390.0, 262.0)",[1.2166666666666666],[0.813],0,2019.169
7,False,416,0.392,23,[],[],"[(1120, 901)]",[],[1],[58],[0.9666666666666667],"[640.0, 512.0]",vertical,"(390.0, 262.0)",[0.95],[0.561],1,2023.554
7,False,417,1.234,74,[],[],"[(1071, 880)]",[],[1],[124],[2.0666666666666664],"[640.0, 512.0]",vertical,"(890.0, 762.0)",[0.8166666666666667],[0.809],0,2032.731
7,False,418,1.117,67,[],[],"[(1070, 886)]",[],[1],[101],[1.6833333333333333],"[640.0, 512.0]",vertical,"(890.0, 762.0)",[0.8],[0.538],1,2037.146
7,False,419,1.044,62,[],[],"[(1117, 881)]",[],[1],[110],[1.8333333333333333],"[640.0, 512.0]",horizontal,"(390.0, 262.0)",[0.9333333333333333],[0.773],1,2042.166
7,False,420,0.635,38,[],[],"[(1087, 866)]",[],[1],[70],[1.1666666666666667],"[640.0, 512.0]",vertical,"(890.0, 262.0)",[1.5166666666666666],[0.508],1,2046.467
8,False,421,0.694,41,[],[],"[(1111, 889)]",[],[1],[83],[1.3833333333333333],"[640.0, 512.0]",horizontal,"(390.0, 762.0)",[1.2833333333333332],[0.669],1,2050.655
8,False,422,0.855,51,[],[],"[(1093, 886)]",[],[1],[101],[1.6833333333333333],"[640.0, 512.0]",vertical,"(890.0, 762.0)",[0.7333333333333333],[0.804],0,2054.807
8,False,423,0.509,30,[],[],"[(1088, 878)]",[],[1],[71],[1.1833333333333333],"[640.0, 512.0]",vertical,"(390.0, 262.0)",[0.7333333333333333],[0.657],1,2058.766
8,False,424,1.19,71,[],[],"[(1120, 889)]",[],[1],[121],[2.0166666666666666],"[640.0, 512.0]",vertical,"(390.0, 262.0)",[0.95],[0.804],0,2064.102
8,False,425,0.586,35,[],[],"[(1093, 884)]",[],[1],[67],[1.1166666666666667],"[640.0, 512.0]",horizontal,"(390.0, 262.0)",[1.4166666666666667],[0.507],1,2068.583
8,False,426,1.093,65,[],[],"[(1023, 889), (1148, 866)]",[],"[0, 1]",[97],[1.6166666666666667],"[640.0, 512.0]",horizontal,"(390.0, 762.0)",[1.35],[0.509],1,2072.852
8,False,427,1.39,83,[],[],"[(1129, 888)]",[],[1],[119],[1.9833333333333334],"[640.0, 512.0]",vertical,"(390.0, 762.0)",[1.2166666666666666],[0.574],1,2078.304
8,False,428,0.643,38,[],[],"[(1066, 885)]",[],[1],[88],[1.4666666666666666],"[640.0, 512.0]",vertical,"(390.0, 762.0)",[0.7166666666666667],[0.804],0,2083.038
8,False,429,0.633,37,[],[],"[(1117, 855)]",[],[1],[67],[1.1166666666666667],"[640.0, 512.0]",horizontal,"(390.0, 262.0)",[1.45],[0.478],1,2086.711
8,False,430,0.974,58,[],[],"[(1096, 884)]",[],[1],[102],[1.7],"[640.0, 512.0]",vertical,"(390.0, 262.0)",[0.5],[0.701],1,2090.855
8,False,431,0.567,34,[],[],"[(1080, 889)]",[],[1],[67],[1.1166666666666667],"[640.0, 512.0]",vertical,"(390.0, 262.0)",[1.65],[0.522],1,2094.566
8,False,432,0.597,35,[],[],"[(1076, 880)]",[],[1],[68],[1.1333333333333333],"[640.0, 512.0]",horizontal,"(890.0, 762.0)",[0.9333333333333333],[0.529],1,2098.939
8,False,433,0.805,48,[],[],"[(1122, 884)]",[],[1],[98],[1.6333333333333333],"[640.0, 512.0]",horizontal,"(890.0, 262.0)",[1.0833333333333333],[0.808],0,2102.509
8,False,434,0.44,26,[],[],"[(1084, 868)]",[],[1],[59],[0.9833333333333333],"[640.0, 512.0]",vertical,"(890.0, 762.0)",[1.35],[0.528],1,2106.727
8,False,435,0.394,23,[],[],"[(1097, 873)]",[],[1],[54],[0.9],"[640.0, 512.0]",vertical,"(890.0, 762.0)",[1.6666666666666667],[0.491],1,2113.673
8,False,436,0.429,25,[],[],"[(1080, 880)]",[],[1],[59],[0.9833333333333333],"[640.0, 512.0]",horizontal,"(890.0, 762.0)",[1.3333333333333333],[0.54],1,2117.819
8,False,437,1.486,89,[],[],"[(1075, 908)]",[],[1],[123],[2.05],"[640.0, 512.0]",horizontal,"(890.0, 762.0)",[0.9833333333333333],[0.541],1,2122.409
8,False,438,0.701,42,[],[],"[(1087, 899)]",[],[1],[76],[1.2666666666666666],"[640.0, 512.0]",vertical,"(890.0, 762.0)",[1.55],[0.542],1,2126.924
8,False,439,1.356,81,[],[],"[(1105, 889)]",[],[1],[131],[2.183333333333333],"[640.0, 512.0]",vertical,"(890.0, 762.0)",[0.7833333333333333],[0.813],0,2131.191
8,False,440,0.867,52,[],[],"[(1087, 883)]",[],[1],[92],[1.5333333333333332],"[640.0, 512.0]",horizontal,"(390.0, 762.0)",[0.7333333333333333],[0.639],1,2135.671
8,False,441,1.21,72,[],[],"[(1123, 889)]",[],[1],[122],[2.033333333333333],"[640.0, 512.0]",horizontal,"(390.0, 762.0)",[0.5166666666666666],[0.82],0,2139.871
8,False,442,0.661,39,[],[],"[(1061, 880)]",[],[1],[72],[1.2],"[640.0, 512.0]",horizontal,"(390.0, 762.0)",[1.1166666666666667],[0.526],1,2143.913
8,False,443,0.438,26,[],[],"[(1104, 885)]",[],[1],[60],[1.0],"[640.0, 512.0]",vertical,"(890.0, 262.0)",[1.2666666666666666],[0.546],1,2148.861
8,False,444,1.418,85,[],[],"[(1073, 888)]",[],[1],[119],[1.9833333333333334],"[640.0, 512.0]",horizontal,"(890.0, 762.0)",[0.7666666666666666],[0.548],1,2152.626
8,False,445,1.264,75,[],[],"[(1079, 885)]",[],[1],[125],[2.0833333333333335],"[640.0, 512.0]",horizontal,"(390.0, 262.0)",[1.6],[0.811],0,2156.881
8,False,446,1.345,80,[],[],"[(1047, 871)]",[],[1],[112],[1.8666666666666667],"[640.0, 512.0]",vertical,"(890.0, 762.0)",[1.0833333333333333],[0.513],1,2162.088
8,False,447,0.766,45,[],[],"[(1093, 889)]",[],[1],[87],[1.45],"[640.0, 512.0]",vertical,"(890.0, 762.0)",[0.6166666666666667],[0.676],1,2166.544
8,False,448,1.009,60,[],[],"[(1118, 887)]",[],[1],[89],[1.4833333333333334],"[640.0, 512.0]",vertical,"(390.0, 262.0)",[1.6666666666666667],[0.462],1,2170.178
8,False,449,0.319,19,[],[],"[(1043, 880)]",[],[1],[62],[1.0333333333333332],"[640.0, 512.0]",horizontal,"(890.0, 762.0)",[0.9333333333333333],[0.685],1,2174.871
8,False,450,1.145,68,[],[],"[(1087, 887)]",[],[1],[111],[1.8499999999999999],"[640.0, 512.0]",horizontal,"(890.0, 762.0)",[1.1666666666666667],[0.692],1,2178.477
8,False,451,0.401,24,[],[],"[(1135, 873)]",[],[1],[74],[1.2333333333333334],"[640.0, 512.0]",horizontal,"(390.0, 762.0)",[1.0833333333333333],[0.807],0,2182.991
8,False,452,0.308,18,[],[],"[(1087, 878)]",[],[1],[58],[0.9666666666666667],"[640.0, 512.0]",vertical,"(890.0, 262.0)",[0.55],[0.639],1,2187.939
8,False,453,1.039,62,[],[],"[(1087, 876)]",[],[1],[94],[1.5666666666666667],"[640.0, 512.0]",vertical,"(390.0, 762.0)",[1.4833333333333334],[0.503],1,2202.321
8,False,454,0.653,39,[],[],"[(1114, 895)]",[],[1],[89],[1.4833333333333334],"[640.0, 512.0]",vertical,"(890.0, 262.0)",[0.6833333333333333],[0.811],0,2206.971
8,False,455,0.929,55,[],[],"[(1080, 889)]",[],[1],[105],[1.75],"[640.0, 512.0]",vertical,"(890.0, 262.0)",[1.1166666666666667],[0.803],0,2210.64
8,False,456,0.643,38,[],[],"[(1117, 875)]",[],[1],[70],[1.1666666666666667],"[640.0, 512.0]",vertical,"(390.0, 762.0)",[1.5333333333333332],[0.512],1,2215.328
8,False,457,1.326,79,[],[],"[(1093, 869)]",[],[1],[112],[1.8666666666666667],"[640.0, 512.0]",horizontal,"(390.0, 262.0)",[0.7166666666666667],[0.528],1,2219.588
8,False,458,0.632,37,[],[],"[(1107, 880)]",[],[1],[70],[1.1666666666666667],"[640.0, 512.0]",horizontal,"(890.0, 762.0)",[1.2666666666666666],[0.526],1,2223.944
8,False,459,0.376,22,[],[],"[(1107, 886)]",[],[1],[51],[0.85],"[640.0, 512.0]",horizontal,"(390.0, 262.0)",[1.4666666666666666],[0.463],1,2228.027
8,False,460,0.57,34,[],[],"[(1056, 885)]",[],[1],[84],[1.4],"[640.0, 512.0]",horizontal,"(890.0, 262.0)",[0.9166666666666666],[0.803],0,2231.862
8,False,461,1.336,80,[],[],"[(126, 794), (271, 712), (1104, 899)]",[],"[0, 0, 1]",[115],[1.9166666666666667],"[640.0, 512.0]",horizontal,"(890.0, 262.0)",[0.9166666666666666],[0.555],1,2235.702
8,False,462,1.325,79,[],[],"[(1093, 894)]",[],[1],[117],[1.95],"[640.0, 512.0]",vertical,"(390.0, 762.0)",[0.8],[0.607],1,2354.241
8,False,463,1.313,78,[],[],"[(1078, 886)]",[],[1],[112],[1.8666666666666667],"[640.0, 512.0]",vertical,"(890.0, 262.0)",[0.8833333333333333],[0.543],1,2358.526
8,False,464,0.765,45,[],[],"[(1123, 889)]",[],[1],[76],[1.2666666666666666],"[640.0, 512.0]",horizontal,"(390.0, 262.0)",[0.6666666666666666],[0.489],1,2362.774
8,False,465,0.428,25,[],[],"[(1076, 877)]",[],[1],[75],[1.25],"[640.0, 512.0]",vertical,"(890.0, 762.0)",[1.1],[0.801],0,2366.26
8,False,466,0.721,43,[],[],"[(1142, 877)]",[],[1],[93],[1.55],"[640.0, 512.0]",horizontal,"(390.0, 262.0)",[0.7833333333333333],[0.805],0,2370.091
8,False,467,1.153,69,[],[],"[(1091, 866)]",[],[1],[119],[1.9833333333333334],"[640.0, 512.0]",vertical,"(390.0, 262.0)",[0.6166666666666667],[0.806],0,2374.652
8,False,468,0.637,38,[],[],"[(1168, 860)]",[],[1],[71],[1.1833333333333333],"[640.0, 512.0]",vertical,"(890.0, 262.0)",[0.65],[0.531],1,2379.753
8,False,469,0.443,26,[],[],"[(1090, 880)]",[],[1],[56],[0.9333333333333333],"[640.0, 512.0]",vertical,"(390.0, 762.0)",[1.0833333333333333],[0.478],1,2383.176
8,False,470,1.232,73,[],[],"[(1083, 861)]",[],[1],[113],[1.8833333333333333],"[640.0, 512.0]",horizontal,"(390.0, 762.0)",[0.65],[0.64],1,2386.679
8,False,471,0.888,53,[],[],"[(1123, 898)]",[],[1],[83],[1.3833333333333333],"[640.0, 512.0]",vertical,"(390.0, 262.0)",[0.6],[0.475],1,2390.737
8,False,472,0.375,22,[],[],"[(1087, 871)]",[],[1],[55],[0.9166666666666666],"[640.0, 512.0]",vertical,"(390.0, 762.0)",[1.2833333333333332],[0.522],1,2394.183
8,False,473,1.073,64,[],[],"[(1091, 873)]",[],[1],[96],[1.6],"[640.0, 512.0]",vertical,"(390.0, 262.0)",[1.0],[0.512],1,2397.885
8,False,474,0.652,39,[],[],"[(1093, 871)]",[],[1],[81],[1.35],"[640.0, 512.0]",horizontal,"(890.0, 262.0)",[1.5833333333333333],[0.671],1,2401.991
8,False,475,0.379,22,[],[],"[(1115, 894)]",[],[1],[53],[0.8833333333333333],"[640.0, 512.0]",vertical,"(390.0, 262.0)",[1.5833333333333333],[0.498],1,2406.43
8,False,476,1.15,69,[],[],"[(1119, 863)]",[],[1],[104],[1.7333333333333334],"[640.0, 512.0]",horizontal,"(390.0, 762.0)",[0.7],[0.563],1,2410.453
8,False,477,1.422,85,[],[],"[(1111, 875)]",[],[1],[135],[2.25],"[640.0, 512.0]",horizontal,"(890.0, 262.0)",[1.35],[0.81],0,2414.369
8,False,478,1.183,70,[],[],"[(1160, 869)]",[],[1],[106],[1.7666666666666666],"[640.0, 512.0]",horizontal,"(390.0, 762.0)",[1.4833333333333334],[0.574],1,2419.462
8,False,479,1.452,87,[],[],"[(1129, 880)]",[],[1],[120],[2.0],"[640.0, 512.0]",horizontal,"(390.0, 762.0)",[0.7166666666666667],[0.53],1,2425.734
8,False,480,0.531,31,[],[],"[(1118, 872)]",[],[1],[63],[1.05],"[640.0, 512.0]",vertical,"(890.0, 762.0)",[1.2],[0.511],1,2429.923
9,False,481,0.922,55,[],[],"[(1136, 876)]",[],[1],[105],[1.75],"[640.0, 512.0]",horizontal,"(890.0, 262.0)",[1.1833333333333333],[0.801],0,2433.661
9,False,482,0.735,44,[],[],"[(1129, 875)]",[],[1],[81],[1.35],"[640.0, 512.0]",vertical,"(890.0, 762.0)",[1.0833333333333333],[0.596],1,2438.143
9,False,483,0.407,24,[],[],"[(1113, 868)]",[],[1],[57],[0.95],"[640.0, 512.0]",horizontal,"(390.0, 762.0)",[1.15],[0.525],1,2442.189
9,False,484,0.474,28,[],[],"[(1146, 881)]",[],[1],[78],[1.3],"[640.0, 512.0]",vertical,"(390.0, 262.0)",[0.6666666666666666],[0.803],0,2445.775
9,False,485,0.813,48,[],[],"[(1095, 905)]",[],[1],[88],[1.4666666666666666],"[640.0, 512.0]",horizontal,"(890.0, 762.0)",[1.3333333333333333],[0.644],1,2449.211
9,False,486,0.87,52,[],[],"[(1111, 897)]",[],[1],[86],[1.4333333333333333],"[640.0, 512.0]",vertical,"(890.0, 762.0)",[0.9333333333333333],[0.542],1,2459.833
9,False,487,1.306,78,[],[],"[(1118, 882)]",[],[1],[128],[2.1333333333333333],"[640.0, 512.0]",horizontal,"(390.0, 762.0)",[0.8833333333333333],[0.803],0,2463.71
9,False,488,0.462,27,[],[],"[(1173, 874)]",[],[1],[61],[1.0166666666666666],"[640.0, 512.0]",horizontal,"(390.0, 762.0)",[0.5666666666666667],[0.547],1,2468.226
9,False,489,0.839,50,[],[],"[(1082, 894)]",[],[1],[81],[1.35],"[640.0, 512.0]",vertical,"(890.0, 262.0)",[1.0666666666666667],[0.492],1,2471.339
9,False,490,0.746,44,[],[],"[(1109, 891)]",[],[1],[],[],"[640.0, 512.0]",vertical,"(390.0, 262.0)",[],[0],0,2475.306
9,False,491,0.49,29,[],[],"[(1081, 880)]",[],[1],[61],[1.0166666666666666],"[640.0, 512.0]",vertical,"(390.0, 262.0)",[1.4333333333333333],[0.512],1,2478.859
9,False,492,1.121,67,[],[],"[(1074, 896)]",[],[1],[104],[1.7333333333333334],"[640.0, 512.0]",vertical,"(890.0, 262.0)",[0.9],[0.593],1,2484.226
9,False,493,0.813,48,[],[],"[(1111, 894)]",[],[1],[98],[1.6333333333333333],"[640.0, 512.0]",vertical,"(890.0, 762.0)",[1.4333333333333333],[0.805],0,2488.577
9,False,494,1.098,65,[],[],"[(1111, 889)]",[],[1],[100],[1.6666666666666667],"[640.0, 512.0]",vertical,"(390.0, 262.0)",[0.9666666666666667],[0.557],1,2493.21
9,False,495,0.546,32,[],[],"[(1107, 880)]",[],[1],[65],[1.0833333333333333],"[640.0, 512.0]",horizontal,"(890.0, 762.0)",[1.3833333333333333],[0.529],1,2497.725
9,False,496,0.711,42,[],[],"[(1160, 863)]",[],[1],[71],[1.1833333333333333],"[640.0, 512.0]",vertical,"(390.0, 262.0)",[1.3833333333333333],[0.466],1,2501.695
9,False,497,0.485,29,[],[],"[(1113, 875)]",[],[1],[61],[1.0166666666666666],"[640.0, 512.0]",horizontal,"(890.0, 262.0)",[0.75],[0.509],1,2505.728
9,False,498,1.282,76,[],[],"[(1105, 880)]",[],[1],[108],[1.8],"[640.0, 512.0]",vertical,"(890.0, 262.0)",[1.1333333333333333],[0.506],1,2509.045
9,False,499,0.669,40,[],[],"[(1117, 880)]",[],[1],[49],[0.8166666666666667],"[640.0, 512.0]",vertical,"(390.0, 262.0)",[1.4333333333333333],[0.133],1,2513.457
9,False,500,1.036,62,[],[],"[(1090, 873)]",[],[1],[94],[1.5666666666666667],"[640.0, 512.0]",horizontal,"(890.0, 762.0)",[0.95],[0.515],1,2517.217
9,False,501,0.614,36,[],[],"[(1117, 878)]",[],[1],[67],[1.1166666666666667],"[640.0, 512.0]",horizontal,"(390.0, 262.0)",[1.4166666666666667],[0.493],1,2522.283
9,False,502,0.726,43,[],[],"[(1103, 884)]",[],[1],[93],[1.55],"[640.0, 512.0]",horizontal,"(390.0, 762.0)",[1.1333333333333333],[0.8],0,2526.315
9,False,503,0.425,25,[],[],"[(1104, 859)]",[],[1],[58],[0.9666666666666667],"[640.0, 512.0]",horizontal,"(890.0, 762.0)",[1.05],[0.527],1,2530.47
9,False,504,1.406,84,[],[],"[(1102, 859)]",[],[1],[115],[1.9166666666666667],"[640.0, 512.0]",vertical,"(890.0, 262.0)",[1.2],[0.498],1,2534.429
9,False,505,1.09,65,[],[],"[(1111, 874)]",[],[1],[104],[1.7333333333333334],"[640.0, 512.0]",horizontal,"(890.0, 762.0)",[1.4666666666666666],[0.619],1,2539.012
9,False,506,0.719,43,[],[],"[(1123, 884)]",[],[1],[93],[1.55],"[640.0, 512.0]",horizontal,"(390.0, 262.0)",[1.6166666666666667],[0.804],0,2543.712
9,False,507,1.202,72,[],[],"[(1117, 890)]",[],[1],[97],[1.6166666666666667],"[640.0, 512.0]",horizontal,"(390.0, 262.0)",[0.9333333333333333],[0.394],1,2548.362
9,False,508,0.784,47,[],[],"[(1111, 871)]",[],[1],[84],[1.4],"[640.0, 512.0]",horizontal,"(390.0, 762.0)",[1.1166666666666667],[0.595],1,2552.878
9,False,509,0.831,49,[],[],"[(1119, 880)]",[],[1],[99],[1.65],"[640.0, 512.0]",vertical,"(390.0, 262.0)",[0.7166666666666667],[0.808],0,2556.91
9,False,510,0.655,39,[],[],"[(1120, 885)]",[],[1],[73],[1.2166666666666666],"[640.0, 512.0]",vertical,"(890.0, 262.0)",[0.7166666666666667],[0.538],1,2560.845
9,False,511,0.952,57,[],[],"[(1085, 889)]",[],[1],[107],[1.7833333333333332],"[640.0, 512.0]",vertical,"(890.0, 762.0)",[1.2333333333333334],[0.807],0,2565.082
9,False,512,0.996,59,[],[],"[(1123, 892)]",[],[1],[93],[1.55],"[640.0, 512.0]",horizontal,"(390.0, 762.0)",[1.65],[0.538],1,2569.642
9,False,513,1.243,74,[],[],"[(1140, 870)]",[],[1],[124],[2.0666666666666664],"[640.0, 512.0]",horizontal,"(390.0, 762.0)",[1.5166666666666666],[0.802],0,2574.348
9,False,514,1.176,70,[],[],"[(1123, 866)]",[],[1],[104],[1.7333333333333334],"[640.0, 512.0]",horizontal,"(890.0, 762.0)",[0.5333333333333333],[0.544],1,2579.846
9,False,515,1.221,73,[],[],"[(1114, 884)]",[],[1],[106],[1.7666666666666666],"[640.0, 512.0]",vertical,"(390.0, 262.0)",[1.4833333333333334],[0.532],1,2583.717
9,False,516,1.357,81,[],[],"[(1115, 889)]",[],[1],[114],[1.9],"[640.0, 512.0]",vertical,"(890.0, 762.0)",[0.5666666666666667],[0.528],1,2588.473
9,False,517,0.501,30,[],[],"[(1114, 861)]",[],[1],[64],[1.0666666666666667],"[640.0, 512.0]",vertical,"(390.0, 762.0)",[0.5],[0.535],1,2592.419
9,False,518,0.677,40,[],[],"[(1111, 892)]",[],[1],[77],[1.2833333333333332],"[640.0, 512.0]",vertical,"(890.0, 262.0)",[1.1],[0.589],1,2595.973
9,False,519,1.39,83,[],[],"[(1117, 890)]",[],[1],[114],[1.9],"[640.0, 512.0]",horizontal,"(390.0, 762.0)",[1.65],[0.497],1,2599.889
9,False,520,1.402,84,[],[],"[(1120, 863)]",[],[1],[119],[1.9833333333333334],"[640.0, 512.0]",horizontal,"(390.0, 762.0)",[0.5],[0.564],1,2604.951
9,False,521,0.561,33,[],[],"[(1115, 885)]",[],[1],[63],[1.05],"[640.0, 512.0]",horizontal,"(890.0, 262.0)",[1.5666666666666667],[0.472],1,2608.908
9,False,522,0.911,54,[],[],"[(1115, 888)]",[],[1],[88],[1.4666666666666666],"[640.0, 512.0]",horizontal,"(890.0, 262.0)",[1.4],[0.539],1,2613.026
9,False,523,1.466,87,[],[],"[(1079, 882)]",[],[1],[123],[2.05],"[640.0, 512.0]",vertical,"(390.0, 762.0)",[0.8166666666666667],[0.57],1,2617.425
9,False,524,0.558,33,[],[],"[(1080, 877)]",[],[1],[62],[1.0333333333333332],"[640.0, 512.0]",vertical,"(390.0, 262.0)",[1.3166666666666667],[0.46],1,2621.791
9,False,525,0.751,45,[],[],"[(1087, 888)]",[],[1],[88],[1.4666666666666666],"[640.0, 512.0]",vertical,"(890.0, 262.0)",[0.9833333333333333],[0.686],1,2625.621
9,False,526,0.429,25,[],[],"[(1115, 876)]",[],[1],[75],[1.25],"[640.0, 512.0]",vertical,"(390.0, 262.0)",[1.15],[0.803],0,2629.548
9,False,527,0.876,52,[],[],"[(1087, 875)]",[],[1],[102],[1.7],"[640.0, 512.0]",horizontal,"(390.0, 762.0)",[1.0166666666666666],[0.797],0,2633.437
9,False,528,1.013,60,[],[],"[(1104, 875)]",[],[1],[93],[1.55],"[640.0, 512.0]",vertical,"(890.0, 262.0)",[1.2166666666666666],[0.531],1,2637.851
9,False,529,1.323,79,[],[],"[(1087, 889)]",[],[1],[94],[1.5666666666666667],"[640.0, 512.0]",vertical,"(390.0, 262.0)",[1.3],[0.233],1,2643.162
9,False,530,0.456,27,[],[],"[(1105, 888)]",[],[1],[59],[0.9833333333333333],"[640.0, 512.0]",vertical,"(890.0, 262.0)",[1.6666666666666667],[0.508],1,2647.492
9,False,531,1.049,62,[],[],"[(1075, 883)]",[],[1],[112],[1.8666666666666667],"[640.0, 512.0]",vertical,"(890.0, 262.0)",[1.3666666666666667],[0.799],0,2651.649
9,False,532,1.474,88,[],[],"[(1105, 871)]",[],[1],[119],[1.9833333333333334],"[640.0, 512.0]",vertical,"(390.0, 762.0)",[1.45],[0.49],1,2656.379
9,False,533,0.454,27,[],[],"[(1099, 878)]",[],[1],[64],[1.0666666666666667],"[640.0, 512.0]",vertical,"(890.0, 262.0)",[0.8333333333333334],[0.59],1,2661.62
9,False,534,1.185,71,[],[],"[(1105, 875)]",[],[1],[105],[1.75],"[640.0, 512.0]",horizontal,"(890.0, 762.0)",[1.5833333333333333],[0.54],1,2664.963
9,False,535,0.451,27,[],[],"[(1121, 884)]",[],[1],[77],[1.2833333333333332],"[640.0, 512.0]",horizontal,"(390.0, 762.0)",[0.5833333333333334],[0.802],0,2669.753
9,False,536,1.052,63,[],[],"[(1143, 868)]",[],[1],[95],[1.5833333333333333],"[640.0, 512.0]",vertical,"(390.0, 762.0)",[1.3833333333333333],[0.506],1,2673.113
9,False,537,0.695,41,[],[],"[(1079, 871)]",[],[1],[71],[1.1833333333333333],"[640.0, 512.0]",vertical,"(390.0, 262.0)",[1.65],[0.479],1,2735.349
9,False,538,0.355,21,[],[],"[(1078, 891)]",[],[1],[55],[0.9166666666666666],"[640.0, 512.0]",vertical,"(890.0, 762.0)",[0.6333333333333333],[0.543],1,2739.658
9,False,539,1.088,65,[],[],"[(1090, 884)]",[],[1],[102],[1.7],"[640.0, 512.0]",vertical,"(890.0, 762.0)",[1.5333333333333332],[0.599],1,2742.725
9,False,540,1.125,67,[],[],"[(1103, 875)]",[],[1],[101],[1.6833333333333333],"[640.0, 512.0]",horizontal,"(890.0, 262.0)",[1.15],[0.543],1,2747.456
10,False,541,0.645,38,[],[],"[(1096, 889)]",[],[1],[82],[1.3666666666666667],"[640.0, 512.0]",vertical,"(390.0, 762.0)",[0.7166666666666667],[0.703],1,2751.729
10,False,542,0.303,18,[],[],"[(1079, 894)]",[],[1],[68],[1.1333333333333333],"[640.0, 512.0]",vertical,"(890.0, 262.0)",[1.3166666666666667],[0.794],0,2755.294
10,False,543,1.155,69,[],[],"[(1093, 889)]",[],[1],[103],[1.7166666666666666],"[640.0, 512.0]",vertical,"(890.0, 262.0)",[1.6833333333333333],[0.541],1,2759.313
10,False,544,0.464,27,[],[],"[(1091, 882)]",[],[1],[62],[1.0333333333333332],"[640.0, 512.0]",horizontal,"(390.0, 262.0)",[1.4333333333333333],[0.555],1,2764.228
10,False,545,0.328,19,[],[],"[(1123, 889)]",[],[1],[53],[0.8833333333333333],"[640.0, 512.0]",vertical,"(890.0, 262.0)",[1.5166666666666666],[0.543],1,2768.148
10,False,546,0.877,52,[],[],"[(1117, 888)]",[],[1],[102],[1.7],"[640.0, 512.0]",horizontal,"(390.0, 762.0)",[0.5333333333333333],[0.793],0,2780.555
10,False,547,0.502,30,[],[],"[(1090, 870)]",[],[1],[65],[1.0833333333333333],"[640.0, 512.0]",vertical,"(390.0, 762.0)",[0.9333333333333333],[0.562],1,2784.262
10,False,548,0.613,36,[],[],"[(1084, 877)]",[],[1],[71],[1.1833333333333333],"[640.0, 512.0]",vertical,"(890.0, 262.0)",[0.9],[0.552],1,2787.828
10,False,549,1.092,65,[],[],"[(1117, 889)]",[],[1],[115],[1.9166666666666667],"[640.0, 512.0]",vertical,"(390.0, 762.0)",[1.5833333333333333],[0.801],0,2791.396
10,False,550,0.785,47,[],[],"[(1109, 896)]",[],[1],[83],[1.3833333333333333],"[640.0, 512.0]",vertical,"(890.0, 762.0)",[0.9833333333333333],[0.573],1,2796.421
10,False,551,0.568,34,[],[],"[(1095, 873)]",[],[1],[71],[1.1833333333333333],"[640.0, 512.0]",horizontal,"(890.0, 262.0)",[0.9333333333333333],[0.593],1,2800.494
10,False,552,0.317,19,[],[],"[(1094, 876)]",[],[1],[57],[0.95],"[640.0, 512.0]",horizontal,"(890.0, 762.0)",[1.4833333333333334],[0.606],1,2804.172
10,False,553,1.433,85,[],[],"[(1100, 864)]",[],[1],[121],[2.0166666666666666],"[640.0, 512.0]",vertical,"(390.0, 262.0)",[0.85],[0.573],1,2808.097
10,False,554,1.137,68,[],[],"[(1097, 889)]",[],[1],[100],[1.6666666666666667],"[640.0, 512.0]",vertical,"(390.0, 262.0)",[0.7666666666666666],[0.508],1,2812.44
10,False,555,0.849,50,[],[],"[(1061, 884)]",[],[1],[88],[1.4666666666666666],"[640.0, 512.0]",horizontal,"(890.0, 762.0)",[0.65],[0.602],1,2816.433
10,False,556,0.629,37,[],[],"[(1083, 899)]",[],[1],[87],[1.45],"[640.0, 512.0]",vertical,"(890.0, 262.0)",[0.8333333333333334],[0.803],0,2820.081
10,False,557,0.532,31,[],[],"[(1120, 876)]",[],[1],[81],[1.35],"[640.0, 512.0]",horizontal,"(390.0, 762.0)",[1.2666666666666666],[0.796],0,2823.864
10,False,558,0.423,25,[],[],"[(1131, 885)]",[],[1],[60],[1.0],"[640.0, 512.0]",vertical,"(390.0, 262.0)",[0.8666666666666667],[0.557],1,2832.287
10,False,559,0.98,58,[],[],"[(1074, 860)]",[],[1],[97],[1.6166666666666667],"[640.0, 512.0]",horizontal,"(890.0, 762.0)",[0.7],[0.619],1,2835.701
10,False,560,1.078,64,[],[],"[(1059, 881)]",[],[1],[95],[1.5833333333333333],"[640.0, 512.0]",horizontal,"(390.0, 262.0)",[1.45],[0.49],1,2839.509
10,False,561,0.966,57,[],[],"[(1239, 865), (1101, 860)]",[],"[0, 1]",[91],[1.5166666666666666],"[640.0, 512.0]",horizontal,"(890.0, 262.0)",[1.2666666666666666],[0.54],1,2844.072
10,False,562,1.445,86,[],[],"[(1079, 885)]",[],[1],[136],[2.2666666666666666],"[640.0, 512.0]",vertical,"(890.0, 762.0)",[0.6833333333333333],[0.794],0,2849.655
10,False,563,0.497,29,[],[],"[(1089, 877)]",[],[1],[61],[1.0166666666666666],"[640.0, 512.0]",vertical,"(890.0, 262.0)",[0.85],[0.505],1,2854.056
10,False,564,1.386,83,[],[],"[(1080, 885)]",[],[1],[125],[2.0833333333333335],"[640.0, 512.0]",horizontal,"(890.0, 762.0)",[0.8666666666666667],[0.672],1,2857.603
10,False,565,1.133,67,[],[],"[(1076, 873)]",[],[1],[98],[1.6333333333333333],"[640.0, 512.0]",vertical,"(390.0, 262.0)",[0.85],[0.493],1,2861.978
10,False,566,1.409,84,[],[],"[(1081, 880)]",[],[1],[119],[1.9833333333333334],"[640.0, 512.0]",horizontal,"(890.0, 262.0)",[0.9333333333333333],[0.557],1,2865.975
10,False,567,0.715,42,[],[],"[(1087, 881)]",[],[1],[79],[1.3166666666666667],"[640.0, 512.0]",vertical,"(390.0, 262.0)",[0.8333333333333334],[0.585],1,2870.345
10,False,568,1.261,75,[],[],"[(1080, 875)]",[],[1],[110],[1.8333333333333333],"[640.0, 512.0]",vertical,"(890.0, 262.0)",[0.6333333333333333],[0.558],1,2873.948
10,False,569,1.095,65,[],[],"[(1087, 886)]",[],[1],[95],[1.5833333333333333],"[640.0, 512.0]",horizontal,"(890.0, 262.0)",[1.0666666666666667],[0.476],1,2878.042
10,False,570,0.371,22,[],[],"[(1085, 880)]",[],[1],[56],[0.9333333333333333],"[640.0, 512.0]",vertical,"(390.0, 762.0)",[1.5],[0.54],1,2882.231
10,False,571,0.541,32,[],[],"[(1093, 871)]",[],[1],[82],[1.3666666666666667],"[640.0, 512.0]",horizontal,"(390.0, 762.0)",[1.1333333333333333],[0.797],0,2886.146
10,False,572,1.267,76,[],[],"[(1076, 859)]",[],[1],[126],[2.1],"[640.0, 512.0]",horizontal,"(890.0, 262.0)",[0.8333333333333334],[0.803],0,2890.2
10,False,573,0.737,44,[],[],"[(1056, 877)]",[],[1],[79],[1.3166666666666667],"[640.0, 512.0]",vertical,"(390.0, 262.0)",[0.8666666666666667],[0.554],1,2896.014
10,False,574,1.247,74,[],[],"[(1136, 893)]",[],[1],[124],[2.0666666666666664],"[640.0, 512.0]",horizontal,"(890.0, 262.0)",[1.0333333333333332],[0.794],0,2899.883
10,False,575,0.6,36,[],[],"[(1098, 889)]",[],[1],[75],[1.25],"[640.0, 512.0]",vertical,"(890.0, 762.0)",[0.8666666666666667],[0.618],1,2904.46
10,False,576,0.397,23,[],[],"[(1106, 889)]",[],[1],[59],[0.9833333333333333],"[640.0, 512.0]",vertical,"(890.0, 262.0)",[0.6333333333333333],[0.572],1,2908.435
10,False,577,1.194,71,[],[],"[(1082, 891)]",[],[1],[102],[1.7],"[640.0, 512.0]",vertical,"(390.0, 262.0)",[1.4833333333333334],[0.491],1,2911.552
10,False,578,0.839,50,[],[],"[(1083, 892)]",[],[1],[83],[1.3833333333333333],"[640.0, 512.0]",vertical,"(390.0, 762.0)",[1.6333333333333333],[0.523],1,2916.213
10,False,579,1.097,65,[],[],"[(1044, 880)]",[],[1],[100],[1.6666666666666667],"[640.0, 512.0]",horizontal,"(390.0, 262.0)",[0.5333333333333333],[0.556],1,2922.03
10,False,580,0.342,20,[],[],"[(1087, 889)]",[],[1],[56],[0.9333333333333333],"[640.0, 512.0]",horizontal,"(390.0, 762.0)",[0.55],[0.575],1,2925.79
10,False,581,0.893,53,[],[],"[(1082, 878)]",[],[1],[89],[1.4833333333333334],"[640.0, 512.0]",horizontal,"(890.0, 762.0)",[0.5666666666666667],[0.578],1,2928.753
10,False,582,1.315,78,[],[],"[(1056, 886)]",[],[1],[108],[1.8],"[640.0, 512.0]",vertical,"(890.0, 262.0)",[1.1666666666666667],[0.471],1,2932.346
10,False,583,1.214,72,[],[],"[(1078, 880)]",[],[1],[107],[1.7833333333333332],"[640.0, 512.0]",vertical,"(390.0, 262.0)",[0.7166666666666667],[0.552],1,2936.805
10,False,584,0.78,46,[],[],"[(1087, 876)]",[],[1],[89],[1.4833333333333334],"[640.0, 512.0]",vertical,"(390.0, 762.0)",[1.1],[0.684],1,2940.76
10,False,585,1.377,82,[],[],"[(1090, 881)]",[],[1],[116],[1.9333333333333333],"[640.0, 512.0]",horizontal,"(390.0, 262.0)",[1.2333333333333334],[0.541],1,2944.81
10,False,586,1.299,77,[],[],"[(1069, 889)]",[],[1],[112],[1.8666666666666667],"[640.0, 512.0]",horizontal,"(890.0, 262.0)",[0.75],[0.55],1,2949.485
10,False,587,0.667,40,[],[],"[(1086, 875)]",[],[1],[75],[1.25],"[640.0, 512.0]",vertical,"(890.0, 262.0)",[1.3666666666666667],[0.558],1,2953.564
10,False,588,1.424,85,[],[],"[(1084, 894)]",[],[1],[117],[1.95],"[640.0, 512.0]",horizontal,"(890.0, 262.0)",[0.6333333333333333],[0.513],1,2957.792
10,False,589,1.1,66,[],[],"[(1084, 889)]",[],[1],[116],[1.9333333333333333],"[640.0, 512.0]",horizontal,"(390.0, 762.0)",[0.7],[0.804],0,2962.072
10,False,590,0.411,24,[],[],"[(1105, 875)]",[],[1],[60],[1.0],"[640.0, 512.0]",vertical,"(890.0, 262.0)",[0.7],[0.574],1,2966.173
10,False,591,1.0,60,[],[],"[(1080, 875)]",[],[1],[94],[1.5666666666666667],"[640.0, 512.0]",vertical,"(890.0, 262.0)",[1.1666666666666667],[0.543],1,2969.398
10,False,592,0.894,53,[],[],"[(1080, 878)]",[],[1],[84],[1.4],"[640.0, 512.0]",horizontal,"(390.0, 762.0)",[1.1333333333333333],[0.497],1,2973.595
10,False,593,0.804,48,[],[],"[(1079, 872)]",[],[1],[83],[1.3833333333333333],"[640.0, 512.0]",horizontal,"(390.0, 762.0)",[0.8833333333333333],[0.557],1,2977.815
10,False,594,0.371,22,[],[],"[(1090, 875)]",[],[1],[64],[1.0666666666666667],"[640.0, 512.0]",vertical,"(890.0, 262.0)",[0.8666666666666667],[0.672],1,2985.507
10,False,595,1.011,60,[],[],"[(1080, 884)]",[],[1],[97],[1.6166666666666667],"[640.0, 512.0]",vertical,"(890.0, 262.0)",[0.7],[0.594],1,2988.916
10,False,596,0.386,23,[],[],"[(1056, 885)]",[],[1],[],[],"[640.0, 512.0]",vertical,"(390.0, 262.0)",[],[0],0,2992.711
10,False,597,1.21,72,[],[],"[(1032, 875)]",[],[1],[105],[1.75],"[640.0, 512.0]",horizontal,"(390.0, 262.0)",[1.0666666666666667],[0.524],1,2996.098
10,False,598,1.186,71,[],[],"[(1100, 883)]",[],[1],[107],[1.7833333333333332],"[640.0, 512.0]",horizontal,"(390.0, 762.0)",[0.5166666666666666],[0.578],1,3000.649
10,False,599,0.751,45,[],[],"[(1093, 888)]",[],[1],[83],[1.3833333333333333],"[640.0, 512.0]",vertical,"(890.0, 262.0)",[1.3],[0.608],1,3004.448
10,False,600,0.478,28,[],[],"[(1074, 880)]",[],[1],[69],[1.15],"[640.0, 512.0]",vertical,"(890.0, 262.0)",[0.7666666666666666],[0.658],1,3008.592
11,False,601,1.163,69,[],[],"[(1069, 885)]",[],[1],[100],[1.6666666666666667],"[640.0, 512.0]",vertical,"(890.0, 262.0)",[1.6666666666666667],[0.499],1,3012.025
11,False,602,0.832,49,[],[],"[(1078, 885)]",[],[1],[78],[1.3],"[640.0, 512.0]",horizontal,"(890.0, 262.0)",[1.5833333333333333],[0.456],1,3016.855
11,False,603,1.281,76,[],[],"[(1038, 872)]",[],[1],[109],[1.8166666666666667],"[640.0, 512.0]",horizontal,"(390.0, 762.0)",[1.4833333333333334],[0.528],1,3021.285
11,False,604,1.03,61,[],[],"[(1075, 872)]",[],[1],[97],[1.6166666666666667],"[640.0, 512.0]",vertical,"(390.0, 762.0)",[1.35],[0.573],1,3026.093
11,False,605,1.021,61,[],[],"[(1088, 878)]",[],[1],[95],[1.5833333333333333],"[640.0, 512.0]",horizontal,"(390.0, 762.0)",[1.3333333333333333],[0.544],1,3030.532
11,False,606,0.855,51,[],[],"[(1103, 880)]",[],[1],[84],[1.4],"[640.0, 512.0]",vertical,"(390.0, 762.0)",[0.5166666666666666],[0.531],1,3034.901
11,False,607,0.7,42,[],[],"[(1063, 881)]",[],[1],[73],[1.2166666666666666],"[640.0, 512.0]",vertical,"(390.0, 262.0)",[1.0333333333333332],[0.495],1,3038.449
11,False,608,1.133,67,[],[],"[(1063, 884)]",[],[1],[99],[1.65],"[640.0, 512.0]",vertical,"(890.0, 762.0)",[1.5666666666666667],[0.519],1,3042.177
11,False,609,0.592,35,[],[],"[(1080, 880)]",[],[1],[67],[1.1166666666666667],"[640.0, 512.0]",horizontal,"(890.0, 262.0)",[1.3],[0.502],1,3046.983
11,False,610,0.532,31,[],[],"[(1069, 888)]",[],[1],[68],[1.1333333333333333],"[640.0, 512.0]",vertical,"(390.0, 262.0)",[0.55],[0.59],1,3053.006
11,False,611,0.845,50,[],[],"[(1072, 896)]",[],[1],[84],[1.4],"[640.0, 512.0]",vertical,"(390.0, 262.0)",[1.3333333333333333],[0.543],1,3056.186
11,False,612,0.646,38,[],[],"[(1068, 875)]",[],[1],[73],[1.2166666666666666],"[640.0, 512.0]",horizontal,"(390.0, 762.0)",[1.35],[0.554],1,3060.397
11,False,613,0.582,34,[],[],"[(1079, 868)]",[],[1],[69],[1.15],"[640.0, 512.0]",horizontal,"(390.0, 762.0)",[1.0],[0.56],1,3064.499
11,False,614,1.205,72,[],[],"[(1063, 889)]",[],[1],[104],[1.7333333333333334],"[640.0, 512.0]",vertical,"(390.0, 762.0)",[1.4666666666666666],[0.513],1,3068.232
11,False,615,0.566,33,[],[],"[(1067, 881)]",[],[1],[67],[1.1166666666666667],"[640.0, 512.0]",horizontal,"(390.0, 262.0)",[0.7],[0.541],1,3073.406
11,False,616,0.696,41,[],[],"[(1093, 898)]",[],[1],[79],[1.3166666666666667],"[640.0, 512.0]",vertical,"(390.0, 762.0)",[1.3333333333333333],[0.606],1,3076.727
11,False,617,0.692,41,[],[],"[(1038, 889)]",[],[1],[75],[1.25],"[640.0, 512.0]",horizontal,"(890.0, 262.0)",[0.8833333333333333],[0.542],1,3080.882
11,False,618,0.365,21,[],[],"[(1094, 881)]",[],[1],[56],[0.9333333333333333],"[640.0, 512.0]",horizontal,"(390.0, 762.0)",[1.25],[0.556],1,3084.577
11,False,619,0.571,34,[],[],"[(1048, 876)]",[],[1],[67],[1.1166666666666667],"[640.0, 512.0]",vertical,"(390.0, 762.0)",[1.4333333333333333],[0.52],1,3088.243
11,False,620,1.087,65,[],[],"[(1068, 871)]",[],[1],[97],[1.6166666666666667],"[640.0, 512.0]",vertical,"(390.0, 762.0)",[1.2833333333333332],[0.509],1,3092.314
11,False,621,1.348,80,[],[],"[(1071, 891)]",[],[1],[114],[1.9],"[640.0, 512.0]",vertical,"(390.0, 762.0)",[0.8],[0.544],1,3096.681
11,False,622,1.114,66,[],[],"[(1055, 889)]",[],[1],[99],[1.65],"[640.0, 512.0]",horizontal,"(890.0, 262.0)",[0.5833333333333334],[0.524],1,3100.886
11,False,623,1.34,80,[],[],"[(1066, 882)]",[],[1],[118],[1.9666666666666666],"[640.0, 512.0]",vertical,"(390.0, 762.0)",[0.85],[0.608],1,3104.68
11,False,624,0.304,18,[],[],"[(1082, 888)]",[],[1],[66],[1.1],"[640.0, 512.0]",horizontal,"(390.0, 262.0)",[0.6],[0.773],1,3108.994
11,False,625,0.955,57,[],[],"[(1056, 885)]",[],[1],[91],[1.5166666666666666],"[640.0, 512.0]",vertical,"(390.0, 262.0)",[1.55],[0.546],1,3112.21
11,False,626,0.754,45,[],[],"[(1068, 868)]",[],[1],[95],[1.5833333333333333],"[640.0, 512.0]",horizontal,"(390.0, 762.0)",[0.9833333333333333],[0.816],0,3116.807
11,False,627,1.498,89,[],[],"[(1125, 876)]",[],[1],[126],[2.1],"[640.0, 512.0]",vertical,"(890.0, 762.0)",[1.1333333333333333],[0.599],1,3121.58
11,False,628,0.797,47,[],[],"[(1058, 888)]",[],[1],[81],[1.35],"[640.0, 512.0]",horizontal,"(890.0, 262.0)",[0.6666666666666666],[0.543],1,3126.319
11,False,629,1.486,89,[],[],"[(1023, 897), (278, 722), (233, 741), (276, 790), (1133, 860)]",[],"[0, 0, 0, 0, 1]",[121],[2.0166666666666666],"[640.0, 512.0]",horizontal,"(390.0, 262.0)",[1.0166666666666666],[0.509],1,3129.872
11,False,630,1.048,62,[],[],"[(1080, 872)]",[],[1],[95],[1.5833333333333333],"[640.0, 512.0]",vertical,"(390.0, 262.0)",[1.1166666666666667],[0.526],1,3162.835
11,False,631,0.859,51,[],[],"[(1074, 865)]",[],[1],[80],[1.3333333333333333],"[640.0, 512.0]",vertical,"(390.0, 262.0)",[1.1666666666666667],[0.463],1,3167.003
11,False,632,1.166,69,[],[],"[(1052, 884)]",[],[1],[104],[1.7333333333333334],"[640.0, 512.0]",horizontal,"(390.0, 762.0)",[0.8166666666666667],[0.557],1,3171.043
11,False,633,0.479,28,[],[],"[(1074, 878)]",[],[1],[62],[1.0333333333333332],"[640.0, 512.0]",vertical,"(890.0, 262.0)",[1.5666666666666667],[0.539],1,3175.083
11,False,634,0.708,42,[],[],"[(1085, 874)]",[],[1],[84],[1.4],"[640.0, 512.0]",horizontal,"(390.0, 262.0)",[0.9],[0.666],1,3179.19
11,False,635,1.177,70,[],[],"[(1081, 878)]",[],[1],[109],[1.8166666666666667],"[640.0, 512.0]",horizontal,"(390.0, 762.0)",[0.5833333333333334],[0.625],1,3182.972
11,False,636,0.512,30,[],[],"[(1091, 870)]",[],[1],[64],[1.0666666666666667],"[640.0, 512.0]",horizontal,"(890.0, 762.0)",[1.0],[0.543],1,3186.881
11,False,637,1.302,78,[],[],"[(1096, 883)]",[],[1],[111],[1.8499999999999999],"[640.0, 512.0]",vertical,"(890.0, 762.0)",[1.2],[0.527],1,3190.449
11,False,638,1.305,78,[],[],"[(1111, 875)]",[],[1],[119],[1.9833333333333334],"[640.0, 512.0]",vertical,"(390.0, 762.0)",[1.0666666666666667],[0.66],1,3194.994
11,False,639,0.694,41,[],[],"[(1083, 877)]",[],[1],[77],[1.2833333333333332],"[640.0, 512.0]",horizontal,"(890.0, 762.0)",[1.35],[0.58],1,3199.539
11,False,640,1.123,67,[],[],"[(1036, 859)]",[],[1],[99],[1.65],"[640.0, 512.0]",vertical,"(890.0, 262.0)",[0.8333333333333334],[0.509],1,3203.665
11,False,641,1.068,64,[],[],"[(1068, 887)]",[],[1],[99],[1.65],"[640.0, 512.0]",vertical,"(890.0, 262.0)",[0.7],[0.556],1,3207.715
11,False,642,1.476,88,[],[],"[(1078, 886)]",[],[1],[123],[2.05],"[640.0, 512.0]",vertical,"(890.0, 762.0)",[1.3666666666666667],[0.558],1,3211.609
11,False,643,0.583,34,[],[],"[(1087, 887)]",[],[1],[69],[1.15],"[640.0, 512.0]",horizontal,"(890.0, 262.0)",[0.5166666666666666],[0.566],1,3216.533
11,False,644,1.468,88,[],[],"[(1093, 870)]",[],[1],[130],[2.1666666666666665],"[640.0, 512.0]",vertical,"(390.0, 262.0)",[0.7333333333333333],[0.686],1,3219.725
11,False,645,1.229,73,[],[],"[(1081, 870)]",[],[1],[104],[1.7333333333333334],"[640.0, 512.0]",horizontal,"(890.0, 262.0)",[1.6333333333333333],[0.494],1,3224.249
11,False,646,0.536,32,[],[],"[(1098, 879)]",[],[1],[65],[1.0833333333333333],"[640.0, 512.0]",horizontal,"(890.0, 762.0)",[0.7666666666666666],[0.525],1,3229.098
11,False,647,1.312,78,[],[],"[(1092, 870)]",[],[1],[110],[1.8333333333333333],"[640.0, 512.0]",horizontal,"(390.0, 262.0)",[0.7333333333333333],[0.508],1,3232.439
11,False,648,1.262,75,[],[],"[(1100, 882)]",[],[1],[107],[1.7833333333333332],"[640.0, 512.0]",vertical,"(890.0, 262.0)",[1.45],[0.505],1,3236.549
11,False,649,0.331,19,[],[],"[(1108, 881)]",[],[1],[52],[0.8666666666666667],"[640.0, 512.0]",horizontal,"(890.0, 262.0)",[1.2333333333333334],[0.525],1,3241.281
11,False,650,0.808,48,[],[],"[(1087, 898)]",[],[1],[80],[1.3333333333333333],"[640.0, 512.0]",horizontal,"(390.0, 762.0)",[1.65],[0.506],1,3244.882
11,False,651,1.448,86,[],[],"[(1057, 896)]",[],[1],[129],[2.15],"[640.0, 512.0]",vertical,"(890.0, 262.0)",[0.5166666666666666],[0.688],1,3249.377
11,False,652,1.5,90,[],[],"[(1056, 878)]",[],[1],[126],[2.1],"[640.0, 512.0]",vertical,"(390.0, 762.0)",[0.7],[0.571],1,3261.703
11,False,653,0.925,55,[],[],"[(1077, 885)]",[],[1],[88],[1.4666666666666666],"[640.0, 512.0]",vertical,"(390.0, 262.0)",[1.1333333333333333],[0.525],1,3266.144
11,False,654,0.663,39,[],[],"[(1066, 890)]",[],[1],[],[],"[640.0, 512.0]",vertical,"(390.0, 262.0)",[],[0],0,3270.249
11,False,655,1.155,69,[],[],"[(1050, 880)]",[],[1],[105],[1.75],"[640.0, 512.0]",vertical,"(890.0, 762.0)",[1.55],[0.577],1,3273.838
11,False,656,0.324,19,[],[],"[(1088, 889)]",[],[1],[59],[0.9833333333333333],"[640.0, 512.0]",vertical,"(890.0, 262.0)",[1.0666666666666667],[0.642],1,3279.132
11,False,657,0.32,19,[],[],"[(1044, 889)]",[],[1],[52],[0.8666666666666667],"[640.0, 512.0]",vertical,"(890.0, 262.0)",[1.3833333333333333],[0.521],1,3282.693
