block,trial,trial_type,taps_start_loc_during_fix,taps_end_loc_during_fix,taps_on_lever_during_fix,taps_on_lever_s_during_fix,bar_orientation,target_xy,cti,rt,acc,time,pulses
0,1,target,"[(1047, 936)]",[],[1],[0.4],horizontal,"(390.0, 262.0)",1.5666666666666667,0.362,1,0.523,1
0,2,target,"[(984, 828), (1001, 857), (1026, 842)]",[],"[0, 0, 1]",[0.4166666666666667],horizontal,"(890.0, 762.0)",1.2,0.388,1,28.26,1
0,3,target,"[(1000, 820), (993, 807), (1010, 809)]",[],"[0, 0, 1]",[0.55],horizontal,"(390.0, 762.0)",0.7333333333333333,0.519,1,194.342,2
0,4,target,"[(1013, 804)]",[],[1],[0.4],horizontal,"(390.0, 762.0)",1.15,0.36,1,201.41,2
0,5,target,"[(992, 776), (986, 798), (1008, 799)]",[],"[0, 0, 1]",[0.5333333333333333],vertical,"(890.0, 762.0)",1.05,0.495,1,206.534,2
0,6,target,"[(993, 805), (983, 795), (986, 796), (969, 821), (972, 824), (974, 826), (1037, 899)]",[],"[0, 0, 0, 0, 0, 0, 1]",[0.2833333333333333],horizontal,"(890.0, 262.0)",1.45,0.25,1,213.653,2
0,7,target,"[(1005, 805)]",[],[1],[0.6166666666666667],vertical,"(390.0, 762.0)",0.9833333333333333,0.579,1,228.398,3
0,8,target,"[(992, 790), (965, 795), (993, 742), (1037, 832)]",[],"[0, 0, 0, 1]",[0.6166666666666667],horizontal,"(890.0, 262.0)",1.3,0.576,1,233.98,3
0,9,target,"[(992, 783), (984, 790), (1026, 808)]",[],"[0, 0, 1]",[0.55],horizontal,"(390.0, 262.0)",1.05,0.511,1,242.144,3
0,10,target,"[(988, 802), (987, 788), (991, 852), (987, 800), (1002, 805), (1001, 818), (1011, 849)]",[],"[0, 0, 0, 0, 0, 0, 1]",[0.5666666666666667],horizontal,"(390.0, 762.0)",0.9666666666666667,0.529,1,249.023,3
0,11,target,"[(1005, 813)]",[],[1],[0.8333333333333334],horizontal,"(390.0, 262.0)",0.5,0.792,1,268.944,3
0,12,catch,"[(1002, 770), (994, 766), (993, 795), (564, 556), (992, 810), (1029, 840)]",[],"[0, 0, 0, 0, 0, 1]",[],vertical,"(890.0, 762.0)",,"('cti', 1.075),nan",0,274.559,0
0,13,target,"[(989, 772), (1025, 839)]",[],"[0, 1]",[0.6166666666666667],horizontal,"(890.0, 262.0)",0.6166666666666667,0.572,1,283.438,1
0,14,target,"[(1003, 798), (1003, 831), (1005, 833)]",[],"[0, 0, 1]",[0.5666666666666667],horizontal,"(890.0, 262.0)",0.9166666666666666,0.52,1,288.743,1
0,15,target,"[(1018, 816)]",[],[1],[0.26666666666666666],horizontal,"(390.0, 262.0)",1.1666666666666667,0.23,1,295.494,2
0,16,target,"[(1012, 804)]",[],[1],[0.5],vertical,"(390.0, 262.0)",1.1,0.464,1,301.118,2
0,17,target,"[(985, 807), (983, 803), (995, 834), (1038, 805)]",[],"[0, 0, 0, 1]",[0.5333333333333333],horizontal,"(890.0, 262.0)",1.2833333333333332,0.5,1,306.415,2
0,18,target,"[(1015, 815)]",[],[1],[0.5833333333333334],vertical,"(390.0, 262.0)",0.8,0.541,1,314.653,2
0,19,catch,"[(989, 800), (997, 804), (1008, 807)]",[],"[0, 0, 1]",[],horizontal,"(390.0, 762.0)",1.6,nan,1,319.474,3
0,20,catch,"[(997, 806), (1006, 815)]",[],"[0, 1]",[],horizontal,"(390.0, 262.0)",1.6,nan,1,326.665,3
0,21,target,"[(986, 808), (1021, 808)]",[],"[0, 1]",[],vertical,"(890.0, 262.0)",,"('cti', 1.359)",0,333.027,0
0,22,target,"[(1027, 807)]",[],[1],[0.5166666666666666],vertical,"(390.0, 262.0)",0.8,0.481,1,338.762,1
0,23,target,"[(1017, 799)]",[],[1],[0.3833333333333333],vertical,"(890.0, 762.0)",1.2666666666666666,0.35,1,343.344,1
0,24,target,"[(1017, 803)]",[],[1],[0.13333333333333333],vertical,"(390.0, 262.0)",1.5833333333333333,0.101,0,348.328,0
0,25,catch,"[(1017, 809)]",[],[1],[],horizontal,"(390.0, 762.0)",1.6,nan,1,353.063,1
0,26,target,"[(1006, 778)]",[],[1],[0.85],horizontal,"(390.0, 762.0)",0.6166666666666667,nan,0,358.18,0
0,27,target,"[(997, 789), (987, 795), (1033, 765)]",[],"[0, 0, 1]",[0.05],vertical,"(390.0, 762.0)",1.55,0.019,0,362.481,0
0,28,target,"[(977, 813), (1013, 805)]",[],"[0, 1]",[0.48333333333333334],vertical,"(890.0, 262.0)",0.5666666666666667,0.451,1,368.4,1
0,29,target,"[(1019, 825)]",[],[1],[0.5166666666666666],vertical,"(890.0, 762.0)",0.8,0.48,1,374.535,1
0,30,target,"[(1001, 786), (997, 805), (1044, 829)]",[],"[0, 0, 1]",[0.85],horizontal,"(390.0, 262.0)",0.7333333333333333,nan,0,379.085,0
0,31,target,"[(999, 796), (1061, 868)]",[],"[0, 1]",[0.5166666666666666],vertical,"(890.0, 262.0)",1.2333333333333334,0.473,1,385.165,1
0,32,target,"[(1014, 800)]",[],[1],[0.65],vertical,"(390.0, 262.0)",0.8833333333333333,0.615,1,392.141,1
0,33,target,"[(1028, 799)]",[],[1],[0.5666666666666667],horizontal,"(890.0, 762.0)",0.5,0.537,1,397.282,2
0,34,target,"[(1005, 787)]",[],[1],[0.85],vertical,"(890.0, 262.0)",1.4,nan,0,401.944,0
0,35,target,"[(1028, 805)]",[],[1],[0.4666666666666667],vertical,"(890.0, 262.0)",1.0166666666666666,0.429,1,406.794,1
0,36,target,"[(997, 796), (995, 790), (970, 826), (997, 846), (1013, 807)]",[],"[0, 0, 0, 0, 1]",[0.85],vertical,"(890.0, 262.0)",0.6666666666666666,nan,0,412.438,0
0,37,target,"[(984, 809), (996, 809), (1011, 819)]",[],"[0, 0, 1]",[0.85],horizontal,"(390.0, 762.0)",0.5166666666666666,nan,0,434.183,0
0,38,target,"[(1023, 782)]",[],[1],[0.6],vertical,"(890.0, 762.0)",0.6333333333333333,0.56,1,440.355,1
0,39,target,"[(1018, 809)]",[],[1],[0.5166666666666666],vertical,"(390.0, 262.0)",0.7833333333333333,0.481,1,445.707,1
0,40,target,"[(1019, 804)]",[],[1],[0.45],vertical,"(890.0, 762.0)",1.2,0.414,1,450.635,2
0,41,target,"[(1034, 777)]",[],[1],[0.65],vertical,"(390.0, 762.0)",0.5333333333333333,0.607,1,456.245,2
0,42,target,"[(996, 814), (1010, 812)]",[],"[0, 1]",[0.8333333333333334],horizontal,"(890.0, 762.0)",1.3166666666666667,0.785,1,461.262,2
0,43,target,"[(998, 800), (1033, 798)]",[],"[0, 1]",[0.35],horizontal,"(890.0, 262.0)",1.2333333333333334,0.311,1,467.669,2
0,44,target,"[(1021, 778)]",[],[1],[0.85],vertical,"(890.0, 762.0)",0.5333333333333333,nan,0,473.896,0
0,45,target,"[(992, 799), (1021, 762)]",[],"[0, 1]",[0.18333333333333332],horizontal,"(390.0, 762.0)",1.4666666666666666,0.15,0,478.733,0
0,46,catch,"[(991, 775), (1015, 816)]",[],"[0, 1]",[],vertical,"(890.0, 262.0)",1.6,nan,1,484.829,1
0,47,target,"[(1013, 797)]",[],[1],[0.4],vertical,"(890.0, 262.0)",1.3,0.361,1,491.479,1
0,48,target,"[(1039, 770)]",[],[1],[],horizontal,"(890.0, 762.0)",,"('cti', 1.259)",0,497.065,0
0,49,target,"[(1024, 781)]",[],[1],[0.3833333333333333],vertical,"(890.0, 262.0)",1.2,0.345,1,501.462,1
0,50,target,"[(1039, 763)]",[],[1],[0.5],horizontal,"(390.0, 262.0)",1.0333333333333332,0.462,1,506.429,1
0,51,target,"[(1015, 804)]",[],[1],[0.85],vertical,"(390.0, 262.0)",0.6333333333333333,nan,0,511.132,0
0,52,target,"[(1020, 776)]",[],[1],[0.6333333333333333],horizontal,"(390.0, 262.0)",0.6166666666666667,0.593,1,515.664,1
0,53,catch,"[(1035, 800)]",[],[1],[],horizontal,"(890.0, 262.0)",1.6,nan,1,520.111,1
0,54,target,"[(1022, 808)]",[],[1],[0.5333333333333333],vertical,"(390.0, 262.0)",1.25,0.491,1,524.779,2
0,55,catch,"[(1037, 804)]",[],[1],[],vertical,"(390.0, 262.0)",1.6,nan,1,530.596,2
0,56,target,"[(1041, 804)]",[],[1],[0.85],horizontal,"(390.0, 262.0)",1.1166666666666667,nan,0,536.222,0
0,57,target,"[(1024, 790)]",[],[1],[0.85],horizontal,"(890.0, 262.0)",1.0333333333333332,"('cti', 1.034),nan",0,540.94,0
0,58,target,"[(1041, 815)]",[],[1],[],horizontal,"(890.0, 262.0)",,"('cti', 1.346)",0,546.361,0
0,59,target,"[(997, 791), (1038, 804)]",[],"[0, 1]",[],horizontal,"(890.0, 762.0)",,"('cti', 1.114)",0,550.912,0
0,60,target,"[(1029, 813)]",[],[1],[0.5333333333333333],vertical,"(890.0, 762.0)",0.6166666666666667,0.499,1,556.696,1
0,61,target,"[(1014, 808)]",[],[1],[0.5],vertical,"(890.0, 762.0)",0.7333333333333333,0.466,1,561.538,1
0,62,target,"[(1027, 804)]",[],[1],[0.35],vertical,"(390.0, 762.0)",1.0666666666666667,0.314,1,566.497,2
0,63,catch,"[(1017, 806)]",[],[1],[],vertical,"(890.0, 762.0)",,"('cti', 1.527),nan",0,571.746,0
0,64,target,"[(1020, 792)]",[],[1],[0.5333333333333333],horizontal,"(890.0, 262.0)",0.7666666666666666,0.496,1,576.623,1
0,65,target,"[(1015, 802)]",[],[1],[0.85],horizontal,"(390.0, 262.0)",0.7166666666666667,nan,0,581.795,0
0,66,target,"[(1005, 797)]",[],[1],[0.26666666666666666],horizontal,"(390.0, 762.0)",1.4333333333333333,0.23,1,586.679,1
0,67,target,"[(1025, 789)]",[],[1],[0.85],vertical,"(890.0, 262.0)",1.2166666666666666,"('cti', 1.204),nan",0,591.828,0
0,68,target,"[(1017, 806)]",[],[1],[0.25],vertical,"(890.0, 762.0)",1.4666666666666666,0.215,1,596.513,1
0,69,target,"[(1028, 782)]",[],[1],[0.6166666666666667],vertical,"(390.0, 762.0)",0.9,0.577,1,601.994,1
0,70,target,"[(1017, 795)]",[],[1],[0.85],vertical,"(390.0, 762.0)",0.6,nan,0,606.478,0
0,71,target,"[(993, 807), (1013, 807)]",[],"[0, 1]",[0.85],vertical,"(390.0, 262.0)",0.8,nan,0,611.145,0
0,72,target,"[(997, 777), (1017, 805)]",[],"[0, 1]",[0.5166666666666666],vertical,"(390.0, 762.0)",1.4833333333333334,0.477,1,618.313,1
0,73,target,"[(986, 790), (1004, 804), (1022, 822)]",[],"[0, 0, 1]",[0.6666666666666666],horizontal,"(890.0, 762.0)",0.9833333333333333,0.623,1,625.563,1
0,74,catch,"[(1021, 795)]",[],[1],[],horizontal,"(890.0, 262.0)",1.6,nan,1,632.096,2
0,75,catch,"[(1011, 800)]",[],[1],[],horizontal,"(390.0, 262.0)",1.6,nan,1,637.329,2
0,76,target,"[(1024, 795)]",[],[1],[0.85],horizontal,"(390.0, 762.0)",0.7833333333333333,nan,0,643.145,0
0,77,target,"[(1021, 811)]",[],[1],[0.5],horizontal,"(890.0, 262.0)",1.2666666666666666,0.46,1,647.806,1
0,78,target,"[(1031, 786)]",[],[1],[0.5166666666666666],horizontal,"(390.0, 262.0)",1.1,0.481,1,652.773,1
0,79,target,"[(994, 796), (973, 789), (1001, 795), (1016, 797)]",[],"[0, 0, 0, 1]",[0.2],vertical,"(890.0, 262.0)",1.4333333333333333,0.171,0,657.864,0
0,80,target,"[(1004, 806), (991, 807), (997, 797), (1017, 812)]",[],"[0, 0, 0, 1]",[0.5666666666666667],vertical,"(390.0, 262.0)",0.95,0.527,1,680.735,1
0,81,target,"[(1010, 813)]",[],[1],[0.48333333333333334],horizontal,"(890.0, 262.0)",0.9,0.445,1,689.674,1
0,82,catch,"[(1017, 790)]",[],[1],[],horizontal,"(890.0, 762.0)",1.6,nan,1,694.963,2
0,83,target,"[(1017, 809)]",[],[1],[0.5166666666666666],horizontal,"(390.0, 762.0)",1.1666666666666667,0.484,1,700.044,2
0,84,target,"[(1032, 795)]",[],[1],[0.5],horizontal,"(890.0, 762.0)",0.65,0.456,1,705.568,2
0,85,catch,"[(1021, 793)]",[],[1],[],horizontal,"(890.0, 262.0)",,"('cti', 1.378),nan",0,710.312,0
0,86,target,"[(1032, 806)]",[],[1],[0.23333333333333334],horizontal,"(390.0, 762.0)",1.5166666666666666,0.197,0,715.263,0
0,87,target,"[(1037, 771)]",[],[1],[0.6],vertical,"(890.0, 762.0)",1.1333333333333333,0.563,1,720.563,1
0,88,target,"[(1033, 792)]",[],[1],[0.8],vertical,"(890.0, 262.0)",1.1333333333333333,0.757,1,725.641,1
0,89,target,"[(1037, 794)]",[],[1],[0.5166666666666666],horizontal,"(390.0, 262.0)",1.3166666666666667,0.477,1,731.278,2
0,90,catch,"[(1036, 796)]",[],[1],[],vertical,"(890.0, 262.0)",,"('cti', 1.405),nan",0,736.563,0
0,91,target,"[(1017, 804)]",[],[1],[0.85],vertical,"(390.0, 762.0)",0.7333333333333333,nan,0,740.832,0
0,92,target,"[(1017, 804)]",[],[1],[0.5],horizontal,"(890.0, 262.0)",0.5166666666666666,0.464,1,745.563,1
0,93,target,"[(1008, 761)]",[],[1],[0.7166666666666667],vertical,"(890.0, 262.0)",0.95,0.672,1,749.897,1
0,94,catch,"[(997, 752), (1000, 812), (1054, 812)]",[],"[0, 0, 1]",[],vertical,"(890.0, 262.0)",1.6,nan,1,755.225,2
0,95,target,"[(1003, 808), (1021, 819)]",[],"[0, 1]",[0.5],horizontal,"(390.0, 262.0)",0.75,0.459,1,762.279,2
0,96,target,"[(1024, 803)]",[],[1],[0.18333333333333332],horizontal,"(390.0, 262.0)",1.1666666666666667,0.15,0,768.076,0
0,97,target,"[(1009, 811)]",[],[1],[0.85],vertical,"(890.0, 262.0)",0.65,nan,0,772.312,0
0,98,target,"[(997, 799), (1019, 807)]",[],"[0, 1]",[0.85],vertical,"(390.0, 762.0)",0.5666666666666667,nan,0,777.181,0
0,99,target,"[(994, 809), (1042, 835)]",[],"[0, 1]",[0.5],vertical,"(390.0, 262.0)",0.5666666666666667,0.453,1,783.246,1
0,100,target,"[(1003, 813), (996, 811), (1001, 835), (1064, 819)]",[],"[0, 0, 0, 1]",[],horizontal,"(890.0, 262.0)",,"('cti', 1.275)",0,834.714,0
0,101,target,"[(1023, 790)]",[],[1],[0.6166666666666667],vertical,"(390.0, 762.0)",0.85,0.576,1,841.761,1
0,102,target,"[(1022, 803)]",[],[1],[0.5],vertical,"(890.0, 262.0)",0.8333333333333334,0.463,1,846.633,1
0,103,target,"[(1001, 785), (1030, 778)]",[],"[0, 1]",[0.55],vertical,"(390.0, 262.0)",0.7833333333333333,0.51,1,851.275,2
0,104,target,"[(1033, 799)]",[],[1],[0.2833333333333333],horizontal,"(890.0, 762.0)",1.5166666666666666,0.247,1,857.035,2
0,105,target,"[(1004, 794), (1001, 792), (1053, 805)]",[],"[0, 0, 1]",[0.5],vertical,"(890.0, 762.0)",0.9166666666666666,0.457,1,862.501,2
0,106,target,"[(1008, 804)]",[],[1],[0.85],horizontal,"(390.0, 262.0)",0.9833333333333333,nan,0,868.963,0
0,107,target,"[(1011, 805)]",[],[1],[0.5333333333333333],vertical,"(890.0, 762.0)",0.9333333333333333,0.492,1,873.676,1
0,108,catch,"[(1021, 795)]",[],[1],[],vertical,"(890.0, 262.0)",,"('cti', 1.533),nan",0,878.327,0
0,109,target,"[(1029, 770)]",[],[1],[0.48333333333333334],horizontal,"(890.0, 262.0)",0.8,0.444,1,883.33,1
0,110,target,"[(1025, 770)]",[],[1],[0.55],vertical,"(390.0, 762.0)",1.0833333333333333,0.513,1,888.244,1
0,111,target,"[(1021, 769)]",[],[1],[0.5333333333333333],horizontal,"(390.0, 262.0)",0.7333333333333333,0.493,1,893.202,2
0,112,catch,"[(1023, 764)]",[],[1],[],horizontal,"(890.0, 762.0)",1.6,nan,1,898.237,2
0,113,target,"[(1019, 787)]",[],[1],[0.3],vertical,"(890.0, 762.0)",1.5,0.266,1,903.682,2
0,114,target,"[(1025, 802)]",[],[1],[0.85],vertical,"(390.0, 262.0)",0.75,nan,0,909.687,0
0,115,target,"[(1023, 780)]",[],[1],[0.5333333333333333],vertical,"(390.0, 762.0)",1.2166666666666666,0.499,1,914.43,1
0,116,target,"[(1052, 798)]",[],[1],[0.55],vertical,"(390.0, 762.0)",1.2166666666666666,0.509,1,919.208,1
0,117,target,"[(1020, 778)]",[],[1],[0.85],vertical,"(890.0, 262.0)",0.8833333333333333,nan,0,924.347,0
0,118,target,"[(1002, 762), (980, 793), (1004, 773), (1040, 824)]",[],"[0, 0, 0, 1]",[0.5333333333333333],vertical,"(390.0, 262.0)",1.2166666666666666,0.497,1,928.987,1
0,119,target,"[(1017, 774)]",[],[1],[0.6166666666666667],horizontal,"(890.0, 762.0)",1.25,0.572,1,937.079,1
0,120,target,"[(1041, 774)]",[],[1],[0.7333333333333333],vertical,"(890.0, 762.0)",1.0166666666666666,0.686,1,942.464,2
0,121,target,"[(994, 790), (1013, 806)]",[],"[0, 1]",[0.6166666666666667],vertical,"(390.0, 262.0)",0.6,0.573,1,948.038,2
0,122,target,"[(1001, 807), (997, 803), (1036, 812)]",[],"[0, 0, 1]",[0.6333333333333333],vertical,"(890.0, 262.0)",0.7,0.591,1,954.281,2
0,123,target,"[(1017, 780)]",[],[1],[0.5166666666666666],vertical,"(890.0, 262.0)",1.2666666666666666,0.484,1,961.08,2
0,124,target,"[(997, 795), (999, 801), (1022, 804)]",[],"[0, 0, 1]",[0.85],horizontal,"(890.0, 262.0)",1.0333333333333332,nan,0,967.113,0
0,125,target,"[(994, 781), (989, 798), (1037, 795)]",[],"[0, 0, 1]",[0.48333333333333334],vertical,"(890.0, 262.0)",1.3166666666666667,0.443,1,973.38,1
0,126,target,"[(1020, 761)]",[],[1],[0.5666666666666667],vertical,"(390.0, 262.0)",0.9166666666666666,0.525,1,980.123,1
0,127,target,"[(999, 772), (1006, 812)]",[],"[0, 1]",[0.85],vertical,"(890.0, 262.0)",0.55,nan,0,984.796,0
0,128,target,"[(993, 795), (977, 771), (1055, 820)]",[],"[0, 0, 1]",[0.5833333333333334],vertical,"(890.0, 262.0)",0.5,0.538,1,989.925,1
0,129,target,"[(1019, 797)]",[],[1],[0.85],horizontal,"(390.0, 762.0)",0.55,nan,0,996.805,0
0,130,target,"[(1029, 762)]",[],[1],[0.6833333333333333],vertical,"(890.0, 762.0)",0.7,0.64,1,1001.397,1
0,131,target,"[(1047, 773)]",[],[1],[0.5666666666666667],vertical,"(890.0, 262.0)",1.3166666666666667,0.522,1,1006.378,1
0,132,target,"[(1017, 796)]",[],[1],[0.6],horizontal,"(890.0, 762.0)",1.1666666666666667,0.554,1,1011.18,2
0,133,target,"[(1052, 796)]",[],[1],[0.6166666666666667],horizontal,"(390.0, 762.0)",0.9333333333333333,0.57,1,1016.542,2
0,134,target,"[(1024, 802)]",[],[1],[0.7166666666666667],horizontal,"(390.0, 762.0)",0.75,0.673,1,1021.709,2
0,135,target,"[(1045, 793)]",[],[1],[0.2833333333333333],vertical,"(890.0, 762.0)",1.45,0.244,1,1027.079,2
0,136,target,"[(1039, 802)]",[],[1],[0.6333333333333333],vertical,"(390.0, 762.0)",0.8166666666666667,0.587,1,1033.012,3
0,137,catch,"[(1033, 769)]",[],[1],[],vertical,"(890.0, 262.0)",1.6,nan,1,1038.919,3
0,138,target,"[(1033, 800)]",[],[1],[0.7333333333333333],vertical,"(890.0, 262.0)",1.0,0.688,1,1044.362,3
0,139,target,"[(1025, 778)]",[],[1],[0.75],horizontal,"(890.0, 762.0)",0.85,0.704,1,1050.58,3
0,140,target,"[(1027, 768)]",[],[1],[0.85],vertical,"(890.0, 762.0)",0.65,nan,0,1056.707,0
0,141,target,"[(1008, 772)]",[],[1],[0.85],horizontal,"(390.0, 762.0)",0.8333333333333334,nan,0,1061.297,0
0,142,target,"[(1010, 798)]",[],[1],[0.6666666666666666],horizontal,"(890.0, 762.0)",0.9833333333333333,0.619,1,1066.18,1
0,143,target,"[(1021, 767)]",[],[1],[0.4666666666666667],vertical,"(890.0, 762.0)",1.5666666666666667,0.433,1,1071.764,1
0,144,target,"[(1019, 777)]",[],[1],[0.65],horizontal,"(390.0, 762.0)",0.9666666666666667,0.61,1,1076.99,2
0,145,target,"[(1037, 780)]",[],[1],[0.5666666666666667],vertical,"(890.0, 262.0)",0.8333333333333334,0.524,1,1082.774,2
0,146,target,"[(1041, 775)]",[],[1],[0.5166666666666666],vertical,"(390.0, 762.0)",0.6666666666666666,0.477,1,1088.413,2
0,147,target,"[(1041, 785)]",[],[1],[0.7166666666666667],horizontal,"(390.0, 762.0)",0.7833333333333333,0.673,1,1093.53,2
0,148,target,"[(1038, 804)]",[],[1],[0.6],horizontal,"(890.0, 262.0)",1.4166666666666667,0.554,1,1098.664,3
0,149,target,"[(1027, 799)]",[],[1],[0.35],vertical,"(390.0, 262.0)",1.4166666666666667,0.314,1,1104.93,3
0,150,target,"[(1033, 805)]",[],[1],[0.85],vertical,"(390.0, 762.0)",0.5666666666666667,nan,0,1111.182,0
0,151,target,"[(997, 790), (1034, 811)]",[],"[0, 1]",[0.6833333333333333],vertical,"(390.0, 262.0)",0.5,0.634,1,1115.931,1
0,152,target,"[(1029, 770)]",[],[1],[0.55],horizontal,"(890.0, 262.0)",0.6666666666666666,0.509,1,1121.581,1
0,153,target,"[(1037, 785)]",[],[1],[0.2],vertical,"(890.0, 762.0)",1.5666666666666667,0.169,0,1126.281,0
0,154,target,"[(989, 817), (1016, 809)]",[],"[0, 1]",[0.48333333333333334],horizontal,"(890.0, 762.0)",1.3333333333333333,0.445,1,1130.814,1
0,155,target,"[(1029, 796)]",[],[1],[0.5166666666666666],horizontal,"(890.0, 762.0)",1.2333333333333334,0.476,1,1140.489,1
0,156,target,"[(1021, 791)]",[],[1],[0.48333333333333334],horizontal,"(390.0, 762.0)",1.2333333333333334,0.44,1,1146.064,2
0,157,target,"[(1041, 805)]",[],[1],[0.4],vertical,"(390.0, 262.0)",1.5166666666666666,0.362,1,1151.553,2
0,158,catch,"[(1044, 804)]",[],[1],[],vertical,"(390.0, 762.0)",1.6,nan,1,1156.953,2
0,159,target,"[(1025, 797)]",[],[1],[0.55],vertical,"(390.0, 762.0)",1.0333333333333332,0.509,1,1162.703,2
0,160,target,"[(1037, 804)]",[],[1],[0.85],horizontal,"(390.0, 762.0)",0.7333333333333333,nan,0,1167.948,0
0,161,target,"[(992, 808), (1023, 747), (1054, 819)]",[],"[0, 0, 1]",[0.48333333333333334],vertical,"(890.0, 762.0)",1.4,0.457,1,1172.479,1
0,162,target,"[(995, 785), (997, 811), (1030, 809)]",[],"[0, 0, 1]",[0.5166666666666666],horizontal,"(390.0, 762.0)",1.1333333333333333,0.474,1,1180.237,1
0,163,catch,"[(1028, 770)]",[],[1],[],horizontal,"(890.0, 762.0)",1.6,nan,1,1186.68,2
0,164,target,"[(1038, 779)]",[],[1],[0.6166666666666667],horizontal,"(390.0, 762.0)",1.1833333333333333,0.574,1,1192.649,2
0,165,target,"[(1024, 775)]",[],[1],[0.2],horizontal,"(390.0, 262.0)",1.5333333333333332,0.166,0,1198.449,0
0,166,catch,"[(1021, 817)]",[],[1],[],horizontal,"(890.0, 262.0)",1.6,nan,1,1203.082,1
0,167,catch,"[(1035, 770)]",[],[1],[],horizontal,"(890.0, 762.0)",1.6,nan,1,1208.215,1
0,168,target,"[(1033, 783)]",[],[1],[0.85],horizontal,"(890.0, 262.0)",0.6166666666666667,nan,0,1212.947,0
0,169,target,"[(1026, 770)]",[],[1],[0.85],horizontal,"(390.0, 762.0)",1.4,nan,0,1217.351,0
0,170,target,"[(1037, 801)]",[],[1],[0.25],horizontal,"(390.0, 262.0)",1.45,0.213,1,1222.355,1
0,171,target,"[(1026, 792)]",[],[1],[0.5166666666666666],horizontal,"(890.0, 262.0)",0.9833333333333333,0.474,1,1227.633,1
0,172,target,"[(1021, 800)]",[],[1],[0.85],horizontal,"(390.0, 762.0)",0.6,nan,0,1232.382,0
0,173,target,"[(1022, 794)]",[],[1],[0.6666666666666666],vertical,"(390.0, 762.0)",1.0166666666666666,0.619,1,1236.815,1
0,174,target,"[(1042, 802)]",[],[1],[0.65],vertical,"(890.0, 262.0)",1.0833333333333333,0.614,1,1242.376,1
0,175,target,"[(1016, 762)]",[],[1],[0.6666666666666666],vertical,"(390.0, 762.0)",1.0833333333333333,0.622,1,1247.355,2
0,176,target,"[(1060, 798)]",[],[1],[0.55],horizontal,"(390.0, 262.0)",1.5166666666666666,0.506,1,1253.097,2
0,177,target,"[(1033, 800)]",[],[1],[0.5],vertical,"(890.0, 762.0)",0.7833333333333333,0.462,1,1258.864,2
0,178,catch,"[(1017, 793)]",[],[1],[],vertical,"(890.0, 762.0)",1.6,nan,1,1264.315,2
0,179,target,"[(1023, 788)]",[],[1],[0.6166666666666667],horizontal,"(890.0, 762.0)",0.8,0.573,1,1269.263,3
0,180,target,"[(1019, 804)]",[],[1],[0.4666666666666667],horizontal,"(390.0, 262.0)",1.2,0.43,1,1274.665,3
0,181,catch,"[(1023, 802)]",[],[1],[],vertical,"(890.0, 762.0)",1.6,nan,1,1280.093,3
0,182,target,"[(1024, 799)]",[],[1],[0.5666666666666667],horizontal,"(390.0, 262.0)",0.9166666666666666,0.526,1,1285.915,3
0,183,target,"[(1005, 779)]",[],[1],[0.85],vertical,"(390.0, 762.0)",1.05,nan,0,1291.687,0
0,184,target,"[(997, 803), (1020, 800)]",[],"[0, 1]",[0.65],horizontal,"(390.0, 262.0)",0.9833333333333333,0.605,1,1296.782,1
0,185,target,"[(1037, 783)]",[],[1],[0.5333333333333333],vertical,"(890.0, 762.0)",0.9833333333333333,0.488,1,1302.743,1
0,186,catch,"[(1005, 787)]","[(999, 808)]",[1],[0.25],vertical,"(890.0, 762.0)",,"('bar', 0.267),nan",0,1307.365,0
0,187,target,"[(1025, 806)]",[],[1],[0.13333333333333333],horizontal,"(390.0, 762.0)",1.5166666666666666,0.099,0,1310.131,0
0,188,target,"[(1016, 805)]",[],[1],[0.7166666666666667],vertical,"(390.0, 262.0)",0.6666666666666666,0.671,1,1315.108,1
0,189,catch,"[(1037, 778)]",[],[1],[],vertical,"(390.0, 762.0)",1.6,nan,1,1319.43,1
0,190,catch,"[(1020, 790)]",[],[1],[],horizontal,"(890.0, 762.0)",1.6,nan,1,1324.537,2
0,191,target,"[(1024, 803)]",[],[1],[0.5833333333333334],vertical,"(390.0, 262.0)",0.55,0.538,1,1330.027,2
0,192,target,"[(1029, 777)]",[],[1],[0.6],horizontal,"(890.0, 262.0)",1.0,0.551,1,1335.066,2
0,193,target,"[(1024, 785)]",[],[1],[0.5333333333333333],horizontal,"(890.0, 262.0)",1.1,0.494,1,1340.481,2
0,194,target,"[(1036, 798)]",[],[1],[0.5666666666666667],vertical,"(390.0, 262.0)",0.8166666666666667,0.523,1,1346.215,3
0,195,target,"[(1037, 807)]",[],[1],[0.6333333333333333],vertical,"(390.0, 762.0)",0.55,0.585,1,1351.684,3
0,196,target,"[(1001, 809), (1024, 813)]",[],"[0, 1]",[0.85],vertical,"(390.0, 762.0)",0.7,nan,0,1356.727,0
0,197,target,"[(1002, 785), (1037, 770)]",[],"[0, 1]",[0.6166666666666667],vertical,"(890.0, 762.0)",0.6,0.57,1,1362.203,1
0,198,target,"[(1005, 799)]",[],[1],[0.2833333333333333],horizontal,"(890.0, 262.0)",1.5333333333333332,0.243,1,1368.015,1
0,199,target,"[(1039, 786)]",[],[1],[0.7166666666666667],horizontal,"(390.0, 762.0)",0.95,0.671,1,1373.46,2
0,200,target,"[(996, 780), (1005, 796)]",[],"[0, 1]",[0.6166666666666667],horizontal,"(890.0, 762.0)",0.8666666666666667,0.566,1,1379.024,2
0,201,target,"[(1038, 808)]",[],[1],[0.5],horizontal,"(390.0, 262.0)",1.4166666666666667,0.452,1,1384.901,2
0,202,catch,"[(1021, 787)]",[],[1],[],vertical,"(890.0, 762.0)",1.6,nan,1,1390.367,2
0,203,target,"[(1025, 804)]",[],[1],[0.5333333333333333],vertical,"(890.0, 762.0)",1.05,0.49,1,1395.614,3
0,204,target,"[(1025, 804)]",[],[1],[0.6166666666666667],vertical,"(890.0, 262.0)",0.6166666666666667,0.574,1,1401.432,3
0,205,target,"[(1040, 805)]",[],[1],[0.55],vertical,"(890.0, 262.0)",0.55,0.51,1,1406.882,3
0,206,target,"[(1021, 802)]",[],[1],[0.6],vertical,"(390.0, 262.0)",0.7333333333333333,0.554,1,1412.326,3
0,207,target,"[(1022, 790)]",[],[1],[0.85],horizontal,"(890.0, 262.0)",0.8833333333333333,nan,0,1417.631,0
0,208,catch,"[(1057, 848)]",[],[1],[],horizontal,"(890.0, 262.0)",1.6,nan,1,1422.519,1
0,209,target,"[(1040, 767)]",[],[1],[0.7333333333333333],vertical,"(390.0, 762.0)",1.15,0.686,1,1429.84,1
0,210,catch,"[(1035, 772)]",[],[1],[],horizontal,"(890.0, 262.0)",1.6,nan,1,1435.182,2
0,211,target,"[(1040, 774)]",[],[1],[0.5666666666666667],horizontal,"(390.0, 762.0)",1.25,0.523,1,1440.882,2
0,212,catch,"[(1034, 805)]",[],[1],[],vertical,"(390.0, 262.0)",1.6,nan,1,1446.549,2
0,213,catch,"[(1040, 778)]",[],[1],[],horizontal,"(890.0, 762.0)",1.6,nan,1,1451.848,2
0,214,target,"[(1027, 804)]",[],[1],[0.85],vertical,"(890.0, 262.0)",0.5166666666666666,nan,0,1457.649,0
0,215,catch,"[(1006, 778)]",[],[1],[],vertical,"(390.0, 262.0)",1.6,nan,1,1461.832,1
0,216,target,"[(1025, 791)]",[],[1],[0.45],vertical,"(390.0, 262.0)",1.4166666666666667,0.407,1,1466.945,1
0,217,target,"[(1038, 820)]",[],[1],[0.43333333333333335],horizontal,"(890.0, 262.0)",1.25,0.391,1,1472.449,2
0,218,target,"[(1041, 809)]",[],[1],[0.6333333333333333],vertical,"(390.0, 262.0)",1.2166666666666666,0.587,1,1478.155,2
0,219,target,"[(1038, 785)]",[],[1],[0.85],vertical,"(390.0, 762.0)",0.5166666666666666,nan,0,1483.659,0
0,220,target,"[(1026, 795)]",[],[1],[0.7333333333333333],horizontal,"(890.0, 262.0)",0.6166666666666667,0.689,1,1488.305,1
0,221,target,"[(1056, 801)]",[],[1],[0.5833333333333334],horizontal,"(890.0, 762.0)",1.1333333333333333,0.544,1,1493.041,1
0,222,target,"[(1040, 764)]",[],[1],[0.55],horizontal,"(890.0, 262.0)",0.6333333333333333,0.51,1,1498.458,2
0,223,catch,"[(1040, 785)]",[],[1],[],horizontal,"(890.0, 262.0)",1.6,nan,1,1503.181,2
0,224,target,"[(1037, 787)]",[],[1],[0.5166666666666666],vertical,"(390.0, 262.0)",1.1833333333333333,0.477,1,1508.302,2
0,225,target,"[(1037, 785)]",[],[1],[0.7666666666666666],horizontal,"(890.0, 762.0)",1.0333333333333332,0.719,1,1513.624,2
0,226,catch,"[(1017, 809)]",[],[1],[],vertical,"(890.0, 762.0)",1.6,nan,1,1519.211,3
0,227,target,"[(1013, 810)]",[],[1],[0.5166666666666666],horizontal,"(390.0, 262.0)",1.15,0.477,1,1524.843,3
0,228,target,"[(1037, 780)]",[],[1],[0.85],vertical,"(390.0, 262.0)",0.95,nan,0,1530.87,0
0,229,target,"[(1025, 789)]",[],[1],[0.36666666666666664],vertical,"(390.0, 262.0)",1.2666666666666666,0.329,1,1535.733,1
0,230,target,"[(1040, 805)]",[],[1],[],vertical,"(390.0, 262.0)",,"('cti', 1.159)",0,1540.731,0
0,231,catch,"[(1029, 773)]",[],[1],[],horizontal,"(390.0, 762.0)",1.6,nan,1,1545.407,1
0,232,catch,"[(1037, 805)]",[],[1],[],vertical,"(890.0, 262.0)",1.6,nan,1,1550.501,1
0,233,target,"[(1037, 807)]",[],[1],[0.65],vertical,"(390.0, 762.0)",0.8666666666666667,0.603,1,1556.051,2
0,234,target,"[(1036, 782)]",[],[1],[0.85],horizontal,"(890.0, 262.0)",0.5833333333333334,nan,0,1561.353,0
0,235,target,"[(1021, 799)]",[],[1],[0.6666666666666666],vertical,"(890.0, 262.0)",0.75,0.62,1,1565.948,1
0,236,target,"[(1052, 776)]",[],[1],[0.65],vertical,"(890.0, 262.0)",1.2,0.606,1,1571.085,1
0,237,target,"[(1043, 770)]",[],[1],[0.85],horizontal,"(390.0, 262.0)",0.8,nan,0,1576.133,0
0,238,target,"[(1022, 810)]",[],[1],[0.48333333333333334],horizontal,"(890.0, 762.0)",1.3333333333333333,0.439,1,1580.783,1
0,239,target,"[(1025, 779)]",[],[1],[0.85],horizontal,"(890.0, 262.0)",1.0833333333333333,nan,0,1585.904,0
0,240,target,"[(995, 778), (1012, 805)]",[],"[0, 1]",[0.6666666666666666],vertical,"(890.0, 762.0)",0.8,0.62,1,1590.815,1
0,241,target,"[(1040, 777)]",[],[1],[0.85],horizontal,"(890.0, 762.0)",0.6833333333333333,nan,0,1597.353,0
0,242,target,"[(997, 813), (998, 829), (1033, 860)]",[],"[0, 0, 1]",[0.85],horizontal,"(390.0, 762.0)",0.5166666666666666,nan,0,1601.8,0
0,243,target,"[(1041, 829)]",[],[1],[0.5833333333333334],horizontal,"(890.0, 762.0)",0.55,0.551,1,3270.839,1
0,244,target,"[(1037, 788)]",[],[1],[0.6],horizontal,"(890.0, 762.0)",1.1333333333333333,0.557,1,3276.44,1
0,245,target,"[(1017, 815)]",[],[1],[0.5],horizontal,"(390.0, 262.0)",0.6833333333333333,0.459,1,3282.103,2
0,246,target,"[(1029, 803)]",[],[1],[0.16666666666666666],horizontal,"(390.0, 762.0)",1.2666666666666666,0.134,0,3287.088,0
0,247,target,"[(1017, 794)]",[],[1],[0.6333333333333333],vertical,"(890.0, 762.0)",1.2666666666666666,0.6,1,3292.021,1
0,248,target,"[(1035, 791)]",[],[1],[0.2833333333333333],vertical,"(890.0, 762.0)",1.5166666666666666,0.252,1,3297.507,1
0,249,target,"[(1041, 790)]",[],[1],[0.5333333333333333],vertical,"(890.0, 262.0)",1.1166666666666667,0.498,1,3302.83,2
0,250,target,"[(1037, 775)]",[],[1],[0.65],vertical,"(390.0, 762.0)",1.05,0.606,1,3308.487,2
0,251,target,"[(1037, 786)]",[],[1],[0.55],vertical,"(890.0, 762.0)",1.2333333333333334,0.51,1,3314.205,2
0,252,target,"[(1041, 779)]",[],[1],[0.4666666666666667],vertical,"(890.0, 762.0)",1.5833333333333333,0.425,1,3319.971,2
0,253,target,"[(1037, 786)]",[],[1],[0.6166666666666667],horizontal,"(890.0, 762.0)",0.7166666666666667,0.576,1,3325.421,3
0,254,target,"[(1041, 765)]",[],[1],[],horizontal,"(890.0, 762.0)",,"('cti', 1.583)",0,3331.055,0
0,255,target,"[(1039, 790)]",[],[1],[0.16666666666666666],horizontal,"(390.0, 762.0)",1.5166666666666666,0.132,0,3335.986,0
0,256,target,"[(1017, 794)]",[],[1],[0.5333333333333333],vertical,"(890.0, 762.0)",0.6833333333333333,0.496,1,3340.991,1
0,257,target,"[(1027, 782)]",[],[1],[0.55],vertical,"(390.0, 262.0)",0.8166666666666667,0.506,1,3345.67,1
0,258,target,"[(1053, 779)]",[],[1],[0.7166666666666667],vertical,"(390.0, 262.0)",1.0,0.674,1,3350.736,2
0,259,target,"[(1041, 790)]",[],[1],[0.5333333333333333],vertical,"(890.0, 262.0)",0.65,0.5,1,3356.371,2
0,260,target,"[(1076, 789)]",[],[1],[0.5333333333333333],horizontal,"(390.0, 762.0)",0.8833333333333333,0.496,1,3361.206,2
0,261,target,"[(1041, 769)]",[],[1],[0.5833333333333334],horizontal,"(890.0, 762.0)",0.8333333333333334,0.536,1,3366.138,2
0,262,target,"[(1020, 765)]",[],[1],[0.48333333333333334],vertical,"(890.0, 262.0)",1.0666666666666667,0.452,1,3371.453,3
0,263,target,"[(1049, 794)]",[],[1],[0.23333333333333334],vertical,"(390.0, 762.0)",1.55,0.193,0,3377.957,0
0,264,target,"[(1022, 768)]",[],[1],[0.5166666666666666],vertical,"(390.0, 262.0)",0.9166666666666666,0.474,1,3383.009,1
0,265,target,"[(1037, 781)]",[],[1],[0.85],vertical,"(890.0, 262.0)",0.8166666666666667,nan,0,3388.188,0
0,266,target,"[(1017, 755)]",[],[1],[0.6],horizontal,"(890.0, 762.0)",1.15,0.558,1,3392.734,1
0,267,target,"[(1040, 799)]",[],[1],[0.65],vertical,"(890.0, 762.0)",0.6666666666666666,0.608,1,3401.307,1
0,268,target,"[(1041, 778)]",[],[1],[0.48333333333333334],horizontal,"(890.0, 262.0)",1.0333333333333332,0.444,1,3405.918,2
0,269,target,"[(1045, 773)]",[],[1],[0.5666666666666667],vertical,"(890.0, 762.0)",0.8,0.529,1,3411.16,2
0,270,target,"[(1041, 785)]",[],[1],[0.85],vertical,"(390.0, 762.0)",0.6833333333333333,nan,0,3416.614,0
0,271,target,"[(1002, 769), (1013, 821)]",[],"[0, 1]",[0.35],horizontal,"(390.0, 262.0)",1.45,0.315,1,3421.038,1
0,272,catch,"[(1024, 775)]",[],[1],[],horizontal,"(390.0, 262.0)",1.6,nan,1,3430.432,1
0,273,target,"[(1041, 779)]",[],[1],[0.7333333333333333],vertical,"(390.0, 762.0)",1.1166666666666667,0.69,1,3436.057,2
0,274,target,"[(1060, 775)]",[],[1],[0.5333333333333333],vertical,"(390.0, 262.0)",1.25,0.493,1,3441.856,2
0,275,target,"[(1047, 785)]",[],[1],[0.3833333333333333],vertical,"(390.0, 262.0)",0.8333333333333334,0.343,1,3447.486,2
0,276,target,"[(1041, 782)]",[],[1],[0.75],vertical,"(390.0, 762.0)",0.5666666666666667,0.709,1,3452.688,2
0,277,target,"[(1041, 790)]",[],[1],[0.85],horizontal,"(890.0, 262.0)",0.6166666666666667,nan,0,3457.971,0
0,278,catch,"[(1041, 770)]",[],[1],[],horizontal,"(890.0, 262.0)",1.6,nan,1,3462.527,1
0,279,target,"[(1052, 787)]",[],[1],[0.5666666666666667],horizontal,"(390.0, 762.0)",1.0166666666666666,0.527,1,3467.656,1
0,280,catch,"[(1047, 778)]",[],[1],[],horizontal,"(890.0, 762.0)",1.6,nan,1,3472.655,2
0,281,target,"[(1052, 805)]",[],[1],[0.36666666666666664],vertical,"(890.0, 262.0)",1.3833333333333333,0.33,1,3477.838,2
0,282,target,"[(1060, 795)]",[],[1],[0.85],vertical,"(390.0, 762.0)",0.7,nan,0,3483.48,0
0,283,target,"[(1045, 767)]",[],[1],[0.6],vertical,"(890.0, 262.0)",1.1,0.565,1,3488.19,1
0,284,catch,"[(1044, 780)]",[],[1],[],horizontal,"(890.0, 762.0)",1.6,nan,1,3493.512,1
0,285,target,"[(1045, 795)]",[],[1],[0.3],horizontal,"(390.0, 762.0)",1.5333333333333332,0.264,1,3498.238,2
0,286,target,"[(1045, 791)]",[],[1],[],horizontal,"(390.0, 762.0)",,"('cti', 1.259)",0,3505.356,0
0,287,target,"[(1045, 791)]",[],[1],[0.5],vertical,"(390.0, 262.0)",0.6333333333333333,0.467,1,3510.089,1
0,288,catch,"[(1045, 769)]",[],[1],[],horizontal,"(890.0, 262.0)",1.6,nan,1,3515.047,1
0,289,target,"[(1045, 765)]",[],[1],[0.85],vertical,"(890.0, 762.0)",0.5666666666666667,nan,0,3520.047,0
0,290,target,"[(1045, 770)]",[],[1],[0.6833333333333333],vertical,"(890.0, 262.0)",1.2666666666666666,0.637,1,3524.825,1
0,291,target,"[(1045, 793)]",[],[1],[0.5166666666666666],horizontal,"(890.0, 262.0)",0.8833333333333333,0.475,1,3530.008,1
0,292,target,"[(1057, 788)]",[],[1],[0.5166666666666666],vertical,"(890.0, 262.0)",0.55,0.483,1,3534.839,2
0,293,target,"[(1056, 812)]",[],[1],[0.4166666666666667],vertical,"(390.0, 762.0)",1.3333333333333333,0.383,1,3540.012,2
0,294,target,"[(1053, 776)]",[],[1],[0.6],horizontal,"(390.0, 762.0)",0.9833333333333333,0.56,1,3545.587,2
0,295,target,"[(1033, 785)]",[],[1],[0.5333333333333333],vertical,"(890.0, 762.0)",0.75,0.503,1,3550.973,2
0,296,catch,"[(1035, 783)]",[],[1],[],vertical,"(890.0, 262.0)",1.6,nan,1,3556.123,3
0,297,target,"[(1035, 790)]",[],[1],[0.6],horizontal,"(390.0, 262.0)",0.6333333333333333,0.561,1,3562.056,3
0,298,target,"[(1036, 805)]",[],[1],[0.5166666666666666],vertical,"(390.0, 262.0)",1.4166666666666667,0.479,1,3567.356,3
0,299,target,"[(1033, 809)]",[],[1],[0.6333333333333333],horizontal,"(390.0, 762.0)",0.5666666666666667,0.591,1,3573.281,3
0,300,target,"[(1021, 799)]",[],[1],[0.5166666666666666],vertical,"(390.0, 762.0)",1.3333333333333333,0.486,1,3578.744,3
0,301,catch,"[(1028, 799)]",[],[1],[],vertical,"(890.0, 762.0)",,"('cti', 1.549),nan",0,3584.476,0
0,302,target,"[(1017, 809)]",[],[1],[0.31666666666666665],vertical,"(890.0, 262.0)",1.3166666666666667,0.281,1,3589.146,1
0,303,catch,"[(1033, 786)]",[],[1],[],horizontal,"(890.0, 762.0)",1.6,nan,1,3594.469,1
0,304,catch,"[(1030, 798)]",[],[1],[],horizontal,"(890.0, 762.0)",1.6,nan,1,3599.657,2
0,305,target,"[(1038, 791)]",[],[1],[0.3333333333333333],vertical,"(390.0, 262.0)",1.2,0.292,1,3605.339,2
0,306,target,"[(1027, 816)]",[],[1],[0.35],horizontal,"(890.0, 762.0)",1.4166666666666667,0.309,1,3610.785,2
0,307,target,"[(1039, 823)]",[],[1],[0.5],vertical,"(390.0, 762.0)",0.9666666666666667,0.458,1,3616.065,2
0,308,target,"[(1037, 805)]",[],[1],[0.5666666666666667],vertical,"(390.0, 262.0)",0.7,0.533,1,3621.637,3
0,309,target,"[(1045, 800)]",[],[1],[0.5166666666666666],vertical,"(890.0, 762.0)",1.05,0.478,1,3626.776,3
0,310,target,"[(1038, 784)]",[],[1],[],horizontal,"(390.0, 262.0)",,"('cti', 1.128)",0,3632.572,0
0,311,catch,"[(1033, 806)]",[],[1],[],vertical,"(890.0, 262.0)",1.6,nan,1,3637.172,1
0,312,target,"[(1018, 791)]",[],[1],[0.45],vertical,"(390.0, 262.0)",1.3,0.408,1,3641.968,1
0,313,target,"[(1033, 781)]",[],[1],[0.2833333333333333],horizontal,"(390.0, 262.0)",1.3666666666666667,0.245,1,3646.965,2
0,314,catch,"[(1047, 787)]",[],[1],[],horizontal,"(890.0, 762.0)",1.6,nan,1,3652.448,2
0,315,target,"[(1047, 791)]",[],[1],[0.6166666666666667],horizontal,"(390.0, 262.0)",1.25,0.574,1,3658.072,2
0,316,target,"[(1053, 790)]",[],[1],[0.25],vertical,"(390.0, 762.0)",1.5166666666666666,0.214,1,3663.823,2
0,317,target,"[(1038, 783)]",[],[1],[0.6],vertical,"(890.0, 762.0)",1.1166666666666667,0.563,1,3669.734,3
0,318,target,"[(1035, 790)]",[],[1],[0.48333333333333334],horizontal,"(390.0, 262.0)",1.15,0.449,1,3675.488,3
0,319,target,"[(1041, 785)]",[],[1],[0.08333333333333333],horizontal,"(890.0, 262.0)",1.2333333333333334,0.052,0,3681.175,0
0,320,target,"[(1028, 778)]",[],[1],[0.45],vertical,"(890.0, 262.0)",1.2666666666666666,0.41,1,3685.784,1
0,321,catch,"[(1049, 789)]",[],[1],[],horizontal,"(890.0, 262.0)",1.6,nan,1,3691.19,1
0,322,target,"[(1036, 786)]",[],[1],[0.23333333333333334],vertical,"(890.0, 762.0)",1.4333333333333333,0.199,0,3695.824,0
0,323,target,"[(1037, 773)]",[],[1],[0.85],vertical,"(390.0, 262.0)",0.8166666666666667,nan,0,3700.407,0
0,324,target,"[(1016, 781)]",[],[1],[0.15],vertical,"(890.0, 762.0)",1.55,0.115,0,3705.276,0
0,325,target,"[(1021, 791)]",[],[1],[0.6333333333333333],vertical,"(890.0, 262.0)",0.7666666666666666,0.584,1,3709.564,1
0,326,catch,"[(1025, 805)]",[],[1],[],horizontal,"(890.0, 262.0)",1.6,nan,1,3714.348,1
0,327,target,"[(1033, 799)]",[],[1],[0.5],vertical,"(890.0, 762.0)",1.1166666666666667,0.46,1,3719.179,2
0,328,target,"[(1019, 794)]",[],[1],[0.5833333333333334],vertical,"(890.0, 762.0)",0.6666666666666666,0.545,1,3724.375,2
0,329,target,"[(1055, 808)]",[],[1],[0.18333333333333332],horizontal,"(890.0, 262.0)",1.3,0.151,0,3729.956,0
0,330,target,"[(1023, 785)]",[],[1],[0.5],vertical,"(390.0, 762.0)",1.1333333333333333,0.458,1,3734.841,1
0,331,target,"[(1022, 778)]",[],[1],[0.5],horizontal,"(390.0, 262.0)",0.9333333333333333,0.468,1,3740.106,1
0,332,target,"[(1057, 804)]",[],[1],[0.55],horizontal,"(390.0, 762.0)",1.1166666666666667,0.508,1,3745.257,2
0,333,target,"[(1048, 788)]",[],[1],[0.6833333333333333],vertical,"(390.0, 762.0)",0.9666666666666667,0.637,1,3750.49,2
0,334,target,"[(1021, 806)]",[],[1],[0.5333333333333333],horizontal,"(390.0, 262.0)",0.6666666666666666,0.498,1,3755.864,2
0,335,catch,"[(1038, 800)]",[],[1],[],vertical,"(890.0, 262.0)",1.6,nan,1,3761.23,2
0,336,target,"[(1041, 777)]",[],[1],[0.4],horizontal,"(890.0, 262.0)",1.0166666666666666,0.359,1,3766.512,3
0,337,target,"[(1033, 790)]",[],[1],[],vertical,"(390.0, 262.0)",,"('cti', 1.08)",0,3772.195,0
0,338,target,"[(1019, 795)]",[],[1],[],horizontal,"(390.0, 762.0)",,"('cti', 0.943)",0,3776.36,0
0,339,target,"[(1016, 798)]",[],[1],[],horizontal,"(390.0, 762.0)",,"('cti', 1.328)",0,3780.334,0
0,340,target,"[(1039, 785)]",[],[1],[0.48333333333333334],horizontal,"(390.0, 762.0)",1.0833333333333333,0.451,1,3785.203,1
0,341,target,"[(1054, 799)]",[],[1],[0.6833333333333333],vertical,"(890.0, 262.0)",0.8833333333333333,0.643,1,3791.299,1
0,342,target,"[(1038, 773)]",[],[1],[0.48333333333333334],vertical,"(390.0, 762.0)",1.2333333333333334,0.445,1,3796.14,2
0,343,target,"[(1039, 787)]",[],[1],[0.6666666666666666],vertical,"(390.0, 262.0)",0.8166666666666667,0.634,1,3801.407,2
0,344,catch,"[(1039, 780)]",[],[1],[],horizontal,"(890.0, 762.0)",1.6,"('cti', 1.6),nan",0,3806.523,0
0,345,catch,"[(1033, 802)]",[],[1],[],horizontal,"(390.0, 262.0)",,"('cti', 1.548),nan",0,3811.207,0
0,346,target,"[(1027, 799)]",[],[1],[0.55],horizontal,"(890.0, 762.0)",1.15,0.507,1,3815.972,1
0,347,target,"[(1038, 774)]",[],[1],[0.4166666666666667],vertical,"(390.0, 762.0)",1.3833333333333333,0.377,1,3820.817,1
0,348,catch,"[(1039, 774)]",[],[1],[],vertical,"(890.0, 262.0)",,"('cti', 1.582),nan",0,3826.146,0
0,349,target,"[(1038, 804)]",[],[1],[0.55],vertical,"(390.0, 762.0)",1.1333333333333333,0.517,1,3830.99,1
0,350,target,"[(1039, 799)]",[],[1],[0.3333333333333333],horizontal,"(890.0, 262.0)",1.4,0.294,1,3835.938,1
0,351,target,"[(1038, 795)]",[],[1],[0.85],vertical,"(890.0, 762.0)",0.5833333333333334,nan,0,3840.706,0
0,352,target,"[(1037, 811)]",[],[1],[0.85],horizontal,"(890.0, 762.0)",0.9,nan,0,3845.336,0
0,353,target,"[(989, 806), (1013, 813)]",[],"[0, 1]",[0.5],vertical,"(890.0, 762.0)",1.0833333333333333,0.465,1,3864.89,1
0,354,target,"[(1024, 765)]",[],[1],[0.48333333333333334],horizontal,"(390.0, 262.0)",1.0833333333333333,0.443,1,3871.544,1
0,355,target,"[(1037, 782)]",[],[1],[0.3833333333333333],horizontal,"(890.0, 262.0)",1.4333333333333333,0.348,1,3876.445,2
0,356,catch,"[(1038, 799)]",[],[1],[],horizontal,"(390.0, 262.0)",,"('cti', 1.206),nan",0,3881.9,0
0,357,target,"[(1030, 785)]",[],[1],[0.48333333333333334],vertical,"(390.0, 762.0)",1.45,0.442,1,3886.613,1
0,358,target,"[(1038, 775)]",[],[1],[0.55],horizontal,"(890.0, 762.0)",0.7833333333333333,0.508,1,3891.576,1
0,359,target,"[(1038, 773)]",[],[1],[0.35],horizontal,"(890.0, 762.0)",1.4333333333333333,0.316,1,3896.082,2
0,360,target,"[(1040, 798)]",[],[1],[0.25],horizontal,"(890.0, 262.0)",1.5166666666666666,0.213,1,3901.523,2
0,361,target,"[(1025, 787)]",[],[1],[0.43333333333333335],vertical,"(890.0, 262.0)",1.3833333333333333,0.396,1,3907.391,2
0,362,target,"[(1038, 811)]",[],[1],[0.65],vertical,"(890.0, 262.0)",1.0333333333333332,0.608,1,3913.44,2
0,363,target,"[(1038, 799)]",[],[1],[0.5166666666666666],vertical,"(390.0, 262.0)",1.4666666666666666,0.473,1,3918.572,3
0,364,catch,"[(1045, 810)]",[],[1],[],horizontal,"(890.0, 262.0)",,"('cti', 1.228),nan",0,3924.442,0
0,365,catch,"[(1045, 790)]",[],[1],[],vertical,"(390.0, 762.0)",1.6,nan,1,3929.057,1
0,366,target,"[(1037, 783)]",[],[1],[0.6666666666666666],horizontal,"(390.0, 262.0)",0.6666666666666666,0.627,1,3933.919,1
0,367,target,"[(1033, 794)]",[],[1],[0.5666666666666667],vertical,"(890.0, 762.0)",0.9833333333333333,0.529,1,3938.722,2
0,368,target,"[(1025, 809)]",[],[1],[0.85],vertical,"(390.0, 262.0)",0.8666666666666667,nan,0,3944.375,0
0,369,target,"[(1017, 812)]",[],[1],[0.4166666666666667],vertical,"(390.0, 762.0)",0.8833333333333333,0.38,1,3948.99,1
0,370,target,"[(1037, 787)]",[],[1],[0.05],horizontal,"(890.0, 762.0)",1.5833333333333333,0.019,0,3953.706,0
0,371,target,"[(1025, 793)]",[],[1],[0.5666666666666667],horizontal,"(390.0, 262.0)",0.5333333333333333,0.527,1,3958.769,1
0,372,target,"[(1037, 799)]",[],[1],[0.6333333333333333],vertical,"(890.0, 762.0)",1.0666666666666667,0.594,1,3963.108,1
0,373,target,"[(1031, 777)]",[],[1],[0.6166666666666667],horizontal,"(890.0, 762.0)",0.7833333333333333,0.571,1,3968.367,2
0,374,target,"[(1036, 790)]",[],[1],[0.5666666666666667],horizontal,"(890.0, 762.0)",0.9166666666666666,0.521,1,3973.993,2
0,375,target,"[(1038, 802)]",[],[1],[0.6833333333333333],horizontal,"(890.0, 762.0)",1.0166666666666666,0.647,1,3979.357,2
0,376,target,"[(1037, 795)]",[],[1],[0.85],horizontal,"(890.0, 262.0)",0.7,nan,0,3984.491,0
0,377,target,"[(1035, 800)]",[],[1],[0.65],vertical,"(890.0, 762.0)",0.5333333333333333,0.606,1,3988.991,1
0,378,catch,"[(1037, 792)]",[],[1],[],vertical,"(390.0, 762.0)",1.6,nan,1,3993.791,1
0,379,target,"[(1031, 775)]",[],[1],[0.25],horizontal,"(390.0, 262.0)",1.45,0.213,1,3998.588,2
0,380,target,"[(1033, 805)]",[],[1],[0.5166666666666666],horizontal,"(390.0, 762.0)",1.1166666666666667,0.477,1,4004.26,2
0,381,target,"[(1038, 792)]",[],[1],[0.5333333333333333],horizontal,"(390.0, 262.0)",1.0833333333333333,0.491,1,4009.825,2
0,382,target,"[(1033, 778)]",[],[1],[0.5],horizontal,"(390.0, 762.0)",1.2166666666666666,0.459,1,4014.742,2
0,383,target,"[(1040, 811)]",[],[1],[0.6333333333333333],vertical,"(890.0, 762.0)",0.55,0.588,1,4020.073,3
0,384,target,"[(1025, 791)]",[],[1],[0.5333333333333333],vertical,"(890.0, 262.0)",1.1,0.501,1,4025.326,3
0,385,target,"[(1033, 800)]",[],[1],[0.5833333333333334],vertical,"(890.0, 262.0)",0.55,0.541,1,4031.016,3
0,386,target,"[(1001, 794), (1001, 801), (1017, 814)]",[],"[0, 0, 1]",[0.85],horizontal,"(390.0, 762.0)",1.0666666666666667,nan,0,4036.539,0
0,387,target,"[(1033, 816)]",[],[1],[0.15],horizontal,"(890.0, 262.0)",1.0833333333333333,0.118,0,4045.125,0
0,388,target,"[(1033, 804)]",[],[1],[0.85],horizontal,"(890.0, 762.0)",1.0,"('cti', 1.0),nan",0,4086.208,0
0,389,target,"[(1039, 804)]",[],[1],[0.85],vertical,"(390.0, 762.0)",0.7333333333333333,nan,0,4091.342,0
0,390,target,"[(1023, 791)]",[],[1],[0.5166666666666666],vertical,"(890.0, 262.0)",0.85,0.476,1,4095.59,1
0,391,target,"[(1040, 813)]",[],[1],[0.08333333333333333],vertical,"(390.0, 262.0)",0.9,0.053,0,4100.592,0
0,392,target,"[(1043, 799)]",[],[1],[0.5666666666666667],horizontal,"(390.0, 262.0)",0.6833333333333333,0.523,1,4104.877,1
0,393,target,"[(1036, 789)]",[],[1],[0.55],vertical,"(390.0, 262.0)",1.1,0.508,1,4109.682,1
0,394,catch,"[(1033, 800)]",[],[1],[],horizontal,"(890.0, 762.0)",,"('cti', 1.499),nan",0,4114.825,0
0,395,target,"[(1018, 787)]",[],[1],[0.4666666666666667],horizontal,"(890.0, 262.0)",0.7833333333333333,0.424,1,4119.707,1
0,396,target,"[(1028, 809)]",[],[1],[0.31666666666666665],vertical,"(890.0, 262.0)",1.3166666666666667,0.277,1,4124.342,1
0,397,target,"[(1019, 778)]",[],[1],[0.43333333333333335],vertical,"(890.0, 762.0)",1.2166666666666666,0.395,1,4130.207,2
0,398,target,"[(1044, 809)]",[],[1],[0.5833333333333334],vertical,"(890.0, 762.0)",0.7666666666666666,0.544,1,4135.441,2
0,399,target,"[(1021, 804)]",[],[1],[0.48333333333333334],vertical,"(390.0, 262.0)",1.5666666666666667,0.442,1,4140.707,2
0,400,target,"[(1029, 785)]",[],[1],[0.85],horizontal,"(890.0, 762.0)",0.6166666666666667,nan,0,4146.289,0
0,401,target,"[(997, 809), (1024, 819)]",[],"[0, 1]",[0.4666666666666667],vertical,"(390.0, 262.0)",1.25,0.426,1,4150.892,1
0,402,target,"[(1037, 756)]",[],[1],[0.6166666666666667],horizontal,"(890.0, 762.0)",1.2,0.575,1,4156.896,1
0,403,target,"[(1033, 776)]",[],[1],[0.5333333333333333],vertical,"(390.0, 762.0)",0.85,0.497,1,4161.946,2
0,404,target,"[(1033, 785)]",[],[1],[0.31666666666666665],vertical,"(390.0, 262.0)",1.4,0.277,1,4167.009,2
0,405,target,"[(1044, 799)]",[],[1],[0.5833333333333334],horizontal,"(890.0, 762.0)",0.9666666666666667,0.543,1,4172.261,2
0,406,target,"[(1040, 800)]",[],[1],[],vertical,"(890.0, 262.0)",,"('cti', 0.477)",0,4177.657,0
0,407,target,"[(1021, 784)]",[],[1],[0.4],horizontal,"(390.0, 262.0)",1.3333333333333333,0.362,1,4181.624,1
0,408,target,"[(1035, 787)]",[],[1],[0.4666666666666667],vertical,"(890.0, 262.0)",0.9333333333333333,0.422,1,4186.935,1
0,409,catch,"[(1037, 775)]",[],[1],[],horizontal,"(390.0, 262.0)",1.6,nan,1,4191.49,2
0,410,catch,"[(1062, 790)]",[],[1],[],horizontal,"(390.0, 262.0)",1.6,nan,1,4196.708,2
0,411,target,"[(1065, 816)]",[],[1],[0.5166666666666666],horizontal,"(890.0, 762.0)",0.8333333333333334,0.476,1,4201.977,2
0,412,target,"[(1063, 795)]",[],[1],[0.45],horizontal,"(890.0, 262.0)",1.2,0.409,1,4207.358,2
0,413,catch,"[(1031, 801)]",[],[1],[],vertical,"(390.0, 762.0)",1.6,nan,1,4213.011,3
0,414,target,"[(1057, 773)]",[],[1],[0.3333333333333333],horizontal,"(390.0, 762.0)",1.4166666666666667,0.298,1,4219.074,3
0,415,target,"[(1022, 780)]",[],[1],[0.5666666666666667],vertical,"(890.0, 262.0)",1.4833333333333334,0.521,1,4225.111,3
0,416,target,"[(1033, 795)]",[],[1],[0.55],vertical,"(890.0, 762.0)",1.05,0.506,1,4231.094,3
0,417,target,"[(1029, 777)]",[],[1],[0.5166666666666666],horizontal,"(390.0, 262.0)",1.1,0.476,1,4237.159,3
0,418,target,"[(1033, 791)]",[],[1],[0.7166666666666667],horizontal,"(890.0, 762.0)",1.1333333333333333,0.677,1,4242.903,3
0,419,target,"[(1030, 796)]",[],[1],[0.6],vertical,"(390.0, 262.0)",1.2166666666666666,0.568,1,4248.655,3
0,420,target,"[(1052, 803)]",[],[1],[0.85],horizontal,"(390.0, 762.0)",0.8166666666666667,nan,0,4254.432,0
0,421,target,"[(1029, 796)]",[],[1],[0.55],horizontal,"(890.0, 262.0)",1.3333333333333333,0.506,1,4258.887,1
0,422,catch,"[(1055, 812)]",[],[1],[],horizontal,"(890.0, 262.0)",1.6,nan,1,4264.042,1
0,423,target,"[(1029, 810)]",[],[1],[0.6166666666666667],horizontal,"(890.0, 762.0)",1.0,0.566,1,4269.141,2
0,424,target,"[(1065, 786)]",[],[1],[],vertical,"(390.0, 262.0)",,"('fix', 0.412)",0,4274.459,0
0,425,target,"[(1057, 843)]",[],[1],[0.5],vertical,"(890.0, 262.0)",0.8833333333333333,0.458,1,4276.282,1
0,426,target,"[(1052, 806)]",[],[1],[0.6333333333333333],horizontal,"(890.0, 762.0)",1.0666666666666667,0.592,1,4280.715,1
0,427,catch,"[(1035, 785)]",[],[1],[],vertical,"(890.0, 262.0)",,"('cti', 1.429),nan",0,4285.675,0
0,428,target,"[(1033, 780)]",[],[1],[0.5833333333333334],vertical,"(390.0, 262.0)",1.2,0.539,1,4290.408,1
0,429,target,"[(1021, 803)]",[],[1],[0.4666666666666667],horizontal,"(890.0, 262.0)",0.95,0.438,1,4295.426,1
0,430,target,"[(1050, 790)]",[],[1],[0.48333333333333334],vertical,"(890.0, 762.0)",1.35,0.443,1,4299.757,2
0,431,target,"[(1041, 782)]",[],[1],[0.6666666666666666],vertical,"(390.0, 262.0)",0.55,0.62,1,4305.041,2
0,432,target,"[(1033, 789)]",[],[1],[0.5833333333333334],horizontal,"(390.0, 262.0)",1.1166666666666667,0.541,1,4310.276,2
0,433,target,"[(1037, 792)]",[],[1],[0.85],horizontal,"(390.0, 762.0)",1.0,nan,0,4315.542,0
0,434,target,"[(1013, 780)]",[],[1],[0.6],vertical,"(390.0, 262.0)",1.1666666666666667,0.56,1,4320.309,1
0,435,target,"[(1057, 771)]",[],[1],[0.5],horizontal,"(890.0, 262.0)",0.85,0.46,1,4325.278,1
0,436,target,"[(1038, 795)]",[],[1],[0.5],horizontal,"(890.0, 762.0)",1.0833333333333333,0.457,1,4330.36,2
0,437,target,"[(1030, 785)]",[],[1],[0.5333333333333333],vertical,"(890.0, 762.0)",0.7833333333333333,0.492,1,4335.491,2
0,438,target,"[(1045, 771)]",[],[1],[0.4166666666666667],vertical,"(390.0, 762.0)",1.5333333333333332,0.377,1,4340.624,2
0,439,catch,"[(1033, 766)]",[],[1],[],horizontal,"(890.0, 262.0)",1.6,nan,1,4346.32,2
0,440,target,"[(1028, 790)]",[],[1],[],horizontal,"(390.0, 762.0)",,"('cti', 1.064)",0,4351.87,0
0,441,target,"[(1029, 806)]",[],[1],[0.85],vertical,"(390.0, 762.0)",0.7166666666666667,nan,0,4356.425,0
0,442,target,"[(1040, 788)]",[],[1],[0.3833333333333333],horizontal,"(390.0, 262.0)",1.5166666666666666,0.342,1,4360.925,1
0,443,catch,"[(1021, 781)]",[],[1],[],vertical,"(390.0, 762.0)",,"('cti', 1.525),nan",0,4366.376,0
0,444,target,"[(1024, 804)]",[],[1],[0.43333333333333335],horizontal,"(890.0, 262.0)",1.4666666666666666,0.393,1,4371.271,1
0,445,catch,"[(1025, 791)]",[],[1],[],vertical,"(890.0, 262.0)",1.6,nan,1,4376.147,1
0,446,catch,"[(1022, 772)]",[],[1],[],vertical,"(390.0, 762.0)",1.6,nan,1,4381.157,2
0,447,target,"[(1051, 806)]",[],[1],[0.65],horizontal,"(890.0, 762.0)",0.7,0.607,1,4386.789,2
0,448,catch,"[(1039, 807)]",[],[1],[],horizontal,"(890.0, 262.0)",1.6,nan,1,4391.843,2
0,449,target,"[(1037, 785)]",[],[1],[0.55],horizontal,"(890.0, 262.0)",0.6333333333333333,0.501,1,4397.384,2
0,450,target,"[(1036, 788)]",[],[1],[0.5166666666666666],horizontal,"(890.0, 262.0)",1.0833333333333333,0.473,1,4402.649,3
0,451,target,"[(1033, 787)]",[],[1],[0.6],vertical,"(890.0, 762.0)",1.0,0.555,1,4408.758,3
0,452,target,"[(1049, 793)]",[],[1],[0.85],vertical,"(890.0, 762.0)",0.5666666666666667,nan,0,4414.144,0
0,453,target,"[(1020, 802)]",[],[1],[0.6833333333333333],horizontal,"(390.0, 762.0)",0.5,0.638,1,4418.876,1
0,454,target,"[(1030, 805)]",[],[1],[0.16666666666666666],horizontal,"(390.0, 762.0)",1.5833333333333333,0.136,0,4423.384,0
0,455,target,"[(1018, 802)]",[],[1],[0.35],horizontal,"(890.0, 262.0)",1.4833333333333334,0.314,1,4428.042,1
0,456,catch,"[(1047, 777)]",[],[1],[],vertical,"(890.0, 762.0)",1.6,nan,1,4433.23,1
0,457,target,"[(1047, 785)]",[],[1],[0.5],vertical,"(890.0, 262.0)",0.95,0.462,1,4438.063,2
0,458,target,"[(1025, 782)]",[],[1],[0.7],vertical,"(390.0, 762.0)",0.9833333333333333,0.652,1,4442.947,2
0,459,target,"[(1033, 769)]",[],[1],[0.31666666666666665],horizontal,"(890.0, 262.0)",1.5833333333333333,0.277,1,4448.7,2
0,460,catch,"[(1025, 779)]",[],[1],[],horizontal,"(890.0, 262.0)",1.6,nan,1,4454.359,2
0,461,catch,"[(1017, 793)]",[],[1],[],horizontal,"(390.0, 762.0)",1.6,nan,1,4459.859,3
0,462,target,"[(1035, 781)]",[],[1],[0.5833333333333334],horizontal,"(890.0, 262.0)",0.7166666666666667,0.544,1,4465.968,3
0,463,catch,"[(1029, 790)]",[],[1],[],horizontal,"(890.0, 762.0)",1.6,nan,1,4471.792,3
0,464,target,"[(1033, 802)]",[],[1],[0.45],horizontal,"(890.0, 262.0)",1.1666666666666667,0.411,1,4478.075,3
0,465,target,"[(1029, 795)]",[],[1],[0.55],horizontal,"(390.0, 262.0)",1.15,0.51,1,4483.793,3
0,466,target,"[(1037, 771)]",[],[1],[0.2],vertical,"(890.0, 762.0)",1.3333333333333333,0.17,0,4489.493,0
0,467,target,"[(1021, 785)]",[],[1],[0.5666666666666667],vertical,"(390.0, 262.0)",0.8833333333333333,0.522,1,4494.614,1
0,468,target,"[(1034, 785)]",[],[1],[0.5833333333333334],horizontal,"(890.0, 262.0)",1.0,0.541,1,4499.004,1
0,469,target,"[(1033, 773)]",[],[1],[0.6666666666666666],horizontal,"(390.0, 262.0)",0.95,0.618,1,4504.124,2
0,470,target,"[(1021, 807)]",[],[1],[0.85],horizontal,"(390.0, 262.0)",0.5,nan,0,4509.725,0
0,471,target,"[(1007, 799)]",[],[1],[0.55],vertical,"(890.0, 762.0)",0.9833333333333333,0.505,1,4514.592,1
0,472,target,"[(1034, 781)]",[],[1],[0.43333333333333335],horizontal,"(390.0, 262.0)",1.2666666666666666,0.397,1,4519.693,1
0,473,target,"[(1049, 771)]",[],[1],[0.85],horizontal,"(390.0, 262.0)",0.55,nan,0,4524.86,0
0,474,target,"[(1009, 812)]",[],[1],[0.85],horizontal,"(890.0, 762.0)",0.7666666666666666,nan,0,4529.76,0
0,475,target,"[(1019, 787)]",[],[1],[0.65],vertical,"(890.0, 762.0)",0.85,0.619,1,4534.088,1
0,476,target,"[(1048, 789)]",[],[1],[0.55],vertical,"(890.0, 762.0)",0.8666666666666667,0.506,1,4539.578,1
0,477,target,"[(1040, 770)]",[],[1],[0.5833333333333334],vertical,"(390.0, 262.0)",1.0,0.542,1,4544.693,2
0,478,target,"[(1045, 791)]",[],[1],[0.4666666666666667],horizontal,"(390.0, 262.0)",1.5,0.425,1,4550.243,2
0,479,catch,"[(1035, 783)]",[],[1],[],horizontal,"(390.0, 262.0)",1.6,nan,1,4555.543,2
0,480,target,"[(1037, 802)]",[],[1],[0.5166666666666666],horizontal,"(390.0, 262.0)",1.1833333333333333,0.473,1,4561.262,2
0,481,target,"[(1002, 809), (1027, 810)]",[],"[0, 1]",[0.65],horizontal,"(890.0, 262.0)",0.5,0.608,1,4566.525,3
0,482,target,"[(1034, 794)]",[],[1],[0.85],vertical,"(890.0, 762.0)",0.6833333333333333,nan,0,4581.632,0
0,483,target,"[(1022, 807)]",[],[1],[0.85],vertical,"(390.0, 762.0)",0.5833333333333334,nan,0,4586.055,0
0,484,target,"[(1013, 820)]",[],[1],[0.35],vertical,"(390.0, 262.0)",0.9666666666666667,0.312,1,4840.254,1
0,485,target,"[(1033, 788)]",[],[1],[0.5833333333333334],horizontal,"(390.0, 262.0)",0.5,0.536,1,4854.56,1
0,486,target,"[(1017, 809)]",[],[1],[0.5333333333333333],horizontal,"(390.0, 762.0)",1.0666666666666667,0.492,1,4890.627,2
0,487,target,"[(1017, 825)]",[],[1],[0.4666666666666667],vertical,"(390.0, 262.0)",1.1666666666666667,0.429,1,4895.927,2
0,488,target,"[(1027, 805)]",[],[1],[0.13333333333333333],vertical,"(390.0, 762.0)",1.4333333333333333,0.102,0,4905.243,0
0,489,target,"[(1017, 808)]",[],[1],[0.65],horizontal,"(890.0, 262.0)",0.9166666666666666,0.6,1,4910.311,1
0,490,target,"[(1021, 793)]",[],[1],[0.06666666666666667],horizontal,"(390.0, 762.0)",1.35,0.035,0,4917.406,0
0,491,target,"[(1020, 804)]",[],[1],[0.6166666666666667],horizontal,"(890.0, 262.0)",1.0333333333333332,0.573,1,4922.077,1
0,492,target,"[(1000, 800), (1017, 822)]",[],"[0, 1]",[0.3],vertical,"(890.0, 262.0)",1.4333333333333333,0.268,1,4927.01,1
0,493,target,"[(1021, 795)]",[],[1],[0.5666666666666667],vertical,"(390.0, 262.0)",1.0,0.524,1,4933.137,2
0,494,target,"[(1029, 785)]",[],[1],[0.7833333333333333],vertical,"(390.0, 262.0)",0.55,0.73,1,4938.543,2
0,495,catch,"[(1026, 790)]",[],[1],[],horizontal,"(390.0, 762.0)",1.6,nan,1,4943.57,2
0,496,catch,"[(1029, 787)]",[],[1],[],vertical,"(890.0, 762.0)",1.6,nan,1,4948.894,2
0,497,target,"[(1022, 804)]",[],[1],[],vertical,"(390.0, 262.0)",,"('cti', 1.212)",0,4954.306,0
0,498,target,"[(1014, 807)]",[],[1],[0.5833333333333334],horizontal,"(390.0, 262.0)",1.1666666666666667,0.551,1,4959.125,1
0,499,target,"[(1033, 800)]",[],[1],[0.3333333333333333],horizontal,"(390.0, 262.0)",1.0833333333333333,0.299,1,5846.882,1
0,500,target,"[(1019, 790)]",[],[1],[0.85],vertical,"(390.0, 262.0)",0.65,nan,0,5851.819,0
0,501,target,"[(1029, 815)]",[],[1],[0.85],vertical,"(890.0, 262.0)",1.55,nan,0,5856.713,0
0,502,target,"[(1026, 808)]",[],[1],[0.6333333333333333],vertical,"(890.0, 762.0)",0.6166666666666667,0.596,1,5862.142,1
0,503,target,"[(1025, 797)]",[],[1],[0.5666666666666667],vertical,"(390.0, 262.0)",0.5,0.533,1,5872.392,1
0,504,target,"[(1021, 796)]",[],[1],[0.5],horizontal,"(390.0, 262.0)",0.6166666666666667,0.461,1,5876.89,2
0,505,catch,"[(1035, 789)]",[],[1],[],horizontal,"(890.0, 262.0)",1.6,nan,1,5881.99,2
0,506,target,"[(1012, 801)]",[],[1],[0.5],horizontal,"(890.0, 762.0)",0.7666666666666666,0.456,1,5887.147,2
0,507,target,"[(1037, 794)]",[],[1],[0.23333333333333334],horizontal,"(390.0, 262.0)",1.3333333333333333,0.202,1,5892.54,2
0,508,target,"[(1037, 790)]",[],[1],[0.3833333333333333],horizontal,"(890.0, 762.0)",1.4,0.349,1,5897.95,3
0,509,target,"[(1021, 769)]",[],[1],[0.85],horizontal,"(890.0, 762.0)",1.5333333333333332,"('cti', 1.524),nan",0,5903.663,0
0,510,target,"[(1025, 795)]",[],[1],[0.48333333333333334],vertical,"(390.0, 262.0)",0.55,0.45,1,5909.293,1
0,511,target,"[(1052, 795)]",[],[1],[0.5],horizontal,"(890.0, 262.0)",1.3333333333333333,0.462,1,5913.483,1
0,512,target,"[(1038, 791)]",[],[1],[0.5666666666666667],horizontal,"(390.0, 762.0)",1.1166666666666667,0.528,1,5918.829,2
0,513,target,"[(1037, 790)]",[],[1],[0.5166666666666666],vertical,"(890.0, 762.0)",0.85,0.482,1,5924.506,2
0,514,target,"[(1037, 800)]",[],[1],[0.6166666666666667],vertical,"(890.0, 262.0)",0.7833333333333333,0.583,1,5929.306,2
0,515,target,"[(1021, 783)]",[],[1],[0.85],vertical,"(890.0, 262.0)",0.5,nan,0,5934.004,0
0,516,catch,"[(1041, 769)]",[],[1],[],horizontal,"(890.0, 262.0)",,"('cti', 1.592),nan",0,5938.518,0
0,517,catch,"[(1049, 772)]",[],[1],[],horizontal,"(890.0, 762.0)",1.6,nan,1,5943.098,1
0,518,target,"[(1033, 796)]",[],[1],[0.6],vertical,"(390.0, 262.0)",0.7,0.558,1,5950.827,1
0,519,catch,"[(1037, 782)]",[],[1],[],horizontal,"(890.0, 262.0)",1.6,nan,1,5955.479,2
0,520,target,"[(1059, 799)]",[],[1],[0.26666666666666666],vertical,"(890.0, 262.0)",1.35,0.231,1,5960.78,2
0,521,target,"[(1040, 784)]",[],[1],[0.5],vertical,"(390.0, 262.0)",0.9333333333333333,0.462,1,5966.33,2
0,522,target,"[(1055, 805)]",[],[1],[0.55],horizontal,"(390.0, 762.0)",0.6333333333333333,0.518,1,5971.512,2
0,523,target,"[(1034, 792)]",[],[1],[0.48333333333333334],horizontal,"(390.0, 262.0)",0.8333333333333334,0.441,1,5976.717,3
0,524,target,"[(1021, 783)]",[],[1],[0.13333333333333333],vertical,"(390.0, 762.0)",1.5,0.102,0,5982.227,0
0,525,catch,"[(1039, 794)]",[],[1],[],vertical,"(890.0, 762.0)",,"('cti', 1.567),nan",0,5987.026,0
0,526,target,"[(1024, 803)]",[],[1],[0.5333333333333333],vertical,"(890.0, 762.0)",0.9166666666666666,0.491,1,5991.882,1
0,527,target,"[(1021, 781)]",[],[1],[0.31666666666666665],horizontal,"(890.0, 762.0)",1.4333333333333333,0.279,1,5996.631,1
0,528,catch,"[(1035, 776)]",[],[1],[],vertical,"(890.0, 262.0)",1.6,"('cti', 1.588),nan",0,6001.547,0
0,529,target,"[(1034, 790)]",[],[1],[0.85],vertical,"(390.0, 262.0)",0.8833333333333333,nan,0,6006.024,0
0,530,catch,"[(997, 772), (997, 770), (1017, 773)]",[],"[0, 0, 1]",[],horizontal,"(390.0, 262.0)",1.6,nan,1,6010.3,1
0,531,target,"[(1021, 786)]",[],[1],[0.55],vertical,"(390.0, 762.0)",0.5833333333333334,0.512,1,6018.647,1
0,532,catch,"[(1035, 774)]",[],[1],[],horizontal,"(890.0, 762.0)",1.6,nan,1,6023.342,2
0,533,target,"[(1022, 788)]",[],[1],[0.3833333333333333],horizontal,"(390.0, 262.0)",1.4333333333333333,0.345,1,6028.331,2
0,534,target,"[(1037, 793)]",[],[1],[0.6],horizontal,"(890.0, 762.0)",0.7666666666666666,0.561,1,6033.651,2
0,535,target,"[(1040, 786)]",[],[1],[0.6166666666666667],vertical,"(390.0, 762.0)",0.7333333333333333,0.577,1,6038.862,2
0,536,target,"[(1040, 783)]",[],[1],[0.21666666666666667],horizontal,"(390.0, 762.0)",1.3833333333333333,0.181,0,6043.987,0
0,537,target,"[(1034, 796)]",[],[1],[0.5833333333333334],horizontal,"(890.0, 262.0)",1.25,0.544,1,6048.764,1
0,538,target,"[(1034, 785)]",[],[1],[0.2],horizontal,"(890.0, 262.0)",1.4,0.167,0,6053.749,0
0,539,target,"[(1040, 803)]",[],[1],[0.3],horizontal,"(390.0, 762.0)",1.4166666666666667,0.264,1,6058.347,1
0,540,target,"[(1052, 770)]",[],[1],[0.3],horizontal,"(890.0, 262.0)",1.5,0.267,1,6063.082,1
0,541,target,"[(1026, 795)]",[],[1],[0.16666666666666666],horizontal,"(390.0, 762.0)",1.4833333333333334,0.134,0,6067.866,0
0,542,target,"[(1038, 774)]",[],[1],[0.31666666666666665],vertical,"(890.0, 762.0)",1.3333333333333333,0.277,1,6072.866,1
0,543,target,"[(1038, 769)]",[],[1],[0.5],horizontal,"(390.0, 762.0)",1.0666666666666667,0.467,1,6077.665,1
0,544,target,"[(1033, 777)]",[],[1],[0.5],vertical,"(890.0, 262.0)",0.8833333333333333,0.459,1,6082.882,2
0,545,target,"[(1037, 797)]",[],[1],[0.6],horizontal,"(390.0, 262.0)",0.9,0.561,1,6087.915,2
0,546,target,"[(1055, 781)]",[],[1],[0.4666666666666667],horizontal,"(890.0, 762.0)",1.2833333333333332,0.424,1,6092.848,2
0,547,target,"[(1057, 795)]",[],[1],[0.6],vertical,"(390.0, 762.0)",1.0833333333333333,0.557,1,6098.106,2
0,548,catch,"[(1037, 779)]",[],[1],[],horizontal,"(890.0, 762.0)",,"('cti', 1.567),nan",0,6103.939,0
0,549,target,"[(1035, 807)]",[],[1],[0.35],vertical,"(390.0, 262.0)",1.4666666666666666,0.313,1,6108.587,1
0,550,target,"[(1044, 778)]",[],[1],[0.5833333333333334],horizontal,"(890.0, 762.0)",0.7,0.539,1,6113.481,1
0,551,target,"[(1039, 780)]",[],[1],[0.6833333333333333],vertical,"(390.0, 762.0)",0.8,0.64,1,6118.053,2
0,552,target,"[(1047, 801)]",[],[1],[],vertical,"(390.0, 262.0)",,"('cti', 1.271)",0,6123.131,0
0,553,target,"[(1037, 779)]",[],[1],[0.2833333333333333],vertical,"(890.0, 262.0)",1.4333333333333333,0.242,1,6127.932,1
0,554,target,"[(1036, 782)]",[],[1],[0.5166666666666666],vertical,"(890.0, 262.0)",1.5,0.473,1,6133.026,1
0,555,target,"[(1038, 769)]",[],[1],[0.55],vertical,"(390.0, 262.0)",0.5166666666666666,0.511,1,6138.155,2
0,556,catch,"[(1049, 774)]",[],[1],[],vertical,"(890.0, 762.0)",,"('cti', 1.491),nan",0,6143.182,0
0,557,catch,"[(1038, 809)]",[],[1],[],vertical,"(390.0, 762.0)",1.6,nan,1,6148.244,1
0,558,target,"[(1025, 801)]",[],[1],[0.13333333333333333],vertical,"(890.0, 762.0)",1.5833333333333333,0.102,0,6153.038,0
0,559,target,"[(1028, 785)]",[],[1],[0.5],vertical,"(890.0, 262.0)",1.1333333333333333,0.461,1,6158.063,1
0,560,catch,"[(1039, 780)]",[],[1],[],horizontal,"(890.0, 762.0)",1.6,nan,1,6162.877,1
0,561,catch,"[(1057, 782)]",[],[1],[],horizontal,"(390.0, 762.0)",1.6,nan,1,6167.894,2
0,562,catch,"[(1041, 772)]",[],[1],[],horizontal,"(390.0, 262.0)",1.6,nan,1,6173.469,2
0,563,catch,"[(1037, 777)]",[],[1],[],vertical,"(390.0, 762.0)",1.6,nan,1,6178.771,2
0,564,catch,"[(1038, 774)]",[],[1],[],vertical,"(390.0, 762.0)",1.6,nan,1,6183.949,2
0,565,target,"[(1021, 795)]",[],[1],[0.85],horizontal,"(390.0, 262.0)",0.6666666666666666,nan,0,6189.397,0
0,566,target,"[(1023, 783)]",[],[1],[0.6833333333333333],vertical,"(390.0, 262.0)",0.7833333333333333,0.636,1,6193.978,1
0,567,target,"[(1037, 773)]",[],[1],[0.4666666666666667],vertical,"(390.0, 262.0)",1.55,0.426,1,6198.515,1
0,568,target,"[(1041, 779)]",[],[1],[0.4166666666666667],vertical,"(890.0, 262.0)",1.2333333333333334,0.38,1,6203.532,2
0,569,target,"[(1051, 809)]",[],[1],[0.6],vertical,"(890.0, 262.0)",1.15,0.559,1,6209.082,2
0,570,target,"[(1058, 778)]",[],[1],[0.55],horizontal,"(890.0, 762.0)",1.0666666666666667,0.513,1,6214.366,2
0,571,target,"[(1036, 804)]",[],[1],[0.4666666666666667],horizontal,"(890.0, 262.0)",1.1166666666666667,0.43,1,6219.415,2
0,572,catch,"[(1020, 816)]",[],[1],[],vertical,"(890.0, 262.0)",1.6,"('cti', 1.583),nan",0,6224.747,0
0,573,target,"[(981, 780), (1036, 813)]",[],"[0, 1]",[0.6],vertical,"(390.0, 762.0)",0.9166666666666666,0.56,1,6231.549,1
0,574,target,"[(1037, 813)]",[],[1],[0.48333333333333334],horizontal,"(390.0, 762.0)",1.15,0.439,1,6250.528,1
0,575,target,"[(1005, 777)]",[],[1],[0.16666666666666666],vertical,"(390.0, 262.0)",1.45,0.132,0,6255.315,0
0,576,target,"[(1013, 800)]",[],[1],[0.55],horizontal,"(890.0, 262.0)",1.0166666666666666,0.514,1,6260.132,1
0,577,target,"[(1037, 776)]",[],[1],[0.5333333333333333],horizontal,"(390.0, 762.0)",1.0666666666666667,0.495,1,6265.083,1
0,578,target,"[(1038, 779)]",[],[1],[0.15],vertical,"(890.0, 262.0)",1.5333333333333332,0.117,0,6270.599,0
0,579,catch,"[(1002, 809), (1025, 814)]",[],"[0, 1]",[],vertical,"(890.0, 262.0)",1.6,nan,1,6275.499,1
0,580,target,"[(1017, 809)]",[],[1],[0.65],horizontal,"(890.0, 762.0)",1.15,0.604,1,6283.265,1
0,581,target,"[(1021, 798)]",[],[1],[0.6666666666666666],vertical,"(390.0, 762.0)",1.0333333333333332,0.628,1,6288.141,2
0,582,target,"[(1013, 778)]",[],[1],[0.6166666666666667],vertical,"(890.0, 762.0)",0.7166666666666667,0.573,1,6293.882,2
0,583,target,"[(1014, 792)]",[],[1],[0.5666666666666667],vertical,"(890.0, 762.0)",1.2166666666666666,0.529,1,6298.956,2
0,584,target,"[(1041, 778)]",[],[1],[0.43333333333333335],horizontal,"(890.0, 262.0)",1.2666666666666666,0.396,1,6304.482,2
0,585,target,"[(1037, 809)]",[],[1],[0.16666666666666666],horizontal,"(890.0, 262.0)",1.4,0.135,0,6309.716,0
0,586,target,"[(1022, 805)]",[],[1],[0.65],horizontal,"(390.0, 262.0)",1.0833333333333333,0.609,1,6314.543,1
0,587,target,"[(1020, 768)]",[],[1],[0.6],vertical,"(890.0, 262.0)",0.6333333333333333,0.563,1,6319.936,1
0,588,target,"[(1029, 795)]",[],[1],[0.3333333333333333],horizontal,"(390.0, 262.0)",1.3666666666666667,0.296,1,6324.187,2
0,589,target,"[(1037, 795)]",[],[1],[0.6166666666666667],horizontal,"(390.0, 262.0)",1.5,0.58,1,6330.031,2
0,590,target,"[(1037, 792)]",[],[1],[0.85],horizontal,"(890.0, 762.0)",0.5333333333333333,nan,0,6335.532,0
0,591,target,"[(1002, 781), (1018, 773)]",[],"[0, 1]",[0.6666666666666666],vertical,"(890.0, 262.0)",0.9833333333333333,0.623,1,6340.089,1
0,592,target,"[(1025, 790)]",[],[1],[0.55],vertical,"(890.0, 262.0)",1.4666666666666666,0.511,1,6346.747,1
0,593,target,"[(1035, 813)]",[],[1],[0.18333333333333332],horizontal,"(390.0, 762.0)",1.2166666666666666,0.152,0,6351.89,0
0,594,target,"[(1035, 799)]",[],[1],[0.4166666666666667],vertical,"(890.0, 262.0)",1.3,0.383,1,6356.872,1
0,595,catch,"[(1037, 782)]",[],[1],[],horizontal,"(890.0, 262.0)",1.6,nan,1,6364.723,1
0,596,target,"[(1032, 796)]",[],[1],[0.5166666666666666],vertical,"(890.0, 262.0)",1.1666666666666667,0.476,1,6369.787,2
0,597,target,"[(1057, 780)]",[],[1],[0.5],vertical,"(890.0, 262.0)",1.1166666666666667,0.457,1,6375.35,2
0,598,target,"[(1014, 809)]",[],[1],[0.3],horizontal,"(890.0, 262.0)",1.5333333333333332,0.269,1,6380.35,2
0,599,target,"[(1029, 801)]",[],[1],[0.23333333333333334],horizontal,"(390.0, 762.0)",1.45,0.203,1,6386.331,2
0,600,target,"[(1032, 800)]",[],[1],[0.5],vertical,"(890.0, 262.0)",1.2666666666666666,0.469,1,6391.966,3
0,601,target,"[(1037, 799)]",[],[1],[0.18333333333333332],vertical,"(890.0, 262.0)",1.5833333333333333,0.152,0,6398.096,0
0,602,target,"[(1025, 809)]",[],[1],[0.85],horizontal,"(390.0, 262.0)",1.1666666666666667,nan,0,6403.281,0
0,603,target,"[(1007, 809)]",[],[1],[0.21666666666666667],horizontal,"(390.0, 262.0)",1.4333333333333333,0.185,0,6408.153,0
0,604,target,"[(1016, 798)]",[],[1],[0.31666666666666665],vertical,"(390.0, 262.0)",1.3833333333333333,0.278,1,6413.635,1
0,605,target,"[(1018, 790)]",[],[1],[0.85],horizontal,"(890.0, 262.0)",0.8666666666666667,nan,0,6419.019,0
0,606,target,"[(1013, 789)]",[],[1],[0.6666666666666666],vertical,"(390.0, 762.0)",1.1666666666666667,0.628,1,6423.666,1
0,607,target,"[(1019, 786)]",[],[1],[0.85],vertical,"(890.0, 762.0)",0.7,nan,0,6429.032,0
0,608,catch,"[(1000, 777), (1037, 789)]",[],"[0, 1]",[],vertical,"(890.0, 762.0)",1.6,nan,1,6434.214,1
0,609,target,"[(1021, 792)]",[],[1],[0.5666666666666667],horizontal,"(390.0, 262.0)",1.4,0.526,1,6441.023,1
0,610,target,"[(1037, 802)]",[],[1],[0.2],vertical,"(390.0, 262.0)",1.3833333333333333,0.17,0,6446.214,0
0,611,target,"[(1017, 804)]",[],[1],[0.65],horizontal,"(890.0, 762.0)",1.0666666666666667,0.609,1,6450.831,1
0,612,target,"[(1021, 786)]",[],[1],[0.4666666666666667],vertical,"(890.0, 762.0)",1.2333333333333334,0.423,1,6455.948,1
0,613,target,"[(1033, 789)]",[],[1],[0.85],horizontal,"(890.0, 262.0)",0.5,nan,0,6460.989,0
0,614,target,"[(1023, 799)]",[],[1],[0.6],vertical,"(390.0, 262.0)",0.8833333333333333,0.567,1,6465.272,1
0,615,target,"[(1032, 804)]",[],[1],[0.5166666666666666],horizontal,"(890.0, 262.0)",0.95,0.477,1,6470.09,1
0,616,target,"[(1040, 800)]",[],[1],[0.5666666666666667],vertical,"(890.0, 762.0)",1.15,0.527,1,6474.882,2
0,617,target,"[(1029, 795)]",[],[1],[0.6333333333333333],horizontal,"(890.0, 762.0)",0.6833333333333333,0.595,1,6480.167,2
0,618,target,"[(1037, 811)]",[],[1],[0.7166666666666667],horizontal,"(390.0, 762.0)",0.9333333333333333,0.67,1,6485.379,2
0,619,target,"[(1027, 809)]",[],[1],[0.6333333333333333],horizontal,"(890.0, 262.0)",0.7166666666666667,0.594,1,6490.649,2
0,620,target,"[(1018, 809)]",[],[1],[0.85],horizontal,"(890.0, 262.0)",0.5833333333333334,nan,0,6495.816,0
0,621,target,"[(1013, 813)]",[],[1],[0.6666666666666666],vertical,"(390.0, 262.0)",0.6,0.624,1,6500.233,1
0,622,target,"[(1021, 808)]",[],[1],[0.4666666666666667],horizontal,"(390.0, 762.0)",1.3,0.43,1,6504.878,1
0,623,target,"[(1029, 810)]",[],[1],[0.5333333333333333],vertical,"(890.0, 762.0)",1.0833333333333333,0.493,1,6511.189,2
0,624,target,"[(1038, 802)]",[],[1],[0.8166666666666667],vertical,"(390.0, 262.0)",1.45,0.774,1,6529.874,2
0,625,target,"[(1037, 795)]",[],[1],[0.5833333333333334],horizontal,"(890.0, 762.0)",0.5166666666666666,0.54,1,6535.483,2
0,626,catch,"[(1021, 773)]",[],[1],[],horizontal,"(890.0, 762.0)",1.6,nan,1,6540.274,2
0,627,target,"[(994, 806), (997, 780), (1011, 809)]",[],"[0, 0, 1]",[0.43333333333333335],horizontal,"(390.0, 762.0)",1.0666666666666667,0.394,1,6545.366,3
0,628,target,"[(1014, 809)]",[],[1],[0.5666666666666667],vertical,"(890.0, 262.0)",0.8833333333333333,0.522,1,6555.899,3
0,629,target,"[(1037, 794)]",[],[1],[0.6666666666666666],horizontal,"(390.0, 762.0)",0.5666666666666667,0.626,1,6562.649,3
0,630,target,"[(1032, 788)]",[],[1],[0.6333333333333333],vertical,"(390.0, 762.0)",1.0666666666666667,0.6,1,6568.034,3
0,631,target,"[(1019, 781)]",[],[1],[0.85],horizontal,"(890.0, 762.0)",1.1166666666666667,nan,0,6573.434,0
0,632,catch,"[(1026, 795)]",[],[1],[],horizontal,"(390.0, 262.0)",1.6,nan,1,6577.947,1
0,633,target,"[(1021, 788)]",[],[1],[0.65],horizontal,"(390.0, 262.0)",1.0,0.601,1,6582.966,1
0,634,target,"[(1037, 785)]",[],[1],[0.06666666666666667],horizontal,"(390.0, 762.0)",1.55,0.036,0,6587.696,0
0,635,target,"[(1040, 813)]",[],[1],[0.55],horizontal,"(390.0, 262.0)",1.2333333333333334,0.511,1,6592.699,1
0,636,catch,"[(1002, 776), (996, 792), (1052, 802)]",[],"[0, 0, 1]",[],horizontal,"(890.0, 762.0)",1.6,nan,1,6597.516,1
0,637,target,"[(1035, 796)]",[],[1],[0.85],vertical,"(890.0, 762.0)",0.6666666666666666,nan,0,6634.833,0
0,638,catch,"[(1029, 806)]",[],[1],[],vertical,"(390.0, 762.0)",1.6,nan,1,6639.807,1
0,639,target,"[(1033, 802)]",[],[1],[0.55],vertical,"(390.0, 262.0)",1.25,0.51,1,6644.736,1
0,640,catch,"[(1031, 801)]",[],[1],[],horizontal,"(390.0, 762.0)",1.6,nan,1,6649.951,2
0,641,target,"[(1035, 809)]",[],[1],[0.5],horizontal,"(890.0, 762.0)",0.8666666666666667,0.467,1,6655.115,2
0,642,target,"[(1010, 791)]",[],[1],[0.15],horizontal,"(390.0, 262.0)",1.5666666666666667,0.118,0,6660.348,0
0,643,target,"[(999, 792), (1024, 775)]",[],"[0, 1]",[0.6166666666666667],horizontal,"(390.0, 762.0)",0.65,0.58,1,6665.098,1
0,644,target,"[(1023, 790)]",[],[1],[0.85],horizontal,"(890.0, 762.0)",0.7,nan,0,6671.873,0
0,645,target,"[(1010, 795)]",[],[1],[0.85],vertical,"(390.0, 262.0)",0.5833333333333334,nan,0,6676.506,0
0,646,target,"[(1016, 809)]",[],[1],[0.55],vertical,"(890.0, 762.0)",0.6666666666666666,0.503,1,6681.068,1
0,647,target,"[(1013, 804)]",[],[1],[0.5333333333333333],horizontal,"(890.0, 762.0)",0.9166666666666666,0.492,1,6688.469,1
0,648,target,"[(1025, 805)]",[],[1],[0.5166666666666666],vertical,"(390.0, 762.0)",1.0333333333333332,0.479,1,6693.909,2
0,649,target,"[(1033, 801)]",[],[1],[0.6166666666666667],vertical,"(890.0, 262.0)",0.5666666666666667,0.573,1,6699.205,2
0,650,target,"[(990, 820), (998, 804), (1009, 798)]",[],"[0, 0, 1]",[0.35],vertical,"(390.0, 262.0)",1.15,0.314,1,6704.25,2
0,651,target,"[(997, 810), (1022, 779)]",[],"[0, 1]",[0.45],horizontal,"(390.0, 262.0)",1.45,0.411,1,6712.834,2
0,652,target,"[(1027, 811)]",[],[1],[0.85],vertical,"(890.0, 762.0)",0.5,nan,0,6721.551,0
0,653,target,"[(995, 811), (1010, 796)]",[],"[0, 1]",[0.85],vertical,"(390.0, 762.0)",0.5,nan,0,6726.184,0
0,654,target,"[(1020, 804)]",[],[1],[0.5833333333333334],horizontal,"(390.0, 762.0)",1.0,0.544,1,6732.245,1
0,655,target,"[(976, 905), (1011, 818)]",[],"[0, 1]",[0.2833333333333333],vertical,"(390.0, 262.0)",1.3,0.246,1,6737.515,1
0,656,target,"[(1033, 797)]",[],[1],[0.45],horizontal,"(890.0, 762.0)",1.3166666666666667,0.418,1,6742.787,2
0,657,target,"[(1033, 782)]",[],[1],[0.06666666666666667],horizontal,"(890.0, 762.0)",1.5333333333333332,0.036,0,6748.817,0
0,658,target,"[(1017, 794)]",[],[1],[0.55],vertical,"(390.0, 762.0)",0.7,0.519,1,6753.3,1
0,659,target,"[(1005, 807)]",[],[1],[0.7],horizontal,"(390.0, 762.0)",0.9,0.659,1,6758.15,1
0,660,target,"[(1017, 799)]",[],[1],[0.5333333333333333],horizontal,"(390.0, 262.0)",0.9166666666666666,0.491,1,6762.9,2
0,661,target,"[(991, 791), (1001, 791), (1002, 802), (1037, 801)]",[],"[0, 0, 0, 1]",[0.5],vertical,"(890.0, 262.0)",1.4166666666666667,0.458,1,6768.434,2
0,662,target,"[(1034, 812)]",[],[1],[0.6333333333333333],vertical,"(390.0, 262.0)",0.6666666666666666,0.594,1,6777.684,2
0,663,target,"[(1029, 804)]",[],[1],[0.55],vertical,"(890.0, 762.0)",0.9833333333333333,0.514,1,6782.626,2
0,664,target,"[(1033, 797)]",[],[1],[0.5666666666666667],vertical,"(890.0, 762.0)",0.6,0.534,1,6787.826,3
0,665,catch,"[(1017, 786)]",[],[1],[],vertical,"(390.0, 762.0)",1.6,nan,1,6793.238,3
0,666,target,"[(1013, 814)]",[],[1],[0.31666666666666665],horizontal,"(890.0, 762.0)",1.5166666666666666,0.276,1,6798.794,3
0,667,catch,"[(1032, 795)]",[],[1],[],horizontal,"(890.0, 262.0)",1.6,nan,1,6804.667,3
0,668,target,"[(1041, 800)]",[],[1],[0.85],vertical,"(390.0, 262.0)",1.4833333333333334,nan,0,6810.584,0
0,669,target,"[(1025, 815)]",[],[1],[0.5833333333333334],vertical,"(890.0, 762.0)",0.8333333333333334,0.548,1,6815.517,1
0,670,target,"[(1032, 815)]",[],[1],[0.6333333333333333],horizontal,"(390.0, 262.0)",0.8166666666666667,0.596,1,6820.35,1
0,671,target,"[(997, 815), (1021, 795)]",[],"[0, 1]",[0.3833333333333333],horizontal,"(890.0, 262.0)",1.05,0.353,1,6824.935,2
0,672,target,"[(1021, 787)]",[],[1],[0.43333333333333335],horizontal,"(890.0, 262.0)",1.0666666666666667,0.395,1,6834.651,2
0,673,target,"[(1019, 815)]",[],[1],[0.6833333333333333],horizontal,"(390.0, 262.0)",0.9333333333333333,0.641,1,6840.184,2
0,674,target,"[(985, 790), (997, 791), (1027, 815)]",[],"[0, 0, 1]",[0.31666666666666665],horizontal,"(890.0, 262.0)",1.5333333333333332,0.283,1,6845.751,2
0,675,target,"[(1039, 816)]",[],[1],[0.55],horizontal,"(890.0, 762.0)",0.9833333333333333,0.505,1,6854.565,3
0,676,target,"[(1033, 799)]",[],[1],[0.5],vertical,"(890.0, 262.0)",0.5,0.456,1,6859.784,3
0,677,target,"[(1023, 786)]",[],[1],[0.85],horizontal,"(890.0, 262.0)",0.6,nan,0,6864.617,0
0,678,target,"[(1014, 815)]",[],[1],[0.85],horizontal,"(890.0, 262.0)",1.1333333333333333,nan,0,6869.224,0
0,679,target,"[(1005, 820)]",[],[1],[0.45],vertical,"(390.0, 762.0)",1.3166666666666667,0.412,1,6874.075,1
0,680,target,"[(1040, 779)]",[],[1],[0.8166666666666667],horizontal,"(390.0, 762.0)",1.0333333333333332,0.775,1,6879.499,1
0,681,target,"[(1023, 793)]",[],[1],[0.85],horizontal,"(890.0, 262.0)",0.5833333333333334,nan,0,6884.468,0
0,682,catch,"[(1027, 820)]",[],[1],[],vertical,"(390.0, 262.0)",1.6,nan,1,6889.133,1
0,683,target,"[(1028, 796)]",[],[1],[0.5333333333333333],vertical,"(890.0, 262.0)",1.0333333333333332,0.49,1,6894.036,1
0,684,catch,"[(1019, 794)]",[],[1],[0.03333333333333333],vertical,"(390.0, 262.0)",1.6,"0.018,nan",0,6898.657,0
0,685,target,"[(990, 817), (1033, 826)]",[],"[0, 1]",[0.4666666666666667],horizontal,"(890.0, 262.0)",1.3833333333333333,0.423,1,6903.702,1
0,686,target,"[(1021, 816)]",[],[1],[0.21666666666666667],horizontal,"(390.0, 262.0)",1.4833333333333334,0.183,0,7474.801,0
0,687,target,"[(1028, 791)]",[],[1],[0.5166666666666666],horizontal,"(890.0, 762.0)",0.8333333333333334,0.481,1,7479.741,1
0,688,target,"[(1033, 814)]",[],[1],[0.6],horizontal,"(390.0, 762.0)",0.6166666666666667,0.552,1,7484.077,1
0,689,target,"[(1063, 779)]",[],[1],[0.5],horizontal,"(890.0, 262.0)",0.5333333333333333,0.463,1,7488.404,2
0,690,target,"[(1053, 800)]",[],[1],[0.3833333333333333],vertical,"(890.0, 762.0)",1.0833333333333333,0.348,1,7493.386,2
0,691,target,"[(1053, 799)]",[],[1],[0.4666666666666667],vertical,"(890.0, 762.0)",1.2166666666666666,0.437,1,7498.779,2
0,692,target,"[(1061, 790)]",[],[1],[0.43333333333333335],horizontal,"(390.0, 262.0)",1.25,0.398,1,7503.871,2
0,693,target,"[(1069, 799)]",[],[1],[0.4666666666666667],vertical,"(890.0, 262.0)",0.95,0.426,1,7509.31,3
0,694,target,"[(1057, 795)]",[],[1],[0.85],horizontal,"(890.0, 762.0)",1.5666666666666667,"('cti', 1.556),nan",0,7515.104,0
0,695,target,"[(1036, 814)]",[],[1],[0.1],vertical,"(890.0, 262.0)",1.5833333333333333,0.067,0,7520.38,0
0,696,target,"[(1055, 795)]",[],[1],[0.6833333333333333],horizontal,"(890.0, 262.0)",1.4333333333333333,0.64,1,7525.369,1
0,697,target,"[(1037, 782)]",[],[1],[0.6666666666666666],vertical,"(390.0, 762.0)",0.95,0.622,1,7530.836,1
0,698,target,"[(1037, 801)]",[],[1],[0.85],vertical,"(390.0, 762.0)",0.6833333333333333,nan,0,7535.621,0
0,699,target,"[(1025, 792)]",[],[1],[0.7],horizontal,"(390.0, 262.0)",1.4833333333333334,0.661,1,7540.264,1
0,700,target,"[(1037, 768)]",[],[1],[0.5666666666666667],horizontal,"(390.0, 262.0)",1.0166666666666666,0.523,1,7545.933,1
0,701,target,"[(1033, 795)]",[],[1],[0.45],horizontal,"(890.0, 262.0)",0.6333333333333333,0.41,1,7550.731,2
0,702,catch,"[(1040, 793)]",[],[1],[],horizontal,"(390.0, 762.0)",1.6,nan,1,7555.773,2
0,703,target,"[(1037, 776)]",[],[1],[0.45],vertical,"(390.0, 762.0)",1.2166666666666666,0.411,1,7561.202,2
0,704,target,"[(1053, 790)]",[],[1],[0.5833333333333334],vertical,"(890.0, 262.0)",0.5,0.54,1,7566.221,2
0,705,target,"[(1042, 773)]",[],[1],[0.85],horizontal,"(890.0, 762.0)",0.6833333333333333,nan,0,7570.787,0
0,706,target,"[(1026, 790)]",[],[1],[0.6333333333333333],vertical,"(890.0, 262.0)",1.2666666666666666,0.598,1,7575.371,1
0,707,target,"[(1029, 791)]",[],[1],[0.6166666666666667],vertical,"(390.0, 262.0)",0.9833333333333333,0.575,1,7580.256,1
0,708,target,"[(1037, 790)]",[],[1],[0.5],vertical,"(890.0, 762.0)",1.3,0.46,1,7585.021,2
0,709,target,"[(1025, 782)]",[],[1],[0.45],horizontal,"(890.0, 762.0)",1.35,0.408,1,7590.642,2
0,710,catch,"[(1021, 783)]",[],[1],[],vertical,"(390.0, 262.0)",1.6,nan,1,7596.286,2
0,711,target,"[(1045, 788)]",[],[1],[0.85],horizontal,"(890.0, 262.0)",1.2,nan,0,7601.481,0
0,712,target,"[(1040, 785)]",[],[1],[0.25],horizontal,"(390.0, 262.0)",1.55,0.212,1,7606.137,1
0,713,target,"[(1059, 775)]",[],[1],[0.31666666666666665],vertical,"(390.0, 262.0)",1.4,0.277,1,7611.471,1
0,714,target,"[(1057, 782)]",[],[1],[0.5166666666666666],vertical,"(890.0, 762.0)",1.1166666666666667,0.472,1,7616.148,2
0,715,target,"[(1058, 786)]",[],[1],[0.4],horizontal,"(390.0, 262.0)",1.5,0.364,1,7621.745,2
0,716,target,"[(1036, 790)]",[],[1],[0.6166666666666667],vertical,"(890.0, 762.0)",1.0666666666666667,0.573,1,7627.143,2
0,717,catch,"[(1037, 782)]",[],[1],[],vertical,"(390.0, 262.0)",1.6,nan,1,7632.804,2
0,718,catch,"[(1021, 790)]",[],[1],[0.03333333333333333],horizontal,"(390.0, 262.0)",1.6,"0.022,nan",0,7637.827,0
0,719,target,"[(1025, 813)]",[],[1],[0.6],vertical,"(390.0, 262.0)",1.0833333333333333,0.553,1,7642.821,1
0,720,target,"[(1041, 776)]",[],[1],[0.48333333333333334],vertical,"(390.0, 262.0)",1.3333333333333333,0.444,1,7652.695,1
0,721,target,"[(1057, 772)]",[],[1],[0.55],vertical,"(890.0, 262.0)",0.6,0.508,1,7658.135,2
0,722,target,"[(1061, 784)]",[],[1],[0.5166666666666666],vertical,"(890.0, 262.0)",1.15,0.478,1,7663.195,2
0,723,target,"[(1033, 785)]",[],[1],[0.6],horizontal,"(390.0, 262.0)",1.2333333333333334,0.564,1,7668.475,2
0,724,target,"[(1031, 783)]",[],[1],[0.85],vertical,"(890.0, 762.0)",0.6333333333333333,nan,0,7674.071,0
0,725,target,"[(1033, 782)]",[],[1],[0.6166666666666667],horizontal,"(890.0, 762.0)",0.9666666666666667,0.573,1,7678.45,1
0,726,target,"[(1022, 786)]",[],[1],[0.5666666666666667],horizontal,"(390.0, 762.0)",1.2166666666666666,0.529,1,7683.723,1
0,727,target,"[(1057, 795)]",[],[1],[0.5],vertical,"(890.0, 762.0)",1.3833333333333333,0.457,1,7688.763,2
0,728,target,"[(1038, 770)]",[],[1],[0.5333333333333333],horizontal,"(890.0, 762.0)",1.0333333333333332,0.496,1,7694.287,2
0,729,target,"[(1033, 780)]",[],[1],[0.6],vertical,"(890.0, 262.0)",0.5833333333333334,0.554,1,7699.488,2
0,730,catch,"[(1033, 791)]",[],[1],[],vertical,"(390.0, 262.0)",1.6,nan,1,7704.305,2
0,731,target,"[(1035, 777)]",[],[1],[0.15],horizontal,"(890.0, 262.0)",1.4166666666666667,0.119,0,7710.005,0
0,732,catch,"[(1024, 779)]",[],[1],[],horizontal,"(890.0, 762.0)",1.6,nan,1,7714.92,1
0,733,target,"[(1037, 795)]",[],[1],[0.85],vertical,"(390.0, 262.0)",0.75,nan,0,7719.657,0
0,734,target,"[(1093, 746), (1123, 983), (1077, 1009), (1077, 950), (1093, 974), (1096, 974), (523, 928), (523, 928), (523, 928), (516, 720), (528, 934), (512, 939), (1033, 859)]",[],"[0, 0, 0, 0, 0, 0, 0, 0, 0, 0, 0, 0, 1]",[0.85],horizontal,"(390.0, 762.0)",0.8666666666666667,nan,0,7724.216,0
0,735,target,"[(994, 838), (1013, 820)]",[],"[0, 1]",[0.85],vertical,"(890.0, 262.0)",1.5,nan,0,12319.153,0
0,736,target,"[(1008, 850)]",[],[1],[0.7166666666666667],horizontal,"(890.0, 262.0)",0.6833333333333333,0.676,1,12325.653,1
0,737,target,"[(1017, 843)]",[],[1],[0.43333333333333335],horizontal,"(890.0, 762.0)",1.5333333333333332,0.394,1,12330.711,1
0,738,target,"[(1006, 812)]",[],[1],[0.2],horizontal,"(890.0, 762.0)",1.55,0.17,0,12335.653,0
0,739,target,"[(1011, 809)]",[],[1],[0.2],vertical,"(390.0, 262.0)",1.5,0.169,0,12340.096,0
0,740,target,"[(992, 815), (1035, 817)]",[],"[0, 1]",[0.6],vertical,"(390.0, 262.0)",0.6,0.553,1,12345.504,1
0,741,target,"[(1029, 816)]",[],[1],[0.5666666666666667],vertical,"(890.0, 262.0)",1.1833333333333333,0.522,1,12358.41,1
0,742,target,"[(1033, 809)]",[],[1],[0.43333333333333335],vertical,"(890.0, 262.0)",1.3166666666666667,0.391,1,12363.645,2
0,743,target,"[(1035, 809)]",[],[1],[0.65],horizontal,"(390.0, 262.0)",0.6666666666666666,0.602,1,12369.137,2
0,744,target,"[(997, 797), (1040, 812)]",[],"[0, 1]",[],horizontal,"(390.0, 262.0)",,"('cti', 1.016)",0,12374.005,0
0,745,target,"[(1028, 810)]",[],[1],[],vertical,"(390.0, 262.0)",,"('cti', 1.262)",0,12383.171,0
0,746,target,"[(1017, 812)]",[],[1],[0.6333333333333333],horizontal,"(890.0, 762.0)",0.95,0.592,1,12403.554,1
0,747,target,"[(1019, 816)]",[],[1],[0.6333333333333333],vertical,"(390.0, 262.0)",1.25,0.601,1,12409.003,1
0,748,target,"[(1047, 815)]",[],[1],[0.55],vertical,"(890.0, 262.0)",1.1333333333333333,0.507,1,12413.765,2
0,749,target,"[(1032, 812)]",[],[1],[0.6166666666666667],horizontal,"(390.0, 762.0)",1.0166666666666666,0.581,1,12419.254,2
0,750,target,"[(1037, 826)]",[],[1],[0.7166666666666667],vertical,"(890.0, 762.0)",0.9833333333333333,0.673,1,12424.962,2
0,751,target,"[(1027, 800)]",[],[1],[0.5333333333333333],vertical,"(390.0, 262.0)",1.2,0.49,1,12430.171,2
0,752,catch,"[(1028, 820)]",[],[1],[],vertical,"(390.0, 762.0)",1.6,nan,1,12435.414,3
0,753,target,"[(1057, 825)]",[],[1],[0.43333333333333335],vertical,"(390.0, 762.0)",1.2833333333333332,0.393,1,12441.215,3
0,754,catch,"[(1028, 816)]",[],[1],[],horizontal,"(890.0, 262.0)",1.6,nan,1,12447.25,3
0,755,target,"[(1021, 799)]",[],[1],[0.85],vertical,"(890.0, 762.0)",0.7,nan,0,12453.238,0
0,756,target,"[(1000, 819), (1017, 830)]",[],"[0, 1]",[0.5166666666666666],horizontal,"(390.0, 762.0)",1.2666666666666666,0.475,1,12458.089,1
0,757,target,"[(1037, 785)]",[],[1],[0.7166666666666667],horizontal,"(890.0, 762.0)",1.0666666666666667,0.677,1,12464.646,1
0,758,target,"[(1017, 808)]",[],[1],[0.5166666666666666],horizontal,"(390.0, 762.0)",0.8,0.475,1,12469.633,2
0,759,target,"[(1016, 831)]",[],[1],[0.5333333333333333],horizontal,"(390.0, 762.0)",1.4,0.491,1,12475.015,2
0,760,target,"[(1025, 815)]",[],[1],[0.25],horizontal,"(890.0, 262.0)",1.25,0.213,1,12481.472,2
0,761,target,"[(1027, 795)]",[],[1],[0.5166666666666666],horizontal,"(390.0, 262.0)",1.3666666666666667,0.478,1,12487.007,2
0,762,catch,"[(1034, 799)]",[],[1],[],vertical,"(390.0, 762.0)",1.6,nan,1,12492.736,3
0,763,catch,"[(1020, 790)]",[],[1],[],vertical,"(890.0, 262.0)",1.6,nan,1,12498.697,3
0,764,target,"[(1035, 800)]",[],[1],[0.6666666666666666],horizontal,"(390.0, 262.0)",1.5666666666666667,0.622,1,12504.274,3
0,765,target,"[(1029, 795)]",[],[1],[0.8333333333333334],vertical,"(390.0, 762.0)",1.0833333333333333,0.791,1,12510.222,3
0,766,target,"[(1025, 789)]",[],[1],[0.55],vertical,"(890.0, 262.0)",0.85,0.516,1,12516.169,3
0,767,target,"[(1041, 794)]",[],[1],[0.85],vertical,"(390.0, 762.0)",0.9666666666666667,nan,0,12521.719,0
0,768,target,"[(1004, 809), (1033, 836)]",[],"[0, 1]",[0.45],vertical,"(890.0, 262.0)",1.25,0.412,1,12526.659,1
0,769,target,"[(1052, 798)]",[],[1],[0.85],vertical,"(890.0, 762.0)",0.5833333333333334,nan,0,12533.337,0
0,770,target,"[(997, 805), (1029, 808)]",[],"[0, 1]",[0.5],horizontal,"(890.0, 762.0)",1.5166666666666666,0.463,1,12537.797,1
0,771,target,"[(1021, 765)]",[],[1],[0.6666666666666666],vertical,"(890.0, 262.0)",0.6333333333333333,0.622,1,12544.37,1
0,772,target,"[(1019, 797)]",[],[1],[0.6666666666666666],vertical,"(390.0, 762.0)",0.7833333333333333,0.631,1,12548.746,2
0,773,target,"[(1034, 799)]",[],[1],[0.45],horizontal,"(890.0, 762.0)",1.55,0.411,1,12554.171,2
0,774,target,"[(1031, 802)]",[],[1],[0.55],vertical,"(890.0, 262.0)",1.15,0.509,1,12559.787,2
0,775,target,"[(1031, 806)]",[],[1],[0.25],vertical,"(390.0, 762.0)",1.5166666666666666,0.216,1,12565.369,2
0,776,target,"[(1035, 787)]",[],[1],[0.4],vertical,"(890.0, 262.0)",1.5333333333333332,0.363,1,12571.121,3
0,777,target,"[(1044, 792)]",[],[1],[0.7666666666666666],horizontal,"(890.0, 762.0)",0.8,0.72,1,12576.827,3
0,778,target,"[(1033, 800)]",[],[1],[0.75],horizontal,"(390.0, 262.0)",1.1833333333333333,0.709,1,12582.188,3
0,779,catch,"[(1033, 808)]",[],[1],[],horizontal,"(890.0, 762.0)",1.6,nan,1,12587.907,3
0,780,target,"[(1033, 809)]",[],[1],[0.65],horizontal,"(390.0, 262.0)",1.15,0.613,1,12594.037,3
0,781,target,"[(1044, 815)]",[],[1],[0.5333333333333333],horizontal,"(890.0, 262.0)",1.3,0.493,1,12599.927,3
0,782,catch,"[(1019, 799)]",[],[1],[],vertical,"(390.0, 762.0)",1.6,"('cti', 1.585),nan",0,12605.955,0
0,783,target,"[(992, 812), (1035, 802)]",[],"[0, 1]",[0.6],horizontal,"(390.0, 262.0)",0.9333333333333333,0.565,1,12610.805,1
0,784,target,"[(1040, 803)]",[],[1],[0.23333333333333334],vertical,"(390.0, 762.0)",1.5333333333333332,0.198,0,12617.937,0
0,785,target,"[(1025, 802)]",[],[1],[0.6],horizontal,"(890.0, 762.0)",0.65,0.559,1,12622.504,1
0,786,target,"[(1038, 805)]",[],[1],[0.6],horizontal,"(390.0, 762.0)",1.05,0.555,1,12627.059,1
0,787,target,"[(1037, 812)]",[],[1],[0.85],vertical,"(390.0, 262.0)",0.7,nan,0,12632.024,0
0,788,target,"[(1021, 812)]",[],[1],[0.2833333333333333],horizontal,"(390.0, 262.0)",1.4666666666666666,0.245,1,12636.587,1
0,789,target,"[(1033, 800)]",[],[1],[0.4166666666666667],vertical,"(890.0, 262.0)",1.4,0.377,1,12641.781,1
0,790,target,"[(1040, 789)]",[],[1],[0.7833333333333333],horizontal,"(390.0, 762.0)",1.0166666666666666,0.741,1,12647.071,2
0,791,catch,"[(1033, 810)]",[],[1],[],horizontal,"(390.0, 762.0)",1.6,nan,1,12652.638,2
0,792,target,"[(1039, 790)]",[],[1],[0.6833333333333333],horizontal,"(890.0, 762.0)",1.1333333333333333,0.638,1,12658.128,2
0,793,catch,"[(1034, 807)]",[],[1],[],horizontal,"(890.0, 262.0)",1.6,nan,1,12663.988,2
0,794,target,"[(1035, 796)]",[],[1],[0.5833333333333334],horizontal,"(890.0, 262.0)",1.0333333333333332,0.543,1,12669.271,3
0,795,target,"[(1037, 813)]",[],[1],[0.6166666666666667],horizontal,"(890.0, 762.0)",0.65,0.574,1,12675.328,3
0,796,target,"[(1024, 806)]",[],[1],[0.85],vertical,"(390.0, 262.0)",0.6666666666666666,nan,0,12680.865,0
0,797,target,"[(1024, 794)]",[],[1],[0.85],horizontal,"(390.0, 262.0)",0.85,nan,0,12685.251,0
0,798,target,"[(1023, 813)]",[],[1],[0.18333333333333332],horizontal,"(390.0, 262.0)",0.9,0.15,0,12689.897,0
0,799,target,"[(1023, 800)]",[],[1],[0.7333333333333333],vertical,"(390.0, 762.0)",1.1666666666666667,0.686,1,12694.254,1
0,800,target,"[(1002, 830), (1037, 811)]",[],"[0, 1]",[0.5],vertical,"(890.0, 262.0)",0.7833333333333333,0.458,1,12701.72,1
0,801,target,"[(1033, 795)]",[],[1],[0.4],vertical,"(890.0, 262.0)",1.4,0.367,1,12708.248,2
0,802,target,"[(1033, 808)]",[],[1],[0.06666666666666667],horizontal,"(390.0, 762.0)",1.5333333333333332,0.037,0,12713.666,0
0,803,target,"[(1033, 817)]",[],[1],[0.7333333333333333],horizontal,"(390.0, 262.0)",0.8833333333333333,0.688,1,12718.539,1
0,804,target,"[(1045, 806)]",[],[1],[0.6666666666666666],vertical,"(890.0, 762.0)",0.8166666666666667,0.628,1,12723.556,1
0,805,target,"[(1037, 810)]",[],[1],[0.6166666666666667],horizontal,"(890.0, 262.0)",0.65,0.574,1,12728.572,2
0,806,target,"[(1037, 803)]",[],[1],[0.6333333333333333],horizontal,"(890.0, 762.0)",0.5833333333333334,0.591,1,12733.886,2
0,807,target,"[(1037, 808)]",[],[1],[0.6833333333333333],horizontal,"(390.0, 762.0)",1.0,0.643,1,12738.684,2
0,808,target,"[(1034, 801)]",[],[1],[0.85],vertical,"(390.0, 262.0)",0.55,nan,0,12743.763,0
0,809,target,"[(1025, 803)]",[],[1],[0.5166666666666666],horizontal,"(390.0, 762.0)",1.3833333333333333,0.482,1,12747.972,1
0,810,catch,"[(1033, 790)]",[],[1],[],vertical,"(890.0, 762.0)",1.6,nan,1,12753.271,1
0,811,target,"[(1040, 795)]",[],[1],[0.43333333333333335],vertical,"(890.0, 762.0)",1.2833333333333332,0.396,1,12758.337,2
0,812,target,"[(1037, 795)]",[],[1],[0.7833333333333333],horizontal,"(390.0, 762.0)",0.8166666666666667,0.74,1,12763.639,2
0,813,target,"[(1056, 801)]",[],[1],[0.36666666666666664],horizontal,"(890.0, 762.0)",1.3666666666666667,0.331,1,12768.682,2
0,814,target,"[(1037, 792)]",[],[1],[0.6],horizontal,"(890.0, 262.0)",1.2333333333333334,0.56,1,12774.053,2
0,815,catch,"[(1038, 798)]",[],[1],[],vertical,"(890.0, 762.0)",1.6,nan,1,12779.472,3
0,816,target,"[(1052, 825)]",[],[1],[0.6666666666666666],vertical,"(390.0, 762.0)",0.5833333333333334,0.628,1,12785.447,3
0,817,target,"[(1029, 815)]",[],[1],[0.6333333333333333],vertical,"(390.0, 262.0)",0.7833333333333333,0.596,1,12791.284,3
0,818,target,"[(1034, 787)]",[],[1],[0.5],vertical,"(890.0, 262.0)",1.2333333333333334,0.459,1,12797.022,3
0,819,target,"[(1040, 800)]",[],[1],[0.7166666666666667],vertical,"(890.0, 262.0)",0.5,0.679,1,12802.872,3
0,820,catch,"[(1038, 788)]",[],[1],[],vertical,"(390.0, 762.0)",1.6,nan,1,12808.303,3
0,821,target,"[(1055, 809)]",[],[1],[0.85],horizontal,"(390.0, 262.0)",0.7,nan,0,12813.97,0
0,822,target,"[(1041, 800)]",[],[1],[0.85],vertical,"(390.0, 762.0)",0.7166666666666667,nan,0,12818.691,0
0,823,target,"[(1032, 822)]",[],[1],[0.36666666666666664],horizontal,"(390.0, 762.0)",1.4166666666666667,0.333,1,12823.285,1
0,824,catch,"[(1043, 812)]",[],[1],[],vertical,"(890.0, 262.0)",1.6,nan,1,12828.679,1
0,825,target,"[(1019, 794)]",[],[1],[0.7],vertical,"(890.0, 262.0)",0.9833333333333333,0.669,1,12833.451,2
0,826,catch,"[(1044, 784)]",[],[1],[],horizontal,"(390.0, 262.0)",,"('cti', 1.47),nan",0,12839.155,0
0,827,target,"[(1049, 824)]",[],[1],[0.7333333333333333],vertical,"(890.0, 262.0)",0.9166666666666666,0.692,1,12844.005,1
0,828,catch,"[(1017, 787)]",[],[1],[],horizontal,"(390.0, 262.0)",1.6,nan,1,12848.896,1
0,829,target,"[(1058, 802)]",[],[1],[0.6666666666666666],horizontal,"(390.0, 262.0)",0.7833333333333333,0.622,1,12853.968,2
0,830,catch,"[(1060, 815)]",[],[1],[],horizontal,"(890.0, 762.0)",1.6,nan,1,12859.256,2
0,831,target,"[(1041, 799)]",[],[1],[0.35],horizontal,"(390.0, 762.0)",1.45,0.317,1,12864.216,2
0,832,target,"[(1041, 804)]",[],[1],[0.6666666666666666],vertical,"(890.0, 762.0)",0.65,0.631,1,12869.955,2
0,833,target,"[(1037, 797)]",[],[1],[0.16666666666666666],vertical,"(890.0, 762.0)",1.4833333333333334,0.135,0,12875.255,0
0,834,target,"[(1033, 820)]",[],[1],[0.5],horizontal,"(890.0, 762.0)",1.3,0.461,1,12880.07,1
0,835,target,"[(1037, 789)]",[],[1],[0.18333333333333332],vertical,"(390.0, 762.0)",1.5,0.15,0,12885.206,0
0,836,catch,"[(1040, 814)]",[],[1],[],vertical,"(390.0, 762.0)",1.6,nan,1,12890.323,1
0,837,catch,"[(1035, 793)]",[],[1],[],horizontal,"(390.0, 262.0)",,"('cti', 1.081),nan",0,12895.146,0
0,838,target,"[(1038, 815)]",[],[1],[0.6333333333333333],vertical,"(890.0, 262.0)",0.7,0.592,1,12899.589,1
0,839,target,"[(1033, 803)]",[],[1],[0.6166666666666667],vertical,"(390.0, 262.0)",1.2,0.578,1,12904.57,1
0,840,target,"[(1040, 795)]",[],[1],[0.48333333333333334],vertical,"(890.0, 262.0)",1.25,0.448,1,12909.97,2
0,841,target,"[(1041, 815)]",[],[1],[0.5833333333333334],vertical,"(890.0, 262.0)",0.6,0.543,1,12915.059,2
0,842,target,"[(1057, 799)]",[],[1],[0.5166666666666666],vertical,"(890.0, 762.0)",1.3166666666666667,0.483,1,12920.304,2
0,843,target,"[(1041, 795)]",[],[1],[0.6],horizontal,"(390.0, 762.0)",0.85,0.56,1,12926.167,2
0,844,target,"[(1029, 796)]",[],[1],[0.65],vertical,"(890.0, 762.0)",0.9666666666666667,0.604,1,12931.498,3
0,845,target,"[(1029, 808)]",[],[1],[0.85],horizontal,"(890.0, 262.0)",0.9333333333333333,nan,0,12937.405,0
0,846,target,"[(1037, 803)]",[],[1],[0.85],horizontal,"(890.0, 762.0)",0.6166666666666667,nan,0,12942.234,0
0,847,target,"[(1019, 803)]",[],[1],[0.5833333333333334],horizontal,"(890.0, 262.0)",0.9,0.548,1,12946.856,1
0,848,target,"[(1037, 807)]",[],[1],[0.6333333333333333],vertical,"(390.0, 262.0)",1.2166666666666666,0.587,1,12952.312,1
0,849,target,"[(1037, 789)]",[],[1],[0.5833333333333334],horizontal,"(890.0, 262.0)",1.4333333333333333,0.542,1,12957.673,2
0,850,target,"[(1037, 799)]",[],[1],[0.55],horizontal,"(890.0, 762.0)",1.2833333333333332,0.513,1,12963.095,2
0,851,catch,"[(1044, 803)]",[],[1],[],vertical,"(890.0, 262.0)",1.6,nan,1,12968.572,2
0,852,target,"[(1026, 795)]",[],[1],[0.7],vertical,"(390.0, 762.0)",0.95,0.659,1,12973.672,2
0,853,target,"[(1029, 795)]",[],[1],[0.6833333333333333],vertical,"(890.0, 762.0)",0.6666666666666666,0.641,1,12978.815,3
0,854,catch,"[(1036, 798)]",[],[1],[],horizontal,"(890.0, 762.0)",1.6,nan,1,12984.355,3
0,855,target,"[(1025, 802)]",[],[1],[0.5833333333333334],horizontal,"(390.0, 762.0)",1.0,0.547,1,12989.989,3
0,856,target,"[(1024, 790)]",[],[1],[0.85],vertical,"(390.0, 262.0)",0.8,nan,0,12995.405,0
0,857,target,"[(1028, 811)]",[],[1],[0.3],horizontal,"(390.0, 262.0)",1.5333333333333332,0.266,1,13000.29,1
0,858,target,"[(1037, 802)]",[],[1],[0.6833333333333333],vertical,"(390.0, 262.0)",0.7166666666666667,0.641,1,13005.814,1
0,859,catch,"[(1033, 793)]",[],[1],[],horizontal,"(390.0, 762.0)",1.6,nan,1,13010.173,2
0,860,target,"[(1034, 813)]",[],[1],[0.85],vertical,"(890.0, 262.0)",0.8666666666666667,nan,0,13015.755,0
0,861,target,"[(1033, 778)]",[],[1],[0.5666666666666667],horizontal,"(890.0, 762.0)",1.05,0.529,1,13020.273,1
0,862,target,"[(1033, 816)]",[],[1],[0.55],horizontal,"(390.0, 262.0)",1.05,0.513,1,13026.722,1
0,863,target,"[(1047, 802)]",[],[1],[0.5166666666666666],vertical,"(390.0, 762.0)",1.2833333333333332,0.478,1,13031.373,2
0,864,catch,"[(1044, 792)]",[],[1],[],horizontal,"(390.0, 262.0)",1.6,nan,1,13037.056,2
0,865,target,"[(1029, 804)]",[],[1],[0.6333333333333333],vertical,"(890.0, 762.0)",0.9166666666666666,0.592,1,13042.441,2
0,866,target,"[(1042, 799)]",[],[1],[0.4],vertical,"(890.0, 262.0)",1.4333333333333333,0.358,1,13047.912,2
0,867,target,"[(1048, 816)]",[],[1],[0.6833333333333333],horizontal,"(390.0, 762.0)",0.9166666666666666,0.641,1,13053.4,3
0,868,target,"[(1039, 810)]",[],[1],[0.3],vertical,"(390.0, 262.0)",1.3666666666666667,0.265,1,13059.089,3
0,869,target,"[(1040, 785)]",[],[1],[0.55],vertical,"(390.0, 262.0)",1.0333333333333332,0.516,1,13065.139,3
0,870,target,"[(1028, 811)]",[],[1],[0.7166666666666667],vertical,"(890.0, 762.0)",0.55,0.671,1,13070.704,3
0,871,target,"[(1049, 811)]",[],[1],[0.5666666666666667],horizontal,"(890.0, 762.0)",0.85,0.533,1,13076.207,3
0,872,target,"[(1054, 810)]",[],[1],[0.85],horizontal,"(390.0, 262.0)",0.6,nan,0,13081.961,0
0,873,target,"[(1040, 809)]",[],[1],[0.6166666666666667],horizontal,"(390.0, 262.0)",0.5666666666666667,0.574,1,13086.273,1
0,874,target,"[(1042, 813)]",[],[1],[0.4166666666666667],vertical,"(890.0, 262.0)",1.3833333333333333,0.38,1,13091.506,1
0,875,target,"[(1033, 803)]",[],[1],[0.6333333333333333],vertical,"(890.0, 262.0)",0.75,0.593,1,13096.427,2
0,876,target,"[(1035, 809)]",[],[1],[0.5333333333333333],vertical,"(890.0, 262.0)",1.1166666666666667,0.494,1,13101.406,2
0,877,target,"[(1000, 801), (1025, 803)]",[],"[0, 1]",[0.6166666666666667],vertical,"(390.0, 762.0)",1.0166666666666666,0.575,1,13107.056,2
0,878,target,"[(1021, 804)]",[],[1],[0.5833333333333334],horizontal,"(890.0, 262.0)",0.8166666666666667,0.538,1,13113.354,2
0,879,catch,"[(1037, 806)]",[],[1],[],horizontal,"(390.0, 262.0)",1.6,nan,1,13118.371,3
0,880,target,"[(1013, 817)]",[],[1],[0.4166666666666667],vertical,"(390.0, 762.0)",1.4166666666666667,0.374,1,13124.021,3
0,881,catch,"[(1037, 802)]",[],[1],[],vertical,"(390.0, 262.0)",1.6,nan,1,13129.946,3
0,882,target,"[(1021, 794)]",[],[1],[0.6],vertical,"(390.0, 762.0)",1.0666666666666667,0.556,1,13135.441,3
0,883,target,"[(1033, 792)]",[],[1],[0.6166666666666667],vertical,"(890.0, 762.0)",1.0833333333333333,0.57,1,13141.57,3
0,884,target,"[(1035, 794)]",[],[1],[0.85],vertical,"(890.0, 762.0)",0.6333333333333333,nan,0,13147.753,0
0,885,catch,"[(1003, 815), (1028, 825)]",[],"[0, 1]",[],horizontal,"(890.0, 762.0)",1.6,nan,1,13152.523,1
0,886,target,"[(1040, 815)]",[],[1],[0.3833333333333333],horizontal,"(890.0, 262.0)",1.3,0.348,1,13158.907,1
0,887,catch,"[(992, 817), (1028, 815)]",[],"[0, 1]",[],vertical,"(890.0, 262.0)",1.6,nan,1,13164.024,2
0,888,target,"[(1023, 803)]",[],[1],[0.6],vertical,"(390.0, 762.0)",1.2333333333333334,0.569,1,13173.351,2
0,889,target,"[(1020, 803)]",[],[1],[0.3833333333333333],vertical,"(390.0, 262.0)",1.2666666666666666,0.344,1,13179.101,2
0,890,target,"[(1037, 811)]",[],[1],[0.6333333333333333],horizontal,"(890.0, 762.0)",1.0166666666666666,0.59,1,13184.505,2
0,891,target,"[(1054, 799)]",[],[1],[0.55],horizontal,"(390.0, 762.0)",1.1666666666666667,0.513,1,13189.941,3
0,892,target,"[(1044, 815)]",[],[1],[0.7333333333333333],horizontal,"(390.0, 762.0)",1.15,0.686,1,13195.99,3
0,893,target,"[(1036, 804)]",[],[1],[0.55],horizontal,"(390.0, 262.0)",0.7833333333333333,0.509,1,13201.908,3
0,894,target,"[(1017, 812)]",[],[1],[0.55],horizontal,"(890.0, 762.0)",1.2333333333333334,0.513,1,13207.491,3
0,895,target,"[(1035, 795)]",[],[1],[0.85],vertical,"(390.0, 762.0)",0.7166666666666667,nan,0,13213.6,0
0,896,target,"[(993, 791), (1033, 796)]",[],"[0, 1]",[0.55],horizontal,"(890.0, 262.0)",0.6166666666666667,0.518,1,13218.573,1
0,897,target,"[(1040, 790)]",[],[1],[0.6333333333333333],horizontal,"(390.0, 762.0)",1.1166666666666667,0.59,1,13225.549,1
0,898,target,"[(1025, 804)]",[],[1],[0.7166666666666667],horizontal,"(390.0, 262.0)",0.5166666666666666,0.677,1,13230.653,2
0,899,target,"[(1029, 819)]",[],[1],[0.85],horizontal,"(890.0, 262.0)",0.75,nan,0,13235.889,0
0,900,target,"[(1017, 816)]",[],[1],[0.6333333333333333],horizontal,"(390.0, 762.0)",1.35,0.595,1,13240.573,1
0,901,target,"[(1037, 809)]",[],[1],[0.8],horizontal,"(390.0, 762.0)",0.8833333333333333,0.758,1,13246.067,1
0,902,catch,"[(1037, 798)]",[],[1],[],horizontal,"(890.0, 262.0)",1.6,nan,1,13250.99,2
0,903,target,"[(998, 805), (1018, 829)]",[],"[0, 1]",[0.85],vertical,"(390.0, 262.0)",0.6166666666666667,nan,0,13256.391,0
0,904,target,"[(1017, 796)]",[],[1],[0.6],horizontal,"(390.0, 762.0)",1.3166666666666667,0.561,1,13261.783,1
0,905,target,"[(1033, 819)]",[],[1],[0.4666666666666667],horizontal,"(890.0, 262.0)",1.3833333333333333,0.434,1,13267.124,1
0,906,target,"[(1037, 805)]",[],[1],[0.13333333333333333],horizontal,"(890.0, 262.0)",1.5666666666666667,0.102,0,13272.151,0
0,907,target,"[(1065, 509), (1010, 863)]",[],"[0, 1]",[0.6166666666666667],horizontal,"(390.0, 262.0)",1.1,0.575,1,13276.863,1
0,908,target,"[(1024, 815)]",[],[1],[0.4666666666666667],horizontal,"(390.0, 762.0)",1.2166666666666666,0.432,1,13311.452,1
0,909,target,"[(1019, 790)]",[],[1],[0.6833333333333333],horizontal,"(890.0, 262.0)",1.2333333333333334,0.649,1,13316.201,2
