block,practice,trial,change_interval_s,change_interval_frames,taps_start_time_during_fix,taps_end_time_during_fix,taps_start_loc_during_fix,taps_end_loc_during_fix,taps_on_lever_during_fix,taps_on_lever_frame_during_fix,taps_on_lever_s_during_fix,fix_xy,bar_orientation,target_xy,rt,acc,time
1,True,1,1.25,75,[],[],"[(1122, 902)]",[],[1],[96],[1.6],"[640.0, 512.0]",vertical,"(890.0, 262.0)",[0.332],1,0.315
1,True,2,1.069,64,[],[],"[(1134, 902)]",[],[1],[73],[1.2166666666666666],"[640.0, 512.0]",horizontal,"(890.0, 762.0)",[0.131],1,3.698
1,True,3,0.413,24,[],[],"[(1141, 911)]",[],[1],[64],[1.0666666666666667],"[640.0, 512.0]",vertical,"(890.0, 262.0)",[0.647],1,6.513
1,True,4,0.957,57,[],[],"[(1157, 904)]",[],[1],[81],[1.35],"[640.0, 512.0]",horizontal,"(890.0, 262.0)",[0.378],1,9.105
1,False,1,0.956,57,[],[],"[(1124, 897)]",[],[1],[78],[1.3],"[640.0, 512.0]",horizontal,"(890.0, 262.0)",[0.33],1,11.922
1,False,2,1.414,84,[],[],"[(1129, 902)]",[],[1],[134],[2.2333333333333334],"[640.0, 512.0]",horizontal,"(890.0, 262.0)",[0.811],0,14.695
1,False,3,0.351,21,[],[],"[(673, 784), (649, 820), (634, 814), (624, 814), (1095, 924)]",[],"[0, 0, 0, 0, 1]",[57],[0.95],"[640.0, 512.0]",horizontal,"(890.0, 262.0)",[0.579],1,21.089
1,False,4,0.584,35,[],[],"[(1135, 895)]",[],[1],[85],[1.4166666666666667],"[640.0, 512.0]",vertical,"(890.0, 762.0)",[0.807],0,28.512
1,False,5,1.458,87,[],[],"[(1123, 910)]",[],[1],[106],[1.7666666666666666],"[640.0, 512.0]",horizontal,"(890.0, 762.0)",[0.295],1,31.428
1,False,6,0.671,40,[],[],"[(1140, 896)]",[],[1],[90],[1.5],"[640.0, 512.0]",horizontal,"(390.0, 262.0)",[0.806],0,37.132
1,False,7,1.106,66,[],[],"[(1197, 850)]",[],[1],[96],[1.6],"[640.0, 512.0]",horizontal,"(890.0, 762.0)",[0.492],1,40.111
1,False,8,1.203,72,[],[],"[(1122, 868)]",[],[1],[122],[2.033333333333333],"[640.0, 512.0]",horizontal,"(890.0, 762.0)",[0.807],0,43.091
1,False,9,0.688,41,[],[],"[(1172, 886)]",[],[1],[91],[1.5166666666666666],"[640.0, 512.0]",horizontal,"(390.0, 762.0)",[0.806],0,46.624
1,False,10,1.22,73,[],[],"[(1161, 893)]",[],[1],[123],[2.05],"[640.0, 512.0]",horizontal,"(390.0, 762.0)",[0.807],0,49.643
1,False,11,0.72,43,[],[],"[(1166, 885)]",[],[1],[88],[1.4666666666666666],"[640.0, 512.0]",vertical,"(390.0, 762.0)",[0.729],1,53.201
1,False,12,0.785,47,[],[],"[(1112, 920)]",[],[1],[90],[1.5],"[640.0, 512.0]",vertical,"(390.0, 262.0)",[0.689],1,56.207
1,False,13,0.961,57,[],[],"[(1165, 870)]",[],[1],[107],[1.7833333333333332],"[640.0, 512.0]",vertical,"(890.0, 762.0)",[0.809],0,59.169
1,False,14,0.978,58,[],[],"[(1146, 921)]",[],[1],[79],[1.3166666666666667],"[640.0, 512.0]",vertical,"(890.0, 762.0)",[0.326],1,64.114
1,False,15,1.231,73,[],[],"[(1146, 931)]",[],[1],[85],[1.4166666666666667],"[640.0, 512.0]",vertical,"(890.0, 262.0)",[0.187],1,88.023
1,False,16,0.917,55,[],[],"[(1145, 907)]",[],[1],[90],[1.5],"[640.0, 512.0]",vertical,"(890.0, 762.0)",[0.56],1,90.926
1,False,17,1.394,83,[],[],"[(1148, 915)]",[],[1],[113],[1.8833333333333333],"[640.0, 512.0]",vertical,"(390.0, 762.0)",[0.477],1,93.927
1,False,18,0.588,35,[],[],"[(1161, 899)]",[],[1],[70],[1.1666666666666667],"[640.0, 512.0]",vertical,"(390.0, 262.0)",[0.559],1,97.156
1,False,19,0.333,19,[],[],"[(1162, 893)]",[],[1],[55],[0.9166666666666666],"[640.0, 512.0]",horizontal,"(390.0, 262.0)",[0.581],1,99.796
1,False,20,1.299,77,[],[],"[(1157, 912)]",[],[1],[105],[1.75],"[640.0, 512.0]",vertical,"(390.0, 262.0)",[0.454],1,102.191
1,False,21,0.518,31,[],[],"[(1161, 893)]",[],[1],[61],[1.0166666666666666],"[640.0, 512.0]",vertical,"(390.0, 262.0)",[0.476],1,105.394
1,False,22,1.292,77,[],[],"[(1171, 896)]",[],[1],[108],[1.8],"[640.0, 512.0]",vertical,"(890.0, 762.0)",[0.494],1,107.818
1,False,23,0.67,40,[],[],"[(1156, 908)]",[],[1],[69],[1.15],"[640.0, 512.0]",horizontal,"(390.0, 262.0)",[0.462],1,111.103
1,False,24,0.304,18,[],[],"[(1174, 949), (1202, 901)]",[],"[0, 1]",[54],[0.9],"[640.0, 512.0]",vertical,"(890.0, 262.0)",[0.581],1,113.685
1,False,25,1.227,73,[],[],"[(1142, 904)]",[],[1],[106],[1.7666666666666666],"[640.0, 512.0]",horizontal,"(390.0, 262.0)",[0.531],1,117.749
1,False,26,0.899,53,[],[],"[(1135, 891)]",[],[1],[91],[1.5166666666666666],"[640.0, 512.0]",vertical,"(390.0, 762.0)",[0.605],1,121.024
1,False,27,0.94,56,[],[],"[(1156, 912)]",[],[1],[84],[1.4],"[640.0, 512.0]",horizontal,"(890.0, 262.0)",[0.45],1,124.02
1,False,28,0.479,28,[],[],"[(1164, 899)]",[],[1],[62],[1.0333333333333332],"[640.0, 512.0]",horizontal,"(890.0, 262.0)",[0.545],1,126.902
1,False,29,0.673,40,[],[],"[(1156, 882)]",[],[1],[75],[1.25],"[640.0, 512.0]",horizontal,"(390.0, 262.0)",[0.565],1,129.411
1,False,30,0.495,29,[],[],"[(1150, 898)]",[],[1],[79],[1.3166666666666667],"[640.0, 512.0]",vertical,"(390.0, 262.0)",[0.813],0,132.121
1,False,31,1.284,77,[],[],"[(1151, 902)]",[],[1],[126],[2.1],"[640.0, 512.0]",vertical,"(890.0, 762.0)",[0.786],1,134.935
1,False,32,0.818,49,[],[],"[(1151, 908)]",[],[1],[80],[1.3333333333333333],"[640.0, 512.0]",vertical,"(390.0, 262.0)",[0.496],1,138.547
1,False,33,0.585,35,[],[],"[(1126, 902)]",[],[1],[85],[1.4166666666666667],"[640.0, 512.0]",horizontal,"(890.0, 262.0)",[0.802],0,141.361
1,False,34,0.404,24,[],[],"[(1149, 890)]",[],[1],[74],[1.2333333333333334],"[640.0, 512.0]",horizontal,"(390.0, 262.0)",[0.813],0,144.27
1,False,35,0.611,36,[],[],"[(1177, 887)]",[],[1],[86],[1.4333333333333333],"[640.0, 512.0]",vertical,"(390.0, 262.0)",[0.812],0,149.804
1,False,36,1.289,77,[],[],"[(1146, 876)]",[],[1],[107],[1.7833333333333332],"[640.0, 512.0]",vertical,"(890.0, 262.0)",[0.478],1,152.783
1,False,37,1.493,89,[],[],"[(1146, 914)]",[],[1],[128],[2.1333333333333333],"[640.0, 512.0]",vertical,"(390.0, 262.0)",[0.628],1,156.067
1,False,38,0.98,58,[],[],"[(1159, 900)]",[],[1],[93],[1.55],"[640.0, 512.0]",horizontal,"(890.0, 762.0)",[0.564],1,159.665
1,False,39,0.828,49,[],[],"[(1126, 902)]",[],[1],[85],[1.4166666666666667],"[640.0, 512.0]",horizontal,"(390.0, 762.0)",[0.579],1,162.731
1,False,40,1.139,68,[],[],"[(1166, 898)]",[],[1],[95],[1.5833333333333333],"[640.0, 512.0]",vertical,"(890.0, 762.0)",[0.434],1,165.652
1,False,41,0.908,54,[],[],"[(1160, 904)]",[],[1],[86],[1.4333333333333333],"[640.0, 512.0]",horizontal,"(890.0, 762.0)",[0.505],1,168.729
1,False,42,1.384,83,[],[],"[(1180, 903)]",[],[1],[115],[1.9166666666666667],"[640.0, 512.0]",horizontal,"(890.0, 262.0)",[0.51],1,171.674
1,False,43,1.474,88,[],[],"[(1155, 894)]",[],[1],[118],[1.9666666666666666],"[640.0, 512.0]",horizontal,"(890.0, 262.0)",[0.477],1,174.972
1,False,44,1.182,70,[],[],"[(1131, 902)]",[],[1],[99],[1.65],"[640.0, 512.0]",horizontal,"(390.0, 762.0)",[0.461],1,178.432
1,False,45,1.229,73,[],[],"[(1161, 916)]",[],[1],[104],[1.7333333333333334],"[640.0, 512.0]",vertical,"(890.0, 762.0)",[0.496],1,181.572
1,False,46,1.374,82,[],[],"[(1135, 898)]",[],[1],[112],[1.8666666666666667],"[640.0, 512.0]",horizontal,"(890.0, 262.0)",[0.474],1,184.829
1,False,47,0.932,55,[],[],"[(1165, 910)]",[],[1],[89],[1.4833333333333334],"[640.0, 512.0]",horizontal,"(390.0, 262.0)",[0.551],1,188.196
1,False,48,1.322,79,[],[],"[(1161, 907)]",[],[1],[110],[1.8333333333333333],"[640.0, 512.0]",horizontal,"(390.0, 262.0)",[0.486],1,191.139
1,False,49,0.465,27,[],[],"[(1131, 918)]",[],[1],[61],[1.0166666666666666],"[640.0, 512.0]",horizontal,"(390.0, 262.0)",[0.543],1,194.438
1,False,50,1.186,71,[],[],"[(1140, 905)]",[],[1],[111],[1.8499999999999999],"[640.0, 512.0]",vertical,"(890.0, 762.0)",[0.637],1,196.924
1,False,51,1.215,72,[],[],"[(1165, 908)]",[],[1],[107],[1.7833333333333332],"[640.0, 512.0]",horizontal,"(390.0, 762.0)",[0.56],1,200.276
1,False,52,0.959,57,[],[],"[(1138, 901)]",[],[1],[96],[1.6],"[640.0, 512.0]",vertical,"(390.0, 262.0)",[0.627],1,203.516
1,False,53,1.316,78,[],[],"[(1180, 903)]",[],[1],[113],[1.8833333333333333],"[640.0, 512.0]",vertical,"(390.0, 262.0)",[0.563],1,206.591
1,False,54,1.49,89,[],[],"[(1164, 896)]",[],[1],[123],[2.05],"[640.0, 512.0]",horizontal,"(390.0, 762.0)",[0.543],1,209.981
1,False,55,0.416,24,[],[],"[(1127, 918)]",[],[1],[57],[0.95],"[640.0, 512.0]",vertical,"(390.0, 262.0)",[0.529],1,213.517
1,False,56,0.634,38,[],[],"[(1126, 907)]",[],[1],[88],[1.4666666666666666],"[640.0, 512.0]",vertical,"(390.0, 762.0)",[0.807],0,215.997
1,False,57,1.26,75,[],[],"[(1140, 913)]",[],[1],[102],[1.7],"[640.0, 512.0]",horizontal,"(390.0, 262.0)",[0.43],1,218.985
1,False,58,0.549,32,[],[],"[(1156, 910)]",[],[1],[63],[1.05],"[640.0, 512.0]",horizontal,"(890.0, 262.0)",[0.492],1,227.009
1,False,59,1.251,75,[],[],"[(1131, 918)]",[],[1],[102],[1.7],"[640.0, 512.0]",horizontal,"(890.0, 762.0)",[0.433],1,229.655
1,False,60,0.809,48,[],[],"[(1144, 906)]",[],[1],[80],[1.3333333333333333],"[640.0, 512.0]",vertical,"(390.0, 262.0)",[0.508],1,233.068
2,False,61,0.703,42,[],[],"[(1127, 909)]",[],[1],[73],[1.2166666666666666],"[640.0, 512.0]",horizontal,"(390.0, 762.0)",[0.497],1,235.896
2,False,62,1.4,84,[],[],"[(1131, 923)]",[],[1],[114],[1.9],"[640.0, 512.0]",horizontal,"(390.0, 762.0)",[0.48],1,238.624
2,False,63,0.383,22,[],[],"[(1131, 917)]",[],[1],[56],[0.9333333333333333],"[640.0, 512.0]",vertical,"(390.0, 262.0)",[0.541],1,242.01
2,False,64,0.501,30,[],[],"[(1132, 896)]",[],[1],[66],[1.1],"[640.0, 512.0]",vertical,"(390.0, 762.0)",[0.58],1,247.291
2,False,65,0.68,40,[],[],"[(1132, 907)]",[],[1],[85],[1.4166666666666667],"[640.0, 512.0]",vertical,"(890.0, 262.0)",[0.722],1,249.912
2,False,66,0.342,20,[],[],"[(1161, 914)]",[],[1],[55],[0.9166666666666666],"[640.0, 512.0]",vertical,"(890.0, 762.0)",[0.562],1,252.836
2,False,67,1.152,69,[],[],"[(1146, 915)]",[],[1],[105],[1.75],"[640.0, 512.0]",horizontal,"(390.0, 762.0)",[0.569],1,255.282
2,False,68,1.099,65,[],[],"[(1143, 922)]",[],[1],[107],[1.7833333333333332],"[640.0, 512.0]",horizontal,"(390.0, 762.0)",[0.677],1,258.514
2,False,69,1.122,67,[],[],"[(1139, 915)]",[],[1],[93],[1.55],"[640.0, 512.0]",vertical,"(890.0, 262.0)",[0.418],1,261.739
2,False,70,0.458,27,[],[],"[(1141, 909)]",[],[1],[58],[0.9666666666666667],"[640.0, 512.0]",vertical,"(890.0, 762.0)",[0.498],1,264.804
2,False,71,0.425,25,[],[],"[(1131, 920)]",[],[1],[55],[0.9166666666666666],"[640.0, 512.0]",vertical,"(390.0, 762.0)",[0.478],1,267.301
2,False,72,1.367,82,[],[],"[(1131, 902)]",[],[1],[114],[1.9],"[640.0, 512.0]",vertical,"(890.0, 762.0)",[0.51],1,269.72
2,False,73,0.596,35,[],[],"[(1151, 919)]",[],[1],[81],[1.35],"[640.0, 512.0]",horizontal,"(890.0, 762.0)",[0.745],1,273.083
2,False,74,0.479,28,[],[],"[(1133, 920)]",[],[1],[59],[0.9833333333333333],"[640.0, 512.0]",horizontal,"(390.0, 262.0)",[0.493],1,275.899
2,False,75,1.231,73,[],[],"[(1156, 911)]",[],[1],[102],[1.7],"[640.0, 512.0]",vertical,"(890.0, 762.0)",[0.471],1,278.363
2,False,76,0.679,40,[],[],"[(1132, 918)]",[],[1],[76],[1.2666666666666666],"[640.0, 512.0]",vertical,"(390.0, 762.0)",[0.579],1,281.588
2,False,77,1.479,88,[],[],"[(1160, 898)]",[],[1],[121],[2.0166666666666666],"[640.0, 512.0]",horizontal,"(890.0, 762.0)",[0.527],1,284.373
2,False,78,1.256,75,[],[],"[(1131, 918)]",[],[1],[109],[1.8166666666666667],"[640.0, 512.0]",vertical,"(390.0, 762.0)",[0.544],1,287.897
2,False,79,1.35,81,[],[],"[(1147, 937)]",[],[1],[112],[1.8666666666666667],"[640.0, 512.0]",vertical,"(890.0, 262.0)",[0.495],1,291.196
2,False,80,0.658,39,[],[],"[(1136, 919)]",[],[1],[71],[1.1833333333333333],"[640.0, 512.0]",vertical,"(390.0, 262.0)",[0.516],1,294.412
2,False,81,0.706,42,[],[],"[(1141, 923)]",[],[1],[75],[1.25],"[640.0, 512.0]",vertical,"(390.0, 262.0)",[0.524],1,297.094
2,False,82,1.36,81,[],[],"[(1128, 895)]",[],[1],[113],[1.8833333333333333],"[640.0, 512.0]",horizontal,"(390.0, 262.0)",[0.513],1,299.85
2,False,83,0.573,34,[],[],"[(1146, 894)]",[],[1],[64],[1.0666666666666667],"[640.0, 512.0]",vertical,"(890.0, 762.0)",[0.477],1,303.253
2,False,84,0.356,21,[],[],"[(1131, 903)]",[],[1],[52],[0.8666666666666667],"[640.0, 512.0]",vertical,"(390.0, 262.0)",[0.496],1,305.831
2,False,85,1.169,70,[],[],"[(1152, 936)]",[],[1],[99],[1.65],"[640.0, 512.0]",horizontal,"(390.0, 762.0)",[0.463],1,308.206
2,False,86,0.436,26,[],[],"[(1152, 915)]",[],[1],[55],[0.9166666666666666],"[640.0, 512.0]",vertical,"(390.0, 762.0)",[0.471],1,311.348
2,False,87,0.528,31,[],[],"[(1127, 899)]",[],[1],[61],[1.0166666666666666],"[640.0, 512.0]",vertical,"(390.0, 762.0)",[0.475],1,313.751
2,False,88,0.639,38,[],[],"[(1126, 916)]",[],[1],[75],[1.25],"[640.0, 512.0]",horizontal,"(390.0, 762.0)",[0.59],1,316.261
2,False,89,1.151,69,[],[],"[(1131, 912)]",[],[1],[100],[1.6666666666666667],"[640.0, 512.0]",vertical,"(390.0, 762.0)",[0.494],1,318.998
2,False,90,1.237,74,[],[],"[(1152, 904)]",[],[1],[104],[1.7333333333333334],"[640.0, 512.0]",vertical,"(390.0, 762.0)",[0.472],1,322.22
2,False,91,0.7,42,[],[],"[(1127, 915)]",[],[1],[87],[1.45],"[640.0, 512.0]",vertical,"(890.0, 262.0)",[0.729],1,325.486
2,False,92,0.898,53,[],[],"[(1131, 898)]",[],[1],[85],[1.4166666666666667],"[640.0, 512.0]",vertical,"(890.0, 262.0)",[0.508],1,328.525
2,False,93,0.736,44,[],[],"[(1131, 902)]",[],[1],[75],[1.25],"[640.0, 512.0]",horizontal,"(890.0, 762.0)",[0.496],1,331.549
2,False,94,0.844,50,[],[],"[(1136, 910)]",[],[1],[83],[1.3833333333333333],"[640.0, 512.0]",vertical,"(890.0, 762.0)",[0.523],1,334.294
2,False,95,0.803,48,[],[],"[(1151, 922)]",[],[1],[79],[1.3166666666666667],"[640.0, 512.0]",horizontal,"(890.0, 262.0)",[0.492],1,337.175
2,False,96,1.021,61,[],[],"[(1131, 915)]",[],[1],[90],[1.5],"[640.0, 512.0]",vertical,"(890.0, 262.0)",[0.473],1,340.046
2,False,97,0.385,23,[],[],"[(1131, 906)]",[],[1],[58],[0.9666666666666667],"[640.0, 512.0]",vertical,"(890.0, 762.0)",[0.568],1,343.061
2,False,98,0.542,32,[],[],"[(1131, 891)]",[],[1],[63],[1.05],"[640.0, 512.0]",vertical,"(390.0, 262.0)",[0.492],1,345.567
2,False,99,0.693,41,[],[],"[(1137, 919)]",[],[1],[80],[1.3333333333333333],"[640.0, 512.0]",horizontal,"(890.0, 762.0)",[0.629],1,348.09
2,False,100,0.375,22,[],[],"[(1131, 908)]",[],[1],[52],[0.8666666666666667],"[640.0, 512.0]",vertical,"(890.0, 262.0)",[0.477],1,350.938
2,False,101,0.365,21,[],[],"[(1136, 923)]",[],[1],[55],[0.9166666666666666],"[640.0, 512.0]",vertical,"(390.0, 262.0)",[0.549],1,353.296
2,False,102,0.724,43,[],[],"[(1151, 923)]",[],[1],[70],[1.1666666666666667],"[640.0, 512.0]",vertical,"(890.0, 262.0)",[0.43],1,355.724
2,False,103,1.455,87,[],[],"[(1131, 915)]",[],[1],[128],[2.1333333333333333],"[640.0, 512.0]",horizontal,"(890.0, 762.0)",[0.667],1,358.38
2,False,104,0.341,20,[],[],"[(1131, 912)]",[],[1],[53],[0.8833333333333333],"[640.0, 512.0]",horizontal,"(390.0, 762.0)",[0.527],1,362.044
2,False,105,0.864,51,[],[],"[(1137, 902)]",[],[1],[80],[1.3333333333333333],"[640.0, 512.0]",vertical,"(890.0, 262.0)",[0.457],1,364.365
2,False,106,0.987,59,[],[],"[(1131, 918)]",[],[1],[89],[1.4833333333333334],"[640.0, 512.0]",horizontal,"(890.0, 762.0)",[0.475],1,367.167
2,False,107,0.578,34,[],[],"[(1148, 899)]",[],[1],[64],[1.0666666666666667],"[640.0, 512.0]",horizontal,"(390.0, 762.0)",[0.484],1,370.164
2,False,108,1.026,61,[],[],"[(1133, 918)]",[],[1],[90],[1.5],"[640.0, 512.0]",vertical,"(890.0, 262.0)",[0.463],1,372.726
2,False,109,0.979,58,[],[],"[(1131, 932)]",[],[1],[94],[1.5666666666666667],"[640.0, 512.0]",vertical,"(390.0, 762.0)",[0.574],1,375.736
2,False,110,0.698,41,[],[],"[(1131, 910)]",[],[1],[74],[1.2333333333333334],"[640.0, 512.0]",horizontal,"(890.0, 762.0)",[0.526],1,382.408
2,False,111,0.924,55,[],[],"[(1142, 911)]",[],[1],[85],[1.4166666666666667],"[640.0, 512.0]",vertical,"(890.0, 762.0)",[0.485],1,385.11
2,False,112,0.993,59,[],[],"[(1131, 903)]",[],[1],[89],[1.4833333333333334],"[640.0, 512.0]",vertical,"(390.0, 762.0)",[0.477],1,388.04
2,False,113,0.344,20,[],[],"[(1131, 912)]",[],[1],[52],[0.8666666666666667],"[640.0, 512.0]",vertical,"(390.0, 762.0)",[0.504],1,398.975
2,False,114,0.345,20,[],[],"[(1130, 932)]",[],[1],[54],[0.9],"[640.0, 512.0]",horizontal,"(390.0, 262.0)",[0.546],1,401.387
2,False,115,1.353,81,[],[],"[(1126, 920)]",[],[1],[110],[1.8333333333333333],"[640.0, 512.0]",horizontal,"(390.0, 262.0)",[0.459],1,403.853
2,False,116,0.398,23,[],[],"[(1131, 918)]",[],[1],[56],[0.9333333333333333],"[640.0, 512.0]",horizontal,"(890.0, 262.0)",[0.539],1,407.427
2,False,117,1.078,64,[],[],"[(1135, 917)]",[],[1],[92],[1.5333333333333332],"[640.0, 512.0]",horizontal,"(890.0, 262.0)",[0.444],1,409.915
2,False,118,0.486,29,[],[],"[(1145, 915)]",[],[1],[58],[0.9666666666666667],"[640.0, 512.0]",vertical,"(390.0, 262.0)",[0.458],1,412.934
2,False,119,0.988,59,[],[],"[(1156, 927)]",[],[1],[101],[1.6833333333333333],"[640.0, 512.0]",horizontal,"(890.0, 762.0)",[0.671],1,415.424
2,False,120,1.175,70,[],[],"[(1131, 918)]",[],[1],[120],[2.0],"[640.0, 512.0]",vertical,"(890.0, 262.0)",[0.815],0,419.167
3,False,121,1.1,66,[],[],"[(1164, 890)]",[],[1],[98],[1.6333333333333333],"[640.0, 512.0]",horizontal,"(890.0, 262.0)",[0.52],1,422.693
3,False,122,1.084,65,[],[],"[(1151, 956), (1159, 921)]",[],"[0, 1]",[115],[1.9166666666666667],"[640.0, 512.0]",horizontal,"(390.0, 762.0)",[0.805],0,425.897
3,False,123,0.812,48,[],[],"[(1146, 927)]",[],[1],[79],[1.3166666666666667],"[640.0, 512.0]",vertical,"(890.0, 762.0)",[0.506],1,438.802
3,False,124,0.472,28,[],[],"[(1150, 917)]",[],[1],[62],[1.0333333333333332],"[640.0, 512.0]",horizontal,"(890.0, 762.0)",[0.542],1,441.697
3,False,125,0.439,26,[],[],"[(1151, 928)]",[],[1],[59],[0.9833333333333333],"[640.0, 512.0]",vertical,"(390.0, 262.0)",[0.525],1,444.259
3,False,126,0.581,34,[],[],"[(1146, 924)]",[],[1],[80],[1.3333333333333333],"[640.0, 512.0]",horizontal,"(890.0, 262.0)",[0.741],1,446.751
3,False,127,1.2,72,[],[],"[(1171, 911)]",[],[1],[103],[1.7166666666666666],"[640.0, 512.0]",vertical,"(390.0, 262.0)",[0.497],1,449.591
3,False,128,0.875,52,[],[],"[(1165, 912)]",[],[1],[90],[1.5],"[640.0, 512.0]",horizontal,"(890.0, 262.0)",[0.606],1,452.841
3,False,129,0.965,57,[],[],"[(1136, 900)]",[],[1],[87],[1.45],"[640.0, 512.0]",vertical,"(890.0, 762.0)",[0.482],1,455.894
3,False,130,0.764,45,[],[],"[(1146, 922)]",[],[1],[75],[1.25],"[640.0, 512.0]",vertical,"(390.0, 262.0)",[0.481],1,458.884
3,False,131,0.567,34,[],[],"[(1126, 916)]",[],[1],[65],[1.0833333333333333],"[640.0, 512.0]",horizontal,"(390.0, 262.0)",[0.496],1,462.182
3,False,132,0.83,49,[],[],"[(1136, 919)]",[],[1],[80],[1.3333333333333333],"[640.0, 512.0]",horizontal,"(890.0, 262.0)",[0.498],1,464.811
3,False,133,1.047,62,[],[],"[(1151, 912)]",[],[1],[95],[1.5833333333333333],"[640.0, 512.0]",horizontal,"(890.0, 762.0)",[0.525],1,467.644
3,False,134,1.012,60,[],[],"[(1131, 898)]",[],[1],[89],[1.4833333333333334],"[640.0, 512.0]",vertical,"(390.0, 762.0)",[0.461],1,470.708
3,False,135,0.733,43,[],[],"[(1151, 902)]",[],[1],[74],[1.2333333333333334],"[640.0, 512.0]",horizontal,"(390.0, 762.0)",[0.494],1,473.704
3,False,136,1.496,89,[],[],"[(1137, 922)]",[],[1],[120],[2.0],"[640.0, 512.0]",horizontal,"(890.0, 762.0)",[0.492],1,476.455
3,False,137,0.428,25,[],[],"[(1131, 905)]",[],[1],[55],[0.9166666666666666],"[640.0, 512.0]",vertical,"(890.0, 262.0)",[0.481],1,479.947
3,False,138,1.171,70,[],[],"[(1151, 927)]",[],[1],[102],[1.7],"[640.0, 512.0]",horizontal,"(890.0, 762.0)",[0.51],1,482.397
3,False,139,0.645,38,[],[],"[(1129, 906)]",[],[1],[68],[1.1333333333333333],"[640.0, 512.0]",vertical,"(390.0, 762.0)",[0.481],1,485.59
3,False,140,1.018,61,[],[],"[(1138, 901)]",[],[1],[95],[1.5833333333333333],"[640.0, 512.0]",horizontal,"(390.0, 262.0)",[0.545],1,488.211
3,False,141,1.147,68,[],[],"[(1131, 899)]",[],[1],[101],[1.6833333333333333],"[640.0, 512.0]",vertical,"(890.0, 262.0)",[0.523],1,491.309
3,False,142,0.977,58,[],[],"[(1142, 915)]",[],[1],[88],[1.4666666666666666],"[640.0, 512.0]",horizontal,"(890.0, 262.0)",[0.48],1,494.453
3,False,143,0.856,51,[],[],"[(1146, 922)]",[],[1],[79],[1.3166666666666667],"[640.0, 512.0]",vertical,"(390.0, 262.0)",[0.443],1,497.419
3,False,144,0.774,46,[],[],"[(1147, 923)]",[],[1],[79],[1.3166666666666667],"[640.0, 512.0]",horizontal,"(390.0, 262.0)",[0.527],1,500.235
3,False,145,1.251,75,[],[],"[(1132, 904)]",[],[1],[102],[1.7],"[640.0, 512.0]",vertical,"(890.0, 262.0)",[0.432],1,503.118
3,False,146,0.913,54,[],[],"[(1131, 923)]",[],[1],[83],[1.3833333333333333],"[640.0, 512.0]",vertical,"(890.0, 262.0)",[0.461],1,506.33
3,False,147,1.265,75,[],[],"[(1146, 915)]",[],[1],[105],[1.75],"[640.0, 512.0]",vertical,"(890.0, 262.0)",[0.478],1,509.208
3,False,148,1.223,73,[],[],"[(1137, 897)]",[],[1],[107],[1.7833333333333332],"[640.0, 512.0]",vertical,"(390.0, 262.0)",[0.546],1,512.428
3,False,149,1.337,80,[],[],"[(1155, 909)]",[],[1],[108],[1.8],"[640.0, 512.0]",horizontal,"(390.0, 762.0)",[0.442],1,515.702
3,False,150,0.952,57,[],[],"[(1139, 917)]",[],[1],[87],[1.45],"[640.0, 512.0]",vertical,"(390.0, 762.0)",[0.481],1,518.996
3,False,151,0.356,21,[],[],"[(1132, 902)]",[],[1],[61],[1.0166666666666666],"[640.0, 512.0]",vertical,"(390.0, 762.0)",[0.642],1,521.944
3,False,152,0.941,56,[],[],"[(1137, 917)]",[],[1],[90],[1.5],"[640.0, 512.0]",horizontal,"(390.0, 762.0)",[0.545],1,524.471
3,False,153,0.502,30,[],[],"[(1131, 905)]",[],[1],[60],[1.0],"[640.0, 512.0]",horizontal,"(890.0, 262.0)",[0.477],1,527.499
3,False,154,0.958,57,[],[],"[(1149, 914)]",[],[1],[86],[1.4333333333333333],"[640.0, 512.0]",vertical,"(390.0, 262.0)",[0.46],1,529.948
3,False,155,0.578,34,[],[],"[(1145, 913)]",[],[1],[73],[1.2166666666666666],"[640.0, 512.0]",horizontal,"(890.0, 762.0)",[0.633],1,532.873
3,False,156,0.738,44,[],[],"[(1132, 905)]",[],[1],[75],[1.25],"[640.0, 512.0]",vertical,"(890.0, 262.0)",[0.491],1,535.604
3,False,157,1.13,67,[],[],"[(1143, 915)]",[],[1],[107],[1.7833333333333332],"[640.0, 512.0]",vertical,"(390.0, 762.0)",[0.642],1,538.33
3,False,158,0.342,20,[],[],"[(1156, 922)]",[],[1],[51],[0.85],"[640.0, 512.0]",horizontal,"(390.0, 762.0)",[0.496],1,541.582
3,False,159,1.237,74,[],[],"[(1146, 920)]",[],[1],[117],[1.95],"[640.0, 512.0]",horizontal,"(390.0, 762.0)",[0.693],1,543.953
3,False,160,0.868,52,[],[],"[(1131, 922)]",[],[1],[81],[1.35],"[640.0, 512.0]",horizontal,"(390.0, 762.0)",[0.462],1,547.407
3,False,161,0.611,36,[],[],"[(1131, 907)]",[],[1],[68],[1.1333333333333333],"[640.0, 512.0]",horizontal,"(890.0, 762.0)",[0.512],1,556.09
3,False,162,1.058,63,[],[],"[(1134, 917)]",[],[1],[98],[1.6333333333333333],"[640.0, 512.0]",vertical,"(890.0, 762.0)",[0.561],1,558.687
3,False,163,0.64,38,[],[],"[(1131, 919)]",[],[1],[70],[1.1666666666666667],"[640.0, 512.0]",vertical,"(890.0, 262.0)",[0.511],1,561.856
3,False,164,1.26,75,[],[],"[(1145, 917)]",[],[1],[109],[1.8166666666666667],"[640.0, 512.0]",vertical,"(390.0, 762.0)",[0.548],1,564.539
3,False,165,0.535,32,[],[],"[(1117, 927)]",[],[1],[63],[1.05],"[640.0, 512.0]",vertical,"(890.0, 762.0)",[0.494],1,567.781
3,False,166,0.649,38,[],[],"[(1144, 906)]",[],[1],[66],[1.1],"[640.0, 512.0]",vertical,"(890.0, 262.0)",[0.445],1,570.337
3,False,167,1.134,68,[],[],"[(1131, 922)]",[],[1],[118],[1.9666666666666666],"[640.0, 512.0]",vertical,"(890.0, 262.0)",[0.804],0,572.96
3,False,168,0.743,44,[],[],"[(1131, 898)]",[],[1],[73],[1.2166666666666666],"[640.0, 512.0]",horizontal,"(890.0, 262.0)",[0.465],1,576.813
3,False,169,1.407,84,[],[],"[(1135, 924)]",[],[1],[119],[1.9833333333333334],"[640.0, 512.0]",vertical,"(390.0, 262.0)",[0.564],1,582.552
3,False,170,0.426,25,[],[],"[(1122, 936)]",[],[1],[56],[0.9333333333333333],"[640.0, 512.0]",vertical,"(390.0, 262.0)",[0.495],1,586.111
3,False,171,1.166,69,[],[],"[(1161, 913)]",[],[1],[97],[1.6166666666666667],"[640.0, 512.0]",vertical,"(890.0, 262.0)",[0.441],1,599.624
3,False,172,0.361,21,[],[],"[(1161, 923)]",[],[1],[53],[0.8833333333333333],"[640.0, 512.0]",horizontal,"(390.0, 762.0)",[0.516],1,602.8
3,False,173,0.415,24,[],[],"[(1131, 921)]",[],[1],[68],[1.1333333333333333],"[640.0, 512.0]",horizontal,"(890.0, 262.0)",[0.709],1,605.205
3,False,174,0.892,53,[],[],"[(1161, 922)]",[],[1],[82],[1.3666666666666667],"[640.0, 512.0]",vertical,"(390.0, 262.0)",[0.46],1,607.908
3,False,175,0.654,39,[],[],"[(1131, 913)]",[],[1],[66],[1.1],"[640.0, 512.0]",vertical,"(890.0, 262.0)",[0.431],1,610.841
3,False,176,1.375,82,[],[],"[(1146, 920)]",[],[1],[112],[1.8666666666666667],"[640.0, 512.0]",horizontal,"(390.0, 262.0)",[0.476],1,613.474
3,False,177,0.573,34,[],[],"[(1140, 917)]",[],[1],[69],[1.15],"[640.0, 512.0]",horizontal,"(390.0, 762.0)",[0.557],1,616.814
3,False,178,0.992,59,[],[],"[(1141, 928)]",[],[1],[96],[1.6],"[640.0, 512.0]",horizontal,"(890.0, 762.0)",[0.594],1,619.481
3,False,179,0.548,32,[],[],"[(1118, 909)]",[],[1],[64],[1.0666666666666667],"[640.0, 512.0]",horizontal,"(390.0, 262.0)",[0.509],1,622.586
3,False,180,0.989,59,[],[],"[(1146, 927)]",[],[1],[104],[1.7333333333333334],"[640.0, 512.0]",vertical,"(390.0, 762.0)",[0.729],1,625.165
4,False,181,0.48,28,[],[],"[(1136, 912)]",[],[1],[58],[0.9666666666666667],"[640.0, 512.0]",vertical,"(390.0, 762.0)",[0.478],1,628.448
4,False,182,1.278,76,[],[],"[(1149, 906)]",[],[1],[103],[1.7166666666666666],"[640.0, 512.0]",vertical,"(390.0, 262.0)",[0.433],1,630.943
4,False,183,0.431,25,[],[],"[(1122, 911)]",[],[1],[57],[0.95],"[640.0, 512.0]",horizontal,"(890.0, 262.0)",[0.509],1,634.195
4,False,184,0.399,23,[],[],"[(1131, 907)]",[],[1],[56],[0.9333333333333333],"[640.0, 512.0]",horizontal,"(890.0, 762.0)",[0.529],1,637.133
4,False,185,0.452,27,[],[],"[(1135, 913)]",[],[1],[58],[0.9666666666666667],"[640.0, 512.0]",horizontal,"(890.0, 762.0)",[0.496],1,639.575
4,False,186,0.604,36,[],[],"[(1102, 938)]",[],[1],[66],[1.1],"[640.0, 512.0]",vertical,"(390.0, 762.0)",[0.483],1,642.073
4,False,187,0.564,33,[],[],"[(1151, 932)]",[],[1],[74],[1.2333333333333334],"[640.0, 512.0]",horizontal,"(390.0, 262.0)",[0.671],1,646.711
4,False,188,0.894,53,[],[],"[(1134, 920)]",[],[1],[85],[1.4166666666666667],"[640.0, 512.0]",horizontal,"(390.0, 762.0)",[0.512],1,649.459
4,False,189,0.812,48,[],[],"[(1131, 902)]",[],[1],[85],[1.4166666666666667],"[640.0, 512.0]",horizontal,"(390.0, 262.0)",[0.597],1,652.343
4,False,190,1.496,89,[],[],"[(1146, 917)]",[],[1],[120],[2.0],"[640.0, 512.0]",horizontal,"(390.0, 762.0)",[0.493],1,655.272
4,False,191,1.49,89,[],[],"[(1136, 907)]",[],[1],[116],[1.9333333333333333],"[640.0, 512.0]",vertical,"(390.0, 262.0)",[0.428],1,658.693
4,False,192,0.457,27,[],[],"[(1146, 912)]",[],[1],[68],[1.1333333333333333],"[640.0, 512.0]",horizontal,"(890.0, 762.0)",[0.666],1,662.114
4,False,193,1.067,64,[],[],"[(1131, 902)]",[],[1],[93],[1.55],"[640.0, 512.0]",horizontal,"(390.0, 262.0)",[0.464],1,664.763
4,False,194,1.049,62,[],[],"[(1147, 924)]",[],[1],[90],[1.5],"[640.0, 512.0]",horizontal,"(390.0, 262.0)",[0.443],1,667.806
4,False,195,0.657,39,[],[],"[(1145, 903)]",[],[1],[68],[1.1333333333333333],"[640.0, 512.0]",vertical,"(890.0, 262.0)",[0.462],1,670.798
4,False,196,0.648,38,[],[],"[(1131, 902)]",[],[1],[69],[1.15],"[640.0, 512.0]",horizontal,"(890.0, 762.0)",[0.495],1,673.359
4,False,197,1.107,66,[],[],"[(1131, 917)]",[],[1],[100],[1.6666666666666667],"[640.0, 512.0]",vertical,"(890.0, 762.0)",[0.545],1,676.002
4,False,198,0.5,30,[],[],"[(1132, 919)]",[],[1],[62],[1.0333333333333332],"[640.0, 512.0]",horizontal,"(390.0, 762.0)",[0.522],1,679.166
4,False,199,1.44,86,[],[],"[(1156, 916)]",[],[1],[120],[2.0],"[640.0, 512.0]",horizontal,"(890.0, 762.0)",[0.542],1,681.711
4,False,200,1.234,74,[],[],"[(1131, 921)]",[],[1],[119],[1.9833333333333334],"[640.0, 512.0]",horizontal,"(890.0, 762.0)",[0.729],1,685.227
4,False,201,1.211,72,[],[],"[(1145, 917)]",[],[1],[108],[1.8],"[640.0, 512.0]",vertical,"(390.0, 762.0)",[0.577],1,688.718
4,False,202,0.619,37,[],[],"[(1133, 932)]",[],[1],[75],[1.25],"[640.0, 512.0]",vertical,"(390.0, 262.0)",[0.61],1,692.024
4,False,203,0.786,47,[],[],"[(1146, 914)]",[],[1],[76],[1.2666666666666666],"[640.0, 512.0]",horizontal,"(390.0, 762.0)",[0.465],1,694.758
4,False,204,0.378,22,[],[],"[(1128, 919)]",[],[1],[55],[0.9166666666666666],"[640.0, 512.0]",horizontal,"(390.0, 262.0)",[0.529],1,697.561
4,False,205,1.418,85,[],[],"[(1156, 918)]",[],[1],[113],[1.8833333333333333],"[640.0, 512.0]",horizontal,"(890.0, 262.0)",[0.452],1,700.01
4,False,206,0.306,18,[],[],"[(1150, 910)]",[],[1],[50],[0.8333333333333334],"[640.0, 512.0]",vertical,"(890.0, 762.0)",[0.516],1,703.461
4,False,207,1.177,70,[],[],"[(1137, 912)]",[],[1],[109],[1.8166666666666667],"[640.0, 512.0]",horizontal,"(890.0, 762.0)",[0.625],1,705.798
4,False,208,0.945,56,[],[],"[(1136, 910)]",[],[1],[86],[1.4333333333333333],"[640.0, 512.0]",vertical,"(390.0, 762.0)",[0.477],1,709.321
4,False,209,1.015,60,[],[],"[(1131, 915)]",[],[1],[94],[1.5666666666666667],"[640.0, 512.0]",vertical,"(890.0, 262.0)",[0.545],1,712.281
4,False,210,0.938,56,[],[],"[(1131, 939)]",[],[1],[84],[1.4],"[640.0, 512.0]",vertical,"(890.0, 262.0)",[0.449],1,715.374
4,False,211,0.854,51,[],[],"[(1126, 909)]",[],[1],[95],[1.5833333333333333],"[640.0, 512.0]",horizontal,"(890.0, 762.0)",[0.707],1,724.6
4,False,212,0.681,40,[],[],"[(1131, 912)]",[],[1],[69],[1.15],"[640.0, 512.0]",horizontal,"(890.0, 262.0)",[0.461],1,727.698
4,False,213,1.299,77,[],[],"[(1131, 912)]",[],[1],[107],[1.7833333333333332],"[640.0, 512.0]",vertical,"(390.0, 762.0)",[0.479],1,730.385
4,False,214,1.352,81,[],[],"[(1131, 927)]",[],[1],[120],[2.0],"[640.0, 512.0]",horizontal,"(890.0, 262.0)",[0.63],1,733.651
4,False,215,0.935,56,[],[],"[(1130, 910)]",[],[1],[85],[1.4166666666666667],"[640.0, 512.0]",horizontal,"(390.0, 762.0)",[0.463],1,737.226
4,False,216,0.997,59,[],[],"[(1154, 913)]",[],[1],[89],[1.4833333333333334],"[640.0, 512.0]",vertical,"(890.0, 262.0)",[0.475],1,740.972
4,False,217,1.064,63,[],[],"[(1137, 914)]",[],[1],[92],[1.5333333333333332],"[640.0, 512.0]",vertical,"(890.0, 262.0)",[0.461],1,743.948
4,False,218,0.707,42,[],[],"[(1131, 914)]",[],[1],[83],[1.3833333333333333],"[640.0, 512.0]",vertical,"(890.0, 762.0)",[0.656],1,746.998
4,False,219,1.07,64,[],[],"[(1164, 917)]",[],[1],[114],[1.9],"[640.0, 512.0]",horizontal,"(390.0, 262.0)",[0.805],0,749.852
4,False,220,0.567,34,[],[],"[(1160, 899)]",[],[1],[65],[1.0833333333333333],"[640.0, 512.0]",horizontal,"(390.0, 262.0)",[0.498],1,753.253
4,False,221,0.961,57,[],[],"[(1151, 917)]",[],[1],[90],[1.5],"[640.0, 512.0]",horizontal,"(890.0, 762.0)",[0.53],1,755.911
4,False,222,0.622,37,[],[],"[(1131, 930)]",[],[1],[67],[1.1166666666666667],"[640.0, 512.0]",vertical,"(390.0, 262.0)",[0.479],1,758.954
4,False,223,0.743,44,[],[],"[(1132, 923)]",[],[1],[84],[1.4],"[640.0, 512.0]",horizontal,"(390.0, 262.0)",[0.648],1,788.647
4,False,224,1.025,61,[],[],"[(1099, 933)]",[],[1],[106],[1.7666666666666666],"[640.0, 512.0]",horizontal,"(390.0, 762.0)",[0.733],1,791.569
4,False,225,1.213,72,[],[],"[(1130, 910)]",[],[1],[113],[1.8833333333333333],"[640.0, 512.0]",horizontal,"(890.0, 762.0)",[0.657],1,799.323
4,False,226,0.913,54,[],[],"[(1128, 922)]",[],[1],[85],[1.4166666666666667],"[640.0, 512.0]",vertical,"(890.0, 262.0)",[0.501],1,802.74
4,False,227,0.757,45,[],[],"[(1145, 909)]",[],[1],[74],[1.2333333333333334],"[640.0, 512.0]",vertical,"(390.0, 262.0)",[0.461],1,813.0
4,False,228,0.396,23,[],[],"[(1148, 914)]",[],[1],[63],[1.05],"[640.0, 512.0]",horizontal,"(890.0, 762.0)",[0.642],1,815.753
4,False,229,0.834,50,[],[],"[(1151, 924)]",[],[1],[82],[1.3666666666666667],"[640.0, 512.0]",horizontal,"(390.0, 262.0)",[0.51],1,818.345
4,False,230,0.928,55,[],[],"[(1151, 928)]",[],[1],[85],[1.4166666666666667],"[640.0, 512.0]",vertical,"(390.0, 762.0)",[0.475],1,821.243
4,False,231,1.078,64,[],[],"[(1127, 932)]",[],[1],[92],[1.5333333333333332],"[640.0, 512.0]",vertical,"(390.0, 262.0)",[0.448],1,824.18
4,False,232,0.553,33,[],[],"[(1161, 923)]",[],[1],[68],[1.1333333333333333],"[640.0, 512.0]",horizontal,"(390.0, 262.0)",[0.559],1,827.199
4,False,233,0.961,57,[],[],"[(1165, 922)]",[],[1],[84],[1.4],"[640.0, 512.0]",horizontal,"(890.0, 262.0)",[0.433],1,829.806
4,False,234,0.87,52,[],[],"[(1143, 936)]",[],[1],[84],[1.4],"[640.0, 512.0]",horizontal,"(390.0, 262.0)",[0.508],1,832.753
4,False,235,1.493,89,[],[],"[(1162, 914)]",[],[1],[131],[2.183333333333333],"[640.0, 512.0]",horizontal,"(890.0, 762.0)",[0.683],1,835.679
4,False,236,1.054,63,[],[],"[(1068, 573), (865, 323), (1127, 941)]",[],"[0, 0, 1]",[92],[1.5333333333333332],"[640.0, 512.0]",vertical,"(390.0, 762.0)",[0.464],1,839.377
4,False,237,0.652,39,[],[],"[(1131, 911)]",[],[1],[80],[1.3333333333333333],"[640.0, 512.0]",vertical,"(390.0, 762.0)",[0.655],1,862.751
4,False,238,0.312,18,[],[],"[(1130, 914)]",[],[1],[51],[0.85],"[640.0, 512.0]",horizontal,"(390.0, 762.0)",[0.528],1,865.6
4,False,239,1.051,63,[],[],"[(1151, 919)]",[],[1],[93],[1.55],"[640.0, 512.0]",vertical,"(890.0, 262.0)",[0.482],1,867.956
4,False,240,0.703,42,[],[],"[(1161, 918)]",[],[1],[92],[1.5333333333333332],"[640.0, 512.0]",horizontal,"(390.0, 762.0)",[0.809],0,870.976
5,False,241,0.584,35,[],[],"[(1136, 910)]",[],[1],[73],[1.2166666666666666],"[640.0, 512.0]",vertical,"(890.0, 262.0)",[0.6],1,874.034
5,False,242,1.139,68,[],[],"[(1162, 907)]",[],[1],[97],[1.6166666666666667],"[640.0, 512.0]",vertical,"(890.0, 262.0)",[0.459],1,881.429
5,False,243,0.461,27,[],[],"[(1151, 910)]",[],[1],[57],[0.95],"[640.0, 512.0]",vertical,"(890.0, 762.0)",[0.48],1,884.548
5,False,244,0.573,34,[],[],"[(1161, 902)]",[],[1],[70],[1.1666666666666667],"[640.0, 512.0]",vertical,"(890.0, 262.0)",[0.583],1,887.016
5,False,245,1.309,78,[],[],"[(1151, 911)]",[],[1],[116],[1.9333333333333333],"[640.0, 512.0]",horizontal,"(890.0, 262.0)",[0.609],1,889.699
5,False,246,0.486,29,[],[],"[(1132, 910)]",[],[1],[67],[1.1166666666666667],"[640.0, 512.0]",vertical,"(890.0, 762.0)",[0.612],1,893.129
5,False,247,0.415,24,[],[],"[(1161, 910)]",[],[1],[62],[1.0333333333333332],"[640.0, 512.0]",horizontal,"(390.0, 762.0)",[0.606],1,895.774
5,False,248,0.851,51,[],[],"[(1129, 917)]",[],[1],[83],[1.3833333333333333],"[640.0, 512.0]",horizontal,"(390.0, 762.0)",[0.515],1,898.362
5,False,249,0.326,19,[],[],"[(1131, 914)]",[],[1],[59],[0.9833333333333333],"[640.0, 512.0]",horizontal,"(390.0, 262.0)",[0.641],1,901.265
5,False,250,0.676,40,[],[],"[(1131, 906)]",[],[1],[90],[1.5],"[640.0, 512.0]",horizontal,"(390.0, 762.0)",[0.814],0,903.757
5,False,251,0.622,37,[],[],"[(1137, 905)]",[],[1],[70],[1.1666666666666667],"[640.0, 512.0]",vertical,"(390.0, 262.0)",[0.53],1,906.785
5,False,252,0.78,46,[],[],"[(1178, 903)]",[],[1],[77],[1.2833333333333332],"[640.0, 512.0]",horizontal,"(890.0, 262.0)",[0.493],1,909.458
5,False,253,0.697,41,[],[],"[(1127, 913)]",[],[1],[74],[1.2333333333333334],"[640.0, 512.0]",vertical,"(390.0, 762.0)",[0.53],1,912.219
5,False,254,1.391,83,[],[],"[(1131, 912)]",[],[1],[124],[2.0666666666666664],"[640.0, 512.0]",horizontal,"(890.0, 762.0)",[0.656],1,914.992
5,False,255,1.243,74,[],[],"[(1132, 904)]",[],[1],[105],[1.75],"[640.0, 512.0]",vertical,"(390.0, 262.0)",[0.503],1,918.547
5,False,256,0.966,57,[],[],"[(1146, 916)]",[],[1],[91],[1.5166666666666666],"[640.0, 512.0]",horizontal,"(390.0, 262.0)",[0.542],1,921.821
5,False,257,0.909,54,[],[],"[(1157, 902)]",[],[1],[85],[1.4166666666666667],"[640.0, 512.0]",horizontal,"(890.0, 762.0)",[0.499],1,924.851
5,False,258,0.672,40,[],[],"[(1151, 893)]",[],[1],[71],[1.1833333333333333],"[640.0, 512.0]",vertical,"(890.0, 262.0)",[0.488],1,927.768
5,False,259,0.787,47,[],[],"[(1140, 910)]",[],[1],[76],[1.2666666666666666],"[640.0, 512.0]",vertical,"(890.0, 262.0)",[0.46],1,930.452
5,False,260,0.992,59,[],[],"[(1151, 909)]",[],[1],[95],[1.5833333333333333],"[640.0, 512.0]",horizontal,"(390.0, 762.0)",[0.57],1,933.25
5,False,261,1.047,62,[],[],"[(1131, 903)]",[],[1],[99],[1.65],"[640.0, 512.0]",horizontal,"(890.0, 762.0)",[0.6],1,936.335
5,False,262,1.124,67,[],[],"[(1146, 912)]",[],[1],[104],[1.7333333333333334],"[640.0, 512.0]",horizontal,"(390.0, 762.0)",[0.599],1,939.477
5,False,263,0.533,31,[],[],"[(1148, 924)]",[],[1],[65],[1.0833333333333333],"[640.0, 512.0]",vertical,"(390.0, 762.0)",[0.546],1,942.741
5,False,264,1.026,61,[],[],"[(1107, 941)]",[],[1],[111],[1.8499999999999999],"[640.0, 512.0]",horizontal,"(890.0, 262.0)",[0.809],0,945.359
5,False,265,1.222,73,[],[],"[(1140, 940)]",[],[1],[103],[1.7166666666666666],"[640.0, 512.0]",vertical,"(890.0, 262.0)",[0.482],1,1004.141
5,False,266,0.469,28,[],[],"[(1141, 907)]",[],[1],[60],[1.0],"[640.0, 512.0]",vertical,"(890.0, 262.0)",[0.508],1,1017.99
5,False,267,0.771,46,[],[],"[(1145, 910)]",[],[1],[85],[1.4166666666666667],"[640.0, 512.0]",vertical,"(390.0, 762.0)",[0.627],1,1020.495
5,False,268,0.871,52,[],[],"[(1146, 922)]",[],[1],[83],[1.3833333333333333],"[640.0, 512.0]",vertical,"(390.0, 262.0)",[0.494],1,1023.422
5,False,269,1.21,72,[],[],"[(1141, 923)]",[],[1],[100],[1.6666666666666667],"[640.0, 512.0]",vertical,"(390.0, 262.0)",[0.442],1,1026.3
5,False,270,0.842,50,[],[],"[(1141, 926)]",[],[1],[80],[1.3333333333333333],"[640.0, 512.0]",horizontal,"(390.0, 762.0)",[0.473],1,1029.456
5,False,271,0.997,59,[],[],"[(1152, 917)]",[],[1],[91],[1.5166666666666666],"[640.0, 512.0]",vertical,"(890.0, 262.0)",[0.513],1,1032.294
5,False,272,1.363,81,[],[],"[(1141, 898)]",[],[1],[118],[1.9666666666666666],"[640.0, 512.0]",vertical,"(890.0, 762.0)",[0.596],1,1035.311
5,False,273,1.325,79,[],[],"[(1134, 919)]",[],[1],[109],[1.8166666666666667],"[640.0, 512.0]",horizontal,"(390.0, 762.0)",[0.478],1,1038.747
5,False,274,0.702,42,[],[],"[(1164, 923)]",[],[1],[92],[1.5333333333333332],"[640.0, 512.0]",horizontal,"(890.0, 762.0)",[0.799],0,1042.061
5,False,275,1.457,87,[],[],"[(1151, 915)]",[],[1],[117],[1.95],"[640.0, 512.0]",vertical,"(890.0, 262.0)",[0.479],1,1045.127
5,False,276,0.477,28,[],[],"[(1154, 918)]",[],[1],[71],[1.1833333333333333],"[640.0, 512.0]",horizontal,"(890.0, 762.0)",[0.691],1,1048.654
5,False,277,0.391,23,[],[],"[(1165, 917)]",[],[1],[54],[0.9],"[640.0, 512.0]",horizontal,"(890.0, 262.0)",[0.497],1,1051.364
5,False,278,1.383,82,[],[],"[(1083, 230), (671, 975), (1090, 952), (682, 1020), (1127, 916)]",[],"[0, 0, 0, 0, 1]",[128],[2.1333333333333333],"[640.0, 512.0]",vertical,"(890.0, 762.0)",[0.743],1,1053.796
5,False,279,1.052,63,[],[],"[(1126, 924)]",[],[1],[78],[1.3],"[640.0, 512.0]",vertical,"(390.0, 262.0)",[0.232],1,2892.447
5,False,280,1.187,71,[],[],"[(1132, 937)]",[],[1],[109],[1.8166666666666667],"[640.0, 512.0]",horizontal,"(890.0, 762.0)",[0.614],1,2895.415
5,False,281,0.549,32,[],[],"[(1098, 950), (1147, 921)]",[],"[0, 1]",[67],[1.1166666666666667],"[640.0, 512.0]",vertical,"(390.0, 262.0)",[0.559],1,2898.829
5,False,282,1.461,87,[],[],"[(1141, 938)]",[],[1],[91],[1.5166666666666666],"[640.0, 512.0]",vertical,"(890.0, 762.0)",[0.049],1,2903.353
5,False,283,0.961,57,[],[],"[(1135, 938)]",[],[1],[94],[1.5666666666666667],"[640.0, 512.0]",vertical,"(390.0, 262.0)",[0.593],1,2906.405
5,False,284,0.56,33,[],[],"[(1139, 939)]",[],[1],[65],[1.0833333333333333],"[640.0, 512.0]",horizontal,"(890.0, 762.0)",[0.514],1,2910.061
5,False,285,0.718,43,[],[],"[(1127, 920)]",[],[1],[53],[0.8833333333333333],"[640.0, 512.0]",vertical,"(890.0, 762.0)",[0.149],1,2914.735
5,False,286,0.505,30,[],[],"[(1129, 932)]",[],[1],[62],[1.0333333333333332],"[640.0, 512.0]",vertical,"(390.0, 262.0)",[0.511],1,2917.684
5,False,287,1.176,70,[],[],"[(1123, 928)]",[],[1],[94],[1.5666666666666667],"[640.0, 512.0]",vertical,"(890.0, 262.0)",[0.383],1,2920.299
5,False,288,0.955,57,[],[],"[(1126, 937)]",[],[1],[77],[1.2833333333333332],"[640.0, 512.0]",horizontal,"(390.0, 762.0)",[0.312],1,2923.476
5,False,289,0.578,34,[],[],"[(667, 941), (1150, 891)]",[],"[0, 1]",[67],[1.1166666666666667],"[640.0, 512.0]",horizontal,"(890.0, 762.0)",[0.528],1,2927.974
5,False,290,0.757,45,[],[],"[(668, 941), (1146, 893)]",[],"[0, 1]",[55],[0.9166666666666666],"[640.0, 512.0]",horizontal,"(890.0, 262.0)",[0.152],1,2933.28
5,False,291,1.383,82,[],[2969033],"[(1147, 931)]","[(1111, 938)]",[1],[59],[0.9833333333333333],"[640.0, 512.0]",horizontal,"(390.0, 262.0)",[0],0,2942.568
5,False,292,1.468,88,[],[],"[(1084, 922)]",[],[1],[91],[1.5166666666666666],"[640.0, 512.0]",horizontal,"(890.0, 262.0)",[0.033],1,2945.124
5,False,293,0.409,24,[],[],"[(1136, 907)]",[],[1],[74],[1.2333333333333334],"[640.0, 512.0]",vertical,"(390.0, 262.0)",[0.806],0,2948.219
5,False,294,0.436,26,[],[],"[(1158, 923)]",[],[1],[55],[0.9166666666666666],"[640.0, 512.0]",horizontal,"(890.0, 262.0)",[0.467],1,2950.987
5,False,295,0.336,20,[],[],"[(1127, 930)]",[],[1],[54],[0.9],"[640.0, 512.0]",horizontal,"(390.0, 762.0)",[0.539],1,2958.436
5,False,296,0.938,56,[],[],"[(1146, 943)]",[],[1],[68],[1.1333333333333333],"[640.0, 512.0]",horizontal,"(890.0, 262.0)",[0.184],1,2961.165
5,False,297,1.016,60,[],[],"[(1131, 923)]",[],[1],[76],[1.2666666666666666],"[640.0, 512.0]",vertical,"(390.0, 262.0)",[0.252],1,2963.809
5,False,298,0.445,26,[],[],"[(1130, 922)]",[],[1],[58],[0.9666666666666667],"[640.0, 512.0]",horizontal,"(890.0, 762.0)",[0.519],1,2966.683
5,False,299,0.338,20,[],[],"[(1131, 932)]",[],[1],[54],[0.9],"[640.0, 512.0]",vertical,"(390.0, 262.0)",[0.548],1,2969.218
5,False,300,0.681,40,[],[],"[(1107, 941)]",[],[1],[68],[1.1333333333333333],"[640.0, 512.0]",vertical,"(890.0, 262.0)",[0.446],1,2971.858
6,False,301,1.35,81,[],[],"[(1122, 928)]",[],[1],[84],[1.4],"[640.0, 512.0]",vertical,"(890.0, 262.0)",[0.034],1,2974.536
6,False,302,1.277,76,[],[],"[(1127, 903)]",[],[1],[86],[1.4333333333333333],"[640.0, 512.0]",horizontal,"(890.0, 262.0)",[0.148],1,2977.497
6,False,303,1.498,89,[],[],"[(1127, 943)]",[],[1],[101],[1.6833333333333333],"[640.0, 512.0]",horizontal,"(390.0, 762.0)",[0.187],1,2980.573
6,False,304,0.45,27,[],[],"[(1127, 918)]",[],[1],[59],[0.9833333333333333],"[640.0, 512.0]",horizontal,"(890.0, 262.0)",[0.511],1,2983.822
6,False,305,1.117,67,[],[],"[(1127, 924)]",[],[1],[106],[1.7666666666666666],"[640.0, 512.0]",horizontal,"(890.0, 262.0)",[0.631],1,2986.352
6,False,306,0.301,18,[],[],"[(1131, 933)]",[],[1],[61],[1.0166666666666666],"[640.0, 512.0]",vertical,"(390.0, 262.0)",[0.693],1,2989.781
6,False,307,0.538,32,[],[],"[(1119, 917)]",[],[1],[74],[1.2333333333333334],"[640.0, 512.0]",vertical,"(890.0, 762.0)",[0.684],1,2992.364
6,False,308,0.781,46,[],[],"[(1105, 913)]",[],[1],[71],[1.1833333333333333],"[640.0, 512.0]",vertical,"(390.0, 262.0)",[0.392],1,2995.884
6,False,309,0.78,46,[],[],"[(1070, 937)]",[],[1],[87],[1.45],"[640.0, 512.0]",vertical,"(890.0, 762.0)",[0.662],1,2999.855
6,False,310,0.464,27,[],[],"[(1125, 941)]",[],[1],[64],[1.0666666666666667],"[640.0, 512.0]",horizontal,"(390.0, 762.0)",[0.597],1,3002.868
6,False,311,1.1,66,[],[],"[(1131, 919)]",[],[1],[96],[1.6],"[640.0, 512.0]",horizontal,"(390.0, 262.0)",[0.482],1,3005.471
6,False,312,1.338,80,[],[],"[(1107, 935)]",[],[1],[105],[1.75],"[640.0, 512.0]",vertical,"(390.0, 262.0)",[0.398],1,3008.594
6,False,313,0.661,39,[],[],"[(1123, 923)]",[],[1],[75],[1.25],"[640.0, 512.0]",horizontal,"(390.0, 762.0)",[0.576],1,3011.96
6,False,314,1.226,73,[],[],"[(1126, 934)]",[],[1],[88],[1.4666666666666666],"[640.0, 512.0]",vertical,"(390.0, 262.0)",[0.229],1,3015.683
6,False,315,0.792,47,[],[],"[(1132, 902)]",[],[1],[80],[1.3333333333333333],"[640.0, 512.0]",horizontal,"(390.0, 762.0)",[0.534],1,3018.704
6,False,316,0.671,40,[],[],"[(1111, 933)]",[],[1],[72],[1.2],"[640.0, 512.0]",vertical,"(890.0, 762.0)",[0.515],1,3021.603
6,False,317,0.487,29,[],[],"[(1122, 929)]",[],[1],[61],[1.0166666666666666],"[640.0, 512.0]",horizontal,"(390.0, 262.0)",[0.517],1,3024.489
6,False,318,1.005,60,[],[],"[(1114, 930)]",[],[1],[93],[1.55],"[640.0, 512.0]",horizontal,"(390.0, 262.0)",[0.531],1,3027.064
6,False,319,1.161,69,[],[],"[(1129, 917)]",[],[1],[91],[1.5166666666666666],"[640.0, 512.0]",horizontal,"(390.0, 262.0)",[0.348],1,3031.413
6,False,320,1.445,86,[],[],"[(1126, 910)]",[],[1],[128],[2.1333333333333333],"[640.0, 512.0]",horizontal,"(890.0, 762.0)",[0.673],1,3034.49
6,False,321,0.485,29,[],[],"[(1107, 904)]",[],[1],[71],[1.1833333333333333],"[640.0, 512.0]",vertical,"(390.0, 762.0)",[0.679],1,3038.151
6,False,322,0.575,34,[],[],"[(1127, 912)]",[],[1],[66],[1.1],"[640.0, 512.0]",horizontal,"(890.0, 262.0)",[0.519],1,3041.039
6,False,323,1.02,61,[],[],"[(1128, 921)]",[],[1],[92],[1.5333333333333332],"[640.0, 512.0]",horizontal,"(390.0, 762.0)",[0.499],1,3043.701
6,False,324,0.684,41,[],[],"[(1127, 919)]",[],[1],[72],[1.2],"[640.0, 512.0]",vertical,"(390.0, 262.0)",[0.504],1,3046.786
6,False,325,0.494,29,[],[],"[(1123, 922)]",[],[1],[62],[1.0333333333333332],"[640.0, 512.0]",horizontal,"(390.0, 762.0)",[0.528],1,3049.55
6,False,326,0.503,30,[],[],"[(1126, 909)]",[],[1],[69],[1.15],"[640.0, 512.0]",horizontal,"(390.0, 762.0)",[0.628],1,3052.469
6,False,327,0.994,59,[],[],"[(1117, 920)]",[],[1],[88],[1.4666666666666666],"[640.0, 512.0]",vertical,"(890.0, 262.0)",[0.467],1,3055.217
6,False,328,1.218,73,[],[],"[(1127, 922)]",[],[1],[104],[1.7333333333333334],"[640.0, 512.0]",vertical,"(890.0, 762.0)",[0.497],1,3058.239
6,False,329,0.97,58,[],[],"[(1126, 936)]",[],[1],[74],[1.2333333333333334],"[640.0, 512.0]",horizontal,"(890.0, 262.0)",[0.253],1,3061.558
6,False,330,1.036,62,[],[],"[(1117, 930)]",[],[1],[66],[1.1],"[640.0, 512.0]",vertical,"(890.0, 262.0)",[0.051],1,3069.45
6,False,331,0.552,33,[],[],"[(1126, 934)]",[],[1],[65],[1.0833333333333333],"[640.0, 512.0]",horizontal,"(890.0, 262.0)",[0.51],1,3072.582
6,False,332,0.822,49,[],[],"[(1102, 930)]",[],[1],[72],[1.2],"[640.0, 512.0]",vertical,"(890.0, 762.0)",[0.365],1,3075.247
6,False,333,0.831,49,[],[],"[(1131, 912)]",[],[1],[79],[1.3166666666666667],"[640.0, 512.0]",horizontal,"(890.0, 762.0)",[0.476],1,3085.037
6,False,334,1.133,67,[],[],"[(1127, 916)]",[],[1],[93],[1.55],"[640.0, 512.0]",vertical,"(390.0, 762.0)",[0.421],1,3087.944
6,False,335,0.707,42,[],[],"[(1127, 932)]",[],[1],[85],[1.4166666666666667],"[640.0, 512.0]",vertical,"(390.0, 762.0)",[0.695],1,3091.039
6,False,336,1.48,88,[],[],"[(1123, 927)]",[],[1],[115],[1.9166666666666667],"[640.0, 512.0]",vertical,"(890.0, 762.0)",[0.436],1,3094.028
6,False,337,0.3,18,[],[],"[(1139, 930)]",[],[1],[53],[0.8833333333333333],"[640.0, 512.0]",horizontal,"(890.0, 762.0)",[0.562],1,3097.456
6,False,338,0.491,29,[],[],"[(1088, 919)]",[],[1],[79],[1.3166666666666667],"[640.0, 512.0]",horizontal,"(890.0, 262.0)",[0.809],0,3099.901
6,False,339,0.473,28,[],[],"[(1127, 914)]",[],[1],[58],[0.9666666666666667],"[640.0, 512.0]",vertical,"(390.0, 762.0)",[0.48],1,3102.807
6,False,340,0.728,43,[],[],"[(1130, 936)]",[],[1],[73],[1.2166666666666666],"[640.0, 512.0]",horizontal,"(890.0, 262.0)",[0.472],1,3109.228
6,False,341,1.123,67,[],[],"[(1127, 918)]",[],[1],[72],[1.2],"[640.0, 512.0]",horizontal,"(890.0, 762.0)",[0.066],1,3111.986
6,False,342,0.816,48,[],[],"[(1126, 914)]",[],[1],[86],[1.4333333333333333],"[640.0, 512.0]",horizontal,"(390.0, 762.0)",[0.61],1,3115.2
6,False,343,1.04,62,[],[],"[(1127, 929)]",[],[1],[74],[1.2333333333333334],"[640.0, 512.0]",vertical,"(390.0, 262.0)",[0.184],1,3118.205
6,False,344,0.823,49,[],[],"[(1126, 922)]",[],[1],[79],[1.3166666666666667],"[640.0, 512.0]",vertical,"(890.0, 262.0)",[0.474],1,3121.271
6,False,345,0.97,58,[],[],"[(1131, 931)]",[],[1],[87],[1.45],"[640.0, 512.0]",horizontal,"(890.0, 262.0)",[0.462],1,3124.145
6,False,346,0.442,26,[],[],"[(1125, 936)]",[],[1],[57],[0.95],"[640.0, 512.0]",vertical,"(390.0, 262.0)",[0.503],1,3127.161
6,False,347,0.618,37,[],[],"[(1121, 914)]",[],[1],[67],[1.1166666666666667],"[640.0, 512.0]",horizontal,"(890.0, 262.0)",[0.478],1,3129.716
6,False,348,0.682,40,[],[],"[(1122, 909)]",[],[1],[69],[1.15],"[640.0, 512.0]",horizontal,"(390.0, 262.0)",[0.465],1,3132.407
6,False,349,1.136,68,[],[],"[(1123, 933)]",[],[1],[76],[1.2666666666666666],"[640.0, 512.0]",horizontal,"(890.0, 762.0)",[0.116],1,3135.092
6,False,350,0.629,37,[],[],"[(1144, 921)]",[],[1],[73],[1.2166666666666666],"[640.0, 512.0]",horizontal,"(390.0, 762.0)",[0.578],1,3137.897
6,False,351,0.537,32,[],[],"[(1102, 939)]",[],[1],[64],[1.0666666666666667],"[640.0, 512.0]",horizontal,"(390.0, 262.0)",[0.513],1,3140.683
6,False,352,0.711,42,[],[],"[(1117, 914)]",[],[1],[71],[1.1833333333333333],"[640.0, 512.0]",vertical,"(890.0, 762.0)",[0.467],1,3143.279
6,False,353,1.454,87,[],[3172828],"[(1127, 917)]","[(1108, 924)]",[1],[61],[1.0166666666666666],"[640.0, 512.0]",vertical,"(890.0, 262.0)",[0],0,3146.025
6,False,354,1.164,69,[],[],"[(1127, 920)]",[],[1],[83],[1.3833333333333333],"[640.0, 512.0]",horizontal,"(890.0, 262.0)",[0.216],1,3148.907
6,False,355,1.351,81,[],[3178862],"[(1126, 915)]","[(1088, 935)]",[1],[75],[1.25],"[640.0, 512.0]",vertical,"(890.0, 762.0)",[0],0,3152.103
6,False,356,1.317,79,[],[],"[(1127, 900)]",[],[1],[105],[1.75],"[640.0, 512.0]",vertical,"(390.0, 762.0)",[0.412],1,3154.956
6,False,357,0.847,50,[],[],"[(1112, 918)]",[],[1],[77],[1.2833333333333332],"[640.0, 512.0]",horizontal,"(890.0, 762.0)",[0.439],1,3158.299
6,False,358,0.92,55,[],[],"[(1123, 911)]",[],[1],[85],[1.4166666666666667],"[640.0, 512.0]",horizontal,"(390.0, 762.0)",[0.478],1,3161.132
6,False,359,0.929,55,[],[],"[(1117, 915)]",[],[1],[71],[1.1833333333333333],"[640.0, 512.0]",horizontal,"(890.0, 262.0)",[0.25],1,3164.089
6,False,360,0.717,43,[],[],"[(1108, 920)]",[],[1],[85],[1.4166666666666667],"[640.0, 512.0]",horizontal,"(890.0, 762.0)",[0.679],1,3166.838
7,False,361,1.27,76,[],[],"[(1117, 935)]",[],[1],[106],[1.7666666666666666],"[640.0, 512.0]",vertical,"(890.0, 262.0)",[0.479],1,3169.769
7,False,362,1.153,69,[],[],"[(1091, 898)]",[],[1],[95],[1.5833333333333333],"[640.0, 512.0]",vertical,"(390.0, 762.0)",[0.411],1,3173.087
7,False,363,0.935,56,[],[],"[(1118, 915)]",[],[1],[88],[1.4666666666666666],"[640.0, 512.0]",horizontal,"(390.0, 762.0)",[0.512],1,3176.554
7,False,364,1.271,76,[],[],"[(1127, 906)]",[],[1],[110],[1.8333333333333333],"[640.0, 512.0]",horizontal,"(390.0, 262.0)",[0.546],1,3179.546
7,False,365,0.301,18,[],[],"[(1117, 943)]",[],[1],[51],[0.85],"[640.0, 512.0]",horizontal,"(890.0, 762.0)",[0.527],1,3182.993
7,False,366,1.476,88,[],[],"[(1127, 919)]",[],[1],[112],[1.8666666666666667],"[640.0, 512.0]",vertical,"(390.0, 262.0)",[0.38],1,3186.317
7,False,367,0.616,36,[],[],"[(1122, 920)]",[],[1],[83],[1.3833333333333333],"[640.0, 512.0]",horizontal,"(390.0, 262.0)",[0.763],1,3189.74
7,False,368,1.151,69,[],[],"[(1115, 926)]",[],[1],[96],[1.6],"[640.0, 512.0]",horizontal,"(390.0, 262.0)",[0.431],1,3192.675
7,False,369,1.326,79,[],[],"[(1127, 933)]",[],[1],[108],[1.8],"[640.0, 512.0]",horizontal,"(890.0, 262.0)",[0.459],1,3196.437
7,False,370,0.824,49,[],[],"[(1125, 924)]",[],[1],[86],[1.4333333333333333],"[640.0, 512.0]",horizontal,"(390.0, 762.0)",[0.595],1,3199.8
7,False,371,1.118,67,[],[],"[(1114, 926)]",[],[1],[98],[1.6333333333333333],"[640.0, 512.0]",horizontal,"(390.0, 762.0)",[0.491],1,3202.824
7,False,372,0.351,21,[],[],"[(1151, 941)]",[],[1],[71],[1.1833333333333333],"[640.0, 512.0]",vertical,"(390.0, 262.0)",[0.813],0,3206.059
7,False,373,0.756,45,[],[],"[(1108, 932)]",[],[1],[78],[1.3],"[640.0, 512.0]",horizontal,"(890.0, 262.0)",[0.529],1,3208.794
7,False,374,0.604,36,[],[],"[(1126, 928)]",[],[1],[64],[1.0666666666666667],"[640.0, 512.0]",horizontal,"(890.0, 262.0)",[0.445],1,3213.094
7,False,375,0.755,45,[],[],"[(1126, 920)]",[],[1],[78],[1.3],"[640.0, 512.0]",horizontal,"(390.0, 262.0)",[0.532],1,3215.814
7,False,376,0.542,32,[],[],"[(1117, 928)]",[],[1],[73],[1.2166666666666666],"[640.0, 512.0]",vertical,"(390.0, 262.0)",[0.663],1,3218.708
7,False,377,1.246,74,[],[],"[(1124, 927)]",[],[1],[103],[1.7166666666666666],"[640.0, 512.0]",vertical,"(390.0, 262.0)",[0.461],1,3221.507
7,False,378,0.337,20,[],[],"[(1127, 927)]",[],[1],[64],[1.0666666666666667],"[640.0, 512.0]",horizontal,"(390.0, 762.0)",[0.71],1,3224.983
7,False,379,0.784,47,[],[],"[(1122, 926)]",[],[1],[97],[1.6166666666666667],"[640.0, 512.0]",vertical,"(390.0, 262.0)",[0.812],0,3227.605
7,False,380,0.676,40,[],[],"[(1098, 927)]",[],[1],[73],[1.2166666666666666],"[640.0, 512.0]",vertical,"(890.0, 262.0)",[0.53],1,3230.794
7,False,381,1.373,82,[],[3260758],"[(1127, 911)]","[(1093, 926)]",[1],[80],[1.3333333333333333],"[640.0, 512.0]",vertical,"(390.0, 262.0)",[0],0,3233.902
7,False,382,1.226,73,[],[],"[(1120, 956), (1151, 881)]",[],"[0, 1]",[101],[1.6833333333333333],"[640.0, 512.0]",vertical,"(890.0, 762.0)",[0.451],1,3236.84
7,False,383,1.046,62,[],[],"[(1126, 918)]",[],[1],[92],[1.5333333333333332],"[640.0, 512.0]",horizontal,"(390.0, 262.0)",[0.479],1,3241.513
7,False,384,1.365,81,[],[],"[(1112, 921)]",[],[1],[111],[1.8499999999999999],"[640.0, 512.0]",vertical,"(890.0, 262.0)",[0.479],1,3244.597
7,False,385,1.266,75,[],[],"[(1161, 914)]",[],[1],[103],[1.7166666666666666],"[640.0, 512.0]",vertical,"(890.0, 262.0)",[0.443],1,3248.275
7,False,386,1.487,89,[],[],"[(1127, 922)]",[],[1],[120],[2.0],"[640.0, 512.0]",vertical,"(890.0, 762.0)",[0.496],1,3251.558
7,False,387,0.704,42,[],[],"[(1156, 915)]",[],[1],[82],[1.3666666666666667],"[640.0, 512.0]",horizontal,"(390.0, 762.0)",[0.648],1,3255.136
7,False,388,1.308,78,[],[],"[(1128, 935)]",[],[1],[105],[1.75],"[640.0, 512.0]",horizontal,"(390.0, 262.0)",[0.428],1,3258.16
7,False,389,1.086,65,[],[],"[(1126, 927)]",[],[1],[102],[1.7],"[640.0, 512.0]",vertical,"(390.0, 262.0)",[0.593],1,3261.441
7,False,390,1.442,86,[],[],"[(1131, 907)]",[],[1],[114],[1.9],"[640.0, 512.0]",horizontal,"(390.0, 262.0)",[0.449],1,3264.693
7,False,391,0.499,29,[],[],"[(1141, 922)]",[],[1],[74],[1.2333333333333334],"[640.0, 512.0]",horizontal,"(890.0, 762.0)",[0.728],1,3268.124
7,False,392,1.01,60,[],[],"[(1136, 910)]",[],[1],[92],[1.5333333333333332],"[640.0, 512.0]",vertical,"(890.0, 762.0)",[0.517],1,3270.952
7,False,393,0.354,21,[],[],"[(1126, 914)]",[],[1],[67],[1.1166666666666667],"[640.0, 512.0]",horizontal,"(890.0, 262.0)",[0.74],1,3274.102
7,False,394,0.729,43,[],[],"[(1122, 910)]",[],[1],[84],[1.4],"[640.0, 512.0]",vertical,"(890.0, 762.0)",[0.659],1,3276.802
7,False,395,1.146,68,[],[],"[(1130, 919)]",[],[1],[98],[1.6333333333333333],"[640.0, 512.0]",vertical,"(890.0, 762.0)",[0.478],1,3279.746
7,False,396,0.389,23,[],[],"[(1126, 923)]",[],[1],[61],[1.0166666666666666],"[640.0, 512.0]",horizontal,"(890.0, 762.0)",[0.615],1,3283.967
7,False,397,1.045,62,[],[],"[(1117, 923)]",[],[1],[93],[1.55],"[640.0, 512.0]",vertical,"(890.0, 762.0)",[0.501],1,3286.616
7,False,398,1.319,79,[],[],"[(1127, 923)]",[],[1],[110],[1.8333333333333333],"[640.0, 512.0]",vertical,"(890.0, 762.0)",[0.493],1,3289.9
7,False,399,1.011,60,[],[],"[(1136, 917)]",[],[1],[103],[1.7166666666666666],"[640.0, 512.0]",vertical,"(390.0, 262.0)",[0.698],1,3293.326
7,False,400,0.613,36,[],[],"[(1114, 922)]",[],[1],[78],[1.3],"[640.0, 512.0]",horizontal,"(890.0, 262.0)",[0.682],1,3296.614
7,False,401,0.554,33,[],[],"[(1127, 930)]",[],[1],[69],[1.15],"[640.0, 512.0]",vertical,"(890.0, 762.0)",[0.58],1,3300.757
7,False,402,0.606,36,[],[],"[(1128, 928)]",[],[1],[68],[1.1333333333333333],"[640.0, 512.0]",vertical,"(890.0, 262.0)",[0.512],1,3303.589
7,False,403,0.884,53,[],[],"[(1127, 934)]",[],[1],[80],[1.3333333333333333],"[640.0, 512.0]",horizontal,"(390.0, 262.0)",[0.43],1,3307.758
7,False,404,0.79,47,[],[],"[(1112, 935)]",[],[1],[64],[1.0666666666666667],"[640.0, 512.0]",horizontal,"(390.0, 262.0)",[0.268],1,3320.956
7,False,405,0.422,25,[],[],"[(1093, 919)]",[],[1],[59],[0.9833333333333333],"[640.0, 512.0]",vertical,"(390.0, 262.0)",[0.54],1,3338.801
7,False,406,1.451,87,[],[],"[(1116, 926)]",[],[1],[111],[1.8499999999999999],"[640.0, 512.0]",vertical,"(890.0, 262.0)",[0.384],1,3341.447
7,False,407,1.358,81,[],[],"[(1127, 912)]",[],[1],[96],[1.6],"[640.0, 512.0]",vertical,"(890.0, 262.0)",[0.232],1,3344.958
7,False,408,1.247,74,[],[],"[(1097, 947)]",[],[1],[111],[1.8499999999999999],"[640.0, 512.0]",vertical,"(390.0, 262.0)",[0.594],1,3348.134
7,False,409,0.358,21,[],[],"[(1130, 918)]",[],[1],[55],[0.9166666666666666],"[640.0, 512.0]",vertical,"(890.0, 762.0)",[0.547],1,3351.588
7,False,410,0.545,32,[],[],"[(1095, 926)]",[],[1],[63],[1.05],"[640.0, 512.0]",horizontal,"(890.0, 262.0)",[0.494],1,3354.131
7,False,411,1.448,86,[],[],"[(1125, 912)]",[],[1],[116],[1.9333333333333333],"[640.0, 512.0]",vertical,"(890.0, 262.0)",[0.483],1,3356.799
7,False,412,0.818,49,[],[],"[(1146, 925)]",[],[1],[80],[1.3333333333333333],"[640.0, 512.0]",vertical,"(890.0, 262.0)",[0.494],1,3360.326
7,False,413,1.009,60,[],[],"[(1127, 917)]",[],[1],[93],[1.55],"[640.0, 512.0]",vertical,"(890.0, 762.0)",[0.529],1,3363.194
7,False,414,1.335,80,[],[],"[(1146, 926)]",[],[1],[114],[1.9],"[640.0, 512.0]",vertical,"(390.0, 262.0)",[0.556],1,3366.331
7,False,415,0.752,45,[],[],"[(1127, 923)]",[],[1],[76],[1.2666666666666666],"[640.0, 512.0]",horizontal,"(390.0, 262.0)",[0.497],1,3369.893
7,False,416,1.303,78,[],[],"[(1117, 918)]",[],[1],[108],[1.8],"[640.0, 512.0]",horizontal,"(890.0, 262.0)",[0.479],1,3372.734
7,False,417,1.059,63,[],[],"[(1095, 923)]",[],[1],[98],[1.6333333333333333],"[640.0, 512.0]",vertical,"(890.0, 262.0)",[0.558],1,3376.149
7,False,418,1.312,78,[],[],"[(1127, 919)]",[],[1],[116],[1.9333333333333333],"[640.0, 512.0]",vertical,"(890.0, 262.0)",[0.61],1,3379.664
7,False,419,1.486,89,[],[],"[(1102, 919)]",[],[1],[123],[2.05],"[640.0, 512.0]",horizontal,"(890.0, 762.0)",[0.548],1,3383.168
7,False,420,1.086,65,[],[],"[(1112, 924)]",[],[1],[108],[1.8],"[640.0, 512.0]",vertical,"(390.0, 762.0)",[0.697],1,3386.837
8,False,421,0.364,21,[],[],"[(1122, 932)]",[],[1],[54],[0.9],"[640.0, 512.0]",vertical,"(890.0, 762.0)",[0.529],1,3390.21
8,False,422,0.705,42,[],[],"[(1107, 927)]",[],[1],[76],[1.2666666666666666],"[640.0, 512.0]",horizontal,"(390.0, 762.0)",[0.549],1,3392.678
8,False,423,0.367,22,[],[],"[(1125, 933)]",[],[1],[58],[0.9666666666666667],"[640.0, 512.0]",horizontal,"(890.0, 762.0)",[0.585],1,3395.547
8,False,424,0.744,44,[],[],"[(1099, 929)]",[],[1],[80],[1.3333333333333333],"[640.0, 512.0]",horizontal,"(390.0, 262.0)",[0.582],1,3398.083
8,False,425,0.946,56,[],[],"[(1125, 915)]",[],[1],[96],[1.6],"[640.0, 512.0]",vertical,"(890.0, 762.0)",[0.645],1,3401.03
8,False,426,0.646,38,[],[],"[(1096, 933)]",[],[1],[76],[1.2666666666666666],"[640.0, 512.0]",vertical,"(890.0, 262.0)",[0.613],1,3404.279
8,False,427,0.782,46,[],[],"[(1107, 915)]",[],[1],[82],[1.3666666666666667],"[640.0, 512.0]",vertical,"(390.0, 262.0)",[0.576],1,3407.174
8,False,428,0.554,33,[],[],"[(1117, 921)]",[],[1],[68],[1.1333333333333333],"[640.0, 512.0]",vertical,"(890.0, 762.0)",[0.56],1,3410.17
8,False,429,0.785,47,[],[],"[(1127, 912)]",[],[1],[83],[1.3833333333333333],"[640.0, 512.0]",vertical,"(390.0, 762.0)",[0.578],1,3412.855
8,False,430,1.088,65,[],[],"[(1102, 908)]",[],[1],[100],[1.6666666666666667],"[640.0, 512.0]",horizontal,"(390.0, 762.0)",[0.561],1,3415.903
8,False,431,0.515,30,[],[],"[(1099, 922)]",[],[1],[65],[1.0833333333333333],"[640.0, 512.0]",horizontal,"(890.0, 262.0)",[0.558],1,3419.227
8,False,432,0.606,36,[],[],"[(1083, 932)]",[],[1],[78],[1.3],"[640.0, 512.0]",horizontal,"(390.0, 262.0)",[0.679],1,3422.07
8,False,433,1.176,70,[],[],"[(1125, 913)]",[],[1],[108],[1.8],"[640.0, 512.0]",horizontal,"(390.0, 762.0)",[0.612],1,3425.023
8,False,434,1.266,75,[],[],"[(1113, 922)]",[],[1],[107],[1.7833333333333332],"[640.0, 512.0]",vertical,"(890.0, 762.0)",[0.516],1,3428.399
8,False,435,1.057,63,[],[],"[(1097, 935)]",[],[1],[97],[1.6166666666666667],"[640.0, 512.0]",horizontal,"(390.0, 262.0)",[0.546],1,3432.026
8,False,436,0.525,31,[],[],"[(1127, 922)]",[],[1],[69],[1.15],"[640.0, 512.0]",vertical,"(890.0, 262.0)",[0.614],1,3437.279
8,False,437,0.738,44,[],[],"[(1112, 929)]",[],[1],[78],[1.3],"[640.0, 512.0]",horizontal,"(390.0, 762.0)",[0.548],1,3440.039
8,False,438,1.147,68,[],[],"[(1137, 935)]",[],[1],[100],[1.6666666666666667],"[640.0, 512.0]",horizontal,"(390.0, 262.0)",[0.51],1,3444.654
8,False,439,0.795,47,[],[],"[(1100, 926)]",[],[1],[88],[1.4666666666666666],"[640.0, 512.0]",horizontal,"(890.0, 762.0)",[0.663],1,3447.906
8,False,440,0.394,23,[],[],"[(1117, 940)]",[],[1],[58],[0.9666666666666667],"[640.0, 512.0]",horizontal,"(890.0, 762.0)",[0.566],1,3450.992
8,False,441,0.567,34,[],[],"[(1103, 924)]",[],[1],[69],[1.15],"[640.0, 512.0]",horizontal,"(390.0, 762.0)",[0.564],1,3453.694
8,False,442,1.129,67,[],[],"[(1101, 923)]",[],[1],[102],[1.7],"[640.0, 512.0]",horizontal,"(390.0, 262.0)",[0.564],1,3456.56
8,False,443,0.372,22,[],[],"[(1123, 902)]",[],[1],[62],[1.0333333333333332],"[640.0, 512.0]",horizontal,"(390.0, 762.0)",[0.644],1,3459.904
8,False,444,0.829,49,[],[],"[(1101, 931)]",[],[1],[80],[1.3333333333333333],"[640.0, 512.0]",horizontal,"(890.0, 762.0)",[0.493],1,3462.64
8,False,445,1.062,63,[],[],"[(1126, 931)]",[],[1],[108],[1.8],"[640.0, 512.0]",vertical,"(890.0, 762.0)",[0.731],1,3474.274
8,False,446,1.263,75,[],[],"[(1122, 964), (1135, 898)]",[],"[0, 1]",[103],[1.7166666666666666],"[640.0, 512.0]",vertical,"(890.0, 262.0)",[0.445],1,3477.623
8,False,447,0.819,49,[],[],"[(1128, 921)]",[],[1],[83],[1.3833333333333333],"[640.0, 512.0]",horizontal,"(890.0, 762.0)",[0.551],1,3482.578
8,False,448,1.169,70,[],[],"[(1098, 924)]",[],[1],[100],[1.6666666666666667],"[640.0, 512.0]",horizontal,"(390.0, 762.0)",[0.483],1,3486.793
8,False,449,0.712,42,[],[],"[(1114, 927)]",[],[1],[75],[1.25],"[640.0, 512.0]",vertical,"(890.0, 762.0)",[0.528],1,3490.018
8,False,450,1.031,61,[],[],"[(1112, 911)]",[],[1],[79],[1.3166666666666667],"[640.0, 512.0]",horizontal,"(390.0, 262.0)",[0.282],1,3493.886
8,False,451,0.996,59,[],[],"[(1127, 915)]",[],[1],[88],[1.4666666666666666],"[640.0, 512.0]",horizontal,"(890.0, 262.0)",[0.462],1,3496.845
8,False,452,0.313,18,[],[],"[(1107, 919)]",[],[1],[57],[0.95],"[640.0, 512.0]",horizontal,"(390.0, 262.0)",[0.621],1,3499.914
8,False,453,1.237,74,[],[3539594],"[(1133, 932)]","[(1097, 946)]",[1],[67],[1.1166666666666667],"[640.0, 512.0]",vertical,"(390.0, 262.0)",[0],0,3502.569
8,False,454,0.596,35,[],[],"[(1132, 917)]",[],[1],[65],[1.0833333333333333],"[640.0, 512.0]",horizontal,"(890.0, 762.0)",[0.477],1,3515.685
8,False,455,1.489,89,[],[3544962],"[(1116, 922)]","[(1078, 940)]",[1],[64],[1.0666666666666667],"[640.0, 512.0]",horizontal,"(390.0, 762.0)",[0],0,3518.364
8,False,456,1.436,86,[],[],"[(1102, 927)]",[],[1],[104],[1.7333333333333334],"[640.0, 512.0]",horizontal,"(390.0, 262.0)",[0.285],1,3521.044
8,False,457,1.338,80,[],[3551609],"[(1126, 914)]","[(1085, 929)]",[1],[67],[1.1166666666666667],"[640.0, 512.0]",horizontal,"(390.0, 262.0)",[0],0,3524.938
8,False,458,0.929,55,[],[],"[(1128, 919)]",[],[1],[90],[1.5],"[640.0, 512.0]",horizontal,"(890.0, 762.0)",[0.566],1,3527.692
8,False,459,1.198,71,[],[3560091],"[(1141, 929)]","[(1108, 943)]",[1],[59],[0.9833333333333333],"[640.0, 512.0]",horizontal,"(890.0, 762.0)",[0],0,3530.875
8,False,460,1.156,69,[],[3563886],"[(1127, 941)]","[(1094, 955)]",[1],"[69, 119]","[1.15, 1.9833333333333334]","[640.0, 512.0]",vertical,"(890.0, 262.0)","[0, 0.806]",0,3536.18
8,False,461,1.136,68,[],[],"[(1107, 914)]",[],[1],[77],[1.2833333333333332],"[640.0, 512.0]",vertical,"(890.0, 262.0)",[0.134],1,3540.772
8,False,462,0.726,43,[],[],"[(1090, 911)]",[],[1],[73],[1.2166666666666666],"[640.0, 512.0]",horizontal,"(390.0, 262.0)",[0.479],1,3550.319
8,False,463,1.177,70,[],[],"[(1118, 919)]",[],[1],[73],[1.2166666666666666],"[640.0, 512.0]",horizontal,"(890.0, 762.0)",[0.036],1,3553.124
8,False,464,1.127,67,[],[],"[(1131, 934)]",[],[1],[105],[1.75],"[640.0, 512.0]",vertical,"(390.0, 262.0)",[0.61],1,3556.035
8,False,465,1.173,70,[],[],"[(1128, 913)]",[],[1],[87],[1.45],"[640.0, 512.0]",horizontal,"(890.0, 262.0)",[0.269],1,3559.351
8,False,466,0.313,18,[],[],"[(1102, 939)]",[],[1],[64],[1.0666666666666667],"[640.0, 512.0]",vertical,"(390.0, 262.0)",[0.746],1,3562.457
8,False,467,0.306,18,[],[],"[(1138, 945)]",[],[1],[56],[0.9333333333333333],"[640.0, 512.0]",horizontal,"(890.0, 262.0)",[0.611],1,3565.105
8,False,468,1.047,62,[],[],"[(1104, 922)]",[],[1],[112],[1.8666666666666667],"[640.0, 512.0]",vertical,"(890.0, 762.0)",[0.81],0,3567.665
8,False,469,1.423,85,[],[],"[(1134, 906)]",[],[1],[91],[1.5166666666666666],"[640.0, 512.0]",vertical,"(890.0, 762.0)",[0.084],1,3571.108
8,False,470,1.399,83,[],[],"[(1124, 921)]",[],[1],[116],[1.9333333333333333],"[640.0, 512.0]",vertical,"(890.0, 262.0)",[0.538],1,3574.233
8,False,471,0.978,58,[],[],"[(1122, 919)]",[],[1],[87],[1.45],"[640.0, 512.0]",horizontal,"(390.0, 262.0)",[0.462],1,3577.77
8,False,472,1.043,62,[],[],"[(1130, 930)]",[],[1],[98],[1.6333333333333333],"[640.0, 512.0]",horizontal,"(390.0, 762.0)",[0.58],1,3580.819
8,False,473,0.919,55,[],[],"[(1102, 942)]",[],[1],[89],[1.4833333333333334],"[640.0, 512.0]",vertical,"(890.0, 762.0)",[0.549],1,3584.023
8,False,474,0.936,56,[],[],"[(1106, 931)]",[],[1],[90],[1.5],"[640.0, 512.0]",horizontal,"(890.0, 262.0)",[0.542],1,3587.219
8,False,475,0.452,27,[],[],"[(1124, 923)]",[],[1],[62],[1.0333333333333332],"[640.0, 512.0]",horizontal,"(390.0, 762.0)",[0.566],1,3590.341
8,False,476,0.352,21,[],[],"[(1102, 919)]",[],[1],[61],[1.0166666666666666],"[640.0, 512.0]",vertical,"(890.0, 262.0)",[0.649],1,3593.214
8,False,477,0.51,30,[],[],"[(1131, 927)]",[],[1],[80],[1.3333333333333333],"[640.0, 512.0]",horizontal,"(390.0, 262.0)",[0.811],0,3596.98
8,False,478,0.458,27,[],[],"[(1092, 931)]",[],[1],[60],[1.0],"[640.0, 512.0]",vertical,"(390.0, 762.0)",[0.527],1,3599.974
8,False,479,0.989,59,[],[],"[(1127, 924)]",[],[1],[103],[1.7166666666666666],"[640.0, 512.0]",horizontal,"(890.0, 762.0)",[0.711],1,3603.787
8,False,480,1.007,60,[],[],"[(1112, 922)]",[],[1],[92],[1.5333333333333332],"[640.0, 512.0]",horizontal,"(890.0, 762.0)",[0.512],1,3607.209
9,False,481,1.085,65,[],[],"[(1098, 935)]",[],[1],[99],[1.65],"[640.0, 512.0]",horizontal,"(390.0, 762.0)",[0.546],1,3610.356
9,False,482,1.358,81,[],[],"[(1122, 920)]",[],[1],[113],[1.8833333333333333],"[640.0, 512.0]",vertical,"(390.0, 762.0)",[0.511],1,3613.697
9,False,483,0.371,22,[],[],"[(1112, 924)]",[],[1],[72],[1.2],"[640.0, 512.0]",horizontal,"(890.0, 262.0)",[0.81],0,3617.14
9,False,484,1.406,84,[],[],"[(1107, 934)]",[],[1],[99],[1.65],"[640.0, 512.0]",vertical,"(890.0, 762.0)",[0.23],1,3619.936
9,False,485,0.545,32,[],[],"[(1134, 922)]",[],[1],[65],[1.0833333333333333],"[640.0, 512.0]",horizontal,"(890.0, 762.0)",[0.531],1,3624.756
9,False,486,0.549,32,[],[],"[(1120, 919)]",[],[1],[70],[1.1666666666666667],"[640.0, 512.0]",vertical,"(390.0, 262.0)",[0.612],1,3627.428
9,False,487,1.014,60,[],[],"[(1119, 920)]",[],[1],[91],[1.5166666666666666],"[640.0, 512.0]",vertical,"(390.0, 262.0)",[0.495],1,3630.21
9,False,488,0.42,25,[],[],"[(1097, 932)]",[],[1],[59],[0.9833333333333333],"[640.0, 512.0]",horizontal,"(890.0, 262.0)",[0.542],1,3633.35
9,False,489,1.199,71,[],[],"[(1120, 945)]",[],[1],[95],[1.5833333333333333],"[640.0, 512.0]",vertical,"(390.0, 762.0)",[0.38],1,3636.827
9,False,490,1.475,88,[],[],"[(1101, 935)]",[],[1],[104],[1.7333333333333334],"[640.0, 512.0]",horizontal,"(890.0, 762.0)",[0.251],1,3642.126
9,False,491,0.427,25,[],[],"[(1105, 939)]",[],[1],[60],[1.0],"[640.0, 512.0]",vertical,"(390.0, 762.0)",[0.559],1,3645.488
9,False,492,0.981,58,[],[],"[(1131, 922)]",[],[1],[91],[1.5166666666666666],"[640.0, 512.0]",horizontal,"(890.0, 262.0)",[0.529],1,3648.192
9,False,493,0.653,39,[],[],"[(1148, 907)]",[],[1],[71],[1.1833333333333333],"[640.0, 512.0]",vertical,"(890.0, 762.0)",[0.509],1,3652.36
9,False,494,0.708,42,[],[],"[(1122, 936)]",[],[1],[78],[1.3],"[640.0, 512.0]",vertical,"(390.0, 262.0)",[0.583],1,3655.173
9,False,495,0.991,59,[],[],"[(1107, 914)]",[],[1],[97],[1.6166666666666667],"[640.0, 512.0]",horizontal,"(390.0, 762.0)",[0.612],1,3658.051
9,False,496,0.658,39,[],[],"[(1125, 916)]",[],[1],[86],[1.4333333333333333],"[640.0, 512.0]",horizontal,"(890.0, 762.0)",[0.767],1,3661.298
9,False,497,0.446,26,[],[],"[(1110, 917)]",[],[1],[59],[0.9833333333333333],"[640.0, 512.0]",vertical,"(890.0, 762.0)",[0.53],1,3664.385
9,False,498,1.271,76,[],[],"[(1126, 943)]",[],[1],[97],[1.6166666666666667],"[640.0, 512.0]",vertical,"(890.0, 262.0)",[0.335],1,3667.008
9,False,499,1.052,63,[],[],"[(1107, 923)]",[],[1],[94],[1.5666666666666667],"[640.0, 512.0]",vertical,"(890.0, 262.0)",[0.498],1,3673.088
9,False,500,0.496,29,[],[],"[(1128, 923)]",[],[1],[65],[1.0833333333333333],"[640.0, 512.0]",vertical,"(390.0, 762.0)",[0.584],1,3676.216
9,False,501,1.492,89,[],[],"[(1131, 922)]",[],[1],[114],[1.9],"[640.0, 512.0]",vertical,"(390.0, 762.0)",[0.396],1,3678.849
9,False,502,0.435,26,[],[],"[(1119, 925)]",[],[1],[69],[1.15],"[640.0, 512.0]",vertical,"(890.0, 762.0)",[0.696],1,3682.418
9,False,503,1.066,63,[],[],"[(1114, 917)]",[],[1],[96],[1.6],"[640.0, 512.0]",horizontal,"(390.0, 762.0)",[0.531],1,3685.25
9,False,504,0.476,28,[],[],"[(1117, 912)]",[],[1],[78],[1.3],"[640.0, 512.0]",horizontal,"(390.0, 262.0)",[0.806],0,3688.486
9,False,505,0.887,53,[],[],"[(1127, 931)]",[],[1],[94],[1.5666666666666667],"[640.0, 512.0]",vertical,"(890.0, 762.0)",[0.66],1,3691.6
9,False,506,0.53,31,[],[],"[(1104, 947)]",[],[1],[65],[1.0833333333333333],"[640.0, 512.0]",vertical,"(890.0, 762.0)",[0.55],1,3695.716
9,False,507,0.69,41,[],[],"[(1101, 917)]",[],[1],[74],[1.2333333333333334],"[640.0, 512.0]",vertical,"(390.0, 262.0)",[0.539],1,3700.624
9,False,508,0.431,25,[],[],"[(1127, 922)]",[],[1],[69],[1.15],"[640.0, 512.0]",horizontal,"(390.0, 762.0)",[0.717],1,3703.531
9,False,509,0.435,26,[],[],"[(1107, 939)]",[],[1],[76],[1.2666666666666666],"[640.0, 512.0]",vertical,"(890.0, 262.0)",[0.814],0,3706.226
9,False,510,0.559,33,[],[],"[(1127, 930)]",[],[1],[73],[1.2166666666666666],"[640.0, 512.0]",vertical,"(890.0, 762.0)",[0.647],1,3709.108
9,False,511,0.675,40,[],[],"[(1122, 933)]",[],[1],[72],[1.2],"[640.0, 512.0]",horizontal,"(890.0, 262.0)",[0.513],1,3712.995
9,False,512,1.319,79,[],[],"[(1100, 935)]",[],[1],[109],[1.8166666666666667],"[640.0, 512.0]",vertical,"(890.0, 762.0)",[0.478],1,3715.78
9,False,513,1.182,70,[],[],"[(1108, 913)]",[],[1],[105],[1.75],"[640.0, 512.0]",horizontal,"(890.0, 762.0)",[0.565],1,3719.303
9,False,514,0.373,22,[],[],"[(1127, 910)]",[],[1],[54],[0.9],"[640.0, 512.0]",horizontal,"(890.0, 262.0)",[0.516],1,3722.731
9,False,515,1.002,60,[],[3809897],"[(1137, 918)]","[(1104, 932)]",[1],"[60, 110]","[1.0, 1.8333333333333333]","[640.0, 512.0]",horizontal,"(390.0, 262.0)","[0, 0.812]",0,3783.32
9,False,516,0.917,55,[],[3816502],"[(1131, 922)]","[(1101, 929)]",[1],[43],[0.7166666666666667],"[640.0, 512.0]",vertical,"(890.0, 262.0)",[0],0,3786.783
9,False,517,0.467,28,[],[],"[(1117, 907)]",[],[1],[59],[0.9833333333333333],"[640.0, 512.0]",horizontal,"(390.0, 762.0)",[0.492],1,3792.583
9,False,518,0.905,54,[],[3821935],"[(1142, 910)]","[(1099, 928)]",[1],[47],[0.7833333333333333],"[640.0, 512.0]",vertical,"(890.0, 262.0)",[0],0,3795.22
9,False,519,1.336,80,[],[],"[(1121, 885)]",[],[1],[86],[1.4333333333333333],"[640.0, 512.0]",vertical,"(890.0, 762.0)",[0.082],1,3798.024
9,False,520,1.157,69,[],[],"[(1128, 910)]",[],[1],[83],[1.3833333333333333],"[640.0, 512.0]",horizontal,"(890.0, 762.0)",[0.215],1,3801.172
9,False,521,1.382,82,[],[3831016],"[(1126, 893)]","[(1088, 909)]",[1],[79],[1.3166666666666667],"[640.0, 512.0]",horizontal,"(390.0, 762.0)",[0],0,3804.162
9,False,522,0.902,54,[],[],"[(1117, 947)]",[],[1],[88],[1.4666666666666666],"[640.0, 512.0]",vertical,"(890.0, 762.0)",[0.544],1,3807.103
9,False,523,1.441,86,[],[],"[(1126, 915)]",[],[1],[105],[1.75],"[640.0, 512.0]",vertical,"(390.0, 262.0)",[0.297],1,3810.585
9,False,524,1.285,77,[],[],"[(1126, 907)]",[],[1],[105],[1.75],"[640.0, 512.0]",vertical,"(390.0, 762.0)",[0.453],1,3814.173
9,False,525,0.759,45,[],[],"[(1147, 924)]",[],[1],[80],[1.3333333333333333],"[640.0, 512.0]",horizontal,"(390.0, 262.0)",[0.559],1,3817.656
9,False,526,0.538,32,[],[],"[(1122, 910)]",[],[1],[66],[1.1],"[640.0, 512.0]",vertical,"(390.0, 762.0)",[0.545],1,3820.717
9,False,527,1.05,63,[],[],"[(1125, 926)]",[],[1],[97],[1.6166666666666667],"[640.0, 512.0]",horizontal,"(390.0, 762.0)",[0.543],1,3824.175
9,False,528,1.349,80,[],[],"[(1127, 922)]",[],[1],[103],[1.7166666666666666],"[640.0, 512.0]",horizontal,"(390.0, 762.0)",[0.36],1,3827.355
9,False,529,0.508,30,[],[],"[(1141, 910)]",[],[1],[68],[1.1333333333333333],"[640.0, 512.0]",vertical,"(390.0, 262.0)",[0.615],1,3830.763
9,False,530,0.563,33,[],[],"[(1134, 877)]",[],[1],[76],[1.2666666666666666],"[640.0, 512.0]",horizontal,"(390.0, 262.0)",[0.699],1,3834.609
9,False,531,1.094,65,[],[],"[(1122, 922)]",[],[1],[96],[1.6],"[640.0, 512.0]",horizontal,"(890.0, 262.0)",[0.499],1,3837.528
9,False,532,0.56,33,[],[],"[(1122, 922)]",[],[1],[83],[1.3833333333333333],"[640.0, 512.0]",horizontal,"(390.0, 762.0)",[0.809],0,3840.764
9,False,533,0.994,59,[],[],"[(1127, 912)]",[],[1],[90],[1.5],"[640.0, 512.0]",vertical,"(890.0, 262.0)",[0.491],1,3843.844
9,False,534,0.741,44,[],[],"[(1098, 932)]",[],[1],[78],[1.3],"[640.0, 512.0]",vertical,"(890.0, 762.0)",[0.546],1,3847.323
9,False,535,1.434,86,[],[],"[(1127, 927)]",[],[1],[107],[1.7833333333333332],"[640.0, 512.0]",vertical,"(890.0, 262.0)",[0.331],1,3850.275
9,False,536,1.401,84,[],[],"[(1117, 914)]",[],[1],[134],[2.2333333333333334],"[640.0, 512.0]",vertical,"(890.0, 262.0)",[0.806],0,3855.651
9,False,537,1.154,69,[],[],"[(1112, 920)]",[],[1],[100],[1.6666666666666667],"[640.0, 512.0]",horizontal,"(890.0, 262.0)",[0.49],1,3859.584
9,False,538,0.51,30,[],[],"[(1131, 916)]",[],[1],[70],[1.1666666666666667],"[640.0, 512.0]",horizontal,"(390.0, 262.0)",[0.66],1,3863.056
9,False,539,0.854,51,[],[],"[(1125, 917)]",[],[1],[84],[1.4],"[640.0, 512.0]",vertical,"(890.0, 262.0)",[0.529],1,3865.923
9,False,540,0.669,40,[],[],"[(1131, 911)]",[],[1],[74],[1.2333333333333334],"[640.0, 512.0]",vertical,"(890.0, 762.0)",[0.549],1,3869.303
10,False,541,0.802,48,[],[],"[(1124, 926)]",[],[1],[86],[1.4333333333333333],"[640.0, 512.0]",horizontal,"(390.0, 762.0)",[0.612],1,3872.176
10,False,542,0.438,26,[],[],"[(1127, 917)]",[],[1],[76],[1.2666666666666666],"[640.0, 512.0]",vertical,"(390.0, 262.0)",[0.811],0,3875.288
10,False,543,0.594,35,[],[],"[(1140, 915)]",[],[1],[70],[1.1666666666666667],"[640.0, 512.0]",horizontal,"(890.0, 762.0)",[0.569],1,3878.211
10,False,544,1.093,65,[],[],"[(1122, 906)]",[],[1],[102],[1.7],"[640.0, 512.0]",horizontal,"(890.0, 762.0)",[0.592],1,3881.422
10,False,545,1.246,74,[],[],"[(1127, 915)]",[],[1],[105],[1.75],"[640.0, 512.0]",horizontal,"(390.0, 262.0)",[0.501],1,3884.839
10,False,546,0.743,44,[],[],"[(1134, 928)]",[],[1],[82],[1.3666666666666667],"[640.0, 512.0]",horizontal,"(390.0, 762.0)",[0.611],1,3889.117
10,False,547,0.984,59,[],[],"[(1137, 885)]",[],[1],[109],[1.8166666666666667],"[640.0, 512.0]",horizontal,"(390.0, 762.0)",[0.813],0,3892.536
10,False,548,1.196,71,[],[],"[(1137, 912)]",[],[1],[121],[2.0166666666666666],"[640.0, 512.0]",vertical,"(390.0, 762.0)",[0.807],0,3895.988
10,False,549,0.802,48,[],[],"[(1144, 900)]",[],[1],[77],[1.2833333333333332],"[640.0, 512.0]",vertical,"(890.0, 262.0)",[0.469],1,4070.868
10,False,550,1.198,71,[],[],"[(1143, 961), (1152, 966), (1093, 756), (1136, 877)]",[],"[0, 0, 0, 1]",[79],[1.3166666666666667],"[640.0, 512.0]",vertical,"(890.0, 762.0)",[0.117],1,4078.628
10,False,551,0.707,42,[],[4114232],"[(1134, 926)]","[(1092, 942)]",[1],"[42, 92]","[0.7, 1.5333333333333332]","[640.0, 512.0]",vertical,"(890.0, 762.0)","[0, 0.804]",0,4087.971
10,False,552,0.748,44,[],[],"[(1127, 924)]",[],[1],[64],[1.0666666666666667],"[640.0, 512.0]",horizontal,"(890.0, 762.0)",[0.314],1,4091.103
10,False,553,0.735,44,[],[],"[(1156, 943)]",[],[1],[52],[0.8666666666666667],"[640.0, 512.0]",horizontal,"(890.0, 762.0)",[0.119],1,4093.757
10,False,554,0.923,55,[],[],"[(1141, 937)]",[],[1],[80],[1.3333333333333333],"[640.0, 512.0]",vertical,"(390.0, 762.0)",[0.4],1,4096.25
10,False,555,1.233,73,[],[],"[(1142, 942)]",[],[1],[90],[1.5],"[640.0, 512.0]",vertical,"(390.0, 262.0)",[0.267],1,4099.143
10,False,556,1.322,79,[],[4129043],"[(1131, 932)]","[(1095, 946)]",[1],[72],[1.2],"[640.0, 512.0]",horizontal,"(890.0, 262.0)",[0],0,4102.297
10,False,557,0.63,37,[],[],"[(1128, 966), (1168, 912)]",[],"[0, 1]",[65],[1.0833333333333333],"[640.0, 512.0]",horizontal,"(390.0, 762.0)",[0.448],1,4105.13
10,False,558,1.351,81,[],[4135915],"[(1134, 918)]","[(1095, 937)]",[1],[80],[1.3333333333333333],"[640.0, 512.0]",vertical,"(890.0, 262.0)",[0],0,4109.068
10,False,559,0.433,25,[],[],"[(1141, 935)]",[],[1],[67],[1.1166666666666667],"[640.0, 512.0]",horizontal,"(390.0, 762.0)",[0.674],1,4112.007
10,False,560,1.097,65,[],[],"[(1143, 916)]",[],[1],[84],[1.4],"[640.0, 512.0]",vertical,"(890.0, 762.0)",[0.298],1,4114.702
10,False,561,1.335,80,[],[],"[(1122, 934)]",[],[1],[111],[1.8499999999999999],"[640.0, 512.0]",vertical,"(390.0, 262.0)",[0.505],1,4117.753
10,False,562,0.356,21,[],[],"[(1122, 938)]",[],[1],[52],[0.8666666666666667],"[640.0, 512.0]",vertical,"(890.0, 262.0)",[0.491],1,4121.298
10,False,563,0.452,27,[],[],"[(1138, 936)]",[],[1],[59],[0.9833333333333333],"[640.0, 512.0]",horizontal,"(890.0, 262.0)",[0.51],1,4125.314
10,False,564,0.344,20,[],[],"[(1145, 903)]",[],[1],[58],[0.9666666666666667],"[640.0, 512.0]",horizontal,"(890.0, 262.0)",[0.616],1,4127.931
10,False,565,0.81,48,[],[],"[(1117, 941)]",[],[1],[81],[1.35],"[640.0, 512.0]",vertical,"(890.0, 262.0)",[0.528],1,4130.531
10,False,566,1.446,86,[],[],"[(1154, 925)]",[],[1],[115],[1.9166666666666667],"[640.0, 512.0]",vertical,"(890.0, 762.0)",[0.466],1,4133.47
10,False,567,0.356,21,[],[],"[(1163, 908)]",[],[1],[55],[0.9166666666666666],"[640.0, 512.0]",horizontal,"(890.0, 762.0)",[0.551],1,4137.003
10,False,568,1.066,63,[],[],"[(1149, 928)]",[],[1],[94],[1.5666666666666667],"[640.0, 512.0]",vertical,"(390.0, 262.0)",[0.498],1,4139.569
10,False,569,1.392,83,[],[],"[(1127, 933)]",[],[1],[96],[1.6],"[640.0, 512.0]",vertical,"(390.0, 262.0)",[0.199],1,4143.033
10,False,570,1.499,89,[],[],"[(1127, 921)]",[],[1],[94],[1.5666666666666667],"[640.0, 512.0]",vertical,"(390.0, 262.0)",[0.067],1,4146.988
10,False,571,1.242,74,[],[],"[(1112, 907)]",[],[1],[109],[1.8166666666666667],"[640.0, 512.0]",vertical,"(890.0, 262.0)",[0.566],1,4150.16
10,False,572,0.333,19,[],[],"[(1136, 935)]",[],[1],[54],[0.9],"[640.0, 512.0]",vertical,"(390.0, 762.0)",[0.559],1,4153.616
10,False,573,1.449,86,[],[],"[(1146, 923)]",[],[1],[117],[1.95],"[640.0, 512.0]",vertical,"(390.0, 762.0)",[0.495],1,4156.122
10,False,574,0.508,30,[],[],"[(1123, 921)]",[],[1],[69],[1.15],"[640.0, 512.0]",horizontal,"(390.0, 762.0)",[0.632],1,4159.689
10,False,575,1.158,69,[],[],"[(1151, 932)]",[],[1],[103],[1.7166666666666666],"[640.0, 512.0]",vertical,"(390.0, 762.0)",[0.544],1,4162.412
10,False,576,1.172,70,[],[],"[(1132, 935)]",[],[1],[85],[1.4166666666666667],"[640.0, 512.0]",horizontal,"(390.0, 262.0)",[0.233],1,4165.673
10,False,577,1.073,64,[],[],"[(1127, 922)]",[],[1],[93],[1.55],"[640.0, 512.0]",horizontal,"(890.0, 262.0)",[0.464],1,4174.142
10,False,578,0.516,30,[],[],"[(1142, 922)]",[],[1],[62],[1.0333333333333332],"[640.0, 512.0]",vertical,"(890.0, 262.0)",[0.512],1,4177.292
10,False,579,0.601,36,[],[],"[(1122, 923)]",[],[1],[70],[1.1666666666666667],"[640.0, 512.0]",horizontal,"(390.0, 762.0)",[0.544],1,4179.949
10,False,580,1.142,68,[],[],"[(1127, 915)]",[],[1],[80],[1.3333333333333333],"[640.0, 512.0]",horizontal,"(890.0, 762.0)",[0.18],1,4182.681
10,False,581,1.054,63,[],[4214504],"[(1128, 925)]","[(1101, 932)]",[1],[52],[0.8666666666666667],"[640.0, 512.0]",vertical,"(890.0, 262.0)",[0],0,4187.871
10,False,582,0.554,33,[],[],"[(1156, 941)]",[],[1],[75],[1.25],"[640.0, 512.0]",vertical,"(890.0, 762.0)",[0.679],1,4190.594
10,False,583,1.307,78,[],[],"[(1127, 917)]",[],[1],[94],[1.5666666666666667],"[640.0, 512.0]",vertical,"(390.0, 262.0)",[0.25],1,4193.572
10,False,584,0.305,18,[],[],"[(1127, 933)]",[],[1],[51],[0.85],"[640.0, 512.0]",vertical,"(890.0, 262.0)",[0.527],1,4196.698
10,False,585,1.303,78,[],[],"[(1125, 926)]",[],[1],[116],[1.9333333333333333],"[640.0, 512.0]",horizontal,"(890.0, 762.0)",[0.609],1,4199.091
10,False,586,0.698,41,[],[],"[(1148, 913)]",[],[1],[74],[1.2333333333333334],"[640.0, 512.0]",vertical,"(390.0, 762.0)",[0.534],1,4202.595
10,False,587,1.479,88,[],[4232243],"[(1128, 919)]","[(1100, 927)]",[1],[81],[1.35],"[640.0, 512.0]",vertical,"(890.0, 262.0)",[0],0,4205.413
10,False,588,0.715,42,[],[],"[(1122, 935)]",[],[1],[74],[1.2333333333333334],"[640.0, 512.0]",horizontal,"(390.0, 262.0)",[0.513],1,4208.323
10,False,589,0.599,35,[],[],"[(1115, 927)]",[],[1],[66],[1.1],"[640.0, 512.0]",vertical,"(390.0, 262.0)",[0.498],1,4213.396
10,False,590,0.978,58,[],[],"[(1125, 920)]",[],[1],[91],[1.5166666666666666],"[640.0, 512.0]",vertical,"(390.0, 762.0)",[0.526],1,4218.076
10,False,591,1.352,81,[],[],"[(1117, 917)]",[],[1],[116],[1.9333333333333333],"[640.0, 512.0]",horizontal,"(890.0, 762.0)",[0.564],1,4221.196
10,False,592,1.351,81,[],[],"[(1128, 927)]",[],[1],[114],[1.9],"[640.0, 512.0]",vertical,"(890.0, 262.0)",[0.527],1,4224.724
10,False,593,0.489,29,[],[],"[(1142, 945)]",[],[1],[64],[1.0666666666666667],"[640.0, 512.0]",horizontal,"(390.0, 762.0)",[0.564],1,4228.217
10,False,594,1.141,68,[],[],"[(1126, 922)]",[],[1],[109],[1.8166666666666667],"[640.0, 512.0]",horizontal,"(390.0, 262.0)",[0.673],1,4230.818
10,False,595,0.855,51,[],[],"[(1147, 925)]",[],[1],[83],[1.3833333333333333],"[640.0, 512.0]",horizontal,"(890.0, 762.0)",[0.516],1,4234.216
10,False,596,1.285,77,[],[],"[(1125, 932)]",[],[1],[115],[1.9166666666666667],"[640.0, 512.0]",vertical,"(390.0, 262.0)",[0.611],1,4237.162
10,False,597,1.41,84,[],[],"[(1117, 932)]",[],[1],[113],[1.8833333333333333],"[640.0, 512.0]",vertical,"(890.0, 762.0)",[0.468],1,4240.662
10,False,598,0.829,49,[],[],"[(1127, 926)]",[],[1],[87],[1.45],"[640.0, 512.0]",horizontal,"(890.0, 762.0)",[0.607],1,4245.131
10,False,599,1.234,74,[],[],"[(1128, 924)]",[],[1],[112],[1.8666666666666667],"[640.0, 512.0]",vertical,"(390.0, 262.0)",[0.608],1,4248.145
10,False,600,1.22,73,[],[],"[(1108, 927)]",[],[1],[106],[1.7666666666666666],"[640.0, 512.0]",horizontal,"(890.0, 262.0)",[0.534],1,4251.522
11,False,601,0.824,49,[],[],"[(1127, 902)]",[],[1],[83],[1.3833333333333333],"[640.0, 512.0]",horizontal,"(890.0, 262.0)",[0.545],1,4255.128
11,False,602,0.585,35,[],[],"[(1133, 927)]",[],[1],[78],[1.3],"[640.0, 512.0]",horizontal,"(390.0, 262.0)",[0.699],1,4258.208
11,False,603,1.371,82,[],[],"[(1132, 933)]",[],[1],[113],[1.8833333333333333],"[640.0, 512.0]",vertical,"(390.0, 262.0)",[0.498],1,4261.231
11,False,604,0.35,21,[],[],"[(1127, 921)]",[],[1],[56],[0.9333333333333333],"[640.0, 512.0]",vertical,"(390.0, 262.0)",[0.568],1,4264.738
11,False,605,1.343,80,[],[],"[(1112, 945)]",[],[1],[109],[1.8166666666666667],"[640.0, 512.0]",vertical,"(890.0, 762.0)",[0.464],1,4267.258
11,False,606,0.456,27,[],[],"[(1132, 932)]",[],[1],[61],[1.0166666666666666],"[640.0, 512.0]",vertical,"(390.0, 262.0)",[0.549],1,4270.665
11,False,607,0.846,50,[],[],"[(1135, 917)]",[],[1],[55],[0.9166666666666666],"[640.0, 512.0]",horizontal,"(890.0, 762.0)",[0.068],1,4273.239
11,False,608,0.484,29,[],[],"[(1127, 917)]",[],[1],[61],[1.0166666666666666],"[640.0, 512.0]",vertical,"(390.0, 262.0)",[0.517],1,4289.636
11,False,609,0.751,45,[],[],"[(1127, 904)]",[],[1],[86],[1.4333333333333333],"[640.0, 512.0]",horizontal,"(390.0, 762.0)",[0.654],1,4292.263
11,False,610,1.102,66,[],[],"[(1128, 917)]",[],[1],[102],[1.7],"[640.0, 512.0]",horizontal,"(390.0, 762.0)",[0.576],1,4295.248
11,False,611,0.966,57,[],[],"[(1141, 923)]",[],[1],[97],[1.6166666666666667],"[640.0, 512.0]",horizontal,"(890.0, 762.0)",[0.643],1,4298.564
11,False,612,0.878,52,[],[],"[(1102, 923)]",[],[1],[83],[1.3833333333333333],"[640.0, 512.0]",vertical,"(890.0, 262.0)",[0.495],1,4301.77
11,False,613,1.322,79,[],[],"[(1122, 899)]",[],[1],[120],[2.0],"[640.0, 512.0]",horizontal,"(890.0, 762.0)",[0.659],1,4304.707
11,False,614,0.929,55,[],[],"[(1130, 913)]",[],[1],[105],[1.75],"[640.0, 512.0]",horizontal,"(890.0, 762.0)",[0.811],0,4309.503
11,False,615,0.354,21,[],[],"[(1128, 941)]",[],[1],[71],[1.1833333333333333],"[640.0, 512.0]",horizontal,"(890.0, 262.0)",[0.807],0,4312.959
11,False,616,1.273,76,[],[],"[(1153, 908)]",[],[1],[100],[1.6666666666666667],"[640.0, 512.0]",horizontal,"(890.0, 762.0)",[0.386],1,4315.963
11,False,617,1.392,83,[],[],"[(1131, 910)]",[],[1],[107],[1.7833333333333332],"[640.0, 512.0]",horizontal,"(390.0, 262.0)",[0.384],1,4319.264
11,False,618,1.472,88,[],[],"[(1142, 911)]",[],[1],[116],[1.9333333333333333],"[640.0, 512.0]",horizontal,"(390.0, 762.0)",[0.442],1,4322.634
11,False,619,0.661,39,[],[],"[(788, 824), (754, 794), (729, 662), (692, 543), (751, 715), (722, 855), (628, 741), (814, 920), (1156, 917)]",[],"[0, 0, 0, 0, 0, 0, 0, 0, 1]",[60],[1.0],"[640.0, 512.0]",vertical,"(890.0, 262.0)",[0.327],1,4326.107
11,False,620,1.169,70,[],[4357002],"[(766, 999), (777, 678), (1097, 927)]","[(1097, 927)]","[0, 0, 1]",[5],[0.08333333333333333],"[640.0, 512.0]",vertical,"(890.0, 762.0)",[0],0,4331.2
11,False,621,0.475,28,[],[],"[(767, 814), (1146, 911)]",[],"[0, 1]",[35],[0.5833333333333334],"[640.0, 512.0]",horizontal,"(390.0, 762.0)",[0.098],1,4333.086
11,False,622,0.767,46,[],[],"[(800, 671), (1145, 907)]",[],"[0, 1]",[75],[1.25],"[640.0, 512.0]",vertical,"(390.0, 762.0)",[0.462],1,4335.283
11,False,623,1.277,76,[4366864],[4367013],"[(804, 937), (687, 710), (1046, 824), (907, 937)]","[(907, 937)]","[0, 0, 1, 0]",[14],[0.23333333333333334],"[640.0, 512.0]",vertical,"(390.0, 762.0)",[0],0,4338.214
11,False,624,1.29,77,[],[4373353],"[(756, 886), (796, 917), (751, 981), (1148, 986), (1105, 907)]","[(1105, 907)]","[0, 0, 0, 0, 1]",[12],[0.2],"[640.0, 512.0]",horizontal,"(390.0, 762.0)",[0],0,4343.102
11,False,625,0.995,59,[],[],"[(729, 774), (1125, 886)]",[],"[0, 1]",[76],[1.2666666666666666],"[640.0, 512.0]",horizontal,"(390.0, 762.0)",[0.266],1,4349.447
11,False,626,1.186,71,[],[4384893],"[(1161, 956), (708, 879), (712, 949), (707, 942), (1119, 897)]","[(1158, 899)]","[0, 0, 0, 0, 1]",[57],[0.95],"[640.0, 512.0]",horizontal,"(890.0, 262.0)",[0],0,4353.589
11,False,627,0.828,49,[],[],"[(1122, 936)]",[],[1],[76],[1.2666666666666666],"[640.0, 512.0]",vertical,"(390.0, 762.0)",[0.433],1,4360.994
11,False,628,1.078,64,[],[4390793],"[(1149, 915)]","[(1114, 929)]",[1],[37],[0.6166666666666667],"[640.0, 512.0]",horizontal,"(890.0, 262.0)",[0],0,4364.606
11,False,629,0.581,34,[],[],"[(775, 917), (1102, 894)]",[],"[0, 1]",[45],[0.75],"[640.0, 512.0]",horizontal,"(890.0, 262.0)",[0.171],1,4366.882
11,False,630,1.445,86,[],[4400587],"[(716, 909), (1149, 923)]","[(1095, 923)]","[0, 1]",[45],[0.75],"[640.0, 512.0]",vertical,"(890.0, 262.0)",[0],0,4372.25
11,False,631,1.218,73,[],[4413741],"[(1127, 922)]","[(1106, 927)]",[1],[43],[0.7166666666666667],"[640.0, 512.0]",horizontal,"(890.0, 262.0)",[0],0,4376.674
11,False,632,0.935,56,[],[4418847],"[(1116, 941)]","[(1132, 941)]",[1],[52],[0.8666666666666667],"[640.0, 512.0]",horizontal,"(890.0, 762.0)",[0],0,4389.813
11,False,633,0.452,27,[],[],"[(1126, 902)]",[],[1],[59],[0.9833333333333333],"[640.0, 512.0]",vertical,"(390.0, 262.0)",[0.517],1,4394.926
11,False,634,0.696,41,[],[],"[(1131, 933)]",[],[1],[56],[0.9333333333333333],"[640.0, 512.0]",vertical,"(890.0, 262.0)",[0.235],1,4397.581
11,False,635,1.409,84,[],[4426755],"[(1100, 933)]","[(1102, 932)]",[1],[55],[0.9166666666666666],"[640.0, 512.0]",vertical,"(390.0, 762.0)",[0],0,4400.159
11,False,636,0.883,52,[],[],"[(1142, 912)]",[],[1],[102],[1.7],"[640.0, 512.0]",horizontal,"(390.0, 262.0)",[0.812],0,4402.836
11,False,637,0.712,42,[],[],"[(1158, 910)]",[],[1],[68],[1.1333333333333333],"[640.0, 512.0]",vertical,"(390.0, 762.0)",[0.409],1,4406.142
11,False,638,0.603,36,[],[],"[(506, 790), (1152, 909)]",[],"[0, 1]",[80],[1.3333333333333333],"[640.0, 512.0]",vertical,"(890.0, 762.0)",[0.705],1,4408.876
11,False,639,0.436,26,[],[],"[(575, 814), (453, 829), (557, 853), (565, 848), (1132, 912)]",[],"[0, 0, 0, 0, 1]",[47],[0.7833333333333333],"[640.0, 512.0]",vertical,"(890.0, 262.0)",[0.335],1,4413.397
11,False,640,0.806,48,[],[],"[(1127, 919)]",[],[1],[50],[0.8333333333333334],"[640.0, 512.0]",vertical,"(890.0, 762.0)",[0.016],1,4439.782
11,False,641,0.675,40,[],[],"[(1127, 946)]",[],[1],[70],[1.1666666666666667],"[640.0, 512.0]",vertical,"(890.0, 762.0)",[0.48],1,4442.205
11,False,642,1.493,89,[],[],"[(1125, 905)]",[],[1],[103],[1.7166666666666666],"[640.0, 512.0]",horizontal,"(390.0, 762.0)",[0.216],1,4444.974
11,False,643,0.706,42,[],[],"[(1108, 919)]",[],[1],[64],[1.0666666666666667],"[640.0, 512.0]",vertical,"(390.0, 262.0)",[0.35],1,4448.236
11,False,644,1.498,89,[],[4478686],"[(1115, 930)]","[(1094, 942)]",[1],[73],[1.2166666666666666],"[640.0, 512.0]",vertical,"(890.0, 262.0)",[0],0,4450.997
11,False,645,1.404,84,[],[],"[(1128, 931)]",[],[1],[117],[1.95],"[640.0, 512.0]",vertical,"(390.0, 762.0)",[0.531],1,4454.77
11,False,646,0.372,22,[],[],"[(1122, 940)]",[],[1],[55],[0.9166666666666666],"[640.0, 512.0]",horizontal,"(390.0, 762.0)",[0.529],1,4459.343
11,False,647,1.186,71,[],[],"[(1134, 932)]",[],[1],[95],[1.5833333333333333],"[640.0, 512.0]",vertical,"(890.0, 762.0)",[0.375],1,4461.859
11,False,648,0.764,45,[],[],"[(1127, 922)]",[],[1],[93],[1.55],"[640.0, 512.0]",horizontal,"(890.0, 262.0)",[0.771],1,4465.11
11,False,649,0.848,50,[],[],"[(1105, 922)]",[],[1],[89],[1.4833333333333334],"[640.0, 512.0]",horizontal,"(890.0, 762.0)",[0.635],1,4468.352
11,False,650,1.494,89,[],[],"[(1123, 936)]",[],[1],[139],[2.3166666666666664],"[640.0, 512.0]",vertical,"(890.0, 262.0)",[0.818],0,4471.616
11,False,651,0.936,56,[],[4508819],"[(1127, 937)]","[(1087, 949)]",[1],[50],[0.8333333333333334],"[640.0, 512.0]",vertical,"(890.0, 762.0)",[0],0,4475.677
11,False,652,0.324,19,[],[],"[(1126, 941)]",[],[1],[49],[0.8166666666666667],"[640.0, 512.0]",horizontal,"(890.0, 762.0)",[0.482],1,4484.921
11,False,653,1.032,61,[],[],"[(1139, 898)]",[],[1],[111],[1.8499999999999999],"[640.0, 512.0]",vertical,"(890.0, 762.0)",[0.808],0,4494.554
11,False,654,1.046,62,[],[],"[(1127, 920)]",[],[1],[98],[1.6333333333333333],"[640.0, 512.0]",vertical,"(390.0, 262.0)",[0.578],1,4498.023
11,False,655,0.725,43,[],[],"[(1150, 919)]",[],[1],[93],[1.55],"[640.0, 512.0]",vertical,"(890.0, 762.0)",[0.824],0,4502.123
11,False,656,0.509,30,[],[],"[(1132, 924)]",[],[1],[68],[1.1333333333333333],"[640.0, 512.0]",horizontal,"(890.0, 262.0)",[0.612],1,4505.388
11,False,657,0.826,49,[],[],"[(1129, 911)]",[],[1],[85],[1.4166666666666667],"[640.0, 512.0]",horizontal,"(890.0, 262.0)",[0.585],1,4508.111
11,False,658,1.26,75,[],[],"[(1124, 925)]",[],[1],[106],[1.7666666666666666],"[640.0, 512.0]",vertical,"(390.0, 262.0)",[0.493],1,4511.192
11,False,659,1.446,86,[],[],"[(1128, 904)]",[],[1],[94],[1.5666666666666667],"[640.0, 512.0]",vertical,"(890.0, 762.0)",[0.116],1,4514.871
11,False,660,0.504,30,[],[],"[(1127, 923)]",[],[1],[62],[1.0333333333333332],"[640.0, 512.0]",vertical,"(890.0, 262.0)",[0.513],1,4518.14
12,False,661,0.361,21,[],[],"[(1135, 922)]",[],[1],[71],[1.1833333333333333],"[640.0, 512.0]",horizontal,"(390.0, 262.0)",[0.809],0,4520.804
12,False,662,0.962,57,[],[],"[(1156, 930)]",[],[1],[88],[1.4666666666666666],"[640.0, 512.0]",vertical,"(390.0, 762.0)",[0.495],1,4523.649
12,False,663,0.659,39,[],[],"[(1130, 941)]",[],[1],[89],[1.4833333333333334],"[640.0, 512.0]",horizontal,"(390.0, 762.0)",[0.805],0,4528.272
12,False,664,0.509,30,[],[],"[(1159, 925)]",[],[1],[46],[0.7666666666666666],"[640.0, 512.0]",horizontal,"(890.0, 262.0)",[0.248],1,4531.366
12,False,665,0.59,35,[],[],"[(1127, 928)]",[],[1],[54],[0.9],"[640.0, 512.0]",vertical,"(890.0, 762.0)",[0.296],1,4803.988
12,False,666,0.372,22,[],[],"[(1127, 945)]",[],[1],[52],[0.8666666666666667],"[640.0, 512.0]",horizontal,"(390.0, 762.0)",[0.48],1,4806.507
12,False,667,0.778,46,[],[],"[(1123, 957), (1137, 906)]",[],"[0, 1]",[53],[0.8833333333333333],"[640.0, 512.0]",vertical,"(390.0, 262.0)",[0.1],1,4808.975
12,False,668,1.336,80,[],[4838839],"[(1127, 940)]","[(1096, 951)]",[1],[57],[0.95],"[640.0, 512.0]",vertical,"(890.0, 762.0)",[0],0,4812.375
12,False,669,0.818,49,[],[],"[(1126, 911)]",[],[1],[61],[1.0166666666666666],"[640.0, 512.0]",vertical,"(890.0, 762.0)",[0.181],1,4814.923
12,False,670,1.28,76,[],[4844416],"[(1137, 945)]","[(1102, 949)]",[1],[66],[1.1],"[640.0, 512.0]",horizontal,"(890.0, 262.0)",[0],0,4817.514
12,False,671,0.74,44,[],[],"[(1151, 912)]",[],[1],[46],[0.7666666666666666],"[640.0, 512.0]",horizontal,"(890.0, 762.0)",[0.017],1,4820.496
12,False,672,1.301,78,[],[4849354],"[(1124, 939)]","[(1089, 952)]",[1],[57],[0.95],"[640.0, 512.0]",horizontal,"(890.0, 762.0)",[0],0,4822.883
12,False,673,1.415,84,[],[4851963],"[(1126, 914)]","[(1082, 930)]",[1],[54],[0.9],"[640.0, 512.0]",horizontal,"(890.0, 762.0)",[0],0,4825.443
12,False,674,1.217,73,[],[],"[(1123, 926)]",[],[1],[77],[1.2833333333333332],"[640.0, 512.0]",vertical,"(390.0, 762.0)",[0.051],1,4828.044
12,False,675,0.328,19,[],[],"[(1117, 932)]",[],[1],[54],[0.9],"[640.0, 512.0]",vertical,"(390.0, 762.0)",[0.56],1,4831.128
12,False,676,1.196,71,[],[],"[(1127, 932)]",[],[1],[81],[1.35],"[640.0, 512.0]",horizontal,"(390.0, 762.0)",[0.149],1,4833.707
12,False,677,1.223,73,[],[],"[(1121, 919)]",[],[1],[81],[1.35],"[640.0, 512.0]",horizontal,"(390.0, 762.0)",[0.117],1,4836.618
12,False,678,0.56,33,[],[],"[(1126, 924)]",[],[1],[62],[1.0333333333333332],"[640.0, 512.0]",vertical,"(390.0, 262.0)",[0.458],1,4839.631
12,False,679,1.024,61,[],[],"[(1113, 917)]",[],[1],[87],[1.45],"[640.0, 512.0]",horizontal,"(390.0, 762.0)",[0.414],1,4842.227
12,False,680,0.652,39,[],[],"[(1151, 917)]",[],[1],[82],[1.3666666666666667],"[640.0, 512.0]",horizontal,"(890.0, 762.0)",[0.687],1,4845.269
12,False,681,1.291,77,[],[],"[(1083, 928)]",[],[1],[117],[1.95],"[640.0, 512.0]",horizontal,"(390.0, 762.0)",[0.649],1,4848.202
12,False,682,0.414,24,[],[],"[(1127, 924)]",[],[1],[61],[1.0166666666666666],"[640.0, 512.0]",vertical,"(890.0, 262.0)",[0.602],1,4852.393
12,False,683,1.198,71,[],[],"[(1127, 928)]",[],[1],[104],[1.7333333333333334],"[640.0, 512.0]",horizontal,"(890.0, 262.0)",[0.528],1,4855.23
12,False,684,0.371,22,[],[],"[(1128, 938)]",[],[1],[57],[0.95],"[640.0, 512.0]",vertical,"(390.0, 262.0)",[0.559],1,4858.517
12,False,685,1.183,70,[],[],"[(1111, 917)]",[],[1],[92],[1.5333333333333332],"[640.0, 512.0]",horizontal,"(390.0, 262.0)",[0.347],1,4860.984
12,False,686,1.429,85,[],[4890967],"[(1107, 923)]","[(1071, 938)]",[1],[84],[1.4],"[640.0, 512.0]",vertical,"(890.0, 762.0)",[0],0,4864.064
12,False,687,1.235,74,[],[],"[(1127, 926)]",[],[1],[76],[1.2666666666666666],"[640.0, 512.0]",vertical,"(890.0, 762.0)",[0.017],1,4867.049
12,False,688,0.996,59,[],[],"[(1128, 902)]",[],[1],[67],[1.1166666666666667],"[640.0, 512.0]",horizontal,"(890.0, 762.0)",[0.118],1,4870.055
12,False,689,0.767,46,[],[],"[(1108, 939)]",[],[1],[82],[1.3666666666666667],"[640.0, 512.0]",vertical,"(890.0, 762.0)",[0.579],1,4872.801
12,False,690,1.028,61,[],[],"[(1125, 912)]",[],[1],[93],[1.55],"[640.0, 512.0]",horizontal,"(890.0, 262.0)",[0.516],1,4875.711
12,False,691,0.778,46,[],[],"[(1127, 924)]",[],[1],[66],[1.1],"[640.0, 512.0]",horizontal,"(390.0, 762.0)",[0.32],1,4878.761
12,False,692,0.37,22,[],[],"[(1117, 916)]",[],[1],[64],[1.0666666666666667],"[640.0, 512.0]",vertical,"(390.0, 262.0)",[0.678],1,4883.07
12,False,693,1.05,63,[],[],"[(1125, 929)]",[],[1],[113],[1.8833333333333333],"[640.0, 512.0]",horizontal,"(890.0, 762.0)",[0.817],0,4885.775
12,False,694,1.275,76,[],[4919966],"[(1102, 949), (1127, 905)]","[(1107, 914)]","[0, 1]",[57],[0.95],"[640.0, 512.0]",horizontal,"(890.0, 262.0)",[0],0,4889.243
12,False,695,0.635,38,[],[],"[(1106, 918)]",[],[1],[62],[1.0333333333333332],"[640.0, 512.0]",horizontal,"(890.0, 262.0)",[0.379],1,4896.051
12,False,696,1.132,67,[],[],"[(1126, 928)]",[],[1],[83],[1.3833333333333333],"[640.0, 512.0]",horizontal,"(890.0, 262.0)",[0.25],1,4899.039
12,False,697,0.382,22,[],[],"[(1105, 920)]",[],[1],[34],[0.5666666666666667],"[640.0, 512.0]",vertical,"(390.0, 262.0)",[0.185],1,4902.058
12,False,698,0.472,28,[],[],"[(1080, 945)]",[],[1],[45],[0.75],"[640.0, 512.0]",horizontal,"(890.0, 262.0)",[0.27],1,4904.413
12,False,699,0.522,31,[],[],"[(1128, 887)]",[],[1],[41],[0.6833333333333333],"[640.0, 512.0]",horizontal,"(890.0, 762.0)",[0.147],1,4917.419
12,False,700,1.494,89,[],[],"[(1126, 900)]",[],[1],[139],[2.3166666666666664],"[640.0, 512.0]",vertical,"(390.0, 762.0)",[0.815],0,4925.282
12,False,701,0.885,53,[],[],"[(1132, 918)]",[],[1],[74],[1.2333333333333334],"[640.0, 512.0]",vertical,"(390.0, 762.0)",[0.326],1,4929.164
12,False,702,0.493,29,[],[],"[(1116, 920)]",[],[1],[69],[1.15],"[640.0, 512.0]",vertical,"(390.0, 762.0)",[0.646],1,4931.983
12,False,703,1.064,63,[],[],"[(1127, 932)]",[],[1],[97],[1.6166666666666667],"[640.0, 512.0]",vertical,"(890.0, 262.0)",[0.546],1,4935.016
12,False,704,0.329,19,[],[],"[(1154, 927)]",[],[1],[47],[0.7833333333333333],"[640.0, 512.0]",horizontal,"(890.0, 262.0)",[0.446],1,4938.287
12,False,705,0.419,25,[],[],"[(1162, 902)]",[],[1],[75],[1.25],"[640.0, 512.0]",vertical,"(890.0, 762.0)",[0.806],0,4943.662
12,False,706,1.499,89,[],[],"[(1126, 912)]",[],[1],[115],[1.9166666666666667],"[640.0, 512.0]",vertical,"(390.0, 762.0)",[0.413],1,4946.439
12,False,707,0.854,51,[],[],"[(1161, 918)]",[],[1],[87],[1.45],"[640.0, 512.0]",horizontal,"(890.0, 262.0)",[0.587],1,4950.018
12,False,708,0.415,24,[],[],"[(1152, 924)]",[],[1],[74],[1.2333333333333334],"[640.0, 512.0]",horizontal,"(890.0, 762.0)",[0.813],0,4953.123
12,False,709,0.488,29,[],[],"[(1143, 932)]",[],[1],[61],[1.0166666666666666],"[640.0, 512.0]",vertical,"(890.0, 762.0)",[0.518],1,4955.904
12,False,710,1.082,64,[],[],"[(1126, 917)]",[],[1],[103],[1.7166666666666666],"[640.0, 512.0]",vertical,"(890.0, 262.0)",[0.636],1,4959.607
12,False,711,1.279,76,[],[],"[(1127, 936)]",[],[1],[126],[2.1],"[640.0, 512.0]",horizontal,"(390.0, 262.0)",[0.807],0,4962.964
12,False,712,1.208,72,[],[],"[(1126, 941)]",[],[1],[103],[1.7166666666666666],"[640.0, 512.0]",horizontal,"(890.0, 762.0)",[0.493],1,4967.213
12,False,713,1.135,68,[],[],"[(1104, 935)]",[],[1],[105],[1.75],"[640.0, 512.0]",horizontal,"(390.0, 262.0)",[0.605],1,4970.835
12,False,714,0.627,37,[],[],"[(1141, 921)]",[],[1],[72],[1.2],"[640.0, 512.0]",vertical,"(890.0, 262.0)",[0.562],1,4974.23
12,False,715,0.376,22,[],[],"[(1121, 937)]",[],[1],[57],[0.95],"[640.0, 512.0]",horizontal,"(390.0, 762.0)",[0.571],1,4977.127
12,False,716,0.692,41,[],[],"[(1110, 919)]",[],[1],[82],[1.3666666666666667],"[640.0, 512.0]",horizontal,"(890.0, 762.0)",[0.655],1,4979.851
12,False,717,0.337,20,[],[],"[(1128, 928)]",[],[1],[56],[0.9333333333333333],"[640.0, 512.0]",horizontal,"(390.0, 762.0)",[0.579],1,4982.837
12,False,718,1.114,66,[],[],"[(1117, 927)]",[],[1],[116],[1.9333333333333333],"[640.0, 512.0]",vertical,"(890.0, 762.0)",[0.813],0,4987.167
12,False,719,0.441,26,[],[],"[(1151, 927)]",[],[1],[59],[0.9833333333333333],"[640.0, 512.0]",horizontal,"(390.0, 762.0)",[0.535],1,4990.753
12,False,720,0.605,36,[],[],"[(1131, 913)]",[],[1],[86],[1.4333333333333333],"[640.0, 512.0]",vertical,"(390.0, 262.0)",[0.811],0,4993.373
13,False,721,1.366,81,[],[],"[(1122, 936)]",[],[1],[100],[1.6666666666666667],"[640.0, 512.0]",horizontal,"(390.0, 262.0)",[0.299],1,4996.382
13,False,722,0.623,37,[],[],"[(1123, 924)]",[],[1],[68],[1.1333333333333333],"[640.0, 512.0]",vertical,"(890.0, 762.0)",[0.498],1,4999.637
13,False,723,0.806,48,[],[],"[(1116, 923)]",[],[1],[76],[1.2666666666666666],"[640.0, 512.0]",vertical,"(890.0, 262.0)",[0.444],1,5002.399
13,False,724,0.745,44,[],[],"[(1133, 926)]",[],[1],[75],[1.25],"[640.0, 512.0]",vertical,"(890.0, 762.0)",[0.497],1,5005.199
13,False,725,0.914,54,[],[],"[(1109, 898)]",[],[1],[62],[1.0333333333333332],"[640.0, 512.0]",vertical,"(390.0, 262.0)",[0.116],1,5008.124
13,False,726,1.353,81,[],[5037608],"[(1155, 914)]","[(1099, 922)]",[1],[68],[1.1333333333333333],"[640.0, 512.0]",vertical,"(390.0, 762.0)",[0],0,5010.88
13,False,727,1.193,71,[],[],"[(1180, 928)]",[],[1],[74],[1.2333333333333334],"[640.0, 512.0]",vertical,"(390.0, 262.0)",[0.034],1,5013.69
