block,practice,trial,change_interval_s,change_interval_frames,taps_start_time_during_fix,taps_end_time_during_fix,taps_start_loc_during_fix,taps_end_loc_during_fix,taps_on_lever_during_fix,taps_on_lever_frame_during_fix,taps_on_lever_s_during_fix,fix_xy,bar_orientation,target_xy,cti,rt,acc,time
1,True,1,1.054,63,[],[],"[(1167, 879)]",[],[1],[4],[0.06666666666666667],"[640.0, 512.0]",horizontal,"(890.0, 762.0)",[0.5166666666666666],[0.035],1,0.362
1,True,2,1.026,61,[],[],"[(1080, 871)]",[],[1],[],[],"[640.0, 512.0]",vertical,"(390.0, 762.0)",[],[0],0,159.285
1,True,3,0.888,53,[],[],"[(445, 956), (1116, 899)]",[],"[0, 1]",[],[],"[640.0, 512.0]",vertical,"(890.0, 262.0)",[],[0],0,163.117
1,True,4,0.532,31,[],[],"[(1176, 894)]",[],[1],[32],[0.5333333333333333],"[640.0, 512.0]",horizontal,"(390.0, 762.0)",[1.2166666666666666],[0.493],1,488.036
1,False,1,1.104,66,[],[],"[(1086, 886)]",[],[1],[35],[0.5833333333333334],"[640.0, 512.0]",horizontal,"(890.0, 762.0)",[0.5666666666666667],[0.533],1,1584.146
1,False,2,0.516,30,[],[],"[(1104, 880)]",[],[1],[34],[0.5666666666666667],"[640.0, 512.0]",horizontal,"(390.0, 262.0)",[1.0],[0.521],1,1588.358
1,False,3,0.757,45,[],[],"[(1084, 872)]",[],[1],[33],[0.55],"[640.0, 512.0]",vertical,"(890.0, 762.0)",[1.55],[0.505],1,1592.41
1,False,4,0.884,53,[],[],"[(1098, 866)]",[],[1],[34],[0.5666666666666667],"[640.0, 512.0]",horizontal,"(390.0, 262.0)",[1.2666666666666666],[0.521],1,1597.3
1,False,5,1.008,60,[],[],"[(1099, 876)]",[],[1],[35],[0.5833333333333334],"[640.0, 512.0]",vertical,"(390.0, 762.0)",[0.5833333333333334],[0.539],1,1602.175
1,False,6,0.7,42,[],[],"[(1105, 882)]",[],[1],[37],[0.6166666666666667],"[640.0, 512.0]",horizontal,"(390.0, 262.0)",[0.7],[0.572],1,1608.079
1,False,7,0.81,48,[],[],"[(1099, 890)]",[],[1],[31],[0.5166666666666666],"[640.0, 512.0]",horizontal,"(390.0, 762.0)",[0.65],[0.471],1,1612.141
1,False,8,0.977,58,[],[],"[(1103, 885)]",[],[1],[35],[0.5833333333333334],"[640.0, 512.0]",vertical,"(890.0, 762.0)",[0.8166666666666667],[0.543],1,1616.048
1,False,9,0.89,53,[],[],"[(1075, 879)]",[],[1],[34],[0.5666666666666667],"[640.0, 512.0]",horizontal,"(890.0, 262.0)",[1.2333333333333334],[0.524],1,1622.685
1,False,10,0.54,32,[],[],"[(1095, 870)]",[],[1],[33],[0.55],"[640.0, 512.0]",horizontal,"(890.0, 762.0)",[0.6],[0.511],1,1627.494
1,False,11,0.948,56,[],[],"[(1095, 886)]",[],[1],[35],[0.5833333333333334],"[640.0, 512.0]",vertical,"(890.0, 762.0)",[0.7],[0.541],1,1634.692
1,False,12,0.981,58,[],[],"[(1090, 884)]",[],[1],[33],[0.55],"[640.0, 512.0]",vertical,"(390.0, 762.0)",[1.5666666666666667],[0.508],1,1638.911
1,False,13,0.919,55,[],[],"[(1086, 852)]",[],[1],[34],[0.5666666666666667],"[640.0, 512.0]",horizontal,"(390.0, 262.0)",[0.9333333333333333],[0.529],1,1644.023
1,False,14,0.543,32,[],[],"[(1101, 876)]",[],[1],[32],[0.5333333333333333],"[640.0, 512.0]",horizontal,"(390.0, 762.0)",[1.05],[0.496],1,1648.657
1,False,15,0.756,45,[],[],"[(1074, 868)]",[],[1],[33],[0.55],"[640.0, 512.0]",horizontal,"(390.0, 762.0)",[0.6],[0.508],1,1652.88
1,False,16,0.68,40,[],[],"[(1074, 871)]",[],[1],[31],[0.5166666666666666],"[640.0, 512.0]",vertical,"(390.0, 262.0)",[0.9833333333333333],[0.478],1,1656.83
1,False,17,0.741,44,[],[],"[(1074, 851)]",[],[1],[31],[0.5166666666666666],"[640.0, 512.0]",horizontal,"(890.0, 262.0)",[0.9166666666666666],[0.476],1,1661.024
1,False,18,1.133,67,[],[],"[(1087, 880)]",[],[1],[38],[0.6333333333333333],"[640.0, 512.0]",vertical,"(390.0, 262.0)",[0.7333333333333333],[0.583],1,1665.308
1,False,19,0.671,40,[],[],"[(1073, 877)]",[],[1],[34],[0.5666666666666667],"[640.0, 512.0]",vertical,"(890.0, 762.0)",[0.6833333333333333],[0.527],1,1669.813
1,False,20,0.847,50,[],[],"[(1074, 884)]",[],[1],[31],[0.5166666666666666],"[640.0, 512.0]",vertical,"(890.0, 262.0)",[0.6],[0.475],1,1673.796
1,False,21,0.86,51,[],[],"[(1084, 885)]",[],[1],[32],[0.5333333333333333],"[640.0, 512.0]",horizontal,"(390.0, 262.0)",[1.45],[0.492],1,1677.841
1,False,22,0.877,52,[],[],"[(1086, 869)]",[],[1],[36],[0.6],"[640.0, 512.0]",vertical,"(390.0, 762.0)",[0.65],[0.555],1,1682.71
1,False,23,0.839,50,[],[],"[(1063, 871)]",[],[1],[33],[0.55],"[640.0, 512.0]",horizontal,"(390.0, 762.0)",[1.0166666666666666],[0.513],1,1686.907
1,False,24,0.898,53,[],[],"[(1074, 894)]",[],[1],[34],[0.5666666666666667],"[640.0, 512.0]",horizontal,"(390.0, 762.0)",[0.9666666666666667],[0.534],1,1691.356
1,False,25,0.821,49,[],[],"[(1074, 880)]",[],[1],[35],[0.5833333333333334],"[640.0, 512.0]",horizontal,"(890.0, 762.0)",[0.9833333333333333],[0.54],1,1695.793
1,False,26,1.009,60,[],[],"[(1081, 866)]",[],[1],[32],[0.5333333333333333],"[640.0, 512.0]",vertical,"(890.0, 262.0)",[1.0],[0.492],1,1700.227
1,False,27,1.009,60,[],[],"[(1097, 878)]",[],[1],[34],[0.5666666666666667],"[640.0, 512.0]",vertical,"(390.0, 262.0)",[1.5333333333333332],[0.523],1,1704.772
1,False,28,0.767,46,[],[],"[(1086, 859)]",[],[1],[40],[0.6666666666666666],"[640.0, 512.0]",horizontal,"(390.0, 762.0)",[0.8166666666666667],[0.635],1,1709.878
1,False,29,1.139,68,[],[],"[(1077, 876)]",[],[1],[36],[0.6],"[640.0, 512.0]",vertical,"(390.0, 262.0)",[0.9666666666666667],[0.562],1,1714.191
1,False,30,1.126,67,[],[],"[(1076, 864)]",[],[1],[36],[0.6],"[640.0, 512.0]",horizontal,"(890.0, 762.0)",[1.05],[0.557],1,1719.089
1,False,31,0.937,56,[],[],"[(1038, 867)]",[],[1],[36],[0.6],"[640.0, 512.0]",horizontal,"(390.0, 762.0)",[0.6666666666666666],[0.557],1,1723.887
1,False,32,0.549,32,[],[],"[(1075, 890)]",[],[1],[41],[0.6833333333333333],"[640.0, 512.0]",horizontal,"(890.0, 762.0)",[0.8],[0.635],1,1728.252
1,False,33,0.884,53,[],[],"[(1093, 882)]",[],[1],[35],[0.5833333333333334],"[640.0, 512.0]",vertical,"(890.0, 262.0)",[1.4],[0.539],1,1732.412
1,False,34,0.558,33,[],[],"[(1052, 886)]",[],[1],[38],[0.6333333333333333],"[640.0, 512.0]",horizontal,"(890.0, 762.0)",[1.3666666666666667],[0.59],1,1737.42
1,False,35,0.976,58,[],[],"[(1086, 890)]",[],[1],[35],[0.5833333333333334],"[640.0, 512.0]",vertical,"(390.0, 262.0)",[0.9166666666666666],[0.541],1,1742.134
1,False,36,1.082,64,[],[],"[(1087, 859)]",[],[1],[35],[0.5833333333333334],"[640.0, 512.0]",vertical,"(390.0, 262.0)",[0.9833333333333333],[0.542],1,1746.693
1,False,37,1.15,69,[],[],"[(1065, 858)]",[],[1],[37],[0.6166666666666667],"[640.0, 512.0]",horizontal,"(390.0, 262.0)",[1.15],[0.573],1,1751.308
1,False,38,0.604,36,[],[],"[(1093, 853)]",[],[1],[35],[0.5833333333333334],"[640.0, 512.0]",vertical,"(390.0, 762.0)",[0.9],[0.539],1,1756.327
1,False,39,0.7,42,[],[],"[(1055, 871)]",[],[1],[51],[0.85],"[640.0, 512.0]",vertical,"(890.0, 262.0)",[1.65],[0.8],0,1760.633
1,False,40,0.805,48,[],[],"[(1080, 845)]",[],[1],[32],[0.5333333333333333],"[640.0, 512.0]",vertical,"(390.0, 262.0)",[0.8166666666666667],[0.493],1,1765.941
1,False,41,0.575,34,[],[],"[(1081, 860)]",[],[1],[33],[0.55],"[640.0, 512.0]",horizontal,"(890.0, 262.0)",[0.6833333333333333],[0.509],1,1771.113
1,False,42,0.801,48,[],[],"[(1097, 860)]",[],[1],[38],[0.6333333333333333],"[640.0, 512.0]",vertical,"(890.0, 762.0)",[1.3333333333333333],[0.59],1,1776.157
1,False,43,1.167,70,[],[],"[(1095, 858)]",[],[1],[33],[0.55],"[640.0, 512.0]",vertical,"(890.0, 262.0)",[1.4],[0.508],1,1780.937
1,False,44,0.724,43,[],[],"[(1093, 867)]",[],[1],[43],[0.7166666666666667],"[640.0, 512.0]",vertical,"(890.0, 262.0)",[0.9166666666666666],[0.675],1,1786.014
1,False,45,0.849,50,[],[],"[(1052, 864)]",[],[1],[51],[0.85],"[640.0, 512.0]",vertical,"(890.0, 762.0)",[0.6166666666666667],[0.802],0,1790.397
1,False,46,0.509,30,[],[],"[(1074, 857)]",[],[1],[42],[0.7],"[640.0, 512.0]",vertical,"(890.0, 762.0)",[0.8166666666666667],[0.655],1,1794.84
1,False,47,1.083,64,[],[],"[(1093, 861)]",[],[1],[38],[0.6333333333333333],"[640.0, 512.0]",vertical,"(390.0, 262.0)",[1.2166666666666666],[0.585],1,1801.681
1,False,48,0.803,48,[],[],"[(1119, 887)]",[],[1],[35],[0.5833333333333334],"[640.0, 512.0]",vertical,"(890.0, 762.0)",[1.0333333333333332],[0.54],1,1806.563
1,False,49,1.016,60,[],[],"[(1108, 894)]",[],[1],[],[],"[640.0, 512.0]",horizontal,"(890.0, 262.0)",[],[0],0,1811.143
1,False,50,0.828,49,[],[],"[(1137, 875)]",[],[1],[35],[0.5833333333333334],"[640.0, 512.0]",horizontal,"(890.0, 262.0)",[1.2666666666666666],[0.547],1,1812.877
1,False,51,1.151,69,[],[],"[(1079, 867)]",[],[1],[36],[0.6],"[640.0, 512.0]",horizontal,"(890.0, 762.0)",[0.6333333333333333],[0.561],1,1831.387
1,False,52,0.902,54,[],[],"[(1057, 866)]",[],[1],[40],[0.6666666666666666],"[640.0, 512.0]",vertical,"(890.0, 762.0)",[1.1333333333333333],[0.619],1,1839.764
1,False,53,0.919,55,[],[],"[(1095, 870)]",[],[1],[39],[0.65],"[640.0, 512.0]",horizontal,"(890.0, 762.0)",[1.0833333333333333],[0.61],1,1844.391
1,False,54,0.813,48,[],[],"[(1094, 863)]",[],[1],[31],[0.5166666666666666],"[640.0, 512.0]",horizontal,"(390.0, 762.0)",[1.0666666666666667],[0.476],1,1848.978
1,False,55,0.757,45,[],[],"[(1095, 865)]",[],[1],[30],[0.5],"[640.0, 512.0]",vertical,"(390.0, 262.0)",[0.8],[0.456],1,1853.592
1,False,56,0.94,56,[],[],"[(1093, 866)]",[],[1],[36],[0.6],"[640.0, 512.0]",vertical,"(390.0, 262.0)",[0.8],[0.559],1,1857.566
1,False,57,0.806,48,[],[],"[(1074, 874)]",[],[1],[36],[0.6],"[640.0, 512.0]",horizontal,"(390.0, 762.0)",[1.6166666666666667],[0.553],1,1861.861
1,False,58,1.035,62,[],[],"[(1032, 866)]",[],[1],[32],[0.5333333333333333],"[640.0, 512.0]",horizontal,"(890.0, 262.0)",[1.4666666666666666],[0.497],1,1869.536
1,False,59,0.618,37,[],[],"[(1063, 857)]",[],[1],[38],[0.6333333333333333],"[640.0, 512.0]",vertical,"(390.0, 762.0)",[0.85],[0.585],1,1874.576
1,False,60,0.657,39,[],[],"[(1109, 866)]",[],[1],[35],[0.5833333333333334],"[640.0, 512.0]",horizontal,"(890.0, 762.0)",[0.7833333333333333],[0.541],1,1881.29
2,False,61,0.585,35,[],[],"[(1050, 880)]",[],[1],[34],[0.5666666666666667],"[640.0, 512.0]",horizontal,"(390.0, 762.0)",[0.5833333333333334],[0.522],1,1885.411
2,False,62,0.839,50,[],[],"[(1052, 863)]",[],[1],[35],[0.5833333333333334],"[640.0, 512.0]",vertical,"(390.0, 262.0)",[0.65],[0.557],1,1889.11
2,False,63,1.2,72,[],[],"[(1093, 898)]",[],[1],[35],[0.5833333333333334],"[640.0, 512.0]",horizontal,"(390.0, 762.0)",[1.15],[0.55],1,1893.349
2,False,64,0.548,32,[],[],"[(1093, 851)]",[],[1],[37],[0.6166666666666667],"[640.0, 512.0]",horizontal,"(890.0, 762.0)",[1.45],[0.576],1,1898.293
2,False,65,0.876,52,[],[],"[(1093, 879)]",[],[1],[37],[0.6166666666666667],"[640.0, 512.0]",horizontal,"(390.0, 762.0)",[0.7666666666666666],[0.575],1,1902.997
2,False,66,1.161,69,[],[],"[(1038, 886)]",[],[1],[33],[0.55],"[640.0, 512.0]",horizontal,"(890.0, 262.0)",[1.0333333333333332],[0.509],1,1907.227
2,False,67,1.162,69,[],[],"[(1130, 896)]",[],[1],[37],[0.6166666666666667],"[640.0, 512.0]",horizontal,"(890.0, 762.0)",[0.5],[0.574],1,1911.993
2,False,68,1.132,67,[],[],"[(1117, 899)]",[],[1],[33],[0.55],"[640.0, 512.0]",vertical,"(390.0, 262.0)",[1.2833333333333332],[0.508],1,2157.607
2,False,69,0.865,51,[],[],"[(1099, 866)]",[],[1],[40],[0.6666666666666666],"[640.0, 512.0]",vertical,"(890.0, 762.0)",[0.7166666666666667],[0.622],1,2164.105
2,False,70,1.16,69,[],[],"[(1097, 876)]",[],[1],[35],[0.5833333333333334],"[640.0, 512.0]",vertical,"(390.0, 762.0)",[1.3333333333333333],[0.539],1,2169.187
2,False,71,1.083,64,[],[],"[(1078, 899)]",[],[1],[33],[0.55],"[640.0, 512.0]",horizontal,"(890.0, 262.0)",[1.55],[0.507],1,2174.124
2,False,72,1.093,65,[],[],"[(1050, 851)]",[],[1],[36],[0.6],"[640.0, 512.0]",vertical,"(890.0, 762.0)",[0.6333333333333333],[0.559],1,2179.329
2,False,73,1.188,71,[],[],"[(1074, 885)]",[],[1],[37],[0.6166666666666667],"[640.0, 512.0]",horizontal,"(890.0, 762.0)",[1.1833333333333333],[0.574],1,2183.686
2,False,74,0.924,55,[],[],"[(1102, 868)]",[],[1],[35],[0.5833333333333334],"[640.0, 512.0]",vertical,"(890.0, 762.0)",[1.15],[0.54],1,2188.698
2,False,75,0.649,38,[],[],"[(1119, 900)]",[],[1],[33],[0.55],"[640.0, 512.0]",horizontal,"(390.0, 262.0)",[1.55],[0.507],1,2240.708
2,False,76,1.025,61,[],[],"[(1082, 845)]",[],[1],[],[],"[640.0, 512.0]",vertical,"(890.0, 262.0)",[],[0],0,2437.777
2,False,77,0.538,32,[],[],"[(1166, 885)]",[],[1],[44],[0.7333333333333333],"[640.0, 512.0]",vertical,"(390.0, 262.0)",[1.15],[0.685],1,2453.494
2,False,78,1.025,61,[],[],"[(1081, 885)]",[],[1],[34],[0.5666666666666667],"[640.0, 512.0]",vertical,"(890.0, 762.0)",[1.2333333333333334],[0.524],1,2458.291
2,False,79,1.12,67,[],[],"[(1022, 872), (1099, 863)]",[],"[0, 1]",[39],[0.65],"[640.0, 512.0]",vertical,"(890.0, 762.0)",[1.4833333333333334],[0.607],1,2463.023
2,False,80,1.146,68,[],[],"[(1140, 892)]",[],[1],[33],[0.55],"[640.0, 512.0]",vertical,"(390.0, 262.0)",[0.6833333333333333],[0.51],1,2470.108
2,False,81,1.176,70,[],[],"[(1047, 878)]",[],[1],[34],[0.5666666666666667],"[640.0, 512.0]",horizontal,"(890.0, 262.0)",[1.2],[0.525],1,2546.795
2,False,82,0.733,43,[],[],"[(1050, 875)]",[],[1],[34],[0.5666666666666667],"[640.0, 512.0]",horizontal,"(890.0, 762.0)",[1.2666666666666666],[0.522],1,2551.693
2,False,83,0.775,46,[],[],"[(1093, 875)]",[],[1],[42],[0.7],"[640.0, 512.0]",vertical,"(890.0, 762.0)",[1.3666666666666667],[0.659],1,2556.17
2,False,84,1.13,67,[],[],"[(1125, 914)]",[],[1],[40],[0.6666666666666666],"[640.0, 512.0]",horizontal,"(390.0, 762.0)",[1.0166666666666666],[0.633],1,2561.003
2,False,85,0.963,57,[],[],"[(1100, 862)]",[],[1],[47],[0.7833333333333333],"[640.0, 512.0]",horizontal,"(890.0, 262.0)",[0.6666666666666666],[0.739],1,2568.37
2,False,86,0.781,46,[],[],"[(1038, 859)]",[],[1],[51],[0.85],"[640.0, 512.0]",horizontal,"(390.0, 262.0)",[0.6166666666666667],[0.802],0,2572.752
2,False,87,0.793,47,[],[],"[(1045, 866)]",[],[1],[34],[0.5666666666666667],"[640.0, 512.0]",horizontal,"(390.0, 762.0)",[0.6833333333333333],[0.527],1,2577.075
2,False,88,0.977,58,[],[],"[(1097, 876)]",[],[1],[33],[0.55],"[640.0, 512.0]",horizontal,"(890.0, 762.0)",[0.5166666666666666],[0.507],1,2583.633
2,False,89,0.56,33,[],[],"[(1099, 871)]",[],[1],[35],[0.5833333333333334],"[640.0, 512.0]",vertical,"(390.0, 262.0)",[1.3],[0.54],1,2587.716
2,False,90,0.674,40,[],[],"[(1098, 860)]",[],[1],[36],[0.6],"[640.0, 512.0]",horizontal,"(390.0, 262.0)",[1.3],[0.561],1,2592.043
2,False,91,1.198,71,[],[],"[(1079, 868)]",[],[1],[41],[0.6833333333333333],"[640.0, 512.0]",vertical,"(890.0, 762.0)",[1.5],[0.639],1,2596.462
2,False,92,0.54,32,[],[],"[(1087, 865)]",[],[1],[33],[0.55],"[640.0, 512.0]",horizontal,"(890.0, 262.0)",[1.2166666666666666],[0.505],1,2601.763
2,False,93,0.57,34,[],[],"[(1087, 862)]",[],[1],[40],[0.6666666666666666],"[640.0, 512.0]",vertical,"(890.0, 262.0)",[1.5166666666666666],[0.625],1,2606.032
2,False,94,0.691,41,[],[],"[(1093, 880)]",[],[1],[51],[0.85],"[640.0, 512.0]",vertical,"(390.0, 262.0)",[1.0],[0.799],0,2610.807
2,False,95,0.957,57,[],[],"[(1148, 861)]",[],[1],[39],[0.65],"[640.0, 512.0]",horizontal,"(390.0, 762.0)",[0.6166666666666667],[0.612],1,2615.525
2,False,96,0.521,31,[],[],"[(1091, 875)]",[],[1],[34],[0.5666666666666667],"[640.0, 512.0]",vertical,"(390.0, 762.0)",[1.4833333333333334],[0.53],1,2624.827
2,False,97,0.633,37,[],[],"[(1078, 861)]",[],[1],[34],[0.5666666666666667],"[640.0, 512.0]",vertical,"(890.0, 762.0)",[0.9833333333333333],[0.525],1,2629.424
2,False,98,0.688,41,[],[],"[(1112, 863)]",[],[1],[46],[0.7666666666666666],"[640.0, 512.0]",vertical,"(890.0, 762.0)",[1.25],[0.719],1,2633.693
2,False,99,1.139,68,[],[],"[(1093, 885)]",[],[1],[36],[0.6],"[640.0, 512.0]",horizontal,"(390.0, 262.0)",[0.5666666666666667],[0.557],1,2638.424
2,False,100,0.515,30,[],[],"[(1081, 875)]",[],[1],[38],[0.6333333333333333],"[640.0, 512.0]",vertical,"(390.0, 762.0)",[1.7],[0.596],1,2643.411
2,False,101,1.193,71,[],[],"[(1063, 871)]",[],[1],[32],[0.5333333333333333],"[640.0, 512.0]",vertical,"(390.0, 762.0)",[1.25],[0.491],1,2648.318
2,False,102,1.036,62,[],[],"[(1117, 857)]",[],[1],[35],[0.5833333333333334],"[640.0, 512.0]",horizontal,"(390.0, 262.0)",[1.4],[0.543],1,2653.38
2,False,103,0.578,34,[],[],"[(1087, 866)]",[],[1],[36],[0.6],"[640.0, 512.0]",horizontal,"(390.0, 262.0)",[0.95],[0.557],1,2658.33
2,False,104,0.797,47,[],[],"[(1099, 864)]",[],[1],[32],[0.5333333333333333],"[640.0, 512.0]",horizontal,"(390.0, 762.0)",[1.3],[0.495],1,2662.365
2,False,105,1.176,70,[],[],"[(1086, 859)]",[],[1],[34],[0.5666666666666667],"[640.0, 512.0]",horizontal,"(890.0, 262.0)",[1.5666666666666667],[0.526],1,2666.93
2,False,106,0.862,51,[],[],"[(1129, 871)]",[],[1],[35],[0.5833333333333334],"[640.0, 512.0]",horizontal,"(890.0, 762.0)",[1.0333333333333332],[0.543],1,2672.243
2,False,107,1.035,62,[],[],"[(1086, 860)]",[],[1],[38],[0.6333333333333333],"[640.0, 512.0]",vertical,"(890.0, 762.0)",[1.0],[0.587],1,2676.706
2,False,108,0.998,59,[],[],"[(1087, 862)]",[],[1],[35],[0.5833333333333334],"[640.0, 512.0]",vertical,"(890.0, 762.0)",[0.8],[0.543],1,2681.331
2,False,109,0.693,41,[],[],"[(1136, 862)]",[],[1],[32],[0.5333333333333333],"[640.0, 512.0]",vertical,"(890.0, 262.0)",[1.4],[0.489],1,2685.729
2,False,110,0.596,35,[],[],"[(1093, 880)]",[],[1],[42],[0.7],"[640.0, 512.0]",vertical,"(390.0, 262.0)",[1.4333333333333333],[0.658],1,2690.36
2,False,111,1.076,64,[],[],"[(1076, 872)]",[],[1],[48],[0.8],"[640.0, 512.0]",horizontal,"(390.0, 262.0)",[0.5333333333333333],[0.757],1,2695.042
2,False,112,0.821,49,[],[],"[(1069, 885)]",[],[1],[37],[0.6166666666666667],"[640.0, 512.0]",horizontal,"(390.0, 762.0)",[1.25],[0.578],1,2712.431
2,False,113,0.788,47,[],[],"[(1116, 876)]",[],[1],[36],[0.6],"[640.0, 512.0]",horizontal,"(390.0, 762.0)",[0.7166666666666667],[0.559],1,2716.953
2,False,114,0.672,40,[],[],"[(1087, 879)]",[],[1],[34],[0.5666666666666667],"[640.0, 512.0]",vertical,"(890.0, 762.0)",[1.5],[0.527],1,2721.064
2,False,115,1.188,71,[],[],"[(1081, 860)]",[],[1],[35],[0.5833333333333334],"[640.0, 512.0]",vertical,"(890.0, 762.0)",[1.2833333333333332],[0.546],1,2725.733
2,False,116,1.18,70,[],[],"[(1093, 884)]",[],[1],[41],[0.6833333333333333],"[640.0, 512.0]",vertical,"(390.0, 262.0)",[0.8666666666666667],[0.637],1,2730.729
2,False,117,0.957,57,[],[],"[(1095, 875)]",[],[1],[35],[0.5833333333333334],"[640.0, 512.0]",vertical,"(890.0, 762.0)",[0.95],[0.538],1,2735.459
2,False,118,1.179,70,[],[],"[(1099, 865)]",[],[1],[41],[0.6833333333333333],"[640.0, 512.0]",horizontal,"(390.0, 262.0)",[0.9],[0.644],1,2740.531
2,False,119,0.597,35,[],[],"[(1078, 871)]",[],[1],[51],[0.85],"[640.0, 512.0]",vertical,"(390.0, 762.0)",[0.8666666666666667],[0.806],0,2745.296
2,False,120,0.649,38,[],[],"[(1142, 885)]",[],[1],[39],[0.65],"[640.0, 512.0]",vertical,"(390.0, 762.0)",[1.0333333333333332],[0.606],1,2749.663
3,False,121,0.656,39,[],[],"[(1093, 874)]",[],[1],[44],[0.7333333333333333],"[640.0, 512.0]",vertical,"(890.0, 762.0)",[1.4],[0.689],1,2754.03
3,False,122,0.524,31,[],[],"[(1093, 882)]",[],[1],[39],[0.65],"[640.0, 512.0]",vertical,"(890.0, 262.0)",[1.6833333333333333],[0.609],1,2758.928
3,False,123,1.176,70,[],[],"[(1086, 876)]",[],[1],[33],[0.55],"[640.0, 512.0]",horizontal,"(890.0, 262.0)",[1.1],[0.513],1,2763.816
3,False,124,1.104,66,[],[],"[(1136, 881)]",[],[1],[],[],"[640.0, 512.0]",horizontal,"(890.0, 762.0)",[],[0],0,2768.558
3,False,125,0.684,41,[],[],"[(1112, 862)]",[],[1],[33],[0.55],"[640.0, 512.0]",vertical,"(390.0, 262.0)",[1.6],[0.509],1,2774.083
3,False,126,1.03,61,[],[],"[(1080, 886)]",[],[1],[34],[0.5666666666666667],"[640.0, 512.0]",vertical,"(890.0, 262.0)",[0.5833333333333334],[0.525],1,2786.965
3,False,127,1.129,67,[],[],"[(1032, 883)]",[],[1],[35],[0.5833333333333334],"[640.0, 512.0]",horizontal,"(390.0, 762.0)",[1.6],[0.54],1,2791.149
3,False,128,1.145,68,[],[],"[(1044, 882)]",[],[1],[32],[0.5333333333333333],"[640.0, 512.0]",vertical,"(390.0, 262.0)",[0.5],[0.494],1,2796.433
3,False,129,0.906,54,[],[],"[(1087, 861)]",[],[1],[39],[0.65],"[640.0, 512.0]",horizontal,"(390.0, 262.0)",[1.0166666666666666],[0.614],1,2800.717
3,False,130,0.633,37,[],[],"[(1178, 887)]",[],[1],[34],[0.5666666666666667],"[640.0, 512.0]",vertical,"(390.0, 762.0)",[1.6166666666666667],[0.523],1,2805.32
3,False,131,0.668,40,[],[],"[(1104, 854)]",[],[1],[36],[0.6],"[640.0, 512.0]",vertical,"(890.0, 762.0)",[0.8166666666666667],[0.559],1,6789.94
3,False,132,1.022,61,[],[],"[(1107, 873)]",[],[1],[34],[0.5666666666666667],"[640.0, 512.0]",horizontal,"(890.0, 262.0)",[1.0166666666666666],[0.522],1,6794.161
3,False,133,0.832,49,[],[],"[(1090, 883)]",[],[1],[35],[0.5833333333333334],"[640.0, 512.0]",horizontal,"(890.0, 762.0)",[0.6],[0.539],1,6798.887
3,False,134,0.8,48,[],[],"[(1080, 853)]",[],[1],[33],[0.55],"[640.0, 512.0]",vertical,"(390.0, 262.0)",[1.6],[0.51],1,6802.944
3,False,135,0.714,42,[],[],"[(1135, 908)]",[],[1],[42],[0.7],"[640.0, 512.0]",horizontal,"(390.0, 762.0)",[0.9],[0.652],1,6807.941
3,False,136,0.98,58,[],[],"[(1128, 875)]",[],[1],[35],[0.5833333333333334],"[640.0, 512.0]",vertical,"(390.0, 762.0)",[1.05],[0.539],1,6812.372
3,False,137,1.039,62,[],[],"[(1038, 854)]",[],[1],[33],[0.55],"[640.0, 512.0]",vertical,"(890.0, 262.0)",[0.5666666666666667],[0.509],1,6816.86
3,False,138,0.628,37,[],[],"[(1093, 845)]",[],[1],[33],[0.55],"[640.0, 512.0]",vertical,"(890.0, 262.0)",[1.3833333333333333],[0.51],1,6823.253
3,False,139,0.823,49,[],[],"[(1136, 885)]",[],[1],[42],[0.7],"[640.0, 512.0]",horizontal,"(390.0, 762.0)",[0.9666666666666667],[0.651],1,6827.822
3,False,140,1.104,66,[],[],"[(1101, 861)]",[],[1],[37],[0.6166666666666667],"[640.0, 512.0]",vertical,"(890.0, 762.0)",[0.75],[0.569],1,6832.857
3,False,141,0.725,43,[],[],"[(1079, 834)]",[],[1],[41],[0.6833333333333333],"[640.0, 512.0]",horizontal,"(390.0, 262.0)",[1.1833333333333333],[0.641],1,6837.327
3,False,142,1.017,61,[],[],"[(1106, 841)]",[],[1],[44],[0.7333333333333333],"[640.0, 512.0]",horizontal,"(890.0, 762.0)",[0.95],[0.689],1,6841.894
3,False,143,0.833,49,[],[],"[(1047, 845)]",[],[1],[36],[0.6],"[640.0, 512.0]",horizontal,"(390.0, 262.0)",[0.9166666666666666],[0.559],1,6846.576
3,False,144,1.145,68,[],[],"[(1026, 860), (1130, 875)]",[],"[0, 1]",[33],[0.55],"[640.0, 512.0]",vertical,"(890.0, 762.0)",[1.6833333333333333],[0.511],1,6850.847
3,False,145,0.782,46,[],[],"[(1085, 870)]",[],[1],[38],[0.6333333333333333],"[640.0, 512.0]",horizontal,"(890.0, 762.0)",[0.5833333333333334],[0.589],1,6858.173
3,False,146,0.981,58,[],[],"[(1093, 851)]",[],[1],[35],[0.5833333333333334],"[640.0, 512.0]",vertical,"(890.0, 762.0)",[1.65],[0.54],1,6862.329
3,False,147,1.169,70,[],[],"[(1099, 893)]",[],[1],[35],[0.5833333333333334],"[640.0, 512.0]",horizontal,"(890.0, 262.0)",[0.5833333333333334],[0.546],1,6867.832
3,False,148,0.758,45,[],[],"[(1097, 892)]",[],[1],[41],[0.6833333333333333],"[640.0, 512.0]",vertical,"(390.0, 262.0)",[0.9333333333333333],[0.639],1,6872.359
3,False,149,1.058,63,[],[],"[(1104, 876)]",[],[1],[33],[0.55],"[640.0, 512.0]",horizontal,"(890.0, 262.0)",[1.45],[0.512],1,6877.474
3,False,150,0.99,59,[],[],"[(1080, 864)]",[],[1],[34],[0.5666666666666667],"[640.0, 512.0]",vertical,"(890.0, 762.0)",[0.95],[0.519],1,6882.69
3,False,151,0.609,36,[],[],"[(1087, 877)]",[],[1],[34],[0.5666666666666667],"[640.0, 512.0]",vertical,"(890.0, 262.0)",[1.15],[0.529],1,6887.201
3,False,152,0.566,33,[],[],"[(1093, 882)]",[],[1],[36],[0.6],"[640.0, 512.0]",vertical,"(390.0, 262.0)",[1.2],[0.562],1,6891.649
3,False,153,1.028,61,[],[],"[(1131, 865)]",[],[1],[38],[0.6333333333333333],"[640.0, 512.0]",horizontal,"(890.0, 762.0)",[1.2833333333333332],[0.593],1,6896.028
3,False,154,1.001,60,[],[],"[(1118, 885)]",[],[1],[35],[0.5833333333333334],"[640.0, 512.0]",horizontal,"(890.0, 762.0)",[1.2],[0.543],1,6900.986
3,False,155,0.949,56,[],[],"[(1114, 861)]",[],[1],[35],[0.5833333333333334],"[640.0, 512.0]",vertical,"(890.0, 762.0)",[0.8166666666666667],[0.546],1,6905.654
3,False,156,1.07,64,[],[],"[(1098, 860)]",[],[1],[35],[0.5833333333333334],"[640.0, 512.0]",vertical,"(890.0, 262.0)",[1.4666666666666666],[0.548],1,6909.961
3,False,157,1.162,69,[],[],"[(1080, 862)]",[],[1],[34],[0.5666666666666667],"[640.0, 512.0]",vertical,"(390.0, 262.0)",[0.5666666666666667],[0.523],1,6915.099
3,False,158,0.747,44,[],[],"[(1105, 871)]",[],[1],[37],[0.6166666666666667],"[640.0, 512.0]",vertical,"(390.0, 262.0)",[0.8333333333333334],[0.574],1,6919.29
3,False,159,0.573,34,[],[],"[(1080, 882)]",[],[1],[33],[0.55],"[640.0, 512.0]",horizontal,"(390.0, 262.0)",[1.25],[0.507],1,6923.527
3,False,160,0.613,36,[],[],"[(1038, 890)]",[],[1],[36],[0.6],"[640.0, 512.0]",horizontal,"(390.0, 262.0)",[1.55],[0.56],1,6927.76
3,False,161,0.917,55,[],[],"[(1096, 875)]",[],[1],[43],[0.7166666666666667],"[640.0, 512.0]",vertical,"(390.0, 262.0)",[0.85],[0.668],1,6932.636
3,False,162,1.007,60,[],[],"[(1087, 863)]",[],[1],[35],[0.5833333333333334],"[640.0, 512.0]",vertical,"(890.0, 762.0)",[0.6666666666666666],[0.542],1,6937.323
3,False,163,0.574,34,[],[],"[(1099, 866)]",[],[1],[46],[0.7666666666666666],"[640.0, 512.0]",horizontal,"(390.0, 262.0)",[1.25],[0.719],1,6941.546
3,False,164,0.925,55,[],[],"[(1098, 862)]",[],[1],[29],[0.48333333333333334],"[640.0, 512.0]",vertical,"(390.0, 262.0)",[1.2166666666666666],[0.441],1,6946.222
3,False,165,1.13,67,[],[],"[(1087, 857)]",[],[1],[36],[0.6],"[640.0, 512.0]",horizontal,"(390.0, 262.0)",[0.8833333333333333],[0.561],1,6950.917
3,False,166,0.738,44,[],[],"[(1038, 866)]",[],[1],[33],[0.55],"[640.0, 512.0]",vertical,"(890.0, 262.0)",[0.8333333333333334],[0.518],1,6957.606
3,False,167,1.008,60,[],[],"[(1136, 879)]",[],[1],[35],[0.5833333333333334],"[640.0, 512.0]",vertical,"(390.0, 762.0)",[1.6333333333333333],[0.54],1,6964.574
3,False,168,1.144,68,[],[],"[(1093, 882)]",[],[1],[34],[0.5666666666666667],"[640.0, 512.0]",horizontal,"(890.0, 262.0)",[1.1833333333333333],[0.523],1,6969.785
3,False,169,1.149,68,[],[],"[(1136, 869)]",[],[1],[38],[0.6333333333333333],"[640.0, 512.0]",vertical,"(390.0, 262.0)",[1.15],[0.597],1,6974.666
3,False,170,1.117,67,[],[],"[(1080, 865)]",[],[1],[36],[0.6],"[640.0, 512.0]",horizontal,"(390.0, 262.0)",[1.6833333333333333],[0.556],1,6979.621
3,False,171,0.932,55,[],[],"[(1087, 892)]",[],[1],[38],[0.6333333333333333],"[640.0, 512.0]",horizontal,"(390.0, 762.0)",[1.5666666666666667],[0.59],1,6985.157
3,False,172,0.689,41,[],[],"[(1099, 857)]",[],[1],[37],[0.6166666666666667],"[640.0, 512.0]",horizontal,"(390.0, 262.0)",[1.6],[0.577],1,6990.436
3,False,173,0.581,34,[],[],"[(1142, 875)]",[],[1],[36],[0.6],"[640.0, 512.0]",vertical,"(390.0, 762.0)",[0.5166666666666666],[0.559],1,6995.321
3,False,174,0.516,30,[],[],"[(1056, 813)]",[],[1],[38],[0.6333333333333333],"[640.0, 512.0]",vertical,"(890.0, 262.0)",[0.95],[0.589],1,7066.344
3,False,175,0.88,52,[],[],"[(1081, 846)]",[],[1],[37],[0.6166666666666667],"[640.0, 512.0]",vertical,"(390.0, 262.0)",[0.8333333333333334],[0.576],1,7070.494
3,False,176,0.744,44,[],[],"[(1084, 867)]",[],[1],[40],[0.6666666666666666],"[640.0, 512.0]",vertical,"(390.0, 262.0)",[0.5833333333333334],[0.624],1,7075.221
3,False,177,0.895,53,[],[],"[(1087, 888)]",[],[1],[37],[0.6166666666666667],"[640.0, 512.0]",vertical,"(890.0, 762.0)",[0.75],[0.575],1,7079.36
3,False,178,0.764,45,[],[],"[(1115, 880)]",[],[1],[35],[0.5833333333333334],"[640.0, 512.0]",vertical,"(390.0, 762.0)",[0.5666666666666667],[0.545],1,7084.196
3,False,179,0.764,45,[],[],"[(1147, 880)]",[],[1],[45],[0.75],"[640.0, 512.0]",vertical,"(390.0, 262.0)",[0.9333333333333333],[0.707],1,7088.225
3,False,180,0.958,57,[],[],"[(1093, 857)]",[],[1],[35],[0.5833333333333334],"[640.0, 512.0]",vertical,"(890.0, 262.0)",[0.9666666666666667],[0.542],1,7092.656
4,False,181,0.514,30,[],[],"[(1095, 876)]",[],[1],[33],[0.55],"[640.0, 512.0]",vertical,"(390.0, 262.0)",[1.5333333333333332],[0.512],1,7097.277
4,False,182,1.171,70,[],[],"[(1105, 853)]",[],[1],[51],[0.85],"[640.0, 512.0]",horizontal,"(390.0, 262.0)",[0.6166666666666667],[0.808],0,7102.275
4,False,183,0.884,53,[],[],"[(1058, 862)]",[],[1],[39],[0.65],"[640.0, 512.0]",horizontal,"(390.0, 762.0)",[0.6333333333333333],[0.607],1,7106.936
4,False,184,0.585,35,[],[],"[(1053, 872)]",[],[1],[36],[0.6],"[640.0, 512.0]",horizontal,"(890.0, 762.0)",[1.5],[0.555],1,7111.105
4,False,185,0.688,41,[],[],"[(1098, 880)]",[],[1],[51],[0.85],"[640.0, 512.0]",horizontal,"(890.0, 262.0)",[0.6166666666666667],[0.809],0,7115.871
4,False,186,0.555,33,[],[],"[(1150, 863)]",[],[1],[36],[0.6],"[640.0, 512.0]",horizontal,"(390.0, 762.0)",[0.9666666666666667],[0.558],1,7120.211
4,False,187,0.519,31,[],[],"[(1087, 907)]",[],[1],[39],[0.65],"[640.0, 512.0]",vertical,"(890.0, 762.0)",[0.8666666666666667],[0.616],1,7124.303
4,False,188,0.606,36,[],[],"[(1087, 890)]",[],[1],[32],[0.5333333333333333],"[640.0, 512.0]",horizontal,"(890.0, 262.0)",[1.6166666666666667],[0.495],1,7128.354
4,False,189,1.063,63,[],[],"[(1147, 862)]",[],[1],[36],[0.6],"[640.0, 512.0]",vertical,"(390.0, 762.0)",[1.5833333333333333],[0.559],1,7133.266
4,False,190,1.187,71,[],[],"[(1105, 872)]",[],[1],[34],[0.5666666666666667],"[640.0, 512.0]",vertical,"(890.0, 262.0)",[1.0166666666666666],[0.528],1,7138.485
4,False,191,1.107,66,[],[],"[(1099, 851)]",[],[1],[36],[0.6],"[640.0, 512.0]",vertical,"(390.0, 762.0)",[1.0],[0.567],1,7143.338
4,False,192,1.18,70,[],[],"[(1063, 865)]",[],[1],[36],[0.6],"[640.0, 512.0]",vertical,"(390.0, 262.0)",[1.3333333333333333],[0.556],1,7148.188
4,False,193,1.182,70,[],[],"[(1118, 906)]",[],[1],[33],[0.55],"[640.0, 512.0]",vertical,"(390.0, 262.0)",[1.4833333333333334],[0.506],1,7153.477
4,False,194,0.867,52,[],[],"[(1153, 893)]",[],[1],[36],[0.6],"[640.0, 512.0]",vertical,"(390.0, 262.0)",[1.05],[0.562],1,7159.987
4,False,195,1.186,71,[],[],"[(1099, 873)]",[],[1],[35],[0.5833333333333334],"[640.0, 512.0]",vertical,"(890.0, 262.0)",[0.7166666666666667],[0.543],1,7164.377
4,False,196,0.969,58,[],[],"[(1090, 872)]",[],[1],[37],[0.6166666666666667],"[640.0, 512.0]",horizontal,"(390.0, 762.0)",[0.55],[0.576],1,7168.965
4,False,197,0.873,52,[],[],"[(1086, 900)]",[],[1],[41],[0.6833333333333333],"[640.0, 512.0]",vertical,"(890.0, 762.0)",[1.1333333333333333],[0.642],1,7173.237
4,False,198,0.845,50,[],[],"[(1103, 864)]",[],[1],[37],[0.6166666666666667],"[640.0, 512.0]",vertical,"(390.0, 762.0)",[0.6],[0.572],1,7177.893
4,False,199,0.964,57,[],[],"[(1136, 867)]",[],[1],[35],[0.5833333333333334],"[640.0, 512.0]",horizontal,"(890.0, 762.0)",[0.6666666666666666],[0.542],1,7181.837
4,False,200,0.732,43,[],[],"[(1119, 881)]",[],[1],[33],[0.55],"[640.0, 512.0]",horizontal,"(890.0, 262.0)",[0.9166666666666666],[0.513],1,7186.166
4,False,201,1.051,63,[],[],"[(1128, 881)]",[],[1],[32],[0.5333333333333333],"[640.0, 512.0]",vertical,"(390.0, 262.0)",[1.4],[0.493],1,7190.411
4,False,202,0.506,30,[],[],"[(1131, 887)]",[],[1],[36],[0.6],"[640.0, 512.0]",vertical,"(390.0, 262.0)",[1.5],[0.555],1,7197.293
4,False,203,0.712,42,[],[],"[(1152, 867)]",[],[1],[42],[0.7],"[640.0, 512.0]",vertical,"(890.0, 262.0)",[1.1333333333333333],[0.666],1,7201.824
4,False,204,1.108,66,[],[],"[(1122, 857)]",[],[1],[39],[0.65],"[640.0, 512.0]",horizontal,"(890.0, 762.0)",[1.2666666666666666],[0.607],1,7206.488
4,False,205,0.803,48,[],[],"[(1092, 851)]",[],[1],[47],[0.7833333333333333],"[640.0, 512.0]",vertical,"(390.0, 262.0)",[1.4166666666666667],[0.738],1,7211.496
4,False,206,0.794,47,[],[],"[(1099, 854)]",[],[1],[51],[0.85],"[640.0, 512.0]",horizontal,"(890.0, 262.0)",[0.5],[0.797],0,7216.691
4,False,207,0.997,59,[],[],"[(1152, 870)]",[],[1],[36],[0.6],"[640.0, 512.0]",vertical,"(890.0, 262.0)",[1.4],[0.558],1,7221.037
4,False,208,0.652,39,[],[],"[(1098, 865)]",[],[1],[37],[0.6166666666666667],"[640.0, 512.0]",vertical,"(390.0, 262.0)",[0.5833333333333334],[0.575],1,7226.047
4,False,209,1.022,61,[],[],"[(1142, 885)]",[],[1],[34],[0.5666666666666667],"[640.0, 512.0]",vertical,"(890.0, 262.0)",[1.4833333333333334],[0.537],1,7230.088
4,False,210,0.646,38,[],[],"[(1080, 877)]",[],[1],[36],[0.6],"[640.0, 512.0]",vertical,"(890.0, 762.0)",[0.9333333333333333],[0.558],1,7235.22
4,False,211,1.022,61,[],[],"[(1068, 875)]",[],[1],[40],[0.6666666666666666],"[640.0, 512.0]",horizontal,"(890.0, 762.0)",[1.2166666666666666],[0.619],1,7239.518
4,False,212,1.162,69,[],[],"[(1123, 889)]",[],[1],[36],[0.6],"[640.0, 512.0]",horizontal,"(390.0, 262.0)",[0.95],[0.558],1,7245.932
4,False,213,0.56,33,[],[],"[(1098, 873)]",[],[1],[40],[0.6666666666666666],"[640.0, 512.0]",horizontal,"(890.0, 762.0)",[1.5333333333333332],[0.625],1,7250.723
4,False,214,0.604,36,[],[],"[(1100, 889)]",[],[1],[40],[0.6666666666666666],"[640.0, 512.0]",vertical,"(890.0, 262.0)",[0.9],[0.621],1,7255.643
4,False,215,1.183,70,[],[],"[(1103, 886)]",[],[1],[38],[0.6333333333333333],"[640.0, 512.0]",horizontal,"(390.0, 762.0)",[0.8],[0.603],1,7259.932
4,False,216,1.083,64,[],[],"[(1099, 875)]",[],[1],[35],[0.5833333333333334],"[640.0, 512.0]",vertical,"(890.0, 262.0)",[0.5333333333333333],[0.54],1,7264.677
4,False,217,0.615,36,[],[],"[(1092, 880)]",[],[1],[45],[0.75],"[640.0, 512.0]",vertical,"(390.0, 762.0)",[0.6],[0.702],1,7269.093
4,False,218,1.057,63,[],[],"[(1117, 889)]",[],[1],[35],[0.5833333333333334],"[640.0, 512.0]",vertical,"(390.0, 762.0)",[0.6],[0.549],1,7273.032
4,False,219,0.964,57,[],[],"[(1107, 889)]",[],[1],[35],[0.5833333333333334],"[640.0, 512.0]",horizontal,"(390.0, 262.0)",[0.7],[0.543],1,7277.371
4,False,220,0.573,34,[],[],"[(1099, 879)]",[],[1],[38],[0.6333333333333333],"[640.0, 512.0]",vertical,"(890.0, 762.0)",[0.55],[0.587],1,7281.62
4,False,221,1.035,62,[],[],"[(1118, 859)]",[],[1],[41],[0.6833333333333333],"[640.0, 512.0]",vertical,"(390.0, 762.0)",[1.0333333333333332],[0.634],1,7285.46
4,False,222,1.184,71,[],[],"[(1155, 889)]",[],[1],[51],[0.85],"[640.0, 512.0]",horizontal,"(390.0, 262.0)",[0.8333333333333334],[0.8],0,7291.013
4,False,223,0.516,30,[],[],"[(1153, 900)]",[],[1],[33],[0.55],"[640.0, 512.0]",horizontal,"(890.0, 762.0)",[1.0333333333333332],[0.504],1,8787.33
4,False,224,1.137,68,[],[],"[(1136, 872)]",[],[1],[51],[0.85],"[640.0, 512.0]",vertical,"(390.0, 762.0)",[0.7166666666666667],[0.802],0,8809.378
4,False,225,0.529,31,[],[],"[(1153, 889)]",[],[1],[51],[0.85],"[640.0, 512.0]",vertical,"(390.0, 262.0)",[1.1666666666666667],[0.801],0,8814.326
4,False,226,0.576,34,[],[],"[(1159, 901)]",[],[1],[51],[0.85],"[640.0, 512.0]",vertical,"(390.0, 762.0)",[1.6833333333333333],[0.806],0,8818.98
4,False,227,0.785,47,[],[],"[(1141, 856)]",[],[1],[30],[0.5],"[640.0, 512.0]",vertical,"(890.0, 262.0)",[1.5],[0.462],1,8824.327
4,False,228,0.732,43,[],[],"[(1123, 881)]",[],[1],[35],[0.5833333333333334],"[640.0, 512.0]",vertical,"(390.0, 262.0)",[1.6333333333333333],[0.542],1,8829.151
4,False,229,0.847,50,[],[],"[(1082, 873)]",[],[1],[32],[0.5333333333333333],"[640.0, 512.0]",vertical,"(890.0, 262.0)",[1.3166666666666667],[0.493],1,8834.095
4,False,230,0.566,33,[],[],"[(1110, 886)]",[],[1],[38],[0.6333333333333333],"[640.0, 512.0]",horizontal,"(390.0, 262.0)",[1.5833333333333333],[0.587],1,8838.809
4,False,231,0.982,58,[],[],"[(1115, 885)]",[],[1],[34],[0.5666666666666667],"[640.0, 512.0]",horizontal,"(890.0, 262.0)",[1.5833333333333333],[0.531],1,8843.61
4,False,232,0.912,54,[],[],"[(1094, 880)]",[],[1],[31],[0.5166666666666666],"[640.0, 512.0]",horizontal,"(890.0, 262.0)",[0.6833333333333333],[0.476],1,8849.523
4,False,233,0.66,39,[],[],"[(1093, 872)]",[],[1],[33],[0.55],"[640.0, 512.0]",vertical,"(890.0, 762.0)",[0.6333333333333333],[0.511],1,8853.478
4,False,234,1.189,71,[],[],"[(1118, 891)]",[],[1],[32],[0.5333333333333333],"[640.0, 512.0]",vertical,"(890.0, 262.0)",[1.3666666666666667],[0.488],1,8857.473
4,False,235,0.729,43,[],[],"[(1034, 866)]",[],[1],[36],[0.6],"[640.0, 512.0]",horizontal,"(890.0, 762.0)",[1.6],[0.558],1,8862.481
4,False,236,0.578,34,[],[],"[(1105, 877)]",[],[1],[33],[0.55],"[640.0, 512.0]",horizontal,"(390.0, 262.0)",[1.4666666666666666],[0.51],1,8868.731
4,False,237,0.982,58,[],[],"[(1079, 863)]",[],[1],[39],[0.65],"[640.0, 512.0]",horizontal,"(390.0, 262.0)",[0.9],[0.612],1,8874.015
4,False,238,1.181,70,[],[],"[(1031, 872)]",[],[1],[40],[0.6666666666666666],"[640.0, 512.0]",vertical,"(390.0, 762.0)",[0.75],[0.622],1,8878.853
4,False,239,1.027,61,[],[],"[(1101, 858)]",[],[1],[36],[0.6],"[640.0, 512.0]",vertical,"(890.0, 762.0)",[1.6666666666666667],[0.56],1,8883.392
4,False,240,0.562,33,[],[],"[(1074, 855)]",[],[1],[51],[0.85],"[640.0, 512.0]",horizontal,"(890.0, 262.0)",[0.7333333333333333],[0.804],0,8888.698
5,False,241,0.978,58,[],[],"[(1122, 889)]",[],[1],[33],[0.55],"[640.0, 512.0]",vertical,"(890.0, 262.0)",[1.4666666666666666],[0.508],1,8892.977
5,False,242,0.772,46,[],[],"[(1076, 879)]",[],[1],[39],[0.65],"[640.0, 512.0]",vertical,"(390.0, 762.0)",[1.4833333333333334],[0.613],1,8910.516
5,False,243,0.614,36,[],[],"[(1099, 861)]",[],[1],[34],[0.5666666666666667],"[640.0, 512.0]",vertical,"(390.0, 262.0)",[0.9833333333333333],[0.527],1,8915.532
5,False,244,0.616,36,[],[],"[(1069, 904)]",[],[1],[34],[0.5666666666666667],"[640.0, 512.0]",vertical,"(390.0, 762.0)",[1.4666666666666666],[0.518],1,8919.774
5,False,245,0.706,42,[],[],"[(1080, 873)]",[],[1],[34],[0.5666666666666667],"[640.0, 512.0]",vertical,"(390.0, 262.0)",[0.85],[0.526],1,8924.432
5,False,246,0.906,54,[],[],"[(1093, 869)]",[],[1],[34],[0.5666666666666667],"[640.0, 512.0]",vertical,"(390.0, 762.0)",[0.8166666666666667],[0.524],1,8928.627
5,False,247,0.818,49,[],[],"[(1093, 883)]",[],[1],[45],[0.75],"[640.0, 512.0]",vertical,"(390.0, 762.0)",[1.5666666666666667],[0.708],1,8932.932
5,False,248,0.851,51,[],[],"[(1113, 880)]",[],[1],[38],[0.6333333333333333],"[640.0, 512.0]",vertical,"(890.0, 762.0)",[0.7333333333333333],[0.592],1,8938.11
5,False,249,0.622,37,[],[],"[(1118, 885)]",[],[1],[36],[0.6],"[640.0, 512.0]",horizontal,"(390.0, 262.0)",[1.65],[0.565],1,8942.283
5,False,250,0.936,56,[],[],"[(1080, 886)]",[],[1],[43],[0.7166666666666667],"[640.0, 512.0]",vertical,"(890.0, 262.0)",[0.7666666666666666],[0.667],1,8947.092
5,False,251,0.703,42,[],[],"[(1118, 875)]",[],[1],[35],[0.5833333333333334],"[640.0, 512.0]",horizontal,"(390.0, 262.0)",[1.5],[0.534],1,8951.406
5,False,252,0.877,52,[],[],"[(1074, 872)]",[],[1],[35],[0.5833333333333334],"[640.0, 512.0]",vertical,"(890.0, 262.0)",[0.75],[0.543],1,8956.204
5,False,253,0.805,48,[],[],"[(1105, 870)]",[],[1],[35],[0.5833333333333334],"[640.0, 512.0]",horizontal,"(890.0, 762.0)",[0.6333333333333333],[0.54],1,8960.865
5,False,254,1.07,64,[],[],"[(1087, 885)]",[],[1],[45],[0.75],"[640.0, 512.0]",horizontal,"(890.0, 762.0)",[1.1166666666666667],[0.708],1,8964.903
5,False,255,0.777,46,[],[],"[(1135, 885)]",[],[1],[35],[0.5833333333333334],"[640.0, 512.0]",vertical,"(890.0, 262.0)",[1.1666666666666667],[0.556],1,8969.886
5,False,256,0.821,49,[],[],"[(1136, 861)]",[],[1],[47],[0.7833333333333333],"[640.0, 512.0]",vertical,"(390.0, 262.0)",[0.6666666666666666],[0.745],1,8974.443
5,False,257,0.985,59,[],[],"[(1105, 869)]",[],[1],[36],[0.6],"[640.0, 512.0]",horizontal,"(890.0, 762.0)",[1.15],[0.558],1,8978.861
5,False,258,0.693,41,[],[],"[(1113, 888)]",[],[1],[37],[0.6166666666666667],"[640.0, 512.0]",vertical,"(890.0, 762.0)",[0.6],[0.571],1,8983.802
5,False,259,1.164,69,[],[],"[(1080, 869)]",[],[1],[39],[0.65],"[640.0, 512.0]",vertical,"(390.0, 262.0)",[1.6],[0.606],1,8987.909
5,False,260,0.725,43,[],[],"[(1098, 862)]",[],[1],[35],[0.5833333333333334],"[640.0, 512.0]",vertical,"(890.0, 262.0)",[0.65],[0.543],1,8993.366
5,False,261,0.975,58,[],[],"[(1098, 855)]",[],[1],[33],[0.55],"[640.0, 512.0]",vertical,"(390.0, 762.0)",[1.55],[0.506],1,8997.333
5,False,262,1.199,71,[],[],"[(1104, 889)]",[],[1],[41],[0.6833333333333333],"[640.0, 512.0]",vertical,"(390.0, 262.0)",[0.7833333333333333],[0.645],1,9002.413
5,False,263,1.067,64,[],[],"[(1117, 862)]",[],[1],[51],[0.85],"[640.0, 512.0]",horizontal,"(890.0, 762.0)",[0.9333333333333333],[0.807],0,9007.141
5,False,264,1.003,60,[],[],"[(1110, 870)]",[],[1],[34],[0.5666666666666667],"[640.0, 512.0]",vertical,"(390.0, 762.0)",[0.7],[0.527],1,9012.052
5,False,265,1.017,61,[],[],"[(1125, 899)]",[],[1],[34],[0.5666666666666667],"[640.0, 512.0]",vertical,"(890.0, 762.0)",[1.5166666666666666],[0.526],1,9033.329
5,False,266,0.853,51,[],[],"[(1098, 861)]",[],[1],[34],[0.5666666666666667],"[640.0, 512.0]",horizontal,"(390.0, 762.0)",[1.15],[0.527],1,9038.366
5,False,267,1.022,61,[],[],"[(1118, 868)]",[],[1],[34],[0.5666666666666667],"[640.0, 512.0]",horizontal,"(890.0, 262.0)",[0.5666666666666667],[0.527],1,9043.093
5,False,268,0.567,34,[],[],"[(1122, 880)]",[],[1],[35],[0.5833333333333334],"[640.0, 512.0]",vertical,"(890.0, 762.0)",[1.6166666666666667],[0.54],1,9047.235
5,False,269,0.563,33,[],[],"[(1080, 885)]",[],[1],[],[],"[640.0, 512.0]",vertical,"(390.0, 262.0)",[],[0],0,9051.993
5,False,270,0.7,42,[],[],"[(1142, 893)]",[],[1],[51],[0.85],"[640.0, 512.0]",horizontal,"(890.0, 262.0)",[0.7333333333333333],[0.803],0,9055.396
5,False,271,1.034,62,[],[],"[(1141, 888)]",[],[1],[51],[0.85],"[640.0, 512.0]",horizontal,"(390.0, 762.0)",[1.2],[0.799],0,9161.346
5,False,272,0.642,38,[],[],"[(1132, 893)]",[],[1],[51],[0.85],"[640.0, 512.0]",horizontal,"(390.0, 762.0)",[1.0333333333333332],[0.8],0,9211.383
5,False,273,0.74,44,[],[],"[(1148, 888)]",[],[1],[],[],"[640.0, 512.0]",horizontal,"(890.0, 762.0)",[],[0],0,9233.561
5,False,274,1.164,69,[9265638],[9266274],"[(1151, 893), (1152, 893)]","[(1151, 895)]","[1, 1]",[21],[0.35],"[640.0, 512.0]",vertical,"(890.0, 262.0)",[],[0],0,9239.8
5,False,275,0.636,38,[],[],"[(124, 582), (1190, 889)]",[],"[0, 1]",[30],[0.5],"[640.0, 512.0]",vertical,"(390.0, 762.0)",[0.6],[0.465],1,9248.177
5,False,276,1.097,65,[],[],"[(1122, 859)]",[],[1],[22],[0.36666666666666664],"[640.0, 512.0]",vertical,"(890.0, 762.0)",[1.6666666666666667],[0.333],1,11475.371
5,False,277,0.667,40,[],[],"[(1117, 864)]",[],[1],[29],[0.48333333333333334],"[640.0, 512.0]",horizontal,"(890.0, 262.0)",[1.0166666666666666],[0.444],1,11480.519
5,False,278,0.861,51,[],[],"[(1125, 883)]",[],[1],[31],[0.5166666666666666],"[640.0, 512.0]",vertical,"(390.0, 262.0)",[1.2833333333333332],[0.474],1,11484.742
5,False,279,0.506,30,[],[],"[(1080, 868)]",[],[1],[],[],"[640.0, 512.0]",vertical,"(390.0, 762.0)",[],[0],0,11489.438
5,False,280,0.649,38,[],[],"[(1126, 870)]",[],[1],[51],[0.85],"[640.0, 512.0]",vertical,"(390.0, 262.0)",[1.0833333333333333],[0.806],0,11493.267
5,False,281,1.17,70,[],[],"[(1153, 862)]",[],[1],[27],[0.45],"[640.0, 512.0]",vertical,"(390.0, 262.0)",[1.25],[0.41],1,11498.037
5,False,282,0.581,34,[],[],"[(1126, 856)]",[],[1],[28],[0.4666666666666667],"[640.0, 512.0]",horizontal,"(390.0, 262.0)",[1.35],[0.434],1,11503.857
5,False,283,1.014,60,[],[],"[(1111, 856)]",[],[1],[31],[0.5166666666666666],"[640.0, 512.0]",vertical,"(890.0, 262.0)",[1.0666666666666667],[0.477],1,11508.287
5,False,284,0.975,58,[],[],"[(1157, 849)]",[],[1],[32],[0.5333333333333333],"[640.0, 512.0]",horizontal,"(390.0, 762.0)",[0.95],[0.489],1,11512.871
5,False,285,0.732,43,[],[],"[(1124, 881)]",[],[1],[36],[0.6],"[640.0, 512.0]",vertical,"(890.0, 762.0)",[0.5833333333333334],[0.556],1,11518.004
5,False,286,1.11,66,[],[],"[(1153, 849)]",[],[1],[20],[0.3333333333333333],"[640.0, 512.0]",horizontal,"(890.0, 762.0)",[0.9166666666666666],[0.296],1,11522.056
5,False,287,0.594,35,[],[],"[(1078, 858)]",[],[1],[34],[0.5666666666666667],"[640.0, 512.0]",vertical,"(390.0, 262.0)",[0.9],[0.525],1,11526.482
5,False,288,1.071,64,[],[],"[(1108, 876)]",[],[1],[38],[0.6333333333333333],"[640.0, 512.0]",horizontal,"(390.0, 762.0)",[0.7],[0.588],1,11530.634
5,False,289,1.153,69,[],[],"[(1115, 866)]",[],[1],[42],[0.7],"[640.0, 512.0]",horizontal,"(890.0, 262.0)",[1.4333333333333333],[0.666],1,11535.114
5,False,290,0.963,57,[],[],"[(1170, 881)]",[],[1],[17],[0.2833333333333333],"[640.0, 512.0]",vertical,"(890.0, 762.0)",[0.95],[0.248],1,11540.341
5,False,291,0.594,35,[],[],"[(1147, 876)]",[],[1],[30],[0.5],"[640.0, 512.0]",vertical,"(390.0, 762.0)",[1.1666666666666667],[0.46],1,11544.489
5,False,292,0.561,33,[],[],"[(1097, 869)]",[],[1],[36],[0.6],"[640.0, 512.0]",horizontal,"(890.0, 762.0)",[0.8333333333333334],[0.554],1,11548.891
5,False,293,1.167,70,[],[],"[(1148, 880)]",[],[1],[33],[0.55],"[640.0, 512.0]",horizontal,"(890.0, 262.0)",[1.0666666666666667],[0.504],1,11552.944
5,False,294,0.87,52,[],[],"[(1128, 889)]",[],[1],[34],[0.5666666666666667],"[640.0, 512.0]",vertical,"(890.0, 762.0)",[1.6166666666666667],[0.528],1,11557.856
5,False,295,1.089,65,[],[],"[(1095, 863)]",[],[1],[32],[0.5333333333333333],"[640.0, 512.0]",horizontal,"(890.0, 762.0)",[0.7166666666666667],[0.491],1,11562.851
5,False,296,1.024,61,[],[],"[(1123, 880)]",[],[1],[32],[0.5333333333333333],"[640.0, 512.0]",vertical,"(890.0, 262.0)",[1.5833333333333333],[0.491],1,11567.17
5,False,297,0.952,57,[],[],"[(1131, 880)]",[],[1],[34],[0.5666666666666667],"[640.0, 512.0]",horizontal,"(390.0, 262.0)",[0.6],[0.53],1,11572.353
5,False,298,1.075,64,[],[],"[(1107, 870)]",[],[1],[],[],"[640.0, 512.0]",horizontal,"(390.0, 262.0)",[],[0],0,11576.602
5,False,299,0.712,42,[],[],"[(1115, 863)]",[],[1],[34],[0.5666666666666667],"[640.0, 512.0]",vertical,"(390.0, 262.0)",[1.3],[0.53],1,11581.441
5,False,300,1.174,70,[],[],"[(1121, 863)]",[],[1],[32],[0.5333333333333333],"[640.0, 512.0]",vertical,"(390.0, 262.0)",[1.3333333333333333],[0.492],1,11586.402
6,False,301,0.965,57,[],[],"[(1099, 861)]",[],[1],[36],[0.6],"[640.0, 512.0]",horizontal,"(890.0, 262.0)",[1.2166666666666666],[0.554],1,11591.454
6,False,302,0.654,39,[],[],"[(1140, 862)]",[],[1],[42],[0.7],"[640.0, 512.0]",vertical,"(390.0, 262.0)",[0.55],[0.664],1,11596.185
6,False,303,0.971,58,[],[],"[(1104, 876)]",[],[1],[],[],"[640.0, 512.0]",vertical,"(390.0, 262.0)",[],[0],0,11599.996
6,False,304,1.145,68,[],[],"[(1094, 845)]",[],[1],[37],[0.6166666666666667],"[640.0, 512.0]",horizontal,"(890.0, 262.0)",[0.85],[0.575],1,11604.009
6,False,305,0.718,43,[],[],"[(1102, 865)]",[],[1],[32],[0.5333333333333333],"[640.0, 512.0]",horizontal,"(390.0, 762.0)",[0.5333333333333333],[0.49],1,11609.134
6,False,306,0.982,58,[],[],"[(1123, 880)]",[],[1],[44],[0.7333333333333333],"[640.0, 512.0]",vertical,"(890.0, 262.0)",[1.0],[0.684],1,11612.809
6,False,307,0.766,45,[],[],"[(1147, 880)]",[],[1],[31],[0.5166666666666666],"[640.0, 512.0]",horizontal,"(890.0, 762.0)",[1.3166666666666667],[0.482],1,11617.46
6,False,308,0.796,47,[],[],"[(1148, 861)]",[],[1],[33],[0.55],"[640.0, 512.0]",vertical,"(390.0, 762.0)",[0.95],[0.513],1,11621.979
6,False,309,0.735,44,[],[],"[(1101, 874)]",[],[1],[35],[0.5833333333333334],"[640.0, 512.0]",horizontal,"(390.0, 762.0)",[1.3333333333333333],[0.549],1,11626.169
6,False,310,0.818,49,[],[],"[(1108, 876)]",[],[1],[32],[0.5333333333333333],"[640.0, 512.0]",vertical,"(890.0, 262.0)",[0.95],[0.494],1,11630.666
6,False,311,0.958,57,[],[],"[(1087, 855)]",[],[1],[34],[0.5666666666666667],"[640.0, 512.0]",vertical,"(890.0, 262.0)",[1.5333333333333332],[0.522],1,11634.902
6,False,312,0.709,42,[],[],"[(1139, 875)]",[],[1],[33],[0.55],"[640.0, 512.0]",horizontal,"(390.0, 762.0)",[0.7666666666666666],[0.508],1,11639.833
6,False,313,0.864,51,[],[],"[(1087, 847)]",[],[1],[51],[0.85],"[640.0, 512.0]",vertical,"(390.0, 762.0)",[1.3333333333333333],[0.794],0,11643.867
6,False,314,0.896,53,[],[],"[(1102, 853)]",[],[1],[31],[0.5166666666666666],"[640.0, 512.0]",vertical,"(390.0, 262.0)",[1.5333333333333332],[0.477],1,11648.895
6,False,315,0.985,59,[],[],"[(1090, 880)]",[],[1],[35],[0.5833333333333334],"[640.0, 512.0]",vertical,"(390.0, 262.0)",[0.5166666666666666],[0.543],1,11664.138
6,False,316,0.979,58,[],[],"[(1102, 878)]",[],[1],[29],[0.48333333333333334],"[640.0, 512.0]",horizontal,"(390.0, 262.0)",[1.2833333333333332],[0.448],1,11668.25
6,False,317,0.556,33,[],[],"[(1093, 881)]",[],[1],[32],[0.5333333333333333],"[640.0, 512.0]",horizontal,"(890.0, 762.0)",[0.6666666666666666],[0.49],1,11672.916
6,False,318,1.009,60,[],[],"[(1100, 880)]",[],[1],[38],[0.6333333333333333],"[640.0, 512.0]",vertical,"(890.0, 262.0)",[0.5],[0.588],1,11676.64
6,False,319,0.674,40,[],[],"[(1125, 881)]",[],[1],[16],[0.26666666666666666],"[640.0, 512.0]",horizontal,"(390.0, 262.0)",[1.5333333333333332],[0.234],1,11680.818
6,False,320,1.054,63,[],[],"[(1105, 879)]",[],[1],[36],[0.6],"[640.0, 512.0]",vertical,"(390.0, 762.0)",[1.2166666666666666],[0.563],1,11685.151
6,False,321,1.167,70,[],[],"[(1119, 881)]",[],[1],[28],[0.4666666666666667],"[640.0, 512.0]",vertical,"(390.0, 262.0)",[1.25],[0.427],1,11689.996
6,False,322,0.875,52,[],[],"[(1104, 875)]",[],[1],[51],[0.85],"[640.0, 512.0]",vertical,"(390.0, 262.0)",[1.0333333333333332],[0.797],0,11694.718
6,False,323,0.51,30,[],[],"[(1195, 660), (1032, 830)]",[],"[0, 1]",[31],[0.5166666666666666],"[640.0, 512.0]",vertical,"(890.0, 262.0)",[0.5666666666666667],[0.481],1,11699.386
6,False,324,0.791,47,[],[],"[(1166, 881)]",[],[1],[51],[0.85],"[640.0, 512.0]",vertical,"(390.0, 762.0)",[0.95],[0.808],0,11795.147
6,False,325,1.062,63,[],[],"[(1165, 889)]",[],[1],[51],[0.85],"[640.0, 512.0]",horizontal,"(390.0, 762.0)",[0.6833333333333333],[0.801],0,11813.173
6,False,326,0.725,43,[],[],"[(1161, 888)]",[],[1],[51],[0.85],"[640.0, 512.0]",vertical,"(890.0, 762.0)",[1.0333333333333332],[0.799],0,11939.639
6,False,327,1.017,61,[],[],"[(1165, 868)]",[],[1],[36],[0.6],"[640.0, 512.0]",horizontal,"(890.0, 762.0)",[1.1],[0.562],1,11946.571
6,False,328,1.074,64,[],[],"[(1109, 877)]",[],[1],[35],[0.5833333333333334],"[640.0, 512.0]",horizontal,"(890.0, 262.0)",[1.6],[0.547],1,11951.123
6,False,329,0.8,48,[],[],"[(1097, 864)]",[],[1],[51],[0.85],"[640.0, 512.0]",vertical,"(890.0, 762.0)",[1.6666666666666667],[0.8],0,11956.272
6,False,330,0.847,50,[],[],"[(1146, 878)]",[],[1],"[51, 51]","[0.85, 0.85]","[640.0, 512.0]",vertical,"(890.0, 762.0)",[0.7166666666666667],"[0.801, 0.801]",0,11961.42
6,False,331,0.948,56,[],[],"[(1056, 880)]",[],[1],[51],[0.85],"[640.0, 512.0]",horizontal,"(390.0, 762.0)",[1.1166666666666667],[0.801],0,11971.872
6,False,332,0.897,53,[],[],"[(1209, 633), (1171, 881)]",[],"[0, 1]",[51],[0.85],"[640.0, 512.0]",vertical,"(390.0, 262.0)",[1.1],[0.794],0,11976.974
6,False,333,1.062,63,[],[],"[(969, 693), (1109, 659), (1068, 921)]",[],"[0, 0, 1]",[40],[0.6666666666666666],"[640.0, 512.0]",vertical,"(390.0, 262.0)",[0.7166666666666667],[0.625],1,11999.137
6,False,334,1.061,63,[],[],"[(1105, 844)]",[],[1],[45],[0.75],"[640.0, 512.0]",vertical,"(890.0, 262.0)",[0.8333333333333334],[0.706],1,12009.086
6,False,335,1.056,63,[],[],"[(1103, 863)]",[],[1],[],[],"[640.0, 512.0]",vertical,"(390.0, 262.0)",[],[0],0,12013.927
