block,trial,trial_type,taps_start_loc_during_fix,taps_end_loc_during_fix,taps_on_lever_during_fix,taps_on_lever_s_during_fix,bar_orientation,target_xy,cti,rt,acc,time,pulses,fa_rate_recent100,actual_invalid_type
0,1,valid,"[(1102, 815)]",[],[1],[0.43333333333333335],horizontal,"(390.0, 762.0)",0.4,0.391,1,0.386,1,0.0,same
0,2,catch,"[(1140, 845)]",[],[1],[],horizontal,"(390.0, 762.0)",1.7,nan,1,12.832,1,0.0,same
0,3,valid,"[(1121, 867)]",[],[1],[0.5666666666666667],horizontal,"(390.0, 762.0)",0.6166666666666667,0.525,1,18.387,1,0.0,same
0,4,valid,"[(1129, 817)]",[],[1],[0.5],horizontal,"(390.0, 762.0)",1.3833333333333333,0.456,1,26.248,2,0.0,same
0,5,catch,"[(1175, 824)]",[],[1],[],horizontal,"(390.0, 262.0)",1.7,nan,1,32.297,2,0.0,same
0,6,valid,"[(1160, 790)]",[],[1],[0.7166666666666667],horizontal,"(890.0, 762.0)",0.7666666666666666,0.673,1,37.798,2,0.0,same
0,7,catch,"[(1160, 803)]",[],[1],[],vertical,"(390.0, 262.0)",1.7,nan,1,42.931,3,0.0,same
0,8,catch,"[(1166, 805)]",[],[1],[],vertical,"(890.0, 262.0)",,"('cti', 1.378),nan",0,48.931,0,0.125,same
0,9,valid,"[(1157, 822)]",[],[1],[0.5333333333333333],vertical,"(890.0, 762.0)",1.1833333333333333,0.492,1,53.682,1,0.1111111111111111,same
0,10,invalid_same_bar,"[(1173, 799)]",[],[1],[0.5],vertical,"(890.0, 762.0)",0.7166666666666667,0.457,1,59.135,1,0.1,same
0,11,catch,"[(1176, 794)]",[],[1],[],vertical,"(890.0, 762.0)",,"('cti', 1.099),nan",0,64.277,0,0.18181818181818182,same
0,12,catch,"[(1176, 806)]",[],[1],[0.03333333333333333],vertical,"(390.0, 762.0)",1.7,"0.02,nan",0,68.547,0,0.25,same
0,13,valid,"[(1186, 802)]",[],[1],[0.7833333333333333],vertical,"(890.0, 762.0)",0.95,0.734,1,73.432,1,0.23076923076923078,same
0,14,valid,"[(1179, 815)]",[],[1],[0.85],vertical,"(390.0, 762.0)",0.8666666666666667,nan,0,78.682,0,0.21428571428571427,same
0,15,valid,"[(1131, 819)]",[],[1],[0.5333333333333333],horizontal,"(390.0, 262.0)",1.3666666666666667,0.501,1,83.133,1,0.2,same
0,16,catch,"[(1142, 789)]",[],[1],[],horizontal,"(890.0, 262.0)",1.7,nan,1,88.357,1,0.1875,same
0,17,valid,"[(1180, 807)]",[],[1],[0.75],vertical,"(390.0, 762.0)",1.0666666666666667,0.706,1,93.876,1,0.17647058823529413,same
0,18,valid,"[(1178, 806)]",[],[1],[0.5833333333333334],horizontal,"(890.0, 762.0)",0.9833333333333333,0.543,1,99.25,2,0.16666666666666666,same
0,19,catch,"[(1174, 796)]",[],[1],[],horizontal,"(890.0, 762.0)",1.7,nan,1,104.946,2,0.15789473684210525,same
0,20,valid,"[(1161, 802)]",[],[1],[0.55],horizontal,"(390.0, 762.0)",0.8,0.509,1,110.448,2,0.15,same
0,21,catch,"[(1160, 796)]",[],[1],[],vertical,"(890.0, 762.0)",1.7,nan,1,116.165,3,0.14285714285714285,same
0,22,catch,"[(1158, 778)]",[],[1],[],vertical,"(390.0, 762.0)",1.7,nan,1,122.582,3,0.13636363636363635,same
0,23,catch,"[(1160, 792)]",[],[1],[],vertical,"(390.0, 762.0)",,"('cti', 1.584),nan",0,128.493,0,0.17391304347826086,same
0,24,valid,"[(1161, 791)]",[],[1],[0.55],horizontal,"(390.0, 262.0)",1.1166666666666667,0.51,1,133.319,1,0.16666666666666666,same
0,25,valid,"[(1157, 782)]",[],[1],[0.85],horizontal,"(890.0, 762.0)",0.5833333333333334,nan,0,138.819,0,0.16,same
0,26,valid,"[(1142, 792)]",[],[1],[0.6833333333333333],vertical,"(390.0, 262.0)",1.15,0.645,1,143.014,1,0.15384615384615385,same
0,27,valid,"[(1170, 812)]",[],[1],[0.6],horizontal,"(390.0, 762.0)",1.2166666666666666,0.561,1,148.281,1,0.14814814814814814,same
0,28,valid,"[(1125, 787)]",[],[1],[0.8],vertical,"(390.0, 262.0)",0.9666666666666667,0.757,1,153.489,1,0.14285714285714285,same
0,29,valid,"[(1156, 775)]",[],[1],[0.5333333333333333],vertical,"(890.0, 762.0)",0.95,0.49,1,158.403,2,0.13793103448275862,same
0,30,valid,"[(1172, 801)]",[],[1],[0.5],vertical,"(390.0, 262.0)",0.95,0.467,1,163.378,2,0.13333333333333333,same
0,31,valid,"[(1168, 788)]",[],[1],[0.55],horizontal,"(390.0, 262.0)",0.5166666666666666,0.509,1,168.565,2,0.12903225806451613,same
0,32,valid,"[(1161, 795)]",[],[1],[0.5833333333333334],vertical,"(390.0, 262.0)",0.6666666666666666,0.539,1,173.466,3,0.125,same
0,33,valid,"[(1166, 811)]",[],[1],[0.55],vertical,"(390.0, 762.0)",0.7666666666666666,0.505,1,179.021,3,0.12121212121212122,same
0,34,valid,"[(1163, 793)]",[],[1],[0.5166666666666666],vertical,"(890.0, 762.0)",0.8,0.477,1,184.298,3,0.11764705882352941,same
0,35,valid,"[(1158, 773)]",[],[1],[0.7666666666666666],horizontal,"(890.0, 262.0)",0.8666666666666667,0.731,1,190.165,3,0.11428571428571428,same
0,36,valid,"[(1160, 795)]",[],[1],[0.5333333333333333],vertical,"(390.0, 262.0)",0.8666666666666667,0.494,1,196.266,3,0.1111111111111111,same
0,37,valid,"[(1161, 806)]",[],[1],[0.5166666666666666],vertical,"(890.0, 762.0)",0.4166666666666667,0.478,1,201.823,3,0.10810810810810811,same
0,38,catch,"[(1160, 811)]",[],[1],[],vertical,"(890.0, 762.0)",1.7,nan,1,206.906,3,0.10526315789473684,same
0,39,valid,"[(1161, 794)]",[],[1],[0.75],horizontal,"(890.0, 262.0)",0.85,0.713,1,213.043,3,0.10256410256410256,same
0,40,valid,"[(1163, 791)]",[],[1],[0.7333333333333333],horizontal,"(890.0, 762.0)",1.2833333333333332,0.688,1,218.965,3,0.1,same
0,41,invalid_same_bar,"[(1160, 809)]",[],[1],[0.6333333333333333],horizontal,"(890.0, 262.0)",0.7333333333333333,0.596,1,225.02,3,0.0975609756097561,same
0,42,valid,"[(1161, 791)]",[],[1],[0.5333333333333333],vertical,"(390.0, 762.0)",0.7833333333333333,0.501,1,230.425,3,0.09523809523809523,same
0,43,catch,"[(1174, 806)]",[],[1],[],horizontal,"(390.0, 262.0)",1.7,nan,1,236.134,3,0.09302325581395349,same
0,44,valid,"[(1157, 792)]",[],[1],[0.5166666666666666],horizontal,"(890.0, 762.0)",1.4,0.478,1,242.299,3,0.09090909090909091,same
0,45,valid,"[(1147, 782)]",[],[1],[0.6],horizontal,"(890.0, 762.0)",1.0333333333333332,0.559,1,248.65,3,0.08888888888888889,same
0,46,valid,"[(1160, 786)]",[],[1],[0.7166666666666667],horizontal,"(890.0, 262.0)",1.0,0.68,1,254.283,3,0.08695652173913043,same
0,47,valid,"[(1159, 806)]",[],[1],[0.4166666666666667],horizontal,"(390.0, 762.0)",1.5166666666666666,0.381,1,260.037,3,0.0851063829787234,same
0,48,catch,"[(1160, 806)]",[],[1],[],vertical,"(890.0, 762.0)",1.7,nan,1,265.986,3,0.08333333333333333,same
0,49,valid,"[(1160, 786)]",[],[1],[0.5166666666666666],horizontal,"(390.0, 262.0)",0.6,0.474,1,272.165,3,0.08163265306122448,same
0,50,valid,"[(1161, 805)]",[],[1],[0.55],vertical,"(890.0, 762.0)",1.4333333333333333,0.51,1,277.4,3,0.08,same
0,51,valid,"[(1158, 789)]",[],[1],[0.6],horizontal,"(390.0, 762.0)",0.4166666666666667,0.558,1,283.315,3,0.08,same
0,52,valid,"[(1162, 797)]",[],[1],[0.5833333333333334],vertical,"(390.0, 262.0)",0.4166666666666667,0.552,1,288.761,3,0.08,same
0,53,valid,"[(1145, 781)]",[],[1],[0.4166666666666667],horizontal,"(390.0, 762.0)",1.3833333333333333,0.381,1,293.983,3,0.08,same
0,54,valid,"[(1161, 794)]",[],[1],[0.5333333333333333],horizontal,"(390.0, 762.0)",0.7833333333333333,0.497,1,299.956,3,0.08,same
0,55,valid,"[(1155, 790)]",[],[1],[0.3333333333333333],horizontal,"(890.0, 762.0)",1.5333333333333332,0.295,1,305.891,3,0.08,same
0,56,valid,"[(1144, 774)]",[],[1],[0.5],vertical,"(390.0, 262.0)",1.0666666666666667,0.459,1,311.598,3,0.08,same
0,57,valid,"[(1177, 801)]",[],[1],[0.31666666666666665],horizontal,"(890.0, 762.0)",1.3833333333333333,0.281,1,317.68,3,0.08,same
0,58,catch,"[(1178, 806)]",[],[1],[],horizontal,"(890.0, 762.0)",1.7,nan,1,324.063,3,0.06,same
0,59,valid,"[(1162, 797)]",[],[1],[0.7],horizontal,"(390.0, 262.0)",0.75,0.658,1,329.882,3,0.06,same
0,60,catch,"[(1164, 782)]",[],[1],[],horizontal,"(390.0, 762.0)",1.7,nan,1,335.898,3,0.06,same
0,61,valid,"[(1164, 806)]",[],[1],[0.5166666666666666],vertical,"(890.0, 262.0)",0.9833333333333333,0.476,1,341.832,3,0.04,same
0,62,valid,"[(1160, 811)]",[],[1],[0.85],vertical,"(890.0, 762.0)",0.55,nan,0,347.666,0,0.02,same
0,63,valid,"[(1139, 809)]",[],[1],[0.85],horizontal,"(390.0, 262.0)",0.3833333333333333,nan,0,351.911,0,0.02,same
0,64,valid,"[(1147, 797)]",[],[1],[0.6166666666666667],horizontal,"(390.0, 762.0)",1.0,0.576,1,356.274,1,0.02,same
0,65,catch,"[(1180, 807)]",[],[1],[],vertical,"(390.0, 762.0)",1.7,nan,1,361.466,1,0.02,same
0,66,catch,"[(1160, 798)]",[],[1],[],horizontal,"(390.0, 262.0)",,"('cti', 1.507),nan",0,366.664,0,0.04,same
0,67,valid,"[(1158, 809)]",[],[1],[0.5333333333333333],vertical,"(390.0, 762.0)",0.85,0.501,1,371.416,1,0.04,same
0,68,catch,"[(1160, 786)]",[],[1],[],vertical,"(390.0, 762.0)",1.7,nan,1,376.163,1,0.04,same
0,69,valid,"[(1151, 777)]",[],[1],[0.5333333333333333],vertical,"(890.0, 262.0)",1.0,0.493,1,380.982,1,0.04,same
0,70,valid,"[(1177, 782)]",[],[1],[0.6833333333333333],vertical,"(890.0, 762.0)",1.2,0.643,1,386.151,2,0.04,same
0,71,valid,"[(1160, 799)]",[],[1],[0.65],vertical,"(390.0, 762.0)",1.1166666666666667,0.612,1,392.0,2,0.04,same
0,72,catch,"[(1163, 786)]",[],[1],[],vertical,"(390.0, 262.0)",1.7,nan,1,397.573,2,0.04,same
0,73,invalid_same_bar,"[(1175, 815)]",[],[1],[0.75],horizontal,"(390.0, 262.0)",0.48333333333333334,0.709,1,403.414,3,0.02,same
0,74,valid,"[(1162, 810)]",[],[1],[0.5666666666666667],vertical,"(890.0, 762.0)",1.3166666666666667,0.527,1,409.01,3,0.02,same
0,75,valid,"[(1161, 806)]",[],[1],[0.5666666666666667],vertical,"(390.0, 262.0)",0.6,0.527,1,414.799,3,0.02,same
0,76,valid,"[(1164, 809)]",[],[1],[0.6333333333333333],horizontal,"(390.0, 262.0)",1.1166666666666667,0.594,1,420.233,3,0.02,same
0,77,valid,"[(1160, 816)]",[],[1],[0.65],horizontal,"(390.0, 262.0)",0.8833333333333333,0.61,1,426.288,3,0.02,same
0,78,valid,"[(1159, 801)]",[],[1],[0.6166666666666667],horizontal,"(390.0, 262.0)",0.35,0.571,1,432.131,3,0.02,same
0,79,valid,"[(1175, 806)]",[],[1],[0.8166666666666667],horizontal,"(890.0, 262.0)",1.0166666666666666,0.77,1,437.133,3,0.02,same
0,80,valid,"[(1160, 789)]",[],[1],[0.6166666666666667],horizontal,"(890.0, 762.0)",1.3,0.573,1,443.113,3,0.02,same
0,81,invalid_same_bar,"[(1159, 793)]",[],[1],[0.7],vertical,"(390.0, 262.0)",1.2833333333333332,0.665,1,449.641,3,0.02,same
0,82,valid,"[(1162, 800)]",[],[1],[0.6666666666666666],horizontal,"(890.0, 762.0)",1.3166666666666667,0.621,1,455.948,3,0.02,same
0,83,valid,"[(1160, 781)]",[],[1],[0.6],vertical,"(390.0, 262.0)",0.4666666666666667,0.547,1,461.976,3,0.02,same
0,84,catch,"[(1161, 806)]",[],[1],[],vertical,"(390.0, 762.0)",1.7,nan,1,467.08,3,0.02,same
0,85,valid,"[(1160, 808)]",[],[1],[0.45],vertical,"(390.0, 762.0)",1.5,0.408,1,473.216,3,0.02,same
0,86,catch,"[(1163, 796)]",[],[1],[],vertical,"(390.0, 262.0)",1.7,nan,1,479.2,3,0.02,same
0,87,invalid_same_bar,"[(1164, 812)]",[],[1],[0.65],vertical,"(390.0, 262.0)",0.4,0.607,1,485.25,3,0.02,same
0,88,valid,"[(1160, 806)]",[],[1],[0.5333333333333333],vertical,"(390.0, 262.0)",0.36666666666666664,0.487,1,490.881,3,0.02,same
0,89,catch,"[(1116, 806)]",[],[1],[],horizontal,"(390.0, 762.0)",1.7,nan,1,496.083,3,0.02,same
0,90,valid,"[(1156, 810)]",[],[1],[0.5833333333333334],vertical,"(390.0, 762.0)",1.2333333333333334,0.544,1,502.117,3,0.02,same
0,91,catch,"[(1160, 795)]",[],[1],[],horizontal,"(890.0, 262.0)",1.7,nan,1,508.351,3,0.02,same
0,92,valid,"[(1160, 806)]",[],[1],[0.6],horizontal,"(390.0, 762.0)",0.95,0.557,1,514.182,3,0.02,same
0,93,valid,"[(1140, 800)]",[],[1],[0.85],horizontal,"(890.0, 262.0)",0.6166666666666667,nan,0,519.791,0,0.02,same
0,94,valid,"[(1136, 813)]",[],[1],[0.7833333333333333],vertical,"(890.0, 762.0)",0.5833333333333334,0.735,1,524.174,1,0.02,same
0,95,invalid_same_bar,"[(1160, 801)]",[],[1],[0.5833333333333334],vertical,"(890.0, 762.0)",1.2166666666666666,0.538,1,529.206,1,0.02,same
0,96,valid,"[(1160, 809)]",[],[1],[0.21666666666666667],horizontal,"(390.0, 762.0)",1.35,0.183,0,534.777,0,0.02,same
0,97,valid,"[(1160, 791)]",[],[1],[0.5],vertical,"(890.0, 762.0)",1.0166666666666666,0.455,1,539.682,1,0.02,same
0,98,valid,"[(1162, 782)]",[],[1],[0.5166666666666666],vertical,"(890.0, 262.0)",0.7,0.475,1,544.7,1,0.02,same
0,99,invalid_adjacent_other_bar,"[(1165, 792)]",[],[1],[0.5833333333333334],horizontal,"(890.0, 262.0)",1.1166666666666667,0.548,1,549.766,1,0.02,other
0,100,valid,"[(1147, 806)]",[],[1],[0.3833333333333333],vertical,"(890.0, 262.0)",1.4833333333333334,0.343,1,554.782,2,0.02,same
0,101,invalid_adjacent_other_bar,"[(1159, 791)]",[],[1],[0.4],vertical,"(390.0, 762.0)",1.4666666666666666,0.361,1,560.901,2,0.02,other
0,102,valid,"[(1160, 806)]",[],[1],[0.7333333333333333],horizontal,"(890.0, 762.0)",0.85,0.689,1,566.817,2,0.02,same
0,103,valid,"[(1163, 816)]",[],[1],[0.5166666666666666],horizontal,"(390.0, 262.0)",0.8666666666666667,0.472,1,572.661,3,0.02,same
0,104,catch,"[(1172, 806)]",[],[1],[],vertical,"(890.0, 762.0)",1.7,nan,1,578.816,3,0.02,same
0,105,valid,"[(1178, 808)]",[],[1],[0.5833333333333334],horizontal,"(390.0, 762.0)",1.0166666666666666,0.542,1,584.567,3,0.02,same
0,106,valid,"[(1160, 811)]",[],[1],[0.5166666666666666],horizontal,"(890.0, 762.0)",1.3333333333333333,0.48,1,590.801,3,0.02,same
0,107,valid,"[(1174, 811)]",[],[1],[0.5166666666666666],vertical,"(390.0, 262.0)",0.8,0.477,1,597.034,3,0.02,same
0,108,valid,"[(1160, 801)]",[],[1],[0.4166666666666667],horizontal,"(390.0, 262.0)",1.4166666666666667,0.378,1,602.5,3,0.02,same
0,109,valid,"[(1170, 808)]",[],[1],[0.85],horizontal,"(390.0, 262.0)",0.8833333333333333,nan,0,608.417,0,0.02,same
0,110,valid,"[(1156, 810)]",[],[1],[0.5333333333333333],horizontal,"(390.0, 762.0)",1.1166666666666667,0.497,1,613.034,1,0.02,same
0,111,valid,"[(1145, 786)]",[],[1],[0.55],vertical,"(390.0, 762.0)",0.9,0.506,1,618.352,1,0.02,same
0,112,catch,"[(1161, 808)]",[],[1],[],vertical,"(390.0, 762.0)",,"('cti', 1.668),nan",0,623.208,0,0.04,same
0,113,valid,"[(1164, 808)]",[],[1],[0.5666666666666667],horizontal,"(390.0, 262.0)",1.05,0.527,1,628.035,1,0.04,same
0,114,valid,"[(1161, 789)]",[],[1],[0.6],horizontal,"(890.0, 262.0)",0.95,0.558,1,633.183,1,0.04,same
0,115,catch,"[(1162, 795)]",[],[1],[],vertical,"(890.0, 762.0)",1.7,nan,1,638.667,1,0.04,same
0,116,valid,"[(1172, 801)]",[],[1],[0.6166666666666667],vertical,"(890.0, 262.0)",1.2166666666666666,0.574,1,643.7,2,0.02,same
0,117,catch,"[(1162, 794)]",[],[1],[],horizontal,"(390.0, 762.0)",1.7,nan,1,649.466,2,0.02,same
0,118,valid,"[(1173, 807)]",[],[1],[0.55],horizontal,"(890.0, 262.0)",0.4666666666666667,0.513,1,654.741,2,0.02,same
0,119,valid,"[(1160, 807)]",[],[1],[0.6833333333333333],horizontal,"(390.0, 262.0)",0.43333333333333335,0.635,1,660.235,3,0.02,same
0,120,valid,"[(1142, 786)]",[],[1],[0.6],horizontal,"(890.0, 262.0)",0.43333333333333335,0.557,1,666.218,3,0.02,same
0,121,catch,"[(1160, 816)]",[],[1],[],vertical,"(390.0, 762.0)",1.7,nan,1,671.249,3,0.02,same
0,122,valid,"[(1161, 809)]",[],[1],[0.5666666666666667],vertical,"(890.0, 262.0)",1.15,0.523,1,677.132,3,0.02,same
0,123,valid,"[(1141, 811)]",[],[1],[0.7333333333333333],vertical,"(890.0, 262.0)",0.35,0.692,1,682.811,3,0.02,same
0,124,catch,"[(1165, 782)]",[],[1],[],vertical,"(890.0, 262.0)",1.7,nan,1,688.467,3,0.02,same
0,125,valid,"[(1160, 811)]",[],[1],[0.5666666666666667],horizontal,"(890.0, 762.0)",0.6833333333333333,0.53,1,694.532,3,0.02,same
0,126,catch,"[(1162, 809)]",[],[1],[],vertical,"(390.0, 262.0)",1.7,nan,1,700.465,3,0.02,same
0,127,valid,"[(1152, 781)]",[],[1],[0.5333333333333333],vertical,"(890.0, 262.0)",0.6666666666666666,0.491,1,706.334,3,0.02,same
0,128,valid,"[(1162, 790)]",[],[1],[0.5],horizontal,"(390.0, 262.0)",0.8833333333333333,0.462,1,711.965,3,0.02,same
0,129,valid,"[(1160, 799)]",[],[1],[0.5333333333333333],vertical,"(390.0, 262.0)",0.9,0.49,1,717.95,3,0.02,same
0,130,valid,"[(1161, 783)]",[],[1],[0.5666666666666667],horizontal,"(890.0, 262.0)",0.8666666666666667,0.522,1,723.386,3,0.02,same
0,131,catch,"[(1162, 811)]",[],[1],[],vertical,"(890.0, 762.0)",1.7,nan,1,729.321,3,0.02,same
0,132,valid,"[(1163, 806)]",[],[1],[0.6333333333333333],vertical,"(890.0, 762.0)",0.75,0.602,1,735.534,3,0.02,same
0,133,catch,"[(1170, 811)]",[],[1],[],vertical,"(390.0, 762.0)",1.7,nan,1,741.236,3,0.02,same
0,134,valid,"[(1161, 783)]",[],[1],[0.5166666666666666],vertical,"(890.0, 262.0)",1.3833333333333333,0.477,1,747.337,3,0.02,same
0,135,valid,"[(1160, 807)]",[],[1],[0.48333333333333334],horizontal,"(390.0, 762.0)",1.3666666666666667,0.44,1,753.283,3,0.02,same
0,136,catch,"[(1159, 806)]",[],[1],[],horizontal,"(890.0, 262.0)",1.7,nan,1,759.233,3,0.02,same
0,137,valid,"[(1160, 796)]",[],[1],[0.5],vertical,"(890.0, 262.0)",0.4166666666666667,0.459,1,765.713,3,0.02,same
0,138,catch,"[(1165, 778)]",[],[1],[],vertical,"(390.0, 262.0)",1.7,nan,1,770.691,3,0.02,same
0,139,valid,"[(1138, 776)]",[],[1],[0.5333333333333333],horizontal,"(390.0, 762.0)",1.2666666666666666,0.491,1,776.499,3,0.02,same
0,140,catch,"[(1160, 808)]",[],[1],[],horizontal,"(890.0, 262.0)",1.7,nan,1,782.284,3,0.02,same
0,141,valid,"[(1160, 812)]",[],[1],[0.5333333333333333],vertical,"(890.0, 762.0)",1.3666666666666667,0.493,1,788.251,3,0.02,same
0,142,valid,"[(1160, 808)]",[],[1],[0.6833333333333333],vertical,"(890.0, 762.0)",1.2,0.655,1,794.484,3,0.02,same
0,143,valid,"[(1160, 806)]",[],[1],[0.65],vertical,"(390.0, 762.0)",0.5,0.607,1,800.351,3,0.02,same
0,144,valid,"[(1165, 808)]",[],[1],[0.5],vertical,"(390.0, 262.0)",0.8166666666666667,0.46,1,805.851,3,0.02,same
0,145,valid,"[(1140, 806)]",[],[1],[0.5333333333333333],vertical,"(890.0, 762.0)",0.8166666666666667,0.495,1,811.451,3,0.02,same
0,146,catch,"[(1172, 778)]",[],[1],[],vertical,"(390.0, 262.0)",1.7,nan,1,816.835,3,0.02,same
0,147,valid,"[(1160, 795)]",[],[1],[0.5166666666666666],horizontal,"(390.0, 762.0)",0.7333333333333333,0.473,1,822.884,3,0.02,same
0,148,catch,"[(1163, 811)]",[],[1],[],horizontal,"(390.0, 762.0)",1.7,nan,1,828.534,3,0.02,same
0,149,valid,"[(1159, 791)]",[],[1],[0.85],vertical,"(890.0, 762.0)",0.4166666666666667,nan,0,834.334,0,0.02,same
0,150,valid,"[(1133, 814)]",[],[1],[0.6333333333333333],vertical,"(890.0, 762.0)",1.45,0.59,1,838.967,1,0.02,same
0,151,valid,"[(1161, 806)]",[],[1],[0.55],horizontal,"(890.0, 262.0)",1.0833333333333333,0.51,1,844.351,1,0.02,same
0,152,valid,"[(1151, 792)]",[],[1],[0.48333333333333334],vertical,"(890.0, 262.0)",0.8166666666666667,0.442,1,849.787,1,0.02,same
0,153,valid,"[(1161, 788)]",[],[1],[0.6666666666666666],vertical,"(390.0, 762.0)",0.7666666666666666,0.633,1,854.135,2,0.02,same
0,154,valid,"[(1175, 813)]",[],[1],[0.5166666666666666],vertical,"(390.0, 262.0)",0.7,0.476,1,859.768,2,0.02,same
0,155,valid,"[(1171, 808)]",[],[1],[0.4],horizontal,"(390.0, 762.0)",1.35,0.36,1,865.141,2,0.02,same
0,156,valid,"[(1161, 798)]",[],[1],[0.5333333333333333],vertical,"(890.0, 762.0)",1.3,0.492,1,871.371,3,0.02,same
0,157,valid,"[(1151, 795)]",[],[1],[0.6333333333333333],vertical,"(890.0, 262.0)",0.4666666666666667,0.592,1,877.294,3,0.02,same
0,158,valid,"[(1161, 782)]",[],[1],[0.5666666666666667],vertical,"(890.0, 762.0)",1.2666666666666666,0.527,1,882.789,3,0.02,same
0,159,valid,"[(1160, 799)]",[],[1],[0.7833333333333333],horizontal,"(890.0, 762.0)",0.6666666666666666,0.738,1,888.834,3,0.02,same
0,160,valid,"[(1160, 803)]",[],[1],[0.6],horizontal,"(390.0, 762.0)",0.6,0.559,1,894.135,3,0.02,same
0,161,catch,"[(1151, 781)]",[],[1],[],horizontal,"(390.0, 262.0)",1.7,nan,1,899.317,3,0.02,same
0,162,catch,"[(1140, 804)]",[],[1],[],horizontal,"(890.0, 262.0)",,"('cti', 1.612),nan",0,904.853,0,0.02,same
0,163,valid,"[(1160, 806)]",[],[1],[0.48333333333333334],horizontal,"(890.0, 762.0)",0.45,0.447,1,909.992,1,0.02,same
0,164,catch,"[(1158, 820)]",[],[1],[],vertical,"(390.0, 762.0)",1.7,nan,1,914.619,1,0.02,same
0,165,valid,"[(1160, 805)]",[],[1],[0.5666666666666667],vertical,"(390.0, 262.0)",1.0833333333333333,0.527,1,919.952,1,0.02,same
0,166,valid,"[(1161, 813)]",[],[1],[0.5166666666666666],vertical,"(390.0, 262.0)",0.5166666666666666,0.475,1,925.223,2,0.02,same
0,167,catch,"[(1160, 811)]",[],[1],[],vertical,"(890.0, 262.0)",1.7,nan,1,930.535,2,0.02,same
0,168,valid,"[(1160, 786)]",[],[1],[0.7166666666666667],horizontal,"(390.0, 262.0)",1.05,0.668,1,935.934,2,0.02,same
0,169,valid,"[(1160, 814)]",[],[1],[0.85],horizontal,"(390.0, 762.0)",0.8333333333333334,nan,0,941.547,0,0.02,same
0,170,valid,"[(1142, 802)]",[],[1],[0.85],vertical,"(890.0, 762.0)",0.48333333333333334,nan,0,946.291,0,0.02,same
0,171,catch,"[(1160, 811)]",[],[1],[],horizontal,"(890.0, 262.0)",,"('cti', 1.284),nan",0,950.545,0,0.04,same
0,172,valid,"[(1091, 825)]",[],[1],[],horizontal,"(890.0, 262.0)",,"('fix', 0.034)",0,955.302,0,0.04,same
0,173,valid,"[(1137, 821)]",[],[1],[0.5],vertical,"(890.0, 262.0)",0.7166666666666667,0.461,1,956.802,1,0.04,same
0,174,valid,"[(1174, 804)]",[],[1],[0.85],horizontal,"(390.0, 762.0)",1.0,nan,0,961.302,0,0.04,same
0,175,valid,"[(1125, 811)]",[],[1],[0.85],vertical,"(890.0, 262.0)",0.9166666666666666,nan,0,965.718,0,0.04,same
0,176,valid,"[(1151, 803)]",[],[1],[0.6166666666666667],vertical,"(890.0, 762.0)",1.2,0.575,1,970.434,1,0.04,same
0,177,catch,"[(1161, 790)]",[],[1],[],horizontal,"(390.0, 262.0)",1.7,nan,1,975.854,1,0.04,same
0,178,valid,"[(1160, 781)]",[],[1],[0.6333333333333333],vertical,"(890.0, 762.0)",0.5,0.598,1,980.852,1,0.04,same
0,179,valid,"[(1145, 811)]",[],[1],[0.6],vertical,"(890.0, 762.0)",0.6333333333333333,0.555,1,985.714,2,0.04,same
0,180,valid,"[(1161, 787)]",[],[1],[0.5],horizontal,"(890.0, 262.0)",0.75,0.46,1,990.614,2,0.04,same
0,181,valid,"[(1171, 798)]",[],[1],[0.7166666666666667],horizontal,"(390.0, 262.0)",0.7333333333333333,0.67,1,995.363,2,0.04,same
0,182,catch,"[(1164, 801)]",[],[1],[],vertical,"(390.0, 762.0)",1.7,nan,1,1000.901,3,0.04,same
0,183,catch,"[(1161, 812)]",[],[1],[],horizontal,"(390.0, 262.0)",1.7,nan,1,1006.985,3,0.04,same
0,184,valid,"[(1143, 816)]",[],[1],[0.65],horizontal,"(890.0, 262.0)",0.5833333333333334,0.604,1,1012.436,3,0.04,same
0,185,valid,"[(1164, 781)]",[],[1],[0.5333333333333333],horizontal,"(390.0, 762.0)",1.2,0.495,1,1017.985,3,0.04,same
0,186,catch,"[(1161, 805)]",[],[1],[],vertical,"(390.0, 262.0)",,"('cti', 1.549),nan",0,1023.702,0,0.06,same
0,187,valid,"[(1151, 795)]",[],[1],[0.5666666666666667],horizontal,"(390.0, 762.0)",0.5166666666666666,0.534,1,1028.635,1,0.06,same
0,188,catch,"[(1160, 812)]",[],[1],[],vertical,"(390.0, 262.0)",1.7,nan,1,1032.973,1,0.06,same
0,189,valid,"[(1159, 794)]",[],[1],[0.48333333333333334],horizontal,"(390.0, 762.0)",1.4,0.442,1,1038.151,1,0.06,same
0,190,catch,"[(1144, 811)]",[],[1],[],horizontal,"(890.0, 762.0)",1.7,nan,1,1043.294,2,0.06,same
0,191,valid,"[(1160, 804)]",[],[1],[0.5666666666666667],vertical,"(890.0, 262.0)",1.1,0.52,1,1048.784,2,0.06,same
0,192,valid,"[(1161, 818)]",[],[1],[0.6166666666666667],horizontal,"(390.0, 762.0)",0.35,0.58,1,1054.169,2,0.06,same
0,193,catch,"[(1145, 807)]",[],[1],[0.03333333333333333],horizontal,"(890.0, 762.0)",1.7,"0.019,nan",0,1059.395,0,0.08,same
0,194,catch,"[(1160, 800)]",[],[1],[],vertical,"(890.0, 762.0)",1.7,nan,1,1064.001,1,0.08,same
0,195,valid,"[(1140, 795)]",[],[1],[0.5833333333333334],vertical,"(390.0, 262.0)",1.1333333333333333,0.536,1,1069.55,1,0.08,same
0,196,valid,"[(1171, 790)]",[],[1],[0.5166666666666666],horizontal,"(390.0, 262.0)",0.95,0.473,1,1074.881,1,0.08,same
0,197,catch,"[(1160, 797)]",[],[1],[0.03333333333333333],vertical,"(390.0, 762.0)",1.7,"0.017,nan",0,1079.386,0,0.1,same
0,198,valid,"[(1140, 812)]",[],[1],[0.4],vertical,"(390.0, 762.0)",1.4333333333333333,0.358,1,1084.335,1,0.1,same
0,199,catch,"[(1160, 805)]",[],[1],[],vertical,"(390.0, 262.0)",1.7,nan,1,1089.806,1,0.1,same
0,200,catch,"[(1163, 791)]",[],[1],[],horizontal,"(890.0, 762.0)",1.7,nan,1,1094.96,1,0.1,same
0,201,valid,"[(1160, 788)]",[],[1],[0.5833333333333334],vertical,"(890.0, 262.0)",0.6333333333333333,0.541,1,1100.036,2,0.1,same
0,202,invalid_adjacent_other_bar,"[(1160, 791)]",[],[1],[0.5666666666666667],horizontal,"(890.0, 262.0)",0.9833333333333333,0.525,1,1105.435,2,0.1,other
0,203,valid,"[(1160, 815)]",[],[1],[0.5833333333333334],vertical,"(390.0, 262.0)",1.2,0.543,1,1111.076,2,0.1,same
0,204,catch,"[(1156, 791)]",[],[1],[],vertical,"(890.0, 262.0)",1.7,nan,1,1116.791,3,0.1,same
0,205,valid,"[(1160, 815)]",[],[1],[0.55],vertical,"(890.0, 762.0)",0.5,0.51,1,1122.635,3,0.1,same
0,206,valid,"[(1149, 806)]",[],[1],[0.5333333333333333],vertical,"(890.0, 262.0)",1.1333333333333333,0.491,1,1127.469,3,0.1,same
0,207,catch,"[(1155, 800)]",[],[1],[],vertical,"(890.0, 262.0)",1.7,nan,1,1133.054,3,0.1,same
0,208,valid,"[(1151, 791)]",[],[1],[0.8],horizontal,"(890.0, 762.0)",1.0166666666666666,0.754,1,1138.66,3,0.1,same
0,209,catch,"[(1180, 810)]",[],[1],[],horizontal,"(390.0, 262.0)",1.7,nan,1,1144.79,3,0.1,same
0,210,valid,"[(1159, 797)]",[],[1],[0.6],horizontal,"(390.0, 262.0)",0.8666666666666667,0.557,1,1150.501,3,0.1,same
0,211,catch,"[(1160, 816)]",[],[1],[],horizontal,"(890.0, 762.0)",1.7,nan,1,1156.453,3,0.1,same
0,212,catch,"[(1151, 793)]",[],[1],[],vertical,"(890.0, 262.0)",1.7,nan,1,1162.254,3,0.08,same
0,213,valid,"[(1160, 798)]",[],[1],[0.31666666666666665],vertical,"(390.0, 762.0)",1.2333333333333334,0.285,1,1168.085,3,0.08,same
0,214,valid,"[(1156, 810)]",[],[1],[0.5333333333333333],horizontal,"(390.0, 262.0)",0.8666666666666667,0.494,1,1174.002,3,0.08,same
0,215,catch,"[(1161, 816)]",[],[1],[],vertical,"(390.0, 762.0)",,"('cti', 1.567),nan",0,1179.887,0,0.1,same
0,216,valid,"[(1140, 799)]",[],[1],[0.6],vertical,"(390.0, 262.0)",0.75,0.562,1,1184.569,1,0.1,same
0,217,valid,"[(1157, 786)]",[],[1],[0.5666666666666667],horizontal,"(390.0, 762.0)",0.6666666666666666,0.525,1,1189.254,1,0.1,same
0,218,valid,"[(1143, 793)]",[],[1],[0.5333333333333333],horizontal,"(390.0, 262.0)",1.3166666666666667,0.491,1,1194.189,1,0.1,same
0,219,valid,"[(1160, 815)]",[],[1],[0.5],vertical,"(890.0, 262.0)",0.5333333333333333,0.46,1,1199.419,2,0.1,same
0,220,valid,"[(1158, 793)]",[],[1],[0.75],horizontal,"(890.0, 762.0)",0.4666666666666667,0.695,1,1204.189,2,0.1,same
0,221,valid,"[(1156, 816)]",[],[1],[0.6],horizontal,"(890.0, 762.0)",0.55,0.555,1,1209.588,2,0.08,same
0,222,valid,"[(1143, 806)]",[],[1],[0.55],vertical,"(890.0, 762.0)",0.85,0.518,1,1215.167,3,0.08,same
0,223,catch,"[(1160, 801)]",[],[1],[],vertical,"(890.0, 262.0)",1.7,nan,1,1221.001,3,0.08,same
0,224,valid,"[(1157, 795)]",[],[1],[0.6166666666666667],horizontal,"(390.0, 762.0)",0.6333333333333333,0.567,1,1227.119,3,0.08,same
0,225,valid,"[(1163, 804)]",[],[1],[0.6166666666666667],horizontal,"(890.0, 762.0)",0.5333333333333333,0.575,1,1232.253,3,0.08,same
0,226,catch,"[(1159, 797)]",[],[1],[],vertical,"(890.0, 262.0)",1.7,nan,1,1237.735,3,0.08,same
0,227,valid,"[(1160, 795)]",[],[1],[0.5],vertical,"(890.0, 762.0)",0.55,0.46,1,1243.454,3,0.08,same
0,228,valid,"[(1160, 794)]",[],[1],[0.3333333333333333],horizontal,"(890.0, 762.0)",1.45,0.293,1,1248.736,3,0.08,same
0,229,valid,"[(1134, 810)]",[],[1],[0.5666666666666667],vertical,"(890.0, 762.0)",1.35,0.522,1,1254.961,3,0.08,same
0,230,valid,"[(1146, 801)]",[],[1],[0.18333333333333332],vertical,"(390.0, 762.0)",1.4666666666666666,0.148,0,1261.557,0,0.08,same
0,231,invalid_adjacent_other_bar,"[(1125, 811)]",[],[1],[0.85],horizontal,"(890.0, 762.0)",1.05,nan,0,1266.632,0,0.08,other
0,232,valid,"[(1126, 821)]",[],[1],[0.5333333333333333],vertical,"(390.0, 262.0)",1.3166666666666667,0.504,1,1271.919,1,0.08,same
0,233,valid,"[(1106, 822)]",[],[1],[0.6333333333333333],vertical,"(890.0, 262.0)",0.35,0.587,1,1280.177,1,0.08,same
0,234,catch,"[(1134, 780)]",[],[1],[],horizontal,"(390.0, 762.0)",1.7,nan,1,1287.345,1,0.08,same
0,235,valid,"[(1160, 813)]",[],[1],[0.2833333333333333],vertical,"(390.0, 262.0)",1.5,0.249,1,1292.303,2,0.08,same
0,236,valid,"[(1170, 783)]",[],[1],[0.5666666666666667],vertical,"(890.0, 262.0)",1.1833333333333333,0.525,1,1298.26,2,0.06,same
0,237,valid,"[(1150, 800)]",[],[1],[0.5333333333333333],horizontal,"(390.0, 762.0)",0.8833333333333333,0.491,1,1303.522,2,0.06,same
0,238,catch,"[(1158, 790)]",[],[1],[],horizontal,"(390.0, 762.0)",1.7,nan,1,1308.497,3,0.06,same
0,239,valid,"[(1141, 796)]",[],[1],[0.5666666666666667],horizontal,"(890.0, 762.0)",0.9833333333333333,0.529,1,1314.644,3,0.06,same
0,240,valid,"[(1154, 798)]",[],[1],[0.5166666666666666],vertical,"(390.0, 762.0)",1.0,0.473,1,1320.269,3,0.06,same
0,241,valid,"[(1143, 791)]",[],[1],[0.55],vertical,"(890.0, 262.0)",0.6166666666666667,0.508,1,1326.036,3,0.06,same
0,242,valid,"[(1174, 810)]",[],[1],[0.5333333333333333],horizontal,"(890.0, 262.0)",1.1333333333333333,0.489,1,1330.986,3,0.06,same
0,243,catch,"[(1160, 797)]",[],[1],[],vertical,"(890.0, 262.0)",1.7,nan,1,1337.286,3,0.04,same
0,244,invalid_same_bar,"[(1161, 812)]",[],[1],[0.85],vertical,"(390.0, 762.0)",1.1333333333333333,nan,0,1343.025,0,0.04,same
0,245,valid,"[(1144, 786)]",[],[1],[0.65],horizontal,"(390.0, 762.0)",1.2166666666666666,0.604,1,1347.635,1,0.04,same
0,246,catch,"[(1147, 781)]",[],[1],[],vertical,"(890.0, 762.0)",1.7,nan,1,1353.192,1,0.04,same
0,247,invalid_adjacent_other_bar,"[(1149, 778)]",[],[1],[0.85],vertical,"(890.0, 762.0)",0.7666666666666666,nan,0,1358.201,0,0.02,other
0,248,catch,"[(1151, 789)]",[],[1],[],vertical,"(890.0, 762.0)",1.7,nan,1,1362.619,1,0.02,same
0,249,valid,"[(1161, 785)]",[],[1],[0.5666666666666667],horizontal,"(390.0, 262.0)",0.9666666666666667,0.528,1,1367.579,1,0.02,same
0,250,catch,"[(1160, 792)]",[],[1],[],horizontal,"(890.0, 762.0)",1.7,nan,1,1372.152,1,0.02,same
0,251,catch,"[(1159, 786)]",[],[1],[],vertical,"(890.0, 762.0)",1.7,nan,1,1377.274,2,0.02,same
0,252,valid,"[(1161, 815)]",[],[1],[0.75],vertical,"(890.0, 762.0)",0.7,0.71,1,1383.119,2,0.02,same
0,253,valid,"[(1150, 815)]",[],[1],[0.6833333333333333],horizontal,"(390.0, 262.0)",1.3833333333333333,0.638,1,1388.34,2,0.02,same
0,254,invalid_same_bar,"[(1146, 786)]",[],[1],[0.55],horizontal,"(390.0, 762.0)",0.5833333333333334,0.516,1,1394.119,3,0.02,same
0,255,invalid_adjacent_other_bar,"[(1139, 781)]",[],[1],[0.5833333333333334],horizontal,"(890.0, 762.0)",1.2666666666666666,0.54,1,1399.442,3,0.02,other
0,256,valid,"[(1156, 793)]",[],[1],[0.5166666666666666],horizontal,"(890.0, 262.0)",0.7666666666666666,0.477,1,1405.757,3,0.02,same
0,257,catch,"[(1157, 816)]",[],[1],[],horizontal,"(890.0, 762.0)",1.7,nan,1,1411.149,3,0.02,same
0,258,valid,"[(1160, 791)]",[],[1],[0.5],vertical,"(890.0, 262.0)",1.0166666666666666,0.463,1,1417.521,3,0.02,same
0,259,valid,"[(1156, 805)]",[],[1],[0.7333333333333333],vertical,"(890.0, 762.0)",0.43333333333333335,0.685,1,1423.087,3,0.02,same
0,260,valid,"[(1161, 807)]",[],[1],[0.85],vertical,"(890.0, 762.0)",0.7833333333333333,nan,0,1428.653,0,0.02,same
0,261,invalid_adjacent_other_bar,"[(1147, 784)]",[],[1],[0.7166666666666667],horizontal,"(890.0, 762.0)",1.0166666666666666,0.672,1,1433.612,1,0.02,other
0,262,catch,"[(1143, 821)]",[],[1],[],vertical,"(890.0, 262.0)",1.7,nan,1,1439.389,1,0.02,same
0,263,valid,"[(1160, 787)]",[],[1],[0.6666666666666666],vertical,"(890.0, 262.0)",1.4833333333333334,0.622,1,1445.071,1,0.02,same
0,264,catch,"[(1160, 815)]",[],[1],[],horizontal,"(390.0, 262.0)",1.7,nan,1,1450.286,2,0.02,same
0,265,catch,"[(1155, 804)]",[],[1],[],horizontal,"(890.0, 762.0)",1.7,nan,1,1456.12,2,0.0,same
0,266,catch,"[(1175, 796)]",[],[1],[],vertical,"(390.0, 262.0)",1.7,nan,1,1461.653,2,0.0,same
0,267,valid,"[(1160, 789)]",[],[1],[0.5833333333333334],vertical,"(890.0, 762.0)",0.6833333333333333,0.537,1,1467.32,3,0.0,same
0,268,valid,"[(1159, 786)]",[],[1],[0.5],vertical,"(390.0, 262.0)",0.8166666666666667,0.453,1,1473.071,3,0.0,same
0,269,valid,"[(1160, 816)]",[],[1],[0.85],horizontal,"(890.0, 762.0)",0.5833333333333334,nan,0,1478.72,0,0.0,same
0,270,valid,"[(1141, 805)]",[],[1],[0.4166666666666667],horizontal,"(890.0, 762.0)",1.4666666666666666,0.378,1,1483.218,1,0.0,same
0,271,valid,"[(1141, 777)]",[],[1],[0.65],horizontal,"(390.0, 262.0)",1.2666666666666666,0.608,1,1488.391,1,0.0,same
0,272,invalid_adjacent_other_bar,"[(1136, 811)]",[],[1],[0.6],vertical,"(390.0, 262.0)",1.2166666666666666,0.565,1,1493.753,1,0.0,other
0,273,catch,"[(1151, 787)]",[],[1],[],vertical,"(890.0, 762.0)",1.7,nan,1,1499.205,2,0.0,same
0,274,catch,"[(1143, 798)]",[],[1],[],vertical,"(890.0, 262.0)",1.7,nan,1,1505.303,2,0.0,same
0,275,valid,"[(1156, 807)]",[],[1],[0.55],vertical,"(890.0, 762.0)",0.7833333333333333,0.504,1,1511.074,2,0.0,same
0,276,valid,"[(1160, 809)]",[],[1],[0.5333333333333333],vertical,"(390.0, 762.0)",1.2666666666666666,0.491,1,1516.145,3,0.0,same
0,277,valid,"[(1163, 792)]",[],[1],[0.48333333333333334],vertical,"(390.0, 262.0)",0.7333333333333333,0.441,1,1522.219,3,0.0,same
0,278,valid,"[(1158, 779)]",[],[1],[0.48333333333333334],vertical,"(390.0, 762.0)",0.9,0.444,1,1527.908,3,0.0,same
0,279,catch,"[(1156, 797)]",[],[1],[],vertical,"(890.0, 262.0)",1.7,nan,1,1533.35,3,0.0,same
0,280,valid,"[(1146, 782)]",[],[1],[0.85],horizontal,"(890.0, 262.0)",0.43333333333333335,nan,0,1539.388,0,0.0,same
0,281,catch,"[(1141, 796)]",[],[1],[],vertical,"(890.0, 762.0)",1.7,nan,1,1543.837,1,0.0,same
0,282,valid,"[(1163, 806)]",[],[1],[0.55],horizontal,"(890.0, 262.0)",1.3333333333333333,0.509,1,1548.656,1,0.0,same
0,283,valid,"[(1177, 791)]",[],[1],[0.5666666666666667],horizontal,"(390.0, 262.0)",0.9333333333333333,0.524,1,1554.148,1,0.0,same
0,284,valid,"[(1157, 778)]",[],[1],[0.6],vertical,"(890.0, 262.0)",0.3833333333333333,0.564,1,1558.874,2,0.0,same
0,285,valid,"[(1170, 795)]",[],[1],[0.7666666666666666],vertical,"(390.0, 262.0)",0.6166666666666667,0.72,1,1564.157,2,0.0,same
0,286,invalid_same_bar,"[(1159, 788)]",[],[1],[0.5666666666666667],vertical,"(890.0, 262.0)",1.25,0.521,1,1569.652,2,0.0,same
0,287,catch,"[(1160, 800)]",[],[1],[],vertical,"(890.0, 262.0)",1.7,nan,1,1575.242,3,0.0,same
0,288,invalid_same_bar,"[(1141, 790)]",[],[1],[0.55],vertical,"(890.0, 762.0)",1.2166666666666666,0.51,1,1581.3,3,0.0,same
0,289,catch,"[(1140, 797)]",[],[1],[],vertical,"(890.0, 762.0)",1.7,nan,1,1587.231,3,0.0,same
0,290,valid,"[(1156, 796)]",[],[1],[0.5666666666666667],vertical,"(890.0, 762.0)",0.7166666666666667,0.521,1,1593.12,3,0.0,same
0,291,valid,"[(1142, 806)]",[],[1],[0.6166666666666667],vertical,"(890.0, 762.0)",0.6833333333333333,0.574,1,1598.696,3,0.0,same
0,292,valid,"[(1140, 790)]",[],[1],[0.6],vertical,"(390.0, 262.0)",0.8666666666666667,0.555,1,1604.109,3,0.0,same
0,293,valid,"[(1157, 795)]",[],[1],[0.5833333333333334],vertical,"(390.0, 262.0)",1.1333333333333333,0.542,1,1609.945,3,0.0,same
0,294,valid,"[(1156, 785)]",[],[1],[0.5666666666666667],vertical,"(890.0, 762.0)",0.36666666666666664,0.53,1,1616.121,3,0.0,same
0,295,valid,"[(1142, 791)]",[],[1],[0.48333333333333334],horizontal,"(390.0, 762.0)",1.45,0.44,1,1621.454,3,0.0,same
0,296,valid,"[(1146, 793)]",[],[1],[0.4666666666666667],vertical,"(890.0, 262.0)",1.3166666666666667,0.425,1,1627.481,3,0.0,same
0,297,catch,"[(1141, 797)]",[],[1],[],horizontal,"(390.0, 762.0)",1.7,nan,1,1633.541,3,0.0,same
0,298,catch,"[(1155, 816)]",[],[1],[],horizontal,"(390.0, 762.0)",,"('cti', 1.023),nan",0,1639.06,0,0.02,same
0,299,catch,"[(1146, 801)]",[],[1],[],vertical,"(890.0, 262.0)",1.7,nan,1,1643.472,1,0.02,same
0,300,valid,"[(1160, 812)]",[],[1],[0.5166666666666666],horizontal,"(890.0, 762.0)",1.4166666666666667,0.47,1,1648.723,1,0.02,same
0,301,catch,"[(1158, 817)]",[],[1],[],horizontal,"(890.0, 762.0)",1.7,nan,1,1653.991,1,0.02,same
0,302,catch,"[(1163, 814)]",[],[1],[],horizontal,"(890.0, 262.0)",1.7,nan,1,1658.988,2,0.02,same
0,303,valid,"[(1158, 801)]",[],[1],[0.7],horizontal,"(890.0, 262.0)",1.1,0.66,1,1664.512,2,0.02,same
0,304,valid,"[(1151, 788)]",[],[1],[0.55],horizontal,"(890.0, 262.0)",0.7666666666666666,0.509,1,1669.821,2,0.02,same
0,305,catch,"[(1162, 803)]",[],[1],[],horizontal,"(890.0, 262.0)",1.7,nan,1,1674.972,3,0.02,same
0,306,valid,"[(1155, 795)]",[],[1],[0.5],horizontal,"(390.0, 762.0)",0.8666666666666667,0.46,1,1681.121,3,0.02,same
0,307,invalid_same_bar,"[(1156, 789)]",[],[1],[0.55],vertical,"(390.0, 762.0)",1.4666666666666666,0.507,1,1686.518,3,0.02,same
0,308,catch,"[(1162, 796)]",[],[1],[],vertical,"(390.0, 262.0)",,"('cti', 1.532),nan",0,1692.411,0,0.04,same
0,309,valid,"[(1141, 797)]",[],[1],[0.5333333333333333],horizontal,"(390.0, 762.0)",1.15,0.492,1,1696.787,1,0.04,same
0,310,valid,"[(1161, 816)]",[],[1],[0.55],horizontal,"(890.0, 262.0)",0.9,0.506,1,1701.986,1,0.04,same
0,311,valid,"[(1157, 790)]",[],[1],[0.85],vertical,"(890.0, 762.0)",0.6666666666666666,nan,0,1707.1,0,0.04,same
0,312,valid,"[(1140, 805)]",[],[1],[0.5833333333333334],vertical,"(890.0, 762.0)",1.3833333333333333,0.538,1,1711.744,1,0.04,same
0,313,catch,"[(1166, 790)]",[],[1],[],vertical,"(890.0, 762.0)",1.7,nan,1,1717.278,1,0.04,same
0,314,catch,"[(1174, 787)]",[],[1],[],horizontal,"(890.0, 762.0)",1.7,nan,1,1722.659,1,0.04,same
0,315,valid,"[(1160, 796)]",[],[1],[0.5166666666666666],vertical,"(890.0, 762.0)",1.35,0.472,1,1728.186,2,0.04,same
0,316,catch,"[(1163, 785)]",[],[1],[],vertical,"(390.0, 262.0)",1.7,nan,1,1734.174,2,0.04,same
0,317,catch,"[(1140, 811)]",[],[1],[],horizontal,"(890.0, 262.0)",1.7,nan,1,1740.004,2,0.04,same
0,318,catch,"[(1168, 807)]",[],[1],[],vertical,"(390.0, 262.0)",1.7,nan,1,1746.187,3,0.04,same
0,319,catch,"[(1156, 800)]",[],[1],[],vertical,"(390.0, 762.0)",1.7,nan,1,1752.442,3,0.04,same
0,320,valid,"[(1139, 795)]",[],[1],[0.23333333333333334],vertical,"(390.0, 262.0)",1.4833333333333334,0.199,0,1758.276,0,0.04,same
0,321,valid,"[(1140, 798)]",[],[1],[0.5],vertical,"(390.0, 762.0)",1.15,0.461,1,1763.187,1,0.04,same
0,322,valid,"[(1138, 802)]",[],[1],[0.7833333333333333],vertical,"(390.0, 762.0)",1.2166666666666666,0.74,1,1768.104,1,0.04,same
0,323,catch,"[(1140, 774)]",[],[1],[],horizontal,"(390.0, 262.0)",1.7,nan,1,1773.153,1,0.04,same
0,324,catch,"[(1164, 812)]",[],[1],[],horizontal,"(390.0, 262.0)",1.7,nan,1,1778.638,2,0.04,same
0,325,valid,"[(1142, 777)]",[],[1],[0.5333333333333333],vertical,"(390.0, 762.0)",0.9333333333333333,0.488,1,1784.451,2,0.04,same
0,326,valid,"[(1170, 812)]",[],[1],[0.65],vertical,"(890.0, 262.0)",1.1,0.606,1,1790.17,2,0.04,same
0,327,valid,"[(1143, 813)]",[],[1],[0.5],horizontal,"(390.0, 262.0)",0.55,0.466,1,1795.641,3,0.04,same
0,328,valid,"[(1149, 781)]",[],[1],[0.6666666666666666],horizontal,"(390.0, 262.0)",1.1333333333333333,0.628,1,1801.205,3,0.04,same
0,329,catch,"[(1134, 792)]",[],[1],[],horizontal,"(890.0, 262.0)",1.7,nan,1,1807.184,3,0.04,same
0,330,valid,"[(1137, 781)]",[],[1],[0.48333333333333334],horizontal,"(390.0, 262.0)",0.8666666666666667,0.445,1,1813.198,3,0.04,same
0,331,valid,"[(1160, 793)]",[],[1],[0.5],horizontal,"(890.0, 762.0)",0.9333333333333333,0.456,1,1818.596,3,0.04,same
0,332,catch,"[(1141, 794)]",[],[1],[],vertical,"(890.0, 762.0)",1.7,nan,1,1824.304,3,0.04,same
0,333,catch,"[(1141, 812)]",[],[1],[],horizontal,"(390.0, 262.0)",1.7,nan,1,1830.036,3,0.04,same
0,334,invalid_same_bar,"[(1170, 801)]",[],[1],[0.55],vertical,"(890.0, 262.0)",1.3166666666666667,0.505,1,1836.054,3,0.04,same
0,335,valid,"[(1141, 793)]",[],[1],[0.5833333333333334],vertical,"(890.0, 262.0)",1.4666666666666666,0.541,1,1842.666,3,0.04,same
0,336,catch,"[(1171, 802)]",[],[1],[],horizontal,"(390.0, 262.0)",1.7,nan,1,1849.138,3,0.04,same
0,337,valid,"[(1142, 791)]",[],[1],[0.5333333333333333],vertical,"(890.0, 262.0)",0.6666666666666666,0.488,1,1855.221,3,0.04,same
0,338,catch,"[(1140, 787)]",[],[1],[],vertical,"(390.0, 762.0)",1.7,nan,1,1860.471,3,0.04,same
0,339,invalid_same_bar,"[(1140, 815)]",[],[1],[0.6833333333333333],horizontal,"(890.0, 762.0)",0.8166666666666667,0.637,1,1866.17,3,0.04,same
0,340,valid,"[(1141, 806)]",[],[1],[0.5833333333333334],vertical,"(890.0, 762.0)",0.7166666666666667,0.542,1,1872.821,3,0.04,same
0,341,catch,"[(1165, 800)]",[],[1],[0.03333333333333333],vertical,"(390.0, 762.0)",1.7,"0.019,nan",0,1877.988,0,0.06,same
0,342,valid,"[(1140, 791)]",[],[1],[0.5],vertical,"(890.0, 262.0)",1.0166666666666666,0.461,1,1882.822,1,0.06,same
0,343,valid,"[(1160, 781)]",[],[1],[0.26666666666666666],horizontal,"(390.0, 762.0)",1.5166666666666666,0.229,1,1887.907,1,0.06,same
0,344,valid,"[(1159, 769)]",[],[1],[0.55],vertical,"(890.0, 762.0)",0.7833333333333333,0.508,1,1893.339,1,0.06,same
0,345,catch,"[(1169, 801)]",[],[1],[],vertical,"(390.0, 262.0)",1.7,nan,1,1897.939,2,0.06,same
0,346,valid,"[(1140, 801)]",[],[1],[0.5333333333333333],vertical,"(890.0, 262.0)",1.0666666666666667,0.49,1,1903.537,2,0.06,same
0,347,valid,"[(1157, 784)]",[],[1],[0.5333333333333333],vertical,"(390.0, 262.0)",0.8666666666666667,0.488,1,1908.788,2,0.06,same
0,348,valid,"[(1138, 798)]",[],[1],[0.5333333333333333],vertical,"(890.0, 262.0)",1.3833333333333333,0.486,1,1914.47,3,0.04,same
0,349,valid,"[(1156, 797)]",[],[1],[0.5333333333333333],horizontal,"(890.0, 762.0)",0.45,0.49,1,1920.895,3,0.04,same
0,350,valid,"[(1141, 799)]",[],[1],[],horizontal,"(890.0, 262.0)",,"('cti', 1.477)",0,1925.848,0,0.04,same
0,351,valid,"[(1141, 791)]",[],[1],[0.6],horizontal,"(890.0, 262.0)",1.0,0.555,1,1930.638,1,0.04,same
0,352,valid,"[(1132, 814)]",[],[1],[0.55],horizontal,"(390.0, 762.0)",1.35,0.512,1,1935.921,1,0.04,same
0,353,valid,"[(1136, 792)]",[],[1],[0.55],vertical,"(890.0, 262.0)",1.4166666666666667,0.503,1,1941.438,1,0.04,same
0,354,invalid_adjacent_other_bar,"[(1151, 792)]",[],[1],[0.85],horizontal,"(390.0, 762.0)",0.8,nan,0,1946.9,0,0.04,other
0,355,invalid_same_bar,"[(1145, 791)]",[],[1],[0.7666666666666666],vertical,"(890.0, 762.0)",1.15,0.715,1,1951.706,1,0.04,same
0,356,catch,"[(1160, 796)]",[],[1],[],vertical,"(390.0, 762.0)",1.7,nan,1,1956.784,1,0.04,same
0,357,valid,"[(1161, 815)]",[],[1],[0.6166666666666667],horizontal,"(890.0, 262.0)",0.8166666666666667,0.58,1,1961.864,1,0.04,same
0,358,invalid_same_bar,"[(1141, 805)]",[],[1],[0.6333333333333333],horizontal,"(390.0, 762.0)",0.8833333333333333,0.587,1,1967.054,2,0.02,same
0,359,catch,"[(1166, 793)]",[],[1],[],horizontal,"(890.0, 762.0)",1.7,nan,1,1972.373,2,0.02,same
0,360,valid,"[(1168, 797)]",[],[1],[0.48333333333333334],vertical,"(890.0, 262.0)",1.35,0.45,1,1978.003,2,0.02,same
0,361,valid,"[(1160, 807)]",[],[1],[0.5166666666666666],horizontal,"(890.0, 762.0)",0.5333333333333333,0.477,1,1984.328,3,0.02,same
0,362,valid,"[(1162, 812)]",[],[1],[0.8166666666666667],vertical,"(390.0, 262.0)",0.8666666666666667,0.768,1,1989.555,3,0.02,same
0,363,catch,"[(1159, 794)]",[],[1],[],vertical,"(390.0, 762.0)",1.7,nan,1,1995.401,3,0.02,same
0,364,valid,"[(1158, 788)]",[],[1],[0.6],vertical,"(390.0, 762.0)",1.45,0.559,1,2001.123,3,0.02,same
0,365,valid,"[(1162, 792)]",[],[1],[0.55],vertical,"(390.0, 262.0)",0.8,0.513,1,2007.107,3,0.02,same
0,366,invalid_adjacent_other_bar,"[(1159, 790)]",[],[1],[0.85],horizontal,"(390.0, 762.0)",1.0666666666666667,nan,0,2012.806,0,0.02,other
0,367,valid,"[(1136, 796)]",[],[1],[0.65],vertical,"(390.0, 762.0)",0.5666666666666667,0.604,1,2017.823,1,0.02,same
0,368,catch,"[(1144, 817)]",[],[1],[],vertical,"(390.0, 762.0)",1.7,nan,1,2022.372,1,0.02,same
0,369,valid,"[(1150, 804)]",[],[1],[0.55],horizontal,"(390.0, 762.0)",1.1666666666666667,0.508,1,2028.34,1,0.02,same
0,370,valid,"[(1139, 803)]",[],[1],[0.6833333333333333],vertical,"(390.0, 262.0)",1.1666666666666667,0.64,1,2033.533,2,0.02,same
0,371,catch,"[(1159, 811)]",[],[1],[],horizontal,"(890.0, 762.0)",1.7,nan,1,2039.346,2,0.02,same
0,372,valid,"[(1158, 792)]",[],[1],[0.5333333333333333],horizontal,"(890.0, 762.0)",0.9166666666666666,0.49,1,2045.289,2,0.02,same
0,373,valid,"[(1144, 806)]",[],[1],[0.5166666666666666],vertical,"(890.0, 262.0)",1.0166666666666666,0.481,1,2050.505,3,0.02,same
0,374,valid,"[(1142, 778)]",[],[1],[0.75],vertical,"(390.0, 762.0)",0.9833333333333333,0.703,1,2056.631,3,0.02,same
0,375,valid,"[(1141, 774)]",[],[1],[0.5166666666666666],vertical,"(890.0, 262.0)",0.9333333333333333,0.476,1,2062.495,3,0.02,same
0,376,valid,"[(1131, 802)]",[],[1],[0.5166666666666666],vertical,"(890.0, 262.0)",0.8166666666666667,0.473,1,2068.04,3,0.02,same
0,377,catch,"[(1160, 801)]",[],[1],[],vertical,"(390.0, 262.0)",1.7,nan,1,2073.54,3,0.02,same
0,378,valid,"[(1140, 785)]",[],[1],[0.3833333333333333],vertical,"(390.0, 262.0)",1.3833333333333333,0.351,1,2079.712,3,0.02,same
0,379,catch,"[(1141, 791)]",[],[1],[],vertical,"(890.0, 262.0)",1.7,nan,1,2085.457,3,0.02,same
0,380,catch,"[(1159, 785)]",[],[1],[],vertical,"(390.0, 762.0)",1.7,nan,1,2091.896,3,0.02,same
0,381,valid,"[(1161, 773)]",[],[1],[0.6],horizontal,"(390.0, 762.0)",1.2166666666666666,0.557,1,2097.439,3,0.02,same
0,382,valid,"[(1131, 790)]",[],[1],[0.5],horizontal,"(890.0, 262.0)",1.3166666666666667,0.459,1,2103.285,3,0.02,same
0,383,catch,"[(1141, 791)]",[],[1],[],horizontal,"(890.0, 762.0)",1.7,nan,1,2109.631,3,0.02,same
0,384,catch,"[(1159, 797)]",[],[1],[],vertical,"(890.0, 262.0)",1.7,nan,1,2115.273,3,0.02,same
0,385,catch,"[(1159, 794)]",[],[1],[],vertical,"(890.0, 262.0)",1.7,nan,1,2121.176,3,0.02,same
0,386,valid,"[(1170, 820)]",[],[1],[0.55],vertical,"(390.0, 762.0)",1.35,0.511,1,2127.636,3,0.02,same
0,387,valid,"[(1161, 787)]",[],[1],[0.48333333333333334],horizontal,"(390.0, 762.0)",1.3833333333333333,0.439,1,2133.665,3,0.02,same
0,388,valid,"[(1141, 781)]",[],[1],[0.7],vertical,"(890.0, 262.0)",0.43333333333333335,0.655,1,2139.846,3,0.02,same
0,389,valid,"[(1131, 864)]",[],[1],[0.6166666666666667],vertical,"(390.0, 762.0)",0.8166666666666667,0.577,1,2145.172,3,0.02,same
0,390,valid,"[(1160, 837)]",[],[1],[0.5166666666666666],horizontal,"(390.0, 262.0)",1.4166666666666667,0.478,1,2190.648,3,0.02,same
0,391,valid,"[(1156, 816)]",[],[1],[0.55],horizontal,"(890.0, 762.0)",0.55,0.503,1,2196.776,3,0.0,same
0,392,valid,"[(1161, 795)]",[],[1],[0.5666666666666667],vertical,"(890.0, 262.0)",1.15,0.523,1,2201.991,3,0.0,same
0,393,catch,"[(1141, 806)]",[],[1],[],horizontal,"(390.0, 262.0)",1.7,nan,1,2207.723,3,0.0,same
0,394,catch,"[(1160, 812)]",[],[1],[],horizontal,"(890.0, 762.0)",1.7,nan,1,2213.796,3,0.0,same
0,395,catch,"[(1176, 796)]",[],[1],[],vertical,"(890.0, 762.0)",1.7,nan,1,2219.758,3,0.0,same
0,396,valid,"[(1160, 816)]",[],[1],[0.5333333333333333],vertical,"(890.0, 262.0)",1.2833333333333332,0.49,1,2225.71,3,0.0,same
0,397,valid,"[(1161, 806)]",[],[1],[0.7166666666666667],vertical,"(390.0, 762.0)",0.9,0.675,1,2232.015,3,0.0,same
0,398,valid,"[(1161, 812)]",[],[1],[0.6166666666666667],horizontal,"(890.0, 262.0)",1.3833333333333333,0.575,1,2238.078,3,0.0,same
0,399,catch,"[(1157, 783)]",[],[1],[],horizontal,"(390.0, 262.0)",1.7,nan,1,2244.207,3,0.0,same
0,400,catch,"[(1134, 817)]",[],[1],[],vertical,"(890.0, 262.0)",1.7,nan,1,2249.841,3,0.0,same
0,401,valid,"[(1160, 815)]",[],[1],[0.65],horizontal,"(390.0, 262.0)",1.1666666666666667,0.601,1,2258.623,3,0.0,same
0,402,catch,"[(1159, 812)]",[],[1],[],horizontal,"(890.0, 762.0)",1.7,nan,1,2264.573,3,0.0,same
0,403,valid,"[(1151, 801)]",[],[1],[0.6166666666666667],vertical,"(890.0, 262.0)",0.45,0.569,1,2270.49,3,0.0,same
0,404,valid,"[(1160, 812)]",[],[1],[0.5666666666666667],vertical,"(890.0, 262.0)",1.3833333333333333,0.527,1,2275.839,3,0.0,same
0,405,valid,"[(1160, 790)]",[],[1],[0.6],horizontal,"(890.0, 762.0)",1.2,0.56,1,2281.738,3,0.0,same
0,406,valid,"[(1170, 784)]",[],[1],[0.6666666666666666],vertical,"(890.0, 262.0)",0.95,0.621,1,2287.507,3,0.0,same
0,407,valid,"[(1160, 796)]",[],[1],[0.55],vertical,"(890.0, 262.0)",1.0833333333333333,0.507,1,2293.09,3,0.0,same
0,408,invalid_adjacent_other_bar,"[(1154, 815)]",[],[1],[0.7333333333333333],vertical,"(390.0, 262.0)",1.1666666666666667,0.689,1,2298.759,3,0.0,other
0,409,valid,"[(1151, 791)]",[],[1],[0.6],horizontal,"(390.0, 762.0)",0.8833333333333333,0.555,1,2305.191,3,0.0,same
0,410,catch,"[(1154, 786)]",[],[1],[],vertical,"(890.0, 262.0)",1.7,nan,1,2310.64,3,0.0,same
0,411,valid,"[(1153, 792)]",[],[1],[0.5],horizontal,"(390.0, 262.0)",0.8333333333333334,0.461,1,2316.591,3,0.0,same
0,412,catch,"[(1159, 798)]",[],[1],[],vertical,"(390.0, 262.0)",1.7,nan,1,2322.074,3,0.0,same
0,413,valid,"[(1158, 800)]",[],[1],[0.55],horizontal,"(890.0, 762.0)",1.3166666666666667,0.506,1,2327.907,3,0.0,same
0,414,valid,"[(1161, 799)]",[],[1],[],horizontal,"(390.0, 262.0)",,"('cti', 1.33)",0,2334.09,0,0.0,same
0,415,valid,"[(1136, 797)]",[],[1],[0.5333333333333333],horizontal,"(390.0, 262.0)",0.9333333333333333,0.499,1,2338.668,1,0.0,same
0,416,valid,"[(1160, 782)]",[],[1],[0.5833333333333334],horizontal,"(890.0, 262.0)",0.8,0.544,1,2343.4,1,0.0,same
0,417,valid,"[(1147, 786)]",[],[1],[0.6166666666666667],horizontal,"(390.0, 762.0)",0.7666666666666666,0.575,1,2348.091,1,0.0,same
0,418,valid,"[(1144, 806)]",[],[1],[0.7],horizontal,"(890.0, 262.0)",0.4666666666666667,0.651,1,2352.873,2,0.0,same
0,419,invalid_same_bar,"[(1141, 830)]",[],[1],[0.55],horizontal,"(890.0, 762.0)",0.3833333333333333,0.505,1,2358.112,2,0.0,same
0,420,catch,"[(1141, 821)]",[],[1],[],horizontal,"(390.0, 262.0)",1.7,nan,1,2362.923,2,0.0,same
0,421,catch,"[(1160, 804)]",[],[1],[],horizontal,"(890.0, 762.0)",1.7,nan,1,2368.881,3,0.0,same
0,422,valid,"[(1158, 794)]",[],[1],[0.6333333333333333],vertical,"(890.0, 262.0)",1.25,0.584,1,2374.873,3,0.0,same
0,423,valid,"[(1152, 795)]",[],[1],[0.31666666666666665],horizontal,"(890.0, 762.0)",1.4833333333333334,0.28,1,2381.21,3,0.0,same
0,424,catch,"[(1160, 802)]",[],[1],[],horizontal,"(890.0, 262.0)",1.7,nan,1,2387.56,3,0.0,same
0,425,valid,"[(1146, 793)]",[],[1],[0.7833333333333333],vertical,"(890.0, 762.0)",0.8833333333333333,0.743,1,2393.66,3,0.0,same
0,426,invalid_adjacent_other_bar,"[(1161, 810)]",[],[1],[0.5833333333333334],horizontal,"(390.0, 262.0)",1.3166666666666667,0.542,1,2399.942,3,0.0,other
0,427,valid,"[(1134, 783)]",[],[1],[0.6166666666666667],vertical,"(890.0, 262.0)",1.1833333333333333,0.573,1,2405.939,3,0.0,same
0,428,catch,"[(1160, 806)]",[],[1],[],horizontal,"(890.0, 262.0)",1.7,nan,1,2412.181,3,0.0,same
0,429,valid,"[(1160, 783)]",[],[1],[0.6],horizontal,"(390.0, 262.0)",0.6833333333333333,0.551,1,2418.499,3,0.0,same
0,430,valid,"[(1165, 806)]",[],[1],[0.36666666666666664],vertical,"(390.0, 762.0)",1.5333333333333332,0.33,1,2424.24,3,0.0,same
0,431,catch,"[(1159, 796)]",[],[1],[],horizontal,"(890.0, 262.0)",,"('cti', 1.5),nan",0,2430.066,0,0.02,same
0,432,valid,"[(1135, 806)]",[],[1],[0.7666666666666666],vertical,"(390.0, 762.0)",1.25,0.718,1,2434.925,1,0.02,same
0,433,valid,"[(1159, 776)]",[],[1],[0.75],vertical,"(390.0, 262.0)",1.15,0.707,1,2440.094,1,0.02,same
0,434,invalid_same_bar,"[(1148, 788)]",[],[1],[0.7333333333333333],horizontal,"(890.0, 762.0)",0.4166666666666667,0.686,1,2445.792,1,0.02,same
0,435,valid,"[(1171, 803)]",[],[1],[0.65],horizontal,"(890.0, 762.0)",1.3,0.604,1,2450.384,2,0.02,same
0,436,valid,"[(1160, 790)]",[],[1],[0.5666666666666667],horizontal,"(890.0, 762.0)",1.1666666666666667,0.527,1,2456.391,2,0.02,same
0,437,valid,"[(1167, 777)]",[],[1],[0.5666666666666667],horizontal,"(390.0, 762.0)",1.2,0.526,1,2461.703,2,0.02,same
0,438,valid,"[(1153, 791)]",[],[1],[0.6333333333333333],vertical,"(390.0, 762.0)",1.1833333333333333,0.594,1,2467.491,3,0.02,same
0,439,valid,"[(1147, 811)]",[],[1],[0.43333333333333335],vertical,"(890.0, 762.0)",1.4833333333333334,0.405,1,2473.424,3,0.02,same
0,440,valid,"[(1142, 781)]",[],[1],[0.5166666666666666],horizontal,"(390.0, 262.0)",0.7,0.473,1,2480.175,3,0.02,same
0,441,valid,"[(1157, 769)]",[],[1],[0.5666666666666667],horizontal,"(390.0, 762.0)",0.9333333333333333,0.527,1,2485.344,3,0.02,same
0,442,catch,"[(1164, 791)]",[],[1],[],vertical,"(390.0, 262.0)",1.7,nan,1,2491.092,3,0.02,same
0,443,valid,"[(1163, 788)]",[],[1],[0.75],vertical,"(890.0, 762.0)",0.5833333333333334,0.709,1,2496.759,3,0.02,same
0,444,valid,"[(1161, 786)]",[],[1],[0.6],vertical,"(890.0, 262.0)",1.5,0.557,1,2502.504,3,0.02,same
0,445,valid,"[(1163, 792)]",[],[1],[0.6],vertical,"(890.0, 262.0)",1.2333333333333334,0.553,1,2508.691,3,0.02,same
0,446,catch,"[(1151, 788)]",[],[1],[],horizontal,"(390.0, 762.0)",1.7,nan,1,2514.808,3,0.02,same
0,447,valid,"[(1151, 786)]",[],[1],[0.6666666666666666],vertical,"(390.0, 262.0)",0.45,0.622,1,2520.441,3,0.02,same
0,448,invalid_same_bar,"[(1160, 778)]",[],[1],[0.65],vertical,"(390.0, 262.0)",1.15,0.612,1,2525.625,3,0.02,same
0,449,valid,"[(1161, 786)]",[],[1],[0.55],horizontal,"(890.0, 262.0)",1.0833333333333333,0.516,1,2531.889,3,0.02,same
0,450,valid,"[(1161, 806)]",[],[1],[0.5666666666666667],horizontal,"(390.0, 762.0)",1.05,0.527,1,2537.69,3,0.02,same
0,451,valid,"[(1160, 795)]",[],[1],[0.7333333333333333],horizontal,"(890.0, 262.0)",0.7166666666666667,0.685,1,2543.875,3,0.02,same
0,452,valid,"[(1167, 791)]",[],[1],[0.5166666666666666],horizontal,"(890.0, 762.0)",1.25,0.483,1,2549.359,3,0.02,same
0,453,valid,"[(1156, 815)]",[],[1],[0.6833333333333333],vertical,"(890.0, 762.0)",0.6666666666666666,0.64,1,2555.488,3,0.02,same
0,454,catch,"[(1159, 791)]",[],[1],[],horizontal,"(390.0, 762.0)",1.7,nan,1,2560.932,3,0.02,same
0,455,invalid_adjacent_other_bar,"[(1136, 792)]",[],[1],[0.85],vertical,"(890.0, 262.0)",0.35,nan,0,2567.141,0,0.02,other
0,456,valid,"[(1126, 816)]",[],[1],[0.5166666666666666],horizontal,"(890.0, 262.0)",1.1,0.471,1,2571.441,1,0.02,same
0,457,catch,"[(1164, 783)]",[],[1],[],vertical,"(890.0, 262.0)",1.7,nan,1,2576.54,1,0.02,same
0,458,valid,"[(1163, 778)]",[],[1],[0.5833333333333334],vertical,"(390.0, 262.0)",1.0833333333333333,0.541,1,2581.924,1,0.02,same
0,459,catch,"[(1160, 773)]",[],[1],[],horizontal,"(390.0, 262.0)",1.7,nan,1,2586.736,2,0.02,same
0,460,valid,"[(1156, 802)]",[],[1],[0.55],vertical,"(890.0, 262.0)",0.9666666666666667,0.506,1,2592.607,2,0.02,same
0,461,valid,"[(1131, 802)]",[],[1],[0.6166666666666667],vertical,"(390.0, 262.0)",1.15,0.567,1,2597.936,2,0.02,same
0,462,valid,"[(1165, 786)]",[],[1],[0.6333333333333333],horizontal,"(390.0, 762.0)",1.0833333333333333,0.59,1,2603.463,3,0.02,same
0,463,catch,"[(1131, 800)]",[],[1],[],horizontal,"(890.0, 262.0)",1.7,nan,1,2609.624,3,0.02,same
0,464,valid,"[(1166, 796)]",[],[1],[0.48333333333333334],horizontal,"(890.0, 262.0)",1.3333333333333333,0.445,1,2615.174,3,0.02,same
0,465,catch,"[(1160, 806)]",[],[1],[],horizontal,"(390.0, 262.0)",1.7,nan,1,2621.108,3,0.02,same
0,466,valid,"[(1160, 812)]",[],[1],[0.6166666666666667],horizontal,"(890.0, 262.0)",0.43333333333333335,0.58,1,2626.975,3,0.02,same
0,467,catch,"[(1162, 786)]",[],[1],[],horizontal,"(390.0, 762.0)",1.7,"('cti', 1.693),nan",0,2632.592,0,0.04,same
0,468,catch,"[(1133, 803)]",[],[1],[],horizontal,"(390.0, 762.0)",1.7,nan,1,2637.465,1,0.04,same
0,469,valid,"[(1161, 798)]",[],[1],[0.65],vertical,"(390.0, 762.0)",1.1166666666666667,0.606,1,2642.841,1,0.04,same
0,470,valid,"[(1158, 795)]",[],[1],[0.6833333333333333],vertical,"(390.0, 262.0)",1.05,0.643,1,2648.565,1,0.04,same
0,471,valid,"[(1163, 786)]",[],[1],[0.5333333333333333],vertical,"(890.0, 762.0)",1.0333333333333332,0.493,1,2653.975,2,0.04,same
0,472,invalid_same_bar,"[(1164, 795)]",[],[1],[0.6833333333333333],horizontal,"(390.0, 262.0)",1.25,0.64,1,2659.295,2,0.04,same
0,473,valid,"[(1160, 791)]",[],[1],[0.6333333333333333],vertical,"(890.0, 762.0)",0.8833333333333333,0.591,1,2665.098,2,0.04,same
0,474,valid,"[(1160, 801)]",[],[1],[0.85],horizontal,"(890.0, 762.0)",0.9833333333333333,nan,0,2670.396,0,0.04,same
0,475,valid,"[(1144, 798)]",[],[1],[0.5666666666666667],horizontal,"(390.0, 262.0)",0.55,0.518,1,2675.291,1,0.04,same
0,476,catch,"[(1147, 793)]",[],[1],[],vertical,"(890.0, 762.0)",1.7,nan,1,2679.948,1,0.04,same
0,477,catch,"[(1163, 791)]",[],[1],[],vertical,"(890.0, 262.0)",1.7,nan,1,2685.341,1,0.04,same
0,478,valid,"[(1170, 783)]",[],[1],[0.7],vertical,"(890.0, 762.0)",1.1333333333333333,0.654,1,2690.393,2,0.04,same
0,479,valid,"[(1163, 782)]",[],[1],[0.5166666666666666],horizontal,"(390.0, 262.0)",0.5833333333333334,0.487,1,2696.118,2,0.04,same
0,480,valid,"[(1165, 786)]",[],[1],[0.6333333333333333],horizontal,"(390.0, 762.0)",0.7166666666666667,0.591,1,2700.858,2,0.04,same
0,481,catch,"[(1138, 807)]",[],[1],[],vertical,"(390.0, 762.0)",1.7,nan,1,2705.941,3,0.02,same
0,482,catch,"[(1159, 791)]",[],[1],[],horizontal,"(390.0, 262.0)",1.7,nan,1,2712.191,3,0.02,same
0,483,catch,"[(1160, 784)]",[],[1],[],horizontal,"(890.0, 262.0)",1.7,nan,1,2718.483,3,0.02,same
0,484,valid,"[(1156, 786)]",[],[1],[0.5666666666666667],horizontal,"(890.0, 762.0)",0.6166666666666667,0.521,1,2724.81,3,0.02,same
0,485,valid,"[(1162, 798)]",[],[1],[0.48333333333333334],vertical,"(890.0, 262.0)",0.5,0.442,1,2730.363,3,0.02,same
0,486,invalid_adjacent_other_bar,"[(1136, 777)]",[],[1],[0.5333333333333333],vertical,"(390.0, 262.0)",0.7833333333333333,0.49,1,2735.586,3,0.02,other
0,487,catch,"[(1145, 782)]",[],[1],[],horizontal,"(890.0, 262.0)",1.7,nan,1,2740.942,3,0.02,same
0,488,valid,"[(1142, 785)]",[],[1],[0.5333333333333333],vertical,"(390.0, 762.0)",0.95,0.491,1,2747.117,3,0.02,same
0,489,invalid_adjacent_other_bar,"[(1134, 785)]",[],[1],[0.2833333333333333],vertical,"(890.0, 262.0)",1.0333333333333332,0.243,1,2753.008,3,0.02,other
0,490,valid,"[(1163, 775)]",[],[1],[0.48333333333333334],vertical,"(890.0, 262.0)",1.4166666666666667,0.443,1,2758.804,3,0.02,same
0,491,valid,"[(1137, 786)]",[],[1],[0.5333333333333333],vertical,"(890.0, 762.0)",1.05,0.493,1,2764.808,3,0.02,same
0,492,valid,"[(1153, 782)]",[],[1],[0.5],horizontal,"(390.0, 262.0)",0.9166666666666666,0.458,1,2770.596,3,0.02,same
0,493,valid,"[(1162, 795)]",[],[1],[0.48333333333333334],vertical,"(390.0, 262.0)",1.4333333333333333,0.447,1,2775.944,3,0.02,same
0,494,catch,"[(1139, 785)]",[],[1],[],horizontal,"(890.0, 262.0)",1.7,nan,1,2782.277,3,0.02,same
0,495,valid,"[(1160, 793)]",[],[1],[0.6333333333333333],horizontal,"(390.0, 762.0)",1.2666666666666666,0.586,1,2788.076,3,0.02,same
0,496,valid,"[(1150, 786)]",[],[1],[0.5],vertical,"(390.0, 262.0)",0.9666666666666667,0.454,1,2793.98,3,0.02,same
0,497,valid,"[(1152, 791)]",[],[1],[0.5666666666666667],horizontal,"(390.0, 262.0)",0.9,0.523,1,2799.818,3,0.02,same
0,498,valid,"[(1140, 791)]",[],[1],[0.65],horizontal,"(390.0, 762.0)",1.4333333333333333,0.604,1,2805.682,3,0.02,same
0,499,valid,"[(1134, 775)]",[],[1],[0.5833333333333334],vertical,"(890.0, 762.0)",1.3333333333333333,0.532,1,2811.818,3,0.02,same
0,500,valid,"[(1139, 786)]",[],[1],[0.6666666666666666],horizontal,"(390.0, 762.0)",0.6166666666666667,0.615,1,2818.041,3,0.02,same
0,501,valid,"[(1162, 781)]",[],[1],[0.6],horizontal,"(890.0, 262.0)",0.6666666666666666,0.551,1,2823.355,3,0.02,same
0,502,valid,"[(1160, 781)]",[],[1],[0.7333333333333333],vertical,"(390.0, 762.0)",1.0833333333333333,0.686,1,2828.655,3,0.02,same
0,503,valid,"[(1160, 785)]",[],[1],[0.65],vertical,"(390.0, 762.0)",1.1333333333333333,0.623,1,2834.954,3,0.02,same
0,504,valid,"[(1136, 785)]",[],[1],[0.5166666666666666],horizontal,"(390.0, 762.0)",0.75,0.478,1,2840.843,3,0.02,same
0,505,catch,"[(1162, 796)]",[],[1],[],vertical,"(890.0, 762.0)",1.7,nan,1,2846.093,3,0.02,same
0,506,valid,"[(1149, 781)]",[],[1],[0.55],horizontal,"(390.0, 262.0)",0.7,0.508,1,2851.862,3,0.02,same
0,507,valid,"[(1148, 781)]",[],[1],[0.65],horizontal,"(890.0, 262.0)",0.48333333333333334,0.604,1,2857.532,3,0.02,same
0,508,valid,"[(1136, 783)]",[],[1],[0.75],vertical,"(890.0, 262.0)",0.4666666666666667,0.703,1,2862.609,3,0.02,same
0,509,valid,"[(1131, 777)]",[],[1],[0.5333333333333333],horizontal,"(390.0, 262.0)",1.0,0.488,1,2868.327,3,0.02,same
0,510,catch,"[(1131, 770)]",[],[1],[],vertical,"(890.0, 262.0)",1.7,nan,1,2874.127,3,0.02,same
0,511,catch,"[(1159, 787)]",[],[1],[],horizontal,"(390.0, 762.0)",1.7,nan,1,2880.319,3,0.02,same
0,512,valid,"[(1133, 789)]",[],[1],[0.6666666666666666],horizontal,"(390.0, 762.0)",1.15,0.619,1,2886.243,3,0.02,same
0,513,valid,"[(1111, 780)]",[],[1],[0.85],vertical,"(390.0, 262.0)",0.5666666666666667,nan,0,2892.076,0,0.02,same
0,514,valid,"[(1143, 791)]",[],[1],[0.6],vertical,"(890.0, 762.0)",0.6833333333333333,0.553,1,2896.509,1,0.02,same
0,515,valid,"[(1137, 792)]",[],[1],[0.5333333333333333],vertical,"(890.0, 262.0)",0.9,0.486,1,2901.576,1,0.02,same
0,516,valid,"[(1170, 776)]",[],[1],[0.5166666666666666],vertical,"(890.0, 762.0)",0.4666666666666667,0.472,1,2906.693,1,0.02,same
0,517,catch,"[(1174, 766)]",[],[1],[],vertical,"(390.0, 762.0)",1.7,nan,1,2911.235,2,0.0,same
0,518,catch,"[(1165, 793)]",[],[1],[],vertical,"(890.0, 262.0)",1.7,nan,1,2916.576,2,0.0,same
0,519,valid,"[(1160, 774)]",[],[1],[0.7],vertical,"(890.0, 762.0)",1.1,0.653,1,2922.209,2,0.0,same
0,520,catch,"[(1121, 780)]",[],[1],[0.03333333333333333],horizontal,"(890.0, 262.0)",1.7,"0.019,nan",0,2928.126,0,0.02,same
0,521,catch,"[(1141, 812)]",[],[1],[],horizontal,"(390.0, 762.0)",1.7,nan,1,2933.179,1,0.02,same
0,522,invalid_adjacent_other_bar,"[(1136, 798)]",[],[1],[0.7333333333333333],vertical,"(390.0, 262.0)",1.2666666666666666,0.685,1,2939.287,1,0.02,other
0,523,catch,"[(1148, 770)]",[],[1],[],horizontal,"(890.0, 762.0)",1.7,nan,1,2944.543,1,0.02,same
0,524,valid,"[(1136, 792)]",[],[1],[0.65],vertical,"(890.0, 262.0)",0.7166666666666667,0.606,1,2949.859,2,0.02,same
0,525,valid,"[(1173, 783)]",[],[1],[0.5666666666666667],vertical,"(890.0, 762.0)",0.35,0.538,1,2955.502,2,0.02,same
0,526,valid,"[(1131, 779)]",[],[1],[0.55],vertical,"(890.0, 762.0)",0.8,0.509,1,2960.642,2,0.02,same
0,527,valid,"[(1144, 790)]",[],[1],[0.85],horizontal,"(390.0, 762.0)",0.45,nan,0,2966.077,0,0.02,same
0,528,valid,"[(1136, 802)]",[],[1],[0.85],vertical,"(390.0, 762.0)",0.7666666666666666,nan,0,2970.495,0,0.02,same
0,529,valid,"[(1130, 780)]",[],[1],[0.85],horizontal,"(390.0, 762.0)",0.7666666666666666,nan,0,2975.544,0,0.02,same
0,530,valid,"[(1081, 806)]",[],[1],[0.6333333333333333],vertical,"(390.0, 762.0)",0.7,0.589,1,2979.796,1,0.02,same
0,531,valid,"[(1160, 798)]",[],[1],[0.6166666666666667],horizontal,"(890.0, 262.0)",1.1666666666666667,0.578,1,2986.209,1,0.02,same
0,532,valid,"[(1163, 812)]",[],[1],[0.5166666666666666],vertical,"(390.0, 262.0)",0.35,0.473,1,2991.764,1,0.02,same
0,533,valid,"[(1159, 811)]",[],[1],[0.8],vertical,"(390.0, 262.0)",0.43333333333333335,0.754,1,2996.248,2,0.02,same
0,534,valid,"[(1160, 783)]",[],[1],[0.6],vertical,"(390.0, 262.0)",0.65,0.559,1,3001.282,2,0.02,same
0,535,valid,"[(1163, 797)]",[],[1],[0.5],horizontal,"(890.0, 762.0)",0.6666666666666666,0.459,1,3006.51,2,0.02,same
0,536,valid,"[(1160, 797)]",[],[1],[0.65],vertical,"(890.0, 762.0)",0.75,0.603,1,3011.626,3,0.02,same
0,537,valid,"[(1161, 810)]",[],[1],[0.55],vertical,"(890.0, 762.0)",1.0333333333333332,0.508,1,3017.843,3,0.02,same
0,538,invalid_same_bar,"[(1141, 793)]",[],[1],[0.5666666666666667],vertical,"(390.0, 762.0)",1.1,0.521,1,3024.346,3,0.02,same
0,539,valid,"[(1141, 802)]",[],[1],[0.5833333333333334],vertical,"(890.0, 262.0)",0.75,0.541,1,3030.042,3,0.02,same
0,540,valid,"[(1159, 792)]",[],[1],[0.5],horizontal,"(390.0, 262.0)",0.95,0.452,1,3035.317,3,0.02,same
0,541,valid,"[(1153, 773)]",[],[1],[0.5333333333333333],horizontal,"(890.0, 262.0)",0.3833333333333333,0.493,1,3040.796,3,0.02,same
0,542,valid,"[(1141, 816)]",[],[1],[0.6166666666666667],horizontal,"(890.0, 762.0)",1.1833333333333333,0.572,1,3046.302,3,0.02,same
0,543,valid,"[(1138, 799)]",[],[1],[0.5833333333333334],horizontal,"(390.0, 762.0)",0.5,0.544,1,3052.794,3,0.02,same
0,544,catch,"[(1139, 791)]",[],[1],[],vertical,"(390.0, 762.0)",1.7,nan,1,3058.044,3,0.02,same
0,545,catch,"[(1160, 790)]",[],[1],[],horizontal,"(390.0, 262.0)",1.7,nan,1,3063.943,3,0.02,same
0,546,valid,"[(1138, 788)]",[],[1],[0.48333333333333334],vertical,"(390.0, 762.0)",1.2166666666666666,0.448,1,3070.211,3,0.02,same
0,547,valid,"[(1160, 796)]",[],[1],[0.5666666666666667],horizontal,"(390.0, 262.0)",0.7666666666666666,0.526,1,3078.201,3,0.02,same
0,548,valid,"[(1163, 781)]",[],[1],[0.6333333333333333],horizontal,"(890.0, 762.0)",1.3833333333333333,0.584,1,3084.344,3,0.02,same
0,549,catch,"[(1160, 789)]",[],[1],[],horizontal,"(390.0, 262.0)",1.7,nan,1,3090.579,3,0.02,same
0,550,catch,"[(1160, 782)]",[],[1],[],horizontal,"(890.0, 762.0)",1.7,nan,1,3096.434,3,0.02,same
0,551,valid,"[(1160, 800)]",[],[1],[0.5],vertical,"(890.0, 262.0)",0.9,0.463,1,3102.577,3,0.02,same
0,552,valid,"[(1158, 796)]",[],[1],[0.5],vertical,"(890.0, 762.0)",1.3666666666666667,0.467,1,3108.277,3,0.02,same
0,553,valid,"[(1160, 807)]",[],[1],[0.7166666666666667],vertical,"(890.0, 262.0)",0.4166666666666667,0.671,1,3114.679,3,0.02,same
0,554,valid,"[(1161, 779)]",[],[1],[0.5166666666666666],horizontal,"(390.0, 262.0)",1.5,0.476,1,3119.877,3,0.02,same
0,555,valid,"[(1160, 787)]",[],[1],[0.5666666666666667],vertical,"(390.0, 262.0)",0.95,0.523,1,3126.027,3,0.02,same
0,556,valid,"[(1140, 811)]",[],[1],[0.5166666666666666],vertical,"(390.0, 762.0)",0.9833333333333333,0.473,1,3131.777,3,0.02,same
0,557,valid,"[(1160, 778)]",[],[1],[0.5666666666666667],horizontal,"(390.0, 762.0)",0.5333333333333333,0.527,1,3137.555,3,0.02,same
0,558,valid,"[(1162, 782)]",[],[1],[0.5833333333333334],horizontal,"(390.0, 262.0)",1.3666666666666667,0.537,1,3143.102,3,0.02,same
0,559,valid,"[(1163, 780)]",[],[1],[0.3833333333333333],horizontal,"(390.0, 762.0)",1.5,0.346,1,3149.16,3,0.02,same
0,560,valid,"[(1160, 780)]",[],[1],[0.4666666666666667],horizontal,"(890.0, 262.0)",1.35,0.423,1,3154.946,3,0.02,same
0,561,valid,"[(1161, 791)]",[],[1],[0.5],horizontal,"(890.0, 262.0)",0.5166666666666666,0.459,1,3161.194,3,0.02,same
0,562,catch,"[(1146, 770)]",[],[1],[],horizontal,"(390.0, 262.0)",1.7,nan,1,3166.48,3,0.02,same
0,563,valid,"[(1160, 795)]",[],[1],[0.6],horizontal,"(890.0, 262.0)",1.1666666666666667,0.561,1,3172.56,3,0.02,same
0,564,catch,"[(1166, 799)]",[],[1],[],vertical,"(390.0, 262.0)",1.7,nan,1,3178.445,3,0.02,same
0,565,valid,"[(1164, 788)]",[],[1],[0.6666666666666666],horizontal,"(890.0, 262.0)",0.45,0.622,1,3184.01,3,0.02,same
0,566,catch,"[(1147, 770)]",[],[1],[],horizontal,"(890.0, 762.0)",1.7,nan,1,3189.743,3,0.02,same
0,567,valid,"[(1171, 802)]",[],[1],[0.8],vertical,"(890.0, 262.0)",1.0833333333333333,0.754,1,3196.093,3,0.02,same
0,568,valid,"[(1160, 778)]",[],[1],[0.7],horizontal,"(890.0, 762.0)",1.2333333333333334,0.658,1,3201.995,3,0.02,same
0,569,valid,"[(1160, 787)]",[],[1],[0.6666666666666666],vertical,"(390.0, 262.0)",0.5833333333333334,0.626,1,3208.193,3,0.02,same
0,570,valid,"[(1141, 811)]",[],[1],[0.5166666666666666],horizontal,"(890.0, 762.0)",0.65,0.475,1,3213.943,3,0.0,same
0,571,invalid_adjacent_other_bar,"[(1137, 777)]",[],[1],[0.5333333333333333],horizontal,"(390.0, 262.0)",1.3666666666666667,0.492,1,3220.211,3,0.0,other
0,572,valid,"[(1135, 772)]",[],[1],[0.7],vertical,"(890.0, 262.0)",1.1833333333333333,0.653,1,3226.636,3,0.0,same
0,573,valid,"[(1161, 811)]",[],[1],[0.5666666666666667],vertical,"(390.0, 762.0)",1.2,0.521,1,3233.069,3,0.0,same
0,574,valid,"[(1136, 779)]",[],[1],[0.5333333333333333],horizontal,"(390.0, 262.0)",0.5333333333333333,0.497,1,3239.162,3,0.0,same
0,575,valid,"[(1160, 779)]",[],[1],[0.6],vertical,"(890.0, 762.0)",1.3,0.559,1,3244.395,3,0.0,same
0,576,valid,"[(1164, 795)]",[],[1],[0.5],vertical,"(890.0, 762.0)",1.35,0.455,1,3250.794,3,0.0,same
0,577,valid,"[(1160, 762)]",[],[1],[0.6833333333333333],horizontal,"(890.0, 762.0)",1.1166666666666667,0.643,1,3256.87,3,0.0,same
0,578,invalid_adjacent_other_bar,"[(1136, 791)]",[],[1],[0.5333333333333333],vertical,"(890.0, 262.0)",0.75,0.496,1,3263.189,3,0.0,other
0,579,valid,"[(1134, 767)]",[],[1],[0.08333333333333333],horizontal,"(890.0, 762.0)",1.1166666666666667,0.052,0,3268.555,0,0.0,same
0,580,catch,"[(1136, 811)]",[],[1],[],vertical,"(390.0, 262.0)",1.7,nan,1,3272.895,1,0.0,same
0,581,valid,"[(1136, 808)]",[],[1],[0.65],vertical,"(390.0, 762.0)",1.1666666666666667,0.608,1,3278.054,1,0.0,same
0,582,valid,"[(1160, 780)]",[],[1],[0.6],horizontal,"(390.0, 262.0)",0.95,0.563,1,3283.295,1,0.0,same
0,583,catch,"[(1136, 776)]",[],[1],[],horizontal,"(890.0, 262.0)",1.7,nan,1,3288.422,2,0.0,same
0,584,catch,"[(1165, 785)]",[],[1],[],horizontal,"(390.0, 762.0)",1.7,nan,1,3294.309,2,0.0,same
0,585,valid,"[(1160, 783)]",[],[1],[0.85],horizontal,"(890.0, 262.0)",0.6666666666666666,nan,0,3299.729,0,0.0,same
0,586,valid,"[(1133, 788)]",[],[1],[0.5666666666666667],horizontal,"(890.0, 762.0)",1.2333333333333334,0.527,1,3304.503,1,0.0,same
0,587,valid,"[(1134, 785)]",[],[1],[0.6],horizontal,"(890.0, 262.0)",0.6666666666666666,0.562,1,3310.189,1,0.0,same
0,588,valid,"[(1151, 770)]",[],[1],[],vertical,"(390.0, 262.0)",,"('cti', 1.132)",0,3315.513,0,0.0,same
0,589,valid,"[(1146, 811)]",[],[1],[0.5166666666666666],horizontal,"(390.0, 762.0)",1.45,0.475,1,3319.794,1,0.0,same
0,590,valid,"[(1160, 802)]",[],[1],[0.6166666666666667],horizontal,"(890.0, 262.0)",1.3666666666666667,0.57,1,3325.424,1,0.0,same
0,591,valid,"[(1137, 783)]",[],[1],[0.5666666666666667],horizontal,"(890.0, 262.0)",1.0,0.523,1,3330.996,1,0.0,same
0,592,catch,"[(1134, 794)]",[],[1],[],vertical,"(390.0, 762.0)",1.7,nan,1,3335.994,2,0.0,same
0,593,catch,"[(1133, 783)]",[],[1],[],horizontal,"(390.0, 262.0)",1.7,nan,1,3341.542,2,0.0,same
0,594,valid,"[(1161, 776)]",[],[1],[0.55],horizontal,"(390.0, 262.0)",0.9166666666666666,0.518,1,3347.036,2,0.0,same
0,595,invalid_adjacent_other_bar,"[(1151, 809)]",[],[1],[0.85],vertical,"(390.0, 262.0)",0.48333333333333334,nan,0,3352.835,0,0.0,other
0,596,valid,"[(1121, 798)]",[],[1],[0.6333333333333333],horizontal,"(890.0, 262.0)",0.85,0.6,1,3357.228,1,0.0,same
0,597,catch,"[(1135, 787)]",[],[1],[],vertical,"(890.0, 262.0)",1.7,nan,1,3362.261,1,0.0,same
0,598,valid,"[(1139, 789)]",[],[1],[0.6],horizontal,"(390.0, 762.0)",0.9,0.563,1,3367.384,1,0.0,same
0,599,catch,"[(1135, 776)]",[],[1],[],vertical,"(390.0, 262.0)",1.7,nan,1,3372.515,2,0.0,same
0,600,valid,"[(1163, 806)]",[],[1],[0.6666666666666666],vertical,"(390.0, 262.0)",1.05,0.627,1,3378.016,2,0.0,same
0,601,valid,"[(1154, 811)]",[],[1],[0.5666666666666667],horizontal,"(390.0, 262.0)",1.5333333333333332,0.535,1,3383.596,2,0.0,same
0,602,catch,"[(1159, 799)]",[],[1],[],horizontal,"(890.0, 762.0)",1.7,nan,1,3389.61,3,0.0,same
0,603,valid,"[(1158, 797)]",[],[1],[0.7333333333333333],horizontal,"(390.0, 762.0)",0.5666666666666667,0.692,1,3395.849,3,0.0,same
0,604,valid,"[(1159, 786)]",[],[1],[0.2],horizontal,"(390.0, 762.0)",1.5333333333333332,0.169,0,3401.276,0,0.0,same
0,605,valid,"[(1132, 810)]",[],[1],[0.6],vertical,"(390.0, 762.0)",1.3833333333333333,0.564,1,3406.395,1,0.0,same
0,606,valid,"[(1153, 793)]",[],[1],[0.5333333333333333],vertical,"(390.0, 262.0)",1.3666666666666667,0.497,1,3413.612,1,0.0,same
0,607,valid,"[(1145, 787)]",[],[1],[0.5166666666666666],vertical,"(890.0, 762.0)",1.3,0.478,1,3419.246,1,0.0,same
0,608,valid,"[(1136, 783)]",[],[1],[0.6166666666666667],vertical,"(390.0, 762.0)",1.5166666666666666,0.576,1,3424.345,2,0.0,same
0,609,catch,"[(1156, 790)]",[],[1],[],horizontal,"(890.0, 762.0)",1.7,nan,1,3430.218,2,0.0,same
0,610,catch,"[(1137, 789)]",[],[1],[],horizontal,"(390.0, 262.0)",1.7,nan,1,3435.579,2,0.0,same
0,611,valid,"[(1162, 787)]",[],[1],[0.7166666666666667],vertical,"(890.0, 262.0)",1.1166666666666667,0.673,1,3441.261,3,0.0,same
0,612,valid,"[(1138, 786)]",[],[1],[0.5333333333333333],vertical,"(890.0, 762.0)",1.2166666666666666,0.491,1,3447.662,3,0.0,same
0,613,valid,"[(1131, 805)]",[],[1],[0.5833333333333334],horizontal,"(390.0, 762.0)",0.8166666666666667,0.543,1,3453.49,3,0.0,same
0,614,invalid_same_bar,"[(1140, 775)]",[],[1],[0.5166666666666666],vertical,"(890.0, 762.0)",1.3666666666666667,0.476,1,3458.928,3,0.0,same
0,615,catch,"[(1165, 775)]",[],[1],[],vertical,"(390.0, 762.0)",1.7,nan,1,3465.098,3,0.0,same
0,616,valid,"[(1136, 794)]",[],[1],[0.6166666666666667],vertical,"(890.0, 762.0)",0.55,0.572,1,3470.811,3,0.0,same
0,617,valid,"[(1139, 807)]",[],[1],[0.55],vertical,"(390.0, 762.0)",0.9,0.505,1,3475.895,3,0.0,same
0,618,valid,"[(1141, 814)]",[],[1],[0.5666666666666667],horizontal,"(390.0, 762.0)",0.85,0.523,1,3481.613,3,0.0,same
0,619,invalid_same_bar,"[(1138, 807)]",[],[1],[0.6666666666666666],horizontal,"(890.0, 262.0)",1.2,0.621,1,3487.463,3,0.0,same
0,620,valid,"[(1146, 798)]",[],[1],[0.85],horizontal,"(390.0, 762.0)",1.3833333333333333,nan,0,3493.648,0,0.0,same
0,621,invalid_adjacent_other_bar,"[(1156, 890)]",[],[1],[0.85],vertical,"(390.0, 762.0)",0.65,nan,0,3499.147,0,0.0,other
0,622,valid,"[(1136, 839)]",[],[1],[0.5],horizontal,"(890.0, 262.0)",0.95,0.457,1,4014.007,1,0.0,same
0,623,valid,"[(1143, 868)]",[],[1],[0.75],horizontal,"(390.0, 762.0)",1.0666666666666667,0.707,1,4018.737,1,0.0,same
0,624,catch,"[(1081, 863)]",[],[1],[],vertical,"(390.0, 762.0)",1.7,nan,1,4024.147,1,0.0,same
0,625,valid,"[(1153, 806)]",[],[1],[0.65],vertical,"(890.0, 762.0)",0.6,0.609,1,4030.498,2,0.0,same
0,626,invalid_adjacent_other_bar,"[(1145, 790)]",[],[1],[0.5166666666666666],vertical,"(390.0, 262.0)",0.6833333333333333,0.481,1,4035.981,2,0.0,other
0,627,valid,"[(1162, 782)]",[],[1],[0.5],horizontal,"(890.0, 762.0)",0.45,0.468,1,4040.769,2,0.0,same
0,628,valid,"[(1180, 796)]",[],[1],[0.85],horizontal,"(390.0, 762.0)",0.36666666666666664,nan,0,4045.447,0,0.0,same
0,629,valid,"[(1146, 803)]",[],[1],[0.7],horizontal,"(890.0, 762.0)",0.55,0.659,1,4049.663,1,0.0,same
0,630,valid,"[(1138, 797)]",[],[1],[0.7166666666666667],vertical,"(390.0, 762.0)",0.55,0.673,1,4054.714,1,0.0,same
0,631,valid,"[(1136, 765)]",[],[1],[0.5833333333333334],vertical,"(890.0, 262.0)",0.55,0.537,1,4059.432,1,0.0,same
0,632,valid,"[(1167, 796)]",[],[1],[0.5333333333333333],vertical,"(890.0, 762.0)",1.5,0.494,1,4064.234,2,0.0,same
0,633,valid,"[(1143, 816)]",[],[1],[0.75],vertical,"(890.0, 262.0)",1.0833333333333333,0.704,1,4069.983,2,0.0,same
0,634,valid,"[(1166, 817)]",[],[1],[0.55],horizontal,"(890.0, 762.0)",1.2666666666666666,0.515,1,4075.532,2,0.0,same
0,635,valid,"[(1168, 783)]","[(1132, 885)]",[1],[0.7833333333333333],horizontal,"(890.0, 262.0)",,"('bar', 0.785)",0,4081.348,0,0.0,same
0,636,catch,"[(1131, 814)]",[],[1],[],vertical,"(390.0, 762.0)",1.7,nan,1,4084.665,1,0.0,same
0,637,catch,"[(1149, 795)]",[],[1],[],horizontal,"(890.0, 762.0)",1.7,nan,1,4089.996,1,0.0,same
0,638,valid,"[(1160, 773)]",[],[1],[0.6666666666666666],horizontal,"(390.0, 262.0)",1.45,0.631,1,4095.631,1,0.0,same
0,639,valid,"[(1156, 801)]",[],[1],[0.6166666666666667],horizontal,"(890.0, 262.0)",1.4166666666666667,0.575,1,4100.796,2,0.0,same
0,640,catch,"[(1160, 796)]",[],[1],[],horizontal,"(390.0, 762.0)",1.7,nan,1,4106.338,2,0.0,same
0,641,catch,"[(1160, 783)]",[],[1],[],vertical,"(890.0, 262.0)",1.7,nan,1,4111.858,2,0.0,same
0,642,valid,"[(1160, 786)]","[(1117, 864)]",[1],[0.2833333333333333],vertical,"(390.0, 262.0)",,"('bar', 0.298)",0,4117.712,0,0.0,same
0,643,valid,"[(1140, 852)]",[],[1],[0.85],vertical,"(390.0, 762.0)",0.5166666666666666,nan,0,4120.425,0,0.0,same
0,644,valid,"[(1126, 816)]",[],[1],[0.48333333333333334],horizontal,"(390.0, 762.0)",0.9,0.45,1,4125.865,1,0.0,same
0,645,valid,"[(1137, 841)]",[],[1],[0.7],horizontal,"(890.0, 262.0)",0.95,0.66,1,4131.214,1,0.0,same
0,646,invalid_adjacent_other_bar,"[(1096, 859)]",[],[1],[0.43333333333333335],horizontal,"(890.0, 762.0)",1.1,0.404,1,4138.298,1,0.0,other
0,647,catch,"[(1139, 809)]",[],[1],[],vertical,"(390.0, 762.0)",1.7,nan,1,4159.399,2,0.0,same
0,648,valid,"[(1155, 806)]",[],[1],[0.6333333333333333],vertical,"(390.0, 762.0)",0.5833333333333334,0.6,1,4165.092,2,0.0,same
0,649,valid,"[(1140, 799)]",[],[1],[0.65],horizontal,"(890.0, 262.0)",1.0666666666666667,0.612,1,4170.415,2,0.0,same
0,650,catch,"[(1156, 806)]",[],[1],[],vertical,"(890.0, 762.0)",1.7,nan,1,4175.565,3,0.0,same
0,651,valid,"[(1126, 792)]",[],[1],[0.5666666666666667],horizontal,"(890.0, 762.0)",0.3833333333333333,0.522,1,4181.917,3,0.0,same
0,652,valid,"[(1139, 782)]",[],[1],[0.65],vertical,"(890.0, 762.0)",0.43333333333333335,0.612,1,4186.932,3,0.0,same
0,653,valid,"[(1161, 775)]",[],[1],[0.6166666666666667],vertical,"(390.0, 262.0)",1.2666666666666666,0.576,1,4192.231,3,0.0,same
0,654,valid,"[(1155, 779)]",[],[1],[0.6333333333333333],horizontal,"(890.0, 262.0)",1.2833333333333332,0.59,1,4197.95,3,0.0,same
0,655,valid,"[(1138, 786)]",[],[1],[0.43333333333333335],horizontal,"(890.0, 262.0)",1.45,0.395,1,4203.964,3,0.0,same
0,656,invalid_same_bar,"[(1142, 799)]",[],[1],[0.65],horizontal,"(390.0, 262.0)",1.1,0.606,1,4210.348,3,0.0,same
0,657,catch,"[(1131, 791)]",[],[1],[],vertical,"(890.0, 762.0)",1.7,nan,1,4216.262,3,0.0,same
0,658,valid,"[(1139, 789)]",[],[1],[0.6333333333333333],horizontal,"(390.0, 262.0)",1.4166666666666667,0.591,1,4222.58,3,0.0,same
0,659,valid,"[(1157, 787)]",[],[1],[0.6166666666666667],horizontal,"(890.0, 762.0)",1.45,0.584,1,4228.799,3,0.0,same
0,660,catch,"[(1162, 787)]",[],[1],[],vertical,"(390.0, 762.0)",1.7,nan,1,4234.953,3,0.0,same
0,661,valid,"[(1161, 806)]",[],[1],[0.6333333333333333],vertical,"(890.0, 262.0)",0.85,0.591,1,4241.105,3,0.0,same
0,662,valid,"[(1141, 782)]",[],[1],[0.6666666666666666],horizontal,"(890.0, 262.0)",1.3333333333333333,0.621,1,4247.234,3,0.0,same
0,663,valid,"[(1159, 791)]",[],[1],[0.6166666666666667],horizontal,"(890.0, 262.0)",0.7166666666666667,0.58,1,4253.134,3,0.0,same
0,664,valid,"[(1139, 777)]",[],[1],[0.5833333333333334],horizontal,"(890.0, 762.0)",0.6166666666666667,0.538,1,4258.765,3,0.0,same
0,665,valid,"[(1162, 781)]",[],[1],[0.45],horizontal,"(890.0, 762.0)",1.4666666666666666,0.406,1,4264.315,3,0.0,same
0,666,valid,"[(1139, 778)]",[],[1],[0.5],vertical,"(890.0, 262.0)",0.9333333333333333,0.459,1,4270.752,3,0.0,same
0,667,catch,"[(1151, 810)]",[],[1],[],horizontal,"(390.0, 762.0)",1.7,nan,1,4276.619,3,0.0,same
0,668,valid,"[(1151, 783)]",[],[1],[0.7166666666666667],horizontal,"(390.0, 762.0)",0.9833333333333333,0.674,1,4282.255,3,0.0,same
0,669,valid,"[(1139, 791)]",[],[1],[0.7166666666666667],horizontal,"(890.0, 762.0)",1.15,0.673,1,4288.313,3,0.0,same
0,670,valid,"[(1160, 787)]",[],[1],[0.6833333333333333],horizontal,"(390.0, 762.0)",0.5,0.64,1,4294.183,3,0.0,same
0,671,valid,"[(1173, 785)]",[],[1],[0.5333333333333333],vertical,"(390.0, 262.0)",0.85,0.495,1,4299.648,3,0.0,same
0,672,valid,"[(1158, 791)]",[],[1],[0.55],vertical,"(390.0, 262.0)",0.7,0.511,1,4305.432,3,0.0,same
0,673,valid,"[(1140, 782)]",[],[1],[0.85],horizontal,"(890.0, 762.0)",0.5166666666666666,nan,0,4310.883,0,0.0,same
0,674,valid,"[(1140, 811)]",[],[1],[0.5166666666666666],horizontal,"(890.0, 762.0)",1.45,0.476,1,4314.917,1,0.0,same
0,675,valid,"[(1148, 775)]",[],[1],[0.5166666666666666],horizontal,"(390.0, 762.0)",0.8166666666666667,0.478,1,4320.264,1,0.0,same
0,676,valid,"[(1160, 764)]",[],[1],[0.7],vertical,"(890.0, 262.0)",0.6333333333333333,0.653,1,4325.183,1,0.0,same
0,677,valid,"[(1153, 781)]",[],[1],[0.5833333333333334],vertical,"(890.0, 762.0)",0.45,0.539,1,4330.045,2,0.0,same
0,678,valid,"[(1149, 800)]",[],[1],[0.6],vertical,"(390.0, 262.0)",0.45,0.559,1,4334.732,2,0.0,same
0,679,valid,"[(1181, 810)]",[],[1],[0.8],horizontal,"(390.0, 262.0)",0.5333333333333333,0.757,1,4339.512,2,0.0,same
0,680,valid,"[(1160, 796)]",[],[1],[0.5166666666666666],horizontal,"(390.0, 762.0)",1.3166666666666667,0.478,1,4344.82,3,0.0,same
0,681,valid,"[(1138, 777)]",[],[1],[0.48333333333333334],vertical,"(390.0, 762.0)",0.7,0.445,1,4351.581,3,0.0,same
0,682,catch,"[(1155, 807)]",[],[1],[],horizontal,"(390.0, 762.0)",1.7,nan,1,4357.238,3,0.0,same
0,683,valid,"[(1162, 791)]",[],[1],[0.7],horizontal,"(890.0, 262.0)",0.65,0.66,1,4363.488,3,0.0,same
0,684,valid,"[(1166, 788)]",[],[1],[0.5833333333333334],vertical,"(890.0, 762.0)",1.0,0.543,1,4369.114,3,0.0,same
0,685,valid,"[(1156, 784)]",[],[1],[0.85],horizontal,"(890.0, 762.0)",1.1833333333333333,nan,0,4374.972,0,0.0,same
0,686,valid,"[(1131, 789)]",[],[1],[0.5333333333333333],horizontal,"(890.0, 262.0)",0.9166666666666666,0.49,1,4379.79,1,0.0,same
0,687,valid,"[(1160, 806)]",[],[1],[0.85],vertical,"(890.0, 262.0)",0.4666666666666667,nan,0,4384.942,0,0.0,same
0,688,valid,"[(1136, 805)]",[],[1],[0.5333333333333333],horizontal,"(390.0, 762.0)",0.5166666666666666,0.491,1,4389.469,1,0.0,same
0,689,valid,"[(1165, 782)]",[],[1],[0.85],horizontal,"(390.0, 262.0)",1.4666666666666666,nan,0,4393.982,0,0.0,same
0,690,catch,"[(1122, 806)]",[],[1],[],horizontal,"(390.0, 262.0)",,"('cti', 1.638),nan",0,4399.182,0,0.02,same
0,691,invalid_adjacent_other_bar,"[(1160, 814)]",[],[1],[0.85],vertical,"(390.0, 762.0)",0.8666666666666667,nan,0,4403.869,0,0.02,other
0,692,invalid_same_bar,"[(1172, 778)]","[(1163, 839)]",[1],[0.36666666666666664],horizontal,"(390.0, 762.0)",,"('bar', 0.374)",0,4408.282,0,0.02,same
0,693,catch,"[(1157, 810)]",[],[1],[],horizontal,"(390.0, 262.0)",,"('cti', 1.514),nan",0,4411.315,0,0.04,same
0,694,valid,"[(1159, 776)]",[],[1],[0.4166666666666667],horizontal,"(890.0, 262.0)",1.3333333333333333,0.378,1,4415.832,1,0.04,same
0,695,valid,"[(1156, 799)]",[],[1],[0.3833333333333333],horizontal,"(890.0, 762.0)",1.15,0.345,1,4423.381,1,0.04,same
0,696,valid,"[(1141, 779)]",[],[1],[0.6666666666666666],horizontal,"(890.0, 762.0)",1.2166666666666666,0.624,1,4428.82,1,0.04,same
0,697,valid,"[(1155, 792)]",[],[1],[0.55],vertical,"(890.0, 762.0)",0.8,0.511,1,4434.166,2,0.04,same
0,698,invalid_adjacent_other_bar,"[(1146, 793)]",[],[1],[0.6],vertical,"(390.0, 262.0)",0.9666666666666667,0.56,1,4439.566,2,0.04,other
0,699,valid,"[(1151, 806)]",[],[1],[0.31666666666666665],vertical,"(890.0, 762.0)",1.5166666666666666,0.28,1,4444.814,2,0.04,same
0,700,valid,"[(1160, 808)]",[],[1],[0.5333333333333333],vertical,"(890.0, 762.0)",0.6333333333333333,0.488,1,4451.049,3,0.04,same
0,701,valid,"[(1151, 782)]",[],[1],[0.48333333333333334],horizontal,"(390.0, 262.0)",0.6,0.451,1,4456.882,3,0.04,same
0,702,valid,"[(1134, 796)]",[],[1],[0.6],vertical,"(390.0, 762.0)",0.3833333333333333,0.563,1,4462.083,3,0.04,same
0,703,valid,"[(1159, 806)]",[],[1],[0.5333333333333333],horizontal,"(390.0, 762.0)",0.4666666666666667,0.501,1,4467.268,3,0.04,same
0,704,valid,"[(1160, 806)]",[],[1],[0.6],vertical,"(890.0, 262.0)",1.2666666666666666,0.565,1,4472.917,3,0.04,same
0,705,valid,"[(1160, 811)]",[],[1],[0.5333333333333333],horizontal,"(390.0, 262.0)",0.6833333333333333,0.49,1,4478.948,3,0.04,same
0,706,valid,"[(1165, 811)]",[],[1],[0.5166666666666666],vertical,"(390.0, 262.0)",0.6166666666666667,0.478,1,4484.554,3,0.04,same
0,707,invalid_adjacent_other_bar,"[(1151, 807)]",[],[1],[0.7166666666666667],horizontal,"(390.0, 762.0)",1.2833333333333332,0.673,1,4489.815,3,0.04,other
0,708,catch,"[(1160, 790)]",[],[1],[],horizontal,"(890.0, 262.0)",1.7,nan,1,4495.799,3,0.04,same
0,709,valid,"[(1136, 782)]",[],[1],[0.7166666666666667],horizontal,"(890.0, 262.0)",1.3166666666666667,0.67,1,4501.899,3,0.04,same
0,710,catch,"[(1160, 791)]",[],[1],[],horizontal,"(890.0, 262.0)",,"('cti', 1.62),nan",0,4508.066,0,0.06,same
0,711,valid,"[(1138, 787)]",[],[1],[0.5833333333333334],horizontal,"(890.0, 262.0)",0.5,0.542,1,4512.624,1,0.06,same
0,712,catch,"[(1141, 786)]",[],[1],[],horizontal,"(890.0, 262.0)",1.7,nan,1,4516.875,1,0.06,same
0,713,invalid_same_bar,"[(1158, 778)]",[],[1],[0.85],horizontal,"(390.0, 762.0)",1.2,nan,0,4522.232,0,0.06,same
0,714,valid,"[(1152, 796)]",[],[1],[0.5166666666666666],horizontal,"(890.0, 262.0)",1.3333333333333333,0.486,1,4527.55,1,0.06,same
0,715,valid,"[(1161, 795)]",[],[1],[0.5333333333333333],vertical,"(390.0, 262.0)",1.3166666666666667,0.501,1,4532.967,1,0.06,same
0,716,valid,"[(1160, 772)]",[],[1],[0.5],horizontal,"(390.0, 262.0)",0.5166666666666666,0.462,1,4538.071,1,0.06,same
0,717,invalid_adjacent_other_bar,"[(1151, 792)]",[],[1],[0.7666666666666666],horizontal,"(390.0, 762.0)",1.0833333333333333,0.726,1,4542.425,2,0.06,other
0,718,catch,"[(1176, 788)]","[(1128, 866)]",[1],[0.5666666666666667],horizontal,"(890.0, 762.0)",,"('bar', 0.581),nan",0,4548.42,0,0.08,same
0,719,valid,"[(1111, 816)]",[],[1],[0.5],horizontal,"(890.0, 262.0)",0.6666666666666666,0.468,1,4551.059,1,0.08,same
0,720,valid,"[(1151, 774)]",[],[1],[0.5],vertical,"(390.0, 762.0)",1.2,0.461,1,4555.838,1,0.08,same
0,721,catch,"[(1131, 801)]",[],[1],[0.03333333333333333],vertical,"(890.0, 762.0)",1.7,"0.018,nan",0,4561.089,0,0.1,same
0,722,valid,"[(1137, 811)]",[],[1],[0.5666666666666667],horizontal,"(890.0, 762.0)",0.7333333333333333,0.533,1,4565.968,1,0.1,same
0,723,valid,"[(1140, 796)]",[],[1],[0.4166666666666667],horizontal,"(390.0, 762.0)",1.5333333333333332,0.385,1,4570.558,1,0.1,same
0,724,invalid_adjacent_other_bar,"[(1166, 772)]",[],[1],[0.5833333333333334],horizontal,"(390.0, 762.0)",0.4166666666666667,0.547,1,4575.843,1,0.1,other
0,725,catch,"[(1155, 792)]",[],[1],[],vertical,"(890.0, 262.0)",1.7,nan,1,4579.899,2,0.1,same
0,726,invalid_same_bar,"[(1160, 782)]",[],[1],[0.5333333333333333],vertical,"(390.0, 262.0)",0.8,0.49,1,4585.483,2,0.1,same
0,727,valid,"[(1160, 769)]",[],[1],[0.7166666666666667],horizontal,"(890.0, 762.0)",1.15,0.681,1,4590.715,2,0.1,same
0,728,catch,"[(1160, 812)]",[],[1],[],vertical,"(890.0, 762.0)",1.7,nan,1,4596.367,3,0.1,same
0,729,valid,"[(1156, 786)]",[],[1],[0.23333333333333334],horizontal,"(890.0, 262.0)",1.0166666666666666,0.201,1,4602.364,3,0.1,same
0,730,valid,"[(1155, 777)]",[],[1],[0.4],horizontal,"(390.0, 262.0)",1.3666666666666667,0.365,1,4607.852,3,0.1,same
0,731,valid,"[(1146, 811)]",[],[1],[0.65],horizontal,"(390.0, 762.0)",1.0333333333333332,0.612,1,4613.967,3,0.1,same
0,732,valid,"[(1160, 805)]",[],[1],[],vertical,"(890.0, 262.0)",,"('cti', 0.888)",0,4619.719,0,0.1,same
0,733,valid,"[(1132, 808)]",[],[1],[0.5],vertical,"(890.0, 262.0)",1.05,0.459,1,4623.856,1,0.1,same
0,734,valid,"[(1135, 795)]",[],[1],[0.7],horizontal,"(390.0, 762.0)",0.5,0.655,1,4629.316,1,0.1,same
0,735,valid,"[(1160, 795)]",[],[1],[0.7333333333333333],vertical,"(890.0, 262.0)",1.05,0.697,1,4633.683,1,0.1,same
0,736,valid,"[(1150, 781)]",[],[1],[0.6],horizontal,"(890.0, 262.0)",1.45,0.561,1,4639.233,2,0.1,same
0,737,valid,"[(1160, 807)]",[],[1],[0.85],horizontal,"(390.0, 262.0)",0.4166666666666667,nan,0,4645.041,0,0.1,same
0,738,valid,"[(1131, 804)]",[],[1],[0.5166666666666666],vertical,"(890.0, 762.0)",0.55,0.481,1,4649.319,1,0.1,same
0,739,valid,"[(1131, 803)]",[],[1],[0.5333333333333333],horizontal,"(390.0, 262.0)",0.7166666666666667,0.489,1,4654.338,1,0.1,same
0,740,invalid_same_bar,"[(1156, 790)]",[],[1],[0.85],horizontal,"(390.0, 762.0)",0.5,nan,0,4659.366,0,0.08,same
0,741,valid,"[(1137, 802)]",[],[1],[0.85],horizontal,"(390.0, 262.0)",0.36666666666666664,nan,0,4663.833,0,0.08,same
0,742,valid,"[(1125, 806)]",[],[1],[0.7666666666666666],horizontal,"(390.0, 762.0)",0.7666666666666666,0.717,1,4667.665,1,0.08,same
0,743,catch,"[(1161, 798)]",[],[1],[],vertical,"(390.0, 262.0)",1.7,nan,1,4673.249,1,0.06,same
0,744,valid,"[(1160, 807)]",[],[1],[0.48333333333333334],vertical,"(890.0, 262.0)",1.45,0.445,1,4678.467,1,0.06,same
0,745,valid,"[(1160, 774)]",[],[1],[0.5666666666666667],horizontal,"(390.0, 762.0)",1.2,0.528,1,4683.754,2,0.06,same
0,746,catch,"[(1160, 812)]",[],[1],[],vertical,"(890.0, 262.0)",,"('cti', 1.611),nan",0,4689.349,0,0.08,same
0,747,catch,"[(1121, 822)]",[],[1],[],horizontal,"(390.0, 762.0)",1.7,nan,1,4694.2,1,0.08,same
0,748,catch,"[(1135, 822)]",[],[1],[],horizontal,"(890.0, 762.0)",1.7,nan,1,4760.883,1,0.08,same
0,749,valid,"[(1160, 821)]",[],[1],[0.55],vertical,"(390.0, 762.0)",0.6333333333333333,0.511,1,4766.468,1,0.08,same
0,750,valid,"[(1158, 810)]",[],[1],[0.55],horizontal,"(390.0, 762.0)",0.6,0.516,1,4770.928,2,0.08,same
0,751,valid,"[(1171, 805)]",[],[1],[0.7666666666666666],vertical,"(890.0, 762.0)",1.05,0.721,1,4775.779,2,0.08,same
0,752,valid,"[(1157, 814)]",[],[1],[0.6],horizontal,"(890.0, 262.0)",0.8166666666666667,0.561,1,4781.451,2,0.08,same
0,753,catch,"[(1156, 808)]",[],[1],[],horizontal,"(890.0, 262.0)",1.7,nan,1,4786.867,3,0.08,same
0,754,valid,"[(1160, 809)]",[],[1],[0.85],horizontal,"(390.0, 762.0)",1.25,nan,0,4792.918,0,0.08,same
0,755,valid,"[(1136, 806)]",[],[1],[0.85],horizontal,"(390.0, 762.0)",1.1166666666666667,nan,0,4797.782,0,0.08,same
0,756,catch,"[(1156, 812)]",[],[1],[],vertical,"(890.0, 762.0)",1.7,nan,1,4802.53,1,0.08,same
0,757,invalid_same_bar,"[(1155, 789)]",[],[1],[0.7666666666666666],horizontal,"(890.0, 262.0)",0.36666666666666664,0.725,1,4807.469,1,0.08,same
0,758,valid,"[(1138, 809)]",[],[1],[0.5],horizontal,"(390.0, 762.0)",0.9333333333333333,0.468,1,4811.917,1,0.08,same
0,759,catch,"[(1166, 792)]",[],[1],[],horizontal,"(890.0, 262.0)",1.7,nan,1,4817.218,2,0.08,same
0,760,valid,"[(1172, 819)]",[],[1],[],vertical,"(890.0, 262.0)",,"('fix', 0.448)",0,4822.737,0,0.06,same
0,761,valid,"[(1131, 820)]",[],[1],[0.6333333333333333],horizontal,"(890.0, 262.0)",0.55,0.598,1,4824.601,1,0.06,same
0,762,catch,"[(1172, 816)]",[],[1],[],vertical,"(390.0, 262.0)",1.7,nan,1,4829.474,1,0.06,same
0,763,catch,"[(1167, 798)]",[],[1],[],vertical,"(890.0, 262.0)",,"('cti', 1.366),nan",0,4834.933,0,0.08,same
0,764,valid,"[(1167, 816)]",[],[1],[0.35],horizontal,"(390.0, 262.0)",1.2666666666666666,0.313,1,4839.618,1,0.08,same
0,765,valid,"[(1163, 812)]",[],[1],[0.5666666666666667],horizontal,"(890.0, 762.0)",1.0666666666666667,0.527,1,5059.168,1,0.08,same
0,766,valid,"[(1161, 786)]",[],[1],[0.6],vertical,"(890.0, 762.0)",0.7166666666666667,0.557,1,5064.693,1,0.08,same
0,767,catch,"[(1180, 807)]",[],[1],[],horizontal,"(890.0, 762.0)",1.7,nan,1,5069.359,2,0.08,same
0,768,valid,"[(1187, 821)]",[],[1],[0.5333333333333333],vertical,"(890.0, 762.0)",0.9166666666666666,0.493,1,5075.271,2,0.06,same
0,769,catch,"[(1159, 803)]",[],[1],[],horizontal,"(890.0, 762.0)",1.7,nan,1,5080.759,2,0.06,same
0,770,valid,"[(1127, 816)]",[],[1],[0.48333333333333334],vertical,"(890.0, 262.0)",1.2666666666666666,0.447,1,5086.085,3,0.06,same
0,771,valid,"[(1149, 781)]",[],[1],[0.6666666666666666],horizontal,"(390.0, 262.0)",1.1333333333333333,0.62,1,5093.892,3,0.04,same
0,772,valid,"[(1162, 783)]",[],[1],[0.7666666666666666],horizontal,"(890.0, 762.0)",0.5,0.72,1,5099.941,3,0.04,same
0,773,catch,"[(1162, 789)]",[],[1],[],horizontal,"(390.0, 262.0)",1.7,nan,1,5105.387,3,0.04,same
0,774,valid,"[(1161, 778)]",[],[1],[0.6166666666666667],horizontal,"(890.0, 262.0)",0.9333333333333333,0.574,1,5110.95,3,0.04,same
0,775,catch,"[(1180, 802)]","[(1163, 829)]",[1],[0.11666666666666667],horizontal,"(390.0, 262.0)",,"('bar', 0.133),nan",0,5117.08,0,0.06,same
0,776,catch,"[(1139, 818)]",[],[1],[],vertical,"(890.0, 262.0)",1.7,nan,1,5119.221,1,0.06,same
0,777,valid,"[(1177, 798)]",[],[1],[0.5333333333333333],vertical,"(390.0, 762.0)",0.6666666666666666,0.491,1,5124.529,1,0.06,same
0,778,valid,"[(1160, 803)]",[],[1],[0.48333333333333334],vertical,"(390.0, 762.0)",1.2333333333333334,0.438,1,5129.085,1,0.06,same
0,779,catch,"[(1174, 777)]",[],[1],[],horizontal,"(890.0, 262.0)",,"('cti', 0.426),nan",0,5134.304,0,0.08,same
0,780,valid,"[(1160, 816)]",[],[1],[0.5],vertical,"(890.0, 762.0)",0.6666666666666666,0.463,1,5138.158,1,0.08,same
0,781,valid,"[(1139, 800)]",[],[1],[0.65],vertical,"(390.0, 762.0)",0.7166666666666667,0.603,1,5143.218,1,0.08,same
0,782,valid,"[(1175, 802)]",[],[1],[0.55],horizontal,"(890.0, 262.0)",1.05,0.507,1,5147.984,1,0.08,same
0,783,valid,"[(1150, 785)]",[],[1],[0.43333333333333335],horizontal,"(890.0, 262.0)",1.3666666666666667,0.398,1,5153.32,2,0.08,same
0,784,valid,"[(1179, 806)]",[],[1],[0.5666666666666667],horizontal,"(390.0, 762.0)",1.2166666666666666,0.522,1,5158.997,2,0.08,same
0,785,valid,"[(1175, 793)]","[(1160, 839)]",[1],[0.11666666666666667],horizontal,"(390.0, 762.0)",,"('bar', 0.135)",0,5164.728,0,0.08,same
0,786,valid,"[(1142, 812)]",[],[1],[0.5333333333333333],vertical,"(890.0, 762.0)",0.7166666666666667,0.492,1,5167.039,1,0.08,same
0,787,valid,"[(1175, 813)]",[],[1],[],horizontal,"(390.0, 262.0)",,"('fix', 0.484)",0,5172.255,0,0.08,same
0,788,catch,"[(1122, 818)]",[],[1],[],horizontal,"(890.0, 262.0)",1.7,nan,1,5174.402,1,0.08,same
0,789,valid,"[(1165, 782)]",[],[1],[0.6333333333333333],vertical,"(890.0, 262.0)",1.15,0.594,1,5179.525,1,0.08,same
0,790,catch,"[(1146, 781)]",[],[1],[],vertical,"(890.0, 762.0)",1.7,nan,1,5184.735,1,0.08,same
0,791,valid,"[(1136, 788)]",[],[1],[],horizontal,"(390.0, 762.0)",,"('cti', 1.026)",0,5189.953,0,0.08,same
0,792,valid,"[(1178, 770)]",[],[1],[0.2],horizontal,"(390.0, 262.0)",1.35,0.168,0,5194.373,0,0.08,same
0,793,valid,"[(1170, 774)]",[],[1],[0.65],vertical,"(390.0, 762.0)",0.6166666666666667,0.607,1,5199.26,1,0.08,same
0,794,valid,"[(1176, 781)]",[],[1],[0.36666666666666664],horizontal,"(890.0, 762.0)",1.3833333333333333,0.329,1,5203.835,1,0.08,same
0,795,valid,"[(1170, 774)]",[],[1],[0.5],vertical,"(390.0, 262.0)",0.48333333333333334,0.456,1,5209.06,1,0.08,same
0,796,valid,"[(1171, 772)]",[],[1],[0.85],vertical,"(890.0, 762.0)",0.65,nan,0,5213.157,0,0.06,same
0,797,catch,"[(1151, 792)]",[],[1],[],vertical,"(890.0, 762.0)",1.7,nan,1,5217.885,1,0.06,same
0,798,catch,"[(1173, 790)]",[],[1],[],vertical,"(890.0, 262.0)",1.7,nan,1,5223.235,1,0.06,same
0,799,valid,"[(1166, 774)]",[],[1],[0.6833333333333333],vertical,"(890.0, 762.0)",0.6666666666666666,0.638,1,5228.135,1,0.06,same
0,800,catch,"[(1112, 801)]",[],[1],[],horizontal,"(390.0, 262.0)",1.7,"('cti', 1.69),nan",0,5233.22,0,0.08,same
0,801,valid,"[(1162, 794)]",[],[1],[0.48333333333333334],vertical,"(890.0, 762.0)",0.5666666666666667,0.441,1,5238.186,1,0.08,same
0,802,valid,"[(1166, 772)]",[],[1],[0.6833333333333333],vertical,"(890.0, 262.0)",0.7166666666666667,0.642,1,5242.685,1,0.08,same
0,803,valid,"[(1159, 808)]",[],[1],[0.6833333333333333],horizontal,"(390.0, 762.0)",0.95,0.639,1,5247.397,1,0.08,same
0,804,valid,"[(1175, 779)]",[],[1],[0.55],vertical,"(390.0, 262.0)",0.43333333333333335,0.505,1,5252.036,2,0.08,same
0,805,invalid_same_bar,"[(1131, 794)]",[],[1],[0.6666666666666666],horizontal,"(890.0, 262.0)",1.3166666666666667,0.622,1,5256.619,2,0.08,same
0,806,valid,"[(1133, 778)]",[],[1],[0.85],horizontal,"(890.0, 262.0)",0.5833333333333334,nan,0,5262.386,0,0.08,same
0,807,valid,"[(1134, 800)]",[],[1],[0.7],horizontal,"(390.0, 762.0)",0.5333333333333333,0.655,1,5267.152,1,0.08,same
0,808,invalid_same_bar,"[(1163, 789)]",[],[1],[0.3],vertical,"(390.0, 762.0)",1.05,0.266,1,5271.702,1,0.08,same
0,809,catch,"[(1165, 778)]",[],[1],[],horizontal,"(390.0, 262.0)",,"('cti', 1.561),nan",0,5276.581,0,0.1,same
0,810,catch,"[(1163, 815)]",[],[1],[],horizontal,"(390.0, 262.0)",1.7,nan,1,5281.403,1,0.1,same
0,811,invalid_same_bar,"[(1160, 773)]",[],[1],[0.7333333333333333],horizontal,"(390.0, 762.0)",1.4833333333333334,0.688,1,5286.767,1,0.1,same
0,812,valid,"[(1137, 786)]",[],[1],[0.85],horizontal,"(890.0, 762.0)",0.9833333333333333,nan,0,5292.237,0,0.1,same
0,813,valid,"[(1141, 808)]",[],[1],[0.5666666666666667],horizontal,"(390.0, 762.0)",0.45,0.525,1,5296.987,1,0.08,same
0,814,valid,"[(1160, 787)]",[],[1],[0.55],vertical,"(390.0, 762.0)",0.8,0.507,1,5301.485,1,0.08,same
0,815,valid,"[(1159, 816)]",[],[1],[0.48333333333333334],horizontal,"(890.0, 762.0)",0.9666666666666667,0.442,1,5306.005,1,0.08,same
0,816,catch,"[(1153, 783)]",[],[1],[],vertical,"(390.0, 262.0)",1.7,nan,1,5314.146,2,0.08,same
0,817,catch,"[(1153, 807)]",[],[1],[],vertical,"(890.0, 762.0)",1.7,nan,1,5319.47,2,0.08,same
0,818,valid,"[(1146, 801)]",[],[1],[0.4166666666666667],horizontal,"(390.0, 762.0)",1.1833333333333333,0.378,1,5325.169,2,0.08,same
0,819,valid,"[(1158, 782)]",[],[1],[0.5333333333333333],horizontal,"(890.0, 262.0)",0.7833333333333333,0.492,1,5330.903,3,0.08,same
0,820,valid,"[(1145, 799)]",[],[1],[0.4666666666666667],vertical,"(390.0, 762.0)",0.85,0.433,1,5336.603,3,0.08,same
0,821,valid,"[(1145, 781)]",[],[1],[],horizontal,"(890.0, 762.0)",,"('cti', 0.147)",0,5342.153,0,0.08,same
0,822,catch,"[(1118, 790)]",[],[1],[],horizontal,"(890.0, 762.0)",1.7,nan,1,5345.036,1,0.08,same
0,823,catch,"[(1161, 786)]",[],[1],[],vertical,"(890.0, 762.0)",1.7,nan,1,5350.628,1,0.08,same
0,824,catch,"[(1136, 783)]",[],[1],[],horizontal,"(390.0, 762.0)",,"('cti', 1.427),nan",0,5355.586,0,0.1,same
0,825,valid,"[(1142, 804)]",[],[1],[0.75],vertical,"(890.0, 262.0)",1.1,0.705,1,5360.352,1,0.08,same
0,826,valid,"[(1161, 777)]",[],[1],[0.5166666666666666],vertical,"(390.0, 762.0)",0.4666666666666667,0.477,1,5365.771,1,0.08,same
0,827,valid,"[(1128, 795)]",[],[1],[0.7333333333333333],vertical,"(390.0, 262.0)",0.7666666666666666,0.693,1,5369.836,1,0.08,same
0,828,valid,"[(1136, 777)]",[],[1],[0.36666666666666664],vertical,"(390.0, 762.0)",1.3333333333333333,0.333,1,5374.535,2,0.08,same
0,829,invalid_adjacent_other_bar,"[(1160, 784)]",[],[1],[0.48333333333333334],vertical,"(890.0, 262.0)",1.4833333333333334,0.452,1,5380.42,2,0.06,other
0,830,catch,"[(1136, 806)]",[],[1],[],horizontal,"(390.0, 262.0)",1.7,nan,1,5385.869,2,0.06,same
0,831,catch,"[(1159, 792)]",[],[1],[],vertical,"(890.0, 262.0)",1.7,nan,1,5391.822,3,0.06,same
0,832,valid,"[(1160, 788)]",[],[1],[0.85],vertical,"(390.0, 762.0)",0.4166666666666667,nan,0,5398.319,0,0.06,same
0,833,catch,"[(1136, 791)]",[],[1],[],horizontal,"(890.0, 262.0)",,"('cti', 1.51),nan",0,5402.68,0,0.08,same
0,834,valid,"[(1141, 769)]",[],[1],[],vertical,"(890.0, 262.0)",,"('cti', 1.197)",0,5407.152,0,0.08,same
0,835,valid,"[(1136, 795)]",[],[1],[0.48333333333333334],horizontal,"(390.0, 262.0)",0.7666666666666666,0.446,1,5411.369,1,0.08,same
0,836,catch,"[(1160, 799)]",[],[1],[],vertical,"(890.0, 262.0)",1.7,nan,1,5416.436,1,0.08,same
0,837,valid,"[(1170, 791)]","[(1107, 859)]",[1],[0.11666666666666667],horizontal,"(390.0, 762.0)",,"('bar', 0.131)",0,5421.955,0,0.08,same
0,838,valid,"[(1134, 806)]",[],[1],[0.55],horizontal,"(390.0, 262.0)",1.2333333333333334,0.509,1,5424.398,1,0.08,same
0,839,catch,"[(1165, 786)]",[],[1],[],horizontal,"(390.0, 262.0)",,"('fix', 0.342),nan",0,5429.557,0,0.1,same
0,840,valid,"[(1115, 805)]","[(1118, 811)]",[1],[0.26666666666666666],vertical,"(890.0, 262.0)",,"('bar', 0.278)",0,5431.503,0,0.1,same
0,841,valid,"[(1134, 790)]",[],[1],[0.5],horizontal,"(390.0, 262.0)",1.2666666666666666,0.459,1,5434.088,1,0.1,same
0,842,valid,"[(1132, 780)]",[],[1],[0.4],vertical,"(390.0, 762.0)",1.4666666666666666,0.362,1,5440.286,1,0.1,same
0,843,valid,"[(1161, 786)]",[],[1],[0.3833333333333333],horizontal,"(390.0, 762.0)",1.3,0.344,1,5445.471,1,0.1,same
0,844,valid,"[(1131, 817)]",[],[1],[0.5],vertical,"(390.0, 262.0)",0.9833333333333333,0.461,1,5450.753,2,0.1,same
0,845,valid,"[(1155, 786)]",[],[1],[0.6],horizontal,"(890.0, 262.0)",0.7666666666666666,0.564,1,5456.018,2,0.1,same
0,846,valid,"[(1145, 773)]",[],[1],[0.5333333333333333],horizontal,"(390.0, 262.0)",1.3,0.492,1,5461.322,2,0.1,same
0,847,catch,"[(1111, 822)]",[],[1],[],horizontal,"(390.0, 262.0)",1.7,nan,1,5466.787,3,0.1,same
0,848,valid,"[(1085, 841)]",[],[1],[0.6],vertical,"(390.0, 262.0)",0.85,0.554,1,5472.82,3,0.1,same
0,849,valid,"[(1150, 816)]",[],[1],[0.55],horizontal,"(390.0, 262.0)",1.3333333333333333,0.506,1,5479.563,3,0.1,same
0,850,valid,"[(1161, 796)]",[],[1],[0.48333333333333334],vertical,"(890.0, 762.0)",1.1333333333333333,0.445,1,5485.24,3,0.08,same
0,851,valid,"[(1142, 786)]",[],[1],[0.5],vertical,"(890.0, 262.0)",0.9166666666666666,0.459,1,5491.076,3,0.08,same
0,852,valid,"[(1160, 789)]",[],[1],[0.6666666666666666],vertical,"(390.0, 762.0)",0.9666666666666667,0.624,1,5496.787,3,0.08,same
0,853,invalid_same_bar,"[(1162, 791)]",[],[1],[0.3833333333333333],vertical,"(390.0, 762.0)",1.4833333333333334,0.348,1,5502.739,3,0.08,same
0,854,valid,"[(1135, 786)]",[],[1],[0.65],horizontal,"(890.0, 762.0)",0.5666666666666667,0.605,1,5509.226,3,0.08,same
0,855,valid,"[(1160, 799)]",[],[1],[0.7333333333333333],vertical,"(890.0, 262.0)",1.1666666666666667,0.694,1,5514.92,3,0.08,same
0,856,catch,"[(1163, 817)]",[],[1],[],vertical,"(390.0, 262.0)",1.7,nan,1,5520.792,3,0.08,same
0,857,valid,"[(1160, 805)]",[],[1],[0.43333333333333335],vertical,"(890.0, 262.0)",1.45,0.392,1,5526.788,3,0.08,same
0,858,catch,"[(1156, 772)]",[],[1],[],horizontal,"(390.0, 262.0)",1.7,nan,1,5532.916,3,0.08,same
0,859,valid,"[(1164, 790)]",[],[1],[0.7333333333333333],vertical,"(890.0, 762.0)",1.0666666666666667,0.688,1,5538.491,3,0.06,same
0,860,catch,"[(1159, 791)]",[],[1],[],vertical,"(390.0, 262.0)",1.7,nan,1,5544.416,3,0.06,same
0,861,valid,"[(1161, 794)]",[],[1],[],horizontal,"(890.0, 762.0)",,"('cti', 0.506)",0,5550.744,0,0.06,same
0,862,catch,"[(1136, 808)]",[],[1],[],horizontal,"(890.0, 262.0)",1.7,nan,1,5554.459,1,0.06,same
0,863,valid,"[(1157, 772)]",[],[1],[0.7],horizontal,"(390.0, 762.0)",1.0,0.656,1,5559.503,1,0.06,same
0,864,valid,"[(1156, 778)]",[],[1],[0.5333333333333333],vertical,"(390.0, 762.0)",0.9666666666666667,0.491,1,5564.47,1,0.06,same
