block,trial,trial_type,taps_start_loc_during_fix,taps_end_loc_during_fix,taps_on_lever_during_fix,taps_on_lever_s_during_fix,bar_orientation,target_xy,cti,rt,acc,time,pulses
0,1,target,"[(1001, 835), (1053, 846)]",[],"[0, 1]",[0.3833333333333333],vertical,"(390.0, 262.0)",1.1,0.355,1,1.566,1
0,2,target,"[(323, 275), (402, 224), (591, 128), (770, 222), (913, 301), (813, 682), (1075, 549), (1060, 823)]",[],"[0, 0, 0, 0, 0, 0, 0, 1]",[0.85],horizontal,"(390.0, 762.0)",1.1666666666666667,nan,0,142.751,0
0,3,target,"[(1022, 802)]",[],[1],[0.5333333333333333],horizontal,"(890.0, 762.0)",1.6333333333333333,0.493,1,4054.264,1
0,4,catch,"[(1008, 819)]",[],[1],[],horizontal,"(390.0, 762.0)",1.6666666666666667,nan,1,4061.032,1
0,5,catch,"[(1051, 829)]",[],[1],[],vertical,"(390.0, 262.0)",1.3,nan,1,4066.336,1
0,6,target,"[(1062, 821)]",[],[1],[0.85],vertical,"(390.0, 262.0)",1.3,nan,0,4070.859,0
0,7,target,"[(1033, 837)]",[],[1],[0.55],horizontal,"(890.0, 262.0)",0.9833333333333333,0.518,1,4075.881,1
0,8,catch,"[(1077, 810)]",[],[1],[],horizontal,"(390.0, 262.0)",,"('cti', 1.392),nan",0,4080.728,0
0,9,target,"[(1063, 806)]",[],[1],[0.6666666666666666],horizontal,"(390.0, 762.0)",0.5166666666666666,0.618,1,4085.458,1
0,10,target,"[(1070, 800)]",[],[1],[0.85],horizontal,"(390.0, 262.0)",1.2,"('cti', 1.182),nan",0,4090.118,0
0,11,target,"[(1059, 818)]",[],[1],[0.5166666666666666],horizontal,"(390.0, 762.0)",1.3,0.475,1,4095.157,1
0,12,target,"[(1069, 795)]",[],[1],[0.45],vertical,"(890.0, 762.0)",1.5833333333333333,0.409,1,4100.608,1
0,13,target,"[(1078, 801)]",[],[1],[0.5166666666666666],horizontal,"(890.0, 762.0)",1.1,0.472,1,4105.763,1
0,14,target,"[(1070, 802)]",[],[1],[0.5333333333333333],vertical,"(390.0, 262.0)",0.9666666666666667,0.493,1,4110.911,2
0,15,target,"[(1066, 785)]",[],[1],[0.5666666666666667],vertical,"(890.0, 762.0)",1.1833333333333333,0.53,1,4115.955,2
0,16,target,"[(1088, 803)]",[],[1],[0.7],horizontal,"(890.0, 262.0)",0.5333333333333333,0.652,1,4121.255,2
0,17,target,"[(1061, 790)]",[],[1],[0.85],vertical,"(890.0, 762.0)",0.7166666666666667,nan,0,4125.974,0
0,18,target,"[(1061, 835)]",[],[1],[0.5],horizontal,"(390.0, 262.0)",1.3666666666666667,0.458,1,4130.791,1
0,19,target,"[(1075, 807)]",[],[1],[0.85],horizontal,"(890.0, 262.0)",0.6333333333333333,nan,0,4136.134,0
0,20,catch,"[(1062, 808)]",[],[1],[],vertical,"(890.0, 762.0)",1.2666666666666666,nan,1,4140.659,1
0,21,target,"[(1080, 811)]",[],[1],[0.6],horizontal,"(390.0, 262.0)",0.75,0.557,1,4145.424,1
0,22,target,"[(1081, 786)]",[],[1],[0.6],horizontal,"(890.0, 762.0)",1.3166666666666667,0.558,1,4150.106,1
0,23,target,"[(1075, 791)]",[],[1],[],vertical,"(390.0, 262.0)",,"('cti', 1.046)",0,4155.174,0
0,24,target,"[(1037, 811)]",[],[1],[0.3333333333333333],horizontal,"(890.0, 262.0)",1.55,0.294,1,4159.279,1
0,25,target,"[(1061, 790)]",[],[1],[0.43333333333333335],vertical,"(890.0, 762.0)",1.5333333333333332,0.397,1,4164.491,1
0,26,target,"[(1082, 806)]",[],[1],[0.21666666666666667],vertical,"(890.0, 262.0)",1.5166666666666666,0.181,1,4170.241,1
0,27,target,"[(1080, 806)]",[],[1],[0.85],vertical,"(390.0, 762.0)",0.8,nan,0,4175.266,0
0,28,target,"[(1063, 791)]",[],[1],[0.5166666666666666],vertical,"(390.0, 762.0)",1.3333333333333333,0.48,1,4179.875,1
0,29,target,"[(1076, 804)]",[],[1],[0.6166666666666667],horizontal,"(890.0, 262.0)",0.9666666666666667,0.569,1,4185.173,1
0,30,catch,"[(1061, 791)]",[],[1],[],horizontal,"(390.0, 762.0)",1.4166666666666667,nan,1,4189.988,1
0,31,target,"[(1061, 816)]",[],[1],[0.3833333333333333],horizontal,"(390.0, 762.0)",1.3833333333333333,0.347,1,4195.022,2
0,32,catch,"[(1075, 796)]",[],[1],[],vertical,"(890.0, 262.0)",1.6,nan,1,4200.775,2
0,33,target,"[(1077, 793)]",[],[1],[0.5],horizontal,"(890.0, 262.0)",1.15,0.462,1,4206.108,2
0,34,target,"[(1079, 787)]",[],[1],[0.85],horizontal,"(890.0, 262.0)",0.9,nan,0,4211.433,0
0,35,target,"[(1065, 810)]",[],[1],[0.4666666666666667],horizontal,"(890.0, 262.0)",1.4166666666666667,0.432,1,4216.158,1
0,36,target,"[(1070, 800)]",[],[1],[0.75],vertical,"(890.0, 762.0)",1.0166666666666666,0.71,1,4221.41,1
0,37,catch,"[(1080, 796)]",[],[1],[],vertical,"(890.0, 762.0)",1.4333333333333333,nan,1,4226.842,1
0,38,target,"[(1061, 800)]",[],[1],[0.75],vertical,"(890.0, 762.0)",0.9666666666666667,0.711,1,4231.959,2
0,39,target,"[(1059, 791)]",[],[1],[0.6333333333333333],vertical,"(890.0, 762.0)",0.8833333333333333,0.592,1,4237.237,2
0,40,target,"[(1061, 795)]",[],[1],[0.5],horizontal,"(390.0, 762.0)",0.6166666666666667,0.468,1,4242.425,2
0,41,target,"[(1080, 783)]",[],[1],[0.36666666666666664],horizontal,"(890.0, 262.0)",1.0833333333333333,0.332,1,4247.525,2
0,42,target,"[(1067, 790)]",[],[1],[0.6],horizontal,"(890.0, 262.0)",1.3333333333333333,0.557,1,4252.976,2
0,43,target,"[(1068, 773)]",[],[1],[0.6333333333333333],horizontal,"(890.0, 762.0)",0.7166666666666667,0.596,1,4258.626,3
0,44,target,"[(1063, 802)]",[],[1],[0.5333333333333333],horizontal,"(890.0, 262.0)",0.7,0.493,1,4264.141,3
0,45,target,"[(1077, 803)]",[],[1],[0.05],horizontal,"(390.0, 262.0)",1.45,0.019,0,4269.393,0
0,46,target,"[(1044, 791)]",[],[1],[0.5166666666666666],vertical,"(890.0, 262.0)",1.5666666666666667,0.479,1,4274.343,1
0,47,target,"[(1062, 793)]",[],[1],[0.5],vertical,"(890.0, 762.0)",1.2666666666666666,0.467,1,4279.473,1
0,48,target,"[(1061, 780)]",[],[1],[0.5666666666666667],horizontal,"(890.0, 262.0)",1.0333333333333332,0.529,1,4284.798,1
0,49,target,"[(1085, 811)]",[],[1],[0.8333333333333334],horizontal,"(390.0, 762.0)",0.9333333333333333,0.795,1,4289.643,2
0,50,target,"[(1064, 803)]",[],[1],[0.5166666666666666],vertical,"(390.0, 762.0)",1.35,0.476,1,4295.391,2
0,51,target,"[(1065, 796)]",[],[1],[0.6],vertical,"(890.0, 262.0)",0.7333333333333333,0.557,1,4301.385,2
0,52,target,"[(1061, 803)]",[],[1],[0.6333333333333333],horizontal,"(390.0, 762.0)",0.9333333333333333,0.6,1,4306.542,2
0,53,target,"[(1068, 790)]",[],[1],[0.55],vertical,"(390.0, 762.0)",1.25,0.511,1,4311.926,2
0,54,target,"[(1063, 789)]",[],[1],[0.16666666666666666],horizontal,"(890.0, 262.0)",1.45,0.134,0,4316.949,0
0,55,target,"[(1070, 818)]",[],[1],[0.65],vertical,"(890.0, 262.0)",0.7666666666666666,0.608,1,4321.893,1
0,56,target,"[(1065, 804)]",[],[1],[0.5833333333333334],horizontal,"(890.0, 762.0)",1.45,0.539,1,4326.789,1
0,57,target,"[(1074, 795)]",[],[1],[0.6333333333333333],horizontal,"(390.0, 262.0)",0.8833333333333333,0.591,1,4332.315,1
0,58,catch,"[(1079, 796)]",[],[1],[],horizontal,"(390.0, 262.0)",,"('cti', 1.615),nan",0,4337.226,0
0,59,target,"[(1080, 808)]",[],[1],[0.5666666666666667],vertical,"(390.0, 762.0)",1.2833333333333332,0.528,1,4342.006,1
0,60,target,"[(1065, 770)]",[],[1],[0.55],vertical,"(890.0, 762.0)",1.4333333333333333,0.51,1,4347.391,1
0,61,target,"[(1079, 809)]",[],[1],[0.85],vertical,"(890.0, 262.0)",0.8833333333333333,nan,0,4352.226,0
0,62,target,"[(1068, 811)]",[],[1],[0.6],horizontal,"(890.0, 262.0)",1.15,0.557,1,4356.809,1
0,63,target,"[(1067, 800)]",[],[1],[0.6166666666666667],vertical,"(890.0, 262.0)",1.0833333333333333,0.577,1,4361.692,1
0,64,target,"[(1072, 795)]",[],[1],[0.3333333333333333],horizontal,"(890.0, 762.0)",1.35,0.294,1,4366.527,1
0,65,target,"[(1067, 771)]",[],[1],[0.5833333333333334],vertical,"(390.0, 262.0)",0.5666666666666667,0.545,1,4371.908,2
0,66,target,"[(1065, 796)]",[],[1],[0.65],horizontal,"(890.0, 262.0)",0.5,0.615,1,4376.76,2
0,67,target,"[(1072, 796)]",[],[1],[0.55],vertical,"(390.0, 262.0)",1.1833333333333333,0.506,1,4381.209,2
0,68,target,"[(1072, 794)]",[],[1],[0.6333333333333333],horizontal,"(390.0, 762.0)",0.8,0.59,1,4386.925,2
0,69,target,"[(1068, 795)]",[],[1],[0.55],horizontal,"(390.0, 262.0)",1.0,0.51,1,4392.135,2
0,70,target,"[(1080, 797)]",[],[1],[0.35],vertical,"(390.0, 762.0)",1.6,0.317,1,4397.026,3
0,71,target,"[(1071, 780)]",[],[1],[0.55],vertical,"(890.0, 762.0)",1.2333333333333334,0.511,1,4403.109,3
0,72,target,"[(1077, 790)]",[],[1],[0.7166666666666667],horizontal,"(890.0, 262.0)",0.6166666666666667,0.68,1,4408.876,3
0,73,target,"[(1065, 782)]",[],[1],[0.6833333333333333],vertical,"(890.0, 262.0)",0.6666666666666666,0.639,1,4414.481,3
0,74,target,"[(1068, 775)]",[],[1],[0.85],horizontal,"(390.0, 262.0)",0.8166666666666667,nan,0,4420.226,0
0,75,target,"[(1079, 811)]",[],[1],[0.7166666666666667],vertical,"(390.0, 262.0)",0.9166666666666666,0.68,1,4424.66,1
0,76,target,"[(1077, 790)]",[],[1],[0.35],vertical,"(390.0, 762.0)",1.6166666666666667,0.307,1,4429.559,1
0,77,target,"[(1073, 792)]",[],[1],[0.55],vertical,"(390.0, 762.0)",1.4,0.509,1,4434.94,1
0,78,target,"[(1074, 782)]",[],[1],[0.6666666666666666],vertical,"(390.0, 762.0)",0.7166666666666667,0.623,1,4439.979,2
0,79,target,"[(1066, 800)]",[],[1],[0.85],vertical,"(390.0, 262.0)",0.9,nan,0,4444.903,0
0,80,target,"[(1063, 799)]",[],[1],[0.5333333333333333],horizontal,"(890.0, 262.0)",1.2833333333333332,0.495,1,4449.692,1
0,81,target,"[(1069, 780)]",[],[1],[0.5333333333333333],vertical,"(890.0, 262.0)",0.6666666666666666,0.497,1,4455.027,1
0,82,target,"[(1065, 790)]",[],[1],[0.85],vertical,"(890.0, 262.0)",0.9166666666666666,nan,0,4459.161,0
0,83,target,"[(1062, 787)]",[],[1],[0.55],horizontal,"(390.0, 262.0)",0.6,0.515,1,4463.861,1
0,84,target,"[(1063, 793)]",[],[1],[0.5666666666666667],vertical,"(890.0, 262.0)",0.7,0.525,1,4468.579,1
0,85,target,"[(1053, 807)]",[],[1],[0.6166666666666667],vertical,"(890.0, 262.0)",0.6166666666666667,0.591,1,4473.289,1
0,86,target,"[(1090, 807)]",[],[1],[0.85],vertical,"(390.0, 762.0)",0.8833333333333333,nan,0,4477.866,0
0,87,target,"[(1077, 804)]",[],[1],[0.48333333333333334],vertical,"(890.0, 262.0)",1.1833333333333333,0.442,1,4482.421,1
0,88,target,"[(1079, 790)]",[],[1],[0.6666666666666666],vertical,"(390.0, 262.0)",0.6833333333333333,0.63,1,4487.79,1
0,89,target,"[(1090, 790)]",[],[1],[0.85],vertical,"(890.0, 262.0)",0.7666666666666666,nan,0,4492.645,0
0,90,target,"[(1075, 813)]",[],[1],[0.6166666666666667],horizontal,"(890.0, 262.0)",1.35,0.574,1,4496.975,1
0,91,target,"[(1061, 807)]",[],[1],[0.5833333333333334],horizontal,"(890.0, 762.0)",1.5,0.541,1,4502.496,1
0,92,target,"[(1071, 796)]",[],[1],[0.55],vertical,"(890.0, 762.0)",1.2833333333333332,0.511,1,4508.201,1
0,93,target,"[(1065, 777)]",[],[1],[0.4666666666666667],vertical,"(890.0, 762.0)",1.6833333333333333,0.423,1,4513.753,2
0,94,target,"[(1080, 790)]",[],[1],[0.85],vertical,"(390.0, 762.0)",0.8666666666666667,nan,0,4519.699,0
0,95,target,"[(1040, 833)]",[],[1],[0.5666666666666667],horizontal,"(890.0, 262.0)",0.75,0.523,1,4524.61,1
0,96,target,"[(1080, 794)]",[],[1],[0.6833333333333333],horizontal,"(890.0, 262.0)",1.3166666666666667,0.636,1,4530.11,1
0,97,target,"[(1061, 793)]",[],[1],[0.5833333333333334],vertical,"(890.0, 262.0)",1.1166666666666667,0.545,1,4535.249,1
0,98,target,"[(1091, 800)]",[],[1],[0.6166666666666667],vertical,"(890.0, 262.0)",0.8,0.578,1,4540.193,2
0,99,target,"[(1062, 791)]",[],[1],[0.6333333333333333],horizontal,"(890.0, 762.0)",1.55,0.59,1,4545.503,2
0,100,target,"[(1083, 798)]",[],[1],[0.5833333333333334],vertical,"(890.0, 762.0)",1.0833333333333333,0.543,1,4551.194,2
0,101,target,"[(1077, 803)]",[],[1],[0.6166666666666667],horizontal,"(890.0, 762.0)",0.8333333333333334,0.575,1,4556.594,2
0,102,target,"[(1075, 796)]",[],[1],[0.65],vertical,"(390.0, 762.0)",0.8166666666666667,0.603,1,4561.727,2
0,103,target,"[(1080, 792)]",[],[1],[0.6333333333333333],horizontal,"(890.0, 262.0)",0.5,0.592,1,4566.894,3
0,104,target,"[(1085, 802)]",[],[1],[0.5666666666666667],vertical,"(390.0, 262.0)",1.0,0.525,1,4571.811,3
0,105,target,"[(1085, 808)]",[],[1],[0.6333333333333333],vertical,"(390.0, 262.0)",1.25,0.585,1,4577.733,3
0,106,target,"[(1080, 797)]",[],[1],[],horizontal,"(390.0, 762.0)",,"('cti', 1.149)",0,4583.762,0
0,107,target,"[(1071, 805)]",[],[1],[0.85],vertical,"(390.0, 762.0)",0.8666666666666667,nan,0,4587.994,0
0,108,target,"[(1095, 804)]",[],[1],[0.6833333333333333],vertical,"(390.0, 262.0)",1.1833333333333333,0.655,1,4593.044,1
0,109,target,"[(1075, 788)]",[],[1],[0.85],vertical,"(890.0, 762.0)",0.85,nan,0,4598.401,0
0,110,target,"[(1075, 801)]",[],[1],[0.5333333333333333],vertical,"(390.0, 262.0)",1.4666666666666666,0.489,1,4602.952,1
0,111,target,"[(1079, 797)]",[],[1],[0.5833333333333334],horizontal,"(390.0, 762.0)",1.1,0.544,1,4608.178,1
0,112,target,"[(1093, 789)]",[],[1],[0.5166666666666666],horizontal,"(390.0, 262.0)",1.25,0.477,1,4612.986,1
0,113,target,"[(1079, 794)]",[],[1],[0.48333333333333334],horizontal,"(890.0, 262.0)",1.4,0.441,1,4618.303,2
0,114,target,"[(1084, 785)]",[],[1],[0.6],horizontal,"(390.0, 762.0)",0.8,0.558,1,4623.844,2
0,115,target,"[(1077, 792)]",[],[1],[0.85],horizontal,"(390.0, 262.0)",0.7333333333333333,nan,0,4628.779,0
0,116,target,"[(1065, 803)]",[],[1],[0.5666666666666667],horizontal,"(390.0, 262.0)",0.6166666666666667,0.522,1,4634.016,1
0,117,target,"[(1070, 786)]",[],[1],[0.6166666666666667],vertical,"(390.0, 262.0)",0.8666666666666667,0.577,1,4638.23,1
0,118,target,"[(1059, 796)]",[],[1],[0.5],vertical,"(890.0, 262.0)",1.3,0.459,1,4642.617,1
0,119,target,"[(1077, 794)]",[],[1],[0.6166666666666667],vertical,"(390.0, 762.0)",0.7166666666666667,0.575,1,4647.713,2
0,120,target,"[(1070, 787)]",[],[1],[0.5166666666666666],horizontal,"(390.0, 262.0)",0.7833333333333333,0.491,1,4652.871,2
0,121,target,"[(1084, 790)]",[],[1],[0.5],horizontal,"(390.0, 262.0)",0.55,0.459,1,4657.895,2
0,122,target,"[(1061, 792)]",[],[1],[0.6333333333333333],vertical,"(390.0, 262.0)",1.3166666666666667,0.583,1,4662.628,2
0,123,target,"[(1067, 795)]",[],[1],[0.5166666666666666],horizontal,"(890.0, 262.0)",0.5,0.476,1,4668.489,2
0,124,target,"[(1074, 805)]",[],[1],[0.5666666666666667],vertical,"(390.0, 762.0)",1.5,0.523,1,4673.478,3
0,125,target,"[(1049, 767)]",[],[1],[0.6166666666666667],vertical,"(390.0, 262.0)",1.0666666666666667,0.573,1,4679.329,3
0,126,target,"[(1069, 786)]",[],[1],[0.7333333333333333],horizontal,"(890.0, 262.0)",1.4333333333333333,0.689,1,4684.796,3
0,127,target,"[(1065, 776)]",[],[1],[0.7],horizontal,"(390.0, 262.0)",0.9666666666666667,0.654,1,4690.745,3
0,128,target,"[(1070, 796)]",[],[1],[0.65],horizontal,"(390.0, 762.0)",0.55,0.608,1,4696.261,3
0,129,target,"[(1072, 789)]",[],[1],[0.6833333333333333],vertical,"(390.0, 762.0)",0.6333333333333333,0.644,1,4701.412,3
0,130,target,"[(1061, 791)]",[],[1],[0.55],vertical,"(390.0, 262.0)",1.3833333333333333,0.507,1,4706.813,3
0,131,target,"[(1082, 789)]",[],[1],[0.55],horizontal,"(390.0, 762.0)",1.3,0.519,1,4712.669,3
0,132,target,"[(1065, 791)]",[],[1],[0.85],horizontal,"(390.0, 262.0)",0.6666666666666666,nan,0,4718.77,0
0,133,target,"[(1075, 781)]",[],[1],[0.6],vertical,"(390.0, 262.0)",0.75,0.554,1,4723.713,1
0,134,catch,"[(1063, 787)]",[],[1],[],vertical,"(390.0, 762.0)",1.3166666666666667,nan,1,4728.595,1
0,135,target,"[(1064, 796)]",[],[1],[0.85],vertical,"(890.0, 262.0)",0.9166666666666666,nan,0,4733.479,0
0,136,target,"[(1075, 795)]",[],[1],[0.55],horizontal,"(890.0, 762.0)",0.8166666666666667,0.515,1,4738.145,1
0,137,target,"[(1072, 798)]",[],[1],[0.65],horizontal,"(890.0, 262.0)",0.6,0.609,1,4742.435,1
0,138,target,"[(1065, 782)]",[],[1],[0.5833333333333334],horizontal,"(390.0, 762.0)",1.4166666666666667,0.546,1,4746.696,1
0,139,target,"[(1086, 783)]",[],[1],[0.5833333333333334],vertical,"(890.0, 762.0)",1.15,0.54,1,4751.819,2
0,140,target,"[(1083, 786)]",[],[1],[0.5666666666666667],vertical,"(890.0, 762.0)",1.3,0.522,1,4757.295,2
0,141,target,"[(1074, 803)]",[],[1],[0.48333333333333334],horizontal,"(890.0, 762.0)",1.35,0.444,1,4763.161,2
0,142,catch,"[(1080, 776)]",[],[1],[],vertical,"(890.0, 262.0)",1.4333333333333333,nan,1,4768.313,2
0,143,target,"[(1073, 830)]",[],[1],[0.25],horizontal,"(890.0, 762.0)",1.65,0.216,1,4773.888,2
0,144,target,"[(1080, 791)]",[],[1],[0.85],horizontal,"(890.0, 762.0)",0.55,nan,0,4779.413,0
0,145,target,"[(1062, 810)]",[],[1],[0.6],vertical,"(390.0, 762.0)",1.1833333333333333,0.555,1,4783.549,1
0,146,target,"[(1070, 781)]",[],[1],[0.85],vertical,"(890.0, 762.0)",0.95,nan,0,4789.02,0
0,147,target,"[(1063, 790)]",[],[1],[0.6166666666666667],vertical,"(390.0, 262.0)",0.7,0.575,1,4793.322,1
0,148,target,"[(1063, 799)]",[],[1],[0.6333333333333333],horizontal,"(390.0, 262.0)",0.75,0.591,1,4798.164,1
0,149,target,"[(1065, 801)]",[],[1],[0.5666666666666667],horizontal,"(890.0, 262.0)",1.3166666666666667,0.526,1,4802.73,1
0,150,target,"[(1070, 804)]",[],[1],[0.35],vertical,"(390.0, 262.0)",1.6833333333333333,0.32,1,4807.831,2
0,151,target,"[(1078, 789)]",[],[1],[0.75],horizontal,"(390.0, 262.0)",1.05,0.718,1,4813.848,2
0,152,target,"[(1065, 793)]",[],[1],[0.5166666666666666],vertical,"(390.0, 262.0)",0.9333333333333333,0.476,1,4819.064,2
0,153,catch,"[(1081, 796)]",[],[1],[],horizontal,"(390.0, 762.0)",1.45,nan,1,4824.246,2
0,154,target,"[(1070, 789)]",[],[1],[0.35],horizontal,"(390.0, 762.0)",1.5333333333333332,0.308,1,4829.332,2
0,155,target,"[(1072, 778)]",[],[1],[0.7],horizontal,"(390.0, 762.0)",1.0166666666666666,0.652,1,4834.663,3
0,156,target,"[(1070, 792)]",[],[1],[0.7333333333333333],horizontal,"(390.0, 762.0)",0.8833333333333333,0.692,1,4840.356,3
0,157,target,"[(1065, 798)]",[],[1],[0.5833333333333334],horizontal,"(890.0, 262.0)",1.4666666666666666,0.541,1,4845.83,3
0,158,target,"[(1063, 807)]",[],[1],[0.65],horizontal,"(390.0, 762.0)",0.7333333333333333,0.608,1,4852.081,3
0,159,target,"[(1083, 778)]",[],[1],[0.65],horizontal,"(890.0, 262.0)",1.0833333333333333,0.605,1,4857.764,3
0,160,target,"[(1070, 771)]",[],[1],[0.6],horizontal,"(390.0, 762.0)",0.7333333333333333,0.561,1,4863.57,3
0,161,target,"[(1064, 792)]",[],[1],[0.8333333333333334],vertical,"(890.0, 762.0)",0.8333333333333334,0.791,1,4869.369,3
0,162,target,"[(1084, 815)]",[],[1],[],vertical,"(890.0, 262.0)",,"('cti', 1.342)",0,4875.4,0
0,163,target,"[(1067, 784)]",[],[1],[0.26666666666666666],vertical,"(390.0, 262.0)",1.5833333333333333,0.231,1,4880.232,1
0,164,target,"[(1061, 796)]",[],[1],[0.45],vertical,"(890.0, 762.0)",1.5166666666666666,0.416,1,4885.431,1
0,165,target,"[(1076, 791)]",[],[1],[0.5833333333333334],horizontal,"(390.0, 262.0)",0.75,0.546,1,4890.561,1
0,166,target,"[(1078, 791)]",[],[1],[0.5833333333333334],vertical,"(390.0, 262.0)",0.8333333333333334,0.539,1,4895.263,2
0,167,target,"[(1067, 801)]",[],[1],[0.6833333333333333],horizontal,"(890.0, 262.0)",0.6333333333333333,0.641,1,4900.181,2
0,168,target,"[(1080, 790)]",[],[1],[0.4],horizontal,"(890.0, 762.0)",1.6666666666666667,0.363,1,4904.763,2
0,169,target,"[(1075, 784)]",[],[1],[0.5833333333333334],horizontal,"(890.0, 262.0)",0.6,0.543,1,4910.634,2
0,170,target,"[(1061, 803)]",[],[1],[0.3333333333333333],horizontal,"(890.0, 262.0)",1.5833333333333333,0.298,1,4915.314,2
0,171,target,"[(1066, 785)]",[],[1],[0.21666666666666667],vertical,"(890.0, 262.0)",1.5833333333333333,0.18,1,4920.798,3
0,172,target,"[(1061, 796)]",[],[1],[0.5666666666666667],vertical,"(890.0, 262.0)",1.15,0.527,1,4927.131,3
0,173,target,"[(1065, 794)]",[],[1],[0.85],horizontal,"(890.0, 762.0)",0.5833333333333334,nan,0,4932.868,0
0,174,target,"[(1083, 806)]",[],[1],[0.7333333333333333],vertical,"(390.0, 262.0)",1.1166666666666667,0.691,1,4937.015,1
0,175,target,"[(1061, 790)]",[],[1],[0.7666666666666666],vertical,"(890.0, 762.0)",1.1166666666666667,0.73,1,4942.214,1
0,176,target,"[(1053, 803)]",[],[1],[0.6],horizontal,"(890.0, 262.0)",1.0,0.556,1,4947.355,1
0,177,target,"[(1090, 788)]",[],[1],[0.35],vertical,"(390.0, 762.0)",1.5833333333333333,0.316,1,4952.064,2
0,178,target,"[(1078, 796)]",[],[1],[0.5666666666666667],vertical,"(890.0, 262.0)",1.3,0.524,1,4957.848,2
0,179,target,"[(1075, 786)]",[],[1],[0.5],horizontal,"(890.0, 762.0)",1.4666666666666666,0.464,1,4963.165,2
0,180,target,"[(1061, 791)]",[],[1],[0.85],vertical,"(390.0, 262.0)",0.95,nan,0,4968.748,0
0,181,target,"[(1085, 800)]",[],[1],[0.5666666666666667],horizontal,"(390.0, 762.0)",0.7333333333333333,0.526,1,4973.466,1
0,182,target,"[(1080, 790)]",[],[1],[0.85],horizontal,"(890.0, 762.0)",0.8833333333333333,nan,0,4977.798,0
0,183,target,"[(1071, 802)]",[],[1],[0.5],vertical,"(890.0, 262.0)",1.2333333333333334,0.464,1,4982.369,1
0,184,catch,"[(1080, 784)]",[],[1],[],vertical,"(390.0, 262.0)",1.4333333333333333,nan,1,4987.679,1
0,185,target,"[(1066, 811)]",[],[1],[0.5666666666666667],horizontal,"(890.0, 762.0)",1.0666666666666667,0.522,1,4992.747,1
0,186,target,"[(1060, 803)]",[],[1],[0.6666666666666666],horizontal,"(390.0, 262.0)",1.1166666666666667,0.626,1,4997.948,2
0,187,target,"[(1075, 821)]",[],[1],[0.45],horizontal,"(890.0, 262.0)",1.5166666666666666,0.414,1,5005.366,2
0,188,target,"[(1080, 819)]",[],[1],[0.75],vertical,"(390.0, 762.0)",0.6833333333333333,0.718,1,5011.237,2
0,189,target,"[(1083, 805)]",[],[1],[0.5166666666666666],vertical,"(390.0, 262.0)",0.8,0.481,1,5016.224,2
0,190,target,"[(1058, 796)]",[],[1],[0.25],vertical,"(390.0, 762.0)",1.6166666666666667,0.218,1,5021.499,2
0,191,target,"[(1075, 800)]",[],[1],[0.65],horizontal,"(390.0, 762.0)",0.7833333333333333,0.608,1,5027.015,3
0,192,target,"[(1072, 801)]",[],[1],[0.5333333333333333],vertical,"(890.0, 262.0)",1.0666666666666667,0.496,1,5032.96,3
0,193,target,"[(1077, 790)]",[],[1],[0.3833333333333333],vertical,"(890.0, 762.0)",1.4166666666666667,0.353,1,5038.199,3
0,194,target,"[(1073, 824)]",[],[1],[0.4166666666666667],horizontal,"(390.0, 762.0)",1.4166666666666667,0.376,1,5044.014,3
0,195,target,"[(1066, 771)]",[],[1],[0.48333333333333334],vertical,"(390.0, 762.0)",1.3666666666666667,0.447,1,5050.099,3
0,196,target,"[(1080, 787)]",[],[1],[0.6166666666666667],horizontal,"(890.0, 762.0)",1.2166666666666666,0.573,1,5056.266,3
0,197,target,"[(1065, 782)]",[],[1],[0.65],horizontal,"(890.0, 262.0)",0.55,0.609,1,5062.03,3
0,198,catch,"[(1070, 799)]",[],[1],[],horizontal,"(890.0, 262.0)",1.55,nan,1,5066.933,3
0,199,target,"[(1062, 807)]",[],[1],[0.6],vertical,"(390.0, 262.0)",0.6833333333333333,0.563,1,5072.732,3
0,200,target,"[(1062, 803)]",[],[1],[0.5333333333333333],horizontal,"(390.0, 262.0)",1.5166666666666666,0.492,1,5078.155,3
0,201,target,"[(1079, 794)]",[],[1],[0.5166666666666666],horizontal,"(890.0, 262.0)",0.8833333333333333,0.476,1,5084.359,3
0,202,target,"[(1061, 805)]",[],[1],[0.5333333333333333],horizontal,"(390.0, 262.0)",0.6166666666666667,0.495,1,5089.539,3
0,203,target,"[(1070, 802)]",[],[1],[0.7666666666666666],vertical,"(890.0, 762.0)",1.1,0.722,1,5094.832,3
0,204,target,"[(1065, 802)]",[],[1],[0.6166666666666667],horizontal,"(390.0, 762.0)",0.9,0.572,1,5100.576,3
0,205,target,"[(1075, 788)]",[],[1],[0.5666666666666667],horizontal,"(890.0, 762.0)",1.3,0.53,1,5105.993,3
0,206,target,"[(1065, 795)]",[],[1],[0.6],horizontal,"(390.0, 262.0)",1.0333333333333332,0.564,1,5111.783,3
0,207,target,"[(1061, 777)]",[],[1],[0.6],vertical,"(890.0, 762.0)",0.5166666666666666,0.557,1,5117.625,3
0,208,catch,"[(1081, 783)]",[],[1],[],horizontal,"(890.0, 762.0)",1.2666666666666666,nan,1,5122.377,3
0,209,target,"[(1065, 795)]",[],[1],[0.3833333333333333],horizontal,"(390.0, 762.0)",1.2833333333333332,0.345,1,5127.882,3
0,210,target,"[(1081, 777)]",[],[1],[0.55],vertical,"(890.0, 262.0)",1.0333333333333332,0.507,1,5133.765,3
0,211,target,"[(1068, 795)]",[],[1],[0.6333333333333333],vertical,"(390.0, 762.0)",0.7,0.59,1,5139.283,3
0,212,target,"[(1063, 794)]",[],[1],[0.6833333333333333],vertical,"(890.0, 762.0)",0.95,0.639,1,5144.71,3
0,213,target,"[(1099, 796)]",[],[1],[0.7166666666666667],horizontal,"(390.0, 262.0)",0.95,0.674,1,5150.532,3
0,214,target,"[(1075, 793)]",[],[1],[0.6166666666666667],horizontal,"(890.0, 762.0)",0.8666666666666667,0.573,1,5156.399,3
0,215,target,"[(1077, 803)]",[],[1],[0.85],vertical,"(390.0, 762.0)",0.8333333333333334,nan,0,5161.665,0
0,216,target,"[(1063, 796)]",[],[1],[0.5666666666666667],horizontal,"(890.0, 762.0)",0.9666666666666667,0.526,1,5166.458,1
0,217,target,"[(1064, 790)]",[],[1],[0.85],vertical,"(390.0, 762.0)",1.6666666666666667,"('cti', 1.653),nan",0,5171.315,0
0,218,target,"[(1078, 812)]",[],[1],[0.4],horizontal,"(390.0, 762.0)",1.4333333333333333,0.366,1,5177.104,1
0,219,target,"[(1084, 773)]",[],[1],[0.5333333333333333],vertical,"(390.0, 262.0)",0.7333333333333333,0.491,1,5182.084,1
0,220,target,"[(1073, 803)]",[],[1],[0.3333333333333333],vertical,"(390.0, 262.0)",1.5833333333333333,0.298,1,5186.821,1
0,221,target,"[(1080, 796)]",[],[1],[0.4666666666666667],horizontal,"(890.0, 262.0)",1.4,0.435,1,5191.699,2
0,222,target,"[(1065, 781)]",[],[1],[0.6333333333333333],vertical,"(390.0, 762.0)",1.05,0.587,1,5197.728,2
0,223,target,"[(1060, 782)]",[],[1],[0.5666666666666667],vertical,"(390.0, 262.0)",0.6333333333333333,0.523,1,5202.9,2
0,224,target,"[(1086, 777)]",[],[1],[0.85],vertical,"(390.0, 762.0)",0.5166666666666666,nan,0,5208.116,0
0,225,target,"[(1062, 806)]",[],[1],[0.6166666666666667],vertical,"(890.0, 262.0)",0.6666666666666666,0.573,1,5211.983,1
0,226,target,"[(1075, 796)]",[],[1],[0.5666666666666667],horizontal,"(390.0, 762.0)",1.35,0.528,1,5216.642,1
0,227,target,"[(1061, 789)]",[],[1],[0.85],vertical,"(890.0, 762.0)",0.9166666666666666,nan,0,5221.857,0
0,228,target,"[(1085, 811)]",[],[1],[0.4666666666666667],vertical,"(890.0, 762.0)",1.4166666666666667,0.427,1,5226.876,1
0,229,target,"[(1067, 800)]",[],[1],[0.6166666666666667],vertical,"(890.0, 762.0)",1.05,0.574,1,5231.811,1
0,230,catch,"[(1062, 797)]",[],[1],[],horizontal,"(390.0, 262.0)",1.6333333333333333,nan,1,5236.367,1
0,231,target,"[(1065, 797)]",[],[1],[0.5333333333333333],vertical,"(890.0, 262.0)",1.3333333333333333,0.499,1,5241.115,2
0,232,target,"[(1088, 798)]",[],[1],[0.4],vertical,"(890.0, 762.0)",1.55,0.358,1,5246.816,2
0,233,target,"[(1076, 796)]",[],[1],[0.5166666666666666],vertical,"(390.0, 762.0)",1.5166666666666666,0.478,1,5252.55,2
0,234,catch,"[(1071, 793)]",[],[1],[],horizontal,"(890.0, 762.0)",1.2833333333333332,nan,1,5258.566,2
0,235,target,"[(1063, 801)]",[],[1],[0.3833333333333333],vertical,"(390.0, 262.0)",1.5333333333333332,0.347,1,5263.726,2
0,236,target,"[(1080, 798)]",[],[1],[0.6166666666666667],horizontal,"(390.0, 762.0)",0.7333333333333333,0.575,1,5269.401,3
0,237,target,"[(1064, 802)]",[],[1],[0.43333333333333335],vertical,"(390.0, 262.0)",1.5,0.401,1,5274.684,3
0,238,target,"[(1079, 784)]",[],[1],[0.85],vertical,"(390.0, 762.0)",0.5666666666666667,nan,0,5281.182,0
0,239,target,"[(1063, 808)]",[],[1],[0.6166666666666667],vertical,"(390.0, 262.0)",0.9166666666666666,0.573,1,5285.459,1
0,240,target,"[(1051, 796)]",[],[1],[0.7],vertical,"(390.0, 762.0)",0.6333333333333333,0.652,1,5290.643,1
0,241,target,"[(1064, 782)]",[],[1],[0.5333333333333333],horizontal,"(890.0, 262.0)",0.55,0.494,1,5294.978,1
0,242,target,"[(1065, 802)]",[],[1],[0.7166666666666667],horizontal,"(890.0, 762.0)",0.9166666666666666,0.672,1,5299.801,2
0,243,target,"[(1085, 789)]",[],[1],[0.5666666666666667],horizontal,"(890.0, 262.0)",0.8,0.524,1,5305.05,2
0,244,catch,"[(1062, 796)]",[],[1],[],horizontal,"(890.0, 262.0)",1.5,nan,1,5310.474,2
0,245,target,"[(1065, 803)]",[],[1],[0.85],horizontal,"(390.0, 762.0)",1.4833333333333334,"('cti', 1.473),nan",0,5315.555,0
0,246,target,"[(1080, 796)]",[],[1],[0.11666666666666667],horizontal,"(390.0, 762.0)",1.05,0.082,0,5321.084,0
0,247,target,"[(1073, 801)]",[],[1],[0.85],horizontal,"(890.0, 762.0)",0.6833333333333333,nan,0,5325.521,0
0,248,target,"[(1046, 803)]",[],[1],[0.5666666666666667],horizontal,"(890.0, 762.0)",1.65,0.525,1,5329.817,1
0,249,catch,"[(1070, 799)]",[],[1],[],vertical,"(890.0, 262.0)",1.45,nan,1,5335.101,1
0,250,target,"[(1081, 789)]",[],[1],[0.6],horizontal,"(890.0, 762.0)",0.65,0.56,1,5340.292,1
0,251,target,"[(1085, 789)]",[],[1],[0.2],horizontal,"(390.0, 262.0)",1.6,0.169,1,5345.151,2
0,252,target,"[(1067, 803)]",[],[1],[0.7333333333333333],horizontal,"(890.0, 262.0)",1.0,0.686,1,5350.319,2
0,253,target,"[(1069, 786)]",[],[1],[0.4],vertical,"(390.0, 262.0)",1.45,0.362,1,5355.738,2
0,254,target,"[(1059, 803)]",[],[1],[0.4166666666666667],horizontal,"(890.0, 762.0)",1.4833333333333334,0.378,1,5361.419,2
0,255,target,"[(1084, 799)]",[],[1],[0.6],horizontal,"(390.0, 762.0)",1.2833333333333332,0.557,1,5367.03,2
0,256,target,"[(1062, 803)]",[],[1],[0.5166666666666666],vertical,"(390.0, 262.0)",1.0833333333333333,0.485,1,5372.268,3
0,257,target,"[(1090, 787)]",[],[1],[0.6333333333333333],horizontal,"(390.0, 762.0)",1.2833333333333332,0.593,1,5378.275,3
0,258,target,"[(1068, 787)]",[],[1],[0.6166666666666667],horizontal,"(890.0, 262.0)",1.4666666666666666,0.574,1,5383.984,3
0,259,target,"[(1103, 802)]",[],[1],[0.5833333333333334],vertical,"(390.0, 762.0)",0.5,0.543,1,5390.067,3
0,260,target,"[(1064, 774)]",[],[1],[0.5833333333333334],vertical,"(390.0, 262.0)",0.7166666666666667,0.548,1,5395.75,3
0,261,target,"[(1071, 801)]",[],[1],[0.6333333333333333],horizontal,"(890.0, 262.0)",0.5666666666666667,0.591,1,5401.103,3
0,262,target,"[(1086, 796)]",[],[1],[],horizontal,"(390.0, 262.0)",,"('cti', 1.537)",0,5406.866,0
0,263,target,"[(1062, 815)]",[],[1],[0.6833333333333333],horizontal,"(390.0, 262.0)",0.6666666666666666,0.641,1,5411.902,1
0,264,target,"[(1079, 804)]",[],[1],[0.18333333333333332],horizontal,"(390.0, 762.0)",1.5166666666666666,0.149,0,5416.752,0
0,265,target,"[(1085, 800)]",[],[1],[0.5833333333333334],horizontal,"(390.0, 762.0)",0.9166666666666666,0.538,1,5421.724,1
0,266,target,"[(1084, 792)]",[],[1],[0.3333333333333333],horizontal,"(390.0, 762.0)",1.45,0.297,1,5426.618,1
0,267,target,"[(1058, 799)]",[],[1],[0.5166666666666666],vertical,"(890.0, 762.0)",1.3166666666666667,0.474,1,5431.769,1
0,268,target,"[(1061, 786)]",[],[1],[0.4],horizontal,"(390.0, 262.0)",1.3833333333333333,0.36,1,5437.001,2
0,269,target,"[(1090, 806)]",[],[1],[0.6],horizontal,"(890.0, 762.0)",0.8333333333333334,0.557,1,5442.508,2
0,270,target,"[(1065, 806)]",[],[1],[0.4],horizontal,"(390.0, 762.0)",1.5166666666666666,0.357,1,5447.363,2
0,271,target,"[(1069, 793)]",[],[1],[0.7],horizontal,"(890.0, 762.0)",0.55,0.66,1,5452.713,2
0,272,target,"[(1084, 820)]",[],[1],[0.7166666666666667],horizontal,"(890.0, 262.0)",1.0166666666666666,0.676,1,5457.601,2
0,273,target,"[(1073, 796)]",[],[1],[0.6833333333333333],vertical,"(890.0, 762.0)",0.9833333333333333,0.643,1,5463.185,3
0,274,target,"[(1071, 795)]",[],[1],[0.65],horizontal,"(390.0, 762.0)",0.65,0.601,1,5469.146,3
0,275,target,"[(1081, 779)]",[],[1],[],horizontal,"(390.0, 262.0)",,"('cti', 1.326)",0,5474.384,0
0,276,target,"[(1068, 808)]",[],[1],[0.6],horizontal,"(390.0, 262.0)",0.6333333333333333,0.555,1,5478.651,1
0,277,target,"[(1071, 785)]",[],[1],[0.5333333333333333],horizontal,"(390.0, 762.0)",0.8833333333333333,0.489,1,5483.484,1
0,278,target,"[(1065, 776)]",[],[1],[0.8166666666666667],horizontal,"(390.0, 762.0)",0.95,0.767,1,5487.808,1
0,279,target,"[(1065, 782)]",[],[1],[0.2833333333333333],horizontal,"(390.0, 762.0)",1.3666666666666667,0.247,1,5492.852,2
0,280,target,"[(1079, 800)]",[],[1],[0.5666666666666667],horizontal,"(890.0, 762.0)",0.9,0.527,1,5498.462,2
0,281,target,"[(1079, 770)]",[],[1],[0.55],horizontal,"(890.0, 262.0)",1.0333333333333332,0.507,1,5503.55,2
0,282,catch,"[(1080, 801)]",[],[1],[],vertical,"(390.0, 762.0)",1.4,nan,1,5508.663,2
0,283,target,"[(1066, 800)]",[],[1],[0.6],vertical,"(890.0, 262.0)",1.3166666666666667,0.558,1,5513.815,2
0,284,target,"[(1068, 797)]",[],[1],[0.85],vertical,"(390.0, 262.0)",0.55,nan,0,5519.41,0
0,285,target,"[(1061, 803)]",[],[1],[0.5666666666666667],horizontal,"(890.0, 262.0)",0.8833333333333333,0.524,1,5523.771,1
0,286,target,"[(1026, 826)]",[],[1],[0.5166666666666666],horizontal,"(390.0, 762.0)",1.0666666666666667,0.473,1,5528.918,1
0,287,target,"[(1058, 808)]",[],[1],[0.3],vertical,"(390.0, 762.0)",1.55,0.261,1,5577.387,1
0,288,target,"[(1066, 806)]",[],[1],[0.6166666666666667],horizontal,"(390.0, 762.0)",0.6,0.571,1,5582.546,2
0,289,target,"[(1075, 804)]",[],[1],[0.65],vertical,"(390.0, 762.0)",1.3833333333333333,0.607,1,5587.611,2
0,290,target,"[(1075, 806)]",[],[1],[0.5833333333333334],horizontal,"(390.0, 262.0)",0.6833333333333333,0.536,1,5593.119,2
0,291,target,"[(1075, 796)]",[],[1],[0.3333333333333333],vertical,"(390.0, 262.0)",0.9833333333333333,0.296,1,5597.919,2
0,292,catch,"[(1066, 801)]",[],[1],[],horizontal,"(390.0, 262.0)",1.5666666666666667,nan,1,5603.236,2
0,293,target,"[(1061, 784)]",[],[1],[0.5833333333333334],vertical,"(890.0, 762.0)",1.3666666666666667,0.544,1,5608.352,3
0,294,target,"[(1076, 805)]",[],[1],[0.85],horizontal,"(390.0, 262.0)",0.7833333333333333,nan,0,5614.55,0
0,295,target,"[(1064, 811)]",[],[1],[0.6833333333333333],horizontal,"(890.0, 762.0)",0.55,0.638,1,5619.236,1
0,296,target,"[(1076, 808)]",[],[1],[0.5333333333333333],horizontal,"(890.0, 262.0)",0.7666666666666666,0.498,1,5623.882,1
0,297,target,"[(1061, 805)]",[],[1],[0.75],horizontal,"(890.0, 262.0)",0.5666666666666667,0.707,1,5958.398,1
0,298,catch,"[(1049, 787)]",[],[1],[],horizontal,"(890.0, 262.0)",1.4166666666666667,nan,1,5963.273,2
0,299,target,"[(1074, 806)]",[],[1],[0.5833333333333334],horizontal,"(390.0, 262.0)",1.1166666666666667,0.542,1,5968.796,2
0,300,target,"[(1070, 806)]",[],[1],[0.5833333333333334],vertical,"(890.0, 762.0)",1.1,0.548,1,5973.938,2
0,301,catch,"[(1056, 809)]",[],[1],[],horizontal,"(890.0, 262.0)",1.4666666666666666,nan,1,5979.252,2
0,302,target,"[(1070, 796)]",[],[1],[0.55],horizontal,"(890.0, 262.0)",0.7833333333333333,0.506,1,5984.306,2
0,303,catch,"[(1071, 796)]",[],[1],[],horizontal,"(390.0, 762.0)",1.25,nan,1,5989.273,3
0,304,target,"[(1061, 787)]",[],[1],[0.35],vertical,"(890.0, 262.0)",1.4,0.313,1,5995.058,3
0,305,target,"[(1055, 781)]",[],[1],[0.43333333333333335],horizontal,"(890.0, 262.0)",1.4,0.398,1,6001.376,3
0,306,target,"[(1056, 769)]",[],[1],[0.5],horizontal,"(890.0, 262.0)",1.4,0.46,1,6007.05,3
0,307,target,"[(1062, 776)]",[],[1],[0.65],vertical,"(390.0, 762.0)",0.8666666666666667,0.605,1,6012.98,3
0,308,target,"[(1056, 781)]",[],[1],[0.5833333333333334],horizontal,"(390.0, 762.0)",1.1333333333333333,0.544,1,6018.505,3
0,309,target,"[(1063, 800)]",[],[1],[0.7],vertical,"(890.0, 262.0)",1.0666666666666667,0.657,1,6024.586,3
0,310,target,"[(1064, 786)]",[],[1],[0.21666666666666667],horizontal,"(390.0, 262.0)",1.35,0.18,1,6030.367,3
0,311,target,"[(1067, 805)]",[],[1],[0.2833333333333333],horizontal,"(890.0, 262.0)",1.4833333333333334,0.246,1,6036.337,3
0,312,target,"[(1072, 788)]",[],[1],[0.6833333333333333],horizontal,"(390.0, 262.0)",1.2666666666666666,0.637,1,6042.26,3
0,313,target,"[(1060, 794)]",[],[1],[0.55],horizontal,"(890.0, 762.0)",0.5666666666666667,0.511,1,6047.953,3
0,314,target,"[(1058, 778)]",[],[1],[0.3333333333333333],vertical,"(390.0, 762.0)",1.6833333333333333,0.292,1,6053.474,3
0,315,target,"[(1065, 776)]",[],[1],[0.2],horizontal,"(390.0, 762.0)",1.5833333333333333,0.171,1,6059.521,3
0,316,target,"[(1056, 771)]",[],[1],[0.65],vertical,"(890.0, 262.0)",1.0166666666666666,0.604,1,6065.649,3
0,317,target,"[(1072, 773)]",[],[1],[0.5666666666666667],horizontal,"(390.0, 762.0)",1.25,0.532,1,6071.439,3
0,318,target,"[(1051, 776)]",[],[1],[0.5666666666666667],vertical,"(890.0, 762.0)",0.8166666666666667,0.522,1,6077.089,3
0,319,target,"[(1071, 779)]",[],[1],[0.48333333333333334],horizontal,"(890.0, 262.0)",0.75,0.443,1,6082.807,3
0,320,catch,"[(1058, 775)]",[],[1],[],horizontal,"(890.0, 262.0)",1.2666666666666666,"('cti', 1.253),nan",0,6088.49,0
0,321,target,"[(1061, 799)]",[],[1],[0.6],horizontal,"(390.0, 762.0)",0.55,0.567,1,6093.203,1
0,322,target,"[(1070, 797)]",[],[1],[0.65],horizontal,"(890.0, 262.0)",0.55,0.608,1,6098.006,1
0,323,target,"[(1058, 786)]",[],[1],[0.5333333333333333],vertical,"(390.0, 262.0)",0.7,0.49,1,6102.256,1
0,324,target,"[(1067, 767)]",[],[1],[0.6333333333333333],vertical,"(890.0, 262.0)",0.65,0.588,1,6106.876,2
0,325,target,"[(1051, 808)]",[],[1],[0.65],horizontal,"(390.0, 762.0)",0.6166666666666667,0.602,1,6111.892,2
0,326,target,"[(1061, 783)]",[],[1],[0.5333333333333333],vertical,"(390.0, 262.0)",1.3,0.492,1,6117.208,2
0,327,target,"[(1061, 775)]",[],[1],[0.35],vertical,"(390.0, 762.0)",1.45,0.314,1,6122.596,2
0,328,target,"[(1060, 795)]",[],[1],[0.5666666666666667],horizontal,"(890.0, 762.0)",0.8833333333333333,0.53,1,6128.073,2
0,329,target,"[(1061, 795)]",[],[1],[0.65],vertical,"(390.0, 262.0)",0.7166666666666667,0.605,1,6133.205,3
0,330,catch,"[(1075, 792)]",[],[1],[],vertical,"(890.0, 262.0)",1.3,nan,1,6138.74,3
0,331,target,"[(1058, 807)]",[],[1],[0.25],horizontal,"(390.0, 262.0)",1.6,0.212,1,6144.064,3
0,332,target,"[(1061, 771)]",[],[1],[0.6],vertical,"(390.0, 262.0)",0.7,0.557,1,6150.17,3
0,333,target,"[(1070, 786)]",[],[1],[0.7833333333333333],horizontal,"(890.0, 762.0)",0.75,0.741,1,6155.386,3
0,334,target,"[(1070, 806)]",[],[1],[0.55],vertical,"(890.0, 262.0)",0.7333333333333333,0.505,1,6161.195,3
0,335,target,"[(1082, 769)]",[],[1],[0.1],horizontal,"(390.0, 262.0)",1.6166666666666667,0.065,0,6166.7,0
0,336,target,"[(1080, 785)]",[],[1],[0.7166666666666667],vertical,"(890.0, 762.0)",1.1,0.666,1,6171.618,1
0,337,target,"[(1074, 795)]",[],[1],[0.5333333333333333],vertical,"(390.0, 762.0)",1.35,0.487,1,6176.749,1
0,338,target,"[(1060, 762)]",[],[1],[0.2833333333333333],vertical,"(390.0, 762.0)",1.4833333333333334,0.245,1,6182.132,1
0,339,target,"[(1057, 791)]",[],[1],[0.6333333333333333],horizontal,"(390.0, 262.0)",1.1166666666666667,0.591,1,6187.041,2
0,340,target,"[(1075, 794)]",[],[1],[0.5666666666666667],vertical,"(890.0, 762.0)",0.9,0.525,1,6192.642,2
0,341,target,"[(1058, 773)]",[],[1],[0.5333333333333333],horizontal,"(890.0, 262.0)",0.95,0.494,1,6197.574,2
0,342,target,"[(1071, 790)]",[],[1],[],horizontal,"(890.0, 262.0)",,"('cti', 0.589)",0,6202.653,0
0,343,target,"[(1070, 791)]",[],[1],[0.6166666666666667],horizontal,"(890.0, 262.0)",0.5333333333333333,0.578,1,6206.59,1
0,344,target,"[(1056, 822)]",[],[1],[0.4],vertical,"(390.0, 262.0)",1.4166666666666667,0.366,1,6211.307,1
0,345,target,"[(1075, 790)]",[],[1],[0.36666666666666664],horizontal,"(390.0, 762.0)",1.5833333333333333,0.329,1,6216.977,1
0,346,target,"[(1071, 800)]",[],[1],[0.25],horizontal,"(890.0, 262.0)",1.65,0.214,1,6222.164,2
0,347,target,"[(1087, 788)]",[],[1],[0.25],horizontal,"(890.0, 762.0)",1.5166666666666666,0.213,1,6227.507,2
0,348,target,"[(1057, 790)]",[],[1],[0.4],vertical,"(890.0, 762.0)",1.4333333333333333,0.363,1,6232.944,2
0,349,target,"[(1064, 795)]",[],[1],[0.6],horizontal,"(390.0, 262.0)",0.7333333333333333,0.557,1,6238.739,2
0,350,target,"[(1071, 771)]",[],[1],[0.6333333333333333],vertical,"(890.0, 762.0)",0.8,0.585,1,6243.922,2
0,351,catch,"[(1066, 792)]",[],[1],[],vertical,"(390.0, 762.0)",1.55,nan,1,6249.07,3
0,352,target,"[(1063, 781)]",[],[1],[0.5333333333333333],vertical,"(890.0, 762.0)",1.15,0.492,1,6255.091,3
0,353,target,"[(1087, 792)]",[],[1],[0.7166666666666667],horizontal,"(890.0, 262.0)",0.55,0.67,1,6260.728,3
0,354,target,"[(1061, 800)]",[],[1],[0.5666666666666667],horizontal,"(390.0, 262.0)",0.8333333333333334,0.533,1,6265.954,3
0,355,catch,"[(1075, 791)]",[],[1],[],vertical,"(390.0, 762.0)",1.5333333333333332,nan,1,6271.739,3
0,356,target,"[(1066, 787)]",[],[1],[0.23333333333333334],horizontal,"(390.0, 262.0)",1.6,0.195,1,6277.579,3
0,357,target,"[(1065, 788)]",[],[1],[0.5666666666666667],vertical,"(390.0, 262.0)",0.7333333333333333,0.526,1,6283.475,3
0,358,target,"[(1077, 782)]",[],[1],[0.6],vertical,"(890.0, 262.0)",0.5833333333333334,0.554,1,6289.025,3
0,359,target,"[(1061, 796)]",[],[1],[0.18333333333333332],vertical,"(890.0, 762.0)",1.2166666666666666,0.15,1,6294.565,3
0,360,catch,"[(1061, 782)]",[],[1],[],horizontal,"(890.0, 262.0)",1.6333333333333333,nan,1,6301.074,3
0,361,target,"[(1062, 800)]",[],[1],[0.5333333333333333],horizontal,"(890.0, 262.0)",0.7833333333333333,0.49,1,6306.657,3
0,362,target,"[(1075, 771)]",[],[1],[0.35],vertical,"(390.0, 262.0)",1.5166666666666666,0.311,1,6312.368,3
0,363,target,"[(1064, 775)]",[],[1],[0.55],vertical,"(890.0, 762.0)",0.8666666666666667,0.514,1,6318.592,3
0,364,target,"[(1092, 796)]",[],[1],[0.6333333333333333],vertical,"(890.0, 262.0)",0.95,0.598,1,6324.175,3
0,365,target,"[(1081, 771)]",[],[1],[0.21666666666666667],horizontal,"(390.0, 762.0)",1.5833333333333333,0.183,1,6329.892,3
0,366,target,"[(1067, 777)]",[],[1],[0.5333333333333333],vertical,"(890.0, 262.0)",1.3166666666666667,0.492,1,6335.605,3
0,367,target,"[(1063, 774)]",[],[1],[0.85],vertical,"(390.0, 762.0)",0.5833333333333334,nan,0,6341.546,0
0,368,target,"[(1061, 800)]",[],[1],[0.75],vertical,"(390.0, 762.0)",0.5,0.705,1,6346.259,1
0,369,target,"[(1058, 768)]",[],[1],[0.6833333333333333],vertical,"(390.0, 762.0)",1.2166666666666666,0.642,1,6350.826,1
0,370,target,"[(1093, 766)]",[],[1],[0.85],horizontal,"(390.0, 262.0)",1.05,nan,0,6355.99,0
0,371,target,"[(1061, 798)]",[],[1],[0.65],vertical,"(890.0, 762.0)",1.2166666666666666,0.616,1,6361.141,1
0,372,catch,"[(1074, 791)]",[],[1],[],horizontal,"(390.0, 762.0)",1.3833333333333333,nan,1,6366.276,1
0,373,target,"[(1086, 786)]",[],[1],[0.6666666666666666],vertical,"(390.0, 262.0)",0.85,0.623,1,6370.796,1
0,374,target,"[(1071, 782)]",[],[1],[0.55],vertical,"(890.0, 262.0)",1.3666666666666667,0.514,1,6375.476,2
0,375,target,"[(1081, 803)]",[],[1],[0.2],vertical,"(390.0, 262.0)",1.3666666666666667,0.173,1,6381.159,2
0,376,target,"[(1083, 778)]",[],[1],[0.5833333333333334],vertical,"(890.0, 262.0)",0.9166666666666666,0.542,1,6386.305,2
0,377,target,"[(1081, 771)]",[],[1],[0.7833333333333333],horizontal,"(890.0, 762.0)",0.9333333333333333,0.736,1,6391.33,2
0,378,target,"[(1085, 794)]",[],[1],[0.3333333333333333],vertical,"(390.0, 762.0)",0.9166666666666666,0.297,1,6396.836,2
0,379,target,"[(1061, 801)]",[],[1],[0.85],vertical,"(890.0, 762.0)",0.55,nan,0,6401.909,0
0,380,target,"[(1061, 805)]",[],[1],[0.5833333333333334],horizontal,"(890.0, 762.0)",1.25,0.543,1,6406.558,1
0,381,target,"[(1063, 769)]",[],[1],[0.6666666666666666],vertical,"(890.0, 762.0)",0.7833333333333333,0.62,1,6411.875,1
0,382,target,"[(1082, 799)]",[],[1],[0.15],vertical,"(390.0, 762.0)",1.5833333333333333,0.118,0,6416.525,0
0,383,target,"[(1058, 841)]",[],[1],[0.85],vertical,"(890.0, 762.0)",1.1,nan,0,6427.482,0
0,384,target,"[(1056, 806)]",[],[1],[0.5666666666666667],horizontal,"(890.0, 762.0)",1.0833333333333333,0.529,1,6433.059,1
0,385,catch,"[(1063, 802)]",[],[1],[],vertical,"(890.0, 762.0)",1.2833333333333332,nan,1,6437.994,1
0,386,target,"[(1082, 800)]",[],[1],[0.4166666666666667],horizontal,"(390.0, 762.0)",1.3666666666666667,0.383,1,6442.859,1
0,387,target,"[(1101, 796)]",[],[1],[0.4166666666666667],horizontal,"(390.0, 762.0)",1.5,0.378,1,6448.16,2
0,388,target,"[(1084, 784)]",[],[1],[0.5166666666666666],horizontal,"(890.0, 262.0)",1.4333333333333333,0.471,1,6453.705,2
0,389,target,"[(1084, 786)]",[],[1],[0.4166666666666667],vertical,"(390.0, 762.0)",1.4,0.377,1,6459.477,2
0,390,target,"[(1077, 778)]",[],[1],[0.25],vertical,"(890.0, 262.0)",1.6,0.215,1,6465.127,2
0,391,target,"[(1080, 789)]",[],[1],[0.36666666666666664],horizontal,"(890.0, 762.0)",1.45,0.33,1,6470.61,2
0,392,target,"[(1067, 780)]",[],[1],[0.5],horizontal,"(390.0, 262.0)",1.1166666666666667,0.465,1,6476.409,3
0,393,target,"[(1084, 787)]",[],[1],[0.55],horizontal,"(890.0, 762.0)",1.0,0.503,1,6482.293,3
0,394,target,"[(1059, 773)]",[],[1],[0.5666666666666667],horizontal,"(890.0, 262.0)",1.05,0.524,1,6488.158,3
0,395,target,"[(1061, 774)]",[],[1],[0.5],vertical,"(390.0, 262.0)",1.2333333333333334,0.467,1,6493.994,3
0,396,target,"[(1061, 782)]",[],[1],[0.55],horizontal,"(890.0, 762.0)",0.9833333333333333,0.507,1,6499.66,3
0,397,target,"[(1082, 785)]",[],[1],[0.65],horizontal,"(890.0, 762.0)",0.8166666666666667,0.604,1,6505.247,3
0,398,target,"[(1061, 782)]",[],[1],[0.5666666666666667],vertical,"(390.0, 262.0)",0.8666666666666667,0.529,1,6510.527,3
0,399,target,"[(1058, 770)]",[],[1],[0.65],vertical,"(890.0, 262.0)",1.05,0.613,1,6515.936,3
0,400,target,"[(1078, 791)]",[],[1],[0.26666666666666666],horizontal,"(390.0, 262.0)",1.5333333333333332,0.23,1,6521.576,3
0,401,target,"[(1064, 786)]",[],[1],[0.6833333333333333],vertical,"(390.0, 262.0)",1.1333333333333333,0.647,1,6527.253,3
0,402,target,"[(1056, 778)]",[],[1],[0.5666666666666667],horizontal,"(890.0, 762.0)",0.9166666666666666,0.523,1,6533.055,3
0,403,target,"[(1061, 778)]",[],[1],[0.23333333333333334],horizontal,"(390.0, 762.0)",1.6666666666666667,0.201,1,6538.704,3
0,404,target,"[(1056, 761)]",[],[1],[0.5],horizontal,"(890.0, 262.0)",1.2,0.468,1,6544.927,3
0,405,target,"[(1061, 791)]",[],[1],[0.5166666666666666],vertical,"(890.0, 762.0)",1.3,0.481,1,6551.025,3
0,406,catch,"[(1060, 782)]",[],[1],[],horizontal,"(390.0, 262.0)",1.6833333333333333,nan,1,6556.739,3
0,407,target,"[(1063, 784)]",[],[1],[0.5333333333333333],vertical,"(390.0, 762.0)",1.4833333333333334,0.493,1,6562.292,3
0,408,target,"[(1055, 786)]",[],[1],[0.6],horizontal,"(890.0, 762.0)",0.8333333333333334,0.57,1,6568.077,3
0,409,target,"[(1071, 784)]",[],[1],[0.7833333333333333],horizontal,"(390.0, 762.0)",1.0166666666666666,0.752,1,6573.495,3
0,410,catch,"[(1075, 781)]",[],[1],[],vertical,"(390.0, 262.0)",1.5666666666666667,nan,1,6579.127,3
0,411,target,"[(1066, 787)]",[],[1],[0.6166666666666667],vertical,"(390.0, 762.0)",0.7666666666666666,0.575,1,6584.71,3
0,412,target,"[(1059, 772)]",[],[1],[0.6333333333333333],vertical,"(390.0, 762.0)",0.5,0.588,1,6590.128,3
0,413,target,"[(1055, 782)]",[],[1],[0.43333333333333335],vertical,"(390.0, 262.0)",1.3333333333333333,0.396,1,6595.595,3
0,414,target,"[(1067, 780)]",[],[1],[0.26666666666666666],horizontal,"(890.0, 762.0)",1.4,0.229,1,6601.309,3
0,415,target,"[(1056, 769)]",[],[1],[0.5666666666666667],vertical,"(390.0, 262.0)",1.3166666666666667,0.526,1,6607.367,3
0,416,target,"[(1064, 796)]",[],[1],[0.5833333333333334],vertical,"(390.0, 262.0)",0.5666666666666667,0.543,1,6612.936,3
0,417,target,"[(1051, 801)]",[],[1],[0.6333333333333333],horizontal,"(890.0, 762.0)",0.5666666666666667,0.589,1,6618.444,3
0,418,target,"[(1063, 762)]",[],[1],[0.3333333333333333],vertical,"(890.0, 762.0)",1.4,0.294,1,6624.947,3
0,419,target,"[(1077, 779)]",[],[1],[0.7166666666666667],horizontal,"(890.0, 262.0)",0.9,0.67,1,6630.794,3
0,420,target,"[(1061, 796)]",[],[1],[0.5833333333333334],vertical,"(890.0, 762.0)",0.9,0.547,1,6636.525,3
0,421,target,"[(1067, 770)]",[],[1],[0.5166666666666666],horizontal,"(390.0, 762.0)",1.3166666666666667,0.478,1,6642.062,3
0,422,target,"[(1065, 778)]",[],[1],[0.45],vertical,"(890.0, 762.0)",1.3,0.412,1,6647.745,3
0,423,target,"[(1057, 766)]",[],[1],[0.75],vertical,"(390.0, 762.0)",0.5,0.706,1,6653.557,3
0,424,target,"[(1075, 802)]",[],[1],[0.65],vertical,"(390.0, 762.0)",0.8666666666666667,0.611,1,6658.969,3
0,425,target,"[(1056, 785)]",[],[1],[],horizontal,"(890.0, 262.0)",,"('cti', 1.255)",0,6664.331,0
0,426,target,"[(1071, 801)]",[],[1],[0.55],horizontal,"(890.0, 262.0)",0.9,0.505,1,6668.959,1
0,427,target,"[(1068, 781)]",[],[1],[0.26666666666666666],horizontal,"(890.0, 262.0)",1.6166666666666667,0.23,1,6673.95,1
0,428,target,"[(1047, 786)]",[],[1],[0.6166666666666667],vertical,"(390.0, 762.0)",1.35,0.576,1,6679.427,1
0,429,target,"[(1061, 771)]",[],[1],[0.6],horizontal,"(890.0, 262.0)",0.5,0.558,1,6684.808,2
0,430,target,"[(1067, 780)]",[],[1],[0.85],horizontal,"(390.0, 762.0)",0.6333333333333333,nan,0,6689.795,0
0,431,target,"[(1048, 779)]",[],[1],[0.5],vertical,"(390.0, 262.0)",1.55,0.468,1,6694.376,1
0,432,target,"[(1067, 778)]",[],[1],[0.65],vertical,"(390.0, 762.0)",0.6833333333333333,0.608,1,6699.826,1
0,433,target,"[(1070, 778)]",[],[1],[0.2],vertical,"(890.0, 762.0)",1.6166666666666667,0.168,1,6704.711,1
0,434,target,"[(1041, 758)]",[],[1],[0.6833333333333333],vertical,"(390.0, 762.0)",0.5166666666666666,0.642,1,6709.877,2
0,435,target,"[(1076, 769)]",[],[1],[0.48333333333333334],vertical,"(890.0, 762.0)",1.55,0.442,1,6715.028,2
0,436,target,"[(1073, 778)]",[],[1],[0.65],horizontal,"(890.0, 262.0)",0.7,0.61,1,6720.768,2
0,437,target,"[(1083, 782)]",[],[1],[0.5333333333333333],vertical,"(390.0, 262.0)",1.2833333333333332,0.494,1,6725.508,2
0,438,target,"[(1065, 776)]",[],[1],[0.6],horizontal,"(390.0, 262.0)",0.6833333333333333,0.559,1,6731.118,2
0,439,target,"[(1068, 779)]",[],[1],[0.5666666666666667],vertical,"(890.0, 262.0)",1.3833333333333333,0.528,1,6735.711,3
0,440,target,"[(1061, 799)]",[],[1],[0.65],vertical,"(890.0, 262.0)",0.9666666666666667,0.609,1,6741.738,3
0,441,target,"[(1064, 789)]",[],[1],[0.5333333333333333],vertical,"(890.0, 262.0)",0.9666666666666667,0.493,1,6747.578,3
0,442,target,"[(1068, 774)]",[],[1],[0.5833333333333334],vertical,"(390.0, 762.0)",0.7,0.552,1,6753.629,3
0,443,target,"[(1046, 801)]",[],[1],[0.5666666666666667],horizontal,"(890.0, 762.0)",0.8,0.527,1,6759.373,3
0,444,target,"[(1061, 789)]",[],[1],[0.85],horizontal,"(890.0, 262.0)",0.5,nan,0,6764.687,0
0,445,target,"[(1051, 795)]",[],[1],[0.6333333333333333],horizontal,"(390.0, 262.0)",0.55,0.596,1,6769.138,1
0,446,target,"[(1060, 780)]",[],[1],[0.3333333333333333],horizontal,"(890.0, 762.0)",0.85,0.299,1,6773.629,1
0,447,target,"[(1051, 781)]",[],[1],[0.4],vertical,"(890.0, 262.0)",0.9,0.366,1,6778.378,1
0,448,target,"[(1049, 781)]",[],[1],[0.6833333333333333],vertical,"(390.0, 762.0)",0.7166666666666667,0.642,1,6783.445,2
0,449,target,"[(1063, 771)]",[],[1],[0.5],vertical,"(390.0, 262.0)",1.1166666666666667,0.461,1,6788.745,2
0,450,target,"[(1062, 781)]",[],[1],[],horizontal,"(390.0, 262.0)",,"('cti', 1.336)",0,6794.162,0
0,451,target,"[(1075, 791)]",[],[1],[0.5833333333333334],vertical,"(890.0, 762.0)",0.9333333333333333,0.544,1,6798.991,1
0,452,target,"[(1063, 782)]",[],[1],[0.5666666666666667],vertical,"(390.0, 262.0)",1.2,0.526,1,6803.794,1
0,453,target,"[(1073, 790)]",[],[1],[0.55],horizontal,"(890.0, 262.0)",1.1666666666666667,0.51,1,6809.031,1
0,454,target,"[(1071, 771)]",[],[1],[0.85],vertical,"(890.0, 262.0)",0.9666666666666667,nan,0,6814.007,0
0,455,target,"[(1064, 797)]",[],[1],[0.55],vertical,"(890.0, 262.0)",0.8333333333333334,0.507,1,6819.146,1
0,456,target,"[(1080, 781)]",[],[1],[0.36666666666666664],vertical,"(890.0, 262.0)",1.5166666666666666,0.332,1,6824.039,1
0,457,target,"[(1063, 762)]",[],[1],[0.85],vertical,"(390.0, 762.0)",0.8166666666666667,nan,0,6829.119,0
0,458,target,"[(1075, 804)]",[],[1],[0.6333333333333333],vertical,"(390.0, 262.0)",0.9833333333333333,0.588,1,6833.703,1
0,459,target,"[(1041, 797)]",[],[1],[0.2],vertical,"(890.0, 762.0)",1.5333333333333332,0.166,1,6841.316,1
0,460,target,"[(1079, 784)]",[],[1],[0.85],vertical,"(390.0, 762.0)",0.8166666666666667,nan,0,6846.795,0
0,461,target,"[(1042, 791)]",[],[1],[0.65],vertical,"(390.0, 762.0)",1.2833333333333332,0.603,1,6851.405,1
0,462,target,"[(1058, 801)]",[],[1],[0.5],horizontal,"(390.0, 262.0)",1.3666666666666667,0.457,1,6857.129,1
0,463,target,"[(1060, 800)]",[],[1],[0.6],horizontal,"(390.0, 762.0)",1.3166666666666667,0.557,1,6862.721,1
0,464,target,"[(1075, 783)]",[],[1],[0.6833333333333333],horizontal,"(890.0, 262.0)",1.0833333333333333,0.638,1,6867.929,2
0,465,target,"[(1060, 776)]",[],[1],[0.5166666666666666],horizontal,"(390.0, 262.0)",1.1,0.48,1,6873.13,2
0,466,target,"[(1081, 782)]",[],[1],[0.2833333333333333],vertical,"(890.0, 262.0)",1.6666666666666667,0.248,1,6878.873,2
0,467,target,"[(1061, 794)]",[],[1],[0.5],horizontal,"(390.0, 262.0)",1.45,0.464,1,6884.193,2
0,468,target,"[(1081, 790)]",[],[1],[0.6333333333333333],vertical,"(890.0, 762.0)",0.95,0.588,1,6889.562,2
0,469,target,"[(1075, 791)]",[],[1],[0.6333333333333333],vertical,"(390.0, 262.0)",1.0,0.586,1,6894.712,3
0,470,target,"[(1080, 800)]",[],[1],[0.65],horizontal,"(390.0, 262.0)",0.5833333333333334,0.602,1,6900.879,3
0,471,target,"[(1081, 796)]",[],[1],[0.45],vertical,"(390.0, 262.0)",1.55,0.41,1,6906.366,3
0,472,target,"[(1063, 778)]",[],[1],[0.5666666666666667],horizontal,"(390.0, 262.0)",0.7,0.524,1,6912.174,3
0,473,target,"[(1061, 792)]",[],[1],[0.6166666666666667],vertical,"(890.0, 762.0)",0.7,0.572,1,6917.496,3
0,474,target,"[(1071, 778)]",[],[1],[0.7333333333333333],horizontal,"(890.0, 262.0)",0.9,0.688,1,6922.914,3
0,475,target,"[(1075, 799)]",[],[1],[0.5666666666666667],horizontal,"(890.0, 262.0)",0.9833333333333333,0.523,1,6928.313,3
0,476,target,"[(1061, 785)]",[],[1],[0.3833333333333333],vertical,"(390.0, 762.0)",1.5666666666666667,0.34,1,6933.879,3
0,477,target,"[(1099, 781)]",[],[1],[0.7],horizontal,"(390.0, 762.0)",1.4,0.652,1,6939.781,3
0,478,target,"[(1099, 782)]",[],[1],[0.6],vertical,"(890.0, 262.0)",1.3333333333333333,0.556,1,6945.457,3
0,479,target,"[(1095, 799)]",[],[1],[0.5],vertical,"(390.0, 262.0)",1.35,0.459,1,6951.23,3
0,480,target,"[(1077, 767)]",[],[1],[0.5333333333333333],vertical,"(890.0, 262.0)",0.6166666666666667,0.493,1,6957.099,3
0,481,target,"[(1090, 797)]",[],[1],[0.6666666666666666],vertical,"(390.0, 762.0)",1.1833333333333333,0.625,1,6962.429,3
0,482,target,"[(1071, 806)]",[],[1],[0.5],horizontal,"(890.0, 762.0)",1.35,0.458,1,6968.013,3
0,483,target,"[(1085, 785)]",[],[1],[0.23333333333333334],horizontal,"(890.0, 762.0)",1.6,0.2,1,6974.249,3
0,484,target,"[(1066, 787)]",[],[1],[0.55],horizontal,"(390.0, 262.0)",0.6666666666666666,0.508,1,6979.89,3
0,485,target,"[(1063, 793)]",[],[1],[0.6],horizontal,"(390.0, 262.0)",1.25,0.556,1,6985.045,3
0,486,target,"[(1081, 782)]",[],[1],[0.55],vertical,"(390.0, 262.0)",0.8166666666666667,0.504,1,6990.998,3
0,487,target,"[(1069, 777)]",[],[1],[0.55],vertical,"(890.0, 762.0)",1.3166666666666667,0.505,1,6996.74,3
0,488,target,"[(1064, 792)]",[],[1],[0.6666666666666666],vertical,"(390.0, 762.0)",0.7,0.623,1,7002.857,3
0,489,target,"[(1080, 798)]",[],[1],[0.65],vertical,"(390.0, 262.0)",0.75,0.608,1,7008.613,3
0,490,target,"[(1062, 796)]",[],[1],[0.6166666666666667],vertical,"(390.0, 262.0)",0.65,0.579,1,7013.915,3
0,491,target,"[(1050, 788)]",[],[1],[0.5833333333333334],vertical,"(890.0, 762.0)",0.6833333333333333,0.54,1,7019.381,3
0,492,target,"[(1079, 761)]",[],[1],[0.7333333333333333],vertical,"(390.0, 762.0)",0.6166666666666667,0.691,1,7025.177,3
0,493,target,"[(1060, 790)]",[],[1],[0.36666666666666664],horizontal,"(390.0, 762.0)",1.3666666666666667,0.329,1,7030.615,3
0,494,target,"[(1060, 777)]",[],[1],[0.6166666666666667],vertical,"(890.0, 262.0)",0.5666666666666667,0.572,1,7036.309,3
0,495,target,"[(1081, 811)]",[],[1],[0.2],horizontal,"(890.0, 262.0)",1.6,0.166,1,7042.005,3
0,496,target,"[(1083, 786)]",[],[1],[0.5833333333333334],horizontal,"(390.0, 262.0)",0.9666666666666667,0.539,1,7048.081,3
0,497,target,"[(1081, 802)]",[],[1],[0.26666666666666666],vertical,"(890.0, 262.0)",1.4333333333333333,0.235,1,7053.513,3
0,498,target,"[(1071, 801)]",[],[1],[0.31666666666666665],vertical,"(390.0, 262.0)",1.6333333333333333,0.278,1,7058.933,3
0,499,target,"[(1071, 788)]",[],[1],[0.85],vertical,"(390.0, 762.0)",0.9,nan,0,7064.68,0
0,500,target,"[(1036, 787)]",[],[1],[0.23333333333333334],vertical,"(390.0, 262.0)",1.4333333333333333,0.195,1,7069.265,1
0,501,target,"[(1073, 787)]",[],[1],[0.65],horizontal,"(890.0, 762.0)",0.6166666666666667,0.604,1,7077.275,1
0,502,target,"[(1085, 806)]",[],[1],[0.85],horizontal,"(390.0, 762.0)",0.7833333333333333,nan,0,7081.87,0
0,503,target,"[(1043, 800)]",[],[1],[0.5333333333333333],horizontal,"(890.0, 762.0)",1.25,0.492,1,7086.482,1
0,504,target,"[(1080, 778)]",[],[1],[0.6333333333333333],vertical,"(390.0, 762.0)",1.0,0.597,1,7091.398,1
0,505,target,"[(1046, 807)]",[],[1],[0.5333333333333333],vertical,"(390.0, 262.0)",1.0,0.495,1,7096.217,1
0,506,target,"[(1102, 797)]",[],[1],[0.55],vertical,"(390.0, 262.0)",1.15,0.51,1,7131.032,2
0,507,target,"[(1070, 791)]",[],[1],[0.08333333333333333],vertical,"(890.0, 262.0)",1.3666666666666667,0.051,0,7136.837,0
0,508,target,"[(1063, 778)]",[],[1],[0.5666666666666667],horizontal,"(890.0, 262.0)",1.0,0.521,1,7141.632,1
0,509,target,"[(1076, 800)]",[],[1],[0.5],vertical,"(890.0, 262.0)",1.35,0.459,1,7146.381,1
0,510,target,"[(1092, 782)]",[],[1],[0.26666666666666666],horizontal,"(890.0, 262.0)",1.6,0.231,1,7151.532,1
0,511,target,"[(1090, 771)]",[],[1],[0.3],vertical,"(890.0, 762.0)",1.4666666666666666,0.263,1,7156.864,2
0,512,target,"[(1077, 801)]",[],[1],[0.35],vertical,"(890.0, 762.0)",1.3833333333333333,0.312,1,7162.267,2
0,513,target,"[(1108, 787)]",[],[1],[0.6666666666666666],vertical,"(390.0, 262.0)",1.2666666666666666,0.623,1,7167.99,2
0,514,target,"[(1075, 802)]",[],[1],[0.85],horizontal,"(390.0, 762.0)",0.85,nan,0,7173.502,0
0,515,target,"[(1051, 796)]",[],[1],[0.75],horizontal,"(890.0, 762.0)",0.5333333333333333,0.709,1,7178.256,1
0,516,target,"[(1074, 786)]",[],[1],[0.55],horizontal,"(390.0, 262.0)",0.7166666666666667,0.51,1,7182.649,1
0,517,catch,"[(1077, 785)]",[],[1],[],vertical,"(890.0, 262.0)",1.5833333333333333,nan,1,7187.532,1
0,518,target,"[(1082, 776)]",[],[1],[0.5166666666666666],vertical,"(890.0, 762.0)",1.6,0.471,1,7192.623,2
0,519,target,"[(1077, 796)]",[],[1],[0.55],horizontal,"(890.0, 262.0)",0.5666666666666667,0.507,1,7198.719,2
0,520,target,"[(1075, 793)]",[],[1],[0.75],vertical,"(890.0, 762.0)",1.05,0.708,1,7203.849,2
0,521,target,"[(1068, 804)]",[],[1],[0.15],horizontal,"(890.0, 762.0)",1.6666666666666667,0.115,0,7209.216,0
0,522,target,"[(1061, 805)]",[],[1],[0.23333333333333334],horizontal,"(890.0, 262.0)",1.6833333333333333,0.2,1,7214.182,1
0,523,target,"[(1060, 781)]",[],[1],[0.6666666666666666],horizontal,"(890.0, 762.0)",0.6833333333333333,0.622,1,7219.76,1
0,524,catch,"[(1066, 791)]",[],[1],[],vertical,"(390.0, 762.0)",1.4833333333333334,nan,1,7224.459,1
0,525,target,"[(1075, 807)]",[],[1],[0.5833333333333334],horizontal,"(890.0, 262.0)",0.6,0.539,1,7229.216,2
0,526,target,"[(1080, 772)]",[],[1],[0.43333333333333335],vertical,"(890.0, 262.0)",1.4333333333333333,0.391,1,7233.693,2
0,527,catch,"[(1075, 783)]",[],[1],[],vertical,"(890.0, 762.0)",1.6833333333333333,nan,1,7239.089,2
0,528,target,"[(1043, 770)]",[],[1],[0.5333333333333333],vertical,"(390.0, 762.0)",1.3166666666666667,0.49,1,7244.442,2
0,529,target,"[(1081, 793)]",[],[1],[0.6333333333333333],horizontal,"(390.0, 262.0)",1.1666666666666667,0.593,1,7250.166,2
0,530,target,"[(1063, 806)]",[],[1],[0.2],vertical,"(390.0, 762.0)",1.6333333333333333,0.166,1,7255.414,3
0,531,target,"[(1072, 801)]",[],[1],[0.55],horizontal,"(390.0, 262.0)",1.0333333333333332,0.506,1,7261.683,3
0,532,target,"[(1076, 786)]",[],[1],[0.65],vertical,"(890.0, 262.0)",0.9666666666666667,0.608,1,7267.3,3
0,533,target,"[(1073, 796)]",[],[1],[0.65],vertical,"(890.0, 262.0)",0.65,0.608,1,7274.039,3
0,534,target,"[(1075, 800)]",[],[1],[0.5166666666666666],vertical,"(890.0, 262.0)",0.6166666666666667,0.48,1,7279.412,3
0,535,target,"[(1077, 789)]",[],[1],[0.2833333333333333],vertical,"(890.0, 262.0)",1.5666666666666667,0.248,1,7284.966,3
0,536,target,"[(1072, 784)]",[],[1],[0.48333333333333334],horizontal,"(890.0, 262.0)",1.1166666666666667,0.446,1,7290.712,3
0,537,target,"[(1061, 783)]",[],[1],[0.48333333333333334],vertical,"(390.0, 262.0)",1.5166666666666666,0.444,1,7296.817,3
0,538,target,"[(1060, 800)]",[],[1],[0.6166666666666667],horizontal,"(390.0, 762.0)",1.0166666666666666,0.573,1,7303.209,3
0,539,target,"[(1077, 786)]",[],[1],[0.6833333333333333],vertical,"(390.0, 762.0)",0.5833333333333334,0.638,1,7309.249,3
0,540,target,"[(1063, 769)]",[],[1],[0.5666666666666667],vertical,"(390.0, 262.0)",0.6666666666666666,0.529,1,7314.483,3
0,541,target,"[(1064, 792)]",[],[1],[0.8],vertical,"(890.0, 262.0)",0.95,0.752,1,7319.666,3
0,542,target,"[(1069, 771)]",[],[1],[0.08333333333333333],horizontal,"(890.0, 762.0)",1.6833333333333333,0.051,0,7325.682,0
0,543,catch,"[(1061, 807)]",[],[1],[],horizontal,"(390.0, 762.0)",1.65,nan,1,7330.531,1
0,544,target,"[(1064, 799)]",[],[1],[0.5333333333333333],horizontal,"(890.0, 762.0)",1.3666666666666667,0.501,1,7335.775,1
0,545,target,"[(1064, 773)]",[],[1],[0.7833333333333333],horizontal,"(890.0, 762.0)",1.1166666666666667,0.74,1,7340.978,1
0,546,target,"[(1064, 796)]",[],[1],[0.85],vertical,"(390.0, 762.0)",0.9833333333333333,nan,0,7346.029,0
0,547,target,"[(1077, 791)]",[],[1],[0.85],horizontal,"(890.0, 762.0)",1.2333333333333334,nan,0,7351.184,0
0,548,target,"[(1062, 799)]",[],[1],[0.2],vertical,"(390.0, 262.0)",1.6833333333333333,0.167,1,7356.392,1
0,549,catch,"[(1066, 785)]",[],[1],[],horizontal,"(390.0, 262.0)",1.2666666666666666,nan,1,7362.232,1
0,550,target,"[(1068, 780)]",[],[1],[0.4],vertical,"(890.0, 262.0)",1.35,0.369,1,7366.676,1
0,551,target,"[(1077, 819)]",[],[1],[0.26666666666666666],horizontal,"(390.0, 762.0)",1.6666666666666667,0.228,1,7371.876,2
0,552,target,"[(1075, 777)]",[],[1],[0.85],vertical,"(890.0, 762.0)",1.6666666666666667,"('cti', 1.653),nan",0,7377.917,0
0,553,target,"[(1073, 795)]",[],[1],[0.4166666666666667],vertical,"(390.0, 762.0)",1.4333333333333333,0.377,1,7383.543,1
0,554,target,"[(1071, 774)]",[],[1],[0.85],vertical,"(390.0, 762.0)",0.5,nan,0,7388.56,0
0,555,target,"[(1047, 782)]",[],[1],[0.5166666666666666],horizontal,"(890.0, 262.0)",1.55,0.477,1,7392.834,1
0,556,target,"[(1061, 802)]",[],[1],[0.4666666666666667],vertical,"(390.0, 762.0)",1.4333333333333333,0.428,1,7398.471,1
0,557,target,"[(1075, 773)]",[],[1],[0.65],horizontal,"(390.0, 762.0)",1.2166666666666666,0.605,1,7403.602,1
0,558,target,"[(1065, 782)]",[],[1],[0.48333333333333334],horizontal,"(890.0, 262.0)",1.5333333333333332,0.443,1,7408.917,2
0,559,target,"[(1104, 771)]",[],[1],[0.85],horizontal,"(390.0, 262.0)",0.75,nan,0,7414.916,0
0,560,target,"[(1064, 791)]",[],[1],"[0.85, 0.85]",horizontal,"(890.0, 762.0)",0.95,"0.804,nan",0,7419.18,0
0,561,target,"[(1085, 793)]",[],[1],[0.85],vertical,"(390.0, 762.0)",1.2166666666666666,nan,0,7426.198,0
0,562,target,"[(1068, 784)]",[],[1],[0.6166666666666667],horizontal,"(390.0, 262.0)",0.9166666666666666,0.572,1,7431.47,1
0,563,target,"[(1074, 789)]",[],[1],[0.5833333333333334],horizontal,"(890.0, 762.0)",1.3666666666666667,0.545,1,7436.733,1
0,564,target,"[(1061, 778)]",[],[1],[0.6333333333333333],horizontal,"(390.0, 762.0)",1.2333333333333334,0.587,1,7441.633,1
0,565,target,"[(1065, 781)]",[],[1],[0.85],horizontal,"(890.0, 762.0)",0.5833333333333334,nan,0,7446.842,0
0,566,target,"[(1039, 784)]",[],[1],[0.8333333333333334],horizontal,"(890.0, 762.0)",0.9,0.788,1,7451.567,1
0,567,target,"[(1061, 776)]",[],[1],[0.7666666666666666],vertical,"(390.0, 762.0)",1.0666666666666667,0.722,1,7456.65,1
0,568,catch,"[(1061, 781)]",[],[1],[],vertical,"(390.0, 762.0)",1.5166666666666666,nan,1,7461.933,1
0,569,target,"[(1062, 781)]",[],[1],[0.15],vertical,"(890.0, 762.0)",1.3666666666666667,0.117,0,7466.983,0
0,570,target,"[(1044, 796)]",[],[1],[0.85],horizontal,"(390.0, 762.0)",0.7666666666666666,nan,0,7471.717,0
0,571,target,"[(1037, 707), (1036, 975), (472, 979), (460, 979), (559, 598), (542, 1001), (610, 1018), (395, 935), (421, 954), (1047, 830)]",[],"[0, 0, 0, 0, 0, 0, 0, 0, 0, 1]",[0.5166666666666666],vertical,"(390.0, 262.0)",1.2833333333333332,0.482,1,7476.617,1
0,572,target,"[(1054, 825)]",[],[1],[0.5333333333333333],horizontal,"(890.0, 262.0)",1.2,0.495,1,8500.225,1
0,573,target,"[(382, 989), (1057, 807)]",[],"[0, 1]",[0.6333333333333333],horizontal,"(390.0, 762.0)",0.9,0.589,1,8505.76,1
0,574,target,"[(1081, 796)]",[],[1],[0.85],vertical,"(390.0, 262.0)",1.5166666666666666,nan,0,8511.863,0
0,575,target,"[(375, 1023), (333, 454), (1062, 801)]",[],"[0, 0, 1]",[0.6],vertical,"(390.0, 262.0)",1.25,0.553,1,8522.224,1
0,576,catch,"[(1072, 788)]",[],[1],[],vertical,"(890.0, 762.0)",1.4,nan,1,8531.079,1
0,577,target,"[(1039, 836)]",[],[1],[0.6666666666666666],vertical,"(390.0, 762.0)",0.8833333333333333,0.62,1,8535.827,1
0,578,target,"[(1074, 809)]",[],[1],[0.5833333333333334],horizontal,"(390.0, 262.0)",1.2833333333333332,0.538,1,8540.91,2
0,579,target,"[(1079, 788)]",[],[1],[0.85],vertical,"(390.0, 762.0)",0.6,nan,0,8546.216,0
0,580,target,"[(1052, 794)]",[],[1],[0.4666666666666667],horizontal,"(390.0, 262.0)",1.5833333333333333,0.428,1,8550.428,1
0,581,target,"[(1065, 793)]",[],[1],[0.6],vertical,"(890.0, 762.0)",0.7333333333333333,0.559,1,8555.974,1
0,582,target,"[(1072, 799)]",[],[1],[0.85],horizontal,"(390.0, 762.0)",0.85,nan,0,8560.352,0
0,583,target,"[(1066, 811)]",[],[1],[0.85],horizontal,"(390.0, 762.0)",0.5166666666666666,nan,0,8564.981,0
0,584,target,"[(1056, 786)]",[],[1],[0.7166666666666667],vertical,"(890.0, 762.0)",1.3166666666666667,0.671,1,8569.067,1
0,585,target,"[(1061, 756)]",[],[1],[0.8],horizontal,"(390.0, 762.0)",1.2,0.754,1,8574.512,1
0,586,target,"[(1066, 775)]",[],[1],[0.6666666666666666],horizontal,"(390.0, 762.0)",1.1666666666666667,0.622,1,8579.692,1
0,587,target,"[(1059, 775)]",[],[1],[0.8166666666666667],horizontal,"(890.0, 262.0)",0.9666666666666667,0.771,1,8584.944,2
0,588,target,"[(1060, 773)]",[],[1],[0.75],horizontal,"(390.0, 762.0)",0.55,0.702,1,8590.526,2
0,589,target,"[(1071, 789)]",[],[1],[0.85],vertical,"(390.0, 762.0)",0.9333333333333333,nan,0,8595.375,0
0,590,catch,"[(1064, 789)]",[],[1],[],horizontal,"(890.0, 762.0)",1.55,nan,1,8600.176,1
0,591,target,"[(1075, 805)]",[],[1],[0.7166666666666667],horizontal,"(390.0, 762.0)",1.1666666666666667,0.67,1,8605.067,1
0,592,target,"[(1070, 771)]",[],[1],[0.31666666666666665],horizontal,"(890.0, 762.0)",1.6,0.279,1,8609.827,1
0,593,target,"[(1078, 794)]",[],[1],[0.5333333333333333],vertical,"(890.0, 262.0)",1.4,0.495,1,8615.143,2
0,594,target,"[(1071, 777)]",[],[1],[0.85],vertical,"(890.0, 262.0)",0.65,nan,0,8620.811,0
0,595,target,"[(1050, 850)]",[],[1],[0.85],horizontal,"(390.0, 262.0)",1.0666666666666667,nan,0,8625.155,0
0,596,target,"[(1058, 802)]",[],[1],[0.85],vertical,"(390.0, 262.0)",0.7666666666666666,nan,0,8664.578,0
0,597,target,"[(1043, 788)]",[],[1],[0.65],vertical,"(390.0, 762.0)",0.85,0.61,1,8669.411,1
0,598,target,"[(1061, 789)]",[],[1],[0.55],vertical,"(390.0, 262.0)",0.9333333333333333,0.51,1,8674.42,1
0,599,target,"[(1055, 774)]",[],[1],[0.85],horizontal,"(390.0, 262.0)",1.4,nan,0,8678.778,0
0,600,target,"[(1065, 792)]",[],[1],[0.6666666666666666],vertical,"(390.0, 262.0)",1.05,0.623,1,8684.11,1
0,601,target,"[(1061, 802)]",[],[1],[0.48333333333333334],vertical,"(890.0, 262.0)",1.65,0.439,1,8689.715,1
0,602,target,"[(1058, 812)]",[],[1],[0.5666666666666667],horizontal,"(890.0, 762.0)",0.5333333333333333,0.527,1,8695.244,1
0,603,target,"[(1075, 786)]",[],[1],[0.85],vertical,"(890.0, 762.0)",0.9666666666666667,nan,0,8701.511,0
0,604,target,"[(1007, 826)]",[],[1],[0.6333333333333333],horizontal,"(390.0, 762.0)",0.5833333333333334,0.599,1,8706.511,1
0,605,target,"[(1070, 777)]",[],[1],[0.55],vertical,"(890.0, 262.0)",1.0,0.525,1,8733.05,1
0,606,target,"[(1058, 776)]",[],[1],[0.5833333333333334],vertical,"(890.0, 262.0)",1.2666666666666666,0.54,1,8737.699,1
0,607,target,"[(1075, 787)]",[],[1],[0.3],horizontal,"(390.0, 762.0)",1.4,0.268,1,8742.911,2
0,608,target,"[(1084, 786)]",[],[1],[0.55],vertical,"(890.0, 262.0)",1.1,0.509,1,8748.744,2
0,609,target,"[(1080, 782)]",[],[1],[0.25],vertical,"(390.0, 762.0)",1.4333333333333333,0.215,1,8754.063,2
0,610,catch,"[(1081, 773)]",[],[1],[],horizontal,"(390.0, 762.0)",1.45,nan,1,8759.16,2
0,611,target,"[(804, 174), (736, 167), (878, 173), (868, 207), (1048, 805)]",[],"[0, 0, 0, 0, 1]",[0.85],vertical,"(890.0, 262.0)",0.5333333333333333,nan,0,8764.367,0
0,612,target,"[(1047, 787)]",[],[1],[0.6833333333333333],horizontal,"(890.0, 262.0)",0.65,0.642,1,9690.168,1
0,613,target,"[(1059, 778)]",[],[1],[0.6],vertical,"(890.0, 262.0)",0.9166666666666666,0.556,1,9695.318,1
0,614,target,"[(1063, 735), (1081, 805)]",[],"[0, 1]",[0.6333333333333333],horizontal,"(390.0, 762.0)",0.8833333333333333,0.595,1,9700.318,1
0,615,target,"[(1088, 785)]",[],[1],[0.6833333333333333],horizontal,"(390.0, 762.0)",0.7166666666666667,0.65,1,9705.976,2
0,616,target,"[(1080, 787)]",[],[1],[0.26666666666666666],horizontal,"(390.0, 262.0)",1.5833333333333333,0.231,1,9711.363,2
0,617,target,"[(1071, 799)]",[],[1],[0.5666666666666667],vertical,"(390.0, 262.0)",0.9,0.534,1,9717.047,2
0,618,target,"[(1082, 791)]",[],[1],[0.1],vertical,"(390.0, 262.0)",1.6666666666666667,0.066,0,9722.019,0
0,619,target,"[(1086, 806)]",[],[1],[0.85],horizontal,"(390.0, 262.0)",0.9666666666666667,nan,0,9726.735,0
0,620,target,"[(1029, 792)]",[],[1],[0.85],horizontal,"(890.0, 262.0)",0.9166666666666666,nan,0,9731.448,0
0,621,target,"[(1055, 824)]",[],[1],[0.7],vertical,"(390.0, 762.0)",0.7666666666666666,0.658,1,9736.328,1
0,622,target,"[(1017, 759)]",[],[1],[0.8166666666666667],vertical,"(890.0, 262.0)",1.3666666666666667,0.771,1,9741.74,1
0,623,target,"[(1103, 800)]",[],[1],[0.6],horizontal,"(390.0, 762.0)",1.0,0.56,1,9749.022,1
0,624,target,"[(1075, 779)]",[],[1],[0.31666666666666665],horizontal,"(390.0, 262.0)",1.25,0.28,1,9753.885,2
0,625,target,"[(1075, 765)]",[],[1],[0.65],horizontal,"(890.0, 262.0)",1.1333333333333333,0.606,1,9759.207,2
0,626,target,"[(1061, 811)]",[],[1],[],horizontal,"(390.0, 262.0)",,"('cti', 1.543)",0,9764.918,0
0,627,target,"[(1081, 786)]",[],[1],[0.6166666666666667],horizontal,"(890.0, 262.0)",0.6666666666666666,0.582,1,9771.873,1
0,628,target,"[(1080, 786)]",[],[1],[],vertical,"(390.0, 762.0)",,"('cti', 1.132)",0,9777.128,0
0,629,catch,"[(1065, 811)]",[],[1],[],horizontal,"(390.0, 762.0)",,"('cti', 1.547),nan",0,9780.97,0
0,630,target,"[(1099, 808)]",[],[1],[0.5166666666666666],horizontal,"(890.0, 262.0)",0.9666666666666667,0.476,1,9806.802,1
0,631,target,"[(1058, 787)]",[],[1],[0.55],vertical,"(890.0, 262.0)",0.8833333333333333,0.505,1,9811.691,1
0,632,target,"[(1082, 786)]",[],[1],[0.8],vertical,"(890.0, 262.0)",1.65,0.759,1,9816.352,1
0,633,target,"[(1077, 785)]",[],[1],[0.85],vertical,"(390.0, 762.0)",0.5166666666666666,nan,0,9821.98,0
0,634,catch,"[(1082, 769)]",[],[1],[],horizontal,"(390.0, 262.0)",1.2666666666666666,nan,1,9826.386,1
0,635,target,"[(1071, 809)]",[],[1],[0.6833333333333333],vertical,"(890.0, 262.0)",1.2333333333333334,0.645,1,9831.124,1
0,636,target,"[(1062, 785)]",[],[1],[0.85],vertical,"(390.0, 262.0)",1.3666666666666667,nan,0,9836.037,0
0,637,target,"[(1057, 786)]",[],[1],[0.85],horizontal,"(390.0, 762.0)",0.5833333333333334,nan,0,9841.31,0
0,638,target,"[(1073, 793)]",[],[1],[0.5833333333333334],vertical,"(890.0, 262.0)",0.7666666666666666,0.536,1,9846.052,1
0,639,target,"[(1105, 780)]",[],[1],[0.5166666666666666],vertical,"(390.0, 262.0)",1.45,0.474,1,9850.486,1
0,640,target,"[(1078, 765)]",[],[1],[0.6],horizontal,"(890.0, 762.0)",1.1,0.551,1,9855.978,1
0,641,target,"[(1081, 764)]",[],[1],[0.36666666666666664],horizontal,"(390.0, 762.0)",1.65,0.334,1,9861.151,2
0,642,target,"[(1077, 773)]",[],[1],[0.48333333333333334],vertical,"(890.0, 262.0)",1.4166666666666667,0.444,1,9866.702,2
0,643,target,"[(1061, 766)]",[],[1],[0.6166666666666667],horizontal,"(890.0, 262.0)",1.25,0.575,1,9872.302,2
0,644,target,"[(1075, 770)]",[],[1],[0.5166666666666666],horizontal,"(390.0, 762.0)",1.3166666666666667,0.476,1,9877.551,2
0,645,catch,"[(1067, 781)]",[],[1],[],vertical,"(390.0, 762.0)",1.4333333333333333,nan,1,9882.906,2
0,646,target,"[(1071, 781)]",[],[1],[0.6333333333333333],vertical,"(390.0, 762.0)",0.8666666666666667,0.595,1,9888.28,3
0,647,target,"[(1066, 774)]",[],[1],[0.5166666666666666],horizontal,"(390.0, 762.0)",1.25,0.475,1,9893.696,3
0,648,catch,"[(432, 505), (1065, 805)]",[],"[0, 1]",[],horizontal,"(890.0, 262.0)",1.65,nan,1,9906.586,3
0,649,target,"[(1063, 809)]",[],[1],[0.48333333333333334],vertical,"(890.0, 262.0)",1.4,0.439,1,9912.871,3
0,650,target,"[(1074, 801)]",[],[1],[0.6],vertical,"(390.0, 262.0)",0.6166666666666667,0.559,1,9918.793,3
0,651,target,"[(1070, 800)]",[],[1],[0.31666666666666665],vertical,"(890.0, 762.0)",1.45,0.279,1,9923.696,3
0,652,catch,"[(1068, 801)]",[],[1],[],vertical,"(890.0, 762.0)",,"('cti', 1.65),nan",0,9929.82,0
0,653,target,"[(1068, 800)]",[],[1],[0.5333333333333333],horizontal,"(390.0, 262.0)",1.25,0.49,1,9934.707,1
0,654,target,"[(1076, 776)]",[],[1],[0.5833333333333334],horizontal,"(390.0, 262.0)",1.55,0.536,1,9939.57,1
0,655,target,"[(1027, 758)]",[],[1],[0.5833333333333334],vertical,"(390.0, 262.0)",1.4,0.541,1,9944.786,1
0,656,target,"[(1079, 768)]",[],[1],[0.5333333333333333],horizontal,"(390.0, 262.0)",0.7666666666666666,0.491,1,9950.458,2
0,657,target,"[(1077, 771)]",[],[1],[0.5333333333333333],vertical,"(390.0, 262.0)",1.2,0.488,1,9955.776,2
0,658,target,"[(1077, 771)]",[],[1],[0.55],horizontal,"(390.0, 262.0)",1.3166666666666667,0.515,1,9961.409,2
0,659,target,"[(1065, 762)]",[],[1],[0.4],horizontal,"(890.0, 762.0)",1.4833333333333334,0.36,1,9966.703,2
0,660,target,"[(1071, 786)]",[],[1],[0.5666666666666667],vertical,"(890.0, 262.0)",0.7333333333333333,0.526,1,9972.387,2
0,661,target,"[(1075, 787)]",[],[1],[0.85],vertical,"(890.0, 762.0)",0.8666666666666667,nan,0,9977.518,0
0,662,target,"[(1069, 800)]",[],[1],[0.3333333333333333],vertical,"(890.0, 762.0)",1.6333333333333333,0.295,1,9982.402,1
0,663,target,"[(1075, 779)]",[],[1],[0.5333333333333333],horizontal,"(390.0, 762.0)",1.2833333333333332,0.489,1,9987.488,1
0,664,target,"[(1059, 786)]",[],[1],[0.5],vertical,"(390.0, 762.0)",0.8666666666666667,0.46,1,9992.755,1
0,665,target,"[(1075, 791)]",[],[1],[0.2833333333333333],vertical,"(390.0, 262.0)",1.65,0.245,1,9997.421,2
0,666,target,"[(1084, 791)]",[],[1],[0.5166666666666666],horizontal,"(890.0, 262.0)",0.6333333333333333,0.484,1,10002.9,2
0,667,target,"[(1084, 781)]",[],[1],[0.6333333333333333],vertical,"(390.0, 262.0)",0.6666666666666666,0.59,1,10008.02,2
0,668,target,"[(1079, 780)]",[],[1],[0.6166666666666667],vertical,"(890.0, 262.0)",1.1,0.573,1,10012.964,2
0,669,target,"[(1077, 772)]",[],[1],[0.6],vertical,"(390.0, 762.0)",1.0166666666666666,0.56,1,10018.096,2
0,670,target,"[(1085, 784)]",[],[1],[0.48333333333333334],horizontal,"(890.0, 762.0)",1.2833333333333332,0.447,1,10023.52,3
0,671,target,"[(1083, 756)]",[],[1],[0.4],vertical,"(890.0, 262.0)",1.6333333333333333,0.361,1,10029.596,3
0,672,target,"[(1075, 749), (1077, 796)]",[],"[0, 1]",[0.7166666666666667],vertical,"(890.0, 762.0)",0.55,0.675,1,10035.463,3
0,673,target,"[(1073, 779)]",[],[1],[0.26666666666666666],horizontal,"(390.0, 262.0)",1.3833333333333333,0.231,1,10042.505,3
0,674,target,"[(1077, 781)]",[],[1],[0.26666666666666666],horizontal,"(390.0, 762.0)",1.3,0.23,1,10048.305,3
0,675,target,"[(1073, 777)]",[],[1],[0.4],horizontal,"(890.0, 762.0)",1.35,0.364,1,10054.222,3
0,676,target,"[(1077, 779)]",[],[1],[0.85],vertical,"(390.0, 762.0)",0.85,nan,0,10059.971,0
0,677,target,"[(1076, 795)]",[],[1],[0.48333333333333334],vertical,"(390.0, 262.0)",1.6666666666666667,0.445,1,10064.871,1
0,678,target,"[(1092, 783)]",[],[1],[0.6],horizontal,"(890.0, 262.0)",0.7833333333333333,0.557,1,10070.439,1
0,679,target,"[(1085, 778)]",[],[1],[],horizontal,"(390.0, 262.0)",,"('cti', 1.179)",0,10075.388,0
0,680,target,"[(1082, 784)]",[],[1],[],horizontal,"(390.0, 262.0)",,"('cti', 1.6)",0,10079.405,0
0,681,target,"[(1104, 797)]",[],[1],[0.7333333333333333],horizontal,"(390.0, 262.0)",0.5666666666666667,0.689,1,10084.339,1
0,682,target,"[(1072, 777)]",[],[1],[0.43333333333333335],horizontal,"(390.0, 762.0)",1.35,0.392,1,10088.996,1
0,683,target,"[(1074, 786)]",[],[1],[0.5],vertical,"(890.0, 262.0)",0.9166666666666666,0.462,1,10094.122,1
0,684,target,"[(1095, 787)]",[],[1],[0.5166666666666666],vertical,"(890.0, 762.0)",0.6,0.48,1,10098.704,2
0,685,catch,"[(1061, 771)]",[],[1],[],vertical,"(890.0, 262.0)",1.3833333333333333,nan,1,10103.239,2
0,686,target,"[(1080, 804)]",[],[1],[0.85],horizontal,"(390.0, 262.0)",0.6666666666666666,nan,0,10108.493,0
0,687,target,"[(1067, 801)]",[],[1],[0.5666666666666667],horizontal,"(390.0, 262.0)",0.5,0.537,1,10113.221,1
0,688,target,"[(1074, 786)]",[],[1],[0.31666666666666665],vertical,"(890.0, 762.0)",1.4333333333333333,0.285,1,10117.782,1
0,689,target,"[(1081, 777)]",[],[1],[0.26666666666666666],horizontal,"(390.0, 762.0)",1.5,0.232,1,10122.764,1
0,690,target,"[(1076, 788)]",[],[1],[0.85],horizontal,"(390.0, 262.0)",0.65,nan,0,10127.772,0
0,691,target,"[(1054, 786)]",[],[1],[0.65],vertical,"(390.0, 262.0)",0.8166666666666667,0.607,1,10132.557,1
0,692,catch,"[(1046, 760)]",[],[1],[],horizontal,"(890.0, 762.0)",1.6166666666666667,nan,1,10137.538,1
0,693,catch,"[(1062, 773)]",[],[1],[],vertical,"(890.0, 262.0)",1.4333333333333333,nan,1,10142.742,1
0,694,target,"[(1066, 787)]",[],[1],[],horizontal,"(890.0, 262.0)",,"('cti', 1.548)",0,10147.105,0
0,695,target,"[(1096, 786)]",[],[1],[0.6166666666666667],vertical,"(890.0, 262.0)",1.0,0.573,1,10151.601,1
0,696,target,"[(1072, 768)]",[],[1],[0.2],horizontal,"(890.0, 262.0)",1.6666666666666667,0.169,1,10156.523,1
0,697,catch,"[(1067, 785)]",[],[1],[],horizontal,"(390.0, 262.0)",1.5166666666666666,nan,1,10161.448,1
0,698,target,"[(1066, 790)]",[],[1],[0.4666666666666667],vertical,"(390.0, 762.0)",1.2833333333333332,0.432,1,10166.354,2
0,699,catch,"[(1075, 787)]",[],[1],[],vertical,"(890.0, 762.0)",1.4666666666666666,nan,1,10171.783,2
0,700,target,"[(1063, 790)]",[],[1],[0.5166666666666666],vertical,"(390.0, 262.0)",0.5166666666666666,0.474,1,10177.305,2
0,701,target,"[(1085, 781)]",[],[1],[0.2],horizontal,"(390.0, 262.0)",1.1666666666666667,0.17,1,10182.072,2
0,702,target,"[(1054, 782)]",[],[1],[0.2833333333333333],vertical,"(390.0, 262.0)",1.2833333333333332,0.248,1,10187.373,2
0,703,target,"[(1061, 770)]",[],[1],[0.5666666666666667],horizontal,"(890.0, 262.0)",1.2333333333333334,0.529,1,10192.955,3
0,704,target,"[(1085, 773)]",[],[1],[0.5333333333333333],vertical,"(890.0, 262.0)",1.1333333333333333,0.498,1,10198.589,3
0,705,target,"[(1080, 790)]",[],[1],[0.3333333333333333],vertical,"(390.0, 262.0)",1.3166666666666667,0.297,1,10204.289,3
0,706,target,"[(1076, 776)]",[],[1],[0.3],vertical,"(890.0, 762.0)",1.2833333333333332,0.261,1,10210.372,3
0,707,target,"[(1070, 766)]",[],[1],[0.6333333333333333],vertical,"(890.0, 762.0)",0.8833333333333333,0.591,1,10216.272,3
0,708,target,"[(1075, 768)]",[],[1],[0.2],horizontal,"(890.0, 262.0)",1.4166666666666667,0.167,1,10221.844,3
0,709,target,"[(1065, 775)]",[],[1],[0.36666666666666664],vertical,"(890.0, 262.0)",1.45,0.327,1,10227.589,3
0,710,catch,"[(1076, 775)]",[],[1],[],vertical,"(890.0, 762.0)",1.3,nan,1,10233.392,3
0,711,target,"[(1061, 761)]",[],[1],[0.5166666666666666],vertical,"(390.0, 762.0)",1.1,0.478,1,10238.858,3
0,712,target,"[(1076, 804)]",[],[1],[0.5333333333333333],vertical,"(390.0, 262.0)",1.3,0.487,1,10244.963,3
0,713,catch,"[(1061, 836)]",[],[1],[],horizontal,"(890.0, 262.0)",,"('cti', 1.308),nan",0,10251.123,0
0,714,catch,"[(1072, 781)]",[],[1],[],horizontal,"(390.0, 762.0)",1.5,nan,1,10261.856,1
0,715,target,"[(1064, 791)]",[],[1],[0.6166666666666667],horizontal,"(390.0, 262.0)",0.8166666666666667,0.574,1,10266.489,1
0,716,target,"[(1075, 792)]",[],[1],[0.5666666666666667],horizontal,"(390.0, 262.0)",0.5833333333333334,0.528,1,10271.356,1
0,717,target,"[(1061, 800)]",[],[1],[0.5833333333333334],vertical,"(390.0, 262.0)",0.8,0.543,1,10275.923,2
0,718,target,"[(1076, 774)]",[],[1],[0.4],horizontal,"(890.0, 262.0)",1.1333333333333333,0.358,1,10281.117,2
0,719,target,"[(1063, 789)]",[],[1],[0.5333333333333333],vertical,"(890.0, 762.0)",1.15,0.494,1,10286.438,2
0,720,target,"[(1066, 789)]",[],[1],[0.26666666666666666],horizontal,"(890.0, 262.0)",1.45,0.233,1,10291.671,2
0,721,target,"[(1073, 778)]",[],[1],[0.5166666666666666],horizontal,"(390.0, 262.0)",0.6833333333333333,0.478,1,10297.197,2
0,722,target,"[(1061, 781)]",[],[1],[0.18333333333333332],horizontal,"(390.0, 762.0)",1.5833333333333333,0.15,1,10302.339,3
0,723,target,"[(1061, 785)]",[],[1],[0.6666666666666666],vertical,"(890.0, 762.0)",1.0166666666666666,0.626,1,10307.906,3
0,724,target,"[(1070, 789)]",[],[1],[0.7166666666666667],vertical,"(390.0, 762.0)",0.9833333333333333,0.68,1,10314.222,3
0,725,target,"[(1052, 757)]",[],[1],[0.2833333333333333],vertical,"(390.0, 262.0)",1.0833333333333333,0.246,1,10320.09,3
0,726,target,"[(1076, 790)]",[],[1],[0.3333333333333333],horizontal,"(390.0, 262.0)",1.3833333333333333,0.297,1,10325.83,3
0,727,target,"[(1076, 783)]",[],[1],[0.85],vertical,"(390.0, 762.0)",0.8,nan,0,10331.682,0
0,728,catch,"[(1074, 776)]",[],[1],[],horizontal,"(890.0, 762.0)",1.6,nan,1,10336.541,1
0,729,target,"[(1085, 772)]",[],[1],[0.7166666666666667],horizontal,"(390.0, 262.0)",0.5,0.679,1,10341.39,1
0,730,target,"[(1072, 792)]",[],[1],[0.35],vertical,"(890.0, 762.0)",1.5666666666666667,0.316,1,10345.906,1
0,731,target,"[(1070, 778)]",[],[1],[0.18333333333333332],horizontal,"(390.0, 262.0)",1.5,0.149,0,10351.44,0
0,732,target,"[(1097, 786)]",[],[1],[0.4166666666666667],vertical,"(890.0, 262.0)",1.2333333333333334,0.378,1,10356.126,1
0,733,target,"[(1072, 785)]",[],[1],[0.85],vertical,"(390.0, 762.0)",0.5,nan,0,10360.956,0
0,734,target,"[(1065, 784)]",[],[1],[0.5666666666666667],vertical,"(890.0, 762.0)",1.3333333333333333,0.524,1,10365.674,1
0,735,target,"[(1060, 769)]",[],[1],[0.5166666666666666],horizontal,"(890.0, 262.0)",0.8833333333333333,0.482,1,10371.015,1
0,736,target,"[(1077, 789)]",[],[1],[0.5],vertical,"(890.0, 262.0)",0.7166666666666667,0.456,1,10375.366,1
0,737,target,"[(1075, 781)]",[],[1],[0.05],vertical,"(390.0, 762.0)",1.35,0.018,0,10380.143,0
0,738,catch,"[(1093, 800)]",[],[1],[],horizontal,"(890.0, 762.0)",1.5333333333333332,nan,1,10384.323,1
0,739,target,"[(1090, 788)]",[],[1],[0.6],horizontal,"(890.0, 762.0)",0.5166666666666666,0.555,1,10389.37,1
0,740,target,"[(1072, 784)]",[],[1],[0.4],vertical,"(890.0, 262.0)",1.25,0.361,1,10393.97,1
0,741,target,"[(1075, 749), (1061, 803)]",[],"[0, 1]",[0.5333333333333333],horizontal,"(390.0, 762.0)",1.1333333333333333,0.489,1,10399.156,2
0,742,target,"[(1071, 791)]",[],[1],[0.7],horizontal,"(390.0, 762.0)",0.5833333333333334,0.658,1,10406.207,2
0,743,target,"[(1047, 773)]",[],[1],[0.55],horizontal,"(890.0, 762.0)",0.7833333333333333,0.519,1,10411.167,2
0,744,target,"[(1077, 766)]",[],[1],[0.5333333333333333],horizontal,"(390.0, 762.0)",1.2,0.5,1,10419.198,2
0,745,catch,"[(1074, 797)]",[],[1],[],horizontal,"(390.0, 762.0)",1.2666666666666666,nan,1,10424.395,2
0,746,target,"[(1062, 771)]",[],[1],[0.5166666666666666],vertical,"(890.0, 762.0)",1.35,0.473,1,10429.707,3
0,747,target,"[(1087, 777)]",[],[1],[0.55],horizontal,"(390.0, 762.0)",0.7333333333333333,0.508,1,10435.774,3
0,748,target,"[(1071, 788)]",[],[1],[],horizontal,"(890.0, 262.0)",,"('cti', 1.592)",0,10440.993,0
0,749,target,"[(1089, 789)]",[],[1],[0.7],horizontal,"(890.0, 262.0)",0.8666666666666667,0.665,1,10445.72,1
0,750,target,"[(1058, 786)]",[],[1],[0.5833333333333334],horizontal,"(390.0, 262.0)",1.3833333333333333,0.542,1,10450.842,1
0,751,catch,"[(1045, 777)]",[],[1],[],vertical,"(890.0, 262.0)",1.6666666666666667,nan,1,10456.009,1
0,752,target,"[(1073, 784)]",[],[1],[0.36666666666666664],vertical,"(890.0, 262.0)",1.5,0.335,1,10461.058,2
0,753,target,"[(1074, 776)]",[],[1],[0.11666666666666667],horizontal,"(890.0, 262.0)",1.6333333333333333,0.084,0,10466.559,0
0,754,target,"[(1094, 789)]",[],[1],[0.35],horizontal,"(890.0, 762.0)",1.45,0.309,1,10471.369,1
0,755,target,"[(1075, 772)]",[],[1],[0.5],vertical,"(390.0, 762.0)",1.2666666666666666,0.458,1,10476.407,1
0,756,target,"[(1075, 806)]",[],[1],[0.55],horizontal,"(390.0, 762.0)",0.6333333333333333,0.51,1,10481.546,1
0,757,target,"[(1085, 752), (1062, 808)]",[],"[0, 1]",[0.5333333333333333],vertical,"(390.0, 262.0)",0.5333333333333333,0.49,1,10486.662,2
0,758,target,"[(1056, 782)]",[],[1],[0.5],vertical,"(390.0, 762.0)",0.8166666666666667,0.458,1,10493.173,2
0,759,target,"[(1081, 776)]",[],[1],[0.85],horizontal,"(390.0, 762.0)",0.6833333333333333,nan,0,10498.474,0
0,760,target,"[(1063, 780)]",[],[1],[0.7166666666666667],horizontal,"(390.0, 762.0)",1.1333333333333333,0.68,1,10502.837,1
0,761,target,"[(1062, 782)]",[],[1],[0.6333333333333333],vertical,"(390.0, 262.0)",1.15,0.591,1,10508.041,1
0,762,target,"[(1062, 772)]",[],[1],[0.35],horizontal,"(890.0, 262.0)",1.4666666666666666,0.312,1,10513.427,1
0,763,target,"[(1068, 738), (1064, 798)]",[],"[0, 1]",[0.6],horizontal,"(390.0, 262.0)",1.15,0.562,1,10518.303,2
0,764,catch,"[(1106, 779)]",[],[1],[],vertical,"(890.0, 762.0)",1.45,nan,1,10525.703,2
0,765,target,"[(1095, 800)]",[],[1],[0.6166666666666667],vertical,"(390.0, 762.0)",0.55,0.573,1,10530.891,2
0,766,target,"[(1066, 778)]",[],[1],[0.43333333333333335],vertical,"(890.0, 762.0)",1.6666666666666667,0.391,1,10535.992,2
0,767,target,"[(1075, 803)]",[],[1],[0.21666666666666667],vertical,"(390.0, 762.0)",1.4833333333333334,0.18,1,10541.775,2
0,768,target,"[(1080, 776)]",[],[1],[0.85],vertical,"(390.0, 762.0)",1.1166666666666667,nan,0,10547.065,0
0,769,target,"[(1028, 792)]",[],[1],[0.15],vertical,"(390.0, 262.0)",1.5333333333333332,0.118,0,10551.775,0
0,770,target,"[(1091, 805)]",[],[1],[0.5833333333333334],vertical,"(390.0, 762.0)",0.6833333333333333,0.544,1,10556.391,1
0,771,catch,"[(1074, 797)]",[],[1],[],vertical,"(890.0, 762.0)",1.3,nan,1,10560.957,1
0,772,target,"[(1085, 807)]",[],[1],[0.25],vertical,"(890.0, 762.0)",1.4333333333333333,0.21,1,10565.618,1
0,773,catch,"[(1065, 786)]",[],[1],[],vertical,"(890.0, 762.0)",1.5,nan,1,10570.658,2
0,774,target,"[(1081, 782)]",[],[1],[0.85],vertical,"(390.0, 762.0)",1.35,nan,0,10575.833,0
0,775,target,"[(1065, 806)]",[],[1],[0.55],vertical,"(890.0, 762.0)",0.85,0.51,1,10581.146,1
0,776,target,"[(1075, 778)]",[],[1],[0.48333333333333334],vertical,"(390.0, 762.0)",1.3166666666666667,0.44,1,10655.806,1
0,777,target,"[(1077, 801)]",[],[1],[0.5],vertical,"(390.0, 262.0)",1.25,0.462,1,10661.33,1
0,778,target,"[(1078, 783)]",[],[1],[0.85],horizontal,"(890.0, 762.0)",0.6333333333333333,nan,0,10666.248,0
0,779,target,"[(1075, 770)]",[],[1],[0.5666666666666667],vertical,"(890.0, 262.0)",0.7166666666666667,0.529,1,10671.103,1
0,780,target,"[(1059, 801)]",[],[1],[0.7],horizontal,"(890.0, 262.0)",1.3666666666666667,0.653,1,10675.559,1
0,781,target,"[(1017, 807)]",[],[1],[0.5333333333333333],vertical,"(390.0, 762.0)",1.1666666666666667,0.492,1,10680.76,1
0,782,target,"[(1059, 804)]",[],[1],[0.5666666666666667],horizontal,"(890.0, 762.0)",1.6333333333333333,0.519,1,10702.592,2
0,783,target,"[(1049, 807)]",[],[1],[0.85],horizontal,"(890.0, 762.0)",0.75,nan,0,10709.092,0
0,784,target,"[(1042, 801)]",[],[1],[0.6166666666666667],horizontal,"(890.0, 262.0)",1.0166666666666666,0.573,1,10714.359,1
0,785,target,"[(1065, 789)]",[],[1],[0.6],horizontal,"(890.0, 262.0)",0.6333333333333333,0.559,1,10719.41,1
0,786,catch,"[(1061, 798)]",[],[1],[],vertical,"(390.0, 762.0)",1.3,nan,1,10724.009,1
0,787,target,"[(1074, 796)]",[],[1],[0.85],horizontal,"(390.0, 262.0)",0.5666666666666667,nan,0,10728.477,0
0,788,target,"[(1054, 809)]",[],[1],[0.85],vertical,"(390.0, 762.0)",1.5,"('cti', 1.496),nan",0,10732.576,0
0,789,target,"[(1068, 804)]",[],[1],[0.6],horizontal,"(390.0, 762.0)",1.1,0.564,1,11157.148,1
0,790,target,"[(1085, 812)]",[],[1],[0.5333333333333333],horizontal,"(890.0, 262.0)",1.2666666666666666,0.495,1,11161.687,1
0,791,target,"[(1060, 795)]",[],[1],[0.4166666666666667],horizontal,"(390.0, 762.0)",1.4333333333333333,0.379,1,11166.799,1
0,792,target,"[(1083, 775)]",[],[1],[0.85],vertical,"(890.0, 262.0)",0.5,nan,0,11172.054,0
0,793,target,"[(1082, 795)]",[],[1],[0.5],vertical,"(390.0, 262.0)",1.4666666666666666,0.458,1,11176.297,1
0,794,target,"[(1042, 816)]",[],[1],[0.45],horizontal,"(890.0, 262.0)",1.0333333333333332,0.413,1,11181.87,1
0,795,target,"[(1055, 793)]",[],[1],[0.48333333333333334],vertical,"(890.0, 262.0)",1.0833333333333333,0.442,1,11187.029,1
0,796,target,"[(1086, 790)]",[],[1],[0.85],vertical,"(390.0, 762.0)",1.1666666666666667,nan,0,11192.063,0
0,797,target,"[(1063, 790)]",[],[1],[0.65],horizontal,"(890.0, 262.0)",0.8166666666666667,0.613,1,11196.678,1
0,798,target,"[(1070, 806)]",[],[1],[0.4166666666666667],vertical,"(890.0, 762.0)",1.3666666666666667,0.377,1,11201.964,1
0,799,target,"[(1061, 766)]",[],[1],[0.55],horizontal,"(890.0, 762.0)",0.8333333333333334,0.507,1,11207.663,1
0,800,target,"[(1060, 778)]",[],[1],[0.5],vertical,"(890.0, 762.0)",1.3166666666666667,0.457,1,11212.602,2
0,801,target,"[(1086, 799)]",[],[1],[0.6833333333333333],vertical,"(890.0, 762.0)",1.3,0.642,1,11218.051,2
0,802,target,"[(1072, 787)]",[],[1],[0.65],horizontal,"(390.0, 762.0)",0.9833333333333333,0.608,1,11223.579,2
0,803,target,"[(1083, 796)]",[],[1],[0.18333333333333332],horizontal,"(890.0, 762.0)",1.6333333333333333,0.153,1,11228.821,2
0,804,target,"[(1085, 795)]",[],[1],[0.55],horizontal,"(390.0, 262.0)",0.8,0.508,1,11234.268,2
0,805,target,"[(1086, 777)]",[],[1],[0.6],horizontal,"(890.0, 762.0)",0.6833333333333333,0.556,1,11239.575,3
0,806,target,"[(1091, 781)]",[],[1],[0.85],vertical,"(390.0, 262.0)",0.8,nan,0,11245.196,0
0,807,target,"[(1071, 802)]",[],[1],[0.5666666666666667],vertical,"(890.0, 762.0)",0.7333333333333333,0.531,1,11249.643,1
0,808,target,"[(1070, 781)]",[],[1],[0.1],horizontal,"(890.0, 262.0)",1.6166666666666667,0.068,0,11254.507,0
0,809,target,"[(1075, 794)]",[],[1],[0.6],horizontal,"(390.0, 262.0)",1.2666666666666666,0.562,1,11259.307,1
0,810,target,"[(1083, 788)]",[],[1],[0.6166666666666667],horizontal,"(890.0, 762.0)",0.8833333333333333,0.578,1,11264.313,1
0,811,target,"[(1075, 778)]",[],[1],[0.5],vertical,"(890.0, 762.0)",1.2166666666666666,0.461,1,11268.981,1
0,812,target,"[(1079, 758)]",[],[1],[0.65],vertical,"(890.0, 262.0)",0.6,0.607,1,11274.166,2
0,813,target,"[(1063, 799)]",[],[1],[0.7333333333333333],vertical,"(390.0, 762.0)",1.1166666666666667,0.686,1,11279.059,2
0,814,target,"[(1058, 781)]",[],[1],[0.48333333333333334],vertical,"(390.0, 262.0)",1.0666666666666667,0.444,1,11284.437,2
0,815,target,"[(1077, 781)]",[],[1],[0.4666666666666667],vertical,"(890.0, 762.0)",1.3,0.428,1,11289.883,2
0,816,target,"[(1080, 753), (1062, 801)]",[],"[0, 1]",[0.6666666666666666],horizontal,"(890.0, 762.0)",1.1166666666666667,0.623,1,11295.063,2
0,817,target,"[(1080, 795)]",[],[1],[0.4],horizontal,"(390.0, 762.0)",1.3833333333333333,0.36,1,11301.873,3
0,818,target,"[(1080, 777)]",[],[1],[0.25],horizontal,"(890.0, 762.0)",1.6166666666666667,0.218,1,11308.113,3
0,819,target,"[(1077, 782)]",[],[1],[0.85],horizontal,"(390.0, 762.0)",0.5666666666666667,nan,0,11314.063,0
0,820,target,"[(1064, 800)]",[],[1],[0.55],vertical,"(890.0, 262.0)",0.9,0.511,1,11318.75,1
0,821,target,"[(1055, 793)]",[],[1],[0.23333333333333334],vertical,"(890.0, 262.0)",1.5833333333333333,0.195,1,11323.535,1
0,822,target,"[(1044, 758)]",[],[1],[0.26666666666666666],vertical,"(890.0, 262.0)",1.5,0.227,1,11328.665,1
0,823,target,"[(1063, 775)]",[],[1],[0.8333333333333334],vertical,"(390.0, 262.0)",1.0,0.786,1,11333.689,2
0,824,target,"[(1061, 787)]",[],[1],[0.6333333333333333],vertical,"(890.0, 262.0)",0.65,0.592,1,11339.272,2
0,825,target,"[(1085, 780)]",[],[1],[0.6166666666666667],vertical,"(390.0, 762.0)",1.4,0.575,1,11344.234,2
0,826,target,"[(1090, 776)]",[],[1],[0.65],horizontal,"(890.0, 762.0)",0.7833333333333333,0.605,1,11350.022,2
0,827,target,"[(1077, 789)]",[],[1],[0.43333333333333335],horizontal,"(890.0, 762.0)",1.4333333333333333,0.394,1,11355.525,2
0,828,target,"[(1083, 782)]",[],[1],[0.5833333333333334],horizontal,"(890.0, 262.0)",1.2166666666666666,0.546,1,11360.948,3
0,829,target,"[(1075, 773)]",[],[1],[0.85],vertical,"(390.0, 262.0)",1.0833333333333333,nan,0,11366.782,0
0,830,target,"[(1077, 773)]",[],[1],[0.6],vertical,"(890.0, 262.0)",1.0666666666666667,0.568,1,11371.514,1
0,831,target,"[(1075, 771)]",[],[1],[0.4],vertical,"(890.0, 762.0)",1.4166666666666667,0.362,1,11376.484,1
0,832,target,"[(1079, 792)]",[],[1],[0.6833333333333333],horizontal,"(390.0, 262.0)",0.9,0.642,1,11381.371,1
0,833,target,"[(1095, 787)]",[],[1],[0.5166666666666666],horizontal,"(890.0, 762.0)",1.2,0.482,1,11386.721,2
0,834,target,"[(1073, 769)]",[],[1],[0.3833333333333333],horizontal,"(390.0, 762.0)",1.35,0.349,1,11392.299,2
0,835,target,"[(1072, 769)]",[],[1],[0.85],horizontal,"(890.0, 762.0)",0.5666666666666667,nan,0,11397.864,0
0,836,target,"[(1063, 794)]",[],[1],[],vertical,"(890.0, 762.0)",,"('cti', 1.564)",0,11402.087,0
0,837,catch,"[(1090, 786)]",[],[1],[],horizontal,"(890.0, 262.0)",1.2666666666666666,nan,1,11407.108,1
0,838,target,"[(1071, 787)]",[],[1],[0.4],vertical,"(390.0, 262.0)",1.55,0.36,1,11411.564,1
0,839,target,"[(1072, 776)]",[],[1],[0.4],vertical,"(890.0, 262.0)",1.35,0.36,1,11416.57,1
0,840,target,"[(1065, 780)]",[],[1],[0.48333333333333334],vertical,"(890.0, 762.0)",1.55,0.444,1,11421.791,2
0,841,target,"[(1065, 787)]",[],[1],[0.5166666666666666],vertical,"(890.0, 262.0)",1.2,0.475,1,11427.714,2
0,842,target,"[(1070, 786)]",[],[1],[0.36666666666666664],vertical,"(390.0, 262.0)",1.4666666666666666,0.327,1,11433.08,2
0,843,target,"[(1074, 803)]",[],[1],[0.7],vertical,"(390.0, 762.0)",0.7833333333333333,0.65,1,11439.099,2
0,844,target,"[(1065, 791)]",[],[1],[0.55],vertical,"(890.0, 262.0)",1.05,0.505,1,11444.143,2
0,845,target,"[(1077, 794)]",[],[1],[0.85],vertical,"(390.0, 762.0)",0.6333333333333333,nan,0,11449.481,0
0,846,target,"[(1070, 766)]",[],[1],[0.55],vertical,"(890.0, 762.0)",0.8666666666666667,0.509,1,11454.391,1
0,847,target,"[(1075, 783)]",[],[1],[0.5833333333333334],vertical,"(890.0, 262.0)",0.7166666666666667,0.538,1,11459.066,1
0,848,target,"[(1064, 783)]",[],[1],[0.2],vertical,"(390.0, 762.0)",1.5166666666666666,0.17,1,11463.549,1
0,849,target,"[(1066, 772)]",[],[1],[0.75],horizontal,"(890.0, 762.0)",0.7166666666666667,0.707,1,11468.55,2
0,850,target,"[(1075, 772)]",[],[1],[0.6],horizontal,"(890.0, 262.0)",0.6666666666666666,0.554,1,11474.066,2
0,851,catch,"[(1086, 773)]",[],[1],[],vertical,"(390.0, 262.0)",,"('cti', 1.448),nan",0,11478.816,0
0,852,target,"[(1104, 795)]",[],[1],[0.5333333333333333],horizontal,"(890.0, 262.0)",0.9333333333333333,0.488,1,11483.6,1
0,853,target,"[(1088, 777)]",[],[1],[0.85],horizontal,"(890.0, 262.0)",0.7333333333333333,nan,0,11488.383,0
0,854,target,"[(1065, 778)]",[],[1],[0.65],horizontal,"(890.0, 262.0)",0.6333333333333333,0.625,1,11492.882,1
0,855,catch,"[(1074, 769)]",[],[1],[],horizontal,"(390.0, 762.0)",1.6666666666666667,nan,1,11497.316,1
0,856,target,"[(1072, 775)]",[],[1],[0.5666666666666667],horizontal,"(890.0, 762.0)",0.9833333333333333,0.525,1,11502.41,1
0,857,target,"[(1076, 766)]",[],[1],[0.7166666666666667],vertical,"(390.0, 262.0)",0.6666666666666666,0.674,1,11507.056,2
0,858,target,"[(1077, 789)]",[],[1],[0.6666666666666666],vertical,"(390.0, 762.0)",1.2666666666666666,0.626,1,11512.134,2
0,859,target,"[(1061, 784)]",[],[1],[0.6],horizontal,"(890.0, 262.0)",1.2833333333333332,0.558,1,11517.549,2
0,860,target,"[(1080, 784)]",[],[1],[0.35],vertical,"(890.0, 762.0)",1.3833333333333333,0.311,1,11523.039,2
0,861,target,"[(1079, 788)]",[],[1],[0.5833333333333334],vertical,"(390.0, 762.0)",0.7,0.54,1,11528.516,2
0,862,target,"[(1065, 787)]",[],[1],[0.7333333333333333],vertical,"(890.0, 262.0)",0.65,0.697,1,11533.569,3
0,863,catch,"[(1061, 785)]",[],[1],[],vertical,"(890.0, 262.0)",,"('cti', 1.39),nan",0,11538.927,0
0,864,catch,"[(1087, 791)]",[],[1],[],horizontal,"(390.0, 762.0)",1.5166666666666666,nan,1,11543.351,1
0,865,target,"[(1083, 796)]",[],[1],[0.13333333333333333],horizontal,"(890.0, 262.0)",1.6333333333333333,0.099,0,11548.011,0
0,866,target,"[(1108, 781)]",[],[1],[0.6666666666666666],horizontal,"(390.0, 262.0)",0.9,0.619,1,11552.652,1
0,867,target,"[(1066, 791)]",[],[1],[0.5666666666666667],vertical,"(890.0, 762.0)",1.05,0.522,1,11557.167,1
0,868,catch,"[(1062, 787)]",[],[1],[],horizontal,"(890.0, 762.0)",1.2666666666666666,nan,1,11562.536,1
0,869,target,"[(1062, 785)]",[],[1],[0.6],vertical,"(890.0, 262.0)",0.7,0.562,1,11567.449,2
0,870,target,"[(1069, 775)]",[],[1],[0.23333333333333334],vertical,"(390.0, 262.0)",1.4833333333333334,0.199,1,11572.399,2
0,871,target,"[(1072, 776)]",[],[1],[0.55],vertical,"(890.0, 262.0)",0.9333333333333333,0.508,1,11577.666,2
0,872,catch,"[(1081, 782)]",[],[1],[],vertical,"(390.0, 262.0)",1.35,nan,1,11583.132,2
0,873,target,"[(1076, 791)]",[],[1],[0.45],horizontal,"(890.0, 262.0)",1.4666666666666666,0.411,1,11588.1,2
0,874,target,"[(1060, 794)]",[],[1],[0.7],vertical,"(390.0, 262.0)",1.0,0.659,1,11593.783,3
0,875,target,"[(1059, 761)]",[],[1],[0.15],vertical,"(390.0, 262.0)",1.6166666666666667,0.117,0,11599.824,0
0,876,target,"[(1070, 799)]",[],[1],[0.55],horizontal,"(390.0, 762.0)",1.2833333333333332,0.512,1,11604.501,1
0,877,target,"[(1077, 797)]",[],[1],[0.5833333333333334],vertical,"(890.0, 762.0)",1.1666666666666667,0.545,1,11609.435,1
0,878,target,"[(1067, 787)]",[],[1],[0.36666666666666664],horizontal,"(890.0, 762.0)",1.35,0.33,1,11614.52,1
0,879,target,"[(1056, 782)]",[],[1],[0.3],horizontal,"(390.0, 262.0)",1.65,0.264,1,11619.284,2
0,880,target,"[(1056, 782)]",[],[1],[0.5833333333333334],vertical,"(390.0, 262.0)",0.75,0.539,1,11624.961,2
0,881,target,"[(1058, 790)]",[],[1],[0.16666666666666666],vertical,"(890.0, 262.0)",1.4166666666666667,0.134,0,11630.1,0
0,882,target,"[(1070, 786)]",[],[1],[0.85],horizontal,"(390.0, 262.0)",0.8666666666666667,nan,0,11634.851,0
0,883,catch,"[(1077, 786)]",[],[1],[],vertical,"(890.0, 262.0)",1.6666666666666667,nan,1,11639.667,1
0,884,target,"[(1078, 780)]",[],[1],[0.15],horizontal,"(890.0, 262.0)",1.6833333333333333,0.116,0,11644.55,0
0,885,target,"[(1072, 799)]",[],[1],[0.7833333333333333],vertical,"(390.0, 262.0)",1.0333333333333332,0.735,1,11649.812,1
0,886,target,"[(1058, 778)]",[],[1],[0.5666666666666667],vertical,"(890.0, 262.0)",1.3,0.533,1,11654.82,1
0,887,target,"[(1042, 768)]",[],[1],[0.85],vertical,"(390.0, 762.0)",1.0666666666666667,nan,0,11660.195,0
0,888,target,"[(1065, 781)]",[],[1],[0.5333333333333333],horizontal,"(890.0, 262.0)",1.4166666666666667,0.5,1,11664.868,1
0,889,target,"[(1061, 786)]",[],[1],[0.7],horizontal,"(390.0, 762.0)",0.55,0.658,1,11670.375,1
0,890,target,"[(1080, 759)]",[],[1],[0.65],horizontal,"(390.0, 262.0)",0.8,0.607,1,11674.458,1
0,891,catch,"[(1080, 803)]",[],[1],[],horizontal,"(390.0, 762.0)",1.6,nan,1,11678.957,2
0,892,target,"[(1075, 789)]",[],[1],[0.6666666666666666],horizontal,"(890.0, 762.0)",0.65,0.631,1,11684.885,2
0,893,target,"[(1095, 808)]",[],[1],[0.85],vertical,"(390.0, 762.0)",0.7,nan,0,11690.042,0
0,894,target,"[(1062, 796)]",[],[1],[0.23333333333333334],vertical,"(390.0, 762.0)",1.6,0.198,1,11694.716,1
0,895,target,"[(1037, 789)]",[],[1],[0.8166666666666667],horizontal,"(890.0, 762.0)",1.1166666666666667,0.772,1,11699.85,1
0,896,target,"[(1083, 774)]",[],[1],[0.75],horizontal,"(390.0, 762.0)",0.8666666666666667,0.71,1,11705.061,1
0,897,target,"[(1076, 792)]",[],[1],[0.6166666666666667],vertical,"(890.0, 262.0)",1.3166666666666667,0.572,1,11710.185,2
0,898,target,"[(1068, 782)]",[],[1],[0.35],vertical,"(890.0, 262.0)",1.4333333333333333,0.315,1,11715.733,2
0,899,target,"[(1085, 799)]",[],[1],[0.5166666666666666],horizontal,"(390.0, 262.0)",1.2833333333333332,0.476,1,11720.9,2
0,900,target,"[(1061, 791)]",[],[1],[0.6666666666666666],horizontal,"(890.0, 762.0)",1.0833333333333333,0.629,1,11726.788,2
0,901,target,"[(1068, 796)]",[],[1],[0.2833333333333333],horizontal,"(890.0, 762.0)",1.5333333333333332,0.249,1,11732.134,2
0,902,target,"[(1075, 801)]",[],[1],[0.4],vertical,"(890.0, 262.0)",1.35,0.358,1,11737.818,3
0,903,target,"[(1075, 796)]",[],[1],[0.85],vertical,"(390.0, 762.0)",0.8666666666666667,nan,0,11743.939,0
0,904,target,"[(1063, 787)]",[],[1],[0.48333333333333334],horizontal,"(890.0, 262.0)",1.3,0.446,1,11748.451,1
0,905,target,"[(1061, 796)]",[],[1],[0.75],horizontal,"(390.0, 762.0)",0.5,0.712,1,11753.627,1
0,906,target,"[(1097, 798)]",[],[1],[0.48333333333333334],vertical,"(390.0, 262.0)",0.6666666666666666,0.451,1,11758.325,1
0,907,target,"[(1066, 755)]",[],[1],[],vertical,"(390.0, 262.0)",,"('cti', 1.384)",0,11763.002,0
0,908,target,"[(1091, 796)]",[],[1],[],horizontal,"(890.0, 262.0)",,"('cti', 1.636)",0,11767.751,0
0,909,target,"[(1070, 790)]",[],[1],[0.7166666666666667],vertical,"(390.0, 262.0)",0.95,0.676,1,11772.518,1
0,910,catch,"[(1087, 783)]",[],[1],[],vertical,"(890.0, 762.0)",1.3166666666666667,nan,1,11777.366,1
0,911,target,"[(1058, 806)]",[],[1],[0.85],horizontal,"(390.0, 762.0)",0.5333333333333333,nan,0,11781.717,0
0,912,target,"[(1019, 808)]",[],[1],[0.85],horizontal,"(890.0, 762.0)",0.7666666666666666,nan,0,11892.219,0
