block,trial,trial_type,taps_start_loc_during_fix,taps_end_loc_during_fix,taps_on_lever_during_fix,taps_on_lever_s_during_fix,bar_orientation,target_xy,cti,rt,acc,time,pulses,fa_rate_recent100,actual_invalid_type
0,1,valid,"[(1128, 832)]",[],[1],[0.4],vertical,"(890.0, 262.0)",0.36666666666666664,0.358,1,0.782,1,0.0,same
0,2,valid,"[(1092, 851)]",[],[1],[0.11666666666666667],horizontal,"(890.0, 762.0)",1.2666666666666666,0.082,0,8.118,0,0.0,same
0,3,catch,"[(1105, 824)]",[],[1],[],horizontal,"(890.0, 762.0)",,"('cti', 0.183),nan",0,48.724,0,0.3333333333333333,same
0,4,catch,"[(1055, 821)]",[],[1],[],horizontal,"(890.0, 262.0)",1.7,nan,1,51.912,1,0.25,same
0,5,invalid_same_bar,"[(1111, 808)]",[],[1],[0.6166666666666667],vertical,"(890.0, 762.0)",0.6666666666666666,0.575,1,68.77,1,0.2,same
0,6,catch,"[(1123, 809)]",[],[1],[],vertical,"(390.0, 262.0)",,"('cti', 1.622),nan",0,73.303,0,0.3333333333333333,same
0,7,valid,"[(1098, 795)]",[],[1],[0.5166666666666666],vertical,"(890.0, 762.0)",0.9666666666666667,0.482,1,78.342,1,0.2857142857142857,same
0,8,valid,"[(1111, 808)]",[],[1],[0.6333333333333333],vertical,"(390.0, 762.0)",0.8166666666666667,0.594,1,83.169,1,0.25,same
0,9,invalid_adjacent_other_bar,"[(1051, 818)]",[],[1],[0.85],vertical,"(890.0, 762.0)",0.45,nan,0,88.45,0,0.2222222222222222,other
0,10,catch,"[(1097, 807)]",[],[1],[],horizontal,"(390.0, 762.0)",1.7,nan,1,94.483,1,0.2,same
0,11,invalid_adjacent_other_bar,"[(1160, 799)]",[],[1],[0.55],horizontal,"(390.0, 262.0)",1.0166666666666666,0.515,1,100.067,1,0.18181818181818182,other
0,12,valid,"[(1152, 798)]",[],[1],[0.7],horizontal,"(390.0, 262.0)",1.3666666666666667,0.674,1,105.439,1,0.16666666666666666,same
0,13,valid,"[(1120, 788)]",[],[1],[0.4666666666666667],horizontal,"(890.0, 762.0)",1.3833333333333333,0.442,1,111.193,2,0.15384615384615385,same
0,14,catch,"[(1133, 800)]",[],[1],[],horizontal,"(890.0, 262.0)",1.7,nan,1,117.371,2,0.14285714285714285,same
0,15,valid,"[(1105, 844)]",[],[1],[0.4666666666666667],vertical,"(890.0, 762.0)",1.45,0.439,1,122.956,2,0.13333333333333333,same
0,16,catch,"[(1132, 786)]",[],[1],[],vertical,"(390.0, 262.0)",1.7,nan,1,129.273,2,0.125,same
0,17,valid,"[(1126, 812)]",[],[1],[0.6166666666666667],vertical,"(890.0, 762.0)",0.6833333333333333,0.595,1,134.939,3,0.11764705882352941,same
0,18,valid,"[(1150, 805)]",[],[1],[0.6],horizontal,"(890.0, 762.0)",1.0666666666666667,0.564,1,140.677,3,0.1111111111111111,same
0,19,valid,"[(1135, 820)]",[],[1],[0.55],vertical,"(890.0, 762.0)",0.45,0.524,1,146.203,3,0.10526315789473684,same
0,20,valid,"[(1131, 804)]",[],[1],[],vertical,"(890.0, 762.0)",,"('fix', 0.255)",0,151.374,0,0.1,same
0,21,valid,"[(1088, 848)]",[],[1],[0.48333333333333334],vertical,"(890.0, 262.0)",1.35,0.44,1,153.338,1,0.09523809523809523,same
0,22,invalid_same_bar,"[(1118, 814)]",[],[1],[],vertical,"(890.0, 762.0)",,"('cti', 0.584)",0,158.938,0,0.09090909090909091,same
0,23,catch,"[(1098, 816)]",[],[1],[],vertical,"(890.0, 262.0)",,"('cti', 1.398),nan",0,162.881,0,0.13043478260869565,same
0,24,valid,"[(1131, 797)]",[],[1],[0.48333333333333334],horizontal,"(390.0, 762.0)",1.4666666666666666,0.441,1,578.823,1,0.125,same
0,25,invalid_same_bar,"[(1141, 799)]",[],[1],[0.5333333333333333],vertical,"(890.0, 262.0)",1.2833333333333332,0.495,1,584.211,1,0.12,same
0,26,valid,"[(1162, 804)]",[],[1],[0.85],horizontal,"(390.0, 262.0)",0.6166666666666667,nan,0,589.317,0,0.11538461538461539,same
0,27,valid,"[(1125, 803)]",[],[1],[0.5666666666666667],vertical,"(390.0, 762.0)",1.25,0.526,1,594.115,1,0.1111111111111111,same
0,28,valid,"[(1135, 798)]",[],[1],[0.5333333333333333],vertical,"(390.0, 262.0)",0.45,0.487,1,599.089,1,0.10714285714285714,same
0,29,valid,"[(1165, 803)]",[],[1],[0.5166666666666666],horizontal,"(890.0, 262.0)",0.45,0.479,1,603.33,1,0.10344827586206896,same
0,30,valid,"[(1137, 810)]",[],[1],[0.5833333333333334],horizontal,"(890.0, 262.0)",1.15,0.537,1,607.745,2,0.1,same
0,31,valid,"[(1162, 821)]",[],[1],[0.4666666666666667],vertical,"(890.0, 762.0)",1.3666666666666667,0.425,1,613.395,2,0.0967741935483871,same
0,32,catch,"[(1145, 820)]",[],[1],[],vertical,"(890.0, 762.0)",1.7,nan,1,619.282,2,0.09375,same
0,33,catch,"[(1155, 818)]",[],[1],[],vertical,"(890.0, 762.0)",1.7,nan,1,625.895,2,0.09090909090909091,same
0,34,valid,"[(1166, 811)]",[],[1],[0.6666666666666666],horizontal,"(390.0, 262.0)",1.3833333333333333,0.615,1,631.355,3,0.08823529411764706,same
0,35,catch,"[(1169, 791)]",[],[1],[],vertical,"(890.0, 762.0)",1.7,nan,1,637.537,3,0.08571428571428572,same
0,36,valid,"[(1148, 788)]",[],[1],[0.7333333333333333],horizontal,"(390.0, 262.0)",1.1833333333333333,0.686,1,643.279,3,0.08333333333333333,same
0,37,catch,"[(1155, 788)]",[],[1],[],vertical,"(890.0, 262.0)",1.7,nan,1,649.377,3,0.08108108108108109,same
0,38,catch,"[(1176, 787)]",[],[1],[],horizontal,"(890.0, 262.0)",1.7,nan,1,655.329,3,0.07894736842105263,same
0,39,valid,"[(1169, 781)]",[],[1],[0.7],vertical,"(390.0, 762.0)",0.7833333333333333,0.65,1,661.761,3,0.07692307692307693,same
0,40,valid,"[(1164, 789)]",[],[1],[0.5666666666666667],vertical,"(390.0, 262.0)",0.6833333333333333,0.53,1,667.611,3,0.075,same
0,41,invalid_adjacent_other_bar,"[(1163, 805)]",[],[1],[0.6333333333333333],vertical,"(390.0, 262.0)",0.9166666666666666,0.588,1,672.778,3,0.07317073170731707,other
0,42,catch,"[(1166, 784)]",[],[1],[],horizontal,"(890.0, 262.0)",1.7,nan,1,678.611,3,0.07142857142857142,same
0,43,valid,"[(1167, 785)]",[],[1],[0.6],vertical,"(390.0, 262.0)",0.5833333333333334,0.564,1,684.765,3,0.06976744186046512,same
0,44,valid,"[(1169, 787)]",[],[1],[0.55],vertical,"(890.0, 262.0)",0.7166666666666667,0.507,1,690.311,3,0.06818181818181818,same
0,45,valid,"[(1165, 760)]",[],[1],[0.5833333333333334],horizontal,"(390.0, 762.0)",0.9833333333333333,0.544,1,696.111,3,0.06666666666666667,same
0,46,valid,"[(1170, 774)]",[],[1],[0.5166666666666666],vertical,"(390.0, 762.0)",0.4,0.474,1,702.193,3,0.06521739130434782,same
0,47,valid,"[(1166, 773)]",[],[1],[0.85],horizontal,"(890.0, 762.0)",0.6333333333333333,nan,0,707.369,0,0.06382978723404255,same
0,48,valid,"[(1165, 776)]",[],[1],[0.5166666666666666],vertical,"(390.0, 762.0)",0.4166666666666667,0.474,1,711.707,1,0.0625,same
0,49,catch,"[(1173, 778)]",[],[1],[],horizontal,"(890.0, 762.0)",1.7,nan,1,716.512,1,0.061224489795918366,same
0,50,valid,"[(1167, 780)]",[],[1],[0.85],vertical,"(890.0, 762.0)",0.6833333333333333,nan,0,721.257,0,0.06,same
0,51,valid,"[(1160, 782)]",[],[1],[0.4666666666666667],vertical,"(890.0, 262.0)",0.7333333333333333,0.426,1,725.611,1,0.06,same
0,52,valid,"[(1136, 793)]",[],[1],[0.5],vertical,"(390.0, 762.0)",0.7333333333333333,0.456,1,730.204,1,0.06,same
0,53,catch,"[(1167, 787)]",[],[1],[],horizontal,"(390.0, 262.0)",1.7,nan,1,734.561,1,0.04,same
0,54,valid,"[(1155, 796)]",[],[1],[0.85],horizontal,"(890.0, 262.0)",0.9,nan,0,739.495,0,0.04,same
0,55,catch,"[(1090, 765)]",[],[1],[],vertical,"(890.0, 762.0)",1.7,nan,1,744.245,1,0.04,same
0,56,valid,"[(1164, 784)]",[],[1],[0.7166666666666667],vertical,"(390.0, 262.0)",0.6,0.671,1,749.127,1,0.02,same
0,57,valid,"[(1115, 807)]",[],[1],[],vertical,"(890.0, 762.0)",,"('fix', 0.033)",0,754.11,0,0.02,same
0,58,invalid_same_bar,"[(1149, 797)]",[],[1],[0.4666666666666667],vertical,"(390.0, 262.0)",0.8666666666666667,0.422,1,755.545,1,0.02,same
0,59,valid,"[(1164, 803)]",[],[1],[0.4666666666666667],vertical,"(390.0, 762.0)",1.0833333333333333,0.421,1,760.563,1,0.02,same
0,60,valid,"[(1119, 806)]",[],[1],[0.6666666666666666],horizontal,"(390.0, 262.0)",0.5666666666666667,0.616,1,765.67,1,0.02,same
0,61,valid,"[(1100, 776)]",[],[1],[0.5166666666666666],horizontal,"(890.0, 762.0)",1.1,0.472,1,770.426,2,0.02,same
0,62,catch,"[(1175, 793)]",[],[1],[],horizontal,"(390.0, 262.0)",,"('fix', 0.655),nan",0,775.794,0,0.04,same
0,63,valid,"[(1105, 795)]",[],[1],[0.6166666666666667],vertical,"(890.0, 262.0)",1.05,0.57,1,777.759,1,0.04,same
0,64,catch,"[(1153, 819)]",[],[1],[],vertical,"(390.0, 762.0)",1.7,nan,1,1023.729,1,0.04,same
0,65,valid,"[(1159, 796)]",[],[1],[0.85],horizontal,"(390.0, 262.0)",0.5333333333333333,nan,0,1028.512,0,0.04,same
0,66,invalid_adjacent_other_bar,"[(1128, 839)]",[],[1],[0.48333333333333334],horizontal,"(390.0, 262.0)",0.8666666666666667,0.444,1,1032.489,1,0.04,other
0,67,valid,"[(1165, 783)]",[],[1],[0.48333333333333334],vertical,"(390.0, 762.0)",0.5666666666666667,0.442,1,1133.797,1,0.04,same
0,68,valid,"[(1136, 789)]",[],[1],[0.85],vertical,"(890.0, 262.0)",0.6833333333333333,nan,0,1138.119,0,0.04,same
0,69,valid,"[(1120, 774)]",[],[1],[0.85],horizontal,"(890.0, 762.0)",1.4666666666666666,nan,0,1142.238,0,0.04,same
0,70,valid,"[(1136, 805)]",[],[1],[0.5666666666666667],vertical,"(390.0, 762.0)",0.9833333333333333,0.523,1,1147.219,1,0.04,same
0,71,invalid_adjacent_other_bar,"[(1165, 796)]",[],[1],[0.85],vertical,"(890.0, 762.0)",0.6,nan,0,1151.887,0,0.04,other
0,72,valid,"[(1126, 782)]",[],[1],[0.6],vertical,"(890.0, 262.0)",1.2,0.557,1,1156.646,1,0.04,same
0,73,valid,"[(1140, 786)]",[],[1],[0.6],vertical,"(390.0, 262.0)",0.75,0.557,1,1161.917,1,0.02,same
0,74,valid,"[(1164, 783)]",[],[1],[0.7],horizontal,"(890.0, 262.0)",0.95,0.657,1,1166.665,1,0.02,same
0,75,catch,"[(1166, 793)]",[],[1],[],vertical,"(890.0, 762.0)",1.7,nan,1,1172.097,2,0.02,same
0,76,catch,"[(1171, 793)]",[],[1],[],horizontal,"(890.0, 762.0)",1.7,nan,1,1178.047,2,0.02,same
0,77,valid,"[(1168, 792)]",[],[1],[0.5833333333333334],vertical,"(890.0, 762.0)",0.5833333333333334,0.536,1,1183.672,2,0.02,same
0,78,valid,"[(1131, 804)]",[],[1],[0.5666666666666667],vertical,"(390.0, 262.0)",1.2833333333333332,0.524,1,1188.799,2,0.02,same
0,79,invalid_same_bar,"[(1145, 820)]",[],[1],[0.6333333333333333],horizontal,"(390.0, 762.0)",0.7333333333333333,0.588,1,1194.864,3,0.02,same
0,80,invalid_same_bar,"[(1140, 795)]",[],[1],[0.5166666666666666],horizontal,"(390.0, 262.0)",0.5,0.476,1,1200.78,3,0.02,same
0,81,valid,"[(1165, 811)]",[],[1],[0.5],vertical,"(390.0, 762.0)",0.8,0.461,1,1205.913,3,0.02,same
0,82,invalid_same_bar,"[(1158, 773)]",[],[1],[0.6166666666666667],horizontal,"(390.0, 762.0)",1.1,0.569,1,1211.663,3,0.02,same
0,83,invalid_same_bar,"[(1143, 803)]",[],[1],[0.5],horizontal,"(390.0, 762.0)",0.45,0.457,1,1217.706,3,0.02,same
0,84,catch,"[(1160, 798)]",[],[1],[0.03333333333333333],horizontal,"(890.0, 762.0)",1.7,"0.019,nan",0,1222.777,0,0.04,same
0,85,valid,"[(1145, 784)]",[],[1],[0.85],horizontal,"(390.0, 762.0)",0.9166666666666666,nan,0,1227.723,0,0.04,same
0,86,valid,"[(1151, 787)]",[],[1],[0.5833333333333334],vertical,"(390.0, 262.0)",0.75,0.539,1,1232.28,1,0.04,same
0,87,catch,"[(1135, 804)]",[],[1],[],horizontal,"(390.0, 762.0)",1.7,nan,1,1237.329,1,0.04,same
0,88,catch,"[(1145, 798)]",[],[1],[],horizontal,"(390.0, 762.0)",1.7,nan,1,1242.497,1,0.04,same
0,89,valid,"[(1147, 810)]",[],[1],[0.5833333333333334],vertical,"(390.0, 262.0)",1.0833333333333333,0.543,1,1247.514,2,0.04,same
0,90,invalid_same_bar,"[(1165, 792)]",[],[1],[0.45],horizontal,"(890.0, 762.0)",1.4833333333333334,0.41,1,1253.043,2,0.04,same
0,91,valid,"[(1113, 776)]",[],[1],[0.5833333333333334],horizontal,"(890.0, 262.0)",1.1333333333333333,0.535,1,1259.113,2,0.04,same
0,92,catch,"[(1165, 799)]",[],[1],[],vertical,"(890.0, 762.0)",1.7,nan,1,1264.902,2,0.04,same
0,93,valid,"[(1165, 820)]",[],[1],[0.3833333333333333],horizontal,"(890.0, 262.0)",1.5333333333333332,0.345,1,1270.706,3,0.04,same
0,94,valid,"[(1134, 791)]",[],[1],[0.55],vertical,"(390.0, 262.0)",1.3,0.502,1,1277.213,3,0.04,same
0,95,invalid_adjacent_other_bar,"[(1137, 796)]",[],[1],[0.55],vertical,"(890.0, 262.0)",0.4666666666666667,0.509,1,1283.039,3,0.04,other
0,96,valid,"[(1153, 790)]",[],[1],[0.5166666666666666],horizontal,"(890.0, 262.0)",1.1666666666666667,0.476,1,1288.429,3,0.04,same
0,97,catch,"[(1135, 772)]",[],[1],[],horizontal,"(390.0, 262.0)",1.7,nan,1,1294.246,3,0.04,same
0,98,valid,"[(1168, 796)]",[],[1],[0.5],horizontal,"(390.0, 262.0)",0.75,0.459,1,1300.229,3,0.04,same
0,99,valid,"[(1161, 801)]",[],[1],[0.5833333333333334],vertical,"(890.0, 262.0)",0.4666666666666667,0.54,1,1305.822,3,0.04,same
0,100,catch,"[(1160, 782)]",[],[1],[],vertical,"(390.0, 262.0)",1.7,nan,1,1311.457,3,0.04,same
0,101,catch,"[(1171, 793)]",[],[1],[],vertical,"(390.0, 262.0)",1.7,nan,1,1317.363,3,0.04,same
0,102,valid,"[(1155, 792)]",[],[1],[0.4166666666666667],horizontal,"(890.0, 762.0)",1.1833333333333333,0.377,1,1323.283,3,0.04,same
0,103,catch,"[(1144, 801)]",[],[1],[],horizontal,"(890.0, 262.0)",1.7,nan,1,1329.529,3,0.04,same
0,104,valid,"[(1165, 798)]",[],[1],[0.6666666666666666],vertical,"(890.0, 762.0)",0.85,0.621,1,1335.817,3,0.04,same
0,105,valid,"[(1163, 776)]",[],[1],[0.6],horizontal,"(390.0, 262.0)",0.3833333333333333,0.56,1,1341.199,3,0.04,same
0,106,valid,"[(1153, 774)]",[],[1],[0.48333333333333334],vertical,"(890.0, 262.0)",0.35,0.44,1,1346.685,3,0.04,same
0,107,valid,"[(1166, 792)]",[],[1],[0.4666666666666667],vertical,"(390.0, 262.0)",0.95,0.429,1,1351.53,3,0.04,same
0,108,valid,"[(1166, 791)]",[],[1],[0.4666666666666667],horizontal,"(390.0, 762.0)",0.6,0.425,1,1357.149,3,0.04,same
0,109,catch,"[(1169, 766)]",[],[1],[],vertical,"(390.0, 262.0)",1.7,nan,1,1362.159,3,0.04,same
0,110,valid,"[(1160, 795)]",[],[1],[0.5833333333333334],horizontal,"(390.0, 762.0)",1.4166666666666667,0.539,1,1367.94,3,0.04,same
0,111,catch,"[(1170, 791)]",[],[1],[],vertical,"(890.0, 262.0)",1.7,nan,1,1373.697,3,0.04,same
0,112,valid,"[(1165, 769)]",[],[1],[0.5166666666666666],horizontal,"(390.0, 262.0)",0.4666666666666667,0.473,1,1379.389,3,0.02,same
0,113,catch,"[(1155, 778)]",[],[1],[],horizontal,"(890.0, 762.0)",1.7,nan,1,1384.478,3,0.02,same
0,114,valid,"[(1163, 776)]",[],[1],[0.4666666666666667],horizontal,"(890.0, 262.0)",0.7333333333333333,0.423,1,1390.322,3,0.02,same
0,115,valid,"[(1166, 781)]",[],[1],[0.5833333333333334],vertical,"(890.0, 762.0)",0.8833333333333333,0.542,1,1396.106,3,0.02,same
0,116,valid,"[(1148, 796)]",[],[1],[0.6666666666666666],vertical,"(390.0, 262.0)",0.8,0.623,1,1401.923,3,0.02,same
0,117,valid,"[(1165, 780)]",[],[1],[0.55],vertical,"(390.0, 762.0)",0.9166666666666666,0.51,1,1407.847,3,0.02,same
0,118,catch,"[(1165, 788)]",[],[1],[],horizontal,"(890.0, 762.0)",,"('cti', 1.424),nan",0,1413.23,0,0.04,same
0,119,valid,"[(1138, 782)]",[],[1],[0.5],vertical,"(890.0, 762.0)",1.3833333333333333,0.468,1,1417.937,1,0.04,same
0,120,valid,"[(1168, 803)]",[],[1],[0.5666666666666667],vertical,"(390.0, 262.0)",1.1833333333333333,0.526,1,1423.081,1,0.04,same
0,121,catch,"[(1140, 772)]",[],[1],[],vertical,"(890.0, 262.0)",1.7,nan,1,1428.28,1,0.04,same
0,122,catch,"[(1144, 771)]",[],[1],[],horizontal,"(390.0, 262.0)",1.7,nan,1,1433.647,2,0.04,same
0,123,valid,"[(1135, 793)]",[],[1],[0.55],vertical,"(890.0, 262.0)",1.2333333333333334,0.511,1,1439.164,2,0.04,same
0,124,valid,"[(1158, 795)]",[],[1],[0.48333333333333334],horizontal,"(390.0, 762.0)",1.0333333333333332,0.443,1,1444.756,2,0.04,same
0,125,valid,"[(1150, 790)]",[],[1],[0.6833333333333333],horizontal,"(390.0, 762.0)",1.2666666666666666,0.633,1,1449.731,2,0.04,same
0,126,valid,"[(1135, 799)]",[],[1],[0.55],horizontal,"(390.0, 262.0)",1.5333333333333332,0.511,1,1455.347,3,0.04,same
0,127,catch,"[(1144, 802)]",[],[1],[],vertical,"(890.0, 262.0)",,"('cti', 1.191),nan",0,1461.598,0,0.06,same
0,128,catch,"[(1140, 791)]",[],[1],[],vertical,"(390.0, 762.0)",1.7,nan,1,1465.917,1,0.06,same
0,129,valid,"[(1136, 789)]",[],[1],[0.85],horizontal,"(890.0, 762.0)",1.0,nan,0,1471.097,0,0.06,same
0,130,valid,"[(1133, 784)]",[],[1],[0.85],vertical,"(890.0, 262.0)",0.75,nan,0,1476.179,0,0.06,same
0,131,valid,"[(1099, 795)]",[],[1],[0.85],vertical,"(390.0, 762.0)",1.4166666666666667,nan,0,1480.931,0,0.06,same
0,132,valid,"[(1091, 842)]",[],[1],[0.6],vertical,"(890.0, 262.0)",0.4666666666666667,0.558,1,1722.38,1,0.06,same
0,133,valid,"[(1168, 816)]",[],[1],[0.85],vertical,"(890.0, 262.0)",1.4666666666666666,nan,0,1728.213,0,0.06,same
0,134,valid,"[(1126, 826)]",[],[1],[0.6833333333333333],vertical,"(390.0, 262.0)",0.6166666666666667,0.636,1,1733.359,1,0.04,same
0,135,catch,"[(1141, 815)]",[],[1],[],horizontal,"(890.0, 262.0)",1.7,nan,1,1738.088,1,0.04,same
0,136,catch,"[(1127, 822)]",[],[1],[],vertical,"(390.0, 262.0)",1.7,nan,1,1743.035,1,0.04,same
0,137,valid,"[(1145, 817)]",[],[1],[0.85],horizontal,"(890.0, 262.0)",0.7666666666666666,nan,0,1748.544,0,0.04,same
0,138,invalid_same_bar,"[(1098, 805)]",[],[1],[0.7166666666666667],vertical,"(390.0, 762.0)",1.3166666666666667,0.671,1,1752.894,1,0.04,same
0,139,catch,"[(1127, 821)]",[],[1],[],vertical,"(390.0, 262.0)",1.7,nan,1,1759.121,1,0.04,same
0,140,catch,"[(1163, 794)]",[],[1],[],horizontal,"(390.0, 262.0)",1.7,nan,1,1764.083,1,0.04,same
0,141,catch,"[(1140, 796)]",[],[1],[],vertical,"(390.0, 262.0)",,"('cti', 1.572),nan",0,1769.616,0,0.06,same
0,142,catch,"[(1146, 842)]",[],[1],[],horizontal,"(390.0, 262.0)",,"('cti', 1.419),nan",0,1774.331,0,0.08,same
0,143,catch,"[(1074, 866)]",[],[1],[],horizontal,"(890.0, 262.0)",1.7,nan,1,1950.399,1,0.08,same
0,144,valid,"[(1135, 785)]",[],[1],[0.5166666666666666],vertical,"(390.0, 762.0)",0.6666666666666666,0.472,1,1957.44,1,0.08,same
0,145,valid,"[(1163, 817)]",[],[1],[0.5666666666666667],horizontal,"(390.0, 262.0)",0.4,0.528,1,1962.069,1,0.08,same
0,146,catch,"[(1159, 796)]",[],[1],[],horizontal,"(890.0, 262.0)",1.7,nan,1,1966.492,2,0.08,same
0,147,valid,"[(1153, 791)]",[],[1],[0.7166666666666667],vertical,"(890.0, 762.0)",0.6833333333333333,0.668,1,1971.823,2,0.08,same
0,148,catch,"[(1162, 792)]",[],[1],[],vertical,"(890.0, 262.0)",,"('cti', 1.575),nan",0,1976.783,0,0.1,same
0,149,valid,"[(1147, 783)]",[],[1],[0.6],horizontal,"(390.0, 262.0)",1.35,0.56,1,1981.516,1,0.1,same
0,150,catch,"[(1140, 795)]",[],[1],[],horizontal,"(890.0, 262.0)",1.7,nan,1,1986.729,1,0.1,same
0,151,valid,"[(1135, 791)]",[],[1],[0.3333333333333333],horizontal,"(890.0, 262.0)",0.9166666666666666,0.296,1,1991.69,1,0.1,same
0,152,valid,"[(1149, 795)]",[],[1],[0.2833333333333333],horizontal,"(890.0, 262.0)",1.4166666666666667,0.251,1,1996.366,2,0.1,same
0,153,valid,"[(1160, 792)]",[],[1],[0.5166666666666666],vertical,"(390.0, 762.0)",0.7333333333333333,0.476,1,2001.732,2,0.1,same
0,154,valid,"[(1166, 827)]",[],[1],[0.43333333333333335],horizontal,"(890.0, 262.0)",1.4333333333333333,0.394,1,2006.436,2,0.1,same
0,155,valid,"[(1168, 795)]",[],[1],[0.85],vertical,"(390.0, 262.0)",0.5333333333333333,nan,0,2012.529,0,0.1,same
0,156,valid,"[(1140, 791)]",[],[1],[0.43333333333333335],horizontal,"(390.0, 762.0)",1.4833333333333334,0.39,1,2017.034,1,0.1,same
0,157,invalid_adjacent_other_bar,"[(1172, 773)]",[],[1],[0.48333333333333334],horizontal,"(390.0, 762.0)",1.15,0.442,1,2022.283,1,0.1,other
0,158,valid,"[(1167, 793)]",[],[1],[0.6166666666666667],horizontal,"(890.0, 762.0)",1.2,0.572,1,2027.235,1,0.1,same
0,159,invalid_adjacent_other_bar,"[(1155, 778)]",[],[1],[0.4666666666666667],horizontal,"(390.0, 762.0)",0.4666666666666667,0.425,1,2032.084,2,0.1,other
0,160,valid,"[(1169, 796)]",[],[1],[0.5833333333333334],horizontal,"(390.0, 762.0)",1.3333333333333333,0.543,1,2037.259,2,0.1,same
0,161,valid,"[(1162, 782)]",[],[1],[0.85],horizontal,"(890.0, 762.0)",1.1166666666666667,nan,0,2042.821,0,0.1,same
0,162,catch,"[(1161, 786)]",[],[1],[],horizontal,"(390.0, 762.0)",1.7,nan,1,2047.654,1,0.1,same
0,163,valid,"[(1156, 787)]",[],[1],[0.4666666666666667],horizontal,"(890.0, 762.0)",0.5833333333333334,0.427,1,2052.648,1,0.1,same
0,164,catch,"[(1167, 777)]",[],[1],[],vertical,"(390.0, 762.0)",1.7,nan,1,2056.989,1,0.1,same
0,165,invalid_adjacent_other_bar,"[(1072, 819)]",[],[1],[0.5666666666666667],vertical,"(390.0, 762.0)",0.9666666666666667,0.523,1,2062.216,2,0.1,other
0,166,catch,"[(1174, 816)]",[],[1],[],vertical,"(890.0, 762.0)",1.7,nan,1,2067.701,2,0.1,same
0,167,valid,"[(1170, 800)]",[],[1],[0.4666666666666667],horizontal,"(390.0, 762.0)",0.48333333333333334,0.424,1,2072.9,2,0.1,same
0,168,valid,"[(1168, 794)]",[],[1],[0.85],vertical,"(890.0, 762.0)",0.6833333333333333,nan,0,2077.966,0,0.08,same
0,169,valid,"[(1162, 784)]",[],[1],[0.4666666666666667],horizontal,"(890.0, 762.0)",0.9833333333333333,0.427,1,2082.599,1,0.08,same
0,170,valid,"[(1172, 782)]",[],[1],[0.6],vertical,"(890.0, 762.0)",0.45,0.552,1,2087.733,1,0.08,same
0,171,catch,"[(1144, 784)]",[],[1],[],horizontal,"(390.0, 762.0)",1.7,nan,1,2091.917,1,0.08,same
0,172,valid,"[(1140, 773)]",[],[1],[0.55],horizontal,"(890.0, 762.0)",0.55,0.514,1,2097.55,2,0.08,same
0,173,catch,"[(1170, 791)]",[],[1],[],vertical,"(890.0, 262.0)",1.7,nan,1,2102.429,2,0.08,same
0,174,valid,"[(1180, 806)]",[],[1],[0.4666666666666667],vertical,"(390.0, 262.0)",0.5,0.425,1,2107.667,2,0.08,same
0,175,valid,"[(1171, 811)]",[],[1],[0.6833333333333333],horizontal,"(390.0, 762.0)",0.7166666666666667,0.639,1,2112.584,2,0.08,same
0,176,valid,"[(1165, 794)]",[],[1],[0.6666666666666666],horizontal,"(390.0, 262.0)",1.1166666666666667,0.626,1,2118.137,3,0.08,same
0,177,valid,"[(1166, 778)]",[],[1],[0.48333333333333334],horizontal,"(390.0, 762.0)",1.4333333333333333,0.442,1,2124.187,3,0.06,same
0,178,valid,"[(1174, 783)]",[],[1],[0.6333333333333333],vertical,"(390.0, 762.0)",0.36666666666666664,0.586,1,2130.315,3,0.06,same
0,179,invalid_same_bar,"[(1141, 781)]",[],[1],[0.4666666666666667],vertical,"(890.0, 262.0)",1.3,0.424,1,2135.676,3,0.06,same
0,180,invalid_adjacent_other_bar,"[(1170, 775)]",[],[1],[0.85],vertical,"(390.0, 762.0)",1.1833333333333333,nan,0,2141.25,0,0.06,other
0,181,invalid_same_bar,"[(1168, 800)]",[],[1],[0.55],horizontal,"(390.0, 762.0)",0.5166666666666666,0.518,1,2146.286,1,0.06,same
0,182,valid,"[(1178, 779)]",[],[1],[0.45],vertical,"(890.0, 762.0)",1.4833333333333334,0.418,1,2150.81,1,0.06,same
0,183,catch,"[(1162, 789)]",[],[1],[],horizontal,"(390.0, 762.0)",1.7,nan,1,2156.079,1,0.06,same
0,184,valid,"[(1140, 791)]",[],[1],[0.45],horizontal,"(390.0, 262.0)",1.3,0.408,1,2161.316,2,0.06,same
0,185,valid,"[(1158, 794)]",[],[1],[0.45],vertical,"(390.0, 762.0)",0.75,0.412,1,2166.683,2,0.06,same
0,186,catch,"[(1141, 796)]",[],[1],[],vertical,"(890.0, 762.0)",1.7,nan,1,2171.571,2,0.06,same
0,187,valid,"[(1170, 777)]",[],[1],[0.6166666666666667],horizontal,"(390.0, 262.0)",1.2,0.572,1,2176.929,2,0.06,same
0,188,invalid_same_bar,"[(1165, 797)]",[],[1],[0.55],vertical,"(890.0, 262.0)",1.0666666666666667,0.508,1,2183.085,3,0.06,same
0,189,valid,"[(1150, 796)]",[],[1],[0.48333333333333334],vertical,"(390.0, 262.0)",0.9,0.445,1,2189.176,3,0.06,same
0,190,valid,"[(1140, 795)]",[],[1],[0.55],horizontal,"(890.0, 762.0)",1.3166666666666667,0.507,1,2194.829,3,0.06,same
0,191,catch,"[(1115, 785)]",[],[1],[],vertical,"(890.0, 262.0)",1.7,"('cti', 1.681),nan",0,2200.895,0,0.06,same
0,192,valid,"[(1157, 792)]",[],[1],[],vertical,"(390.0, 262.0)",,"('cti', 0.916)",0,2205.775,0,0.04,same
0,193,valid,"[(1089, 815)]",[],[1],[0.55],vertical,"(890.0, 762.0)",0.8833333333333333,0.505,1,2209.651,1,0.04,same
0,194,catch,"[(1135, 795)]",[],[1],[],horizontal,"(390.0, 762.0)",1.7,nan,1,2237.101,1,0.04,same
0,195,valid,"[(1137, 761)]",[],[1],[0.55],vertical,"(390.0, 762.0)",0.45,0.509,1,2242.529,1,0.04,same
0,196,valid,"[(1156, 791)]",[],[1],[0.5166666666666666],horizontal,"(890.0, 762.0)",1.4833333333333334,0.475,1,2247.017,2,0.04,same
0,197,catch,"[(1165, 800)]",[],[1],[],vertical,"(890.0, 762.0)",1.7,nan,1,2253.3,2,0.04,same
0,198,catch,"[(1154, 812)]",[],[1],[],vertical,"(390.0, 262.0)",1.7,nan,1,2259.268,2,0.02,same
0,199,valid,"[(1157, 811)]",[],[1],[0.48333333333333334],vertical,"(890.0, 762.0)",1.3333333333333333,0.44,1,2265.1,2,0.02,same
0,200,invalid_same_bar,"[(1142, 815)]",[],[1],[0.5333333333333333],vertical,"(890.0, 262.0)",0.3833333333333333,0.495,1,2270.733,3,0.02,same
0,201,valid,"[(1125, 800)]",[],[1],[0.5666666666666667],vertical,"(890.0, 762.0)",0.75,0.523,1,2276.0,3,0.02,same
0,202,catch,"[(1180, 809)]",[],[1],[],vertical,"(890.0, 762.0)",1.7,nan,1,2281.468,3,0.02,same
0,203,valid,"[(1161, 795)]",[],[1],[0.6333333333333333],horizontal,"(890.0, 262.0)",0.5,0.582,1,2287.018,3,0.02,same
0,204,valid,"[(1175, 799)]",[],[1],[0.7],vertical,"(890.0, 262.0)",0.8666666666666667,0.659,1,2292.522,3,0.02,same
0,205,valid,"[(1169, 801)]",[],[1],[0.85],horizontal,"(890.0, 762.0)",0.7666666666666666,nan,0,2298.4,0,0.02,same
0,206,valid,"[(1076, 796)]",[],[1],[0.5833333333333334],vertical,"(390.0, 762.0)",0.5333333333333333,0.54,1,2302.873,1,0.02,same
0,207,catch,"[(1132, 811)]",[],[1],[],horizontal,"(890.0, 262.0)",1.7,nan,1,2320.739,1,0.02,same
0,208,valid,"[(1144, 814)]",[],[1],[0.5666666666666667],vertical,"(890.0, 262.0)",1.5333333333333332,0.533,1,2326.09,1,0.02,same
0,209,valid,"[(1137, 808)]",[],[1],[0.5833333333333334],horizontal,"(390.0, 262.0)",1.2166666666666666,0.544,1,2331.509,2,0.02,same
0,210,valid,"[(1146, 772)]",[],[1],[0.7],vertical,"(890.0, 262.0)",1.4166666666666667,0.652,1,2336.8,2,0.02,same
0,211,valid,"[(1126, 808)]",[],[1],[0.7166666666666667],vertical,"(390.0, 762.0)",1.15,0.669,1,2342.368,2,0.02,same
0,212,invalid_adjacent_other_bar,"[(1168, 793)]",[],[1],[0.5333333333333333],horizontal,"(890.0, 762.0)",0.55,0.492,1,2348.25,2,0.02,other
0,213,catch,"[(1145, 806)]",[],[1],[],vertical,"(390.0, 262.0)",1.7,nan,1,2353.312,3,0.02,same
0,214,valid,"[(1153, 804)]",[],[1],[0.5],horizontal,"(890.0, 762.0)",0.5833333333333334,0.456,1,2359.182,3,0.02,same
0,215,valid,"[(1165, 803)]",[],[1],[0.6],horizontal,"(890.0, 762.0)",0.9,0.555,1,2364.072,3,0.02,same
0,216,valid,"[(1167, 784)]",[],[1],[0.5666666666666667],vertical,"(390.0, 762.0)",0.4666666666666667,0.527,1,2369.739,3,0.02,same
0,217,invalid_adjacent_other_bar,"[(1165, 794)]",[],[1],[0.65],horizontal,"(390.0, 262.0)",1.0166666666666666,0.609,1,2375.284,3,0.02,other
0,218,valid,"[(1162, 783)]",[],[1],[0.6],vertical,"(890.0, 262.0)",0.6,0.562,1,2381.336,3,0.02,same
0,219,catch,"[(1163, 809)]",[],[1],[],vertical,"(390.0, 262.0)",1.7,nan,1,2386.885,3,0.02,same
0,220,catch,"[(1170, 800)]",[],[1],[],horizontal,"(390.0, 762.0)",1.7,nan,1,2392.831,3,0.02,same
0,221,valid,"[(1135, 789)]",[],[1],[0.5166666666666666],horizontal,"(890.0, 762.0)",0.4166666666666667,0.48,1,2398.768,3,0.02,same
0,222,invalid_same_bar,"[(1164, 791)]",[],[1],[0.6166666666666667],horizontal,"(890.0, 262.0)",1.4666666666666666,0.573,1,2403.951,3,0.02,same
0,223,catch,"[(1165, 781)]",[],[1],[],vertical,"(390.0, 262.0)",1.7,nan,1,2410.111,3,0.02,same
0,224,catch,"[(1120, 803)]",[],[1],[],vertical,"(390.0, 262.0)",1.7,nan,1,2415.936,3,0.02,same
0,225,valid,"[(1165, 801)]",[],[1],[0.4666666666666667],vertical,"(390.0, 762.0)",0.36666666666666664,0.428,1,2421.706,3,0.02,same
0,226,valid,"[(1160, 796)]",[],[1],[0.85],vertical,"(890.0, 262.0)",1.5,nan,0,2426.517,0,0.02,same
0,227,valid,"[(1156, 797)]",[],[1],[0.85],horizontal,"(890.0, 262.0)",1.2666666666666666,nan,0,2431.794,0,0.02,same
0,228,valid,"[(1102, 846)]",[],[1],[0.5],vertical,"(390.0, 262.0)",0.48333333333333334,0.458,1,2437.135,1,0.02,same
0,229,valid,"[(1192, 819)]",[],[1],[0.45],horizontal,"(390.0, 262.0)",1.3166666666666667,0.41,1,2501.856,1,0.02,same
0,230,valid,"[(1160, 802)]",[],[1],[0.55],vertical,"(390.0, 262.0)",1.0333333333333332,0.513,1,2507.285,1,0.02,same
0,231,invalid_same_bar,"[(1142, 791)]",[],[1],[0.85],vertical,"(390.0, 262.0)",0.9666666666666667,nan,0,2512.652,0,0.02,same
0,232,invalid_adjacent_other_bar,"[(1167, 785)]",[],[1],[0.5],horizontal,"(890.0, 262.0)",1.1833333333333333,0.461,1,2517.703,1,0.02,other
0,233,valid,"[(1164, 802)]",[],[1],[0.55],horizontal,"(390.0, 262.0)",0.48333333333333334,0.514,1,2522.935,1,0.02,same
0,234,catch,"[(1133, 803)]","[(1134, 825)]",[1],[0.25],vertical,"(390.0, 762.0)",,"('bar', 0.263),nan",0,2527.684,0,0.04,same
0,235,valid,"[(1094, 824)]",[],[1],[0.5333333333333333],vertical,"(890.0, 762.0)",0.5166666666666666,0.491,1,2530.029,1,0.04,same
0,236,invalid_same_bar,"[(1195, 796)]",[],[1],[0.5166666666666666],horizontal,"(390.0, 762.0)",0.4166666666666667,0.477,1,2534.572,1,0.04,same
0,237,valid,"[(1161, 797)]",[],[1],[0.6],horizontal,"(390.0, 262.0)",1.25,0.56,1,2538.768,1,0.04,same
0,238,invalid_adjacent_other_bar,"[(1171, 802)]",[],[1],[0.5666666666666667],horizontal,"(890.0, 762.0)",1.4166666666666667,0.525,1,2543.936,2,0.04,other
0,239,invalid_adjacent_other_bar,"[(1163, 795)]",[],[1],[0.5166666666666666],horizontal,"(390.0, 262.0)",1.2666666666666666,0.476,1,2549.484,2,0.04,other
0,240,invalid_same_bar,"[(1162, 798)]",[],[1],[0.5],horizontal,"(390.0, 762.0)",0.5,0.458,1,2555.239,2,0.04,same
0,241,valid,"[(1164, 795)]",[],[1],[0.5666666666666667],horizontal,"(890.0, 262.0)",0.9166666666666666,0.528,1,2560.202,2,0.02,same
0,242,valid,"[(1160, 806)]",[],[1],[0.2],horizontal,"(890.0, 762.0)",1.5,0.172,0,2565.866,0,0.02,same
0,243,valid,"[(1157, 791)]",[],[1],[0.55],vertical,"(890.0, 762.0)",0.4666666666666667,0.509,1,2570.303,1,0.02,same
0,244,catch,"[(1165, 795)]",[],[1],[],horizontal,"(390.0, 762.0)",,"('cti', 1.583),nan",0,2574.648,0,0.04,same
0,245,valid,"[(1160, 816)]",[],[1],[0.5],horizontal,"(390.0, 262.0)",0.4,0.461,1,2579.035,1,0.04,same
0,246,valid,"[(1175, 803)]",[],[1],[0.6166666666666667],horizontal,"(390.0, 762.0)",1.1,0.571,1,2583.675,1,0.04,same
0,247,valid,"[(1166, 786)]",[],[1],[0.4666666666666667],vertical,"(890.0, 262.0)",1.2666666666666666,0.423,1,2588.891,1,0.04,same
0,248,valid,"[(1150, 801)]",[],[1],[0.6],vertical,"(390.0, 262.0)",0.95,0.568,1,2594.431,2,0.04,same
0,249,catch,"[(1168, 788)]",[],[1],[],vertical,"(890.0, 262.0)",1.7,nan,1,2599.781,2,0.04,same
0,250,valid,"[(1180, 796)]",[],[1],[0.6166666666666667],horizontal,"(390.0, 762.0)",0.7833333333333333,0.576,1,2605.224,2,0.04,same
0,251,valid,"[(1146, 802)]",[],[1],[0.45],horizontal,"(890.0, 262.0)",0.45,0.406,1,2610.651,2,0.04,same
0,252,valid,"[(1138, 809)]",[],[1],[0.48333333333333334],horizontal,"(890.0, 262.0)",0.9,0.446,1,2615.168,3,0.04,same
0,253,valid,"[(1171, 790)]",[],[1],[0.4666666666666667],horizontal,"(890.0, 262.0)",1.4666666666666666,0.425,1,2620.974,3,0.04,same
0,254,valid,"[(1137, 792)]",[],[1],[0.6666666666666666],horizontal,"(890.0, 762.0)",0.85,0.622,1,2627.026,3,0.04,same
0,255,catch,"[(1140, 795)]",[],[1],[],horizontal,"(390.0, 762.0)",1.7,nan,1,2632.637,3,0.04,same
0,256,catch,"[(1168, 791)]",[],[1],[],vertical,"(390.0, 762.0)",1.7,nan,1,2638.151,3,0.04,same
0,257,valid,"[(1167, 786)]",[],[1],[0.5333333333333333],vertical,"(390.0, 262.0)",1.1,0.491,1,2643.829,3,0.04,same
0,258,valid,"[(1174, 774)]",[],[1],[0.5],vertical,"(890.0, 762.0)",0.9333333333333333,0.46,1,2649.25,3,0.04,same
0,259,valid,"[(1132, 790)]",[],[1],[0.6166666666666667],horizontal,"(890.0, 762.0)",0.9666666666666667,0.577,1,2655.242,3,0.04,same
0,260,catch,"[(1165, 801)]",[],[1],[],horizontal,"(390.0, 762.0)",1.7,nan,1,2661.381,3,0.04,same
0,261,valid,"[(1173, 811)]",[],[1],[0.5],vertical,"(890.0, 262.0)",1.5333333333333332,0.458,1,2667.507,3,0.04,same
0,262,valid,"[(1165, 788)]",[],[1],[0.5333333333333333],vertical,"(390.0, 762.0)",1.0333333333333332,0.496,1,2673.535,3,0.04,same
0,263,invalid_adjacent_other_bar,"[(1169, 785)]",[],[1],[0.5],vertical,"(890.0, 762.0)",1.3833333333333333,0.457,1,2679.127,3,0.04,other
0,264,valid,"[(1165, 786)]",[],[1],[0.5166666666666666],horizontal,"(390.0, 262.0)",1.3666666666666667,0.474,1,2685.252,3,0.04,same
0,265,catch,"[(1125, 799)]",[],[1],[],vertical,"(890.0, 762.0)",1.7,nan,1,2691.657,3,0.04,same
0,266,valid,"[(1161, 796)]",[],[1],[0.55],horizontal,"(890.0, 262.0)",0.3833333333333333,0.508,1,2698.153,3,0.04,same
0,267,catch,"[(1105, 849)]",[],[1],[],vertical,"(890.0, 262.0)",1.7,nan,1,2703.302,3,0.04,same
0,268,valid,"[(1152, 818)]",[],[1],[0.85],vertical,"(890.0, 262.0)",1.3166666666666667,nan,0,4579.026,0,0.04,same
0,269,valid,"[(1087, 794)]",[],[1],[0.35],vertical,"(890.0, 262.0)",1.4,0.317,1,4583.809,1,0.04,same
0,270,valid,"[(1128, 781)]",[],[1],[0.5666666666666667],horizontal,"(890.0, 762.0)",1.0833333333333333,0.529,1,4589.604,1,0.04,same
0,271,catch,"[(1129, 820)]",[],[1],[],horizontal,"(890.0, 762.0)",,"('cti', 1.374),nan",0,4594.735,0,0.06,same
0,272,catch,"[(1091, 776)]",[],[1],[],horizontal,"(890.0, 262.0)",1.7,nan,1,4599.677,1,0.06,same
0,273,valid,"[(1180, 803)]",[],[1],[0.5333333333333333],horizontal,"(890.0, 762.0)",1.4666666666666666,0.499,1,4604.77,1,0.06,same
0,274,valid,"[(1123, 787)]",[],[1],[0.7833333333333333],vertical,"(390.0, 762.0)",1.05,0.732,1,4610.528,1,0.06,same
0,275,valid,"[(1090, 755)]",[],[1],[0.7],vertical,"(890.0, 262.0)",0.7333333333333333,0.672,1,4616.356,2,0.06,same
0,276,valid,"[(1160, 809)]",[],[1],[0.85],vertical,"(390.0, 762.0)",1.2,nan,0,4621.961,0,0.06,same
0,277,invalid_same_bar,"[(1090, 762)]",[],[1],[0.5333333333333333],horizontal,"(890.0, 762.0)",1.2166666666666666,0.491,1,4627.309,1,0.06,same
0,278,valid,"[(1096, 825)]",[],[1],[0.6333333333333333],vertical,"(890.0, 762.0)",0.8166666666666667,0.601,1,4632.501,1,0.06,same
0,279,catch,"[(1131, 786)]",[],[1],[],vertical,"(890.0, 262.0)",1.7,nan,1,4637.901,1,0.06,same
0,280,valid,"[(1166, 803)]",[],[1],[0.18333333333333332],vertical,"(890.0, 762.0)",1.45,0.149,0,4643.261,0,0.06,same
0,281,valid,"[(1095, 784)]",[],[1],[0.6],vertical,"(890.0, 262.0)",1.4,0.567,1,4647.711,1,0.06,same
0,282,valid,"[(1189, 777)]",[],[1],[0.7166666666666667],vertical,"(390.0, 762.0)",1.3166666666666667,0.672,1,4653.532,1,0.06,same
0,283,valid,"[(1156, 783)]",[],[1],[0.85],horizontal,"(390.0, 762.0)",0.85,nan,0,4659.327,0,0.06,same
0,284,valid,"[(1108, 814)]",[],[1],[0.7666666666666666],vertical,"(890.0, 762.0)",1.2833333333333332,0.731,1,4663.843,1,0.04,same
0,285,catch,"[(1116, 844)]",[],[1],[],horizontal,"(890.0, 762.0)",1.7,nan,1,4670.243,1,0.04,same
0,286,valid,"[(1170, 781)]",[],[1],[0.85],horizontal,"(390.0, 762.0)",1.1333333333333333,nan,0,4676.134,0,0.04,same
0,287,catch,"[(1130, 802)]",[],[1],[],horizontal,"(890.0, 262.0)",1.7,nan,1,4681.076,1,0.04,same
0,288,valid,"[(1133, 790)]",[],[1],[0.5333333333333333],horizontal,"(390.0, 762.0)",0.7333333333333333,0.499,1,4686.926,1,0.04,same
0,289,valid,"[(1125, 808)]",[],[1],[0.55],horizontal,"(390.0, 262.0)",0.35,0.506,1,4692.787,1,0.04,same
0,290,valid,"[(1160, 791)]",[],[1],[0.8333333333333334],horizontal,"(890.0, 262.0)",1.1166666666666667,0.8,1,4697.419,2,0.04,same
0,291,catch,"[(1165, 788)]",[],[1],[],horizontal,"(390.0, 262.0)",1.7,nan,1,4703.541,2,0.04,same
0,292,valid,"[(1163, 801)]",[],[1],[0.5],vertical,"(890.0, 762.0)",1.45,0.461,1,4709.431,2,0.04,same
0,293,valid,"[(1148, 807)]",[],[1],[0.5],vertical,"(890.0, 262.0)",0.5166666666666666,0.455,1,4715.56,2,0.04,same
0,294,valid,"[(1160, 803)]",[],[1],[0.55],vertical,"(890.0, 262.0)",0.48333333333333334,0.514,1,4720.5,3,0.02,same
0,295,catch,"[(1155, 782)]",[],[1],[],horizontal,"(890.0, 762.0)",1.7,nan,1,4726.285,3,0.02,same
0,296,valid,"[(1164, 797)]",[],[1],[0.65],horizontal,"(890.0, 762.0)",1.2333333333333334,0.61,1,4732.177,3,0.02,same
0,297,valid,"[(1160, 802)]",[],[1],[0.6666666666666666],horizontal,"(390.0, 262.0)",0.4166666666666667,0.625,1,4738.376,3,0.02,same
0,298,catch,"[(1132, 803)]",[],[1],[],vertical,"(890.0, 262.0)",1.7,nan,1,4743.929,3,0.02,same
0,299,invalid_same_bar,"[(1140, 804)]",[],[1],[0.5166666666666666],vertical,"(390.0, 262.0)",1.1166666666666667,0.475,1,4750.11,3,0.02,same
0,300,catch,"[(1162, 799)]",[],[1],[],vertical,"(390.0, 762.0)",1.7,nan,1,4755.676,3,0.02,same
0,301,valid,"[(1165, 806)]",[],[1],[0.6833333333333333],horizontal,"(390.0, 262.0)",1.4333333333333333,0.643,1,4761.893,3,0.02,same
0,302,valid,"[(1165, 792)]",[],[1],[0.5166666666666666],vertical,"(390.0, 762.0)",0.3833333333333333,0.475,1,4768.443,3,0.02,same
0,303,catch,"[(1165, 801)]",[],[1],[],vertical,"(890.0, 762.0)",1.7,nan,1,4773.775,3,0.02,same
0,304,invalid_same_bar,"[(1163, 814)]",[],[1],[0.4666666666666667],horizontal,"(890.0, 262.0)",0.6833333333333333,0.431,1,4779.571,3,0.02,same
0,305,valid,"[(1170, 788)]",[],[1],[0.85],horizontal,"(890.0, 262.0)",0.9666666666666667,nan,0,4784.766,0,0.02,same
0,306,valid,"[(1091, 816)]",[],[1],[0.6166666666666667],vertical,"(890.0, 262.0)",0.8666666666666667,0.585,1,4789.41,1,0.02,same
0,307,valid,"[(1130, 776)]",[],[1],[0.6166666666666667],vertical,"(890.0, 262.0)",0.6166666666666667,0.579,1,4794.917,1,0.02,same
0,308,invalid_adjacent_other_bar,"[(1150, 794)]",[],[1],[0.55],vertical,"(390.0, 262.0)",0.7166666666666667,0.506,1,4799.327,1,0.02,other
0,309,valid,"[(1163, 752), (1120, 791)]",[],"[0, 1]",[0.8333333333333334],vertical,"(890.0, 262.0)",1.25,0.787,1,4804.26,2,0.02,same
0,310,valid,"[(1170, 782)]",[],[1],[0.85],horizontal,"(390.0, 762.0)",1.4,nan,0,4810.693,0,0.02,same
0,311,valid,"[(1159, 761)]",[],[1],[0.5833333333333334],vertical,"(390.0, 262.0)",0.5166666666666666,0.544,1,4815.966,1,0.02,same
0,312,catch,"[(1169, 781)]",[],[1],[],vertical,"(890.0, 762.0)",1.7,nan,1,4820.79,1,0.02,same
0,313,valid,"[(1155, 786)]",[],[1],[0.6666666666666666],vertical,"(890.0, 762.0)",1.4333333333333333,0.635,1,4826.328,1,0.02,same
0,314,valid,"[(1169, 781)]",[],[1],[0.5666666666666667],horizontal,"(890.0, 762.0)",1.2833333333333332,0.527,1,4831.997,2,0.02,same
0,315,catch,"[(1169, 786)]",[],[1],[],vertical,"(890.0, 762.0)",1.7,nan,1,4838.045,2,0.02,same
0,316,catch,"[(1167, 811)]",[],[1],[],horizontal,"(390.0, 262.0)",1.7,nan,1,4843.31,2,0.02,same
0,317,valid,"[(1173, 811)]",[],[1],[0.5166666666666666],vertical,"(390.0, 762.0)",1.05,0.473,1,4848.62,2,0.02,same
0,318,valid,"[(1175, 805)]",[],[1],[0.5666666666666667],vertical,"(890.0, 762.0)",0.7166666666666667,0.525,1,4853.823,3,0.02,same
0,319,valid,"[(1166, 777)]",[],[1],[0.6166666666666667],horizontal,"(390.0, 262.0)",1.0833333333333333,0.574,1,4859.866,3,0.02,same
0,320,invalid_adjacent_other_bar,"[(1160, 776)]",[],[1],[0.6333333333333333],vertical,"(390.0, 262.0)",1.2166666666666666,0.591,1,4866.065,3,0.02,other
0,321,valid,"[(1166, 779)]",[],[1],[0.5666666666666667],vertical,"(890.0, 762.0)",0.36666666666666664,0.533,1,4871.895,3,0.0,same
0,322,catch,"[(1170, 779)]",[],[1],[],horizontal,"(390.0, 262.0)",1.7,nan,1,4876.752,3,0.0,same
0,323,catch,"[(1166, 815)]",[],[1],[],vertical,"(890.0, 262.0)",1.7,nan,1,4882.827,3,0.0,same
0,324,valid,"[(1161, 807)]",[],[1],[0.6833333333333333],horizontal,"(890.0, 762.0)",0.7333333333333333,0.644,1,4889.185,3,0.0,same
0,325,catch,"[(1170, 800)]",[],[1],[],horizontal,"(890.0, 262.0)",1.7,nan,1,4894.627,3,0.0,same
0,326,valid,"[(1169, 788)]",[],[1],[0.7],horizontal,"(390.0, 262.0)",1.2333333333333334,0.656,1,4900.759,3,0.0,same
0,327,catch,"[(1172, 792)]",[],[1],[],vertical,"(890.0, 762.0)",1.7,nan,1,4906.58,3,0.0,same
0,328,valid,"[(1170, 782)]",[],[1],[0.6666666666666666],vertical,"(890.0, 762.0)",0.4166666666666667,0.626,1,4912.878,3,0.0,same
0,329,valid,"[(1163, 795)]",[],[1],[],vertical,"(890.0, 762.0)",,"('cti', 0.59)",0,4918.113,0,0.0,same
0,330,valid,"[(1125, 800)]",[],[1],[0.85],horizontal,"(890.0, 762.0)",1.2666666666666666,nan,0,4922.059,0,0.0,same
0,331,valid,"[(1125, 794)]",[],[1],[0.85],vertical,"(390.0, 262.0)",1.2166666666666666,nan,0,4927.027,0,0.0,same
0,332,valid,"[(1120, 783)]",[],[1],[0.5833333333333334],horizontal,"(890.0, 762.0)",0.7166666666666667,0.548,1,4932.422,1,0.0,same
0,333,valid,"[(1140, 790)]",[],[1],[0.6166666666666667],vertical,"(890.0, 262.0)",0.95,0.573,1,4938.156,1,0.0,same
0,334,valid,"[(1165, 778)]",[],[1],[0.7666666666666666],horizontal,"(890.0, 262.0)",0.5166666666666666,0.729,1,4943.275,1,0.0,same
0,335,catch,"[(1167, 789)]",[],[1],[],vertical,"(890.0, 762.0)",1.7,nan,1,4948.02,2,0.0,same
0,336,valid,"[(1165, 777)]",[],[1],[0.5666666666666667],vertical,"(390.0, 762.0)",1.0333333333333332,0.523,1,4953.359,2,0.0,same
0,337,catch,"[(1170, 775)]",[],[1],[],vertical,"(890.0, 262.0)",1.7,nan,1,4958.495,2,0.0,same
0,338,valid,"[(1165, 806)]",[],[1],[0.85],horizontal,"(890.0, 762.0)",1.3,nan,0,4963.937,0,0.0,same
0,339,catch,"[(1152, 795)]",[],[1],[],vertical,"(390.0, 262.0)",1.7,nan,1,4969.295,1,0.0,same
0,340,valid,"[(1160, 791)]",[],[1],[0.55],horizontal,"(890.0, 762.0)",0.5166666666666666,0.51,1,4974.935,1,0.0,same
0,341,invalid_adjacent_other_bar,"[(1165, 776)]",[],[1],"[0.85, 0.85]",horizontal,"(390.0, 262.0)",1.4333333333333333,"0.805,nan",0,4979.278,0,0.0,other
0,342,catch,"[(1131, 784)]",[],[1],[],horizontal,"(390.0, 762.0)",1.7,nan,1,4984.661,1,0.0,same
0,343,valid,"[(1146, 779)]",[],[1],[0.7333333333333333],vertical,"(890.0, 262.0)",1.35,0.691,1,4989.545,1,0.0,same
0,344,valid,"[(1169, 790)]",[],[1],[0.6833333333333333],vertical,"(890.0, 262.0)",0.6666666666666666,0.646,1,4994.942,1,0.0,same
0,345,valid,"[(1170, 786)]",[],[1],[0.7166666666666667],vertical,"(390.0, 262.0)",0.35,0.672,1,4999.263,2,0.0,same
0,346,valid,"[(1165, 765)]",[],[1],[0.6833333333333333],horizontal,"(390.0, 762.0)",0.4,0.645,1,5004.062,2,0.0,same
0,347,valid,"[(1165, 793)]",[],[1],[0.5333333333333333],horizontal,"(390.0, 262.0)",0.7,0.495,1,5008.628,2,0.0,same
0,348,invalid_adjacent_other_bar,"[(1155, 803)]",[],[1],[0.5666666666666667],horizontal,"(390.0, 262.0)",1.25,0.527,1,5013.911,2,0.0,other
0,349,valid,"[(1130, 823)]",[],[1],[0.55],vertical,"(890.0, 262.0)",0.55,0.509,1,5019.621,3,0.0,same
0,350,valid,"[(1169, 801)]",[],[1],[0.5333333333333333],horizontal,"(390.0, 762.0)",1.0,0.498,1,5025.578,3,0.0,same
0,351,valid,"[(1165, 801)]",[],[1],[0.55],horizontal,"(890.0, 762.0)",1.45,0.508,1,5031.444,3,0.0,same
0,352,valid,"[(1135, 796)]",[],[1],[0.85],horizontal,"(390.0, 762.0)",1.5,nan,0,5037.404,0,0.0,same
0,353,catch,"[(1136, 776)]",[],[1],[],vertical,"(890.0, 762.0)",1.7,nan,1,5042.811,1,0.0,same
0,354,valid,"[(1160, 801)]",[],[1],[],horizontal,"(890.0, 762.0)",,"('cti', 0.707)",0,5047.911,0,0.0,same
0,355,catch,"[(1135, 817)]",[],[1],[],vertical,"(890.0, 762.0)",1.7,nan,1,5051.471,1,0.0,same
0,356,invalid_adjacent_other_bar,"[(1170, 801)]",[],[1],[0.5833333333333334],vertical,"(890.0, 262.0)",0.43333333333333335,0.544,1,5057.849,1,0.0,other
0,357,valid,"[(1170, 789)]",[],[1],[0.5166666666666666],horizontal,"(890.0, 262.0)",0.4166666666666667,0.475,1,5062.645,1,0.0,same
0,358,valid,"[(1165, 783)]",[],[1],[0.5],horizontal,"(390.0, 762.0)",0.65,0.468,1,5066.911,2,0.0,same
0,359,valid,"[(1160, 803)]",[],[1],[0.6666666666666666],vertical,"(390.0, 262.0)",0.85,0.627,1,5071.993,2,0.0,same
0,360,catch,"[(1171, 796)]",[],[1],[],horizontal,"(890.0, 762.0)",1.7,nan,1,5077.294,2,0.0,same
0,361,valid,"[(1170, 787)]",[],[1],[0.55],horizontal,"(890.0, 762.0)",1.0,0.507,1,5083.361,2,0.0,same
0,362,invalid_same_bar,"[(1164, 797)]",[],[1],[0.6666666666666666],vertical,"(890.0, 262.0)",0.55,0.628,1,5088.662,3,0.0,same
0,363,valid,"[(1168, 797)]",[],[1],[0.6333333333333333],vertical,"(390.0, 762.0)",0.35,0.601,1,5093.842,3,0.0,same
0,364,catch,"[(1162, 798)]",[],[1],[],horizontal,"(890.0, 762.0)",1.7,nan,1,5098.997,3,0.0,same
0,365,valid,"[(1184, 801)]",[],[1],[0.5666666666666667],vertical,"(890.0, 262.0)",0.8666666666666667,0.531,1,5105.116,3,0.0,same
0,366,valid,"[(1170, 803)]",[],[1],[0.65],horizontal,"(390.0, 762.0)",0.6,0.602,1,5110.707,3,0.0,same
0,367,valid,"[(1173, 797)]",[],[1],[0.6],horizontal,"(390.0, 262.0)",1.1,0.563,1,5115.999,3,0.0,same
0,368,valid,"[(1170, 769)]",[],[1],[0.5166666666666666],horizontal,"(890.0, 262.0)",1.1333333333333333,0.478,1,5122.193,3,0.0,same
0,369,valid,"[(1165, 803)]",[],[1],[0.55],vertical,"(890.0, 762.0)",1.15,0.511,1,5128.329,3,0.0,same
0,370,valid,"[(1165, 801)]",[],[1],[0.5166666666666666],horizontal,"(390.0, 262.0)",1.3833333333333333,0.483,1,5134.33,3,0.0,same
0,371,invalid_adjacent_other_bar,"[(1179, 809)]",[],[1],[0.85],horizontal,"(390.0, 762.0)",0.6833333333333333,nan,0,5140.649,0,0.0,other
0,372,catch,"[(1107, 821)]",[],[1],[],vertical,"(890.0, 762.0)",1.7,nan,1,5145.138,1,0.0,same
0,373,valid,"[(1183, 799)]",[],[1],[0.85],horizontal,"(890.0, 262.0)",1.05,nan,0,5150.662,0,0.0,same
0,374,invalid_same_bar,"[(1134, 805)]",[],[1],[0.7],vertical,"(890.0, 762.0)",1.4166666666666667,0.662,1,5155.27,1,0.0,same
0,375,valid,"[(1163, 808)]",[],[1],[0.5166666666666666],horizontal,"(390.0, 262.0)",0.8333333333333334,0.475,1,5160.733,1,0.0,same
0,376,invalid_same_bar,"[(1143, 818)]",[],[1],[0.6333333333333333],horizontal,"(390.0, 762.0)",0.8666666666666667,0.597,1,5165.216,1,0.0,same
0,377,valid,"[(1160, 800)]",[],[1],[0.5666666666666667],horizontal,"(390.0, 262.0)",0.4166666666666667,0.53,1,5170.215,2,0.0,same
0,378,valid,"[(1145, 808)]",[],[1],[0.5],horizontal,"(890.0, 262.0)",1.45,0.458,1,5174.903,2,0.0,same
0,379,valid,"[(1162, 799)]",[],[1],[0.4],horizontal,"(890.0, 262.0)",1.5333333333333332,0.36,1,5180.861,2,0.0,same
0,380,valid,"[(1135, 789)]",[],[1],[0.6],vertical,"(890.0, 762.0)",0.4,0.562,1,5186.893,2,0.0,same
0,381,catch,"[(1143, 812)]",[],[1],[],horizontal,"(890.0, 762.0)",1.7,nan,1,5192.007,3,0.0,same
0,382,valid,"[(1166, 792)]",[],[1],[0.2833333333333333],vertical,"(890.0, 262.0)",1.3666666666666667,0.255,1,5198.173,3,0.0,same
0,383,valid,"[(1150, 800)]",[],[1],[0.5166666666666666],vertical,"(390.0, 262.0)",0.9666666666666667,0.478,1,5204.441,3,0.0,same
0,384,catch,"[(1163, 805)]",[],[1],[],horizontal,"(390.0, 262.0)",1.7,nan,1,5210.011,3,0.0,same
0,385,valid,"[(1160, 802)]",[],[1],[0.6],horizontal,"(890.0, 762.0)",1.2,0.562,1,5216.061,3,0.0,same
0,386,invalid_adjacent_other_bar,"[(1179, 815)]",[],[1],[0.5333333333333333],horizontal,"(390.0, 762.0)",1.45,0.494,1,5222.302,3,0.0,other
0,387,valid,"[(1155, 799)]",[],[1],[0.7166666666666667],vertical,"(390.0, 762.0)",1.5333333333333332,0.676,1,5228.511,3,0.0,same
0,388,invalid_same_bar,"[(1138, 802)]",[],[1],[0.7333333333333333],horizontal,"(390.0, 762.0)",0.8333333333333334,0.688,1,5234.86,3,0.0,same
0,389,catch,"[(1159, 795)]",[],[1],[],horizontal,"(890.0, 762.0)",1.7,nan,1,5240.796,3,0.0,same
0,390,invalid_adjacent_other_bar,"[(1150, 792)]",[],[1],[0.85],horizontal,"(890.0, 762.0)",1.35,nan,0,5247.296,0,0.0,other
0,391,valid,"[(1126, 779)]",[],[1],[0.6],horizontal,"(390.0, 762.0)",0.7,0.559,1,5252.613,1,0.0,same
0,392,valid,"[(1165, 807)]",[],[1],[0.6],horizontal,"(890.0, 762.0)",1.05,0.572,1,5257.328,1,0.0,same
0,393,invalid_adjacent_other_bar,"[(1125, 788)]",[],[1],[0.6166666666666667],horizontal,"(390.0, 762.0)",1.5,0.577,1,5262.68,1,0.0,other
0,394,valid,"[(1160, 795)]",[],[1],[0.5166666666666666],horizontal,"(890.0, 262.0)",1.0,0.479,1,5268.878,2,0.0,same
0,395,catch,"[(1160, 796)]",[],[1],[],vertical,"(890.0, 262.0)",1.7,nan,1,5274.81,2,0.0,same
0,396,valid,"[(1180, 784)]",[],[1],[0.6666666666666666],vertical,"(890.0, 262.0)",1.1333333333333333,0.625,1,5280.712,2,0.0,same
0,397,invalid_same_bar,"[(1137, 792)]",[],[1],[0.65],vertical,"(390.0, 762.0)",1.3833333333333333,0.611,1,5286.38,2,0.0,same
0,398,valid,"[(1146, 824)]",[],[1],[0.85],vertical,"(890.0, 762.0)",1.2,nan,0,5292.674,0,0.0,same
0,399,valid,"[(1155, 791)]",[],[1],[0.65],vertical,"(890.0, 762.0)",1.0333333333333332,0.613,1,5297.924,1,0.0,same
0,400,valid,"[(1137, 797)]",[],[1],[0.55],horizontal,"(890.0, 262.0)",1.4333333333333333,0.51,1,5303.085,1,0.0,same
0,401,valid,"[(1140, 822)]",[],[1],[0.6833333333333333],horizontal,"(390.0, 762.0)",1.3166666666666667,0.641,1,5308.845,1,0.0,same
0,402,valid,"[(1158, 781)]",[],[1],[0.85],horizontal,"(390.0, 762.0)",0.9166666666666666,nan,0,5314.029,0,0.0,same
0,403,valid,"[(1127, 785)]",[],[1],[0.5666666666666667],horizontal,"(390.0, 262.0)",1.1166666666666667,0.526,1,5318.762,1,0.0,same
0,404,valid,"[(1140, 799)]",[],[1],[0.5333333333333333],vertical,"(890.0, 762.0)",0.4166666666666667,0.495,1,5330.925,1,0.0,same
0,405,valid,"[(1165, 793)]",[],[1],[0.6],horizontal,"(390.0, 762.0)",0.7666666666666666,0.558,1,5334.982,1,0.0,same
0,406,valid,"[(1145, 794)]",[],[1],[0.6166666666666667],horizontal,"(890.0, 262.0)",1.2166666666666666,0.575,1,5339.945,2,0.0,same
0,407,valid,"[(1158, 779)]",[],[1],[0.55],horizontal,"(890.0, 262.0)",0.5666666666666667,0.514,1,5345.646,2,0.0,same
0,408,valid,"[(1160, 799)]",[],[1],[0.6166666666666667],horizontal,"(390.0, 262.0)",1.4166666666666667,0.583,1,5350.913,2,0.0,same
0,409,invalid_adjacent_other_bar,"[(1155, 786)]",[],[1],[0.5666666666666667],vertical,"(890.0, 262.0)",1.5,0.524,1,5356.922,2,0.0,other
0,410,valid,"[(1162, 820)]",[],[1],[0.5],horizontal,"(890.0, 262.0)",0.7166666666666667,0.464,1,5363.085,3,0.0,same
0,411,catch,"[(1154, 788)]",[],[1],[],horizontal,"(390.0, 262.0)",1.7,nan,1,5368.435,3,0.0,same
0,412,valid,"[(1137, 795)]",[],[1],[0.6666666666666666],horizontal,"(390.0, 762.0)",0.75,0.623,1,5374.452,3,0.0,same
0,413,catch,"[(1162, 787)]",[],[1],[],vertical,"(390.0, 262.0)",1.7,nan,1,5379.944,3,0.0,same
0,414,valid,"[(1155, 827)]",[],[1],[0.6],vertical,"(390.0, 762.0)",0.75,0.554,1,5386.145,3,0.0,same
0,415,valid,"[(1160, 796)]",[],[1],[0.55],horizontal,"(890.0, 762.0)",1.3,0.509,1,5391.68,3,0.0,same
0,416,valid,"[(1163, 798)]",[],[1],[0.55],horizontal,"(390.0, 762.0)",0.45,0.512,1,5398.03,3,0.0,same
0,417,invalid_adjacent_other_bar,"[(1156, 810)]",[],[1],[0.85],horizontal,"(890.0, 762.0)",0.5,nan,0,5403.361,0,0.0,other
0,418,catch,"[(1135, 790)]",[],[1],[],vertical,"(890.0, 762.0)",1.7,nan,1,5407.647,1,0.0,same
0,419,catch,"[(1154, 781)]",[],[1],[],vertical,"(390.0, 762.0)",1.7,nan,1,5412.936,1,0.0,same
0,420,valid,"[(1163, 793)]",[],[1],[0.6166666666666667],horizontal,"(890.0, 262.0)",1.1833333333333333,0.572,1,5417.95,1,0.0,same
0,421,valid,"[(1150, 795)]",[],[1],[0.5666666666666667],vertical,"(890.0, 762.0)",1.0666666666666667,0.525,1,5423.329,2,0.0,same
0,422,valid,"[(1165, 786)]",[],[1],[0.55],horizontal,"(390.0, 762.0)",1.1,0.506,1,5429.112,2,0.0,same
0,423,valid,"[(1165, 782)]",[],[1],[0.5166666666666666],horizontal,"(890.0, 262.0)",1.4333333333333333,0.474,1,5435.08,2,0.0,same
0,424,invalid_same_bar,"[(1162, 816)]",[],[1],[0.7333333333333333],vertical,"(890.0, 762.0)",0.36666666666666664,0.686,1,5441.133,2,0.0,same
0,425,valid,"[(1149, 816)]",[],[1],[0.7333333333333333],horizontal,"(890.0, 762.0)",0.3833333333333333,0.695,1,5446.245,3,0.0,same
0,426,valid,"[(1163, 791)]",[],[1],[0.75],vertical,"(890.0, 262.0)",1.2666666666666666,0.708,1,5452.113,3,0.0,same
0,427,catch,"[(1165, 787)]",[],[1],[],vertical,"(890.0, 262.0)",1.7,nan,1,5458.196,3,0.0,same
0,428,invalid_same_bar,"[(1165, 818)]",[],[1],[0.5166666666666666],vertical,"(890.0, 262.0)",0.6333333333333333,0.48,1,5464.178,3,0.0,same
0,429,catch,"[(1165, 796)]",[],[1],[],horizontal,"(390.0, 762.0)",1.7,nan,1,5469.764,3,0.0,same
0,430,catch,"[(1145, 819)]",[],[1],[],horizontal,"(890.0, 762.0)",1.7,nan,1,5475.462,3,0.0,same
0,431,valid,"[(1155, 782)]",[],[1],[0.6833333333333333],vertical,"(890.0, 262.0)",1.45,0.65,1,5481.429,3,0.0,same
0,432,catch,"[(1164, 776)]",[],[1],[],vertical,"(890.0, 262.0)",1.7,nan,1,5487.702,3,0.0,same
0,433,valid,"[(1159, 800)]",[],[1],[0.5833333333333334],horizontal,"(390.0, 762.0)",1.15,0.553,1,5493.963,3,0.0,same
0,434,valid,"[(1169, 814)]",[],[1],[0.6666666666666666],horizontal,"(890.0, 262.0)",1.3,0.634,1,5499.859,3,0.0,same
0,435,invalid_adjacent_other_bar,"[(1152, 776)]",[],[1],[0.55],horizontal,"(390.0, 762.0)",1.4166666666666667,0.518,1,5506.019,3,0.0,other
0,436,valid,"[(1165, 816)]",[],[1],[0.6],vertical,"(890.0, 262.0)",1.05,0.558,1,5512.313,3,0.0,same
0,437,valid,"[(1160, 799)]",[],[1],[0.5333333333333333],vertical,"(890.0, 262.0)",1.35,0.504,1,5518.492,3,0.0,same
0,438,valid,"[(1167, 782)]",[],[1],[0.7166666666666667],horizontal,"(390.0, 262.0)",1.0166666666666666,0.686,1,5524.816,3,0.0,same
0,439,catch,"[(1140, 797)]",[],[1],[],horizontal,"(390.0, 762.0)",1.7,nan,1,5530.452,3,0.0,same
0,440,valid,"[(1161, 805)]",[],[1],[0.85],horizontal,"(890.0, 762.0)",0.4,nan,0,5536.45,0,0.0,same
0,441,valid,"[(1121, 776)]",[],[1],[0.6166666666666667],horizontal,"(390.0, 762.0)",1.3333333333333333,0.579,1,5540.546,1,0.0,same
0,442,valid,"[(1140, 788)]",[],[1],[0.65],horizontal,"(390.0, 762.0)",1.3666666666666667,0.619,1,5546.255,1,0.0,same
0,443,invalid_adjacent_other_bar,"[(1160, 799)]",[],[1],[0.6833333333333333],vertical,"(890.0, 762.0)",1.1,0.64,1,5552.116,1,0.0,other
0,444,valid,"[(1167, 816)]",[],[1],[0.85],horizontal,"(890.0, 262.0)",0.8166666666666667,nan,0,5557.76,0,0.0,same
0,445,valid,"[(1134, 795)]",[],[1],[0.85],horizontal,"(890.0, 262.0)",0.48333333333333334,nan,0,5562.6,0,0.0,same
0,446,valid,"[(1123, 794)]",[],[1],[0.5833333333333334],vertical,"(390.0, 262.0)",1.1166666666666667,0.543,1,5566.662,1,0.0,same
0,447,valid,"[(1168, 796)]",[],[1],[0.85],horizontal,"(890.0, 762.0)",0.36666666666666664,nan,0,5571.597,0,0.0,same
0,448,valid,"[(1130, 775)]",[],[1],[0.6166666666666667],vertical,"(890.0, 762.0)",1.3666666666666667,0.58,1,5575.496,1,0.0,same
0,449,catch,"[(1163, 791)]",[],[1],[],vertical,"(390.0, 762.0)",1.7,nan,1,5581.131,1,0.0,same
0,450,catch,"[(1135, 784)]",[],[1],[],horizontal,"(390.0, 762.0)",1.7,nan,1,5586.228,1,0.0,same
0,451,valid,"[(1160, 795)]",[],[1],[0.6333333333333333],vertical,"(890.0, 762.0)",1.0,0.593,1,5591.667,2,0.0,same
0,452,valid,"[(1138, 825)]",[],[1],[0.5833333333333334],vertical,"(390.0, 262.0)",1.5,0.547,1,5597.609,2,0.0,same
0,453,valid,"[(1136, 790)]",[],[1],[0.75],horizontal,"(890.0, 262.0)",1.45,0.714,1,5604.325,2,0.0,same
0,454,catch,"[(1179, 806)]",[],[1],[],horizontal,"(390.0, 762.0)",1.7,nan,1,5610.263,2,0.0,same
0,455,valid,"[(1169, 810)]",[],[1],[0.85],horizontal,"(390.0, 762.0)",0.55,nan,0,5615.663,0,0.0,same
0,456,valid,"[(1088, 806)]",[],[1],[0.6333333333333333],vertical,"(390.0, 762.0)",1.1,0.592,1,5620.197,1,0.0,same
0,457,catch,"[(1168, 799)]",[],[1],[],horizontal,"(890.0, 762.0)",1.7,nan,1,5625.493,1,0.0,same
0,458,valid,"[(1086, 809)]",[],[1],[0.5166666666666666],vertical,"(390.0, 262.0)",1.0166666666666666,0.476,1,5630.355,1,0.0,same
0,459,valid,"[(1125, 787)]",[],[1],[0.6666666666666666],vertical,"(890.0, 262.0)",1.0166666666666666,0.632,1,5696.347,2,0.0,same
0,460,invalid_adjacent_other_bar,"[(1161, 801)]",[],[1],[0.5166666666666666],vertical,"(890.0, 262.0)",0.3833333333333333,0.483,1,5701.793,2,0.0,other
0,461,invalid_adjacent_other_bar,"[(1152, 786)]",[],[1],[0.5833333333333334],vertical,"(390.0, 262.0)",0.8666666666666667,0.545,1,5706.216,2,0.0,other
0,462,invalid_adjacent_other_bar,"[(1167, 790)]",[],[1],[0.85],vertical,"(390.0, 762.0)",0.9833333333333333,nan,0,5711.531,0,0.0,other
0,463,valid,"[(1148, 795)]",[],[1],[0.55],vertical,"(890.0, 762.0)",0.36666666666666664,0.509,1,5716.552,1,0.0,same
0,464,valid,"[(1125, 747), (1104, 798)]",[],"[0, 1]",[0.6166666666666667],horizontal,"(890.0, 262.0)",1.2833333333333332,0.583,1,5720.939,1,0.0,same
0,465,valid,"[(1145, 801)]",[],[1],[0.7833333333333333],horizontal,"(390.0, 762.0)",1.0166666666666666,0.737,1,5728.234,1,0.0,same
0,466,valid,"[(1148, 786)]",[],[1],[0.7166666666666667],vertical,"(390.0, 762.0)",0.6666666666666666,0.671,1,5734.042,2,0.0,same
0,467,valid,"[(1141, 815)]",[],[1],[0.65],horizontal,"(390.0, 262.0)",0.6,0.614,1,5739.686,2,0.0,same
0,468,valid,"[(1160, 776)]",[],[1],[0.6833333333333333],horizontal,"(890.0, 262.0)",0.8333333333333334,0.648,1,5745.279,2,0.0,same
0,469,valid,"[(1157, 785)]",[],[1],[0.75],horizontal,"(390.0, 762.0)",1.25,0.7,1,5750.474,2,0.0,same
0,470,catch,"[(1152, 772)]",[],[1],[],horizontal,"(390.0, 762.0)",1.7,nan,1,5756.334,3,0.0,same
0,471,valid,"[(1157, 756)]",[],[1],[0.6],horizontal,"(390.0, 762.0)",1.5166666666666666,0.56,1,5762.647,3,0.0,same
0,472,catch,"[(1157, 773)]",[],[1],[],vertical,"(390.0, 262.0)",1.7,nan,1,5769.401,3,0.0,same
0,473,valid,"[(1158, 773)]",[],[1],[0.5333333333333333],vertical,"(890.0, 262.0)",0.6833333333333333,0.492,1,5775.429,3,0.0,same
0,474,valid,"[(1157, 776)]",[],[1],[0.5333333333333333],horizontal,"(890.0, 262.0)",0.5166666666666666,0.497,1,5781.087,3,0.0,same
0,475,valid,"[(1155, 795)]",[],[1],[0.5666666666666667],vertical,"(890.0, 762.0)",1.1333333333333333,0.523,1,5786.264,3,0.0,same
0,476,valid,"[(1160, 797)]",[],[1],[0.65],horizontal,"(390.0, 262.0)",0.6166666666666667,0.606,1,5792.423,3,0.0,same
0,477,valid,"[(1161, 816)]",[],[1],[0.5333333333333333],horizontal,"(890.0, 262.0)",0.95,0.5,1,5797.73,3,0.0,same
0,478,valid,"[(1165, 812)]",[],[1],[0.85],vertical,"(390.0, 262.0)",0.8,nan,0,5803.662,0,0.0,same
0,479,valid,"[(1140, 782)]",[],[1],[0.75],horizontal,"(390.0, 762.0)",0.4666666666666667,0.699,1,5807.964,1,0.0,same
0,480,catch,"[(1165, 806)]",[],[1],[],horizontal,"(390.0, 762.0)",1.7,nan,1,5812.718,1,0.0,same
0,481,catch,"[(1135, 799)]",[],[1],[],horizontal,"(390.0, 262.0)",1.7,nan,1,5817.815,1,0.0,same
0,482,catch,"[(1130, 787)]",[],[1],[],horizontal,"(890.0, 762.0)",1.7,nan,1,5823.415,2,0.0,same
0,483,invalid_same_bar,"[(1138, 787)]",[],[1],[0.85],vertical,"(390.0, 262.0)",0.5833333333333334,nan,0,5829.097,0,0.0,same
0,484,valid,"[(1116, 783)]",[],[1],[0.55],horizontal,"(890.0, 762.0)",1.15,0.508,1,5833.332,1,0.0,same
0,485,invalid_same_bar,"[(1165, 777)]",[],[1],[0.7],vertical,"(390.0, 762.0)",1.2833333333333332,0.655,1,5838.589,1,0.0,same
0,486,valid,"[(1150, 838)]",[],[1],[0.6666666666666666],vertical,"(390.0, 262.0)",1.45,0.623,1,5843.981,1,0.0,same
0,487,valid,"[(1160, 782)]",[],[1],[0.5666666666666667],horizontal,"(890.0, 762.0)",0.9166666666666666,0.531,1,5849.446,2,0.0,same
0,488,valid,"[(1164, 779)]",[],[1],[0.85],horizontal,"(390.0, 762.0)",0.7666666666666666,nan,0,5854.636,0,0.0,same
0,489,valid,"[(1137, 770)]",[],[1],[0.06666666666666667],horizontal,"(390.0, 262.0)",1.5,0.039,0,5859.114,0,0.0,same
0,490,valid,"[(1139, 786)]",[],[1],[0.6333333333333333],vertical,"(890.0, 262.0)",1.3333333333333333,0.594,1,5864.049,1,0.0,same
0,491,valid,"[(1153, 806)]",[],[1],[0.6833333333333333],vertical,"(390.0, 262.0)",1.1833333333333333,0.636,1,5869.548,1,0.0,same
0,492,valid,"[(1168, 779)]",[],[1],[0.6],vertical,"(890.0, 762.0)",0.5333333333333333,0.56,1,5874.915,1,0.0,same
0,493,valid,"[(1135, 763)]",[],[1],[0.5833333333333334],horizontal,"(390.0, 762.0)",1.0333333333333332,0.541,1,5879.836,2,0.0,same
0,494,valid,"[(1156, 775)]",[],[1],[0.55],horizontal,"(890.0, 262.0)",0.48333333333333334,0.512,1,5885.699,2,0.0,same
0,495,valid,"[(1162, 790)]",[],[1],[0.65],vertical,"(390.0, 762.0)",1.2666666666666666,0.61,1,5890.664,2,0.0,same
0,496,invalid_same_bar,"[(1150, 805)]",[],[1],[0.65],vertical,"(890.0, 762.0)",1.3,0.608,1,5896.532,2,0.0,same
0,497,catch,"[(1165, 796)]",[],[1],[],vertical,"(390.0, 262.0)",1.7,nan,1,5902.364,3,0.0,same
0,498,invalid_same_bar,"[(1158, 771)]",[],[1],[0.6666666666666666],horizontal,"(390.0, 262.0)",0.43333333333333335,0.634,1,5908.599,3,0.0,same
0,499,valid,"[(1170, 786)]",[],[1],[0.5666666666666667],vertical,"(390.0, 262.0)",1.45,0.522,1,5913.701,3,0.0,same
0,500,valid,"[(1167, 802)]",[],[1],[0.5666666666666667],horizontal,"(390.0, 262.0)",1.2166666666666666,0.525,1,5920.164,3,0.0,same
0,501,catch,"[(1156, 796)]",[],[1],[],vertical,"(390.0, 262.0)",1.7,nan,1,5925.948,3,0.0,same
0,502,valid,"[(1165, 786)]",[],[1],[0.5333333333333333],horizontal,"(390.0, 762.0)",0.7,0.494,1,5932.006,3,0.0,same
0,503,valid,"[(1161, 799)]",[],[1],[0.6],vertical,"(890.0, 262.0)",0.5833333333333334,0.567,1,5937.614,3,0.0,same
0,504,valid,"[(1160, 800)]",[],[1],[0.85],vertical,"(890.0, 762.0)",0.7,nan,0,5943.302,0,0.0,same
0,505,catch,"[(1131, 778)]",[],[1],[],horizontal,"(890.0, 762.0)",1.7,nan,1,5947.899,1,0.0,same
0,506,catch,"[(1160, 769)]",[],[1],[],horizontal,"(390.0, 762.0)",1.7,nan,1,5953.512,1,0.0,same
0,507,catch,"[(1168, 787)]",[],[1],[],vertical,"(890.0, 262.0)",1.7,nan,1,5959.072,1,0.0,same
0,508,valid,"[(1150, 789)]",[],[1],[0.6333333333333333],horizontal,"(890.0, 762.0)",1.3666666666666667,0.591,1,5964.589,2,0.0,same
0,509,valid,"[(1138, 776)]",[],[1],[0.65],horizontal,"(890.0, 262.0)",0.45,0.606,1,5970.831,2,0.0,same
0,510,catch,"[(1175, 786)]",[],[1],[],horizontal,"(890.0, 262.0)",1.7,nan,1,5975.981,2,0.0,same
0,511,valid,"[(1149, 791)]",[],[1],[0.85],vertical,"(390.0, 262.0)",0.9,nan,0,5981.542,0,0.0,same
0,512,valid,"[(1153, 781)]",[],[1],[0.85],vertical,"(390.0, 762.0)",0.8833333333333333,nan,0,5985.869,0,0.0,same
0,513,valid,"[(1132, 770)]",[],[1],[0.6],vertical,"(890.0, 262.0)",1.45,0.562,1,5991.499,1,0.0,same
0,514,catch,"[(1160, 786)]",[],[1],[],horizontal,"(890.0, 762.0)",1.7,nan,1,5996.917,1,0.0,same
0,515,valid,"[(1160, 780)]",[],[1],[0.85],vertical,"(390.0, 262.0)",1.3666666666666667,nan,0,6001.963,0,0.0,same
0,516,valid,"[(1140, 766)]",[],[1],[0.6166666666666667],horizontal,"(890.0, 762.0)",1.1,0.575,1,6006.965,1,0.0,same
0,517,valid,"[(1175, 800)]",[],[1],[0.7666666666666666],vertical,"(390.0, 762.0)",1.4,0.724,1,6012.362,1,0.0,same
0,518,invalid_same_bar,"[(1167, 801)]",[],[1],[0.5333333333333333],horizontal,"(390.0, 762.0)",0.7166666666666667,0.494,1,6018.099,1,0.0,same
0,519,invalid_adjacent_other_bar,"[(1146, 796)]",[],[1],[0.8166666666666667],vertical,"(890.0, 762.0)",0.6166666666666667,0.777,1,6022.913,2,0.0,other
0,520,valid,"[(1161, 800)]",[],[1],[0.5166666666666666],horizontal,"(390.0, 262.0)",0.6833333333333333,0.481,1,6028.283,2,0.0,same
0,521,catch,"[(1165, 795)]",[],[1],[],horizontal,"(890.0, 262.0)",1.7,nan,1,6033.209,2,0.0,same
0,522,catch,"[(1160, 786)]",[],[1],[],horizontal,"(390.0, 262.0)",,"('cti', 1.623),nan",0,6038.798,0,0.02,same
0,523,valid,"[(1150, 790)]",[],[1],[0.85],horizontal,"(890.0, 762.0)",0.45,nan,0,6043.774,0,0.02,same
0,524,invalid_same_bar,"[(1138, 769)]",[],[1],[0.5666666666666667],horizontal,"(390.0, 762.0)",1.05,0.524,1,6047.981,1,0.02,same
0,525,valid,"[(1137, 781)]",[],[1],[0.85],vertical,"(390.0, 762.0)",0.48333333333333334,nan,0,6053.081,0,0.02,same
0,526,catch,"[(1125, 762)]",[],[1],[],vertical,"(390.0, 762.0)",1.7,nan,1,6057.181,1,0.02,same
0,527,catch,"[(1160, 767)]",[],[1],[],horizontal,"(390.0, 762.0)",1.7,nan,1,6062.483,1,0.02,same
0,528,valid,"[(1160, 786)]",[],[1],[0.7],horizontal,"(390.0, 762.0)",0.5666666666666667,0.661,1,6067.544,1,0.02,same
0,529,invalid_same_bar,"[(1157, 796)]",[],[1],[0.5333333333333333],horizontal,"(890.0, 262.0)",0.6166666666666667,0.491,1,6072.148,2,0.02,same
0,530,valid,"[(1167, 794)]",[],[1],[0.5666666666666667],horizontal,"(890.0, 762.0)",1.05,0.52,1,6077.392,2,0.02,same
0,531,catch,"[(1163, 799)]",[],[1],[],vertical,"(390.0, 762.0)",1.7,nan,1,6082.567,2,0.02,same
0,532,catch,"[(1136, 764)]",[],[1],[],vertical,"(890.0, 762.0)",1.7,nan,1,6087.965,2,0.02,same
0,533,valid,"[(1162, 780)]",[],[1],[0.5666666666666667],horizontal,"(890.0, 262.0)",1.3666666666666667,0.527,1,6093.574,3,0.02,same
0,534,catch,"[(1162, 794)]",[],[1],[],horizontal,"(890.0, 762.0)",1.7,nan,1,6099.907,3,0.02,same
0,535,valid,"[(1160, 783)]",[],[1],[0.5833333333333334],vertical,"(890.0, 762.0)",0.6666666666666666,0.544,1,6105.766,3,0.02,same
0,536,catch,"[(1156, 777)]",[],[1],[],horizontal,"(390.0, 762.0)",1.7,nan,1,6111.532,3,0.02,same
0,537,valid,"[(1166, 786)]",[],[1],[0.6166666666666667],horizontal,"(390.0, 762.0)",1.35,0.578,1,6117.616,3,0.02,same
0,538,catch,"[(1163, 782)]",[],[1],[],horizontal,"(890.0, 762.0)",1.7,nan,1,6124.149,3,0.02,same
0,539,valid,"[(1160, 791)]",[],[1],[0.6],horizontal,"(890.0, 762.0)",0.95,0.564,1,6130.132,3,0.02,same
0,540,valid,"[(1169, 782)]",[],[1],[0.55],horizontal,"(390.0, 262.0)",0.95,0.51,1,6135.899,3,0.02,same
0,541,valid,"[(1135, 766)]",[],[1],[],horizontal,"(390.0, 262.0)",,"('cti', 1.104)",0,6141.917,0,0.02,same
0,542,catch,"[(1146, 782)]",[],[1],[],vertical,"(390.0, 262.0)",1.7,nan,1,6146.082,1,0.02,same
0,543,catch,"[(1132, 781)]",[],[1],[],vertical,"(890.0, 762.0)",1.7,nan,1,6151.499,1,0.02,same
0,544,invalid_same_bar,"[(1156, 775)]",[],[1],[0.5666666666666667],vertical,"(890.0, 262.0)",0.55,0.528,1,6156.929,1,0.02,same
0,545,valid,"[(1160, 778)]",[],[1],[0.25],horizontal,"(890.0, 762.0)",1.15,0.215,1,6161.33,2,0.02,same
0,546,invalid_adjacent_other_bar,"[(1134, 786)]",[],[1],[0.65],horizontal,"(890.0, 262.0)",0.55,0.611,1,6166.366,2,0.02,other
0,547,valid,"[(1177, 794)]",[],[1],[0.5333333333333333],vertical,"(890.0, 762.0)",0.85,0.49,1,6171.682,2,0.02,same
0,548,valid,"[(1162, 757)]",[],[1],[0.6333333333333333],horizontal,"(390.0, 262.0)",0.35,0.595,1,6176.765,2,0.02,same
0,549,valid,"[(1160, 787)]",[],[1],[0.5333333333333333],vertical,"(390.0, 762.0)",1.3333333333333333,0.493,1,6181.319,3,0.02,same
0,550,valid,"[(1148, 788)]",[],[1],[0.5666666666666667],horizontal,"(390.0, 762.0)",1.0666666666666667,0.528,1,6187.465,3,0.02,same
0,551,valid,"[(1164, 786)]",[],[1],[0.6166666666666667],horizontal,"(890.0, 262.0)",0.6333333333333333,0.579,1,6193.182,3,0.02,same
0,552,valid,"[(1157, 803)]",[],[1],[0.5333333333333333],horizontal,"(390.0, 762.0)",1.1,0.495,1,6198.482,3,0.02,same
0,553,valid,"[(1136, 771)]",[],[1],[0.6166666666666667],vertical,"(390.0, 762.0)",0.7666666666666666,0.574,1,6203.965,3,0.02,same
0,554,valid,"[(1160, 776)]",[],[1],[0.5333333333333333],horizontal,"(890.0, 762.0)",1.1333333333333333,0.493,1,6209.615,3,0.02,same
0,555,invalid_adjacent_other_bar,"[(1164, 769)]",[],[1],[0.85],horizontal,"(390.0, 762.0)",0.6666666666666666,nan,0,6215.25,0,0.02,other
0,556,valid,"[(1121, 759)]",[],[1],[0.7333333333333333],horizontal,"(390.0, 762.0)",1.15,0.686,1,6219.382,1,0.02,same
0,557,valid,"[(1164, 791)]",[],[1],[0.6333333333333333],vertical,"(890.0, 262.0)",1.4666666666666666,0.588,1,6225.1,1,0.02,same
0,558,valid,"[(1135, 779)]",[],[1],[0.55],horizontal,"(390.0, 762.0)",0.5333333333333333,0.51,1,6230.448,1,0.02,same
0,559,valid,"[(1165, 798)]",[],[1],[0.8],vertical,"(890.0, 762.0)",0.5166666666666666,0.755,1,6235.14,2,0.02,same
0,560,valid,"[(1160, 789)]",[],[1],[0.6],horizontal,"(390.0, 262.0)",0.4,0.56,1,6240.582,2,0.02,same
0,561,catch,"[(1136, 778)]",[],[1],[],horizontal,"(390.0, 762.0)",1.7,nan,1,6245.566,2,0.02,same
0,562,valid,"[(1138, 778)]",[],[1],[0.6333333333333333],vertical,"(890.0, 262.0)",0.3833333333333333,0.593,1,6251.602,2,0.02,same
0,563,valid,"[(1162, 773)]",[],[1],[0.7333333333333333],horizontal,"(890.0, 262.0)",1.1,0.685,1,6256.779,3,0.02,same
0,564,catch,"[(1160, 803)]",[],[1],[],horizontal,"(390.0, 262.0)",1.7,nan,1,6263.066,3,0.02,same
0,565,valid,"[(1164, 790)]",[],[1],[0.5666666666666667],horizontal,"(390.0, 262.0)",0.9166666666666666,0.525,1,6269.249,3,0.02,same
0,566,catch,"[(1176, 783)]",[],[1],[],vertical,"(390.0, 762.0)",1.7,nan,1,6274.817,3,0.02,same
0,567,invalid_adjacent_other_bar,"[(1165, 817)]",[],[1],[0.5333333333333333],horizontal,"(890.0, 262.0)",0.5166666666666666,0.497,1,6280.898,3,0.02,other
0,568,catch,"[(1140, 794)]",[],[1],[],horizontal,"(390.0, 262.0)",1.7,nan,1,6286.599,3,0.02,same
0,569,invalid_adjacent_other_bar,"[(1163, 782)]",[],[1],[0.85],horizontal,"(390.0, 762.0)",1.5,nan,0,6293.266,0,0.02,other
0,570,catch,"[(1140, 785)]",[],[1],[],horizontal,"(390.0, 762.0)",1.7,nan,1,6298.383,1,0.02,same
0,571,catch,"[(1160, 789)]",[],[1],[],horizontal,"(890.0, 762.0)",,"('cti', 1.422),nan",0,6303.337,0,0.04,same
0,572,catch,"[(1125, 839)]",[],[1],[],horizontal,"(390.0, 262.0)",1.7,nan,1,6307.914,1,0.02,same
0,573,catch,"[(1161, 812)]",[],[1],[],horizontal,"(890.0, 262.0)",1.7,nan,1,6505.822,1,0.02,same
0,574,invalid_same_bar,"[(1134, 829)]",[],[1],[0.6166666666666667],horizontal,"(890.0, 762.0)",1.4166666666666667,0.576,1,6510.734,1,0.02,same
0,575,invalid_adjacent_other_bar,"[(1160, 807)]",[],[1],[0.5666666666666667],vertical,"(890.0, 762.0)",1.3166666666666667,0.526,1,6516.083,2,0.02,other
0,576,valid,"[(1160, 787)]",[],[1],[0.5666666666666667],vertical,"(890.0, 262.0)",1.0666666666666667,0.521,1,6521.776,2,0.02,same
0,577,valid,"[(1144, 821)]",[],[1],[0.5666666666666667],horizontal,"(890.0, 762.0)",0.6833333333333333,0.531,1,6527.105,2,0.02,same
0,578,valid,"[(1184, 805)]",[],[1],[0.3833333333333333],horizontal,"(890.0, 762.0)",1.2333333333333334,0.343,1,6532.117,2,0.02,same
0,579,valid,"[(1131, 797)]",[],[1],[0.5666666666666667],vertical,"(390.0, 762.0)",1.1833333333333333,0.524,1,6537.767,3,0.02,same
0,580,valid,"[(1162, 796)]",[],[1],[0.55],vertical,"(890.0, 762.0)",1.35,0.508,1,6543.766,3,0.02,same
0,581,valid,"[(1140, 782)]",[],[1],[0.5666666666666667],horizontal,"(890.0, 762.0)",1.4833333333333334,0.526,1,6549.673,3,0.02,same
0,582,valid,"[(1160, 792)]",[],[1],[0.85],horizontal,"(890.0, 762.0)",0.6,nan,0,6556.322,0,0.02,same
0,583,valid,"[(1122, 798)]",[],[1],[0.43333333333333335],horizontal,"(390.0, 262.0)",1.2833333333333332,0.39,1,6560.921,1,0.02,same
0,584,valid,"[(1133, 792)]",[],[1],[0.5833333333333334],horizontal,"(390.0, 262.0)",0.9333333333333333,0.545,1,6566.352,1,0.02,same
0,585,catch,"[(1162, 814)]",[],[1],[],horizontal,"(390.0, 262.0)",1.7,nan,1,6571.747,1,0.02,same
0,586,valid,"[(1130, 806)]",[],[1],[0.5],horizontal,"(890.0, 762.0)",0.5833333333333334,0.467,1,6577.383,2,0.02,same
0,587,valid,"[(1133, 773)]",[],[1],[0.5333333333333333],horizontal,"(390.0, 762.0)",0.5833333333333334,0.499,1,6582.717,2,0.02,same
0,588,catch,"[(1160, 815)]",[],[1],[],vertical,"(390.0, 762.0)",1.7,nan,1,6587.806,2,0.02,same
0,589,valid,"[(1136, 815)]",[],[1],[0.55],vertical,"(890.0, 262.0)",1.2333333333333334,0.513,1,6593.282,2,0.02,same
0,590,valid,"[(1166, 798)]",[],[1],[0.85],horizontal,"(390.0, 262.0)",1.15,nan,0,6599.461,0,0.02,same
0,591,valid,"[(1129, 797)]",[],[1],[0.6666666666666666],horizontal,"(890.0, 762.0)",1.3666666666666667,0.625,1,6604.704,1,0.02,same
0,592,invalid_adjacent_other_bar,"[(1136, 781)]",[],[1],[0.5833333333333334],horizontal,"(390.0, 762.0)",0.7333333333333333,0.548,1,6610.335,1,0.02,other
0,593,valid,"[(1165, 796)]",[],[1],[0.5166666666666666],vertical,"(390.0, 762.0)",0.8,0.48,1,6614.992,1,0.02,same
0,594,catch,"[(1180, 779)]",[],[1],[],vertical,"(890.0, 262.0)",1.7,nan,1,6619.599,2,0.02,same
0,595,valid,"[(1180, 785)]",[],[1],[0.55],horizontal,"(390.0, 762.0)",1.3333333333333333,0.511,1,6625.8,2,0.02,same
0,596,valid,"[(1150, 790)]",[],[1],[0.5166666666666666],vertical,"(890.0, 762.0)",0.48333333333333334,0.484,1,6631.632,2,0.02,same
0,597,valid,"[(1167, 794)]",[],[1],[0.5166666666666666],horizontal,"(390.0, 262.0)",0.5333333333333333,0.477,1,6636.65,2,0.02,same
0,598,valid,"[(1134, 841)]",[],[1],[0.5666666666666667],vertical,"(390.0, 262.0)",1.3833333333333333,0.526,1,6641.666,3,0.02,same
0,599,valid,"[(1172, 790)]",[],[1],[],horizontal,"(390.0, 262.0)",,"('cti', 1.268)",0,6648.942,0,0.02,same
0,600,valid,"[(1133, 770)]",[],[1],[0.5666666666666667],horizontal,"(890.0, 762.0)",0.55,0.524,1,6653.501,1,0.02,same
0,601,valid,"[(1139, 774)]",[],[1],[0.5333333333333333],vertical,"(890.0, 262.0)",0.5833333333333334,0.491,1,6658.451,1,0.02,same
0,602,valid,"[(1177, 783)]",[],[1],[0.5166666666666666],vertical,"(390.0, 262.0)",0.9166666666666666,0.48,1,6663.201,1,0.02,same
0,603,catch,"[(1162, 788)]",[],[1],[],horizontal,"(390.0, 262.0)",1.7,nan,1,6668.2,2,0.02,same
0,604,valid,"[(1139, 776)]",[],[1],[0.6833333333333333],horizontal,"(390.0, 762.0)",0.48333333333333334,0.641,1,6673.897,2,0.02,same
0,605,catch,"[(1166, 774)]",[],[1],[],horizontal,"(390.0, 262.0)",1.7,nan,1,6679.267,2,0.02,same
0,606,valid,"[(1165, 796)]",[],[1],[0.5833333333333334],vertical,"(890.0, 262.0)",1.1,0.539,1,6684.551,2,0.02,same
0,607,valid,"[(1130, 799)]",[],[1],[0.7166666666666667],horizontal,"(890.0, 762.0)",1.0666666666666667,0.671,1,6690.411,3,0.02,same
0,608,invalid_same_bar,"[(1180, 799)]",[],[1],[0.3],vertical,"(890.0, 762.0)",1.0666666666666667,0.268,1,6696.901,3,0.02,same
0,609,valid,"[(1161, 779)]",[],[1],[0.6833333333333333],horizontal,"(890.0, 262.0)",1.5166666666666666,0.643,1,6702.908,3,0.02,same
0,610,catch,"[(1168, 805)]",[],[1],[],vertical,"(390.0, 762.0)",1.7,nan,1,6709.834,3,0.02,same
0,611,valid,"[(1135, 788)]",[],[1],[0.5333333333333333],horizontal,"(890.0, 762.0)",1.0333333333333332,0.494,1,6715.653,3,0.02,same
0,612,valid,"[(1170, 786)]",[],[1],[0.85],horizontal,"(890.0, 762.0)",1.1333333333333333,nan,0,6721.284,0,0.02,same
0,613,invalid_adjacent_other_bar,"[(1140, 765)]",[],[1],[0.85],horizontal,"(390.0, 262.0)",0.6166666666666667,nan,0,6726.64,0,0.02,other
0,614,valid,"[(1131, 779)]",[],[1],[0.6166666666666667],horizontal,"(890.0, 262.0)",1.1333333333333333,0.573,1,6730.936,1,0.02,same
0,615,catch,"[(1170, 782)]",[],[1],[],horizontal,"(890.0, 762.0)",1.7,nan,1,6736.435,1,0.02,same
0,616,valid,"[(1085, 776)]",[],[1],[0.6],vertical,"(890.0, 262.0)",1.0,0.557,1,6741.368,1,0.02,same
0,617,valid,"[(1156, 795)]",[],[1],[0.6],horizontal,"(890.0, 762.0)",0.9833333333333333,0.554,1,6746.718,2,0.02,same
0,618,valid,"[(1165, 802)]",[],[1],[0.6],horizontal,"(390.0, 762.0)",0.6166666666666667,0.555,1,6751.835,2,0.02,same
0,619,valid,"[(1166, 780)]",[],[1],[0.7333333333333333],vertical,"(390.0, 762.0)",1.0166666666666666,0.689,1,6756.884,2,0.02,same
0,620,invalid_same_bar,"[(1161, 793)]",[],[1],[0.7333333333333333],horizontal,"(890.0, 762.0)",1.3666666666666667,0.689,1,6762.942,2,0.02,same
0,621,valid,"[(1153, 808)]",[],[1],[0.85],horizontal,"(390.0, 762.0)",0.7666666666666666,nan,0,6768.634,0,0.0,same
0,622,valid,"[(1120, 756)]",[],[1],[0.6],vertical,"(890.0, 762.0)",0.7,0.561,1,6773.402,1,0.0,same
0,623,valid,"[(1168, 797)]",[],[1],[0.6],vertical,"(390.0, 762.0)",1.0,0.554,1,6778.368,1,0.0,same
0,624,valid,"[(1136, 773)]",[],[1],[0.5666666666666667],vertical,"(390.0, 262.0)",0.5333333333333333,0.531,1,6783.384,1,0.0,same
0,625,valid,"[(1165, 804)]",[],[1],[0.55],horizontal,"(890.0, 762.0)",1.4166666666666667,0.511,1,6788.055,2,0.0,same
0,626,invalid_adjacent_other_bar,"[(1158, 794)]",[],[1],[0.6],vertical,"(390.0, 262.0)",0.8666666666666667,0.562,1,6793.919,2,0.0,other
0,627,valid,"[(1155, 783)]",[],[1],[0.5833333333333334],vertical,"(390.0, 262.0)",0.6333333333333333,0.541,1,6799.11,2,0.0,same
0,628,catch,"[(1168, 798)]",[],[1],[],horizontal,"(390.0, 762.0)",1.7,nan,1,6804.051,2,0.0,same
0,629,valid,"[(1165, 793)]",[],[1],[0.6166666666666667],horizontal,"(390.0, 762.0)",1.1666666666666667,0.579,1,6810.155,3,0.0,same
0,630,catch,"[(1165, 822)]",[],[1],[],vertical,"(890.0, 262.0)",1.7,nan,1,6815.919,3,0.0,same
0,631,valid,"[(1160, 779)]",[],[1],[0.65],vertical,"(890.0, 262.0)",0.3833333333333333,0.613,1,6822.35,3,0.0,same
0,632,catch,"[(1169, 771)]",[],[1],[],vertical,"(890.0, 762.0)",1.7,nan,1,6827.635,3,0.0,same
0,633,valid,"[(1169, 796)]",[],[1],[0.6],horizontal,"(890.0, 262.0)",1.05,0.556,1,6833.752,3,0.0,same
0,634,valid,"[(1165, 799)]",[],[1],[0.55],vertical,"(390.0, 762.0)",0.6166666666666667,0.507,1,6839.518,3,0.0,same
0,635,valid,"[(1169, 783)]",[],[1],[0.55],horizontal,"(890.0, 262.0)",0.9,0.517,1,6844.901,3,0.0,same
0,636,catch,"[(1165, 773)]",[],[1],[],horizontal,"(890.0, 262.0)",1.7,nan,1,6850.644,3,0.0,same
0,637,valid,"[(1155, 802)]",[],[1],[0.6333333333333333],vertical,"(390.0, 762.0)",0.48333333333333334,0.593,1,6857.133,3,0.0,same
0,638,invalid_adjacent_other_bar,"[(1169, 817)]",[],[1],[0.5666666666666667],horizontal,"(390.0, 262.0)",0.6666666666666666,0.525,1,6862.457,3,0.0,other
0,639,catch,"[(1170, 796)]",[],[1],[],vertical,"(890.0, 762.0)",1.7,nan,1,6868.141,3,0.0,same
0,640,valid,"[(1131, 802)]",[],[1],[0.55],horizontal,"(890.0, 762.0)",0.4166666666666667,0.511,1,6874.201,3,0.0,same
0,641,valid,"[(1165, 780)]",[],[1],[0.7166666666666667],vertical,"(390.0, 762.0)",0.6,0.674,1,6879.81,3,0.0,same
0,642,invalid_same_bar,"[(1170, 806)]",[],[1],[0.8333333333333334],vertical,"(390.0, 762.0)",1.1833333333333333,0.795,1,6885.151,3,0.0,same
0,643,catch,"[(1180, 794)]",[],[1],[],vertical,"(390.0, 262.0)",1.7,nan,1,6891.935,3,0.0,same
0,644,invalid_same_bar,"[(1167, 802)]",[],[1],[0.5666666666666667],horizontal,"(390.0, 262.0)",0.8333333333333334,0.533,1,6898.377,3,0.0,same
0,645,catch,"[(1156, 785)]",[],[1],[],vertical,"(890.0, 262.0)",1.7,nan,1,6903.85,3,0.0,same
0,646,valid,"[(1166, 799)]",[],[1],[0.65],vertical,"(890.0, 262.0)",0.95,0.611,1,6909.943,3,0.0,same
0,647,catch,"[(1165, 777)]",[],[1],[],vertical,"(390.0, 262.0)",1.7,nan,1,6916.241,3,0.0,same
0,648,invalid_adjacent_other_bar,"[(1166, 786)]",[],[1],[0.6833333333333333],vertical,"(890.0, 762.0)",0.9833333333333333,0.643,1,6922.434,3,0.0,other
0,649,valid,"[(1138, 791)]",[],[1],[0.6166666666666667],horizontal,"(390.0, 262.0)",1.0833333333333333,0.572,1,6928.354,3,0.0,same
0,650,valid,"[(1142, 804)]",[],[1],[0.7333333333333333],horizontal,"(390.0, 762.0)",1.3333333333333333,0.685,1,6934.465,3,0.0,same
0,651,valid,"[(1162, 792)]",[],[1],[0.55],horizontal,"(890.0, 762.0)",1.1833333333333333,0.511,1,6940.65,3,0.0,same
0,652,valid,"[(1165, 804)]",[],[1],[0.6833333333333333],horizontal,"(390.0, 262.0)",1.1833333333333333,0.64,1,6946.978,3,0.0,same
0,653,invalid_adjacent_other_bar,"[(1155, 799)]",[],[1],[0.6166666666666667],horizontal,"(890.0, 762.0)",1.2833333333333332,0.573,1,6953.05,3,0.0,other
0,654,valid,"[(1170, 799)]",[],[1],[0.85],horizontal,"(890.0, 262.0)",0.9333333333333333,nan,0,6959.135,0,0.0,same
0,655,valid,"[(1130, 776)]",[],[1],[0.5833333333333334],vertical,"(890.0, 762.0)",0.5166666666666666,0.538,1,6963.764,1,0.0,same
0,656,valid,"[(1169, 794)]",[],[1],[0.6666666666666666],horizontal,"(390.0, 762.0)",1.2,0.619,1,6968.239,1,0.0,same
0,657,invalid_same_bar,"[(1166, 793)]",[],[1],[0.6166666666666667],horizontal,"(890.0, 262.0)",0.4666666666666667,0.572,1,6974.035,1,0.0,same
0,658,valid,"[(1174, 796)]",[],[1],[0.5666666666666667],horizontal,"(390.0, 262.0)",0.4666666666666667,0.527,1,6978.486,2,0.0,same
0,659,valid,"[(1129, 794)]",[],[1],[0.55],vertical,"(890.0, 262.0)",0.7,0.506,1,6983.699,2,0.0,same
0,660,catch,"[(1135, 771)]",[],[1],[],horizontal,"(890.0, 262.0)",1.7,nan,1,6989.052,2,0.0,same
0,661,valid,"[(1150, 803)]",[],[1],[0.55],horizontal,"(890.0, 262.0)",0.7333333333333333,0.509,1,6994.652,2,0.0,same
0,662,valid,"[(1165, 789)]",[],[1],[0.5666666666666667],horizontal,"(390.0, 762.0)",0.5666666666666667,0.53,1,7000.32,3,0.0,same
0,663,valid,"[(1132, 825)]",[],[1],[0.65],vertical,"(890.0, 762.0)",0.5666666666666667,0.605,1,7005.952,3,0.0,same
0,664,catch,"[(1160, 797)]",[],[1],[],horizontal,"(890.0, 762.0)",1.7,nan,1,7011.72,3,0.0,same
0,665,catch,"[(1177, 778)]",[],[1],[],horizontal,"(890.0, 262.0)",1.7,nan,1,7017.769,3,0.0,same
0,666,valid,"[(1169, 804)]",[],[1],[0.5833333333333334],vertical,"(890.0, 262.0)",0.95,0.539,1,7024.035,3,0.0,same
0,667,catch,"[(1165, 787)]",[],[1],[],horizontal,"(390.0, 762.0)",1.7,nan,1,7030.287,3,0.0,same
0,668,valid,"[(1175, 799)]",[],[1],[0.6833333333333333],vertical,"(390.0, 762.0)",1.0833333333333333,0.639,1,7036.538,3,0.0,same
0,669,valid,"[(1166, 809)]",[],[1],[0.5333333333333333],vertical,"(390.0, 262.0)",0.8333333333333334,0.497,1,7042.421,3,0.0,same
0,670,valid,"[(1169, 778)]",[],[1],[0.85],vertical,"(390.0, 762.0)",1.0333333333333332,nan,0,7047.769,0,0.0,same
0,671,catch,"[(1132, 782)]",[],[1],[],vertical,"(890.0, 262.0)",1.7,nan,1,7052.786,1,0.0,same
0,672,valid,"[(1169, 785)]",[],[1],[0.6166666666666667],horizontal,"(890.0, 262.0)",1.3166666666666667,0.586,1,7058.035,1,0.0,same
0,673,valid,"[(1170, 777)]",[],[1],[0.6833333333333333],horizontal,"(390.0, 762.0)",0.48333333333333334,0.645,1,7063.53,1,0.0,same
0,674,catch,"[(1162, 794)]",[],[1],[],vertical,"(890.0, 262.0)",1.7,nan,1,7068.202,2,0.0,same
0,675,catch,"[(1141, 791)]",[],[1],[],vertical,"(390.0, 262.0)",1.7,nan,1,7073.747,2,0.0,same
0,676,valid,"[(1177, 806)]",[],[1],[0.6333333333333333],horizontal,"(390.0, 262.0)",1.2166666666666666,0.593,1,7079.269,2,0.0,same
0,677,valid,"[(1163, 776)]",[],[1],[0.5333333333333333],vertical,"(890.0, 762.0)",0.7333333333333333,0.493,1,7084.769,2,0.0,same
0,678,invalid_same_bar,"[(1125, 784)]",[],[1],[0.7166666666666667],horizontal,"(890.0, 762.0)",1.2833333333333332,0.674,1,7090.518,3,0.0,same
0,679,catch,"[(1163, 795)]",[],[1],[],vertical,"(390.0, 262.0)",1.7,nan,1,7096.764,3,0.0,same
0,680,valid,"[(1143, 765)]",[],[1],[0.5833333333333334],vertical,"(890.0, 762.0)",1.2,0.544,1,7103.052,3,0.0,same
0,681,valid,"[(1166, 796)]",[],[1],[0.6],vertical,"(890.0, 762.0)",1.3666666666666667,0.554,1,7108.806,3,0.0,same
0,682,valid,"[(1166, 797)]",[],[1],[0.6666666666666666],horizontal,"(890.0, 762.0)",0.8333333333333334,0.628,1,7115.131,3,0.0,same
0,683,valid,"[(1141, 807)]",[],[1],[0.6666666666666666],horizontal,"(390.0, 262.0)",1.0333333333333332,0.626,1,7120.92,3,0.0,same
0,684,valid,"[(1165, 785)]",[],[1],[0.55],horizontal,"(390.0, 262.0)",0.6333333333333333,0.512,1,7127.016,3,0.0,same
0,685,valid,"[(1166, 801)]",[],[1],[0.7333333333333333],vertical,"(890.0, 762.0)",0.55,0.689,1,7132.636,3,0.0,same
0,686,catch,"[(1132, 797)]",[],[1],[],horizontal,"(890.0, 262.0)",1.7,nan,1,7138.587,3,0.0,same
0,687,valid,"[(1166, 790)]",[],[1],[0.55],vertical,"(890.0, 762.0)",1.15,0.508,1,7144.686,3,0.0,same
0,688,invalid_same_bar,"[(1166, 765)]",[],[1],[0.6333333333333333],vertical,"(390.0, 762.0)",1.15,0.595,1,7150.599,3,0.0,same
0,689,catch,"[(1170, 793)]",[],[1],[],horizontal,"(890.0, 262.0)",1.7,nan,1,7156.951,3,0.0,same
0,690,valid,"[(1165, 781)]",[],[1],[0.6],vertical,"(890.0, 262.0)",1.45,0.566,1,7162.934,3,0.0,same
0,691,valid,"[(1165, 785)]",[],[1],[0.75],horizontal,"(890.0, 262.0)",0.35,0.701,1,7169.711,3,0.0,same
0,692,catch,"[(1164, 807)]",[],[1],[],vertical,"(390.0, 262.0)",1.7,nan,1,7175.019,3,0.0,same
0,693,valid,"[(1160, 803)]",[],[1],[0.7833333333333333],vertical,"(390.0, 762.0)",0.9333333333333333,0.739,1,7181.036,3,0.0,same
0,694,valid,"[(1135, 819)]",[],[1],[0.5833333333333334],vertical,"(390.0, 762.0)",0.9333333333333333,0.543,1,7187.304,3,0.0,same
0,695,valid,"[(1132, 789)]",[],[1],[0.7833333333333333],vertical,"(390.0, 262.0)",1.3333333333333333,0.743,1,7193.12,3,0.0,same
0,696,valid,"[(1170, 796)]",[],[1],[0.5666666666666667],horizontal,"(890.0, 262.0)",1.5166666666666666,0.534,1,7199.67,3,0.0,same
0,697,invalid_adjacent_other_bar,"[(1150, 786)]",[],[1],[0.5666666666666667],horizontal,"(890.0, 262.0)",0.6,0.534,1,7206.407,3,0.0,other
0,698,catch,"[(1165, 791)]",[],[1],[],horizontal,"(890.0, 762.0)",1.7,nan,1,7211.987,3,0.0,same
0,699,catch,"[(1175, 814)]",[],[1],[],horizontal,"(390.0, 762.0)",1.7,nan,1,7218.206,3,0.0,same
0,700,valid,"[(1136, 783)]",[],[1],[0.6833333333333333],vertical,"(390.0, 262.0)",1.3333333333333333,0.653,1,7224.428,3,0.0,same
0,701,valid,"[(1152, 785)]",[],[1],[0.55],horizontal,"(890.0, 762.0)",1.3,0.509,1,7230.47,3,0.0,same
0,702,catch,"[(1155, 802)]",[],[1],[],horizontal,"(890.0, 762.0)",1.7,nan,1,7236.432,3,0.0,same
0,703,valid,"[(1162, 783)]",[],[1],[0.55],horizontal,"(390.0, 762.0)",0.6666666666666666,0.506,1,7242.27,3,0.0,same
0,704,catch,"[(1165, 782)]",[],[1],[],horizontal,"(390.0, 762.0)",1.7,nan,1,7247.549,3,0.0,same
0,705,valid,"[(1166, 796)]",[],[1],[0.5333333333333333],horizontal,"(390.0, 262.0)",0.36666666666666664,0.495,1,7253.539,3,0.0,same
0,706,catch,"[(1160, 791)]",[],[1],[],horizontal,"(890.0, 262.0)",1.7,nan,1,7258.747,3,0.0,same
0,707,valid,"[(1170, 794)]",[],[1],[0.55],vertical,"(390.0, 762.0)",0.7,0.515,1,7264.793,3,0.0,same
0,708,valid,"[(1160, 785)]",[],[1],[0.7333333333333333],horizontal,"(890.0, 762.0)",0.55,0.699,1,7270.214,3,0.0,same
0,709,valid,"[(1160, 790)]",[],[1],[0.55],vertical,"(890.0, 262.0)",0.65,0.509,1,7275.999,3,0.0,same
0,710,valid,"[(1141, 779)]",[],[1],[0.6166666666666667],vertical,"(390.0, 262.0)",0.9833333333333333,0.577,1,7281.425,3,0.0,same
0,711,valid,"[(1136, 794)]",[],[1],[0.5833333333333334],vertical,"(390.0, 262.0)",1.1333333333333333,0.547,1,7287.594,3,0.0,same
0,712,valid,"[(1157, 811)]",[],[1],[0.6166666666666667],vertical,"(390.0, 762.0)",0.7833333333333333,0.574,1,7294.053,3,0.0,same
0,713,valid,"[(1136, 791)]",[],[1],[0.5833333333333334],vertical,"(390.0, 762.0)",0.35,0.547,1,7299.686,3,0.0,same
0,714,valid,"[(1136, 801)]",[],[1],[0.6833333333333333],vertical,"(390.0, 762.0)",0.36666666666666664,0.641,1,7305.128,3,0.0,same
0,715,valid,"[(1171, 803)]",[],[1],[0.6333333333333333],vertical,"(390.0, 262.0)",1.2,0.591,1,7310.904,3,0.0,same
0,716,invalid_same_bar,"[(1174, 806)]",[],[1],[0.55],horizontal,"(390.0, 762.0)",0.6666666666666666,0.509,1,7316.836,3,0.0,same
0,717,valid,"[(1161, 800)]",[],[1],[0.6],horizontal,"(390.0, 762.0)",1.15,0.558,1,7322.558,3,0.0,same
0,718,valid,"[(1156, 768)]",[],[1],[0.7],vertical,"(890.0, 262.0)",0.8333333333333334,0.661,1,7328.953,3,0.0,same
0,719,invalid_same_bar,"[(1135, 796)]",[],[1],[0.5833333333333334],vertical,"(390.0, 762.0)",0.6166666666666667,0.553,1,7334.485,3,0.0,same
0,720,catch,"[(1160, 799)]",[],[1],[],vertical,"(890.0, 262.0)",1.7,nan,1,7340.437,3,0.0,same
0,721,valid,"[(1157, 779)]",[],[1],[0.85],horizontal,"(390.0, 262.0)",1.4166666666666667,nan,0,7346.375,0,0.0,same
0,722,catch,"[(1096, 836)]",[],[1],[],vertical,"(890.0, 762.0)",1.7,nan,1,7351.636,1,0.0,same
0,723,valid,"[(1120, 798)]",[],[1],[0.5666666666666667],vertical,"(890.0, 762.0)",1.5166666666666666,0.526,1,7916.599,1,0.0,same
0,724,catch,"[(1140, 786)]",[],[1],[],vertical,"(890.0, 262.0)",1.7,nan,1,7922.113,1,0.0,same
0,725,invalid_same_bar,"[(1160, 790)]",[],[1],[0.6166666666666667],vertical,"(890.0, 262.0)",0.8,0.574,1,7927.337,2,0.0,same
0,726,valid,"[(1187, 798)]",[],[1],[0.55],horizontal,"(890.0, 762.0)",1.3,0.508,1,7932.605,2,0.0,same
0,727,valid,"[(1161, 806)]",[],[1],[0.55],vertical,"(890.0, 762.0)",1.4833333333333334,0.512,1,7938.279,2,0.0,same
0,728,invalid_same_bar,"[(1161, 796)]",[],[1],[0.6666666666666666],horizontal,"(890.0, 762.0)",0.9166666666666666,0.624,1,7943.73,2,0.0,same
0,729,catch,"[(1168, 787)]",[],[1],[],vertical,"(890.0, 262.0)",1.7,nan,1,7949.005,3,0.0,same
0,730,invalid_same_bar,"[(1143, 801)]",[],[1],[0.7],horizontal,"(890.0, 762.0)",1.3666666666666667,0.649,1,7954.944,3,0.0,same
0,731,valid,"[(1160, 797)]",[],[1],[0.6333333333333333],horizontal,"(390.0, 762.0)",0.4166666666666667,0.591,1,7961.472,3,0.0,same
0,732,catch,"[(1165, 779)]",[],[1],[],vertical,"(390.0, 262.0)",1.7,nan,1,7967.124,3,0.0,same
0,733,invalid_same_bar,"[(1146, 767)]",[],[1],[0.55],vertical,"(890.0, 762.0)",1.3,0.509,1,7973.039,3,0.0,same
0,734,invalid_adjacent_other_bar,"[(1151, 792)]",[],[1],[0.5333333333333333],horizontal,"(890.0, 262.0)",0.75,0.491,1,7978.956,3,0.0,other
0,735,valid,"[(1167, 783)]",[],[1],[0.5333333333333333],horizontal,"(390.0, 262.0)",0.36666666666666664,0.498,1,7984.899,3,0.0,same
0,736,catch,"[(1134, 784)]",[],[1],[],vertical,"(390.0, 762.0)",1.7,nan,1,7989.99,3,0.0,same
0,737,valid,"[(1174, 789)]",[],[1],[0.7166666666666667],horizontal,"(890.0, 262.0)",0.8333333333333334,0.675,1,7996.322,3,0.0,same
0,738,valid,"[(1137, 784)]",[],[1],[0.5833333333333334],horizontal,"(390.0, 762.0)",0.5,0.547,1,8002.029,3,0.0,same
0,739,catch,"[(1130, 809)]",[],[1],[],vertical,"(890.0, 762.0)",1.7,nan,1,8007.156,3,0.0,same
0,740,valid,"[(1137, 759)]",[],[1],[0.85],vertical,"(390.0, 762.0)",1.4,nan,0,8013.938,0,0.0,same
0,741,valid,"[(1135, 768)]",[],[1],[0.85],horizontal,"(390.0, 262.0)",1.2666666666666666,nan,0,8019.611,0,0.0,same
0,742,catch,"[(1090, 806)]",[],[1],[],horizontal,"(890.0, 262.0)",,"('cti', 1.488),nan",0,8025.042,0,0.02,same
0,743,valid,"[(1130, 823)]",[],[1],[0.5333333333333333],horizontal,"(390.0, 762.0)",1.0333333333333332,0.502,1,8030.065,1,0.02,same
0,744,valid,"[(1120, 832)]",[],[1],[0.5666666666666667],horizontal,"(890.0, 262.0)",1.3333333333333333,0.527,1,8035.506,1,0.02,same
0,745,valid,"[(1161, 799)]",[],[1],[0.85],vertical,"(390.0, 762.0)",0.36666666666666664,nan,0,8041.491,0,0.02,same
0,746,catch,"[(1150, 788)]",[],[1],[],horizontal,"(390.0, 262.0)",1.7,nan,1,8045.557,1,0.02,same
0,747,invalid_same_bar,"[(1164, 772)]",[],[1],[0.5666666666666667],vertical,"(390.0, 762.0)",1.2,0.533,1,8050.715,1,0.02,same
0,748,valid,"[(1161, 807)]",[],[1],[0.55],vertical,"(890.0, 762.0)",0.8333333333333334,0.513,1,8055.856,1,0.02,same
0,749,valid,"[(1112, 841)]",[],[1],[0.5666666666666667],horizontal,"(890.0, 262.0)",1.3333333333333333,0.534,1,8061.159,2,0.02,same
0,750,valid,"[(1120, 815)]",[],[1],[0.5666666666666667],vertical,"(890.0, 762.0)",0.8,0.534,1,8067.023,2,0.02,same
0,751,valid,"[(1165, 809)]",[],[1],[0.6333333333333333],vertical,"(890.0, 762.0)",1.05,0.6,1,8072.552,2,0.02,same
0,752,catch,"[(1173, 781)]",[],[1],[],horizontal,"(390.0, 762.0)",1.7,nan,1,8078.212,2,0.02,same
0,753,valid,"[(1170, 805)]",[],[1],[0.6833333333333333],horizontal,"(390.0, 262.0)",1.0833333333333333,0.646,1,8083.832,3,0.02,same
0,754,catch,"[(1169, 803)]",[],[1],[],vertical,"(890.0, 262.0)",1.7,nan,1,8089.946,3,0.02,same
0,755,valid,"[(1163, 815)]",[],[1],[0.5666666666666667],vertical,"(890.0, 762.0)",0.8666666666666667,0.527,1,8095.821,3,0.02,same
0,756,catch,"[(1179, 788)]",[],[1],[],vertical,"(390.0, 762.0)",1.7,nan,1,8101.176,3,0.02,same
0,757,valid,"[(1165, 799)]",[],[1],[0.65],horizontal,"(890.0, 762.0)",0.4166666666666667,0.614,1,8107.249,3,0.02,same
0,758,valid,"[(1140, 796)]",[],[1],[0.7],horizontal,"(390.0, 762.0)",1.35,0.657,1,8112.423,3,0.02,same
0,759,valid,"[(1168, 799)]",[],[1],[0.5166666666666666],horizontal,"(390.0, 262.0)",1.5,0.479,1,8118.875,3,0.02,same
0,760,valid,"[(1175, 819)]",[],[1],[0.6666666666666666],vertical,"(890.0, 762.0)",0.6833333333333333,0.624,1,8124.841,3,0.02,same
0,761,valid,"[(1138, 765)]",[],[1],[0.5833333333333334],horizontal,"(390.0, 262.0)",1.2833333333333332,0.541,1,8130.736,3,0.02,same
0,762,valid,"[(1170, 810)]",[],[1],[0.65],vertical,"(890.0, 262.0)",1.2166666666666666,0.617,1,8136.762,3,0.02,same
0,763,valid,"[(1180, 812)]",[],[1],[0.55],horizontal,"(890.0, 762.0)",0.9166666666666666,0.513,1,8143.007,3,0.02,same
0,764,valid,"[(1176, 773)]",[],[1],[0.85],vertical,"(890.0, 762.0)",0.6666666666666666,nan,0,8148.59,0,0.02,same
0,765,valid,"[(1170, 793)]",[],[1],[0.85],horizontal,"(390.0, 762.0)",1.5,nan,0,8153.105,0,0.02,same
0,766,catch,"[(1165, 793)]",[],[1],[],horizontal,"(390.0, 762.0)",1.7,nan,1,8158.205,1,0.02,same
0,767,valid,"[(1165, 813)]",[],[1],[0.6666666666666666],horizontal,"(890.0, 262.0)",1.45,0.626,1,8163.407,1,0.02,same
0,768,valid,"[(1160, 811)]",[],[1],[0.5],vertical,"(890.0, 262.0)",0.75,0.463,1,8168.874,1,0.02,same
0,769,valid,"[(1165, 793)]",[],[1],[0.6166666666666667],vertical,"(390.0, 262.0)",1.0166666666666666,0.574,1,8173.606,2,0.02,same
0,770,valid,"[(1180, 786)]",[],[1],[0.5833333333333334],horizontal,"(890.0, 762.0)",0.48333333333333334,0.544,1,8179.381,2,0.02,same
0,771,invalid_same_bar,"[(1159, 824)]",[],[1],[0.55],horizontal,"(390.0, 762.0)",0.8833333333333333,0.514,1,8184.574,2,0.02,same
0,772,invalid_same_bar,"[(1158, 792)]",[],[1],[0.6166666666666667],vertical,"(890.0, 762.0)",0.4166666666666667,0.573,1,8190.24,2,0.02,same
0,773,valid,"[(1166, 809)]",[],[1],[0.5333333333333333],horizontal,"(390.0, 262.0)",0.4166666666666667,0.497,1,8195.508,3,0.02,same
0,774,valid,"[(1165, 805)]",[],[1],[0.5333333333333333],horizontal,"(890.0, 262.0)",0.75,0.496,1,8200.839,3,0.02,same
0,775,invalid_adjacent_other_bar,"[(1158, 797)]",[],[1],[0.6],vertical,"(890.0, 262.0)",0.4166666666666667,0.556,1,8206.575,3,0.02,other
0,776,valid,"[(1159, 776)]",[],[1],[0.6],horizontal,"(890.0, 262.0)",0.5333333333333333,0.555,1,8211.849,3,0.02,same
0,777,valid,"[(1161, 798)]",[],[1],[0.6],horizontal,"(390.0, 762.0)",0.85,0.562,1,8217.24,3,0.02,same
0,778,invalid_adjacent_other_bar,"[(1177, 775)]",[],[1],[0.5333333333333333],vertical,"(390.0, 762.0)",0.5,0.494,1,8222.784,3,0.02,other
0,779,invalid_same_bar,"[(1160, 787)]",[],[1],[0.5833333333333334],vertical,"(390.0, 262.0)",0.65,0.54,1,8228.424,3,0.02,same
0,780,valid,"[(1165, 806)]",[],[1],[0.6166666666666667],vertical,"(390.0, 262.0)",1.3,0.572,1,8233.974,3,0.02,same
0,781,catch,"[(1178, 799)]",[],[1],[],horizontal,"(390.0, 262.0)",1.7,nan,1,8240.506,3,0.02,same
0,782,catch,"[(1180, 785)]",[],[1],[],vertical,"(890.0, 262.0)",1.7,nan,1,8246.346,3,0.02,same
0,783,catch,"[(1164, 810)]",[],[1],[],horizontal,"(390.0, 262.0)",1.7,nan,1,8252.523,3,0.02,same
0,784,catch,"[(1164, 786)]",[],[1],[],vertical,"(890.0, 262.0)",1.7,nan,1,8258.624,3,0.02,same
0,785,valid,"[(1165, 781)]",[],[1],[0.85],horizontal,"(390.0, 262.0)",1.1333333333333333,nan,0,8264.741,0,0.02,same
0,786,valid,"[(1145, 799)]",[],[1],[0.6666666666666666],horizontal,"(890.0, 762.0)",0.95,0.621,1,8269.606,1,0.02,same
0,787,valid,"[(1138, 784)]",[],[1],[0.6666666666666666],horizontal,"(390.0, 262.0)",1.0,0.625,1,8274.791,1,0.02,same
0,788,valid,"[(1165, 806)]",[],[1],[0.6666666666666666],horizontal,"(890.0, 262.0)",0.65,0.623,1,8279.831,1,0.02,same
0,789,valid,"[(1154, 778)]",[],[1],[0.6166666666666667],horizontal,"(890.0, 762.0)",1.45,0.576,1,8284.515,2,0.02,same
0,790,invalid_adjacent_other_bar,"[(1150, 787)]",[],[1],[0.85],vertical,"(390.0, 762.0)",0.8333333333333334,nan,0,8290.707,0,0.02,other
0,791,valid,"[(1152, 789)]",[],[1],[0.5666666666666667],vertical,"(890.0, 262.0)",0.6833333333333333,0.525,1,8295.448,1,0.02,same
0,792,valid,"[(1160, 786)]",[],[1],[0.7166666666666667],horizontal,"(390.0, 262.0)",1.45,0.673,1,8300.107,1,0.0,same
0,793,invalid_same_bar,"[(1165, 812)]",[],[1],[0.6166666666666667],vertical,"(390.0, 762.0)",1.15,0.578,1,8305.886,1,0.0,same
0,794,invalid_adjacent_other_bar,"[(1145, 806)]",[],[1],[0.55],horizontal,"(890.0, 262.0)",0.48333333333333334,0.515,1,8310.98,2,0.0,other
0,795,valid,"[(1181, 789)]",[],[1],[0.85],vertical,"(390.0, 262.0)",1.5,nan,0,8316.067,0,0.0,same
0,796,valid,"[(1150, 780)]",[],[1],[0.55],horizontal,"(390.0, 762.0)",1.3,0.51,1,8321.155,1,0.0,same
0,797,invalid_adjacent_other_bar,"[(1180, 779)]",[],[1],[0.85],vertical,"(890.0, 262.0)",0.7333333333333333,nan,0,8326.49,0,0.0,other
0,798,catch,"[(1145, 793)]",[],[1],[],horizontal,"(390.0, 262.0)",1.7,nan,1,8331.49,1,0.0,same
0,799,invalid_same_bar,"[(1163, 781)]",[],[1],[0.5666666666666667],horizontal,"(390.0, 262.0)",0.7333333333333333,0.525,1,8337.066,1,0.0,same
0,800,catch,"[(1158, 779)]",[],[1],[],horizontal,"(390.0, 262.0)",1.7,nan,1,8342.006,1,0.0,same
0,801,valid,"[(1160, 774)]",[],[1],[0.85],vertical,"(890.0, 262.0)",1.45,nan,0,8346.898,0,0.0,same
0,802,invalid_same_bar,"[(1139, 762)]",[],[1],[0.75],horizontal,"(890.0, 762.0)",0.9333333333333333,0.71,1,8352.34,1,0.0,same
0,803,valid,"[(1145, 802)]",[],[1],[0.6166666666666667],vertical,"(390.0, 262.0)",1.4833333333333334,0.576,1,8357.706,1,0.0,same
0,804,catch,"[(1168, 791)]",[],[1],[],vertical,"(390.0, 762.0)",1.7,nan,1,8363.641,1,0.0,same
0,805,catch,"[(1170, 791)]",[],[1],[],vertical,"(390.0, 262.0)",1.7,nan,1,8368.781,2,0.0,same
0,806,valid,"[(1154, 780)]",[],[1],[0.5333333333333333],horizontal,"(890.0, 762.0)",0.4,0.492,1,8374.307,2,0.0,same
0,807,valid,"[(1167, 775)]",[],[1],[0.55],horizontal,"(890.0, 262.0)",0.6666666666666666,0.505,1,8379.364,2,0.0,same
0,808,valid,"[(1161, 796)]",[],[1],[0.5333333333333333],horizontal,"(390.0, 262.0)",0.9,0.496,1,8384.767,2,0.0,same
0,809,valid,"[(1167, 789)]",[],[1],[0.6166666666666667],vertical,"(890.0, 262.0)",0.35,0.575,1,8390.086,3,0.0,same
0,810,catch,"[(1160, 780)]",[],[1],[],horizontal,"(390.0, 762.0)",1.7,nan,1,8395.591,3,0.0,same
0,811,valid,"[(1169, 785)]",[],[1],[0.65],vertical,"(390.0, 762.0)",1.1833333333333333,0.609,1,8401.73,3,0.0,same
0,812,invalid_adjacent_other_bar,"[(1090, 824)]",[],[1],[0.6],horizontal,"(390.0, 762.0)",0.7666666666666666,0.556,1,8407.709,3,0.0,other
0,813,catch,"[(1145, 786)]",[],[1],[],vertical,"(890.0, 762.0)",1.7,nan,1,8414.282,3,0.0,same
0,814,valid,"[(1176, 812)]",[],[1],[0.65],vertical,"(890.0, 762.0)",1.2,0.608,1,8420.298,3,0.0,same
0,815,valid,"[(1169, 799)]",[],[1],[0.8],vertical,"(890.0, 762.0)",1.0166666666666666,0.755,1,8426.292,3,0.0,same
0,816,catch,"[(1166, 813)]",[],[1],[],horizontal,"(390.0, 262.0)",1.7,nan,1,8432.308,3,0.0,same
0,817,catch,"[(1144, 776)]",[],[1],[],horizontal,"(390.0, 762.0)",1.7,nan,1,8438.475,3,0.0,same
0,818,valid,"[(1160, 792)]",[],[1],[0.6833333333333333],horizontal,"(390.0, 262.0)",0.9666666666666667,0.637,1,8444.71,3,0.0,same
0,819,invalid_adjacent_other_bar,"[(1160, 791)]",[],[1],[0.5333333333333333],horizontal,"(890.0, 762.0)",1.4166666666666667,0.491,1,8450.89,3,0.0,other
0,820,valid,"[(1148, 813)]",[],[1],[0.55],vertical,"(890.0, 762.0)",0.4166666666666667,0.505,1,8456.833,3,0.0,same
0,821,valid,"[(1142, 818)]",[],[1],[0.5333333333333333],horizontal,"(390.0, 262.0)",0.95,0.489,1,8461.969,3,0.0,same
0,822,invalid_same_bar,"[(1169, 808)]",[],[1],[0.85],horizontal,"(390.0, 762.0)",1.3333333333333333,nan,0,8467.398,0,0.0,same
0,823,catch,"[(1136, 801)]",[],[1],[],vertical,"(390.0, 262.0)",1.7,nan,1,8472.591,1,0.0,same
0,824,valid,"[(1140, 774)]",[],[1],[0.5333333333333333],vertical,"(890.0, 262.0)",0.5166666666666666,0.492,1,8478.108,1,0.0,same
0,825,catch,"[(1145, 811)]",[],[1],[],vertical,"(890.0, 762.0)",1.7,nan,1,8482.59,1,0.0,same
0,826,valid,"[(1164, 791)]",[],[1],[0.5833333333333334],vertical,"(890.0, 262.0)",0.75,0.543,1,8488.097,2,0.0,same
0,827,valid,"[(1162, 791)]",[],[1],[0.5833333333333334],horizontal,"(390.0, 762.0)",1.4666666666666666,0.542,1,8493.041,2,0.0,same
0,828,valid,"[(1165, 793)]",[],[1],[0.5833333333333334],horizontal,"(390.0, 762.0)",0.9833333333333333,0.543,1,8499.226,2,0.0,same
0,829,valid,"[(1165, 777)]",[],[1],[0.55],horizontal,"(890.0, 262.0)",1.2833333333333332,0.505,1,8504.843,2,0.0,same
0,830,valid,"[(1168, 799)]",[],[1],[0.6],horizontal,"(890.0, 762.0)",0.7166666666666667,0.559,1,8510.391,3,0.0,same
0,831,valid,"[(1137, 816)]",[],[1],[0.5166666666666666],vertical,"(890.0, 262.0)",0.4666666666666667,0.472,1,8516.758,3,0.0,same
0,832,invalid_adjacent_other_bar,"[(1155, 800)]",[],[1],[0.6166666666666667],vertical,"(390.0, 762.0)",0.5166666666666666,0.578,1,8521.88,3,0.0,other
0,833,valid,"[(1158, 799)]",[],[1],[0.5333333333333333],vertical,"(890.0, 762.0)",0.7833333333333333,0.495,1,8527.149,3,0.0,same
0,834,valid,"[(1165, 812)]",[],[1],[0.5333333333333333],horizontal,"(390.0, 262.0)",0.7333333333333333,0.494,1,8532.457,3,0.0,same
0,835,valid,"[(1165, 790)]",[],[1],[0.55],vertical,"(890.0, 762.0)",0.5166666666666666,0.509,1,8537.919,3,0.0,same
0,836,catch,"[(1161, 791)]",[],[1],[],vertical,"(390.0, 262.0)",1.7,nan,1,8543.675,3,0.0,same
0,837,valid,"[(1165, 814)]",[],[1],[0.5666666666666667],vertical,"(390.0, 262.0)",1.0666666666666667,0.533,1,8550.076,3,0.0,same
0,838,valid,"[(1165, 801)]",[],[1],[0.6],vertical,"(390.0, 762.0)",1.5166666666666666,0.563,1,8555.879,3,0.0,same
0,839,valid,"[(1115, 803)]",[],[1],[0.5833333333333334],horizontal,"(390.0, 262.0)",0.7666666666666666,0.54,1,8562.482,3,0.0,same
0,840,valid,"[(1162, 785)]",[],[1],[0.5166666666666666],vertical,"(890.0, 262.0)",0.9833333333333333,0.475,1,8568.425,3,0.0,same
0,841,invalid_same_bar,"[(1155, 798)]",[],[1],[0.6833333333333333],horizontal,"(890.0, 262.0)",0.85,0.643,1,8574.449,3,0.0,same
0,842,valid,"[(1137, 801)]",[],[1],[0.55],horizontal,"(890.0, 262.0)",0.6,0.512,1,8580.061,3,0.0,same
0,843,catch,"[(1167, 796)]",[],[1],[],horizontal,"(890.0, 262.0)",1.7,nan,1,8585.536,3,0.0,same
0,844,valid,"[(1164, 802)]",[],[1],[0.6],horizontal,"(390.0, 762.0)",0.7166666666666667,0.557,1,8591.757,3,0.0,same
0,845,catch,"[(1149, 797)]",[],[1],[],horizontal,"(890.0, 762.0)",1.7,nan,1,8597.426,3,0.0,same
0,846,catch,"[(1160, 774)]",[],[1],[],horizontal,"(890.0, 762.0)",1.7,nan,1,8603.291,3,0.0,same
0,847,valid,"[(1152, 771)]",[],[1],[0.5333333333333333],vertical,"(890.0, 262.0)",0.5333333333333333,0.492,1,8609.146,3,0.0,same
0,848,catch,"[(1125, 815)]",[],[1],[],vertical,"(890.0, 262.0)",1.7,nan,1,8615.34,3,0.0,same
0,849,valid,"[(1144, 791)]",[],[1],[0.55],vertical,"(890.0, 762.0)",1.1166666666666667,0.512,1,8621.827,3,0.0,same
0,850,invalid_same_bar,"[(1162, 796)]",[],[1],[0.5166666666666666],vertical,"(390.0, 762.0)",0.8666666666666667,0.474,1,8627.875,3,0.0,same
0,851,valid,"[(1165, 791)]",[],[1],[0.85],horizontal,"(890.0, 262.0)",0.8833333333333333,nan,0,8633.624,0,0.0,same
0,852,catch,"[(1095, 790)]",[],[1],[],vertical,"(890.0, 762.0)",1.7,nan,1,8638.379,1,0.0,same
0,853,valid,"[(1155, 791)]",[],[1],[],vertical,"(390.0, 762.0)",,"('fix', 0.164)",0,8644.104,0,0.0,same
0,854,valid,"[(1090, 822)]",[],[1],[0.6666666666666666],vertical,"(890.0, 762.0)",0.55,0.623,1,8645.578,1,0.0,same
0,855,valid,"[(1145, 821)]",[],[1],[0.6],horizontal,"(390.0, 762.0)",0.8,0.559,1,8656.01,1,0.0,same
0,856,invalid_adjacent_other_bar,"[(1165, 797)]",[],[1],[0.5666666666666667],vertical,"(890.0, 262.0)",1.15,0.525,1,8660.766,1,0.0,other
0,857,valid,"[(1147, 799)]",[],[1],[0.6],vertical,"(390.0, 262.0)",0.9833333333333333,0.559,1,8666.077,2,0.0,same
0,858,catch,"[(1145, 805)]",[],[1],[],vertical,"(890.0, 262.0)",1.7,nan,1,8671.282,2,0.0,same
