block,practice,trial,change_interval_s,change_interval_frames,taps_start_time_during_fix,taps_end_time_during_fix,taps_start_loc_during_fix,taps_end_loc_during_fix,taps_on_lever_during_fix,taps_on_lever_frame_during_fix,taps_on_lever_s_during_fix,fix_xy,bar_orientation,target_xy,cti,rt,acc,time
1,True,1,0.782,46,[],[],"[(1148, 986), (1098, 849)]",[],"[0, 1]",[49],[0.8166666666666667],"[640.0, 512.0]",vertical,"(890.0, 262.0)",[0.5],[0.773],1,0.357
1,True,2,0.735,44,[],[],"[(1111, 851)]",[],[1],[31],[0.5166666666666666],"[640.0, 512.0]",horizontal,"(890.0, 762.0)",[1.25],[0.472],1,87.484
1,True,3,0.888,53,[],[],"[(1079, 945)]",[],[1],[51],[0.85],"[640.0, 512.0]",vertical,"(390.0, 262.0)",[0.7333333333333333],[0.801],0,92.082
1,True,4,1.138,68,[],[],"[(687, 746), (971, 882), (903, 595), (1068, 961), (1138, 852)]",[],"[0, 0, 0, 0, 1]",[],[],"[640.0, 512.0]",horizontal,"(890.0, 762.0)",[],[0],0,100.8
1,False,1,0.526,31,[145333],[146927],"[(1116, 844), (909, 454)]","[(909, 454)]","[1, 0]",[28],[0.4666666666666667],"[640.0, 512.0]",vertical,"(890.0, 262.0)",[],[0],0,132.741
1,False,2,0.814,48,[],[],"[(1135, 837)]",[],[1],[31],[0.5166666666666666],"[640.0, 512.0]",horizontal,"(890.0, 262.0)",[1.5166666666666666],[0.472],1,138.502
1,False,3,0.915,54,[],[],"[(1096, 834)]",[],[1],[43],[0.7166666666666667],"[640.0, 512.0]",horizontal,"(890.0, 762.0)",[0.7666666666666666],[0.666],1,145.776
1,False,4,0.642,38,[],[],"[(1117, 987), (1074, 1012), (1087, 977), (1093, 956), (1129, 951), (670, 474), (546, 532), (1087, 969), (1199, 935)]",[],"[0, 0, 0, 0, 0, 0, 0, 0, 1]",[],[],"[640.0, 512.0]",vertical,"(390.0, 762.0)",[],[0],0,151.285
1,False,5,1.185,71,[],[],"[(1166, 943)]",[],[1],[9],[0.15],"[640.0, 512.0]",vertical,"(890.0, 262.0)",[1.0666666666666667],[0.121],1,195.257
1,False,6,0.908,54,[],[],"[(1166, 943)]",[],[1],[30],[0.5],"[640.0, 512.0]",horizontal,"(890.0, 262.0)",[1.4833333333333334],[0.459],1,199.658
1,False,7,0.902,54,[],[],"[(1160, 934)]",[],[1],[],[],"[640.0, 512.0]",horizontal,"(890.0, 262.0)",[],[0],0,204.771
1,False,8,0.937,56,[],[],"[(1117, 888)]",[],[1],[],[],"[640.0, 512.0]",horizontal,"(890.0, 262.0)",[],[0],0,208.166
1,False,9,1.025,61,[],[224403],"[(1166, 941)]","[(1087, 952)]",[1],[35],[0.5833333333333334],"[640.0, 512.0]",vertical,"(890.0, 262.0)",[],[0],0,212.86
1,False,10,0.557,33,[],[],"[(1166, 943)]",[],[1],[33],[0.55],"[640.0, 512.0]",vertical,"(890.0, 762.0)",[1.4],[0.508],1,215.969
1,False,11,0.996,59,[],[],"[(1176, 944)]",[],[1],[35],[0.5833333333333334],"[640.0, 512.0]",vertical,"(390.0, 262.0)",[0.5833333333333334],[0.535],1,220.765
1,False,12,1.004,60,[],[],"[(1147, 936)]",[],[1],[29],[0.48333333333333334],"[640.0, 512.0]",vertical,"(890.0, 762.0)",[0.95],[0.438],1,224.764
1,False,13,0.619,37,[],[],"[(1133, 949), (1080, 958), (1093, 960), (1128, 937)]",[],"[0, 0, 0, 1]",[51],[0.85],"[640.0, 512.0]",horizontal,"(890.0, 762.0)",[0.6166666666666667],[0.808],0,229.213
1,False,14,1.124,67,[],[],"[(1084, 943)]",[],[1],[17],[0.2833333333333333],"[640.0, 512.0]",vertical,"(890.0, 262.0)",[1.55],[0.248],1,238.749
1,False,15,1.083,64,[],[261301],"[(1090, 970), (1184, 971), (1178, 911)]","[(1082, 941)]","[0, 0, 1]",[18],[0.3],"[640.0, 512.0]",horizontal,"(390.0, 762.0)",[],[0],0,244.237
1,False,16,0.841,50,[],[],"[(1117, 944)]",[],[1],[34],[0.5666666666666667],"[640.0, 512.0]",vertical,"(390.0, 762.0)",[1.05],[0.527],1,252.863
1,False,17,0.859,51,[],[],"[(1117, 945)]",[],[1],[37],[0.6166666666666667],"[640.0, 512.0]",vertical,"(890.0, 762.0)",[1.0833333333333333],[0.574],1,257.33
1,False,18,0.599,35,[],[],"[(1074, 944)]",[],[1],[51],[0.85],"[640.0, 512.0]",vertical,"(890.0, 262.0)",[1.3166666666666667],[0.795],0,261.801
1,False,19,0.506,30,[],[],"[(1129, 939)]",[],[1],[38],[0.6333333333333333],"[640.0, 512.0]",vertical,"(890.0, 262.0)",[1.4166666666666667],[0.587],1,266.55
1,False,20,0.791,47,[],[],"[(1080, 971), (1092, 961), (1126, 945)]",[],"[0, 0, 1]",[51],[0.85],"[640.0, 512.0]",horizontal,"(890.0, 762.0)",[1.1166666666666667],[0.801],0,271.231
1,False,21,0.751,45,[],[],"[(1080, 971), (1095, 962), (1129, 931)]",[],"[0, 0, 1]",[32],[0.5333333333333333],"[640.0, 512.0]",horizontal,"(890.0, 262.0)",[0.9833333333333333],[0.494],1,280.473
1,False,22,0.576,34,[],[],"[(1160, 943)]",[],[1],[28],[0.4666666666666667],"[640.0, 512.0]",horizontal,"(390.0, 262.0)",[1.65],[0.427],1,294.176
1,False,23,0.95,57,[],[],"[(1160, 950), (1093, 943)]",[],"[0, 1]",[34],[0.5666666666666667],"[640.0, 512.0]",horizontal,"(890.0, 762.0)",[0.7],[0.532],1,298.829
1,False,24,0.745,44,[],[],"[(1209, 940)]",[],[1],[35],[0.5833333333333334],"[640.0, 512.0]",vertical,"(390.0, 262.0)",[0.5166666666666666],[0.543],1,304.44
1,False,25,0.673,40,[],[],"[(1221, 946)]",[],[1],[51],[0.85],"[640.0, 512.0]",vertical,"(390.0, 762.0)",[0.7666666666666666],[0.802],0,308.208
1,False,26,1.014,60,[],[],"[(1129, 940)]",[],[1],[35],[0.5833333333333334],"[640.0, 512.0]",vertical,"(890.0, 762.0)",[1.4333333333333333],[0.54],1,312.355
1,False,27,0.643,38,[],[],"[(1125, 949), (1177, 951), (1194, 969), (1184, 981), (1148, 933)]",[],"[0, 0, 0, 0, 1]",[],[],"[640.0, 512.0]",horizontal,"(890.0, 262.0)",[],[0],0,317.432
1,False,28,0.704,42,[],[],"[(1173, 967), (1198, 947)]",[],"[0, 1]",[],[],"[640.0, 512.0]",vertical,"(390.0, 262.0)",[],[0],0,330.655
1,False,29,0.734,44,[],[],"[(1172, 955), (1172, 940)]",[],"[0, 1]",[51],[0.85],"[640.0, 512.0]",horizontal,"(890.0, 762.0)",[0.85],"[0, 0.804]",0,335.93
1,False,30,0.777,46,[],[],"[(1177, 933)]",[],[1],[],[],"[640.0, 512.0]",horizontal,"(390.0, 762.0)",[],[0],0,344.76
1,False,31,1.126,67,[],[],"[(1166, 920)]",[],[1],[],[],"[640.0, 512.0]",horizontal,"(390.0, 762.0)",[],[0],0,348.29
1,False,32,1.047,62,[],[],"[(1148, 937)]",[],[1],[34],[0.5666666666666667],"[640.0, 512.0]",horizontal,"(390.0, 762.0)",[1.0],[0.526],1,352.534
1,False,33,0.565,33,[],[],"[(1091, 948), (1096, 951), (1166, 956), (1085, 981), (1078, 926)]",[],"[0, 0, 0, 0, 1]",[40],[0.6666666666666666],"[640.0, 512.0]",horizontal,"(890.0, 762.0)",[1.1333333333333333],[0.62],1,357.083
1,False,34,0.741,44,[],[],"[(1153, 943)]",[],[1],[33],[0.55],"[640.0, 512.0]",vertical,"(890.0, 262.0)",[0.5833333333333334],[0.508],1,366.271
1,False,35,0.5,30,[],[],"[(1136, 936)]",[],[1],[31],[0.5166666666666666],"[640.0, 512.0]",vertical,"(890.0, 762.0)",[0.8833333333333333],[0.475],1,370.157
1,False,36,0.918,55,[],[],"[(1129, 954), (1093, 955), (1092, 939)]",[],"[0, 0, 1]",[32],[0.5333333333333333],"[640.0, 512.0]",horizontal,"(390.0, 262.0)",[0.6166666666666667],[0.491],1,374.006
1,False,37,0.513,30,[],[],"[(1118, 935)]",[],[1],[32],[0.5333333333333333],"[640.0, 512.0]",horizontal,"(890.0, 762.0)",[1.65],[0.494],1,381.469
1,False,38,1.167,70,[],[],"[(1135, 944)]",[],[1],[47],[0.7833333333333333],"[640.0, 512.0]",vertical,"(390.0, 762.0)",[0.6666666666666666],[0.744],1,386.159
1,False,39,0.848,50,[],[],"[(1136, 953), (1120, 942)]",[],"[0, 1]",[32],[0.5333333333333333],"[640.0, 512.0]",horizontal,"(890.0, 262.0)",[0.9],[0.49],1,390.674
1,False,40,0.847,50,[],[],"[(1135, 931)]",[],[1],[34],[0.5666666666666667],"[640.0, 512.0]",horizontal,"(390.0, 762.0)",[1.5166666666666666],[0.525],1,396.22
1,False,41,1.087,65,[],[],"[(1096, 950), (1136, 928)]",[],"[0, 1]",[24],[0.4],"[640.0, 512.0]",horizontal,"(390.0, 262.0)",[1.4666666666666666],[0.359],1,401.088
1,False,42,0.853,51,[],[],"[(1080, 945)]",[],[1],[34],[0.5666666666666667],"[640.0, 512.0]",vertical,"(390.0, 762.0)",[1.0333333333333332],[0.527],1,408.289
1,False,43,0.94,56,[],[],"[(1117, 938)]",[],[1],[34],[0.5666666666666667],"[640.0, 512.0]",vertical,"(390.0, 762.0)",[1.0833333333333333],[0.53],1,412.892
1,False,44,0.719,43,[],[],"[(1135, 946)]",[],[1],[34],[0.5666666666666667],"[640.0, 512.0]",vertical,"(390.0, 762.0)",[1.2333333333333334],[0.528],1,417.428
1,False,45,1.056,63,[],[],"[(1074, 951), (1090, 955), (1080, 970), (1166, 933)]",[],"[0, 0, 0, 1]",[8],[0.13333333333333333],"[640.0, 512.0]",vertical,"(890.0, 262.0)",[1.6666666666666667],[0.099],1,421.81
1,False,46,0.822,49,[],[],"[(1091, 944)]",[],[1],[33],[0.55],"[640.0, 512.0]",vertical,"(890.0, 762.0)",[1.5666666666666667],[0.506],1,435.378
1,False,47,0.778,46,[],[],"[(1129, 938)]",[],[1],[33],[0.55],"[640.0, 512.0]",horizontal,"(890.0, 262.0)",[0.6833333333333333],[0.506],1,440.587
1,False,48,0.685,41,[],[],"[(1129, 931)]",[],[1],[33],[0.55],"[640.0, 512.0]",vertical,"(890.0, 762.0)",[0.65],[0.51],1,444.491
1,False,49,0.94,56,[],[],"[(1160, 947)]",[],[1],[32],[0.5333333333333333],"[640.0, 512.0]",horizontal,"(390.0, 262.0)",[0.5666666666666667],[0.493],1,448.325
1,False,50,0.612,36,[],[],"[(1129, 945)]",[],[1],[31],[0.5166666666666666],"[640.0, 512.0]",horizontal,"(890.0, 762.0)",[1.3833333333333333],[0.473],1,452.36
1,False,51,1.122,67,[],[],"[(1087, 946)]",[],[1],[32],[0.5333333333333333],"[640.0, 512.0]",horizontal,"(390.0, 262.0)",[0.6833333333333333],[0.5],1,456.81
1,False,52,0.522,31,[],[],"[(1105, 940)]",[],[1],[22],[0.36666666666666664],"[640.0, 512.0]",vertical,"(390.0, 262.0)",[1.65],[0.329],1,461.171
1,False,53,0.768,46,[],[],"[(1095, 952), (1160, 922)]",[],"[0, 1]",[22],[0.36666666666666664],"[640.0, 512.0]",vertical,"(390.0, 262.0)",[1.5666666666666667],[0.329],1,465.627
1,False,54,0.972,58,[],[],"[(1089, 945)]",[],[1],[33],[0.55],"[640.0, 512.0]",horizontal,"(890.0, 262.0)",[1.6166666666666667],[0.505],1,471.826
1,False,55,0.744,44,[],[],"[(1129, 930)]",[],[1],[33],[0.55],"[640.0, 512.0]",vertical,"(890.0, 262.0)",[0.8333333333333334],[0.512],1,476.991
1,False,56,0.739,44,[],[],"[(1135, 944)]",[],[1],[36],[0.6],"[640.0, 512.0]",vertical,"(890.0, 762.0)",[0.9333333333333333],[0.566],1,481.121
1,False,57,0.52,31,[],[],"[(1093, 948), (1190, 935)]",[],"[0, 1]",[46],[0.7666666666666666],"[640.0, 512.0]",vertical,"(890.0, 262.0)",[0.5166666666666666],[0.722],1,485.353
1,False,58,0.523,31,[],[],"[(1110, 938)]",[],[1],[31],[0.5166666666666666],"[640.0, 512.0]",vertical,"(890.0, 262.0)",[0.75],[0.48],1,490.459
1,False,59,0.799,47,[],[],"[(1129, 935)]",[],[1],[34],[0.5666666666666667],"[640.0, 512.0]",vertical,"(390.0, 262.0)",[0.7333333333333333],[0.522],1,494.292
1,False,60,1.038,62,[],[],"[(1129, 946)]",[],[1],[32],[0.5333333333333333],"[640.0, 512.0]",vertical,"(890.0, 262.0)",[0.9666666666666667],[0.488],1,498.41
2,False,61,1.066,63,[],[],"[(1064, 948), (1195, 927)]",[],"[0, 1]",[],[],"[640.0, 512.0]",horizontal,"(390.0, 762.0)",[],[0],0,502.788
2,False,62,0.553,33,[],[],"[(1181, 952), (1190, 932)]",[],"[0, 1]",[39],[0.65],"[640.0, 512.0]",vertical,"(890.0, 762.0)",[0.9666666666666667],[0.626],1,508.441
2,False,63,0.738,44,[],[],"[(1160, 929)]",[],[1],[33],[0.55],"[640.0, 512.0]",horizontal,"(390.0, 762.0)",[1.6666666666666667],[0.506],1,514.809
2,False,64,0.804,48,[],[],"[(1109, 930)]",[],[1],[27],[0.45],"[640.0, 512.0]",horizontal,"(390.0, 262.0)",[1.0166666666666666],[0.406],1,519.659
2,False,65,0.893,53,[],[],"[(1129, 940)]",[],[1],[33],[0.55],"[640.0, 512.0]",horizontal,"(390.0, 762.0)",[1.2166666666666666],[0.506],1,523.947
2,False,66,0.615,36,[],[],"[(1132, 928)]",[],[1],[40],[0.6666666666666666],"[640.0, 512.0]",horizontal,"(890.0, 762.0)",[1.5666666666666667],[0.625],1,528.459
2,False,67,0.586,35,[],[],"[(1123, 938)]",[],[1],[34],[0.5666666666666667],"[640.0, 512.0]",vertical,"(890.0, 762.0)",[0.9833333333333333],[0.525],1,533.334
2,False,68,0.802,48,[],[],"[(1129, 931)]",[],[1],[32],[0.5333333333333333],"[640.0, 512.0]",horizontal,"(890.0, 762.0)",[0.7166666666666667],[0.493],1,537.55
2,False,69,1.086,65,[],[],"[(1095, 939)]",[],[1],[33],[0.55],"[640.0, 512.0]",vertical,"(890.0, 262.0)",[0.8333333333333334],[0.509],1,541.498
2,False,70,0.944,56,[],[],"[(1115, 927)]",[],[1],[32],[0.5333333333333333],"[640.0, 512.0]",vertical,"(890.0, 262.0)",[0.6166666666666667],[0.494],1,545.886
2,False,71,0.535,32,[],[],"[(1093, 933)]",[],[1],[33],[0.55],"[640.0, 512.0]",horizontal,"(890.0, 762.0)",[1.55],[0.513],1,550.022
2,False,72,0.53,31,[],[],"[(1111, 928)]",[],[1],[33],[0.55],"[640.0, 512.0]",horizontal,"(390.0, 762.0)",[0.7],[0.505],1,554.686
2,False,73,0.989,59,[],[],"[(1097, 940)]",[],[1],[15],[0.25],"[640.0, 512.0]",vertical,"(390.0, 262.0)",[1.3],[0.218],1,558.466
2,False,74,1.024,61,[],[],"[(1133, 940)]",[],[1],[31],[0.5166666666666666],"[640.0, 512.0]",horizontal,"(890.0, 262.0)",[0.8833333333333333],[0.481],1,562.943
2,False,75,0.519,31,[],[],"[(1096, 949), (1093, 926)]",[],"[0, 1]",[34],[0.5666666666666667],"[640.0, 512.0]",horizontal,"(390.0, 762.0)",[0.9],[0.523],1,567.516
2,False,76,1.034,62,[],[],"[(1111, 930)]",[],[1],[25],[0.4166666666666667],"[640.0, 512.0]",horizontal,"(390.0, 262.0)",[1.3166666666666667],[0.377],1,573.004
2,False,77,1.086,65,[],[],"[(1129, 926)]",[],[1],[35],[0.5833333333333334],"[640.0, 512.0]",vertical,"(390.0, 762.0)",[0.7333333333333333],[0.538],1,577.66
2,False,78,1.188,71,[],[],"[(1133, 944)]",[],[1],[30],[0.5],"[640.0, 512.0]",horizontal,"(890.0, 262.0)",[1.6],[0.461],1,581.972
2,False,79,0.958,57,[],[],"[(1096, 929)]",[],[1],[31],[0.5166666666666666],"[640.0, 512.0]",vertical,"(390.0, 262.0)",[0.9333333333333333],[0.478],1,587.212
2,False,80,0.62,37,[],[],"[(1136, 928)]",[],[1],[33],[0.55],"[640.0, 512.0]",horizontal,"(390.0, 262.0)",[1.6166666666666667],[0.511],1,591.511
2,False,81,1.092,65,[],[],"[(1123, 934)]",[],[1],[33],[0.55],"[640.0, 512.0]",horizontal,"(890.0, 262.0)",[1.1166666666666667],[0.508],1,596.292
2,False,82,1.112,66,[],[],"[(1123, 933)]",[],[1],[33],[0.55],"[640.0, 512.0]",vertical,"(890.0, 762.0)",[1.6166666666666667],[0.505],1,600.894
2,False,83,0.738,44,[],[],"[(1123, 926)]",[],[1],[35],[0.5833333333333334],"[640.0, 512.0]",vertical,"(390.0, 762.0)",[0.7],[0.539],1,606.017
2,False,84,0.769,46,[],[],"[(1081, 923)]",[],[1],[33],[0.55],"[640.0, 512.0]",horizontal,"(890.0, 762.0)",[0.95],[0.507],1,609.894
2,False,85,0.637,38,[],[],"[(1123, 916)]",[],[1],[31],[0.5166666666666666],"[640.0, 512.0]",vertical,"(890.0, 262.0)",[1.5833333333333333],[0.479],1,614.01
2,False,86,0.528,31,[],[],"[(1093, 935)]",[],[1],[37],[0.6166666666666667],"[640.0, 512.0]",vertical,"(390.0, 262.0)",[0.8333333333333334],[0.576],1,618.692
2,False,87,0.905,54,[],[],"[(1123, 926)]",[],[1],[32],[0.5333333333333333],"[640.0, 512.0]",vertical,"(390.0, 262.0)",[1.2833333333333332],[0.495],1,622.561
2,False,88,1.068,64,[],[],"[(1148, 931)]",[],[1],[31],[0.5166666666666666],"[640.0, 512.0]",horizontal,"(390.0, 262.0)",[1.3833333333333333],[0.481],1,627.255
2,False,89,0.896,53,[],[],"[(1153, 948), (1190, 925)]",[],"[0, 1]",[32],[0.5333333333333333],"[640.0, 512.0]",horizontal,"(390.0, 262.0)",[1.6666666666666667],[0.492],1,632.093
2,False,90,0.747,44,[],[],"[(1093, 953), (1093, 932)]",[],"[0, 1]",[35],[0.5833333333333334],"[640.0, 512.0]",vertical,"(890.0, 262.0)",[1.2],[0.544],1,638.317
2,False,91,1.099,65,[],[],"[(1123, 927)]",[],[1],[],[],"[640.0, 512.0]",horizontal,"(390.0, 262.0)",[],[0],0,655.188
2,False,92,0.532,31,[],[],"[(1151, 920)]",[],[1],[32],[0.5333333333333333],"[640.0, 512.0]",horizontal,"(390.0, 762.0)",[0.85],[0.492],1,659.938
2,False,93,0.837,50,[],[],"[(1123, 919)]",[],[1],[34],[0.5666666666666667],"[640.0, 512.0]",vertical,"(390.0, 762.0)",[1.2666666666666666],[0.531],1,663.977
2,False,94,1.131,67,[],[],"[(1099, 931)]",[],[1],[33],[0.55],"[640.0, 512.0]",horizontal,"(390.0, 762.0)",[1.2833333333333332],[0.502],1,670.459
2,False,95,1.046,62,[],[],"[(1129, 925)]",[],[1],[33],[0.55],"[640.0, 512.0]",vertical,"(890.0, 762.0)",[0.8333333333333334],[0.511],1,675.426
2,False,96,0.74,44,[],[],"[(1123, 939)]",[],[1],[31],[0.5166666666666666],"[640.0, 512.0]",horizontal,"(890.0, 262.0)",[1.5333333333333332],[0.473],1,679.907
2,False,97,0.999,59,[],[],"[(1093, 923)]",[],[1],[34],[0.5666666666666667],"[640.0, 512.0]",vertical,"(890.0, 762.0)",[1.0333333333333332],[0.528],1,684.694
2,False,98,0.983,58,[],[],"[(1114, 922)]",[],[1],[36],[0.6],"[640.0, 512.0]",horizontal,"(890.0, 262.0)",[1.0333333333333332],[0.57],1,689.353
2,False,99,0.792,47,[],[],"[(1093, 932)]",[],[1],[33],[0.55],"[640.0, 512.0]",vertical,"(390.0, 262.0)",[1.3333333333333333],[0.506],1,693.86
2,False,100,0.667,40,[],[],"[(1093, 925)]",[],[1],[32],[0.5333333333333333],"[640.0, 512.0]",horizontal,"(890.0, 262.0)",[1.0666666666666667],[0.489],1,698.402
2,False,101,1.119,67,[],[],"[(1098, 936)]",[],[1],[34],[0.5666666666666667],"[640.0, 512.0]",vertical,"(390.0, 762.0)",[1.2333333333333334],[0.525],1,702.6
2,False,102,0.516,30,[],[],"[(1099, 929)]",[],[1],[32],[0.5333333333333333],"[640.0, 512.0]",vertical,"(890.0, 262.0)",[1.2666666666666666],[0.499],1,707.501
2,False,103,0.858,51,[],[],"[(1129, 939)]",[],[1],[35],[0.5833333333333334],"[640.0, 512.0]",vertical,"(890.0, 262.0)",[1.1333333333333333],[0.545],1,711.656
2,False,104,1.053,63,[],[],"[(1123, 931)]",[],[1],[30],[0.5],"[640.0, 512.0]",horizontal,"(390.0, 262.0)",[1.35],[0.457],1,716.087
2,False,105,1.068,64,[],[],"[(1109, 922)]",[],[1],[36],[0.6],"[640.0, 512.0]",vertical,"(390.0, 262.0)",[0.65],[0.56],1,720.895
2,False,106,1.014,60,[],[],"[(1117, 930)]",[],[1],[39],[0.65],"[640.0, 512.0]",horizontal,"(890.0, 262.0)",[0.5333333333333333],[0.605],1,725.227
2,False,107,1.036,62,[],[],"[(1135, 927)]",[],[1],[39],[0.65],"[640.0, 512.0]",horizontal,"(890.0, 762.0)",[1.1333333333333333],[0.615],1,729.328
2,False,108,0.6,36,[],[],"[(1059, 931)]",[],[1],[34],[0.5666666666666667],"[640.0, 512.0]",horizontal,"(390.0, 762.0)",[0.8833333333333333],[0.529],1,734.077
2,False,109,0.618,37,[],[],"[(1129, 927)]",[],[1],[33],[0.55],"[640.0, 512.0]",vertical,"(390.0, 262.0)",[0.9166666666666666],[0.509],1,738.174
2,False,110,0.9,54,[],[],"[(1116, 945)]",[],[1],[37],[0.6166666666666667],"[640.0, 512.0]",vertical,"(890.0, 762.0)",[0.8833333333333333],[0.579],1,742.151
2,False,111,0.851,51,[],[],"[(1097, 925)]",[],[1],[35],[0.5833333333333334],"[640.0, 512.0]",horizontal,"(390.0, 762.0)",[1.1166666666666667],[0.539],1,746.487
2,False,112,0.977,58,[],[],"[(1093, 934)]",[],[1],[35],[0.5833333333333334],"[640.0, 512.0]",vertical,"(390.0, 762.0)",[0.8666666666666667],[0.54],1,750.956
2,False,113,1.189,71,[],[],"[(1097, 932)]",[],[1],[32],[0.5333333333333333],"[640.0, 512.0]",horizontal,"(890.0, 762.0)",[1.6833333333333333],[0.49],1,755.226
2,False,114,1.152,69,[],[],"[(1123, 918)]",[],[1],[37],[0.6166666666666667],"[640.0, 512.0]",vertical,"(390.0, 762.0)",[0.5],[0.572],1,760.456
2,False,115,0.932,55,[],[],"[(1080, 914)]",[],[1],[35],[0.5833333333333334],"[640.0, 512.0]",vertical,"(390.0, 762.0)",[1.3833333333333333],[0.545],1,764.623
2,False,116,0.988,59,[],[],"[(1093, 930)]",[],[1],[31],[0.5166666666666666],"[640.0, 512.0]",horizontal,"(390.0, 262.0)",[1.1166666666666667],[0.474],1,769.378
2,False,117,0.502,30,[],[],"[(1129, 936)]",[],[1],[33],[0.55],"[640.0, 512.0]",horizontal,"(390.0, 762.0)",[1.1333333333333333],[0.509],1,773.891
2,False,118,0.629,37,[],[],"[(1093, 929)]",[],[1],[32],[0.5333333333333333],"[640.0, 512.0]",vertical,"(890.0, 262.0)",[1.6166666666666667],[0.494],1,778.021
2,False,119,1.171,70,[],[],"[(1135, 940)]",[],[1],[34],[0.5666666666666667],"[640.0, 512.0]",vertical,"(890.0, 262.0)",[1.3833333333333333],[0.526],1,782.692
2,False,120,0.884,53,[],[],"[(1136, 932)]",[],[1],[32],[0.5333333333333333],"[640.0, 512.0]",horizontal,"(390.0, 262.0)",[0.6833333333333333],[0.491],1,787.722
3,False,121,0.607,36,[],[],"[(1129, 922)]",[],[1],[32],[0.5333333333333333],"[640.0, 512.0]",horizontal,"(890.0, 762.0)",[1.6833333333333333],[0.495],1,791.81
3,False,122,0.571,34,[],[],"[(1091, 925)]",[],[1],[33],[0.55],"[640.0, 512.0]",vertical,"(390.0, 262.0)",[0.6166666666666667],[0.514],1,796.491
3,False,123,1.042,62,[],[],"[(1099, 932)]",[],[1],[33],[0.55],"[640.0, 512.0]",vertical,"(390.0, 762.0)",[1.45],[0.509],1,800.244
3,False,124,1.1,66,[],[],"[(1109, 923)]",[],[1],[32],[0.5333333333333333],"[640.0, 512.0]",vertical,"(390.0, 762.0)",[1.6333333333333333],[0.498],1,805.188
3,False,125,0.509,30,[],[],"[(1135, 935)]",[],[1],[37],[0.6166666666666667],"[640.0, 512.0]",horizontal,"(890.0, 762.0)",[0.85],[0.588],1,810.288
3,False,126,0.863,51,[],[],"[(1129, 935)]",[],[1],[33],[0.55],"[640.0, 512.0]",horizontal,"(390.0, 762.0)",[1.45],[0.507],1,814.287
3,False,127,0.62,37,[],[],"[(1085, 926)]",[],[1],[32],[0.5333333333333333],"[640.0, 512.0]",vertical,"(390.0, 262.0)",[0.5833333333333334],[0.493],1,819.109
3,False,128,0.905,54,[],[],"[(1093, 929)]",[],[1],[32],[0.5333333333333333],"[640.0, 512.0]",vertical,"(390.0, 762.0)",[1.35],[0.496],1,822.85
3,False,129,1.103,66,[],[],"[(1098, 937)]",[],[1],[34],[0.5666666666666667],"[640.0, 512.0]",vertical,"(390.0, 262.0)",[0.6166666666666667],[0.534],1,827.567
3,False,130,1.117,67,[],[],"[(1123, 938)]",[],[1],[31],[0.5166666666666666],"[640.0, 512.0]",horizontal,"(890.0, 762.0)",[1.3833333333333333],[0.477],1,831.923
3,False,131,0.995,59,[],[],"[(1093, 921)]",[],[1],[],[],"[640.0, 512.0]",vertical,"(890.0, 262.0)",[],[0],0,836.854
3,False,132,0.629,37,[],[],"[(1104, 918)]",[],[1],[37],[0.6166666666666667],"[640.0, 512.0]",vertical,"(890.0, 762.0)",[1.0166666666666666],[0.577],1,840.746
3,False,133,0.763,45,[],[],"[(1098, 914)]",[],[1],[31],[0.5166666666666666],"[640.0, 512.0]",horizontal,"(890.0, 262.0)",[0.75],[0.477],1,845.004
3,False,134,0.51,30,[],[],"[(1123, 917)]",[],[1],[34],[0.5666666666666667],"[640.0, 512.0]",vertical,"(390.0, 762.0)",[0.9666666666666667],[0.522],1,849.026
3,False,135,1.082,64,[],[],"[(1123, 922)]",[],[1],[31],[0.5166666666666666],"[640.0, 512.0]",vertical,"(390.0, 262.0)",[1.3],[0.487],1,853.053
3,False,136,0.838,50,[],[],"[(1114, 927)]",[],[1],[33],[0.55],"[640.0, 512.0]",vertical,"(890.0, 262.0)",[1.25],[0.509],1,857.807
3,False,137,0.891,53,[],[],"[(1111, 917)]",[],[1],[33],[0.55],"[640.0, 512.0]",vertical,"(890.0, 762.0)",[1.6166666666666667],[0.51],1,862.449
3,False,138,1.026,61,[],[],"[(1093, 919)]",[],[1],[35],[0.5833333333333334],"[640.0, 512.0]",horizontal,"(390.0, 262.0)",[1.0666666666666667],[0.542],1,867.469
3,False,139,0.754,45,[],[],"[(1093, 922)]",[],[1],[37],[0.6166666666666667],"[640.0, 512.0]",vertical,"(890.0, 762.0)",[1.55],[0.571],1,872.102
3,False,140,0.931,55,[],[],"[(1097, 919)]",[],[1],[18],[0.3],"[640.0, 512.0]",horizontal,"(890.0, 262.0)",[1.45],[0.263],1,876.977
3,False,141,1.056,63,[],[],"[(1129, 923)]",[],[1],[33],[0.55],"[640.0, 512.0]",horizontal,"(890.0, 762.0)",[1.1666666666666667],[0.512],1,881.573
3,False,142,0.777,46,[],[],"[(1117, 916)]",[],[1],[35],[0.5833333333333334],"[640.0, 512.0]",vertical,"(390.0, 762.0)",[1.15],[0.54],1,886.206
3,False,143,1.075,64,[],[],"[(1123, 938)]",[],[1],[36],[0.6],"[640.0, 512.0]",horizontal,"(390.0, 762.0)",[0.65],[0.559],1,890.64
3,False,144,1.083,64,[],[],"[(1098, 919)]",[],[1],[33],[0.55],"[640.0, 512.0]",vertical,"(390.0, 762.0)",[1.0333333333333332],[0.517],1,894.994
3,False,145,1.117,67,[],[],"[(1129, 938)]",[],[1],[26],[0.43333333333333335],"[640.0, 512.0]",horizontal,"(390.0, 262.0)",[1.2166666666666666],[0.398],1,899.708
3,False,146,0.529,31,[],[],"[(1108, 914)]",[],[1],[39],[0.65],"[640.0, 512.0]",horizontal,"(890.0, 762.0)",[0.8],[0.607],1,904.476
3,False,147,0.608,36,[],[],"[(1074, 929)]",[],[1],[33],[0.55],"[640.0, 512.0]",vertical,"(890.0, 762.0)",[0.9833333333333333],[0.507],1,908.376
3,False,148,1.045,62,[],[],"[(1099, 922)]",[],[1],[33],[0.55],"[640.0, 512.0]",vertical,"(390.0, 262.0)",[0.9666666666666667],[0.511],1,912.488
3,False,149,1.147,68,[],[],"[(1074, 933)]",[],[1],[34],[0.5666666666666667],"[640.0, 512.0]",vertical,"(890.0, 762.0)",[0.9],[0.528],1,916.945
3,False,150,0.982,58,[],[],"[(1123, 925)]",[],[1],[33],[0.55],"[640.0, 512.0]",vertical,"(890.0, 262.0)",[1.1166666666666667],[0.514],1,921.415
3,False,151,0.628,37,[],[],"[(1099, 932)]",[],[1],[35],[0.5833333333333334],"[640.0, 512.0]",vertical,"(390.0, 262.0)",[1.0833333333333333],[0.542],1,925.984
3,False,152,0.644,38,[],[],"[(1114, 925)]",[],[1],[36],[0.6],"[640.0, 512.0]",vertical,"(890.0, 762.0)",[1.5166666666666666],[0.556],1,930.142
3,False,153,0.741,44,[],[],"[(1093, 924)]",[],[1],[38],[0.6333333333333333],"[640.0, 512.0]",vertical,"(390.0, 762.0)",[1.0166666666666666],[0.588],1,934.932
3,False,154,0.605,36,[],[],"[(1093, 916)]",[],[1],[31],[0.5166666666666666],"[640.0, 512.0]",horizontal,"(890.0, 262.0)",[1.5166666666666666],[0.478],1,939.322
3,False,155,0.834,50,[],[],"[(1123, 931)]",[],[1],[35],[0.5833333333333334],"[640.0, 512.0]",vertical,"(890.0, 262.0)",[0.9666666666666667],[0.538],1,943.926
3,False,156,1.136,68,[],[],"[(1093, 920)]",[],[1],[31],[0.5166666666666666],"[640.0, 512.0]",vertical,"(390.0, 262.0)",[0.8666666666666667],[0.484],1,948.236
3,False,157,0.864,51,[],[],"[(1129, 925)]",[],[1],[30],[0.5],"[640.0, 512.0]",horizontal,"(390.0, 262.0)",[0.8666666666666667],[0.46],1,952.755
3,False,158,0.814,48,[],[],"[(1136, 923)]",[],[1],[37],[0.6166666666666667],"[640.0, 512.0]",horizontal,"(890.0, 262.0)",[1.0666666666666667],[0.576],1,956.958
3,False,159,0.805,48,[],[],"[(1093, 932)]",[],[1],[20],[0.3333333333333333],"[640.0, 512.0]",vertical,"(390.0, 262.0)",[1.3166666666666667],[0.294],1,961.455
3,False,160,0.504,30,[],[],"[(1099, 922)]",[],[1],[40],[0.6666666666666666],"[640.0, 512.0]",vertical,"(390.0, 762.0)",[0.5666666666666667],[0.625],1,965.876
3,False,161,0.949,56,[],[],"[(1093, 925)]",[],[1],[31],[0.5166666666666666],"[640.0, 512.0]",horizontal,"(890.0, 262.0)",[1.55],[0.477],1,969.592
3,False,162,0.567,34,[],[],"[(1135, 920)]",[],[1],[35],[0.5833333333333334],"[640.0, 512.0]",vertical,"(390.0, 262.0)",[0.9833333333333333],[0.544],1,974.456
3,False,163,0.724,43,[],[],"[(1129, 932)]",[],[1],[35],[0.5833333333333334],"[640.0, 512.0]",horizontal,"(890.0, 262.0)",[0.9],[0.541],1,978.538
3,False,164,0.638,38,[],[],"[(1123, 925)]",[],[1],[34],[0.5666666666666667],"[640.0, 512.0]",vertical,"(890.0, 762.0)",[0.9],[0.523],1,985.956
3,False,165,0.869,52,[],[],"[(1092, 924)]",[],[1],[38],[0.6333333333333333],"[640.0, 512.0]",horizontal,"(390.0, 262.0)",[1.4],[0.6],1,990.024
3,False,166,0.984,59,[],[],"[(1097, 927)]",[],[1],[],[],"[640.0, 512.0]",horizontal,"(390.0, 262.0)",[],[0],0,994.823
3,False,167,1.075,64,[],[],"[(1129, 922)]",[],[1],[40],[0.6666666666666666],"[640.0, 512.0]",horizontal,"(890.0, 262.0)",[1.1],[0.624],1,999.161
3,False,168,0.666,39,[],[],"[(1070, 933)]",[],[1],[34],[0.5666666666666667],"[640.0, 512.0]",horizontal,"(890.0, 762.0)",[1.3],[0.522],1,1004.292
3,False,169,1.002,60,[],[],"[(1068, 928)]",[],[1],[39],[0.65],"[640.0, 512.0]",vertical,"(890.0, 762.0)",[1.6666666666666667],[0.608],1,1008.695
3,False,170,0.733,43,[],[],"[(1099, 938)]",[],[1],[33],[0.55],"[640.0, 512.0]",horizontal,"(390.0, 762.0)",[1.2666666666666666],[0.514],1,1013.994
3,False,171,1.2,72,[],[],"[(1093, 924)]",[],[1],[30],[0.5],"[640.0, 512.0]",vertical,"(390.0, 262.0)",[0.7833333333333333],[0.461],1,1018.595
3,False,172,0.624,37,[],[],"[(1075, 924)]",[],[1],[23],[0.3833333333333333],"[640.0, 512.0]",horizontal,"(390.0, 262.0)",[1.2166666666666666],[0.342],1,1023.075
3,False,173,1.006,60,[],[],"[(1074, 925)]",[],[1],[40],[0.6666666666666666],"[640.0, 512.0]",vertical,"(890.0, 762.0)",[1.5],[0.623],1,1027.328
3,False,174,0.717,43,[],[],"[(1093, 920)]",[],[1],[38],[0.6333333333333333],"[640.0, 512.0]",vertical,"(390.0, 762.0)",[0.9166666666666666],[0.59],1,1032.36
3,False,175,0.988,59,[],[],"[(1093, 924)]",[],[1],[32],[0.5333333333333333],"[640.0, 512.0]",vertical,"(390.0, 262.0)",[0.85],[0.492],1,1036.695
3,False,176,1.077,64,[],[],"[(1056, 926)]",[],[1],[39],[0.65],"[640.0, 512.0]",vertical,"(390.0, 762.0)",[0.5666666666666667],[0.608],1,1041.008
3,False,177,1.012,60,[],[],"[(1093, 933)]",[],[1],[],[],"[640.0, 512.0]",vertical,"(390.0, 262.0)",[],[0],0,1045.274
3,False,178,0.561,33,[],[],"[(1098, 938)]",[],[1],[33],[0.55],"[640.0, 512.0]",vertical,"(390.0, 762.0)",[1.3666666666666667],[0.52],1,1049.638
3,False,179,0.709,42,[],[],"[(1133, 915)]",[],[1],[35],[0.5833333333333334],"[640.0, 512.0]",horizontal,"(890.0, 762.0)",[1.6166666666666667],[0.545],1,1054.292
3,False,180,0.852,51,[],[],"[(1116, 927)]",[],[1],[33],[0.55],"[640.0, 512.0]",vertical,"(890.0, 262.0)",[1.1166666666666667],[0.506],1,1059.039
4,False,181,1.16,69,[],[],"[(1129, 920)]",[],[1],[36],[0.6],"[640.0, 512.0]",vertical,"(390.0, 762.0)",[1.5166666666666666],[0.559],1,1063.454
4,False,182,1.081,64,[],[],"[(1080, 925)]",[],[1],[33],[0.55],"[640.0, 512.0]",vertical,"(390.0, 762.0)",[1.1666666666666667],[0.512],1,1068.579
4,False,183,0.577,34,[],[],"[(1093, 928)]",[],[1],[35],[0.5833333333333334],"[640.0, 512.0]",vertical,"(390.0, 762.0)",[0.6333333333333333],[0.536],1,1073.275
4,False,184,0.874,52,[],[],"[(1093, 922)]",[],[1],[32],[0.5333333333333333],"[640.0, 512.0]",horizontal,"(390.0, 262.0)",[1.4666666666666666],[0.494],1,1077.072
4,False,185,0.537,32,[],[],"[(1093, 912)]",[],[1],[39],[0.65],"[640.0, 512.0]",vertical,"(390.0, 762.0)",[0.75],[0.607],1,1081.783
4,False,186,0.803,48,[],[],"[(1096, 913)]",[],[1],[33],[0.55],"[640.0, 512.0]",horizontal,"(390.0, 762.0)",[0.8333333333333334],[0.507],1,1085.732
4,False,187,0.924,55,[],[],"[(1093, 936)]",[],[1],[34],[0.5666666666666667],"[640.0, 512.0]",vertical,"(890.0, 762.0)",[1.05],[0.527],1,1089.912
4,False,188,1.163,69,[],[],"[(1123, 914)]",[],[1],[34],[0.5666666666666667],"[640.0, 512.0]",vertical,"(890.0, 762.0)",[0.7333333333333333],[0.526],1,1094.437
4,False,189,0.517,31,[],[],"[(1089, 911)]",[],[1],[40],[0.6666666666666666],"[640.0, 512.0]",vertical,"(890.0, 762.0)",[1.25],[0.621],1,1098.899
4,False,190,0.964,57,[],[],"[(1093, 915)]",[],[1],[34],[0.5666666666666667],"[640.0, 512.0]",vertical,"(390.0, 762.0)",[1.1833333333333333],[0.525],1,1103.319
4,False,191,1.052,63,[],[],"[(1098, 930)]",[],[1],[30],[0.5],"[640.0, 512.0]",horizontal,"(390.0, 262.0)",[0.6666666666666666],[0.461],1,1107.891
4,False,192,0.633,37,[],[],"[(1119, 920)]",[],[1],[34],[0.5666666666666667],"[640.0, 512.0]",horizontal,"(890.0, 762.0)",[0.9333333333333333],[0.529],1,1112.029
4,False,193,1.03,61,[],[],"[(1054, 913)]",[],[1],[33],[0.55],"[640.0, 512.0]",horizontal,"(390.0, 262.0)",[0.8166666666666667],[0.507],1,1116.229
4,False,194,0.851,51,[],[],"[(1104, 920)]",[],[1],[33],[0.55],"[640.0, 512.0]",vertical,"(890.0, 762.0)",[0.7166666666666667],[0.505],1,1120.695
4,False,195,0.757,45,[],[],"[(1090, 912)]",[],[1],[33],[0.55],"[640.0, 512.0]",horizontal,"(890.0, 762.0)",[0.95],[0.513],1,1124.69
4,False,196,1.186,71,[],[],"[(1095, 911)]",[],[1],[34],[0.5666666666666667],"[640.0, 512.0]",vertical,"(890.0, 762.0)",[1.2166666666666666],[0.525],1,1128.942
4,False,197,0.97,58,[],[],"[(1123, 927)]",[],[1],[35],[0.5833333333333334],"[640.0, 512.0]",vertical,"(390.0, 262.0)",[0.7666666666666666],[0.539],1,1133.812
4,False,198,1.079,64,[],[],"[(1117, 934)]",[],[1],[33],[0.55],"[640.0, 512.0]",horizontal,"(390.0, 762.0)",[1.0666666666666667],[0.515],1,1138.027
4,False,199,0.714,42,[],[],"[(1136, 937)]",[],[1],[28],[0.4666666666666667],"[640.0, 512.0]",vertical,"(890.0, 262.0)",[1.45],[0.43],1,1142.712
4,False,200,0.501,30,[],[],"[(1073, 928)]",[],[1],[31],[0.5166666666666666],"[640.0, 512.0]",horizontal,"(890.0, 262.0)",[1.45],[0.477],1,1147.232
4,False,201,0.929,55,[],[],"[(1093, 926)]",[],[1],[35],[0.5833333333333334],"[640.0, 512.0]",horizontal,"(390.0, 762.0)",[0.5833333333333334],[0.542],1,1151.639
4,False,202,0.554,33,[],[],"[(1093, 910)]",[],[1],[34],[0.5666666666666667],"[640.0, 512.0]",horizontal,"(390.0, 262.0)",[1.4833333333333334],[0.525],1,1155.687
4,False,203,0.642,38,[],[],"[(1113, 936)]",[],[1],[30],[0.5],"[640.0, 512.0]",vertical,"(890.0, 262.0)",[0.7166666666666667],[0.461],1,1160.292
4,False,204,0.731,43,[],[],"[(1087, 928)]",[],[1],[33],[0.55],"[640.0, 512.0]",horizontal,"(890.0, 262.0)",[1.6666666666666667],[0.509],1,1164.026
4,False,205,0.733,43,[],[],"[(1096, 941)]",[],[1],[26],[0.43333333333333335],"[640.0, 512.0]",horizontal,"(890.0, 762.0)",[0.95],[0.395],1,1168.906
4,False,206,0.737,44,[],[],"[(1093, 895)]",[],[1],[34],[0.5666666666666667],"[640.0, 512.0]",horizontal,"(390.0, 762.0)",[1.1833333333333333],[0.523],1,1172.939
4,False,207,1.105,66,[],[],"[(1103, 938)]",[],[1],[32],[0.5333333333333333],"[640.0, 512.0]",vertical,"(390.0, 762.0)",[0.7333333333333333],[0.496],1,1177.425
4,False,208,1.175,70,[],[],"[(1116, 919)]",[],[1],[36],[0.6],"[640.0, 512.0]",horizontal,"(890.0, 262.0)",[1.3666666666666667],[0.554],1,1181.758
4,False,209,0.739,44,[],[],"[(1093, 936)]",[],[1],[31],[0.5166666666666666],"[640.0, 512.0]",vertical,"(390.0, 262.0)",[1.3666666666666667],[0.475],1,1186.883
4,False,210,0.785,47,[],[],"[(1105, 927)]",[],[1],[35],[0.5833333333333334],"[640.0, 512.0]",horizontal,"(390.0, 262.0)",[1.2166666666666666],[0.538],1,1191.474
4,False,211,1.026,61,[],[],"[(1123, 913)]",[],[1],[31],[0.5166666666666666],"[640.0, 512.0]",horizontal,"(390.0, 262.0)",[1.5],[0.475],1,1196.061
4,False,212,0.515,30,[],[],"[(1123, 915)]",[],[1],[33],[0.55],"[640.0, 512.0]",horizontal,"(890.0, 262.0)",[1.35],[0.506],1,1200.995
4,False,213,1.037,62,[],[],"[(1117, 923)]",[],[1],[38],[0.6333333333333333],"[640.0, 512.0]",horizontal,"(890.0, 762.0)",[1.0833333333333333],[0.588],1,1205.359
4,False,214,0.55,33,[],[],"[(1142, 915)]",[],[1],[34],[0.5666666666666667],"[640.0, 512.0]",horizontal,"(390.0, 762.0)",[1.5333333333333332],[0.527],1,1210.18
4,False,215,0.83,49,[],[],"[(1095, 915)]",[],[1],[33],[0.55],"[640.0, 512.0]",horizontal,"(390.0, 262.0)",[1.2],[0.509],1,1214.763
4,False,216,0.512,30,[],[],"[(1093, 924)]",[],[1],[35],[0.5833333333333334],"[640.0, 512.0]",vertical,"(390.0, 762.0)",[1.4166666666666667],[0.543],1,1219.284
4,False,217,0.871,52,[],[],"[(1116, 922)]",[],[1],[32],[0.5333333333333333],"[640.0, 512.0]",horizontal,"(390.0, 762.0)",[1.45],[0.487],1,1223.86
4,False,218,1.144,68,[],[],"[(1097, 918)]",[],[1],[42],[0.7],"[640.0, 512.0]",vertical,"(390.0, 262.0)",[0.6333333333333333],[0.657],1,1228.741
4,False,219,0.83,49,[],[],"[(1117, 914)]",[],[1],[34],[0.5666666666666667],"[640.0, 512.0]",vertical,"(390.0, 762.0)",[0.5333333333333333],[0.522],1,1233.232
4,False,220,1.141,68,[],[],"[(1095, 918)]",[],[1],[34],[0.5666666666666667],"[640.0, 512.0]",horizontal,"(390.0, 762.0)",[1.2666666666666666],[0.524],1,1237.243
4,False,221,0.661,39,[],[],"[(1093, 915)]",[],[1],[33],[0.55],"[640.0, 512.0]",horizontal,"(390.0, 262.0)",[1.1166666666666667],[0.512],1,1242.257
4,False,222,0.928,55,[],[],"[(1058, 972), (1203, 939)]",[],"[0, 1]",[],[],"[640.0, 512.0]",horizontal,"(890.0, 262.0)",[],[0],0,1246.441
4,False,223,0.913,54,[],[],"[(1093, 948), (1139, 910)]",[],"[0, 1]",[34],[0.5666666666666667],"[640.0, 512.0]",vertical,"(390.0, 762.0)",[0.75],[0.525],1,1251.651
4,False,224,1.086,65,[],[],"[(1101, 923)]",[],[1],[32],[0.5333333333333333],"[640.0, 512.0]",vertical,"(890.0, 262.0)",[1.15],[0.49],1,1257.604
4,False,225,0.64,38,[],[],"[(1093, 910)]",[],[1],[33],[0.55],"[640.0, 512.0]",horizontal,"(390.0, 262.0)",[0.7],[0.509],1,1262.309
4,False,226,0.685,41,[],[],"[(1093, 915)]",[],[1],[38],[0.6333333333333333],"[640.0, 512.0]",vertical,"(390.0, 762.0)",[1.1],[0.594],1,1266.095
4,False,227,0.513,30,[],[],"[(1093, 913)]",[],[1],[35],[0.5833333333333334],"[640.0, 512.0]",vertical,"(890.0, 762.0)",[1.6],[0.54],1,1270.606
4,False,228,0.694,41,[],[],"[(1137, 922)]",[],[1],[33],[0.55],"[640.0, 512.0]",horizontal,"(890.0, 262.0)",[1.0],[0.505],1,1275.169
4,False,229,0.5,30,[],[],"[(1085, 927)]",[],[1],[34],[0.5666666666666667],"[640.0, 512.0]",horizontal,"(390.0, 762.0)",[0.8333333333333334],[0.521],1,1279.425
4,False,230,0.612,36,[],[],"[(1092, 921)]",[],[1],[36],[0.6],"[640.0, 512.0]",vertical,"(390.0, 762.0)",[0.8333333333333334],[0.562],1,1283.231
4,False,231,0.505,30,[],[],"[(1093, 955), (1093, 941)]",[],"[0, 1]",[33],[0.55],"[640.0, 512.0]",horizontal,"(390.0, 762.0)",[0.8666666666666667],[0.512],1,1287.201
4,False,232,0.865,51,[],[],"[(1091, 930)]",[],[1],[34],[0.5666666666666667],"[640.0, 512.0]",vertical,"(890.0, 762.0)",[1.2],[0.523],1,1292.508
4,False,233,0.786,47,[],[],"[(1087, 918)]",[],[1],[15],[0.25],"[640.0, 512.0]",vertical,"(390.0, 262.0)",[1.3666666666666667],[0.215],1,1297.214
4,False,234,0.725,43,[],[],"[(1093, 915)]",[],[1],[31],[0.5166666666666666],"[640.0, 512.0]",horizontal,"(390.0, 262.0)",[0.9],[0.474],1,1301.577
4,False,235,0.809,48,[],[],"[(1109, 928)]",[],[1],[36],[0.6],"[640.0, 512.0]",vertical,"(390.0, 762.0)",[0.9333333333333333],[0.554],1,1305.776
4,False,236,0.882,52,[],[],"[(1096, 928)]",[],[1],[34],[0.5666666666666667],"[640.0, 512.0]",horizontal,"(390.0, 762.0)",[1.0333333333333332],[0.522],1,1310.002
4,False,237,0.526,31,[],[],"[(1093, 933)]",[],[1],[38],[0.6333333333333333],"[640.0, 512.0]",vertical,"(890.0, 262.0)",[1.0333333333333332],[0.599],1,1314.342
4,False,238,0.834,50,[],[],"[(1096, 913)]",[],[1],[],[],"[640.0, 512.0]",horizontal,"(890.0, 762.0)",[],[0],0,1318.374
4,False,239,1.123,67,[],[],"[(1093, 898)]",[],[1],[33],[0.55],"[640.0, 512.0]",horizontal,"(890.0, 762.0)",[1.6833333333333333],[0.507],1,1322.575
4,False,240,0.561,33,[],[],"[(1123, 927)]",[],[1],[32],[0.5333333333333333],"[640.0, 512.0]",horizontal,"(390.0, 262.0)",[0.9333333333333333],[0.49],1,1327.927
5,False,241,0.663,39,[],[],"[(1107, 927)]",[],[1],[32],[0.5333333333333333],"[640.0, 512.0]",vertical,"(390.0, 762.0)",[0.95],[0.492],1,1331.902
5,False,242,0.558,33,[],[],"[(1093, 931)]",[],[1],[32],[0.5333333333333333],"[640.0, 512.0]",horizontal,"(890.0, 262.0)",[0.6],[0.49],1,1335.946
5,False,243,0.631,37,[],[],"[(1114, 938)]",[],[1],[32],[0.5333333333333333],"[640.0, 512.0]",horizontal,"(890.0, 262.0)",[1.15],[0.49],1,1339.56
5,False,244,0.934,56,[],[],"[(1123, 944)]",[],[1],[35],[0.5833333333333334],"[640.0, 512.0]",horizontal,"(390.0, 762.0)",[1.0333333333333332],[0.535],1,1343.879
5,False,245,0.534,32,[],[],"[(1095, 931)]",[],[1],[32],[0.5333333333333333],"[640.0, 512.0]",horizontal,"(890.0, 262.0)",[1.55],[0.491],1,1348.433
5,False,246,0.702,42,[],[],"[(1066, 921)]",[],[1],[36],[0.6],"[640.0, 512.0]",vertical,"(890.0, 762.0)",[0.65],[0.559],1,1353.007
5,False,247,1.083,64,[],[],"[(1093, 934)]",[],[1],[9],[0.15],"[640.0, 512.0]",horizontal,"(890.0, 762.0)",[1.1666666666666667],[0.115],1,1356.981
5,False,248,0.602,36,[],[],"[(1123, 920)]",[],[1],[33],[0.55],"[640.0, 512.0]",horizontal,"(890.0, 762.0)",[0.5333333333333333],[0.509],1,1361.398
5,False,249,1.13,67,[],[],"[(1117, 915)]",[],[1],[],[],"[640.0, 512.0]",horizontal,"(890.0, 262.0)",[],[0],0,1365.216
5,False,250,0.786,47,[],[],"[(1136, 932)]",[],[1],[26],[0.43333333333333335],"[640.0, 512.0]",vertical,"(890.0, 262.0)",[1.6833333333333333],[0.398],1,1369.777
5,False,251,0.586,35,[],[],"[(1093, 909)]",[],[1],[34],[0.5666666666666667],"[640.0, 512.0]",vertical,"(390.0, 262.0)",[0.8166666666666667],[0.521],1,1374.673
5,False,252,1.186,71,[],[],"[(1093, 939)]",[],[1],[36],[0.6],"[640.0, 512.0]",horizontal,"(890.0, 262.0)",[0.6833333333333333],[0.558],1,1378.654
5,False,253,0.992,59,[],[],"[(1115, 915)]",[],[1],[35],[0.5833333333333334],"[640.0, 512.0]",vertical,"(890.0, 762.0)",[0.6666666666666666],[0.543],1,1382.947
5,False,254,0.782,46,[],[],"[(1093, 936)]",[],[1],[22],[0.36666666666666664],"[640.0, 512.0]",vertical,"(390.0, 762.0)",[1.6333333333333333],[0.333],1,1387.152
5,False,255,1.168,70,[],[],"[(1063, 919)]",[],[1],[29],[0.48333333333333334],"[640.0, 512.0]",vertical,"(890.0, 262.0)",[1.4666666666666666],[0.44],1,1391.791
5,False,256,0.649,38,[],[],"[(1098, 930)]",[],[1],[16],[0.26666666666666666],"[640.0, 512.0]",vertical,"(390.0, 262.0)",[0.9333333333333333],[0.232],1,1396.844
5,False,257,1.002,60,[],[],"[(1089, 936)]",[],[1],[37],[0.6166666666666667],"[640.0, 512.0]",vertical,"(890.0, 762.0)",[1.3166666666666667],[0.581],1,1400.653
5,False,258,0.88,52,[],[],"[(1093, 908)]",[],[1],[38],[0.6333333333333333],"[640.0, 512.0]",horizontal,"(390.0, 762.0)",[1.5],[0.594],1,1405.627
5,False,259,0.538,32,[],[],"[(1069, 934)]",[],[1],[33],[0.55],"[640.0, 512.0]",vertical,"(890.0, 762.0)",[0.85],[0.523],1,1410.589
5,False,260,0.542,32,[],[],"[(1046, 925)]",[],[1],[35],[0.5833333333333334],"[640.0, 512.0]",vertical,"(890.0, 262.0)",[1.4833333333333334],[0.539],1,1414.523
5,False,261,0.7,42,[],[],"[(1093, 918)]",[],[1],[22],[0.36666666666666664],"[640.0, 512.0]",horizontal,"(390.0, 262.0)",[0.9666666666666667],[0.33],1,1419.074
5,False,262,0.65,39,[],[],"[(1093, 926)]",[],[1],[34],[0.5666666666666667],"[640.0, 512.0]",horizontal,"(890.0, 762.0)",[1.65],[0.526],1,1423.021
5,False,263,0.574,34,[],[],"[(1120, 924)]",[],[1],[31],[0.5166666666666666],"[640.0, 512.0]",horizontal,"(890.0, 262.0)",[0.6833333333333333],[0.476],1,1428.298
5,False,264,0.748,44,[],[],"[(1092, 931)]",[],[1],[],[],"[640.0, 512.0]",horizontal,"(890.0, 262.0)",[],[0],0,1432.004
5,False,265,1.089,65,[],[],"[(1148, 918)]",[],[1],[24],[0.4],"[640.0, 512.0]",horizontal,"(890.0, 262.0)",[1.6666666666666667],[0.365],1,1436.084
5,False,266,0.697,41,[],[],"[(1062, 928)]",[],[1],[33],[0.55],"[640.0, 512.0]",horizontal,"(890.0, 762.0)",[0.8],[0.505],1,1441.696
5,False,267,1.116,66,[],[],"[(1101, 911)]",[],[1],[8],[0.13333333333333333],"[640.0, 512.0]",vertical,"(890.0, 262.0)",[1.35],[0.102],1,1445.757
5,False,268,0.528,31,[],[],"[(1090, 913)]",[],[1],[19],[0.31666666666666665],"[640.0, 512.0]",horizontal,"(890.0, 262.0)",[1.3666666666666667],[0.279],1,1450.421
5,False,269,1.089,65,[],[],"[(1123, 912)]",[],[1],[26],[0.43333333333333335],"[640.0, 512.0]",vertical,"(390.0, 262.0)",[1.3],[0.397],1,1454.509
5,False,270,1.14,68,[],[],"[(1148, 935)]",[],[1],[31],[0.5166666666666666],"[640.0, 512.0]",horizontal,"(890.0, 262.0)",[1.35],[0.474],1,1459.195
5,False,271,0.709,42,[],[],"[(1111, 918)]",[],[1],[35],[0.5833333333333334],"[640.0, 512.0]",vertical,"(390.0, 762.0)",[0.5166666666666666],[0.541],1,1464.23
5,False,272,0.828,49,[],[],"[(1093, 935)]",[],[1],[34],[0.5666666666666667],"[640.0, 512.0]",vertical,"(390.0, 762.0)",[1.5166666666666666],[0.524],1,1468.048
5,False,273,0.965,57,[],[],"[(1136, 924)]",[],[1],[36],[0.6],"[640.0, 512.0]",horizontal,"(890.0, 262.0)",[0.95],[0.557],1,1472.903
5,False,274,0.978,58,[],[],"[(1132, 927)]",[],[1],[34],[0.5666666666666667],"[640.0, 512.0]",vertical,"(390.0, 762.0)",[0.75],[0.52],1,1477.287
5,False,275,0.979,58,[],[],"[(1117, 926)]",[],[1],[37],[0.6166666666666667],"[640.0, 512.0]",horizontal,"(890.0, 762.0)",[1.5333333333333332],[0.57],1,1481.632
5,False,276,1.052,63,[],[],"[(1125, 923)]",[],[1],[33],[0.55],"[640.0, 512.0]",vertical,"(890.0, 762.0)",[0.9166666666666666],[0.51],1,1486.668
5,False,277,0.578,34,[],[],"[(1080, 926)]",[],[1],[33],[0.55],"[640.0, 512.0]",horizontal,"(390.0, 262.0)",[1.1333333333333333],[0.511],1,1491.113
5,False,278,0.784,47,[],[],"[(1093, 928)]",[],[1],[32],[0.5333333333333333],"[640.0, 512.0]",horizontal,"(890.0, 262.0)",[0.85],[0.488],1,1495.318
5,False,279,1.037,62,[],[],"[(1116, 932)]",[],[1],[],[],"[640.0, 512.0]",horizontal,"(390.0, 262.0)",[],[0],0,1499.422
5,False,280,0.511,30,[],[],"[(1143, 919)]",[],[1],[34],[0.5666666666666667],"[640.0, 512.0]",vertical,"(890.0, 762.0)",[0.9],[0.524],1,1503.887
5,False,281,0.54,32,[],[],"[(1093, 933)]",[],[1],[38],[0.6333333333333333],"[640.0, 512.0]",horizontal,"(390.0, 762.0)",[1.1333333333333333],[0.596],1,1508.621
5,False,282,1.134,68,[],[],"[(1096, 925)]",[],[1],[],[],"[640.0, 512.0]",horizontal,"(390.0, 262.0)",[],[0],0,1512.929
5,False,283,1.008,60,[],[],"[(1073, 914)]",[],[1],[37],[0.6166666666666667],"[640.0, 512.0]",vertical,"(390.0, 262.0)",[1.6],[0.576],1,1517.291
5,False,284,0.641,38,[],[],"[(1117, 919)]",[],[1],[33],[0.55],"[640.0, 512.0]",vertical,"(390.0, 262.0)",[1.0666666666666667],[0.51],1,1523.124
5,False,285,0.919,55,[],[],"[(1093, 931)]",[],[1],[41],[0.6833333333333333],"[640.0, 512.0]",horizontal,"(390.0, 762.0)",[1.2],[0.637],1,1527.429
5,False,286,0.535,32,[],[],"[(1075, 907)]",[],[1],[31],[0.5166666666666666],"[640.0, 512.0]",vertical,"(390.0, 262.0)",[1.0833333333333333],[0.478],1,1532.178
5,False,287,0.973,58,[],[],"[(1056, 915)]",[],[1],[32],[0.5333333333333333],"[640.0, 512.0]",vertical,"(390.0, 262.0)",[1.0666666666666667],[0.498],1,1536.322
5,False,288,0.556,33,[],[],"[(1098, 928)]",[],[1],[32],[0.5333333333333333],"[640.0, 512.0]",horizontal,"(390.0, 762.0)",[1.7],[0.494],1,1540.768
5,False,289,1.055,63,[],[],"[(1093, 912)]",[],[1],[11],[0.18333333333333332],"[640.0, 512.0]",vertical,"(890.0, 262.0)",[1.2166666666666666],[0.15],1,1545.429
5,False,290,0.7,42,[],[],"[(1098, 922)]",[],[1],[34],[0.5666666666666667],"[640.0, 512.0]",horizontal,"(890.0, 262.0)",[0.5666666666666667],[0.522],1,1549.78
5,False,291,0.981,58,[],[],"[(1093, 911)]",[],[1],[34],[0.5666666666666667],"[640.0, 512.0]",horizontal,"(890.0, 762.0)",[1.4333333333333333],[0.524],1,1553.73
5,False,292,0.926,55,[],[],"[(1093, 912)]",[],[1],[],[],"[640.0, 512.0]",horizontal,"(890.0, 262.0)",[],[0],0,1558.68
5,False,293,0.731,43,[],[],"[(1126, 902)]",[],[1],[36],[0.6],"[640.0, 512.0]",horizontal,"(890.0, 762.0)",[0.7833333333333333],[0.561],1,1563.027
5,False,294,0.758,45,[],[],"[(1059, 919)]",[],[1],[36],[0.6],"[640.0, 512.0]",horizontal,"(890.0, 262.0)",[0.6666666666666666],[0.56],1,1567.861
5,False,295,0.61,36,[],[],"[(1117, 924)]",[],[1],[32],[0.5333333333333333],"[640.0, 512.0]",vertical,"(390.0, 262.0)",[0.55],[0.49],1,1571.981
5,False,296,0.877,52,[],[],"[(1093, 932)]",[],[1],[33],[0.55],"[640.0, 512.0]",horizontal,"(890.0, 262.0)",[1.6833333333333333],[0.512],1,1575.561
5,False,297,0.749,44,[],[],"[(1136, 916)]",[],[1],[4],[0.06666666666666667],"[640.0, 512.0]",vertical,"(390.0, 262.0)",[1.6333333333333333],[0.035],1,1580.689
5,False,298,0.632,37,[],[],"[(1117, 924)]",[],[1],[34],[0.5666666666666667],"[640.0, 512.0]",horizontal,"(890.0, 262.0)",[1.1833333333333333],[0.522],1,1585.134
5,False,299,0.977,58,[],[],"[(1095, 903)]",[],[1],[32],[0.5333333333333333],"[640.0, 512.0]",vertical,"(890.0, 762.0)",[1.6833333333333333],[0.506],1,1589.459
5,False,300,0.531,31,[],[],"[(1114, 912)]",[],[1],[36],[0.6],"[640.0, 512.0]",vertical,"(890.0, 262.0)",[1.5166666666666666],[0.558],1,1594.5
6,False,301,1.103,66,[],[],"[(1123, 915)]",[],[1],[33],[0.55],"[640.0, 512.0]",horizontal,"(890.0, 262.0)",[1.0166666666666666],[0.51],1,1599.128
6,False,302,0.568,34,[],[],"[(1093, 916)]",[],[1],[36],[0.6],"[640.0, 512.0]",horizontal,"(390.0, 762.0)",[0.65],[0.556],1,1603.876
6,False,303,1.145,68,[],[],"[(1093, 917)]",[],[1],[33],[0.55],"[640.0, 512.0]",vertical,"(390.0, 762.0)",[0.6166666666666667],[0.51],1,1607.761
6,False,304,0.738,44,[],[],"[(1117, 931)]",[],[1],[35],[0.5833333333333334],"[640.0, 512.0]",vertical,"(890.0, 262.0)",[0.5833333333333334],[0.544],1,1612.078
6,False,305,0.676,40,[],[],"[(1093, 923)]",[],[1],[32],[0.5333333333333333],"[640.0, 512.0]",vertical,"(890.0, 262.0)",[0.6666666666666666],[0.493],1,1616.017
6,False,306,1.011,60,[],[],"[(1126, 920)]",[],[1],[18],[0.3],"[640.0, 512.0]",horizontal,"(390.0, 262.0)",[0.95],[0.269],1,1619.789
6,False,307,0.891,53,[],[],"[(1063, 950), (1087, 931)]",[],"[0, 1]",[34],[0.5666666666666667],"[640.0, 512.0]",vertical,"(390.0, 762.0)",[1.3666666666666667],[0.527],1,1624.097
6,False,308,1.144,68,[],[],"[(1064, 924)]",[],[1],[40],[0.6666666666666666],"[640.0, 512.0]",horizontal,"(890.0, 262.0)",[0.5166666666666666],[0.624],1,1630.37
6,False,309,1.099,65,[],[],"[(1116, 914)]",[],[1],[35],[0.5833333333333334],"[640.0, 512.0]",horizontal,"(390.0, 762.0)",[0.5166666666666666],[0.538],1,1634.613
6,False,310,0.5,30,[],[],"[(1093, 911)]",[],[1],[],[],"[640.0, 512.0]",horizontal,"(890.0, 262.0)",[],[0],0,1638.88
6,False,311,1.03,61,[],[],"[(1123, 902)]",[],[1],[],[],"[640.0, 512.0]",vertical,"(890.0, 262.0)",[],[0],0,1642.776
6,False,312,1.05,63,[],[],"[(1142, 953), (1136, 921)]",[],"[0, 1]",[],[],"[640.0, 512.0]",vertical,"(390.0, 262.0)",[],[0],0,1647.393
6,False,313,0.924,55,[],[],"[(1063, 928)]",[],[1],[51],[0.85],"[640.0, 512.0]",vertical,"(890.0, 762.0)",[1.1166666666666667],[0.799],0,1682.592
6,False,314,0.937,56,[],[],"[(1093, 912)]",[],[1],[51],[0.85],"[640.0, 512.0]",horizontal,"(890.0, 762.0)",[1.5],[0.804],0,1687.709
6,False,315,0.545,32,[],[],"[(1093, 917)]",[],[1],[35],[0.5833333333333334],"[640.0, 512.0]",vertical,"(890.0, 762.0)",[1.0833333333333333],[0.544],1,1693.007
6,False,316,0.943,56,[],[],"[(1090, 919)]",[],[1],[35],[0.5833333333333334],"[640.0, 512.0]",horizontal,"(390.0, 762.0)",[0.7333333333333333],[0.539],1,1697.135
6,False,317,0.525,31,[],[],"[(1104, 923)]",[],[1],[3],[0.05],"[640.0, 512.0]",vertical,"(390.0, 262.0)",[1.05],[0.02],1,1701.376
6,False,318,0.719,43,[],[],"[(1129, 919)]",[],[1],[51],[0.85],"[640.0, 512.0]",vertical,"(890.0, 762.0)",[1.6],[0.802],0,1704.968
6,False,319,0.586,35,[],[],"[(1201, 916)]",[],[1],[51],[0.85],"[640.0, 512.0]",horizontal,"(890.0, 262.0)",[1.4833333333333334],[0.803],0,1710.087
6,False,320,0.906,54,[],[],"[(1093, 901)]",[],[1],[37],[0.6166666666666667],"[640.0, 512.0]",vertical,"(390.0, 762.0)",[0.9666666666666667],[0.572],1,1717.306
6,False,321,0.912,54,[],[],"[(1093, 932)]",[],[1],[33],[0.55],"[640.0, 512.0]",horizontal,"(890.0, 762.0)",[0.6166666666666667],[0.507],1,1725.176
6,False,322,0.7,42,[],[],"[(1081, 918)]",[],[1],[33],[0.55],"[640.0, 512.0]",vertical,"(390.0, 762.0)",[0.9666666666666667],[0.508],1,1729.193
6,False,323,0.933,55,[],[],"[(1070, 924)]",[],[1],[26],[0.43333333333333335],"[640.0, 512.0]",horizontal,"(890.0, 262.0)",[1.2833333333333332],[0.395],1,1733.477
6,False,324,0.508,30,[],[],"[(1038, 913)]",[],[1],[],[],"[640.0, 512.0]",vertical,"(390.0, 262.0)",[],[0],0,1738.152
6,False,325,1.081,64,[],[],"[(1104, 908)]",[],[1],[31],[0.5166666666666666],"[640.0, 512.0]",vertical,"(890.0, 262.0)",[0.9833333333333333],[0.479],1,1741.878
6,False,326,0.744,44,[],[],"[(1094, 909)]",[],[1],[37],[0.6166666666666667],"[640.0, 512.0]",horizontal,"(890.0, 762.0)",[1.6],[0.573],1,1746.975
6,False,327,0.959,57,[],[],"[(1075, 919)]",[],[1],[36],[0.6],"[640.0, 512.0]",vertical,"(890.0, 762.0)",[1.6],[0.566],1,1752.002
6,False,328,0.533,31,[],[],"[(1113, 921)]",[],[1],[35],[0.5833333333333334],"[640.0, 512.0]",horizontal,"(890.0, 262.0)",[0.5333333333333333],[0.544],1,1757.102
6,False,329,0.987,59,[],[],"[(1091, 908)]",[],[1],[34],[0.5666666666666667],"[640.0, 512.0]",horizontal,"(390.0, 762.0)",[1.4166666666666667],[0.517],1,1760.807
6,False,330,1.001,60,[],[],"[(1095, 910)]",[],[1],[6],[0.1],"[640.0, 512.0]",vertical,"(390.0, 762.0)",[0.9],[0.067],1,1765.8
6,False,331,1.129,67,[],[],"[(1105, 924)]",[],[1],[34],[0.5666666666666667],"[640.0, 512.0]",horizontal,"(390.0, 762.0)",[1.4166666666666667],[0.525],1,1769.785
6,False,332,0.69,41,[],[],"[(1093, 919)]",[],[1],[31],[0.5166666666666666],"[640.0, 512.0]",horizontal,"(390.0, 762.0)",[1.5833333333333333],[0.476],1,1774.874
6,False,333,1.136,68,[],[],"[(1056, 913)]",[],[1],[36],[0.6],"[640.0, 512.0]",horizontal,"(890.0, 762.0)",[1.0666666666666667],[0.555],1,1779.697
6,False,334,0.95,57,[],[],"[(1070, 909)]",[],[1],[],[],"[640.0, 512.0]",horizontal,"(390.0, 262.0)",[],[0],0,1784.397
6,False,335,0.879,52,[],[],"[(1116, 920)]",[],[1],[32],[0.5333333333333333],"[640.0, 512.0]",horizontal,"(390.0, 262.0)",[1.0833333333333333],[0.494],1,1788.455
6,False,336,0.869,52,[],[],"[(1117, 935)]",[],[1],[34],[0.5666666666666667],"[640.0, 512.0]",vertical,"(390.0, 262.0)",[0.5666666666666667],[0.522],1,1793.526
6,False,337,0.984,59,[],[],"[(1116, 919)]",[],[1],[37],[0.6166666666666667],"[640.0, 512.0]",vertical,"(890.0, 262.0)",[1.0833333333333333],[0.572],1,1797.524
6,False,338,0.616,36,[],[],"[(1123, 923)]",[],[1],[34],[0.5666666666666667],"[640.0, 512.0]",vertical,"(390.0, 762.0)",[1.0666666666666667],[0.527],1,1802.047
6,False,339,0.835,50,[],[],"[(1105, 924)]",[],[1],[34],[0.5666666666666667],"[640.0, 512.0]",vertical,"(890.0, 762.0)",[0.95],[0.524],1,1806.23
6,False,340,0.999,59,[],[],"[(1096, 914)]",[],[1],[32],[0.5333333333333333],"[640.0, 512.0]",vertical,"(390.0, 762.0)",[0.65],[0.49],1,1810.576
6,False,341,0.919,55,[],[],"[(1123, 915)]",[],[1],[27],[0.45],"[640.0, 512.0]",horizontal,"(890.0, 762.0)",[0.9],[0.414],1,1814.677
6,False,342,1.09,65,[],[],"[(1117, 907)]",[],[1],[38],[0.6333333333333333],"[640.0, 512.0]",horizontal,"(890.0, 762.0)",[0.8],[0.588],1,1818.827
6,False,343,1.002,60,[],[],"[(1104, 910)]",[],[1],[32],[0.5333333333333333],"[640.0, 512.0]",vertical,"(390.0, 762.0)",[1.05],[0.497],1,1823.392
6,False,344,0.563,33,[],[],"[(1096, 916)]",[],[1],[16],[0.26666666666666666],"[640.0, 512.0]",horizontal,"(390.0, 762.0)",[1.0666666666666667],[0.235],1,1827.993
6,False,345,0.641,38,[],[],"[(1093, 924)]",[],[1],[19],[0.31666666666666665],"[640.0, 512.0]",horizontal,"(390.0, 262.0)",[1.5333333333333332],[0.278],1,1831.782
6,False,346,1.111,66,[],[],"[(1097, 920)]",[],[1],[31],[0.5166666666666666],"[640.0, 512.0]",horizontal,"(390.0, 762.0)",[0.65],[0.475],1,1836.242
6,False,347,0.659,39,[],[],"[(1105, 914)]",[],[1],[34],[0.5666666666666667],"[640.0, 512.0]",vertical,"(890.0, 762.0)",[1.4833333333333334],[0.523],1,1840.648
6,False,348,0.617,37,[],[],"[(1117, 924)]",[],[1],[37],[0.6166666666666667],"[640.0, 512.0]",horizontal,"(390.0, 762.0)",[0.8],[0.578],1,1845.205
6,False,349,1.106,66,[],[],"[(1098, 908)]",[],[1],[34],[0.5666666666666667],"[640.0, 512.0]",vertical,"(890.0, 762.0)",[1.3],[0.529],1,1849.231
6,False,350,1.094,65,[],[],"[(1123, 914)]",[],[1],[25],[0.4166666666666667],"[640.0, 512.0]",vertical,"(390.0, 262.0)",[1.4666666666666666],[0.377],1,1854.248
6,False,351,0.733,43,[],[],"[(1096, 921)]",[],[1],[32],[0.5333333333333333],"[640.0, 512.0]",horizontal,"(890.0, 262.0)",[0.7],[0.491],1,1859.291
6,False,352,0.615,36,[],[],"[(1129, 906)]",[],[1],[33],[0.55],"[640.0, 512.0]",horizontal,"(890.0, 762.0)",[0.5],[0.505],1,1863.417
6,False,353,1.076,64,[],[],"[(1093, 938)]",[],[1],[35],[0.5833333333333334],"[640.0, 512.0]",vertical,"(390.0, 762.0)",[0.9],[0.538],1,1867.195
6,False,354,0.577,34,[],[],"[(1129, 919)]",[],[1],[31],[0.5166666666666666],"[640.0, 512.0]",horizontal,"(390.0, 762.0)",[1.4],[0.48],1,1871.719
6,False,355,0.866,51,[],[],"[(1093, 928)]",[],[1],[34],[0.5666666666666667],"[640.0, 512.0]",vertical,"(890.0, 762.0)",[1.2833333333333332],[0.521],1,1876.242
6,False,356,1.076,64,[],[],"[(1106, 924)]",[],[1],[32],[0.5333333333333333],"[640.0, 512.0]",horizontal,"(890.0, 262.0)",[0.7166666666666667],[0.497],1,1880.974
6,False,357,0.699,41,[],[],"[(1093, 930)]",[],[1],[35],[0.5833333333333334],"[640.0, 512.0]",vertical,"(890.0, 762.0)",[1.4833333333333334],[0.538],1,1885.332
6,False,358,1.08,64,[],[],"[(1117, 918)]",[],[1],[],[],"[640.0, 512.0]",horizontal,"(890.0, 262.0)",[],[0],0,1890.109
6,False,359,0.643,38,[],[],"[(1104, 894)]",[],[1],[33],[0.55],"[640.0, 512.0]",horizontal,"(890.0, 262.0)",[1.3333333333333333],[0.507],1,1893.886
6,False,360,0.81,48,[],[],"[(1129, 913)]",[],[1],[34],[0.5666666666666667],"[640.0, 512.0]",horizontal,"(390.0, 762.0)",[0.95],[0.524],1,1899.013
7,False,361,0.63,37,[],[],"[(1117, 915)]",[],[1],[],[],"[640.0, 512.0]",vertical,"(390.0, 262.0)",[],[0],0,1903.432
7,False,362,0.578,34,[],[],"[(1116, 900)]",[],[1],[38],[0.6333333333333333],"[640.0, 512.0]",vertical,"(890.0, 262.0)",[0.8833333333333333],[0.594],1,1907.087
7,False,363,0.686,41,[],[],"[(1116, 924)]",[],[1],[43],[0.7166666666666667],"[640.0, 512.0]",vertical,"(890.0, 762.0)",[1.4666666666666666],[0.679],1,1911.394
7,False,364,1.136,68,[],[],"[(1044, 936)]",[],[1],[12],[0.2],"[640.0, 512.0]",vertical,"(390.0, 762.0)",[1.1833333333333333],[0.17],1,1916.145
7,False,365,0.533,31,[],[],"[(1129, 912)]",[],[1],[40],[0.6666666666666666],"[640.0, 512.0]",vertical,"(390.0, 262.0)",[0.6833333333333333],[0.631],1,1920.647
7,False,366,1.088,65,[],[],"[(1123, 917)]",[],[1],[33],[0.55],"[640.0, 512.0]",horizontal,"(890.0, 262.0)",[1.3666666666666667],[0.511],1,1924.53
7,False,367,0.565,33,[],[],"[(1100, 911)]",[],[1],[32],[0.5333333333333333],"[640.0, 512.0]",vertical,"(890.0, 762.0)",[1.0333333333333332],[0.497],1,1929.556
7,False,368,0.726,43,[],[],"[(1160, 922)]",[],[1],[32],[0.5333333333333333],"[640.0, 512.0]",vertical,"(890.0, 262.0)",[0.8666666666666667],[0.496],1,1933.712
7,False,369,0.989,59,[],[],"[(1099, 915)]",[],[1],[42],[0.7],"[640.0, 512.0]",vertical,"(390.0, 762.0)",[1.6333333333333333],[0.656],1,1937.819
7,False,370,0.835,50,[],[],"[(1093, 922)]",[],[1],[31],[0.5166666666666666],"[640.0, 512.0]",vertical,"(890.0, 262.0)",[1.0833333333333333],[0.476],1,1943.056
7,False,371,0.519,31,[],[],"[(1068, 933)]",[],[1],[33],[0.55],"[640.0, 512.0]",vertical,"(890.0, 262.0)",[0.95],[0.509],1,1947.528
7,False,372,0.728,43,[],[],"[(1093, 925)]",[],[1],[35],[0.5833333333333334],"[640.0, 512.0]",horizontal,"(890.0, 262.0)",[0.7666666666666666],[0.539],1,1951.654
7,False,373,0.994,59,[],[],"[(1093, 918)]",[],[1],[36],[0.6],"[640.0, 512.0]",vertical,"(390.0, 262.0)",[0.5166666666666666],[0.554],1,1955.78
7,False,374,0.671,40,[],[],"[(1117, 905)]",[],[1],[8],[0.13333333333333333],"[640.0, 512.0]",horizontal,"(390.0, 262.0)",[1.4833333333333334],[0.101],1,1959.852
7,False,375,1.108,66,[],[],"[(1099, 903)]",[],[1],[26],[0.43333333333333335],"[640.0, 512.0]",vertical,"(890.0, 262.0)",[1.5166666666666666],[0.397],1,1964.194
7,False,376,1.013,60,[],[],"[(1123, 910)]",[],[1],[38],[0.6333333333333333],"[640.0, 512.0]",vertical,"(390.0, 762.0)",[0.5],[0.588],1,1969.361
7,False,377,0.806,48,[],[],"[(1093, 929)]",[],[1],[33],[0.55],"[640.0, 512.0]",vertical,"(890.0, 762.0)",[1.6],[0.505],1,1973.504
7,False,378,1.071,64,[],[],"[(1093, 915)]",[],[1],[35],[0.5833333333333334],"[640.0, 512.0]",horizontal,"(890.0, 762.0)",[1.0],[0.54],1,1978.377
7,False,379,0.795,47,[],[],"[(1123, 914)]",[],[1],[],[],"[640.0, 512.0]",vertical,"(890.0, 262.0)",[],[0],0,1982.853
7,False,380,0.564,33,[],[],"[(1129, 919)]",[],[1],[37],[0.6166666666666667],"[640.0, 512.0]",horizontal,"(890.0, 262.0)",[0.95],[0.571],1,1986.86
7,False,381,0.865,51,[],[],"[(1087, 930)]",[],[1],[13],[0.21666666666666667],"[640.0, 512.0]",vertical,"(390.0, 262.0)",[0.8666666666666667],[0.182],1,1991.762
7,False,382,0.947,56,[],[],"[(1129, 922)]",[],[1],[31],[0.5166666666666666],"[640.0, 512.0]",horizontal,"(890.0, 262.0)",[0.7833333333333333],[0.475],1,1995.717
7,False,383,0.848,50,[],[],"[(1117, 907)]",[],[1],[34],[0.5666666666666667],"[640.0, 512.0]",vertical,"(390.0, 762.0)",[1.1666666666666667],[0.527],1,1999.841
7,False,384,1.058,63,[],[],"[(1135, 911)]",[],[1],[24],[0.4],"[640.0, 512.0]",horizontal,"(390.0, 262.0)",[0.7333333333333333],[0.359],1,2004.346
7,False,385,0.881,52,[],[],"[(1123, 935)]",[],[1],[33],[0.55],"[640.0, 512.0]",vertical,"(890.0, 262.0)",[1.6166666666666667],[0.524],1,2009.481
7,False,386,0.524,31,[],[],"[(1086, 948), (1093, 931)]",[],"[0, 1]",[],[],"[640.0, 512.0]",vertical,"(390.0, 762.0)",[],[0],0,2014.586
7,False,387,0.739,44,[],[],"[(1093, 923)]",[],[1],[34],[0.5666666666666667],"[640.0, 512.0]",horizontal,"(390.0, 762.0)",[0.6833333333333333],[0.525],1,2019.857
7,False,388,0.945,56,[],[],"[(1123, 915)]",[],[1],[31],[0.5166666666666666],"[640.0, 512.0]",horizontal,"(890.0, 262.0)",[1.4833333333333334],[0.476],1,2023.83
7,False,389,1.057,63,[],[],"[(1096, 908)]",[],[1],[],[],"[640.0, 512.0]",vertical,"(890.0, 262.0)",[],[0],0,2028.714
7,False,390,1.112,66,[],[2044274],"[(1111, 892)]","[(1065, 907)]",[1],[26],[0.43333333333333335],"[640.0, 512.0]",horizontal,"(390.0, 762.0)",[],[0],0,2032.983
7,False,391,0.525,31,[],[],"[(1123, 913)]",[],[1],[31],[0.5166666666666666],"[640.0, 512.0]",vertical,"(890.0, 262.0)",[1.3166666666666667],[0.475],1,2035.841
7,False,392,0.72,43,[],[],"[(1123, 916)]",[],[1],[38],[0.6333333333333333],"[640.0, 512.0]",horizontal,"(890.0, 762.0)",[1.2],[0.589],1,2040.109
7,False,393,0.528,31,[],[],"[(1123, 919)]",[],[1],[29],[0.48333333333333334],"[640.0, 512.0]",vertical,"(390.0, 262.0)",[0.8166666666666667],[0.439],1,2045.882
7,False,394,0.866,51,[],[],"[(1115, 914)]",[],[1],[36],[0.6],"[640.0, 512.0]",vertical,"(390.0, 262.0)",[0.75],[0.562],1,2049.699
7,False,395,0.612,36,[],[],"[(1135, 927)]",[],[1],[35],[0.5833333333333334],"[640.0, 512.0]",vertical,"(390.0, 262.0)",[0.5166666666666666],[0.539],1,2053.836
7,False,396,1.148,68,[],[],"[(1153, 908)]",[],[1],[34],[0.5666666666666667],"[640.0, 512.0]",vertical,"(890.0, 762.0)",[1.3333333333333333],[0.522],1,2057.47
7,False,397,0.562,33,[],[],"[(1129, 917)]",[],[1],[36],[0.6],"[640.0, 512.0]",vertical,"(390.0, 762.0)",[1.0333333333333332],[0.559],1,2062.456
7,False,398,0.828,49,[],[],"[(1098, 922)]",[],[1],[32],[0.5333333333333333],"[640.0, 512.0]",vertical,"(390.0, 262.0)",[0.8833333333333333],[0.494],1,2066.682
7,False,399,0.621,37,[],[],"[(1111, 918)]",[],[1],[34],[0.5666666666666667],"[640.0, 512.0]",horizontal,"(890.0, 262.0)",[0.9],[0.539],1,2070.856
7,False,400,0.547,32,[],[],"[(1123, 909)]",[],[1],[],[],"[640.0, 512.0]",vertical,"(390.0, 262.0)",[],[0],0,2074.898
7,False,401,1.103,66,[],[],"[(1123, 905)]",[],[1],[33],[0.55],"[640.0, 512.0]",vertical,"(390.0, 762.0)",[1.15],[0.509],1,2078.664
7,False,402,0.854,51,[],[],"[(1099, 925)]",[],[1],[36],[0.6],"[640.0, 512.0]",vertical,"(890.0, 262.0)",[1.1666666666666667],[0.563],1,2084.198
7,False,403,0.828,49,[],[],"[(1129, 911)]",[],[1],[33],[0.55],"[640.0, 512.0]",vertical,"(390.0, 762.0)",[1.65],[0.504],1,2088.845
7,False,404,0.899,53,[],[],"[(1099, 913)]",[],[1],[33],[0.55],"[640.0, 512.0]",vertical,"(890.0, 262.0)",[1.3333333333333333],[0.506],1,2093.745
7,False,405,0.816,48,[],[],"[(1129, 913)]",[],[1],[28],[0.4666666666666667],"[640.0, 512.0]",vertical,"(390.0, 262.0)",[1.05],[0.428],1,2098.431
7,False,406,0.958,57,[],[],"[(1153, 909)]",[],[1],[34],[0.5666666666666667],"[640.0, 512.0]",vertical,"(390.0, 262.0)",[1.1],[0.524],1,2102.797
7,False,407,1.182,70,[],[],"[(1093, 915)]",[],[1],[35],[0.5833333333333334],"[640.0, 512.0]",vertical,"(890.0, 262.0)",[1.5666666666666667],[0.538],1,2107.472
7,False,408,0.953,57,[],[],"[(1093, 908)]",[],[1],[34],[0.5666666666666667],"[640.0, 512.0]",horizontal,"(390.0, 762.0)",[1.05],[0.521],1,2112.714
7,False,409,0.515,30,[],[],"[(1093, 913)]",[],[1],[34],[0.5666666666666667],"[640.0, 512.0]",vertical,"(890.0, 762.0)",[0.9],[0.524],1,2117.201
7,False,410,0.876,52,[],[],"[(1100, 919)]",[],[1],[40],[0.6666666666666666],"[640.0, 512.0]",horizontal,"(390.0, 762.0)",[0.6333333333333333],[0.621],1,2121.249
7,False,411,0.716,42,[],[],"[(1093, 912)]",[],[1],[33],[0.55],"[640.0, 512.0]",horizontal,"(890.0, 262.0)",[1.6333333333333333],[0.511],1,2125.38
7,False,412,0.518,31,[],[],"[(1148, 925)]",[],[1],[33],[0.55],"[640.0, 512.0]",horizontal,"(890.0, 262.0)",[0.6333333333333333],[0.517],1,2130.249
7,False,413,0.562,33,[],[],"[(1123, 914)]",[],[1],[32],[0.5333333333333333],"[640.0, 512.0]",vertical,"(890.0, 262.0)",[0.5333333333333333],[0.495],1,2133.985
7,False,414,0.525,31,[],[],"[(1123, 921)]",[],[1],[28],[0.4666666666666667],"[640.0, 512.0]",horizontal,"(390.0, 262.0)",[1.5],[0.424],1,2140.03
7,False,415,0.624,37,[],[],"[(1101, 905)]",[],[1],[34],[0.5666666666666667],"[640.0, 512.0]",vertical,"(390.0, 262.0)",[0.7],[0.522],1,2144.599
7,False,416,0.886,53,[],[],"[(1116, 906)]",[],[1],[33],[0.55],"[640.0, 512.0]",vertical,"(890.0, 262.0)",[1.55],[0.511],1,2148.548
7,False,417,0.911,54,[],[],"[(1093, 915)]",[],[1],[34],[0.5666666666666667],"[640.0, 512.0]",vertical,"(890.0, 762.0)",[1.5333333333333332],[0.526],1,2153.594
7,False,418,0.898,53,[],[],"[(1115, 922)]",[],[1],[],[],"[640.0, 512.0]",horizontal,"(390.0, 262.0)",[],[0],0,2158.633
7,False,419,1.136,68,[],[],"[(1129, 918)]",[],[1],[35],[0.5833333333333334],"[640.0, 512.0]",horizontal,"(890.0, 762.0)",[0.8],[0.541],1,2163.003
7,False,420,0.568,34,[],[],"[(1117, 908)]",[],[1],[34],[0.5666666666666667],"[640.0, 512.0]",vertical,"(890.0, 762.0)",[0.8333333333333334],[0.525],1,2168.365
8,False,421,0.731,43,[],[],"[(1093, 916)]",[],[1],[32],[0.5333333333333333],"[640.0, 512.0]",horizontal,"(890.0, 762.0)",[0.5333333333333333],[0.49],1,2172.48
8,False,422,0.902,54,[],[],"[(1123, 910)]",[],[1],[35],[0.5833333333333334],"[640.0, 512.0]",vertical,"(890.0, 762.0)",[1.2166666666666666],[0.545],1,2176.315
8,False,423,0.608,36,[],[],"[(1129, 924)]",[],[1],[],[],"[640.0, 512.0]",horizontal,"(890.0, 262.0)",[],[0],0,2180.988
8,False,424,0.824,49,[],[],"[(1080, 915)]",[],[1],[35],[0.5833333333333334],"[640.0, 512.0]",horizontal,"(390.0, 762.0)",[1.5666666666666667],[0.539],1,2184.749
8,False,425,0.681,40,[],[],"[(1099, 908)]",[],[1],[36],[0.6],"[640.0, 512.0]",horizontal,"(890.0, 762.0)",[1.4833333333333334],[0.569],1,2189.784
8,False,426,0.613,36,[],[],"[(1084, 930)]",[],[1],[36],[0.6],"[640.0, 512.0]",vertical,"(890.0, 762.0)",[0.6666666666666666],[0.567],1,2194.495
8,False,427,1.101,66,[],[],"[(1098, 924)]",[],[1],[32],[0.5333333333333333],"[640.0, 512.0]",vertical,"(890.0, 262.0)",[0.95],[0.496],1,2198.323
8,False,428,0.667,40,[],[],"[(1093, 892)]",[],[1],[36],[0.6],"[640.0, 512.0]",vertical,"(390.0, 262.0)",[0.6666666666666666],[0.565],1,2202.844
8,False,429,0.8,48,[],[],"[(1123, 912)]",[],[1],[35],[0.5833333333333334],"[640.0, 512.0]",horizontal,"(390.0, 762.0)",[1.2166666666666666],[0.544],1,2206.806
8,False,430,1.059,63,[],[],"[(1097, 924)]",[],[1],[39],[0.65],"[640.0, 512.0]",vertical,"(890.0, 762.0)",[1.5333333333333332],[0.605],1,2211.396
8,False,431,0.764,45,[],[],"[(1118, 899)]",[],[1],[32],[0.5333333333333333],"[640.0, 512.0]",vertical,"(390.0, 262.0)",[0.9166666666666666],[0.495],1,2216.594
8,False,432,0.718,43,[],[],"[(1129, 908)]",[],[1],[22],[0.36666666666666664],"[640.0, 512.0]",horizontal,"(890.0, 262.0)",[1.3],[0.326],1,2220.853
8,False,433,0.965,57,[],[],"[(1087, 931)]",[],[1],[40],[0.6666666666666666],"[640.0, 512.0]",vertical,"(390.0, 762.0)",[1.2833333333333332],[0.622],1,2225.131
8,False,434,0.818,49,[],[],"[(1098, 918)]",[],[1],[34],[0.5666666666666667],"[640.0, 512.0]",vertical,"(890.0, 262.0)",[0.8333333333333334],[0.521],1,2275.779
8,False,435,0.912,54,[],[],"[(1129, 922)]",[],[1],[36],[0.6],"[640.0, 512.0]",horizontal,"(890.0, 262.0)",[1.65],[0.554],1,2279.898
8,False,436,1.156,69,[],[],"[(1094, 923)]",[],[1],[33],[0.55],"[640.0, 512.0]",horizontal,"(890.0, 262.0)",[0.8],[0.508],1,2284.929
8,False,437,1.019,61,[],[],"[(1095, 929)]",[],[1],[35],[0.5833333333333334],"[640.0, 512.0]",vertical,"(390.0, 262.0)",[0.65],[0.542],1,2289.303
8,False,438,0.777,46,[],[],"[(1063, 918)]",[],[1],[32],[0.5333333333333333],"[640.0, 512.0]",horizontal,"(390.0, 262.0)",[1.4],[0.495],1,2293.582
8,False,439,0.737,44,[],[],"[(1026, 913), (1196, 916)]",[],"[0, 1]",[],[],"[640.0, 512.0]",vertical,"(890.0, 262.0)",[],[0],0,2298.191
8,False,440,0.993,59,[],[],"[(1203, 923)]",[],[1],[31],[0.5166666666666666],"[640.0, 512.0]",vertical,"(890.0, 762.0)",[0.6833333333333333],[0.491],1,2490.283
8,False,441,1.059,63,[],[],"[(1097, 919)]",[],[1],[33],[0.55],"[640.0, 512.0]",horizontal,"(390.0, 762.0)",[0.5833333333333334],[0.506],1,2494.562
8,False,442,1.044,62,[],[],"[(1098, 910)]",[],[1],[51],[0.85],"[640.0, 512.0]",vertical,"(890.0, 762.0)",[1.1666666666666667],[0.796],0,2498.8
8,False,443,0.897,53,[],[],"[(1110, 902)]",[],[1],[34],[0.5666666666666667],"[640.0, 512.0]",horizontal,"(890.0, 762.0)",[0.65],[0.523],1,2503.72
8,False,444,1.029,61,[],[],"[(1070, 928)]",[],[1],[35],[0.5833333333333334],"[640.0, 512.0]",horizontal,"(390.0, 762.0)",[1.6166666666666667],[0.546],1,2508.245
8,False,445,0.814,48,[],[],"[(1050, 949), (1092, 940)]",[],"[0, 1]",[44],[0.7333333333333333],"[640.0, 512.0]",horizontal,"(390.0, 262.0)",[1.3166666666666667],[0.689],1,2513.545
8,False,446,0.949,56,[],[],"[(1049, 926)]",[],[1],[36],[0.6],"[640.0, 512.0]",vertical,"(390.0, 762.0)",[1.0666666666666667],[0.558],1,2519.747
8,False,447,0.999,59,[],[],"[(1123, 907)]",[],[1],[38],[0.6333333333333333],"[640.0, 512.0]",horizontal,"(890.0, 262.0)",[0.7],[0.584],1,2524.433
8,False,448,0.665,39,[],[],"[(1093, 923)]",[],[1],[30],[0.5],"[640.0, 512.0]",vertical,"(390.0, 262.0)",[0.95],[0.461],1,2528.69
8,False,449,0.518,31,[],[],"[(1128, 901)]",[],[1],[37],[0.6166666666666667],"[640.0, 512.0]",horizontal,"(890.0, 262.0)",[0.6666666666666666],[0.578],1,2532.68
8,False,450,1.098,65,[],[],"[(1129, 900)]",[],[1],[35],[0.5833333333333334],"[640.0, 512.0]",horizontal,"(390.0, 762.0)",[1.25],[0.54],1,2536.432
8,False,451,0.726,43,[],[],"[(1099, 912)]",[],[1],[36],[0.6],"[640.0, 512.0]",vertical,"(390.0, 762.0)",[0.6333333333333333],[0.553],1,2542.952
8,False,452,0.968,58,[],[],"[(1135, 897)]",[],[1],[],[],"[640.0, 512.0]",vertical,"(390.0, 762.0)",[],[0],0,2548.133
8,False,453,0.99,59,[],[],"[(1129, 904)]",[],[1],[42],[0.7],"[640.0, 512.0]",horizontal,"(890.0, 262.0)",[1.1],[0.661],1,2555.744
8,False,454,0.636,38,[],[],"[(1093, 910)]",[],[1],[37],[0.6166666666666667],"[640.0, 512.0]",vertical,"(890.0, 762.0)",[1.6],[0.57],1,2561.8
8,False,455,0.778,46,[],[],"[(1099, 914)]",[],[1],[39],[0.65],"[640.0, 512.0]",horizontal,"(390.0, 762.0)",[1.1],[0.604],1,2631.034
8,False,456,0.645,38,[],[],"[(1117, 924)]",[],[1],[],[],"[640.0, 512.0]",vertical,"(390.0, 762.0)",[],[0],0,2635.466
8,False,457,0.779,46,[],[],"[(1075, 746), (1270, 276), (1270, 662), (1214, 958), (520, 449), (1044, 919)]",[],"[0, 0, 0, 0, 0, 1]",[27],[0.45],"[640.0, 512.0]",vertical,"(390.0, 262.0)",[1.1833333333333333],[0.41],1,2637.329
8,False,458,1.116,66,[],[],"[(1148, 944)]",[],[1],[51],[0.85],"[640.0, 512.0]",horizontal,"(890.0, 262.0)",[1.0],[0.805],0,4300.461
8,False,459,0.577,34,[],[4556828],"[(1063, 982), (1153, 975), (1190, 932)]","[(1090, 942)]","[0, 0, 1]",[0],[0.0],"[640.0, 512.0]",vertical,"(890.0, 262.0)",[],[0],0,4367.145
8,False,460,0.76,45,[],[],"[(1141, 918)]",[],[1],[31],[0.5166666666666666],"[640.0, 512.0]",vertical,"(390.0, 762.0)",[1.05],[0.481],1,4548.394
8,False,461,0.769,46,[],[],"[(1093, 938)]",[],[1],[],[],"[640.0, 512.0]",horizontal,"(390.0, 262.0)",[],[0],0,4552.854
8,False,462,0.835,50,[],[],"[(1123, 914)]",[],[1],[37],[0.6166666666666667],"[640.0, 512.0]",vertical,"(890.0, 762.0)",[0.7666666666666666],[0.577],1,4557.118
8,False,463,0.892,53,[],[],"[(1135, 915)]",[],[1],[27],[0.45],"[640.0, 512.0]",vertical,"(390.0, 762.0)",[1.5],[0.411],1,4561.666
8,False,464,0.856,51,[],[],"[(1123, 915)]",[],[1],[24],[0.4],"[640.0, 512.0]",vertical,"(390.0, 262.0)",[0.8],[0.362],1,4566.476
8,False,465,0.67,40,[],[],"[(1123, 929)]",[],[1],[36],[0.6],"[640.0, 512.0]",horizontal,"(390.0, 762.0)",[1.1166666666666667],[0.568],1,4570.654
8,False,466,0.835,50,[],[],"[(1131, 918)]",[],[1],[36],[0.6],"[640.0, 512.0]",horizontal,"(890.0, 762.0)",[1.2],[0.554],1,4575.019
8,False,467,1.182,70,[],[],"[(1055, 932)]",[],[1],[51],[0.85],"[640.0, 512.0]",vertical,"(390.0, 762.0)",[1.6],[0.801],0,4579.612
8,False,468,0.876,52,[],[],"[(1063, 916)]",[],[1],[],[],"[640.0, 512.0]",horizontal,"(890.0, 762.0)",[],[0],0,4585.126
8,False,469,0.91,54,[],[],"[(1142, 903)]",[],[1],[33],[0.55],"[640.0, 512.0]",horizontal,"(390.0, 762.0)",[0.9833333333333333],[0.504],1,4592.077
8,False,470,0.888,53,[],[],"[(1122, 927)]",[],[1],[30],[0.5],"[640.0, 512.0]",horizontal,"(890.0, 762.0)",[1.05],[0.462],1,4598.064
8,False,471,0.503,30,[],[],"[(1129, 927)]",[],[1],[38],[0.6333333333333333],"[640.0, 512.0]",horizontal,"(890.0, 262.0)",[0.6166666666666667],[0.588],1,4602.553
8,False,472,0.561,33,[],[],"[(1107, 910)]",[],[1],[33],[0.55],"[640.0, 512.0]",horizontal,"(390.0, 762.0)",[1.0],[0.515],1,4607.616
8,False,473,0.738,44,[],[],"[(1136, 915)]",[],[1],[29],[0.48333333333333334],"[640.0, 512.0]",vertical,"(390.0, 762.0)",[1.6333333333333333],[0.444],1,4611.908
8,False,474,0.918,55,[],[],"[(1135, 915)]",[],[1],[33],[0.55],"[640.0, 512.0]",horizontal,"(890.0, 762.0)",[0.9166666666666666],[0.51],1,4616.741
8,False,475,1.027,61,[],[],"[(1093, 903)]",[],[1],[],[],"[640.0, 512.0]",horizontal,"(890.0, 262.0)",[],[0],0,4621.108
8,False,476,1.129,67,[],[],"[(1117, 919)]",[],[1],[34],[0.5666666666666667],"[640.0, 512.0]",vertical,"(890.0, 762.0)",[1.5333333333333332],[0.522],1,4625.156
8,False,477,0.85,51,[],[],"[(1148, 916)]",[],[1],[33],[0.55],"[640.0, 512.0]",vertical,"(390.0, 762.0)",[0.7],[0.509],1,4630.424
8,False,478,0.914,54,[],[],"[(1074, 928)]",[],[1],[31],[0.5166666666666666],"[640.0, 512.0]",horizontal,"(390.0, 262.0)",[0.55],[0.475],1,4634.467
8,False,479,1.025,61,[],[],"[(1135, 907)]",[],[1],[35],[0.5833333333333334],"[640.0, 512.0]",vertical,"(890.0, 262.0)",[0.5833333333333334],[0.543],1,4638.493
8,False,480,0.851,51,[],[],"[(1080, 928)]",[],[1],[31],[0.5166666666666666],"[640.0, 512.0]",vertical,"(390.0, 262.0)",[1.6],[0.477],1,4642.559
9,False,481,1.138,68,[],[],"[(1142, 917)]",[],[1],[34],[0.5666666666666667],"[640.0, 512.0]",vertical,"(890.0, 762.0)",[0.9833333333333333],[0.526],1,4647.56
9,False,482,1.119,67,[],[],"[(1129, 908)]",[],[1],[33],[0.55],"[640.0, 512.0]",vertical,"(890.0, 762.0)",[1.5],[0.51],1,4652.234
9,False,483,0.579,34,[],[],"[(1094, 899)]",[],[1],[34],[0.5666666666666667],"[640.0, 512.0]",vertical,"(890.0, 762.0)",[1.0],[0.524],1,4658.228
9,False,484,0.545,32,[],[],"[(1117, 908)]",[],[1],[34],[0.5666666666666667],"[640.0, 512.0]",vertical,"(890.0, 762.0)",[1.6333333333333333],[0.529],1,4662.385
9,False,485,0.524,31,[],[],"[(1044, 926)]",[],[1],[34],[0.5666666666666667],"[640.0, 512.0]",horizontal,"(390.0, 762.0)",[0.9833333333333333],[0.524],1,4667.234
9,False,486,0.844,50,[],[],"[(1053, 916)]",[],[1],[21],[0.35],"[640.0, 512.0]",vertical,"(890.0, 262.0)",[1.5333333333333332],[0.317],1,4671.292
9,False,487,1.153,69,[],[],"[(1093, 911)]",[],[1],[33],[0.55],"[640.0, 512.0]",horizontal,"(390.0, 762.0)",[1.5166666666666666],[0.507],1,4676.058
9,False,488,0.517,31,[],[],"[(1063, 931)]",[],[1],[30],[0.5],"[640.0, 512.0]",vertical,"(890.0, 262.0)",[1.4166666666666667],[0.457],1,4683.879
9,False,489,1.193,71,[],[],"[(1072, 925)]",[],[1],[38],[0.6333333333333333],"[640.0, 512.0]",horizontal,"(890.0, 762.0)",[1.5833333333333333],[0.592],1,4688.427
9,False,490,0.622,37,[],[],"[(1127, 905)]",[],[1],[35],[0.5833333333333334],"[640.0, 512.0]",vertical,"(890.0, 262.0)",[1.2833333333333332],[0.542],1,4693.829
9,False,491,1.05,63,[],[],"[(1093, 927)]",[],[1],[33],[0.55],"[640.0, 512.0]",vertical,"(890.0, 262.0)",[0.5833333333333334],[0.51],1,4698.504
9,False,492,0.577,34,[],[],"[(1062, 918)]",[],[1],[36],[0.6],"[640.0, 512.0]",horizontal,"(390.0, 262.0)",[1.3666666666666667],[0.557],1,4702.642
9,False,493,0.709,42,[],[],"[(1130, 917)]",[],[1],[36],[0.6],"[640.0, 512.0]",horizontal,"(890.0, 762.0)",[1.0],[0.565],1,4707.119
9,False,494,0.511,30,[],[],"[(1086, 924)]",[],[1],[51],[0.85],"[640.0, 512.0]",horizontal,"(390.0, 762.0)",[1.2166666666666666],[0.809],0,4711.507
9,False,495,0.904,54,[],[],"[(1123, 897)]",[],[1],[34],[0.5666666666666667],"[640.0, 512.0]",vertical,"(390.0, 762.0)",[1.1166666666666667],[0.529],1,4716.105
9,False,496,1.174,70,[],[],"[(1143, 935)]",[],[1],[34],[0.5666666666666667],"[640.0, 512.0]",horizontal,"(390.0, 762.0)",[1.6166666666666667],[0.531],1,4720.891
9,False,497,0.642,38,[],[],"[(1123, 905)]",[],[1],[34],[0.5666666666666667],"[640.0, 512.0]",horizontal,"(390.0, 262.0)",[0.8333333333333334],[0.524],1,4726.293
9,False,498,0.92,55,[],[],"[(1123, 914)]",[],[1],[37],[0.6166666666666667],"[640.0, 512.0]",horizontal,"(390.0, 762.0)",[1.3833333333333333],[0.576],1,4730.204
9,False,499,0.778,46,[],[],"[(1123, 907)]",[],[1],[33],[0.55],"[640.0, 512.0]",vertical,"(390.0, 762.0)",[1.0666666666666667],[0.514],1,4735.192
9,False,500,0.692,41,[],[],"[(1101, 893)]",[],[1],[34],[0.5666666666666667],"[640.0, 512.0]",horizontal,"(390.0, 762.0)",[1.1],[0.524],1,4739.474
9,False,501,0.741,44,[],[],"[(1093, 905)]",[],[1],[40],[0.6666666666666666],"[640.0, 512.0]",horizontal,"(890.0, 262.0)",[1.5666666666666667],[0.614],1,4743.922
9,False,502,0.678,40,[],[],"[(1117, 903)]",[],[1],[39],[0.65],"[640.0, 512.0]",horizontal,"(890.0, 762.0)",[1.1666666666666667],[0.606],1,4748.938
9,False,503,0.695,41,[],[],"[(1093, 913)]",[],[1],[39],[0.65],"[640.0, 512.0]",vertical,"(890.0, 762.0)",[1.4],[0.608],1,4753.299
9,False,504,0.758,45,[],[],"[(1120, 913)]",[],[1],[38],[0.6333333333333333],"[640.0, 512.0]",vertical,"(390.0, 262.0)",[0.5],[0.591],1,4758.024
9,False,505,0.982,58,[],[],"[(1093, 906)]",[],[1],[35],[0.5833333333333334],"[640.0, 512.0]",vertical,"(890.0, 262.0)",[0.5],[0.539],1,4761.941
9,False,506,0.507,30,[],[],"[(1117, 907)]",[],[1],[33],[0.55],"[640.0, 512.0]",horizontal,"(390.0, 262.0)",[0.8],[0.511],1,4765.904
9,False,507,0.743,44,[],[],"[(1063, 922)]",[],[1],[33],[0.55],"[640.0, 512.0]",vertical,"(390.0, 262.0)",[1.2],[0.515],1,4769.86
9,False,508,0.759,45,[],[],"[(1108, 914)]",[],[1],[],[],"[640.0, 512.0]",vertical,"(390.0, 262.0)",[],[0],0,4774.405
9,False,509,0.993,59,[],[],"[(1136, 910)]",[],[1],[35],[0.5833333333333334],"[640.0, 512.0]",horizontal,"(390.0, 762.0)",[0.5333333333333333],[0.542],1,4778.49
9,False,510,0.605,36,[],[],"[(1109, 929)]",[],[1],[34],[0.5666666666666667],"[640.0, 512.0]",horizontal,"(390.0, 762.0)",[1.4],[0.528],1,4782.591
9,False,511,1.125,67,[],[],"[(1093, 934)]",[],[1],[35],[0.5833333333333334],"[640.0, 512.0]",vertical,"(890.0, 262.0)",[0.5],[0.545],1,4787.342
9,False,512,0.574,34,[],[],"[(1065, 914)]",[],[1],[41],[0.6833333333333333],"[640.0, 512.0]",vertical,"(890.0, 762.0)",[0.5166666666666666],[0.639],1,4791.423
9,False,513,0.532,31,[],[],"[(1117, 910)]",[],[1],[37],[0.6166666666666667],"[640.0, 512.0]",horizontal,"(890.0, 262.0)",[0.8],[0.575],1,4795.876
9,False,514,0.543,32,[],[],"[(1063, 914)]",[],[1],[34],[0.5666666666666667],"[640.0, 512.0]",horizontal,"(390.0, 262.0)",[1.1333333333333333],[0.53],1,4799.744
9,False,515,1.002,60,[],[],"[(1136, 915)]",[],[1],[25],[0.4166666666666667],"[640.0, 512.0]",horizontal,"(390.0, 262.0)",[1.55],[0.375],1,4803.924
9,False,516,1.103,66,[],[],"[(1129, 917)]",[],[1],[34],[0.5666666666666667],"[640.0, 512.0]",horizontal,"(390.0, 262.0)",[1.2833333333333332],[0.526],1,4808.799
9,False,517,1.099,65,[],[],"[(1129, 910)]",[],[1],[35],[0.5833333333333334],"[640.0, 512.0]",horizontal,"(890.0, 262.0)",[1.2666666666666666],[0.536],1,4813.619
9,False,518,1.119,67,[],[],"[(1119, 907)]",[],[1],[35],[0.5833333333333334],"[640.0, 512.0]",horizontal,"(890.0, 762.0)",[1.15],[0.547],1,4818.465
9,False,519,0.545,32,[],[],"[(1153, 927)]",[],[1],[33],[0.55],"[640.0, 512.0]",horizontal,"(890.0, 262.0)",[0.9666666666666667],[0.509],1,4823.189
9,False,520,0.839,50,[],[],"[(1129, 903)]",[],[1],[38],[0.6333333333333333],"[640.0, 512.0]",horizontal,"(390.0, 262.0)",[0.7],[0.592],1,4827.199
9,False,521,0.74,44,[],[],"[(1129, 917)]",[],[1],[29],[0.48333333333333334],"[640.0, 512.0]",horizontal,"(890.0, 262.0)",[0.7166666666666667],[0.447],1,4831.402
9,False,522,0.976,58,[],[],"[(1105, 913)]",[],[1],[36],[0.6],"[640.0, 512.0]",vertical,"(890.0, 762.0)",[1.4166666666666667],[0.552],1,4835.321
9,False,523,0.848,50,[],[],"[(1093, 908)]",[],[1],[37],[0.6166666666666667],"[640.0, 512.0]",vertical,"(390.0, 262.0)",[1.55],[0.572],1,4840.329
9,False,524,0.711,42,[],[],"[(1093, 914)]",[],[1],[34],[0.5666666666666667],"[640.0, 512.0]",vertical,"(890.0, 762.0)",[1.0666666666666667],[0.525],1,4845.393
9,False,525,0.817,49,[],[],"[(1096, 910)]",[],[1],[33],[0.55],"[640.0, 512.0]",vertical,"(890.0, 262.0)",[1.4166666666666667],[0.513],1,4849.717
9,False,526,0.921,55,[],[],"[(1117, 902)]",[],[1],[45],[0.75],"[640.0, 512.0]",vertical,"(390.0, 762.0)",[1.3666666666666667],[0.707],1,4854.439
9,False,527,0.647,38,[],[],"[(1093, 916)]",[],[1],[20],[0.3333333333333333],"[640.0, 512.0]",horizontal,"(390.0, 262.0)",[1.6833333333333333],[0.295],1,4859.403
9,False,528,0.598,35,[],[],"[(1125, 918)]",[],[1],[36],[0.6],"[640.0, 512.0]",horizontal,"(890.0, 762.0)",[1.65],[0.559],1,4864.149
9,False,529,1.153,69,[],[],"[(1106, 907)]",[],[1],[43],[0.7166666666666667],"[640.0, 512.0]",vertical,"(390.0, 262.0)",[1.3333333333333333],[0.674],1,4868.946
9,False,530,1.134,68,[],[],"[(1117, 905)]",[],[1],[32],[0.5333333333333333],"[640.0, 512.0]",horizontal,"(890.0, 762.0)",[1.2666666666666666],[0.493],1,4874.064
9,False,531,0.713,42,[],[],"[(1088, 915)]",[],[1],[41],[0.6833333333333333],"[640.0, 512.0]",vertical,"(890.0, 762.0)",[0.9166666666666666],[0.647],1,4878.943
9,False,532,0.684,41,[],[],"[(1136, 910)]",[],[1],[33],[0.55],"[640.0, 512.0]",horizontal,"(890.0, 262.0)",[1.05],[0.507],1,4883.074
9,False,533,0.679,40,[],[],"[(1099, 901)]",[],[1],[40],[0.6666666666666666],"[640.0, 512.0]",horizontal,"(390.0, 762.0)",[1.2166666666666666],[0.622],1,4887.24
9,False,534,0.567,34,[],[],"[(1117, 914)]",[],[1],[39],[0.65],"[640.0, 512.0]",vertical,"(390.0, 762.0)",[1.05],[0.607],1,4891.826
9,False,535,0.515,30,[],[],"[(1090, 906)]",[],[1],[],[],"[640.0, 512.0]",horizontal,"(890.0, 762.0)",[],[0],0,4896.202
9,False,536,1.121,67,[],[],"[(1123, 914)]",[],[1],[31],[0.5166666666666666],"[640.0, 512.0]",vertical,"(390.0, 762.0)",[1.35],[0.482],1,4900.114
9,False,537,1.057,63,[],[],"[(1087, 906)]",[],[1],[20],[0.3333333333333333],"[640.0, 512.0]",vertical,"(390.0, 262.0)",[1.35],[0.294],1,4905.254
9,False,538,1.196,71,[],[],"[(1104, 900)]",[],[1],[41],[0.6833333333333333],"[640.0, 512.0]",horizontal,"(390.0, 762.0)",[0.6],[0.643],1,4909.786
9,False,539,0.537,32,[],[],"[(1050, 903)]",[],[1],[7],[0.11666666666666667],"[640.0, 512.0]",vertical,"(390.0, 262.0)",[1.15],[0.086],1,4914.418
9,False,540,0.707,42,[],[],"[(1081, 915)]",[],[1],[36],[0.6],"[640.0, 512.0]",vertical,"(390.0, 762.0)",[1.65],[0.56],1,4918.155
10,False,541,0.816,48,[],[],"[(1093, 909)]",[],[1],[35],[0.5833333333333334],"[640.0, 512.0]",vertical,"(890.0, 762.0)",[1.1333333333333333],[0.544],1,4923.075
10,False,542,0.659,39,[],[],"[(1063, 914)]",[],[1],[32],[0.5333333333333333],"[640.0, 512.0]",horizontal,"(890.0, 262.0)",[1.2166666666666666],[0.49],1,4927.554
10,False,543,1.16,69,[],[],"[(1099, 915)]",[],[1],[35],[0.5833333333333334],"[640.0, 512.0]",vertical,"(390.0, 762.0)",[0.9333333333333333],[0.54],1,4931.843
10,False,544,0.838,50,[],[],"[(1093, 890)]",[],[1],[36],[0.6],"[640.0, 512.0]",vertical,"(390.0, 762.0)",[0.6333333333333333],[0.558],1,4936.308
10,False,545,1.164,69,[],[],"[(1135, 909)]",[],[1],[38],[0.6333333333333333],"[640.0, 512.0]",vertical,"(390.0, 262.0)",[0.8666666666666667],[0.593],1,4940.33
10,False,546,0.608,36,[],[],"[(1112, 905)]",[],[1],[34],[0.5666666666666667],"[640.0, 512.0]",vertical,"(890.0, 762.0)",[1.4],[0.527],1,4944.884
10,False,547,1.191,71,[],[],"[(1065, 907)]",[],[1],[32],[0.5333333333333333],"[640.0, 512.0]",horizontal,"(890.0, 762.0)",[0.5],[0.491],1,4949.356
10,False,548,0.87,52,[],[],"[(1050, 945)]",[],[1],[32],[0.5333333333333333],"[640.0, 512.0]",vertical,"(390.0, 262.0)",[1.1],[0.494],1,4953.475
10,False,549,0.695,41,[],[],"[(1063, 908)]",[],[1],[38],[0.6333333333333333],"[640.0, 512.0]",vertical,"(390.0, 262.0)",[1.6333333333333333],[0.591],1,4957.851
10,False,550,0.608,36,[],[],"[(1065, 912)]",[],[1],[51],[0.85],"[640.0, 512.0]",horizontal,"(390.0, 762.0)",[1.0333333333333332],[0.803],0,4962.622
10,False,551,0.926,55,[],[],"[(1123, 916)]",[],[1],[38],[0.6333333333333333],"[640.0, 512.0]",vertical,"(390.0, 262.0)",[0.7],[0.591],1,4967.006
10,False,552,0.76,45,[],[],"[(1123, 898)]",[],[1],[31],[0.5166666666666666],"[640.0, 512.0]",vertical,"(390.0, 262.0)",[0.9333333333333333],[0.47],1,4971.928
10,False,553,0.632,37,[],[],"[(1118, 906)]",[],[1],[15],[0.25],"[640.0, 512.0]",vertical,"(390.0, 262.0)",[0.9333333333333333],[0.219],1,4976.243
10,False,554,0.553,33,[],[],"[(1063, 913)]",[],[1],[34],[0.5666666666666667],"[640.0, 512.0]",horizontal,"(890.0, 762.0)",[0.9666666666666667],[0.518],1,4979.983
10,False,555,1.159,69,[],[],"[(1075, 902)]",[],[1],[35],[0.5833333333333334],"[640.0, 512.0]",horizontal,"(390.0, 762.0)",[1.6333333333333333],[0.537],1,4984.101
10,False,556,0.679,40,[],[],"[(1099, 910)]",[],[1],[37],[0.6166666666666667],"[640.0, 512.0]",horizontal,"(390.0, 762.0)",[1.2166666666666666],[0.569],1,4989.534
10,False,557,1.075,64,[],[],"[(1098, 909)]",[],[1],[15],[0.25],"[640.0, 512.0]",horizontal,"(890.0, 262.0)",[0.8166666666666667],[0.216],1,4994.138
10,False,558,1.042,62,[],[],"[(1093, 923)]",[],[1],[34],[0.5666666666666667],"[640.0, 512.0]",vertical,"(390.0, 762.0)",[1.4833333333333334],[0.534],1,4998.236
10,False,559,0.891,53,[],[],"[(1113, 913)]",[],[1],[33],[0.55],"[640.0, 512.0]",horizontal,"(890.0, 762.0)",[0.55],[0.504],1,5003.274
10,False,560,0.965,57,[],[],"[(1093, 898)]",[],[1],[32],[0.5333333333333333],"[640.0, 512.0]",horizontal,"(390.0, 762.0)",[0.6166666666666667],[0.493],1,5007.39
10,False,561,0.666,39,[],[],"[(1071, 910)]",[],[1],[32],[0.5333333333333333],"[640.0, 512.0]",vertical,"(890.0, 262.0)",[0.9333333333333333],[0.493],1,5011.454
10,False,562,1.04,62,[],[],"[(1093, 898)]",[],[1],[37],[0.6166666666666667],"[640.0, 512.0]",horizontal,"(390.0, 762.0)",[0.8666666666666667],[0.574],1,5015.512
10,False,563,1.131,67,[],[],"[(1093, 933)]",[],[1],[36],[0.6],"[640.0, 512.0]",horizontal,"(890.0, 762.0)",[1.05],[0.561],1,5019.961
10,False,564,1.002,60,[],[],"[(1136, 930)]",[],[1],[32],[0.5333333333333333],"[640.0, 512.0]",vertical,"(890.0, 262.0)",[1.5666666666666667],[0.497],1,5024.647
10,False,565,0.895,53,[],[],"[(1135, 912)]",[],[1],[32],[0.5333333333333333],"[640.0, 512.0]",horizontal,"(390.0, 262.0)",[1.1166666666666667],[0.493],1,5029.71
10,False,566,0.778,46,[],[],"[(1060, 923)]",[],[1],[31],[0.5166666666666666],"[640.0, 512.0]",horizontal,"(390.0, 262.0)",[1.4666666666666666],[0.476],1,5034.175
10,False,567,0.911,54,[],[],"[(1122, 916)]",[],[1],[34],[0.5666666666666667],"[640.0, 512.0]",vertical,"(390.0, 762.0)",[0.6166666666666667],[0.525],1,5038.877
10,False,568,1.092,65,[],[],"[(1093, 914)]",[],[1],[38],[0.6333333333333333],"[640.0, 512.0]",horizontal,"(890.0, 762.0)",[1.5333333333333332],[0.589],1,5043.042
10,False,569,0.789,47,[],[],"[(1135, 908)]",[],[1],[34],[0.5666666666666667],"[640.0, 512.0]",horizontal,"(890.0, 762.0)",[0.75],[0.522],1,5048.19
10,False,570,1.074,64,[],[],"[(1093, 902)]",[],[1],[7],[0.11666666666666667],"[640.0, 512.0]",horizontal,"(390.0, 262.0)",[1.1],[0.085],1,5053.428
10,False,571,0.959,57,[],[],"[(1136, 936)]",[],[1],[35],[0.5833333333333334],"[640.0, 512.0]",vertical,"(890.0, 762.0)",[1.1666666666666667],[0.543],1,5057.805
10,False,572,0.771,46,[],[],"[(1148, 920)]",[],[1],[34],[0.5666666666666667],"[640.0, 512.0]",horizontal,"(890.0, 762.0)",[0.8333333333333334],[0.523],1,5062.527
10,False,573,0.673,40,[],[],"[(1068, 912)]",[],[1],[34],[0.5666666666666667],"[640.0, 512.0]",horizontal,"(890.0, 762.0)",[0.8666666666666667],[0.521],1,5066.692
10,False,574,0.885,53,[],[],"[(1092, 910)]",[],[1],[18],[0.3],"[640.0, 512.0]",vertical,"(890.0, 262.0)",[0.9833333333333333],[0.275],1,5070.694
10,False,575,0.989,59,[],[],"[(1086, 903)]",[],[1],[35],[0.5833333333333334],"[640.0, 512.0]",horizontal,"(390.0, 762.0)",[1.1],[0.541],1,5074.855
10,False,576,0.637,38,[],[],"[(1093, 915)]",[],[1],[40],[0.6666666666666666],"[640.0, 512.0]",horizontal,"(890.0, 762.0)",[0.6],[0.621],1,5079.554
10,False,577,0.748,44,[],[],"[(1095, 905)]",[],[1],[35],[0.5833333333333334],"[640.0, 512.0]",vertical,"(890.0, 262.0)",[1.1666666666666667],[0.535],1,5083.889
10,False,578,1.087,65,[],[],"[(1095, 924)]",[],[1],[35],[0.5833333333333334],"[640.0, 512.0]",vertical,"(890.0, 762.0)",[0.8333333333333334],[0.543],1,5088.358
10,False,579,0.504,30,[],[],"[(1064, 923)]",[],[1],[33],[0.55],"[640.0, 512.0]",vertical,"(890.0, 262.0)",[1.2666666666666666],[0.51],1,5092.822
10,False,580,1.033,61,[],[],"[(1123, 901)]",[],[1],[35],[0.5833333333333334],"[640.0, 512.0]",vertical,"(390.0, 762.0)",[1.1333333333333333],[0.541],1,5097.137
10,False,581,0.927,55,[],[],"[(1095, 904)]",[],[1],[35],[0.5833333333333334],"[640.0, 512.0]",horizontal,"(390.0, 762.0)",[1.0166666666666666],[0.544],1,5101.888
10,False,582,1.087,65,[],[],"[(1067, 932)]",[],[1],[34],[0.5666666666666667],"[640.0, 512.0]",vertical,"(890.0, 262.0)",[0.9666666666666667],[0.527],1,5106.333
10,False,583,1.168,70,[],[],"[(1068, 910)]",[],[1],[33],[0.55],"[640.0, 512.0]",horizontal,"(890.0, 762.0)",[0.7666666666666666],[0.509],1,5110.936
10,False,584,0.917,55,[],[],"[(1080, 912)]",[],[1],[36],[0.6],"[640.0, 512.0]",vertical,"(390.0, 262.0)",[0.6833333333333333],[0.562],1,5115.408
10,False,585,0.598,35,[],[],"[(1093, 911)]",[],[1],[43],[0.7166666666666667],"[640.0, 512.0]",vertical,"(890.0, 762.0)",[1.3666666666666667],[0.671],1,5119.57
10,False,586,0.591,35,[],[],"[(1063, 920)]",[],[1],[5],[0.08333333333333333],"[640.0, 512.0]",horizontal,"(390.0, 262.0)",[1.2333333333333334],[0.052],1,5124.272
10,False,587,0.745,44,[],[],"[(1093, 914)]",[],[1],[35],[0.5833333333333334],"[640.0, 512.0]",horizontal,"(890.0, 762.0)",[1.1333333333333333],[0.54],1,5128.171
10,False,588,1.08,64,[],[],"[(1133, 907)]",[],[1],[39],[0.65],"[640.0, 512.0]",horizontal,"(890.0, 762.0)",[1.5666666666666667],[0.603],1,5132.621
10,False,589,0.828,49,[],[],"[(1135, 898)]",[],[1],[36],[0.6],"[640.0, 512.0]",vertical,"(390.0, 262.0)",[0.8833333333333333],[0.559],1,5138.006
10,False,590,1.132,67,[],[],"[(1117, 920)]",[],[1],[42],[0.7],"[640.0, 512.0]",horizontal,"(890.0, 762.0)",[0.7],[0.651],1,5143.533
10,False,591,0.532,31,[],[],"[(1072, 915)]",[],[1],[33],[0.55],"[640.0, 512.0]",horizontal,"(890.0, 262.0)",[1.1833333333333333],[0.506],1,5148.219
10,False,592,0.833,49,[],[],"[(1061, 910)]",[],[1],[],[],"[640.0, 512.0]",horizontal,"(390.0, 262.0)",[],[0],0,5152.453
10,False,593,1.008,60,[],[],"[(1093, 892)]",[],[1],[21],[0.35],"[640.0, 512.0]",horizontal,"(390.0, 262.0)",[1.6166666666666667],[0.311],1,5156.523
10,False,594,1.187,71,[],[],"[(1114, 914)]",[],[1],[34],[0.5666666666666667],"[640.0, 512.0]",vertical,"(890.0, 262.0)",[1.2666666666666666],[0.532],1,5162.05
10,False,595,1.136,68,[],[],"[(1117, 906)]",[],[1],[33],[0.55],"[640.0, 512.0]",horizontal,"(390.0, 262.0)",[0.9166666666666666],[0.517],1,5166.993
10,False,596,0.895,53,[],[],"[(1062, 912)]",[],[1],[33],[0.55],"[640.0, 512.0]",vertical,"(390.0, 762.0)",[1.7],[0.509],1,5171.661
10,False,597,0.501,30,[],[],"[(1093, 908)]",[],[1],[36],[0.6],"[640.0, 512.0]",vertical,"(890.0, 262.0)",[1.3],[0.554],1,5176.822
10,False,598,0.763,45,[],[],"[(1068, 904)]",[],[1],[36],[0.6],"[640.0, 512.0]",horizontal,"(890.0, 762.0)",[0.85],[0.558],1,5181.199
10,False,599,0.778,46,[],[],"[(1093, 903)]",[],[1],[38],[0.6333333333333333],"[640.0, 512.0]",vertical,"(390.0, 762.0)",[0.95],[0.591],1,5185.292
10,False,600,0.718,43,[],[],"[(1123, 902)]",[],[1],[35],[0.5833333333333334],"[640.0, 512.0]",vertical,"(390.0, 762.0)",[1.1833333333333333],[0.535],1,5189.517
11,False,601,0.986,59,[],[],"[(1145, 930)]",[],[1],[34],[0.5666666666666667],"[640.0, 512.0]",horizontal,"(390.0, 262.0)",[0.5],[0.524],1,5194.051
11,False,602,1.192,71,[],[],"[(1137, 916)]",[],[1],[36],[0.6],"[640.0, 512.0]",vertical,"(390.0, 262.0)",[0.6833333333333333],[0.555],1,5198.077
11,False,603,1.126,67,[],[],"[(1133, 904)]",[],[1],[35],[0.5833333333333334],"[640.0, 512.0]",horizontal,"(390.0, 762.0)",[1.1166666666666667],[0.537],1,5202.505
11,False,604,0.693,41,[],[],"[(1117, 942)]",[],[1],[37],[0.6166666666666667],"[640.0, 512.0]",vertical,"(390.0, 262.0)",[0.9166666666666666],[0.573],1,5207.277
11,False,605,0.529,31,[],[],"[(1093, 915)]",[],[1],[30],[0.5],"[640.0, 512.0]",vertical,"(390.0, 262.0)",[1.4166666666666667],[0.456],1,5211.42
11,False,606,0.799,47,[],[],"[(1066, 920)]",[],[1],[40],[0.6666666666666666],"[640.0, 512.0]",horizontal,"(890.0, 762.0)",[0.8166666666666667],[0.623],1,5215.855
11,False,607,0.557,33,[],[],"[(1094, 898)]",[],[1],[36],[0.6],"[640.0, 512.0]",horizontal,"(890.0, 762.0)",[1.1666666666666667],[0.557],1,5220.1
11,False,608,0.681,40,[],[],"[(1105, 911)]",[],[1],[37],[0.6166666666666667],"[640.0, 512.0]",vertical,"(890.0, 262.0)",[1.6833333333333333],[0.572],1,5224.406
11,False,609,1.196,71,[],[],"[(1117, 909)]",[],[1],[51],[0.85],"[640.0, 512.0]",horizontal,"(390.0, 262.0)",[1.55],"[0, 0.796]",0,5229.295
11,False,610,0.91,54,[],[],"[(1076, 940)]",[],[1],[33],[0.55],"[640.0, 512.0]",vertical,"(890.0, 262.0)",[1.6833333333333333],[0.507],1,5234.844
11,False,611,1.133,67,[],[],"[(1060, 910)]",[],[1],[34],[0.5666666666666667],"[640.0, 512.0]",vertical,"(890.0, 762.0)",[0.6166666666666667],[0.524],1,5239.88
11,False,612,0.952,57,[],[],"[(1123, 906)]",[],[1],[34],[0.5666666666666667],"[640.0, 512.0]",horizontal,"(390.0, 262.0)",[0.9166666666666666],[0.524],1,5244.048
11,False,613,1.107,66,[],[],"[(1153, 911)]",[],[1],[32],[0.5333333333333333],"[640.0, 512.0]",horizontal,"(890.0, 762.0)",[1.6833333333333333],[0.493],1,5248.441
11,False,614,0.722,43,[],[],"[(1114, 919)]",[],[1],[34],[0.5666666666666667],"[640.0, 512.0]",horizontal,"(890.0, 262.0)",[0.8],[0.525],1,5253.679
11,False,615,0.903,54,[],[],"[(1068, 910)]",[],[1],[37],[0.6166666666666667],"[640.0, 512.0]",horizontal,"(390.0, 262.0)",[1.2833333333333332],[0.576],1,5257.769
11,False,616,0.82,49,[],[],"[(1123, 905)]",[],[1],[39],[0.65],"[640.0, 512.0]",vertical,"(890.0, 262.0)",[1.0333333333333332],[0.608],1,5262.667
11,False,617,1.107,66,[],[],"[(1093, 908)]",[],[1],[34],[0.5666666666666667],"[640.0, 512.0]",horizontal,"(390.0, 762.0)",[1.65],[0.529],1,5267.072
11,False,618,0.53,31,[],[],"[(1095, 906)]",[],[1],[35],[0.5833333333333334],"[640.0, 512.0]",horizontal,"(390.0, 762.0)",[1.1833333333333333],[0.539],1,5272.363
11,False,619,1.127,67,[],[],"[(1098, 910)]",[],[1],[39],[0.65],"[640.0, 512.0]",horizontal,"(390.0, 762.0)",[1.5],[0.605],1,5276.608
11,False,620,0.867,52,[],[],"[(1087, 912)]",[],[1],[32],[0.5333333333333333],"[640.0, 512.0]",vertical,"(890.0, 262.0)",[1.45],[0.491],1,5281.726
11,False,621,0.538,32,[],[],"[(1129, 913)]",[],[1],[41],[0.6833333333333333],"[640.0, 512.0]",horizontal,"(390.0, 262.0)",[0.75],[0.633],1,5286.394
11,False,622,1.087,65,[],[],"[(1134, 902)]",[],[1],[],[],"[640.0, 512.0]",horizontal,"(390.0, 262.0)",[],[0],0,5290.308
11,False,623,0.98,58,[],[],"[(1118, 904)]",[],[1],[38],[0.6333333333333333],"[640.0, 512.0]",horizontal,"(390.0, 262.0)",[1.6666666666666667],[0.59],1,5294.669
11,False,624,0.926,55,[],[],"[(1133, 897)]",[],[1],[41],[0.6833333333333333],"[640.0, 512.0]",vertical,"(390.0, 762.0)",[0.6333333333333333],[0.638],1,5300.078
11,False,625,1.071,64,[],[],"[(1117, 912)]",[],[1],[33],[0.55],"[640.0, 512.0]",horizontal,"(390.0, 762.0)",[0.7333333333333333],[0.509],1,5304.245
11,False,626,0.718,43,[],[],"[(1123, 899)]",[],[1],[36],[0.6],"[640.0, 512.0]",horizontal,"(390.0, 762.0)",[0.5666666666666667],[0.559],1,5308.621
11,False,627,0.945,56,[],[],"[(1117, 916)]",[],[1],[29],[0.48333333333333334],"[640.0, 512.0]",horizontal,"(390.0, 262.0)",[1.45],[0.444],1,5312.539
11,False,628,0.62,37,[],[],"[(1089, 933)]",[],[1],[36],[0.6],"[640.0, 512.0]",vertical,"(390.0, 262.0)",[0.5],[0.56],1,5317.378
11,False,629,0.772,46,[],[],"[(1123, 905)]",[],[1],[32],[0.5333333333333333],"[640.0, 512.0]",horizontal,"(890.0, 262.0)",[1.0666666666666667],[0.494],1,5321.189
11,False,630,0.83,49,[],[],"[(1114, 918)]",[],[1],[44],[0.7333333333333333],"[640.0, 512.0]",horizontal,"(890.0, 262.0)",[0.9666666666666667],[0.692],1,5325.707
11,False,631,0.564,33,[],[],"[(1066, 927)]",[],[1],[32],[0.5333333333333333],"[640.0, 512.0]",horizontal,"(890.0, 762.0)",[1.2166666666666666],[0.495],1,5330.291
11,False,632,0.64,38,[],[],"[(1090, 906)]",[],[1],[],[],"[640.0, 512.0]",horizontal,"(890.0, 262.0)",[],[0],0,5334.555
11,False,633,0.79,47,[],[],"[(1087, 935)]",[],[1],[36],[0.6],"[640.0, 512.0]",vertical,"(890.0, 762.0)",[0.7833333333333333],[0.561],1,5338.381
11,False,634,0.797,47,[],[],"[(1153, 909)]",[],[1],[32],[0.5333333333333333],"[640.0, 512.0]",horizontal,"(890.0, 762.0)",[0.8666666666666667],[0.493],1,5342.609
11,False,635,0.716,42,[],[],"[(1129, 901)]",[],[1],[37],[0.6166666666666667],"[640.0, 512.0]",vertical,"(390.0, 762.0)",[1.1166666666666667],[0.571],1,5346.874
11,False,636,0.648,38,[],[],"[(1152, 910)]",[],[1],[33],[0.55],"[640.0, 512.0]",vertical,"(890.0, 262.0)",[1.1666666666666667],[0.511],1,5351.263
11,False,637,0.906,54,[],[],"[(1102, 925)]",[],[1],[42],[0.7],"[640.0, 512.0]",horizontal,"(390.0, 762.0)",[0.8666666666666667],[0.659],1,5355.561
11,False,638,0.563,33,[],[],"[(1129, 893)]",[],[1],[34],[0.5666666666666667],"[640.0, 512.0]",vertical,"(890.0, 262.0)",[1.3833333333333333],[0.52],1,5360.134
11,False,639,0.763,45,[],[],"[(1117, 923)]",[],[1],[34],[0.5666666666666667],"[640.0, 512.0]",horizontal,"(390.0, 262.0)",[1.1833333333333333],[0.529],1,5364.7
11,False,640,0.92,55,[],[],"[(1129, 914)]",[],[1],[35],[0.5833333333333334],"[640.0, 512.0]",vertical,"(390.0, 762.0)",[1.45],[0.552],1,5369.291
11,False,641,0.812,48,[],[],"[(1109, 905)]",[],[1],[35],[0.5833333333333334],"[640.0, 512.0]",horizontal,"(890.0, 762.0)",[0.6666666666666666],[0.54],1,5374.094
11,False,642,1.139,68,[],[],"[(1080, 927)]",[],[1],[36],[0.6],"[640.0, 512.0]",vertical,"(890.0, 762.0)",[1.1166666666666667],[0.558],1,5378.126
11,False,643,0.759,45,[],[],"[(1067, 924)]",[],[1],[35],[0.5833333333333334],"[640.0, 512.0]",horizontal,"(890.0, 262.0)",[1.6833333333333333],[0.542],1,5383.024
11,False,644,0.715,42,[],[],"[(1080, 906)]",[],[1],[34],[0.5666666666666667],"[640.0, 512.0]",horizontal,"(390.0, 262.0)",[0.95],[0.522],1,5388.211
11,False,645,0.764,45,[],[],"[(1085, 906)]",[],[1],[35],[0.5833333333333334],"[640.0, 512.0]",vertical,"(890.0, 762.0)",[0.6833333333333333],[0.542],1,5392.273
11,False,646,1.024,61,[],[],"[(1098, 902)]",[],[1],[34],[0.5666666666666667],"[640.0, 512.0]",vertical,"(890.0, 762.0)",[0.9666666666666667],[0.525],1,5396.229
11,False,647,0.874,52,[],[],"[(1093, 908)]",[],[1],[33],[0.55],"[640.0, 512.0]",horizontal,"(890.0, 762.0)",[1.1666666666666667],[0.507],1,5400.829
11,False,648,0.632,37,[],[],"[(1135, 914)]",[],[1],[36],[0.6],"[640.0, 512.0]",vertical,"(390.0, 262.0)",[0.8],[0.559],1,5405.371
11,False,649,0.661,39,[],[],"[(1093, 893)]",[],[1],[34],[0.5666666666666667],"[640.0, 512.0]",horizontal,"(890.0, 262.0)",[0.5333333333333333],[0.524],1,5409.448
11,False,650,0.614,36,[],[],"[(1090, 928)]",[],[1],[40],[0.6666666666666666],"[640.0, 512.0]",horizontal,"(390.0, 762.0)",[1.6666666666666667],[0.625],1,5415.15
11,False,651,0.686,41,[],[],"[(1067, 924)]",[],[1],[35],[0.5833333333333334],"[640.0, 512.0]",vertical,"(890.0, 762.0)",[0.7666666666666666],[0.54],1,5420.014
11,False,652,0.763,45,[],[],"[(1147, 915)]",[],[1],[32],[0.5333333333333333],"[640.0, 512.0]",horizontal,"(890.0, 262.0)",[1.6166666666666667],[0.492],1,5425.497
11,False,653,0.629,37,[],[],"[(1093, 910)]",[],[1],[30],[0.5],"[640.0, 512.0]",horizontal,"(390.0, 262.0)",[1.5666666666666667],[0.469],1,5430.413
11,False,654,1.173,70,[],[],"[(1129, 912)]",[],[1],[34],[0.5666666666666667],"[640.0, 512.0]",vertical,"(390.0, 762.0)",[0.9333333333333333],[0.524],1,5435.198
11,False,655,0.766,45,[],[],"[(1123, 921)]",[],[1],[30],[0.5],"[640.0, 512.0]",vertical,"(890.0, 262.0)",[0.85],[0.464],1,5439.715
11,False,656,0.925,55,[],[],"[(1129, 913)]",[],[1],[36],[0.6],"[640.0, 512.0]",vertical,"(390.0, 762.0)",[1.1666666666666667],[0.557],1,5443.922
11,False,657,1.037,62,[],[],"[(1058, 905)]",[],[1],[35],[0.5833333333333334],"[640.0, 512.0]",vertical,"(890.0, 262.0)",[1.1166666666666667],[0.543],1,5448.595
11,False,658,0.535,32,[],[],"[(1142, 923)]",[],[1],[35],[0.5833333333333334],"[640.0, 512.0]",horizontal,"(890.0, 262.0)",[0.9833333333333333],[0.536],1,5453.35
11,False,659,0.725,43,[],[],"[(1093, 926)]",[],[1],[32],[0.5333333333333333],"[640.0, 512.0]",horizontal,"(390.0, 262.0)",[1.6],[0.489],1,5457.545
11,False,660,1.046,62,[],[],"[(1135, 915)]",[],[1],[37],[0.6166666666666667],"[640.0, 512.0]",vertical,"(390.0, 762.0)",[1.0666666666666667],[0.569],1,5462.447
12,False,661,1.04,62,[],[],"[(1093, 912)]",[],[1],[25],[0.4166666666666667],"[640.0, 512.0]",vertical,"(390.0, 262.0)",[1.5],[0.378],1,5467.189
12,False,662,1.186,71,[],[],"[(1099, 908)]",[],[1],[36],[0.6],"[640.0, 512.0]",vertical,"(890.0, 762.0)",[0.5],[0.556],1,5472.059
12,False,663,0.884,53,[],[],"[(1056, 919)]",[],[1],[36],[0.6],"[640.0, 512.0]",vertical,"(390.0, 762.0)",[1.0833333333333333],[0.556],1,5476.457
12,False,664,0.69,41,[],[],"[(1082, 903)]",[],[1],[25],[0.4166666666666667],"[640.0, 512.0]",vertical,"(390.0, 262.0)",[1.1166666666666667],[0.379],1,5480.895
