block,trial,trial_type,taps_start_loc_during_fix,taps_end_loc_during_fix,taps_on_lever_during_fix,taps_on_lever_s_during_fix,bar_orientation,target_xy,cti,rt,acc,time,pulses
0,1,target,"[(1111, 883), (1111, 883), (786, 855), (1067, 869)]",[],"[1, 1, 0, 1]",[0.6166666666666667],vertical,"(390.0, 262.0)",0.5166666666666666,0.578,1,0.417,1
0,2,target,"[(1127, 862)]",[],[1],[0.4],vertical,"(890.0, 262.0)",0.7166666666666667,0.372,1,466.95,1
0,3,target,"[(1148, 837)]",[],[1],[0.3333333333333333],vertical,"(390.0, 762.0)",1.1666666666666667,0.306,1,765.611,1
0,4,target,"[(1084, 834)]",[],[1],[0.31666666666666665],horizontal,"(390.0, 262.0)",1.4,0.286,1,895.205,2
0,5,target,"[(1012, 871)]",[],[1],[0.85],horizontal,"(390.0, 762.0)",0.5333333333333333,nan,0,906.773,0
0,6,target,"[(1017, 858)]",[],[1],[0.85],horizontal,"(890.0, 762.0)",0.8833333333333333,nan,0,1308.773,0
0,7,target,"[(1032, 846)]",[],[1],[0.5666666666666667],vertical,"(890.0, 262.0)",1.65,0.542,1,1313.539,1
0,8,target,"[(1045, 829)]",[],[1],[0.36666666666666664],horizontal,"(890.0, 262.0)",1.5,0.338,1,1319.072,1
0,9,catch,"[(1040, 847)]",[],[1],[],vertical,"(890.0, 262.0)",1.45,nan,1,1324.489,1
0,10,catch,"[(1055, 829)]",[],[1],[],horizontal,"(390.0, 262.0)",,"('cti', 1.533),nan",0,1329.272,0
0,11,target,"[(1065, 842)]",[],[1],[0.5166666666666666],horizontal,"(390.0, 762.0)",1.0666666666666667,0.493,1,1333.821,1
0,12,target,"[(1049, 842)]",[],[1],[0.5],vertical,"(890.0, 762.0)",0.7166666666666667,0.476,1,1338.495,1
0,13,catch,"[(1042, 845)]",[],[1],[],vertical,"(390.0, 762.0)",,"('cti', 1.334),nan",0,1343.239,0
0,14,target,"[(1049, 825)]",[],[1],[0.06666666666666667],vertical,"(890.0, 262.0)",1.5,0.035,0,1347.889,0
0,15,target,"[(1033, 856)]",[],[1],[0.8],vertical,"(390.0, 262.0)",1.6833333333333333,0.775,1,1352.822,1
0,16,target,"[(1052, 842)]",[],[1],[0.85],horizontal,"(890.0, 762.0)",1.3,nan,0,1358.736,0
0,17,target,"[(1043, 830)]",[],[1],[0.6],vertical,"(390.0, 262.0)",0.8,0.569,1,1364.155,1
0,18,target,"[(1048, 848)]",[],[1],[0.4666666666666667],horizontal,"(890.0, 762.0)",1.0833333333333333,0.438,1,1369.123,1
0,19,target,"[(1060, 828)]",[],[1],[0.7333333333333333],vertical,"(890.0, 262.0)",1.2833333333333332,0.713,1,1374.023,1
0,20,target,"[(1034, 825)]",[],[1],[0.6],vertical,"(390.0, 262.0)",1.15,0.571,1,1379.056,2
0,21,target,"[(1055, 832)]",[],[1],[],horizontal,"(390.0, 762.0)",,"('cti', 1.497)",0,1384.422,0
0,22,target,"[(1042, 816)]",[],[1],[0.5333333333333333],vertical,"(890.0, 262.0)",0.5833333333333334,0.495,1,1389.108,1
0,23,target,"[(1028, 833)]",[],[1],[0.5166666666666666],horizontal,"(390.0, 262.0)",0.8833333333333333,0.486,1,1393.906,1
0,24,target,"[(1044, 825)]",[],[1],[],vertical,"(890.0, 262.0)",,"('cti', 1.448)",0,1399.106,0
0,25,target,"[(1043, 823)]",[],[1],[0.5166666666666666],vertical,"(890.0, 262.0)",1.0,0.487,1,1404.126,1
0,26,target,"[(1037, 822)]",[],[1],[],vertical,"(890.0, 262.0)",,"('cti', 1.547)",0,1409.189,0
0,27,target,"[(1043, 836)]",[],[1],[0.5],vertical,"(890.0, 262.0)",1.25,0.469,1,1414.086,1
0,28,target,"[(1059, 848)]",[],[1],[],horizontal,"(390.0, 762.0)",,"('cti', 1.554)",0,1418.82,0
0,29,target,"[(1042, 823)]",[],[1],[0.3333333333333333],vertical,"(890.0, 762.0)",1.3166666666666667,0.301,1,1423.472,1
0,30,target,"[(1046, 832)]",[],[1],[0.5833333333333334],vertical,"(390.0, 262.0)",0.85,0.558,1,1428.556,1
0,31,target,"[(1035, 832)]",[],[1],[0.85],horizontal,"(390.0, 262.0)",0.5833333333333334,nan,0,1433.737,0
0,32,target,"[(1039, 831)]",[],[1],[0.5166666666666666],horizontal,"(390.0, 262.0)",0.6,0.492,1,1438.406,1
0,33,target,"[(1035, 828)]",[],[1],[0.4666666666666667],vertical,"(890.0, 762.0)",1.05,0.435,1,1443.601,1
0,34,target,"[(1043, 833)]",[],[1],[0.13333333333333333],vertical,"(390.0, 762.0)",1.5833333333333333,0.104,1,1448.391,1
0,35,catch,"[(1049, 830)]",[],[1],[],horizontal,"(390.0, 762.0)",1.0,nan,1,1453.259,2
0,36,target,"[(1048, 842)]",[],[1],[0.43333333333333335],vertical,"(390.0, 262.0)",1.2166666666666666,0.404,1,1458.025,1
0,37,target,"[(1043, 834)]",[],[1],[0.45],vertical,"(390.0, 262.0)",1.1,0.406,1,1462.692,1
0,38,target,"[(1033, 858)]",[],[1],[],horizontal,"(890.0, 762.0)",,"('cti', 1.436)",0,1468.268,0
0,39,target,"[(1033, 834)]",[],[1],[0.23333333333333334],vertical,"(390.0, 762.0)",1.1666666666666667,0.2,1,1473.118,1
0,40,target,"[(1033, 820)]",[],[1],[0.08333333333333333],horizontal,"(890.0, 262.0)",1.5666666666666667,0.05,0,1478.284,0
0,41,target,"[(1038, 834)]",[],[1],[0.18333333333333332],horizontal,"(890.0, 762.0)",1.3,0.154,1,1482.725,1
0,42,target,"[(1031, 837)]",[],[1],[0.21666666666666667],horizontal,"(890.0, 762.0)",1.4833333333333334,0.18,1,1487.9,1
0,43,target,"[(1038, 845)]",[],[1],[0.55],vertical,"(390.0, 262.0)",0.7833333333333333,0.526,1,1493.147,1
0,44,target,"[(1025, 804)]",[],[1],[0.08333333333333333],vertical,"(390.0, 262.0)",1.4333333333333333,0.053,0,1498.108,0
0,45,target,"[(1037, 833)]",[],[1],[0.5333333333333333],vertical,"(890.0, 262.0)",0.8166666666666667,0.503,1,1503.025,1
0,46,target,"[(1029, 827)]",[],[1],[0.5666666666666667],vertical,"(890.0, 762.0)",0.5,0.538,1,1507.38,1
0,47,target,"[(1028, 838)]",[],[1],[0.6166666666666667],horizontal,"(390.0, 262.0)",0.6833333333333333,0.591,1,1512.208,1
0,48,target,"[(1029, 846)]",[],[1],[0.11666666666666667],horizontal,"(390.0, 762.0)",1.3333333333333333,0.086,0,1517.286,0
0,49,target,"[(1037, 837)]",[],[1],[0.75],horizontal,"(890.0, 762.0)",0.9166666666666666,0.73,1,1522.206,1
0,50,target,"[(1037, 829)]",[],[1],[0.55],vertical,"(890.0, 262.0)",1.3,0.519,1,1527.035,1
0,51,catch,"[(1030, 828)]",[],[1],[],vertical,"(390.0, 762.0)",1.3333333333333333,nan,1,1532.508,1
0,52,target,"[(1042, 832)]",[],[1],[0.5666666666666667],horizontal,"(390.0, 262.0)",0.6,0.543,1,1537.022,2
0,53,target,"[(1031, 833)]",[],[1],[0.48333333333333334],vertical,"(390.0, 762.0)",1.0333333333333332,0.452,1,1542.123,1
0,54,target,"[(1051, 831)]",[],[1],[0.5333333333333333],horizontal,"(890.0, 762.0)",0.95,0.497,1,1547.016,1
0,55,catch,"[(1037, 843)]",[],[1],[],horizontal,"(890.0, 262.0)",,"('cti', 1.383),nan",0,1551.823,0
0,56,target,"[(1037, 833)]",[],[1],[0.5666666666666667],vertical,"(890.0, 762.0)",0.95,0.539,1,1556.307,1
0,57,target,"[(1030, 826)]",[],[1],[0.5666666666666667],horizontal,"(390.0, 762.0)",0.5,0.542,1,1560.849,1
0,58,target,"[(1049, 824)]",[],[1],[],vertical,"(390.0, 762.0)",,"('cti', 1.346)",0,1565.357,0
0,59,target,"[(1056, 833)]",[],[1],[0.5166666666666666],vertical,"(890.0, 762.0)",0.6666666666666666,0.485,1,1570.141,1
0,60,target,"[(1037, 833)]",[],[1],[0.6333333333333333],horizontal,"(390.0, 262.0)",0.9333333333333333,0.611,1,1574.453,1
0,61,target,"[(1058, 833)]",[],[1],[0.5833333333333334],vertical,"(390.0, 762.0)",1.0333333333333332,0.548,1,1579.52,1
0,62,target,"[(1039, 856)]",[],[1],[0.5],horizontal,"(890.0, 762.0)",1.0666666666666667,0.468,1,1584.642,2
0,63,target,"[(1034, 818)]",[],[1],[0.5166666666666666],vertical,"(890.0, 262.0)",0.7166666666666667,0.493,1,1590.199,1
0,64,target,"[(1031, 850)]",[],[1],[0.5],horizontal,"(390.0, 262.0)",0.7333333333333333,0.472,1,1595.152,1
0,65,target,"[(1036, 829)]",[],[1],[0.2833333333333333],horizontal,"(890.0, 762.0)",1.5,0.256,1,1600.287,1
0,66,target,"[(1021, 871)]",[],[1],[0.75],vertical,"(390.0, 262.0)",0.5333333333333333,0.727,1,1605.702,3
0,67,target,"[(1028, 827)]",[],[1],[0.5166666666666666],horizontal,"(890.0, 262.0)",1.0,0.488,1,1614.374,1
0,68,target,"[(1025, 825)]",[],[1],[0.45],vertical,"(390.0, 762.0)",0.9333333333333333,0.417,1,1618.938,1
0,69,target,"[(1029, 833)]",[],[1],[0.6166666666666667],horizontal,"(390.0, 262.0)",0.8666666666666667,0.593,1,1624.126,1
0,70,target,"[(1035, 822)]",[],[1],[],horizontal,"(390.0, 762.0)",,"('cti', 1.467)",0,1628.739,0
0,71,target,"[(1056, 827)]",[],[1],[0.5333333333333333],horizontal,"(390.0, 762.0)",1.0166666666666666,0.506,1,1633.489,1
0,72,target,"[(1030, 815)]",[],[1],[0.5166666666666666],horizontal,"(890.0, 262.0)",0.7,0.492,1,1638.726,1
0,73,target,"[(1047, 849)]",[],[1],[0.55],vertical,"(890.0, 262.0)",0.5333333333333333,0.521,1,1643.509,1
0,74,target,"[(1031, 855)]",[],[1],[0.45],horizontal,"(390.0, 762.0)",1.0166666666666666,0.418,1,1648.186,2
0,75,target,"[(1033, 839)]",[],[1],[0.85],horizontal,"(890.0, 262.0)",0.65,nan,0,1653.752,0
0,76,catch,"[(1032, 856)]",[],[1],[],horizontal,"(390.0, 262.0)",1.1666666666666667,nan,1,1658.259,1
0,77,target,"[(1052, 817)]",[],[1],[0.4666666666666667],vertical,"(890.0, 262.0)",1.2666666666666666,0.43,1,1663.076,1
0,78,target,"[(1053, 816)]",[],[1],[0.36666666666666664],horizontal,"(890.0, 262.0)",1.2166666666666666,0.335,1,1668.36,1
0,79,target,"[(1037, 830)]",[],[1],[0.4],vertical,"(890.0, 262.0)",1.4666666666666666,0.371,1,1673.429,2
0,80,target,"[(1057, 830)]",[],[1],[0.2833333333333333],vertical,"(890.0, 762.0)",1.1333333333333333,0.252,1,1678.91,1
0,81,target,"[(1033, 840)]",[],[1],[0.4],vertical,"(890.0, 262.0)",1.2166666666666666,0.366,1,1683.842,1
0,82,target,"[(1056, 847)]",[],[1],[0.26666666666666666],horizontal,"(390.0, 262.0)",1.65,0.239,1,1688.97,1
0,83,target,"[(1040, 826)]",[],[1],[0.5666666666666667],vertical,"(390.0, 262.0)",0.5,0.542,1,1694.176,3
0,84,catch,"[(1028, 854)]",[],[1],[0.03333333333333333],vertical,"(390.0, 762.0)",1.65,"0.018,nan",0,1699.343,0
0,85,target,"[(1045, 828)]",[],[1],[0.5],vertical,"(890.0, 262.0)",0.85,0.465,1,1704.407,1
0,86,target,"[(1048, 841)]",[],[1],[0.5166666666666666],vertical,"(890.0, 262.0)",0.55,0.481,1,1708.743,1
0,87,target,"[(1027, 843)]",[],[1],[0.65],vertical,"(390.0, 762.0)",0.65,0.625,1,1712.934,1
0,88,target,"[(1057, 842)]",[],[1],[0.6],horizontal,"(890.0, 262.0)",1.05,0.575,1,1717.488,2
0,89,target,"[(1040, 836)]",[],[1],[0.65],vertical,"(390.0, 762.0)",0.7166666666666667,0.624,1,1723.258,1
0,90,target,"[(1037, 835)]",[],[1],[0.55],horizontal,"(890.0, 762.0)",0.9166666666666666,0.517,1,1727.893,1
0,91,target,"[(1028, 871)]",[],[1],[0.3],vertical,"(390.0, 262.0)",1.4333333333333333,0.274,1,1733.133,1
0,92,catch,"[(1029, 828)]",[],[1],[],horizontal,"(390.0, 762.0)",1.0,nan,1,1738.426,3
0,93,target,"[(1024, 834)]",[],[1],[0.85],horizontal,"(390.0, 262.0)",0.9833333333333333,nan,0,1744.16,0
0,94,target,"[(1023, 855)]",[],[1],[0.48333333333333334],vertical,"(890.0, 262.0)",1.55,0.454,1,1748.925,1
0,95,target,"[(550, 606), (1074, 871)]",[],"[0, 1]",[],horizontal,"(390.0, 762.0)",,"('fix', 0.303)",0,1754.585,0
0,96,target,"[(969, 806), (1033, 811)]",[],"[0, 1]",[0.85],vertical,"(390.0, 762.0)",0.95,nan,0,1764.41,0
0,97,target,"[(1045, 799)]",[],[1],[],vertical,"(890.0, 262.0)",,"('fix', 0.715)",0,1793.741,0
0,98,catch,"[(1012, 871)]",[],[1],[],vertical,"(390.0, 262.0)",1.5833333333333333,nan,1,1835.694,1
0,99,target,"[(1013, 883)]",[],[1],[],horizontal,"(890.0, 262.0)",,"('fix', 0.102)",0,1965.312,0
0,100,target,"[(1045, 880)]",[],[1],[0.85],vertical,"(390.0, 262.0)",1.1833333333333333,nan,0,1969.324,0
0,101,target,"[(1041, 880)]",[],[1],[],horizontal,"(390.0, 262.0)",,"('cti', 1.495)",0,1974.311,0
0,102,target,"[(1037, 848)]",[],[1],[0.48333333333333334],vertical,"(890.0, 262.0)",0.8333333333333334,0.458,1,1979.013,1
0,103,catch,"[(1061, 839)]",[],[1],[],horizontal,"(390.0, 262.0)",1.4166666666666667,nan,1,1983.814,1
0,104,target,"[(1059, 826)]","[(1059, 834)]",[1],[0.26666666666666666],vertical,"(390.0, 262.0)",,"('bar', 0.286)",0,1988.642,0
0,105,target,"[(1038, 833)]",[],[1],[0.05],horizontal,"(390.0, 262.0)",1.4166666666666667,0.018,0,1991.302,0
0,106,target,"[(1052, 835)]",[],[1],[0.5833333333333334],horizontal,"(390.0, 262.0)",0.6666666666666666,0.558,1,1996.358,1
0,107,target,"[(1039, 828)]",[],[1],[0.5666666666666667],vertical,"(890.0, 762.0)",0.9833333333333333,0.54,1,2000.759,1
0,108,target,"[(1042, 816)]",[],[1],[],horizontal,"(890.0, 762.0)",,"('cti', 1.436)",0,2005.648,0
0,109,target,"[(1034, 851)]",[],[1],[0.26666666666666666],vertical,"(390.0, 262.0)",1.2833333333333332,0.239,1,2010.374,1
0,110,target,"[(1041, 828)]",[],[1],[0.18333333333333332],vertical,"(390.0, 762.0)",1.6833333333333333,0.153,1,2015.258,1
0,111,target,"[(1040, 821)]",[],[1],[0.5166666666666666],horizontal,"(890.0, 262.0)",0.9166666666666666,0.487,1,2020.316,1
0,112,target,"[(1040, 850)]",[],[1],[0.85],horizontal,"(390.0, 262.0)",1.0666666666666667,nan,0,2025.362,0
0,113,target,"[(1040, 839)]",[],[1],[0.5],vertical,"(890.0, 762.0)",0.6,0.464,1,2030.973,1
0,114,target,"[(1059, 842)]",[],[1],[0.4666666666666667],horizontal,"(890.0, 262.0)",0.8166666666666667,0.435,1,2035.329,1
0,115,target,"[(1056, 826)]",[],[1],[],vertical,"(390.0, 762.0)",,"('cti', 1.623)",0,2040.153,0
0,116,target,"[(1033, 831)]",[],[1],[],horizontal,"(390.0, 262.0)",,"('cti', 1.599)",0,2044.891,0
0,117,target,"[(1019, 820)]",[],[1],[0.43333333333333335],horizontal,"(390.0, 762.0)",1.35,0.406,1,2049.779,1
0,118,target,"[(1041, 823)]",[],[1],[0.45],horizontal,"(390.0, 262.0)",1.2,0.42,1,2055.119,1
0,119,target,"[(1009, 828)]",[],[1],[0.85],vertical,"(890.0, 262.0)",1.0,nan,0,2060.179,0
0,120,target,"[(1021, 849)]",[],[1],[0.5333333333333333],vertical,"(890.0, 262.0)",1.0,0.505,1,2065.577,1
0,121,target,"[(1057, 842)]",[],[1],[0.6166666666666667],horizontal,"(390.0, 762.0)",1.05,0.592,1,2070.462,1
0,122,target,"[(1034, 837)]",[],[1],[0.48333333333333334],horizontal,"(890.0, 262.0)",1.0666666666666667,0.456,1,2075.431,1
0,123,catch,"[(1021, 853)]",[],[1],[],vertical,"(890.0, 762.0)",1.4,nan,1,2080.461,2
0,124,target,"[(1029, 847)]",[],[1],[0.85],horizontal,"(390.0, 762.0)",0.85,nan,0,2085.512,0
0,125,target,"[(1021, 855)]",[],[1],[0.85],vertical,"(890.0, 762.0)",1.5,nan,0,2090.623,0
0,126,target,"[(1037, 842)]",[],[1],[0.5333333333333333],vertical,"(890.0, 262.0)",0.6166666666666667,0.483,1,2097.734,1
0,127,target,"[(1037, 828)]",[],[1],[0.4666666666666667],vertical,"(890.0, 762.0)",1.1666666666666667,0.439,1,2102.37,1
0,128,target,"[(1033, 832)]",[],[1],[],horizontal,"(390.0, 262.0)",,"('cti', 1.636)",0,2107.321,0
0,129,target,"[(1035, 823)]",[],[1],[0.5333333333333333],vertical,"(890.0, 762.0)",0.95,0.509,1,2112.296,1
0,130,target,"[(1040, 827)]",[],[1],[0.6833333333333333],vertical,"(390.0, 762.0)",0.5,0.661,1,2117.43,1
0,131,target,"[(1037, 819)]",[],[1],[0.4],horizontal,"(890.0, 762.0)",1.1833333333333333,0.375,1,2121.944,1
0,132,catch,"[(1045, 819)]",[],[1],[],vertical,"(390.0, 762.0)",1.1166666666666667,nan,1,2127.36,2
0,133,target,"[(1037, 829)]",[],[1],[0.55],vertical,"(890.0, 262.0)",0.5666666666666667,0.528,1,2132.276,1
0,134,target,"[(1043, 808)]",[],[1],[],vertical,"(390.0, 262.0)",,"('cti', 1.426)",0,2136.904,0
0,135,target,"[(1037, 830)]",[],[1],[0.7],vertical,"(390.0, 762.0)",0.8833333333333333,0.679,1,2141.544,1
0,136,target,"[(1042, 819)]",[],[1],[0.7833333333333333],vertical,"(890.0, 762.0)",0.6,0.763,1,2146.631,1
0,137,target,"[(1037, 823)]",[],[1],[0.4],horizontal,"(390.0, 762.0)",1.1166666666666667,0.365,1,2151.262,1
0,138,target,"[(1037, 836)]",[],[1],[0.4],horizontal,"(890.0, 762.0)",1.0333333333333332,0.371,1,2156.396,2
0,139,catch,"[(1030, 823)]",[],[1],[],vertical,"(890.0, 762.0)",1.3333333333333333,nan,1,2161.96,1
0,140,target,"[(1017, 834)]",[],[1],[0.48333333333333334],vertical,"(390.0, 762.0)",0.7833333333333333,0.444,1,2166.651,1
0,141,target,"[(1033, 832)]",[],[1],[0.25],horizontal,"(890.0, 762.0)",1.25,0.222,1,2171.665,1
0,142,target,"[(1033, 822)]",[],[1],[0.6],vertical,"(890.0, 262.0)",0.5166666666666666,0.568,1,2176.508,3
0,143,target,"[(1058, 821)]",[],[1],[0.16666666666666666],vertical,"(890.0, 262.0)",1.5,0.132,1,2181.994,1
0,144,target,"[(1038, 828)]",[],[1],[0.6],vertical,"(890.0, 762.0)",0.5166666666666666,0.568,1,2187.246,1
0,145,target,"[(1035, 826)]",[],[1],[0.6333333333333333],vertical,"(390.0, 762.0)",0.5166666666666666,0.608,1,2192.02,1
0,146,target,"[(1056, 823)]",[],[1],[0.15],horizontal,"(890.0, 262.0)",1.4333333333333333,0.114,1,2196.819,2
0,147,target,"[(1046, 829)]",[],[1],[0.5833333333333334],horizontal,"(890.0, 762.0)",0.9333333333333333,0.556,1,2202.057,1
0,148,target,"[(1064, 824)]",[],[1],[0.6333333333333333],horizontal,"(390.0, 762.0)",0.6666666666666666,0.6,1,2207.021,1
0,149,target,"[(1060, 815)]",[],[1],[0.36666666666666664],horizontal,"(390.0, 262.0)",1.0166666666666666,0.34,1,2211.558,1
0,150,target,"[(1040, 824)]",[],[1],[0.4166666666666667],horizontal,"(390.0, 762.0)",1.05,0.384,1,2216.56,3
0,151,target,"[(1064, 813)]",[],[1],[],vertical,"(390.0, 262.0)",,"('cti', 1.452)",0,2221.934,0
0,152,target,"[(1018, 845)]",[],[1],[0.5166666666666666],vertical,"(890.0, 262.0)",0.6666666666666666,0.487,1,2226.393,1
0,153,target,"[(1021, 872)]",[],[1],[0.3833333333333333],horizontal,"(390.0, 762.0)",1.4833333333333334,0.356,1,2230.746,1
0,154,target,"[(1043, 828)]",[],[1],[0.5],horizontal,"(890.0, 262.0)",0.6333333333333333,0.475,1,2237.455,1
0,155,target,"[(1034, 830)]",[],[1],[0.5166666666666666],horizontal,"(890.0, 762.0)",0.8833333333333333,0.491,1,2242.274,2
0,156,target,"[(1051, 830)]",[],[1],[],horizontal,"(390.0, 262.0)",,"('cti', 1.532)",0,2247.227,0
0,157,target,"[(1025, 828)]",[],[1],[0.7833333333333333],horizontal,"(390.0, 262.0)",1.0833333333333333,0.75,1,2251.978,1
0,158,target,"[(1030, 813)]",[],[1],[0.5],vertical,"(390.0, 262.0)",1.2,0.475,1,2257.246,1
0,159,target,"[(1039, 819)]",[],[1],[0.5166666666666666],horizontal,"(390.0, 262.0)",0.7166666666666667,0.492,1,2262.996,1
0,160,target,"[(1060, 810)]",[],[1],[0.6833333333333333],vertical,"(890.0, 262.0)",0.7166666666666667,0.659,1,2267.548,2
0,161,target,"[(1056, 822)]",[],[1],[0.6],horizontal,"(390.0, 762.0)",0.9166666666666666,0.576,1,2272.611,1
0,162,target,"[(1057, 824)]",[],[1],[0.4666666666666667],horizontal,"(390.0, 262.0)",0.8166666666666667,0.44,1,2277.329,1
0,163,catch,"[(1058, 824)]",[],[1],[],vertical,"(890.0, 262.0)",1.0666666666666667,nan,1,2282.528,1
0,164,target,"[(1041, 841)]",[],[1],[],vertical,"(890.0, 762.0)",,"('cti', 1.368)",0,2287.34,0
0,165,target,"[(1040, 814)]",[],[1],[0.4666666666666667],horizontal,"(390.0, 262.0)",1.45,0.435,1,2291.851,1
0,166,target,"[(1033, 824)]",[],[1],[0.6666666666666666],horizontal,"(390.0, 762.0)",0.9833333333333333,0.631,1,2297.167,1
0,167,target,"[(1063, 818)]",[],[1],[0.13333333333333333],horizontal,"(390.0, 762.0)",1.4666666666666666,0.102,1,2301.968,1
0,168,target,"[(1052, 830)]",[],[1],[0.05],horizontal,"(890.0, 762.0)",1.5,0.017,0,2306.969,0
0,169,target,"[(1041, 819)]",[],[1],[0.35],vertical,"(390.0, 762.0)",1.4333333333333333,0.322,1,2311.61,1
0,170,target,"[(1038, 827)]",[],[1],[0.6166666666666667],vertical,"(390.0, 762.0)",1.3166666666666667,0.588,1,2316.32,1
0,171,target,"[(1055, 826)]",[],[1],[0.48333333333333334],vertical,"(890.0, 262.0)",1.0,0.459,1,2321.468,1
0,172,target,"[(1033, 842)]",[],[1],[0.7],horizontal,"(390.0, 762.0)",1.2666666666666666,0.679,1,2326.916,2
0,173,target,"[(1058, 827)]",[],[1],[0.48333333333333334],horizontal,"(390.0, 262.0)",0.6833333333333333,0.453,1,2332.551,1
0,174,target,"[(1050, 810)]",[],[1],[0.5666666666666667],vertical,"(390.0, 762.0)",0.8166666666666667,0.537,1,2337.278,1
0,175,target,"[(1045, 834)]",[],[1],[0.5833333333333334],vertical,"(390.0, 262.0)",0.85,0.56,1,2341.885,1
0,176,target,"[(1052, 829)]",[],[1],[0.11666666666666667],vertical,"(390.0, 762.0)",1.65,0.087,0,2346.386,0
0,177,target,"[(1043, 822)]",[],[1],[0.18333333333333332],vertical,"(890.0, 762.0)",1.3833333333333333,0.156,1,2351.103,1
0,178,target,"[(1057, 817)]",[],[1],[0.5833333333333334],vertical,"(390.0, 762.0)",0.55,0.559,1,2356.252,1
0,179,target,"[(1060, 820)]",[],[1],[0.2833333333333333],vertical,"(890.0, 762.0)",1.5166666666666666,0.255,1,2360.484,1
0,180,target,"[(1055, 831)]",[],[1],[],vertical,"(390.0, 262.0)",,"('cti', 1.554)",0,2366.092,0
0,181,target,"[(1038, 813)]",[],[1],[0.5333333333333333],vertical,"(390.0, 762.0)",1.1833333333333333,0.509,1,2371.001,1
0,182,target,"[(1049, 808)]",[],[1],[0.3833333333333333],horizontal,"(890.0, 262.0)",1.1833333333333333,0.356,1,2375.769,1
0,183,target,"[(1060, 831)]",[],[1],[0.5333333333333333],horizontal,"(390.0, 762.0)",0.6833333333333333,0.506,1,2381.171,1
0,184,target,"[(1033, 819)]",[],[1],[0.31666666666666665],vertical,"(890.0, 762.0)",1.25,0.29,1,2385.55,2
0,185,target,"[(1060, 822)]",[],[1],[0.36666666666666664],vertical,"(890.0, 762.0)",1.2666666666666666,0.338,1,2391.304,1
0,186,target,"[(1043, 813)]",[],[1],[0.85],horizontal,"(390.0, 762.0)",0.5,nan,0,2396.339,0
0,187,target,"[(1041, 836)]",[],[1],[0.35],vertical,"(890.0, 262.0)",1.6166666666666667,0.319,1,2401.017,1
0,188,target,"[(1060, 820)]",[],[1],[0.5],vertical,"(890.0, 262.0)",0.9166666666666666,0.474,1,2406.349,1
0,189,target,"[(1040, 814)]",[],[1],[0.6166666666666667],horizontal,"(890.0, 262.0)",1.4666666666666666,0.58,1,2411.489,1
0,190,target,"[(1058, 829)]",[],[1],[0.48333333333333334],horizontal,"(890.0, 262.0)",1.1166666666666667,0.449,1,2417.087,2
0,191,catch,"[(1041, 813)]",[],[1],[],vertical,"(390.0, 262.0)",1.6833333333333333,nan,1,2422.672,1
0,192,target,"[(1025, 812)]",[],[1],[0.5333333333333333],horizontal,"(390.0, 262.0)",0.6166666666666667,0.498,1,2427.986,1
0,193,target,"[(1039, 851)]",[],[1],[0.5],horizontal,"(390.0, 762.0)",1.1166666666666667,0.463,1,2432.836,1
0,194,target,"[(1061, 813)]",[],[1],[0.48333333333333334],vertical,"(390.0, 262.0)",1.1,0.453,1,2438.267,3
0,195,target,"[(1076, 842)]",[],[1],[0.5666666666666667],horizontal,"(390.0, 762.0)",0.85,0.529,1,2444.072,1
0,196,target,"[(1033, 827)]",[],[1],[0.85],vertical,"(890.0, 262.0)",0.6,nan,0,2448.886,0
0,197,target,"[(1016, 828)]",[],[1],[0.3833333333333333],vertical,"(390.0, 762.0)",1.55,0.344,1,2453.451,1
0,198,target,"[(1037, 826)]",[],[1],[0.55],vertical,"(890.0, 762.0)",0.8166666666666667,0.512,1,2458.588,1
0,199,target,"[(1033, 830)]",[],[1],[0.26666666666666666],vertical,"(390.0, 762.0)",1.3,0.232,1,2463.056,1
0,200,target,"[(1040, 826)]",[],[1],[0.65],horizontal,"(390.0, 762.0)",0.75,0.613,1,2468.321,2
0,201,target,"[(1039, 815)]",[],[1],[],horizontal,"(890.0, 762.0)",,"('cti', 1.452)",0,2473.322,0
0,202,target,"[(1043, 806)]",[],[1],[0.5333333333333333],vertical,"(390.0, 262.0)",0.9666666666666667,0.496,1,2478.174,1
0,203,target,"[(1050, 807)]",[],[1],[0.5333333333333333],vertical,"(890.0, 762.0)",0.9333333333333333,0.497,1,2483.147,1
0,204,catch,"[(1037, 831)]",[],[1],[],horizontal,"(390.0, 262.0)",,"('cti', 1.4),nan",0,2488.033,0
0,205,target,"[(1042, 833)]",[],[1],[0.6666666666666666],vertical,"(390.0, 762.0)",0.55,0.632,1,2492.921,1
0,206,target,"[(1056, 837)]",[],[1],[0.5166666666666666],horizontal,"(390.0, 262.0)",0.8666666666666667,0.484,1,2497.617,1
0,207,target,"[(1047, 811)]",[],[1],[0.5333333333333333],vertical,"(890.0, 762.0)",1.2333333333333334,0.496,1,2502.336,1
0,208,target,"[(1025, 804)]",[],[1],[0.85],vertical,"(390.0, 262.0)",0.85,nan,0,2507.269,0
0,209,target,"[(1042, 833)]",[],[1],[0.6666666666666666],horizontal,"(390.0, 262.0)",0.7,0.625,1,2511.963,1
0,210,catch,"[(1055, 821)]",[],[1],[],horizontal,"(390.0, 262.0)",1.0,nan,1,2516.439,1
0,211,target,"[(1038, 851)]",[],[1],[0.5166666666666666],vertical,"(390.0, 262.0)",1.5166666666666666,0.476,1,2520.855,1
0,212,target,"[(1046, 828)]",[],[1],[0.6],vertical,"(390.0, 262.0)",0.5,0.557,1,2525.794,2
0,213,target,"[(1040, 816)]",[],[1],[0.75],vertical,"(390.0, 762.0)",0.8166666666666667,0.711,1,2530.854,1
0,214,target,"[(1056, 832)]",[],[1],[0.15],vertical,"(390.0, 262.0)",1.5666666666666667,0.115,1,2535.998,1
0,215,target,"[(1040, 810)]",[],[1],[0.25],vertical,"(890.0, 262.0)",1.4833333333333334,0.215,1,2541.504,1
0,216,target,"[(1039, 830)]",[],[1],[0.4166666666666667],horizontal,"(890.0, 262.0)",1.55,0.385,1,2546.751,3
0,217,target,"[(1035, 820)]",[],[1],[0.7166666666666667],horizontal,"(390.0, 762.0)",0.7166666666666667,0.68,1,2553.153,1
0,218,target,"[(1040, 836)]",[],[1],[0.6166666666666667],horizontal,"(390.0, 762.0)",0.8,0.581,1,2558.02,1
0,219,target,"[(1029, 852)]",[],[1],[],vertical,"(390.0, 762.0)",,"('cti', 1.567)",0,2562.63,0
0,220,target,"[(1037, 818)]",[],[1],[0.5333333333333333],vertical,"(890.0, 262.0)",1.05,0.498,1,2567.991,1
0,221,target,"[(1065, 795)]",[],[1],[0.5333333333333333],vertical,"(890.0, 262.0)",0.9166666666666666,0.492,1,2572.904,1
0,222,target,"[(1036, 813)]",[],[1],[0.48333333333333334],vertical,"(890.0, 762.0)",1.45,0.45,1,2578.053,1
0,223,target,"[(1038, 809)]",[],[1],[0.5],horizontal,"(390.0, 262.0)",0.5166666666666666,0.466,1,2583.372,2
0,224,target,"[(1040, 816)]",[],[1],[0.55],horizontal,"(390.0, 762.0)",1.3166666666666667,0.506,1,2588.334,1
0,225,catch,"[(1037, 797)]",[],[1],[],horizontal,"(890.0, 262.0)",1.5,nan,1,2593.242,1
0,226,target,"[(1039, 817)]",[],[1],[0.7666666666666666],vertical,"(390.0, 762.0)",0.65,0.729,1,2597.921,1
0,227,catch,"[(1041, 818)]",[],[1],[],vertical,"(390.0, 762.0)",1.2666666666666666,nan,1,2602.609,3
0,228,target,"[(1044, 821)]",[],[1],[0.48333333333333334],horizontal,"(390.0, 762.0)",1.0833333333333333,0.447,1,2608.367,1
0,229,target,"[(1040, 826)]",[],[1],[0.65],vertical,"(890.0, 262.0)",0.9666666666666667,0.615,1,2613.602,1
0,230,target,"[(1044, 828)]",[],[1],[0.55],vertical,"(390.0, 262.0)",0.6333333333333333,0.511,1,2618.305,1
0,231,target,"[(1029, 799)]",[],[1],[0.5833333333333334],vertical,"(390.0, 262.0)",0.55,0.545,1,2622.584,2
0,232,target,"[(1033, 833)]",[],[1],[0.55],horizontal,"(890.0, 262.0)",0.8,0.516,1,2627.438,1
0,233,target,"[(1026, 830)]",[],[1],[0.85],horizontal,"(890.0, 262.0)",0.65,nan,0,2631.861,0
0,234,target,"[(1039, 822)]",[],[1],[0.26666666666666666],vertical,"(390.0, 762.0)",1.5333333333333332,0.238,1,2636.538,1
0,235,target,"[(1033, 807)]",[],[1],[],horizontal,"(390.0, 262.0)",,"('cti', 1.464)",0,2641.723,0
0,236,target,"[(1028, 842)]",[],[1],[0.6333333333333333],vertical,"(390.0, 762.0)",0.8,0.595,1,2646.472,1
0,237,target,"[(1039, 813)]",[],[1],[0.2],vertical,"(890.0, 262.0)",1.6166666666666667,0.164,1,2652.909,1
0,238,catch,"[(1043, 819)]",[],[1],[],horizontal,"(390.0, 762.0)",1.6166666666666667,"('cti', 1.608),nan",0,2658.426,0
0,239,target,"[(1035, 827)]",[],[1],[0.36666666666666664],horizontal,"(390.0, 262.0)",1.3333333333333333,0.329,1,2663.137,1
0,240,catch,"[(1040, 813)]",[],[1],[],horizontal,"(890.0, 262.0)",1.6333333333333333,nan,1,2668.401,1
0,241,target,"[(1043, 833)]",[],[1],[0.85],vertical,"(390.0, 762.0)",0.6166666666666667,nan,0,2674.0,0
0,242,target,"[(1039, 828)]",[],[1],[0.36666666666666664],vertical,"(390.0, 762.0)",1.0833333333333333,0.33,1,2678.457,1
0,243,target,"[(1055, 804)]",[],[1],[],vertical,"(890.0, 762.0)",,"('cti', 1.394)",0,2683.554,0
0,244,target,"[(1042, 852)]",[],[1],[0.85],vertical,"(390.0, 762.0)",0.6333333333333333,nan,0,2688.271,0
0,245,target,"[(1033, 830)]",[],[1],[0.5166666666666666],horizontal,"(390.0, 262.0)",0.9333333333333333,0.478,1,2692.581,1
0,246,target,"[(1017, 796)]",[],[1],[0.85],horizontal,"(390.0, 262.0)",1.0,nan,0,2697.824,0
0,247,target,"[(1048, 820)]",[],[1],[0.85],horizontal,"(890.0, 762.0)",0.5666666666666667,nan,0,2702.672,0
0,248,target,"[(1042, 834)]",[],[1],[0.23333333333333334],horizontal,"(390.0, 762.0)",1.5666666666666667,0.198,1,2707.234,1
0,249,target,"[(1077, 817)]",[],[1],[0.5833333333333334],horizontal,"(390.0, 262.0)",1.4,0.543,1,2712.463,1
0,250,target,"[(1037, 815)]",[],[1],[0.5],vertical,"(390.0, 262.0)",1.0333333333333332,0.463,1,2717.929,1
0,251,target,"[(1031, 814)]",[],[1],[0.5333333333333333],vertical,"(390.0, 762.0)",0.7666666666666666,0.501,1,2722.973,2
0,252,target,"[(1033, 810)]",[],[1],[],vertical,"(390.0, 262.0)",,"('cti', 1.446)",0,2727.968,0
0,253,target,"[(1033, 808)]",[],[1],[0.6666666666666666],horizontal,"(390.0, 262.0)",0.5,0.629,1,2733.02,1
0,254,target,"[(1033, 803)]",[],[1],[0.5666666666666667],horizontal,"(390.0, 262.0)",0.8666666666666667,0.537,1,2737.588,1
0,255,target,"[(1038, 802)]",[],[1],[0.55],horizontal,"(890.0, 262.0)",0.7333333333333333,0.514,1,2742.374,1
0,256,target,"[(1041, 817)]",[],[1],[0.25],horizontal,"(390.0, 762.0)",1.4333333333333333,0.217,1,2747.465,2
0,257,target,"[(1038, 816)]",[],[1],[0.55],vertical,"(890.0, 762.0)",0.9666666666666667,0.509,1,2753.238,1
0,258,catch,"[(1060, 806)]",[],[1],[],vertical,"(390.0, 762.0)",1.1,nan,1,2758.037,1
0,259,target,"[(1038, 815)]",[],[1],[0.6],horizontal,"(890.0, 262.0)",0.5833333333333334,0.56,1,2762.646,1
0,260,target,"[(1033, 829)]",[],[1],[0.43333333333333335],horizontal,"(890.0, 762.0)",1.2333333333333334,0.4,1,2767.306,3
0,261,target,"[(1062, 810)]",[],[1],[0.11666666666666667],horizontal,"(890.0, 262.0)",1.5166666666666666,0.085,0,2773.59,0
0,262,catch,"[(1037, 819)]",[],[1],[],vertical,"(390.0, 262.0)",1.2,nan,1,2778.256,1
0,263,catch,"[(1038, 818)]",[],[1],[],horizontal,"(390.0, 762.0)",1.05,nan,1,2783.089,1
0,264,target,"[(1037, 817)]",[],[1],[0.6],vertical,"(390.0, 762.0)",1.15,0.565,1,2787.563,1
0,265,target,"[(1053, 803)]",[],[1],[0.1],vertical,"(890.0, 762.0)",1.45,0.069,0,2792.371,0
0,266,target,"[(1053, 824)]",[],[1],[0.26666666666666666],vertical,"(890.0, 762.0)",1.6833333333333333,0.23,1,2797.221,1
0,267,target,"[(1037, 820)]",[],[1],[0.45],vertical,"(890.0, 262.0)",1.4666666666666666,0.416,1,2802.784,1
0,268,target,"[(1041, 816)]",[],[1],[0.5333333333333333],vertical,"(890.0, 762.0)",1.4666666666666666,0.503,1,2808.105,1
0,269,target,"[(1040, 819)]",[],[1],[0.5],vertical,"(890.0, 762.0)",0.9666666666666667,0.468,1,2813.174,2
0,270,target,"[(1041, 823)]",[],[1],[],vertical,"(390.0, 762.0)",,"('cti', 1.576)",0,2818.627,0
0,271,target,"[(1037, 821)]",[],[1],[0.23333333333333334],horizontal,"(890.0, 762.0)",1.4833333333333334,0.201,1,2823.522,1
0,272,target,"[(1058, 813)]",[],[1],[0.6],vertical,"(890.0, 762.0)",0.6666666666666666,0.57,1,2828.718,1
0,273,target,"[(1073, 823)]",[],[1],[0.43333333333333335],horizontal,"(390.0, 762.0)",1.4666666666666666,0.393,1,2833.154,1
0,274,target,"[(1072, 820)]",[],[1],[0.5],vertical,"(390.0, 262.0)",0.5666666666666667,0.463,1,2838.238,2
0,275,target,"[(1038, 813)]",[],[1],[0.55],horizontal,"(390.0, 262.0)",0.5166666666666666,0.512,1,2843.507,1
0,276,target,"[(1039, 828)]",[],[1],[0.55],horizontal,"(390.0, 262.0)",0.8833333333333333,0.517,1,2847.876,1
0,277,catch,"[(1036, 796)]",[],[1],[],horizontal,"(890.0, 262.0)",1.5666666666666667,nan,1,2852.622,1
0,278,catch,"[(1022, 814)]",[],[1],[],vertical,"(390.0, 262.0)",1.1166666666666667,nan,1,2857.553,3
0,279,target,"[(1145, 854)]",[],[1],[0.35],vertical,"(890.0, 762.0)",0.7,0.315,1,2862.976,1
0,280,target,"[(1167, 854)]",[],[1],[0.36666666666666664],vertical,"(390.0, 762.0)",1.3666666666666667,0.325,1,3659.84,1
0,281,target,"[(1103, 845)]",[],[1],[0.4166666666666667],vertical,"(390.0, 762.0)",1.0666666666666667,0.379,1,3958.528,1
0,282,catch,"[(1027, 876)]",[],[1],[],horizontal,"(890.0, 262.0)",1.5166666666666666,nan,1,4527.047,2
0,283,target,"[(1001, 856), (1017, 821)]",[],"[0, 1]",[0.85],vertical,"(890.0, 262.0)",1.4,nan,0,4713.118,0
0,284,target,"[(1042, 862)]",[],[1],[0.85],horizontal,"(390.0, 262.0)",0.6333333333333333,nan,0,4723.248,0
0,285,target,"[(1056, 858)]",[],[1],[0.25],vertical,"(390.0, 762.0)",1.65,0.217,1,4728.103,1
0,286,target,"[(1025, 846)]",[],[1],[0.5833333333333334],vertical,"(390.0, 762.0)",1.5166666666666666,0.542,1,4733.498,1
0,287,catch,"[(1037, 852)]",[],[1],[],horizontal,"(890.0, 762.0)",1.5666666666666667,nan,1,4738.877,1
0,288,target,"[(1042, 828)]",[],[1],[0.55],vertical,"(390.0, 262.0)",0.8,0.511,1,4744.22,2
0,289,target,"[(1037, 833)]",[],[1],[0.18333333333333332],vertical,"(390.0, 762.0)",0.8833333333333333,0.155,1,4749.548,1
0,290,target,"[(1044, 824)]",[],[1],[],vertical,"(390.0, 262.0)",,"('cti', 1.238)",0,4754.003,0
0,291,target,"[(1046, 827)]",[],[1],[0.5833333333333334],vertical,"(890.0, 762.0)",0.9333333333333333,0.544,1,4758.563,1
0,292,target,"[(1044, 830)]",[],[1],[0.5166666666666666],horizontal,"(390.0, 262.0)",0.5666666666666667,0.479,1,4763.088,1
0,293,target,"[(1040, 829)]",[],[1],[0.4666666666666667],vertical,"(390.0, 262.0)",0.6333333333333333,0.431,1,4767.922,1
0,294,target,"[(1043, 828)]",[],[1],[0.65],horizontal,"(890.0, 762.0)",0.5833333333333334,0.608,1,4772.52,2
0,295,target,"[(1047, 842)]",[],[1],[0.3833333333333333],horizontal,"(890.0, 262.0)",0.6166666666666667,0.347,1,4777.434,1
0,296,target,"[(1048, 838)]",[],[1],[0.55],horizontal,"(890.0, 262.0)",1.0666666666666667,0.513,1,4782.158,1
0,297,target,"[(1047, 840)]",[],[1],[],horizontal,"(390.0, 262.0)",,"('cti', 1.172)",0,4787.237,0
0,298,target,"[(1051, 828)]",[],[1],[0.85],vertical,"(390.0, 762.0)",0.9,nan,0,4791.9,0
0,299,target,"[(1040, 855)]",[],[1],[],vertical,"(890.0, 762.0)",,"('cti', 1.483)",0,4796.834,0
0,300,target,"[(1041, 839)]",[],[1],[0.5333333333333333],horizontal,"(890.0, 762.0)",1.0833333333333333,0.492,1,4801.42,1
0,301,target,"[(1037, 830)]",[],[1],[0.36666666666666664],horizontal,"(890.0, 262.0)",1.4666666666666666,0.334,1,4806.401,1
0,302,target,"[(1029, 824)]",[],[1],[0.7],horizontal,"(390.0, 262.0)",1.15,0.66,1,4811.585,1
0,303,target,"[(1033, 826)]",[],[1],[0.6333333333333333],vertical,"(890.0, 262.0)",0.5166666666666666,0.6,1,4817.587,2
0,304,target,"[(1033, 827)]",[],[1],[0.6166666666666667],horizontal,"(890.0, 762.0)",0.8333333333333334,0.579,1,4822.601,1
0,305,target,"[(1035, 834)]",[],[1],[0.3],vertical,"(390.0, 762.0)",1.1833333333333333,0.272,1,4827.405,1
0,306,target,"[(1033, 828)]",[],[1],[0.45],horizontal,"(390.0, 762.0)",1.0666666666666667,0.415,1,4832.586,1
0,307,target,"[(1062, 828)]",[],[1],[],vertical,"(390.0, 262.0)",,"('cti', 1.068)",0,4837.823,0
0,308,target,"[(1037, 830)]",[],[1],[0.6166666666666667],horizontal,"(390.0, 262.0)",0.7,0.573,1,4841.971,1
0,309,target,"[(1065, 830)]",[],[1],[0.5666666666666667],horizontal,"(390.0, 762.0)",0.8166666666666667,0.527,1,4846.332,1
0,310,target,"[(1064, 833)]",[],[1],[0.85],vertical,"(390.0, 262.0)",1.1833333333333333,nan,0,4851.506,0
0,311,target,"[(1042, 844)]",[],[1],[0.5666666666666667],vertical,"(390.0, 262.0)",0.5833333333333334,0.525,1,4856.709,1
0,312,target,"[(1032, 822)]",[],[1],[],horizontal,"(890.0, 262.0)",,"('cti', 1.203)",0,4861.336,0
0,313,target,"[(1037, 834)]",[],[1],[0.5833333333333334],horizontal,"(890.0, 262.0)",0.8,0.548,1,4865.803,1
0,314,target,"[(1040, 824)]",[],[1],[0.06666666666666667],horizontal,"(390.0, 262.0)",1.3166666666666667,0.036,0,4870.724,0
0,315,target,"[(1020, 827)]",[],[1],[0.5],vertical,"(890.0, 262.0)",1.2333333333333334,0.46,1,4875.317,1
0,316,catch,"[(1049, 843)]",[],[1],[],horizontal,"(390.0, 762.0)",1.1833333333333333,nan,1,4880.116,1
0,317,target,"[(1045, 828)]",[],[1],[0.85],horizontal,"(390.0, 262.0)",1.6666666666666667,"('cti', 1.662),nan",0,4884.693,0
0,318,target,"[(1037, 862)]",[],[1],[],vertical,"(390.0, 762.0)",,"('cti', 1.502)",0,4890.067,0
0,319,target,"[(1040, 815)]",[],[1],[0.5166666666666666],vertical,"(390.0, 262.0)",1.0666666666666667,0.48,1,4894.739,1
0,320,target,"[(1044, 823)]",[],[1],[0.5666666666666667],horizontal,"(390.0, 262.0)",0.9666666666666667,0.528,1,4900.029,1
0,321,target,"[(1043, 816)]",[],[1],[0.55],horizontal,"(390.0, 262.0)",1.0166666666666666,0.509,1,4905.001,1
0,322,target,"[(1052, 825)]",[],[1],[0.4],horizontal,"(890.0, 262.0)",1.1166666666666667,0.365,1,4910.393,2
0,323,target,"[(1042, 829)]",[],[1],[0.5166666666666666],horizontal,"(890.0, 262.0)",1.0666666666666667,0.483,1,4915.927,1
0,324,target,"[(1043, 847)]",[],[1],[0.6666666666666666],horizontal,"(890.0, 762.0)",0.95,0.63,1,4921.022,1
0,325,target,"[(1046, 816)]",[],[1],[0.13333333333333333],horizontal,"(890.0, 262.0)",1.5833333333333333,0.099,0,4926.087,0
0,326,catch,"[(1044, 828)]",[],[1],[],vertical,"(390.0, 762.0)",1.1333333333333333,nan,1,4931.138,1
0,327,target,"[(1046, 842)]",[],[1],[0.5666666666666667],horizontal,"(390.0, 762.0)",0.75,0.531,1,4935.794,1
0,328,target,"[(1034, 833)]",[],[1],[0.4666666666666667],horizontal,"(390.0, 262.0)",1.2,0.426,1,4940.502,1
0,329,target,"[(1042, 828)]",[],[1],[0.5833333333333334],vertical,"(390.0, 262.0)",0.5333333333333333,0.544,1,4945.558,2
0,330,target,"[(1054, 837)]",[],[1],[0.2],horizontal,"(890.0, 762.0)",1.35,0.168,1,4950.703,1
0,331,target,"[(1033, 813)]",[],[1],[0.05],vertical,"(890.0, 262.0)",1.6,0.018,0,4955.665,0
0,332,target,"[(1045, 833)]",[],[1],[0.5],vertical,"(890.0, 262.0)",0.6833333333333333,0.459,1,4960.751,1
0,333,target,"[(1061, 836)]",[],[1],[0.4666666666666667],horizontal,"(390.0, 762.0)",1.15,0.431,1,4965.336,1
0,334,target,"[(1062, 834)]",[],[1],[0.6],horizontal,"(890.0, 262.0)",0.6166666666666667,0.564,1,4970.386,1
0,335,target,"[(1033, 827)]",[],[1],[0.5166666666666666],vertical,"(890.0, 262.0)",0.9666666666666667,0.48,1,4974.74,2
0,336,target,"[(1042, 823)]",[],[1],[],horizontal,"(390.0, 262.0)",,"('cti', 1.428)",0,4979.57,0
0,337,target,"[(1045, 831)]",[],[1],[0.65],horizontal,"(890.0, 262.0)",1.5,0.611,1,4984.175,1
0,338,target,"[(1062, 814)]",[],[1],[0.55],horizontal,"(390.0, 762.0)",1.6,0.513,1,4989.308,1
0,339,target,"[(1041, 825)]",[],[1],[0.5333333333333333],horizontal,"(390.0, 762.0)",0.6166666666666667,0.495,1,4994.871,1
0,340,target,"[(1045, 817)]",[],[1],[0.35],vertical,"(890.0, 262.0)",1.3333333333333333,0.316,1,4999.819,2
0,341,target,"[(1045, 817)]",[],[1],[0.6],horizontal,"(390.0, 762.0)",0.7333333333333333,0.56,1,5005.671,1
0,342,target,"[(1033, 810)]",[],[1],[0.5166666666666666],horizontal,"(890.0, 262.0)",0.55,0.489,1,5010.271,1
0,343,target,"[(1025, 832)]",[],[1],[0.55],horizontal,"(390.0, 762.0)",0.8333333333333334,0.507,1,5015.222,1
0,344,catch,"[(1046, 826)]",[],[1],[],horizontal,"(390.0, 262.0)",1.5833333333333333,nan,1,5020.232,3
0,345,target,"[(1025, 838)]",[],[1],[0.43333333333333335],horizontal,"(890.0, 262.0)",1.1833333333333333,0.4,1,5025.971,1
0,346,target,"[(1025, 825)]",[],[1],[0.5],vertical,"(890.0, 262.0)",0.7666666666666666,0.463,1,5031.371,1
0,347,target,"[(1043, 838)]",[],[1],[0.4166666666666667],vertical,"(390.0, 262.0)",1.3166666666666667,0.38,1,5036.056,1
0,348,target,"[(1056, 852)]",[],[1],[0.5166666666666666],vertical,"(390.0, 262.0)",0.5333333333333333,0.482,1,5040.956,2
0,349,target,"[(339, 106), (273, 971), (392, 124), (392, 66), (1107, 877)]",[],"[0, 0, 0, 0, 1]",[0.36666666666666664],vertical,"(890.0, 762.0)",1.1833333333333333,0.334,1,5045.81,1
0,350,target,"[(1038, 871)]",[],[1],[0.7666666666666666],vertical,"(890.0, 762.0)",1.2166666666666666,0.734,1,5279.234,1
0,351,catch,"[(1035, 848)]",[],[1],[],horizontal,"(390.0, 762.0)",1.3333333333333333,nan,1,5335.238,1
0,352,target,"[(1040, 843)]",[],[1],[0.85],vertical,"(390.0, 262.0)",0.8333333333333334,nan,0,5339.972,0
0,353,target,"[(1037, 856)]",[],[1],[0.85],horizontal,"(890.0, 762.0)",1.2,nan,0,5344.622,0
0,354,target,"[(1024, 832)]",[],[1],[0.6666666666666666],horizontal,"(390.0, 262.0)",1.1666666666666667,0.626,1,5349.872,1
0,355,target,"[(1025, 815)]",[],[1],[0.5666666666666667],vertical,"(390.0, 762.0)",0.9333333333333333,0.526,1,5354.935,1
0,356,catch,"[(1040, 809)]",[],[1],[],horizontal,"(890.0, 762.0)",1.0166666666666666,nan,1,5359.571,1
0,357,target,"[(1033, 830)]",[],[1],[0.55],horizontal,"(890.0, 262.0)",1.0166666666666666,0.514,1,5364.19,2
0,358,target,"[(1045, 825)]",[],[1],[0.15],horizontal,"(890.0, 762.0)",1.5,0.116,1,5369.319,1
0,359,target,"[(1033, 794)]",[],[1],[0.25],horizontal,"(890.0, 762.0)",1.2666666666666666,0.218,1,5374.43,1
0,360,target,"[(1038, 809)]",[],[1],[0.5],horizontal,"(890.0, 262.0)",0.6166666666666667,0.462,1,5379.356,1
0,361,target,"[(1055, 814)]",[],[1],[0.48333333333333334],horizontal,"(890.0, 762.0)",1.1,0.448,1,5384.091,3
0,362,target,"[(1035, 844)]",[],[1],[0.6],horizontal,"(390.0, 262.0)",0.8833333333333333,0.567,1,5390.183,1
0,363,target,"[(1038, 856)]",[],[1],[0.5166666666666666],horizontal,"(890.0, 762.0)",1.2,0.483,1,5395.004,1
0,364,target,"[(1040, 832)]",[],[1],[],vertical,"(890.0, 262.0)",,"('cti', 1.531)",0,5400.256,0
0,365,target,"[(1037, 847)]",[],[1],[0.25],vertical,"(890.0, 762.0)",1.3666666666666667,0.22,1,5404.88,1
0,366,target,"[(1038, 829)]",[],[1],[0.55],horizontal,"(390.0, 262.0)",0.5166666666666666,0.516,1,5409.883,1
0,367,target,"[(1037, 813)]",[],[1],[0.48333333333333334],vertical,"(390.0, 762.0)",0.9666666666666667,0.444,1,5414.325,1
0,368,target,"[(1052, 806)]",[],[1],[0.5333333333333333],horizontal,"(890.0, 762.0)",0.75,0.49,1,5419.142,2
0,369,target,"[(1034, 829)]",[],[1],[0.5333333333333333],vertical,"(390.0, 262.0)",1.0166666666666666,0.492,1,5424.307,1
0,370,target,"[(1033, 834)]",[],[1],[0.5333333333333333],vertical,"(890.0, 762.0)",0.7666666666666666,0.506,1,5429.376,1
0,371,catch,"[(1028, 816)]",[],[1],[],vertical,"(890.0, 762.0)",1.4666666666666666,nan,1,5434.103,1
0,372,target,"[(1037, 830)]",[],[1],[0.55],horizontal,"(390.0, 262.0)",0.8166666666666667,0.508,1,5438.841,3
0,373,target,"[(1032, 830)]",[],[1],[0.65],horizontal,"(390.0, 762.0)",0.85,0.612,1,5444.991,1
0,374,target,"[(1036, 825)]",[],[1],[0.55],horizontal,"(890.0, 262.0)",0.7666666666666666,0.51,1,5449.8,1
0,375,target,"[(1039, 821)]",[],[1],[],vertical,"(890.0, 262.0)",,"('cti', 1.095)",0,5454.496,0
0,376,target,"[(1036, 847)]",[],[1],[0.6666666666666666],vertical,"(890.0, 262.0)",1.0833333333333333,0.627,1,5459.136,1
0,377,target,"[(1037, 828)]",[],[1],[0.5333333333333333],horizontal,"(890.0, 762.0)",1.1166666666666667,0.496,1,5464.427,1
0,378,target,"[(1040, 815)]",[],[1],[0.2],horizontal,"(890.0, 762.0)",1.35,0.165,1,5469.672,1
0,379,target,"[(1024, 834)]",[],[1],[0.5666666666666667],horizontal,"(890.0, 262.0)",1.1666666666666667,0.529,1,5474.819,2
0,380,target,"[(1041, 826)]",[],[1],[0.7666666666666666],vertical,"(890.0, 762.0)",0.9333333333333333,0.733,1,5480.6,1
0,381,target,"[(1038, 816)]",[],[1],[0.43333333333333335],horizontal,"(390.0, 262.0)",1.15,0.402,1,5485.88,1
0,382,target,"[(1039, 830)]",[],[1],[0.5833333333333334],horizontal,"(390.0, 762.0)",0.95,0.546,1,5491.221,1
0,383,target,"[(1042, 820)]",[],[1],[0.45],horizontal,"(890.0, 762.0)",1.1166666666666667,0.415,1,5496.174,3
0,384,target,"[(1037, 842)]",[],[1],[0.6833333333333333],vertical,"(390.0, 762.0)",0.5,0.647,1,5501.741,1
0,385,target,"[(1040, 811)]",[],[1],[0.25],vertical,"(390.0, 762.0)",1.3,0.218,1,5505.99,1
0,386,catch,"[(1033, 813)]",[],[1],[],vertical,"(890.0, 262.0)",1.0333333333333332,nan,1,5510.723,1
0,387,target,"[(1038, 836)]",[],[1],[0.5333333333333333],horizontal,"(390.0, 262.0)",1.0,0.493,1,5515.607,2
0,388,target,"[(1049, 816)]",[],[1],[0.5],horizontal,"(890.0, 762.0)",0.9166666666666666,0.462,1,5521.059,1
0,389,target,"[(1040, 810)]",[],[1],[0.25],vertical,"(890.0, 762.0)",1.3,0.215,1,5525.758,1
0,390,catch,"[(1040, 821)]",[],[1],[],vertical,"(890.0, 262.0)",1.3833333333333333,nan,1,5530.863,1
0,391,target,"[(1038, 810)]",[],[1],[0.4166666666666667],horizontal,"(390.0, 762.0)",1.25,0.38,1,5535.463,3
0,392,target,"[(1040, 804)]",[],[1],[0.6333333333333333],horizontal,"(390.0, 762.0)",0.65,0.595,1,5541.04,1
0,393,target,"[(1041, 817)]",[],[1],[0.5666666666666667],horizontal,"(890.0, 762.0)",0.8333333333333334,0.529,1,5545.311,1
0,394,target,"[(1037, 829)]",[],[1],[0.26666666666666666],vertical,"(390.0, 762.0)",1.05,0.231,1,5550.357,1
0,395,target,"[(1035, 820)]",[],[1],[0.6],horizontal,"(390.0, 262.0)",1.25,0.562,1,5555.12,2
0,396,target,"[(1037, 825)]",[],[1],[0.85],vertical,"(390.0, 762.0)",1.1,nan,0,5560.722,0
0,397,target,"[(479, 620), (1035, 835)]",[],"[0, 1]",[0.43333333333333335],horizontal,"(890.0, 762.0)",1.15,0.398,1,5566.028,1
0,398,target,"[(1028, 817)]",[],[1],[0.55],vertical,"(390.0, 262.0)",1.0333333333333332,0.511,1,5573.792,1
0,399,target,"[(1033, 815)]",[],[1],[],vertical,"(890.0, 762.0)",,"('cti', 1.556)",0,5578.643,0
0,400,target,"[(1032, 837)]",[],[1],[0.65],horizontal,"(390.0, 762.0)",0.6,0.608,1,5583.167,1
0,401,target,"[(1040, 809)]",[],[1],[0.1],horizontal,"(890.0, 762.0)",1.65,0.066,0,5587.722,0
0,402,target,"[(1025, 822)]",[],[1],[0.4666666666666667],vertical,"(890.0, 762.0)",1.45,0.427,1,5593.024,1
0,403,target,"[(1046, 819)]",[],[1],[0.48333333333333334],vertical,"(890.0, 262.0)",0.8166666666666667,0.45,1,5598.08,1
0,404,target,"[(1039, 819)]",[],[1],[0.6333333333333333],horizontal,"(890.0, 262.0)",0.5,0.596,1,5602.941,1
0,405,target,"[(1038, 812)]",[],[1],[0.3333333333333333],horizontal,"(390.0, 262.0)",1.35,0.298,1,5607.241,2
0,406,target,"[(1060, 828)]",[],[1],[0.5833333333333334],vertical,"(390.0, 762.0)",1.1166666666666667,0.549,1,5612.719,1
0,407,target,"[(1045, 816)]",[],[1],[0.4666666666666667],vertical,"(890.0, 262.0)",1.0833333333333333,0.425,1,5617.546,1
0,408,target,"[(1040, 823)]",[],[1],[0.5166666666666666],horizontal,"(390.0, 762.0)",0.7166666666666667,0.485,1,5622.642,1
0,409,target,"[(1043, 819)]",[],[1],[],vertical,"(390.0, 262.0)",,"('cti', 1.153)",0,5627.344,0
0,410,target,"[(1042, 832)]",[],[1],[0.6333333333333333],vertical,"(890.0, 762.0)",0.75,0.594,1,5631.681,1
0,411,target,"[(1043, 831)]",[],[1],[0.13333333333333333],horizontal,"(890.0, 262.0)",1.1166666666666667,0.101,1,5636.45,1
0,412,target,"[(1038, 823)]",[],[1],[0.55],horizontal,"(390.0, 762.0)",0.8666666666666667,0.514,1,5641.605,1
0,413,catch,"[(1045, 820)]",[],[1],[],horizontal,"(890.0, 262.0)",1.5166666666666666,nan,1,5646.541,2
0,414,target,"[(1060, 829)]",[],[1],[0.5],horizontal,"(890.0, 762.0)",0.95,0.466,1,5651.541,1
0,415,catch,"[(1030, 818)]",[],[1],[],horizontal,"(390.0, 762.0)",1.2,nan,1,5656.042,1
0,416,target,"[(1040, 828)]",[],[1],[],vertical,"(890.0, 762.0)",,"('cti', 1.486)",0,5660.659,0
0,417,target,"[(1030, 882)]",[],[1],[0.85],horizontal,"(390.0, 262.0)",1.5333333333333332,nan,0,5665.707,0
0,418,target,"[(1033, 884)]",[],[1],[0.7333333333333333],vertical,"(890.0, 762.0)",0.6666666666666666,0.686,1,5717.973,1
0,419,target,"[(1040, 852)]",[],[1],[0.5333333333333333],vertical,"(890.0, 262.0)",0.7166666666666667,0.493,1,5722.989,1
0,420,target,"[(1041, 834)]",[],[1],[0.5333333333333333],horizontal,"(890.0, 762.0)",1.1333333333333333,0.496,1,5727.729,1
0,421,target,"[(1042, 825)]",[],[1],[0.55],horizontal,"(890.0, 762.0)",1.25,0.518,1,5733.122,2
0,422,target,"[(1037, 817)]",[],[1],[0.5333333333333333],horizontal,"(890.0, 262.0)",0.5,0.496,1,5738.263,1
0,423,catch,"[(1039, 823)]",[],[1],[],horizontal,"(890.0, 262.0)",1.6166666666666667,nan,1,5742.626,1
0,424,target,"[(1052, 839)]",[],[1],[0.5333333333333333],horizontal,"(390.0, 262.0)",1.15,0.495,1,5747.375,1
0,425,target,"[(1061, 823)]",[],[1],[],horizontal,"(390.0, 762.0)",,"('cti', 1.418)",0,5752.363,0
0,426,target,"[(1060, 829)]",[],[1],[0.5166666666666666],horizontal,"(390.0, 262.0)",1.2166666666666666,0.479,1,5757.291,1
0,427,target,"[(1077, 827)]",[],[1],[0.25],horizontal,"(890.0, 262.0)",1.2333333333333334,0.216,1,5762.443,1
0,428,target,"[(1039, 832)]",[],[1],[0.5666666666666667],vertical,"(890.0, 262.0)",1.1666666666666667,0.528,1,5767.474,1
0,429,target,"[(1037, 823)]",[],[1],[0.55],vertical,"(890.0, 762.0)",0.65,0.514,1,5772.409,2
0,430,target,"[(1047, 825)]",[],[1],[0.13333333333333333],vertical,"(390.0, 262.0)",1.5833333333333333,0.103,1,5777.323,1
0,431,catch,"[(1037, 835)]",[],[1],[],vertical,"(890.0, 762.0)",1.0333333333333332,nan,1,5782.73,1
0,432,target,"[(1035, 828)]",[],[1],[0.5],horizontal,"(890.0, 262.0)",1.25,0.457,1,5786.863,1
0,433,target,"[(1064, 829)]",[],[1],[0.3333333333333333],vertical,"(390.0, 262.0)",1.3,0.294,1,5791.877,3
0,434,target,"[(1063, 855)]",[],[1],[0.55],horizontal,"(390.0, 762.0)",0.5166666666666666,0.511,1,5797.615,1
0,435,target,"[(1033, 822)]",[],[1],[0.35],vertical,"(890.0, 262.0)",1.1666666666666667,0.314,1,5802.076,1
0,436,target,"[(1057, 847)]",[],[1],[0.5833333333333334],vertical,"(390.0, 262.0)",0.95,0.546,1,5807.096,1
0,437,catch,"[(1033, 821)]",[],[1],[],vertical,"(890.0, 762.0)",1.3166666666666667,nan,1,5811.861,2
0,438,target,"[(1033, 829)]",[],[1],[0.23333333333333334],vertical,"(890.0, 762.0)",0.9166666666666666,0.201,1,5817.025,1
0,439,target,"[(1060, 828)]",[],[1],[0.5166666666666666],horizontal,"(890.0, 762.0)",0.55,0.48,1,5821.788,1
0,440,target,"[(1035, 816)]",[],[1],[0.5666666666666667],horizontal,"(390.0, 762.0)",1.0166666666666666,0.522,1,5826.438,1
0,441,target,"[(1029, 867)]",[],[1],[0.26666666666666666],horizontal,"(390.0, 762.0)",0.95,0.232,1,5831.63,3
0,442,target,"[(1008, 841)]",[],[1],[0.13333333333333333],horizontal,"(890.0, 762.0)",1.55,0.102,1,5838.696,1
0,443,target,"[(1028, 841)]",[],[1],[0.6333333333333333],horizontal,"(890.0, 262.0)",0.8333333333333334,0.593,1,6019.794,1
0,444,target,"[(1038, 843)]",[],[1],[0.5166666666666666],horizontal,"(890.0, 762.0)",0.6333333333333333,0.484,1,6024.361,1
0,445,target,"[(1033, 825)]",[],[1],[0.5833333333333334],vertical,"(390.0, 262.0)",0.5,0.55,1,6029.16,2
0,446,catch,"[(1040, 819)]",[],[1],[],vertical,"(890.0, 762.0)",,"('cti', 1.216),nan",0,6034.423,0
0,447,target,"[(1037, 812)]",[],[1],[0.3833333333333333],horizontal,"(390.0, 262.0)",0.8833333333333333,0.351,1,6038.574,1
0,448,target,"[(1033, 829)]","[(1028, 847)]",[1],[0.36666666666666664],vertical,"(890.0, 762.0)",,"('bar', 0.376)",0,6043.388,0
0,449,target,"[(1040, 856)]",[],[1],[0.3833333333333333],horizontal,"(390.0, 262.0)",1.3666666666666667,0.351,1,6046.112,1
0,450,target,"[(1025, 839)]",[],[1],[],vertical,"(890.0, 262.0)",,"('cti', 1.325)",0,6051.259,0
0,451,target,"[(1045, 826)]",[],[1],[0.48333333333333334],horizontal,"(890.0, 262.0)",1.4333333333333333,0.447,1,6055.327,1
0,452,target,"[(1038, 811)]",[],[1],[0.85],horizontal,"(890.0, 762.0)",1.45,"('cti', 1.452),nan",0,6060.205,0
0,453,target,"[(1040, 842)]",[],[1],[0.5166666666666666],vertical,"(890.0, 762.0)",0.95,0.483,1,6065.61,1
0,454,target,"[(1033, 830)]",[],[1],[0.48333333333333334],horizontal,"(390.0, 262.0)",1.6166666666666667,0.446,1,6070.338,1
0,455,target,"[(1062, 816)]",[],[1],[0.36666666666666664],horizontal,"(890.0, 762.0)",1.4166666666666667,0.332,1,6075.776,1
0,456,target,"[(1027, 833)]",[],[1],[0.6333333333333333],horizontal,"(390.0, 262.0)",0.6833333333333333,0.601,1,6080.904,2
0,457,target,"[(1040, 837)]",[],[1],[0.55],horizontal,"(890.0, 762.0)",0.8166666666666667,0.512,1,6086.065,1
0,458,target,"[(1045, 813)]",[],[1],[0.7333333333333333],horizontal,"(890.0, 262.0)",0.9333333333333333,0.696,1,6090.909,1
0,459,target,"[(1054, 819)]",[],[1],[0.6333333333333333],horizontal,"(890.0, 262.0)",0.5833333333333334,0.598,1,6095.96,1
0,460,target,"[(1032, 812)]",[],[1],[0.3833333333333333],vertical,"(390.0, 262.0)",1.25,0.352,1,6100.175,3
0,461,target,"[(1042, 823)]",[],[1],[0.6],vertical,"(890.0, 262.0)",1.55,0.557,1,6105.972,1
0,462,target,"[(1033, 821)]",[],[1],[0.5166666666666666],vertical,"(890.0, 262.0)",1.5166666666666666,0.479,1,6111.319,1
0,463,target,"[(1029, 832)]",[],[1],[0.5166666666666666],horizontal,"(890.0, 262.0)",0.7166666666666667,0.482,1,6116.449,1
0,464,target,"[(1038, 830)]",[],[1],[0.5666666666666667],horizontal,"(890.0, 762.0)",1.1,0.531,1,6121.082,2
0,465,target,"[(1033, 845)]",[],[1],[],horizontal,"(890.0, 762.0)",,"('cti', 1.532)",0,6126.274,0
0,466,target,"[(1022, 837)]",[],[1],[0.48333333333333334],vertical,"(390.0, 262.0)",1.3833333333333333,0.445,1,6131.105,1
0,467,target,"[(1052, 824)]",[],[1],[0.5333333333333333],horizontal,"(890.0, 762.0)",1.1833333333333333,0.496,1,6136.16,1
0,468,target,"[(1040, 819)]",[],[1],[0.6333333333333333],vertical,"(390.0, 762.0)",0.8833333333333333,0.599,1,6141.599,1
0,469,target,"[(1064, 821)]",[],[1],[0.6166666666666667],horizontal,"(390.0, 762.0)",0.55,0.579,1,6146.8,2
0,470,target,"[(1019, 832)]",[],[1],[],vertical,"(390.0, 262.0)",,"('cti', 1.451)",0,6151.74,0
0,471,target,"[(1010, 858)]",[],[1],[0.1],horizontal,"(390.0, 262.0)",1.6166666666666667,0.067,0,6157.633,0
0,472,target,"[(1005, 839)]",[],[1],[0.5833333333333334],vertical,"(890.0, 762.0)",1.0166666666666666,0.546,1,6165.808,1
0,473,target,"[(1039, 818)]",[],[1],[0.55],horizontal,"(390.0, 762.0)",0.9166666666666666,0.51,1,6170.859,1
0,474,catch,"[(1040, 807)]",[],[1],[],vertical,"(390.0, 262.0)",,"('cti', 1.165),nan",0,6175.796,0
0,475,target,"[(1019, 837)]",[],[1],[0.5833333333333334],horizontal,"(390.0, 262.0)",1.1333333333333333,0.542,1,6180.096,1
0,476,target,"[(1041, 813)]",[],[1],[0.5],horizontal,"(890.0, 762.0)",1.1166666666666667,0.465,1,6185.391,1
0,477,target,"[(1046, 850)]",[],[1],[0.85],horizontal,"(890.0, 262.0)",0.55,nan,0,6190.007,0
0,478,target,"[(1019, 845)]",[],[1],[0.5833333333333334],vertical,"(390.0, 762.0)",0.7,0.549,1,6194.241,1
0,479,catch,"[(1056, 822)]",[],[1],[],vertical,"(390.0, 262.0)",1.2166666666666666,nan,1,6198.857,1
0,480,target,"[(1042, 824)]",[],[1],[0.5833333333333334],vertical,"(890.0, 262.0)",1.2333333333333334,0.54,1,6203.779,1
0,481,catch,"[(1041, 816)]",[],[1],[],horizontal,"(390.0, 262.0)",1.1,nan,1,6209.144,2
0,482,target,"[(1040, 815)]",[],[1],[0.48333333333333334],vertical,"(890.0, 262.0)",0.6333333333333333,0.44,1,6213.956,1
0,483,target,"[(1039, 846)]",[],[1],[0.5833333333333334],horizontal,"(390.0, 762.0)",0.5666666666666667,0.55,1,6218.262,1
0,484,target,"[(1038, 825)]",[],[1],[0.16666666666666666],vertical,"(390.0, 262.0)",1.5333333333333332,0.135,1,6223.021,1
0,485,target,"[(1040, 842)]",[],[1],[0.48333333333333334],horizontal,"(890.0, 262.0)",0.95,0.444,1,6228.325,3
0,486,target,"[(1040, 813)]",[],[1],[0.6],horizontal,"(890.0, 762.0)",1.0166666666666666,0.563,1,6234.332,1
0,487,catch,"[(1045, 830)]",[],[1],[],vertical,"(890.0, 762.0)",1.0833333333333333,nan,1,6239.544,1
0,488,target,"[(1037, 811)]",[],[1],[0.65],vertical,"(390.0, 762.0)",0.6666666666666666,0.617,1,6244.274,1
0,489,target,"[(1050, 805)]",[],[1],[0.8333333333333334],horizontal,"(390.0, 762.0)",1.4166666666666667,0.795,1,6248.68,2
0,490,target,"[(1060, 806)]",[],[1],[0.55],vertical,"(390.0, 262.0)",1.5,0.515,1,6254.276,1
0,491,target,"[(1017, 830)]",[],[1],[0.5333333333333333],horizontal,"(890.0, 762.0)",1.0166666666666666,0.496,1,6259.533,1
0,492,target,"[(1033, 819)]",[],[1],[0.5833333333333334],vertical,"(890.0, 762.0)",1.6666666666666667,0.549,1,6265.469,1
0,493,target,"[(1022, 819)]",[],[1],[0.7166666666666667],horizontal,"(390.0, 262.0)",0.7,0.673,1,6270.826,3
0,494,target,"[(1038, 834)]",[],[1],[0.13333333333333333],horizontal,"(390.0, 762.0)",1.6666666666666667,0.102,1,6276.175,1
0,495,target,"[(1037, 802)]",[],[1],[0.2],horizontal,"(390.0, 762.0)",1.3833333333333333,0.169,1,6280.977,1
0,496,target,"[(1038, 812)]",[],[1],[0.85],vertical,"(390.0, 262.0)",0.55,nan,0,6286.141,0
0,497,target,"[(1050, 835)]",[],[1],[0.5666666666666667],vertical,"(390.0, 762.0)",1.05,0.53,1,6290.406,1
0,498,catch,"[(1043, 815)]",[],[1],[],vertical,"(890.0, 262.0)",1.2166666666666666,nan,1,6295.475,1
0,499,catch,"[(1034, 851)]",[],[1],[],horizontal,"(890.0, 762.0)",1.0166666666666666,nan,1,6300.028,1
0,500,target,"[(1056, 831)]",[],[1],[0.43333333333333335],horizontal,"(890.0, 762.0)",1.1333333333333333,0.394,1,6304.323,2
0,501,target,"[(1040, 809)]",[],[1],[0.5166666666666666],horizontal,"(390.0, 262.0)",1.35,0.477,1,6309.642,1
0,502,target,"[(1040, 828)]",[],[1],[0.5666666666666667],horizontal,"(390.0, 262.0)",0.8166666666666667,0.532,1,6314.759,1
0,503,target,"[(1039, 815)]",[],[1],[0.2833333333333333],vertical,"(890.0, 762.0)",1.6333333333333333,0.251,1,6319.614,1
0,504,target,"[(1040, 817)]",[],[1],[0.6],vertical,"(890.0, 262.0)",0.6333333333333333,0.558,1,6324.529,3
0,505,target,"[(1045, 808)]",[],[1],[0.15],horizontal,"(390.0, 762.0)",1.5333333333333332,0.121,1,6329.872,1
0,506,target,"[(1041, 824)]",[],[1],[0.4166666666666667],vertical,"(390.0, 762.0)",1.2,0.381,1,6335.02,1
0,507,target,"[(1038, 812)]",[],[1],[0.05],vertical,"(890.0, 262.0)",1.4666666666666666,0.019,0,6339.927,0
0,508,target,"[(1045, 837)]",[],[1],[0.7166666666666667],vertical,"(890.0, 262.0)",0.5,0.675,1,6344.207,1
0,509,target,"[(1037, 807)]",[],[1],[0.35],vertical,"(390.0, 262.0)",1.6166666666666667,0.314,1,6348.742,1
0,510,target,"[(1026, 834)]",[],[1],[0.8166666666666667],horizontal,"(890.0, 762.0)",0.7,0.781,1,6353.557,1
0,511,target,"[(1040, 828)]",[],[1],[],vertical,"(890.0, 262.0)",,"('cti', 1.581)",0,6358.047,0
0,512,target,"[(1037, 824)]",[],[1],[0.48333333333333334],horizontal,"(890.0, 762.0)",1.0,0.445,1,6362.578,1
0,513,target,"[(1043, 818)]",[],[1],[0.5333333333333333],vertical,"(390.0, 262.0)",0.65,0.495,1,6367.589,1
0,514,target,"[(1038, 841)]",[],[1],[0.55],horizontal,"(390.0, 762.0)",0.7333333333333333,0.515,1,6372.057,1
0,515,target,"[(1038, 838)]",[],[1],[0.4],horizontal,"(390.0, 762.0)",1.2166666666666666,0.369,1,6376.31,2
0,516,target,"[(1040, 816)]",[],[1],[0.06666666666666667],vertical,"(390.0, 262.0)",1.4666666666666666,0.034,0,6381.641,0
0,517,target,"[(1061, 822)]",[],[1],[0.85],horizontal,"(390.0, 762.0)",0.6333333333333333,nan,0,6386.441,0
0,518,target,"[(1043, 835)]",[],[1],[0.6166666666666667],horizontal,"(890.0, 262.0)",0.6333333333333333,0.584,1,6390.878,1
0,519,target,"[(1040, 817)]",[],[1],[0.15],horizontal,"(390.0, 762.0)",1.4833333333333334,0.119,1,6395.907,1
0,520,target,"[(1059, 813)]",[],[1],[],vertical,"(390.0, 762.0)",,"('cti', 1.524)",0,6400.924,0
0,521,target,"[(1063, 827)]",[],[1],[0.2833333333333333],horizontal,"(890.0, 762.0)",1.3166666666666667,0.247,1,6405.913,1
0,522,catch,"[(1040, 812)]",[],[1],[],vertical,"(390.0, 762.0)",1.2833333333333332,nan,1,6410.832,1
0,523,target,"[(1043, 814)]",[],[1],[0.6833333333333333],horizontal,"(390.0, 762.0)",1.0333333333333332,0.644,1,6415.675,1
0,524,target,"[(1041, 813)]",[],[1],[0.3333333333333333],horizontal,"(890.0, 762.0)",1.4666666666666666,0.298,1,6420.362,2
0,525,target,"[(1041, 809)]",[],[1],[0.5666666666666667],vertical,"(390.0, 762.0)",1.0166666666666666,0.529,1,6425.529,1
0,526,target,"[(1060, 815)]",[],[1],[0.5166666666666666],vertical,"(890.0, 762.0)",0.9666666666666667,0.481,1,6430.576,1
0,527,target,"[(1040, 814)]",[],[1],[0.55],horizontal,"(390.0, 262.0)",0.5833333333333334,0.509,1,6435.931,1
0,528,target,"[(1042, 827)]",[],[1],[0.6166666666666667],vertical,"(890.0, 262.0)",0.8333333333333334,0.586,1,6440.773,3
0,529,target,"[(1057, 821)]",[],[1],[0.26666666666666666],horizontal,"(390.0, 762.0)",1.4166666666666667,0.233,1,6446.646,1
0,530,target,"[(1040, 826)]",[],[1],[0.1],horizontal,"(390.0, 262.0)",1.35,0.067,0,6451.592,0
0,531,target,"[(1042, 823)]",[],[1],[],horizontal,"(890.0, 262.0)",,"('cti', 1.61)",0,6456.593,0
0,532,target,"[(1029, 821)]",[],[1],[0.5666666666666667],vertical,"(890.0, 762.0)",0.65,0.531,1,6461.353,1
0,533,target,"[(1038, 816)]",[],[1],[0.4],vertical,"(390.0, 262.0)",1.2166666666666666,0.363,1,6466.213,1
0,534,target,"[(1042, 808)]",[],[1],[0.48333333333333334],vertical,"(890.0, 262.0)",0.8833333333333333,0.451,1,6471.559,1
0,535,target,"[(1037, 797)]",[],[1],[0.55],vertical,"(890.0, 262.0)",0.95,0.506,1,6476.096,2
0,536,target,"[(1040, 810)]",[],[1],[0.55],vertical,"(890.0, 262.0)",0.5833333333333334,0.513,1,6481.602,1
0,537,catch,"[(1037, 811)]",[],[1],[],horizontal,"(890.0, 762.0)",1.6166666666666667,nan,1,6486.186,1
0,538,target,"[(1040, 822)]",[],[1],[0.5833333333333334],vertical,"(890.0, 262.0)",0.7333333333333333,0.543,1,6491.087,1
0,539,target,"[(1039, 833)]",[],[1],[0.5],horizontal,"(390.0, 762.0)",0.6666666666666666,0.46,1,6495.762,3
0,540,target,"[(1061, 807)]",[],[1],[0.5833333333333334],vertical,"(390.0, 262.0)",0.9333333333333333,0.549,1,6501.624,1
0,541,target,"[(1037, 809)]",[],[1],[0.5333333333333333],vertical,"(890.0, 762.0)",0.7166666666666667,0.494,1,6506.93,1
0,542,catch,"[(1040, 815)]",[],[1],[],vertical,"(890.0, 762.0)",1.2166666666666666,nan,1,6511.847,1
0,543,target,"[(1048, 813)]",[],[1],[],vertical,"(390.0, 262.0)",,"('cti', 1.559)",0,6516.902,0
0,544,target,"[(1056, 821)]",[],[1],[0.45],vertical,"(890.0, 762.0)",1.1833333333333333,0.416,1,6521.858,1
0,545,catch,"[(1040, 815)]",[],[1],[],vertical,"(390.0, 762.0)",1.4166666666666667,nan,1,6526.781,1
0,546,target,"[(1040, 812)]",[],[1],[0.5166666666666666],vertical,"(890.0, 262.0)",1.5166666666666666,0.483,1,6531.944,1
0,547,target,"[(1040, 820)]",[],[1],[0.5],vertical,"(390.0, 762.0)",0.9166666666666666,0.463,1,6537.361,2
0,548,target,"[(1042, 799)]",[],[1],[0.2833333333333333],horizontal,"(890.0, 762.0)",1.3,0.25,1,6542.794,1
0,549,target,"[(1065, 823)]",[],[1],[0.5333333333333333],horizontal,"(390.0, 262.0)",0.9333333333333333,0.502,1,6547.705,1
0,550,target,"[(1025, 815)]",[],[1],[0.16666666666666666],vertical,"(890.0, 262.0)",1.5166666666666666,0.135,1,6552.656,1
0,551,target,"[(1043, 817)]",[],[1],[0.35],vertical,"(890.0, 762.0)",1.2166666666666666,0.314,1,6557.612,3
0,552,target,"[(1035, 792)]",[],[1],[0.5833333333333334],vertical,"(890.0, 262.0)",0.8666666666666667,0.539,1,6563.042,1
0,553,target,"[(1036, 813)]",[],[1],[],vertical,"(390.0, 262.0)",,"('cti', 1.351)",0,6567.593,0
0,554,target,"[(1035, 828)]",[],[1],[0.5],horizontal,"(390.0, 262.0)",1.0666666666666667,0.464,1,6572.49,1
0,555,target,"[(1037, 819)]",[],[1],[0.43333333333333335],horizontal,"(390.0, 262.0)",1.3,0.396,1,6577.227,1
0,556,target,"[(1041, 818)]",[],[1],[0.55],horizontal,"(890.0, 762.0)",0.5,0.511,1,6582.326,1
0,557,target,"[(1041, 824)]",[],[1],[0.35],vertical,"(890.0, 262.0)",1.0666666666666667,0.314,1,6586.99,2
0,558,target,"[(1043, 825)]",[],[1],[0.65],vertical,"(390.0, 762.0)",1.4333333333333333,0.608,1,6592.145,1
0,559,target,"[(1056, 876)]",[],[1],[0.43333333333333335],horizontal,"(890.0, 262.0)",1.3333333333333333,0.396,1,6597.712,1
0,560,catch,"[(1057, 866)]",[],[1],[],vertical,"(390.0, 262.0)",,"('cti', 1.418),nan",0,6713.927,0
0,561,target,"[(1040, 863)]",[],[1],[0.3833333333333333],horizontal,"(890.0, 262.0)",1.5166666666666666,0.352,1,6718.562,1
0,562,catch,"[(1041, 842)]",[],[1],[],horizontal,"(890.0, 762.0)",1.2166666666666666,nan,1,6723.516,1
0,563,catch,"[(1045, 823)]",[],[1],[],horizontal,"(390.0, 262.0)",1.3166666666666667,nan,1,6728.431,1
0,564,target,"[(1038, 825)]",[],[1],[0.06666666666666667],horizontal,"(390.0, 262.0)",1.3333333333333333,0.034,0,6733.051,0
0,565,target,"[(1050, 833)]",[],[1],[0.26666666666666666],horizontal,"(390.0, 762.0)",1.2833333333333332,0.232,1,6737.379,1
0,566,target,"[(1061, 819)]",[],[1],[0.55],vertical,"(390.0, 762.0)",1.05,0.514,1,6741.86,1
0,567,target,"[(1040, 805)]",[],[1],[0.15],horizontal,"(890.0, 762.0)",1.35,0.116,1,6747.026,1
0,568,target,"[(1042, 820)]",[],[1],[0.6666666666666666],horizontal,"(890.0, 762.0)",0.5,0.627,1,6751.967,2
0,569,target,"[(1060, 806)]",[],[1],[0.55],horizontal,"(390.0, 762.0)",0.65,0.517,1,6757.831,1
0,570,target,"[(1037, 815)]",[],[1],[0.85],vertical,"(890.0, 262.0)",1.5833333333333333,"('cti', 1.593),nan",0,6762.066,0
0,571,target,"[(1038, 796)]",[],[1],[0.5833333333333334],horizontal,"(390.0, 262.0)",1.1333333333333333,0.549,1,6767.462,1
0,572,target,"[(1040, 809)]",[],[1],[0.5333333333333333],vertical,"(890.0, 262.0)",0.8666666666666667,0.496,1,6772.365,1
0,573,target,"[(1033, 856)]",[],[1],[0.23333333333333334],horizontal,"(390.0, 762.0)",1.5833333333333333,0.2,1,6777.18,1
0,574,catch,"[(1041, 814)]",[],[1],[],horizontal,"(390.0, 262.0)",1.2166666666666666,nan,1,6789.993,2
0,575,target,"[(1043, 820)]",[],[1],[0.4666666666666667],vertical,"(890.0, 262.0)",0.7,0.432,1,6794.887,1
0,576,target,"[(1048, 815)]",[],[1],[0.4666666666666667],horizontal,"(390.0, 262.0)",0.6666666666666666,0.428,1,6799.791,1
0,577,target,"[(1041, 809)]",[],[1],[0.5666666666666667],vertical,"(890.0, 262.0)",0.7333333333333333,0.532,1,6804.448,1
0,578,target,"[(1052, 809)]",[],[1],[0.45],vertical,"(890.0, 762.0)",1.0666666666666667,0.414,1,6808.916,3
0,579,target,"[(1028, 824)]",[],[1],[0.5333333333333333],vertical,"(890.0, 262.0)",0.7666666666666666,0.496,1,6814.46,1
0,580,target,"[(1060, 812)]",[],[1],[0.16666666666666666],horizontal,"(390.0, 762.0)",1.2333333333333334,0.134,1,6819.449,1
0,581,target,"[(1048, 843)]",[],[1],[],horizontal,"(390.0, 262.0)",,"('cti', 1.52)",0,6824.367,0
0,582,target,"[(1033, 820)]",[],[1],[0.6],vertical,"(390.0, 762.0)",0.5666666666666667,0.564,1,6829.177,1
0,583,target,"[(1044, 829)]",[],[1],[0.43333333333333335],horizontal,"(890.0, 262.0)",1.3166666666666667,0.395,1,6833.785,1
0,584,target,"[(1037, 812)]",[],[1],[0.6166666666666667],horizontal,"(890.0, 762.0)",0.7833333333333333,0.58,1,6838.658,1
0,585,catch,"[(1053, 819)]",[],[1],[],vertical,"(390.0, 762.0)",1.2833333333333332,nan,1,6843.589,2
0,586,target,"[(1042, 811)]",[],[1],[0.3],horizontal,"(890.0, 762.0)",0.8833333333333333,0.265,1,6848.899,1
0,587,target,"[(1058, 808)]",[],[1],[0.5166666666666666],vertical,"(390.0, 262.0)",0.55,0.479,1,6853.875,1
0,588,target,"[(1065, 822)]",[],[1],[0.16666666666666666],vertical,"(890.0, 762.0)",1.5833333333333333,0.136,1,6858.207,1
0,589,target,"[(1026, 809)]",[],[1],[0.36666666666666664],horizontal,"(890.0, 262.0)",1.4833333333333334,0.332,1,6863.137,3
0,590,target,"[(1045, 822)]",[],[1],[0.35],vertical,"(390.0, 262.0)",1.3833333333333333,0.322,1,6868.983,1
0,591,catch,"[(1044, 814)]",[],[1],[],vertical,"(890.0, 762.0)",,"('cti', 1.196),nan",0,6874.109,0
0,592,catch,"[(1033, 816)]",[],[1],[],horizontal,"(390.0, 262.0)",1.5333333333333332,nan,1,6878.349,1
0,593,target,"[(1040, 814)]",[],[1],[0.85],vertical,"(390.0, 762.0)",0.5666666666666667,nan,0,6883.109,0
0,594,catch,"[(1043, 816)]",[],[1],[],horizontal,"(890.0, 262.0)",1.4166666666666667,nan,1,6887.16,1
0,595,target,"[(1037, 823)]",[],[1],[0.36666666666666664],horizontal,"(390.0, 262.0)",1.3833333333333333,0.329,1,6891.563,1
0,596,target,"[(1041, 815)]",[],[1],[0.55],vertical,"(890.0, 262.0)",0.6833333333333333,0.512,1,6896.366,1
0,597,target,"[(1065, 815)]",[],[1],[0.6833333333333333],vertical,"(390.0, 262.0)",0.95,0.641,1,6900.946,2
0,598,catch,"[(1041, 814)]",[],[1],[],vertical,"(390.0, 762.0)",1.1666666666666667,nan,1,6906.018,1
0,599,target,"[(1028, 815)]",[],[1],[0.48333333333333334],horizontal,"(890.0, 262.0)",1.0666666666666667,0.454,1,6910.68,1
0,600,target,"[(1062, 818)]",[],[1],[0.25],horizontal,"(390.0, 262.0)",1.1833333333333333,0.215,1,6915.68,1
0,601,target,"[(1064, 816)]",[],[1],[0.08333333333333333],horizontal,"(890.0, 762.0)",1.3666666666666667,0.051,0,6920.32,0
0,602,target,"[(1043, 810)]",[],[1],[0.26666666666666666],horizontal,"(890.0, 262.0)",1.1,0.232,1,6924.909,1
0,603,target,"[(1039, 817)]",[],[1],[0.6166666666666667],vertical,"(890.0, 262.0)",0.5,0.581,1,6929.889,1
0,604,target,"[(1040, 813)]",[],[1],[0.5],horizontal,"(390.0, 262.0)",1.1,0.459,1,6934.077,1
0,605,target,"[(1043, 814)]",[],[1],[0.6166666666666667],vertical,"(890.0, 762.0)",1.3666666666666667,0.578,1,6938.959,2
0,606,target,"[(1035, 804)]",[],[1],[],horizontal,"(890.0, 262.0)",,"('cti', 1.077)",0,6944.518,0
0,607,target,"[(1040, 829)]",[],[1],[0.5166666666666666],vertical,"(890.0, 262.0)",0.6333333333333333,0.486,1,6948.981,1
0,608,catch,"[(1063, 809)]",[],[1],[],horizontal,"(890.0, 762.0)",,"('cti', 1.517),nan",0,6953.417,0
0,609,target,"[(1033, 815)]",[],[1],[0.4666666666666667],horizontal,"(390.0, 762.0)",1.1166666666666667,0.431,1,6958.0,1
0,610,target,"[(1061, 804)]",[],[1],[0.25],vertical,"(890.0, 262.0)",1.35,0.218,1,6962.977,1
0,611,target,"[(1042, 819)]",[],[1],[0.55],vertical,"(890.0, 762.0)",1.0,0.515,1,6967.87,1
0,612,target,"[(1028, 808)]",[],[1],[0.6],horizontal,"(390.0, 262.0)",0.8666666666666667,0.564,1,6972.676,2
0,613,catch,"[(1045, 824)]",[],[1],[],vertical,"(890.0, 262.0)",1.0166666666666666,nan,1,6977.761,1
0,614,target,"[(1042, 822)]",[],[1],[0.21666666666666667],horizontal,"(390.0, 262.0)",1.4,0.182,1,6982.273,1
0,615,target,"[(1028, 806)]",[],[1],[0.55],horizontal,"(890.0, 762.0)",0.8,0.506,1,6987.344,1
0,616,target,"[(1044, 812)]",[],[1],[0.18333333333333332],vertical,"(890.0, 262.0)",1.2333333333333334,0.15,1,6991.992,3
0,617,target,"[(1044, 804)]",[],[1],[0.6166666666666667],vertical,"(890.0, 762.0)",0.85,0.576,1,6997.849,1
0,618,catch,"[(1060, 827)]",[],[1],[],horizontal,"(390.0, 262.0)",1.3,nan,1,7002.834,1
0,619,target,"[(1042, 822)]",[],[1],[0.31666666666666665],horizontal,"(390.0, 762.0)",0.9166666666666666,0.279,1,7007.929,1
0,620,target,"[(1037, 816)]",[],[1],[0.15],vertical,"(390.0, 762.0)",1.2166666666666666,0.117,1,7013.057,2
0,621,target,"[(1042, 813)]",[],[1],[0.18333333333333332],vertical,"(890.0, 762.0)",1.3333333333333333,0.148,1,7018.147,1
0,622,target,"[(1040, 819)]",[],[1],[0.06666666666666667],vertical,"(890.0, 762.0)",1.3166666666666667,0.035,0,7022.832,0
0,623,target,"[(1033, 831)]",[],[1],[0.6333333333333333],horizontal,"(890.0, 262.0)",1.0666666666666667,0.593,1,7027.046,1
0,624,target,"[(1038, 801)]",[],[1],[0.26666666666666666],vertical,"(390.0, 762.0)",1.3833333333333333,0.235,1,7032.029,1
0,625,target,"[(1045, 813)]",[],[1],[0.5833333333333334],vertical,"(890.0, 762.0)",0.9,0.55,1,7036.898,1
0,626,target,"[(1040, 825)]",[],[1],[],vertical,"(890.0, 762.0)",,"('cti', 1.437)",0,7041.517,0
0,627,target,"[(1037, 836)]",[],[1],[0.5666666666666667],horizontal,"(390.0, 762.0)",1.0166666666666666,0.531,1,7046.381,1
0,628,target,"[(1044, 825)]",[],[1],[0.08333333333333333],horizontal,"(890.0, 262.0)",1.65,0.052,0,7051.619,0
0,629,target,"[(1037, 823)]",[],[1],[0.5666666666666667],horizontal,"(890.0, 762.0)",1.0166666666666666,0.533,1,7056.437,1
0,630,target,"[(1038, 818)]",[],[1],[0.5833333333333334],horizontal,"(390.0, 762.0)",1.0333333333333332,0.548,1,7061.129,1
0,631,target,"[(1056, 817)]",[],[1],[0.5333333333333333],horizontal,"(890.0, 262.0)",0.9833333333333333,0.495,1,7066.711,1
0,632,target,"[(1041, 821)]",[],[1],[0.55],vertical,"(890.0, 262.0)",0.7166666666666667,0.503,1,7071.957,2
0,633,catch,"[(1038, 813)]",[],[1],[],vertical,"(890.0, 262.0)",,"('cti', 1.528),nan",0,7076.713,0
0,634,target,"[(1030, 865)]",[],[1],[0.85],vertical,"(890.0, 262.0)",1.0166666666666666,nan,0,7081.235,0
0,635,target,"[(1025, 845)]",[],[1],[0.6],horizontal,"(890.0, 262.0)",1.55,0.555,1,8388.491,1
0,636,catch,"[(1013, 823)]",[],[1],[],horizontal,"(390.0, 762.0)",1.0666666666666667,nan,1,8394.092,1
0,637,target,"[(1040, 847)]",[],[1],[0.85],vertical,"(890.0, 262.0)",0.6,nan,0,8398.439,0
0,638,target,"[(1017, 842)]",[],[1],[0.85],vertical,"(390.0, 262.0)",0.75,nan,0,8403.125,0
0,639,target,"[(1016, 862)]",[],[1],[0.7],vertical,"(390.0, 262.0)",0.7666666666666666,0.663,1,8407.908,1
0,640,target,"[(1036, 820)]",[],[1],[0.6333333333333333],horizontal,"(390.0, 762.0)",0.5833333333333334,0.597,1,8413.426,1
0,641,catch,"[(1060, 819)]",[],[1],[],horizontal,"(390.0, 762.0)",1.0,nan,1,8417.84,1
0,642,target,"[(1029, 816)]",[],[1],[0.7833333333333333],horizontal,"(390.0, 762.0)",0.7333333333333333,0.743,1,8422.526,2
0,643,target,"[(1035, 833)]",[],[1],[0.55],horizontal,"(890.0, 262.0)",0.5666666666666667,0.517,1,8427.49,1
0,644,target,"[(1040, 807)]",[],[1],[0.1],vertical,"(890.0, 762.0)",0.7166666666666667,0.066,0,8432.256,0
0,645,target,"[(1037, 827)]",[],[1],[0.75],vertical,"(890.0, 262.0)",0.8666666666666667,0.713,1,8436.641,1
0,646,target,"[(1051, 829)]",[],[1],[0.3333333333333333],vertical,"(390.0, 262.0)",1.2666666666666666,0.295,1,8441.625,1
0,647,target,"[(1024, 820)]",[],[1],[0.4666666666666667],vertical,"(390.0, 262.0)",0.8166666666666667,0.432,1,8446.973,1
0,648,target,"[(1064, 819)]",[],[1],[0.6666666666666666],horizontal,"(390.0, 762.0)",0.75,0.62,1,8451.563,2
0,649,target,"[(1045, 812)]",[],[1],[0.55],vertical,"(390.0, 262.0)",0.9833333333333333,0.509,1,8457.207,1
0,650,catch,"[(1021, 831)]",[],[1],[],vertical,"(890.0, 762.0)",1.1833333333333333,nan,1,8461.958,1
0,651,target,"[(1038, 816)]",[],[1],[0.85],horizontal,"(390.0, 262.0)",0.95,nan,0,8466.793,0
0,652,target,"[(1022, 837)]",[],[1],[0.13333333333333333],horizontal,"(390.0, 762.0)",1.5,0.101,1,8471.957,1
0,653,target,"[(1036, 824)]",[],[1],[0.35],vertical,"(390.0, 762.0)",1.2666666666666666,0.316,1,8477.427,1
0,654,target,"[(1041, 824)]",[],[1],[0.5666666666666667],horizontal,"(390.0, 262.0)",0.5666666666666667,0.531,1,8482.427,1
0,655,target,"[(1061, 838)]",[],[1],[0.55],horizontal,"(390.0, 262.0)",0.8166666666666667,0.513,1,8487.344,2
0,656,target,"[(1042, 820)]",[],[1],[0.1],vertical,"(390.0, 262.0)",1.6666666666666667,0.065,0,8492.241,0
0,657,target,"[(1032, 831)]",[],[1],[0.5333333333333333],horizontal,"(890.0, 262.0)",1.2,0.497,1,8496.81,1
0,658,target,"[(1030, 818)]",[],[1],[0.5166666666666666],vertical,"(890.0, 262.0)",0.7,0.483,1,8501.929,1
0,659,target,"[(1037, 813)]",[],[1],[0.36666666666666664],horizontal,"(890.0, 262.0)",1.2333333333333334,0.329,1,8506.858,1
0,660,target,"[(1058, 804)]",[],[1],[0.6333333333333333],horizontal,"(390.0, 762.0)",1.0333333333333332,0.588,1,8511.919,2
0,661,target,"[(1041, 824)]",[],[1],[0.3],horizontal,"(890.0, 762.0)",1.3333333333333333,0.267,1,8517.261,1
0,662,target,"[(1037, 810)]",[],[1],[0.6333333333333333],vertical,"(390.0, 762.0)",0.8166666666666667,0.596,1,8522.411,1
0,663,target,"[(1040, 819)]",[],[1],[0.65],vertical,"(390.0, 762.0)",0.75,0.616,1,8527.412,1
0,664,target,"[(1045, 836)]",[],[1],[0.85],horizontal,"(390.0, 762.0)",0.5,nan,0,8532.177,0
0,665,target,"[(1033, 837)]",[],[1],[0.5],horizontal,"(390.0, 762.0)",1.4166666666666667,0.463,1,8536.403,1
0,666,target,"[(1038, 828)]",[],[1],[0.5333333333333333],vertical,"(890.0, 262.0)",0.8833333333333333,0.494,1,8541.929,1
0,667,catch,"[(1040, 809)]",[],[1],[],horizontal,"(890.0, 762.0)",1.4,nan,1,8546.819,1
0,668,target,"[(1040, 831)]",[],[1],[0.5666666666666667],vertical,"(390.0, 762.0)",1.0166666666666666,0.534,1,8551.538,2
0,669,target,"[(1043, 806)]",[],[1],[0.5666666666666667],vertical,"(890.0, 262.0)",0.85,0.527,1,8557.399,1
0,670,target,"[(1065, 813)]",[],[1],[0.3833333333333333],horizontal,"(890.0, 762.0)",1.25,0.345,1,8562.117,1
0,671,target,"[(1039, 813)]",[],[1],[0.65],horizontal,"(390.0, 762.0)",0.7166666666666667,0.612,1,8567.056,1
0,672,target,"[(1039, 820)]",[],[1],[0.2833333333333333],horizontal,"(890.0, 262.0)",1.3333333333333333,0.25,1,8572.237,3
0,673,target,"[(1065, 800)]",[],[1],[0.6666666666666666],vertical,"(390.0, 762.0)",1.0,0.628,1,8578.14,1
0,674,target,"[(1052, 805)]",[],[1],[0.6333333333333333],horizontal,"(390.0, 762.0)",0.6166666666666667,0.6,1,8582.999,1
0,675,target,"[(1050, 818)]",[],[1],[0.15],horizontal,"(890.0, 262.0)",1.4666666666666666,0.118,1,8587.645,1
0,676,target,"[(1039, 804)]",[],[1],[0.6166666666666667],horizontal,"(390.0, 762.0)",0.6333333333333333,0.582,1,8592.872,2
0,677,catch,"[(1037, 790)]",[],[1],[],vertical,"(390.0, 262.0)",1.6166666666666667,nan,1,8598.158,1
0,678,target,"[(1037, 809)]",[],[1],[],horizontal,"(390.0, 762.0)",,"('cti', 1.349)",0,8602.912,0
0,679,target,"[(1060, 820)]",[],[1],[0.8166666666666667],horizontal,"(890.0, 262.0)",0.6166666666666667,0.776,1,8607.666,1
0,680,target,"[(1026, 807)]",[],[1],[0.6333333333333333],vertical,"(890.0, 762.0)",0.9833333333333333,0.594,1,8612.108,1
0,681,catch,"[(1041, 817)]",[],[1],[],vertical,"(890.0, 262.0)",1.3833333333333333,nan,1,8617.078,1
0,682,target,"[(1042, 821)]",[],[1],[0.31666666666666665],horizontal,"(390.0, 762.0)",1.15,0.282,1,8621.505,2
0,683,target,"[(1060, 803)]",[],[1],[0.7],vertical,"(390.0, 762.0)",0.55,0.66,1,8626.894,1
0,684,target,"[(1033, 818)]",[],[1],[0.5666666666666667],vertical,"(390.0, 262.0)",0.7333333333333333,0.527,1,8631.41,1
0,685,target,"[(1031, 813)]",[],[1],[0.5],vertical,"(890.0, 762.0)",1.25,0.459,1,8636.375,1
0,686,target,"[(1042, 808)]",[],[1],[0.08333333333333333],horizontal,"(890.0, 762.0)",1.4166666666666667,0.052,0,8641.805,0
0,687,target,"[(1048, 820)]",[],[1],[0.85],vertical,"(390.0, 762.0)",0.5,nan,0,8646.874,0
0,688,target,"[(1031, 843)]",[],[1],[0.55],horizontal,"(890.0, 762.0)",0.8333333333333334,0.513,1,8651.218,1
0,689,target,"[(1029, 829)]",[],[1],[0.48333333333333334],vertical,"(390.0, 262.0)",1.45,0.449,1,8655.676,1
0,690,target,"[(1038, 825)]",[],[1],[0.6],horizontal,"(890.0, 762.0)",0.5,0.554,1,8661.491,1
0,691,target,"[(1033, 810)]",[],[1],[0.7666666666666666],horizontal,"(390.0, 762.0)",0.85,0.728,1,8666.169,2
0,692,target,"[(1037, 826)]",[],[1],[0.4166666666666667],horizontal,"(890.0, 762.0)",1.2333333333333334,0.384,1,8671.648,1
0,693,target,"[(1040, 821)]",[],[1],[0.5666666666666667],horizontal,"(890.0, 262.0)",1.4166666666666667,0.534,1,8676.74,1
0,694,catch,"[(1049, 824)]",[],[1],[],vertical,"(390.0, 762.0)",,"('cti', 1.597),nan",0,8682.457,0
0,695,target,"[(1052, 814)]",[],[1],[0.8],vertical,"(390.0, 262.0)",0.5833333333333334,0.757,1,8687.277,1
0,696,target,"[(1040, 821)]",[],[1],[0.55],vertical,"(890.0, 762.0)",0.75,0.513,1,8691.794,1
0,697,target,"[(1039, 819)]",[],[1],[0.8166666666666667],vertical,"(390.0, 262.0)",0.7166666666666667,0.78,1,8696.278,1
0,698,catch,"[(1053, 821)]",[],[1],[],vertical,"(390.0, 262.0)",1.4,nan,1,8701.079,2
0,699,target,"[(1040, 819)]",[],[1],[0.21666666666666667],vertical,"(390.0, 262.0)",1.4166666666666667,0.182,1,8706.393,1
0,700,catch,"[(1040, 814)]",[],[1],[],vertical,"(890.0, 762.0)",1.45,nan,1,8711.076,1
0,701,target,"[(1040, 820)]",[],[1],[0.5666666666666667],horizontal,"(890.0, 762.0)",0.65,0.53,1,8715.879,1
0,702,target,"[(1046, 816)]",[],[1],[0.21666666666666667],vertical,"(890.0, 262.0)",1.6166666666666667,0.18,1,8720.74,3
0,703,target,"[(1058, 805)]",[],[1],[0.85],vertical,"(390.0, 762.0)",0.7166666666666667,nan,0,8726.378,0
0,704,target,"[(1039, 832)]",[],[1],[0.4],vertical,"(890.0, 262.0)",1.4,0.365,1,8730.999,1
0,705,target,"[(1022, 819)]",[],[1],[0.5166666666666666],horizontal,"(390.0, 762.0)",1.1666666666666667,0.482,1,8736.326,1
0,706,target,"[(1045, 814)]",[],[1],[0.2],vertical,"(890.0, 262.0)",1.3833333333333333,0.165,1,8741.508,1
0,707,target,"[(1043, 828)]",[],[1],[0.75],horizontal,"(890.0, 762.0)",1.0833333333333333,0.709,1,8746.577,2
0,708,target,"[(1040, 797)]",[],[1],[0.15],horizontal,"(390.0, 762.0)",1.4833333333333334,0.117,1,8752.023,1
0,709,target,"[(1051, 816)]",[],[1],[0.3333333333333333],horizontal,"(890.0, 762.0)",1.3,0.298,1,8757.176,1
0,710,target,"[(1037, 817)]",[],[1],[0.6],vertical,"(390.0, 262.0)",0.6666666666666666,0.562,1,8762.226,1
0,711,target,"[(1061, 806)]",[],[1],[0.3333333333333333],vertical,"(890.0, 762.0)",1.25,0.299,1,8766.663,3
0,712,target,"[(1055, 801)]",[],[1],[0.48333333333333334],vertical,"(390.0, 262.0)",1.0,0.446,1,8772.326,1
0,713,target,"[(1033, 843)]",[],[1],[0.4],vertical,"(390.0, 762.0)",1.3166666666666667,0.363,1,8777.41,1
0,714,target,"[(1034, 830)]",[],[1],[0.2833333333333333],horizontal,"(890.0, 762.0)",1.3666666666666667,0.25,1,8806.711,1
0,715,target,"[(1045, 833)]",[],[1],[0.21666666666666667],vertical,"(390.0, 262.0)",1.1166666666666667,0.182,1,8811.707,2
0,716,target,"[(1025, 809)]",[],[1],[0.6833333333333333],vertical,"(390.0, 762.0)",0.6666666666666666,0.646,1,8817.221,1
0,717,catch,"[(1056, 807)]",[],[1],[],vertical,"(390.0, 762.0)",,"('cti', 1.28),nan",0,8822.261,0
0,718,target,"[(1050, 819)]",[],[1],[0.3],vertical,"(890.0, 262.0)",1.4333333333333333,0.265,1,8826.806,1
0,719,target,"[(1052, 825)]",[],[1],[0.6],horizontal,"(890.0, 762.0)",1.2,0.565,1,8831.762,1
0,720,target,"[(1028, 818)]",[],[1],[0.65],vertical,"(390.0, 262.0)",0.8166666666666667,0.607,1,8836.607,1
0,721,target,"[(1042, 803)]",[],[1],[0.5],vertical,"(890.0, 262.0)",1.2666666666666666,0.464,1,8841.228,2
0,722,target,"[(1060, 809)]",[],[1],[],vertical,"(390.0, 262.0)",,"('cti', 1.572)",0,8846.762,0
0,723,target,"[(1033, 825)]",[],[1],[0.5333333333333333],horizontal,"(890.0, 262.0)",0.75,0.5,1,8851.577,1
0,724,target,"[(1021, 825)]",[],[1],[0.3],horizontal,"(390.0, 262.0)",1.3166666666666667,0.263,1,8855.9,1
0,725,target,"[(1048, 813)]",[],[1],[0.5666666666666667],vertical,"(390.0, 262.0)",0.7666666666666666,0.533,1,8861.166,1
0,726,target,"[(1056, 815)]",[],[1],[0.65],vertical,"(390.0, 262.0)",0.6333333333333333,0.608,1,8866.112,2
0,727,target,"[(1057, 809)]",[],[1],[0.23333333333333334],vertical,"(890.0, 262.0)",1.2166666666666666,0.199,1,8871.462,1
0,728,target,"[(1060, 806)]",[],[1],[0.5166666666666666],vertical,"(890.0, 762.0)",0.7666666666666666,0.48,1,8876.343,1
0,729,target,"[(1057, 819)]",[],[1],[0.3333333333333333],horizontal,"(390.0, 262.0)",1.2,0.299,1,8881.013,1
0,730,target,"[(1065, 808)]",[],[1],[0.6],horizontal,"(890.0, 762.0)",0.5666666666666667,0.559,1,8886.481,3
0,731,target,"[(1055, 825)]",[],[1],[],horizontal,"(390.0, 262.0)",,"('cti', 0.966)",0,8891.911,0
0,732,target,"[(1033, 838)]",[],[1],[0.31666666666666665],vertical,"(390.0, 762.0)",1.4666666666666666,0.285,1,8896.279,1
0,733,target,"[(1039, 806)]",[],[1],[0.5333333333333333],vertical,"(390.0, 262.0)",0.8666666666666667,0.502,1,8901.194,1
0,734,target,"[(1068, 825)]",[],[1],[0.16666666666666666],horizontal,"(390.0, 262.0)",1.6166666666666667,0.135,1,8905.793,1
0,735,target,"[(1065, 814)]",[],[1],[0.55],vertical,"(890.0, 762.0)",0.6833333333333333,0.511,1,8911.109,2
0,736,target,"[(1075, 838)]",[],[1],[],horizontal,"(890.0, 262.0)",,"('cti', 1.495)",0,8915.81,0
0,737,target,"[(1041, 813)]",[],[1],[0.65],vertical,"(390.0, 762.0)",0.5166666666666666,0.611,1,8920.861,1
0,738,target,"[(1068, 817)]",[],[1],[0.2],horizontal,"(390.0, 262.0)",1.4166666666666667,0.166,1,8925.68,1
0,739,target,"[(1037, 815)]",[],[1],[0.5],vertical,"(390.0, 762.0)",1.6166666666666667,0.464,1,8930.893,1
0,740,target,"[(1045, 817)]",[],[1],[0.4166666666666667],horizontal,"(890.0, 762.0)",0.9333333333333333,0.383,1,8936.197,2
0,741,target,"[(1040, 818)]",[],[1],[],vertical,"(890.0, 762.0)",,"('cti', 1.445)",0,8941.727,0
0,742,target,"[(1028, 826)]",[],[1],[0.5166666666666666],horizontal,"(390.0, 762.0)",1.3833333333333333,0.48,1,8945.995,1
0,743,catch,"[(1064, 815)]",[],[1],[],vertical,"(890.0, 762.0)",1.2666666666666666,nan,1,8951.221,1
0,744,target,"[(1061, 828)]",[],[1],[0.06666666666666667],horizontal,"(890.0, 262.0)",1.5833333333333333,0.036,0,8956.067,0
0,745,target,"[(1036, 833)]",[],[1],[0.65],horizontal,"(890.0, 262.0)",0.7666666666666666,0.608,1,8960.979,1
0,746,target,"[(1029, 820)]",[],[1],[0.6833333333333333],vertical,"(890.0, 262.0)",1.0166666666666666,0.645,1,8965.842,1
0,747,target,"[(1064, 814)]",[],[1],[0.65],horizontal,"(390.0, 762.0)",0.6333333333333333,0.615,1,8970.914,1
0,748,target,"[(1049, 809)]",[],[1],[0.6],horizontal,"(890.0, 262.0)",0.8166666666666667,0.566,1,8975.677,2
0,749,target,"[(1040, 799)]",[],[1],[0.5166666666666666],vertical,"(890.0, 762.0)",0.8,0.482,1,8980.826,1
0,750,target,"[(1038, 810)]",[],[1],[0.45],horizontal,"(390.0, 762.0)",1.1333333333333333,0.418,1,8985.895,1
0,751,target,"[(1061, 830)]",[],[1],[0.48333333333333334],vertical,"(890.0, 762.0)",0.7,0.448,1,8991.209,1
0,752,target,"[(1053, 812)]",[],[1],[0.5333333333333333],horizontal,"(390.0, 262.0)",0.5166666666666666,0.493,1,8995.976,3
0,753,target,"[(1038, 802)]",[],[1],[0.6833333333333333],horizontal,"(390.0, 762.0)",0.8666666666666667,0.645,1,9001.324,1
0,754,target,"[(1037, 821)]",[],[1],[0.6],vertical,"(890.0, 262.0)",0.7333333333333333,0.556,1,9005.826,1
0,755,target,"[(1063, 813)]",[],[1],[0.6],vertical,"(390.0, 262.0)",0.5166666666666666,0.563,1,9010.407,1
0,756,target,"[(1029, 821)]",[],[1],[0.55],horizontal,"(890.0, 762.0)",1.1166666666666667,0.516,1,9015.13,2
0,757,target,"[(1036, 825)]",[],[1],[0.15],vertical,"(390.0, 262.0)",1.3,0.119,1,9020.801,1
0,758,catch,"[(1067, 802)]",[],[1],[],vertical,"(390.0, 262.0)",1.3666666666666667,nan,1,9025.678,1
0,759,target,"[(1031, 812)]",[],[1],[],horizontal,"(390.0, 262.0)",,"('cti', 1.31)",0,9030.625,0
0,760,target,"[(1051, 827)]",[],[1],[0.5],vertical,"(890.0, 262.0)",0.85,0.469,1,9035.422,1
0,761,target,"[(1041, 808)]",[],[1],[0.85],vertical,"(890.0, 262.0)",0.6333333333333333,nan,0,9039.811,0
0,762,target,"[(1030, 820)]",[],[1],[0.85],vertical,"(890.0, 262.0)",1.0833333333333333,nan,0,9044.095,0
0,763,catch,"[(1061, 824)]",[],[1],[],horizontal,"(890.0, 262.0)",1.1,nan,1,9049.126,1
0,764,target,"[(1033, 826)]",[],[1],[0.3],vertical,"(390.0, 262.0)",1.3,0.265,1,9053.878,1
0,765,target,"[(1039, 819)]",[],[1],[0.31666666666666665],horizontal,"(890.0, 762.0)",1.25,0.282,1,9058.524,1
0,766,target,"[(1058, 817)]",[],[1],[0.5166666666666666],vertical,"(390.0, 262.0)",1.2666666666666666,0.478,1,9063.477,2
0,767,target,"[(1053, 804)]",[],[1],[],vertical,"(390.0, 762.0)",,"('cti', 1.474)",0,9069.13,0
0,768,target,"[(1039, 811)]",[],[1],[0.5833333333333334],horizontal,"(390.0, 262.0)",0.9,0.542,1,9074.13,1
0,769,target,"[(1058, 793)]",[],[1],[0.5166666666666666],vertical,"(390.0, 262.0)",0.8166666666666667,0.48,1,9078.527,1
0,770,target,"[(1057, 813)]",[],[1],[0.5],horizontal,"(890.0, 262.0)",1.55,0.463,1,9083.214,1
0,771,target,"[(1033, 807)]",[],[1],[0.5],horizontal,"(890.0, 262.0)",0.9,0.458,1,9088.178,2
0,772,target,"[(1046, 809)]",[],[1],[0.5833333333333334],horizontal,"(890.0, 762.0)",0.9333333333333333,0.548,1,9093.735,1
0,773,target,"[(1064, 827)]",[],[1],[],horizontal,"(890.0, 762.0)",,"('cti', 1.62)",0,9098.929,0
0,774,target,"[(1068, 806)]",[],[1],[0.5833333333333334],horizontal,"(890.0, 262.0)",1.0,0.548,1,9103.675,1
0,775,target,"[(1064, 813)]",[],[1],[0.15],horizontal,"(890.0, 262.0)",1.35,0.118,1,9108.643,1
0,776,target,"[(1038, 798)]",[],[1],[0.5166666666666666],horizontal,"(890.0, 262.0)",0.75,0.487,1,9113.878,1
0,777,target,"[(1033, 820)]",[],[1],[0.3333333333333333],vertical,"(390.0, 762.0)",1.35,0.301,1,9118.549,2
0,778,target,"[(1042, 816)]",[],[1],[0.3833333333333333],horizontal,"(390.0, 762.0)",1.3,0.347,1,9123.964,1
0,779,target,"[(1033, 812)]",[],[1],[0.5166666666666666],horizontal,"(390.0, 262.0)",1.0666666666666667,0.484,1,9128.746,1
0,780,target,"[(1030, 821)]",[],[1],[0.13333333333333333],vertical,"(390.0, 762.0)",1.4,0.101,1,9133.897,1
0,781,target,"[(1033, 816)]",[],[1],[0.48333333333333334],horizontal,"(890.0, 262.0)",0.9166666666666666,0.452,1,9138.969,3
0,782,target,"[(1039, 812)]",[],[1],[0.7],vertical,"(390.0, 762.0)",0.8333333333333334,0.66,1,9144.419,1
0,783,target,"[(1035, 814)]",[],[1],[0.5],vertical,"(890.0, 262.0)",0.7166666666666667,0.474,1,9149.582,1
0,784,target,"[(1038, 807)]",[],[1],[0.5],horizontal,"(890.0, 262.0)",0.9166666666666666,0.464,1,9154.345,1
0,785,target,"[(1065, 807)]",[],[1],[0.5666666666666667],horizontal,"(390.0, 762.0)",0.7333333333333333,0.529,1,9158.746,2
0,786,target,"[(1039, 806)]",[],[1],[0.21666666666666667],horizontal,"(390.0, 762.0)",1.3833333333333333,0.185,1,9163.703,1
0,787,target,"[(1030, 810)]",[],[1],[0.5333333333333333],horizontal,"(390.0, 262.0)",0.65,0.493,1,9168.407,1
0,788,target,"[(1033, 816)]",[],[1],[0.6166666666666667],vertical,"(890.0, 262.0)",0.65,0.574,1,9173.598,1
0,789,target,"[(1044, 812)]",[],[1],[0.4666666666666667],vertical,"(390.0, 262.0)",0.95,0.427,1,9178.096,3
0,790,target,"[(1045, 811)]",[],[1],[0.5833333333333334],vertical,"(390.0, 262.0)",0.6666666666666666,0.552,1,9183.594,1
0,791,target,"[(1025, 808)]",[],[1],[0.35],horizontal,"(890.0, 762.0)",1.5166666666666666,0.313,1,9187.825,1
0,792,catch,"[(1062, 817)]",[],[1],[],vertical,"(890.0, 762.0)",1.3666666666666667,nan,1,9193.295,1
0,793,target,"[(1058, 812)]",[],[1],[0.5],horizontal,"(890.0, 262.0)",0.7166666666666667,0.46,1,9197.929,2
0,794,target,"[(1036, 806)]",[],[1],[0.55],horizontal,"(890.0, 762.0)",0.6166666666666667,0.518,1,9202.759,1
0,795,target,"[(1049, 804)]",[],[1],[0.5666666666666667],vertical,"(890.0, 762.0)",0.5,0.528,1,9206.963,1
0,796,target,"[(1049, 805)]",[],[1],[0.5666666666666667],vertical,"(390.0, 762.0)",0.7833333333333333,0.529,1,9211.378,1
0,797,target,"[(1029, 807)]",[],[1],[],vertical,"(890.0, 262.0)",,"('cti', 1.412)",0,9216.131,0
0,798,catch,"[(1035, 826)]",[],[1],[],horizontal,"(390.0, 262.0)",1.1833333333333333,nan,1,9220.966,1
0,799,target,"[(1033, 796)]",[],[1],[0.25],vertical,"(390.0, 762.0)",1.2333333333333334,0.215,1,9225.646,1
0,800,target,"[(1054, 817)]",[],[1],[0.36666666666666664],horizontal,"(390.0, 262.0)",1.2666666666666666,0.331,1,9230.791,1
0,801,target,"[(1038, 804)]",[],[1],[0.4],horizontal,"(890.0, 262.0)",1.2333333333333334,0.367,1,9235.598,2
0,802,target,"[(1059, 800)]",[],[1],[0.43333333333333335],vertical,"(390.0, 262.0)",1.5333333333333332,0.396,1,9240.995,1
0,803,target,"[(1057, 808)]",[],[1],[0.16666666666666666],vertical,"(890.0, 762.0)",1.4,0.139,1,9246.313,1
0,804,target,"[(1028, 808)]",[],[1],[0.48333333333333334],horizontal,"(390.0, 262.0)",1.0,0.442,1,9251.599,1
0,805,target,"[(1048, 812)]",[],[1],[0.3833333333333333],horizontal,"(890.0, 762.0)",1.3,0.344,1,9256.376,3
0,806,target,"[(1059, 802)]",[],[1],[0.1],vertical,"(390.0, 762.0)",1.5,0.066,0,9261.979,0
0,807,target,"[(1029, 822)]",[],[1],[0.85],horizontal,"(890.0, 262.0)",0.8833333333333333,nan,0,9266.734,0
0,808,target,"[(1008, 872)]",[],[1],[0.48333333333333334],vertical,"(390.0, 762.0)",1.1166666666666667,0.445,1,10887.853,1
0,809,target,"[(1020, 825)]",[],[1],[0.85],vertical,"(390.0, 262.0)",1.3666666666666667,nan,0,10893.671,0
0,810,target,"[(1045, 816)]",[],[1],[0.5666666666666667],horizontal,"(390.0, 762.0)",0.9666666666666667,0.528,1,10899.292,1
0,811,target,"[(1037, 825)]",[],[1],[0.35],horizontal,"(390.0, 762.0)",1.25,0.309,1,10904.412,1
0,812,target,"[(1032, 818)]",[],[1],[],vertical,"(390.0, 762.0)",,"('cti', 1.458)",0,10909.558,0
0,813,target,"[(1062, 815)]",[],[1],[0.7166666666666667],vertical,"(890.0, 762.0)",0.5333333333333333,0.675,1,10914.453,1
0,814,target,"[(1039, 837)]",[],[1],[0.2],horizontal,"(890.0, 262.0)",1.4333333333333333,0.165,1,10919.227,1
0,815,target,"[(1029, 802)]",[],[1],[],vertical,"(390.0, 262.0)",,"('cti', 1.338)",0,10924.107,0
0,816,target,"[(1045, 861)]",[],[1],[0.65],vertical,"(390.0, 262.0)",0.5833333333333334,0.611,1,10929.005,1
0,817,target,"[(1038, 798)]",[],[1],[0.5666666666666667],horizontal,"(390.0, 262.0)",0.5,0.532,1,10933.576,1
0,818,target,"[(1039, 798)]",[],[1],[0.7833333333333333],horizontal,"(890.0, 762.0)",0.9,0.744,1,10937.913,1
0,819,target,"[(1033, 811)]",[],[1],[0.48333333333333334],horizontal,"(890.0, 762.0)",0.85,0.442,1,10943.091,2
0,820,target,"[(1038, 810)]",[],[1],[0.5333333333333333],vertical,"(890.0, 762.0)",0.5166666666666666,0.497,1,10948.231,1
0,821,target,"[(1031, 790)]",[],[1],[0.48333333333333334],vertical,"(390.0, 262.0)",1.0333333333333332,0.442,1,10952.593,1
0,822,target,"[(1038, 797)]",[],[1],[],horizontal,"(890.0, 262.0)",,"('cti', 1.224)",0,10957.522,0
0,823,target,"[(1034, 818)]",[],[1],[0.7166666666666667],horizontal,"(890.0, 262.0)",0.9833333333333333,0.671,1,10962.177,1
0,824,target,"[(1045, 803)]",[],[1],[0.4166666666666667],horizontal,"(390.0, 262.0)",1.2666666666666666,0.383,1,10967.495,1
0,825,catch,"[(1037, 865)]",[],[1],[],horizontal,"(390.0, 262.0)",1.1,nan,1,10972.252,1
0,826,target,"[(1040, 808)]",[],[1],[],horizontal,"(390.0, 262.0)",,"('cti', 1.646)",0,10978.993,0
0,827,target,"[(1021, 822)]",[],[1],[0.5333333333333333],horizontal,"(390.0, 762.0)",1.0,0.498,1,10983.96,1
0,828,target,"[(1029, 808)]",[],[1],[0.85],vertical,"(890.0, 262.0)",0.5166666666666666,nan,0,10988.97,0
0,829,target,"[(1016, 818)]",[],[1],[0.7],horizontal,"(390.0, 762.0)",0.6833333333333333,0.658,1,10993.211,1
0,830,target,"[(1056, 797)]",[],[1],[0.5166666666666666],vertical,"(890.0, 762.0)",1.2333333333333334,0.475,1,10998.058,1
0,831,target,"[(1029, 816)]",[],[1],[0.55],vertical,"(390.0, 762.0)",1.3166666666666667,0.51,1,11003.295,1
0,832,catch,"[(1029, 820)]",[],[1],[],vertical,"(390.0, 762.0)",1.0666666666666667,nan,1,11008.087,2
0,833,target,"[(1039, 812)]",[],[1],[0.36666666666666664],vertical,"(390.0, 262.0)",1.1,0.328,1,11013.171,1
0,834,target,"[(1039, 809)]",[],[1],[0.06666666666666667],vertical,"(890.0, 262.0)",1.3333333333333333,0.034,0,11018.428,0
0,835,target,"[(1039, 833)]",[],[1],[0.45],vertical,"(890.0, 262.0)",1.4,0.413,1,11023.073,1
0,836,target,"[(1044, 804)]",[],[1],[0.85],horizontal,"(390.0, 262.0)",1.6,"('cti', 1.601),nan",0,11028.906,0
0,837,target,"[(1038, 829)]",[],[1],[0.5333333333333333],horizontal,"(890.0, 762.0)",0.7666666666666666,0.5,1,11034.426,1
0,838,target,"[(1040, 809)]",[],[1],[0.85],horizontal,"(890.0, 262.0)",0.5833333333333334,nan,0,11039.456,0
0,839,catch,"[(1036, 820)]",[],[1],[],vertical,"(890.0, 762.0)",1.3166666666666667,nan,1,11044.005,1
0,840,target,"[(1038, 816)]",[],[1],[0.85],vertical,"(390.0, 762.0)",0.7833333333333333,nan,0,11049.298,0
0,841,target,"[(1038, 858)]",[],[1],[0.75],horizontal,"(390.0, 762.0)",1.1166666666666667,0.711,1,11053.697,1
0,842,target,"[(1029, 825)]",[],[1],[0.5833333333333334],vertical,"(890.0, 762.0)",1.2666666666666666,0.542,1,11059.104,1
0,843,target,"[(1039, 810)]",[],[1],[0.4],vertical,"(890.0, 262.0)",1.4166666666666667,0.367,1,11064.515,1
0,844,target,"[(1035, 847)]",[],[1],[0.5666666666666667],vertical,"(390.0, 762.0)",0.5333333333333333,0.528,1,11069.355,2
0,845,target,"[(1033, 833)]",[],[1],[0.85],horizontal,"(890.0, 762.0)",0.7166666666666667,nan,0,11390.875,0
0,846,target,"[(1035, 849)]",[],[1],[0.06666666666666667],horizontal,"(390.0, 262.0)",1.1833333333333333,0.035,0,11395.912,0
0,847,target,"[(1048, 825)]",[],[1],[0.5333333333333333],horizontal,"(890.0, 762.0)",1.05,0.497,1,11401.511,1
0,848,catch,"[(1038, 816)]",[],[1],[],vertical,"(890.0, 262.0)",1.35,nan,1,11406.482,1
0,849,target,"[(1046, 837)]",[],[1],[0.5333333333333333],horizontal,"(890.0, 262.0)",0.6166666666666667,0.488,1,11411.63,1
0,850,target,"[(1044, 813)]",[],[1],[0.6],horizontal,"(390.0, 262.0)",1.1,0.559,1,11416.16,2
0,851,target,"[(1050, 829)]",[],[1],[0.3333333333333333],horizontal,"(890.0, 262.0)",1.2666666666666666,0.298,1,11421.31,1
0,852,target,"[(1047, 796)]",[],[1],[0.85],horizontal,"(890.0, 262.0)",1.2833333333333332,"('cti', 1.283),nan",0,11426.269,0
0,853,catch,"[(1048, 823)]",[],[1],[],horizontal,"(890.0, 262.0)",1.4333333333333333,nan,1,11431.899,1
0,854,target,"[(1045, 817)]",[],[1],[0.85],vertical,"(890.0, 262.0)",0.6666666666666666,nan,0,11436.594,0
0,855,target,"[(1029, 820)]",[],[1],[0.2833333333333333],horizontal,"(390.0, 762.0)",1.4666666666666666,0.25,1,11441.3,1
0,856,target,"[(1028, 840)]",[],[1],[0.5166666666666666],vertical,"(390.0, 262.0)",0.5166666666666666,0.481,1,11447.293,1
0,857,catch,"[(1045, 828)]",[],[1],[],vertical,"(890.0, 762.0)",,"('cti', 1.546),nan",0,11452.092,0
0,858,target,"[(1048, 847)]",[],[1],[0.65],horizontal,"(390.0, 262.0)",1.1333333333333333,0.611,1,11456.595,1
0,859,target,"[(1038, 791)]",[],[1],[0.45],vertical,"(390.0, 262.0)",1.4166666666666667,0.414,1,11461.711,1
0,860,target,"[(1025, 806)]",[],[1],[0.6],horizontal,"(390.0, 262.0)",0.6166666666666667,0.559,1,11467.161,1
0,861,target,"[(1030, 806)]",[],[1],[],horizontal,"(390.0, 762.0)",,"('cti', 0.977)",0,11472.028,0
0,862,target,"[(1050, 818)]",[],[1],[0.3833333333333333],horizontal,"(890.0, 762.0)",1.4666666666666666,0.344,1,11476.43,1
0,863,target,"[(1043, 810)]",[],[1],[0.25],horizontal,"(390.0, 262.0)",1.3333333333333333,0.219,1,11481.429,1
0,864,catch,"[(1037, 813)]",[],[1],[],horizontal,"(390.0, 262.0)",1.25,nan,1,11486.177,1
0,865,target,"[(1028, 833)]",[],[1],[0.4666666666666667],vertical,"(890.0, 262.0)",1.2333333333333334,0.433,1,11490.829,2
0,866,target,"[(1045, 804)]",[],[1],[0.7333333333333333],vertical,"(390.0, 262.0)",0.6333333333333333,0.699,1,11496.758,1
0,867,target,"[(1043, 800)]",[],[1],[0.36666666666666664],horizontal,"(890.0, 762.0)",1.45,0.335,1,11501.009,1
0,868,target,"[(1043, 821)]",[],[1],[0.5333333333333333],horizontal,"(890.0, 762.0)",0.5,0.501,1,11506.072,1
0,869,catch,"[(1021, 820)]",[],[1],[],horizontal,"(890.0, 762.0)",1.5666666666666667,nan,1,11510.303,3
0,870,target,"[(1044, 813)]",[],[1],[0.16666666666666666],vertical,"(390.0, 262.0)",1.4666666666666666,0.133,1,11516.077,1
0,871,target,"[(1029, 807)]",[],[1],[],horizontal,"(890.0, 262.0)",,"('cti', 1.299)",0,11521.005,0
0,872,target,"[(1033, 822)]",[],[1],[0.4666666666666667],vertical,"(890.0, 262.0)",1.3,0.432,1,11525.905,1
0,873,target,"[(1044, 810)]",[],[1],[0.11666666666666667],horizontal,"(390.0, 262.0)",1.6,0.085,0,11532.061,0
0,874,target,"[(1048, 804)]",[],[1],[0.5333333333333333],horizontal,"(890.0, 762.0)",0.65,0.491,1,11536.445,1
0,875,target,"[(1058, 792)]",[],[1],[0.7333333333333333],vertical,"(390.0, 762.0)",0.5333333333333333,0.691,1,11540.923,1
0,876,target,"[(1044, 798)]",[],[1],[],horizontal,"(890.0, 762.0)",,"('cti', 1.465)",0,11545.426,0
0,877,target,"[(1033, 828)]",[],[1],[0.4666666666666667],horizontal,"(390.0, 262.0)",1.1166666666666667,0.431,1,11550.327,1
0,878,target,"[(1028, 813)]",[],[1],[0.3833333333333333],vertical,"(390.0, 262.0)",1.2,0.345,1,11555.16,1
0,879,target,"[(1060, 807)]",[],[1],[0.11666666666666667],horizontal,"(390.0, 762.0)",1.45,0.082,0,11560.525,0
0,880,catch,"[(1031, 810)]",[],[1],[],vertical,"(890.0, 262.0)",1.2833333333333332,nan,1,11565.074,1
0,881,target,"[(1046, 828)]",[],[1],[0.4166666666666667],horizontal,"(390.0, 762.0)",1.0666666666666667,0.376,1,11569.66,1
0,882,catch,"[(1042, 806)]",[],[1],[],horizontal,"(890.0, 262.0)",1.6,nan,1,11574.512,1
0,883,target,"[(1029, 828)]",[],[1],[0.43333333333333335],horizontal,"(890.0, 262.0)",1.3333333333333333,0.397,1,11579.418,2
0,884,target,"[(1039, 811)]",[],[1],[],horizontal,"(890.0, 262.0)",,"('cti', 1.548)",0,11585.144,0
0,885,target,"[(1040, 799)]",[],[1],[0.48333333333333334],horizontal,"(890.0, 762.0)",1.4166666666666667,0.447,1,11589.452,1
0,886,target,"[(1037, 807)]",[],[1],[0.6166666666666667],vertical,"(890.0, 262.0)",0.75,0.577,1,11594.612,1
0,887,target,"[(1040, 817)]",[],[1],[0.06666666666666667],vertical,"(390.0, 762.0)",1.4166666666666667,0.033,0,11598.848,0
0,888,target,"[(1040, 820)]",[],[1],[0.48333333333333334],vertical,"(390.0, 762.0)",1.4166666666666667,0.451,1,11603.745,1
0,889,target,"[(1054, 804)]",[],[1],[0.85],vertical,"(390.0, 762.0)",0.5333333333333333,nan,0,11608.553,0
0,890,target,"[(1028, 827)]",[],[1],[0.21666666666666667],horizontal,"(390.0, 762.0)",1.4333333333333333,0.183,1,11612.825,1
0,891,target,"[(1029, 818)]",[],[1],[0.55],horizontal,"(390.0, 762.0)",1.2166666666666666,0.513,1,11617.596,1
0,892,target,"[(1025, 825)]",[],[1],[0.4666666666666667],horizontal,"(890.0, 262.0)",0.9333333333333333,0.426,1,11622.829,1
0,893,target,"[(1033, 820)]",[],[1],[0.7833333333333333],horizontal,"(390.0, 262.0)",0.5166666666666666,0.741,1,11627.829,2
0,894,target,"[(1053, 816)]",[],[1],[0.08333333333333333],vertical,"(390.0, 762.0)",1.4833333333333334,0.051,0,11632.632,0
0,895,target,"[(1042, 823)]",[],[1],[0.5666666666666667],vertical,"(390.0, 262.0)",0.6,0.531,1,11637.443,1
0,896,target,"[(1029, 817)]",[],[1],[0.85],horizontal,"(390.0, 762.0)",0.8333333333333334,nan,0,11641.847,0
0,897,target,"[(1025, 818)]",[],[1],[0.3333333333333333],horizontal,"(890.0, 762.0)",1.25,0.301,1,11646.529,1
0,898,target,"[(1033, 797)]",[],[1],[0.55],vertical,"(890.0, 262.0)",0.55,0.509,1,11653.279,1
0,899,target,"[(1040, 812)]",[],[1],[0.5333333333333333],horizontal,"(890.0, 262.0)",1.2333333333333334,0.499,1,11657.684,1
0,900,target,"[(1042, 815)]",[],[1],[0.48333333333333334],horizontal,"(890.0, 762.0)",0.7333333333333333,0.452,1,11662.346,2
0,901,target,"[(1035, 829)]",[],[1],[],vertical,"(390.0, 262.0)",,"('cti', 1.496)",0,11667.293,0
0,902,target,"[(1033, 828)]",[],[1],[0.6],horizontal,"(890.0, 262.0)",1.25,0.555,1,11672.079,1
0,903,target,"[(1038, 828)]",[],[1],[0.48333333333333334],vertical,"(390.0, 262.0)",1.0166666666666666,0.452,1,11677.08,1
0,904,target,"[(1045, 845)]",[],[1],[0.31666666666666665],horizontal,"(390.0, 262.0)",1.4166666666666667,0.282,1,11681.779,1
0,905,target,"[(1052, 822)]",[],[1],[0.48333333333333334],horizontal,"(890.0, 762.0)",0.95,0.448,1,11686.828,2
0,906,target,"[(1052, 805)]",[],[1],[],horizontal,"(890.0, 762.0)",,"('cti', 1.634)",0,11691.786,0
0,907,target,"[(1030, 828)]",[],[1],[0.5333333333333333],horizontal,"(390.0, 262.0)",1.2166666666666666,0.493,1,11696.143,1
0,908,target,"[(1037, 814)]",[],[1],[0.5166666666666666],vertical,"(890.0, 262.0)",0.7833333333333333,0.479,1,11701.18,1
0,909,target,"[(1030, 833)]",[],[1],[0.5833333333333334],vertical,"(390.0, 762.0)",0.6666666666666666,0.544,1,11706.263,1
0,910,target,"[(1040, 813)]",[],[1],[0.43333333333333335],vertical,"(890.0, 262.0)",1.3833333333333333,0.4,1,11710.961,2
0,911,target,"[(1045, 799)]",[],[1],[0.21666666666666667],horizontal,"(390.0, 762.0)",1.3833333333333333,0.181,1,11716.614,1
0,912,target,"[(1038, 800)]",[],[1],[0.65],vertical,"(390.0, 262.0)",0.9,0.613,1,11721.194,1
0,913,target,"[(1045, 815)]",[],[1],[],horizontal,"(890.0, 262.0)",,"('cti', 1.568)",0,11726.064,0
0,914,catch,"[(1034, 829)]",[],[1],[],horizontal,"(890.0, 762.0)",1.5833333333333333,nan,1,11730.433,1
