block,trial,trial_type,taps_start_loc_during_fix,taps_end_loc_during_fix,taps_on_lever_during_fix,taps_on_lever_s_during_fix,bar_orientation,target_xy,cti,rt,acc,time,pulses
0,1,target,"[(1123, 817)]",[],[1],[0.4166666666666667],vertical,"(890.0, 262.0)",0.7666666666666666,0.391,1,0.532,1
0,2,target,"[(1041, 885)]",[],[1],[0.85],horizontal,"(890.0, 262.0)",1.4833333333333334,nan,0,14.204,0
0,3,target,"[(389, 701), (1018, 836)]",[],"[0, 1]",[0.55],vertical,"(890.0, 262.0)",0.8833333333333333,0.506,1,993.698,1
0,4,target,"[(1042, 854)]",[],[1],[],vertical,"(390.0, 762.0)",,"('cti', 1.417)",0,1002.974,0
0,5,target,"[(1068, 866)]",[],[1],[0.85],horizontal,"(890.0, 262.0)",0.9166666666666666,nan,0,1007.598,0
0,6,target,"[(1075, 847)]",[],[1],[0.7],vertical,"(390.0, 262.0)",1.05,0.653,1,1013.282,1
0,7,target,"[(1038, 859)]",[],[1],[0.65],vertical,"(890.0, 262.0)",1.05,0.605,1,1021.558,1
0,8,target,"[(1052, 838)]",[],[1],[0.36666666666666664],horizontal,"(390.0, 762.0)",1.3166666666666667,0.329,1,1026.798,1
0,9,target,"[(1057, 841)]",[],[1],[0.7666666666666666],vertical,"(390.0, 262.0)",1.4333333333333333,0.728,1,1031.52,2
0,10,target,"[(978, 563), (975, 569), (1092, 799)]",[],"[0, 0, 1]",[],vertical,"(390.0, 762.0)",,"('fix', 0.116)",0,1037.314,0
0,11,catch,"[(1025, 744), (656, 741), (770, 796), (1104, 806)]","[(1104, 806)]","[0, 0, 0, 1]",[0.7],horizontal,"(390.0, 762.0)",,"('bar', 0.712),nan",0,1042.916,0
0,12,target,"[(1025, 846)]",[],[1],[0.85],horizontal,"(890.0, 762.0)",1.1833333333333333,nan,0,1061.431,0
0,13,target,"[(467, 645), (353, 498), (1006, 837)]",[],"[0, 0, 1]",[0.5333333333333333],vertical,"(890.0, 262.0)",0.5333333333333333,0.489,1,1144.615,1
0,14,target,"[(1054, 836)]",[],[1],[0.85],horizontal,"(390.0, 262.0)",0.9166666666666666,nan,0,1151.314,0
0,15,target,"[(1033, 857)]",[],[1],[0.85],vertical,"(890.0, 262.0)",0.85,nan,0,1155.932,0
0,16,catch,"[(1032, 847)]",[],[1],[],horizontal,"(390.0, 262.0)",1.5833333333333333,nan,1,1160.381,1
0,17,target,"[(1018, 862)]",[],[1],[0.85],vertical,"(890.0, 262.0)",0.5666666666666667,nan,0,1165.766,0
0,18,target,"[(1029, 874)]",[],[1],[0.85],vertical,"(390.0, 762.0)",0.6833333333333333,nan,0,1172.017,0
0,19,target,"[(409, 606), (987, 828), (1012, 870)]",[],"[0, 0, 1]",[0.7833333333333333],vertical,"(390.0, 762.0)",1.25,0.737,1,1178.705,1
0,20,target,"[(1052, 846)]",[],[1],[0.6],vertical,"(390.0, 762.0)",0.85,0.557,1,1195.048,1
0,21,target,"[(1046, 838)]",[],[1],[0.8166666666666667],horizontal,"(890.0, 762.0)",0.95,0.768,1,1199.747,1
0,22,target,"[(1047, 811)]",[],[1],[0.35],vertical,"(890.0, 762.0)",1.6666666666666667,0.311,1,1205.098,2
0,23,target,"[(1044, 822)]",[],[1],[0.5166666666666666],horizontal,"(390.0, 762.0)",1.25,0.475,1,1210.749,1
0,24,target,"[(1053, 829)]",[],[1],[0.55],horizontal,"(390.0, 262.0)",1.4166666666666667,0.507,1,1215.616,1
0,25,target,"[(1043, 815)]",[],[1],[0.4666666666666667],vertical,"(390.0, 762.0)",1.25,0.427,1,1220.615,1
0,26,target,"[(1053, 827)]",[],[1],[0.3],vertical,"(390.0, 262.0)",1.4333333333333333,0.268,1,1225.866,3
0,27,target,"[(1052, 839)]",[],[1],[0.35],horizontal,"(890.0, 262.0)",1.4833333333333334,0.309,1,1231.649,1
0,28,target,"[(998, 828), (1031, 845)]",[],"[0, 1]",[0.85],horizontal,"(890.0, 262.0)",0.9833333333333333,nan,0,1236.199,0
0,29,target,"[(1016, 838)]",[],[1],[0.85],horizontal,"(890.0, 262.0)",0.55,nan,0,1245.01,0
0,30,target,"[(478, 545), (1013, 839)]",[],"[0, 1]",[0.85],vertical,"(390.0, 762.0)",1.3333333333333333,nan,0,1661.807,0
0,31,target,"[(474, 590), (985, 876), (1000, 854), (1025, 845)]",[],"[0, 0, 0, 1]",[0.8333333333333334],vertical,"(890.0, 262.0)",0.5333333333333333,0.79,1,1672.222,1
0,32,target,"[(1033, 842)]",[],[1],[0.85],vertical,"(390.0, 762.0)",0.55,nan,0,1693.668,0
0,33,target,"[(1007, 855)]",[],[1],[0.85],horizontal,"(390.0, 762.0)",0.9333333333333333,nan,0,1697.868,0
0,34,target,"[(1030, 822)]",[],[1],[0.48333333333333334],horizontal,"(390.0, 262.0)",1.3166666666666667,0.448,1,1702.536,1
0,35,target,"[(1053, 827)]",[],[1],[0.65],vertical,"(390.0, 762.0)",0.55,0.61,1,1707.614,1
0,36,target,"[(1029, 844)]",[],[1],[0.85],horizontal,"(390.0, 262.0)",1.1,nan,0,1712.133,0
0,37,target,"[(1017, 852)]",[],[1],[0.85],vertical,"(390.0, 262.0)",0.9666666666666667,nan,0,1718.088,0
0,38,target,"[(1037, 830)]",[],[1],[0.7333333333333333],vertical,"(390.0, 762.0)",1.1166666666666667,0.691,1,1723.301,1
0,39,target,"[(1056, 834)]",[],[1],[0.5833333333333334],vertical,"(390.0, 762.0)",0.9333333333333333,0.548,1,1728.392,1
0,40,target,"[(1069, 830)]",[],[1],[0.3833333333333333],horizontal,"(890.0, 262.0)",1.5166666666666666,0.344,1,1733.41,1
0,41,target,"[(1066, 814)]",[],[1],[0.5666666666666667],horizontal,"(890.0, 762.0)",1.55,0.529,1,1738.891,2
0,42,target,"[(1049, 829)]",[],[1],[0.8333333333333334],vertical,"(890.0, 762.0)",0.9166666666666666,0.792,1,1744.334,1
0,43,target,"[(1057, 822)]",[],[1],[0.7333333333333333],horizontal,"(390.0, 762.0)",0.7333333333333333,0.692,1,1749.408,1
0,44,target,"[(1033, 820)]",[],[1],[0.5666666666666667],vertical,"(390.0, 262.0)",0.7333333333333333,0.524,1,1754.442,1
0,45,target,"[(1055, 807)]",[],[1],[0.6],vertical,"(390.0, 762.0)",0.7666666666666666,0.56,1,1758.968,3
0,46,target,"[(1030, 839)]",[],[1],[0.6166666666666667],horizontal,"(390.0, 762.0)",0.7666666666666666,0.575,1,1764.402,1
0,47,target,"[(1032, 847)]",[],[1],[0.6],horizontal,"(890.0, 262.0)",0.8166666666666667,0.566,1,1769.074,1
0,48,target,"[(1058, 808)]",[],[1],[0.6166666666666667],vertical,"(390.0, 762.0)",0.6666666666666666,0.575,1,1773.856,1
0,49,target,"[(1038, 827)]",[],[1],[0.5833333333333334],vertical,"(390.0, 762.0)",1.0666666666666667,0.542,1,1778.133,2
0,50,target,"[(1029, 834)]",[],[1],[0.5],vertical,"(890.0, 762.0)",1.3666666666666667,0.458,1,1783.207,1
0,51,target,"[(1056, 824)]",[],[1],[0.35],vertical,"(890.0, 262.0)",1.4333333333333333,0.312,1,1788.206,1
0,52,target,"[(1053, 845)]",[],[1],[0.6],vertical,"(390.0, 262.0)",0.6333333333333333,0.566,1,1792.99,1
0,53,target,"[(1038, 825)]",[],[1],[0.21666666666666667],horizontal,"(390.0, 762.0)",1.6166666666666667,0.185,1,1797.44,3
0,54,target,"[(1042, 841)]",[],[1],[0.6333333333333333],vertical,"(890.0, 262.0)",0.7166666666666667,0.593,1,1803.22,1
0,55,target,"[(1034, 831)]",[],[1],[0.7666666666666666],vertical,"(890.0, 262.0)",0.5,0.722,1,1808.241,1
0,56,target,"[(1031, 815)]",[],[1],[0.7166666666666667],horizontal,"(390.0, 262.0)",0.7666666666666666,0.675,1,1813.392,1
0,57,target,"[(1029, 808)]",[],[1],[0.6833333333333333],horizontal,"(890.0, 262.0)",0.65,0.64,1,1818.18,2
0,58,target,"[(1038, 827)]",[],[1],[0.65],horizontal,"(390.0, 762.0)",1.2666666666666666,0.599,1,1823.143,1
0,59,target,"[(1034, 833)]",[],[1],[0.6166666666666667],horizontal,"(890.0, 262.0)",1.3666666666666667,0.575,1,1827.937,1
0,60,target,"[(1031, 821)]",[],[1],[0.85],horizontal,"(390.0, 262.0)",1.0833333333333333,nan,0,1833.043,0
0,61,target,"[(1029, 833)]",[],[1],[0.6833333333333333],vertical,"(390.0, 262.0)",0.7166666666666667,0.638,1,1837.81,1
0,62,target,"[(1059, 814)]",[],[1],[0.36666666666666664],horizontal,"(890.0, 762.0)",1.6833333333333333,0.33,1,1842.285,1
0,63,target,"[(1037, 823)]",[],[1],[0.6],vertical,"(890.0, 762.0)",0.7166666666666667,0.559,1,1847.386,1
0,64,target,"[(1057, 818)]",[],[1],[0.6333333333333333],horizontal,"(390.0, 262.0)",0.7833333333333333,0.591,1,1851.911,2
0,65,target,"[(1056, 827)]",[],[1],[0.18333333333333332],horizontal,"(890.0, 762.0)",1.5833333333333333,0.15,1,1856.57,1
0,66,target,"[(1052, 834)]",[],[1],[0.35],vertical,"(390.0, 262.0)",1.2666666666666666,0.312,1,1861.515,1
0,67,target,"[(1061, 820)]",[],[1],[0.5666666666666667],horizontal,"(390.0, 262.0)",0.9333333333333333,0.524,1,1866.669,1
0,68,target,"[(1046, 834)]",[],[1],[0.7166666666666667],vertical,"(890.0, 762.0)",0.8666666666666667,0.67,1,1871.753,3
0,69,target,"[(1032, 838)]",[],[1],[0.5833333333333334],vertical,"(390.0, 262.0)",1.25,0.548,1,1877.17,1
0,70,target,"[(1057, 827)]",[],[1],[],vertical,"(890.0, 762.0)",,"('cti', 1.565)",0,1882.381,0
0,71,target,"[(1034, 828)]",[],[1],[0.45],vertical,"(890.0, 262.0)",1.0833333333333333,0.414,1,1887.002,1
0,72,target,"[(1051, 812)]",[],[1],[0.6],horizontal,"(890.0, 762.0)",1.0833333333333333,0.555,1,1892.088,1
0,73,target,"[(1039, 817)]",[],[1],[0.3],horizontal,"(390.0, 762.0)",1.4833333333333334,0.268,1,1897.402,1
0,74,catch,"[(1031, 828)]",[],[1],[],horizontal,"(890.0, 262.0)",1.6,nan,1,1902.659,2
0,75,target,"[(1022, 844)]",[],[1],[0.4666666666666667],vertical,"(890.0, 262.0)",1.6333333333333333,0.422,1,1908.634,1
0,76,catch,"[(1042, 821)]",[],[1],[],horizontal,"(890.0, 762.0)",1.2166666666666666,nan,1,1913.933,1
0,77,target,"[(1045, 828)]",[],[1],[0.65],vertical,"(890.0, 762.0)",0.6,0.612,1,1918.998,1
0,78,target,"[(1028, 829)]",[],[1],[],horizontal,"(390.0, 262.0)",,"('cti', 1.198)",0,1923.71,0
0,79,target,"[(1033, 811)]",[],[1],[0.4666666666666667],horizontal,"(890.0, 762.0)",1.4,0.426,1,1928.243,1
0,80,target,"[(1057, 825)]",[],[1],[0.85],horizontal,"(890.0, 762.0)",1.6,"('cti', 1.601),nan",0,1933.519,0
0,81,target,"[(617, 856), (595, 831), (1025, 869)]",[],"[0, 0, 1]",[0.85],vertical,"(390.0, 762.0)",1.3333333333333333,nan,0,1939.231,0
0,82,target,"[(1033, 860)]",[],[1],[0.85],horizontal,"(390.0, 262.0)",1.05,nan,0,2077.812,0
0,83,target,"[(1036, 836)]",[],[1],[0.25],vertical,"(390.0, 262.0)",1.5333333333333332,0.217,1,2082.833,1
0,84,target,"[(1049, 838)]",[],[1],[0.05],horizontal,"(890.0, 762.0)",1.6666666666666667,0.019,0,2087.82,0
0,85,target,"[(1042, 843)]",[],[1],[0.5666666666666667],vertical,"(390.0, 762.0)",1.0333333333333332,0.524,1,2092.29,1
0,86,target,"[(1049, 828)]",[],[1],[0.7166666666666667],vertical,"(890.0, 762.0)",0.9,0.68,1,2097.653,1
0,87,target,"[(1038, 838)]",[],[1],[0.6666666666666666],horizontal,"(890.0, 762.0)",1.25,0.632,1,2102.63,1
0,88,target,"[(1037, 846)]",[],[1],[0.5666666666666667],horizontal,"(890.0, 262.0)",1.0,0.536,1,2108.092,2
0,89,target,"[(1046, 819)]",[],[1],[0.65],horizontal,"(390.0, 762.0)",0.7666666666666666,0.602,1,2113.871,1
0,90,catch,"[(1033, 814)]",[],[1],[],vertical,"(890.0, 262.0)",1.35,nan,1,2118.704,1
0,91,target,"[(1030, 831)]",[],[1],[0.5],horizontal,"(890.0, 262.0)",1.2833333333333332,0.461,1,2123.606,1
0,92,target,"[(1024, 843)]",[],[1],[0.85],horizontal,"(390.0, 762.0)",0.7333333333333333,nan,0,2128.964,0
0,93,target,"[(1029, 822)]",[],[1],[0.6333333333333333],horizontal,"(390.0, 762.0)",1.2166666666666666,0.589,1,2134.297,1
0,94,catch,"[(1061, 829)]",[],[1],[],vertical,"(890.0, 262.0)",1.4,nan,1,2139.236,1
0,95,target,"[(1041, 828)]",[],[1],[0.6666666666666666],horizontal,"(890.0, 762.0)",0.6333333333333333,0.624,1,2143.748,1
0,96,target,"[(1072, 836)]",[],[1],[0.55],vertical,"(890.0, 762.0)",1.35,0.512,1,2148.334,2
0,97,target,"[(1033, 854)]",[],[1],[0.5833333333333334],vertical,"(390.0, 262.0)",0.95,0.541,1,2154.16,1
0,98,target,"[(1051, 837)]",[],[1],[0.23333333333333334],vertical,"(390.0, 762.0)",1.35,0.202,1,2159.172,1
0,99,target,"[(1057, 838)]",[],[1],[0.6],vertical,"(890.0, 262.0)",1.0666666666666667,0.556,1,2163.722,1
0,100,target,"[(1032, 844)]",[],[1],[0.4],horizontal,"(890.0, 762.0)",1.1833333333333333,0.357,1,2168.522,3
0,101,target,"[(1025, 826)]",[],[1],[0.3],horizontal,"(390.0, 762.0)",1.3833333333333333,0.268,1,2174.371,1
0,102,target,"[(1043, 834)]",[],[1],[0.21666666666666667],vertical,"(390.0, 762.0)",1.6,0.18,1,2179.355,1
0,103,target,"[(1016, 842)]",[],[1],[0.26666666666666666],vertical,"(390.0, 262.0)",1.5666666666666667,0.228,1,2184.791,1
0,104,target,"[(1056, 833)]",[],[1],[0.6],horizontal,"(390.0, 762.0)",0.7166666666666667,0.572,1,2189.771,2
0,105,catch,"[(1053, 836)]",[],[1],[],horizontal,"(890.0, 262.0)",1.6166666666666667,nan,1,2194.525,1
0,106,target,"[(1031, 857)]",[],[1],[0.36666666666666664],vertical,"(390.0, 762.0)",1.55,0.33,1,2199.173,1
0,107,target,"[(1035, 847)]",[],[1],[0.5166666666666666],horizontal,"(390.0, 762.0)",0.5833333333333334,0.479,1,2204.536,1
0,108,catch,"[(1056, 836)]",[],[1],[],vertical,"(890.0, 762.0)",1.4166666666666667,nan,1,2209.288,3
0,109,target,"[(1053, 807)]",[],[1],[0.55],horizontal,"(390.0, 262.0)",1.2,0.515,1,2214.971,1
0,110,target,"[(1005, 850)]",[],[1],[0.5833333333333334],horizontal,"(890.0, 262.0)",1.3,0.54,1,2219.606,1
0,111,catch,"[(1017, 837)]",[],[1],[],horizontal,"(890.0, 262.0)",1.4,nan,1,2475.216,1
0,112,target,"[(1032, 851)]",[],[1],[0.18333333333333332],horizontal,"(890.0, 262.0)",1.35,0.15,1,2480.141,2
0,113,target,"[(1047, 846)]",[],[1],[0.85],horizontal,"(390.0, 762.0)",0.8333333333333334,nan,0,2485.165,0
0,114,target,"[(1056, 834)]",[],[1],[0.85],horizontal,"(390.0, 762.0)",0.6333333333333333,nan,0,2489.954,0
0,115,catch,"[(1030, 837)]",[],[1],[],horizontal,"(390.0, 762.0)",1.55,nan,1,2494.374,1
0,116,target,"[(1055, 836)]",[],[1],[0.6],horizontal,"(890.0, 262.0)",1.15,0.558,1,2499.271,1
0,117,target,"[(1059, 833)]",[],[1],[0.6166666666666667],horizontal,"(390.0, 262.0)",0.5,0.579,1,2504.283,1
0,118,target,"[(1059, 824)]",[],[1],[0.06666666666666667],horizontal,"(390.0, 762.0)",1.6666666666666667,0.034,0,2509.007,0
0,119,target,"[(1043, 823)]",[],[1],[0.6333333333333333],horizontal,"(390.0, 762.0)",1.3166666666666667,0.594,1,2513.761,1
0,120,target,"[(1061, 813)]",[],[1],[0.65],vertical,"(390.0, 262.0)",0.6833333333333333,0.608,1,2518.927,1
0,121,target,"[(1010, 857)]",[],[1],[0.8],horizontal,"(890.0, 762.0)",0.6333333333333333,0.752,1,2523.614,1
0,122,target,"[(1038, 824)]",[],[1],[0.5833333333333334],horizontal,"(890.0, 762.0)",0.9333333333333333,0.54,1,2550.631,2
0,123,target,"[(1055, 810)]",[],[1],[0.25],vertical,"(890.0, 262.0)",1.0833333333333333,0.218,1,2555.89,1
0,124,target,"[(1053, 834)]",[],[1],[0.7666666666666666],horizontal,"(390.0, 762.0)",0.7333333333333333,0.722,1,2560.806,1
0,125,target,"[(1038, 846)]",[],[1],[0.7666666666666666],vertical,"(890.0, 262.0)",1.0666666666666667,0.716,1,2565.718,1
0,126,target,"[(1053, 843)]",[],[1],[0.5166666666666666],vertical,"(890.0, 762.0)",1.2666666666666666,0.474,1,2570.522,3
0,127,target,"[(1026, 860)]",[],[1],[0.21666666666666667],horizontal,"(390.0, 762.0)",1.5,0.186,1,2576.422,1
0,128,target,"[(1031, 859)]",[],[1],[0.65],vertical,"(390.0, 262.0)",1.3166666666666667,0.606,1,2582.047,1
0,129,target,"[(1046, 839)]",[],[1],[],vertical,"(890.0, 262.0)",,"('cti', 1.531)",0,2586.991,0
0,130,target,"[(1017, 841)]",[],[1],[0.3],vertical,"(890.0, 762.0)",1.6333333333333333,0.267,1,2591.861,1
0,131,catch,"[(1060, 839)]",[],[1],[],horizontal,"(390.0, 262.0)",1.0833333333333333,nan,1,2597.307,1
0,132,target,"[(1028, 876)]",[],[1],[0.85],horizontal,"(390.0, 262.0)",1.3333333333333333,nan,0,2602.351,0
0,133,target,"[(1026, 851)]",[],[1],[0.23333333333333334],vertical,"(390.0, 262.0)",1.5333333333333332,0.203,1,2617.37,1
0,134,target,"[(1035, 826)]",[],[1],[0.55],horizontal,"(890.0, 262.0)",1.1333333333333333,0.509,1,2622.681,1
0,135,target,"[(1036, 836)]",[],[1],[0.5],vertical,"(890.0, 762.0)",1.6333333333333333,0.463,1,2627.369,1
0,136,target,"[(1054, 819)]",[],[1],[0.65],vertical,"(390.0, 262.0)",1.0666666666666667,0.604,1,2632.731,2
0,137,target,"[(1054, 838)]",[],[1],[0.5833333333333334],horizontal,"(890.0, 262.0)",0.8,0.534,1,2638.024,1
0,138,target,"[(1026, 841)]",[],[1],[0.5333333333333333],horizontal,"(890.0, 262.0)",0.85,0.488,1,2642.902,1
0,139,target,"[(1040, 825)]",[],[1],[0.6333333333333333],vertical,"(390.0, 262.0)",0.6333333333333333,0.587,1,2648.367,1
0,140,target,"[(1064, 833)]",[],[1],[0.48333333333333334],horizontal,"(390.0, 262.0)",1.2833333333333332,0.449,1,2652.868,3
0,141,target,"[(1055, 825)]",[],[1],[0.65],horizontal,"(390.0, 262.0)",0.7166666666666667,0.606,1,2658.674,1
0,142,target,"[(1033, 820)]",[],[1],[0.05],horizontal,"(390.0, 762.0)",1.55,0.019,0,2663.291,0
0,143,catch,"[(1037, 842)]",[],[1],[],vertical,"(390.0, 762.0)",1.4333333333333333,nan,1,2668.003,1
0,144,target,"[(1046, 820)]","[(1047, 829)]",[1],[0.3333333333333333],vertical,"(390.0, 262.0)",,"('bar', 0.355)",0,2672.471,0
0,145,target,"[(1026, 844)]",[],[1],[0.6166666666666667],horizontal,"(890.0, 762.0)",0.95,0.571,1,2674.64,1
0,146,target,"[(1052, 832)]",[],[1],[0.7333333333333333],vertical,"(390.0, 762.0)",0.9166666666666666,0.693,1,2680.892,1
0,147,catch,"[(1069, 826)]",[],[1],[],vertical,"(390.0, 262.0)",1.0666666666666667,nan,1,2685.763,1
0,148,target,"[(1052, 852)]",[],[1],[0.5833333333333334],horizontal,"(890.0, 262.0)",0.5333333333333333,0.54,1,2690.09,2
0,149,catch,"[(1053, 841)]",[],[1],[],vertical,"(390.0, 262.0)",1.1333333333333333,nan,1,2695.207,1
0,150,target,"[(1052, 827)]",[],[1],[0.1],horizontal,"(390.0, 762.0)",1.3666666666666667,0.067,0,2699.633,0
0,151,target,"[(1006, 844)]",[],[1],[0.6],vertical,"(890.0, 762.0)",1.2666666666666666,0.559,1,2704.457,1
0,152,target,"[(1051, 833)]",[],[1],[0.85],vertical,"(890.0, 262.0)",1.0833333333333333,nan,0,2716.169,0
0,153,catch,"[(1033, 829)]",[],[1],[],horizontal,"(890.0, 262.0)",1.3333333333333333,nan,1,2721.074,1
0,154,target,"[(1035, 840)]",[],[1],[0.85],horizontal,"(390.0, 262.0)",0.6,nan,0,2725.761,0
0,155,target,"[(1045, 816)]",[],[1],[0.85],vertical,"(390.0, 762.0)",1.3666666666666667,nan,0,2730.503,0
0,156,target,"[(1044, 829)]",[],[1],[0.85],vertical,"(890.0, 262.0)",1.5,nan,0,2735.708,0
0,157,target,"[(1043, 842)]",[],[1],[0.85],vertical,"(890.0, 262.0)",1.65,nan,0,2741.141,0
0,158,target,"[(1041, 833)]",[],[1],[0.85],horizontal,"(890.0, 762.0)",1.3,nan,0,2746.358,0
0,159,target,"[(1040, 820)]",[],[1],[0.85],horizontal,"(390.0, 262.0)",0.6833333333333333,nan,0,2751.275,0
0,160,target,"[(1036, 834)]",[],[1],[0.85],horizontal,"(890.0, 262.0)",0.65,nan,0,2755.999,0
0,161,target,"[(1033, 852)]",[],[1],[0.55],horizontal,"(890.0, 262.0)",1.2,0.516,1,2760.574,1
0,162,target,"[(1040, 828)]",[],[1],[0.4],horizontal,"(390.0, 262.0)",1.4,0.361,1,2765.757,1
0,163,target,"[(1050, 829)]",[],[1],[0.85],vertical,"(890.0, 762.0)",1.55,nan,0,2771.172,0
0,164,target,"[(1024, 850)]",[],[1],[0.65],horizontal,"(390.0, 262.0)",0.8166666666666667,0.61,1,2776.791,1
0,165,target,"[(1054, 811)]",[],[1],[],horizontal,"(890.0, 762.0)",,"('cti', 1.42)",0,2784.009,0
0,166,target,"[(1029, 826)]",[],[1],[0.5333333333333333],horizontal,"(890.0, 762.0)",1.1833333333333333,0.498,1,2788.638,1
0,167,target,"[(1057, 807)]",[],[1],[0.7],horizontal,"(890.0, 262.0)",0.8666666666666667,0.646,1,2794.142,1
0,168,target,"[(1054, 826)]",[],[1],[0.5666666666666667],horizontal,"(890.0, 262.0)",0.5833333333333334,0.527,1,2799.29,1
0,169,target,"[(1032, 841)]",[],[1],[0.5333333333333333],horizontal,"(390.0, 262.0)",0.8333333333333334,0.492,1,2804.23,2
0,170,target,"[(1042, 849)]",[],[1],[0.85],horizontal,"(390.0, 762.0)",0.8,nan,0,2809.225,0
0,171,target,"[(1029, 813)]",[],[1],[0.5833333333333334],vertical,"(890.0, 762.0)",0.8333333333333334,0.546,1,2813.788,1
0,172,target,"[(1052, 818)]",[],[1],[0.5833333333333334],horizontal,"(390.0, 762.0)",0.6666666666666666,0.54,1,2818.411,1
0,173,target,"[(1055, 816)]",[],[1],[0.2],vertical,"(390.0, 262.0)",1.3666666666666667,0.168,1,2822.766,1
0,174,target,"[(1055, 803)]",[],[1],[0.5666666666666667],vertical,"(390.0, 762.0)",0.95,0.52,1,2827.687,2
0,175,target,"[(1035, 826)]",[],[1],[0.65],vertical,"(890.0, 762.0)",1.0833333333333333,0.609,1,2832.515,1
0,176,target,"[(1053, 822)]",[],[1],[0.5666666666666667],horizontal,"(390.0, 762.0)",1.35,0.525,1,2837.211,1
0,177,catch,"[(1029, 821)]",[],[1],[],horizontal,"(890.0, 262.0)",1.05,nan,1,2842.342,1
0,178,target,"[(1055, 809)]",[],[1],[0.25],horizontal,"(390.0, 762.0)",1.3166666666666667,0.217,1,2846.735,3
0,179,target,"[(1055, 816)]",[],[1],[0.5666666666666667],vertical,"(890.0, 762.0)",0.6833333333333333,0.525,1,2852.663,1
0,180,target,"[(1028, 829)]",[],[1],[],horizontal,"(890.0, 262.0)",,"('cti', 0.536)",0,2857.537,0
0,181,target,"[(1025, 842)]",[],[1],[0.4166666666666667],vertical,"(890.0, 262.0)",1.1666666666666667,0.376,1,2861.142,1
0,182,target,"[(1049, 818)]",[],[1],[0.5333333333333333],horizontal,"(390.0, 262.0)",0.85,0.494,1,2866.403,1
0,183,target,"[(1056, 808)]",[],[1],[0.55],horizontal,"(890.0, 262.0)",0.9333333333333333,0.517,1,2870.891,1
0,184,target,"[(1057, 826)]",[],[1],[0.5833333333333334],horizontal,"(890.0, 762.0)",0.9666666666666667,0.539,1,2875.281,2
0,185,target,"[(1052, 813)]",[],[1],[0.43333333333333335],horizontal,"(890.0, 762.0)",1.4166666666666667,0.397,1,2880.809,1
0,186,target,"[(1071, 805)]",[],[1],[0.25],vertical,"(390.0, 762.0)",1.5833333333333333,0.215,1,2886.525,1
0,187,target,"[(1058, 828)]",[],[1],[0.6],horizontal,"(890.0, 762.0)",0.6666666666666666,0.559,1,2891.425,1
0,188,target,"[(1058, 820)]",[],[1],[0.5833333333333334],horizontal,"(890.0, 262.0)",1.0,0.541,1,2896.035,3
0,189,target,"[(1057, 809)]",[],[1],[0.5833333333333334],vertical,"(390.0, 762.0)",1.2,0.547,1,2901.926,1
0,190,target,"[(1057, 816)]",[],[1],[0.21666666666666667],horizontal,"(390.0, 262.0)",1.4166666666666667,0.185,1,2906.69,1
0,191,target,"[(1033, 830)]",[],[1],[0.13333333333333333],vertical,"(890.0, 262.0)",1.4166666666666667,0.1,1,2911.483,1
0,192,target,"[(1054, 816)]",[],[1],[0.5166666666666666],vertical,"(890.0, 262.0)",0.55,0.476,1,2916.275,2
0,193,target,"[(1057, 820)]",[],[1],[0.7833333333333333],horizontal,"(890.0, 762.0)",0.7166666666666667,0.739,1,2921.291,1
0,194,target,"[(1072, 814)]",[],[1],[0.6166666666666667],vertical,"(890.0, 762.0)",0.5,0.577,1,2926.0,1
0,195,catch,"[(1054, 833)]",[],[1],[],vertical,"(890.0, 762.0)",1.1666666666666667,nan,1,2930.483,1
0,196,target,"[(1048, 810)]",[],[1],[],vertical,"(390.0, 762.0)",,"('cti', 1.256)",0,2935.038,0
0,197,catch,"[(1037, 834)]",[],[1],[],horizontal,"(890.0, 262.0)",,"('cti', 1.444),nan",0,2939.392,0
0,198,target,"[(1047, 825)]",[],[1],[0.5833333333333334],horizontal,"(890.0, 262.0)",0.8333333333333334,0.542,1,2943.874,1
0,199,target,"[(1053, 789)]",[],[1],[0.36666666666666664],horizontal,"(890.0, 762.0)",1.3833333333333333,0.328,1,2948.337,1
0,200,target,"[(1033, 812)]",[],[1],[0.85],horizontal,"(390.0, 762.0)",0.5333333333333333,nan,0,2953.567,0
0,201,target,"[(1032, 824)]",[],[1],[0.3],vertical,"(390.0, 262.0)",1.3833333333333333,0.269,1,2957.675,1
0,202,target,"[(1100, 810)]",[],[1],[0.5],vertical,"(890.0, 262.0)",1.2,0.461,1,2962.991,1
0,203,target,"[(1055, 825)]",[],[1],[0.5166666666666666],vertical,"(390.0, 262.0)",1.0666666666666667,0.472,1,2967.676,1
0,204,target,"[(1052, 797)]",[],[1],[0.7],vertical,"(890.0, 262.0)",0.7666666666666666,0.653,1,2972.74,2
0,205,target,"[(1045, 798)]",[],[1],[0.13333333333333333],vertical,"(890.0, 762.0)",1.55,0.099,0,2977.797,0
0,206,target,"[(1029, 825)]",[],[1],[0.5],horizontal,"(890.0, 762.0)",1.2833333333333332,0.458,1,2982.167,1
0,207,target,"[(1051, 806)]",[],[1],[0.55],vertical,"(890.0, 262.0)",0.85,0.507,1,2988.092,1
0,208,target,"[(1052, 824)]",[],[1],[0.8166666666666667],horizontal,"(390.0, 262.0)",0.7333333333333333,0.774,1,2992.697,1
0,209,target,"[(1053, 822)]",[],[1],[0.7],horizontal,"(390.0, 762.0)",0.85,0.659,1,2997.308,2
0,210,target,"[(1057, 816)]",[],[1],[],horizontal,"(390.0, 762.0)",,"('cti', 1.593)",0,3002.62,0
0,211,target,"[(1045, 817)]",[],[1],[0.45],vertical,"(890.0, 262.0)",1.4666666666666666,0.41,1,3007.471,1
0,212,target,"[(1046, 798)]",[],[1],[0.55],horizontal,"(890.0, 262.0)",1.0166666666666666,0.511,1,3012.825,1
0,213,target,"[(1057, 805)]",[],[1],[0.1],horizontal,"(890.0, 262.0)",1.4,0.068,0,3017.21,0
0,214,catch,"[(1047, 825)]",[],[1],[],vertical,"(890.0, 262.0)",1.4333333333333333,nan,1,3021.843,1
0,215,catch,"[(998, 835), (1029, 846)]",[],"[0, 1]",[],vertical,"(390.0, 262.0)",,"('cti', 1.186),nan",0,3026.343,0
0,216,target,"[(1049, 822)]",[],[1],[0.6333333333333333],horizontal,"(890.0, 762.0)",0.7,0.587,1,3032.855,1
0,217,target,"[(1055, 818)]",[],[1],[0.8333333333333334],vertical,"(390.0, 762.0)",0.6166666666666667,0.784,1,3037.686,1
0,218,catch,"[(1043, 824)]",[],[1],[],vertical,"(890.0, 262.0)",,"('cti', 1.532),nan",0,3042.509,0
0,219,target,"[(1034, 824)]",[],[1],[0.6],vertical,"(890.0, 762.0)",1.15,0.555,1,3047.426,1
0,220,target,"[(1041, 812)]",[],[1],[0.13333333333333333],horizontal,"(890.0, 762.0)",1.6166666666666667,0.102,1,3052.071,1
0,221,target,"[(1048, 802)]",[],[1],[0.48333333333333334],vertical,"(390.0, 762.0)",1.2166666666666666,0.444,1,3057.077,1
0,222,target,"[(1022, 845)]",[],[1],[0.1],horizontal,"(890.0, 762.0)",1.6666666666666667,0.069,0,3062.009,0
0,223,catch,"[(1042, 829)]",[],[1],[],vertical,"(890.0, 262.0)",1.6166666666666667,nan,1,3067.589,1
0,224,catch,"[(1036, 820)]",[],[1],[],horizontal,"(390.0, 762.0)",1.45,nan,1,3072.909,1
0,225,target,"[(1043, 829)]",[],[1],[],vertical,"(390.0, 762.0)",,"('cti', 1.313)",0,3077.808,0
0,226,target,"[(1043, 841)]",[],[1],[0.8166666666666667],horizontal,"(890.0, 762.0)",0.5,0.767,1,3082.409,1
0,227,target,"[(1040, 816)]",[],[1],[0.2],horizontal,"(390.0, 762.0)",1.6166666666666667,0.165,1,3086.943,1
0,228,target,"[(1059, 809)]",[],[1],[0.36666666666666664],vertical,"(390.0, 762.0)",1.3833333333333333,0.328,1,3092.215,1
0,229,target,"[(1049, 836)]",[],[1],[0.4],vertical,"(390.0, 262.0)",1.4166666666666667,0.363,1,3097.313,2
0,230,target,"[(1046, 824)]",[],[1],[0.7333333333333333],vertical,"(890.0, 762.0)",0.9833333333333333,0.702,1,3103.71,1
0,231,target,"[(1001, 856), (1022, 844)]",[],"[0, 1]",[0.5666666666666667],vertical,"(390.0, 262.0)",0.6833333333333333,0.523,1,3109.137,1
0,232,target,"[(1069, 836)]",[],[1],[0.6833333333333333],vertical,"(390.0, 762.0)",1.2333333333333334,0.641,1,3117.192,1
0,233,target,"[(1056, 825)]",[],[1],[0.55],horizontal,"(890.0, 762.0)",0.9833333333333333,0.505,1,3122.842,3
0,234,target,"[(1053, 803)]",[],[1],[0.21666666666666667],horizontal,"(390.0, 762.0)",1.4666666666666666,0.182,1,3128.655,1
0,235,target,"[(1065, 797)]",[],[1],[0.3833333333333333],vertical,"(890.0, 762.0)",1.4166666666666667,0.343,1,3133.903,1
0,236,target,"[(1043, 806)]",[],[1],[0.6],vertical,"(890.0, 762.0)",0.8166666666666667,0.565,1,3138.892,1
0,237,target,"[(1060, 812)]",[],[1],[0.5166666666666666],horizontal,"(890.0, 762.0)",0.9333333333333333,0.479,1,3143.866,2
0,238,target,"[(1026, 838)]",[],[1],[0.6],vertical,"(890.0, 262.0)",1.3166666666666667,0.562,1,3148.841,1
0,239,target,"[(1041, 812)]",[],[1],[0.5166666666666666],horizontal,"(890.0, 262.0)",1.2666666666666666,0.479,1,3153.921,1
0,240,target,"[(1055, 800)]",[],[1],[0.55],vertical,"(890.0, 262.0)",1.05,0.511,1,3158.66,1
0,241,target,"[(1054, 787)]",[],[1],[0.35],horizontal,"(390.0, 262.0)",1.25,0.311,1,3163.191,3
0,242,target,"[(1046, 816)]",[],[1],[0.08333333333333333],vertical,"(890.0, 762.0)",1.5833333333333333,0.051,0,3168.826,0
0,243,target,"[(1054, 817)]",[],[1],[0.65],horizontal,"(390.0, 262.0)",0.5833333333333334,0.611,1,3173.311,1
0,244,catch,"[(1042, 789)]",[],[1],[],horizontal,"(890.0, 762.0)",1.3833333333333333,nan,1,3178.028,1
0,245,target,"[(1055, 808)]",[],[1],[0.6833333333333333],vertical,"(390.0, 762.0)",0.9666666666666667,0.643,1,3182.66,1
0,246,catch,"[(1055, 805)]",[],[1],[],horizontal,"(390.0, 762.0)",1.4833333333333334,nan,1,3187.276,2
0,247,target,"[(1065, 824)]",[],[1],[],horizontal,"(390.0, 762.0)",,"('cti', 1.625)",0,3192.193,0
0,248,target,"[(1053, 817)]",[],[1],[0.6],horizontal,"(390.0, 262.0)",0.6833333333333333,0.567,1,3197.143,1
0,249,target,"[(1061, 797)]",[],[1],[0.4166666666666667],vertical,"(390.0, 262.0)",1.4833333333333334,0.373,1,3201.443,1
0,250,target,"[(1040, 806)]",[],[1],[0.6],horizontal,"(390.0, 262.0)",0.7833333333333333,0.557,1,3206.526,1
0,251,target,"[(1057, 806)]",[],[1],[0.48333333333333334],horizontal,"(890.0, 762.0)",1.15,0.451,1,3211.297,2
0,252,target,"[(1055, 806)]",[],[1],[0.7833333333333333],vertical,"(890.0, 762.0)",1.05,0.739,1,3216.96,1
0,253,catch,"[(1052, 810)]",[],[1],[],vertical,"(390.0, 262.0)",1.6666666666666667,nan,1,3222.125,1
0,254,target,"[(1061, 815)]",[],[1],[0.6],horizontal,"(390.0, 762.0)",1.1,0.563,1,3227.36,1
0,255,target,"[(1065, 799)]",[],[1],[0.85],horizontal,"(390.0, 762.0)",0.6,nan,0,3232.51,0
0,256,target,"[(1039, 805)]",[],[1],[0.4166666666666667],horizontal,"(390.0, 762.0)",1.5333333333333332,0.377,1,3236.627,1
0,257,target,"[(1055, 810)]",[],[1],[0.21666666666666667],vertical,"(890.0, 762.0)",1.35,0.182,1,3242.426,1
0,258,catch,"[(1053, 812)]",[],[1],[],horizontal,"(890.0, 262.0)",1.5166666666666666,nan,1,3247.64,1
0,259,target,"[(1057, 794)]",[],[1],[0.5833333333333334],vertical,"(390.0, 762.0)",1.1166666666666667,0.544,1,3252.544,2
0,260,target,"[(1039, 797)]",[],[1],[0.55],vertical,"(890.0, 262.0)",0.5166666666666666,0.516,1,3258.127,1
0,261,catch,"[(1041, 810)]",[],[1],[],vertical,"(390.0, 262.0)",1.0333333333333332,nan,1,3262.163,1
0,262,target,"[(1055, 812)]",[],[1],[0.5166666666666666],horizontal,"(890.0, 262.0)",0.55,0.475,1,3266.493,1
0,263,target,"[(1055, 802)]",[],[1],[0.6166666666666667],vertical,"(390.0, 262.0)",1.0166666666666666,0.573,1,3270.782,3
0,264,target,"[(1049, 818)]",[],[1],[0.55],vertical,"(390.0, 262.0)",0.7333333333333333,0.513,1,3276.212,1
0,265,target,"[(1056, 810)]",[],[1],[],horizontal,"(890.0, 262.0)",,"('cti', 1.234)",0,3281.093,0
0,266,target,"[(1053, 835)]",[],[1],[0.7333333333333333],vertical,"(390.0, 262.0)",1.0166666666666666,0.698,1,3285.21,1
0,267,target,"[(1057, 818)]",[],[1],[0.43333333333333335],vertical,"(890.0, 762.0)",1.5333333333333332,0.392,1,3290.142,1
0,268,target,"[(1037, 806)]",[],[1],"[0.85, 0.85]",vertical,"(390.0, 762.0)",0.9,"0.796,nan",0,3295.259,0
0,269,target,"[(1045, 832)]",[],[1],[0.5333333333333333],vertical,"(390.0, 762.0)",1.0666666666666667,0.495,1,3300.095,1
0,270,target,"[(999, 805), (998, 881), (353, 683), (936, 877), (938, 915), (1040, 856)]",[],"[0, 0, 0, 0, 0, 1]",[],vertical,"(390.0, 762.0)",,"('fix', 0.264)",0,3305.085,0
0,271,catch,"[(1037, 839)]",[],[1],[],vertical,"(390.0, 762.0)",1.5333333333333332,nan,1,3341.305,1
0,272,target,"[(1049, 832)]",[],[1],[],vertical,"(390.0, 762.0)",,"('cti', 1.239)",0,3348.622,0
0,273,target,"[(1033, 842)]",[],[1],[0.25],horizontal,"(390.0, 262.0)",1.0666666666666667,0.213,1,3353.527,1
0,274,catch,"[(1033, 833)]",[],[1],[],vertical,"(890.0, 262.0)",1.6,nan,1,3358.483,1
0,275,catch,"[(1042, 826)]","[(1039, 838)]",[1],[0.2833333333333333],vertical,"(390.0, 262.0)",,"('bar', 0.3),nan",0,3363.345,0
0,276,target,"[(1025, 847)]",[],[1],[0.5666666666666667],horizontal,"(890.0, 762.0)",1.0333333333333332,0.527,1,3365.88,1
0,277,target,"[(1058, 810)]",[],[1],[0.6166666666666667],horizontal,"(390.0, 262.0)",1.0833333333333333,0.572,1,3370.852,1
0,278,target,"[(1056, 821)]",[],[1],[0.65],vertical,"(390.0, 762.0)",1.6333333333333333,0.605,1,3375.829,1
0,279,target,"[(1036, 815)]",[],[1],[0.55],horizontal,"(890.0, 262.0)",1.0,0.513,1,3380.952,2
0,280,target,"[(1038, 811)]",[],[1],[0.85],vertical,"(390.0, 262.0)",1.65,nan,0,3386.335,0
0,281,target,"[(1006, 838)]",[],[1],[0.85],vertical,"(390.0, 262.0)",0.75,nan,0,3391.532,0
0,282,target,"[(1028, 829)]",[],[1],[0.45],vertical,"(890.0, 762.0)",1.65,0.417,1,3396.218,1
0,283,target,"[(1033, 796)]",[],[1],[0.55],horizontal,"(390.0, 762.0)",1.65,0.52,1,3401.681,1
0,284,catch,"[(1049, 823)]",[],[1],[],vertical,"(390.0, 262.0)",1.3833333333333333,nan,1,3406.794,1
0,285,target,"[(1061, 815)]",[],[1],[0.5166666666666666],vertical,"(890.0, 762.0)",1.0833333333333333,0.473,1,3411.512,2
0,286,target,"[(1043, 819)]",[],[1],[0.6666666666666666],horizontal,"(890.0, 762.0)",0.95,0.623,1,3416.562,1
0,287,target,"[(1054, 822)]",[],[1],[0.7],vertical,"(890.0, 262.0)",0.7833333333333333,0.656,1,3421.259,1
0,288,target,"[(1026, 825)]",[],[1],[0.3833333333333333],horizontal,"(390.0, 762.0)",1.55,0.348,1,3426.047,1
0,289,catch,"[(1037, 808)]",[],[1],[],vertical,"(890.0, 262.0)",1.4833333333333334,nan,1,3431.611,3
0,290,target,"[(1046, 811)]",[],[1],[0.8166666666666667],horizontal,"(390.0, 762.0)",0.8833333333333333,0.772,1,3436.995,1
0,291,target,"[(1058, 799)]",[],[1],[0.26666666666666666],vertical,"(390.0, 262.0)",1.5166666666666666,0.231,1,3441.962,1
0,292,target,"[(1062, 807)]",[],[1],[0.6666666666666666],horizontal,"(390.0, 762.0)",0.7,0.629,1,3447.043,1
0,293,target,"[(1057, 807)]",[],[1],[0.18333333333333332],vertical,"(390.0, 262.0)",1.4166666666666667,0.151,1,3451.544,2
0,294,target,"[(1056, 805)]",[],[1],[0.85],vertical,"(390.0, 762.0)",1.45,"('cti', 1.446),nan",0,3457.147,0
0,295,target,"[(1033, 837)]",[],[1],[0.6],horizontal,"(390.0, 762.0)",1.25,0.555,1,3461.928,1
0,296,target,"[(1028, 825)]",[],[1],[0.48333333333333334],vertical,"(390.0, 762.0)",1.2333333333333334,0.444,1,3467.001,1
0,297,target,"[(1040, 812)]",[],[1],[0.18333333333333332],vertical,"(390.0, 762.0)",1.2666666666666666,0.149,1,3472.346,1
0,298,target,"[(1057, 802)]",[],[1],[],horizontal,"(890.0, 262.0)",,"('cti', 1.596)",0,3477.278,0
0,299,target,"[(1026, 830)]",[],[1],[0.5166666666666666],vertical,"(890.0, 762.0)",1.4,0.479,1,3481.837,1
0,300,target,"[(1047, 811)]",[],[1],[0.2833333333333333],horizontal,"(390.0, 762.0)",1.6666666666666667,0.252,1,3486.935,1
0,301,target,"[(1055, 811)]",[],[1],[0.6],vertical,"(390.0, 262.0)",1.4666666666666666,0.557,1,3492.206,1
0,302,target,"[(1035, 812)]",[],[1],[0.5],horizontal,"(890.0, 262.0)",0.9833333333333333,0.461,1,3497.498,2
0,303,target,"[(1033, 816)]",[],[1],[0.5666666666666667],horizontal,"(390.0, 262.0)",0.7666666666666666,0.524,1,3503.029,1
0,304,target,"[(1053, 808)]",[],[1],[0.7],horizontal,"(890.0, 762.0)",0.85,0.657,1,3507.267,1
0,305,target,"[(1054, 816)]",[],[1],[],vertical,"(890.0, 262.0)",,"('cti', 1.158)",0,3512.352,0
0,306,target,"[(1007, 839)]",[],[1],[0.18333333333333332],vertical,"(390.0, 762.0)",1.6166666666666667,0.147,1,3516.913,1
0,307,target,"[(1045, 820)]",[],[1],[0.75],horizontal,"(890.0, 762.0)",0.85,0.703,1,3523.115,1
0,308,target,"[(1036, 808)]",[],[1],[0.3333333333333333],horizontal,"(890.0, 262.0)",1.4166666666666667,0.296,1,3527.774,1
0,309,catch,"[(1048, 830)]",[],[1],[],horizontal,"(890.0, 762.0)",1.3833333333333333,nan,1,3532.863,2
0,310,catch,"[(1032, 803)]",[],[1],[],horizontal,"(890.0, 762.0)",1.35,nan,1,3537.642,1
0,311,target,"[(1041, 859)]",[],[1],[0.85],vertical,"(890.0, 262.0)",0.8833333333333333,nan,0,3542.546,0
0,312,target,"[(1017, 860)]",[],[1],[0.85],horizontal,"(390.0, 762.0)",0.9333333333333333,nan,0,3547.746,0
0,313,target,"[(1043, 843)]",[],[1],[0.85],vertical,"(890.0, 262.0)",1.65,nan,0,3561.379,0
0,314,target,"[(1036, 810)]",[],[1],[0.5333333333333333],horizontal,"(390.0, 262.0)",1.2,0.491,1,3566.96,1
0,315,target,"[(1045, 815)]",[],[1],[0.2833333333333333],horizontal,"(890.0, 762.0)",1.2166666666666666,0.253,1,3571.606,1
0,316,target,"[(1059, 808)]",[],[1],[0.16666666666666666],horizontal,"(890.0, 262.0)",1.5833333333333333,0.131,1,3576.779,1
0,317,target,"[(1061, 832)]",[],[1],[0.23333333333333334],horizontal,"(890.0, 762.0)",1.1333333333333333,0.199,1,3581.746,2
0,318,target,"[(1038, 810)]",[],[1],[0.85],horizontal,"(390.0, 762.0)",1.5,nan,0,3586.53,0
0,319,target,"[(1055, 830)]",[],[1],[0.5],vertical,"(890.0, 262.0)",1.1666666666666667,0.463,1,3591.614,1
0,320,target,"[(1058, 812)]",[],[1],[0.65],vertical,"(390.0, 762.0)",0.9666666666666667,0.604,1,3596.84,1
0,321,target,"[(1053, 803)]",[],[1],[0.6666666666666666],horizontal,"(890.0, 762.0)",0.6166666666666667,0.623,1,3601.929,1
0,322,target,"[(1057, 808)]",[],[1],[0.48333333333333334],horizontal,"(890.0, 762.0)",1.3,0.442,1,3606.573,2
0,323,catch,"[(1009, 861)]",[],[1],[],horizontal,"(890.0, 762.0)",1.1833333333333333,nan,1,3612.354,1
0,324,target,"[(1006, 875)]",[],[1],[0.55],vertical,"(890.0, 262.0)",1.25,0.512,1,3668.968,1
0,325,target,"[(1047, 827)]",[],[1],[0.85],vertical,"(890.0, 262.0)",0.9,nan,0,3674.537,0
0,326,target,"[(1051, 852)]",[],[1],[0.85],vertical,"(390.0, 762.0)",1.4166666666666667,nan,0,3679.508,0
0,327,target,"[(1010, 853)]",[],[1],[0.85],vertical,"(890.0, 762.0)",0.8,nan,0,3684.678,0
0,328,target,"[(1042, 831)]",[],[1],[0.85],vertical,"(390.0, 262.0)",1.6833333333333333,nan,0,3689.952,0
0,329,target,"[(1052, 800)]",[],[1],[0.13333333333333333],horizontal,"(390.0, 262.0)",1.65,0.104,1,3695.398,1
0,330,target,"[(1051, 815)]",[],[1],[0.55],horizontal,"(390.0, 762.0)",1.3333333333333333,0.515,1,3700.563,1
0,331,target,"[(1057, 795)]",[],[1],[0.8333333333333334],vertical,"(890.0, 762.0)",0.5,0.789,1,3705.679,1
0,332,target,"[(1062, 812)]",[],[1],[0.55],horizontal,"(890.0, 762.0)",0.7,0.511,1,3710.038,2
0,333,target,"[(1055, 812)]",[],[1],[0.48333333333333334],horizontal,"(890.0, 262.0)",1.25,0.448,1,3714.536,1
0,334,target,"[(1070, 800)]",[],[1],[0.85],vertical,"(390.0, 262.0)",1.0166666666666666,nan,0,3719.563,0
0,335,target,"[(1042, 823)]",[],[1],[0.7666666666666666],vertical,"(390.0, 262.0)",0.5,0.717,1,3724.632,1
0,336,catch,"[(1043, 818)]",[],[1],[],horizontal,"(390.0, 762.0)",1.0166666666666666,nan,1,3729.2,1
0,337,target,"[(1069, 811)]",[],[1],[0.5833333333333334],vertical,"(390.0, 762.0)",0.5,0.54,1,3733.237,1
0,338,target,"[(1062, 807)]",[],[1],[0.5666666666666667],horizontal,"(390.0, 262.0)",0.8833333333333333,0.528,1,3737.191,2
0,339,target,"[(1073, 803)]",[],[1],[0.5166666666666666],vertical,"(890.0, 762.0)",0.9833333333333333,0.475,1,3742.321,1
0,340,target,"[(1058, 815)]",[],[1],[0.5],vertical,"(890.0, 762.0)",1.0833333333333333,0.464,1,3747.105,1
0,341,target,"[(1046, 811)]",[],[1],[0.5666666666666667],vertical,"(890.0, 762.0)",0.8166666666666667,0.524,1,3752.124,1
0,342,target,"[(1054, 824)]",[],[1],[0.5166666666666666],vertical,"(890.0, 262.0)",0.9166666666666666,0.481,1,3756.71,3
0,343,catch,"[(1054, 820)]",[],[1],[],horizontal,"(390.0, 762.0)",1.5166666666666666,nan,1,3762.163,1
0,344,target,"[(1056, 833)]",[],[1],[0.5166666666666666],horizontal,"(890.0, 762.0)",0.55,0.476,1,3767.214,1
0,345,catch,"[(1053, 803)]",[],[1],[],horizontal,"(890.0, 762.0)",1.1833333333333333,nan,1,3771.802,1
0,346,catch,"[(1061, 770)]",[],[1],[],vertical,"(390.0, 262.0)",1.0833333333333333,nan,1,3776.738,2
0,347,target,"[(1049, 835)]",[],[1],[],horizontal,"(890.0, 262.0)",,"('cti', 0.507)",0,3781.364,0
0,348,target,"[(1033, 858)]",[],[1],[0.55],vertical,"(390.0, 762.0)",0.7666666666666666,0.512,1,3785.014,1
0,349,target,"[(1068, 797)]",[],[1],[0.6],vertical,"(390.0, 262.0)",0.6666666666666666,0.559,1,3792.569,1
0,350,target,"[(1069, 813)]",[],[1],[0.2833333333333333],vertical,"(890.0, 762.0)",1.3333333333333333,0.25,1,3797.259,1
0,351,target,"[(1038, 821)]",[],[1],[0.6],horizontal,"(390.0, 762.0)",0.65,0.555,1,3802.124,2
0,352,catch,"[(1033, 827)]",[],[1],[],horizontal,"(390.0, 262.0)",1.35,nan,1,3807.48,1
0,353,target,"[(1053, 808)]",[],[1],[0.5666666666666667],vertical,"(890.0, 762.0)",1.05,0.527,1,3812.245,1
0,354,target,"[(1057, 808)]",[],[1],[],vertical,"(890.0, 762.0)",,"('cti', 1.504)",0,3817.234,0
0,355,target,"[(1040, 828)]",[],[1],[0.43333333333333335],vertical,"(890.0, 262.0)",1.3166666666666667,0.392,1,3821.98,1
0,356,target,"[(1055, 807)]",[],[1],[0.5666666666666667],vertical,"(890.0, 262.0)",1.1,0.526,1,3826.931,1
0,357,target,"[(1071, 798)]",[],[1],[0.5666666666666667],vertical,"(890.0, 262.0)",0.6833333333333333,0.522,1,3832.098,1
0,358,catch,"[(1054, 794)]",[],[1],[],vertical,"(390.0, 262.0)",1.2833333333333332,nan,1,3836.777,2
0,359,catch,"[(1070, 810)]",[],[1],[],vertical,"(890.0, 762.0)",1.65,nan,1,3841.647,1
0,360,target,"[(1054, 807)]",[],[1],[0.5666666666666667],horizontal,"(390.0, 262.0)",0.5,0.526,1,3846.679,1
0,361,target,"[(1057, 842)]",[],[1],[0.3333333333333333],horizontal,"(390.0, 262.0)",1.5833333333333333,0.295,1,3850.965,1
0,362,target,"[(1073, 788)]",[],[1],[0.5166666666666666],vertical,"(890.0, 262.0)",1.5666666666666667,0.479,1,3856.138,3
0,363,target,"[(1031, 842)]",[],[1],[0.65],horizontal,"(890.0, 762.0)",1.0333333333333332,0.61,1,3861.788,1
0,364,target,"[(1053, 812)]",[],[1],[0.55],horizontal,"(390.0, 262.0)",1.0,0.508,1,3867.266,1
0,365,target,"[(1033, 801)]",[],[1],[0.5],horizontal,"(890.0, 762.0)",0.8833333333333333,0.458,1,3871.898,1
0,366,target,"[(1064, 812)]",[],[1],[0.6833333333333333],horizontal,"(390.0, 762.0)",0.7,0.639,1,3876.482,2
0,367,catch,"[(1054, 800)]",[],[1],[],horizontal,"(890.0, 262.0)",1.4666666666666666,nan,1,3881.315,1
0,368,target,"[(1041, 803)]",[],[1],[0.5],horizontal,"(390.0, 262.0)",1.3666666666666667,0.456,1,3886.031,1
0,369,target,"[(1056, 808)]",[],[1],[0.13333333333333333],horizontal,"(890.0, 762.0)",1.6166666666666667,0.102,1,3890.968,1
0,370,target,"[(1016, 847)]",[],[1],[0.36666666666666664],vertical,"(390.0, 762.0)",1.2,0.338,1,3896.448,3
0,371,target,"[(1055, 811)]",[],[1],[0.5333333333333333],horizontal,"(390.0, 262.0)",0.7166666666666667,0.492,1,3922.447,1
0,372,target,"[(1085, 817)]",[],[1],[0.43333333333333335],vertical,"(390.0, 762.0)",1.2,0.395,1,3926.932,1
0,373,target,"[(1056, 796)]",[],[1],[0.25],horizontal,"(390.0, 262.0)",1.2166666666666666,0.217,1,3931.77,1
0,374,target,"[(1041, 819)]",[],[1],[0.35],vertical,"(390.0, 262.0)",0.8333333333333334,0.313,1,3936.614,2
0,375,target,"[(1057, 815)]",[],[1],[0.5333333333333333],vertical,"(890.0, 262.0)",0.7333333333333333,0.487,1,3941.432,1
0,376,target,"[(1031, 836)]",[],[1],[0.85],vertical,"(390.0, 262.0)",0.8333333333333334,nan,0,3945.747,0
0,377,target,"[(1031, 862)]",[],[1],[0.3],horizontal,"(390.0, 262.0)",1.6666666666666667,0.264,1,3952.522,1
0,378,target,"[(1053, 808)]",[],[1],[0.5666666666666667],horizontal,"(890.0, 762.0)",0.6333333333333333,0.53,1,3958.015,1
0,379,target,"[(1069, 800)]",[],[1],[0.55],vertical,"(390.0, 262.0)",0.8833333333333333,0.512,1,3962.464,1
0,380,target,"[(1050, 820)]",[],[1],[0.5666666666666667],vertical,"(390.0, 762.0)",0.65,0.527,1,3967.192,2
0,381,target,"[(1047, 810)]",[],[1],[0.6166666666666667],horizontal,"(390.0, 762.0)",0.6666666666666666,0.574,1,3973.135,1
0,382,target,"[(1056, 797)]",[],[1],[0.26666666666666666],vertical,"(390.0, 262.0)",1.2666666666666666,0.237,1,3977.566,1
0,383,target,"[(1054, 809)]",[],[1],[],vertical,"(390.0, 762.0)",,"('cti', 1.504)",0,3982.632,0
0,384,target,"[(1055, 820)]",[],[1],[0.3],vertical,"(390.0, 262.0)",1.4333333333333333,0.266,1,3987.173,1
0,385,target,"[(1058, 783)]",[],[1],[0.65],vertical,"(390.0, 762.0)",0.7666666666666666,0.609,1,3992.046,1
0,386,target,"[(1053, 807)]",[],[1],[0.5333333333333333],horizontal,"(890.0, 762.0)",0.6666666666666666,0.489,1,3996.84,1
0,387,catch,"[(1060, 830)]",[],[1],[],horizontal,"(390.0, 262.0)",,"('cti', 1.541),nan",0,4001.767,0
0,388,target,"[(1010, 834)]",[],[1],[0.55],vertical,"(890.0, 762.0)",0.55,0.513,1,4006.238,1
0,389,target,"[(1056, 815)]",[],[1],[0.18333333333333332],horizontal,"(890.0, 762.0)",1.5,0.151,1,4023.198,1
0,390,target,"[(1061, 815)]",[],[1],[0.6166666666666667],vertical,"(390.0, 762.0)",0.9833333333333333,0.573,1,4027.856,1
0,391,target,"[(1031, 820)]",[],[1],[0.11666666666666667],horizontal,"(890.0, 762.0)",1.5166666666666666,0.086,0,4032.481,0
0,392,target,"[(1042, 820)]",[],[1],[],horizontal,"(890.0, 262.0)",,"('cti', 1.301)",0,4037.098,0
0,393,target,"[(1061, 826)]",[],[1],[0.85],horizontal,"(390.0, 262.0)",1.1833333333333333,nan,0,4041.731,0
0,394,catch,"[(1042, 823)]",[],[1],[],vertical,"(890.0, 762.0)",1.4166666666666667,nan,1,4046.266,1
0,395,target,"[(1041, 825)]",[],[1],[0.5666666666666667],horizontal,"(390.0, 262.0)",0.5166666666666666,0.522,1,4051.376,1
0,396,target,"[(1050, 818)]",[],[1],[0.5166666666666666],vertical,"(890.0, 262.0)",0.8166666666666667,0.472,1,4055.748,1
0,397,target,"[(1057, 806)]",[],[1],[0.6833333333333333],horizontal,"(890.0, 262.0)",0.7666666666666666,0.642,1,4060.297,2
0,398,target,"[(1045, 822)]",[],[1],[0.15],horizontal,"(890.0, 262.0)",1.3666666666666667,0.116,1,4065.348,1
0,399,target,"[(1050, 838)]",[],[1],[0.85],horizontal,"(390.0, 262.0)",1.0333333333333332,nan,0,4070.18,0
0,400,target,"[(1049, 833)]",[],[1],[0.5333333333333333],vertical,"(890.0, 262.0)",1.05,0.492,1,4075.432,1
0,401,target,"[(1052, 821)]",[],[1],[0.18333333333333332],horizontal,"(890.0, 262.0)",1.5333333333333332,0.147,1,4080.741,1
0,402,target,"[(269, 759), (1028, 885)]",[],"[0, 1]",[0.7666666666666666],vertical,"(890.0, 262.0)",1.65,0.722,1,4085.848,1
0,403,target,"[(1037, 847)]",[],[1],[0.85],vertical,"(390.0, 262.0)",0.7166666666666667,nan,0,4473.269,0
0,404,catch,"[(1016, 876)]",[],[1],[],horizontal,"(890.0, 762.0)",1.2833333333333332,nan,1,4477.711,1
0,405,target,"[(1015, 830)]",[],[1],[0.5166666666666666],vertical,"(890.0, 762.0)",1.2166666666666666,0.485,1,4485.826,1
0,406,target,"[(1056, 795)]",[],[1],[],vertical,"(890.0, 262.0)",,"('cti', 1.565)",0,4491.589,0
0,407,target,"[(1043, 807)]",[],[1],[0.6166666666666667],vertical,"(390.0, 762.0)",0.5166666666666666,0.583,1,4496.182,1
0,408,target,"[(1063, 806)]",[],[1],[0.5166666666666666],horizontal,"(390.0, 762.0)",1.35,0.471,1,4500.682,1
0,409,target,"[(1033, 800)]",[],[1],[0.85],horizontal,"(390.0, 762.0)",1.15,"('cti', 1.14),nan",0,4505.83,0
0,410,catch,"[(1029, 819)]",[],[1],[],horizontal,"(890.0, 262.0)",1.0666666666666667,nan,1,4510.335,1
0,411,target,"[(1029, 826)]",[],[1],[0.65],horizontal,"(890.0, 762.0)",1.2,0.609,1,4514.905,1
0,412,target,"[(1055, 825)]",[],[1],[0.75],vertical,"(390.0, 762.0)",0.6166666666666667,0.709,1,4520.028,1
0,413,target,"[(1058, 813)]",[],[1],[0.7],vertical,"(390.0, 262.0)",0.65,0.654,1,4524.674,2
0,414,target,"[(1053, 810)]",[],[1],[],vertical,"(390.0, 262.0)",,"('cti', 1.566)",0,4529.947,0
0,415,target,"[(1057, 820)]",[],[1],[0.65],vertical,"(890.0, 262.0)",1.55,0.607,1,4535.004,1
0,416,target,"[(1054, 825)]",[],[1],[0.85],vertical,"(390.0, 762.0)",0.9,nan,0,4540.035,0
0,417,target,"[(1033, 815)]",[],[1],[0.5333333333333333],vertical,"(890.0, 262.0)",1.15,0.493,1,4546.185,1
0,418,target,"[(1070, 791)]",[],[1],[0.45],vertical,"(890.0, 262.0)",0.8166666666666667,0.408,1,4551.001,1
0,419,target,"[(1055, 824)]",[],[1],[0.35],horizontal,"(890.0, 762.0)",1.45,0.312,1,4555.634,1
0,420,target,"[(1021, 811)]",[],[1],[0.8166666666666667],horizontal,"(390.0, 262.0)",0.75,0.772,1,4561.001,2
0,421,target,"[(1057, 788)]",[],[1],[0.55],horizontal,"(890.0, 262.0)",0.6333333333333333,0.51,1,4566.134,1
0,422,target,"[(1057, 820)]",[],[1],[0.55],vertical,"(890.0, 762.0)",1.0166666666666666,0.513,1,4570.718,1
0,423,target,"[(1048, 832)]",[],[1],[0.06666666666666667],vertical,"(890.0, 762.0)",1.4166666666666667,0.036,0,4575.434,0
0,424,target,"[(1032, 832)]",[],[1],[0.65],horizontal,"(890.0, 762.0)",0.6666666666666666,0.607,1,4580.034,1
0,425,target,"[(1060, 824)]",[],[1],[0.5666666666666667],vertical,"(890.0, 762.0)",1.0,0.524,1,4584.812,1
0,426,target,"[(1064, 796)]",[],[1],[0.5333333333333333],horizontal,"(890.0, 762.0)",1.1333333333333333,0.505,1,4589.901,1
0,427,target,"[(1067, 830)]",[],[1],[0.45],vertical,"(890.0, 262.0)",0.8333333333333334,0.408,1,4594.702,2
0,428,target,"[(1036, 785)]",[],[1],[0.6166666666666667],vertical,"(890.0, 762.0)",0.6833333333333333,0.576,1,4599.928,1
0,429,target,"[(1055, 807)]",[],[1],[0.5833333333333334],vertical,"(890.0, 262.0)",0.6833333333333333,0.537,1,4604.534,1
0,430,target,"[(1059, 809)]",[],[1],[0.5166666666666666],vertical,"(390.0, 762.0)",1.2,0.471,1,4608.704,1
0,431,target,"[(1068, 821)]",[],[1],[0.6],horizontal,"(890.0, 762.0)",0.5,0.556,1,4613.62,3
0,432,target,"[(1057, 804)]",[],[1],[0.55],horizontal,"(390.0, 262.0)",1.0,0.51,1,4618.934,1
0,433,target,"[(1057, 807)]",[],[1],[0.2833333333333333],horizontal,"(390.0, 262.0)",1.0333333333333332,0.252,1,4623.603,1
0,434,target,"[(1057, 819)]",[],[1],[0.6166666666666667],vertical,"(890.0, 762.0)",0.8833333333333333,0.573,1,4627.801,1
0,435,target,"[(1033, 807)]",[],[1],[0.55],vertical,"(890.0, 762.0)",0.6,0.518,1,4632.602,2
0,436,catch,"[(1052, 818)]",[],[1],[],vertical,"(890.0, 762.0)",1.2,nan,1,4637.358,1
0,437,target,"[(1056, 797)]",[],[1],[0.48333333333333334],horizontal,"(390.0, 762.0)",1.1333333333333333,0.443,1,4642.024,1
0,438,target,"[(1033, 800)]",[],[1],[0.5166666666666666],vertical,"(890.0, 262.0)",0.7833333333333333,0.481,1,4646.951,1
0,439,target,"[(1065, 807)]",[],[1],[0.3333333333333333],vertical,"(890.0, 262.0)",1.2166666666666666,0.3,1,4651.817,3
0,440,target,"[(1060, 808)]",[],[1],[0.6166666666666667],horizontal,"(390.0, 262.0)",1.5833333333333333,0.572,1,4657.594,1
0,441,target,"[(1049, 791)]",[],[1],[0.18333333333333332],horizontal,"(390.0, 262.0)",1.3833333333333333,0.149,1,4662.732,1
0,442,target,"[(1068, 813)]",[],[1],[0.05],horizontal,"(890.0, 262.0)",1.5333333333333332,0.02,0,4667.628,0
0,443,catch,"[(1029, 833)]",[],[1],[],horizontal,"(890.0, 762.0)",1.1,nan,1,4672.286,1
0,444,target,"[(1060, 808)]",[],[1],[0.55],horizontal,"(890.0, 762.0)",1.1,0.511,1,4677.186,1
0,445,target,"[(1060, 796)]",[],[1],[],horizontal,"(890.0, 762.0)",,"('cti', 1.417)",0,4682.202,0
0,446,target,"[(1068, 809)]",[],[1],[0.35],horizontal,"(890.0, 762.0)",1.4166666666666667,0.312,1,4686.836,1
0,447,target,"[(1038, 806)]",[],[1],[0.6166666666666667],horizontal,"(390.0, 262.0)",0.9333333333333333,0.574,1,4691.995,1
0,448,target,"[(1059, 812)]",[],[1],[],horizontal,"(390.0, 262.0)",,"('cti', 1.542)",0,4696.876,0
0,449,target,"[(1028, 816)]",[],[1],[0.6166666666666667],vertical,"(890.0, 762.0)",0.55,0.577,1,4701.29,1
0,450,target,"[(1037, 803)]",[],[1],[0.7166666666666667],vertical,"(390.0, 762.0)",0.9333333333333333,0.675,1,4705.311,1
0,451,target,"[(1028, 816)]",[],[1],[0.2833333333333333],vertical,"(890.0, 262.0)",1.4333333333333333,0.253,1,4710.502,1
0,452,target,"[(1061, 802)]",[],[1],[0.3],vertical,"(890.0, 262.0)",1.0666666666666667,0.265,1,4715.127,2
0,453,target,"[(1064, 805)]",[],[1],[0.31666666666666665],horizontal,"(890.0, 762.0)",1.3666666666666667,0.279,1,4720.386,1
0,454,target,"[(1055, 787)]",[],[1],[0.7333333333333333],vertical,"(390.0, 762.0)",1.0833333333333333,0.684,1,4724.736,1
0,455,target,"[(1058, 802)]",[],[1],[0.1],vertical,"(890.0, 262.0)",1.3333333333333333,0.07,0,4729.86,0
0,456,target,"[(1019, 822)]",[],[1],[0.85],vertical,"(890.0, 762.0)",1.1,nan,0,4734.478,0
0,457,target,"[(1027, 813)]",[],[1],[0.6166666666666667],vertical,"(890.0, 262.0)",0.9333333333333333,0.577,1,4739.551,1
0,458,target,"[(1045, 837)]",[],[1],[0.16666666666666666],horizontal,"(390.0, 762.0)",1.6166666666666667,0.135,1,4744.166,1
0,459,catch,"[(1046, 798)]",[],[1],[],vertical,"(390.0, 762.0)",1.5833333333333333,nan,1,4750.13,1
0,460,target,"[(1054, 821)]",[],[1],[0.85],horizontal,"(390.0, 762.0)",1.45,nan,0,4755.136,0
0,461,target,"[(1034, 820)]",[],[1],[0.7166666666666667],horizontal,"(390.0, 262.0)",1.05,0.672,1,4760.439,1
0,462,target,"[(1062, 806)]",[],[1],[0.48333333333333334],horizontal,"(390.0, 762.0)",1.3,0.446,1,4764.99,1
0,463,target,"[(1059, 807)]",[],[1],[0.5833333333333334],vertical,"(890.0, 262.0)",0.6666666666666666,0.55,1,4769.949,1
0,464,target,"[(1058, 817)]",[],[1],[0.2833333333333333],vertical,"(390.0, 262.0)",1.35,0.249,1,4774.801,2
0,465,target,"[(1024, 806)]",[],[1],[0.85],horizontal,"(390.0, 762.0)",0.75,nan,0,4780.235,0
0,466,target,"[(1051, 822)]",[],[1],[0.7666666666666666],vertical,"(390.0, 762.0)",1.1166666666666667,0.725,1,4784.775,1
0,467,target,"[(1058, 807)]",[],[1],[0.65],horizontal,"(390.0, 762.0)",0.9833333333333333,0.605,1,4789.851,1
0,468,target,"[(1068, 787)]",[],[1],[0.6833333333333333],vertical,"(390.0, 762.0)",0.8,0.649,1,4794.605,1
0,469,target,"[(1045, 813)]",[],[1],[0.75],horizontal,"(390.0, 262.0)",0.8833333333333333,0.708,1,4798.92,2
0,470,target,"[(1055, 812)]",[],[1],[0.8],horizontal,"(390.0, 762.0)",0.8,0.755,1,4804.319,1
0,471,catch,"[(1059, 796)]",[],[1],[],horizontal,"(890.0, 262.0)",1.2166666666666666,nan,1,4808.952,1
0,472,target,"[(1033, 817)]",[],[1],[0.6166666666666667],vertical,"(390.0, 262.0)",0.8833333333333333,0.575,1,4813.548,1
0,473,target,"[(1058, 806)]",[],[1],[0.21666666666666667],vertical,"(390.0, 762.0)",1.5166666666666666,0.186,1,4818.629,3
0,474,target,"[(1054, 813)]",[],[1],[0.6],horizontal,"(390.0, 262.0)",0.95,0.555,1,4824.622,1
0,475,target,"[(1034, 803)]",[],[1],[0.11666666666666667],horizontal,"(890.0, 262.0)",1.5333333333333332,0.087,0,4829.482,0
0,476,target,"[(1026, 810)]",[],[1],[0.6333333333333333],vertical,"(390.0, 262.0)",0.8166666666666667,0.593,1,4834.169,1
0,477,target,"[(1035, 801)]",[],[1],[0.5166666666666666],vertical,"(890.0, 262.0)",0.8666666666666667,0.472,1,4839.147,1
0,478,target,"[(1055, 807)]",[],[1],[0.3333333333333333],vertical,"(390.0, 762.0)",1.6,0.295,1,4844.069,1
0,479,target,"[(1063, 788)]",[],[1],[0.85],vertical,"(390.0, 262.0)",0.8166666666666667,nan,0,4848.953,0
0,480,target,"[(1026, 816)]",[],[1],[0.85],vertical,"(890.0, 762.0)",0.55,nan,0,4853.754,0
0,481,target,"[(1014, 828)]",[],[1],[0.85],horizontal,"(390.0, 762.0)",1.55,nan,0,4857.836,0
0,482,target,"[(1016, 831)]",[],[1],[0.6],horizontal,"(390.0, 262.0)",0.8166666666666667,0.56,1,4863.182,1
0,483,target,"[(1054, 818)]",[],[1],[0.6333333333333333],horizontal,"(390.0, 262.0)",0.8166666666666667,0.586,1,4888.104,1
0,484,catch,"[(1045, 825)]",[],[1],[],vertical,"(390.0, 262.0)",1.0,nan,1,4892.684,1
0,485,target,"[(1034, 810)]",[],[1],[0.65],vertical,"(890.0, 762.0)",1.1,0.61,1,4897.403,2
0,486,target,"[(1035, 854)]",[],[1],[0.85],horizontal,"(390.0, 762.0)",1.1833333333333333,nan,0,4902.924,0
0,487,target,"[(1015, 845)]",[],[1],[0.6],vertical,"(890.0, 762.0)",1.4,0.552,1,4908.503,1
0,488,target,"[(1037, 803)]",[],[1],[0.6],vertical,"(390.0, 262.0)",1.0666666666666667,0.554,1,4916.486,1
0,489,target,"[(1038, 796)]",[],[1],[0.05],vertical,"(890.0, 262.0)",1.6833333333333333,0.021,0,4921.407,0
0,490,catch,"[(1053, 819)]",[],[1],[],vertical,"(390.0, 762.0)",1.6166666666666667,nan,1,4925.725,1
0,491,catch,"[(1053, 801)]",[],[1],[],vertical,"(390.0, 262.0)",1.6,nan,1,4930.566,1
0,492,target,"[(1063, 807)]",[],[1],[0.23333333333333334],vertical,"(390.0, 262.0)",1.3833333333333333,0.198,1,4935.203,1
0,493,target,"[(1065, 795)]",[],[1],[0.6833333333333333],vertical,"(390.0, 262.0)",1.0166666666666666,0.641,1,4940.415,2
0,494,target,"[(1053, 825)]",[],[1],[0.5833333333333334],horizontal,"(890.0, 762.0)",0.6166666666666667,0.547,1,4945.553,1
0,495,target,"[(1051, 804)]",[],[1],[0.5833333333333334],horizontal,"(890.0, 262.0)",0.55,0.555,1,4950.12,1
0,496,target,"[(1056, 821)]",[],[1],[0.55],vertical,"(890.0, 762.0)",1.1166666666666667,0.515,1,4954.77,1
0,497,target,"[(1065, 804)]",[],[1],[0.48333333333333334],horizontal,"(890.0, 262.0)",0.95,0.443,1,4959.764,3
0,498,target,"[(1029, 869)]",[],[1],[0.5666666666666667],vertical,"(390.0, 762.0)",1.1,0.532,1,4965.444,1
0,499,target,"[(1055, 816)]",[],[1],[0.5333333333333333],vertical,"(390.0, 762.0)",0.6,0.491,1,4995.027,1
0,500,target,"[(1053, 804)]",[],[1],[0.4166666666666667],horizontal,"(890.0, 762.0)",1.35,0.384,1,4999.548,1
0,501,target,"[(1049, 787)]",[],[1],[0.5666666666666667],vertical,"(390.0, 762.0)",1.05,0.523,1,5004.837,2
0,502,target,"[(1061, 793)]",[],[1],[],horizontal,"(890.0, 262.0)",,"('cti', 1.424)",0,5009.996,0
0,503,target,"[(1055, 803)]",[],[1],[0.5666666666666667],vertical,"(390.0, 262.0)",0.85,0.526,1,5014.854,1
0,504,target,"[(1052, 806)]",[],[1],[],horizontal,"(890.0, 762.0)",,"('cti', 1.462)",0,5019.837,0
0,505,target,"[(1036, 809)]",[],[1],[0.6666666666666666],vertical,"(890.0, 262.0)",0.8166666666666667,0.624,1,5024.77,1
0,506,catch,"[(1056, 814)]",[],[1],[],vertical,"(390.0, 762.0)",1.0,nan,1,5029.936,1
0,507,catch,"[(1032, 824)]",[],[1],[],horizontal,"(890.0, 762.0)",1.6,nan,1,5034.137,1
0,508,target,"[(1053, 804)]",[],[1],[0.6666666666666666],horizontal,"(390.0, 762.0)",1.3666666666666667,0.621,1,5039.032,2
0,509,target,"[(1068, 806)]",[],[1],[0.55],horizontal,"(890.0, 762.0)",0.85,0.507,1,5044.637,1
0,510,target,"[(1055, 808)]",[],[1],[0.4166666666666667],vertical,"(390.0, 262.0)",1.1166666666666667,0.378,1,5049.202,1
0,511,target,"[(1056, 812)]",[],[1],[0.2],horizontal,"(890.0, 762.0)",1.3666666666666667,0.165,1,5054.265,1
0,512,target,"[(1033, 812)]",[],[1],[0.36666666666666664],vertical,"(890.0, 262.0)",1.35,0.332,1,5059.402,3
0,513,target,"[(1042, 807)]",[],[1],[0.55],horizontal,"(890.0, 762.0)",0.7833333333333333,0.513,1,5065.005,1
0,514,target,"[(1048, 820)]",[],[1],[0.5333333333333333],vertical,"(890.0, 262.0)",0.9833333333333333,0.501,1,5069.52,1
0,515,target,"[(1055, 823)]",[],[1],[0.55],horizontal,"(890.0, 262.0)",0.7833333333333333,0.517,1,5074.245,1
0,516,target,"[(1057, 796)]",[],[1],[0.5833333333333334],vertical,"(890.0, 762.0)",0.6,0.538,1,5078.779,2
0,517,target,"[(1037, 817)]",[],[1],[0.23333333333333334],horizontal,"(390.0, 762.0)",1.2833333333333332,0.199,1,5083.954,1
0,518,target,"[(1057, 802)]",[],[1],[0.4666666666666667],horizontal,"(390.0, 262.0)",0.9666666666666667,0.43,1,5088.901,1
0,519,target,"[(1041, 798)]",[],[1],[0.35],horizontal,"(890.0, 762.0)",1.2833333333333332,0.309,1,5093.884,1
0,520,target,"[(1045, 801)]",[],[1],[0.5666666666666667],horizontal,"(890.0, 762.0)",1.25,0.527,1,5098.746,3
0,521,target,"[(1038, 825)]",[],[1],[0.5333333333333333],vertical,"(890.0, 762.0)",1.05,0.494,1,5104.372,1
0,522,target,"[(1033, 799)]",[],[1],[0.25],vertical,"(390.0, 262.0)",1.4166666666666667,0.217,1,5109.09,1
0,523,target,"[(1057, 792)]",[],[1],[0.85],horizontal,"(390.0, 762.0)",0.7833333333333333,nan,0,5113.821,0
0,524,target,"[(1035, 818)]",[],[1],[0.25],horizontal,"(890.0, 762.0)",1.4666666666666666,0.218,1,5118.372,1
0,525,catch,"[(1057, 813)]",[],[1],[],vertical,"(890.0, 762.0)",1.4666666666666666,nan,1,5123.221,1
0,526,target,"[(1055, 828)]",[],[1],[0.13333333333333333],horizontal,"(390.0, 262.0)",1.6666666666666667,0.104,1,5127.988,1
0,527,target,"[(1053, 798)]",[],[1],[0.85],horizontal,"(390.0, 762.0)",0.5833333333333334,nan,0,5132.897,0
0,528,target,"[(1035, 804)]",[],[1],[0.1],horizontal,"(890.0, 762.0)",1.5666666666666667,0.066,0,5137.405,0
0,529,target,"[(1025, 838)]",[],[1],[0.85],horizontal,"(890.0, 762.0)",1.0,nan,0,5142.257,0
0,530,target,"[(1033, 822)]",[],[1],[0.6833333333333333],vertical,"(390.0, 762.0)",0.65,0.649,1,5147.503,1
0,531,target,"[(1036, 820)]",[],[1],[0.65],vertical,"(390.0, 762.0)",1.05,0.612,1,5152.19,1
0,532,target,"[(1031, 805)]",[],[1],[0.3333333333333333],vertical,"(890.0, 762.0)",1.55,0.3,1,5156.855,1
0,533,target,"[(1053, 820)]",[],[1],[0.4666666666666667],horizontal,"(890.0, 762.0)",1.3166666666666667,0.428,1,5162.255,2
0,534,catch,"[(1040, 796)]",[],[1],[],horizontal,"(890.0, 762.0)",1.3,nan,1,5167.971,1
0,535,target,"[(1045, 802)]",[],[1],[0.65],horizontal,"(390.0, 762.0)",0.55,0.619,1,5172.489,1
0,536,catch,"[(1038, 806)]",[],[1],[],vertical,"(390.0, 262.0)",1.2333333333333334,nan,1,5177.136,1
0,537,target,"[(1049, 805)]",[],[1],[0.5666666666666667],horizontal,"(890.0, 762.0)",0.8666666666666667,0.525,1,5181.529,3
0,538,target,"[(1041, 808)]",[],[1],[0.5833333333333334],vertical,"(890.0, 262.0)",0.9666666666666667,0.553,1,5186.918,1
0,539,catch,"[(1053, 813)]",[],[1],[],vertical,"(890.0, 762.0)",1.4833333333333334,"('cti', 1.478),nan",0,5191.809,0
0,540,target,"[(1038, 830)]",[],[1],[0.5666666666666667],horizontal,"(890.0, 262.0)",1.45,0.522,1,5196.632,1
0,541,target,"[(998, 848), (1028, 866)]",[],"[0, 1]",[0.85],horizontal,"(890.0, 762.0)",1.35,nan,0,5201.52,0
0,542,target,"[(1012, 868)]",[],[1],[0.55],horizontal,"(890.0, 762.0)",1.3166666666666667,0.506,1,5542.121,1
0,543,target,"[(1046, 853)]",[],[1],[0.85],vertical,"(890.0, 262.0)",0.5166666666666666,nan,0,5548.987,0
0,544,target,"[(1036, 850)]",[],[1],[0.85],horizontal,"(390.0, 262.0)",1.55,nan,0,5553.576,0
0,545,target,"[(1053, 814)]",[],[1],[0.18333333333333332],horizontal,"(890.0, 762.0)",1.5666666666666667,0.15,1,5558.875,1
0,546,catch,"[(1056, 821)]",[],[1],[],horizontal,"(890.0, 262.0)",1.5666666666666667,nan,1,5563.519,1
0,547,target,"[(1072, 836)]",[],[1],[0.8],vertical,"(890.0, 262.0)",1.35,0.753,1,5568.516,1
0,548,target,"[(1049, 836)]",[],[1],[0.25],horizontal,"(390.0, 762.0)",1.4833333333333334,0.217,1,5574.0,2
0,549,target,"[(1055, 849)]",[],[1],[0.5166666666666666],vertical,"(890.0, 762.0)",0.9166666666666666,0.473,1,5579.49,1
0,550,target,"[(1051, 804)]",[],[1],[0.5333333333333333],vertical,"(390.0, 262.0)",1.1833333333333333,0.491,1,5584.274,1
0,551,target,"[(1053, 815)]",[],[1],[0.21666666666666667],horizontal,"(390.0, 762.0)",1.5666666666666667,0.179,1,5589.023,1
0,552,target,"[(1045, 820)]",[],[1],[0.4666666666666667],horizontal,"(390.0, 762.0)",1.0666666666666667,0.429,1,5594.157,3
0,553,target,"[(1052, 828)]",[],[1],[0.8166666666666667],vertical,"(390.0, 762.0)",0.9833333333333333,0.769,1,5599.874,1
0,554,target,"[(1051, 874)]",[],[1],[0.55],vertical,"(890.0, 762.0)",0.5833333333333334,0.505,1,5604.949,1
0,555,target,"[(1057, 838)]",[],[1],[],vertical,"(890.0, 262.0)",,"('cti', 1.409)",0,5610.117,0
0,556,target,"[(1032, 851)]",[],[1],[],horizontal,"(890.0, 262.0)",,"('cti', 1.65)",0,5614.745,0
0,557,target,"[(1041, 831)]",[],[1],[0.55],vertical,"(890.0, 262.0)",1.55,0.505,1,5619.624,1
0,558,target,"[(1005, 845)]",[],[1],[0.6333333333333333],vertical,"(890.0, 262.0)",1.65,0.591,1,5625.291,1
0,559,target,"[(1052, 852)]",[],[1],[0.85],vertical,"(390.0, 262.0)",0.9333333333333333,nan,0,5631.481,0
0,560,target,"[(1031, 825)]",[],[1],[0.6166666666666667],vertical,"(890.0, 262.0)",0.75,0.577,1,5661.908,1
0,561,target,"[(1054, 815)]",[],[1],[0.5666666666666667],horizontal,"(890.0, 262.0)",0.7666666666666666,0.525,1,5666.807,1
0,562,target,"[(1046, 796)]",[],[1],[0.5],horizontal,"(390.0, 762.0)",1.2333333333333334,0.463,1,5671.581,1
0,563,target,"[(1051, 826)]",[],[1],[0.7833333333333333],vertical,"(890.0, 762.0)",0.95,0.735,1,5676.277,2
0,564,target,"[(1048, 806)]",[],[1],[0.5333333333333333],horizontal,"(890.0, 262.0)",0.8833333333333333,0.495,1,5681.431,1
0,565,target,"[(1057, 810)]",[],[1],[0.8],vertical,"(390.0, 262.0)",0.6833333333333333,0.748,1,5686.249,1
0,566,target,"[(1041, 829)]",[],[1],[0.5833333333333334],vertical,"(890.0, 262.0)",0.7666666666666666,0.535,1,5690.816,1
0,567,target,"[(1046, 795)]",[],[1],[0.55],vertical,"(890.0, 762.0)",1.0,0.507,1,5695.26,3
0,568,target,"[(1055, 803)]",[],[1],[0.6],vertical,"(890.0, 262.0)",0.9166666666666666,0.56,1,5701.21,1
0,569,target,"[(1021, 841)]",[],[1],[0.85],horizontal,"(390.0, 762.0)",1.3666666666666667,nan,0,5705.812,0
0,570,target,"[(1051, 820)]",[],[1],[0.8333333333333334],vertical,"(890.0, 762.0)",0.9,0.789,1,5714.271,1
0,571,target,"[(1037, 820)]",[],[1],[0.7],vertical,"(390.0, 262.0)",1.0833333333333333,0.658,1,5719.402,1
0,572,target,"[(1034, 817)]",[],[1],[0.06666666666666667],horizontal,"(390.0, 762.0)",1.5833333333333333,0.034,0,5724.478,0
0,573,target,"[(1052, 829)]",[],[1],[0.7666666666666666],vertical,"(890.0, 262.0)",0.7166666666666667,0.738,1,5729.307,1
0,574,target,"[(1054, 804)]",[],[1],[0.5],horizontal,"(390.0, 762.0)",1.45,0.46,1,5734.476,1
0,575,catch,"[(1053, 799)]",[],[1],[],vertical,"(390.0, 762.0)",1.5,nan,1,5739.809,1
0,576,target,"[(1049, 812)]",[],[1],[0.5833333333333334],horizontal,"(390.0, 762.0)",0.6333333333333333,0.544,1,5744.515,2
0,577,target,"[(1046, 805)]",[],[1],[0.5833333333333334],horizontal,"(890.0, 262.0)",0.65,0.543,1,5749.594,1
0,578,target,"[(1061, 802)]",[],[1],[0.55],vertical,"(890.0, 262.0)",0.8833333333333333,0.507,1,5753.969,1
0,579,target,"[(1066, 819)]",[],[1],[0.55],horizontal,"(890.0, 762.0)",0.7,0.514,1,5758.426,1
0,580,target,"[(1057, 811)]",[],[1],[0.4666666666666667],vertical,"(390.0, 762.0)",1.3166666666666667,0.427,1,5763.08,3
0,581,target,"[(1032, 810)]",[],[1],[0.4166666666666667],vertical,"(890.0, 762.0)",1.2,0.379,1,5768.92,1
0,582,target,"[(1030, 796)]",[],[1],[0.43333333333333335],vertical,"(890.0, 262.0)",1.0166666666666666,0.398,1,5774.098,1
0,583,target,"[(1029, 843)]",[],[1],[0.5333333333333333],horizontal,"(890.0, 262.0)",0.5333333333333333,0.489,1,5779.059,1
0,584,target,"[(1043, 810)]",[],[1],[0.85],horizontal,"(390.0, 762.0)",0.8,nan,0,5785.475,0
0,585,target,"[(1045, 824)]",[],[1],[0.6],vertical,"(890.0, 762.0)",0.6333333333333333,0.563,1,5789.709,1
0,586,target,"[(1029, 796)]",[],[1],[0.15],vertical,"(890.0, 762.0)",1.5166666666666666,0.114,1,5794.141,1
0,587,target,"[(1058, 807)]",[],[1],[0.6666666666666666],vertical,"(390.0, 262.0)",0.7666666666666666,0.623,1,5799.509,1
0,588,target,"[(1032, 818)]",[],[1],[0.7333333333333333],horizontal,"(890.0, 762.0)",0.8833333333333333,0.686,1,5804.224,2
0,589,target,"[(1058, 795)]",[],[1],[0.5],vertical,"(390.0, 262.0)",1.2,0.463,1,5809.559,1
0,590,target,"[(1052, 773)]",[],[1],[0.7],horizontal,"(390.0, 762.0)",0.8166666666666667,0.658,1,5814.724,1
0,591,target,"[(1049, 806)]",[],[1],[0.6],vertical,"(890.0, 762.0)",0.7166666666666667,0.559,1,5819.276,1
0,592,target,"[(1049, 816)]",[],[1],[0.2833333333333333],horizontal,"(390.0, 762.0)",1.5833333333333333,0.247,1,5823.632,3
0,593,target,"[(1040, 800)]",[],[1],[],horizontal,"(890.0, 762.0)",,"('cti', 1.452)",0,5829.258,0
0,594,target,"[(1026, 832)]",[],[1],[0.6166666666666667],vertical,"(390.0, 262.0)",0.6166666666666667,0.574,1,5834.079,1
0,595,target,"[(1053, 819)]",[],[1],[0.55],horizontal,"(390.0, 262.0)",1.15,0.511,1,5838.952,1
0,596,target,"[(1054, 805)]",[],[1],[0.11666666666666667],horizontal,"(390.0, 762.0)",1.35,0.084,0,5843.863,0
0,597,target,"[(1052, 812)]",[],[1],[0.6166666666666667],vertical,"(890.0, 762.0)",0.7666666666666666,0.576,1,5848.619,1
0,598,catch,"[(1031, 803)]",[],[1],[],vertical,"(890.0, 762.0)",1.3333333333333333,nan,1,5853.425,1
0,599,target,"[(1033, 851)]",[],[1],[0.31666666666666665],horizontal,"(390.0, 762.0)",1.3333333333333333,0.284,1,5857.909,1
0,600,target,"[(1039, 822)]",[],[1],[0.3833333333333333],horizontal,"(390.0, 262.0)",1.2166666666666666,0.342,1,5865.788,2
0,601,target,"[(1038, 805)]",[],[1],[0.6],horizontal,"(890.0, 762.0)",0.8,0.566,1,5871.452,1
0,602,target,"[(1036, 817)]",[],[1],[],vertical,"(890.0, 262.0)",,"('cti', 1.4)",0,5876.358,0
0,603,catch,"[(1030, 839)]",[],[1],[],horizontal,"(390.0, 262.0)",1.3166666666666667,nan,1,5881.22,1
0,604,target,"[(1011, 844)]",[],[1],[0.5166666666666666],vertical,"(890.0, 262.0)",1.5333333333333332,0.478,1,5885.699,1
0,605,target,"[(1040, 806)]",[],[1],[0.5166666666666666],vertical,"(390.0, 262.0)",0.7666666666666666,0.476,1,5891.155,1
0,606,catch,"[(1033, 801)]",[],[1],[],vertical,"(890.0, 262.0)",1.1,nan,1,5895.581,2
0,607,target,"[(1042, 813)]",[],[1],[0.3833333333333333],horizontal,"(390.0, 762.0)",1.4666666666666666,0.345,1,5900.097,1
0,608,target,"[(1026, 791)]",[],[1],[0.5666666666666667],vertical,"(890.0, 762.0)",0.7,0.523,1,5905.058,1
0,609,target,"[(1053, 812)]",[],[1],[0.85],vertical,"(390.0, 762.0)",0.5166666666666666,nan,0,5909.262,0
0,610,target,"[(1026, 821)]",[],[1],[0.43333333333333335],vertical,"(890.0, 762.0)",1.1666666666666667,0.392,1,5913.669,1
0,611,target,"[(1042, 796)]",[],[1],[0.5333333333333333],vertical,"(390.0, 762.0)",0.9666666666666667,0.494,1,5918.428,1
0,612,target,"[(1047, 810)]",[],[1],[0.6333333333333333],vertical,"(890.0, 762.0)",0.6333333333333333,0.589,1,5923.35,1
0,613,target,"[(1035, 787)]",[],[1],[0.8],vertical,"(390.0, 762.0)",0.7,0.753,1,5927.862,2
0,614,target,"[(1053, 815)]",[],[1],[0.2],horizontal,"(390.0, 762.0)",1.4666666666666666,0.166,1,5932.977,1
0,615,target,"[(1053, 820)]",[],[1],[0.6333333333333333],horizontal,"(390.0, 762.0)",0.7666666666666666,0.594,1,5938.126,1
0,616,target,"[(1051, 808)]",[],[1],[0.55],vertical,"(890.0, 262.0)",0.85,0.506,1,5942.708,1
0,617,target,"[(1038, 820)]",[],[1],[0.18333333333333332],horizontal,"(890.0, 762.0)",1.3666666666666667,0.15,1,5947.791,3
0,618,target,"[(1055, 817)]",[],[1],[0.4166666666666667],horizontal,"(890.0, 762.0)",1.3333333333333333,0.375,1,5953.637,1
0,619,target,"[(1028, 811)]",[],[1],[0.55],vertical,"(390.0, 762.0)",0.7,0.508,1,5958.291,1
0,620,target,"[(1059, 813)]",[],[1],[0.3333333333333333],vertical,"(390.0, 262.0)",1.5333333333333332,0.29,1,5963.651,1
0,621,target,"[(1049, 807)]",[],[1],[0.5833333333333334],vertical,"(890.0, 762.0)",1.1,0.549,1,5968.953,2
0,622,target,"[(1027, 809)]",[],[1],[0.55],horizontal,"(890.0, 762.0)",1.1,0.506,1,5974.442,1
0,623,target,"[(1055, 796)]",[],[1],[0.5833333333333334],vertical,"(390.0, 262.0)",0.55,0.542,1,5979.509,1
0,624,target,"[(1032, 799)]",[],[1],[0.5666666666666667],vertical,"(390.0, 262.0)",0.65,0.526,1,5983.692,1
0,625,target,"[(1043, 821)]",[],[1],[],horizontal,"(390.0, 262.0)",,"('cti', 0.969)",0,5987.964,0
0,626,target,"[(1041, 819)]",[],[1],[0.6333333333333333],horizontal,"(890.0, 262.0)",1.0833333333333333,0.592,1,5992.239,1
0,627,target,"[(1043, 817)]",[],[1],[0.26666666666666666],vertical,"(890.0, 762.0)",1.3666666666666667,0.233,1,5997.358,1
0,628,target,"[(1053, 817)]",[],[1],[],vertical,"(390.0, 262.0)",,"('cti', 1.626)",0,6002.089,0
0,629,target,"[(1012, 815)]",[],[1],[0.5833333333333334],horizontal,"(390.0, 762.0)",1.5666666666666667,0.551,1,6006.86,1
0,630,target,"[(1030, 807)]",[],[1],[0.65],horizontal,"(390.0, 762.0)",0.6333333333333333,0.618,1,6014.077,1
0,631,target,"[(1044, 828)]",[],[1],[0.5666666666666667],horizontal,"(890.0, 762.0)",0.95,0.524,1,6018.717,1
0,632,target,"[(1030, 802)]",[],[1],[0.6666666666666666],vertical,"(890.0, 762.0)",0.7,0.626,1,6023.267,2
0,633,target,"[(1049, 812)]",[],[1],[0.6333333333333333],vertical,"(390.0, 762.0)",0.9,0.594,1,6028.41,1
0,634,catch,"[(1057, 809)]",[],[1],[],vertical,"(390.0, 762.0)",1.35,nan,1,6033.308,1
0,635,target,"[(1035, 786)]",[],[1],[0.6666666666666666],horizontal,"(390.0, 262.0)",1.0833333333333333,0.627,1,6038.271,1
0,636,target,"[(1057, 808)]",[],[1],[0.45],vertical,"(890.0, 762.0)",1.1,0.411,1,6043.16,3
0,637,target,"[(1030, 815)]",[],[1],[0.6166666666666667],vertical,"(890.0, 262.0)",1.3833333333333333,0.575,1,6049.083,1
0,638,target,"[(1063, 812)]",[],[1],[],vertical,"(890.0, 262.0)",,"('cti', 1.458)",0,6054.039,0
0,639,target,"[(1022, 822)]",[],[1],[0.25],vertical,"(890.0, 262.0)",1.45,0.215,1,6058.377,1
0,640,target,"[(1029, 839)]",[],[1],[0.2],vertical,"(890.0, 262.0)",1.4333333333333333,0.166,1,6063.752,1
0,641,target,"[(1042, 815)]",[],[1],[0.7833333333333333],horizontal,"(390.0, 262.0)",0.75,0.736,1,6069.293,1
0,642,target,"[(1041, 768)]",[],[1],[0.3833333333333333],horizontal,"(390.0, 262.0)",1.0,0.343,1,6074.246,2
0,643,target,"[(1056, 815)]",[],[1],[0.7],vertical,"(890.0, 762.0)",0.5833333333333334,0.659,1,6079.227,1
0,644,target,"[(1034, 811)]",[],[1],[0.36666666666666664],horizontal,"(890.0, 762.0)",1.2833333333333332,0.334,1,6083.843,1
0,645,target,"[(1030, 815)]",[],[1],[0.45],vertical,"(890.0, 762.0)",1.1833333333333333,0.426,1,6089.009,1
0,646,target,"[(1043, 806)]",[],[1],[0.7833333333333333],horizontal,"(890.0, 762.0)",0.6666666666666666,0.739,1,6094.061,3
0,647,target,"[(1048, 817)]",[],[1],[0.31666666666666665],horizontal,"(890.0, 262.0)",1.3666666666666667,0.279,1,6099.176,1
0,648,catch,"[(1044, 821)]",[],[1],[],horizontal,"(890.0, 762.0)",1.3333333333333333,nan,1,6103.899,1
0,649,target,"[(1024, 815)]",[],[1],[0.45],vertical,"(890.0, 762.0)",1.1166666666666667,0.408,1,6108.627,1
0,650,target,"[(1055, 821)]",[],[1],[0.5],vertical,"(890.0, 762.0)",1.0666666666666667,0.458,1,6113.277,2
0,651,target,"[(1064, 796)]",[],[1],[0.36666666666666664],horizontal,"(890.0, 262.0)",1.6,0.328,1,6118.757,1
0,652,catch,"[(1029, 828)]",[],[1],[],vertical,"(890.0, 262.0)",1.0,nan,1,6123.623,1
0,653,target,"[(1038, 820)]",[],[1],[],vertical,"(890.0, 262.0)",,"('cti', 1.629)",0,6127.944,0
0,654,target,"[(1033, 816)]",[],[1],[0.7666666666666666],vertical,"(390.0, 262.0)",1.2333333333333334,0.721,1,6132.899,1
0,655,target,"[(1056, 810)]",[],[1],[0.85],vertical,"(890.0, 762.0)",0.8,nan,0,6138.093,0
0,656,target,"[(1039, 816)]",[],[1],[0.85],vertical,"(390.0, 762.0)",0.9333333333333333,nan,0,6142.561,0
0,657,target,"[(1038, 829)]",[],[1],[0.85],horizontal,"(390.0, 762.0)",1.45,nan,0,6147.318,0
0,658,target,"[(1041, 846)]",[],[1],[0.85],horizontal,"(390.0, 262.0)",1.1166666666666667,nan,0,6152.511,0
0,659,target,"[(1010, 849)]",[],[1],[0.5333333333333333],horizontal,"(890.0, 762.0)",1.3666666666666667,0.492,1,6157.246,1
0,660,target,"[(1033, 815)]",[],[1],[0.8],vertical,"(890.0, 262.0)",0.5833333333333334,0.768,1,6162.808,1
0,661,target,"[(1035, 825)]",[],[1],[0.3333333333333333],horizontal,"(890.0, 762.0)",1.5666666666666667,0.296,1,6167.661,1
0,662,target,"[(1066, 799)]",[],[1],[0.5166666666666666],vertical,"(390.0, 262.0)",0.8,0.477,1,6172.661,2
0,663,target,"[(1058, 818)]",[],[1],[0.5333333333333333],horizontal,"(390.0, 262.0)",1.3666666666666667,0.491,1,6177.778,1
0,664,catch,"[(1034, 820)]",[],[1],[],horizontal,"(890.0, 762.0)",1.25,nan,1,6182.537,1
0,665,target,"[(1034, 813)]",[],[1],[0.1],vertical,"(890.0, 262.0)",1.5166666666666666,0.068,0,6187.293,0
0,666,target,"[(1038, 809)]",[],[1],[0.6],horizontal,"(890.0, 762.0)",1.3166666666666667,0.567,1,6191.968,1
0,667,target,"[(1053, 827)]",[],[1],[0.4],vertical,"(890.0, 262.0)",0.9,0.367,1,6196.826,1
0,668,target,"[(1033, 812)]",[],[1],[],horizontal,"(390.0, 762.0)",,"('cti', 1.473)",0,6201.716,0
0,669,target,"[(1057, 812)]",[],[1],[0.18333333333333332],vertical,"(390.0, 762.0)",1.3833333333333333,0.152,1,6206.527,1
0,670,target,"[(1053, 829)]",[],[1],[0.43333333333333335],vertical,"(890.0, 762.0)",1.3166666666666667,0.396,1,6211.815,1
0,671,target,"[(1057, 802)]",[],[1],[0.05],vertical,"(890.0, 762.0)",1.5333333333333332,0.018,0,6216.911,0
0,672,target,"[(1036, 823)]",[],[1],[0.6],horizontal,"(890.0, 262.0)",0.5166666666666666,0.56,1,6221.395,1
0,673,catch,"[(1072, 807)]",[],[1],[],horizontal,"(890.0, 262.0)",1.4,nan,1,6225.82,1
0,674,target,"[(1014, 811)]",[],[1],[0.5],vertical,"(890.0, 762.0)",1.0833333333333333,0.458,1,6230.694,1
0,675,target,"[(1058, 811)]",[],[1],[0.48333333333333334],vertical,"(890.0, 762.0)",1.0666666666666667,0.447,1,6235.918,2
0,676,catch,"[(1025, 801)]",[],[1],[],horizontal,"(890.0, 262.0)",,"('cti', 1.445),nan",0,6241.412,0
0,677,target,"[(1029, 822)]",[],[1],[0.5666666666666667],horizontal,"(890.0, 762.0)",0.9,0.525,1,6245.945,1
0,678,target,"[(1026, 808)]",[],[1],[0.6166666666666667],horizontal,"(890.0, 762.0)",1.0333333333333332,0.572,1,6250.96,1
0,679,target,"[(1032, 816)]",[],[1],[0.08333333333333333],horizontal,"(890.0, 762.0)",1.5,0.052,0,6255.611,0
0,680,target,"[(1013, 834)]",[],[1],[0.5666666666666667],vertical,"(890.0, 262.0)",0.7166666666666667,0.527,1,6260.702,1
0,681,target,"[(1036, 816)]",[],[1],[0.6],horizontal,"(890.0, 762.0)",0.9833333333333333,0.557,1,6266.144,1
0,682,target,"[(1018, 799)]",[],[1],[0.5666666666666667],horizontal,"(390.0, 262.0)",0.6833333333333333,0.532,1,6271.002,1
0,683,catch,"[(1040, 804)]",[],[1],[],vertical,"(390.0, 762.0)",,"('cti', 1.481),nan",0,6275.423,0
0,684,target,"[(1043, 815)]",[],[1],[0.6],horizontal,"(890.0, 762.0)",0.8166666666666667,0.563,1,6280.31,1
0,685,target,"[(1045, 818)]",[],[1],[0.6],vertical,"(390.0, 262.0)",0.7,0.556,1,6285.125,1
0,686,target,"[(1046, 798)]",[],[1],[0.5833333333333334],vertical,"(390.0, 262.0)",0.75,0.54,1,6289.761,1
0,687,target,"[(1034, 825)]",[],[1],[0.23333333333333334],vertical,"(390.0, 762.0)",1.5333333333333332,0.201,1,6294.595,2
0,688,catch,"[(1050, 821)]",[],[1],[],vertical,"(890.0, 262.0)",1.1666666666666667,nan,1,6299.786,1
0,689,target,"[(1013, 841)]",[],[1],[0.5666666666666667],horizontal,"(390.0, 762.0)",0.95,0.525,1,6304.523,1
0,690,target,"[(1045, 824)]",[],[1],[0.1],horizontal,"(390.0, 762.0)",1.35,0.069,0,6333.059,0
0,691,target,"[(1029, 829)]",[],[1],[0.5666666666666667],vertical,"(390.0, 762.0)",1.0833333333333333,0.524,1,6338.046,1
0,692,target,"[(1041, 802)]",[],[1],[0.65],horizontal,"(890.0, 262.0)",0.95,0.602,1,6343.179,1
0,693,target,"[(1033, 803)]",[],[1],[0.6],vertical,"(890.0, 262.0)",0.6333333333333333,0.561,1,6348.376,1
0,694,target,"[(1036, 799)]",[],[1],[0.5333333333333333],vertical,"(390.0, 262.0)",1.0333333333333332,0.493,1,6352.612,2
0,695,target,"[(1033, 831)]",[],[1],[0.7166666666666667],vertical,"(390.0, 762.0)",0.7333333333333333,0.672,1,6357.621,1
0,696,target,"[(1025, 800)]",[],[1],[0.5833333333333334],vertical,"(390.0, 262.0)",0.9666666666666667,0.545,1,6362.446,1
0,697,target,"[(1034, 811)]",[],[1],[],vertical,"(890.0, 262.0)",,"('cti', 1.439)",0,6366.879,0
0,698,catch,"[(1045, 828)]",[],[1],[],horizontal,"(390.0, 762.0)",1.6666666666666667,nan,1,6371.246,1
0,699,target,"[(1026, 806)]",[],[1],[0.7666666666666666],horizontal,"(390.0, 262.0)",0.7833333333333333,0.731,1,6376.311,1
0,700,target,"[(1014, 797)]",[],[1],[0.7],vertical,"(390.0, 262.0)",1.1333333333333333,0.666,1,6381.775,1
0,701,catch,"[(1057, 806)]",[],[1],[],vertical,"(390.0, 262.0)",1.1,nan,1,6386.896,2
0,702,target,"[(1028, 825)]",[],[1],[0.5166666666666666],vertical,"(390.0, 762.0)",0.85,0.486,1,6391.324,1
0,703,target,"[(1059, 828)]",[],[1],[0.85],horizontal,"(890.0, 762.0)",0.6166666666666667,nan,0,6395.982,0
0,704,target,"[(1038, 832)]",[],[1],[0.25],horizontal,"(890.0, 262.0)",1.35,0.217,1,6400.662,1
0,705,target,"[(1048, 812)]",[],[1],[0.3833333333333333],vertical,"(890.0, 762.0)",1.3166666666666667,0.349,1,6405.794,1
0,706,target,"[(1012, 834)]",[],[1],[0.48333333333333334],horizontal,"(390.0, 262.0)",1.2833333333333332,0.441,1,6411.229,1
0,707,catch,"[(1052, 787)]",[],[1],[],horizontal,"(890.0, 262.0)",1.6666666666666667,nan,1,6418.516,2
0,708,target,"[(1053, 806)]",[],[1],[0.5833333333333334],vertical,"(390.0, 762.0)",1.1333333333333333,0.552,1,6423.939,1
0,709,target,"[(1065, 825)]",[],[1],[0.85],horizontal,"(890.0, 762.0)",1.25,nan,0,6428.89,0
0,710,target,"[(644, 915), (1029, 875)]",[],"[0, 1]",[0.85],horizontal,"(390.0, 262.0)",0.9333333333333333,nan,0,6434.229,0
0,711,target,"[(475, 532), (1026, 863)]",[],"[0, 1]",[0.5666666666666667],horizontal,"(890.0, 762.0)",1.2166666666666666,0.526,1,6863.763,1
0,712,target,"[(1068, 822)]",[],[1],[0.85],horizontal,"(890.0, 762.0)",0.8833333333333333,nan,0,6870.076,0
0,713,target,"[(1032, 818)]",[],[1],[0.85],vertical,"(890.0, 262.0)",1.1666666666666667,nan,0,6875.045,0
0,714,catch,"[(1012, 825)]",[],[1],[],vertical,"(390.0, 262.0)",1.3333333333333333,nan,1,6879.947,1
0,715,target,"[(1026, 837)]",[],[1],[0.55],horizontal,"(890.0, 262.0)",0.7166666666666667,0.511,1,6884.788,1
0,716,target,"[(1055, 832)]",[],[1],[0.2],vertical,"(390.0, 262.0)",1.65,0.166,1,6890.164,1
0,717,target,"[(1060, 821)]",[],[1],[0.7],vertical,"(390.0, 762.0)",0.6833333333333333,0.655,1,6895.097,2
0,718,target,"[(1039, 811)]",[],[1],[0.7333333333333333],horizontal,"(390.0, 762.0)",0.9666666666666667,0.694,1,6900.26,1
0,719,target,"[(1062, 812)]",[],[1],[0.31666666666666665],vertical,"(890.0, 762.0)",1.3833333333333333,0.276,1,6904.982,1
0,720,target,"[(1058, 798)]",[],[1],[0.23333333333333334],vertical,"(890.0, 262.0)",1.2166666666666666,0.198,1,6909.67,1
0,721,target,"[(1055, 807)]",[],[1],[0.55],vertical,"(390.0, 762.0)",1.1666666666666667,0.509,1,6914.782,3
0,722,target,"[(1055, 808)]",[],[1],[0.43333333333333335],vertical,"(890.0, 262.0)",1.1666666666666667,0.398,1,6920.522,1
0,723,target,"[(1046, 814)]",[],[1],[0.5666666666666667],horizontal,"(890.0, 262.0)",0.5,0.524,1,6925.149,1
0,724,target,"[(1041, 796)]",[],[1],[0.18333333333333332],vertical,"(890.0, 262.0)",1.5,0.15,1,6929.845,1
0,725,target,"[(1051, 807)]",[],[1],[0.2833333333333333],horizontal,"(890.0, 262.0)",1.3333333333333333,0.248,1,6934.649,2
0,726,target,"[(1038, 812)]",[],[1],[0.5666666666666667],horizontal,"(890.0, 262.0)",0.5,0.522,1,6939.932,1
0,727,target,"[(1026, 825)]",[],[1],[0.5666666666666667],vertical,"(890.0, 762.0)",1.15,0.523,1,6944.065,1
0,728,target,"[(1057, 815)]",[],[1],[0.8166666666666667],vertical,"(890.0, 262.0)",0.85,0.772,1,6949.472,1
0,729,target,"[(1061, 812)]",[],[1],[0.06666666666666667],horizontal,"(890.0, 762.0)",1.5666666666666667,0.035,0,6954.213,0
0,730,target,"[(1048, 815)]",[],[1],[0.5],vertical,"(390.0, 262.0)",1.2166666666666666,0.46,1,6958.985,1
0,731,target,"[(1056, 819)]",[],[1],[0.85],vertical,"(390.0, 762.0)",0.6166666666666667,nan,0,6963.878,0
0,732,target,"[(1032, 839)]",[],[1],[],horizontal,"(890.0, 262.0)",,"('cti', 1.55)",0,6968.331,0
0,733,target,"[(1029, 820)]",[],[1],[0.6],vertical,"(390.0, 762.0)",0.6,0.557,1,6973.316,1
0,734,target,"[(1038, 822)]",[],[1],[0.85],vertical,"(890.0, 762.0)",0.5833333333333334,nan,0,6977.485,0
0,735,target,"[(1032, 823)]",[],[1],[0.85],horizontal,"(390.0, 762.0)",0.6,nan,0,6982.389,0
0,736,catch,"[(1022, 844)]",[],[1],[],horizontal,"(390.0, 762.0)",1.1833333333333333,nan,1,6986.795,1
0,737,target,"[(1047, 815)]",[],[1],[0.5833333333333334],horizontal,"(390.0, 762.0)",0.6333333333333333,0.542,1,6991.25,1
0,738,target,"[(1029, 815)]",[],[1],[0.43333333333333335],horizontal,"(390.0, 762.0)",0.85,0.395,1,6995.849,1
0,739,target,"[(1047, 855)]",[],[1],[0.43333333333333335],horizontal,"(890.0, 262.0)",1.3333333333333333,0.397,1,7000.548,2
0,740,target,"[(1027, 812)]",[],[1],[0.75],vertical,"(890.0, 262.0)",0.8666666666666667,0.701,1,7006.414,1
0,741,target,"[(1065, 807)]",[],[1],[0.5333333333333333],vertical,"(890.0, 262.0)",1.5833333333333333,0.492,1,7011.648,1
0,742,target,"[(1058, 800)]",[],[1],[0.6],horizontal,"(890.0, 762.0)",0.8833333333333333,0.557,1,7016.933,1
0,743,target,"[(1051, 791)]",[],[1],[0.85],horizontal,"(390.0, 762.0)",1.1333333333333333,nan,0,7021.382,0
0,744,target,"[(1030, 822)]",[],[1],[0.85],horizontal,"(390.0, 762.0)",0.6333333333333333,nan,0,7026.164,0
0,745,target,"[(1033, 805)]",[],[1],[0.6833333333333333],vertical,"(890.0, 762.0)",1.3166666666666667,0.65,1,7030.784,1
0,746,target,"[(1055, 798)]",[],[1],[0.6166666666666667],vertical,"(390.0, 262.0)",1.2666666666666666,0.586,1,7036.421,1
0,747,target,"[(1054, 806)]",[],[1],[0.5666666666666667],horizontal,"(890.0, 762.0)",0.85,0.54,1,7041.379,1
0,748,target,"[(1038, 808)]",[],[1],[0.16666666666666666],vertical,"(890.0, 762.0)",1.5833333333333333,0.137,1,7045.883,2
0,749,target,"[(1036, 811)]",[],[1],[0.7],vertical,"(890.0, 762.0)",0.85,0.671,1,7051.724,1
0,750,target,"[(1065, 820)]",[],[1],[0.5333333333333333],horizontal,"(390.0, 262.0)",1.2333333333333334,0.493,1,7056.498,1
0,751,target,"[(1058, 820)]",[],[1],[0.55],vertical,"(890.0, 262.0)",0.9333333333333333,0.508,1,7061.808,1
0,752,target,"[(1038, 795)]",[],[1],[0.65],vertical,"(390.0, 262.0)",0.75,0.608,1,7066.431,3
0,753,target,"[(1033, 791)]",[],[1],[0.6333333333333333],horizontal,"(390.0, 762.0)",1.5,0.588,1,7071.971,1
0,754,catch,"[(1068, 815)]",[],[1],[],horizontal,"(390.0, 762.0)",1.5333333333333332,nan,1,7076.87,1
0,755,catch,"[(1075, 799)]",[],[1],[],vertical,"(390.0, 762.0)",,"('cti', 1.24),nan",0,7082.133,0
0,756,target,"[(1068, 881)]",[],[1],[0.85],horizontal,"(390.0, 262.0)",0.5166666666666666,nan,0,7086.583,0
0,757,catch,"[(1026, 844)]",[],[1],[],horizontal,"(890.0, 762.0)",1.5833333333333333,nan,1,7171.134,1
0,758,target,"[(1045, 833)]",[],[1],[0.65],horizontal,"(890.0, 762.0)",0.6166666666666667,0.607,1,7175.872,1
0,759,target,"[(1051, 815)]",[],[1],[0.18333333333333332],horizontal,"(890.0, 262.0)",1.45,0.152,1,7180.435,1
0,760,target,"[(1056, 834)]",[],[1],[0.5666666666666667],vertical,"(390.0, 762.0)",1.0166666666666666,0.523,1,7185.691,2
0,761,target,"[(1055, 821)]",[],[1],[0.1],horizontal,"(890.0, 762.0)",1.4833333333333334,0.067,0,7191.467,0
0,762,target,"[(1054, 821)]",[],[1],[0.6],horizontal,"(890.0, 262.0)",0.6166666666666667,0.557,1,7196.232,1
0,763,target,"[(1027, 805)]",[],[1],[0.5666666666666667],vertical,"(390.0, 262.0)",0.7833333333333333,0.527,1,7200.969,1
0,764,target,"[(1055, 786)]",[],[1],[0.6833333333333333],horizontal,"(890.0, 762.0)",0.85,0.634,1,7205.772,1
0,765,target,"[(1040, 798)]",[],[1],[],vertical,"(890.0, 762.0)",,"('cti', 1.607)",0,7210.451,0
0,766,target,"[(1051, 816)]",[],[1],[0.5333333333333333],horizontal,"(390.0, 262.0)",1.1666666666666667,0.492,1,7215.644,1
0,767,target,"[(1058, 820)]",[],[1],[0.6333333333333333],vertical,"(890.0, 262.0)",0.9666666666666667,0.59,1,7220.677,1
0,768,target,"[(1053, 811)]",[],[1],[0.6],vertical,"(890.0, 262.0)",1.0166666666666666,0.555,1,7225.716,1
0,769,target,"[(1056, 792)]",[],[1],[0.65],vertical,"(390.0, 762.0)",1.0,0.624,1,7230.376,2
0,770,target,"[(1049, 795)]",[],[1],[0.43333333333333335],vertical,"(890.0, 762.0)",1.25,0.393,1,7235.378,1
0,771,catch,"[(1054, 798)]",[],[1],[],vertical,"(390.0, 262.0)",1.3666666666666667,nan,1,7240.351,1
0,772,target,"[(1057, 808)]",[],[1],[0.6],horizontal,"(390.0, 762.0)",1.1833333333333333,0.556,1,7244.906,1
0,773,target,"[(1053, 804)]",[],[1],[0.4166666666666667],vertical,"(390.0, 762.0)",1.35,0.38,1,7249.899,3
0,774,target,"[(1055, 804)]",[],[1],[0.6166666666666667],horizontal,"(890.0, 762.0)",0.75,0.577,1,7255.441,1
0,775,target,"[(1068, 817)]",[],[1],[0.45],vertical,"(890.0, 262.0)",1.1,0.41,1,7260.061,1
0,776,target,"[(1053, 799)]",[],[1],[0.5666666666666667],vertical,"(390.0, 262.0)",0.55,0.525,1,7265.172,1
0,777,target,"[(1051, 799)]",[],[1],[0.5833333333333334],horizontal,"(890.0, 262.0)",0.5833333333333334,0.545,1,7269.152,2
0,778,target,"[(1038, 807)]",[],[1],[0.5833333333333334],vertical,"(890.0, 262.0)",0.5166666666666666,0.54,1,7273.933,1
0,779,target,"[(1040, 814)]",[],[1],[0.85],vertical,"(390.0, 762.0)",1.6,"('cti', 1.582),nan",0,7278.401,0
0,780,target,"[(1029, 844)]",[],[1],[0.48333333333333334],horizontal,"(390.0, 262.0)",1.6666666666666667,0.446,1,7284.067,1
0,781,target,"[(1056, 802)]",[],[1],[0.5833333333333334],vertical,"(390.0, 262.0)",0.9833333333333333,0.557,1,7289.387,1
0,782,target,"[(1033, 791)]",[],[1],[0.5666666666666667],vertical,"(890.0, 262.0)",0.75,0.524,1,7294.215,1
0,783,target,"[(1053, 801)]",[],[1],[0.5833333333333334],horizontal,"(390.0, 262.0)",0.6,0.539,1,7298.917,2
0,784,target,"[(1038, 783)]",[],[1],[0.6166666666666667],horizontal,"(890.0, 762.0)",0.95,0.57,1,7303.733,1
0,785,target,"[(1033, 804)]",[],[1],[0.6],horizontal,"(890.0, 262.0)",0.65,0.559,1,7308.711,1
0,786,target,"[(1035, 813)]",[],[1],[0.11666666666666667],horizontal,"(390.0, 262.0)",1.2666666666666666,0.084,0,7313.167,0
0,787,target,"[(1029, 809)]",[],[1],[0.8166666666666667],vertical,"(390.0, 762.0)",0.5666666666666667,0.773,1,7317.949,1
0,788,target,"[(1058, 795)]",[],[1],[0.6833333333333333],vertical,"(390.0, 262.0)",1.0166666666666666,0.637,1,7322.817,1
0,789,target,"[(1036, 808)]",[],[1],[0.85],vertical,"(390.0, 762.0)",0.6166666666666667,nan,0,7327.867,0
0,790,target,"[(1033, 813)]",[],[1],[0.7],vertical,"(390.0, 262.0)",1.0166666666666666,0.655,1,7332.011,1
0,791,target,"[(1055, 801)]",[],[1],[0.55],horizontal,"(390.0, 762.0)",1.2833333333333332,0.513,1,7337.184,1
0,792,target,"[(1056, 806)]",[],[1],[0.6],vertical,"(390.0, 262.0)",1.35,0.562,1,7342.167,1
0,793,target,"[(1052, 825)]",[],[1],[0.5833333333333334],horizontal,"(390.0, 262.0)",0.6333333333333333,0.544,1,7347.345,2
0,794,target,"[(1029, 844)]",[],[1],[],vertical,"(390.0, 762.0)",,"('cti', 1.303)",0,7352.216,0
0,795,target,"[(1041, 802)]",[],[1],[0.5833333333333334],vertical,"(890.0, 262.0)",1.2333333333333334,0.542,1,7357.637,1
0,796,target,"[(1042, 800)]",[],[1],[0.6],vertical,"(390.0, 762.0)",1.1,0.561,1,7362.834,1
0,797,target,"[(1050, 808)]",[],[1],[0.6],vertical,"(390.0, 262.0)",1.1166666666666667,0.561,1,7367.719,1
0,798,target,"[(1072, 821)]",[],[1],[0.2],vertical,"(390.0, 762.0)",1.6833333333333333,0.167,1,7372.58,2
0,799,target,"[(1058, 798)]",[],[1],[0.85],vertical,"(390.0, 762.0)",1.15,nan,0,7378.083,0
0,800,target,"[(1046, 815)]",[],[1],[0.6666666666666666],vertical,"(390.0, 762.0)",0.5166666666666666,0.625,1,7382.953,1
0,801,target,"[(1053, 806)]",[],[1],[0.6333333333333333],vertical,"(890.0, 262.0)",0.6333333333333333,0.597,1,7387.58,1
0,802,target,"[(1027, 837)]",[],[1],[0.11666666666666667],vertical,"(390.0, 762.0)",1.55,0.084,0,7392.137,0
0,803,target,"[(1039, 820)]",[],[1],[0.5833333333333334],vertical,"(390.0, 262.0)",1.45,0.547,1,7396.968,1
0,804,target,"[(1051, 796)]",[],[1],[0.5166666666666666],vertical,"(890.0, 262.0)",0.8666666666666667,0.483,1,7402.068,1
0,805,catch,"[(1053, 815)]",[],[1],[],vertical,"(390.0, 262.0)",,"('cti', 1.133),nan",0,7406.36,0
0,806,target,"[(1029, 816)]",[],[1],[0.65],horizontal,"(890.0, 262.0)",0.9166666666666666,0.606,1,7411.201,1
0,807,target,"[(1042, 806)]",[],[1],[0.5333333333333333],vertical,"(890.0, 762.0)",0.95,0.491,1,7416.127,1
0,808,target,"[(1057, 795)]",[],[1],[0.5166666666666666],vertical,"(890.0, 262.0)",1.15,0.482,1,7420.609,1
0,809,target,"[(1053, 807)]",[],[1],[0.6333333333333333],vertical,"(390.0, 762.0)",1.1666666666666667,0.595,1,7425.303,2
0,810,target,"[(1075, 795)]",[],[1],[0.16666666666666666],vertical,"(890.0, 262.0)",1.5833333333333333,0.132,1,7430.557,1
0,811,target,"[(1049, 824)]",[],[1],[0.13333333333333333],horizontal,"(890.0, 262.0)",1.5166666666666666,0.101,1,7435.53,1
0,812,target,"[(1026, 795)]",[],[1],[0.5333333333333333],vertical,"(890.0, 262.0)",0.7,0.495,1,7440.469,1
0,813,target,"[(1057, 805)]",[],[1],[0.7333333333333333],horizontal,"(390.0, 762.0)",0.5666666666666667,0.692,1,7445.12,3
0,814,target,"[(1035, 799)]",[],[1],[0.3],vertical,"(390.0, 762.0)",1.5166666666666666,0.266,1,7450.741,1
0,815,target,"[(1033, 796)]",[],[1],[0.4],vertical,"(390.0, 262.0)",1.2666666666666666,0.363,1,7455.564,1
0,816,target,"[(1034, 796)]",[],[1],[0.7833333333333333],horizontal,"(390.0, 762.0)",0.5666666666666667,0.74,1,7460.804,1
0,817,target,"[(1041, 803)]",[],[1],[0.05],vertical,"(890.0, 262.0)",1.5166666666666666,0.02,0,7465.589,0
0,818,target,"[(1054, 833)]",[],[1],[0.4666666666666667],vertical,"(890.0, 262.0)",1.6833333333333333,0.429,1,7470.286,1
0,819,target,"[(1035, 806)]",[],[1],[0.4],horizontal,"(890.0, 762.0)",1.6166666666666667,0.362,1,7475.768,1
0,820,target,"[(1033, 807)]",[],[1],[0.5],horizontal,"(890.0, 262.0)",1.3,0.461,1,7481.217,1
0,821,target,"[(1058, 791)]",[],[1],[0.75],vertical,"(390.0, 762.0)",0.9,0.704,1,7485.99,2
0,822,target,"[(1072, 796)]",[],[1],[0.5666666666666667],vertical,"(890.0, 762.0)",0.55,0.528,1,7491.155,1
0,823,target,"[(1037, 811)]",[],[1],[0.5833333333333334],vertical,"(390.0, 262.0)",0.5333333333333333,0.54,1,7495.353,1
0,824,target,"[(1053, 803)]",[],[1],[0.55],horizontal,"(390.0, 262.0)",0.75,0.515,1,7500.055,1
0,825,target,"[(1046, 803)]",[],[1],[0.8333333333333334],horizontal,"(890.0, 262.0)",0.6833333333333333,0.786,1,7504.718,3
0,826,target,"[(1026, 818)]",[],[1],[0.5666666666666667],vertical,"(890.0, 762.0)",0.9833333333333333,0.531,1,7510.041,1
0,827,target,"[(1053, 811)]",[],[1],[0.06666666666666667],horizontal,"(890.0, 762.0)",1.4166666666666667,0.036,0,7514.94,0
0,828,target,"[(1029, 803)]",[],[1],[0.31666666666666665],vertical,"(890.0, 762.0)",1.3166666666666667,0.282,1,7519.651,1
0,829,target,"[(1067, 796)]",[],[1],[0.5],vertical,"(890.0, 762.0)",1.15,0.459,1,7524.301,1
0,830,target,"[(1030, 809)]",[],[1],[0.16666666666666666],horizontal,"(390.0, 762.0)",1.4833333333333334,0.134,1,7529.652,1
0,831,target,"[(1032, 790)]",[],[1],[0.6833333333333333],vertical,"(390.0, 262.0)",0.8,0.642,1,7535.01,2
0,832,target,"[(1052, 806)]",[],[1],[0.26666666666666666],horizontal,"(390.0, 262.0)",1.3333333333333333,0.233,1,7540.359,1
0,833,target,"[(1030, 798)]",[],[1],[],vertical,"(890.0, 262.0)",,"('cti', 1.603)",0,7545.475,0
0,834,target,"[(1057, 808)]",[],[1],[0.16666666666666666],vertical,"(390.0, 762.0)",1.3166666666666667,0.135,1,7552.409,1
0,835,target,"[(1032, 820)]",[],[1],[],vertical,"(890.0, 762.0)",,"('cti', 1.495)",0,7557.063,0
0,836,target,"[(1037, 803)]",[],[1],[0.5666666666666667],horizontal,"(890.0, 262.0)",0.9,0.526,1,7561.935,1
0,837,target,"[(1033, 823)]",[],[1],[0.4666666666666667],horizontal,"(890.0, 262.0)",1.25,0.426,1,7566.162,1
0,838,target,"[(1026, 788)]",[],[1],[0.5833333333333334],vertical,"(390.0, 762.0)",0.6666666666666666,0.54,1,7571.237,1
0,839,target,"[(1033, 803)]",[],[1],[0.16666666666666666],vertical,"(390.0, 762.0)",1.4,0.136,1,7575.694,2
0,840,target,"[(1033, 773)]",[],[1],[0.6666666666666666],vertical,"(390.0, 762.0)",0.7,0.629,1,7581.183,1
0,841,target,"[(1026, 864)]",[],[1],[0.85],horizontal,"(890.0, 262.0)",0.9666666666666667,nan,0,7585.918,0
0,842,target,"[(1007, 861)]",[],[1],[0.85],horizontal,"(390.0, 762.0)",0.6166666666666667,nan,0,9399.068,0
0,843,catch,"[(1039, 834)]",[],[1],[],horizontal,"(890.0, 762.0)",1.1166666666666667,nan,1,9403.263,1
0,844,target,"[(455, 590), (1040, 849)]",[],"[0, 1]",[0.5833333333333334],vertical,"(890.0, 262.0)",1.4,0.539,1,9407.932,1
0,845,target,"[(1047, 827)]",[],[1],[0.7666666666666666],horizontal,"(890.0, 762.0)",0.9333333333333333,0.727,1,9423.045,1
0,846,target,"[(1044, 841)]",[],[1],[0.5666666666666667],vertical,"(890.0, 262.0)",0.9666666666666667,0.525,1,9428.364,2
0,847,target,"[(1052, 849)]",[],[1],[0.55],horizontal,"(390.0, 762.0)",0.9833333333333333,0.505,1,9433.63,1
0,848,target,"[(1045, 825)]",[],[1],[0.18333333333333332],vertical,"(890.0, 762.0)",1.5,0.153,1,9438.514,1
0,849,target,"[(1051, 847)]",[],[1],[0.26666666666666666],horizontal,"(890.0, 262.0)",1.4666666666666666,0.234,1,9443.273,1
0,850,target,"[(1048, 872)]",[],[1],[0.85],vertical,"(390.0, 262.0)",1.6666666666666667,nan,0,9448.664,0
0,851,target,"[(1014, 831)]",[],[1],[0.35],horizontal,"(390.0, 762.0)",1.4833333333333334,0.311,1,9454.155,1
0,852,target,"[(1036, 839)]",[],[1],[0.4666666666666667],horizontal,"(390.0, 262.0)",1.1833333333333333,0.425,1,9459.347,1
0,853,target,"[(1057, 826)]",[],[1],[0.75],vertical,"(890.0, 262.0)",0.75,0.71,1,9464.538,1
0,854,catch,"[(1072, 826)]",[],[1],[],horizontal,"(390.0, 262.0)",1.2,nan,1,9469.363,2
0,855,target,"[(1026, 838)]",[],[1],[],vertical,"(890.0, 262.0)",,"('cti', 1.144)",0,9474.484,0
0,856,target,"[(1026, 827)]",[],[1],[0.5833333333333334],vertical,"(890.0, 762.0)",1.0666666666666667,0.545,1,9478.803,1
0,857,target,"[(1037, 824)]",[],[1],[0.5833333333333334],vertical,"(390.0, 762.0)",0.5,0.545,1,9484.014,1
0,858,target,"[(1030, 809)]",[],[1],[0.6],vertical,"(890.0, 762.0)",0.9833333333333333,0.554,1,9488.553,1
0,859,target,"[(1042, 821)]",[],[1],[0.5166666666666666],vertical,"(390.0, 262.0)",0.8666666666666667,0.475,1,9493.664,2
0,860,target,"[(1057, 821)]",[],[1],[0.75],horizontal,"(890.0, 262.0)",0.65,0.706,1,9498.853,1
0,861,target,"[(1056, 834)]",[],[1],[0.5166666666666666],vertical,"(390.0, 762.0)",1.15,0.481,1,9503.8,1
0,862,target,"[(1062, 821)]",[],[1],[0.16666666666666666],vertical,"(390.0, 262.0)",1.2,0.132,1,9509.036,1
0,863,target,"[(1074, 839)]",[],[1],[0.55],horizontal,"(390.0, 262.0)",0.95,0.509,1,9513.776,3
0,864,target,"[(1056, 838)]",[],[1],[0.6666666666666666],horizontal,"(890.0, 762.0)",1.2833333333333332,0.629,1,9519.782,1
0,865,target,"[(1057, 842)]",[],[1],[0.5],vertical,"(390.0, 262.0)",0.5833333333333334,0.46,1,9525.148,1
0,866,catch,"[(1036, 809)]",[],[1],[],horizontal,"(890.0, 762.0)",1.3666666666666667,nan,1,9529.898,1
0,867,target,"[(1041, 813)]",[],[1],[0.6333333333333333],vertical,"(390.0, 762.0)",0.7,0.592,1,9535.081,2
0,868,target,"[(1034, 821)]",[],[1],[0.36666666666666664],horizontal,"(390.0, 762.0)",1.4166666666666667,0.327,1,9540.031,1
0,869,target,"[(1057, 843)]",[],[1],[],horizontal,"(390.0, 262.0)",,"('cti', 1.141)",0,9545.166,0
0,870,target,"[(1030, 853)]",[],[1],[0.43333333333333335],horizontal,"(890.0, 262.0)",1.3666666666666667,0.398,1,9549.304,1
0,871,target,"[(1061, 823)]",[],[1],[],horizontal,"(890.0, 262.0)",,"('cti', 1.622)",0,9554.566,0
0,872,target,"[(1032, 844)]",[],[1],[0.48333333333333334],vertical,"(890.0, 262.0)",1.45,0.449,1,9559.633,1
0,873,target,"[(1061, 794)]",[],[1],[0.55],horizontal,"(890.0, 762.0)",1.3833333333333333,0.505,1,9564.947,1
0,874,target,"[(1036, 824)]",[],[1],[],vertical,"(890.0, 262.0)",,"('cti', 1.488)",0,9570.482,0
0,875,target,"[(1053, 849)]",[],[1],[0.6166666666666667],horizontal,"(890.0, 762.0)",1.0,0.571,1,9574.98,1
0,876,target,"[(1056, 798)]",[],[1],[],horizontal,"(890.0, 262.0)",,"('cti', 1.506)",0,9580.258,0
0,877,target,"[(1029, 858)]",[],[1],[0.5],vertical,"(890.0, 762.0)",1.2666666666666666,0.46,1,9585.062,1
0,878,target,"[(1053, 809)]",[],[1],[0.08333333333333333],horizontal,"(890.0, 762.0)",1.5833333333333333,0.05,0,9590.324,0
0,879,target,"[(1036, 819)]",[],[1],[0.48333333333333334],vertical,"(890.0, 762.0)",1.5166666666666666,0.446,1,9595.02,1
0,880,target,"[(1037, 819)]",[],[1],[0.4],horizontal,"(390.0, 262.0)",1.3666666666666667,0.363,1,9600.432,1
0,881,target,"[(1057, 809)]",[],[1],[0.2833333333333333],horizontal,"(890.0, 762.0)",1.45,0.249,1,9605.342,1
0,882,target,"[(1057, 829)]",[],[1],[0.15],vertical,"(390.0, 262.0)",1.4333333333333333,0.117,1,9610.513,2
0,883,catch,"[(1058, 809)]",[],[1],[],vertical,"(390.0, 762.0)",1.15,nan,1,9615.964,1
0,884,catch,"[(1029, 825)]",[],[1],[],vertical,"(390.0, 762.0)",1.2,nan,1,9620.412,1
0,885,target,"[(1049, 832)]",[],[1],[0.6333333333333333],vertical,"(890.0, 262.0)",0.9166666666666666,0.588,1,9624.979,1
0,886,target,"[(1041, 802)]",[],[1],[0.5666666666666667],vertical,"(890.0, 762.0)",0.8166666666666667,0.539,1,9629.829,3
0,887,target,"[(1056, 797)]",[],[1],[0.75],vertical,"(890.0, 262.0)",0.6333333333333333,0.701,1,9635.611,1
0,888,catch,"[(1032, 833)]",[],[1],[],horizontal,"(390.0, 262.0)",1.3333333333333333,nan,1,9639.948,1
0,889,target,"[(1040, 815)]",[],[1],[0.5],vertical,"(890.0, 262.0)",0.8,0.466,1,9644.36,1
0,890,target,"[(1041, 787)]",[],[1],[0.2833333333333333],vertical,"(390.0, 262.0)",1.4333333333333333,0.249,1,9648.894,2
0,891,target,"[(1052, 822)]",[],[1],[],vertical,"(890.0, 762.0)",,"('cti', 1.388)",0,9653.847,0
0,892,target,"[(1011, 834)]",[],[1],[0.85],vertical,"(390.0, 262.0)",0.8166666666666667,nan,0,9658.711,0
0,893,target,"[(1035, 835)]",[],[1],[],vertical,"(390.0, 262.0)",,"('cti', 1.555)",0,9663.416,0
0,894,target,"[(1035, 823)]",[],[1],[0.55],horizontal,"(390.0, 262.0)",1.3666666666666667,0.516,1,9667.981,1
0,895,target,"[(1037, 828)]",[],[1],[0.5166666666666666],horizontal,"(890.0, 762.0)",0.9833333333333333,0.474,1,9673.265,1
0,896,target,"[(1048, 822)]",[],[1],[0.13333333333333333],horizontal,"(390.0, 762.0)",1.4333333333333333,0.103,1,9677.798,1
0,897,target,"[(1038, 817)]",[],[1],[0.5666666666666667],vertical,"(890.0, 762.0)",0.75,0.529,1,9682.982,2
0,898,target,"[(1049, 792)]",[],[1],[0.31666666666666665],horizontal,"(890.0, 762.0)",1.25,0.279,1,9687.924,1
0,899,target,"[(1071, 820)]",[],[1],[],horizontal,"(390.0, 262.0)",,"('cti', 1.537)",0,9692.93,0
0,900,target,"[(1031, 833)]",[],[1],[0.55],vertical,"(890.0, 762.0)",1.1,0.506,1,9697.465,1
0,901,target,"[(1040, 825)]",[],[1],[0.26666666666666666],horizontal,"(890.0, 262.0)",1.4166666666666667,0.231,1,9702.549,1
0,902,target,"[(1038, 826)]",[],[1],[0.35],horizontal,"(890.0, 762.0)",1.1166666666666667,0.318,1,9707.253,1
0,903,target,"[(1024, 809)]",[],[1],[0.5],vertical,"(890.0, 262.0)",0.95,0.463,1,9712.247,2
0,904,catch,"[(1055, 804)]",[],[1],[],horizontal,"(890.0, 262.0)",1.25,nan,1,9717.115,1
0,905,target,"[(1041, 817)]",[],[1],[0.6333333333333333],horizontal,"(390.0, 262.0)",0.7333333333333333,0.595,1,9721.713,1
0,906,target,"[(1060, 815)]",[],[1],[0.6833333333333333],horizontal,"(890.0, 762.0)",0.7,0.635,1,9726.116,1
0,907,target,"[(1067, 829)]",[],[1],[0.6666666666666666],horizontal,"(890.0, 262.0)",0.55,0.615,1,9730.464,3
0,908,target,"[(1040, 814)]",[],[1],[0.43333333333333335],horizontal,"(890.0, 262.0)",0.9,0.395,1,9735.76,1
0,909,target,"[(1031, 848)]",[],[1],[0.35],vertical,"(890.0, 262.0)",0.7333333333333333,0.313,1,9740.591,1
0,910,target,"[(1029, 844)]",[],[1],[0.5],vertical,"(890.0, 762.0)",1.05,0.459,1,9745.96,1
0,911,catch,"[(1031, 820)]",[],[1],[],horizontal,"(890.0, 762.0)",,"('cti', 1.529),nan",0,9751.089,0
0,912,target,"[(1033, 847)]",[],[1],[0.6333333333333333],vertical,"(890.0, 762.0)",0.5833333333333334,0.588,1,9756.007,1
0,913,target,"[(1065, 829)]",[],[1],[0.5],horizontal,"(390.0, 762.0)",1.1333333333333333,0.46,1,9760.347,1
0,914,target,"[(1041, 813)]",[],[1],[],horizontal,"(890.0, 762.0)",,"('cti', 1.537)",0,9765.448,0
0,915,target,"[(1008, 826)]",[],[1],[0.6666666666666666],horizontal,"(890.0, 762.0)",0.5666666666666667,0.618,1,9770.197,1
0,916,target,"[(1059, 811)]",[],[1],[0.5333333333333333],vertical,"(390.0, 262.0)",0.5166666666666666,0.491,1,9774.462,1
0,917,target,"[(1058, 815)]",[],[1],[],vertical,"(890.0, 262.0)",,"('cti', 1.08)",0,9778.668,0
0,918,target,"[(1029, 829)]",[],[1],[0.5333333333333333],vertical,"(390.0, 262.0)",0.6166666666666667,0.489,1,9783.36,1
