block,trial,trial_type,taps_start_loc_during_fix,taps_end_loc_during_fix,taps_on_lever_during_fix,taps_on_lever_s_during_fix,bar_orientation,target_xy,cti,rt,acc,time,pulses,fa_rate_recent100,actual_invalid_type
0,1,valid,"[(1050, 823)]",[],[1],[0.4166666666666667],horizontal,"(390.0, 262.0)",0.6666666666666666,0.384,1,0.498,1,0.0,same
0,2,valid,"[(1059, 880)]",[],[1],[],horizontal,"(390.0, 262.0)",,"('cti', 0.633)",0,6.151,0,0.0,same
0,3,valid,"[(1119, 880)]",[],[1],[0.3833333333333333],horizontal,"(390.0, 262.0)",0.5166666666666666,0.347,1,9.983,1,0.0,same
0,4,valid,"[(1099, 836)]",[],[1],[0.5],vertical,"(890.0, 262.0)",0.35,0.463,1,15.649,1,0.0,same
0,5,valid,"[(1145, 838)]",[],[1],[],horizontal,"(390.0, 762.0)",,"('cti', 1.05)",0,163.164,0,0.0,same
0,6,valid,"[(1160, 824)]",[],[1],[0.8166666666666667],horizontal,"(890.0, 762.0)",0.5,0.772,1,172.044,1,0.0,same
0,7,valid,"[(1177, 815)]",[],[1],[0.85],vertical,"(890.0, 762.0)",0.55,nan,0,176.798,0,0.0,same
0,8,valid,"[(1142, 786)]",[],[1],[0.5],vertical,"(890.0, 762.0)",0.8,0.466,1,181.328,1,0.0,same
0,9,catch,"[(1175, 815)]",[],[1],[],horizontal,"(890.0, 262.0)",1.7,nan,1,186.615,1,0.0,same
0,10,valid,"[(1165, 794)]",[],[1],[0.4666666666666667],horizontal,"(390.0, 262.0)",1.0,0.438,1,191.847,1,0.0,same
0,11,catch,"[(1165, 795)]",[],[1],[],vertical,"(390.0, 762.0)",1.7,nan,1,196.704,2,0.0,same
0,12,valid,"[(1164, 801)]",[],[1],[0.85],horizontal,"(390.0, 762.0)",0.5166666666666666,nan,0,202.173,0,0.0,same
0,13,valid,"[(1165, 818)]",[],[1],[],horizontal,"(890.0, 262.0)",,"('cti', 1.055)",0,206.703,0,0.0,same
0,14,valid,"[(1144, 842)]",[],[1],[0.15],horizontal,"(390.0, 262.0)",1.1833333333333333,0.12,0,211.185,0,0.0,same
0,15,valid,"[(1157, 842)]",[],[1],[0.4666666666666667],horizontal,"(390.0, 262.0)",1.1166666666666667,0.439,1,229.782,1,0.0,same
0,16,catch,"[(1175, 818)]",[],[1],[],vertical,"(890.0, 262.0)",,"('cti', 1.409),nan",0,235.081,0,0.0625,same
0,17,invalid_same_bar,"[(1149, 822)]",[],[1],[0.5333333333333333],horizontal,"(390.0, 262.0)",0.7666666666666666,0.488,1,239.49,1,0.058823529411764705,same
0,18,valid,"[(1157, 814)]",[],[1],[0.5666666666666667],vertical,"(890.0, 762.0)",0.4666666666666667,0.526,1,627.15,1,0.05555555555555555,same
0,19,valid,"[(1159, 775)]",[],[1],[0.85],vertical,"(390.0, 762.0)",0.6,nan,0,631.928,0,0.05263157894736842,same
0,20,valid,"[(1154, 801)]",[],[1],[0.5166666666666666],horizontal,"(890.0, 762.0)",0.35,0.479,1,636.478,1,0.05,same
0,21,valid,"[(1170, 775)]",[],[1],[0.5333333333333333],vertical,"(390.0, 262.0)",1.0333333333333332,0.493,1,641.069,1,0.047619047619047616,same
0,22,valid,"[(1166, 786)]",[],[1],[0.55],vertical,"(390.0, 762.0)",0.7166666666666667,0.51,1,646.069,1,0.045454545454545456,same
0,23,valid,"[(1178, 776)]",[],[1],[0.21666666666666667],horizontal,"(890.0, 262.0)",1.3333333333333333,0.18,0,651.13,0,0.043478260869565216,same
0,24,valid,"[(1175, 807)]",[],[1],[0.6666666666666666],vertical,"(390.0, 762.0)",1.3333333333333333,0.619,1,656.152,1,0.041666666666666664,same
0,25,valid,"[(1165, 807)]",[],[1],[0.5166666666666666],horizontal,"(890.0, 762.0)",1.3,0.474,1,661.469,1,0.04,same
0,26,valid,"[(1179, 789)]","[(1174, 825)]",[1],[0.15],vertical,"(890.0, 762.0)",,"('bar', 0.161)",0,666.504,0,0.038461538461538464,same
0,27,valid,"[(1167, 821)]",[],[1],[0.65],horizontal,"(390.0, 762.0)",0.85,0.603,1,668.735,1,0.037037037037037035,same
0,28,valid,"[(1181, 797)]",[],[1],[0.55],vertical,"(390.0, 262.0)",0.36666666666666664,0.504,1,673.604,1,0.03571428571428571,same
0,29,valid,"[(1176, 792)]",[],[1],[0.4666666666666667],vertical,"(390.0, 262.0)",1.5,0.426,1,678.084,1,0.034482758620689655,same
0,30,valid,"[(1190, 790)]",[],[1],[0.6166666666666667],horizontal,"(390.0, 262.0)",0.6,0.571,1,683.366,2,0.03333333333333333,same
0,31,valid,"[(1190, 794)]",[],[1],[0.7166666666666667],vertical,"(390.0, 262.0)",0.9166666666666666,0.667,1,688.868,2,0.03225806451612903,same
0,32,invalid_same_bar,"[(1180, 790)]",[],[1],[0.85],horizontal,"(390.0, 762.0)",0.55,nan,0,694.193,0,0.03125,same
0,33,valid,"[(1206, 778)]",[],[1],[0.5166666666666666],horizontal,"(390.0, 762.0)",0.45,0.473,1,698.533,1,0.030303030303030304,same
0,34,valid,"[(1178, 784)]",[],[1],[0.5333333333333333],horizontal,"(390.0, 262.0)",0.7333333333333333,0.494,1,703.239,1,0.029411764705882353,same
0,35,catch,"[(1178, 794)]",[],[1],[],horizontal,"(390.0, 262.0)",1.7,nan,1,708.002,1,0.02857142857142857,same
0,36,valid,"[(1175, 814)]",[],[1],[0.23333333333333334],horizontal,"(890.0, 762.0)",1.35,0.198,0,713.051,0,0.027777777777777776,same
0,37,valid,"[(1175, 814)]",[],[1],[0.85],horizontal,"(390.0, 762.0)",1.0,nan,0,718.118,0,0.02702702702702703,same
0,38,valid,"[(1165, 813)]",[],[1],[0.2833333333333333],vertical,"(890.0, 262.0)",1.4166666666666667,0.246,1,723.418,1,0.02631578947368421,same
0,39,valid,"[(1169, 809)]",[],[1],[0.48333333333333334],vertical,"(390.0, 262.0)",1.0333333333333332,0.439,1,729.219,1,0.02564102564102564,same
0,40,valid,"[(1169, 808)]",[],[1],[0.6],vertical,"(390.0, 262.0)",1.0,0.553,1,734.168,1,0.025,same
0,41,valid,"[(1175, 802)]",[],[1],[0.55],horizontal,"(890.0, 762.0)",1.4333333333333333,0.505,1,739.368,2,0.024390243902439025,same
0,42,valid,"[(1175, 809)]",[],[1],[0.25],vertical,"(390.0, 262.0)",1.5166666666666666,0.213,1,745.722,2,0.023809523809523808,same
0,43,catch,"[(1172, 786)]","[(1169, 826)]",[1],[0.23333333333333334],horizontal,"(890.0, 262.0)",,"('bar', 0.249),nan",0,751.379,0,0.046511627906976744,same
0,44,catch,"[(1158, 795)]",[],[1],[],vertical,"(390.0, 262.0)",,"('cti', 1.224),nan",0,753.901,0,0.06818181818181818,same
0,45,valid,"[(1180, 819)]",[],[1],[0.5],horizontal,"(390.0, 762.0)",0.9666666666666667,0.457,1,758.452,1,0.06666666666666667,same
0,46,catch,"[(1175, 775)]",[],[1],[],vertical,"(890.0, 762.0)",1.7,nan,1,763.702,1,0.06521739130434782,same
0,47,valid,"[(1188, 808)]",[],[1],[0.43333333333333335],horizontal,"(890.0, 762.0)",1.5,0.398,1,769.017,1,0.06382978723404255,same
0,48,valid,"[(1174, 784)]",[],[1],[0.55],vertical,"(890.0, 262.0)",1.2333333333333334,0.505,1,774.581,2,0.0625,same
0,49,invalid_same_bar,"[(1170, 787)]",[],[1],[0.4166666666666667],vertical,"(390.0, 762.0)",1.4666666666666666,0.375,1,780.236,2,0.061224489795918366,same
0,50,valid,"[(1180, 791)]",[],[1],[0.6666666666666666],vertical,"(890.0, 762.0)",1.2666666666666666,0.621,1,786.0,2,0.06,same
0,51,valid,"[(1175, 791)]",[],[1],[0.85],horizontal,"(890.0, 762.0)",1.0,nan,0,791.667,0,0.06,same
0,52,valid,"[(1163, 814)]",[],[1],[0.5166666666666666],vertical,"(390.0, 262.0)",1.4166666666666667,0.476,1,796.348,1,0.06,same
0,53,catch,"[(1171, 793)]",[],[1],[],vertical,"(390.0, 262.0)",1.7,nan,1,801.767,1,0.06,same
0,54,valid,"[(1175, 813)]",[],[1],[0.48333333333333334],horizontal,"(890.0, 762.0)",0.48333333333333334,0.447,1,807.368,1,0.06,same
0,55,valid,"[(1175, 799)]",[],[1],[0.5666666666666667],vertical,"(890.0, 262.0)",1.1666666666666667,0.528,1,811.749,2,0.06,same
0,56,valid,"[(1175, 801)]",[],[1],[],horizontal,"(890.0, 262.0)",,"('cti', 1.253)",0,817.145,0,0.06,same
0,57,catch,"[(1183, 823)]",[],[1],[],vertical,"(890.0, 762.0)",1.7,nan,1,821.602,1,0.06,same
0,58,valid,"[(1170, 797)]",[],[1],[0.6166666666666667],horizontal,"(890.0, 262.0)",1.0833333333333333,0.576,1,826.594,1,0.06,same
0,59,valid,"[(1178, 807)]",[],[1],[0.55],vertical,"(890.0, 262.0)",0.4,0.514,1,831.971,1,0.06,same
0,60,valid,"[(1175, 798)]",[],[1],[0.48333333333333334],horizontal,"(890.0, 762.0)",0.65,0.445,1,836.352,2,0.06,same
0,61,valid,"[(1169, 780)]",[],[1],[0.7166666666666667],vertical,"(890.0, 762.0)",0.36666666666666664,0.672,1,841.324,2,0.06,same
0,62,catch,"[(1172, 803)]",[],[1],[],vertical,"(890.0, 262.0)",1.7,nan,1,846.726,2,0.06,same
0,63,valid,"[(1171, 794)]",[],[1],[0.7166666666666667],vertical,"(890.0, 762.0)",0.9666666666666667,0.667,1,852.264,3,0.06,same
0,64,valid,"[(1180, 804)]",[],[1],[0.7],vertical,"(890.0, 762.0)",0.9166666666666666,0.65,1,858.168,3,0.06,same
0,65,catch,"[(1180, 815)]",[],[1],[],horizontal,"(890.0, 262.0)",1.7,nan,1,864.319,3,0.06,same
0,66,valid,"[(1174, 823)]",[],[1],[0.6166666666666667],vertical,"(390.0, 762.0)",0.4666666666666667,0.577,1,870.034,3,0.04,same
0,67,valid,"[(1175, 804)]",[],[1],[0.48333333333333334],vertical,"(390.0, 262.0)",1.2,0.444,1,875.131,3,0.04,same
0,68,catch,"[(1170, 804)]",[],[1],[],vertical,"(390.0, 262.0)",,"('cti', 1.667),nan",0,881.119,0,0.06,same
0,69,valid,"[(1175, 802)]",[],[1],[0.5666666666666667],vertical,"(390.0, 762.0)",1.25,0.52,1,885.73,1,0.06,same
0,70,valid,"[(1166, 775)]",[],[1],[0.5833333333333334],horizontal,"(890.0, 762.0)",1.2,0.539,1,890.689,1,0.06,same
0,71,valid,"[(1177, 814)]",[],[1],[0.4166666666666667],horizontal,"(390.0, 262.0)",0.8666666666666667,0.375,1,896.053,1,0.06,same
0,72,catch,"[(1166, 795)]",[],[1],[],vertical,"(890.0, 762.0)",1.7,nan,1,901.311,2,0.06,same
0,73,valid,"[(1170, 795)]",[],[1],[],horizontal,"(890.0, 262.0)",,"('cti', 0.974)",0,907.053,0,0.06,same
0,74,valid,"[(1170, 796)]",[],[1],[0.6166666666666667],vertical,"(890.0, 762.0)",1.25,0.572,1,911.323,1,0.06,same
0,75,catch,"[(1170, 794)]",[],[1],[],horizontal,"(390.0, 262.0)",1.7,nan,1,916.546,1,0.06,same
0,76,valid,"[(1180, 783)]",[],[1],[0.5166666666666666],horizontal,"(390.0, 762.0)",1.2,0.474,1,922.182,1,0.06,same
0,77,valid,"[(1180, 820)]",[],[1],[0.5333333333333333],vertical,"(390.0, 762.0)",1.1833333333333333,0.489,1,927.568,2,0.06,same
0,78,valid,"[(1180, 788)]",[],[1],[0.6],vertical,"(890.0, 762.0)",0.7166666666666667,0.561,1,933.007,2,0.06,same
0,79,valid,"[(1170, 812)]",[],[1],[0.48333333333333334],vertical,"(890.0, 762.0)",0.8166666666666667,0.443,1,938.618,2,0.06,same
0,80,catch,"[(1171, 819)]",[],[1],[],vertical,"(890.0, 762.0)",1.7,nan,1,943.728,3,0.06,same
0,81,valid,"[(1170, 805)]",[],[1],[0.3333333333333333],vertical,"(390.0, 262.0)",1.0333333333333332,0.291,1,949.681,3,0.06,same
0,82,catch,"[(1170, 816)]",[],[1],[],horizontal,"(890.0, 762.0)",1.7,nan,1,955.662,3,0.06,same
0,83,valid,"[(1170, 789)]",[],[1],[0.6833333333333333],horizontal,"(890.0, 762.0)",1.1833333333333333,0.638,1,961.492,3,0.06,same
0,84,valid,"[(1179, 805)]",[],[1],[0.45],horizontal,"(390.0, 262.0)",1.3,0.41,1,967.385,3,0.06,same
0,85,valid,"[(1172, 793)]",[],[1],[0.5833333333333334],horizontal,"(890.0, 762.0)",0.7,0.54,1,973.144,3,0.06,same
0,86,valid,"[(1184, 792)]",[],[1],[0.55],vertical,"(390.0, 762.0)",0.5333333333333333,0.507,1,978.617,3,0.06,same
0,87,valid,"[(1170, 794)]",[],[1],[0.43333333333333335],vertical,"(890.0, 262.0)",1.4833333333333334,0.396,1,983.984,3,0.06,same
0,88,catch,"[(1165, 798)]",[],[1],[],vertical,"(890.0, 262.0)",1.7,nan,1,990.31,3,0.06,same
0,89,valid,"[(1170, 794)]",[],[1],[0.48333333333333334],horizontal,"(390.0, 262.0)",0.5833333333333334,0.442,1,996.361,3,0.06,same
0,90,valid,"[(1169, 792)]",[],[1],[0.4666666666666667],vertical,"(390.0, 762.0)",1.1833333333333333,0.426,1,1001.485,3,0.06,same
0,91,valid,"[(1184, 785)]",[],[1],[0.6166666666666667],horizontal,"(890.0, 262.0)",0.7166666666666667,0.571,1,1007.552,3,0.06,same
0,92,catch,"[(1178, 796)]",[],[1],[],vertical,"(890.0, 762.0)",1.7,nan,1,1013.152,3,0.06,same
0,93,valid,"[(1178, 786)]",[],[1],[0.5],vertical,"(390.0, 262.0)",0.75,0.46,1,1019.287,3,0.04,same
0,94,catch,"[(1167, 785)]",[],[1],[],vertical,"(390.0, 262.0)",1.7,nan,1,1024.603,3,0.02,same
0,95,valid,"[(1163, 782)]",[],[1],[0.5166666666666666],vertical,"(890.0, 262.0)",1.25,0.474,1,1030.519,3,0.02,same
0,96,catch,"[(1169, 779)]",[],[1],[],horizontal,"(390.0, 262.0)",1.7,nan,1,1036.396,3,0.02,same
0,97,valid,"[(1175, 799)]",[],[1],[0.6666666666666666],vertical,"(890.0, 262.0)",0.5,0.623,1,1042.523,3,0.02,same
0,98,valid,"[(1176, 782)]",[],[1],[0.5166666666666666],horizontal,"(390.0, 762.0)",0.6666666666666666,0.479,1,1048.12,3,0.02,same
0,99,catch,"[(1175, 779)]",[],[1],[],vertical,"(390.0, 762.0)",1.7,nan,1,1053.437,3,0.02,same
0,100,valid,"[(1170, 811)]",[],[1],[0.85],horizontal,"(890.0, 762.0)",0.7333333333333333,nan,0,1059.308,0,0.02,same
0,101,catch,"[(1162, 794)]",[],[1],[],horizontal,"(890.0, 762.0)",,"('cti', 1.534),nan",0,1063.469,0,0.04,same
0,102,valid,"[(1145, 800)]",[],[1],[0.48333333333333334],vertical,"(890.0, 262.0)",1.1,0.442,1,1068.936,1,0.04,same
0,103,valid,"[(1168, 800)]",[],[1],[0.5],horizontal,"(890.0, 262.0)",0.9,0.459,1,1074.336,1,0.04,same
0,104,valid,"[(1147, 769)]",[],[1],[0.5666666666666667],horizontal,"(890.0, 762.0)",0.8,0.524,1,1079.286,1,0.04,same
0,105,valid,"[(1168, 818)]",[],[1],[0.5],vertical,"(890.0, 762.0)",1.2333333333333334,0.457,1,1084.305,2,0.04,same
0,106,valid,"[(1180, 799)]",[],[1],[0.5],horizontal,"(890.0, 262.0)",0.7333333333333333,0.46,1,1090.074,2,0.04,same
0,107,valid,"[(1172, 800)]",[],[1],[0.5166666666666666],horizontal,"(890.0, 262.0)",1.1,0.474,1,1094.871,2,0.04,same
0,108,catch,"[(1170, 791)]",[],[1],[],vertical,"(890.0, 262.0)",1.7,nan,1,1100.571,3,0.04,same
0,109,valid,"[(1171, 794)]",[],[1],[0.6],horizontal,"(390.0, 262.0)",1.15,0.553,1,1106.785,3,0.04,same
0,110,valid,"[(1175, 789)]",[],[1],[0.1],vertical,"(890.0, 262.0)",1.0,0.068,0,1112.821,0,0.04,same
0,111,valid,"[(1168, 814)]",[],[1],[0.5666666666666667],vertical,"(390.0, 262.0)",1.45,0.521,1,1116.92,1,0.04,same
0,112,valid,"[(1161, 781)]",[],[1],[0.65],vertical,"(890.0, 762.0)",1.1666666666666667,0.614,1,1122.17,1,0.04,same
0,113,valid,"[(1163, 777)]",[],[1],[0.36666666666666664],vertical,"(390.0, 262.0)",1.5166666666666666,0.324,1,1127.369,1,0.04,same
0,114,valid,"[(1181, 811)]",[],[1],[0.5166666666666666],vertical,"(390.0, 762.0)",0.9333333333333333,0.484,1,1133.136,2,0.04,same
0,115,valid,"[(1145, 803)]",[],[1],[0.48333333333333334],vertical,"(390.0, 262.0)",1.2833333333333332,0.445,1,1138.786,2,0.04,same
0,116,catch,"[(1165, 809)]",[],[1],[],horizontal,"(890.0, 262.0)",1.7,nan,1,1144.671,2,0.04,same
0,117,valid,"[(1165, 810)]",[],[1],[0.48333333333333334],horizontal,"(390.0, 762.0)",0.35,0.444,1,1150.295,3,0.04,same
0,118,catch,"[(1166, 795)]",[],[1],[],horizontal,"(890.0, 262.0)",1.7,nan,1,1155.177,3,0.02,same
0,119,valid,"[(1178, 797)]",[],[1],[0.5333333333333333],horizontal,"(390.0, 762.0)",0.5,0.502,1,1161.019,3,0.02,same
0,120,valid,"[(1160, 798)]",[],[1],[0.4666666666666667],vertical,"(390.0, 762.0)",0.65,0.425,1,1166.515,3,0.02,same
0,121,catch,"[(1166, 791)]",[],[1],[],vertical,"(890.0, 762.0)",1.7,nan,1,1171.711,3,0.02,same
0,122,valid,"[(1166, 789)]",[],[1],[0.5333333333333333],horizontal,"(390.0, 762.0)",1.4666666666666666,0.49,1,1177.929,3,0.02,same
0,123,valid,"[(1175, 804)]",[],[1],[0.4666666666666667],vertical,"(890.0, 262.0)",1.4166666666666667,0.426,1,1184.362,3,0.02,same
0,124,catch,"[(1165, 790)]",[],[1],[],vertical,"(390.0, 262.0)",1.7,nan,1,1190.171,3,0.02,same
0,125,valid,"[(1170, 784)]",[],[1],[0.48333333333333334],horizontal,"(890.0, 262.0)",0.85,0.445,1,1196.37,3,0.02,same
0,126,valid,"[(1166, 785)]",[],[1],[0.7166666666666667],horizontal,"(390.0, 262.0)",1.25,0.685,1,1201.764,3,0.02,same
0,127,valid,"[(1165, 789)]",[],[1],[0.48333333333333334],vertical,"(890.0, 262.0)",0.8666666666666667,0.447,1,1207.709,3,0.02,same
0,128,valid,"[(1175, 787)]",[],[1],[0.5],horizontal,"(390.0, 262.0)",0.9666666666666667,0.461,1,1213.298,3,0.02,same
0,129,valid,"[(1166, 781)]",[],[1],[0.6166666666666667],vertical,"(390.0, 262.0)",0.36666666666666664,0.573,1,1218.851,3,0.02,same
0,130,catch,"[(1165, 774)]",[],[1],[],horizontal,"(890.0, 762.0)",1.7,nan,1,1224.289,3,0.02,same
0,131,valid,"[(1175, 778)]",[],[1],[0.7166666666666667],vertical,"(390.0, 262.0)",1.0666666666666667,0.671,1,1230.437,3,0.02,same
0,132,valid,"[(1163, 789)]",[],[1],[0.5333333333333333],horizontal,"(890.0, 762.0)",1.45,0.49,1,1236.368,3,0.02,same
0,133,valid,"[(1170, 779)]",[],[1],[0.5666666666666667],vertical,"(390.0, 262.0)",0.65,0.527,1,1242.436,3,0.02,same
0,134,valid,"[(1167, 784)]",[],[1],[0.48333333333333334],vertical,"(390.0, 262.0)",1.1333333333333333,0.447,1,1247.854,3,0.02,same
0,135,catch,"[(1167, 773)]",[],[1],[],vertical,"(890.0, 262.0)",1.7,nan,1,1253.887,3,0.02,same
0,136,catch,"[(1164, 786)]",[],[1],[],vertical,"(390.0, 762.0)",1.7,nan,1,1259.992,3,0.02,same
0,137,valid,"[(1175, 773)]",[],[1],[0.35],vertical,"(890.0, 262.0)",0.7333333333333333,0.313,1,1265.637,3,0.02,same
0,138,valid,"[(1158, 799)]",[],[1],[0.85],vertical,"(390.0, 762.0)",0.4166666666666667,nan,0,1270.721,0,0.02,same
0,139,catch,"[(1140, 777)]",[],[1],[],horizontal,"(890.0, 262.0)",1.7,nan,1,1274.979,1,0.02,same
0,140,catch,"[(1160, 803)]",[],[1],[],horizontal,"(390.0, 762.0)",1.7,"('cti', 1.691),nan",0,1280.577,0,0.04,same
0,141,valid,"[(1165, 796)]",[],[1],[0.6333333333333333],horizontal,"(390.0, 762.0)",0.75,0.593,1,1285.67,1,0.04,same
0,142,valid,"[(1170, 777)]",[],[1],[0.5333333333333333],horizontal,"(390.0, 762.0)",0.6833333333333333,0.496,1,1290.27,1,0.04,same
0,143,valid,"[(1163, 781)]",[],[1],[0.65],vertical,"(390.0, 762.0)",1.0833333333333333,0.61,1,1295.421,1,0.04,same
0,144,valid,"[(1170, 795)]",[],[1],[0.5833333333333334],horizontal,"(890.0, 262.0)",1.05,0.543,1,1300.671,2,0.04,same
0,145,valid,"[(1135, 783)]",[],[1],[0.7666666666666666],horizontal,"(390.0, 262.0)",0.9166666666666666,0.73,1,1305.938,2,0.04,same
0,146,valid,"[(1162, 789)]",[],[1],[0.7],vertical,"(890.0, 762.0)",1.4333333333333333,0.657,1,1311.803,2,0.04,same
0,147,valid,"[(1166, 814)]",[],[1],[0.55],horizontal,"(390.0, 762.0)",0.85,0.511,1,1318.107,3,0.04,same
0,148,catch,"[(1165, 789)]",[],[1],[],horizontal,"(390.0, 762.0)",1.7,nan,1,1323.721,3,0.04,same
0,149,valid,"[(1169, 779)]",[],[1],[0.5666666666666667],horizontal,"(890.0, 262.0)",1.2166666666666666,0.522,1,1329.724,3,0.04,same
0,150,catch,"[(1168, 803)]",[],[1],[],vertical,"(390.0, 762.0)",1.7,nan,1,1335.937,3,0.04,same
0,151,valid,"[(1164, 786)]",[],[1],[0.85],horizontal,"(390.0, 262.0)",1.1166666666666667,nan,0,1342.087,0,0.02,same
0,152,valid,"[(1165, 781)]",[],[1],[0.55],vertical,"(390.0, 262.0)",1.4166666666666667,0.511,1,1347.055,1,0.02,same
0,153,valid,"[(1183, 781)]",[],[1],[0.85],horizontal,"(890.0, 262.0)",0.9833333333333333,nan,0,1352.324,0,0.02,same
0,154,valid,"[(1165, 774)]",[],[1],[0.5666666666666667],vertical,"(890.0, 262.0)",1.0166666666666666,0.528,1,1357.287,1,0.02,same
0,155,valid,"[(1170, 792)]",[],[1],[0.18333333333333332],horizontal,"(890.0, 762.0)",1.4166666666666667,0.15,0,1362.187,0,0.02,same
0,156,valid,"[(1160, 808)]",[],[1],[0.55],vertical,"(390.0, 762.0)",0.85,0.507,1,1366.804,1,0.02,same
0,157,valid,"[(1169, 774)]",[],[1],[0.6333333333333333],vertical,"(890.0, 262.0)",0.9,0.594,1,1372.245,1,0.02,same
0,158,valid,"[(1180, 783)]",[],[1],[0.5],vertical,"(890.0, 262.0)",1.35,0.46,1,1377.015,1,0.02,same
0,159,catch,"[(1174, 784)]",[],[1],[],horizontal,"(890.0, 262.0)",1.7,nan,1,1382.406,2,0.02,same
0,160,catch,"[(1176, 773)]",[],[1],[],horizontal,"(390.0, 762.0)",1.7,nan,1,1388.338,2,0.02,same
0,161,valid,"[(1182, 783)]",[],[1],[0.55],vertical,"(390.0, 262.0)",0.65,0.511,1,1393.837,2,0.02,same
0,162,catch,"[(1175, 781)]",[],[1],[],vertical,"(890.0, 262.0)",1.7,nan,1,1399.036,3,0.02,same
0,163,valid,"[(1180, 784)]",[],[1],[0.5333333333333333],horizontal,"(890.0, 262.0)",0.5666666666666667,0.494,1,1405.33,3,0.02,same
0,164,valid,"[(1160, 774)]",[],[1],[0.5833333333333334],horizontal,"(390.0, 262.0)",1.3666666666666667,0.544,1,1410.831,3,0.02,same
0,165,valid,"[(1180, 790)]",[],[1],[0.6],vertical,"(390.0, 762.0)",0.6666666666666666,0.557,1,1417.123,3,0.02,same
0,166,valid,"[(1162, 782)]",[],[1],[0.5333333333333333],vertical,"(890.0, 762.0)",0.7333333333333333,0.49,1,1422.386,3,0.02,same
0,167,valid,"[(1165, 788)]",[],[1],[0.8],horizontal,"(390.0, 762.0)",0.6,0.76,1,1427.866,3,0.02,same
0,168,valid,"[(1162, 825)]",[],[1],[0.5666666666666667],horizontal,"(890.0, 262.0)",1.5,0.523,1,1433.419,3,0.02,same
0,169,catch,"[(1162, 817)]",[],[1],[],horizontal,"(390.0, 262.0)",1.7,nan,1,1439.639,3,0.02,same
0,170,valid,"[(1166, 779)]",[],[1],[0.6666666666666666],vertical,"(890.0, 762.0)",1.1833333333333333,0.626,1,1445.7,3,0.02,same
0,171,valid,"[(1162, 775)]",[],[1],[0.6],horizontal,"(890.0, 262.0)",0.5833333333333334,0.562,1,1451.77,3,0.02,same
0,172,valid,"[(1160, 782)]",[],[1],[0.7],vertical,"(890.0, 262.0)",1.25,0.661,1,1457.271,3,0.02,same
0,173,valid,"[(1165, 779)]",[],[1],[0.5666666666666667],vertical,"(890.0, 262.0)",0.9666666666666667,0.526,1,1463.402,3,0.02,same
0,174,valid,"[(1164, 776)]",[],[1],[0.6],horizontal,"(390.0, 762.0)",1.5166666666666666,0.558,1,1469.352,3,0.02,same
0,175,catch,"[(1162, 780)]",[],[1],[],vertical,"(890.0, 262.0)",1.7,nan,1,1475.862,3,0.02,same
0,176,valid,"[(1174, 787)]",[],[1],[0.5333333333333333],vertical,"(890.0, 262.0)",1.4333333333333333,0.495,1,1481.536,3,0.02,same
0,177,catch,"[(1175, 781)]",[],[1],[],vertical,"(890.0, 262.0)",1.7,nan,1,1487.54,3,0.02,same
0,178,valid,"[(1169, 789)]",[],[1],[0.5833333333333334],vertical,"(890.0, 262.0)",1.3333333333333333,0.542,1,1493.488,3,0.02,same
0,179,catch,"[(1165, 788)]",[],[1],[],vertical,"(890.0, 762.0)",1.7,nan,1,1499.267,3,0.02,same
0,180,valid,"[(1166, 783)]",[],[1],[0.85],horizontal,"(890.0, 762.0)",1.0166666666666666,nan,0,1505.36,0,0.02,same
0,181,catch,"[(1162, 799)]",[],[1],[],vertical,"(390.0, 762.0)",1.7,nan,1,1509.95,1,0.02,same
0,182,valid,"[(1179, 796)]",[],[1],[0.5166666666666666],vertical,"(890.0, 262.0)",0.5166666666666666,0.476,1,1515.65,1,0.02,same
0,183,valid,"[(1166, 808)]",[],[1],[0.65],horizontal,"(390.0, 262.0)",1.0166666666666666,0.609,1,1520.571,1,0.02,same
0,184,valid,"[(1160, 786)]",[],[1],[0.5166666666666666],horizontal,"(390.0, 262.0)",0.8666666666666667,0.478,1,1526.039,2,0.02,same
0,185,valid,"[(1179, 783)]",[],[1],[0.55],vertical,"(890.0, 262.0)",1.3333333333333333,0.51,1,1531.29,2,0.02,same
0,186,valid,"[(1158, 784)]",[],[1],[0.5666666666666667],vertical,"(390.0, 262.0)",0.4,0.533,1,1537.196,2,0.02,same
0,187,valid,"[(1163, 800)]",[],[1],[0.7666666666666666],horizontal,"(890.0, 762.0)",0.3833333333333333,0.723,1,1541.787,3,0.02,same
0,188,valid,"[(1175, 784)]",[],[1],[0.5166666666666666],vertical,"(390.0, 262.0)",0.35,0.474,1,1547.686,3,0.02,same
0,189,valid,"[(1166, 770)]",[],[1],[0.55],horizontal,"(890.0, 762.0)",1.2166666666666666,0.513,1,1552.588,3,0.02,same
0,190,catch,"[(1182, 783)]",[],[1],[],horizontal,"(890.0, 262.0)",1.7,nan,1,1558.438,3,0.0,same
0,191,valid,"[(1171, 773)]",[],[1],[0.5333333333333333],horizontal,"(890.0, 262.0)",0.7333333333333333,0.493,1,1564.746,3,0.0,same
0,192,valid,"[(1179, 784)]",[],[1],[0.7],horizontal,"(890.0, 762.0)",1.2,0.659,1,1570.721,3,0.0,same
0,193,catch,"[(1160, 783)]",[],[1],[],vertical,"(390.0, 262.0)",1.7,nan,1,1576.683,3,0.0,same
0,194,valid,"[(1169, 782)]",[],[1],[0.55],vertical,"(390.0, 262.0)",1.35,0.511,1,1582.355,3,0.0,same
0,195,valid,"[(1161, 780)]",[],[1],[0.85],horizontal,"(890.0, 762.0)",0.8833333333333333,nan,0,1588.755,0,0.0,same
0,196,catch,"[(1175, 784)]",[],[1],[],horizontal,"(390.0, 262.0)",1.7,nan,1,1593.322,1,0.0,same
0,197,valid,"[(1165, 803)]",[],[1],[0.5666666666666667],vertical,"(390.0, 262.0)",0.35,0.529,1,1599.132,1,0.0,same
0,198,valid,"[(1181, 769)]",[],[1],[0.6],horizontal,"(890.0, 262.0)",0.6166666666666667,0.563,1,1603.589,1,0.0,same
0,199,valid,"[(1180, 792)]",[],[1],[0.4666666666666667],horizontal,"(390.0, 262.0)",0.65,0.429,1,1608.755,2,0.0,same
0,200,catch,"[(1163, 782)]",[],[1],[],horizontal,"(890.0, 262.0)",1.7,nan,1,1614.487,2,0.0,same
0,201,valid,"[(1180, 789)]",[],[1],[0.55],horizontal,"(390.0, 762.0)",1.2166666666666666,0.507,1,1620.111,2,0.0,same
0,202,valid,"[(1165, 770)]",[],[1],[0.6333333333333333],vertical,"(890.0, 262.0)",1.1833333333333333,0.589,1,1625.605,3,0.0,same
0,203,valid,"[(1158, 790)]",[],[1],[0.85],vertical,"(390.0, 262.0)",1.05,nan,0,1631.622,0,0.0,same
0,204,valid,"[(1174, 779)]",[],[1],[0.55],horizontal,"(390.0, 262.0)",1.2,0.513,1,1636.222,1,0.0,same
0,205,valid,"[(1180, 778)]",[],[1],[0.85],horizontal,"(390.0, 762.0)",0.9833333333333333,nan,0,1641.802,0,0.0,same
0,206,valid,"[(1180, 789)]",[],[1],[0.6166666666666667],horizontal,"(890.0, 262.0)",0.85,0.571,1,1646.725,1,0.0,same
0,207,catch,"[(1180, 806)]",[],[1],[],vertical,"(390.0, 762.0)",1.7,nan,1,1652.272,1,0.0,same
0,208,valid,"[(1179, 793)]",[],[1],[0.7166666666666667],horizontal,"(890.0, 762.0)",0.45,0.672,1,1657.889,1,0.0,same
0,209,valid,"[(1164, 774)]",[],[1],[0.6333333333333333],vertical,"(390.0, 762.0)",0.5166666666666666,0.592,1,1662.612,2,0.0,same
0,210,valid,"[(1176, 768)]",[],[1],[0.6],vertical,"(890.0, 762.0)",0.43333333333333335,0.556,1,1667.755,2,0.0,same
0,211,catch,"[(1165, 786)]",[],[1],[],horizontal,"(890.0, 262.0)",1.7,nan,1,1672.796,2,0.0,same
0,212,catch,"[(1175, 789)]",[],[1],[],horizontal,"(890.0, 762.0)",1.7,nan,1,1678.26,3,0.0,same
0,213,invalid_same_bar,"[(1161, 779)]",[],[1],[0.85],vertical,"(890.0, 262.0)",0.5333333333333333,nan,0,1684.21,0,0.0,same
0,214,catch,"[(1140, 796)]",[],[1],[],vertical,"(390.0, 762.0)",,"('cti', 0.617),nan",0,1688.802,0,0.02,same
0,215,valid,"[(1160, 789)]",[],[1],[0.6333333333333333],horizontal,"(890.0, 262.0)",1.0333333333333332,0.592,1,1692.551,1,0.02,same
0,216,valid,"[(1162, 788)]",[],[1],[0.5666666666666667],horizontal,"(890.0, 262.0)",0.45,0.534,1,1698.082,1,0.02,same
0,217,catch,"[(1206, 777)]",[],[1],[],vertical,"(390.0, 262.0)",1.7,nan,1,1702.823,1,0.02,same
0,218,valid,"[(1159, 794)]",[],[1],[0.5166666666666666],horizontal,"(890.0, 762.0)",0.4,0.479,1,1707.755,2,0.02,same
0,219,valid,"[(1190, 787)]",[],[1],[0.48333333333333334],vertical,"(890.0, 262.0)",0.7,0.453,1,1713.338,2,0.02,same
0,220,catch,"[(1170, 771)]",[],[1],[],horizontal,"(390.0, 262.0)",1.7,nan,1,1718.65,2,0.02,same
0,221,valid,"[(1160, 782)]",[],[1],[0.5166666666666666],horizontal,"(890.0, 262.0)",1.3,0.485,1,1724.301,3,0.02,same
0,222,valid,"[(1161, 778)]",[],[1],[0.5666666666666667],vertical,"(390.0, 262.0)",1.2666666666666666,0.534,1,1730.472,3,0.02,same
0,223,valid,"[(1165, 789)]",[],[1],[0.7666666666666666],horizontal,"(890.0, 262.0)",0.5666666666666667,0.731,1,1736.306,3,0.02,same
0,224,catch,"[(1177, 789)]",[],[1],[],horizontal,"(890.0, 262.0)",1.7,nan,1,1741.964,3,0.02,same
0,225,valid,"[(1176, 776)]",[],[1],[0.5666666666666667],vertical,"(390.0, 262.0)",1.1833333333333333,0.533,1,1748.174,3,0.02,same
0,226,catch,"[(1175, 783)]",[],[1],[],horizontal,"(390.0, 762.0)",1.7,nan,1,1754.437,3,0.02,same
0,227,valid,"[(1189, 781)]",[],[1],[0.5833333333333334],vertical,"(390.0, 262.0)",0.8666666666666667,0.543,1,1760.155,3,0.02,same
0,228,catch,"[(1157, 779)]",[],[1],[],horizontal,"(390.0, 262.0)",1.7,nan,1,1765.66,3,0.02,same
0,229,valid,"[(1178, 786)]",[],[1],[0.5666666666666667],vertical,"(890.0, 762.0)",0.4666666666666667,0.528,1,1771.812,3,0.02,same
0,230,valid,"[(1179, 777)]",[],[1],[0.6833333333333333],vertical,"(890.0, 762.0)",1.4166666666666667,0.642,1,1777.176,3,0.02,same
0,231,valid,"[(1162, 779)]",[],[1],[0.65],horizontal,"(390.0, 762.0)",1.0333333333333332,0.601,1,1783.586,3,0.02,same
0,232,catch,"[(1169, 776)]",[],[1],[],vertical,"(890.0, 262.0)",1.7,nan,1,1789.479,3,0.02,same
0,233,valid,"[(1176, 779)]",[],[1],[0.55],horizontal,"(390.0, 762.0)",1.1166666666666667,0.515,1,1795.455,3,0.02,same
0,234,catch,"[(1162, 785)]",[],[1],[],horizontal,"(390.0, 762.0)",1.7,nan,1,1801.434,3,0.02,same
0,235,valid,"[(1162, 760)]",[],[1],[0.5333333333333333],horizontal,"(390.0, 262.0)",0.3833333333333333,0.491,1,1807.455,3,0.02,same
0,236,valid,"[(1183, 779)]",[],[1],[0.85],vertical,"(890.0, 262.0)",0.7666666666666666,nan,0,1812.55,0,0.02,same
0,237,catch,"[(1155, 776)]",[],[1],[],horizontal,"(390.0, 262.0)",,"('cti', 1.642),nan",0,1817.085,0,0.04,same
0,238,valid,"[(1152, 796)]",[],[1],[0.65],horizontal,"(890.0, 762.0)",0.8333333333333334,0.609,1,1822.072,1,0.04,same
0,239,valid,"[(1173, 771)]",[],[1],[0.55],vertical,"(890.0, 262.0)",0.9833333333333333,0.506,1,1826.874,1,0.04,same
0,240,invalid_adjacent_other_bar,"[(1180, 767)]",[],[1],[0.85],vertical,"(390.0, 762.0)",0.6333333333333333,nan,0,1832.123,0,0.04,other
0,241,catch,"[(1153, 769)]",[],[1],[],vertical,"(390.0, 762.0)",1.7,nan,1,1836.79,1,0.04,same
0,242,valid,"[(1175, 781)]",[],[1],[0.5833333333333334],vertical,"(390.0, 762.0)",1.5333333333333332,0.544,1,1842.239,1,0.04,same
0,243,valid,"[(1164, 799)]",[],[1],[0.85],horizontal,"(390.0, 262.0)",1.2166666666666666,nan,0,1847.556,0,0.04,same
0,244,valid,"[(1179, 791)]",[],[1],[0.4666666666666667],horizontal,"(890.0, 262.0)",0.8833333333333333,0.431,1,1852.706,1,0.04,same
0,245,catch,"[(1130, 823)]",[],[1],[],horizontal,"(890.0, 762.0)",1.7,nan,1,1857.339,1,0.04,same
0,246,valid,"[(1161, 794)]",[],[1],[0.5166666666666666],vertical,"(390.0, 262.0)",1.3666666666666667,0.477,1,1862.688,1,0.04,same
0,247,invalid_adjacent_other_bar,"[(1166, 808)]",[],[1],[0.85],vertical,"(890.0, 262.0)",0.5833333333333334,nan,0,1867.938,0,0.04,other
0,248,catch,"[(1164, 777)]",[],[1],[],vertical,"(390.0, 762.0)",1.7,nan,1,1872.306,1,0.04,same
0,249,valid,"[(1180, 813)]",[],[1],[0.6],vertical,"(390.0, 762.0)",0.55,0.568,1,1877.672,1,0.04,same
0,250,valid,"[(1190, 788)]",[],[1],[0.48333333333333334],horizontal,"(390.0, 262.0)",0.9,0.448,1,1881.918,1,0.04,same
0,251,catch,"[(1180, 757)]",[],[1],[],horizontal,"(890.0, 262.0)",1.7,nan,1,1887.323,2,0.04,same
0,252,catch,"[(1174, 781)]",[],[1],[],vertical,"(390.0, 262.0)",,"('cti', 1.694),nan",0,1893.262,0,0.06,same
0,253,valid,"[(1137, 789)]",[],[1],[0.48333333333333334],vertical,"(390.0, 762.0)",1.3333333333333333,0.445,1,1898.181,1,0.06,same
0,254,catch,"[(1166, 786)]",[],[1],[],horizontal,"(890.0, 262.0)",1.7,nan,1,1903.44,1,0.06,same
0,255,valid,"[(1150, 799)]",[],[1],[0.48333333333333334],vertical,"(390.0, 762.0)",1.4166666666666667,0.443,1,1908.572,1,0.06,same
0,256,catch,"[(1175, 778)]",[],[1],[],horizontal,"(390.0, 762.0)",1.7,nan,1,1914.034,2,0.06,same
0,257,valid,"[(1163, 799)]",[],[1],[0.7166666666666667],vertical,"(390.0, 762.0)",1.25,0.671,1,1919.397,2,0.06,same
0,258,valid,"[(1174, 787)]",[],[1],[0.5166666666666666],vertical,"(390.0, 762.0)",0.9,0.476,1,1925.059,2,0.06,same
0,259,valid,"[(1167, 808)]",[],[1],[0.5333333333333333],horizontal,"(390.0, 262.0)",0.43333333333333335,0.491,1,1930.166,3,0.06,same
0,260,valid,"[(1175, 794)]",[],[1],[],horizontal,"(890.0, 762.0)",,"('cti', 0.49)",0,1935.693,0,0.06,same
0,261,valid,"[(1135, 785)]",[],[1],[0.6833333333333333],horizontal,"(890.0, 762.0)",0.9666666666666667,0.65,1,1939.74,1,0.06,same
0,262,valid,"[(1162, 820)]",[],[1],[0.5333333333333333],vertical,"(890.0, 762.0)",1.4,0.499,1,1944.842,1,0.06,same
0,263,valid,"[(1163, 793)]",[],[1],[],horizontal,"(390.0, 262.0)",,"('cti', 1.02)",0,1951.505,0,0.06,same
0,264,catch,"[(1164, 800)]",[],[1],[],horizontal,"(390.0, 262.0)",1.7,nan,1,1955.385,1,0.04,same
0,265,catch,"[(1176, 779)]",[],[1],[],vertical,"(390.0, 262.0)",1.7,nan,1,1960.773,1,0.04,same
0,266,valid,"[(1156, 776)]",[],[1],[0.5166666666666666],horizontal,"(890.0, 262.0)",0.95,0.479,1,1966.273,1,0.04,same
0,267,valid,"[(1160, 800)]",[],[1],[0.6],horizontal,"(390.0, 762.0)",1.0,0.559,1,1970.937,2,0.04,same
0,268,catch,"[(1160, 787)]",[],[1],[],horizontal,"(390.0, 262.0)",1.7,nan,1,1976.589,2,0.04,same
0,269,valid,"[(1168, 799)]",[],[1],[0.5666666666666667],horizontal,"(890.0, 262.0)",0.6333333333333333,0.531,1,1982.622,2,0.04,same
0,270,invalid_adjacent_other_bar,"[(1170, 782)]",[],[1],[0.6333333333333333],vertical,"(890.0, 762.0)",1.4333333333333333,0.6,1,1987.757,3,0.04,other
0,271,valid,"[(1175, 776)]",[],[1],[0.55],vertical,"(890.0, 762.0)",0.75,0.517,1,1993.707,3,0.04,same
0,272,catch,"[(1170, 799)]",[],[1],[],vertical,"(390.0, 262.0)",1.7,nan,1,1999.209,3,0.04,same
0,273,invalid_adjacent_other_bar,"[(1165, 779)]",[],[1],[0.6833333333333333],horizontal,"(890.0, 262.0)",0.35,0.648,1,2005.023,3,0.04,other
0,274,catch,"[(1160, 779)]",[],[1],[],vertical,"(390.0, 762.0)",1.7,nan,1,2010.289,3,0.04,same
0,275,catch,"[(1175, 791)]",[],[1],[],vertical,"(390.0, 762.0)",1.7,nan,1,2015.926,3,0.04,same
0,276,valid,"[(1165, 784)]",[],[1],[0.5166666666666666],vertical,"(890.0, 262.0)",0.4666666666666667,0.476,1,2021.94,3,0.04,same
0,277,valid,"[(1163, 779)]",[],[1],[0.6166666666666667],vertical,"(890.0, 262.0)",1.3166666666666667,0.585,1,2027.039,3,0.04,same
0,278,catch,"[(1160, 776)]",[],[1],[],horizontal,"(390.0, 262.0)",1.7,nan,1,2033.291,3,0.04,same
0,279,catch,"[(1165, 782)]",[],[1],[],horizontal,"(890.0, 762.0)",1.7,nan,1,2039.074,3,0.04,same
0,280,catch,"[(1165, 794)]",[],[1],[],vertical,"(390.0, 762.0)",1.7,nan,1,2045.157,3,0.04,same
0,281,valid,"[(1175, 787)]",[],[1],[0.5666666666666667],horizontal,"(890.0, 762.0)",0.5666666666666667,0.531,1,2051.424,3,0.04,same
0,282,valid,"[(1172, 786)]",[],[1],[0.6333333333333333],vertical,"(890.0, 762.0)",1.2,0.597,1,2056.74,3,0.04,same
0,283,valid,"[(1163, 770)]",[],[1],[0.31666666666666665],vertical,"(390.0, 762.0)",1.4833333333333334,0.28,1,2062.607,3,0.04,same
0,284,catch,"[(1176, 793)]",[],[1],[],horizontal,"(890.0, 262.0)",1.7,nan,1,2069.011,3,0.04,same
0,285,valid,"[(1184, 786)]",[],[1],[0.6166666666666667],horizontal,"(390.0, 262.0)",0.5,0.584,1,2075.13,3,0.04,same
0,286,valid,"[(1176, 801)]",[],[1],[0.8],vertical,"(890.0, 762.0)",1.2166666666666666,0.768,1,2080.112,3,0.04,same
0,287,valid,"[(1160, 790)]",[],[1],[0.6833333333333333],vertical,"(890.0, 262.0)",0.9333333333333333,0.65,1,2086.435,3,0.02,same
0,288,valid,"[(1165, 783)]",[],[1],[0.5333333333333333],horizontal,"(890.0, 262.0)",0.6666666666666666,0.492,1,2092.556,3,0.02,same
0,289,valid,"[(1175, 782)]",[],[1],[0.8333333333333334],vertical,"(890.0, 262.0)",1.1666666666666667,0.799,1,2098.023,3,0.02,same
0,290,valid,"[(1163, 775)]",[],[1],[0.85],horizontal,"(390.0, 262.0)",1.1,nan,0,2104.54,0,0.02,same
0,291,valid,"[(1160, 790)]",[],[1],[0.2833333333333333],horizontal,"(390.0, 762.0)",0.8666666666666667,0.247,1,2109.139,1,0.02,same
0,292,valid,"[(1169, 781)]",[],[1],[0.55],horizontal,"(390.0, 762.0)",1.3166666666666667,0.509,1,2113.876,1,0.02,same
0,293,catch,"[(1161, 789)]",[],[1],[],vertical,"(390.0, 762.0)",1.7,nan,1,2119.148,1,0.02,same
0,294,valid,"[(1205, 785)]",[],[1],[0.6666666666666666],horizontal,"(890.0, 262.0)",1.1,0.625,1,2124.374,2,0.02,same
0,295,catch,"[(1150, 785)]",[],[1],[],vertical,"(890.0, 262.0)",1.7,nan,1,2130.156,2,0.02,same
0,296,valid,"[(1174, 782)]",[],[1],[0.6666666666666666],horizontal,"(390.0, 262.0)",0.8333333333333334,0.629,1,2135.92,2,0.02,same
0,297,valid,"[(1166, 795)]",[],[1],[0.85],horizontal,"(390.0, 762.0)",0.7666666666666666,nan,0,2141.623,0,0.02,same
0,298,valid,"[(1160, 818)]",[],[1],[0.5833333333333334],vertical,"(890.0, 762.0)",1.4833333333333334,0.538,1,2146.122,1,0.02,same
0,299,catch,"[(1175, 791)]",[],[1],[],vertical,"(890.0, 762.0)",1.7,nan,1,2151.961,1,0.02,same
0,300,catch,"[(1197, 789)]",[],[1],[],vertical,"(890.0, 262.0)",1.7,nan,1,2157.274,1,0.02,same
0,301,catch,"[(1183, 766)]",[],[1],[],vertical,"(390.0, 262.0)",1.7,nan,1,2162.676,2,0.02,same
0,302,invalid_adjacent_other_bar,"[(1167, 776)]",[],[1],[0.85],vertical,"(890.0, 762.0)",0.4,nan,0,2168.589,0,0.0,other
0,303,valid,"[(1138, 773)]",[],[1],[0.65],horizontal,"(390.0, 262.0)",1.1666666666666667,0.614,1,2173.172,1,0.0,same
0,304,valid,"[(1165, 792)]",[],[1],[0.6666666666666666],vertical,"(890.0, 762.0)",1.1333333333333333,0.622,1,2178.47,1,0.0,same
0,305,catch,"[(1170, 797)]",[],[1],[],vertical,"(390.0, 262.0)",1.7,nan,1,2184.13,1,0.0,same
0,306,catch,"[(1170, 792)]",[],[1],[],vertical,"(390.0, 762.0)",1.7,nan,1,2189.792,2,0.0,same
0,307,valid,"[(1176, 790)]",[],[1],[],horizontal,"(390.0, 762.0)",,"('cti', 1.152)",0,2195.834,0,0.0,same
0,308,catch,"[(1164, 794)]",[],[1],[],horizontal,"(390.0, 262.0)",1.7,nan,1,2199.833,1,0.0,same
0,309,invalid_adjacent_other_bar,"[(1172, 782)]",[],[1],[0.4666666666666667],horizontal,"(890.0, 262.0)",1.5333333333333332,0.431,1,2205.174,1,0.0,other
0,310,catch,"[(1165, 816)]",[],[1],[],horizontal,"(890.0, 262.0)",1.7,nan,1,2210.99,1,0.0,same
0,311,valid,"[(1160, 795)]",[],[1],[0.85],horizontal,"(890.0, 762.0)",0.4,nan,0,2216.125,0,0.0,same
0,312,valid,"[(1126, 788)]",[],[1],[0.6],horizontal,"(890.0, 762.0)",1.0833333333333333,0.558,1,2220.19,1,0.0,same
0,313,valid,"[(1176, 779)]",[],[1],[0.4166666666666667],horizontal,"(390.0, 262.0)",0.9166666666666666,0.377,1,2225.374,1,0.0,same
0,314,catch,"[(1175, 774)]",[],[1],[],vertical,"(890.0, 762.0)",1.7,nan,1,2230.207,1,0.0,same
0,315,valid,"[(1202, 813)]",[],[1],[0.3833333333333333],horizontal,"(390.0, 262.0)",1.5333333333333332,0.344,1,2235.372,2,0.0,same
0,316,valid,"[(1173, 799)]",[],[1],[0.5],horizontal,"(890.0, 262.0)",1.0833333333333333,0.461,1,2241.391,2,0.0,same
0,317,valid,"[(1174, 778)]",[],[1],[0.5833333333333334],vertical,"(390.0, 762.0)",0.55,0.545,1,2246.942,2,0.0,same
0,318,valid,"[(1161, 787)]",[],[1],[0.5166666666666666],vertical,"(890.0, 262.0)",0.9333333333333333,0.486,1,2252.123,3,0.0,same
0,319,valid,"[(1169, 771)]",[],[1],[0.48333333333333334],horizontal,"(390.0, 762.0)",1.45,0.446,1,2257.857,3,0.0,same
0,320,valid,"[(1175, 775)]",[],[1],[0.6833333333333333],horizontal,"(390.0, 762.0)",1.1,0.65,1,2263.964,3,0.0,same
0,321,valid,"[(1166, 782)]",[],[1],[0.55],horizontal,"(390.0, 262.0)",1.4833333333333334,0.509,1,2270.026,3,0.0,same
0,322,valid,"[(1175, 775)]",[],[1],[0.6],horizontal,"(390.0, 262.0)",0.85,0.557,1,2276.585,3,0.0,same
0,323,catch,"[(1176, 787)]",[],[1],[],vertical,"(390.0, 762.0)",1.7,nan,1,2282.272,3,0.0,same
0,324,catch,"[(1170, 787)]",[],[1],[],horizontal,"(890.0, 762.0)",1.7,nan,1,2288.208,3,0.0,same
0,325,valid,"[(1175, 789)]",[],[1],[0.5333333333333333],horizontal,"(890.0, 762.0)",0.8833333333333333,0.493,1,2294.46,3,0.0,same
0,326,valid,"[(1166, 794)]",[],[1],[0.5333333333333333],horizontal,"(890.0, 262.0)",1.2333333333333334,0.496,1,2299.959,3,0.0,same
0,327,valid,"[(1165, 790)]",[],[1],[0.6333333333333333],horizontal,"(890.0, 762.0)",0.6,0.591,1,2306.375,3,0.0,same
0,328,catch,"[(1174, 786)]",[],[1],[],vertical,"(390.0, 262.0)",1.7,nan,1,2312.023,3,0.0,same
0,329,invalid_same_bar,"[(1166, 772)]",[],[1],[0.85],horizontal,"(390.0, 762.0)",1.0666666666666667,nan,0,2317.742,0,0.0,same
0,330,valid,"[(1168, 799)]",[],[1],[0.5666666666666667],horizontal,"(390.0, 762.0)",1.05,0.526,1,2322.732,1,0.0,same
0,331,valid,"[(1173, 787)]",[],[1],[0.5666666666666667],horizontal,"(390.0, 262.0)",0.48333333333333334,0.528,1,2327.8,1,0.0,same
0,332,catch,"[(1169, 794)]",[],[1],[],vertical,"(890.0, 762.0)",1.7,nan,1,2332.64,1,0.0,same
0,333,catch,"[(1164, 789)]",[],[1],[0.03333333333333333],horizontal,"(890.0, 262.0)",1.7,"0.02,nan",0,2338.107,0,0.02,same
0,334,catch,"[(1164, 812)]",[],[1],[],vertical,"(890.0, 262.0)",1.7,nan,1,2342.408,1,0.02,same
0,335,valid,"[(1160, 797)]",[],[1],[0.7666666666666666],vertical,"(390.0, 762.0)",0.9333333333333333,0.725,1,2347.949,1,0.02,same
0,336,valid,"[(1170, 800)]",[],[1],[0.6],vertical,"(890.0, 262.0)",0.6166666666666667,0.557,1,2353.158,1,0.02,same
0,337,catch,"[(1195, 783)]",[],[1],[],vertical,"(890.0, 262.0)",1.7,nan,1,2357.724,2,0.02,same
0,338,valid,"[(1170, 794)]",[],[1],[0.7666666666666666],horizontal,"(390.0, 262.0)",1.3333333333333333,0.723,1,2364.075,2,0.02,same
0,339,catch,"[(1174, 795)]",[],[1],[],vertical,"(390.0, 262.0)",1.7,nan,1,2370.003,2,0.02,same
0,340,valid,"[(1169, 793)]",[],[1],[0.8],vertical,"(890.0, 262.0)",0.8,0.756,1,2376.117,3,0.02,same
0,341,catch,"[(1165, 779)]",[],[1],[],vertical,"(390.0, 762.0)",1.7,nan,1,2382.008,3,0.02,same
0,342,catch,"[(1173, 798)]",[],[1],[],horizontal,"(390.0, 262.0)",1.7,nan,1,2387.623,3,0.02,same
0,343,valid,"[(1165, 777)]",[],[1],[0.5833333333333334],vertical,"(390.0, 762.0)",1.5,0.547,1,2393.841,3,0.02,same
0,344,valid,"[(1174, 792)]",[],[1],[0.5],vertical,"(890.0, 262.0)",0.8666666666666667,0.457,1,2400.324,3,0.02,same
0,345,valid,"[(1169, 785)]",[],[1],[0.6833333333333333],vertical,"(890.0, 762.0)",0.9833333333333333,0.643,1,2405.979,3,0.02,same
0,346,catch,"[(1140, 786)]",[],[1],[],vertical,"(890.0, 762.0)",1.7,nan,1,2411.63,3,0.02,same
0,347,valid,"[(1168, 786)]",[],[1],[0.85],horizontal,"(890.0, 762.0)",0.5333333333333333,nan,0,2417.482,0,0.02,same
0,348,valid,"[(1155, 789)]",[],[1],[0.85],horizontal,"(390.0, 762.0)",0.5666666666666667,nan,0,2421.574,0,0.02,same
0,349,valid,"[(1135, 779)]",[],[1],[0.7],vertical,"(390.0, 762.0)",0.75,0.658,1,2426.375,1,0.02,same
0,350,valid,"[(1179, 781)]",[],[1],[0.5],vertical,"(390.0, 762.0)",0.9166666666666666,0.461,1,2431.872,1,0.02,same
0,351,catch,"[(1188, 776)]",[],[1],[],vertical,"(390.0, 262.0)",1.7,nan,1,2436.808,1,0.02,same
0,352,valid,"[(1165, 794)]",[],[1],[0.45],horizontal,"(390.0, 262.0)",0.65,0.414,1,2442.458,2,0.02,same
0,353,valid,"[(1168, 802)]",[],[1],[0.6833333333333333],horizontal,"(890.0, 262.0)",1.35,0.642,1,2448.162,2,0.02,same
0,354,valid,"[(1169, 777)]",[],[1],[0.85],horizontal,"(890.0, 262.0)",1.3,nan,0,2454.242,0,0.02,same
0,355,catch,"[(1140, 778)]",[],[1],[],horizontal,"(390.0, 762.0)",1.7,nan,1,2459.124,1,0.02,same
0,356,catch,"[(1164, 781)]",[],[1],[],vertical,"(890.0, 262.0)",1.7,nan,1,2464.311,1,0.02,same
0,357,valid,"[(1176, 790)]",[],[1],[0.6],vertical,"(390.0, 262.0)",1.3666666666666667,0.562,1,2469.187,1,0.02,same
0,358,valid,"[(1180, 789)]",[],[1],[0.5833333333333334],horizontal,"(390.0, 762.0)",1.1666666666666667,0.544,1,2474.675,2,0.02,same
0,359,valid,"[(1177, 787)]",[],[1],[0.5166666666666666],horizontal,"(390.0, 262.0)",0.7833333333333333,0.472,1,2480.592,2,0.02,same
0,360,valid,"[(1168, 792)]",[],[1],[0.5666666666666667],vertical,"(890.0, 262.0)",1.4833333333333334,0.524,1,2485.507,2,0.02,same
0,361,valid,"[(1170, 771)]",[],[1],[0.5666666666666667],horizontal,"(390.0, 762.0)",1.2333333333333334,0.527,1,2490.975,3,0.02,same
0,362,valid,"[(1165, 816)]",[],[1],[0.85],horizontal,"(890.0, 762.0)",0.4166666666666667,nan,0,2497.414,0,0.02,same
0,363,valid,"[(1118, 813)]",[],[1],[0.7166666666666667],vertical,"(390.0, 762.0)",0.9666666666666667,0.67,1,2501.559,1,0.02,same
0,364,valid,"[(1165, 796)]",[],[1],[0.5],horizontal,"(390.0, 262.0)",0.7,0.457,1,2507.091,1,0.02,same
0,365,valid,"[(1170, 789)]",[],[1],[0.7],horizontal,"(390.0, 262.0)",1.25,0.655,1,2511.637,1,0.02,same
0,366,valid,"[(1172, 774)]",[],[1],[0.5333333333333333],vertical,"(390.0, 762.0)",0.6333333333333333,0.492,1,2517.274,2,0.02,same
0,367,valid,"[(1175, 769)]",[],[1],[0.6666666666666666],vertical,"(390.0, 762.0)",0.7333333333333333,0.622,1,2522.324,2,0.02,same
0,368,valid,"[(1174, 791)]",[],[1],[0.5],vertical,"(390.0, 262.0)",0.7,0.462,1,2527.385,2,0.02,same
0,369,catch,"[(1160, 782)]",[],[1],[],horizontal,"(890.0, 762.0)",1.7,nan,1,2532.067,3,0.02,same
0,370,valid,"[(1162, 793)]",[],[1],[0.5333333333333333],vertical,"(390.0, 762.0)",1.4833333333333334,0.493,1,2538.192,3,0.02,same
0,371,valid,"[(1170, 778)]",[],[1],[0.6],vertical,"(390.0, 262.0)",0.7,0.558,1,2544.121,3,0.02,same
0,372,catch,"[(1168, 785)]",[],[1],[],vertical,"(890.0, 262.0)",1.7,nan,1,2549.675,3,0.02,same
0,373,valid,"[(1169, 778)]",[],[1],[0.6166666666666667],vertical,"(390.0, 262.0)",1.35,0.574,1,2555.893,3,0.02,same
0,374,catch,"[(1165, 782)]",[],[1],[],vertical,"(390.0, 262.0)",1.7,nan,1,2561.824,3,0.02,same
0,375,valid,"[(1119, 833)]",[],[1],[0.55],vertical,"(390.0, 262.0)",0.7666666666666666,0.514,1,2568.047,3,0.02,same
0,376,valid,"[(1165, 796)]",[],[1],[0.65],vertical,"(390.0, 262.0)",1.1833333333333333,0.612,1,2573.699,3,0.02,same
0,377,valid,"[(1160, 776)]",[],[1],[0.85],vertical,"(890.0, 262.0)",1.0,nan,0,2579.325,0,0.02,same
0,378,valid,"[(1161, 778)]",[],[1],[0.65],horizontal,"(890.0, 762.0)",1.2666666666666666,0.614,1,2584.292,1,0.02,same
0,379,valid,"[(1171, 790)]",[],[1],[0.5166666666666666],horizontal,"(890.0, 762.0)",0.9,0.481,1,2589.592,1,0.02,same
0,380,catch,"[(1165, 779)]",[],[1],[],horizontal,"(890.0, 762.0)",1.7,nan,1,2594.393,1,0.02,same
0,381,catch,"[(1178, 779)]",[],[1],[],vertical,"(390.0, 262.0)",1.7,nan,1,2599.674,2,0.02,same
0,382,catch,"[(1160, 784)]",[],[1],[],horizontal,"(390.0, 762.0)",1.7,nan,1,2605.217,2,0.02,same
0,383,catch,"[(1180, 788)]",[],[1],[],horizontal,"(890.0, 762.0)",1.7,nan,1,2610.908,2,0.0,same
0,384,valid,"[(1162, 782)]",[],[1],[0.6666666666666666],vertical,"(390.0, 262.0)",0.6833333333333333,0.625,1,2616.267,3,0.0,same
0,385,valid,"[(1172, 792)]",[],[1],[0.5666666666666667],vertical,"(390.0, 262.0)",1.25,0.526,1,2622.196,3,0.0,same
0,386,valid,"[(1163, 795)]",[],[1],[0.5666666666666667],vertical,"(390.0, 262.0)",1.45,0.526,1,2628.609,3,0.0,same
0,387,invalid_same_bar,"[(1179, 796)]",[],[1],[0.7333333333333333],vertical,"(390.0, 762.0)",0.6,0.688,1,2634.725,3,0.0,same
0,388,invalid_adjacent_other_bar,"[(1168, 790)]",[],[1],[0.6],horizontal,"(890.0, 262.0)",0.6833333333333333,0.559,1,2640.576,3,0.0,other
0,389,valid,"[(1194, 820)]",[],[1],[0.7],vertical,"(390.0, 762.0)",0.9666666666666667,0.652,1,2646.009,3,0.0,same
0,390,valid,"[(1175, 789)]",[],[1],[0.5333333333333333],horizontal,"(390.0, 762.0)",0.8166666666666667,0.492,1,2651.938,3,0.0,same
0,391,catch,"[(1162, 784)]",[],[1],[],horizontal,"(890.0, 762.0)",1.7,nan,1,2657.808,3,0.0,same
0,392,catch,"[(1176, 799)]",[],[1],[],vertical,"(890.0, 262.0)",1.7,nan,1,2663.53,3,0.0,same
0,393,valid,"[(1163, 796)]",[],[1],[0.55],vertical,"(890.0, 262.0)",0.8166666666666667,0.509,1,2669.674,3,0.0,same
0,394,catch,"[(1172, 799)]",[],[1],[],horizontal,"(390.0, 262.0)",1.7,nan,1,2675.343,3,0.0,same
0,395,valid,"[(1155, 783)]",[],[1],[0.5666666666666667],vertical,"(890.0, 262.0)",0.6,0.528,1,2681.592,3,0.0,same
0,396,valid,"[(1175, 789)]",[],[1],[0.7666666666666666],horizontal,"(890.0, 262.0)",0.8666666666666667,0.719,1,2687.152,3,0.0,same
0,397,catch,"[(1177, 785)]",[],[1],[],horizontal,"(890.0, 262.0)",,"('cti', 1.456),nan",0,2693.141,0,0.02,same
0,398,valid,"[(1140, 796)]",[],[1],[0.48333333333333334],horizontal,"(890.0, 762.0)",1.3666666666666667,0.442,1,2697.994,1,0.02,same
0,399,valid,"[(1148, 780)]",[],[1],[0.5333333333333333],vertical,"(890.0, 262.0)",1.5333333333333332,0.497,1,2703.326,1,0.02,same
0,400,catch,"[(1164, 786)]",[],[1],[],vertical,"(390.0, 762.0)",1.7,nan,1,2708.809,1,0.02,same
0,401,valid,"[(1160, 779)]",[],[1],[0.85],horizontal,"(390.0, 762.0)",0.8833333333333333,nan,0,2714.212,0,0.02,same
0,402,valid,"[(1165, 779)]",[],[1],[0.5666666666666667],horizontal,"(890.0, 762.0)",0.35,0.523,1,2719.241,1,0.02,same
0,403,valid,"[(1174, 774)]",[],[1],[0.5833333333333334],vertical,"(890.0, 262.0)",1.1,0.535,1,2723.859,1,0.02,same
0,404,valid,"[(1176, 779)]",[],[1],[0.5166666666666666],horizontal,"(890.0, 762.0)",1.5,0.475,1,2728.792,1,0.02,same
0,405,valid,"[(1182, 780)]",[],[1],[0.6],horizontal,"(390.0, 762.0)",0.55,0.554,1,2734.391,2,0.02,same
0,406,valid,"[(1194, 792)]",[],[1],[0.6],horizontal,"(890.0, 762.0)",1.4166666666666667,0.558,1,2739.942,2,0.02,same
0,407,catch,"[(1162, 786)]",[],[1],[],vertical,"(890.0, 762.0)",1.7,nan,1,2745.491,2,0.02,same
0,408,valid,"[(1165, 789)]",[],[1],[0.6166666666666667],horizontal,"(890.0, 762.0)",1.15,0.575,1,2751.336,3,0.02,same
0,409,valid,"[(1170, 764)]",[],[1],[0.6166666666666667],horizontal,"(390.0, 762.0)",1.2833333333333332,0.576,1,2757.472,3,0.02,same
0,410,valid,"[(1172, 784)]",[],[1],[0.8166666666666667],horizontal,"(390.0, 762.0)",0.3833333333333333,0.776,1,2763.342,3,0.02,same
0,411,valid,"[(1161, 782)]",[],[1],[0.5833333333333334],vertical,"(890.0, 762.0)",1.35,0.542,1,2768.626,3,0.02,same
0,412,valid,"[(1141, 783)]",[],[1],[0.85],vertical,"(890.0, 762.0)",1.05,nan,0,2775.104,0,0.02,same
0,413,catch,"[(1162, 774)]",[],[1],[],vertical,"(890.0, 762.0)",,"('cti', 1.297),nan",0,2780.375,0,0.04,same
0,414,valid,"[(1129, 839)]",[],[1],[0.85],vertical,"(890.0, 262.0)",0.65,nan,0,2784.743,0,0.04,same
0,415,valid,"[(1115, 826)]",[],[1],[0.85],horizontal,"(390.0, 762.0)",1.1666666666666667,nan,0,2907.093,0,0.04,same
0,416,invalid_same_bar,"[(1179, 799)]",[],[1],[0.85],vertical,"(390.0, 762.0)",1.2,nan,0,2912.119,0,0.04,same
0,417,valid,"[(1121, 813)]",[],[1],[0.7166666666666667],vertical,"(390.0, 262.0)",1.1833333333333333,0.672,1,2917.281,1,0.04,same
0,418,valid,"[(1209, 804)]",[],[1],[0.7],horizontal,"(890.0, 762.0)",0.9333333333333333,0.655,1,2924.219,1,0.04,same
0,419,valid,"[(1195, 816)]",[],[1],[0.85],vertical,"(390.0, 762.0)",0.5666666666666667,nan,0,2929.625,0,0.04,same
0,420,valid,"[(1125, 818)]",[],[1],[0.5333333333333333],vertical,"(390.0, 262.0)",0.5166666666666666,0.493,1,2934.277,1,0.04,same
0,421,valid,"[(1223, 810)]",[],[1],[],horizontal,"(390.0, 762.0)",,"('fix', 0.195)",0,2940.301,0,0.04,same
0,422,catch,"[(1158, 813)]",[],[1],[],vertical,"(390.0, 262.0)",1.7,nan,1,2942.293,1,0.04,same
0,423,valid,"[(1180, 799)]","[(1095, 882)]",[1],[0.7],vertical,"(390.0, 762.0)",,"('bar', 0.704)",0,2947.714,0,0.04,same
0,424,valid,"[(1165, 802)]",[],[1],[0.4],horizontal,"(390.0, 262.0)",1.1833333333333333,0.359,1,2950.61,1,0.04,same
0,425,valid,"[(1123, 795)]",[],[1],[0.5333333333333333],vertical,"(390.0, 262.0)",0.48333333333333334,0.494,1,2955.661,1,0.04,same
0,426,valid,"[(1175, 788)]",[],[1],[0.55],vertical,"(390.0, 262.0)",1.0,0.506,1,2959.978,1,0.04,same
0,427,valid,"[(1210, 791)]",[],[1],[0.85],horizontal,"(890.0, 762.0)",0.5,nan,0,2964.947,0,0.04,same
0,428,valid,"[(1142, 774)]",[],[1],[0.5666666666666667],vertical,"(890.0, 762.0)",1.2166666666666666,0.525,1,2969.691,1,0.04,same
0,429,valid,"[(1174, 807)]",[],[1],[],vertical,"(390.0, 762.0)",,"('fix', 0.704)",0,2974.882,0,0.04,same
0,430,catch,"[(1166, 812)]","[(1101, 856)]",[1],[0.48333333333333334],horizontal,"(390.0, 262.0)",,"('bar', 0.497),nan",0,2977.435,0,0.06,same
0,431,valid,"[(1168, 773)]",[],[1],[],horizontal,"(390.0, 762.0)",,"('cti', 0.034)",0,2980.243,0,0.06,same
0,432,valid,"[(1167, 794)]",[],[1],[0.5166666666666666],vertical,"(890.0, 762.0)",0.8166666666666667,0.472,1,2983.676,1,0.06,same
0,433,catch,"[(1170, 779)]",[],[1],[],horizontal,"(890.0, 762.0)",1.7,nan,1,2989.476,1,0.06,same
0,434,catch,"[(1165, 799)]",[],[1],[],horizontal,"(890.0, 262.0)",,"('fix', 0.393),nan",0,2994.689,0,0.08,same
0,435,valid,"[(1122, 799)]",[],[1],[0.5],vertical,"(890.0, 262.0)",0.5833333333333334,0.457,1,2996.719,1,0.08,same
0,436,valid,"[(1170, 799)]","[(1099, 855)]",[1],[0.31666666666666665],vertical,"(890.0, 762.0)",,"('bar', 0.331)",0,3001.676,0,0.08,same
0,437,valid,"[(1165, 789)]",[],[1],[0.5],horizontal,"(890.0, 762.0)",1.0833333333333333,0.459,1,3004.418,1,0.08,same
0,438,catch,"[(1210, 784)]",[],[1],[],horizontal,"(890.0, 762.0)",1.7,nan,1,3009.222,1,0.08,same
0,439,valid,"[(1181, 795)]",[],[1],[],vertical,"(390.0, 762.0)",,"('cti', 0.175)",0,3014.727,0,0.08,same
0,440,valid,"[(1163, 783)]",[],[1],[0.5666666666666667],horizontal,"(890.0, 262.0)",0.8333333333333334,0.524,1,3017.842,1,0.08,same
0,441,valid,"[(1204, 791)]","[(1151, 836)]",[1],[0.21666666666666667],vertical,"(390.0, 262.0)",,"('bar', 0.228)",0,3022.992,0,0.08,same
0,442,valid,"[(1166, 799)]",[],[1],[0.55],vertical,"(390.0, 762.0)",1.3166666666666667,0.5,1,3025.359,1,0.08,same
0,443,valid,"[(1180, 784)]",[],[1],[0.55],horizontal,"(390.0, 262.0)",1.0333333333333332,0.508,1,3030.719,1,0.08,same
0,444,catch,"[(1190, 779)]","[(1159, 826)]",[1],[0.18333333333333332],horizontal,"(390.0, 762.0)",,"('bar', 0.201),nan",0,3036.04,0,0.1,same
0,445,valid,"[(1135, 804)]",[],[1],[0.55],vertical,"(890.0, 762.0)",1.1833333333333333,0.504,1,3038.444,1,0.1,same
0,446,valid,"[(1178, 776)]",[],[1],[0.5666666666666667],vertical,"(890.0, 762.0)",0.35,0.525,1,3043.811,1,0.1,same
0,447,invalid_same_bar,"[(1177, 774)]","[(1096, 864)]",[1],[0.7166666666666667],horizontal,"(390.0, 262.0)",,"('bar', 0.722)",0,3048.422,0,0.08,same
0,448,valid,"[(1160, 795)]",[],[1],[0.55],horizontal,"(890.0, 762.0)",0.6166666666666667,0.512,1,3051.327,1,0.08,same
0,449,catch,"[(1175, 798)]",[],[1],[],vertical,"(890.0, 262.0)",,"('cti', 0.048),nan",0,3055.949,0,0.1,same
0,450,valid,"[(1145, 799)]",[],[1],[0.5833333333333334],vertical,"(890.0, 262.0)",0.6,0.542,1,3058.877,1,0.1,same
0,451,valid,"[(1205, 786)]","[(1175, 836)]",[1],[0.36666666666666664],horizontal,"(390.0, 262.0)",,"('bar', 0.382)",0,3063.841,0,0.1,same
0,452,valid,"[(1136, 797)]",[],[1],[0.85],horizontal,"(890.0, 762.0)",0.45,nan,0,3066.482,0,0.1,same
0,453,valid,"[(1165, 813)]",[],[1],[0.55],vertical,"(890.0, 762.0)",1.25,0.515,1,3071.393,1,0.1,same
0,454,invalid_adjacent_other_bar,"[(1178, 803)]",[],[1],[0.55],horizontal,"(390.0, 762.0)",1.0833333333333333,0.505,1,3077.309,1,0.1,other
0,455,valid,"[(1173, 786)]",[],[1],[0.6],horizontal,"(390.0, 762.0)",1.1333333333333333,0.557,1,3082.594,1,0.1,same
0,456,valid,"[(1175, 782)]",[],[1],[0.45],horizontal,"(890.0, 762.0)",0.8166666666666667,0.409,1,3088.176,2,0.1,same
0,457,valid,"[(1167, 774)]",[],[1],[0.6333333333333333],vertical,"(890.0, 762.0)",0.9,0.587,1,3093.308,2,0.1,same
0,458,valid,"[(1180, 779)]","[(1179, 820)]",[1],[0.21666666666666667],vertical,"(890.0, 762.0)",,"('bar', 0.23)",0,3098.709,0,0.1,same
0,459,valid,"[(1165, 790)]",[],[1],[0.4666666666666667],vertical,"(390.0, 262.0)",1.2333333333333334,0.425,1,3101.176,1,0.1,same
0,460,valid,"[(1175, 783)]","[(1111, 825)]",[1],[0.3333333333333333],vertical,"(890.0, 762.0)",,"('bar', 0.345)",0,3106.193,0,0.1,same
0,461,valid,"[(1165, 782)]",[],[1],[0.4666666666666667],horizontal,"(890.0, 262.0)",0.5833333333333334,0.426,1,3108.854,1,0.1,same
0,462,valid,"[(1163, 770)]",[],[1],[0.35],horizontal,"(390.0, 262.0)",1.1166666666666667,0.316,1,3113.709,1,0.1,same
0,463,valid,"[(1181, 781)]",[],[1],[0.5833333333333334],horizontal,"(390.0, 762.0)",0.4666666666666667,0.538,1,3118.726,1,0.08,same
0,464,catch,"[(1190, 791)]",[],[1],[],vertical,"(390.0, 762.0)",1.7,nan,1,3123.077,2,0.08,same
0,465,valid,"[(1175, 779)]",[],[1],[0.08333333333333333],horizontal,"(890.0, 262.0)",1.5333333333333332,0.052,0,3128.793,0,0.08,same
0,466,valid,"[(1170, 789)]",[],[1],[0.5666666666666667],vertical,"(890.0, 262.0)",1.3833333333333333,0.527,1,3133.567,1,0.08,same
0,467,valid,"[(1178, 791)]","[(1094, 867)]",[1],[0.6166666666666667],horizontal,"(390.0, 762.0)",,"('bar', 0.626)",0,3138.858,0,0.08,same
0,468,catch,"[(1142, 801)]",[],[1],[],vertical,"(390.0, 762.0)",1.7,nan,1,3141.777,1,0.08,same
0,469,valid,"[(1182, 764)]",[],[1],[0.3833333333333333],horizontal,"(390.0, 762.0)",1.4833333333333334,0.341,1,3146.747,1,0.08,same
0,470,valid,"[(1181, 778)]",[],[1],[0.5666666666666667],vertical,"(390.0, 762.0)",0.6666666666666666,0.529,1,3152.423,1,0.08,same
0,471,valid,"[(1178, 795)]",[],[1],[0.5833333333333334],vertical,"(890.0, 262.0)",1.3,0.538,1,3156.901,2,0.08,same
0,472,valid,"[(1179, 783)]",[],[1],[],vertical,"(390.0, 762.0)",,"('cti', 0.15)",0,3162.473,0,0.08,same
0,473,valid,"[(1160, 800)]",[],[1],[0.7166666666666667],horizontal,"(390.0, 762.0)",0.6,0.672,1,3165.494,1,0.08,same
0,474,catch,"[(1182, 782)]",[],[1],[],horizontal,"(390.0, 762.0)",1.7,nan,1,3170.775,1,0.08,same
0,475,valid,"[(1200, 803)]","[(1112, 851)]",[1],[0.2],vertical,"(390.0, 762.0)",,"('bar', 0.215)",0,3175.811,0,0.08,same
0,476,valid,"[(1175, 789)]",[],[1],[0.5],vertical,"(890.0, 762.0)",1.5,0.461,1,3178.305,1,0.08,same
0,477,valid,"[(1165, 778)]",[],[1],[0.5666666666666667],vertical,"(390.0, 762.0)",1.4666666666666666,0.519,1,3183.775,1,0.08,same
0,478,valid,"[(1170, 770)]","[(1100, 854)]",[1],[0.6333333333333333],horizontal,"(890.0, 762.0)",,"('bar', 0.642)",0,3189.239,0,0.08,same
0,479,catch,"[(1163, 795)]",[],[1],[],vertical,"(890.0, 262.0)",1.7,nan,1,3192.126,1,0.08,same
0,480,valid,"[(1180, 796)]","[(1107, 860)]",[1],[0.21666666666666667],vertical,"(390.0, 262.0)",,"('bar', 0.235)",0,3197.243,0,0.06,same
0,481,invalid_adjacent_other_bar,"[(1164, 818)]",[],[1],[0.6666666666666666],vertical,"(390.0, 762.0)",0.6,0.622,1,3199.809,1,0.06,other
0,482,catch,"[(1175, 783)]",[],[1],[],vertical,"(390.0, 262.0)",1.7,nan,1,3204.462,1,0.06,same
0,483,valid,"[(1180, 777)]",[],[1],[0.26666666666666666],vertical,"(390.0, 762.0)",0.8166666666666667,0.235,1,3209.719,1,0.06,same
0,484,valid,"[(1181, 764)]",[],[1],[0.3],vertical,"(890.0, 262.0)",0.95,0.267,1,3214.042,2,0.04,same
0,485,valid,"[(1168, 779)]",[],[1],[0.6333333333333333],horizontal,"(390.0, 262.0)",1.1833333333333333,0.592,1,3218.777,2,0.04,same
0,486,valid,"[(1177, 783)]",[],[1],[0.5666666666666667],horizontal,"(390.0, 262.0)",0.75,0.52,1,3224.253,2,0.04,same
0,487,catch,"[(1180, 803)]",[],[1],[],horizontal,"(890.0, 762.0)",1.7,nan,1,3229.761,3,0.04,same
0,488,catch,"[(1162, 775)]",[],[1],[],vertical,"(890.0, 262.0)",1.7,nan,1,3236.127,3,0.04,same
0,489,valid,"[(1180, 779)]",[],[1],[0.5166666666666666],vertical,"(390.0, 262.0)",0.8,0.472,1,3242.377,3,0.04,same
0,490,catch,"[(1162, 786)]",[],[1],[],horizontal,"(390.0, 762.0)",1.7,nan,1,3247.883,3,0.04,same
0,491,valid,"[(1176, 772)]","[(1101, 855)]",[1],[0.5166666666666666],horizontal,"(890.0, 762.0)",,"('bar', 0.525)",0,3253.661,0,0.04,same
0,492,valid,"[(1157, 811)]",[],[1],[0.6166666666666667],vertical,"(890.0, 262.0)",1.3,0.58,1,3256.327,1,0.04,same
0,493,valid,"[(1180, 773)]",[],[1],[0.43333333333333335],vertical,"(890.0, 762.0)",0.95,0.396,1,3261.494,1,0.04,same
0,494,valid,"[(1175, 789)]",[],[1],[0.5],vertical,"(890.0, 262.0)",0.8,0.46,1,3266.643,1,0.02,same
0,495,catch,"[(1175, 786)]",[],[1],[],horizontal,"(390.0, 262.0)",,"('cti', 1.489),nan",0,3271.331,0,0.04,same
0,496,catch,"[(1136, 782)]",[],[1],[],vertical,"(890.0, 762.0)",1.7,nan,1,3276.408,1,0.04,same
0,497,valid,"[(1179, 777)]",[],[1],[0.6333333333333333],horizontal,"(390.0, 262.0)",0.35,0.593,1,3281.643,1,0.04,same
0,498,valid,"[(1181, 781)]",[],[1],[0.6],vertical,"(390.0, 262.0)",0.85,0.559,1,3286.01,1,0.04,same
0,499,valid,"[(1180, 773)]","[(1113, 860)]",[1],[0.5166666666666666],vertical,"(890.0, 762.0)",,"('bar', 0.528)",0,3291.194,0,0.02,same
0,500,valid,"[(1167, 781)]",[],[1],[0.6166666666666667],vertical,"(890.0, 262.0)",1.2833333333333332,0.573,1,3294.077,1,0.02,same
0,501,catch,"[(1188, 778)]",[],[1],[],horizontal,"(390.0, 262.0)",1.7,nan,1,3299.695,1,0.02,same
0,502,catch,"[(1178, 779)]",[],[1],[],horizontal,"(890.0, 262.0)",1.7,nan,1,3304.887,1,0.02,same
0,503,valid,"[(1175, 764)]",[],[1],[0.55],vertical,"(390.0, 762.0)",1.3,0.506,1,3309.703,2,0.02,same
0,504,valid,"[(1216, 782), (1222, 786)]",[],"[1, 1]",[],vertical,"(390.0, 762.0)",,"('fix', 0.151)",0,3315.193,0,0.02,same
0,505,valid,"[(1156, 818)]",[],[1],[0.7],horizontal,"(890.0, 762.0)",0.5666666666666667,0.655,1,3316.928,1,0.02,same
0,506,valid,"[(1161, 796)]",[],[1],[0.5833333333333334],horizontal,"(390.0, 762.0)",1.0333333333333332,0.54,1,3322.011,1,0.02,same
0,507,valid,"[(1165, 774)]",[],[1],[0.5666666666666667],horizontal,"(390.0, 262.0)",0.8666666666666667,0.527,1,3327.475,1,0.02,same
0,508,valid,"[(1180, 789)]",[],[1],[0.48333333333333334],horizontal,"(890.0, 262.0)",0.9166666666666666,0.454,1,3332.76,2,0.02,same
0,509,invalid_same_bar,"[(1140, 819)]",[],[1],[0.48333333333333334],horizontal,"(890.0, 262.0)",0.6,0.439,1,3337.689,2,0.02,same
0,510,catch,"[(1185, 794)]","[(1101, 873)]",[1],[0.3],vertical,"(890.0, 262.0)",,"('bar', 0.314),nan",0,3343.256,0,0.04,same
0,511,valid,"[(1160, 809)]",[],[1],[0.48333333333333334],horizontal,"(890.0, 762.0)",0.9333333333333333,0.448,1,3345.778,1,0.04,same
0,512,catch,"[(1183, 781)]",[],[1],[],vertical,"(890.0, 762.0)",1.7,nan,1,3350.833,1,0.04,same
0,513,catch,"[(1173, 766)]",[],[1],[],horizontal,"(390.0, 762.0)",1.7,nan,1,3356.36,1,0.04,same
0,514,valid,"[(1181, 791)]",[],[1],[0.48333333333333334],vertical,"(890.0, 262.0)",1.0,0.44,1,3362.038,2,0.04,same
0,515,valid,"[(1175, 779)]",[],[1],[0.5833333333333334],vertical,"(890.0, 762.0)",1.3166666666666667,0.542,1,3367.674,2,0.04,same
0,516,invalid_adjacent_other_bar,"[(1177, 774)]",[],[1],[0.5333333333333333],horizontal,"(390.0, 762.0)",0.8,0.491,1,3373.595,2,0.04,other
0,517,invalid_same_bar,"[(1176, 789)]",[],[1],[0.85],vertical,"(890.0, 262.0)",0.4166666666666667,nan,0,3378.927,0,0.04,same
0,518,valid,"[(1161, 779)]",[],[1],[0.5666666666666667],vertical,"(890.0, 262.0)",1.4666666666666666,0.52,1,3383.694,1,0.04,same
0,519,invalid_same_bar,"[(1175, 769)]",[],[1],[0.75],vertical,"(390.0, 762.0)",0.5333333333333333,0.702,1,3389.134,1,0.04,same
0,520,catch,"[(1190, 765)]",[],[1],[],horizontal,"(890.0, 262.0)",1.7,nan,1,3394.202,1,0.04,same
0,521,catch,"[(1176, 760)]",[],[1],[],vertical,"(390.0, 762.0)",1.7,nan,1,3399.882,2,0.04,same
0,522,valid,"[(1178, 770)]",[],[1],[0.6166666666666667],horizontal,"(890.0, 262.0)",0.8333333333333334,0.574,1,3405.339,2,0.04,same
0,523,valid,"[(1179, 782)]",[],[1],[0.6666666666666666],horizontal,"(890.0, 262.0)",1.5166666666666666,0.63,1,3410.218,2,0.04,same
0,524,valid,"[(1181, 765)]",[],[1],[0.5833333333333334],horizontal,"(390.0, 262.0)",1.4,0.539,1,3415.985,3,0.04,same
0,525,catch,"[(1170, 785)]",[],[1],[],vertical,"(390.0, 762.0)",1.7,nan,1,3422.428,3,0.04,same
0,526,valid,"[(1168, 772)]",[],[1],[0.6166666666666667],vertical,"(390.0, 262.0)",0.8,0.569,1,3428.209,3,0.04,same
0,527,valid,"[(1175, 782)]",[],[1],[0.6],horizontal,"(390.0, 262.0)",1.3166666666666667,0.558,1,3433.895,3,0.04,same
0,528,valid,"[(1176, 774)]",[],[1],[0.65],vertical,"(390.0, 762.0)",0.85,0.608,1,3439.826,3,0.04,same
0,529,valid,"[(1161, 759)]",[],[1],[0.6333333333333333],horizontal,"(390.0, 762.0)",1.4,0.591,1,3445.884,3,0.04,same
0,530,valid,"[(1175, 773)]",[],[1],[0.5666666666666667],horizontal,"(390.0, 762.0)",1.4,0.54,1,3451.961,3,0.04,same
0,531,valid,"[(1192, 773)]",[],[1],[0.5166666666666666],vertical,"(390.0, 762.0)",0.9166666666666666,0.479,1,3458.013,3,0.04,same
0,532,valid,"[(1175, 781)]",[],[1],[0.75],horizontal,"(890.0, 762.0)",1.0,0.701,1,3463.746,3,0.04,same
0,533,valid,"[(1171, 769)]",[],[1],[0.5666666666666667],horizontal,"(390.0, 262.0)",0.85,0.521,1,3469.817,3,0.04,same
0,534,catch,"[(1176, 773)]",[],[1],[],horizontal,"(390.0, 762.0)",1.7,nan,1,3475.241,3,0.04,same
0,535,catch,"[(1198, 782)]",[],[1],[],horizontal,"(890.0, 262.0)",1.7,nan,1,3480.911,3,0.04,same
0,536,catch,"[(1137, 798)]",[],[1],[],horizontal,"(390.0, 762.0)",1.7,nan,1,3486.728,3,0.04,same
0,537,valid,"[(1160, 784)]",[],[1],[0.5333333333333333],horizontal,"(390.0, 762.0)",0.7666666666666666,0.499,1,4056.98,3,0.04,same
0,538,valid,"[(1175, 779)]",[],[1],[0.5333333333333333],vertical,"(890.0, 262.0)",1.05,0.492,1,4062.98,3,0.04,same
0,539,valid,"[(1186, 786)]",[],[1],[0.55],horizontal,"(890.0, 762.0)",1.2,0.512,1,4068.946,3,0.04,same
0,540,valid,"[(1169, 780)]",[],[1],[0.5666666666666667],horizontal,"(890.0, 762.0)",1.2166666666666666,0.525,1,4074.964,3,0.04,same
0,541,valid,"[(1129, 817)]",[],[1],[0.5833333333333334],horizontal,"(390.0, 262.0)",0.65,0.539,1,4081.097,3,0.04,same
0,542,valid,"[(1161, 787)]",[],[1],[0.5166666666666666],vertical,"(890.0, 262.0)",0.55,0.476,1,4088.628,3,0.04,same
0,543,catch,"[(1180, 768)]",[],[1],[],horizontal,"(890.0, 762.0)",1.7,nan,1,4094.174,3,0.04,same
0,544,invalid_adjacent_other_bar,"[(1180, 774)]",[],[1],[0.6],vertical,"(890.0, 262.0)",1.4833333333333334,0.561,1,4100.453,3,0.04,other
0,545,valid,"[(1179, 783)]",[],[1],[0.48333333333333334],vertical,"(890.0, 262.0)",0.9166666666666666,0.445,1,4106.412,3,0.02,same
0,546,catch,"[(1176, 784)]",[],[1],[],horizontal,"(390.0, 262.0)",1.7,nan,1,4111.89,3,0.02,same
0,547,valid,"[(1180, 763)]",[],[1],[0.55],vertical,"(390.0, 262.0)",0.3833333333333333,0.51,1,4117.747,3,0.02,same
0,548,valid,"[(1185, 782)]",[],[1],[0.85],vertical,"(890.0, 762.0)",0.8666666666666667,nan,0,4122.913,0,0.02,same
0,549,valid,"[(1161, 779)]",[],[1],[0.5166666666666666],vertical,"(890.0, 262.0)",0.4166666666666667,0.477,1,4127.895,1,0.02,same
0,550,valid,"[(1179, 801)]",[],[1],[0.5],vertical,"(890.0, 762.0)",0.75,0.457,1,4132.164,1,0.02,same
0,551,valid,"[(1157, 788)]",[],[1],[0.85],vertical,"(390.0, 262.0)",1.3166666666666667,nan,0,4136.698,0,0.02,same
0,552,valid,"[(1165, 801)]",[],[1],[0.35],vertical,"(890.0, 262.0)",1.5,0.318,1,4141.745,1,0.02,same
0,553,invalid_adjacent_other_bar,"[(1165, 785)]",[],[1],[0.8],vertical,"(890.0, 762.0)",0.9666666666666667,0.76,1,4147.647,1,0.02,other
0,554,valid,"[(1161, 782)]",[],[1],[0.5],vertical,"(890.0, 262.0)",0.9,0.459,1,4152.964,1,0.02,same
0,555,catch,"[(1183, 780)]",[],[1],[],vertical,"(390.0, 262.0)",1.7,nan,1,4157.754,2,0.02,same
0,556,valid,"[(1178, 775)]",[],[1],[0.6],horizontal,"(390.0, 762.0)",0.6333333333333333,0.564,1,4163.281,2,0.02,same
0,557,catch,"[(1162, 773)]",[],[1],[],vertical,"(390.0, 262.0)",1.7,nan,1,4168.53,2,0.02,same
0,558,catch,"[(1158, 779)]",[],[1],[],horizontal,"(890.0, 762.0)",1.7,nan,1,4174.013,3,0.02,same
0,559,valid,"[(1175, 775)]",[],[1],[0.5333333333333333],horizontal,"(390.0, 262.0)",0.6166666666666667,0.494,1,4180.48,3,0.02,same
0,560,valid,"[(1160, 765)]",[],[1],[0.75],horizontal,"(890.0, 762.0)",0.9,0.712,1,4185.814,3,0.0,same
0,561,invalid_same_bar,"[(1165, 776)]",[],[1],[0.5666666666666667],vertical,"(890.0, 262.0)",0.5,0.529,1,4192.049,3,0.0,same
0,562,invalid_same_bar,"[(1170, 789)]",[],[1],[0.5166666666666666],vertical,"(890.0, 762.0)",0.9333333333333333,0.479,1,4197.581,3,0.0,same
0,563,valid,"[(1148, 833)]",[],[1],[0.6],vertical,"(890.0, 762.0)",0.75,0.559,1,4203.329,3,0.0,same
0,564,valid,"[(1175, 806)]",[],[1],[0.5],vertical,"(390.0, 262.0)",1.5166666666666666,0.458,1,4214.56,3,0.0,same
0,565,valid,"[(1170, 772)]",[],[1],[0.5],horizontal,"(390.0, 262.0)",0.6,0.46,1,4220.947,3,0.0,same
0,566,valid,"[(1175, 789)]",[],[1],[0.5166666666666666],vertical,"(890.0, 262.0)",1.3666666666666667,0.475,1,4226.527,3,0.0,same
0,567,valid,"[(1170, 787)]",[],[1],[0.55],vertical,"(890.0, 762.0)",0.5833333333333334,0.508,1,4232.28,3,0.0,same
0,568,valid,"[(1162, 785)]",[],[1],[0.5666666666666667],vertical,"(390.0, 262.0)",1.0333333333333332,0.526,1,4237.398,3,0.0,same
0,569,valid,"[(1161, 777)]",[],[1],[0.4666666666666667],horizontal,"(390.0, 762.0)",1.5,0.429,1,4243.348,3,0.0,same
0,570,catch,"[(1166, 766)]",[],[1],[],horizontal,"(390.0, 262.0)",1.7,nan,1,4249.716,3,0.0,same
0,571,valid,"[(1160, 773)]",[],[1],[0.65],vertical,"(390.0, 762.0)",1.5,0.603,1,4256.03,3,0.0,same
0,572,invalid_adjacent_other_bar,"[(1155, 794)]",[],[1],[0.6666666666666666],horizontal,"(890.0, 262.0)",1.45,0.625,1,4262.424,3,0.0,other
0,573,catch,"[(1167, 787)]",[],[1],[],vertical,"(390.0, 262.0)",1.7,nan,1,4268.531,3,0.0,same
0,574,valid,"[(1175, 789)]",[],[1],[0.5833333333333334],vertical,"(890.0, 762.0)",0.75,0.536,1,4274.397,3,0.0,same
0,575,valid,"[(1162, 769)]",[],[1],[0.5666666666666667],vertical,"(890.0, 762.0)",0.8166666666666667,0.526,1,4280.36,3,0.0,same
0,576,valid,"[(1167, 777)]",[],[1],[0.5166666666666666],vertical,"(890.0, 262.0)",0.85,0.48,1,4285.847,3,0.0,same
0,577,catch,"[(1164, 791)]",[],[1],[],vertical,"(890.0, 762.0)",1.7,nan,1,4291.431,3,0.0,same
0,578,valid,"[(1168, 782)]",[],[1],[0.5666666666666667],vertical,"(890.0, 262.0)",1.45,0.525,1,4297.236,3,0.0,same
0,579,valid,"[(1178, 779)]",[],[1],[0.6],vertical,"(890.0, 262.0)",0.8166666666666667,0.561,1,4303.164,3,0.0,same
0,580,valid,"[(1175, 767)]",[],[1],[0.85],vertical,"(390.0, 762.0)",1.1,nan,0,4308.531,0,0.0,same
0,581,catch,"[(1140, 767)]",[],[1],[],vertical,"(390.0, 762.0)",1.7,nan,1,4313.198,1,0.0,same
0,582,valid,"[(1167, 769)]",[],[1],[0.5166666666666666],vertical,"(390.0, 762.0)",0.8666666666666667,0.479,1,4318.881,1,0.0,same
0,583,valid,"[(1180, 777)]",[],[1],[0.55],vertical,"(390.0, 262.0)",0.9166666666666666,0.516,1,4323.423,1,0.0,same
0,584,valid,"[(1181, 783)]",[],[1],[0.5],horizontal,"(390.0, 762.0)",0.8666666666666667,0.469,1,4328.365,2,0.0,same
0,585,valid,"[(1170, 778)]",[],[1],[0.7333333333333333],vertical,"(390.0, 762.0)",1.0833333333333333,0.69,1,4333.314,2,0.0,same
0,586,catch,"[(1165, 769)]",[],[1],[],horizontal,"(890.0, 262.0)",1.7,nan,1,4339.148,2,0.0,same
0,587,valid,"[(1175, 783)]",[],[1],[0.5666666666666667],horizontal,"(890.0, 762.0)",1.3333333333333333,0.532,1,4344.945,3,0.0,same
0,588,valid,"[(1175, 778)]",[],[1],[0.6166666666666667],vertical,"(890.0, 262.0)",0.6333333333333333,0.578,1,4351.547,3,0.0,same
0,589,catch,"[(1160, 789)]",[],[1],[],vertical,"(890.0, 762.0)",1.7,nan,1,4357.146,3,0.0,same
0,590,valid,"[(1160, 776)]",[],[1],[0.5],horizontal,"(390.0, 262.0)",0.5333333333333333,0.462,1,4363.104,3,0.0,same
0,591,valid,"[(1164, 795)]",[],[1],[0.6],vertical,"(890.0, 762.0)",1.5333333333333332,0.561,1,4368.765,3,0.0,same
0,592,valid,"[(1144, 794)]",[],[1],[0.5333333333333333],horizontal,"(390.0, 762.0)",0.85,0.495,1,4374.853,3,0.0,same
0,593,valid,"[(1161, 810)]",[],[1],[0.6],horizontal,"(390.0, 262.0)",0.3833333333333333,0.557,1,4380.466,3,0.0,same
0,594,invalid_same_bar,"[(1165, 794)]",[],[1],[0.65],vertical,"(390.0, 762.0)",1.5333333333333332,0.612,1,4385.418,3,0.0,same
0,595,catch,"[(1170, 790)]",[],[1],[],vertical,"(890.0, 762.0)",1.7,nan,1,4392.081,3,0.0,same
0,596,valid,"[(1179, 788)]",[],[1],[0.6666666666666666],vertical,"(390.0, 762.0)",1.1166666666666667,0.63,1,4398.129,3,0.0,same
0,597,valid,"[(1180, 790)]",[],[1],[0.48333333333333334],horizontal,"(890.0, 262.0)",0.8,0.446,1,4404.391,3,0.0,same
0,598,valid,"[(1170, 779)]",[],[1],[0.6],vertical,"(390.0, 262.0)",1.25,0.556,1,4409.814,3,0.0,same
0,599,valid,"[(1180, 787)]",[],[1],[0.5],vertical,"(390.0, 262.0)",0.7333333333333333,0.46,1,4415.999,3,0.0,same
0,600,valid,"[(1178, 779)]",[],[1],[0.5833333333333334],vertical,"(890.0, 762.0)",1.05,0.544,1,4421.7,3,0.0,same
0,601,valid,"[(1166, 787)]",[],[1],[0.6666666666666666],horizontal,"(390.0, 262.0)",0.75,0.62,1,4427.821,3,0.0,same
0,602,valid,"[(1179, 783)]",[],[1],[0.6166666666666667],vertical,"(390.0, 262.0)",1.0166666666666666,0.576,1,4433.714,3,0.0,same
0,603,valid,"[(1162, 768)]",[],[1],[0.5],horizontal,"(890.0, 262.0)",1.1666666666666667,0.463,1,4439.828,3,0.0,same
0,604,valid,"[(1180, 786)]",[],[1],[0.5833333333333334],horizontal,"(390.0, 762.0)",1.1333333333333333,0.544,1,4445.817,3,0.0,same
0,605,valid,"[(1182, 772)]",[],[1],[0.6333333333333333],vertical,"(390.0, 262.0)",1.5166666666666666,0.594,1,4451.777,3,0.0,same
0,606,catch,"[(1160, 775)]",[],[1],[],vertical,"(390.0, 762.0)",1.7,nan,1,4458.183,3,0.0,same
0,607,valid,"[(1178, 779)]",[],[1],[0.5166666666666666],horizontal,"(390.0, 762.0)",0.6333333333333333,0.478,1,4464.076,3,0.0,same
0,608,valid,"[(1180, 778)]",[],[1],[0.5666666666666667],vertical,"(390.0, 762.0)",0.6166666666666667,0.534,1,4469.198,3,0.0,same
0,609,valid,"[(1162, 772)]",[],[1],[0.6666666666666666],vertical,"(890.0, 262.0)",0.55,0.629,1,4474.699,3,0.0,same
0,610,valid,"[(1180, 779)]",[],[1],[0.75],horizontal,"(390.0, 262.0)",1.2333333333333334,0.705,1,4479.998,3,0.0,same
0,611,invalid_same_bar,"[(1164, 769)]",[],[1],[0.55],horizontal,"(890.0, 762.0)",0.5166666666666666,0.509,1,4485.998,3,0.0,same
0,612,valid,"[(1178, 789)]",[],[1],[0.5166666666666666],vertical,"(890.0, 262.0)",1.4,0.481,1,4491.431,3,0.0,same
0,613,catch,"[(1180, 783)]",[],[1],[],vertical,"(390.0, 262.0)",1.7,nan,1,4497.922,3,0.0,same
0,614,valid,"[(1179, 779)]",[],[1],[0.55],horizontal,"(390.0, 262.0)",1.0166666666666666,0.515,1,4504.25,3,0.0,same
0,615,valid,"[(1165, 770)]",[],[1],[0.5833333333333334],horizontal,"(890.0, 762.0)",1.0166666666666666,0.551,1,4509.649,3,0.0,same
0,616,valid,"[(1185, 778)]",[],[1],[0.65],vertical,"(390.0, 262.0)",0.35,0.609,1,4515.226,3,0.0,same
0,617,valid,"[(1164, 793)]",[],[1],[0.05],horizontal,"(890.0, 762.0)",1.2833333333333332,0.021,0,4520.914,0,0.0,same
0,618,catch,"[(1163, 795)]",[],[1],[],vertical,"(390.0, 762.0)",1.7,nan,1,4525.199,1,0.0,same
0,619,catch,"[(1180, 776)]",[],[1],[],vertical,"(390.0, 262.0)",1.7,nan,1,4530.781,1,0.0,same
0,620,valid,"[(1180, 770)]",[],[1],[0.5166666666666666],horizontal,"(890.0, 262.0)",0.7,0.481,1,4535.814,1,0.0,same
0,621,catch,"[(1175, 787)]",[],[1],[],horizontal,"(890.0, 262.0)",1.7,nan,1,4540.648,2,0.0,same
0,622,valid,"[(1192, 790)]",[],[1],[0.5833333333333334],vertical,"(890.0, 762.0)",0.5333333333333333,0.543,1,4546.337,2,0.0,same
0,623,valid,"[(1170, 780)]",[],[1],[0.5333333333333333],vertical,"(390.0, 762.0)",0.6,0.489,1,4551.302,2,0.0,same
0,624,valid,"[(1160, 779)]",[],[1],[0.5666666666666667],horizontal,"(390.0, 762.0)",0.55,0.523,1,4556.151,3,0.0,same
0,625,valid,"[(1160, 783)]",[],[1],[0.5333333333333333],vertical,"(890.0, 262.0)",0.7,0.497,1,4561.632,3,0.0,same
0,626,valid,"[(1181, 775)]",[],[1],[0.6],horizontal,"(390.0, 762.0)",0.9166666666666666,0.56,1,4567.348,3,0.0,same
0,627,catch,"[(1170, 779)]",[],[1],[],horizontal,"(390.0, 262.0)",1.7,nan,1,4572.873,3,0.0,same
0,628,valid,"[(1185, 786)]",[],[1],[0.5833333333333334],vertical,"(890.0, 762.0)",1.4,0.541,1,4578.516,3,0.0,same
0,629,valid,"[(1160, 764)]",[],[1],[0.6833333333333333],vertical,"(390.0, 762.0)",1.0166666666666666,0.641,1,4584.815,3,0.0,same
0,630,catch,"[(1180, 770)]",[],[1],[],horizontal,"(890.0, 262.0)",1.7,nan,1,4590.949,3,0.0,same
0,631,valid,"[(1180, 774)]",[],[1],[0.5],vertical,"(890.0, 262.0)",0.7833333333333333,0.463,1,4596.698,3,0.0,same
0,632,catch,"[(1180, 766)]",[],[1],[],horizontal,"(890.0, 262.0)",1.7,nan,1,4601.949,3,0.0,same
0,633,invalid_adjacent_other_bar,"[(1170, 769)]",[],[1],[0.48333333333333334],vertical,"(890.0, 262.0)",0.35,0.45,1,4607.899,3,0.0,other
0,634,catch,"[(1181, 778)]",[],[1],[],horizontal,"(890.0, 262.0)",1.7,nan,1,4612.765,3,0.0,same
0,635,catch,"[(1185, 785)]",[],[1],[],horizontal,"(390.0, 262.0)",1.7,nan,1,4618.82,3,0.0,same
0,636,catch,"[(1163, 788)]",[],[1],[],vertical,"(890.0, 262.0)",1.7,nan,1,4625.29,3,0.0,same
0,637,valid,"[(1179, 774)]",[],[1],[0.6333333333333333],horizontal,"(390.0, 262.0)",0.7166666666666667,0.602,1,4631.19,3,0.0,same
0,638,valid,"[(1158, 776)]",[],[1],[0.7166666666666667],vertical,"(390.0, 762.0)",0.95,0.678,1,4636.728,3,0.0,same
0,639,catch,"[(1188, 789)]",[],[1],[],horizontal,"(390.0, 762.0)",1.7,nan,1,4642.584,3,0.0,same
0,640,valid,"[(1181, 769)]",[],[1],[0.3],horizontal,"(390.0, 762.0)",1.0,0.261,1,4648.211,3,0.0,same
0,641,valid,"[(1177, 778)]",[],[1],[0.5166666666666666],vertical,"(390.0, 262.0)",0.5,0.48,1,4653.604,3,0.0,same
0,642,valid,"[(1183, 759)]",[],[1],[0.55],vertical,"(890.0, 762.0)",0.8666666666666667,0.511,1,4659.141,3,0.0,same
0,643,catch,"[(1151, 788)]",[],[1],[],vertical,"(890.0, 262.0)",1.7,nan,1,4665.211,3,0.0,same
0,644,invalid_same_bar,"[(1161, 791)]",[],[1],[0.85],horizontal,"(390.0, 762.0)",0.95,nan,0,4670.876,0,0.0,same
0,645,valid,"[(1163, 772)]",[],[1],[0.6],horizontal,"(890.0, 762.0)",0.35,0.568,1,4675.656,1,0.0,same
0,646,valid,"[(1165, 794)]",[],[1],[0.5833333333333334],horizontal,"(390.0, 262.0)",1.25,0.552,1,4680.276,1,0.0,same
0,647,catch,"[(1166, 798)]",[],[1],[],vertical,"(390.0, 762.0)",1.7,nan,1,4685.87,1,0.0,same
0,648,valid,"[(1165, 804)]",[],[1],[0.6],horizontal,"(890.0, 762.0)",1.3333333333333333,0.566,1,4691.435,2,0.0,same
0,649,catch,"[(1163, 781)]",[],[1],[],vertical,"(390.0, 262.0)",1.7,nan,1,4697.365,2,0.0,same
0,650,catch,"[(1160, 794)]",[],[1],[],horizontal,"(890.0, 262.0)",1.7,nan,1,4702.699,2,0.0,same
0,651,catch,"[(1179, 776)]",[],[1],[],horizontal,"(890.0, 762.0)",,"('cti', 1.636),nan",0,4708.095,0,0.02,same
0,652,catch,"[(1164, 820)]",[],[1],[],horizontal,"(390.0, 762.0)",1.7,nan,1,4713.278,1,0.02,same
0,653,valid,"[(1162, 790)]",[],[1],[0.55],vertical,"(890.0, 762.0)",1.05,0.515,1,4718.151,1,0.02,same
0,654,catch,"[(1180, 782)]",[],[1],[],vertical,"(390.0, 762.0)",1.7,nan,1,4723.183,1,0.02,same
0,655,valid,"[(1180, 786)]",[],[1],[0.3833333333333333],horizontal,"(890.0, 762.0)",0.5833333333333334,0.344,1,4728.25,2,0.02,same
0,656,valid,"[(1183, 784)]",[],[1],[0.43333333333333335],horizontal,"(890.0, 262.0)",0.7333333333333333,0.395,1,4733.09,2,0.02,same
0,657,valid,"[(1170, 779)]",[],[1],[0.55],vertical,"(390.0, 762.0)",0.75,0.51,1,4738.533,2,0.02,same
0,658,valid,"[(1181, 765)]",[],[1],[0.7],horizontal,"(890.0, 262.0)",0.4666666666666667,0.657,1,4743.548,3,0.02,same
0,659,valid,"[(1165, 796)]",[],[1],[0.5],horizontal,"(390.0, 262.0)",1.1166666666666667,0.457,1,4749.118,3,0.02,same
0,660,valid,"[(1172, 777)]",[],[1],[0.85],vertical,"(890.0, 762.0)",0.95,nan,0,4754.749,0,0.02,same
0,661,valid,"[(1162, 799)]",[],[1],[0.35],horizontal,"(890.0, 262.0)",1.5,0.316,1,4759.365,1,0.02,same
0,662,valid,"[(1160, 785)]",[],[1],[0.5333333333333333],vertical,"(890.0, 762.0)",1.45,0.497,1,4764.551,1,0.02,same
0,663,valid,"[(1181, 783)]",[],[1],[0.6166666666666667],vertical,"(390.0, 762.0)",0.4666666666666667,0.572,1,4769.916,1,0.02,same
0,664,valid,"[(1180, 785)]",[],[1],[0.6333333333333333],vertical,"(390.0, 262.0)",0.7666666666666666,0.593,1,4774.233,2,0.02,same
0,665,invalid_adjacent_other_bar,"[(1178, 788)]",[],[1],[0.5833333333333334],horizontal,"(390.0, 262.0)",0.4666666666666667,0.541,1,4779.715,2,0.02,other
0,666,valid,"[(1178, 798)]",[],[1],[0.85],horizontal,"(890.0, 762.0)",1.0166666666666666,nan,0,4784.83,0,0.02,same
0,667,catch,"[(1144, 765)]",[],[1],[],horizontal,"(390.0, 262.0)",1.7,nan,1,4789.983,1,0.02,same
0,668,valid,"[(1180, 783)]",[],[1],[0.5333333333333333],horizontal,"(890.0, 262.0)",0.4666666666666667,0.493,1,4795.104,1,0.02,same
0,669,valid,"[(1125, 813)]",[],[1],[0.5333333333333333],horizontal,"(890.0, 762.0)",0.7,0.492,1,4799.899,1,0.02,same
0,670,valid,"[(1176, 778)]",[],[1],[0.5333333333333333],horizontal,"(890.0, 262.0)",0.5,0.499,1,4805.504,2,0.02,same
0,671,valid,"[(1175, 796)]",[],[1],[0.6833333333333333],horizontal,"(890.0, 262.0)",1.0,0.643,1,4810.249,2,0.02,same
0,672,valid,"[(1179, 776)]",[],[1],[0.5833333333333334],horizontal,"(890.0, 262.0)",0.75,0.541,1,4815.518,2,0.02,same
0,673,valid,"[(1154, 797)]",[],[1],[0.65],horizontal,"(890.0, 262.0)",0.65,0.613,1,4820.268,3,0.02,same
0,674,catch,"[(1180, 792)]",[],[1],[],horizontal,"(390.0, 762.0)",1.7,nan,1,4826.085,3,0.02,same
0,675,valid,"[(1180, 780)]",[],[1],[0.6],vertical,"(390.0, 762.0)",1.3166666666666667,0.559,1,4831.754,3,0.02,same
0,676,catch,"[(1181, 783)]",[],[1],[],vertical,"(890.0, 762.0)",1.7,nan,1,4837.933,3,0.02,same
0,677,valid,"[(1155, 793)]",[],[1],[0.5333333333333333],vertical,"(390.0, 262.0)",0.7666666666666666,0.49,1,4843.966,3,0.02,same
0,678,invalid_same_bar,"[(1180, 777)]",[],[1],[0.6166666666666667],vertical,"(390.0, 262.0)",1.3833333333333333,0.571,1,4849.278,3,0.02,same
0,679,catch,"[(1165, 783)]",[],[1],[],vertical,"(390.0, 262.0)",1.7,nan,1,4855.468,3,0.02,same
0,680,valid,"[(1176, 791)]",[],[1],[0.5333333333333333],horizontal,"(890.0, 762.0)",0.4,0.494,1,4861.705,3,0.02,same
0,681,invalid_adjacent_other_bar,"[(1170, 773)]",[],[1],[0.6],vertical,"(890.0, 262.0)",1.3833333333333333,0.556,1,4866.729,3,0.02,other
0,682,catch,"[(1170, 776)]",[],[1],[],horizontal,"(890.0, 262.0)",1.7,nan,1,4872.671,3,0.02,same
0,683,catch,"[(1180, 781)]",[],[1],[],vertical,"(890.0, 262.0)",1.7,nan,1,4878.712,3,0.02,same
0,684,valid,"[(1180, 780)]",[],[1],[0.5666666666666667],vertical,"(890.0, 262.0)",1.2666666666666666,0.524,1,4884.494,3,0.02,same
0,685,invalid_same_bar,"[(1170, 776)]",[],[1],[0.5333333333333333],vertical,"(390.0, 762.0)",1.4833333333333334,0.497,1,4890.367,3,0.02,same
0,686,valid,"[(1180, 778)]",[],[1],[0.55],vertical,"(890.0, 762.0)",1.5333333333333332,0.51,1,4896.549,3,0.02,same
0,687,catch,"[(1180, 794)]",[],[1],[],vertical,"(890.0, 262.0)",1.7,nan,1,4902.549,3,0.02,same
0,688,catch,"[(1170, 783)]",[],[1],[],vertical,"(390.0, 762.0)",1.7,nan,1,4908.594,3,0.02,same
0,689,valid,"[(1175, 782)]",[],[1],[0.7166666666666667],vertical,"(890.0, 762.0)",1.1166666666666667,0.677,1,4914.799,3,0.02,same
0,690,valid,"[(1166, 797)]",[],[1],[0.7],vertical,"(890.0, 762.0)",1.4333333333333333,0.66,1,4921.001,3,0.02,same
0,691,valid,"[(1163, 789)]",[],[1],[0.5833333333333334],vertical,"(890.0, 762.0)",0.65,0.538,1,4927.184,3,0.02,same
0,692,valid,"[(1165, 779)]",[],[1],[0.5166666666666666],vertical,"(390.0, 762.0)",1.05,0.474,1,4933.018,3,0.02,same
0,693,invalid_adjacent_other_bar,"[(1160, 791)]",[],[1],[0.1],vertical,"(890.0, 262.0)",1.1666666666666667,0.069,0,4938.533,0,0.02,other
0,694,catch,"[(1145, 795)]",[],[1],[],vertical,"(890.0, 762.0)",1.7,nan,1,4942.933,1,0.02,same
0,695,valid,"[(1160, 794)]",[],[1],[0.5666666666666667],vertical,"(890.0, 262.0)",0.75,0.528,1,4947.949,1,0.02,same
0,696,valid,"[(1164, 777)]",[],[1],[0.15],vertical,"(890.0, 762.0)",0.5166666666666666,0.119,0,4952.633,0,0.02,same
0,697,valid,"[(1137, 789)]",[],[1],[0.7833333333333333],vertical,"(890.0, 762.0)",1.2333333333333334,0.735,1,4956.784,1,0.02,same
0,698,valid,"[(1162, 789)]",[],[1],[0.5333333333333333],horizontal,"(890.0, 262.0)",0.7333333333333333,0.49,1,4962.49,1,0.02,same
0,699,valid,"[(1178, 766)]",[],[1],[0.6333333333333333],horizontal,"(890.0, 262.0)",1.0833333333333333,0.59,1,4966.849,1,0.02,same
0,700,invalid_same_bar,"[(1175, 774)]",[],[1],[0.5166666666666666],vertical,"(390.0, 262.0)",0.3833333333333333,0.472,1,4972.309,2,0.02,same
0,701,catch,"[(1166, 774)]",[],[1],[],vertical,"(390.0, 762.0)",1.7,nan,1,4977.1,2,0.0,same
0,702,valid,"[(1168, 794)]",[],[1],[0.75],horizontal,"(390.0, 262.0)",1.0333333333333332,0.707,1,4982.716,2,0.0,same
0,703,valid,"[(1178, 790)]",[],[1],[0.6166666666666667],vertical,"(390.0, 762.0)",1.3833333333333333,0.572,1,4988.286,3,0.0,same
0,704,valid,"[(1176, 783)]",[],[1],[0.85],horizontal,"(390.0, 762.0)",0.95,nan,0,4994.67,0,0.0,same
0,705,valid,"[(1160, 794)]",[],[1],[0.55],vertical,"(390.0, 762.0)",0.5833333333333334,0.509,1,4999.617,1,0.0,same
0,706,valid,"[(1165, 784)]",[],[1],[0.55],vertical,"(390.0, 262.0)",0.8666666666666667,0.507,1,5004.284,1,0.0,same
0,707,valid,"[(1175, 796)]",[],[1],[0.5333333333333333],vertical,"(890.0, 762.0)",0.48333333333333334,0.49,1,5009.267,1,0.0,same
0,708,catch,"[(1167, 772)]",[],[1],[],horizontal,"(890.0, 262.0)",1.7,nan,1,5013.55,2,0.0,same
0,709,valid,"[(1180, 789)]",[],[1],[0.48333333333333334],vertical,"(890.0, 262.0)",1.4833333333333334,0.443,1,5019.171,2,0.0,same
0,710,valid,"[(1175, 792)]",[],[1],[0.6666666666666666],horizontal,"(390.0, 762.0)",1.1166666666666667,0.621,1,5024.735,2,0.0,same
0,711,valid,"[(1165, 793)]",[],[1],[0.5833333333333334],horizontal,"(390.0, 762.0)",1.5,0.542,1,5030.483,3,0.0,same
0,712,valid,"[(1183, 794)]",[],[1],[0.5333333333333333],horizontal,"(390.0, 262.0)",1.4,0.487,1,5036.817,3,0.0,same
0,713,valid,"[(1179, 795)]",[],[1],[0.5333333333333333],vertical,"(890.0, 262.0)",1.0,0.491,1,5043.316,3,0.0,same
0,714,valid,"[(1162, 766)]",[],[1],[0.5333333333333333],vertical,"(890.0, 762.0)",0.8333333333333334,0.495,1,5049.282,3,0.0,same
0,715,catch,"[(1146, 789)]",[],[1],[],vertical,"(890.0, 762.0)",1.7,nan,1,5055.333,3,0.0,same
0,716,valid,"[(1165, 775)]",[],[1],[0.6333333333333333],horizontal,"(890.0, 762.0)",0.5333333333333333,0.591,1,5061.813,3,0.0,same
0,717,valid,"[(1179, 778)]",[],[1],[0.5],horizontal,"(390.0, 762.0)",0.65,0.46,1,5067.416,3,0.0,same
0,718,valid,"[(1176, 763)]",[],[1],"[0.85, 0.85]",horizontal,"(890.0, 762.0)",1.05,"0.831,nan",0,5072.965,0,0.0,same
0,719,catch,"[(1148, 803)]",[],[1],[],vertical,"(890.0, 762.0)",1.7,nan,1,5077.621,1,0.0,same
0,720,valid,"[(1163, 789)]",[],[1],[0.6],horizontal,"(390.0, 762.0)",1.0666666666666667,0.554,1,5082.616,1,0.0,same
0,721,valid,"[(1178, 790)]",[],[1],[0.55],vertical,"(390.0, 762.0)",0.8333333333333334,0.51,1,5088.068,1,0.0,same
0,722,catch,"[(1170, 772)]",[],[1],[],vertical,"(890.0, 262.0)",1.7,nan,1,5092.967,2,0.0,same
0,723,valid,"[(1167, 793)]",[],[1],[0.5166666666666666],vertical,"(390.0, 762.0)",0.9333333333333333,0.476,1,5098.981,2,0.0,same
0,724,valid,"[(1160, 774)]",[],[1],[0.5166666666666666],vertical,"(390.0, 762.0)",0.9,0.478,1,5104.084,2,0.0,same
0,725,valid,"[(1125, 806)]",[],[1],[0.5666666666666667],horizontal,"(890.0, 262.0)",0.9333333333333333,0.526,1,5109.274,3,0.0,same
0,726,catch,"[(1175, 797)]",[],[1],[],vertical,"(890.0, 262.0)",1.7,nan,1,5122.22,3,0.0,same
0,727,catch,"[(1154, 796)]",[],[1],[],vertical,"(390.0, 762.0)",1.7,nan,1,5128.312,3,0.0,same
0,728,valid,"[(1163, 791)]",[],[1],[0.6166666666666667],horizontal,"(890.0, 762.0)",1.1,0.587,1,5134.551,3,0.0,same
0,729,invalid_adjacent_other_bar,"[(1162, 780)]",[],[1],[0.55],horizontal,"(390.0, 262.0)",0.7833333333333333,0.518,1,5140.686,3,0.0,other
0,730,valid,"[(1146, 785)]",[],[1],[0.5333333333333333],horizontal,"(890.0, 762.0)",1.35,0.499,1,5146.747,3,0.0,same
0,731,valid,"[(1175, 794)]",[],[1],[0.7],horizontal,"(390.0, 262.0)",0.4166666666666667,0.665,1,5152.797,3,0.0,same
0,732,valid,"[(1159, 788)]",[],[1],[0.55],vertical,"(890.0, 262.0)",0.4,0.52,1,5158.265,3,0.0,same
0,733,valid,"[(1161, 783)]",[],[1],[0.6833333333333333],horizontal,"(890.0, 262.0)",1.25,0.641,1,5163.414,3,0.0,same
0,734,valid,"[(1175, 809)]",[],[1],[0.85],horizontal,"(390.0, 262.0)",0.8166666666666667,nan,0,5169.634,0,0.0,same
0,735,valid,"[(1135, 783)]",[],[1],[0.7166666666666667],horizontal,"(890.0, 262.0)",1.1666666666666667,0.678,1,5174.085,1,0.0,same
0,736,catch,"[(1160, 790)]",[],[1],[],horizontal,"(390.0, 262.0)",,"('cti', 1.563),nan",0,5179.208,0,0.02,same
0,737,catch,"[(1139, 804)]",[],[1],[],horizontal,"(890.0, 262.0)",1.7,nan,1,5183.782,1,0.02,same
0,738,valid,"[(1165, 816)]",[],[1],[0.6166666666666667],vertical,"(390.0, 762.0)",0.4166666666666667,0.577,1,5211.638,1,0.02,same
0,739,valid,"[(1176, 793)]",[],[1],[0.26666666666666666],horizontal,"(390.0, 762.0)",1.2166666666666666,0.228,1,5216.485,1,0.02,same
0,740,valid,"[(1172, 801)]",[],[1],[0.7166666666666667],vertical,"(390.0, 762.0)",0.9333333333333333,0.675,1,5221.793,2,0.02,same
0,741,valid,"[(1150, 778)]",[],[1],[0.6333333333333333],vertical,"(890.0, 262.0)",1.1833333333333333,0.59,1,5227.418,2,0.02,same
0,742,catch,"[(1155, 799)]",[],[1],[],horizontal,"(390.0, 262.0)",1.7,nan,1,5233.298,2,0.02,same
0,743,valid,"[(1161, 771)]",[],[1],[0.6333333333333333],vertical,"(890.0, 262.0)",0.75,0.593,1,5238.82,3,0.02,same
0,744,catch,"[(1170, 774)]",[],[1],[0.03333333333333333],horizontal,"(390.0, 762.0)",1.7,"0.023,nan",0,5244.551,0,0.04,same
0,745,catch,"[(1160, 799)]",[],[1],[],horizontal,"(890.0, 262.0)",1.7,nan,1,5249.068,1,0.04,same
0,746,catch,"[(1160, 779)]",[],[1],[],vertical,"(390.0, 262.0)",1.7,nan,1,5254.067,1,0.04,same
0,747,valid,"[(1153, 773)]",[],[1],[0.6],vertical,"(890.0, 262.0)",1.2,0.562,1,5259.675,1,0.04,same
0,748,valid,"[(1165, 799)]",[],[1],[0.5333333333333333],horizontal,"(390.0, 262.0)",1.3166666666666667,0.492,1,5264.667,2,0.04,same
0,749,invalid_same_bar,"[(1171, 793)]",[],[1],[0.5166666666666666],vertical,"(390.0, 762.0)",0.9,0.473,1,5270.363,2,0.04,same
0,750,valid,"[(1160, 792)]",[],[1],[0.48333333333333334],vertical,"(890.0, 262.0)",1.4333333333333333,0.448,1,5275.649,2,0.04,same
0,751,valid,"[(1161, 783)]",[],[1],[0.5166666666666666],vertical,"(390.0, 762.0)",0.9333333333333333,0.478,1,5281.485,3,0.04,same
0,752,valid,"[(1177, 804)]",[],[1],[0.6833333333333333],vertical,"(890.0, 762.0)",0.6166666666666667,0.635,1,5287.544,3,0.04,same
0,753,valid,"[(1156, 799)]",[],[1],[0.6666666666666666],vertical,"(890.0, 262.0)",1.2166666666666666,0.619,1,5292.928,3,0.04,same
0,754,valid,"[(1182, 796)]",[],[1],[0.5833333333333334],vertical,"(390.0, 262.0)",1.3,0.548,1,5299.051,3,0.04,same
0,755,catch,"[(1166, 782)]",[],[1],[],horizontal,"(390.0, 762.0)",1.7,nan,1,5305.134,3,0.04,same
0,756,valid,"[(1179, 779)]",[],[1],[0.5666666666666667],horizontal,"(390.0, 762.0)",1.2333333333333334,0.527,1,5310.883,3,0.04,same
0,757,catch,"[(1179, 782)]",[],[1],[],vertical,"(390.0, 262.0)",1.7,nan,1,5316.774,3,0.04,same
0,758,valid,"[(1137, 817)]",[],[1],[0.85],vertical,"(890.0, 762.0)",0.9166666666666666,nan,0,5322.335,0,0.04,same
0,759,catch,"[(1178, 831)]",[],[1],[],vertical,"(890.0, 762.0)",1.7,nan,1,5424.618,1,0.04,same
0,760,catch,"[(1160, 817)]",[],[1],[],horizontal,"(890.0, 762.0)",1.7,nan,1,5430.076,1,0.04,same
0,761,valid,"[(1135, 810)]",[],[1],[0.85],horizontal,"(390.0, 262.0)",1.3166666666666667,nan,0,5435.642,0,0.04,same
0,762,valid,"[(1091, 833)]",[],[1],[0.6333333333333333],horizontal,"(890.0, 262.0)",0.6166666666666667,0.59,1,7978.026,1,0.04,same
0,763,valid,"[(1166, 777)]",[],[1],[0.48333333333333334],horizontal,"(890.0, 262.0)",1.3,0.44,1,7985.493,1,0.04,same
0,764,valid,"[(1175, 799)]",[],[1],[0.5833333333333334],vertical,"(890.0, 762.0)",0.85,0.543,1,7991.323,1,0.04,same
0,765,valid,"[(1160, 776)]",[],[1],[0.7166666666666667],vertical,"(890.0, 262.0)",1.2166666666666666,0.667,1,7996.46,2,0.04,same
0,766,catch,"[(1155, 762)]","[(1130, 873)]",[1],[0.85],vertical,"(890.0, 262.0)",,"('bar', 0.853),nan",0,8002.227,0,0.06,same
0,767,valid,"[(1138, 778)]",[],[1],[0.48333333333333334],vertical,"(890.0, 762.0)",1.5333333333333332,0.445,1,8005.56,1,0.06,same
0,768,valid,"[(1156, 783)]",[],[1],[0.85],vertical,"(390.0, 262.0)",0.5166666666666666,nan,0,8011.237,0,0.06,same
0,769,catch,"[(1173, 790)]",[],[1],[],vertical,"(890.0, 262.0)",1.7,nan,1,8015.992,1,0.06,same
0,770,valid,"[(1180, 789)]",[],[1],[0.6],vertical,"(390.0, 762.0)",1.1166666666666667,0.551,1,8021.331,1,0.06,same
0,771,invalid_adjacent_other_bar,"[(1165, 791)]",[],[1],[0.85],horizontal,"(390.0, 262.0)",1.1166666666666667,nan,0,8026.415,0,0.06,other
0,772,valid,"[(1183, 766)]",[],[1],[0.13333333333333333],vertical,"(390.0, 262.0)",0.9833333333333333,0.105,0,8031.407,0,0.06,same
0,773,valid,"[(1109, 753), (1127, 814)]",[],"[0, 1]",[0.8],horizontal,"(890.0, 262.0)",1.0333333333333332,0.751,1,8035.944,1,0.06,same
0,774,valid,"[(1145, 759)]",[],[1],[0.5833333333333334],horizontal,"(390.0, 762.0)",1.2,0.545,1,8042.415,1,0.06,same
0,775,valid,"[(1156, 775)]",[],[1],[0.85],horizontal,"(890.0, 262.0)",1.4,nan,0,8047.411,0,0.06,same
0,776,valid,"[(1179, 770)]",[],[1],[0.6666666666666666],vertical,"(890.0, 262.0)",0.8,0.62,1,8052.861,1,0.06,same
0,777,catch,"[(1173, 796)]",[],[1],[],horizontal,"(390.0, 262.0)",1.7,nan,1,8058.227,1,0.06,same
0,778,valid,"[(1197, 789)]",[],[1],[0.6333333333333333],horizontal,"(890.0, 262.0)",0.6833333333333333,0.589,1,8063.46,1,0.06,same
0,779,valid,"[(1179, 799)]",[],[1],[0.65],horizontal,"(390.0, 762.0)",1.3666666666666667,0.604,1,8068.494,2,0.06,same
0,780,valid,"[(1183, 778)]",[],[1],[0.48333333333333334],horizontal,"(390.0, 262.0)",0.7166666666666667,0.44,1,8074.435,2,0.06,same
0,781,valid,"[(1183, 801)]",[],[1],[0.5166666666666666],vertical,"(890.0, 762.0)",0.36666666666666664,0.474,1,8079.706,2,0.06,same
0,782,valid,"[(1160, 769)]",[],[1],[0.6],vertical,"(890.0, 262.0)",0.7333333333333333,0.558,1,8084.261,3,0.06,same
0,783,invalid_adjacent_other_bar,"[(1180, 796)]",[],[1],[0.85],horizontal,"(390.0, 262.0)",0.9333333333333333,nan,0,8089.86,0,0.06,other
0,784,catch,"[(1164, 793)]",[],[1],[],vertical,"(390.0, 762.0)",1.7,nan,1,8094.804,1,0.06,same
0,785,valid,"[(1182, 788)]",[],[1],[0.65],vertical,"(390.0, 262.0)",0.35,0.606,1,8099.944,1,0.06,same
0,786,valid,"[(1162, 752), (1122, 800)]",[],"[0, 1]",[0.5833333333333334],horizontal,"(890.0, 262.0)",0.9666666666666667,0.537,1,8104.933,1,0.04,same
0,787,valid,"[(1186, 799)]",[],[1],[0.65],vertical,"(890.0, 762.0)",1.2666666666666666,0.602,1,8111.451,2,0.04,same
0,788,valid,"[(1206, 789)]","[(1116, 866)]",[1],[0.48333333333333334],horizontal,"(390.0, 762.0)",,"('bar', 0.5)",0,8117.703,0,0.04,same
0,789,valid,"[(1153, 788)]",[],[1],[0.6],horizontal,"(390.0, 762.0)",1.5166666666666666,0.558,1,8120.399,1,0.04,same
0,790,valid,"[(1180, 767)]",[],[1],[0.7333333333333333],vertical,"(890.0, 762.0)",1.2666666666666666,0.681,1,8126.31,1,0.04,same
0,791,valid,"[(1175, 803)]",[],[1],[0.5333333333333333],horizontal,"(890.0, 762.0)",1.3166666666666667,0.508,1,8131.786,1,0.04,same
0,792,valid,"[(1174, 779)]",[],[1],[0.6833333333333333],horizontal,"(890.0, 262.0)",0.3833333333333333,0.636,1,8137.095,2,0.04,same
0,793,catch,"[(1160, 798)]",[],[1],[],horizontal,"(890.0, 262.0)",1.7,nan,1,8142.577,2,0.04,same
0,794,catch,"[(1176, 794)]",[],[1],[],vertical,"(390.0, 762.0)",1.7,nan,1,8148.01,2,0.02,same
0,795,valid,"[(1177, 780)]",[],[1],[0.6166666666666667],horizontal,"(390.0, 262.0)",0.9333333333333333,0.571,1,8154.053,3,0.02,same
0,796,valid,"[(1175, 788)]",[],[1],[0.55],vertical,"(890.0, 262.0)",1.4833333333333334,0.503,1,8160.215,3,0.02,same
0,797,valid,"[(1171, 781)]",[],[1],[0.85],vertical,"(390.0, 262.0)",1.05,nan,0,8166.428,0,0.02,same
0,798,valid,"[(1169, 798)]",[],[1],[0.7166666666666667],horizontal,"(390.0, 762.0)",1.5,0.669,1,8171.202,1,0.02,same
0,799,valid,"[(1171, 791)]",[],[1],[0.6666666666666666],horizontal,"(890.0, 762.0)",1.2,0.62,1,8176.645,1,0.02,same
0,800,valid,"[(1179, 804)]",[],[1],[0.5166666666666666],vertical,"(390.0, 762.0)",0.5166666666666666,0.475,1,8181.789,1,0.02,same
0,801,valid,"[(1179, 772)]",[],[1],[0.5666666666666667],horizontal,"(890.0, 762.0)",1.4166666666666667,0.526,1,8186.644,2,0.02,same
0,802,valid,"[(1179, 781)]",[],[1],[0.5666666666666667],horizontal,"(390.0, 262.0)",1.0166666666666666,0.522,1,8192.305,2,0.02,same
0,803,valid,"[(1175, 791)]",[],[1],[0.7166666666666667],horizontal,"(890.0, 262.0)",0.9833333333333333,0.673,1,8197.456,2,0.02,same
0,804,catch,"[(1211, 797)]",[],[1],[],vertical,"(390.0, 262.0)",1.7,nan,1,8203.253,3,0.02,same
0,805,valid,"[(1164, 759)]",[],[1],[0.5166666666666666],horizontal,"(890.0, 262.0)",0.7333333333333333,0.475,1,8209.111,3,0.02,same
0,806,catch,"[(1172, 766)]",[],[1],[],horizontal,"(890.0, 262.0)",1.7,nan,1,8214.621,3,0.02,same
0,807,valid,"[(1160, 781)]",[],[1],[0.85],horizontal,"(890.0, 762.0)",0.3833333333333333,nan,0,8220.766,0,0.02,same
0,808,valid,"[(1161, 784)]",[],[1],[0.7],horizontal,"(890.0, 762.0)",1.15,0.657,1,8225.061,1,0.02,same
0,809,valid,"[(1175, 783)]",[],[1],[0.5833333333333334],horizontal,"(890.0, 762.0)",1.4666666666666666,0.542,1,8230.254,1,0.02,same
0,810,valid,"[(1178, 754)]",[],[1],[0.55],vertical,"(890.0, 762.0)",0.35,0.51,1,8235.803,1,0.02,same
0,811,valid,"[(1178, 766)]",[],[1],[0.75],horizontal,"(890.0, 762.0)",0.36666666666666664,0.698,1,8240.431,2,0.02,same
0,812,valid,"[(1184, 759)]",[],[1],[0.45],horizontal,"(390.0, 762.0)",1.4,0.408,1,8245.79,2,0.02,same
0,813,catch,"[(1163, 779)]",[],[1],[],horizontal,"(890.0, 762.0)",1.7,nan,1,8251.692,2,0.02,same
0,814,valid,"[(1161, 791)]",[],[1],[0.6166666666666667],horizontal,"(390.0, 762.0)",1.35,0.577,1,8257.726,3,0.02,same
0,815,valid,"[(1170, 775)]",[],[1],[0.6833333333333333],vertical,"(390.0, 262.0)",0.6333333333333333,0.639,1,8263.978,3,0.02,same
0,816,valid,"[(1176, 772)]",[],[1],[0.55],vertical,"(390.0, 762.0)",0.8333333333333334,0.508,1,8269.231,3,0.0,same
0,817,catch,"[(1180, 785)]",[],[1],[],horizontal,"(390.0, 762.0)",1.7,nan,1,8274.978,3,0.0,same
0,818,valid,"[(1180, 783)]",[],[1],[0.5833333333333334],horizontal,"(390.0, 762.0)",0.5666666666666667,0.539,1,8280.76,3,0.0,same
0,819,catch,"[(1171, 744), (1124, 817)]",[],"[0, 1]",[],horizontal,"(390.0, 762.0)",1.7,nan,1,8285.995,3,0.0,same
0,820,catch,"[(1164, 783)]",[],[1],[],vertical,"(390.0, 762.0)",1.7,nan,1,8293.244,3,0.0,same
0,821,valid,"[(1176, 779)]",[],[1],[0.6833333333333333],horizontal,"(390.0, 262.0)",0.5666666666666667,0.64,1,8299.46,3,0.0,same
0,822,valid,"[(1173, 787)]",[],[1],[0.85],horizontal,"(890.0, 762.0)",1.1333333333333333,nan,0,8305.059,0,0.0,same
0,823,catch,"[(1165, 791)]",[],[1],[],horizontal,"(390.0, 262.0)",1.7,nan,1,8310.194,1,0.0,same
0,824,valid,"[(1174, 767)]",[],[1],[0.6333333333333333],horizontal,"(390.0, 262.0)",0.7666666666666666,0.591,1,8315.492,1,0.0,same
0,825,valid,"[(1172, 793)]",[],[1],[0.7166666666666667],horizontal,"(390.0, 762.0)",1.0166666666666666,0.671,1,8320.387,1,0.0,same
0,826,catch,"[(1175, 786)]",[],[1],[],vertical,"(890.0, 262.0)",1.7,nan,1,8325.976,2,0.0,same
0,827,valid,"[(1174, 789)]",[],[1],[0.85],vertical,"(390.0, 762.0)",1.2,nan,0,8332.045,0,0.0,same
0,828,valid,"[(1164, 773)]",[],[1],[0.7333333333333333],horizontal,"(890.0, 262.0)",1.25,0.69,1,8337.076,1,0.0,same
0,829,valid,"[(1177, 760)]",[],[1],[0.7],horizontal,"(890.0, 262.0)",0.9166666666666666,0.662,1,8342.355,1,0.0,same
0,830,valid,"[(1163, 783)]",[],[1],[0.5333333333333333],vertical,"(890.0, 762.0)",1.0166666666666666,0.492,1,8347.227,1,0.0,same
0,831,valid,"[(1204, 798)]",[],[1],[0.8],horizontal,"(890.0, 762.0)",0.48333333333333334,0.761,1,8351.962,2,0.0,same
0,832,valid,"[(1176, 788)]",[],[1],[0.85],horizontal,"(390.0, 762.0)",0.36666666666666664,nan,0,8357.861,0,0.0,same
0,833,catch,"[(1165, 784)]",[],[1],[],vertical,"(890.0, 762.0)",1.7,nan,1,8361.705,1,0.0,same
0,834,catch,"[(1162, 785)]",[],[1],[],horizontal,"(390.0, 262.0)",1.7,nan,1,8367.634,1,0.0,same
0,835,valid,"[(1165, 775)]",[],[1],[0.7333333333333333],horizontal,"(390.0, 762.0)",1.45,0.691,1,8372.819,1,0.0,same
0,836,valid,"[(1177, 784)]",[],[1],[0.7166666666666667],vertical,"(390.0, 762.0)",1.1666666666666667,0.666,1,8378.288,2,0.0,same
0,837,valid,"[(1162, 786)]",[],[1],[0.5],horizontal,"(890.0, 762.0)",0.9,0.462,1,8384.342,2,0.0,same
0,838,valid,"[(1161, 795)]",[],[1],[0.7333333333333333],vertical,"(390.0, 762.0)",1.1,0.69,1,8389.905,2,0.0,same
0,839,catch,"[(1208, 773)]",[],[1],[],horizontal,"(390.0, 262.0)",1.7,nan,1,8395.709,3,0.0,same
0,840,valid,"[(1170, 789)]",[],[1],[0.6666666666666666],vertical,"(390.0, 762.0)",0.75,0.62,1,8402.194,3,0.0,same
0,841,valid,"[(1177, 769)]",[],[1],[0.5666666666666667],horizontal,"(890.0, 262.0)",0.5,0.527,1,8407.684,3,0.0,same
0,842,valid,"[(1164, 767)]",[],[1],[0.85],horizontal,"(390.0, 762.0)",0.5,nan,0,8412.612,0,0.0,same
0,843,valid,"[(1160, 785)]",[],[1],[0.5166666666666666],vertical,"(390.0, 762.0)",1.5333333333333332,0.478,1,8417.289,1,0.0,same
0,844,valid,"[(1173, 770)]",[],[1],[0.5333333333333333],vertical,"(890.0, 762.0)",0.9833333333333333,0.492,1,8422.725,1,0.0,same
0,845,valid,"[(1165, 791)]",[],[1],[0.1],vertical,"(390.0, 262.0)",1.3,0.071,0,8427.846,0,0.0,same
0,846,catch,"[(1165, 792)]",[],[1],[],vertical,"(390.0, 762.0)",1.7,nan,1,8432.178,1,0.0,same
0,847,valid,"[(1168, 789)]",[],[1],[0.5666666666666667],horizontal,"(390.0, 762.0)",0.6,0.527,1,8437.112,1,0.0,same
0,848,valid,"[(1179, 793)]",[],[1],[0.8],vertical,"(390.0, 762.0)",0.4166666666666667,0.753,1,8441.678,1,0.0,same
0,849,valid,"[(1175, 783)]",[],[1],[0.6833333333333333],vertical,"(890.0, 262.0)",0.4666666666666667,0.647,1,8446.345,2,0.0,same
0,850,valid,"[(1164, 772)]",[],[1],[0.5333333333333333],horizontal,"(890.0, 262.0)",1.5,0.493,1,8451.322,2,0.0,same
0,851,catch,"[(1179, 797)]",[],[1],[],horizontal,"(390.0, 262.0)",1.7,nan,1,8457.062,2,0.0,same
0,852,valid,"[(1203, 793)]",[],[1],[0.5666666666666667],vertical,"(390.0, 762.0)",1.3666666666666667,0.523,1,8462.761,3,0.0,same
0,853,invalid_same_bar,"[(1164, 762)]",[],[1],[0.85],vertical,"(890.0, 762.0)",0.4666666666666667,nan,0,8469.527,0,0.0,same
0,854,valid,"[(1164, 784)]",[],[1],[0.6],vertical,"(390.0, 262.0)",0.8833333333333333,0.558,1,8473.612,1,0.0,same
0,855,catch,"[(1175, 790)]",[],[1],[],vertical,"(890.0, 762.0)",1.7,nan,1,8478.58,1,0.0,same
0,856,valid,"[(1183, 785)]",[],[1],[0.5833333333333334],horizontal,"(890.0, 262.0)",1.5,0.543,1,8484.127,1,0.0,same
0,857,valid,"[(1163, 818)]",[],[1],[0.5833333333333334],vertical,"(890.0, 262.0)",0.3833333333333333,0.546,1,8489.633,2,0.0,same
0,858,valid,"[(1178, 785)]",[],[1],[0.7],horizontal,"(390.0, 762.0)",0.5333333333333333,0.658,1,8494.346,2,0.0,same
0,859,valid,"[(1163, 789)]",[],[1],[0.55],horizontal,"(390.0, 762.0)",1.1333333333333333,0.511,1,8499.846,2,0.0,same
0,860,catch,"[(1180, 783)]",[],[1],[],vertical,"(390.0, 762.0)",1.7,nan,1,8505.796,3,0.0,same
0,861,valid,"[(1175, 762)]",[],[1],[0.85],vertical,"(890.0, 262.0)",0.6166666666666667,nan,0,8512.412,0,0.0,same
0,862,catch,"[(1163, 787)]",[],[1],[],horizontal,"(390.0, 262.0)",1.7,nan,1,8517.146,1,0.0,same
0,863,valid,"[(1163, 772)]",[],[1],[0.5333333333333333],horizontal,"(390.0, 262.0)",1.4333333333333333,0.497,1,8521.985,1,0.0,same
0,864,valid,"[(1161, 789)]",[],[1],[0.5666666666666667],horizontal,"(390.0, 762.0)",1.35,0.532,1,8527.312,1,0.0,same
0,865,valid,"[(1162, 774)]",[],[1],[0.7],vertical,"(890.0, 762.0)",0.9,0.66,1,8532.861,2,0.0,same
0,866,catch,"[(1179, 795)]",[],[1],[],horizontal,"(390.0, 262.0)",1.7,nan,1,8538.138,2,0.0,same
0,867,catch,"[(1179, 783)]",[],[1],[],vertical,"(390.0, 262.0)",1.7,nan,1,8543.622,2,0.0,same
0,868,valid,"[(1172, 790)]",[],[1],[0.6],vertical,"(390.0, 762.0)",0.5333333333333333,0.561,1,8549.246,3,0.0,same
0,869,catch,"[(1173, 756)]",[],[1],[],horizontal,"(390.0, 762.0)",1.7,nan,1,8555.287,3,0.0,same
