block,practice,trial,change_interval_s,change_interval_frames,taps_start_time_during_fix,taps_end_time_during_fix,taps_start_loc_during_fix,taps_end_loc_during_fix,taps_on_lever_during_fix,taps_on_lever_frame_during_fix,taps_on_lever_s_during_fix,fix_xy,bar_orientation,target_xy,cti,rt,acc,time
1,True,1,1.236,74,[],[204561],"[(1177, 868)]","[(1175, 876)]",[1],[22],[0.36666666666666664],"[640.0, 512.0]",horizontal,"(390.0, 262.0)",[],[0],0,0.565
1,True,2,1.182,70,[],[],"[(1190, 863)]",[],[1],[113],[1.8833333333333333],"[640.0, 512.0]",vertical,"(890.0, 262.0)",[1.2],[0.69],1,196.293
1,True,3,0.466,27,[],[],"[(1186, 880)]",[],[1],[60],[1.0],"[640.0, 512.0]",horizontal,"(890.0, 762.0)",[0.8],[0.526],1,201.971
1,True,4,0.981,58,[],[],"[(1216, 894)]",[],[1],[89],[1.4833333333333334],"[640.0, 512.0]",horizontal,"(890.0, 262.0)",[1.1833333333333333],[0.501],1,206.311
1,False,1,1.254,75,[],[],"[(1222, 923)]",[],[1],[125],[2.0833333333333335],"[640.0, 512.0]",horizontal,"(390.0, 262.0)",[0.65],[0.807],0,211.903
1,False,2,0.431,25,[],[],"[(1203, 914)]",[],[1],[62],[1.0333333333333332],"[640.0, 512.0]",vertical,"(390.0, 762.0)",[1.0666666666666667],[0.595],1,216.225
1,False,3,0.777,46,[],[],"[(1203, 906)]",[],[1],[83],[1.3833333333333333],"[640.0, 512.0]",vertical,"(890.0, 762.0)",[1.0333333333333332],[0.589],1,220.099
1,False,4,1.18,70,[],[],"[(1185, 906)]",[],[1],[107],[1.7833333333333332],"[640.0, 512.0]",horizontal,"(390.0, 262.0)",[0.8333333333333334],[0.596],1,224.051
1,False,5,1.015,60,[],[],"[(1203, 880)]",[],[1],[96],[1.6],"[640.0, 512.0]",horizontal,"(390.0, 762.0)",[1.15],[0.577],1,228.159
1,False,6,0.632,37,[],[],"[(1193, 914)]",[],[1],[87],[1.45],"[640.0, 512.0]",horizontal,"(890.0, 262.0)",[0.8333333333333334],[0.809],0,232.415
1,False,7,0.631,37,[],[],"[(1240, 917), (1153, 880)]",[],"[0, 1]",[45],[0.75],"[640.0, 512.0]",horizontal,"(890.0, 762.0)",[1.4166666666666667],[0.119],1,236.34
1,False,8,1.495,89,[],[],"[(1201, 885)]",[],[1],[],[],"[640.0, 512.0]",horizontal,"(390.0, 262.0)",[],[0],0,244.626
1,False,9,0.734,44,[],[],"[(1202, 909)]",[],[1],[68],[1.1333333333333333],"[640.0, 512.0]",vertical,"(890.0, 262.0)",[1.1],[0.374],1,248.069
1,False,10,0.94,56,[],[],"[(1209, 927)]",[],[1],[],[],"[640.0, 512.0]",vertical,"(890.0, 262.0)",[],[0],0,252.589
1,False,11,1.024,61,[],[],"[(1202, 904)]",[],[1],[78],[1.3],"[640.0, 512.0]",vertical,"(890.0, 762.0)",[1.2666666666666666],[0.268],1,354.992
1,False,12,0.392,23,[],[],"[(1203, 909)]",[],[1],[57],[0.95],"[640.0, 512.0]",vertical,"(890.0, 762.0)",[0.8333333333333334],[0.539],1,359.223
1,False,13,0.325,19,[],[],"[(1191, 914)]",[],[1],[59],[0.9833333333333333],"[640.0, 512.0]",horizontal,"(890.0, 262.0)",[0.8833333333333333],[0.66],1,362.603
1,False,14,1.035,62,[],[],"[(1180, 905)]",[],[1],[92],[1.5333333333333332],"[640.0, 512.0]",horizontal,"(390.0, 262.0)",[0.7333333333333333],[0.487],1,366.023
1,False,15,0.706,42,[],[],"[(1203, 902)]",[],[1],[78],[1.3],"[640.0, 512.0]",horizontal,"(890.0, 762.0)",[0.8166666666666667],[0.587],1,369.882
1,False,16,1.184,71,[],[],"[(1197, 904)]",[],[1],[105],[1.75],"[640.0, 512.0]",vertical,"(390.0, 762.0)",[1.1666666666666667],[0.558],1,373.909
1,False,17,0.459,27,[],[],"[(1156, 890)]",[],[1],[65],[1.0833333333333333],"[640.0, 512.0]",horizontal,"(890.0, 762.0)",[1.0],[0.629],1,378.396
1,False,18,1.421,85,[],[],"[(1203, 903)]",[],[1],[122],[2.033333333333333],"[640.0, 512.0]",vertical,"(390.0, 262.0)",[0.5666666666666667],[0.606],1,382.12
1,False,19,0.493,29,[],[],"[(1201, 904)]",[],[1],[58],[0.9666666666666667],"[640.0, 512.0]",horizontal,"(890.0, 762.0)",[1.6166666666666667],[0.476],1,386.247
1,False,20,0.864,51,[],[],"[(1203, 895)]",[],[1],[89],[1.4833333333333334],"[640.0, 512.0]",vertical,"(890.0, 762.0)",[1.35],[0.622],1,390.411
1,False,21,0.34,20,[],[],"[(1200, 902)]",[],[1],[54],[0.9],"[640.0, 512.0]",horizontal,"(890.0, 762.0)",[0.5666666666666667],[0.551],1,394.838
1,False,22,1.493,89,[],[],"[(1207, 901)]",[],[1],[122],[2.033333333333333],"[640.0, 512.0]",vertical,"(390.0, 762.0)",[1.0833333333333333],[0.536],1,397.864
1,False,23,1.438,86,[],[],"[(1196, 897)]",[],[1],[125],[2.0833333333333335],"[640.0, 512.0]",vertical,"(890.0, 262.0)",[1.0166666666666666],[0.641],1,402.544
1,False,24,1.043,62,[],[],"[(1203, 900)]",[],[1],[108],[1.8],"[640.0, 512.0]",vertical,"(390.0, 262.0)",[0.9666666666666667],[0.761],1,407.288
1,False,25,0.593,35,[],[],"[(1169, 892)]",[],[1],[66],[1.1],"[640.0, 512.0]",vertical,"(390.0, 262.0)",[0.6666666666666666],[0.506],1,411.688
1,False,26,0.621,37,[],[],"[(1175, 897)]",[],[1],[70],[1.1666666666666667],"[640.0, 512.0]",horizontal,"(890.0, 762.0)",[0.7833333333333333],[0.521],1,415.058
1,False,27,1.305,78,[],[],"[(1146, 903)]",[],[1],[106],[1.7666666666666666],"[640.0, 512.0]",horizontal,"(390.0, 262.0)",[1.1],[0.451],1,419.13
1,False,28,0.618,37,[],[],"[(1142, 898)]",[],[1],[81],[1.35],"[640.0, 512.0]",vertical,"(890.0, 762.0)",[1.3666666666666667],[0.72],1,423.508
1,False,29,0.82,49,[],[],"[(1173, 893)]",[],[1],[88],[1.4666666666666666],"[640.0, 512.0]",horizontal,"(390.0, 262.0)",[1.1833333333333333],[0.63],1,428.532
1,False,30,0.887,53,[],[],"[(1196, 890)]",[],[1],[96],[1.6],"[640.0, 512.0]",horizontal,"(890.0, 262.0)",[1.2833333333333332],[0.696],1,432.686
1,False,31,0.708,42,[],[],"[(1194, 881)]",[],[1],[73],[1.2166666666666666],"[640.0, 512.0]",horizontal,"(390.0, 762.0)",[1.3166666666666667],[0.497],1,437.183
1,False,32,1.373,82,[],[],"[(1191, 899)]",[],[1],[111],[1.8499999999999999],"[640.0, 512.0]",horizontal,"(390.0, 262.0)",[0.9666666666666667],[0.461],1,441.205
1,False,33,0.316,18,[],[],"[(1162, 890)]",[],[1],[51],[0.85],"[640.0, 512.0]",vertical,"(390.0, 762.0)",[1.25],[0.542],1,445.537
1,False,34,0.605,36,[],[],"[(1195, 901)]",[],[1],[67],[1.1166666666666667],"[640.0, 512.0]",vertical,"(390.0, 262.0)",[1.0166666666666666],[0.497],1,449.241
1,False,35,1.229,73,[],[],"[(1199, 892)]",[],[1],[106],[1.7666666666666666],"[640.0, 512.0]",horizontal,"(390.0, 762.0)",[1.6666666666666667],[0.535],1,452.903
1,False,36,1.216,72,[],[],"[(1197, 901)]",[],[1],[102],[1.7],"[640.0, 512.0]",horizontal,"(390.0, 762.0)",[0.9333333333333333],[0.491],1,457.953
1,False,37,1.11,66,[],[],"[(1154, 894)]",[],[1],[97],[1.6166666666666667],"[640.0, 512.0]",horizontal,"(890.0, 762.0)",[1.1333333333333333],[0.505],1,462.195
1,False,38,1.265,75,[],[],"[(1185, 900)]",[],[1],[109],[1.8166666666666667],"[640.0, 512.0]",horizontal,"(890.0, 762.0)",[0.75],[0.558],1,466.607
1,False,39,1.117,67,[],[],"[(1203, 885)]",[],[1],[98],[1.6333333333333333],"[640.0, 512.0]",horizontal,"(390.0, 262.0)",[0.9333333333333333],[0.491],1,470.752
1,False,40,1.262,75,[],[],"[(1188, 895)]",[],[1],[115],[1.9166666666666667],"[640.0, 512.0]",vertical,"(390.0, 762.0)",[0.5333333333333333],[0.643],1,474.841
1,False,41,0.893,53,[],[],"[(1197, 888)]",[],[1],[93],[1.55],"[640.0, 512.0]",horizontal,"(390.0, 762.0)",[1.0666666666666667],[0.659],1,478.876
1,False,42,1.312,78,[],[],"[(1173, 894)]",[],[1],[114],[1.9],"[640.0, 512.0]",horizontal,"(390.0, 762.0)",[1.5],[0.581],1,483.095
1,False,43,0.927,55,[],[],"[(1190, 898)]",[],[1],[99],[1.65],"[640.0, 512.0]",vertical,"(390.0, 762.0)",[1.0],[0.707],1,488.117
1,False,44,1.053,63,[],[],"[(1193, 889)]",[],[1],[94],[1.5666666666666667],"[640.0, 512.0]",horizontal,"(890.0, 762.0)",[1.1666666666666667],[0.51],1,492.309
1,False,45,1.033,61,[],[],"[(1197, 885)]",[],[1],[95],[1.5833333333333333],"[640.0, 512.0]",horizontal,"(890.0, 762.0)",[0.65],[0.555],1,496.668
1,False,46,0.538,32,[],[],"[(1215, 888)]",[],[1],[64],[1.0666666666666667],"[640.0, 512.0]",horizontal,"(890.0, 762.0)",[0.75],[0.517],1,500.49
1,False,47,0.986,59,[],[],"[(1219, 886)]",[],[1],[99],[1.65],"[640.0, 512.0]",horizontal,"(390.0, 762.0)",[1.4166666666666667],[0.646],1,503.806
1,False,48,0.372,22,[],[],"[(1188, 890)]",[],[1],[54],[0.9],"[640.0, 512.0]",horizontal,"(390.0, 262.0)",[1.1],[0.507],1,508.436
1,False,49,1.066,63,[],[],"[(1203, 896)]",[],[1],[93],[1.55],"[640.0, 512.0]",vertical,"(890.0, 262.0)",[1.5666666666666667],[0.473],1,511.953
1,False,50,1.343,80,[],[],"[(1193, 905)]",[],[1],[108],[1.8],"[640.0, 512.0]",horizontal,"(890.0, 262.0)",[1.0666666666666667],[0.444],1,516.63
1,False,51,1.49,89,[],[],"[(1203, 891)]",[],[1],[120],[2.0],"[640.0, 512.0]",vertical,"(390.0, 762.0)",[1.6666666666666667],[0.497],1,521.121
1,False,52,0.404,24,[],[],"[(1197, 892)]",[],[1],[63],[1.05],"[640.0, 512.0]",horizontal,"(890.0, 762.0)",[0.6166666666666667],[0.625],1,526.357
1,False,53,0.966,57,[],[],"[(1198, 880)]",[],[1],[89],[1.4833333333333334],"[640.0, 512.0]",vertical,"(890.0, 762.0)",[1.1],[0.512],1,529.556
1,False,54,1.199,71,[],[],"[(1197, 890)]",[],[1],[101],[1.6833333333333333],"[640.0, 512.0]",vertical,"(890.0, 262.0)",[1.2833333333333332],[0.482],1,533.695
1,False,55,1.252,75,[],[],"[(1195, 898)]",[],[1],[106],[1.7666666666666666],"[640.0, 512.0]",vertical,"(890.0, 262.0)",[1.2],[0.489],1,538.157
1,False,56,0.917,55,[],[],"[(1196, 890)]",[],[1],[89],[1.4833333333333334],"[640.0, 512.0]",vertical,"(390.0, 762.0)",[0.6333333333333333],[0.542],1,542.606
1,False,57,0.83,49,[],[],"[(1201, 889)]",[],[1],[81],[1.35],"[640.0, 512.0]",vertical,"(390.0, 262.0)",[1.3833333333333333],[0.512],1,546.227
1,False,58,0.526,31,[],[],"[(1197, 886)]",[],[1],[63],[1.05],"[640.0, 512.0]",vertical,"(390.0, 762.0)",[1.5833333333333333],[0.512],1,550.45
1,False,59,1.339,80,[],[],"[(1206, 874)]",[],[1],[111],[1.8499999999999999],"[640.0, 512.0]",vertical,"(890.0, 762.0)",[1.2333333333333334],[0.501],1,554.625
1,False,60,0.762,45,[],[],"[(1200, 894)]",[],[1],[79],[1.3166666666666667],"[640.0, 512.0]",horizontal,"(390.0, 762.0)",[1.5833333333333333],[0.538],1,559.255
2,False,61,1.278,76,[],[],"[(1197, 888)]",[],[1],[113],[1.8833333333333333],"[640.0, 512.0]",horizontal,"(390.0, 762.0)",[0.7666666666666666],[0.586],1,563.659
2,False,62,1.448,86,[],[],"[(1197, 876)]",[],[1],[120],[2.0],"[640.0, 512.0]",horizontal,"(890.0, 762.0)",[0.8666666666666667],[0.547],1,567.827
2,False,63,1.295,77,[],[],"[(1197, 891)]",[],[1],[109],[1.8166666666666667],"[640.0, 512.0]",vertical,"(890.0, 762.0)",[1.5666666666666667],[0.513],1,572.271
2,False,64,0.897,53,[],[],"[(1194, 891)]",[],[1],[89],[1.4833333333333334],"[640.0, 512.0]",horizontal,"(390.0, 762.0)",[0.9333333333333333],[0.589],1,577.16
2,False,65,1.222,73,[],[],"[(1197, 902)]",[],[1],[106],[1.7666666666666666],"[640.0, 512.0]",horizontal,"(890.0, 262.0)",[0.5],[0.528],1,581.138
2,False,66,0.634,38,[],[],"[(1189, 890)]",[],[1],[74],[1.2333333333333334],"[640.0, 512.0]",vertical,"(390.0, 762.0)",[1.2],[0.577],1,584.906
2,False,67,0.72,43,[],[],"[(1179, 877)]",[],[1],[74],[1.2333333333333334],"[640.0, 512.0]",horizontal,"(890.0, 262.0)",[0.5],[0.491],1,589.024
2,False,68,1.459,87,[],[],"[(1191, 893)]",[],[1],[122],[2.033333333333333],"[640.0, 512.0]",vertical,"(890.0, 762.0)",[1.3],[0.559],1,592.327
2,False,69,1.458,87,[],[],"[(1197, 901)]",[],[1],[125],[2.0833333333333335],"[640.0, 512.0]",horizontal,"(890.0, 262.0)",[0.5],[0.604],1,597.177
2,False,70,1.267,76,[],[],"[(1197, 901)]",[],[1],[108],[1.8],"[640.0, 512.0]",horizontal,"(390.0, 262.0)",[1.25],[0.512],1,601.327
2,False,71,1.407,84,[],[],"[(1162, 909)]",[],[1],[114],[1.9],"[640.0, 512.0]",vertical,"(390.0, 762.0)",[1.1166666666666667],[0.476],1,605.929
2,False,72,0.769,46,[],[],"[(1176, 896)]",[],[1],[85],[1.4166666666666667],"[640.0, 512.0]",vertical,"(390.0, 262.0)",[1.0],[0.629],1,618.825
2,False,73,0.922,55,[],[],"[(1179, 899)]",[],[1],[87],[1.45],"[640.0, 512.0]",horizontal,"(890.0, 262.0)",[0.8166666666666667],[0.512],1,622.805
2,False,74,1.456,87,[],[],"[(1179, 904)]",[],[1],[127],[2.1166666666666667],"[640.0, 512.0]",vertical,"(390.0, 762.0)",[0.7166666666666667],[0.645],1,626.731
2,False,75,0.47,28,[],[],"[(1203, 885)]",[],[1],[64],[1.0666666666666667],"[640.0, 512.0]",vertical,"(390.0, 762.0)",[0.9833333333333333],[0.574],1,631.195
2,False,76,1.448,86,[],[],"[(1197, 906)]",[],[1],[120],[2.0],"[640.0, 512.0]",horizontal,"(890.0, 762.0)",[1.4],[0.546],1,634.742
2,False,77,0.416,24,[],[],"[(1184, 894)]",[],[1],[62],[1.0333333333333332],"[640.0, 512.0]",horizontal,"(390.0, 762.0)",[0.6],[0.61],1,639.636
2,False,78,1.295,77,[],[],"[(1185, 901)]",[],[1],[114],[1.9],"[640.0, 512.0]",vertical,"(390.0, 762.0)",[0.6333333333333333],[0.591],1,642.856
2,False,79,0.805,48,[],[],"[(1197, 903)]",[],[1],[80],[1.3333333333333333],"[640.0, 512.0]",horizontal,"(890.0, 262.0)",[1.3666666666666667],[0.512],1,646.943
2,False,80,0.989,59,[],[],"[(1191, 899)]",[],[1],[90],[1.5],"[640.0, 512.0]",horizontal,"(890.0, 262.0)",[1.6],[0.5],1,651.194
2,False,81,0.347,20,[],[],"[(1180, 904)]",[],[1],[60],[1.0],"[640.0, 512.0]",horizontal,"(890.0, 262.0)",[1.2666666666666666],[0.641],1,655.855
2,False,82,0.826,49,[],[],"[(1197, 878)]",[],[1],[91],[1.5166666666666666],"[640.0, 512.0]",horizontal,"(390.0, 762.0)",[0.85],[0.676],1,659.708
2,False,83,0.85,51,[],[],"[(1161, 893)]",[],[1],[83],[1.3833333333333333],"[640.0, 512.0]",vertical,"(890.0, 262.0)",[1.3],[0.508],1,663.56
2,False,84,0.491,29,[],[],"[(1220, 871)]",[],[1],[61],[1.0166666666666666],"[640.0, 512.0]",horizontal,"(890.0, 262.0)",[1.6666666666666667],[0.509],1,667.778
2,False,85,1.497,89,[],[],"[(1198, 876)]",[],[1],[120],[2.0],"[640.0, 512.0]",vertical,"(890.0, 262.0)",[0.95],[0.491],1,671.943
2,False,86,1.092,65,[],[],"[(1177, 899)]",[],[1],[110],[1.8333333333333333],"[640.0, 512.0]",vertical,"(890.0, 762.0)",[0.6666666666666666],[0.721],1,676.456
2,False,87,0.584,35,[],[],"[(1197, 892)]",[],[1],[66],[1.1],"[640.0, 512.0]",vertical,"(890.0, 262.0)",[0.85],[0.495],1,680.576
2,False,88,0.865,51,[],[],"[(1189, 884)]",[],[1],[84],[1.4],"[640.0, 512.0]",vertical,"(390.0, 762.0)",[1.4333333333333333],[0.529],1,684.092
2,False,89,0.813,48,[],[],"[(1167, 895)]",[],[1],[80],[1.3333333333333333],"[640.0, 512.0]",horizontal,"(390.0, 262.0)",[0.5166666666666666],[0.517],1,688.48
2,False,90,0.631,37,[],[],"[(1196, 892)]",[],[1],[71],[1.1833333333333333],"[640.0, 512.0]",vertical,"(390.0, 762.0)",[0.6833333333333333],[0.543],1,691.91
2,False,91,0.79,47,[],[],"[(1197, 872)]",[],[1],[82],[1.3666666666666667],"[640.0, 512.0]",horizontal,"(390.0, 762.0)",[0.5166666666666666],[0.562],1,695.314
2,False,92,1.254,75,[],[],"[(1174, 895)]",[],[1],[114],[1.9],"[640.0, 512.0]",vertical,"(390.0, 262.0)",[1.6833333333333333],[0.625],1,698.745
2,False,93,0.859,51,[],[],"[(1189, 899)]",[],[1],[83],[1.3833333333333333],"[640.0, 512.0]",vertical,"(390.0, 262.0)",[1.1666666666666667],[0.51],1,703.806
2,False,94,1.008,60,[],[],"[(1197, 893)]",[],[1],[95],[1.5833333333333333],"[640.0, 512.0]",horizontal,"(390.0, 762.0)",[1.3666666666666667],[0.564],1,707.924
2,False,95,0.598,35,[],[],"[(1197, 894)]",[],[1],[68],[1.1333333333333333],"[640.0, 512.0]",vertical,"(890.0, 762.0)",[1.6333333333333333],[0.525],1,712.411
2,False,96,1.086,65,[],[],"[(1187, 894)]",[],[1],[108],[1.8],"[640.0, 512.0]",horizontal,"(390.0, 262.0)",[0.5833333333333334],[0.688],1,716.69
2,False,97,0.458,27,[],[],"[(1197, 878)]",[],[1],[59],[0.9833333333333333],"[640.0, 512.0]",horizontal,"(890.0, 762.0)",[0.6833333333333333],[0.512],1,720.587
2,False,98,0.517,31,[],[],"[(1213, 893)]",[],[1],[65],[1.0833333333333333],"[640.0, 512.0]",vertical,"(890.0, 262.0)",[0.9],[0.538],1,723.81
2,False,99,0.856,51,[],[],"[(1167, 896)]",[],[1],[85],[1.4166666666666667],"[640.0, 512.0]",vertical,"(890.0, 762.0)",[1.0666666666666667],[0.542],1,727.335
2,False,100,1.377,82,[],[],"[(1200, 899)]",[],[1],[112],[1.8666666666666667],"[640.0, 512.0]",horizontal,"(390.0, 262.0)",[0.8166666666666667],[0.48],1,732.175
2,False,101,0.997,59,[],[],"[(1197, 896)]",[],[1],[93],[1.55],"[640.0, 512.0]",horizontal,"(890.0, 762.0)",[0.8833333333333333],[0.545],1,736.463
2,False,102,1.189,71,[],[],"[(1197, 886)]",[],[1],[101],[1.6833333333333333],"[640.0, 512.0]",vertical,"(890.0, 262.0)",[1.5],[0.478],1,740.511
2,False,103,0.603,36,[],[],"[(1197, 863)]",[],[1],[67],[1.1166666666666667],"[640.0, 512.0]",horizontal,"(890.0, 762.0)",[1.2],[0.496],1,745.22
2,False,104,1.249,74,[],[],"[(1224, 880)]",[],[1],[115],[1.9166666666666667],"[640.0, 512.0]",vertical,"(890.0, 762.0)",[0.7],[0.656],1,749.021
2,False,105,1.345,80,[],[],"[(1197, 889)]",[],[1],[110],[1.8333333333333333],"[640.0, 512.0]",horizontal,"(890.0, 762.0)",[1.6333333333333333],[0.48],1,753.137
2,False,106,1.364,81,[],[],"[(1200, 893)]",[],[1],[114],[1.9],"[640.0, 512.0]",vertical,"(390.0, 262.0)",[0.85],[0.53],1,758.133
2,False,107,0.521,31,[],[],"[(1185, 872)]",[],[1],[70],[1.1666666666666667],"[640.0, 512.0]",horizontal,"(390.0, 762.0)",[0.6166666666666667],[0.622],1,762.361
2,False,108,1.094,65,[],[],"[(1197, 899)]",[],[1],[108],[1.8],"[640.0, 512.0]",horizontal,"(390.0, 762.0)",[0.95],[0.691],1,765.677
2,False,109,1.137,68,[],[],"[(1203, 894)]",[],[1],[101],[1.6833333333333333],"[640.0, 512.0]",vertical,"(390.0, 262.0)",[0.8],[0.527],1,770.016
2,False,110,1.371,82,[],[],"[(1197, 863)]",[],[1],[119],[1.9833333333333334],"[640.0, 512.0]",horizontal,"(390.0, 762.0)",[1.0833333333333333],[0.589],1,774.737
2,False,111,0.481,28,[],[],"[(1197, 885)]",[],[1],[60],[1.0],"[640.0, 512.0]",horizontal,"(890.0, 262.0)",[1.0833333333333333],[0.51],1,779.364
2,False,112,0.351,21,[],[],"[(1197, 875)]",[],[1],[56],[0.9333333333333333],"[640.0, 512.0]",horizontal,"(890.0, 762.0)",[0.8166666666666667],[0.561],1,783.012
2,False,113,1.129,67,[],[],"[(1197, 877)]",[],[1],[98],[1.6333333333333333],"[640.0, 512.0]",vertical,"(390.0, 262.0)",[1.1833333333333333],[0.491],1,786.278
2,False,114,1.072,64,[],[],"[(1203, 879)]",[],[1],[95],[1.5833333333333333],"[640.0, 512.0]",horizontal,"(390.0, 262.0)",[1.2333333333333334],[0.494],1,790.558
2,False,115,0.556,33,[],[],"[(1195, 891)]",[],[1],[65],[1.0833333333333333],"[640.0, 512.0]",horizontal,"(390.0, 262.0)",[1.0666666666666667],[0.512],1,794.978
2,False,116,0.39,23,[],[],"[(1209, 894)]",[],[1],[68],[1.1333333333333333],"[640.0, 512.0]",vertical,"(390.0, 262.0)",[0.7666666666666666],[0.725],1,798.69
2,False,117,0.634,38,[],[],"[(1195, 898)]",[],[1],[74],[1.2333333333333334],"[640.0, 512.0]",horizontal,"(390.0, 762.0)",[1.0666666666666667],[0.572],1,802.128
2,False,118,0.695,41,[],[],"[(1197, 898)]",[],[1],[73],[1.2166666666666666],"[640.0, 512.0]",horizontal,"(390.0, 762.0)",[1.1333333333333333],[0.505],1,806.061
2,False,119,0.537,32,[],[],"[(1205, 877)]",[],[1],[67],[1.1166666666666667],"[640.0, 512.0]",horizontal,"(390.0, 262.0)",[1.2666666666666666],[0.556],1,809.956
2,False,120,0.498,29,[],[],"[(1197, 894)]",[],[1],[66],[1.1],"[640.0, 512.0]",horizontal,"(890.0, 762.0)",[1.4333333333333333],[0.591],1,813.844
3,False,121,0.989,59,[],[],"[(1189, 902)]",[],[1],[90],[1.5],"[640.0, 512.0]",horizontal,"(890.0, 762.0)",[1.5833333333333333],[0.495],1,817.905
3,False,122,0.609,36,[],[],"[(1209, 876)]",[],[1],[66],[1.1],"[640.0, 512.0]",horizontal,"(390.0, 262.0)",[1.45],[0.477],1,822.51
3,False,123,1.199,71,[],[],"[(1197, 879)]",[],[1],[102],[1.7],"[640.0, 512.0]",horizontal,"(390.0, 262.0)",[1.5],[0.498],1,826.594
3,False,124,0.824,49,[],[],"[(1199, 871)]",[],[1],[86],[1.4333333333333333],"[640.0, 512.0]",horizontal,"(890.0, 262.0)",[1.1166666666666667],[0.591],1,831.288
3,False,125,0.359,21,[],[],"[(1216, 888)]",[],[1],[46],[0.7666666666666666],"[640.0, 512.0]",horizontal,"(390.0, 262.0)",[1.4166666666666667],[0.394],1,835.344
3,False,126,1.442,86,[],[],"[(1210, 891)]",[],[1],[115],[1.9166666666666667],"[640.0, 512.0]",vertical,"(390.0, 262.0)",[1.5666666666666667],[0.457],1,839.098
3,False,127,1.041,62,[],[],"[(1200, 871)]",[],[1],[95],[1.5833333333333333],"[640.0, 512.0]",horizontal,"(890.0, 262.0)",[1.0],[0.525],1,844.139
3,False,128,0.701,42,[],[],"[(1217, 888)]",[],[1],[74],[1.2333333333333334],"[640.0, 512.0]",horizontal,"(390.0, 762.0)",[1.6666666666666667],[0.511],1,848.288
3,False,129,0.346,20,[],[],"[(1197, 877)]",[],[1],[50],[0.8333333333333334],"[640.0, 512.0]",horizontal,"(390.0, 262.0)",[1.4166666666666667],[0.482],1,852.728
3,False,130,0.881,52,[],[],"[(1234, 874), (1197, 889)]",[],"[0, 1]",[81],[1.35],"[640.0, 512.0]",vertical,"(890.0, 262.0)",[0.8],[0.46],1,856.522
3,False,131,1.001,60,[],[],"[(1179, 876)]",[],[1],[89],[1.4833333333333334],"[640.0, 512.0]",horizontal,"(890.0, 262.0)",[1.3333333333333333],[0.459],1,861.388
3,False,132,1.295,77,[],[],"[(1215, 884)]",[],[1],[105],[1.75],"[640.0, 512.0]",horizontal,"(890.0, 762.0)",[0.9833333333333333],[0.452],1,865.729
3,False,133,1.016,60,[],[],"[(1196, 898)]",[],[1],[110],[1.8333333333333333],"[640.0, 512.0]",horizontal,"(390.0, 262.0)",[0.7166666666666667],[0.824],0,870.043
3,False,134,0.491,29,[],[],"[(1188, 905)]",[],[1],[54],[0.9],"[640.0, 512.0]",horizontal,"(890.0, 762.0)",[1.15],[0.405],1,874.205
3,False,135,0.533,31,[],[],"[(1192, 891)]",[],[1],[64],[1.0666666666666667],"[640.0, 512.0]",vertical,"(890.0, 762.0)",[0.7666666666666666],[0.536],1,884.576
3,False,136,1.259,75,[],[],"[(1173, 885)]",[],[1],[110],[1.8333333333333333],"[640.0, 512.0]",vertical,"(890.0, 262.0)",[0.85],[0.568],1,888.005
3,False,137,0.898,53,[],[],"[(1200, 886)]",[],[1],[103],[1.7166666666666666],"[640.0, 512.0]",vertical,"(890.0, 262.0)",[0.6333333333333333],[0.826],0,892.272
3,False,138,1.224,73,[],[],"[(1203, 898)]",[],[1],[],[],"[640.0, 512.0]",vertical,"(890.0, 762.0)",[],[0],0,896.189
3,False,139,0.409,24,[],[],"[(1209, 896)]",[],[1],[61],[1.0166666666666666],"[640.0, 512.0]",vertical,"(390.0, 762.0)",[1.1333333333333333],[0.609],1,899.636
3,False,140,0.74,44,[],[],"[(1197, 889)]",[],[1],[75],[1.25],"[640.0, 512.0]",horizontal,"(890.0, 762.0)",[0.5666666666666667],[0.505],1,903.372
3,False,141,0.526,31,[],[],"[(1203, 877)]",[],[1],[73],[1.2166666666666666],"[640.0, 512.0]",horizontal,"(390.0, 262.0)",[0.8666666666666667],[0.682],1,906.806
3,False,142,0.807,48,[],[],"[(1180, 895)]",[],[1],[81],[1.35],"[640.0, 512.0]",vertical,"(390.0, 762.0)",[1.5],[0.526],1,910.489
3,False,143,0.374,22,[],[],"[(1203, 879)]",[],[1],[55],[0.9166666666666666],"[640.0, 512.0]",vertical,"(890.0, 262.0)",[1.25],[0.523],1,915.178
3,False,144,0.555,33,[],[],"[(1179, 892)]",[],[1],[67],[1.1166666666666667],"[640.0, 512.0]",vertical,"(390.0, 262.0)",[1.1],[0.54],1,918.875
3,False,145,0.882,52,[],[],"[(1185, 885)]",[],[1],[82],[1.3666666666666667],"[640.0, 512.0]",vertical,"(890.0, 262.0)",[1.1833333333333333],[0.477],1,922.62
3,False,146,0.745,44,[],[],"[(1203, 878)]",[],[1],[76],[1.2666666666666666],"[640.0, 512.0]",horizontal,"(890.0, 262.0)",[0.7],[0.514],1,926.776
3,False,147,0.992,59,[],[],"[(1203, 889)]",[],[1],[85],[1.4166666666666667],"[640.0, 512.0]",horizontal,"(890.0, 762.0)",[1.3166666666666667],[0.409],1,930.27
3,False,148,1.369,82,[],[],"[(1203, 891)]",[],[1],[111],[1.8499999999999999],"[640.0, 512.0]",horizontal,"(890.0, 762.0)",[1.4666666666666666],[0.462],1,934.543
3,False,149,1.086,65,[],[],"[(1203, 876)]",[],[1],[100],[1.6666666666666667],"[640.0, 512.0]",horizontal,"(890.0, 762.0)",[0.5666666666666667],[0.559],1,939.398
3,False,150,1.21,72,[],[],"[(1203, 885)]",[],[1],[104],[1.7333333333333334],"[640.0, 512.0]",horizontal,"(390.0, 762.0)",[1.3],[0.517],1,943.194
3,False,151,0.377,22,[],[],"[(1203, 889)]",[],[1],[53],[0.8833333333333333],"[640.0, 512.0]",vertical,"(890.0, 262.0)",[0.8166666666666667],[0.501],1,947.828
3,False,152,1.189,71,[],[],"[(1203, 882)]",[],[1],[103],[1.7166666666666666],"[640.0, 512.0]",vertical,"(390.0, 262.0)",[1.2333333333333334],[0.51],1,951.131
3,False,153,0.823,49,[],[],"[(1203, 874)]",[],[1],[84],[1.4],"[640.0, 512.0]",horizontal,"(890.0, 262.0)",[0.9166666666666666],[0.562],1,955.631
3,False,154,0.436,26,[],[],"[(1203, 893)]",[],[1],[57],[0.95],"[640.0, 512.0]",horizontal,"(390.0, 262.0)",[1.5166666666666666],[0.492],1,959.509
3,False,155,0.918,55,[],[],"[(1180, 880)]",[],[1],[86],[1.4333333333333333],"[640.0, 512.0]",horizontal,"(890.0, 762.0)",[1.0333333333333332],[0.498],1,963.521
3,False,156,1.144,68,[],[],"[(1198, 885)]",[],[1],[106],[1.7666666666666666],"[640.0, 512.0]",vertical,"(890.0, 262.0)",[0.6166666666666667],[0.606],1,967.608
3,False,157,1.317,79,[],[],"[(1203, 891)]",[],[1],[],[],"[640.0, 512.0]",horizontal,"(890.0, 762.0)",[],[0],0,971.595
3,False,158,1.18,70,[],[],"[(1203, 890)]",[],[1],[106],[1.7666666666666666],"[640.0, 512.0]",horizontal,"(390.0, 762.0)",[0.7333333333333333],[0.579],1,975.058
3,False,159,1.14,68,[],[],"[(1203, 891)]",[],[1],[100],[1.6666666666666667],"[640.0, 512.0]",vertical,"(390.0, 262.0)",[0.7166666666666667],[0.507],1,979.134
3,False,160,0.704,42,[],[],"[(1203, 886)]",[],[1],[81],[1.35],"[640.0, 512.0]",horizontal,"(390.0, 762.0)",[1.4666666666666666],[0.622],1,983.062
3,False,161,1.017,61,[],[],"[(1173, 896)]",[],[1],[92],[1.5333333333333332],"[640.0, 512.0]",vertical,"(890.0, 262.0)",[0.6166666666666667],[0.495],1,987.441
3,False,162,0.927,55,[],[],"[(1200, 874)]",[],[1],[85],[1.4166666666666667],"[640.0, 512.0]",vertical,"(890.0, 262.0)",[1.1333333333333333],[0.478],1,991.172
3,False,163,0.901,54,[],[],"[(1197, 886)]",[],[1],[91],[1.5166666666666666],"[640.0, 512.0]",horizontal,"(390.0, 762.0)",[0.5666666666666667],[0.59],1,995.245
3,False,164,0.748,44,[],[],"[(1197, 891)]",[],[1],[79],[1.3166666666666667],"[640.0, 512.0]",horizontal,"(890.0, 762.0)",[0.6166666666666667],[0.561],1,998.866
3,False,165,1.096,65,[],[],"[(1183, 897)]",[],[1],[108],[1.8],"[640.0, 512.0]",vertical,"(390.0, 762.0)",[0.6333333333333333],[0.694],1,1002.335
3,False,166,1.358,81,[],[],"[(1190, 896)]",[],[1],[109],[1.8166666666666667],"[640.0, 512.0]",horizontal,"(890.0, 262.0)",[1.15],[0.441],1,1006.28
3,False,167,0.819,49,[],[],"[(1203, 899)]",[],[1],[86],[1.4333333333333333],"[640.0, 512.0]",vertical,"(390.0, 762.0)",[0.9666666666666667],[0.6],1,1010.878
3,False,168,0.654,39,[],[],"[(1203, 883)]",[],[1],[89],[1.4833333333333334],"[640.0, 512.0]",vertical,"(890.0, 262.0)",[1.55],[0.806],0,1014.806
3,False,169,0.649,38,[],[],"[(1203, 906)]",[],[1],[66],[1.1],"[640.0, 512.0]",vertical,"(390.0, 262.0)",[0.7333333333333333],[0.447],1,1019.343
3,False,170,1.486,89,[],[],"[(1202, 876)]",[],[1],[113],[1.8833333333333333],"[640.0, 512.0]",horizontal,"(890.0, 762.0)",[1.0],[0.38],1,1028.929
3,False,171,1.009,60,[],[],"[(1199, 881)]",[],[1],[103],[1.7166666666666666],"[640.0, 512.0]",horizontal,"(390.0, 262.0)",[1.05],[0.687],1,1033.36
3,False,172,0.726,43,[],[],"[(1203, 889)]",[],[1],[88],[1.4666666666666666],"[640.0, 512.0]",vertical,"(890.0, 262.0)",[0.75],[0.723],1,1037.614
3,False,173,0.913,54,[],[],"[(1203, 885)]",[],[1],[98],[1.6333333333333333],"[640.0, 512.0]",horizontal,"(390.0, 262.0)",[1.55],[0.707],1,1041.346
3,False,174,0.898,53,[],[],"[(1203, 886)]",[],[1],[84],[1.4],"[640.0, 512.0]",vertical,"(890.0, 262.0)",[1.3666666666666667],[0.49],1,1046.121
3,False,175,0.89,53,[],[],"[(1179, 882)]",[],[1],[86],[1.4333333333333333],"[640.0, 512.0]",horizontal,"(390.0, 262.0)",[0.9166666666666666],[0.524],1,1050.427
3,False,176,0.387,23,[],[],"[(1203, 891)]",[],[1],[60],[1.0],"[640.0, 512.0]",horizontal,"(390.0, 762.0)",[1.1666666666666667],[0.593],1,1054.313
3,False,177,0.57,34,[],[],"[(1185, 899)]",[],[1],[72],[1.2],"[640.0, 512.0]",vertical,"(390.0, 762.0)",[0.7],[0.607],1,1058.04
3,False,178,1.389,83,[],[],"[(1203, 895)]",[],[1],[124],[2.0666666666666664],"[640.0, 512.0]",vertical,"(390.0, 762.0)",[0.7],[0.657],1,1061.495
3,False,179,0.373,22,[],[],"[(1180, 898)]",[],[1],[54],[0.9],"[640.0, 512.0]",horizontal,"(890.0, 262.0)",[1.5333333333333332],[0.511],1,1065.824
3,False,180,1.179,70,[],[],"[(1203, 890)]",[],[1],[100],[1.6666666666666667],"[640.0, 512.0]",horizontal,"(390.0, 262.0)",[1.5],[0.471],1,1069.813
4,False,181,1.094,65,[],[],"[(1180, 866)]",[],[1],[93],[1.55],"[640.0, 512.0]",horizontal,"(390.0, 262.0)",[1.3333333333333333],[0.444],1,1074.497
4,False,182,0.753,45,[],[],"[(1176, 875)]",[],[1],[77],[1.2833333333333332],"[640.0, 512.0]",horizontal,"(890.0, 762.0)",[0.85],[0.509],1,1078.924
4,False,183,0.96,57,[],[],"[(1183, 899)]",[],[1],[96],[1.6],"[640.0, 512.0]",vertical,"(390.0, 262.0)",[0.5666666666666667],[0.619],1,1082.631
4,False,184,1.378,82,[],[],"[(1203, 894)]",[],[1],[118],[1.9666666666666666],"[640.0, 512.0]",vertical,"(390.0, 762.0)",[0.7833333333333333],[0.574],1,1086.312
4,False,185,1.06,63,[],[],"[(1203, 900)]",[],[1],[94],[1.5666666666666667],"[640.0, 512.0]",horizontal,"(890.0, 262.0)",[0.9333333333333333],[0.493],1,1090.568
4,False,186,0.894,53,[],[],"[(1203, 877)]",[],[1],[83],[1.3833333333333333],"[640.0, 512.0]",vertical,"(890.0, 262.0)",[1.1666666666666667],[0.482],1,1094.611
4,False,187,1.164,69,[],[],"[(1198, 880)]",[],[1],[101],[1.6833333333333333],"[640.0, 512.0]",horizontal,"(890.0, 762.0)",[1.2166666666666666],[0.512],1,1098.641
4,False,188,1.422,85,[],[1136856],"[(1203, 908)]","[(1230, 918)]",[1],[78],[1.3],"[640.0, 512.0]",horizontal,"(390.0, 262.0)",[],[0],0,1103.191
4,False,189,0.452,27,[],[],"[(1180, 898)]",[],[1],[68],[1.1333333333333333],"[640.0, 512.0]",vertical,"(890.0, 262.0)",[1.4833333333333334],[0.657],1,1128.606
4,False,190,0.441,26,[],[],"[(1180, 876)]",[],[1],[60],[1.0],"[640.0, 512.0]",horizontal,"(890.0, 262.0)",[0.5333333333333333],[0.543],1,1134.775
4,False,191,0.376,22,[],[],"[(1273, 883), (1191, 896)]",[],"[0, 1]",[],[],"[640.0, 512.0]",horizontal,"(390.0, 762.0)",[],[0],0,1138.539
4,False,192,1.385,83,[],[1188614],"[(1205, 886)]","[(1157, 921)]",[1],[79],[1.3166666666666667],"[640.0, 512.0]",vertical,"(390.0, 262.0)",[],[0],0,1153.036
4,False,193,0.653,39,[],[],"[(1203, 888)]",[],[1],[67],[1.1166666666666667],"[640.0, 512.0]",horizontal,"(390.0, 262.0)",[1.1833333333333333],[0.442],1,1180.351
4,False,194,1.46,87,[],[],"[(1203, 934)]",[],[1],[],[],"[640.0, 512.0]",horizontal,"(890.0, 262.0)",[],[0],0,1184.179
4,False,195,0.32,19,[],[],"[(1212, 884)]",[],[1],[61],[1.0166666666666666],"[640.0, 512.0]",vertical,"(890.0, 262.0)",[0.7833333333333333],[0.676],1,1208.711
4,False,196,0.833,49,[],[],"[(1148, 905)]",[],[1],[82],[1.3666666666666667],"[640.0, 512.0]",vertical,"(390.0, 762.0)",[0.9833333333333333],[0.527],1,1212.027
4,False,197,1.29,77,[],[],"[(1155, 886)]",[],[1],[110],[1.8333333333333333],"[640.0, 512.0]",vertical,"(390.0, 262.0)",[0.8833333333333333],[0.526],1,1215.936
4,False,198,0.945,56,[],[],"[(1160, 892)]",[],[1],[88],[1.4666666666666666],"[640.0, 512.0]",horizontal,"(390.0, 262.0)",[1.1833333333333333],[0.512],1,1220.168
4,False,199,1.292,77,[],[],"[(1197, 882)]",[],[1],[103],[1.7166666666666666],"[640.0, 512.0]",horizontal,"(390.0, 262.0)",[1.5],[0.412],1,1224.367
4,False,200,0.742,44,[],[],"[(1177, 896)]",[],[1],[74],[1.2333333333333334],"[640.0, 512.0]",horizontal,"(890.0, 262.0)",[1.4333333333333333],[0.476],1,1229.103
4,False,201,0.565,33,[],[],"[(1203, 890)]",[],[1],[73],[1.2166666666666666],"[640.0, 512.0]",vertical,"(890.0, 762.0)",[0.75],[0.635],1,1233.32
4,False,202,0.58,34,[],[],"[(1198, 895)]",[],[1],[72],[1.2],"[640.0, 512.0]",vertical,"(890.0, 762.0)",[1.65],[0.608],1,1236.834
4,False,203,1.439,86,[],[],"[(1162, 876)]",[],[1],[115],[1.9166666666666667],"[640.0, 512.0]",vertical,"(390.0, 262.0)",[1.6],[0.46],1,1241.181
4,False,204,0.522,31,[],[],"[(1185, 891)]",[],[1],[75],[1.25],"[640.0, 512.0]",horizontal,"(390.0, 262.0)",[1.0666666666666667],[0.715],1,1246.22
4,False,205,1.345,80,[],[],"[(1203, 893)]",[],[1],[112],[1.8666666666666667],"[640.0, 512.0]",horizontal,"(890.0, 262.0)",[0.9],[0.507],1,1250.062
4,False,206,1.179,70,[],[],"[(1204, 895)]",[],[1],[106],[1.7666666666666666],"[640.0, 512.0]",vertical,"(390.0, 762.0)",[0.75],[0.571],1,1254.426
4,False,207,1.361,81,[],[],"[(1203, 876)]",[],[1],[114],[1.9],"[640.0, 512.0]",vertical,"(390.0, 262.0)",[0.7166666666666667],[0.522],1,1258.595
4,False,208,1.489,89,[],[],"[(1153, 904)]",[],[1],[128],[2.1333333333333333],"[640.0, 512.0]",vertical,"(390.0, 762.0)",[1.1166666666666667],[0.627],1,1262.718
4,False,209,0.364,21,[],[],"[(1183, 882)]",[],[1],[53],[0.8833333333333333],"[640.0, 512.0]",horizontal,"(390.0, 262.0)",[1.2166666666666666],[0.508],1,1267.537
4,False,210,0.846,50,[],[],"[(1156, 895)]",[],[1],[77],[1.2833333333333332],"[640.0, 512.0]",horizontal,"(890.0, 762.0)",[1.4666666666666666],[0.43],1,1271.157
4,False,211,1.19,71,[],[1287185],"[(1179, 894)]","[(1148, 914)]",[1],[61],[1.0166666666666666],"[640.0, 512.0]",horizontal,"(890.0, 262.0)",[],[0],0,1275.597
4,False,212,0.917,55,[],[],"[(1191, 934)]",[],[1],[76],[1.2666666666666666],"[640.0, 512.0]",vertical,"(890.0, 762.0)",[0.6833333333333333],[0.326],1,1278.924
4,False,213,1.386,83,[],[],"[(1170, 894)]",[],[1],[],[],"[640.0, 512.0]",horizontal,"(390.0, 762.0)",[],[0],0,1345.962
4,False,214,0.512,30,[],[],"[(1203, 881)]",[],[1],[71],[1.1833333333333333],"[640.0, 512.0]",vertical,"(390.0, 762.0)",[1.0833333333333333],[0.659],1,1349.42
4,False,215,0.892,53,[],[],"[(1173, 893)]",[],[1],[92],[1.5333333333333332],"[640.0, 512.0]",vertical,"(390.0, 762.0)",[0.7333333333333333],[0.614],1,1353.187
4,False,216,1.311,78,[],[],"[(1203, 880)]",[],[1],[110],[1.8333333333333333],"[640.0, 512.0]",vertical,"(390.0, 762.0)",[0.8666666666666667],[0.51],1,1357.024
4,False,217,0.862,51,[],[],"[(1193, 872)]",[],[1],[],[],"[640.0, 512.0]",horizontal,"(390.0, 762.0)",[],[0],0,1361.224
4,False,218,1.136,68,[],[],"[(1179, 883)]",[],[1],[97],[1.6166666666666667],"[640.0, 512.0]",horizontal,"(390.0, 262.0)",[1.0833333333333333],[0.46],1,1365.245
4,False,219,0.588,35,[],[],"[(1205, 890)]",[],[1],[76],[1.2666666666666666],"[640.0, 512.0]",vertical,"(390.0, 262.0)",[1.4833333333333334],[0.647],1,1369.686
4,False,220,1.495,89,[],[],"[(1197, 885)]",[],[1],[],[],"[640.0, 512.0]",horizontal,"(890.0, 762.0)",[],[0],0,1373.943
4,False,221,0.989,59,[],[],"[(1191, 894)]",[],[1],[91],[1.5166666666666666],"[640.0, 512.0]",vertical,"(390.0, 262.0)",[0.5],[0.51],1,1379.981
4,False,222,0.477,28,[],[],"[(1168, 897)]",[],[1],[61],[1.0166666666666666],"[640.0, 512.0]",vertical,"(890.0, 262.0)",[1.2],[0.525],1,1397.874
4,False,223,0.985,59,[],[],"[(1202, 890)]",[],[1],[91],[1.5166666666666666],"[640.0, 512.0]",vertical,"(390.0, 262.0)",[0.6666666666666666],[0.509],1,1401.71
4,False,224,1.28,76,[],[],"[(1203, 888)]",[],[1],[115],[1.9166666666666667],"[640.0, 512.0]",vertical,"(390.0, 762.0)",[0.6666666666666666],[0.623],1,1405.376
4,False,225,0.705,42,[],[],"[(1203, 886)]",[],[1],[77],[1.2833333333333332],"[640.0, 512.0]",vertical,"(890.0, 262.0)",[0.5833333333333334],[0.556],1,1409.514
4,False,226,0.819,49,[],[],"[(1161, 890)]",[],[1],[81],[1.35],"[640.0, 512.0]",horizontal,"(390.0, 262.0)",[1.4833333333333334],[0.509],1,1412.93
4,False,227,0.669,40,[],[],"[(1203, 886)]",[],[1],[83],[1.3833333333333333],"[640.0, 512.0]",vertical,"(890.0, 762.0)",[1.4],[0.69],1,1417.392
4,False,228,1.157,69,[],[],"[(1221, 876)]",[],[1],[100],[1.6666666666666667],"[640.0, 512.0]",vertical,"(890.0, 262.0)",[0.7333333333333333],[0.495],1,1421.647
4,False,229,1.486,89,[],[],"[(1186, 891)]",[],[1],[112],[1.8666666666666667],"[640.0, 512.0]",horizontal,"(390.0, 262.0)",[1.2166666666666666],[0.364],1,1425.56
4,False,230,0.494,29,[],[],"[(1215, 890)]",[],[1],[62],[1.0333333333333332],"[640.0, 512.0]",horizontal,"(390.0, 262.0)",[0.8166666666666667],[0.526],1,1430.513
4,False,231,1.297,77,[],[],"[(1221, 880)]",[],[1],[112],[1.8666666666666667],"[640.0, 512.0]",horizontal,"(890.0, 762.0)",[1.5],[0.557],1,1433.852
4,False,232,1.287,77,[],[],"[(1208, 882)]",[],[1],[113],[1.8833333333333333],"[640.0, 512.0]",horizontal,"(390.0, 762.0)",[1.4],[0.576],1,1438.684
4,False,233,0.894,53,[],[],"[(1184, 884)]",[],[1],[84],[1.4],"[640.0, 512.0]",vertical,"(390.0, 262.0)",[1.5166666666666666],[0.499],1,1443.485
4,False,234,0.337,20,[],[],"[(1203, 873)]",[],[1],[64],[1.0666666666666667],"[640.0, 512.0]",vertical,"(890.0, 762.0)",[0.8666666666666667],[0.704],1,1447.976
4,False,235,0.855,51,[],[],"[(1209, 900)]",[],[1],[83],[1.3833333333333333],"[640.0, 512.0]",vertical,"(390.0, 762.0)",[0.9666666666666667],[0.502],1,1451.536
4,False,236,0.922,55,[],[],"[(1203, 875)]",[],[1],[88],[1.4666666666666666],"[640.0, 512.0]",vertical,"(390.0, 262.0)",[1.3166666666666667],[0.53],1,1470.519
4,False,237,1.056,63,[],[],"[(1179, 883)]",[],[1],[98],[1.6333333333333333],"[640.0, 512.0]",horizontal,"(890.0, 262.0)",[0.9],[0.561],1,1475.035
4,False,238,1.051,63,[],[],"[(1190, 910)]",[],[1],[93],[1.55],"[640.0, 512.0]",horizontal,"(390.0, 262.0)",[0.75],[0.473],1,1479.066
4,False,239,1.435,86,[],[],"[(1215, 872)]",[],[1],[119],[1.9833333333333334],"[640.0, 512.0]",vertical,"(390.0, 762.0)",[0.7],[0.526],1,1482.898
4,False,240,1.322,79,[],[],"[(1206, 883)]",[],[1],[],[],"[640.0, 512.0]",horizontal,"(390.0, 262.0)",[],[0],0,1487.048
5,False,241,1.035,62,[],[],"[(1210, 888)]",[],[1],[98],[1.6333333333333333],"[640.0, 512.0]",vertical,"(390.0, 262.0)",[0.8833333333333333],[0.588],1,1491.064
5,False,242,0.498,29,[],[],"[(1200, 897)]",[],[1],[66],[1.1],"[640.0, 512.0]",horizontal,"(390.0, 762.0)",[1.0166666666666666],[0.606],1,1495.124
5,False,243,0.977,58,[],[],"[(1199, 871)]",[],[1],[90],[1.5],"[640.0, 512.0]",horizontal,"(390.0, 762.0)",[1.3333333333333333],[0.51],1,1498.871
5,False,244,1.072,64,[],[],"[(1203, 886)]",[],[1],[111],[1.8499999999999999],"[640.0, 512.0]",vertical,"(890.0, 262.0)",[1.6666666666666667],[0.752],1,1504.492
5,False,245,1.068,64,[],[],"[(1153, 866)]",[],[1],[],[],"[640.0, 512.0]",horizontal,"(890.0, 262.0)",[],[0],0,1509.5
5,False,246,0.729,43,[],[],"[(1203, 896)]",[],[1],[74],[1.2333333333333334],"[640.0, 512.0]",vertical,"(890.0, 262.0)",[1.0833333333333333],[0.492],1,1513.011
5,False,247,1.077,64,[],[],"[(1205, 890)]",[],[1],[111],[1.8499999999999999],"[640.0, 512.0]",horizontal,"(890.0, 262.0)",[0.9],[0.76],1,1517.958
5,False,248,0.309,18,[],[],"[(1173, 888)]",[],[1],[68],[1.1333333333333333],"[640.0, 512.0]",vertical,"(890.0, 262.0)",[1.3666666666666667],[0.799],0,1522.257
5,False,249,1.387,83,[],[],"[(1203, 885)]",[],[1],[],[],"[640.0, 512.0]",horizontal,"(390.0, 262.0)",[],[0],0,1526.246
5,False,250,0.384,23,[],[],"[(1200, 885)]",[],[1],[72],[1.2],"[640.0, 512.0]",horizontal,"(390.0, 262.0)",[0.5333333333333333],[0.785],1,1530.529
5,False,251,0.816,48,[],[],"[(1180, 885)]",[],[1],[87],[1.45],"[640.0, 512.0]",vertical,"(890.0, 262.0)",[0.8833333333333333],[0.621],1,1533.81
5,False,252,0.785,47,[],[],"[(1200, 875)]",[],[1],[76],[1.2666666666666666],"[640.0, 512.0]",horizontal,"(890.0, 262.0)",[1.1666666666666667],[0.458],1,1537.668
5,False,253,1.455,87,[],[],"[(1210, 881)]",[],[1],[115],[1.9166666666666667],"[640.0, 512.0]",vertical,"(390.0, 262.0)",[1.3166666666666667],[0.448],1,1541.566
5,False,254,1.103,66,[],[],"[(1185, 891)]",[],[1],[102],[1.7],"[640.0, 512.0]",vertical,"(890.0, 762.0)",[0.5333333333333333],[0.573],1,1546.255
5,False,255,0.311,18,[],[],"[(1197, 895)]",[],[1],[54],[0.9],"[640.0, 512.0]",horizontal,"(390.0, 762.0)",[1.0],[0.581],1,1550.18
5,False,256,0.332,19,[],[],"[(1161, 890)]",[],[1],[51],[0.85],"[640.0, 512.0]",vertical,"(390.0, 262.0)",[1.5166666666666666],[0.507],1,1553.624
5,False,257,0.99,59,[],[],"[(1172, 893)]",[],[1],[93],[1.55],"[640.0, 512.0]",vertical,"(390.0, 762.0)",[1.6166666666666667],[0.541],1,1557.496
5,False,258,0.753,45,[],[],"[(1173, 872)]",[],[1],[87],[1.45],"[640.0, 512.0]",vertical,"(390.0, 762.0)",[1.1],[0.67],1,1562.297
5,False,259,0.724,43,[],[],"[(1163, 890)]",[],[1],[75],[1.25],"[640.0, 512.0]",vertical,"(890.0, 262.0)",[1.6666666666666667],[0.508],1,1566.37
5,False,260,0.473,28,[],[],"[(1174, 883)]",[],[1],[59],[0.9833333333333333],"[640.0, 512.0]",horizontal,"(890.0, 262.0)",[1.4166666666666667],[0.492],1,1570.76
5,False,261,1.483,88,[],[],"[(1201, 879)]",[],[1],[],[],"[640.0, 512.0]",horizontal,"(890.0, 262.0)",[],[0],0,1574.705
5,False,262,0.435,26,[],[],"[(1204, 891)]",[],[1],[66],[1.1],"[640.0, 512.0]",vertical,"(890.0, 762.0)",[0.8],[0.638],1,1578.406
5,False,263,0.684,41,[],[],"[(1206, 890)]",[],[1],[91],[1.5166666666666666],"[640.0, 512.0]",vertical,"(390.0, 762.0)",[0.6833333333333333],[0.799],0,1581.793
5,False,264,0.353,21,[],[],"[(1196, 893)]",[],[1],[59],[0.9833333333333333],"[640.0, 512.0]",horizontal,"(390.0, 262.0)",[1.5666666666666667],[0.622],1,1585.519
5,False,265,0.566,33,[],[],"[(1203, 891)]",[],[1],[68],[1.1333333333333333],"[640.0, 512.0]",horizontal,"(390.0, 762.0)",[0.8666666666666667],[0.564],1,1592.399
5,False,266,0.373,22,[],[],"[(1218, 892)]",[],[1],[55],[0.9166666666666666],"[640.0, 512.0]",vertical,"(890.0, 762.0)",[1.15],[0.522],1,1595.975
5,False,267,1.05,63,[],[],"[(1203, 884)]",[],[1],[95],[1.5833333333333333],"[640.0, 512.0]",horizontal,"(890.0, 262.0)",[0.85],[0.512],1,1599.563
5,False,268,1.476,88,[],[],"[(1203, 878)]",[],[1],[121],[2.0166666666666666],"[640.0, 512.0]",vertical,"(390.0, 762.0)",[0.65],[0.529],1,1603.506
5,False,269,0.434,26,[],[],"[(1203, 880)]",[],[1],[60],[1.0],"[640.0, 512.0]",vertical,"(390.0, 762.0)",[1.5],[0.548],1,1607.664
5,False,270,1.19,71,[],[],"[(1203, 883)]",[],[1],[106],[1.7666666666666666],"[640.0, 512.0]",horizontal,"(390.0, 762.0)",[1.4166666666666667],[0.552],1,1611.681
5,False,271,0.423,25,[],[],"[(1191, 887)]",[],[1],[62],[1.0333333333333332],"[640.0, 512.0]",vertical,"(390.0, 262.0)",[1.1833333333333333],[0.591],1,1616.341
5,False,272,0.358,21,[],[],"[(1203, 879)]",[],[1],[60],[1.0],"[640.0, 512.0]",vertical,"(390.0, 262.0)",[1.4],[0.623],1,1620.088
5,False,273,1.152,69,[],[],"[(1196, 890)]",[],[1],[101],[1.6833333333333333],"[640.0, 512.0]",horizontal,"(890.0, 262.0)",[0.5166666666666666],[0.507],1,1625.698
5,False,274,1.236,74,[],[],"[(1210, 879)]",[],[1],[108],[1.8],"[640.0, 512.0]",horizontal,"(890.0, 262.0)",[1.1166666666666667],[0.541],1,1629.425
5,False,275,0.946,56,[],[],"[(1201, 879)]",[],[1],[86],[1.4333333333333333],"[640.0, 512.0]",vertical,"(390.0, 262.0)",[1.0],[0.471],1,1633.813
5,False,276,0.616,36,[],[],"[(1203, 899)]",[],[1],[71],[1.1833333333333333],"[640.0, 512.0]",horizontal,"(890.0, 762.0)",[1.1],[0.56],1,1637.812
5,False,277,0.618,37,[],[],"[(1209, 899)]",[],[1],[72],[1.2],"[640.0, 512.0]",horizontal,"(890.0, 762.0)",[0.9666666666666667],[0.559],1,1641.61
5,False,278,0.535,32,[],[],"[(1206, 889)]",[],[1],[70],[1.1666666666666667],"[640.0, 512.0]",horizontal,"(890.0, 262.0)",[0.5666666666666667],[0.61],1,1645.263
5,False,279,0.615,36,[],[],"[(1191, 885)]",[],[1],[71],[1.1833333333333333],"[640.0, 512.0]",horizontal,"(390.0, 262.0)",[1.4833333333333334],[0.555],1,1648.577
5,False,280,0.803,48,[],[],"[(1209, 894)]",[],[1],[83],[1.3833333333333333],"[640.0, 512.0]",vertical,"(390.0, 762.0)",[0.9333333333333333],[0.559],1,1652.741
5,False,281,1.286,77,[],[],"[(1185, 896)]",[],[1],[112],[1.8666666666666667],"[640.0, 512.0]",horizontal,"(890.0, 762.0)",[1.6833333333333333],[0.557],1,1656.568
5,False,282,0.912,54,[],[],"[(1165, 876)]",[],[1],[93],[1.55],"[640.0, 512.0]",horizontal,"(390.0, 262.0)",[0.8166666666666667],[0.624],1,1661.61
5,False,283,0.876,52,[],[],"[(1207, 878)]",[],[1],[81],[1.35],"[640.0, 512.0]",horizontal,"(390.0, 762.0)",[1.6166666666666667],[0.467],1,1665.56
5,False,284,1.21,72,[],[],"[(1183, 899)]",[],[1],[102],[1.7],"[640.0, 512.0]",vertical,"(390.0, 762.0)",[1.6333333333333333],[0.474],1,1670.03
5,False,285,0.534,32,[],[],"[(1178, 893)]",[],[1],[66],[1.1],"[640.0, 512.0]",horizontal,"(890.0, 762.0)",[0.5166666666666666],[0.543],1,1674.847
5,False,286,0.374,22,[],[],"[(1180, 891)]",[],[1],[60],[1.0],"[640.0, 512.0]",vertical,"(390.0, 262.0)",[0.6666666666666666],[0.604],1,1677.98
5,False,287,0.322,19,[],[],"[(1203, 880)]",[],[1],[54],[0.9],"[640.0, 512.0]",horizontal,"(390.0, 262.0)",[1.1],[0.553],1,1681.214
5,False,288,1.15,69,[],[],"[(1184, 898)]",[],[1],[100],[1.6666666666666667],"[640.0, 512.0]",horizontal,"(390.0, 262.0)",[1.25],[0.493],1,1684.75
5,False,289,1.491,89,[],[],"[(1203, 873)]",[],[1],[94],[1.5666666666666667],"[640.0, 512.0]",horizontal,"(890.0, 262.0)",[1.65],[0.069],1,1689.198
5,False,290,0.641,38,[],[],"[(1163, 896)]",[],[1],[74],[1.2333333333333334],"[640.0, 512.0]",vertical,"(390.0, 762.0)",[1.3833333333333333],[0.571],1,1693.894
5,False,291,0.709,42,[],[],"[(1179, 884)]",[],[1],[79],[1.3166666666666667],"[640.0, 512.0]",horizontal,"(390.0, 762.0)",[0.6],[0.597],1,1698.039
5,False,292,0.31,18,[],[],"[(1197, 896)]",[],[1],[60],[1.0],"[640.0, 512.0]",vertical,"(890.0, 262.0)",[1.3166666666666667],[0.672],1,1701.48
5,False,293,0.559,33,[],[],"[(1203, 869)]",[],[1],[73],[1.2166666666666666],"[640.0, 512.0]",vertical,"(390.0, 762.0)",[0.9833333333333333],[0.633],1,1705.275
5,False,294,1.13,67,[],[],"[(1186, 898)]",[],[1],[100],[1.6666666666666667],"[640.0, 512.0]",vertical,"(390.0, 262.0)",[1.15],[0.526],1,1708.997
5,False,295,1.014,60,[],[],"[(1203, 902)]",[],[1],[96],[1.6],"[640.0, 512.0]",horizontal,"(390.0, 762.0)",[0.6166666666666667],[0.572],1,1713.412
5,False,296,1.236,74,[],[],"[(1179, 898)]",[],[1],[105],[1.75],"[640.0, 512.0]",vertical,"(390.0, 262.0)",[0.5],[0.492],1,1717.154
5,False,297,1.236,74,[],[],"[(1203, 880)]",[],[1],[89],[1.4833333333333334],"[640.0, 512.0]",vertical,"(390.0, 262.0)",[1.5],[0.229],1,1720.928
5,False,298,1.386,83,[],[],"[(1201, 871)]",[],[1],[89],[1.4833333333333334],"[640.0, 512.0]",vertical,"(390.0, 262.0)",[1.3333333333333333],[0.082],1,1725.424
5,False,299,0.872,52,[],[],"[(1186, 877)]",[],[1],[93],[1.55],"[640.0, 512.0]",horizontal,"(390.0, 762.0)",[0.85],[0.654],1,1729.731
5,False,300,0.615,36,[],[],"[(1197, 888)]",[],[1],[66],[1.1],"[640.0, 512.0]",horizontal,"(890.0, 762.0)",[1.15],[0.474],1,1733.659
6,False,301,1.453,87,[],[],"[(1203, 884)]",[],[1],[119],[1.9833333333333334],"[640.0, 512.0]",horizontal,"(390.0, 262.0)",[0.6833333333333333],[0.509],1,1737.409
6,False,302,0.571,34,[],[],"[(1170, 894)]",[],[1],[69],[1.15],"[640.0, 512.0]",horizontal,"(890.0, 762.0)",[0.55],[0.556],1,1741.6
6,False,303,0.727,43,[],[],"[(1203, 862)]",[],[1],[86],[1.4333333333333333],"[640.0, 512.0]",vertical,"(890.0, 762.0)",[1.4333333333333333],[0.691],1,1744.895
6,False,304,0.484,29,[],[],"[(1186, 860)]",[],[1],[62],[1.0333333333333332],"[640.0, 512.0]",horizontal,"(390.0, 762.0)",[1.5166666666666666],[0.535],1,1749.249
6,False,305,0.9,54,[],[],"[(1203, 893)]",[],[1],[96],[1.6],"[640.0, 512.0]",horizontal,"(890.0, 262.0)",[0.55],[0.677],1,1753.288
6,False,306,1.305,78,[],[],"[(1191, 890)]",[],[1],[111],[1.8499999999999999],"[640.0, 512.0]",vertical,"(390.0, 262.0)",[1.5833333333333333],[0.526],1,1756.96
6,False,307,0.933,55,[],[],"[(1151, 871)]",[],[1],[86],[1.4333333333333333],"[640.0, 512.0]",vertical,"(890.0, 262.0)",[1.5],[0.495],1,1761.885
6,False,308,0.472,28,[],[],"[(1201, 891)]",[],[1],[65],[1.0833333333333333],"[640.0, 512.0]",horizontal,"(390.0, 762.0)",[0.6],[0.591],1,1766.364
6,False,309,0.861,51,[],[],"[(1200, 896)]",[],[1],[84],[1.4],"[640.0, 512.0]",vertical,"(390.0, 262.0)",[0.55],[0.522],1,1769.58
6,False,310,0.434,26,[],[],"[(1203, 888)]",[],[1],[69],[1.15],"[640.0, 512.0]",horizontal,"(390.0, 762.0)",[0.8833333333333333],[0.685],1,1773.053
6,False,311,0.941,56,[],[],"[(1158, 900)]",[],[1],[88],[1.4666666666666666],"[640.0, 512.0]",horizontal,"(890.0, 262.0)",[0.7666666666666666],[0.506],1,1776.598
6,False,312,0.916,54,[],[],"[(1203, 876)]",[],[1],[86],[1.4333333333333333],"[640.0, 512.0]",vertical,"(390.0, 262.0)",[0.7333333333333333],[0.508],1,1780.759
6,False,313,1.481,88,[],[],"[(1208, 881)]",[],[1],[121],[2.0166666666666666],"[640.0, 512.0]",horizontal,"(390.0, 262.0)",[0.7166666666666667],[0.525],1,1784.431
6,False,314,0.406,24,[],[],"[(1203, 879)]",[],[1],[74],[1.2333333333333334],"[640.0, 512.0]",vertical,"(890.0, 262.0)",[1.2833333333333332],[0.796],0,1788.703
6,False,315,1.307,78,[],[],"[(1203, 865)]",[],[1],[107],[1.7833333333333332],"[640.0, 512.0]",horizontal,"(390.0, 262.0)",[0.8333333333333334],[0.459],1,1792.69
6,False,316,0.606,36,[],[],"[(1200, 875)]",[],[1],[55],[0.9166666666666666],"[640.0, 512.0]",horizontal,"(890.0, 762.0)",[1.5166666666666666],[0.295],1,1796.956
6,False,317,0.491,29,[],[],"[(1179, 880)]",[],[1],[62],[1.0333333333333332],"[640.0, 512.0]",vertical,"(890.0, 762.0)",[0.9166666666666666],[0.522],1,1800.922
6,False,318,1.026,61,[],[],"[(1203, 872)]",[],[1],[93],[1.55],"[640.0, 512.0]",horizontal,"(890.0, 262.0)",[1.4],[0.509],1,1804.422
6,False,319,0.812,48,[],[],"[(1203, 875)]",[],[1],[82],[1.3666666666666667],"[640.0, 512.0]",horizontal,"(390.0, 262.0)",[0.5833333333333334],[0.545],1,1808.865
6,False,320,1.383,82,[],[],"[(1203, 883)]",[],[1],[108],[1.8],"[640.0, 512.0]",horizontal,"(890.0, 262.0)",[1.5666666666666667],[0.417],1,1812.35
6,False,321,1.415,84,[],[],"[(1180, 904)]",[],[1],[86],[1.4333333333333333],"[640.0, 512.0]",horizontal,"(890.0, 762.0)",[1.6333333333333333],[0.019],1,1817.259
6,False,322,0.486,29,[],[],"[(1201, 877)]",[],[1],[66],[1.1],"[640.0, 512.0]",horizontal,"(390.0, 762.0)",[1.1166666666666667],[0.587],1,1821.819
6,False,323,0.44,26,[],[],"[(1179, 889)]",[],[1],[61],[1.0166666666666666],"[640.0, 512.0]",horizontal,"(890.0, 262.0)",[1.1666666666666667],[0.556],1,1825.602
6,False,324,0.681,40,[],[],"[(1197, 876)]",[],[1],[75],[1.25],"[640.0, 512.0]",horizontal,"(390.0, 762.0)",[1.6666666666666667],[0.554],1,1829.371
6,False,325,0.925,55,[],[],"[(1190, 869)]",[],[1],[100],[1.6666666666666667],"[640.0, 512.0]",horizontal,"(390.0, 762.0)",[0.8166666666666667],[0.723],1,1833.814
6,False,326,1.075,64,[],[],"[(1160, 861)]",[],[1],[101],[1.6833333333333333],"[640.0, 512.0]",vertical,"(390.0, 762.0)",[0.6833333333333333],[0.589],1,1837.831
6,False,327,0.503,30,[],[],"[(1146, 890)]",[],[1],[64],[1.0666666666666667],"[640.0, 512.0]",vertical,"(890.0, 762.0)",[1.15],[0.538],1,1841.749
6,False,328,1.435,86,[],[],"[(1203, 870)]",[],[1],[120],[2.0],"[640.0, 512.0]",horizontal,"(390.0, 762.0)",[1.6666666666666667],[0.536],1,1845.53
6,False,329,1.03,61,[],[],"[(1196, 896)]",[],[1],[94],[1.5666666666666667],"[640.0, 512.0]",horizontal,"(390.0, 762.0)",[1.4],[0.528],1,1850.659
6,False,330,0.582,34,[],[],"[(1176, 897)]",[],[1],[66],[1.1],"[640.0, 512.0]",horizontal,"(390.0, 762.0)",[0.7666666666666666],[0.507],1,1855.23
6,False,331,0.489,29,[],[],"[(1203, 875)]",[],[1],[79],[1.3166666666666667],"[640.0, 512.0]",vertical,"(890.0, 262.0)",[1.2],[0.798],0,1859.066
6,False,332,1.378,82,[],[],"[(1173, 901)]",[],[1],[119],[1.9833333333333334],"[640.0, 512.0]",vertical,"(890.0, 762.0)",[0.9333333333333333],[0.588],1,1863.078
6,False,333,0.498,29,[],[],"[(1176, 899)]",[],[1],[69],[1.15],"[640.0, 512.0]",horizontal,"(390.0, 762.0)",[1.6166666666666667],[0.64],1,1871.897
6,False,334,1.224,73,[],[],"[(1158, 880)]",[],[1],[113],[1.8833333333333333],"[640.0, 512.0]",horizontal,"(390.0, 262.0)",[0.65],[0.639],1,1876.206
6,False,335,0.662,39,[],[],"[(1179, 894)]",[],[1],[72],[1.2],"[640.0, 512.0]",horizontal,"(390.0, 762.0)",[1.2833333333333332],[0.523],1,1880.326
6,False,336,0.992,59,[],[],"[(1203, 890)]",[],[1],[90],[1.5],"[640.0, 512.0]",vertical,"(390.0, 262.0)",[1.35],[0.489],1,1884.324
6,False,337,1.016,60,[],[],"[(1203, 893)]",[],[1],[93],[1.55],"[640.0, 512.0]",horizontal,"(390.0, 762.0)",[0.7],[0.53],1,1888.682
6,False,338,0.598,35,[],[],"[(1179, 891)]",[],[1],[69],[1.15],"[640.0, 512.0]",vertical,"(390.0, 262.0)",[1.4166666666666667],[0.543],1,1892.432
6,False,339,0.835,50,[],[],"[(1180, 900)]",[],[1],[91],[1.5166666666666666],"[640.0, 512.0]",horizontal,"(890.0, 762.0)",[0.6166666666666667],[0.651],1,1896.531
6,False,340,1.282,76,[],[],"[(1180, 890)]",[],[1],[104],[1.7333333333333334],"[640.0, 512.0]",horizontal,"(390.0, 762.0)",[1.3666666666666667],[0.442],1,1900.21
6,False,341,0.661,39,[],[],"[(1202, 881)]",[],[1],[70],[1.1666666666666667],"[640.0, 512.0]",vertical,"(890.0, 262.0)",[1.3333333333333333],[0.495],1,1905.577
6,False,342,1.351,81,[],[],"[(1203, 869)]",[],[1],[119],[1.9833333333333334],"[640.0, 512.0]",vertical,"(890.0, 762.0)",[0.8666666666666667],[0.608],1,1909.573
6,False,343,0.474,28,[],[],"[(1203, 872)]",[],[1],[67],[1.1166666666666667],"[640.0, 512.0]",vertical,"(390.0, 262.0)",[0.7666666666666666],[0.619],1,1913.966
6,False,344,0.358,21,[],[],"[(1174, 880)]",[],[1],[71],[1.1833333333333333],"[640.0, 512.0]",vertical,"(890.0, 262.0)",[0.6166666666666667],[0.802],0,1917.378
6,False,345,1.295,77,[],[],"[(1203, 898)]",[],[1],[],[],"[640.0, 512.0]",horizontal,"(890.0, 762.0)",[],[0],0,1923.312
6,False,346,1.035,62,[],[],"[(1167, 892)]",[],[1],[92],[1.5333333333333332],"[640.0, 512.0]",vertical,"(890.0, 762.0)",[1.0333333333333332],[0.474],1,1927.373
6,False,347,1.117,67,[],[],"[(1197, 866)]",[],[1],[98],[1.6333333333333333],"[640.0, 512.0]",vertical,"(890.0, 262.0)",[0.8333333333333334],[0.49],1,1931.549
6,False,348,1.395,83,[],[],"[(1160, 856)]",[],[1],[117],[1.95],"[640.0, 512.0]",horizontal,"(390.0, 762.0)",[0.7666666666666666],[0.537],1,1935.516
6,False,349,1.103,66,[],[],"[(1203, 866)]",[],[1],[97],[1.6166666666666667],"[640.0, 512.0]",horizontal,"(390.0, 262.0)",[0.8333333333333334],[0.495],1,1939.855
6,False,350,0.474,28,[],[],"[(1180, 885)]",[],[1],[64],[1.0666666666666667],"[640.0, 512.0]",horizontal,"(890.0, 762.0)",[0.7166666666666667],[0.568],1,1943.811
6,False,351,1.334,80,[],[],"[(1203, 875)]",[],[1],[111],[1.8499999999999999],"[640.0, 512.0]",horizontal,"(890.0, 262.0)",[1.3666666666666667],[0.501],1,1947.134
6,False,352,0.983,58,[],[],"[(1201, 871)]",[],[1],[87],[1.45],"[640.0, 512.0]",vertical,"(890.0, 262.0)",[1.4833333333333334],[0.456],1,1951.91
6,False,353,1.05,63,[],[],"[(1203, 875)]",[],[1],[90],[1.5],"[640.0, 512.0]",horizontal,"(390.0, 762.0)",[1.5666666666666667],[0.419],1,1956.357
6,False,354,0.559,33,[],[],"[(1203, 895)]",[],[1],[65],[1.0833333333333333],"[640.0, 512.0]",vertical,"(390.0, 262.0)",[1.6333333333333333],[0.509],1,1960.995
6,False,355,1.384,83,[],[],"[(1200, 884)]",[],[1],[123],[2.05],"[640.0, 512.0]",horizontal,"(390.0, 262.0)",[0.75],[0.637],1,1965.198
6,False,356,0.541,32,[],[],"[(1169, 890)]",[],[1],[69],[1.15],"[640.0, 512.0]",vertical,"(390.0, 762.0)",[1.3333333333333333],[0.587],1,1969.503
6,False,357,0.821,49,[],[],"[(1161, 881)]",[],[1],[82],[1.3666666666666667],"[640.0, 512.0]",vertical,"(890.0, 262.0)",[1.3166666666666667],[0.528],1,1973.577
6,False,358,0.581,34,[],[],"[(1204, 894)]",[],[1],[68],[1.1333333333333333],"[640.0, 512.0]",vertical,"(890.0, 762.0)",[1.55],[0.536],1,1977.832
6,False,359,0.86,51,[],[],"[(1203, 880)]",[],[1],[89],[1.4833333333333334],"[640.0, 512.0]",horizontal,"(390.0, 762.0)",[1.5833333333333333],[0.61],1,1982.062
6,False,360,0.994,59,[],[],"[(1197, 870)]",[],[1],[90],[1.5],"[640.0, 512.0]",horizontal,"(890.0, 762.0)",[1.1666666666666667],[0.491],1,1986.665
7,False,361,1.03,61,[],[],"[(1203, 885)]",[],[1],[95],[1.5833333333333333],"[640.0, 512.0]",vertical,"(390.0, 762.0)",[1.0166666666666666],[0.545],1,1990.832
7,False,362,0.688,41,[],[],"[(1203, 880)]",[],[1],[74],[1.2333333333333334],"[640.0, 512.0]",vertical,"(890.0, 262.0)",[0.7833333333333333],[0.528],1,1994.93
7,False,363,0.377,22,[],[],"[(1153, 883)]",[],[1],[56],[0.9333333333333333],"[640.0, 512.0]",vertical,"(890.0, 762.0)",[1.4166666666666667],[0.544],1,1998.477
7,False,364,0.825,49,[],[],"[(1167, 870)]",[],[1],[80],[1.3333333333333333],"[640.0, 512.0]",vertical,"(890.0, 762.0)",[1.2166666666666666],[0.491],1,2002.392
7,False,365,1.059,63,[],[],"[(1202, 878)]",[],[1],[97],[1.6166666666666667],"[640.0, 512.0]",vertical,"(390.0, 762.0)",[1.3666666666666667],[0.546],1,2006.498
7,False,366,1.322,79,[],[],"[(1175, 877)]",[],[1],[110],[1.8333333333333333],"[640.0, 512.0]",vertical,"(890.0, 262.0)",[1.3333333333333333],[0.492],1,2010.984
7,False,367,0.683,40,[],[],"[(1203, 879)]",[],[1],[76],[1.2666666666666666],"[640.0, 512.0]",horizontal,"(890.0, 262.0)",[1.0],[0.574],1,2015.793
7,False,368,1.175,70,[],[],"[(1201, 876)]",[],[1],[],[],"[640.0, 512.0]",horizontal,"(890.0, 262.0)",[],[0],0,2019.609
7,False,369,1.31,78,[],[],"[(1149, 871)]",[],[1],[109],[1.8166666666666667],"[640.0, 512.0]",vertical,"(390.0, 262.0)",[0.9333333333333333],[0.494],1,2023.084
7,False,370,0.497,29,[],[],"[(1197, 887)]",[],[1],[61],[1.0166666666666666],"[640.0, 512.0]",vertical,"(390.0, 262.0)",[1.2666666666666666],[0.511],1,2027.724
7,False,371,1.205,72,[],[],"[(1203, 861)]",[],[1],[104],[1.7333333333333334],"[640.0, 512.0]",horizontal,"(890.0, 762.0)",[0.5333333333333333],[0.509],1,2031.515
7,False,372,0.941,56,[],[],"[(1197, 880)]",[],[1],[89],[1.4833333333333334],"[640.0, 512.0]",vertical,"(390.0, 762.0)",[1.0166666666666666],[0.523],1,2035.398
7,False,373,0.963,57,[],[],"[(1158, 871)]",[],[1],[90],[1.5],"[640.0, 512.0]",vertical,"(890.0, 262.0)",[0.55],[0.526],1,2039.397
7,False,374,1.298,77,[],[],"[(1184, 867)]",[],[1],[117],[1.95],"[640.0, 512.0]",vertical,"(890.0, 762.0)",[1.3166666666666667],[0.638],1,2042.977
7,False,375,0.82,49,[],[],"[(1196, 869)]",[],[1],[80],[1.3333333333333333],"[640.0, 512.0]",horizontal,"(390.0, 262.0)",[0.9333333333333333],[0.495],1,2047.731
7,False,376,1.289,77,[],[],"[(1203, 867)]",[],[1],[108],[1.8],"[640.0, 512.0]",horizontal,"(390.0, 762.0)",[1.3333333333333333],[0.491],1,2051.481
7,False,377,0.782,46,[],[],"[(1203, 882)]",[],[1],[90],[1.5],"[640.0, 512.0]",horizontal,"(890.0, 262.0)",[1.4833333333333334],[0.703],1,2056.113
7,False,378,0.615,36,[],[],"[(1203, 868)]",[],[1],[81],[1.35],"[640.0, 512.0]",vertical,"(890.0, 762.0)",[0.7833333333333333],[0.722],1,2061.037
7,False,379,0.493,29,[],[],"[(1203, 863)]",[],[1],[63],[1.05],"[640.0, 512.0]",horizontal,"(390.0, 262.0)",[1.0333333333333332],[0.539],1,2064.717
7,False,380,1.195,71,[],[],"[(1203, 873)]",[],[1],[108],[1.8],"[640.0, 512.0]",horizontal,"(390.0, 762.0)",[0.5],[0.601],1,2068.282
7,False,381,1.435,86,[],[],"[(1180, 861)]",[],[1],[],[],"[640.0, 512.0]",horizontal,"(390.0, 262.0)",[],[0],0,2072.138
7,False,382,1.111,66,[],[],"[(1222, 882)]",[],[1],[99],[1.65],"[640.0, 512.0]",horizontal,"(890.0, 762.0)",[0.6],[0.522],1,2076.327
7,False,383,1.47,88,[],[],"[(1142, 880)]",[],[1],[121],[2.0166666666666666],"[640.0, 512.0]",vertical,"(390.0, 762.0)",[1.05],[0.527],1,2080.099
7,False,384,0.475,28,[],[],"[(1180, 880)]",[],[1],[63],[1.05],"[640.0, 512.0]",horizontal,"(390.0, 762.0)",[1.0],[0.557],1,2084.681
7,False,385,0.732,43,[],[],"[(1203, 891)]",[],[1],[76],[1.2666666666666666],"[640.0, 512.0]",vertical,"(890.0, 262.0)",[1.5],[0.519],1,2088.246
7,False,386,0.404,24,[],[],"[(1203, 889)]",[],[1],[67],[1.1166666666666667],"[640.0, 512.0]",vertical,"(890.0, 762.0)",[1.05],[0.69],1,2092.528
7,False,387,0.353,21,[],[],"[(1203, 871)]",[],[1],[54],[0.9],"[640.0, 512.0]",horizontal,"(890.0, 262.0)",[1.0666666666666667],[0.524],1,2096.28
7,False,388,1.369,82,[],[],"[(1180, 879)]",[],[1],[115],[1.9166666666666667],"[640.0, 512.0]",vertical,"(890.0, 762.0)",[1.0166666666666666],[0.526],1,2099.733
7,False,389,1.074,64,[],[],"[(1179, 885)]",[],[1],[97],[1.6166666666666667],"[640.0, 512.0]",horizontal,"(390.0, 762.0)",[1.5],[0.524],1,2104.278
7,False,390,0.729,43,[],[],"[(1178, 871)]",[],[1],[78],[1.3],"[640.0, 512.0]",horizontal,"(390.0, 762.0)",[1.0833333333333333],[0.559],1,2109.032
7,False,391,0.814,48,[],[],"[(1171, 878)]",[],[1],[81],[1.35],"[640.0, 512.0]",vertical,"(390.0, 262.0)",[0.8833333333333333],[0.532],1,2112.983
7,False,392,0.637,38,[],[],"[(1173, 883)]",[],[1],[75],[1.25],"[640.0, 512.0]",horizontal,"(890.0, 262.0)",[0.5666666666666667],[0.586],1,2116.797
7,False,393,0.516,30,[],[],"[(1146, 870)]",[],[1],[63],[1.05],"[640.0, 512.0]",horizontal,"(890.0, 762.0)",[1.0],[0.523],1,2120.242
7,False,394,1.387,83,[],[],"[(1198, 875)]",[],[1],[],[],"[640.0, 512.0]",horizontal,"(890.0, 262.0)",[],[0],0,2124.656
7,False,395,1.437,86,[],[],"[(1205, 885)]",[],[1],[117],[1.95],"[640.0, 512.0]",vertical,"(390.0, 262.0)",[0.9166666666666666],[0.489],1,2128.28
7,False,396,1.185,71,[],[],"[(1169, 880)]",[],[1],[104],[1.7333333333333334],"[640.0, 512.0]",horizontal,"(890.0, 762.0)",[0.6],[0.524],1,2132.698
7,False,397,0.8,48,[],[],"[(1166, 871)]",[],[1],[82],[1.3666666666666667],"[640.0, 512.0]",vertical,"(890.0, 262.0)",[0.5],[0.55],1,2136.578
7,False,398,0.826,49,[],[],"[(1203, 861)]",[],[1],[87],[1.45],"[640.0, 512.0]",horizontal,"(890.0, 262.0)",[0.8666666666666667],[0.608],1,2140.014
7,False,399,0.698,41,[],[],"[(1203, 870)]",[],[1],[76],[1.2666666666666666],"[640.0, 512.0]",vertical,"(390.0, 262.0)",[0.7333333333333333],[0.554],1,2143.851
7,False,400,1.237,74,[],[],"[(1175, 898)]",[],[1],[101],[1.6833333333333333],"[640.0, 512.0]",horizontal,"(890.0, 262.0)",[0.9666666666666667],[0.422],1,2147.39
7,False,401,0.55,33,[],[],"[(1203, 863)]",[],[1],[69],[1.15],"[640.0, 512.0]",vertical,"(890.0, 262.0)",[1.0],[0.578],1,2151.555
7,False,402,0.454,27,[],[],"[(1180, 866)]",[],[1],[61],[1.0166666666666666],"[640.0, 512.0]",horizontal,"(890.0, 762.0)",[1.1833333333333333],[0.542],1,2155.221
7,False,403,0.488,29,[],[],"[(1170, 864)]",[],[1],[61],[1.0166666666666666],"[640.0, 512.0]",horizontal,"(390.0, 262.0)",[0.7],[0.507],1,2158.953
7,False,404,0.55,33,[],[],"[(1150, 866)]",[],[1],[72],[1.2],"[640.0, 512.0]",vertical,"(890.0, 762.0)",[0.6333333333333333],[0.621],1,2162.26
7,False,405,0.91,54,[],[],"[(1203, 893)]",[],[1],[88],[1.4666666666666666],"[640.0, 512.0]",vertical,"(890.0, 762.0)",[1.65],[0.538],1,2166.365
7,False,406,0.638,38,[],[],"[(1173, 875)]",[],[1],[69],[1.15],"[640.0, 512.0]",horizontal,"(890.0, 262.0)",[1.65],[0.494],1,2170.987
7,False,407,0.7,42,[],[],"[(1173, 863)]",[],[1],[78],[1.3],"[640.0, 512.0]",vertical,"(890.0, 762.0)",[0.6666666666666666],[0.571],1,2175.282
7,False,408,1.409,84,[],[],"[(1203, 880)]",[],[1],[110],[1.8333333333333333],"[640.0, 512.0]",horizontal,"(890.0, 262.0)",[1.2],[0.41],1,2178.982
7,False,409,0.409,24,[],[],"[(1203, 872)]",[],[1],[62],[1.0333333333333332],"[640.0, 512.0]",vertical,"(890.0, 262.0)",[0.9],[0.603],1,2183.534
7,False,410,1.282,76,[],[],"[(1142, 894)]",[],[1],[113],[1.8833333333333333],"[640.0, 512.0]",vertical,"(390.0, 262.0)",[0.7],[0.585],1,2187.043
7,False,411,1.485,89,[],[],"[(1203, 880)]",[],[1],[100],[1.6666666666666667],"[640.0, 512.0]",horizontal,"(890.0, 762.0)",[0.9833333333333333],[0.165],1,2191.261
7,False,412,0.906,54,[],[],"[(1198, 865)]",[],[1],[86],[1.4333333333333333],"[640.0, 512.0]",vertical,"(390.0, 262.0)",[1.2833333333333332],[0.51],1,2195.443
7,False,413,1.388,83,[],[],"[(1176, 894)]",[],[1],[],[],"[640.0, 512.0]",horizontal,"(890.0, 262.0)",[],[0],0,2199.716
7,False,414,1.142,68,[],[],"[(1208, 876)]",[],[1],[93],[1.55],"[640.0, 512.0]",vertical,"(890.0, 262.0)",[0.85],[0.391],1,2203.257
7,False,415,0.726,43,[],[],"[(1198, 887)]",[],[1],[75],[1.25],"[640.0, 512.0]",vertical,"(890.0, 262.0)",[1.05],[0.51],1,2207.157
7,False,416,1.296,77,[],[],"[(1203, 885)]",[],[1],[114],[1.9],"[640.0, 512.0]",horizontal,"(390.0, 762.0)",[0.9166666666666666],[0.59],1,2210.97
7,False,417,0.387,23,[],[],"[(1183, 881)]",[],[1],[58],[0.9666666666666667],"[640.0, 512.0]",vertical,"(390.0, 762.0)",[1.4833333333333334],[0.554],1,2215.46
7,False,418,0.361,21,[],[],"[(1203, 871)]",[],[1],[58],[0.9666666666666667],"[640.0, 512.0]",vertical,"(390.0, 762.0)",[0.7666666666666666],[0.586],1,2219.433
7,False,419,1.309,78,[],[],"[(1198, 875)]",[],[1],[111],[1.8499999999999999],"[640.0, 512.0]",vertical,"(390.0, 762.0)",[1.3833333333333333],[0.52],1,2222.7
7,False,420,1.152,69,[],[],"[(1176, 864)]",[],[1],[115],[1.9166666666666667],"[640.0, 512.0]",vertical,"(390.0, 262.0)",[1.0333333333333332],[0.729],1,2227.434
8,False,421,1.219,73,[],[],"[(1180, 866)]",[],[1],[113],[1.8833333333333333],"[640.0, 512.0]",vertical,"(890.0, 262.0)",[1.6166666666666667],[0.642],1,2231.921
8,False,422,0.668,40,[],[],"[(1203, 857)]",[],[1],[82],[1.3666666666666667],"[640.0, 512.0]",vertical,"(890.0, 762.0)",[0.65],[0.673],1,2236.914
8,False,423,1.362,81,[],[],"[(1203, 880)]",[],[1],[112],[1.8666666666666667],"[640.0, 512.0]",horizontal,"(890.0, 762.0)",[1.4666666666666666],[0.489],1,2240.463
8,False,424,1.455,87,[],[],"[(1203, 875)]",[],[1],[126],[2.1],"[640.0, 512.0]",vertical,"(390.0, 762.0)",[1.0666666666666667],[0.623],1,2245.367
8,False,425,1.225,73,[],[],"[(1203, 878)]",[],[1],[97],[1.6166666666666667],"[640.0, 512.0]",horizontal,"(890.0, 262.0)",[1.1],[0.38],1,2250.031
8,False,426,0.802,48,[],[],"[(1197, 880)]",[],[1],[86],[1.4333333333333333],"[640.0, 512.0]",vertical,"(390.0, 762.0)",[1.1666666666666667],[0.61],1,2254.23
8,False,427,0.637,38,[],[],"[(1160, 869)]",[],[1],[79],[1.3166666666666667],"[640.0, 512.0]",horizontal,"(390.0, 262.0)",[0.95],[0.655],1,2258.328
8,False,428,1.058,63,[],[],"[(1170, 870)]",[],[1],[100],[1.6666666666666667],"[640.0, 512.0]",vertical,"(390.0, 762.0)",[0.8],[0.588],1,2262.134
8,False,429,0.805,48,[],[],"[(1203, 898)]",[],[1],[84],[1.4],"[640.0, 512.0]",vertical,"(390.0, 262.0)",[0.8833333333333333],[0.571],1,2266.181
8,False,430,1.244,74,[],[],"[(1203, 871)]",[],[1],[106],[1.7666666666666666],"[640.0, 512.0]",vertical,"(890.0, 262.0)",[0.7],[0.51],1,2269.966
8,False,431,1.011,60,[],[],"[(1175, 863)]",[],[1],[95],[1.5833333333333333],"[640.0, 512.0]",vertical,"(390.0, 762.0)",[1.1166666666666667],[0.552],1,2273.982
8,False,432,1.365,81,[],[],"[(1161, 880)]",[],[1],[116],[1.9333333333333333],"[640.0, 512.0]",vertical,"(390.0, 262.0)",[0.9333333333333333],[0.554],1,2278.234
8,False,433,1.499,89,[],[],"[(1196, 871)]",[],[1],[122],[2.033333333333333],"[640.0, 512.0]",horizontal,"(890.0, 262.0)",[1.05],[0.531],1,2282.654
8,False,434,0.333,19,[],[],"[(1197, 878)]",[],[1],[57],[0.95],"[640.0, 512.0]",vertical,"(390.0, 762.0)",[1.4166666666666667],[0.605],1,2287.677
8,False,435,1.014,60,[],[],"[(1180, 896)]",[],[1],[94],[1.5666666666666667],"[640.0, 512.0]",vertical,"(890.0, 762.0)",[1.3666666666666667],[0.546],1,2292.657
8,False,436,1.446,86,[],[],"[(1203, 877)]",[],[1],[119],[1.9833333333333334],"[640.0, 512.0]",vertical,"(890.0, 762.0)",[1.35],[0.527],1,2297.134
8,False,437,0.971,58,[],[],"[(1173, 885)]",[],[1],[94],[1.5666666666666667],"[640.0, 512.0]",vertical,"(390.0, 262.0)",[0.6166666666666667],[0.572],1,2301.992
8,False,438,0.397,23,[],[],"[(1178, 887)]",[],[1],[57],[0.95],"[640.0, 512.0]",horizontal,"(890.0, 262.0)",[1.35],[0.541],1,2305.672
8,False,439,1.043,62,[],[],"[(1200, 861)]",[],[1],[92],[1.5333333333333332],"[640.0, 512.0]",horizontal,"(890.0, 262.0)",[1.2833333333333332],[0.472],1,2309.638
8,False,440,0.618,37,[],[],"[(1160, 880)]",[],[1],[69],[1.15],"[640.0, 512.0]",horizontal,"(890.0, 262.0)",[0.6333333333333333],[0.507],1,2313.965
8,False,441,1.295,77,[],[],"[(1203, 863)]",[],[1],[108],[1.8],"[640.0, 512.0]",vertical,"(890.0, 262.0)",[1.4166666666666667],[0.493],1,2317.347
8,False,442,0.662,39,[],[],"[(1176, 880)]",[],[1],[71],[1.1833333333333333],"[640.0, 512.0]",horizontal,"(890.0, 262.0)",[0.8],[0.509],1,2322.087
8,False,443,1.382,82,[],[],"[(1203, 869)]",[],[1],[114],[1.9],"[640.0, 512.0]",horizontal,"(390.0, 262.0)",[0.8166666666666667],[0.51],1,2325.617
8,False,444,0.937,56,[],[],"[(1208, 861)]",[],[1],[93],[1.55],"[640.0, 512.0]",horizontal,"(390.0, 762.0)",[1.1666666666666667],[0.588],1,2329.817
8,False,445,0.763,45,[],[],"[(1203, 872)]",[],[1],[83],[1.3833333333333333],"[640.0, 512.0]",vertical,"(890.0, 762.0)",[0.5833333333333334],[0.608],1,2334.01
8,False,446,0.938,56,[],[],"[(1175, 887)]",[],[1],[],[],"[640.0, 512.0]",horizontal,"(890.0, 762.0)",[],[0],0,2337.534
8,False,447,0.513,30,[],[],"[(1227, 872)]",[],[1],[62],[1.0333333333333332],"[640.0, 512.0]",horizontal,"(390.0, 262.0)",[1.1666666666666667],[0.514],1,2341.602
8,False,448,0.407,24,[],[],"[(1196, 869)]",[],[1],[57],[0.95],"[640.0, 512.0]",vertical,"(890.0, 262.0)",[1.6166666666666667],[0.522],1,2345.294
8,False,449,1.271,76,[],[],"[(1203, 859)]",[],[1],[110],[1.8333333333333333],"[640.0, 512.0]",vertical,"(390.0, 762.0)",[0.55],[0.538],1,2349.363
8,False,450,0.768,46,[],[],"[(1203, 888)]",[],[1],[77],[1.2833333333333332],"[640.0, 512.0]",horizontal,"(890.0, 762.0)",[0.65],[0.493],1,2353.312
8,False,451,0.776,46,[],[],"[(1184, 874)]",[],[1],[80],[1.3333333333333333],"[640.0, 512.0]",vertical,"(890.0, 762.0)",[1.0],[0.542],1,2356.779
8,False,452,0.683,40,[],[],"[(1203, 863)]",[],[1],[76],[1.2666666666666666],"[640.0, 512.0]",horizontal,"(390.0, 762.0)",[1.2333333333333334],[0.577],1,2360.728
8,False,453,0.335,20,[],[],"[(1196, 854)]",[],[1],[59],[0.9833333333333333],"[640.0, 512.0]",vertical,"(390.0, 762.0)",[1.4666666666666666],[0.623],1,2364.716
8,False,454,0.309,18,[],[],"[(1143, 891)]",[],[1],[49],[0.8166666666666667],"[640.0, 512.0]",horizontal,"(890.0, 262.0)",[1.45],[0.489],1,2373.273
8,False,455,1.442,86,[],[],"[(1198, 871)]",[],[1],[120],[2.0],"[640.0, 512.0]",horizontal,"(390.0, 762.0)",[1.2333333333333334],[0.541],1,2377.128
8,False,456,1.399,83,[],[],"[(1205, 860)]",[],[1],[120],[2.0],"[640.0, 512.0]",horizontal,"(390.0, 762.0)",[1.6833333333333333],[0.591],1,2381.863
8,False,457,1.373,82,[],[],"[(1203, 872)]",[],[1],[120],[2.0],"[640.0, 512.0]",horizontal,"(390.0, 762.0)",[0.8166666666666667],[0.601],1,2387.01
8,False,458,1.136,68,[],[],"[(1176, 871)]",[],[1],[107],[1.7833333333333332],"[640.0, 512.0]",vertical,"(390.0, 762.0)",[1.2666666666666666],[0.622],1,2391.335
8,False,459,1.462,87,[],[],"[(1176, 888)]",[],[1],[125],[2.0833333333333335],"[640.0, 512.0]",vertical,"(390.0, 762.0)",[1.55],[0.601],1,2395.96
8,False,460,0.635,38,[],[],"[(1176, 871)]",[],[1],[72],[1.2],"[640.0, 512.0]",vertical,"(390.0, 262.0)",[1.15],[0.539],1,2401.122
8,False,461,1.228,73,[],[],"[(1175, 871)]",[],[1],[108],[1.8],"[640.0, 512.0]",horizontal,"(390.0, 262.0)",[1.0333333333333332],[0.557],1,2404.955
8,False,462,1.329,79,[],[],"[(1175, 882)]",[],[1],[115],[1.9166666666666667],"[640.0, 512.0]",vertical,"(890.0, 762.0)",[0.7],[0.573],1,2409.347
8,False,463,1.491,89,[],[],"[(1203, 876)]",[],[1],[118],[1.9666666666666666],"[640.0, 512.0]",vertical,"(890.0, 262.0)",[1.0833333333333333],[0.457],1,2413.559
8,False,464,1.042,62,[],[],"[(1203, 877)]",[],[1],[97],[1.6166666666666667],"[640.0, 512.0]",horizontal,"(390.0, 762.0)",[1.65],[0.555],1,2418.096
8,False,465,0.551,33,[],[],"[(1203, 878)]",[],[1],[66],[1.1],"[640.0, 512.0]",horizontal,"(390.0, 262.0)",[0.5666666666666667],[0.529],1,2422.857
8,False,466,0.694,41,[],[],"[(1201, 862)]",[],[1],[75],[1.25],"[640.0, 512.0]",horizontal,"(890.0, 262.0)",[1.2333333333333334],[0.54],1,2426.004
8,False,467,0.645,38,[],[],"[(1197, 866)]",[],[1],[82],[1.3666666666666667],"[640.0, 512.0]",vertical,"(890.0, 762.0)",[0.7666666666666666],[0.713],1,2429.998
8,False,468,0.634,38,[],[],"[(1203, 879)]",[],[1],[48],[0.8],"[640.0, 512.0]",horizontal,"(890.0, 762.0)",[1.4],[0.149],1,2433.687
8,False,469,0.684,41,[],[],"[(1197, 862)]",[],[1],[74],[1.2333333333333334],"[640.0, 512.0]",vertical,"(390.0, 262.0)",[1.2333333333333334],[0.52],1,2437.374
8,False,470,1.262,75,[],[],"[(1170, 868)]",[],[1],[111],[1.8499999999999999],"[640.0, 512.0]",vertical,"(390.0, 762.0)",[1.25],[0.571],1,2441.343
8,False,471,0.632,37,[],[],"[(1175, 875)]",[],[1],[70],[1.1666666666666667],"[640.0, 512.0]",horizontal,"(390.0, 262.0)",[0.7666666666666666],[0.524],1,2445.98
8,False,472,0.52,31,[],[],"[(1203, 880)]",[],[1],[66],[1.1],"[640.0, 512.0]",horizontal,"(890.0, 262.0)",[0.7666666666666666],[0.553],1,2449.46
8,False,473,0.452,27,[],[],"[(1203, 860)]",[],[1],[63],[1.05],"[640.0, 512.0]",vertical,"(390.0, 762.0)",[1.45],[0.572],1,2452.833
8,False,474,1.109,66,[],[],"[(1175, 877)]",[],[1],[115],[1.9166666666666667],"[640.0, 512.0]",vertical,"(390.0, 762.0)",[0.8833333333333333],[0.782],1,2456.796
8,False,475,0.368,22,[],[],"[(1167, 890)]",[],[1],[56],[0.9333333333333333],"[640.0, 512.0]",vertical,"(390.0, 762.0)",[1.4666666666666666],[0.544],1,2461.084
8,False,476,0.659,39,[],[],"[(1174, 899)]",[],[1],[76],[1.2666666666666666],"[640.0, 512.0]",horizontal,"(390.0, 262.0)",[0.9833333333333333],[0.591],1,2481.85
8,False,477,0.434,26,[],[],"[(1168, 902)]",[],[1],[65],[1.0833333333333333],"[640.0, 512.0]",vertical,"(390.0, 762.0)",[0.8833333333333333],[0.618],1,2485.631
8,False,478,1.451,87,[],[],"[(1149, 898)]",[],[1],[134],[2.2333333333333334],"[640.0, 512.0]",vertical,"(890.0, 262.0)",[1.0833333333333333],[0.752],1,2489.128
8,False,479,0.983,58,[],[],"[(1162, 890)]",[],[1],[89],[1.4833333333333334],"[640.0, 512.0]",horizontal,"(890.0, 262.0)",[1.3833333333333333],[0.492],1,2493.961
8,False,480,0.917,55,[],[],"[(1157, 890)]",[],[1],[98],[1.6333333333333333],"[640.0, 512.0]",horizontal,"(890.0, 762.0)",[0.8833333333333333],[0.689],1,2498.366
9,False,481,1.386,83,[],[],"[(1169, 897)]",[],[1],[126],[2.1],"[640.0, 512.0]",horizontal,"(890.0, 762.0)",[0.5333333333333333],[0.685],1,2502.47
9,False,482,0.785,47,[],[],"[(1160, 933)]",[],[1],[75],[1.25],"[640.0, 512.0]",horizontal,"(890.0, 762.0)",[0.9666666666666667],[0.441],1,2506.666
9,False,483,0.529,31,[],[],"[(1139, 902)]",[],[1],[63],[1.05],"[640.0, 512.0]",vertical,"(390.0, 762.0)",[0.6],[0.505],1,2584.337
9,False,484,0.954,57,[],[],"[(1163, 901)]",[],[1],[90],[1.5],"[640.0, 512.0]",vertical,"(890.0, 262.0)",[1.0833333333333333],[0.529],1,2587.6
9,False,485,0.696,41,[],[],"[(1172, 881)]",[],[1],[75],[1.25],"[640.0, 512.0]",vertical,"(890.0, 262.0)",[0.7333333333333333],[0.538],1,2591.845
9,False,486,0.304,18,[],[],"[(1173, 884)]",[],[1],[56],[0.9333333333333333],"[640.0, 512.0]",vertical,"(390.0, 262.0)",[1.3333333333333333],[0.609],1,2595.341
9,False,487,1.168,70,[],[],"[(1174, 889)]",[],[1],[102],[1.7],"[640.0, 512.0]",vertical,"(890.0, 262.0)",[1.6333333333333333],[0.509],1,2599.129
9,False,488,0.518,31,[],[],"[(1167, 862)]",[],[1],[68],[1.1333333333333333],"[640.0, 512.0]",horizontal,"(390.0, 762.0)",[1.0],[0.592],1,2603.974
9,False,489,0.313,18,[],[],"[(1164, 885)]",[],[1],[52],[0.8666666666666667],"[640.0, 512.0]",vertical,"(890.0, 262.0)",[1.0],[0.542],1,2607.663
9,False,490,0.941,56,[],[],"[(1188, 889)]",[],[1],[92],[1.5333333333333332],"[640.0, 512.0]",vertical,"(390.0, 762.0)",[1.6333333333333333],[0.574],1,2611.057
9,False,491,0.362,21,[],[],"[(1200, 871)]",[],[1],[63],[1.05],"[640.0, 512.0]",vertical,"(390.0, 262.0)",[0.9166666666666666],[0.672],1,2615.727
9,False,492,0.435,26,[],[],"[(1203, 888)]",[],[1],[62],[1.0333333333333332],"[640.0, 512.0]",vertical,"(390.0, 762.0)",[1.6833333333333333],[0.572],1,2619.317
9,False,493,0.672,40,[],[],"[(1201, 889)]",[],[1],[70],[1.1666666666666667],"[640.0, 512.0]",horizontal,"(890.0, 262.0)",[1.45],[0.473],1,2623.54
9,False,494,1.267,76,[],[],"[(1200, 882)]",[],[1],[108],[1.8],"[640.0, 512.0]",vertical,"(390.0, 262.0)",[0.9],[0.508],1,2627.674
9,False,495,1.106,66,[],[],"[(1197, 865)]",[],[1],[],[],"[640.0, 512.0]",horizontal,"(890.0, 262.0)",[],[0],0,2631.877
9,False,496,0.971,58,[],[],"[(1153, 914)]",[],[1],[],[],"[640.0, 512.0]",vertical,"(890.0, 762.0)",[],[0],0,2636.205
9,False,497,0.747,44,[],[],"[(1197, 876)]",[],[1],[56],[0.9333333333333333],"[640.0, 512.0]",vertical,"(890.0, 762.0)",[0.9833333333333333],[0.179],1,2640.494
9,False,498,1.316,78,[],[],"[(1162, 879)]",[],[1],[],[],"[640.0, 512.0]",horizontal,"(390.0, 762.0)",[],[0],0,2643.932
9,False,499,0.766,45,[],[],"[(1222, 880)]",[],[1],[76],[1.2666666666666666],"[640.0, 512.0]",horizontal,"(890.0, 262.0)",[0.8],[0.495],1,2647.697
9,False,500,1.321,79,[],[],"[(1179, 885)]",[],[1],[113],[1.8833333333333333],"[640.0, 512.0]",vertical,"(390.0, 262.0)",[1.65],[0.541],1,2651.273
9,False,501,0.929,55,[],[],"[(1197, 880)]",[],[1],[93],[1.55],"[640.0, 512.0]",vertical,"(390.0, 762.0)",[0.8666666666666667],[0.61],1,2656.283
9,False,502,0.752,45,[],[],"[(1203, 876)]",[],[1],[80],[1.3333333333333333],"[640.0, 512.0]",horizontal,"(390.0, 762.0)",[0.5166666666666666],[0.556],1,2660.245
9,False,503,0.649,38,[],[],"[(1203, 878)]",[],[1],[63],[1.05],"[640.0, 512.0]",horizontal,"(390.0, 262.0)",[1.6],[0.402],1,2663.663
9,False,504,1.457,87,[],[],"[(1203, 885)]",[],[1],[122],[2.033333333333333],"[640.0, 512.0]",vertical,"(390.0, 762.0)",[1.15],[0.569],1,2667.863
9,False,505,1.321,79,[],[],"[(1203, 875)]",[],[1],[],[],"[640.0, 512.0]",horizontal,"(890.0, 262.0)",[],[0],0,2672.59
9,False,506,0.367,22,[],[],"[(1235, 880), (1199, 868)]",[],"[0, 1]",[55],[0.9166666666666666],"[640.0, 512.0]",vertical,"(390.0, 262.0)",[0.5666666666666667],[0.526],1,2676.613
9,False,507,0.77,46,[],[],"[(1203, 894)]",[],[1],[77],[1.2833333333333332],"[640.0, 512.0]",horizontal,"(890.0, 262.0)",[1.1833333333333333],[0.494],1,2680.75
9,False,508,0.303,18,[],[],"[(1154, 892)]",[],[1],[55],[0.9166666666666666],"[640.0, 512.0]",vertical,"(390.0, 762.0)",[1.6333333333333333],[0.585],1,2684.717
9,False,509,0.525,31,[],[],"[(1172, 894)]",[],[1],[65],[1.0833333333333333],"[640.0, 512.0]",horizontal,"(890.0, 762.0)",[1.6],[0.542],1,2690.03
9,False,510,0.485,29,[],[],"[(1155, 897)]",[],[1],[69],[1.15],"[640.0, 512.0]",horizontal,"(390.0, 762.0)",[1.0833333333333333],[0.64],1,2694.474
9,False,511,0.608,36,[],[],"[(1161, 875)]",[],[1],[77],[1.2833333333333332],"[640.0, 512.0]",vertical,"(390.0, 762.0)",[0.5166666666666666],[0.658],1,2698.265
9,False,512,0.838,50,[],[],"[(1148, 898)]",[],[1],[85],[1.4166666666666667],"[640.0, 512.0]",horizontal,"(890.0, 262.0)",[0.5833333333333334],[0.559],1,2701.621
9,False,513,0.696,41,[],[],"[(1167, 894)]",[],[1],[83],[1.3833333333333333],"[640.0, 512.0]",vertical,"(390.0, 262.0)",[0.9],[0.667],1,2705.172
9,False,514,0.808,48,[],[],"[(1177, 871)]",[],[1],[82],[1.3666666666666667],"[640.0, 512.0]",vertical,"(390.0, 262.0)",[1.1333333333333333],[0.537],1,2709.034
9,False,515,1.429,85,[],[],"[(1191, 891)]",[],[1],[113],[1.8833333333333333],"[640.0, 512.0]",horizontal,"(390.0, 762.0)",[1.5833333333333333],[0.444],1,2713.087
9,False,516,1.169,70,[],[],"[(1196, 880)]",[],[1],[103],[1.7166666666666666],"[640.0, 512.0]",vertical,"(390.0, 762.0)",[1.4333333333333333],[0.521],1,2718.175
9,False,517,1.482,88,[],[],"[(1191, 872)]",[],[1],[120],[2.0],"[640.0, 512.0]",vertical,"(890.0, 762.0)",[1.4666666666666666],[0.511],1,2722.91
9,False,518,0.444,26,[],[],"[(1163, 873)]",[],[1],[61],[1.0166666666666666],"[640.0, 512.0]",horizontal,"(390.0, 262.0)",[0.5333333333333333],[0.562],1,2727.891
9,False,519,0.721,43,[],[],"[(1197, 894)]",[],[1],[81],[1.35],"[640.0, 512.0]",horizontal,"(390.0, 262.0)",[1.3833333333333333],[0.606],1,2731.155
9,False,520,0.368,22,[],[],"[(1154, 891)]",[],[1],[62],[1.0333333333333332],"[640.0, 512.0]",vertical,"(390.0, 762.0)",[0.85],[0.642],1,2735.496
9,False,521,0.409,24,[],[],"[(1148, 902)]",[],[1],[48],[0.8],"[640.0, 512.0]",vertical,"(890.0, 262.0)",[0.5666666666666667],[0.938],1,2739.003
9,False,522,1.063,63,[],[],"[(1203, 864)]",[],[1],[68],[1.1333333333333333],"[640.0, 512.0]",vertical,"(390.0, 762.0)",[0.5833333333333334],[0.067],1,2742.571
9,False,523,1.437,86,[],[],"[(1166, 890)]",[],[1],[122],[2.033333333333333],"[640.0, 512.0]",vertical,"(390.0, 262.0)",[0.75],[0.577],1,2746.375
9,False,524,0.474,28,[],[],"[(1160, 890)]",[],[1],[60],[1.0],"[640.0, 512.0]",vertical,"(390.0, 262.0)",[1.0666666666666667],[0.508],1,2750.718
9,False,525,0.956,57,[],[],"[(1179, 883)]",[],[1],[90],[1.5],"[640.0, 512.0]",vertical,"(390.0, 262.0)",[1.05],[0.523],1,2754.381
9,False,526,0.941,56,[],[],"[(1165, 902)]",[],[1],[83],[1.3833333333333333],"[640.0, 512.0]",horizontal,"(890.0, 762.0)",[1.1666666666666667],[0.426],1,2758.517
9,False,527,1.427,85,[],[],"[(1183, 880)]",[],[1],[135],[2.25],"[640.0, 512.0]",horizontal,"(390.0, 262.0)",[0.6833333333333333],[0.799],0,2762.56
9,False,528,1.146,68,[],[],"[(1218, 862)]",[],[1],[114],[1.9],"[640.0, 512.0]",horizontal,"(390.0, 762.0)",[1.6333333333333333],[0.742],1,2767.101
9,False,529,0.775,46,[],[],"[(1179, 878)]",[],[1],[84],[1.4],"[640.0, 512.0]",horizontal,"(890.0, 762.0)",[0.8666666666666667],[0.607],1,2772.134
9,False,530,0.814,48,[],[],"[(1156, 898)]",[],[1],[94],[1.5666666666666667],"[640.0, 512.0]",vertical,"(890.0, 262.0)",[0.6666666666666666],[0.733],1,2776.006
9,False,531,0.465,27,[],[],"[(1160, 899)]",[],[1],[58],[0.9666666666666667],"[640.0, 512.0]",horizontal,"(390.0, 262.0)",[1.5833333333333333],[0.489],1,2780.17
9,False,532,0.515,30,[],[],"[(1161, 853)]",[],[1],[65],[1.0833333333333333],"[640.0, 512.0]",horizontal,"(390.0, 762.0)",[1.2833333333333332],[0.556],1,2784.57
9,False,533,1.272,76,[],[],"[(1167, 888)]",[],[1],[],[],"[640.0, 512.0]",horizontal,"(390.0, 762.0)",[],[0],0,2788.501
9,False,534,1.427,85,[],[],"[(1203, 881)]",[],[1],[118],[1.9666666666666666],"[640.0, 512.0]",vertical,"(390.0, 262.0)",[0.8166666666666667],[0.526],1,2794.281
9,False,535,1.138,68,[],[],"[(1179, 882)]",[],[1],[100],[1.6666666666666667],"[640.0, 512.0]",horizontal,"(390.0, 262.0)",[1.3166666666666667],[0.509],1,2798.588
9,False,536,0.946,56,[],[],"[(1203, 875)]",[],[1],[86],[1.4333333333333333],"[640.0, 512.0]",horizontal,"(890.0, 262.0)",[0.7166666666666667],[0.48],1,2803.152
9,False,537,0.6,36,[],[],"[(1203, 861)]",[],[1],[67],[1.1166666666666667],"[640.0, 512.0]",vertical,"(890.0, 262.0)",[1.5833333333333333],[0.495],1,2806.874
9,False,538,1.01,60,[],[],"[(1204, 856)]",[],[1],[94],[1.5666666666666667],"[640.0, 512.0]",horizontal,"(390.0, 762.0)",[1.3333333333333333],[0.539],1,2811.114
9,False,539,0.6,36,[],[],"[(1179, 882)]",[],[1],[71],[1.1833333333333333],"[640.0, 512.0]",vertical,"(890.0, 762.0)",[1.1666666666666667],[0.558],1,2815.599
9,False,540,1.343,80,[],[],"[(1177, 885)]",[],[1],[117],[1.95],"[640.0, 512.0]",horizontal,"(390.0, 762.0)",[1.0333333333333332],[0.586],1,2819.515
10,False,541,1.373,82,[],[],"[(1203, 872)]",[],[1],[115],[1.9166666666666667],"[640.0, 512.0]",horizontal,"(890.0, 762.0)",[1.4666666666666666],[0.523],1,2823.995
10,False,542,0.812,48,[],[],"[(1155, 876)]",[],[1],[87],[1.45],"[640.0, 512.0]",horizontal,"(890.0, 762.0)",[0.8],[0.627],1,2829.059
10,False,543,1.111,66,[],[],"[(1173, 890)]",[],[1],[105],[1.75],"[640.0, 512.0]",horizontal,"(390.0, 762.0)",[1.15],[0.622],1,2832.857
10,False,544,1.461,87,[],[],"[(1179, 860)]",[],[1],[121],[2.0166666666666666],"[640.0, 512.0]",horizontal,"(890.0, 762.0)",[0.8666666666666667],[0.536],1,2837.279
10,False,545,0.893,53,[],[],"[(1154, 878)]",[],[1],[92],[1.5333333333333332],"[640.0, 512.0]",horizontal,"(890.0, 762.0)",[0.5333333333333333],[0.621],1,2841.652
10,False,546,1.324,79,[],[],"[(1185, 874)]",[],[1],[114],[1.9],"[640.0, 512.0]",vertical,"(390.0, 762.0)",[0.6166666666666667],[0.564],1,2845.932
10,False,547,0.63,37,[],[],"[(1180, 880)]",[],[1],[80],[1.3333333333333333],"[640.0, 512.0]",vertical,"(890.0, 762.0)",[0.7166666666666667],[0.694],1,2849.993
10,False,548,1.164,69,[],[],"[(1167, 889)]",[],[1],[106],[1.7666666666666666],"[640.0, 512.0]",vertical,"(390.0, 762.0)",[1.0833333333333333],[0.589],1,2853.623
10,False,549,1.444,86,[],[],"[(1178, 895)]",[],[1],[136],[2.2666666666666666],"[640.0, 512.0]",vertical,"(890.0, 762.0)",[1.25],[0.805],0,2858.065
10,False,550,0.47,28,[],[],"[(1183, 870)]",[],[1],[72],[1.2],"[640.0, 512.0]",vertical,"(890.0, 762.0)",[0.5333333333333333],[0.707],1,2863.091
10,False,551,1.036,62,[],[],"[(1203, 880)]",[],[1],"[112, 112]","[1.8666666666666667, 1.8666666666666667]","[640.0, 512.0]",vertical,"(890.0, 762.0)",[0.8],"[0.799, 0.799]",0,2866.38
10,False,552,1.35,81,[],[],"[(1203, 880)]",[],[1],[119],[1.9833333333333334],"[640.0, 512.0]",horizontal,"(890.0, 262.0)",[1.3833333333333333],[0.606],1,2870.581
10,False,553,1.454,87,[],[],"[(1203, 866)]",[],[1],[122],[2.033333333333333],"[640.0, 512.0]",vertical,"(890.0, 762.0)",[1.0],[0.562],1,2875.486
10,False,554,0.642,38,[],[],"[(1203, 876)]",[],[1],[75],[1.25],"[640.0, 512.0]",horizontal,"(390.0, 262.0)",[0.85],[0.599],1,2880.05
10,False,555,0.654,39,[],[],"[(1200, 863)]",[],[1],[76],[1.2666666666666666],"[640.0, 512.0]",vertical,"(390.0, 262.0)",[0.5666666666666667],[0.595],1,2883.72
10,False,556,0.789,47,[],[],"[(1161, 865)]",[],[1],[81],[1.35],"[640.0, 512.0]",horizontal,"(890.0, 762.0)",[1.6166666666666667],[0.541],1,2887.136
10,False,557,1.253,75,[],[],"[(1163, 880)]",[],[1],[109],[1.8166666666666667],"[640.0, 512.0]",horizontal,"(390.0, 762.0)",[0.5833333333333334],[0.541],1,2891.675
10,False,558,0.858,51,[],[],"[(1174, 885)]",[],[1],[89],[1.4833333333333334],"[640.0, 512.0]",vertical,"(890.0, 762.0)",[0.7],[0.605],1,2896.421
10,False,559,0.627,37,[],[],"[(1142, 885)]",[],[1],[72],[1.2],"[640.0, 512.0]",vertical,"(890.0, 762.0)",[1.2666666666666666],[0.561],1,2900.136
10,False,560,0.567,34,[],[],"[(1150, 899)]",[],[1],[81],[1.35],"[640.0, 512.0]",horizontal,"(890.0, 262.0)",[1.0166666666666666],[0.753],1,2906.003
10,False,561,0.969,58,[],[],"[(1173, 870)]",[],[1],[93],[1.55],"[640.0, 512.0]",vertical,"(390.0, 762.0)",[1.5833333333333333],[0.562],1,2909.913
10,False,562,0.883,52,[],[],"[(1179, 880)]",[],[1],[87],[1.45],"[640.0, 512.0]",vertical,"(390.0, 262.0)",[0.7166666666666667],[0.559],1,2914.583
10,False,563,0.544,32,[],[],"[(1186, 870)]",[],[1],[68],[1.1333333333333333],"[640.0, 512.0]",horizontal,"(390.0, 262.0)",[0.6333333333333333],[0.571],1,2918.359
10,False,564,1.001,60,[],[],"[(1178, 877)]",[],[1],[93],[1.55],"[640.0, 512.0]",vertical,"(390.0, 262.0)",[0.8],[0.529],1,2921.669
10,False,565,0.642,38,[],[],"[(1185, 861)]",[],[1],[84],[1.4],"[640.0, 512.0]",horizontal,"(890.0, 262.0)",[0.6166666666666667],[0.742],1,2925.58
10,False,566,1.324,79,[],[],"[(1203, 874)]",[],[1],[112],[1.8666666666666667],"[640.0, 512.0]",vertical,"(890.0, 262.0)",[0.8],[0.521],1,2929.194
10,False,567,0.338,20,[],[],"[(1181, 866)]",[],[1],[55],[0.9166666666666666],"[640.0, 512.0]",horizontal,"(390.0, 762.0)",[1.05],[0.557],1,2933.365
10,False,568,0.913,54,[],[],"[(1173, 894)]",[],[1],[89],[1.4833333333333334],"[640.0, 512.0]",horizontal,"(890.0, 762.0)",[1.6],[0.56],1,2936.934
10,False,569,1.334,80,[],[],"[(1183, 894)]",[],[1],[111],[1.8499999999999999],"[640.0, 512.0]",horizontal,"(390.0, 262.0)",[1.3833333333333333],[0.494],1,2941.644
10,False,570,0.47,28,[],[],"[(1178, 882)]",[],[1],[73],[1.2166666666666666],"[640.0, 512.0]",vertical,"(390.0, 762.0)",[0.75],[0.723],1,2946.388
10,False,571,1.137,68,[],[],"[(1173, 890)]",[],[1],[],[],"[640.0, 512.0]",horizontal,"(890.0, 762.0)",[],[0],0,2949.879
10,False,572,1.165,69,[],[],"[(1118, 866)]",[],[1],[103],[1.7166666666666666],"[640.0, 512.0]",horizontal,"(890.0, 762.0)",[0.65],[0.538],1,2953.415
10,False,573,0.365,21,[],[],"[(1143, 889)]",[],[1],[57],[0.95],"[640.0, 512.0]",horizontal,"(390.0, 262.0)",[0.5],[0.573],1,2957.746
10,False,574,0.787,47,[],[],"[(1173, 889)]",[],[1],[88],[1.4666666666666666],"[640.0, 512.0]",vertical,"(890.0, 762.0)",[1.0333333333333332],[0.658],1,2960.747
10,False,575,1.197,71,[],[],"[(1167, 890)]",[],[1],[109],[1.8166666666666667],"[640.0, 512.0]",vertical,"(390.0, 262.0)",[1.6],[0.611],1,2964.78
10,False,576,0.991,59,[],[],"[(1179, 878)]",[],[1],[94],[1.5666666666666667],"[640.0, 512.0]",vertical,"(390.0, 762.0)",[1.2166666666666666],[0.557],1,2969.931
10,False,577,1.475,88,[],[],"[(1179, 882)]",[],[1],[131],[2.183333333333333],"[640.0, 512.0]",vertical,"(390.0, 762.0)",[1.5166666666666666],[0.689],1,2974.268
10,False,578,0.95,57,[],[],"[(1203, 875)]",[],[1],[90],[1.5],"[640.0, 512.0]",horizontal,"(890.0, 262.0)",[0.7166666666666667],[0.525],1,2979.479
10,False,579,1.303,78,[],[],"[(1203, 863)]",[],[1],[110],[1.8333333333333333],"[640.0, 512.0]",horizontal,"(890.0, 762.0)",[1.0833333333333333],[0.507],1,2983.224
10,False,580,0.444,26,[],[],"[(1203, 866)]",[],[1],[66],[1.1],"[640.0, 512.0]",vertical,"(890.0, 762.0)",[1.2333333333333334],[0.641],1,2987.634
10,False,581,0.546,32,[],[],"[(1202, 858)]",[],[1],[66],[1.1],"[640.0, 512.0]",horizontal,"(390.0, 262.0)",[1.35],[0.541],1,2991.502
10,False,582,1.048,62,[],[],"[(1199, 877)]",[],[1],[95],[1.5833333333333333],"[640.0, 512.0]",vertical,"(390.0, 262.0)",[0.9333333333333333],[0.526],1,2995.443
10,False,583,0.433,25,[],[],"[(1179, 890)]",[],[1],[61],[1.0166666666666666],"[640.0, 512.0]",horizontal,"(390.0, 262.0)",[0.7166666666666667],[0.57],1,2999.5
10,False,584,0.384,23,[],[],"[(1174, 885)]",[],[1],[58],[0.9666666666666667],"[640.0, 512.0]",horizontal,"(890.0, 262.0)",[1.5333333333333332],[0.555],1,3020.845
10,False,585,0.903,54,[],[],"[(1166, 880)]",[],[1],[91],[1.5166666666666666],"[640.0, 512.0]",horizontal,"(390.0, 762.0)",[1.55],[0.589],1,3024.901
10,False,586,0.571,34,[],[],"[(1177, 890)]",[],[1],[77],[1.2833333333333332],"[640.0, 512.0]",horizontal,"(390.0, 262.0)",[0.5],[0.696],1,3029.508
10,False,587,0.639,38,[],[],"[(1173, 889)]",[],[1],[78],[1.3],"[640.0, 512.0]",horizontal,"(890.0, 762.0)",[1.0666666666666667],[0.642],1,3032.936
10,False,588,0.75,45,[],[],"[(1203, 896)]",[],[1],[78],[1.3],"[640.0, 512.0]",horizontal,"(890.0, 262.0)",[1.3833333333333333],[0.522],1,3036.845
10,False,589,1.34,80,[],[],"[(1166, 869)]",[],[1],[118],[1.9666666666666666],"[640.0, 512.0]",vertical,"(890.0, 262.0)",[0.85],[0.61],1,3041.068
10,False,590,0.805,48,[],[],"[(1172, 903)]",[],[1],[83],[1.3833333333333333],"[640.0, 512.0]",vertical,"(390.0, 262.0)",[1.3166666666666667],[0.556],1,3045.443
10,False,591,0.631,37,[],[],"[(1148, 889)]",[],[1],[73],[1.2166666666666666],"[640.0, 512.0]",horizontal,"(890.0, 762.0)",[1.25],[0.579],1,3049.713
10,False,592,1.377,82,[],[],"[(1191, 889)]",[],[1],[117],[1.95],"[640.0, 512.0]",vertical,"(390.0, 762.0)",[1.6166666666666667],[0.566],1,3053.766
10,False,593,1.371,82,[],[],"[(1200, 895)]",[],[1],[121],[2.0166666666666666],"[640.0, 512.0]",vertical,"(390.0, 762.0)",[0.8166666666666667],[0.62],1,3058.897
10,False,594,0.864,51,[],[],"[(1118, 904)]",[],[1],[99],[1.65],"[640.0, 512.0]",horizontal,"(390.0, 762.0)",[1.3666666666666667],[0.767],1,3063.921
10,False,595,0.381,22,[],[],"[(1185, 890)]",[],[1],[58],[0.9666666666666667],"[640.0, 512.0]",vertical,"(390.0, 762.0)",[1.0],[0.572],1,3070.013
10,False,596,1.197,71,[],[],"[(1161, 890)]",[],[1],[119],[1.9833333333333334],"[640.0, 512.0]",vertical,"(890.0, 262.0)",[1.25],[0.774],1,3073.716
10,False,597,0.85,51,[],[],"[(1150, 871)]",[],[1],[88],[1.4666666666666666],"[640.0, 512.0]",horizontal,"(390.0, 262.0)",[1.5166666666666666],[0.595],1,3078.499
10,False,598,0.586,35,[],[],"[(1173, 876)]",[],[1],[76],[1.2666666666666666],"[640.0, 512.0]",vertical,"(390.0, 262.0)",[0.8],[0.658],1,3082.998
10,False,599,0.917,55,[],[],"[(1191, 877)]",[],[1],[100],[1.6666666666666667],"[640.0, 512.0]",vertical,"(390.0, 762.0)",[1.2833333333333332],[0.723],1,3086.653
10,False,600,0.73,43,[],[],"[(1203, 874)]",[],[1],[86],[1.4333333333333333],"[640.0, 512.0]",vertical,"(390.0, 762.0)",[1.5833333333333333],[0.688],1,3091.081
11,False,601,1.052,63,[],[],"[(1203, 877)]",[],[1],[103],[1.7166666666666666],"[640.0, 512.0]",horizontal,"(390.0, 762.0)",[1.65],[0.638],1,3095.597
11,False,602,0.734,44,[],[],"[(1173, 898)]",[],[1],[77],[1.2833333333333332],"[640.0, 512.0]",horizontal,"(390.0, 262.0)",[0.9166666666666666],[0.525],1,3100.53
11,False,603,1.424,85,[],[],"[(1170, 872)]",[],[1],[121],[2.0166666666666666],"[640.0, 512.0]",vertical,"(890.0, 262.0)",[0.7833333333333333],[0.571],1,3104.306
11,False,604,0.971,58,[],[],"[(1165, 872)]",[],[1],[89],[1.4833333333333334],"[640.0, 512.0]",vertical,"(390.0, 262.0)",[1.4833333333333334],[0.494],1,3108.614
11,False,605,0.599,35,[],[],"[(1191, 879)]",[],[1],[70],[1.1666666666666667],"[640.0, 512.0]",vertical,"(890.0, 262.0)",[1.45],[0.558],1,3113.116
11,False,606,1.226,73,[],[],"[(1203, 859)]",[],[1],[110],[1.8333333333333333],"[640.0, 512.0]",horizontal,"(390.0, 762.0)",[0.6],[0.588],1,3117.265
11,False,607,1.02,61,[],[],"[(1179, 876)]",[],[1],[95],[1.5833333333333333],"[640.0, 512.0]",vertical,"(390.0, 262.0)",[0.65],[0.542],1,3121.18
11,False,608,1.133,67,[],[],"[(1197, 876)]",[],[1],[100],[1.6666666666666667],"[640.0, 512.0]",horizontal,"(390.0, 262.0)",[0.8833333333333333],[0.523],1,3124.915
11,False,609,0.587,35,[],[],"[(1182, 888)]",[],[1],[70],[1.1666666666666667],"[640.0, 512.0]",horizontal,"(890.0, 262.0)",[0.9],[0.549],1,3128.967
11,False,610,0.884,53,[],[],"[(1150, 872)]",[],[1],[87],[1.45],"[640.0, 512.0]",horizontal,"(890.0, 762.0)",[1.6333333333333333],[0.542],1,3132.579
11,False,611,0.724,43,[],[],"[(1187, 871)]",[],[1],[83],[1.3833333333333333],"[640.0, 512.0]",vertical,"(390.0, 762.0)",[1.1166666666666667],[0.641],1,3137.248
11,False,612,0.314,18,[],[],"[(1179, 876)]",[],[1],[51],[0.85],"[640.0, 512.0]",vertical,"(390.0, 262.0)",[1.1666666666666667],[0.519],1,3141.315
11,False,613,0.998,59,[],[],"[(1203, 876)]",[],[1],[95],[1.5833333333333333],"[640.0, 512.0]",horizontal,"(890.0, 762.0)",[1.3],[0.571],1,3144.903
11,False,614,0.636,38,[],[],"[(1178, 874)]",[],[1],[73],[1.2166666666666666],"[640.0, 512.0]",vertical,"(390.0, 762.0)",[0.6666666666666666],[0.571],1,3149.272
11,False,615,0.852,51,[],[],"[(1166, 888)]",[],[1],[87],[1.45],"[640.0, 512.0]",horizontal,"(390.0, 262.0)",[0.9833333333333333],[0.572],1,3152.735
11,False,616,0.887,53,[],[],"[(1191, 880)]",[],[1],[88],[1.4666666666666666],"[640.0, 512.0]",vertical,"(890.0, 762.0)",[1.55],[0.558],1,3156.798
11,False,617,0.529,31,[],[],"[(1149, 871)]",[],[1],[],[],"[640.0, 512.0]",vertical,"(390.0, 762.0)",[],[0],0,3161.361
11,False,618,0.428,25,[],[],"[(1206, 866)]",[],[1],[58],[0.9666666666666667],"[640.0, 512.0]",vertical,"(890.0, 262.0)",[1.4333333333333333],[0.525],1,3189.253
11,False,619,1.072,64,[],[],"[(1210, 889)]",[],[1],[72],[1.2],"[640.0, 512.0]",horizontal,"(390.0, 262.0)",[1.5666666666666667],[0.119],1,3193.184
11,False,620,1.164,69,[],[],"[(1180, 887)]",[],[1],[104],[1.7333333333333334],"[640.0, 512.0]",vertical,"(390.0, 262.0)",[0.8],[0.563],1,3197.865
11,False,621,1.497,89,[],[],"[(1201, 884)]",[],[1],[111],[1.8499999999999999],"[640.0, 512.0]",horizontal,"(890.0, 262.0)",[1.4833333333333334],[0.344],1,3201.98
11,False,622,1.073,64,[],[],"[(1203, 875)]",[],[1],[94],[1.5666666666666667],"[640.0, 512.0]",vertical,"(890.0, 262.0)",[1.1166666666666667],[0.481],1,3206.951
11,False,623,0.439,26,[],[],"[(1173, 886)]",[],[1],[59],[0.9833333333333333],"[640.0, 512.0]",horizontal,"(390.0, 262.0)",[0.9833333333333333],[0.524],1,3211.3
11,False,624,1.226,73,[],[],"[(1175, 876)]",[],[1],[108],[1.8],"[640.0, 512.0]",vertical,"(390.0, 762.0)",[1.4166666666666667],[0.556],1,3214.819
11,False,625,1.227,73,[],[],"[(1183, 873)]",[],[1],[113],[1.8833333333333333],"[640.0, 512.0]",vertical,"(890.0, 762.0)",[1.0],[0.645],1,3219.614
11,False,626,0.516,30,[],[],"[(1180, 894)]",[],[1],[64],[1.0666666666666667],"[640.0, 512.0]",horizontal,"(390.0, 262.0)",[1.25],[0.538],1,3224.016
11,False,627,1.35,81,[],[],"[(1197, 877)]",[],[1],[123],[2.05],"[640.0, 512.0]",vertical,"(890.0, 262.0)",[0.8666666666666667],[0.678],1,3227.951
11,False,628,1.21,72,[],[],"[(1183, 875)]",[],[1],[103],[1.7166666666666666],"[640.0, 512.0]",vertical,"(890.0, 762.0)",[1.5833333333333333],[0.492],1,3232.418
11,False,629,0.9,54,[],[],"[(1203, 880)]",[],[1],[85],[1.4166666666666667],"[640.0, 512.0]",horizontal,"(890.0, 762.0)",[1.35],[0.499],1,3237.235
11,False,630,0.416,24,[],[],"[(1173, 888)]",[],[1],[56],[0.9333333333333333],"[640.0, 512.0]",horizontal,"(890.0, 262.0)",[1.2666666666666666],[0.505],1,3241.595
11,False,631,0.749,44,[],[],"[(1177, 898)]",[],[1],[80],[1.3333333333333333],"[640.0, 512.0]",vertical,"(390.0, 762.0)",[1.45],[0.573],1,3245.321
11,False,632,1.392,83,[],[],"[(1197, 864)]",[],[1],[112],[1.8666666666666667],"[640.0, 512.0]",vertical,"(390.0, 762.0)",[1.6],[0.464],1,3249.645
11,False,633,0.811,48,[],[],"[(1191, 876)]",[],[1],[92],[1.5333333333333332],"[640.0, 512.0]",vertical,"(390.0, 262.0)",[1.4666666666666666],[0.714],1,3254.653
11,False,634,1.42,85,[],[],"[(1160, 876)]",[],[1],[],[],"[640.0, 512.0]",horizontal,"(390.0, 762.0)",[],[0],0,3259.224
11,False,635,1.153,69,[],[],"[(1142, 885)]",[],[1],[119],[1.9833333333333334],"[640.0, 512.0]",vertical,"(890.0, 262.0)",[1.55],[0.806],0,3264.43
11,False,636,0.307,18,[],[],"[(1203, 871)]",[],[1],[51],[0.85],"[640.0, 512.0]",vertical,"(390.0, 262.0)",[1.3166666666666667],[0.525],1,3270.298
11,False,637,1.442,86,[],[],"[(1179, 846)]",[],[1],[129],[2.15],"[640.0, 512.0]",horizontal,"(390.0, 762.0)",[0.9333333333333333],[0.696],1,3274.053
11,False,638,0.592,35,[],[],"[(1183, 864)]",[],[1],[76],[1.2666666666666666],"[640.0, 512.0]",horizontal,"(890.0, 762.0)",[0.6833333333333333],[0.657],1,3278.71
11,False,639,0.615,36,[],[],"[(1197, 895)]",[],[1],[70],[1.1666666666666667],"[640.0, 512.0]",vertical,"(390.0, 762.0)",[1.5333333333333332],[0.537],1,3286.515
11,False,640,0.388,23,[],[],"[(1205, 875)]",[],[1],[59],[0.9833333333333333],"[640.0, 512.0]",vertical,"(390.0, 762.0)",[0.7],[0.576],1,3290.739
11,False,641,0.479,28,[],[],"[(1168, 885)]",[],[1],[64],[1.0666666666666667],"[640.0, 512.0]",horizontal,"(890.0, 762.0)",[1.6833333333333333],[0.574],1,3294.004
11,False,642,0.571,34,[],[],"[(1154, 890)]",[],[1],[68],[1.1333333333333333],"[640.0, 512.0]",vertical,"(890.0, 762.0)",[1.5333333333333332],[0.54],1,3298.305
11,False,643,0.491,29,[],[],"[(1172, 893)]",[],[1],[61],[1.0166666666666666],"[640.0, 512.0]",vertical,"(890.0, 262.0)",[1.05],[0.511],1,3302.527
11,False,644,1.157,69,[],[],"[(1197, 876)]",[],[1],[102],[1.7],"[640.0, 512.0]",horizontal,"(390.0, 262.0)",[0.5333333333333333],[0.525],1,3306.154
11,False,645,0.985,59,[],[],"[(1197, 880)]",[],[1],[100],[1.6666666666666667],"[640.0, 512.0]",horizontal,"(890.0, 762.0)",[1.5166666666666666],[0.653],1,3309.949
11,False,646,1.219,73,[],[],"[(1173, 885)]",[],[1],[111],[1.8499999999999999],"[640.0, 512.0]",horizontal,"(390.0, 762.0)",[1.3333333333333333],[0.609],1,3314.791
11,False,647,0.333,19,[],[],"[(1203, 860)]",[],[1],[52],[0.8666666666666667],"[640.0, 512.0]",horizontal,"(890.0, 762.0)",[1.2166666666666666],[0.527],1,3320.288
11,False,648,0.436,26,[],[],"[(1166, 897)]",[],[1],[65],[1.0833333333333333],"[640.0, 512.0]",vertical,"(390.0, 762.0)",[1.5666666666666667],[0.616],1,3323.927
11,False,649,0.928,55,[],[],"[(1196, 889)]",[],[1],[],[],"[640.0, 512.0]",horizontal,"(890.0, 262.0)",[],[0],0,3328.102
11,False,650,1.247,74,[],[],"[(1203, 876)]",[],[1],[85],[1.4166666666666667],"[640.0, 512.0]",vertical,"(390.0, 262.0)",[0.7166666666666667],[0.167],1,3331.947
11,False,651,1.177,70,[],[],"[(1185, 844)]",[],[1],[99],[1.65],"[640.0, 512.0]",vertical,"(890.0, 262.0)",[1.2333333333333334],[0.457],1,3335.635
11,False,652,0.532,31,[],[],"[(1180, 879)]",[],[1],[69],[1.15],"[640.0, 512.0]",horizontal,"(390.0, 762.0)",[1.2666666666666666],[0.604],1,3340.089
11,False,653,0.527,31,[],[],"[(1168, 867)]",[],[1],[64],[1.0666666666666667],"[640.0, 512.0]",horizontal,"(890.0, 762.0)",[0.7],[0.527],1,3344.004
11,False,654,1.215,72,[],[],"[(1203, 869)]",[],[1],[103],[1.7166666666666666],"[640.0, 512.0]",vertical,"(890.0, 262.0)",[0.9166666666666666],[0.49],1,3347.317
11,False,655,1.383,82,[],[],"[(1203, 877)]",[],[1],[122],[2.033333333333333],"[640.0, 512.0]",horizontal,"(390.0, 262.0)",[0.95],[0.639],1,3351.47
11,False,656,1.358,81,[],[],"[(1208, 877)]",[],[1],[110],[1.8333333333333333],"[640.0, 512.0]",vertical,"(890.0, 262.0)",[1.6],[0.459],1,3356.108
11,False,657,1.095,65,[],[],"[(1203, 880)]",[],[1],[67],[1.1166666666666667],"[640.0, 512.0]",vertical,"(390.0, 262.0)",[1.1333333333333333],[0.019],1,3360.998
11,False,658,0.592,35,[],[],"[(1185, 884)]",[],[1],[71],[1.1833333333333333],"[640.0, 512.0]",vertical,"(390.0, 762.0)",[0.5833333333333334],[0.571],1,3364.937
11,False,659,1.307,78,[],[],"[(1198, 880)]",[],[1],[114],[1.9],"[640.0, 512.0]",vertical,"(890.0, 262.0)",[0.8833333333333333],[0.578],1,3368.747
11,False,660,0.941,56,[],[],"[(1184, 871)]",[],[1],[97],[1.6166666666666667],"[640.0, 512.0]",vertical,"(890.0, 762.0)",[0.6333333333333333],[0.659],1,3373.114
12,False,661,1.282,76,[],[],"[(1188, 876)]",[],[1],[106],[1.7666666666666666],"[640.0, 512.0]",horizontal,"(890.0, 762.0)",[1.1333333333333333],[0.478],1,3376.933
12,False,662,0.332,19,[],[],"[(1167, 876)]",[],[1],[54],[0.9],"[640.0, 512.0]",vertical,"(890.0, 762.0)",[0.6666666666666666],[0.561],1,3381.465
12,False,663,1.478,88,[],[],"[(1203, 880)]",[],[1],[118],[1.9666666666666666],"[640.0, 512.0]",horizontal,"(390.0, 262.0)",[0.5333333333333333],[0.482],1,3384.697
12,False,664,1.058,63,[],[],"[(1191, 889)]",[],[1],[98],[1.6333333333333333],"[640.0, 512.0]",horizontal,"(390.0, 262.0)",[0.5],[0.57],1,3388.719
12,False,665,1.184,71,[],[],"[(1203, 886)]",[],[1],[106],[1.7666666666666666],"[640.0, 512.0]",horizontal,"(890.0, 262.0)",[0.5],[0.553],1,3392.43
