block,trial,trial_type,taps_start_loc_during_fix,taps_end_loc_during_fix,taps_on_lever_during_fix,taps_on_lever_s_during_fix,bar_orientation,target_xy,cti,rt,acc,time,pulses
0,1,target,"[(1047, 875)]",[],[1],[0.5833333333333334],horizontal,"(890.0, 762.0)",1.1,0.541,1,0.409,1
0,2,target,"[(1062, 808)]",[],[1],[],vertical,"(390.0, 762.0)",,"('fix', 0.518)",0,35.647,0
0,3,target,"[(1078, 833)]",[],[1],[0.43333333333333335],horizontal,"(390.0, 762.0)",1.3666666666666667,0.392,1,37.896,1
0,4,target,"[(1068, 809)]",[],[1],[0.48333333333333334],horizontal,"(390.0, 762.0)",0.7833333333333333,0.443,1,466.463,1
0,5,target,"[(1085, 811)]",[],[1],[0.85],horizontal,"(890.0, 262.0)",0.9,nan,0,471.103,0
0,6,target,"[(1057, 784)]",[],[1],[],vertical,"(390.0, 762.0)",,"('cti', 1.33)",0,476.495,0
0,7,target,"[(1037, 818)]",[],[1],[0.6166666666666667],vertical,"(890.0, 262.0)",0.5666666666666667,0.575,1,487.013,1
0,8,target,"[(1100, 805)]",[],[1],[],vertical,"(390.0, 262.0)",,"('cti', 0.475)",0,491.913,0
0,9,target,"[(1058, 777)]",[],[1],[0.25],horizontal,"(890.0, 762.0)",1.65,0.214,1,496.014,1
0,10,target,"[(1124, 801)]",[],[1],[0.85],vertical,"(390.0, 262.0)",1.4333333333333333,nan,0,501.346,0
0,11,target,"[(1078, 775)]",[],[1],[0.85],vertical,"(390.0, 262.0)",0.9166666666666666,nan,0,506.63,0
0,12,target,"[(1075, 781)]",[],[1],[],horizontal,"(390.0, 262.0)",,"('cti', 1.432)",0,511.33,0
0,13,target,"[(1071, 776)]",[],[1],[],vertical,"(390.0, 262.0)",,"('cti', 1.489)",0,522.429,0
0,14,catch,"[(1114, 776)]",[],[1],[],horizontal,"(390.0, 262.0)",1.6,nan,1,527.097,1
0,15,target,"[(864, 185), (101, 116), (1134, 202), (1132, 202), (1123, 118), (1086, 360), (1132, 162), (386, 148), (1091, 138), (1091, 851)]",[],"[0, 0, 0, 0, 0, 0, 0, 0, 0, 1]",[0.23333333333333334],horizontal,"(890.0, 762.0)",1.5166666666666666,0.196,0,532.296,0
0,16,target,"[(1072, 792)]",[],[1],[0.5166666666666666],horizontal,"(890.0, 262.0)",0.9666666666666667,0.475,1,576.882,1
0,17,target,"[(1115, 797)]",[],[1],[0.5166666666666666],vertical,"(390.0, 762.0)",0.7333333333333333,0.482,1,581.513,1
0,18,catch,"[(1106, 768)]",[],[1],[],horizontal,"(890.0, 262.0)",,"('cti', 1.163),nan",0,585.982,0
0,19,catch,"[(1076, 790)]",[],[1],[],horizontal,"(890.0, 762.0)",1.6,nan,1,590.621,1
0,20,target,"[(1082, 782)]",[],[1],[0.35],vertical,"(390.0, 762.0)",0.8333333333333334,0.314,1,595.498,1
0,21,target,"[(1101, 772)]",[],[1],[0.43333333333333335],horizontal,"(390.0, 762.0)",1.3166666666666667,0.392,1,599.882,1
0,22,catch,"[(1058, 776)]",[],[1],[],horizontal,"(390.0, 762.0)",,"('cti', 1.22),nan",0,605.281,0
0,23,target,"[(1074, 784)]",[],[1],[0.85],horizontal,"(390.0, 762.0)",0.5166666666666666,nan,0,609.997,0
0,24,target,"[(1062, 830)]",[],[1],[0.5],horizontal,"(890.0, 262.0)",0.6333333333333333,0.464,1,615.739,1
0,25,target,"[(1127, 793)]",[],[1],[0.6333333333333333],horizontal,"(390.0, 762.0)",0.9,0.602,1,621.418,1
0,26,catch,"[(1108, 765)]",[],[1],[],vertical,"(890.0, 762.0)",,"('cti', 1.489),nan",0,626.178,0
0,27,target,"[(1081, 787)]",[],[1],[0.6333333333333333],vertical,"(390.0, 762.0)",0.7333333333333333,0.59,1,630.896,1
0,28,target,"[(1106, 778)]",[],[1],[0.5],horizontal,"(890.0, 262.0)",1.1166666666666667,0.468,1,635.845,1
0,29,target,"[(1105, 777)]",[],[1],[0.5333333333333333],horizontal,"(890.0, 262.0)",1.15,0.495,1,640.447,1
0,30,catch,"[(1105, 786)]",[],[1],[],vertical,"(890.0, 262.0)",,"('cti', 1.45),nan",0,645.119,0
0,31,catch,"[(1096, 795)]",[],[1],[],vertical,"(890.0, 762.0)",,"('cti', 1.438),nan",0,649.633,0
0,32,target,"[(1118, 794)]",[],[1],[0.43333333333333335],vertical,"(890.0, 762.0)",1.0666666666666667,0.397,1,654.375,1
0,33,catch,"[(1100, 770)]",[],[1],[],vertical,"(890.0, 262.0)",1.6,nan,1,659.248,1
0,34,target,"[(1079, 793)]",[],[1],[0.6],vertical,"(890.0, 262.0)",0.6833333333333333,0.564,1,663.964,1
0,35,target,"[(1099, 780)]",[],[1],[0.3333333333333333],vertical,"(390.0, 262.0)",1.35,0.297,1,668.631,2
0,36,target,"[(1126, 770)]",[],[1],[0.16666666666666666],horizontal,"(390.0, 262.0)",1.2833333333333332,0.133,0,673.866,0
0,37,target,"[(1110, 789)]",[],[1],[0.26666666666666666],vertical,"(890.0, 762.0)",1.1,0.23,1,678.597,1
0,38,target,"[(1100, 801)]",[],[1],[0.55],horizontal,"(390.0, 762.0)",0.75,0.508,1,683.464,1
0,39,target,"[(1137, 783)]",[],[1],[],horizontal,"(390.0, 262.0)",,"('cti', 1.364)",0,688.656,0
0,40,target,"[(1072, 791)]",[],[1],[0.5833333333333334],vertical,"(390.0, 262.0)",0.65,0.543,1,693.312,1
0,41,target,"[(1123, 766)]",[],[1],[0.85],horizontal,"(890.0, 762.0)",0.5666666666666667,nan,0,697.727,0
0,42,target,"[(1072, 801)]",[],[1],[0.55],vertical,"(890.0, 762.0)",1.1333333333333333,0.508,1,702.48,1
0,43,target,"[(1096, 765)]",[],[1],[0.5166666666666666],vertical,"(890.0, 262.0)",0.55,0.472,1,707.869,1
0,44,target,"[(1106, 766)]",[],[1],[0.6],horizontal,"(390.0, 262.0)",0.7833333333333333,0.562,1,712.563,1
0,45,target,"[(1086, 780)]",[],[1],[0.21666666666666667],vertical,"(890.0, 262.0)",1.1,0.183,0,717.197,0
0,46,catch,"[(1098, 765)]",[],[1],[],horizontal,"(390.0, 762.0)",1.6,nan,1,721.932,1
0,47,target,"[(1105, 797)]",[],[1],[0.1],vertical,"(890.0, 762.0)",1.2333333333333334,0.068,0,726.696,0
0,48,target,"[(1103, 779)]",[],[1],[0.6166666666666667],vertical,"(890.0, 262.0)",1.05,0.574,1,731.214,1
0,49,target,"[(1125, 791)]",[],[1],[0.5333333333333333],vertical,"(390.0, 262.0)",0.7333333333333333,0.494,1,736.16,1
0,50,target,"[(1099, 796)]",[],[1],[0.16666666666666666],vertical,"(890.0, 262.0)",1.0833333333333333,0.134,0,740.831,0
0,51,target,"[(1075, 773)]",[],[1],[0.4666666666666667],horizontal,"(890.0, 262.0)",0.95,0.428,1,745.215,1
0,52,target,"[(1129, 766)]",[],[1],[0.3333333333333333],horizontal,"(390.0, 762.0)",1.2333333333333334,0.293,1,750.099,1
0,53,target,"[(1130, 771)]",[],[1],[0.6333333333333333],vertical,"(390.0, 762.0)",0.8166666666666667,0.6,1,754.877,1
0,54,target,"[(1102, 776)]",[],[1],[],horizontal,"(390.0, 762.0)",,"('cti', 1.574)",0,759.232,0
0,55,target,"[(1085, 786)]",[],[1],[0.5],vertical,"(890.0, 262.0)",0.7,0.462,1,763.746,1
0,56,target,"[(1107, 801)]",[],[1],[0.05],vertical,"(390.0, 762.0)",1.65,0.018,0,768.414,0
0,57,target,"[(1080, 779)]",[],[1],[0.25],vertical,"(890.0, 262.0)",1.3166666666666667,0.216,1,773.143,1
0,58,target,"[(1090, 784)]",[],[1],[0.4666666666666667],vertical,"(390.0, 762.0)",1.5833333333333333,0.422,1,778.181,1
0,59,target,"[(1124, 800)]",[],[1],[0.21666666666666667],vertical,"(390.0, 762.0)",1.4833333333333334,0.183,0,783.137,0
0,60,target,"[(1086, 771)]",[],[1],[0.55],horizontal,"(390.0, 262.0)",0.75,0.51,1,788.064,1
0,61,catch,"[(1104, 771)]",[],[1],[],horizontal,"(890.0, 262.0)",1.6,nan,1,792.78,1
0,62,target,"[(1107, 796)]",[],[1],[0.55],horizontal,"(890.0, 762.0)",0.8166666666666667,0.511,1,797.879,1
0,63,target,"[(1096, 785)]",[],[1],[0.5666666666666667],vertical,"(890.0, 262.0)",0.6833333333333333,0.522,1,803.06,2
0,64,target,"[(1104, 770)]",[],[1],[0.6],vertical,"(390.0, 262.0)",1.25,0.558,1,808.252,2
0,65,target,"[(1101, 800)]",[],[1],[0.6666666666666666],horizontal,"(890.0, 262.0)",1.0166666666666666,0.623,1,813.931,2
0,66,target,"[(1106, 797)]",[],[1],[0.43333333333333335],vertical,"(890.0, 762.0)",1.4166666666666667,0.39,1,819.164,2
0,67,target,"[(1109, 768)]",[],[1],[0.55],horizontal,"(390.0, 262.0)",0.5666666666666667,0.514,1,824.819,2
0,68,catch,"[(1127, 799)]",[],[1],[],horizontal,"(390.0, 762.0)",1.6,nan,1,829.389,3
0,69,target,"[(1125, 783)]",[],[1],[0.65],vertical,"(890.0, 762.0)",1.2,0.603,1,835.296,3
0,70,target,"[(1091, 795)]",[],[1],[0.55],horizontal,"(390.0, 762.0)",0.9,0.511,1,841.631,3
0,71,catch,"[(1118, 801)]",[],[1],[],vertical,"(890.0, 262.0)",,"('cti', 1.504),nan",0,848.049,0
0,72,target,"[(1108, 791)]",[],[1],[0.6333333333333333],vertical,"(890.0, 262.0)",1.2,0.591,1,852.999,1
0,73,catch,"[(1108, 786)]",[],[1],[],vertical,"(390.0, 262.0)",1.6,nan,1,857.965,1
0,74,target,"[(1110, 797)]",[],[1],[0.26666666666666666],vertical,"(890.0, 762.0)",1.3833333333333333,0.23,1,863.412,1
0,75,target,"[(1126, 785)]",[],[1],[0.55],horizontal,"(390.0, 762.0)",1.1666666666666667,0.51,1,868.616,2
0,76,target,"[(1123, 781)]",[],[1],[0.5166666666666666],vertical,"(390.0, 762.0)",1.2166666666666666,0.474,1,874.299,2
0,77,target,"[(1112, 780)]",[],[1],[0.5833333333333334],vertical,"(390.0, 762.0)",0.7166666666666667,0.547,1,880.082,2
0,78,target,"[(1129, 766)]",[],[1],[0.06666666666666667],horizontal,"(890.0, 262.0)",1.55,0.036,0,885.366,0
0,79,target,"[(1076, 796)]",[],[1],[0.6166666666666667],vertical,"(390.0, 262.0)",0.9833333333333333,0.572,1,890.278,1
0,80,target,"[(1105, 759)]",[],[1],[0.5],horizontal,"(390.0, 262.0)",1.35,0.457,1,895.282,1
0,81,target,"[(1126, 769)]",[],[1],[0.85],horizontal,"(390.0, 262.0)",0.6666666666666666,nan,0,900.341,0
0,82,target,"[(1082, 792)]",[],[1],[0.48333333333333334],horizontal,"(390.0, 262.0)",1.1166666666666667,0.443,1,904.909,1
0,83,catch,"[(1121, 786)]",[],[1],[],horizontal,"(890.0, 762.0)",1.6,nan,1,910.109,1
0,84,target,"[(1121, 780)]",[],[1],[0.5],horizontal,"(390.0, 762.0)",0.6333333333333333,0.462,1,915.645,1
0,85,target,"[(1096, 770)]",[],[1],[],vertical,"(890.0, 262.0)",,"('cti', 1.661)",0,920.492,0
0,86,target,"[(1062, 790)]",[],[1],[],horizontal,"(890.0, 762.0)",,"('cti', 1.603)",0,925.259,0
0,87,target,"[(1097, 804)]",[],[1],[0.5],horizontal,"(390.0, 262.0)",0.9333333333333333,0.459,1,934.333,1
0,88,catch,"[(1076, 776)]",[],[1],[],horizontal,"(390.0, 262.0)",1.6,nan,1,4375.118,1
0,89,target,"[(1093, 805)]",[],[1],[0.5666666666666667],vertical,"(390.0, 262.0)",1.2666666666666666,0.525,1,4380.337,1
0,90,target,"[(1076, 802)]",[],[1],[0.43333333333333335],vertical,"(890.0, 762.0)",0.9666666666666667,0.396,1,4385.473,2
0,91,target,"[(1081, 786)]",[],[1],[],vertical,"(890.0, 762.0)",,"('cti', 1.528)",0,4390.811,0
0,92,catch,"[(1063, 826)]",[],[1],[],horizontal,"(390.0, 762.0)",,"('cti', 1.546),nan",0,4395.447,0
0,93,target,"[(1065, 808)]",[],[1],[0.85],horizontal,"(390.0, 262.0)",1.1333333333333333,nan,0,4453.047,0
0,94,target,"[(1058, 809)]",[],[1],[0.5166666666666666],horizontal,"(390.0, 762.0)",1.4166666666666667,0.478,1,4457.657,1
0,95,target,"[(1108, 813)]",[],[1],[0.85],vertical,"(890.0, 262.0)",1.4,nan,0,4472.973,0
0,96,target,"[(1090, 789)]",[],[1],[0.5666666666666667],horizontal,"(390.0, 762.0)",0.5666666666666667,0.527,1,4478.717,1
0,97,target,"[(1105, 794)]",[],[1],[0.55],horizontal,"(890.0, 762.0)",0.75,0.524,1,4484.44,1
0,98,target,"[(1093, 801)]",[],[1],[0.43333333333333335],vertical,"(390.0, 762.0)",1.3333333333333333,0.398,1,4488.934,1
0,99,target,"[(1122, 774)]",[],[1],[0.6],vertical,"(390.0, 262.0)",0.55,0.556,1,4494.208,2
0,100,catch,"[(1108, 770)]",[],[1],[0.03333333333333333],horizontal,"(890.0, 762.0)",1.6,"0.019,nan",0,4499.406,0
0,101,target,"[(1076, 796)]",[],[1],[0.15],vertical,"(890.0, 762.0)",1.6833333333333333,0.118,0,4504.454,0
0,102,target,"[(1084, 791)]",[],[1],[0.85],vertical,"(390.0, 762.0)",1.3166666666666667,nan,0,4509.239,0
0,103,target,"[(1054, 784)]",[],[1],[0.4666666666666667],horizontal,"(890.0, 762.0)",1.4166666666666667,0.424,1,4514.556,1
0,104,catch,"[(1076, 791)]",[],[1],[],vertical,"(390.0, 262.0)",1.6,nan,1,4559.525,1
0,105,target,"[(1090, 786)]",[],[1],[0.55],horizontal,"(890.0, 762.0)",1.1833333333333333,0.507,1,4564.477,1
0,106,target,"[(1106, 801)]",[],[1],[0.6166666666666667],vertical,"(890.0, 262.0)",0.5,0.571,1,4569.516,2
0,107,target,"[(1091, 776)]",[],[1],[0.26666666666666666],vertical,"(890.0, 762.0)",1.45,0.23,1,4574.723,2
0,108,target,"[(1107, 778)]",[],[1],[0.65],horizontal,"(890.0, 762.0)",0.7,0.604,1,4580.023,2
0,109,catch,"[(1109, 800)]",[],[1],[],vertical,"(890.0, 762.0)",,"('cti', 1.54),nan",0,4585.157,0
0,110,target,"[(1073, 761)]",[],[1],[0.65],horizontal,"(890.0, 262.0)",0.5,0.604,1,4590.085,1
0,111,target,"[(1086, 781)]",[],[1],[0.5666666666666667],vertical,"(390.0, 262.0)",0.9333333333333333,0.527,1,4594.373,1
0,112,target,"[(1120, 767)]",[],[1],[0.21666666666666667],horizontal,"(890.0, 762.0)",1.45,0.18,0,4599.441,0
0,113,target,"[(1090, 785)]",[],[1],[0.65],vertical,"(390.0, 262.0)",0.5833333333333334,0.612,1,4604.225,1
0,114,target,"[(1081, 796)]",[],[1],[0.18333333333333332],horizontal,"(890.0, 262.0)",1.6166666666666667,0.148,0,4608.658,0
0,115,target,"[(1075, 796)]",[],[1],[0.06666666666666667],horizontal,"(890.0, 762.0)",1.6333333333333333,0.036,0,4613.225,0
0,116,target,"[(1062, 801)]",[],[1],[0.85],horizontal,"(390.0, 762.0)",0.6,nan,0,4954.843,0
0,117,target,"[(1088, 779)]",[],[1],[0.5166666666666666],horizontal,"(390.0, 762.0)",1.3166666666666667,0.476,1,4959.759,1
0,118,target,"[(1078, 779)]",[],[1],[0.7833333333333333],horizontal,"(890.0, 262.0)",1.3666666666666667,0.736,1,4965.476,1
0,119,catch,"[(1065, 775)]",[],[1],[],vertical,"(890.0, 262.0)",1.6,nan,1,4971.376,1
0,120,target,"[(1089, 796)]",[],[1],[0.85],vertical,"(890.0, 762.0)",1.0833333333333333,nan,0,4976.059,0
0,121,target,"[(1060, 770)]",[],[1],[0.6333333333333333],vertical,"(390.0, 262.0)",1.35,0.594,1,4981.427,1
0,122,catch,"[(1078, 796)]",[],[1],[],vertical,"(390.0, 762.0)",1.6,nan,1,4990.509,1
0,123,target,"[(1079, 803)]",[],[1],[0.2],vertical,"(390.0, 262.0)",1.3333333333333333,0.17,0,4995.576,0
0,124,target,"[(1072, 792)]",[],[1],[0.6666666666666666],horizontal,"(390.0, 262.0)",0.6666666666666666,0.624,1,5000.926,1
0,125,target,"[(1101, 759)]",[],[1],[0.85],vertical,"(390.0, 762.0)",0.75,nan,0,5005.643,0
0,126,target,"[(1111, 794)]",[],[1],[0.2],horizontal,"(890.0, 262.0)",1.65,0.169,0,5010.749,0
0,127,target,"[(1082, 789)]",[],[1],[0.7],horizontal,"(390.0, 762.0)",0.6,0.651,1,5016.127,1
0,128,target,"[(1105, 766)]",[],[1],[0.5666666666666667],horizontal,"(890.0, 762.0)",1.15,0.528,1,5021.593,1
0,129,target,"[(1076, 815)]",[],[1],[0.55],vertical,"(390.0, 262.0)",0.75,0.515,1,5026.488,1
0,130,target,"[(1076, 762)]",[],[1],[0.5166666666666666],horizontal,"(390.0, 262.0)",1.2666666666666666,0.478,1,5031.109,2
0,131,catch,"[(1134, 790)]",[],[1],[],horizontal,"(890.0, 762.0)",1.6,nan,1,5036.925,2
0,132,target,"[(1132, 782)]",[],[1],[0.5333333333333333],horizontal,"(390.0, 762.0)",1.15,0.491,1,5042.397,2
0,133,target,"[(1086, 785)]",[],[1],[0.6666666666666666],horizontal,"(390.0, 262.0)",0.6833333333333333,0.627,1,5048.286,2
0,134,target,"[(1107, 791)]",[],[1],[0.4666666666666667],vertical,"(390.0, 262.0)",1.35,0.429,1,5053.252,2
0,135,target,"[(1103, 808)]",[],[1],[0.5],vertical,"(390.0, 262.0)",1.35,0.46,1,5058.711,3
0,136,catch,"[(1110, 769)]",[],[1],[],horizontal,"(890.0, 262.0)",1.6,nan,1,5064.87,3
0,137,target,"[(1108, 765)]",[],[1],[0.7166666666666667],vertical,"(890.0, 762.0)",0.5666666666666667,0.68,1,5070.498,3
0,138,target,"[(1102, 816)]",[],[1],[0.85],vertical,"(390.0, 762.0)",0.9333333333333333,nan,0,5076.61,0
0,139,target,"[(1094, 803)]",[],[1],[0.5833333333333334],horizontal,"(390.0, 762.0)",0.5833333333333334,0.54,1,5081.816,1
0,140,target,"[(1096, 772)]",[],[1],[0.2833333333333333],horizontal,"(390.0, 762.0)",1.3333333333333333,0.251,1,5086.244,1
0,141,target,"[(1076, 769)]",[],[1],[0.6166666666666667],horizontal,"(890.0, 762.0)",0.9166666666666666,0.576,1,5091.277,1
0,142,target,"[(1112, 791)]",[],[1],[0.7666666666666666],horizontal,"(390.0, 762.0)",0.6833333333333333,0.728,1,5096.411,2
0,143,target,"[(1115, 766)]",[],[1],[0.85],vertical,"(390.0, 262.0)",0.6166666666666667,nan,0,5101.444,0
0,144,target,"[(1073, 791)]",[],[1],[0.5],vertical,"(890.0, 762.0)",1.15,0.459,1,5106.043,1
0,145,target,"[(1091, 788)]",[],[1],[0.85],vertical,"(390.0, 762.0)",0.6,nan,0,5111.176,0
0,146,target,"[(1084, 764)]",[],[1],[0.55],vertical,"(390.0, 762.0)",1.4,0.507,1,5115.984,1
0,147,target,"[(1071, 786)]",[],[1],[0.05],vertical,"(890.0, 762.0)",1.2333333333333334,0.02,0,5121.43,0
0,148,target,"[(1085, 786)]",[],[1],[0.5333333333333333],vertical,"(890.0, 762.0)",1.55,0.494,1,5125.797,1
0,149,catch,"[(1076, 766)]",[],[1],[],horizontal,"(890.0, 762.0)",1.6,nan,1,5131.489,1
0,150,target,"[(1105, 783)]",[],[1],[0.6833333333333333],vertical,"(390.0, 762.0)",1.0833333333333333,0.639,1,5136.503,1
0,151,catch,"[(1107, 767)]",[],[1],[],horizontal,"(890.0, 262.0)",1.6,nan,1,5141.443,2
0,152,target,"[(1090, 785)]",[],[1],[0.6166666666666667],horizontal,"(390.0, 762.0)",0.55,0.576,1,5146.804,2
0,153,target,"[(1116, 767)]",[],[1],[0.5666666666666667],vertical,"(390.0, 262.0)",0.9166666666666666,0.52,1,5151.877,2
0,154,catch,"[(1100, 780)]",[],[1],[],vertical,"(890.0, 262.0)",1.6,nan,1,5157.311,2
0,155,target,"[(1100, 785)]",[],[1],[0.5333333333333333],horizontal,"(890.0, 762.0)",1.25,0.493,1,5162.793,2
0,156,catch,"[(1071, 786)]",[],[1],[],vertical,"(890.0, 262.0)",1.6,nan,1,5168.467,3
0,157,target,"[(1083, 769)]",[],[1],[0.55],horizontal,"(390.0, 262.0)",0.85,0.513,1,5174.11,3
0,158,target,"[(1100, 781)]",[],[1],[0.65],horizontal,"(890.0, 762.0)",0.5666666666666667,0.608,1,5179.895,3
0,159,target,"[(1096, 790)]",[],[1],[0.55],horizontal,"(890.0, 762.0)",1.6166666666666667,0.511,1,5185.568,3
0,160,target,"[(1130, 789)]",[],[1],[0.5333333333333333],vertical,"(390.0, 762.0)",1.4333333333333333,0.491,1,5191.696,3
0,161,target,"[(1096, 748), (1081, 792)]",[],"[0, 1]",[0.6],vertical,"(890.0, 762.0)",0.95,0.552,1,5197.461,3
0,162,catch,"[(1110, 769)]",[],[1],[],vertical,"(890.0, 262.0)",1.6,"('cti', 1.627),nan",0,5204.995,0
0,163,target,"[(1094, 788)]",[],[1],[0.55],horizontal,"(890.0, 762.0)",1.6,0.511,1,5210.054,1
0,164,target,"[(1113, 772)]",[],[1],[0.85],horizontal,"(390.0, 762.0)",0.6666666666666666,nan,0,5215.373,0
0,165,catch,"[(1063, 792)]",[],[1],[],horizontal,"(890.0, 762.0)",1.6,nan,1,5220.262,1
0,166,target,"[(1110, 785)]",[],[1],[0.85],vertical,"(390.0, 262.0)",1.05,nan,0,5225.195,0
0,167,target,"[(1069, 784)]",[],[1],[0.6],vertical,"(390.0, 762.0)",0.6333333333333333,0.557,1,5230.561,1
0,168,target,"[(1080, 765)]",[],[1],[0.5],vertical,"(390.0, 262.0)",1.1,0.461,1,5235.286,1
0,169,target,"[(1063, 789)]",[],[1],[0.75],horizontal,"(390.0, 262.0)",0.5333333333333333,0.709,1,5240.669,1
0,170,target,"[(1110, 738), (1073, 799)]",[],"[0, 1]",[0.7166666666666667],vertical,"(390.0, 762.0)",1.0,0.673,1,5245.262,2
0,171,target,"[(1105, 774)]",[],[1],[0.5],horizontal,"(890.0, 262.0)",0.6666666666666666,0.464,1,5252.267,2
0,172,catch,"[(1110, 772)]",[],[1],[],vertical,"(890.0, 762.0)",1.6,nan,1,5257.294,2
0,173,target,"[(1110, 788)]",[],[1],[0.6166666666666667],vertical,"(390.0, 262.0)",0.5666666666666667,0.575,1,5262.61,2
0,174,target,"[(1113, 776)]",[],[1],[0.7],horizontal,"(390.0, 762.0)",1.6,0.661,1,5268.025,2
0,175,target,"[(1082, 773)]",[],[1],[0.55],vertical,"(390.0, 262.0)",0.6666666666666666,0.51,1,5274.045,3
0,176,target,"[(1110, 768)]",[],[1],[0.7166666666666667],vertical,"(390.0, 762.0)",0.9333333333333333,0.684,1,5279.728,3
0,177,catch,"[(1105, 777)]",[],[1],[],vertical,"(890.0, 262.0)",1.6,nan,1,5285.619,3
0,178,target,"[(1072, 771)]",[],[1],[0.3333333333333333],vertical,"(390.0, 762.0)",1.6,0.297,1,5291.461,3
0,179,target,"[(1079, 784)]",[],[1],[0.6166666666666667],vertical,"(890.0, 262.0)",0.7,0.572,1,5297.628,3
0,180,target,"[(1086, 756)]",[],[1],[0.3],vertical,"(390.0, 762.0)",1.6833333333333333,0.265,1,5303.437,3
0,181,target,"[(1076, 768)]",[],[1],[0.26666666666666666],vertical,"(890.0, 762.0)",1.3833333333333333,0.235,1,5309.367,3
0,182,target,"[(1109, 786)]",[],[1],[0.65],vertical,"(890.0, 262.0)",0.9166666666666666,0.611,1,5315.258,3
0,183,catch,"[(1121, 765)]",[],[1],[],horizontal,"(890.0, 762.0)",1.6,nan,1,5320.852,3
0,184,target,"[(1103, 788)]",[],[1],[0.6],horizontal,"(390.0, 262.0)",0.7333333333333333,0.561,1,5326.975,3
0,185,target,"[(1074, 786)]",[],[1],[0.6333333333333333],horizontal,"(390.0, 262.0)",0.9333333333333333,0.594,1,5332.684,3
0,186,target,"[(1082, 767)]",[],[1],[0.6],vertical,"(890.0, 262.0)",0.9,0.565,1,5339.369,3
0,187,catch,"[(1076, 771)]",[],[1],[],vertical,"(390.0, 262.0)",1.6,nan,1,5344.729,3
0,188,target,"[(1081, 765)]",[],[1],[0.4],horizontal,"(890.0, 262.0)",1.5333333333333332,0.365,1,5350.963,3
0,189,target,"[(1072, 768)]",[],[1],[0.3333333333333333],horizontal,"(890.0, 762.0)",1.3666666666666667,0.301,1,5357.162,3
0,190,target,"[(1104, 786)]",[],[1],[0.4166666666666667],vertical,"(390.0, 262.0)",1.3666666666666667,0.378,1,5362.705,3
0,191,target,"[(1122, 783)]",[],[1],[],vertical,"(390.0, 262.0)",,"('cti', 1.155)",0,5368.59,0
0,192,target,"[(1107, 791)]",[],[1],[0.55],horizontal,"(390.0, 262.0)",0.55,0.504,1,5372.813,1
0,193,catch,"[(1072, 795)]",[],[1],[],horizontal,"(390.0, 262.0)",1.6,nan,1,5377.41,1
0,194,catch,"[(1099, 790)]",[],[1],[],horizontal,"(890.0, 262.0)",,"('cti', 1.538),nan",0,5395.395,0
0,195,target,"[(1076, 790)]",[],[1],[0.7666666666666666],vertical,"(390.0, 762.0)",0.65,0.724,1,5400.17,1
0,196,target,"[(1072, 781)]",[],[1],[0.5],horizontal,"(390.0, 262.0)",1.45,0.456,1,5404.856,1
0,197,target,"[(1086, 756)]",[],[1],[0.6],horizontal,"(390.0, 762.0)",0.7,0.555,1,5409.862,1
0,198,target,"[(1085, 757)]",[],[1],[0.6166666666666667],horizontal,"(390.0, 262.0)",0.5333333333333333,0.58,1,5414.395,2
0,199,target,"[(1062, 759)]",[],[1],[0.48333333333333334],vertical,"(890.0, 762.0)",1.6333333333333333,0.442,1,5419.179,2
0,200,catch,"[(1079, 746), (1086, 806)]",[],"[0, 1]",[],horizontal,"(390.0, 762.0)",,"('cti', 1.097),nan",0,5424.946,0
0,201,catch,"[(1065, 778)]",[],[1],[],horizontal,"(890.0, 262.0)",1.6,nan,1,5430.996,1
0,202,target,"[(1067, 766)]",[],[1],[0.6666666666666666],horizontal,"(890.0, 762.0)",0.6,0.622,1,5435.697,1
0,203,target,"[(1105, 747), (1087, 794)]",[],"[0, 1]",[0.5333333333333333],vertical,"(890.0, 762.0)",1.1666666666666667,0.499,1,5441.223,1
0,204,target,"[(1100, 794)]",[],[1],[0.55],vertical,"(390.0, 262.0)",0.8833333333333333,0.508,1,5447.594,2
0,205,target,"[(1072, 773)]",[],[1],[0.3333333333333333],vertical,"(390.0, 762.0)",0.7,0.298,1,5453.083,2
0,206,target,"[(1075, 752), (1075, 796)]",[],"[0, 1]",[0.35],vertical,"(390.0, 262.0)",1.45,0.314,1,5457.93,2
0,207,target,"[(1105, 764)]",[],[1],[0.3],vertical,"(890.0, 262.0)",1.4333333333333333,0.264,1,5465.588,2
0,208,target,"[(1082, 800)]",[],[1],[0.45],vertical,"(890.0, 762.0)",1.4666666666666666,0.416,1,5471.381,2
0,209,target,"[(1109, 753), (1076, 809)]",[],"[0, 1]",[0.5166666666666666],horizontal,"(890.0, 262.0)",1.3666666666666667,0.473,1,5477.429,3
0,210,target,"[(1103, 777)]",[],[1],[0.5333333333333333],vertical,"(890.0, 762.0)",1.3166666666666667,0.495,1,5484.213,3
0,211,target,"[(1081, 764)]",[],[1],[0.5666666666666667],horizontal,"(890.0, 262.0)",0.85,0.524,1,5490.263,3
0,212,catch,"[(1103, 785)]",[],[1],[],horizontal,"(890.0, 762.0)",1.6,nan,1,5495.507,3
0,213,target,"[(1107, 746), (1079, 815)]",[],"[0, 1]",[0.85],horizontal,"(890.0, 762.0)",0.55,nan,0,5501.195,0
0,214,target,"[(1066, 801)]",[],[1],[0.75],horizontal,"(390.0, 262.0)",0.6333333333333333,0.701,1,5506.337,1
0,215,target,"[(1079, 761)]",[],[1],[0.7166666666666667],vertical,"(890.0, 262.0)",0.5666666666666667,0.67,1,5511.43,1
0,216,target,"[(1094, 766)]",[],[1],[0.5333333333333333],vertical,"(390.0, 262.0)",0.8,0.489,1,5515.847,1
0,217,target,"[(1107, 783)]",[],[1],[0.06666666666666667],vertical,"(890.0, 262.0)",1.5166666666666666,0.038,0,5520.463,0
0,218,target,"[(1084, 760)]",[],[1],[0.5333333333333333],horizontal,"(890.0, 762.0)",1.0333333333333332,0.495,1,5525.847,1
0,219,target,"[(1078, 795)]",[],[1],[0.5666666666666667],horizontal,"(390.0, 762.0)",0.9333333333333333,0.527,1,5530.899,1
0,220,target,"[(1112, 776)]",[],[1],[0.5833333333333334],vertical,"(390.0, 762.0)",1.0333333333333332,0.543,1,5535.981,1
0,221,target,"[(1076, 776)]",[],[1],[0.6666666666666666],vertical,"(390.0, 762.0)",0.65,0.617,1,5541.396,2
0,222,catch,"[(1110, 796)]",[],[1],[],horizontal,"(390.0, 262.0)",1.6,nan,1,5546.446,2
0,223,target,"[(1086, 806)]",[],[1],[0.48333333333333334],vertical,"(890.0, 262.0)",1.1833333333333333,0.442,1,5655.496,2
0,224,target,"[(1091, 786)]",[],[1],[0.55],horizontal,"(890.0, 262.0)",0.65,0.513,1,5661.164,2
0,225,catch,"[(1106, 787)]",[],[1],[],vertical,"(890.0, 762.0)",1.6,nan,1,5666.496,2
0,226,target,"[(1108, 772)]",[],[1],[0.6166666666666667],horizontal,"(390.0, 262.0)",1.0,0.578,1,5672.131,3
0,227,target,"[(1107, 815)]",[],[1],[0.6],vertical,"(890.0, 762.0)",1.15,0.562,1,5678.159,3
0,228,target,"[(1109, 761)]",[],[1],[0.06666666666666667],vertical,"(890.0, 762.0)",1.6833333333333333,0.036,0,5684.447,0
0,229,target,"[(1086, 782)]",[],[1],[0.5833333333333334],vertical,"(890.0, 762.0)",1.0166666666666666,0.545,1,5689.48,1
0,230,target,"[(1106, 761)]",[],[1],[0.5833333333333334],horizontal,"(890.0, 762.0)",0.6666666666666666,0.546,1,5694.131,1
0,231,target,"[(1085, 772)]",[],[1],[0.6166666666666667],vertical,"(890.0, 762.0)",1.4666666666666666,0.579,1,5698.684,1
0,232,target,"[(1105, 771)]",[],[1],[0.7],vertical,"(890.0, 762.0)",0.7166666666666667,0.665,1,5703.948,2
0,233,catch,"[(1111, 786)]",[],[1],[],horizontal,"(390.0, 762.0)",1.6,nan,1,5708.82,2
0,234,target,"[(1093, 766)]",[],[1],[0.6333333333333333],horizontal,"(390.0, 262.0)",0.9666666666666667,0.602,1,5714.577,2
0,235,catch,"[(1077, 778)]",[],[1],[],vertical,"(390.0, 262.0)",1.6,nan,1,5720.398,2
0,236,catch,"[(1128, 772)]",[],[1],[],horizontal,"(890.0, 262.0)",1.6,nan,1,5726.465,2
0,237,target,"[(1099, 765)]",[],[1],[0.43333333333333335],horizontal,"(890.0, 262.0)",1.5333333333333332,0.397,1,5732.313,3
0,238,target,"[(1090, 767)]",[],[1],[0.6166666666666667],horizontal,"(890.0, 262.0)",1.4666666666666666,0.578,1,5738.764,3
0,239,target,"[(1086, 774)]",[],[1],[0.6166666666666667],vertical,"(890.0, 762.0)",0.65,0.581,1,5745.078,3
0,240,target,"[(1104, 771)]",[],[1],[0.7333333333333333],vertical,"(890.0, 762.0)",0.5666666666666667,0.688,1,5750.86,3
0,241,target,"[(1090, 761)]",[],[1],[0.5333333333333333],vertical,"(390.0, 262.0)",1.3,0.502,1,5756.307,3
0,242,target,"[(1100, 766)]",[],[1],[0.5166666666666666],horizontal,"(390.0, 262.0)",1.15,0.482,1,5762.332,3
0,243,target,"[(1108, 778)]",[],[1],[0.5],vertical,"(890.0, 262.0)",1.5833333333333333,0.458,1,5768.456,3
0,244,target,"[(1108, 801)]",[],[1],[0.4166666666666667],horizontal,"(890.0, 262.0)",1.4333333333333333,0.382,1,5774.505,3
0,245,target,"[(1100, 761)]",[],[1],[0.55],horizontal,"(390.0, 262.0)",1.3333333333333333,0.505,1,5780.999,3
0,246,target,"[(1108, 781)]",[],[1],[0.85],horizontal,"(390.0, 762.0)",0.7166666666666667,nan,0,5786.816,0
0,247,target,"[(1086, 794)]",[],[1],[0.85],horizontal,"(390.0, 262.0)",0.8166666666666667,nan,0,5791.315,0
0,248,catch,"[(1082, 796)]",[],[1],[],vertical,"(390.0, 262.0)",1.6,nan,1,5796.047,1
0,249,target,"[(1091, 778)]",[],[1],[0.5333333333333333],horizontal,"(890.0, 262.0)",1.5833333333333333,0.499,1,5801.858,1
0,250,target,"[(1075, 775)]",[],[1],[0.85],horizontal,"(890.0, 762.0)",0.9666666666666667,nan,0,5807.466,0
0,251,target,"[(1063, 777)]",[],[1],[0.55],vertical,"(390.0, 262.0)",0.9833333333333333,0.512,1,5812.267,1
0,252,target,"[(1085, 766)]",[],[1],[0.48333333333333334],horizontal,"(890.0, 262.0)",1.4166666666666667,0.44,1,5817.555,1
0,253,target,"[(1103, 767)]",[],[1],[0.5666666666666667],horizontal,"(390.0, 262.0)",0.6666666666666666,0.529,1,5822.916,1
0,254,target,"[(1075, 780)]",[],[1],[0.8333333333333334],horizontal,"(390.0, 762.0)",0.55,0.787,1,5827.902,2
0,255,target,"[(1105, 762)]",[],[1],[0.5166666666666666],vertical,"(890.0, 262.0)",0.8333333333333334,0.474,1,5833.132,2
0,256,target,"[(1105, 793)]",[],[1],[0.55],horizontal,"(890.0, 762.0)",1.1,0.509,1,5838.68,2
0,257,target,"[(1100, 756)]",[],[1],[0.85],vertical,"(390.0, 262.0)",0.7,nan,0,5843.958,0
0,258,catch,"[(1062, 781)]",[],[1],[],vertical,"(890.0, 762.0)",1.6,nan,1,5848.882,1
0,259,target,"[(1077, 756)]",[],[1],[0.65],vertical,"(890.0, 262.0)",1.5333333333333332,0.606,1,5854.816,1
0,260,target,"[(1108, 766)]",[],[1],[0.5666666666666667],horizontal,"(890.0, 262.0)",1.25,0.528,1,5860.348,1
0,261,target,"[(1110, 771)]",[],[1],[0.48333333333333334],vertical,"(890.0, 262.0)",1.25,0.45,1,5865.683,2
0,262,target,"[(1105, 749), (1104, 800)]",[],"[0, 1]",[0.7166666666666667],vertical,"(390.0, 762.0)",0.9166666666666666,0.669,1,5871.307,2
0,263,target,"[(1091, 787)]",[],[1],[0.31666666666666665],vertical,"(390.0, 762.0)",1.55,0.282,1,5878.044,2
0,264,target,"[(1089, 782)]",[],[1],[0.55],horizontal,"(390.0, 262.0)",1.2833333333333332,0.513,1,5883.565,2
0,265,target,"[(1091, 767)]",[],[1],[0.25],horizontal,"(890.0, 762.0)",1.55,0.215,1,5889.21,2
0,266,target,"[(1111, 784)]",[],[1],[0.65],vertical,"(390.0, 262.0)",1.2666666666666666,0.61,1,5894.817,3
0,267,target,"[(1082, 766)]",[],[1],[0.55],horizontal,"(390.0, 762.0)",1.1833333333333333,0.501,1,5900.982,3
0,268,target,"[(1086, 763)]",[],[1],[],horizontal,"(390.0, 262.0)",,"('cti', 1.39)",0,5907.083,0
0,269,target,"[(1023, 738), (1091, 785)]",[],"[0, 1]",[0.85],vertical,"(890.0, 262.0)",1.1,nan,0,5912.049,0
0,270,target,"[(1100, 804)]",[],[1],[0.48333333333333334],horizontal,"(890.0, 262.0)",1.6833333333333333,0.444,1,5918.842,1
0,271,target,"[(1105, 824)]",[],[1],[0.6],vertical,"(390.0, 262.0)",0.7166666666666667,0.561,1,7637.171,1
0,272,target,"[(1105, 785)]",[],[1],[0.6],horizontal,"(890.0, 262.0)",1.3833333333333333,0.556,1,7642.37,1
0,273,target,"[(1087, 773)]",[],[1],[0.6],vertical,"(890.0, 262.0)",1.1166666666666667,0.558,1,7648.177,2
0,274,target,"[(1106, 769)]",[],[1],[0.85],horizontal,"(890.0, 262.0)",0.5833333333333334,nan,0,7654.277,0
0,275,catch,"[(1081, 782)]",[],[1],[],vertical,"(390.0, 762.0)",1.6,nan,1,7658.584,1
0,276,catch,"[(1080, 769)]",[],[1],[],horizontal,"(390.0, 262.0)",1.6,nan,1,7663.711,1
0,277,catch,"[(1078, 792)]",[],[1],[],vertical,"(390.0, 262.0)",1.6,nan,1,7668.66,1
0,278,catch,"[(1067, 789)]",[],[1],[],horizontal,"(390.0, 262.0)",1.6,nan,1,7673.729,2
0,279,target,"[(1123, 820)]",[],[1],[0.65],vertical,"(390.0, 262.0)",0.7,0.606,1,7679.491,2
0,280,target,"[(1120, 792)]",[],[1],[],vertical,"(890.0, 262.0)",,"('cti', 1.184)",0,7685.229,0
0,281,target,"[(1110, 797)]",[],[1],[0.5333333333333333],horizontal,"(390.0, 262.0)",1.1,0.488,1,7689.415,1
0,282,target,"[(1105, 787)]",[],[1],[0.6166666666666667],horizontal,"(390.0, 762.0)",1.4,0.571,1,7694.377,1
0,283,target,"[(1121, 806)]",[],[1],[0.5833333333333334],vertical,"(890.0, 762.0)",0.95,0.544,1,7699.776,1
0,284,target,"[(1115, 789)]",[],[1],[0.6],vertical,"(890.0, 262.0)",0.6333333333333333,0.559,1,7704.951,2
0,285,target,"[(1114, 788)]",[],[1],[0.5333333333333333],horizontal,"(890.0, 262.0)",0.65,0.49,1,7710.378,2
0,286,target,"[(1125, 782)]",[],[1],[0.55],horizontal,"(890.0, 262.0)",0.7666666666666666,0.506,1,7715.179,2
0,287,target,"[(1079, 785)]",[],[1],[],vertical,"(890.0, 762.0)",,"('cti', 1.619)",0,7719.945,0
0,288,catch,"[(1113, 799)]",[],[1],[],vertical,"(390.0, 262.0)",1.6,nan,1,7725.344,1
0,289,catch,"[(1109, 792)]",[],[1],[],vertical,"(890.0, 762.0)",,"('cti', 1.439),nan",0,7729.99,0
0,290,target,"[(1098, 790)]",[],[1],[0.4666666666666667],vertical,"(390.0, 762.0)",1.55,0.43,1,7734.929,1
0,291,target,"[(1108, 800)]",[],[1],[0.85],horizontal,"(890.0, 762.0)",0.55,nan,0,7740.361,0
0,292,target,"[(1082, 781)]",[],[1],[0.5833333333333334],vertical,"(890.0, 762.0)",0.8833333333333333,0.543,1,7745.131,1
0,293,target,"[(1096, 765)]",[],[1],[0.6166666666666667],vertical,"(390.0, 262.0)",1.0,0.572,1,7749.962,1
0,294,target,"[(1118, 810)]",[],[1],[0.85],horizontal,"(890.0, 762.0)",0.55,nan,0,7754.99,0
0,295,target,"[(1081, 778)]",[],[1],[0.45],vertical,"(390.0, 762.0)",1.4,0.413,1,7759.779,1
0,296,target,"[(1107, 764)]",[],[1],[0.4166666666666667],horizontal,"(390.0, 762.0)",1.4833333333333334,0.376,1,7765.273,1
0,297,target,"[(1120, 790)]",[],[1],[0.4],horizontal,"(890.0, 762.0)",1.2666666666666666,0.364,1,7770.729,1
0,298,target,"[(1108, 795)]",[],[1],[0.55],vertical,"(890.0, 262.0)",1.35,0.51,1,7775.863,2
0,299,target,"[(1106, 781)]",[],[1],[0.65],vertical,"(390.0, 262.0)",0.8,0.609,1,7781.126,2
0,300,target,"[(1105, 793)]",[],[1],[0.5],vertical,"(390.0, 762.0)",1.25,0.466,1,7786.462,2
0,301,target,"[(1110, 798)]",[],[1],[0.5833333333333334],horizontal,"(890.0, 262.0)",1.2333333333333334,0.548,1,7792.545,2
0,302,catch,"[(1105, 776)]",[],[1],[],vertical,"(890.0, 262.0)",1.6,nan,1,7798.14,2
0,303,catch,"[(1100, 790)]",[],[1],[],horizontal,"(390.0, 762.0)",1.6,nan,1,7804.029,3
0,304,target,"[(1100, 782)]",[],[1],[0.5166666666666666],vertical,"(890.0, 262.0)",1.5666666666666667,0.474,1,7809.529,3
0,305,target,"[(1100, 792)]",[],[1],[0.5833333333333334],vertical,"(390.0, 262.0)",1.2666666666666666,0.544,1,7816.063,3
0,306,target,"[(1105, 770)]",[],[1],[0.48333333333333334],vertical,"(890.0, 762.0)",1.5166666666666666,0.45,1,7823.11,3
0,307,target,"[(1108, 773)]",[],[1],[0.85],vertical,"(390.0, 762.0)",0.7333333333333333,nan,0,7829.554,0
0,308,target,"[(1084, 806)]",[],[1],[0.7166666666666667],vertical,"(890.0, 262.0)",0.6,0.678,1,7834.18,1
0,309,target,"[(1088, 793)]",[],[1],[0.6333333333333333],vertical,"(390.0, 762.0)",0.8833333333333333,0.597,1,7838.612,1
0,310,target,"[(1101, 785)]",[],[1],[0.5666666666666667],vertical,"(890.0, 262.0)",0.8,0.525,1,7844.216,1
0,311,target,"[(1108, 781)]",[],[1],[0.4666666666666667],horizontal,"(890.0, 262.0)",1.2833333333333332,0.434,1,7848.908,2
0,312,target,"[(1108, 770)]",[],[1],[0.6],vertical,"(390.0, 762.0)",1.0833333333333333,0.553,1,7854.845,2
0,313,target,"[(1129, 773)]",[],[1],[0.85],horizontal,"(390.0, 262.0)",0.7333333333333333,nan,0,7860.463,0
0,314,catch,"[(1105, 796)]",[],[1],[],horizontal,"(390.0, 262.0)",1.6,nan,1,7865.302,1
0,315,target,"[(1105, 781)]",[],[1],[0.85],vertical,"(890.0, 762.0)",0.7,nan,0,7870.28,0
0,316,target,"[(1096, 786)]",[],[1],[0.85],horizontal,"(890.0, 262.0)",1.5666666666666667,nan,0,7875.18,0
0,317,target,"[(1104, 775)]",[],[1],[0.6166666666666667],vertical,"(890.0, 762.0)",1.5333333333333332,0.575,1,7880.38,1
0,318,catch,"[(1111, 773)]",[],[1],[],vertical,"(390.0, 262.0)",1.6,nan,1,7885.803,1
0,319,target,"[(1105, 789)]",[],[1],[0.5833333333333334],horizontal,"(390.0, 262.0)",0.55,0.542,1,7890.939,1
0,320,target,"[(1109, 770)]",[],[1],[0.5333333333333333],vertical,"(890.0, 262.0)",0.8166666666666667,0.493,1,7895.908,2
0,321,target,"[(1105, 788)]",[],[1],[0.75],horizontal,"(890.0, 762.0)",1.2666666666666666,0.707,1,7901.229,2
0,322,target,"[(1110, 768)]",[],[1],[],vertical,"(890.0, 762.0)",,"('cti', 1.196)",0,7906.913,0
0,323,target,"[(1082, 802)]",[],[1],[0.6666666666666666],vertical,"(390.0, 762.0)",0.9,0.625,1,7911.446,1
0,324,target,"[(1097, 791)]",[],[1],[0.15],vertical,"(390.0, 762.0)",1.6666666666666667,0.12,0,7915.93,0
0,325,target,"[(1105, 779)]",[],[1],[0.5],vertical,"(390.0, 262.0)",1.2333333333333334,0.462,1,7921.111,1
0,326,target,"[(1104, 774)]",[],[1],[0.5166666666666666],horizontal,"(890.0, 262.0)",0.7166666666666667,0.475,1,7926.52,1
0,327,target,"[(1080, 772)]",[],[1],[0.7166666666666667],vertical,"(390.0, 762.0)",0.6,0.678,1,7931.546,1
0,328,target,"[(1121, 776)]",[],[1],[0.5666666666666667],horizontal,"(390.0, 262.0)",0.55,0.527,1,7936.295,2
0,329,target,"[(1123, 767)]",[],[1],[0.6666666666666666],horizontal,"(390.0, 762.0)",0.9166666666666666,0.627,1,7941.179,2
0,330,target,"[(1143, 791)]",[],[1],[0.7],horizontal,"(890.0, 762.0)",0.95,0.652,1,7946.726,2
0,331,target,"[(1124, 773)]",[],[1],[0.6666666666666666],horizontal,"(390.0, 762.0)",0.5333333333333333,0.624,1,7952.289,2
0,332,target,"[(1117, 778)]",[],[1],[0.55],horizontal,"(890.0, 762.0)",0.9166666666666666,0.511,1,7957.296,2
0,333,target,"[(1116, 780)]",[],[1],[0.75],horizontal,"(890.0, 762.0)",0.6666666666666666,0.699,1,7962.897,3
0,334,target,"[(1115, 786)]",[],[1],[0.6833333333333333],horizontal,"(390.0, 762.0)",0.6,0.637,1,7968.808,3
0,335,target,"[(1112, 789)]",[],[1],[0.5],vertical,"(890.0, 262.0)",1.6,0.46,1,7974.563,3
0,336,catch,"[(1113, 795)]",[],[1],[],horizontal,"(890.0, 262.0)",1.6,nan,1,7981.179,3
0,337,catch,"[(1100, 791)]",[],[1],[],horizontal,"(890.0, 262.0)",1.6,nan,1,7987.329,3
0,338,catch,"[(1105, 782)]",[],[1],[],horizontal,"(890.0, 262.0)",1.6,nan,1,7993.212,3
0,339,target,"[(1063, 770)]",[],[1],[0.5666666666666667],vertical,"(390.0, 262.0)",0.7166666666666667,0.527,1,7998.829,3
0,340,target,"[(1100, 783)]",[],[1],[0.5333333333333333],vertical,"(890.0, 262.0)",1.0833333333333333,0.498,1,8004.446,3
0,341,target,"[(1067, 770)]",[],[1],[0.85],horizontal,"(890.0, 762.0)",1.0666666666666667,nan,0,8010.013,0
0,342,target,"[(1076, 794)]",[],[1],[0.65],vertical,"(390.0, 262.0)",0.5833333333333334,0.606,1,8014.979,1
0,343,target,"[(1102, 791)]",[],[1],[0.6833333333333333],horizontal,"(890.0, 762.0)",1.3833333333333333,0.639,1,8019.896,1
0,344,target,"[(1125, 774)]",[],[1],[0.6333333333333333],vertical,"(390.0, 762.0)",0.8833333333333333,0.587,1,8025.325,1
0,345,target,"[(1100, 798)]",[],[1],[0.85],horizontal,"(390.0, 762.0)",0.6333333333333333,nan,0,8030.596,0
0,346,target,"[(1100, 790)]",[],[1],[0.5666666666666667],vertical,"(390.0, 262.0)",0.5333333333333333,0.53,1,8035.129,1
0,347,target,"[(1108, 773)]",[],[1],[0.55],vertical,"(390.0, 762.0)",1.55,0.512,1,8039.913,1
0,348,target,"[(1107, 756)]",[],[1],[0.5666666666666667],horizontal,"(390.0, 762.0)",0.5333333333333333,0.527,1,8045.263,1
0,349,target,"[(1107, 797)]",[],[1],[0.48333333333333334],horizontal,"(890.0, 262.0)",1.3333333333333333,0.442,1,8049.997,2
0,350,catch,"[(1124, 799)]",[],[1],[],horizontal,"(390.0, 262.0)",1.6,nan,1,8055.764,2
0,351,target,"[(1125, 787)]",[],[1],[0.5166666666666666],horizontal,"(890.0, 262.0)",1.1333333333333333,0.478,1,8061.314,2
0,352,target,"[(1127, 786)]",[],[1],[0.5666666666666667],vertical,"(890.0, 262.0)",0.7666666666666666,0.527,1,8067.114,2
0,353,target,"[(1128, 791)]",[],[1],[0.5166666666666666],vertical,"(390.0, 262.0)",1.35,0.477,1,8071.934,2
0,354,target,"[(1105, 779)]",[],[1],[0.85],horizontal,"(390.0, 762.0)",1.0,nan,0,8077.581,0
0,355,target,"[(1101, 791)]",[],[1],[0.85],vertical,"(390.0, 762.0)",0.8333333333333334,nan,0,8082.481,0
0,356,target,"[(1086, 785)]",[],[1],[0.5],horizontal,"(390.0, 262.0)",1.5166666666666666,0.46,1,8087.081,1
0,357,target,"[(1096, 789)]",[],[1],[0.5],vertical,"(390.0, 762.0)",1.4166666666666667,0.459,1,8092.714,1
0,358,target,"[(1110, 787)]",[],[1],[0.3333333333333333],horizontal,"(890.0, 762.0)",1.65,0.297,1,8097.764,1
0,359,target,"[(1107, 795)]",[],[1],[0.85],horizontal,"(390.0, 262.0)",0.75,nan,0,8102.88,0
0,360,target,"[(1084, 792)]",[],[1],[0.36666666666666664],vertical,"(890.0, 762.0)",1.5333333333333332,0.331,1,8107.307,1
0,361,target,"[(1087, 761)]",[],[1],[0.6833333333333333],vertical,"(890.0, 762.0)",0.9,0.639,1,8112.647,1
0,362,target,"[(1100, 786)]",[],[1],[0.6333333333333333],vertical,"(890.0, 262.0)",0.65,0.586,1,8118.014,1
0,363,target,"[(1105, 789)]",[],[1],[0.6166666666666667],horizontal,"(890.0, 262.0)",0.7666666666666666,0.583,1,8123.08,2
0,364,target,"[(1110, 795)]",[],[1],[0.7666666666666666],horizontal,"(390.0, 762.0)",0.7833333333333333,0.723,1,8128.195,2
0,365,target,"[(1109, 772)]",[],[1],[0.6],horizontal,"(890.0, 262.0)",0.7166666666666667,0.559,1,8133.365,2
0,366,target,"[(1108, 773)]",[],[1],[0.3833333333333333],vertical,"(890.0, 762.0)",1.6166666666666667,0.348,1,8138.43,2
0,367,target,"[(1076, 794)]",[],[1],[0.6666666666666666],vertical,"(390.0, 262.0)",0.6333333333333333,0.627,1,8143.965,2
0,368,target,"[(1105, 777)]",[],[1],[0.85],vertical,"(390.0, 762.0)",1.1,nan,0,8148.98,0
0,369,target,"[(1074, 782)]",[],[1],[0.6666666666666666],horizontal,"(390.0, 262.0)",1.3333333333333333,0.622,1,8153.782,1
0,370,target,"[(1056, 764)]",[],[1],[0.7333333333333333],horizontal,"(390.0, 262.0)",0.9666666666666667,0.692,1,8158.661,1
0,371,target,"[(1110, 779)]",[],[1],[0.55],vertical,"(890.0, 262.0)",0.7833333333333333,0.506,1,8163.98,1
0,372,target,"[(1057, 786)]",[],[1],[0.65],vertical,"(890.0, 762.0)",0.85,0.607,1,8169.078,2
0,373,target,"[(1106, 786)]",[],[1],[0.2833333333333333],horizontal,"(390.0, 762.0)",1.5,0.247,1,8174.547,2
0,374,target,"[(1101, 785)]",[],[1],[0.6833333333333333],vertical,"(390.0, 262.0)",0.5166666666666666,0.636,1,8179.931,2
0,375,catch,"[(1075, 831)]",[],[1],[],vertical,"(890.0, 762.0)",1.6,nan,1,8184.931,2
0,376,catch,"[(1075, 801)]",[],[1],[],horizontal,"(390.0, 762.0)",1.6,nan,1,9813.029,2
0,377,target,"[(1059, 790)]",[],[1],[0.65],horizontal,"(390.0, 262.0)",0.8666666666666667,0.606,1,9818.808,3
0,378,catch,"[(1078, 786)]",[],[1],[],horizontal,"(390.0, 262.0)",1.6,nan,1,9824.592,3
0,379,target,"[(1075, 792)]",[],[1],[0.85],vertical,"(390.0, 762.0)",0.7666666666666666,nan,0,9830.157,0
0,380,target,"[(1072, 826)]",[],[1],[0.6333333333333333],horizontal,"(890.0, 762.0)",0.5833333333333334,0.592,1,9835.025,1
0,381,target,"[(1103, 782)]",[],[1],[0.5],horizontal,"(390.0, 262.0)",1.2333333333333334,0.455,1,9839.409,1
0,382,target,"[(1017, 771)]",[],[1],[0.5333333333333333],vertical,"(890.0, 262.0)",0.6666666666666666,0.495,1,9844.376,1
0,383,catch,"[(1085, 787)]",[],[1],[],vertical,"(390.0, 762.0)",1.6,nan,1,9850.475,2
0,384,catch,"[(1105, 781)]",[],[1],[],vertical,"(390.0, 262.0)",1.6,nan,1,9855.543,2
0,385,target,"[(1105, 787)]",[],[1],[0.7166666666666667],vertical,"(390.0, 262.0)",0.8,0.672,1,9860.777,2
0,386,catch,"[(1110, 780)]",[],[1],[],horizontal,"(390.0, 762.0)",,"('cti', 1.554),nan",0,9866.648,0
0,387,catch,"[(1052, 812)]",[],[1],[],horizontal,"(890.0, 262.0)",1.6,nan,1,9871.643,1
0,388,target,"[(1118, 755)]",[],[1],[0.5666666666666667],horizontal,"(390.0, 262.0)",1.1166666666666667,0.536,1,9877.175,1
0,389,catch,"[(1109, 767)]",[],[1],[],horizontal,"(390.0, 262.0)",,"('cti', 1.449),nan",0,9882.477,0
0,390,catch,"[(1073, 805)]",[],[1],[],horizontal,"(390.0, 262.0)",1.6,nan,1,9887.335,1
0,391,target,"[(1071, 805)]",[],[1],[0.48333333333333334],horizontal,"(890.0, 762.0)",1.0333333333333332,0.442,1,9895.143,1
0,392,target,"[(1075, 776)]",[],[1],[0.48333333333333334],vertical,"(890.0, 262.0)",0.7666666666666666,0.444,1,9900.002,1
0,393,target,"[(1082, 803)]",[],[1],[0.7333333333333333],horizontal,"(390.0, 262.0)",0.65,0.687,1,9904.326,2
0,394,catch,"[(1120, 785)]",[],[1],[],horizontal,"(890.0, 762.0)",1.6,nan,1,9909.844,2
0,395,target,"[(1126, 786)]",[],[1],[0.45],vertical,"(390.0, 262.0)",1.1333333333333333,0.41,1,9915.094,2
0,396,catch,"[(1125, 791)]",[],[1],[],horizontal,"(890.0, 262.0)",1.6,nan,1,9920.666,2
0,397,target,"[(1105, 776)]",[],[1],[0.55],horizontal,"(890.0, 262.0)",0.6666666666666666,0.512,1,9926.27,2
0,398,catch,"[(1102, 786)]",[],[1],[],horizontal,"(390.0, 262.0)",1.6,nan,1,9930.784,3
0,399,target,"[(1109, 772)]",[],[1],[0.31666666666666665],vertical,"(390.0, 262.0)",1.45,0.282,1,9936.349,3
0,400,target,"[(1115, 777)]",[],[1],[0.5833333333333334],vertical,"(890.0, 262.0)",1.2833333333333332,0.548,1,9942.488,3
0,401,target,"[(1110, 786)]",[],[1],[0.5666666666666667],vertical,"(390.0, 262.0)",1.5,0.528,1,9948.008,3
0,402,target,"[(1128, 784)]",[],[1],[0.65],horizontal,"(390.0, 762.0)",0.8833333333333333,0.618,1,9953.777,3
0,403,catch,"[(1120, 779)]",[],[1],[],horizontal,"(890.0, 262.0)",1.6,nan,1,9959.638,3
0,404,target,"[(1106, 786)]",[],[1],[0.55],vertical,"(390.0, 262.0)",1.1833333333333333,0.507,1,9965.426,3
0,405,target,"[(1081, 761)]",[],[1],[0.5333333333333333],horizontal,"(890.0, 762.0)",0.85,0.492,1,9971.199,3
0,406,target,"[(1125, 764)]",[],[1],[0.35],horizontal,"(390.0, 762.0)",1.25,0.316,1,9977.01,3
0,407,target,"[(1123, 778)]",[],[1],[0.6166666666666667],horizontal,"(890.0, 262.0)",0.6666666666666666,0.577,1,9982.777,3
0,408,target,"[(1060, 790)]",[],[1],[0.55],vertical,"(390.0, 262.0)",1.1833333333333333,0.508,1,9988.127,3
0,409,target,"[(1105, 778)]",[],[1],[0.48333333333333334],vertical,"(890.0, 262.0)",0.9,0.443,1,9994.227,3
0,410,target,"[(1111, 768)]",[],[1],[0.4],horizontal,"(890.0, 762.0)",1.4666666666666666,0.357,1,10000.542,3
0,411,target,"[(1094, 764)]",[],[1],[0.5166666666666666],horizontal,"(890.0, 762.0)",1.0166666666666666,0.474,1,10006.277,3
0,412,target,"[(1106, 796)]",[],[1],[0.4],horizontal,"(890.0, 262.0)",1.2,0.362,1,10012.06,3
0,413,target,"[(1081, 800)]",[],[1],[0.55],vertical,"(390.0, 262.0)",0.7166666666666667,0.508,1,10018.11,3
0,414,target,"[(1108, 788)]",[],[1],[0.5666666666666667],vertical,"(890.0, 262.0)",0.7166666666666667,0.523,1,10023.273,3
0,415,catch,"[(1097, 784)]",[],[1],[],vertical,"(390.0, 762.0)",1.6,nan,1,10028.705,3
0,416,catch,"[(1087, 775)]",[],[1],[],horizontal,"(390.0, 762.0)",,"('cti', 0.489),nan",0,10034.877,0
0,417,target,"[(1084, 792)]",[],[1],[0.48333333333333334],vertical,"(890.0, 262.0)",1.4166666666666667,0.443,1,10038.545,1
0,418,target,"[(1079, 748), (1076, 794)]",[],"[0, 1]",[0.4666666666666667],vertical,"(890.0, 262.0)",1.45,0.426,1,10043.744,1
0,419,target,"[(1109, 783)]",[],[1],[0.6833333333333333],horizontal,"(890.0, 262.0)",0.5166666666666666,0.641,1,10050.643,1
0,420,target,"[(1109, 764)]",[],[1],[0.5],horizontal,"(890.0, 262.0)",0.9166666666666666,0.465,1,10054.998,2
0,421,target,"[(1120, 779)]",[],[1],[0.1],vertical,"(390.0, 762.0)",1.4166666666666667,0.067,0,10060.189,0
0,422,target,"[(1103, 786)]",[],[1],[0.6333333333333333],horizontal,"(390.0, 762.0)",0.6166666666666667,0.598,1,10065.052,1
0,423,target,"[(1123, 769)]",[],[1],[0.18333333333333332],horizontal,"(390.0, 262.0)",1.5,0.153,0,10069.362,0
0,424,target,"[(1043, 801)]",[],[1],[0.65],vertical,"(890.0, 762.0)",0.6166666666666667,0.608,1,10074.36,1
0,425,target,"[(1115, 795)]",[],[1],[0.5166666666666666],vertical,"(390.0, 262.0)",1.1666666666666667,0.482,1,10082.911,1
0,426,target,"[(1118, 781)]",[],[1],[0.06666666666666667],horizontal,"(390.0, 262.0)",1.55,0.035,0,10087.646,0
0,427,target,"[(1104, 789)]",[],[1],[0.5333333333333333],horizontal,"(390.0, 762.0)",0.7833333333333333,0.5,1,10092.495,1
0,428,target,"[(1103, 771)]",[],[1],[0.2],vertical,"(890.0, 262.0)",1.6,0.168,0,10097.286,0
0,429,target,"[(1109, 776)]",[],[1],[0.3333333333333333],horizontal,"(390.0, 762.0)",1.2166666666666666,0.298,1,10102.273,1
0,430,target,"[(1077, 764)]",[],[1],[0.6833333333333333],horizontal,"(890.0, 262.0)",1.1166666666666667,0.651,1,10107.261,1
0,431,target,"[(1105, 773)]",[],[1],[0.6],vertical,"(890.0, 762.0)",1.0,0.556,1,10112.21,1
0,432,target,"[(1112, 795)]",[],[1],[0.5333333333333333],vertical,"(390.0, 762.0)",1.0,0.494,1,10117.34,2
0,433,catch,"[(1112, 776)]",[],[1],[],horizontal,"(890.0, 262.0)",1.6,nan,1,10122.518,2
0,434,target,"[(1106, 782)]",[],[1],[0.5833333333333334],vertical,"(890.0, 762.0)",1.1,0.541,1,10128.261,2
0,435,target,"[(1105, 784)]",[],[1],[0.55],vertical,"(890.0, 262.0)",1.2333333333333334,0.514,1,10133.738,2
0,436,target,"[(1100, 778)]",[],[1],[0.5833333333333334],vertical,"(390.0, 262.0)",0.9166666666666666,0.544,1,10139.367,2
0,437,target,"[(1108, 777)]",[],[1],[0.48333333333333334],vertical,"(390.0, 262.0)",1.3,0.453,1,10144.944,3
0,438,target,"[(1110, 772)]",[],[1],[0.7],vertical,"(890.0, 262.0)",1.05,0.655,1,10151.078,3
0,439,target,"[(1111, 774)]",[],[1],[0.55],vertical,"(890.0, 262.0)",0.9666666666666667,0.507,1,10157.112,3
0,440,target,"[(1117, 789)]",[],[1],[0.6],horizontal,"(890.0, 762.0)",0.7333333333333333,0.556,1,10162.678,3
0,441,target,"[(1120, 774)]",[],[1],[0.5166666666666666],vertical,"(890.0, 262.0)",0.6833333333333333,0.477,1,10168.028,3
0,442,target,"[(1087, 774)]",[],[1],[0.5166666666666666],vertical,"(890.0, 262.0)",1.0666666666666667,0.474,1,10173.311,3
0,443,target,"[(1075, 779)]",[],[1],[0.48333333333333334],vertical,"(890.0, 762.0)",1.2333333333333334,0.442,1,10179.177,3
0,444,target,"[(1118, 792)]",[],[1],[0.5],vertical,"(890.0, 262.0)",0.65,0.474,1,10185.091,3
0,445,target,"[(1123, 773)]",[],[1],[0.85],vertical,"(390.0, 762.0)",0.7166666666666667,nan,0,10190.078,0
0,446,target,"[(1096, 795)]",[],[1],[0.4666666666666667],vertical,"(390.0, 762.0)",1.0166666666666666,0.427,1,10194.795,1
0,447,target,"[(1084, 782)]",[],[1],[0.65],horizontal,"(890.0, 262.0)",0.5,0.604,1,10199.389,1
0,448,catch,"[(1092, 766)]",[],[1],[],horizontal,"(890.0, 262.0)",1.6,nan,1,10203.895,1
0,449,target,"[(1074, 762)]",[],[1],[0.6333333333333333],vertical,"(890.0, 262.0)",1.0,0.592,1,10209.111,2
0,450,target,"[(1124, 769)]",[],[1],[0.43333333333333335],vertical,"(890.0, 262.0)",1.1666666666666667,0.394,1,10214.961,2
0,451,target,"[(1101, 833)]","[(1097, 860)]",[1],[0.26666666666666666],vertical,"(890.0, 262.0)",,"('bar', 0.276)",0,10220.118,0
0,452,catch,"[(1071, 826)]",[],[1],[],vertical,"(890.0, 762.0)",1.6,nan,1,10667.96,1
0,453,target,"[(1111, 801)]",[],[1],[],vertical,"(890.0, 262.0)",,"('cti', 1.309)",0,10714.505,0
0,454,target,"[(1067, 791)]",[],[1],[0.5833333333333334],horizontal,"(890.0, 762.0)",0.7166666666666667,0.544,1,10719.381,1
0,455,target,"[(1118, 792)]",[],[1],[0.85],vertical,"(390.0, 762.0)",1.6833333333333333,nan,0,10726.195,0
0,456,target,"[(1077, 786)]",[],[1],[0.11666666666666667],horizontal,"(390.0, 262.0)",1.6166666666666667,0.085,0,10731.33,0
0,457,catch,"[(1123, 791)]",[],[1],[],horizontal,"(890.0, 262.0)",1.6,nan,1,10741.594,1
0,458,target,"[(1123, 803)]",[],[1],[0.55],vertical,"(890.0, 262.0)",0.6833333333333333,0.507,1,10746.375,1
0,459,target,"[(1110, 774)]",[],[1],[0.5],vertical,"(390.0, 762.0)",1.3666666666666667,0.457,1,10751.115,1
0,460,target,"[(1114, 787)]",[],[1],"[0.85, 0.85]",vertical,"(390.0, 262.0)",1.15,"0.803,nan",0,10756.316,0
0,461,target,"[(1077, 837)]",[],[1],[0.35],horizontal,"(890.0, 262.0)",1.2,0.308,1,10761.287,1
0,462,catch,"[(1107, 778)]",[],[1],[],horizontal,"(390.0, 762.0)",1.6,nan,1,10767.057,1
0,463,target,"[(1083, 767)]",[],[1],[0.11666666666666667],horizontal,"(390.0, 762.0)",1.6,0.085,0,10771.731,0
0,464,catch,"[(1130, 785)]",[],[1],[],vertical,"(390.0, 762.0)",1.6,nan,1,10776.346,1
0,465,target,"[(1131, 762)]",[],[1],[0.16666666666666666],vertical,"(890.0, 762.0)",1.4166666666666667,0.135,0,10781.263,0
0,466,target,"[(1103, 781)]",[],[1],[],horizontal,"(390.0, 762.0)",,"('cti', 1.635)",0,10785.939,0
0,467,target,"[(1086, 782)]",[],[1],[0.5833333333333334],vertical,"(890.0, 262.0)",0.55,0.54,1,10790.383,1
0,468,target,"[(1106, 769)]",[],[1],[0.5833333333333334],vertical,"(890.0, 262.0)",0.5333333333333333,0.548,1,10794.931,1
0,469,target,"[(1117, 789)]",[],[1],[0.4666666666666667],horizontal,"(390.0, 262.0)",1.2,0.426,1,10799.566,1
0,470,target,"[(1123, 765)]",[],[1],[0.5666666666666667],vertical,"(390.0, 262.0)",0.5666666666666667,0.525,1,10804.731,2
0,471,target,"[(1100, 781)]",[],[1],[0.55],vertical,"(390.0, 762.0)",0.95,0.512,1,10809.947,2
0,472,target,"[(1125, 776)]",[],[1],[],horizontal,"(390.0, 262.0)",,"('cti', 1.314)",0,10815.435,0
0,473,target,"[(1122, 792)]",[],[1],[0.85],horizontal,"(890.0, 762.0)",1.3166666666666667,nan,0,10820.257,0
0,474,catch,"[(1106, 779)]",[],[1],[],horizontal,"(390.0, 262.0)",1.6,nan,1,10825.082,1
0,475,target,"[(1105, 766)]",[],[1],[0.6],vertical,"(890.0, 762.0)",0.5166666666666666,0.558,1,10829.965,1
0,476,target,"[(1122, 796)]",[],[1],[0.4166666666666667],vertical,"(890.0, 262.0)",1.4833333333333334,0.377,1,10834.566,1
0,477,catch,"[(1107, 765)]",[],[1],[],horizontal,"(390.0, 262.0)",1.6,nan,1,10839.473,2
0,478,target,"[(1125, 773)]",[],[1],[0.55],vertical,"(890.0, 262.0)",0.55,0.522,1,10844.561,2
0,479,target,"[(1120, 777)]",[],[1],[0.85],horizontal,"(890.0, 262.0)",0.5,nan,0,10849.171,0
0,480,catch,"[(1083, 781)]",[],[1],[],vertical,"(890.0, 262.0)",1.6,nan,1,10853.933,1
0,481,target,"[(1082, 776)]",[],[1],[0.6],vertical,"(390.0, 762.0)",1.5833333333333333,0.553,1,10859.612,1
0,482,target,"[(1120, 761)]",[],[1],[0.5333333333333333],vertical,"(390.0, 262.0)",0.8333333333333334,0.491,1,10864.861,1
0,483,target,"[(1105, 767)]",[],[1],[0.06666666666666667],vertical,"(890.0, 262.0)",1.5333333333333332,0.036,0,10869.653,0
0,484,target,"[(1106, 760)]",[],[1],[0.55],horizontal,"(390.0, 262.0)",0.55,0.506,1,10874.407,1
0,485,target,"[(1125, 775)]",[],[1],[0.65],vertical,"(390.0, 262.0)",1.0,0.603,1,10879.095,1
0,486,catch,"[(1124, 777)]",[],[1],[],vertical,"(390.0, 762.0)",1.6,nan,1,10883.791,1
0,487,target,"[(1110, 781)]",[],[1],[0.5333333333333333],horizontal,"(890.0, 262.0)",1.1333333333333333,0.493,1,10888.442,2
0,488,target,"[(1124, 766)]",[],[1],[0.3],vertical,"(890.0, 762.0)",1.5166666666666666,0.262,1,10894.14,2
0,489,target,"[(1117, 784)]",[],[1],[0.85],vertical,"(890.0, 262.0)",1.2666666666666666,nan,0,10899.469,0
0,490,catch,"[(1074, 783)]",[],[1],[],horizontal,"(890.0, 262.0)",,"('cti', 1.543),nan",0,10904.237,0
0,491,target,"[(1118, 791)]",[],[1],[0.6666666666666666],vertical,"(390.0, 762.0)",0.7333333333333333,0.618,1,10910.655,1
0,492,catch,"[(1100, 777)]",[],[1],[],horizontal,"(390.0, 262.0)",1.6,nan,1,10915.069,1
0,493,target,"[(1102, 780)]",[],[1],[0.6166666666666667],horizontal,"(390.0, 262.0)",1.3,0.575,1,10919.966,1
0,494,target,"[(1123, 777)]",[],[1],[0.5],horizontal,"(390.0, 762.0)",1.0833333333333333,0.462,1,10925.438,2
0,495,target,"[(1120, 785)]",[],[1],[0.26666666666666666],horizontal,"(890.0, 762.0)",1.4166666666666667,0.23,1,10931.085,2
0,496,target,"[(1121, 782)]",[],[1],[0.5333333333333333],vertical,"(390.0, 762.0)",0.8,0.49,1,10936.744,2
0,497,target,"[(1124, 780)]",[],[1],[0.48333333333333334],vertical,"(390.0, 262.0)",1.25,0.447,1,10941.791,2
0,498,target,"[(1108, 796)]",[],[1],[0.5333333333333333],horizontal,"(890.0, 262.0)",1.1833333333333333,0.491,1,10947.165,2
0,499,target,"[(1110, 758)]",[],[1],[0.85],vertical,"(390.0, 262.0)",0.6,nan,0,10952.566,0
0,500,target,"[(1078, 781)]",[],[1],[0.4],horizontal,"(890.0, 762.0)",1.45,0.36,1,10957.162,1
0,501,target,"[(1084, 753), (1099, 792)]",[],"[0, 1]",[0.5666666666666667],vertical,"(390.0, 262.0)",0.5166666666666666,0.526,1,10962.301,1
0,502,target,"[(1123, 780)]",[],[1],[0.85],horizontal,"(390.0, 262.0)",0.65,nan,0,10968.833,0
0,503,target,"[(1111, 820)]",[],[1],[0.85],horizontal,"(890.0, 762.0)",1.0666666666666667,nan,0,10973.634,0
0,504,target,"[(1043, 821)]",[],[1],[0.4666666666666667],vertical,"(890.0, 762.0)",1.1833333333333333,0.427,1,13471.084,1
0,505,target,"[(1077, 777)]",[],[1],[0.85],vertical,"(390.0, 762.0)",0.65,nan,0,13482.533,0
0,506,target,"[(1110, 765)]",[],[1],[0.5666666666666667],vertical,"(890.0, 762.0)",1.1333333333333333,0.521,1,13487.461,1
0,507,catch,"[(1077, 780)]",[],[1],[],horizontal,"(890.0, 262.0)",1.6,nan,1,13492.637,1
0,508,target,"[(1120, 805)]",[],[1],[0.55],horizontal,"(890.0, 762.0)",1.3,0.512,1,13497.595,1
0,509,target,"[(1067, 767)]",[],[1],[0.16666666666666666],vertical,"(890.0, 262.0)",1.5166666666666666,0.135,0,13502.931,0
0,510,target,"[(1081, 771)]",[],[1],[0.5],vertical,"(890.0, 262.0)",1.4,0.459,1,13507.933,1
0,511,catch,"[(1081, 781)]",[],[1],[],horizontal,"(890.0, 762.0)",1.6,nan,1,13513.35,1
0,512,target,"[(1115, 789)]",[],[1],[0.5833333333333334],vertical,"(890.0, 262.0)",1.2666666666666666,0.539,1,13519.399,1
0,513,target,"[(1105, 777)]",[],[1],[0.5333333333333333],vertical,"(890.0, 262.0)",0.95,0.491,1,13524.467,2
0,514,target,"[(1123, 782)]",[],[1],[0.26666666666666666],horizontal,"(390.0, 262.0)",1.5666666666666667,0.228,1,13529.925,2
0,515,target,"[(1105, 786)]",[],[1],[0.6333333333333333],vertical,"(390.0, 262.0)",0.8333333333333334,0.591,1,13535.267,2
0,516,target,"[(1082, 782)]",[],[1],[0.75],horizontal,"(390.0, 762.0)",1.45,0.71,1,13540.632,2
0,517,catch,"[(1079, 780)]",[],[1],[],vertical,"(890.0, 762.0)",,"('cti', 1.232),nan",0,13546.276,0
0,518,target,"[(1073, 784)]",[],[1],[0.7666666666666666],vertical,"(390.0, 262.0)",0.7333333333333333,0.725,1,13550.872,1
0,519,target,"[(1059, 785)]",[],[1],[0.5833333333333334],vertical,"(890.0, 762.0)",1.4,0.55,1,13555.452,1
0,520,target,"[(1120, 796)]",[],[1],[0.16666666666666666],vertical,"(890.0, 262.0)",1.5833333333333333,0.137,0,13560.612,0
0,521,target,"[(1077, 781)]",[],[1],[0.7333333333333333],vertical,"(390.0, 762.0)",1.3,0.689,1,13565.369,1
0,522,target,"[(1115, 776)]",[],[1],[0.5666666666666667],horizontal,"(890.0, 762.0)",0.9833333333333333,0.524,1,13570.734,1
0,523,target,"[(1103, 785)]",[],[1],[0.3],horizontal,"(890.0, 762.0)",1.5333333333333332,0.263,1,13575.742,1
0,524,target,"[(1105, 763)]",[],[1],[0.3333333333333333],horizontal,"(390.0, 262.0)",1.6333333333333333,0.293,1,13580.968,2
0,525,target,"[(1120, 773)]",[],[1],[0.5],vertical,"(390.0, 262.0)",0.5666666666666667,0.462,1,13586.374,2
0,526,target,"[(1101, 773)]",[],[1],[0.5833333333333334],vertical,"(890.0, 762.0)",0.7833333333333333,0.542,1,13591.499,2
0,527,target,"[(1097, 777)]",[],[1],[0.55],vertical,"(890.0, 262.0)",0.8333333333333334,0.51,1,13596.312,2
0,528,target,"[(1105, 774)]",[],[1],[0.65],vertical,"(890.0, 762.0)",0.5166666666666666,0.609,1,13601.35,2
0,529,target,"[(1106, 770)]",[],[1],[0.4],horizontal,"(390.0, 762.0)",1.2,0.357,1,13606.398,3
0,530,target,"[(1126, 784)]",[],[1],[0.43333333333333335],vertical,"(890.0, 762.0)",1.4333333333333333,0.393,1,13611.968,3
0,531,target,"[(1100, 771)]",[],[1],[0.5666666666666667],vertical,"(890.0, 262.0)",1.4166666666666667,0.53,1,13618.233,3
0,532,target,"[(1095, 797)]",[],[1],[0.6666666666666666],horizontal,"(890.0, 762.0)",0.7333333333333333,0.621,1,13624.002,3
0,533,target,"[(1101, 792)]",[],[1],[0.7833333333333333],horizontal,"(890.0, 262.0)",1.2333333333333334,0.736,1,13629.652,3
0,534,catch,"[(1090, 778)]",[],[1],[],horizontal,"(390.0, 762.0)",1.6,nan,1,13635.984,3
0,535,target,"[(1100, 754)]",[],[1],[0.5833333333333334],vertical,"(390.0, 262.0)",0.65,0.537,1,13641.495,3
0,536,target,"[(1115, 771)]",[],[1],[0.6333333333333333],horizontal,"(390.0, 262.0)",0.5833333333333334,0.593,1,13646.736,3
0,537,target,"[(1092, 786)]",[],[1],[],vertical,"(390.0, 262.0)",,"('cti', 1.66)",0,13652.213,0
0,538,target,"[(1076, 779)]",[],[1],[0.85],vertical,"(890.0, 762.0)",0.65,nan,0,13656.831,0
0,539,catch,"[(1081, 802)]",[],[1],[],horizontal,"(390.0, 262.0)",1.6,nan,1,13661.119,1
0,540,target,"[(1097, 801)]",[],[1],[0.85],vertical,"(890.0, 762.0)",0.9,nan,0,13668.02,0
0,541,target,"[(1078, 787)]",[],[1],[0.5166666666666666],horizontal,"(890.0, 262.0)",1.1,0.476,1,13672.552,1
0,542,target,"[(1111, 790)]",[],[1],[0.7666666666666666],vertical,"(890.0, 762.0)",0.75,0.724,1,13677.386,1
0,543,target,"[(1124, 788)]",[],[1],[0.6833333333333333],vertical,"(390.0, 262.0)",0.5,0.637,1,13682.119,1
0,544,catch,"[(1124, 784)]",[],[1],[],horizontal,"(890.0, 262.0)",1.6,nan,1,13686.469,2
0,545,target,"[(1134, 782)]",[],[1],[0.48333333333333334],vertical,"(390.0, 762.0)",1.2166666666666666,0.443,1,13691.985,2
0,546,target,"[(1109, 767)]",[],[1],[0.43333333333333335],horizontal,"(390.0, 262.0)",1.25,0.395,1,13697.469,2
0,547,target,"[(1108, 781)]",[],[1],[0.5666666666666667],horizontal,"(390.0, 762.0)",1.2166666666666666,0.527,1,13702.985,2
0,548,target,"[(1099, 755)]",[],[1],[0.7333333333333333],vertical,"(890.0, 262.0)",0.5166666666666666,0.684,1,13708.718,2
0,549,target,"[(1108, 778)]",[],[1],[0.55],vertical,"(890.0, 262.0)",0.55,0.509,1,13713.5,3
0,550,target,"[(1091, 798)]",[],[1],[0.85],horizontal,"(390.0, 762.0)",0.7166666666666667,nan,0,13718.735,0
0,551,target,"[(1116, 771)]",[],[1],[0.55],vertical,"(890.0, 262.0)",1.0,0.516,1,13723.85,1
0,552,target,"[(1120, 786)]",[],[1],[0.5833333333333334],vertical,"(890.0, 262.0)",0.65,0.551,1,13728.683,1
0,553,target,"[(1111, 792)]",[],[1],[0.6333333333333333],vertical,"(390.0, 262.0)",1.2833333333333332,0.588,1,13733.161,1
0,554,target,"[(1079, 797)]",[],[1],[0.65],vertical,"(890.0, 262.0)",0.5833333333333334,0.609,1,13738.602,2
0,555,target,"[(1115, 786)]",[],[1],[],vertical,"(390.0, 762.0)",,"('cti', 1.535)",0,13743.733,0
0,556,target,"[(1091, 764)]",[],[1],[0.55],vertical,"(390.0, 262.0)",1.1166666666666667,0.509,1,13748.118,1
0,557,target,"[(1113, 786)]",[],[1],[0.6666666666666666],vertical,"(890.0, 762.0)",0.6833333333333333,0.624,1,13752.744,1
0,558,target,"[(1044, 760)]",[],[1],[0.4166666666666667],horizontal,"(390.0, 762.0)",1.1333333333333333,0.379,1,13757.328,1
0,559,target,"[(1099, 790)]",[],[1],[0.21666666666666667],horizontal,"(890.0, 762.0)",1.3833333333333333,0.184,0,13773.286,0
0,560,target,"[(1057, 778)]",[],[1],[0.4],horizontal,"(390.0, 762.0)",1.4,0.364,1,13778.368,1
0,561,target,"[(1135, 786)]",[],[1],[0.5166666666666666],vertical,"(890.0, 262.0)",1.05,0.479,1,13783.841,1
0,562,target,"[(1107, 775)]",[],[1],[0.85],vertical,"(390.0, 262.0)",0.9333333333333333,nan,0,13788.625,0
0,563,target,"[(1110, 778)]",[],[1],[0.5666666666666667],vertical,"(390.0, 762.0)",0.9166666666666666,0.526,1,13793.403,1
0,564,target,"[(1075, 781)]",[],[1],[0.5833333333333334],vertical,"(390.0, 262.0)",1.1666666666666667,0.54,1,13797.869,1
0,565,catch,"[(1109, 795)]",[],[1],[],horizontal,"(890.0, 762.0)",1.6,nan,1,13802.92,1
0,566,target,"[(1116, 787)]",[],[1],[0.55],vertical,"(890.0, 262.0)",0.9166666666666666,0.503,1,13808.058,2
0,567,target,"[(1128, 775)]",[],[1],[0.85],vertical,"(390.0, 262.0)",0.75,nan,0,13813.686,0
0,568,target,"[(1058, 771)]",[],[1],[0.6333333333333333],horizontal,"(390.0, 762.0)",0.9833333333333333,0.587,1,13818.219,1
0,569,target,"[(1082, 765)]",[],[1],[0.5833333333333334],vertical,"(890.0, 262.0)",0.6166666666666667,0.544,1,13823.019,1
0,570,catch,"[(1128, 770)]",[],[1],[],horizontal,"(390.0, 762.0)",1.6,nan,1,13828.019,1
0,571,target,"[(1109, 768)]",[],[1],[0.11666666666666667],horizontal,"(890.0, 762.0)",1.6333333333333333,0.084,0,13832.852,0
0,572,target,"[(1091, 795)]",[],[1],[0.55],vertical,"(890.0, 262.0)",1.15,0.509,1,13837.802,1
0,573,catch,"[(1057, 766)]",[],[1],[],horizontal,"(890.0, 762.0)",1.6,nan,1,13843.019,1
0,574,target,"[(1112, 765)]",[],[1],[0.5833333333333334],vertical,"(390.0, 262.0)",0.9833333333333333,0.542,1,13848.119,1
0,575,target,"[(1110, 775)]",[],[1],[0.6],vertical,"(890.0, 262.0)",1.4833333333333334,0.558,1,13852.886,2
0,576,target,"[(1074, 764)]",[],[1],[0.13333333333333333],vertical,"(390.0, 762.0)",1.65,0.103,0,13858.443,0
0,577,target,"[(1082, 778)]",[],[1],[0.65],vertical,"(890.0, 762.0)",0.9333333333333333,0.604,1,13863.718,1
0,578,target,"[(1086, 772)]",[],[1],[0.5833333333333334],horizontal,"(890.0, 762.0)",1.0833333333333333,0.543,1,13868.103,1
0,579,target,"[(1115, 766)]",[],[1],[0.85],horizontal,"(890.0, 262.0)",1.15,nan,0,13873.369,0
0,580,target,"[(1072, 779)]",[],[1],[0.85],vertical,"(390.0, 262.0)",0.5166666666666666,nan,0,13878.386,0
0,581,target,"[(1059, 786)]",[],[1],[0.85],horizontal,"(890.0, 762.0)",0.7666666666666666,nan,0,13882.973,0
0,582,target,"[(1057, 797)]",[],[1],[0.18333333333333332],vertical,"(390.0, 762.0)",1.6166666666666667,0.153,0,13888.469,0
0,583,target,"[(1061, 771)]",[],[1],[0.6],horizontal,"(390.0, 262.0)",0.6166666666666667,0.561,1,13897.703,1
0,584,target,"[(1082, 783)]",[],[1],[0.85],vertical,"(390.0, 762.0)",0.9166666666666666,nan,0,13902.612,0
0,585,target,"[(1062, 781)]",[],[1],[0.6],vertical,"(890.0, 262.0)",0.7666666666666666,0.564,1,13907.807,1
0,586,target,"[(1105, 767)]",[],[1],[0.5666666666666667],horizontal,"(890.0, 762.0)",1.35,0.528,1,13912.42,1
0,587,target,"[(1100, 768)]",[],[1],[0.85],vertical,"(890.0, 262.0)",1.5166666666666666,nan,0,13917.804,0
0,588,target,"[(1062, 764)]",[],[1],[0.7666666666666666],horizontal,"(390.0, 262.0)",1.3,0.718,1,13922.953,1
0,589,target,"[(1110, 784)]",[],[1],[0.7666666666666666],horizontal,"(390.0, 262.0)",1.0166666666666666,0.725,1,13928.586,1
0,590,catch,"[(1074, 791)]",[],[1],[],horizontal,"(890.0, 762.0)",1.6,nan,1,13933.737,1
0,591,catch,"[(1091, 801)]",[],[1],[],horizontal,"(390.0, 262.0)",1.6,nan,1,13945.758,2
0,592,target,"[(1103, 788)]",[],[1],[0.5333333333333333],vertical,"(890.0, 762.0)",1.1166666666666667,0.501,1,13951.596,2
0,593,catch,"[(1118, 765)]",[],[1],[],vertical,"(390.0, 262.0)",1.6,nan,1,13957.403,2
0,594,target,"[(1107, 790)]",[],[1],[0.6],vertical,"(390.0, 262.0)",0.55,0.565,1,13962.496,2
0,595,target,"[(1080, 776)]",[],[1],[0.4],vertical,"(890.0, 762.0)",1.3833333333333333,0.361,1,13967.435,2
0,596,catch,"[(1109, 781)]",[],[1],[],horizontal,"(390.0, 762.0)",1.6,nan,1,13972.716,3
0,597,target,"[(1120, 802)]",[],[1],[0.5],horizontal,"(390.0, 262.0)",1.55,0.459,1,13978.083,3
0,598,target,"[(1110, 789)]",[],[1],[0.23333333333333334],vertical,"(390.0, 762.0)",1.4666666666666666,0.198,0,13984.317,0
0,599,target,"[(1093, 781)]",[],[1],[0.2833333333333333],horizontal,"(390.0, 262.0)",1.5333333333333332,0.246,1,13989.27,1
0,600,target,"[(1074, 767)]",[],[1],[0.6166666666666667],horizontal,"(390.0, 262.0)",0.6833333333333333,0.573,1,13994.504,1
0,601,catch,"[(1109, 769)]",[],[1],[],vertical,"(890.0, 262.0)",1.6,nan,1,13999.371,1
0,602,catch,"[(1074, 775)]",[],[1],[],vertical,"(890.0, 262.0)",1.6,nan,1,14005.044,2
0,603,target,"[(1105, 769)]",[],[1],[0.45],vertical,"(890.0, 262.0)",1.2,0.411,1,14010.771,2
0,604,target,"[(1127, 764)]",[],[1],[0.5],vertical,"(890.0, 762.0)",0.9166666666666666,0.457,1,14016.914,2
0,605,target,"[(1100, 766)]",[],[1],[0.5],horizontal,"(890.0, 262.0)",1.3166666666666667,0.464,1,14022.042,2
0,606,target,"[(1110, 796)]",[],[1],[0.5333333333333333],horizontal,"(890.0, 762.0)",0.6666666666666666,0.493,1,14027.435,2
0,607,target,"[(1086, 771)]",[],[1],[0.5166666666666666],horizontal,"(390.0, 762.0)",1.2,0.477,1,14032.52,3
0,608,target,"[(1100, 775)]",[],[1],[0.5833333333333334],vertical,"(890.0, 762.0)",1.1833333333333333,0.541,1,14038.254,3
0,609,catch,"[(1096, 790)]",[],[1],[],horizontal,"(390.0, 762.0)",,"('cti', 1.578),nan",0,14043.92,0
0,610,target,"[(1105, 783)]",[],[1],[0.65],horizontal,"(890.0, 262.0)",0.9,0.607,1,14048.855,1
0,611,target,"[(1106, 761)]",[],[1],[0.6],vertical,"(890.0, 762.0)",0.5,0.563,1,14053.702,1
0,612,catch,"[(1080, 788)]",[],[1],[],horizontal,"(390.0, 262.0)",,"('cti', 1.447),nan",0,14058.57,0
0,613,catch,"[(1095, 839)]",[],[1],[],horizontal,"(890.0, 262.0)",1.6,nan,1,14063.64,1
0,614,target,"[(1076, 850)]",[],[1],[0.85],horizontal,"(390.0, 762.0)",1.5166666666666666,nan,0,16399.154,0
0,615,target,"[(1052, 839)]",[],[1],[0.85],vertical,"(390.0, 262.0)",1.0333333333333332,nan,0,16417.252,0
0,616,target,"[(1075, 833)]",[],[1],[0.5833333333333334],vertical,"(890.0, 762.0)",1.45,0.54,1,16424.037,1
0,617,target,"[(1072, 817)]",[],[1],[0.85],horizontal,"(890.0, 762.0)",1.2666666666666666,nan,0,16447.052,0
0,618,target,"[(1047, 794)]",[],[1],[0.85],horizontal,"(890.0, 762.0)",0.6,nan,0,16452.504,0
0,619,target,"[(1057, 786)]",[],[1],[0.7166666666666667],horizontal,"(890.0, 762.0)",1.3833333333333333,0.676,1,16456.774,1
0,620,target,"[(1081, 789)]",[],[1],[0.85],horizontal,"(390.0, 262.0)",0.6166666666666667,nan,0,16462.388,0
0,621,target,"[(1072, 785)]",[],[1],[0.85],vertical,"(890.0, 762.0)",0.7666666666666666,nan,0,16467.387,0
0,622,catch,"[(1059, 788)]",[],[1],[],horizontal,"(890.0, 762.0)",1.6,nan,1,16471.887,1
0,623,catch,"[(1059, 803)]",[],[1],[],horizontal,"(390.0, 262.0)",1.6,nan,1,16476.746,1
0,624,target,"[(1096, 800)]",[],[1],[0.6666666666666666],horizontal,"(390.0, 762.0)",0.5833333333333334,0.626,1,16481.321,1
0,625,catch,"[(1080, 800)]",[],[1],[],horizontal,"(890.0, 262.0)",1.6,nan,1,16486.171,2
0,626,target,"[(1097, 804)]",[],[1],[0.5666666666666667],horizontal,"(390.0, 262.0)",1.2166666666666666,0.526,1,16491.617,2
0,627,target,"[(1090, 790)]",[],[1],[0.6333333333333333],vertical,"(890.0, 262.0)",0.5,0.59,1,16496.783,2
0,628,target,"[(1089, 791)]",[],[1],[0.85],vertical,"(390.0, 762.0)",0.5,nan,0,16501.597,0
0,629,target,"[(1066, 806)]",[],[1],[0.55],vertical,"(390.0, 262.0)",0.8833333333333333,0.508,1,16505.807,1
0,630,target,"[(1075, 778)]",[],[1],[0.5333333333333333],horizontal,"(890.0, 262.0)",1.0666666666666667,0.487,1,16510.362,1
0,631,target,"[(1109, 766)]",[],[1],[0.23333333333333334],horizontal,"(390.0, 262.0)",1.4166666666666667,0.199,0,16515.254,0
0,632,target,"[(1071, 758)]",[],[1],[0.6166666666666667],horizontal,"(890.0, 762.0)",0.6333333333333333,0.573,1,16519.938,1
0,633,catch,"[(1105, 769)]",[],[1],[],vertical,"(390.0, 262.0)",1.6,nan,1,16524.187,1
0,634,catch,"[(1106, 787)]",[],[1],[],horizontal,"(890.0, 762.0)",1.6,nan,1,16529.009,1
0,635,target,"[(1107, 802)]",[],[1],[0.85],vertical,"(390.0, 762.0)",1.1833333333333333,nan,0,16534.505,0
0,636,catch,"[(1073, 794)]",[],[1],[],vertical,"(890.0, 262.0)",1.6,nan,1,16539.113,1
0,637,target,"[(1093, 785)]",[],[1],[0.35],horizontal,"(390.0, 262.0)",1.3,0.314,1,16543.766,1
0,638,catch,"[(1131, 772)]",[],[1],[],horizontal,"(890.0, 262.0)",1.6,nan,1,16549.026,1
0,639,target,"[(1079, 779)]",[],[1],[0.5666666666666667],horizontal,"(390.0, 262.0)",1.15,0.534,1,16554.121,2
0,640,target,"[(1128, 778)]",[],[1],[0.6333333333333333],vertical,"(390.0, 762.0)",1.2,0.593,1,16559.56,2
0,641,target,"[(1075, 771)]",[],[1],[0.65],horizontal,"(390.0, 262.0)",0.95,0.608,1,16565.456,2
0,642,catch,"[(1106, 769)]",[],[1],[],horizontal,"(890.0, 262.0)",1.6,nan,1,16571.028,2
0,643,target,"[(1086, 796)]",[],[1],[0.2],vertical,"(390.0, 262.0)",1.5,0.169,0,16576.545,0
0,644,target,"[(1076, 760)]",[],[1],[0.4166666666666667],vertical,"(390.0, 262.0)",1.4,0.377,1,16581.513,1
0,645,target,"[(1123, 777)]",[],[1],[0.55],horizontal,"(390.0, 262.0)",0.55,0.505,1,16586.364,1
0,646,target,"[(1100, 765)]",[],[1],[0.5166666666666666],horizontal,"(890.0, 762.0)",0.9333333333333333,0.477,1,16590.822,1
0,647,target,"[(1087, 765)]",[],[1],[0.11666666666666667],vertical,"(890.0, 762.0)",1.4833333333333334,0.083,0,16595.704,0
0,648,target,"[(1093, 785)]",[],[1],[0.5166666666666666],vertical,"(890.0, 262.0)",1.05,0.481,1,16600.121,1
0,649,target,"[(1108, 756)]",[],[1],[0.3],vertical,"(390.0, 762.0)",1.45,0.267,1,16605.005,1
0,650,catch,"[(1073, 765)]",[],[1],[],horizontal,"(890.0, 262.0)",1.6,nan,1,16610.246,1
0,651,target,"[(1074, 754)]",[],[1],[0.45],horizontal,"(390.0, 762.0)",1.1,0.414,1,16615.154,2
0,652,target,"[(1102, 768)]",[],[1],[0.2833333333333333],horizontal,"(890.0, 762.0)",1.5833333333333333,0.247,1,16620.638,2
0,653,target,"[(1124, 739), (1076, 788)]",[],"[0, 1]",[0.6166666666666667],vertical,"(890.0, 762.0)",0.55,0.578,1,16626.322,2
0,654,target,"[(1105, 760)]",[],[1],[0.3833333333333333],vertical,"(890.0, 262.0)",1.3833333333333333,0.344,1,16633.251,2
0,655,target,"[(1100, 751), (1062, 791)]",[],"[0, 1]",[0.5166666666666666],horizontal,"(390.0, 262.0)",0.8833333333333333,0.473,1,16638.672,2
0,656,target,"[(1104, 755)]",[],[1],[0.5333333333333333],horizontal,"(390.0, 762.0)",0.5166666666666666,0.494,1,16644.933,3
0,657,target,"[(1106, 765)]","[(1086, 787)]",[1],[0.1],vertical,"(390.0, 762.0)",,"('bar', 0.117)",0,16650.473,0
0,658,target,"[(1101, 782)]",[],[1],[0.55],horizontal,"(890.0, 262.0)",0.6166666666666667,0.509,1,16652.723,1
0,659,target,"[(1061, 766)]",[],[1],[0.6333333333333333],horizontal,"(890.0, 762.0)",0.6166666666666667,0.595,1,16657.362,1
0,660,target,"[(1106, 768)]",[],[1],[0.23333333333333334],horizontal,"(390.0, 762.0)",1.4666666666666666,0.198,0,16662.144,0
0,661,catch,"[(1080, 769)]",[],[1],[],vertical,"(890.0, 262.0)",1.6,nan,1,16666.888,1
0,662,target,"[(1103, 774)]",[],[1],[0.21666666666666667],vertical,"(390.0, 262.0)",1.5166666666666666,0.18,0,16672.021,0
0,663,target,"[(1076, 786)]",[],[1],[0.85],vertical,"(390.0, 762.0)",0.75,nan,0,16677.088,0
0,664,target,"[(1086, 782)]",[],[1],[0.6833333333333333],vertical,"(890.0, 262.0)",1.3,0.64,1,16681.251,1
0,665,target,"[(1105, 783)]",[],[1],[0.45],vertical,"(890.0, 762.0)",1.4833333333333334,0.411,1,16686.256,1
0,666,target,"[(1125, 757)]",[],[1],[0.6666666666666666],horizontal,"(390.0, 762.0)",0.9,0.625,1,16691.305,1
0,667,target,"[(1125, 765)]",[],[1],[0.7166666666666667],horizontal,"(390.0, 262.0)",1.05,0.674,1,16696.188,2
0,668,target,"[(1103, 764)]",[],[1],[0.65],horizontal,"(890.0, 762.0)",1.0166666666666666,0.609,1,16701.37,2
0,669,target,"[(1104, 764)]",[],[1],[0.5833333333333334],horizontal,"(890.0, 762.0)",0.8333333333333334,0.54,1,16706.8,2
0,670,target,"[(1100, 751), (1060, 794)]",[],"[0, 1]",[0.5333333333333333],vertical,"(890.0, 762.0)",1.0166666666666666,0.492,1,16712.218,2
0,671,target,"[(1085, 737), (1069, 782)]",[],"[0, 1]",[0.6333333333333333],horizontal,"(390.0, 762.0)",0.7333333333333333,0.59,1,16719.873,2
0,672,target,"[(1096, 776)]",[],[1],[0.6666666666666666],horizontal,"(390.0, 262.0)",1.4666666666666666,0.62,1,16726.189,3
0,673,target,"[(1072, 803)]",[],[1],[0.7166666666666667],horizontal,"(390.0, 262.0)",0.6666666666666666,0.675,1,16732.508,3
0,674,target,"[(1105, 780)]",[],[1],[0.5],horizontal,"(890.0, 262.0)",1.1833333333333333,0.463,1,16738.536,3
0,675,target,"[(1108, 757)]",[],[1],[0.5333333333333333],vertical,"(890.0, 262.0)",0.8833333333333333,0.494,1,16744.489,3
0,676,target,"[(1105, 756)]",[],[1],[0.6666666666666666],horizontal,"(890.0, 762.0)",0.5166666666666666,0.625,1,16750.224,3
0,677,target,"[(1110, 766)]",[],[1],[0.6],horizontal,"(390.0, 762.0)",1.1166666666666667,0.557,1,16755.288,3
0,678,target,"[(1100, 764)]",[],[1],[0.5333333333333333],horizontal,"(390.0, 262.0)",1.2833333333333332,0.493,1,16761.056,3
0,679,target,"[(1123, 761)]",[],[1],[0.5666666666666667],vertical,"(390.0, 762.0)",1.3666666666666667,0.527,1,16766.764,3
0,680,catch,"[(1109, 747), (1075, 790)]",[],"[0, 1]",[],vertical,"(890.0, 262.0)",1.6,nan,1,16772.672,3
0,681,catch,"[(1105, 788)]",[],[1],[],horizontal,"(890.0, 262.0)",1.6,nan,1,16779.337,3
0,682,target,"[(1124, 769)]",[],[1],[0.6166666666666667],vertical,"(890.0, 762.0)",0.6166666666666667,0.592,1,16785.065,3
0,683,target,"[(1112, 786)]",[],[1],[0.6333333333333333],horizontal,"(390.0, 262.0)",0.6166666666666667,0.591,1,16790.172,3
0,684,target,"[(1109, 754)]",[],[1],[0.5833333333333334],horizontal,"(890.0, 762.0)",0.6333333333333333,0.546,1,16795.143,3
0,685,target,"[(1100, 775)]",[],[1],[0.4666666666666667],vertical,"(390.0, 262.0)",1.2833333333333332,0.431,1,16800.506,3
0,686,target,"[(1105, 772)]",[],[1],[0.15],vertical,"(390.0, 262.0)",1.5333333333333332,0.116,0,16806.571,0
0,687,target,"[(1072, 787)]",[],[1],[0.5333333333333333],vertical,"(890.0, 262.0)",0.7333333333333333,0.496,1,16811.339,1
0,688,target,"[(1109, 776)]",[],[1],[0.6333333333333333],vertical,"(390.0, 762.0)",0.7,0.602,1,16815.71,1
0,689,target,"[(1072, 765)]",[],[1],[0.7166666666666667],horizontal,"(890.0, 762.0)",0.8833333333333333,0.671,1,16820.19,1
0,690,target,"[(1106, 766)]",[],[1],[0.65],horizontal,"(890.0, 762.0)",1.0166666666666666,0.604,1,16824.985,2
0,691,target,"[(1105, 763)]",[],[1],[0.5],horizontal,"(890.0, 762.0)",1.0833333333333333,0.457,1,16830.122,2
0,692,target,"[(1086, 770)]",[],[1],[0.16666666666666666],vertical,"(390.0, 262.0)",1.2666666666666666,0.136,0,16835.44,0
0,693,target,"[(1072, 808)]",[],[1],[0.6166666666666667],vertical,"(890.0, 262.0)",0.6833333333333333,0.575,1,16840.292,1
0,694,target,"[(1081, 778)]",[],[1],[0.15],horizontal,"(890.0, 762.0)",1.5,0.117,0,16850.104,0
0,695,target,"[(1076, 780)]",[],[1],[0.6166666666666667],horizontal,"(390.0, 762.0)",1.0833333333333333,0.572,1,16854.879,1
0,696,target,"[(1077, 801)]",[],[1],[0.6],vertical,"(890.0, 762.0)",1.5166666666666666,0.559,1,16859.921,1
0,697,target,"[(1087, 787)]",[],[1],[0.65],horizontal,"(890.0, 762.0)",0.6,0.605,1,16865.837,1
0,698,target,"[(1107, 751), (1081, 765)]",[],"[0, 1]",[0.6],vertical,"(390.0, 262.0)",1.1333333333333333,0.558,1,16870.685,2
0,699,target,"[(1096, 772)]",[],[1],[0.5166666666666666],vertical,"(890.0, 262.0)",0.7166666666666667,0.477,1,16877.106,2
0,700,target,"[(1106, 752), (1082, 806)]",[],"[0, 1]",[0.55],horizontal,"(890.0, 762.0)",1.0333333333333332,0.511,1,16882.406,2
0,701,target,"[(1110, 790)]",[],[1],[0.3],vertical,"(890.0, 262.0)",1.3333333333333333,0.262,1,16889.791,2
0,702,catch,"[(1102, 766)]",[],[1],[],horizontal,"(390.0, 762.0)",1.6,nan,1,16895.28,2
0,703,target,"[(1086, 803)]",[],[1],[0.3],horizontal,"(390.0, 762.0)",1.25,0.26,1,16900.376,3
0,704,catch,"[(1086, 761)]",[],[1],[],vertical,"(390.0, 262.0)",1.6,nan,1,16906.224,3
0,705,target,"[(1076, 764)]",[],[1],[0.25],horizontal,"(390.0, 762.0)",1.6,0.212,1,16911.89,3
0,706,target,"[(1097, 772)]",[],[1],[0.85],vertical,"(390.0, 762.0)",0.9333333333333333,nan,0,16917.842,0
0,707,target,"[(1077, 802)]",[],[1],[0.6666666666666666],horizontal,"(890.0, 762.0)",0.85,0.622,1,16923.141,1
0,708,target,"[(1091, 758)]",[],[1],[0.1],vertical,"(890.0, 262.0)",1.5833333333333333,0.068,0,16928.514,0
0,709,catch,"[(1069, 779)]",[],[1],[],horizontal,"(390.0, 262.0)",1.6,nan,1,16933.525,1
0,710,target,"[(1095, 782)]",[],[1],[0.5833333333333334],horizontal,"(390.0, 762.0)",0.8666666666666667,0.538,1,16938.889,1
0,711,target,"[(1103, 769)]",[],[1],[0.4],vertical,"(390.0, 762.0)",1.2833333333333332,0.363,1,16943.619,1
0,712,target,"[(1105, 771)]",[],[1],[0.5],horizontal,"(890.0, 262.0)",0.8,0.459,1,16948.606,2
0,713,target,"[(1099, 777)]",[],[1],[0.16666666666666666],vertical,"(390.0, 762.0)",1.55,0.131,0,16953.523,0
0,714,catch,"[(1076, 773)]",[],[1],[],horizontal,"(890.0, 262.0)",1.6,nan,1,16958.005,1
0,715,target,"[(1105, 765)]",[],[1],[0.23333333333333334],vertical,"(890.0, 262.0)",1.4,0.2,1,16963.273,1
0,716,target,"[(1105, 753), (1076, 795)]",[],"[0, 1]",[0.6166666666666667],horizontal,"(390.0, 762.0)",0.8,0.57,1,16968.373,1
0,717,target,"[(1110, 764)]",[],[1],[0.4166666666666667],vertical,"(890.0, 262.0)",1.35,0.376,1,16974.69,2
0,718,target,"[(1105, 751), (1097, 806)]",[],"[0, 1]",[0.26666666666666666],vertical,"(390.0, 762.0)",1.3666666666666667,0.232,1,16980.441,2
0,719,target,"[(1120, 768)]",[],[1],[0.15],vertical,"(890.0, 762.0)",1.4666666666666666,0.117,0,16987.268,0
0,720,target,"[(1067, 761)]",[],[1],[0.85],horizontal,"(390.0, 262.0)",0.7166666666666667,nan,0,16991.641,0
0,721,target,"[(1081, 774)]",[],[1],[0.25],vertical,"(890.0, 762.0)",1.4333333333333333,0.216,1,16996.084,1
0,722,target,"[(1085, 766)]",[],[1],[0.6333333333333333],horizontal,"(390.0, 262.0)",1.6166666666666667,0.599,1,17000.958,1
0,723,target,"[(1097, 785)]",[],[1],[0.6833333333333333],vertical,"(390.0, 262.0)",0.6666666666666666,0.637,1,17006.058,1
0,724,target,"[(1105, 780)]",[],[1],[0.2833333333333333],horizontal,"(390.0, 262.0)",1.6333333333333333,0.248,1,17010.346,2
0,725,target,"[(1115, 782)]",[],[1],[0.6166666666666667],horizontal,"(390.0, 262.0)",0.8,0.585,1,17016.14,2
0,726,target,"[(1105, 773)]",[],[1],[0.2],vertical,"(890.0, 762.0)",1.6833333333333333,0.172,0,17021.224,0
0,727,target,"[(1065, 749), (1077, 785)]",[],"[0, 1]",[0.85],horizontal,"(390.0, 262.0)",0.65,nan,0,17026.115,0
0,728,target,"[(1081, 766)]",[],[1],[0.3],vertical,"(390.0, 262.0)",1.3833333333333333,0.267,1,17031.494,1
0,729,target,"[(1124, 754)]",[],[1],[0.5666666666666667],vertical,"(890.0, 262.0)",0.6166666666666667,0.527,1,17036.745,1
0,730,target,"[(1110, 764)]",[],[1],[0.6666666666666666],horizontal,"(890.0, 262.0)",0.9833333333333333,0.634,1,17041.63,1
0,731,target,"[(1105, 766)]",[],[1],[0.5833333333333334],vertical,"(890.0, 262.0)",0.7166666666666667,0.54,1,17046.776,2
0,732,target,"[(1108, 761)]",[],[1],[0.2833333333333333],vertical,"(390.0, 262.0)",1.4166666666666667,0.25,1,17051.474,2
0,733,catch,"[(1127, 792)]",[],[1],[],vertical,"(890.0, 262.0)",1.6,nan,1,17057.214,2
0,734,target,"[(1114, 779)]",[],[1],[0.55],horizontal,"(890.0, 762.0)",1.2833333333333332,0.504,1,17062.96,2
0,735,target,"[(1107, 779)]",[],[1],[0.11666666666666667],horizontal,"(390.0, 262.0)",1.6666666666666667,0.085,0,17068.424,0
0,736,target,"[(1081, 766)]",[],[1],[0.55],vertical,"(890.0, 262.0)",1.0,0.506,1,17073.15,1
0,737,target,"[(1121, 753), (1078, 776)]",[],"[0, 1]",[0.3],vertical,"(890.0, 762.0)",1.35,0.261,1,17078.708,1
0,738,target,"[(1115, 787)]",[],[1],[0.85],vertical,"(390.0, 762.0)",0.7333333333333333,nan,0,17084.523,0
0,739,catch,"[(1076, 762)]",[],[1],[],vertical,"(390.0, 762.0)",1.6,nan,1,17089.22,1
0,740,target,"[(1109, 760)]",[],[1],[0.5833333333333334],horizontal,"(890.0, 762.0)",1.1333333333333333,0.544,1,17093.993,1
0,741,catch,"[(1105, 762)]",[],[1],[],horizontal,"(890.0, 762.0)",1.6,nan,1,17098.993,1
0,742,target,"[(1082, 764)]",[],[1],[0.7666666666666666],horizontal,"(390.0, 762.0)",0.85,0.718,1,17104.132,2
0,743,target,"[(1109, 770)]",[],[1],[0.85],horizontal,"(890.0, 762.0)",0.7,nan,0,17109.185,0
0,744,catch,"[(1080, 772)]",[],[1],[],vertical,"(890.0, 262.0)",1.6,nan,1,17113.706,1
0,745,target,"[(1079, 770)]",[],[1],[0.55],horizontal,"(390.0, 262.0)",1.0,0.509,1,17119.208,1
0,746,target,"[(1090, 761)]",[],[1],[0.5333333333333333],vertical,"(890.0, 262.0)",1.0,0.489,1,17124.159,1
0,747,catch,"[(1084, 767)]",[],[1],[],vertical,"(890.0, 762.0)",1.6,nan,1,17130.258,2
0,748,target,"[(1118, 763)]",[],[1],[0.2833333333333333],vertical,"(390.0, 762.0)",1.5333333333333332,0.245,1,17136.091,2
0,749,target,"[(1113, 763)]",[],[1],[0.7166666666666667],horizontal,"(390.0, 762.0)",0.85,0.677,1,17141.693,2
0,750,target,"[(1123, 763)]",[],[1],[0.6],horizontal,"(890.0, 262.0)",0.85,0.555,1,17147.098,2
0,751,catch,"[(1102, 768)]",[],[1],[],horizontal,"(390.0, 262.0)",1.6,nan,1,17152.138,2
0,752,target,"[(1107, 787)]",[],[1],[0.6],vertical,"(390.0, 262.0)",0.7,0.561,1,17157.525,3
0,753,target,"[(1111, 761)]",[],[1],[0.5666666666666667],vertical,"(390.0, 262.0)",0.5333333333333333,0.533,1,17162.641,3
0,754,target,"[(1105, 764)]",[],[1],[0.85],vertical,"(390.0, 762.0)",0.55,nan,0,17167.977,0
0,755,target,"[(1072, 779)]",[],[1],[0.6166666666666667],horizontal,"(390.0, 762.0)",1.1,0.582,1,17172.071,1
0,756,target,"[(1096, 765)]",[],[1],[0.6333333333333333],horizontal,"(890.0, 262.0)",1.0333333333333332,0.59,1,17177.112,1
0,757,target,"[(1100, 769)]",[],[1],[0.5166666666666666],horizontal,"(890.0, 262.0)",1.3166666666666667,0.481,1,17182.375,1
0,758,target,"[(1109, 770)]",[],[1],[0.5833333333333334],horizontal,"(890.0, 762.0)",0.7333333333333333,0.546,1,17187.611,2
0,759,target,"[(1103, 784)]",[],[1],[0.6333333333333333],vertical,"(890.0, 262.0)",0.75,0.585,1,17192.808,2
0,760,target,"[(1073, 743), (1062, 793)]",[],"[0, 1]",[0.6],horizontal,"(890.0, 262.0)",0.9166666666666666,0.555,1,17198.258,2
0,761,target,"[(1103, 769)]",[],[1],[0.3],horizontal,"(390.0, 762.0)",1.6666666666666667,0.263,1,17204.76,2
0,762,target,"[(1127, 771)]",[],[1],[0.6833333333333333],vertical,"(890.0, 762.0)",0.9,0.636,1,17210.587,2
0,763,target,"[(1110, 771)]",[],[1],[0.6],horizontal,"(890.0, 762.0)",0.6166666666666667,0.556,1,17215.775,3
0,764,target,"[(1100, 774)]",[],[1],[0.6333333333333333],vertical,"(890.0, 762.0)",0.65,0.602,1,17221.429,3
0,765,catch,"[(1082, 761)]",[],[1],[],horizontal,"(390.0, 762.0)",,"('cti', 1.561),nan",0,17226.822,0
0,766,target,"[(1079, 784)]",[],[1],[0.15],vertical,"(890.0, 262.0)",1.55,0.116,0,17231.821,0
0,767,target,"[(1064, 761)]",[],[1],[0.55],horizontal,"(390.0, 262.0)",1.1166666666666667,0.513,1,17236.821,1
0,768,catch,"[(1109, 771)]",[],[1],[],vertical,"(390.0, 762.0)",1.6,nan,1,17241.76,1
0,769,target,"[(1107, 767)]",[],[1],[0.45],horizontal,"(890.0, 762.0)",1.1666666666666667,0.412,1,17246.745,1
0,770,target,"[(1086, 756)]",[],[1],[0.2],vertical,"(890.0, 262.0)",1.65,0.17,0,17251.626,0
0,771,catch,"[(1188, 143), (1163, 151), (1108, 778)]",[],"[0, 0, 1]",[],horizontal,"(390.0, 262.0)",1.6,nan,1,17256.393,1
0,772,target,"[(1105, 814)]",[],[1],[0.5],horizontal,"(890.0, 262.0)",0.9,0.463,1,17293.34,1
0,773,catch,"[(1129, 791)]",[],[1],[],horizontal,"(890.0, 762.0)",1.6,nan,1,17299.71,1
0,774,target,"[(1095, 764)]",[],[1],[0.5166666666666666],horizontal,"(890.0, 762.0)",0.9,0.479,1,17304.693,2
0,775,target,"[(1124, 769)]",[],[1],[0.18333333333333332],horizontal,"(390.0, 762.0)",1.35,0.149,0,17309.993,0
0,776,target,"[(1110, 769)]",[],[1],[0.7166666666666667],horizontal,"(390.0, 262.0)",0.6833333333333333,0.671,1,17314.602,1
0,777,catch,"[(1110, 761)]",[],[1],[],vertical,"(390.0, 762.0)",1.6,nan,1,17319.177,1
0,778,target,"[(1107, 769)]",[],[1],[0.65],horizontal,"(390.0, 262.0)",1.1166666666666667,0.608,1,17324.277,1
0,779,target,"[(1105, 778)]",[],[1],[0.85],vertical,"(390.0, 762.0)",0.75,nan,0,17330.006,0
0,780,target,"[(1076, 786)]",[],[1],[0.7],horizontal,"(890.0, 762.0)",0.5833333333333334,0.658,1,17334.853,1
0,781,target,"[(1130, 771)]",[],[1],[0.85],vertical,"(890.0, 762.0)",1.55,nan,0,17339.719,0
0,782,target,"[(1047, 793)]",[],[1],[0.6],horizontal,"(890.0, 762.0)",0.7333333333333333,0.561,1,17345.042,1
0,783,target,"[(1105, 765)]",[],[1],[0.48333333333333334],horizontal,"(890.0, 762.0)",1.25,0.444,1,17353.069,1
0,784,target,"[(1100, 766)]",[],[1],[0.5833333333333334],horizontal,"(890.0, 762.0)",0.8333333333333334,0.541,1,17358.376,1
0,785,target,"[(1112, 767)]",[],[1],[0.36666666666666664],vertical,"(390.0, 762.0)",1.6833333333333333,0.33,1,17363.592,2
0,786,target,"[(1110, 781)]",[],[1],[0.6166666666666667],horizontal,"(890.0, 762.0)",0.8333333333333334,0.574,1,17369.596,2
0,787,target,"[(1103, 785)]",[],[1],[0.5833333333333334],horizontal,"(890.0, 262.0)",0.6,0.544,1,17374.912,2
