block,trial,trial_type,taps_start_loc_during_fix,taps_end_loc_during_fix,taps_on_lever_during_fix,taps_on_lever_s_during_fix,bar_orientation,target_xy,cti,rt,acc,time,pulses,fa_rate_recent100,actual_invalid_type
0,1,valid,"[(1105, 846)]",[],[1],[0.43333333333333335],horizontal,"(390.0, 762.0)",0.43333333333333335,0.408,1,0.664,1,0.0,same
0,2,invalid_same_bar,"[(1126, 855)]",[],[1],[0.5666666666666667],vertical,"(890.0, 762.0)",1.2666666666666666,0.529,1,8.624,1,0.0,same
0,3,valid,"[(1140, 810)]",[],[1],[0.85],horizontal,"(890.0, 762.0)",0.9333333333333333,nan,0,72.896,0,0.0,same
0,4,invalid_same_bar,"[(1160, 828)]",[],[1],[0.1],horizontal,"(890.0, 262.0)",1.4166666666666667,0.067,0,77.766,0,0.0,same
0,5,valid,"[(1166, 819)]",[],[1],[0.55],vertical,"(890.0, 762.0)",0.6166666666666667,0.513,1,89.014,1,0.0,same
0,6,valid,"[(1164, 832)]",[],[1],[0.5833333333333334],horizontal,"(390.0, 262.0)",0.5833333333333334,0.546,1,93.882,1,0.0,same
0,7,valid,"[(1157, 794)]",[],[1],[0.31666666666666665],vertical,"(390.0, 762.0)",1.5,0.286,1,98.944,1,0.0,same
0,8,valid,"[(1160, 787)]",[],[1],[0.2833333333333333],horizontal,"(390.0, 762.0)",1.5,0.247,1,104.114,2,0.0,same
0,9,catch,"[(1117, 829)]",[],[1],[],horizontal,"(390.0, 262.0)",1.7,nan,1,109.914,2,0.0,same
0,10,valid,"[(1131, 841)]",[],[1],[0.5333333333333333],horizontal,"(890.0, 262.0)",1.2333333333333334,0.49,1,115.838,2,0.0,same
0,11,catch,"[(1176, 799)]",[],[1],[],horizontal,"(390.0, 762.0)",1.7,nan,1,121.782,3,0.0,same
0,12,valid,"[(1164, 793)]",[],[1],[0.85],horizontal,"(890.0, 262.0)",0.75,nan,0,127.945,0,0.0,same
0,13,valid,"[(1151, 796)]",[],[1],[0.5333333333333333],horizontal,"(390.0, 262.0)",1.1666666666666667,0.494,1,132.283,1,0.0,same
0,14,invalid_same_bar,"[(1158, 827)]",[],[1],[0.85],vertical,"(390.0, 762.0)",1.0166666666666666,nan,0,137.271,0,0.0,same
0,15,catch,"[(1168, 779)]",[],[1],[],horizontal,"(890.0, 762.0)",,"('cti', 1.658),nan",0,141.983,0,0.06666666666666667,same
0,16,valid,"[(1177, 796)]",[],[1],[0.45],horizontal,"(890.0, 262.0)",1.2,0.411,1,146.3,1,0.0625,same
0,17,valid,"[(1155, 779)]",[],[1],[0.5],horizontal,"(890.0, 762.0)",1.4333333333333333,0.463,1,160.483,1,0.058823529411764705,same
0,18,valid,"[(1182, 776)]",[],[1],[0.48333333333333334],vertical,"(390.0, 262.0)",0.8,0.444,1,165.71,1,0.05555555555555555,same
0,19,valid,"[(1185, 780)]",[],[1],[0.3333333333333333],horizontal,"(890.0, 262.0)",1.2,0.298,1,170.524,2,0.05263157894736842,same
0,20,valid,"[(1183, 770)]",[],[1],[0.5],vertical,"(890.0, 262.0)",0.7166666666666667,0.457,1,176.25,2,0.05,same
0,21,valid,"[(1193, 786)]",[],[1],[0.48333333333333334],vertical,"(890.0, 262.0)",0.9833333333333333,0.437,1,181.194,2,0.047619047619047616,same
0,22,valid,"[(1158, 782)]",[],[1],[0.3833333333333333],horizontal,"(890.0, 762.0)",1.2,0.344,1,186.717,3,0.045454545454545456,same
0,23,catch,"[(1201, 795)]",[],[1],[],horizontal,"(890.0, 762.0)",,"('cti', 1.582),nan",0,192.849,0,0.08695652173913043,same
0,24,catch,"[(1188, 791)]",[],[1],[],vertical,"(890.0, 262.0)",1.7,nan,1,197.452,1,0.08333333333333333,same
0,25,valid,"[(1185, 806)]",[],[1],[0.8],horizontal,"(390.0, 762.0)",0.8333333333333334,0.767,1,202.669,1,0.08,same
0,26,valid,"[(1193, 791)]",[],[1],[0.6166666666666667],horizontal,"(390.0, 262.0)",0.6,0.586,1,207.764,1,0.07692307692307693,same
0,27,invalid_adjacent_other_bar,"[(1185, 778)]",[],[1],[0.5333333333333333],horizontal,"(390.0, 262.0)",0.4166666666666667,0.494,1,212.35,2,0.07407407407407407,other
0,28,valid,"[(1184, 780)]",[],[1],[0.5166666666666666],vertical,"(390.0, 262.0)",1.1333333333333333,0.478,1,217.24,2,0.07142857142857142,same
0,29,valid,"[(1185, 796)]",[],[1],[0.45],vertical,"(390.0, 262.0)",0.85,0.417,1,222.581,2,0.06896551724137931,same
0,30,catch,"[(1190, 780)]",[],[1],[],vertical,"(890.0, 762.0)",1.7,nan,1,228.154,3,0.06666666666666667,same
0,31,catch,"[(1194, 783)]",[],[1],[],horizontal,"(890.0, 262.0)",,"('cti', 1.675),nan",0,234.283,0,0.0967741935483871,same
0,32,valid,"[(1125, 780)]",[],[1],[0.5166666666666666],horizontal,"(890.0, 762.0)",0.9333333333333333,0.477,1,238.933,1,0.09375,same
0,33,valid,"[(1180, 798)]",[],[1],[0.5833333333333334],horizontal,"(890.0, 762.0)",0.4666666666666667,0.547,1,244.021,1,0.09090909090909091,same
0,34,valid,"[(1182, 783)]",[],[1],[0.5],vertical,"(390.0, 762.0)",0.8333333333333334,0.472,1,248.334,1,0.08823529411764706,same
0,35,invalid_adjacent_other_bar,"[(1180, 787)]",[],[1],[0.5833333333333334],vertical,"(390.0, 262.0)",0.4166666666666667,0.551,1,253.043,2,0.08571428571428572,other
0,36,valid,"[(1174, 780)]",[],[1],[0.7333333333333333],vertical,"(890.0, 262.0)",0.5833333333333334,0.71,1,258.512,2,0.08333333333333333,same
0,37,valid,"[(1180, 782)]",[],[1],[0.4166666666666667],horizontal,"(890.0, 762.0)",1.4666666666666666,0.379,1,263.89,2,0.08108108108108109,same
0,38,valid,"[(1176, 779)]",[],[1],[0.2],vertical,"(890.0, 262.0)",1.4833333333333334,0.172,0,269.792,0,0.07894736842105263,same
0,39,valid,"[(1190, 780)]",[],[1],[0.5166666666666666],vertical,"(390.0, 262.0)",0.43333333333333335,0.485,1,274.938,1,0.07692307692307693,same
0,40,invalid_adjacent_other_bar,"[(1161, 780)]",[],[1],[0.5],vertical,"(890.0, 262.0)",0.45,0.459,1,279.783,1,0.075,other
0,41,valid,"[(1162, 777)]",[],[1],[0.45],vertical,"(390.0, 262.0)",1.2833333333333332,0.41,1,316.496,1,0.07317073170731707,same
0,42,catch,"[(1172, 780)]",[],[1],[],vertical,"(890.0, 762.0)",,"('cti', 1.066),nan",0,322.132,0,0.09523809523809523,same
0,43,valid,"[(1151, 804)]",[],[1],[0.48333333333333334],vertical,"(390.0, 262.0)",0.9,0.457,1,326.734,1,0.09302325581395349,same
0,44,valid,"[(1160, 806)]",[],[1],[0.7],vertical,"(390.0, 762.0)",0.85,0.669,1,331.593,1,0.09090909090909091,same
0,45,valid,"[(1176, 764)]",[],[1],[0.5166666666666666],horizontal,"(390.0, 762.0)",0.85,0.49,1,336.733,1,0.08888888888888889,same
0,46,valid,"[(1190, 788)]",[],[1],[0.4],vertical,"(890.0, 262.0)",1.2666666666666666,0.367,1,341.587,2,0.08695652173913043,same
0,47,valid,"[(1161, 777)]",[],[1],[0.5666666666666667],horizontal,"(890.0, 762.0)",0.6166666666666667,0.534,1,347.432,2,0.0851063829787234,same
0,48,valid,"[(1174, 784)]",[],[1],[0.5833333333333334],vertical,"(890.0, 262.0)",1.1,0.55,1,352.067,2,0.08333333333333333,same
0,49,valid,"[(1176, 786)]",[],[1],[0.55],vertical,"(390.0, 262.0)",1.2666666666666666,0.51,1,357.729,3,0.08163265306122448,same
0,50,valid,"[(1172, 813)]",[],[1],[0.4666666666666667],horizontal,"(890.0, 762.0)",0.9166666666666666,0.438,1,364.056,3,0.08,same
0,51,valid,"[(1175, 808)]",[],[1],[0.5333333333333333],vertical,"(390.0, 762.0)",1.0166666666666666,0.51,1,369.748,3,0.08,same
0,52,catch,"[(1178, 795)]",[],[1],[],vertical,"(390.0, 762.0)",1.7,nan,1,375.592,3,0.08,same
0,53,valid,"[(1160, 786)]",[],[1],[0.3833333333333333],horizontal,"(390.0, 262.0)",1.2,0.354,1,381.256,3,0.08,same
0,54,valid,"[(1170, 802)]",[],[1],[0.5666666666666667],horizontal,"(390.0, 762.0)",1.1,0.537,1,387.182,3,0.08,same
0,55,valid,"[(1178, 801)]",[],[1],[0.5166666666666666],horizontal,"(390.0, 262.0)",0.5833333333333334,0.491,1,392.806,3,0.08,same
0,56,catch,"[(1165, 806)]",[],[1],[],horizontal,"(390.0, 262.0)",1.7,nan,1,397.834,3,0.08,same
0,57,catch,"[(1170, 811)]",[],[1],[],vertical,"(390.0, 762.0)",1.7,nan,1,403.954,3,0.08,same
0,58,valid,"[(1170, 809)]",[],[1],[0.48333333333333334],horizontal,"(890.0, 762.0)",0.6833333333333333,0.452,1,409.9,3,0.08,same
0,59,catch,"[(1151, 785)]",[],[1],[],vertical,"(390.0, 762.0)",1.7,nan,1,415.021,3,0.08,same
0,60,valid,"[(1162, 786)]",[],[1],[0.48333333333333334],vertical,"(390.0, 262.0)",0.7666666666666666,0.454,1,421.174,3,0.08,same
0,61,valid,"[(1166, 795)]",[],[1],[0.6166666666666667],horizontal,"(890.0, 762.0)",0.6,0.578,1,426.91,3,0.08,same
0,62,valid,"[(1166, 791)]",[],[1],[0.48333333333333334],horizontal,"(390.0, 262.0)",0.5333333333333333,0.443,1,432.193,3,0.08,same
0,63,catch,"[(1160, 791)]",[],[1],[0.03333333333333333],horizontal,"(890.0, 262.0)",1.7,"0.018,nan",0,437.087,0,0.1,same
0,64,valid,"[(1161, 773)]",[],[1],[0.6333333333333333],vertical,"(390.0, 762.0)",1.25,0.594,1,441.766,1,0.1,same
0,65,valid,"[(1159, 787)]",[],[1],[0.5166666666666666],horizontal,"(390.0, 762.0)",0.7666666666666666,0.476,1,447.491,1,0.08,same
0,66,valid,"[(1159, 773)]",[],[1],[0.4666666666666667],vertical,"(890.0, 262.0)",0.8666666666666667,0.43,1,452.119,1,0.08,same
0,67,valid,"[(1171, 792)]",[],[1],[],horizontal,"(890.0, 762.0)",,"('cti', 1.431)",0,456.666,0,0.08,same
0,68,valid,"[(1161, 789)]",[],[1],[0.55],vertical,"(390.0, 762.0)",0.4166666666666667,0.504,1,461.543,1,0.08,same
0,69,invalid_same_bar,"[(1172, 770)]",[],[1],[0.36666666666666664],horizontal,"(890.0, 762.0)",1.4166666666666667,0.329,1,466.136,1,0.08,same
0,70,valid,"[(1176, 778)]",[],[1],[0.65],horizontal,"(890.0, 262.0)",0.43333333333333335,0.601,1,471.535,1,0.08,same
0,71,valid,"[(1160, 782)]",[],[1],[0.55],vertical,"(390.0, 262.0)",0.5333333333333333,0.508,1,475.603,2,0.08,same
0,72,catch,"[(1176, 806)]",[],[1],[],vertical,"(390.0, 762.0)",1.7,nan,1,480.768,2,0.08,same
0,73,valid,"[(1206, 794)]",[],[1],[0.5166666666666666],vertical,"(890.0, 762.0)",0.75,0.476,1,486.05,2,0.06,same
0,74,invalid_adjacent_other_bar,"[(1165, 793)]",[],[1],[0.5166666666666666],horizontal,"(890.0, 262.0)",1.5333333333333332,0.482,1,491.432,3,0.06,other
0,75,valid,"[(1172, 787)]",[],[1],[0.5333333333333333],vertical,"(890.0, 762.0)",0.6,0.498,1,497.6,3,0.06,same
0,76,valid,"[(1160, 791)]",[],[1],[0.48333333333333334],vertical,"(890.0, 762.0)",0.43333333333333335,0.446,1,502.88,3,0.06,same
0,77,valid,"[(1171, 797)]",[],[1],[0.5833333333333334],vertical,"(890.0, 262.0)",0.9833333333333333,0.551,1,507.53,3,0.06,same
0,78,valid,"[(1160, 781)]",[],[1],[0.5],vertical,"(890.0, 762.0)",1.3333333333333333,0.473,1,513.516,3,0.06,same
0,79,valid,"[(1160, 790)]",[],[1],[0.65],vertical,"(390.0, 262.0)",1.0166666666666666,0.625,1,519.266,3,0.06,same
0,80,catch,"[(1160, 784)]",[],[1],[],vertical,"(890.0, 262.0)",1.7,nan,1,525.197,3,0.06,same
0,81,catch,"[(1170, 800)]",[],[1],[],horizontal,"(390.0, 262.0)",1.7,nan,1,530.815,3,0.04,same
0,82,valid,"[(1175, 801)]",[],[1],[0.85],horizontal,"(390.0, 262.0)",0.8666666666666667,nan,0,536.735,0,0.04,same
0,83,invalid_adjacent_other_bar,"[(1159, 786)]",[],[1],[0.5166666666666666],horizontal,"(890.0, 262.0)",0.9,0.487,1,541.483,1,0.04,other
0,84,catch,"[(1160, 795)]",[],[1],[],vertical,"(890.0, 262.0)",1.7,nan,1,546.466,1,0.04,same
0,85,valid,"[(1160, 779)]",[],[1],[0.5],vertical,"(890.0, 762.0)",1.3,0.47,1,552.183,1,0.04,same
0,86,valid,"[(1171, 800)]",[],[1],[0.6333333333333333],vertical,"(390.0, 762.0)",0.55,0.598,1,557.57,2,0.04,same
0,87,catch,"[(1160, 787)]",[],[1],[],vertical,"(390.0, 762.0)",1.7,nan,1,562.226,2,0.04,same
0,88,valid,"[(1176, 804)]",[],[1],[0.6166666666666667],horizontal,"(890.0, 262.0)",0.9833333333333333,0.574,1,567.907,2,0.04,same
0,89,invalid_same_bar,"[(1173, 785)]",[],[1],[0.6333333333333333],vertical,"(390.0, 262.0)",0.6333333333333333,0.589,1,573.791,3,0.04,same
0,90,catch,"[(1160, 785)]",[],[1],[],vertical,"(390.0, 262.0)",1.7,nan,1,579.468,3,0.04,same
0,91,valid,"[(1159, 783)]",[],[1],[0.5166666666666666],horizontal,"(390.0, 762.0)",1.2333333333333334,0.477,1,585.184,3,0.04,same
0,92,valid,"[(1162, 789)]",[],[1],[0.5166666666666666],vertical,"(390.0, 762.0)",1.5333333333333332,0.473,1,590.635,3,0.02,same
0,93,valid,"[(1165, 792)]",[],[1],[0.5166666666666666],horizontal,"(890.0, 762.0)",1.0,0.478,1,597.024,3,0.02,same
0,94,valid,"[(1160, 796)]",[],[1],[0.7],vertical,"(390.0, 262.0)",0.4166666666666667,0.656,1,602.592,3,0.02,same
0,95,valid,"[(1155, 809)]",[],[1],[0.48333333333333334],horizontal,"(390.0, 762.0)",0.7333333333333333,0.444,1,608.034,3,0.02,same
0,96,valid,"[(1170, 773)]",[],[1],[0.5],horizontal,"(390.0, 262.0)",0.48333333333333334,0.458,1,613.751,3,0.02,same
0,97,catch,"[(1159, 789)]",[],[1],[],vertical,"(890.0, 762.0)",1.7,nan,1,619.335,3,0.02,same
0,98,catch,"[(1170, 806)]",[],[1],[],vertical,"(390.0, 262.0)",1.7,nan,1,625.085,3,0.02,same
0,99,invalid_adjacent_other_bar,"[(1160, 787)]",[],[1],[0.65],vertical,"(390.0, 262.0)",0.7833333333333333,0.603,1,631.618,3,0.02,other
0,100,valid,"[(1180, 797)]",[],[1],[0.6166666666666667],vertical,"(890.0, 762.0)",0.65,0.582,1,637.036,3,0.02,same
0,101,catch,"[(1156, 781)]",[],[1],[],horizontal,"(890.0, 762.0)",1.7,nan,1,642.812,3,0.02,same
0,102,valid,"[(1175, 795)]",[],[1],[0.48333333333333334],horizontal,"(890.0, 262.0)",0.7666666666666666,0.446,1,648.968,3,0.02,same
0,103,valid,"[(1161, 805)]",[],[1],[0.55],vertical,"(890.0, 762.0)",1.3333333333333333,0.507,1,654.518,3,0.02,same
0,104,invalid_adjacent_other_bar,"[(1162, 778)]",[],[1],[0.6333333333333333],horizontal,"(390.0, 762.0)",0.8333333333333334,0.592,1,660.711,3,0.02,other
0,105,valid,"[(1158, 760)]",[],[1],[0.6333333333333333],vertical,"(890.0, 262.0)",0.36666666666666664,0.588,1,666.185,3,0.02,same
0,106,valid,"[(1168, 798)]",[],[1],[0.55],vertical,"(890.0, 262.0)",0.8666666666666667,0.508,1,671.403,3,0.02,same
0,107,valid,"[(1159, 782)]",[],[1],[0.5333333333333333],vertical,"(390.0, 762.0)",0.7833333333333333,0.488,1,677.025,3,0.02,same
0,108,valid,"[(1174, 793)]",[],[1],[0.6],vertical,"(890.0, 262.0)",0.4,0.56,1,682.763,3,0.02,same
0,109,valid,"[(1174, 799)]",[],[1],[0.5833333333333334],vertical,"(390.0, 262.0)",1.0666666666666667,0.544,1,688.218,3,0.02,same
0,110,valid,"[(1176, 790)]",[],[1],[0.5166666666666666],horizontal,"(390.0, 262.0)",0.85,0.472,1,694.12,3,0.02,same
0,111,valid,"[(1178, 791)]",[],[1],[0.4666666666666667],vertical,"(890.0, 262.0)",0.5333333333333333,0.425,1,699.453,3,0.02,same
0,112,valid,"[(1172, 792)]",[],[1],[0.55],horizontal,"(890.0, 762.0)",0.6333333333333333,0.503,1,704.952,3,0.02,same
0,113,catch,"[(1169, 782)]",[],[1],[],horizontal,"(890.0, 262.0)",,"('cti', 1.269),nan",0,709.995,0,0.02,same
0,114,valid,"[(1158, 773)]",[],[1],[0.3833333333333333],vertical,"(390.0, 262.0)",1.4166666666666667,0.345,1,714.636,1,0.02,same
0,115,catch,"[(1159, 786)]",[],[1],[],horizontal,"(390.0, 262.0)",1.7,nan,1,719.988,1,0.02,same
0,116,valid,"[(1183, 781)]",[],[1],[0.4166666666666667],horizontal,"(890.0, 762.0)",1.4666666666666666,0.383,1,724.885,1,0.02,same
0,117,valid,"[(1171, 803)]",[],[1],[0.5166666666666666],vertical,"(890.0, 762.0)",0.5833333333333334,0.47,1,729.952,2,0.02,same
0,118,valid,"[(1168, 795)]",[],[1],[0.55],vertical,"(890.0, 762.0)",0.4,0.508,1,735.019,2,0.02,same
0,119,catch,"[(1176, 789)]",[],[1],[],horizontal,"(890.0, 262.0)",1.7,nan,1,740.136,2,0.02,same
0,120,valid,"[(1175, 786)]",[],[1],[0.5666666666666667],vertical,"(390.0, 762.0)",1.4833333333333334,0.523,1,746.19,3,0.02,same
0,121,valid,"[(1166, 787)]",[],[1],[0.5166666666666666],vertical,"(890.0, 262.0)",0.5166666666666666,0.476,1,752.276,3,0.02,same
0,122,valid,"[(1180, 790)]",[],[1],[0.5666666666666667],vertical,"(890.0, 262.0)",1.45,0.524,1,757.586,3,0.02,same
0,123,valid,"[(1170, 781)]",[],[1],[0.5],vertical,"(390.0, 762.0)",0.8333333333333334,0.458,1,763.615,3,0.02,same
0,124,valid,"[(1151, 791)]",[],[1],[0.5166666666666666],horizontal,"(890.0, 262.0)",1.4333333333333333,0.471,1,768.935,3,0.02,same
0,125,valid,"[(1158, 801)]",[],[1],[0.5166666666666666],vertical,"(890.0, 762.0)",0.8833333333333333,0.477,1,774.619,3,0.02,same
0,126,valid,"[(1156, 789)]",[],[1],[0.6166666666666667],vertical,"(390.0, 262.0)",1.1,0.574,1,780.554,3,0.02,same
0,127,valid,"[(1160, 795)]",[],[1],[0.5],horizontal,"(390.0, 262.0)",1.4166666666666667,0.46,1,786.627,3,0.02,same
0,128,valid,"[(1158, 803)]",[],[1],[0.5166666666666666],vertical,"(890.0, 762.0)",1.2666666666666666,0.475,1,792.62,3,0.02,same
0,129,valid,"[(1157, 781)]",[],[1],[0.5833333333333334],horizontal,"(890.0, 762.0)",1.1833333333333333,0.547,1,799.331,3,0.02,same
0,130,valid,"[(1158, 782)]",[],[1],[0.48333333333333334],horizontal,"(390.0, 262.0)",0.75,0.445,1,805.297,3,0.02,same
0,131,valid,"[(1161, 801)]",[],[1],[0.5666666666666667],horizontal,"(890.0, 762.0)",0.4666666666666667,0.531,1,810.537,3,0.02,same
0,132,valid,"[(1159, 803)]",[],[1],[0.5833333333333334],vertical,"(390.0, 762.0)",1.05,0.538,1,816.253,3,0.02,same
0,133,catch,"[(1160, 800)]",[],[1],[],vertical,"(890.0, 762.0)",1.7,nan,1,822.052,3,0.02,same
0,134,valid,"[(1140, 778)]",[],[1],[0.18333333333333332],vertical,"(890.0, 762.0)",1.25,0.15,0,827.695,0,0.02,same
0,135,valid,"[(1155, 832)]",[],[1],[0.6333333333333333],vertical,"(390.0, 262.0)",0.6666666666666666,0.588,1,832.354,1,0.02,same
0,136,valid,"[(1171, 811)]",[],[1],[0.6166666666666667],horizontal,"(890.0, 762.0)",0.8333333333333334,0.576,1,1892.257,1,0.02,same
0,137,valid,"[(1165, 817)]",[],[1],[0.6166666666666667],vertical,"(890.0, 762.0)",1.5,0.571,1,1896.997,1,0.02,same
0,138,catch,"[(1171, 810)]",[],[1],[],horizontal,"(890.0, 762.0)",,"('cti', 1.614),nan",0,1902.491,0,0.04,same
0,139,valid,"[(1157, 820)]",[],[1],[0.5833333333333334],horizontal,"(890.0, 262.0)",1.15,0.544,1,1906.925,1,0.04,same
0,140,valid,"[(1155, 796)]",[],[1],[0.85],vertical,"(890.0, 762.0)",0.8666666666666667,nan,0,1917.212,0,0.04,same
0,141,invalid_adjacent_other_bar,"[(1128, 797)]",[],[1],[0.5],horizontal,"(890.0, 762.0)",1.4666666666666666,0.461,1,1927.77,1,0.04,other
0,142,valid,"[(1167, 801)]",[],[1],[0.7333333333333333],horizontal,"(890.0, 762.0)",0.7666666666666666,0.692,1,1933.874,1,0.04,same
0,143,valid,"[(1175, 780)]",[],[1],[0.5833333333333334],horizontal,"(890.0, 762.0)",1.1333333333333333,0.539,1,1938.875,1,0.04,same
0,144,catch,"[(1164, 793)]",[],[1],[],horizontal,"(890.0, 762.0)",1.7,nan,1,1944.148,2,0.04,same
0,145,valid,"[(1169, 784)]",[],[1],[0.5833333333333334],vertical,"(390.0, 262.0)",1.2,0.544,1,1949.659,2,0.04,same
0,146,catch,"[(1161, 793)]",[],[1],[],vertical,"(890.0, 762.0)",1.7,nan,1,1955.409,2,0.04,same
0,147,catch,"[(1160, 789)]",[],[1],[],vertical,"(390.0, 262.0)",1.7,nan,1,1961.204,3,0.04,same
0,148,catch,"[(1142, 789)]",[],[1],[],vertical,"(390.0, 762.0)",1.7,nan,1,1967.228,3,0.04,same
0,149,valid,"[(1159, 796)]",[],[1],[],vertical,"(390.0, 762.0)",,"('cti', 0.601)",0,1973.097,0,0.04,same
0,150,invalid_same_bar,"[(1162, 791)]",[],[1],[0.7166666666666667],vertical,"(390.0, 762.0)",0.48333333333333334,0.675,1,1976.933,1,0.04,same
0,151,valid,"[(1165, 790)]",[],[1],[0.6],horizontal,"(390.0, 762.0)",0.36666666666666664,0.558,1,1981.654,1,0.04,same
0,152,catch,"[(1165, 789)]",[],[1],[],vertical,"(890.0, 762.0)",1.7,nan,1,1987.969,1,0.04,same
0,153,valid,"[(1168, 795)]",[],[1],[0.6333333333333333],vertical,"(390.0, 762.0)",0.48333333333333334,0.592,1,1993.009,2,0.04,same
0,154,valid,"[(1157, 799)]",[],[1],[0.5833333333333334],horizontal,"(390.0, 262.0)",0.4166666666666667,0.55,1,1997.74,2,0.04,same
0,155,valid,"[(1165, 811)]",[],[1],[0.65],horizontal,"(890.0, 762.0)",0.9666666666666667,0.609,1,2002.458,2,0.04,same
0,156,valid,"[(1160, 777)]",[],[1],[0.7166666666666667],vertical,"(890.0, 762.0)",1.2666666666666666,0.678,1,2007.976,3,0.04,same
0,157,valid,"[(1159, 774)]",[],[1],[0.5166666666666666],horizontal,"(890.0, 262.0)",0.6,0.477,1,2014.108,3,0.04,same
0,158,valid,"[(1160, 776)]",[],[1],[0.5833333333333334],vertical,"(390.0, 762.0)",1.3,0.543,1,2019.358,3,0.04,same
0,159,catch,"[(1161, 791)]",[],[1],[],horizontal,"(390.0, 762.0)",,"('cti', 1.671),nan",0,2025.258,0,0.06,same
0,160,catch,"[(1163, 806)]",[],[1],[],vertical,"(890.0, 762.0)",1.7,nan,1,2029.928,1,0.06,same
0,161,catch,"[(1165, 789)]",[],[1],[],vertical,"(890.0, 262.0)",1.7,nan,1,2035.441,1,0.06,same
0,162,valid,"[(1159, 791)]",[],[1],[0.7166666666666667],horizontal,"(890.0, 762.0)",0.5,0.668,1,2040.8,1,0.06,same
0,163,valid,"[(1160, 770)]",[],[1],[0.45],horizontal,"(390.0, 762.0)",1.2833333333333332,0.409,1,2045.818,2,0.04,same
0,164,valid,"[(1160, 778)]",[],[1],[0.65],vertical,"(390.0, 762.0)",0.8333333333333334,0.612,1,2051.773,2,0.04,same
0,165,catch,"[(1160, 791)]",[],[1],[],horizontal,"(390.0, 262.0)",1.7,nan,1,2057.293,2,0.04,same
0,166,valid,"[(1157, 788)]",[],[1],"[0.85, 0.85]",vertical,"(390.0, 762.0)",1.05,"0.808,nan",0,2063.014,0,0.04,same
0,167,valid,"[(1160, 816)]",[],[1],[0.11666666666666667],vertical,"(890.0, 762.0)",0.8666666666666667,0.084,0,2068.361,0,0.04,same
0,168,valid,"[(1126, 811)]",[],[1],[0.5666666666666667],horizontal,"(890.0, 262.0)",0.35,0.534,1,2072.151,1,0.04,same
0,169,valid,"[(1170, 815)]",[],[1],[0.48333333333333334],horizontal,"(390.0, 262.0)",0.6333333333333333,0.445,1,2078.03,1,0.04,same
0,170,valid,"[(1166, 792)]",[],[1],[0.6333333333333333],horizontal,"(390.0, 762.0)",0.5833333333333334,0.59,1,2082.892,1,0.04,same
0,171,catch,"[(1160, 786)]",[],[1],[],horizontal,"(390.0, 262.0)",,"('cti', 1.404),nan",0,2087.712,0,0.06,same
0,172,catch,"[(1200, 813)]",[],[1],[],horizontal,"(890.0, 762.0)",1.7,nan,1,2092.427,1,0.06,same
0,173,valid,"[(1159, 798)]",[],[1],[0.7166666666666667],vertical,"(390.0, 762.0)",0.9666666666666667,0.676,1,2119.325,1,0.06,same
0,174,catch,"[(1159, 771)]",[],[1],[],vertical,"(890.0, 762.0)",1.7,nan,1,2124.478,1,0.06,same
0,175,catch,"[(1172, 778)]",[],[1],[],horizontal,"(390.0, 262.0)",1.7,nan,1,2129.744,2,0.06,same
0,176,valid,"[(1161, 790)]",[],[1],[0.5166666666666666],vertical,"(390.0, 262.0)",1.4166666666666667,0.477,1,2135.226,2,0.06,same
0,177,valid,"[(1155, 789)]",[],[1],[0.5833333333333334],vertical,"(890.0, 262.0)",0.55,0.547,1,2141.195,2,0.06,same
0,178,valid,"[(1157, 781)]",[],[1],[0.85],vertical,"(390.0, 262.0)",0.9833333333333333,nan,0,2146.143,0,0.06,same
0,179,valid,"[(1156, 811)]",[],[1],[0.8333333333333334],horizontal,"(890.0, 262.0)",0.9,0.792,1,2150.943,1,0.06,same
0,180,valid,"[(1165, 799)]",[],[1],[0.5333333333333333],vertical,"(390.0, 762.0)",0.9666666666666667,0.493,1,2156.343,1,0.06,same
0,181,valid,"[(1139, 814)]",[],[1],[0.7166666666666667],vertical,"(890.0, 262.0)",1.2333333333333334,0.671,1,2161.446,1,0.06,same
0,182,catch,"[(1133, 785)]",[],[1],[],vertical,"(890.0, 262.0)",1.7,nan,1,2166.983,2,0.06,same
0,183,valid,"[(1171, 799)]",[],[1],[],vertical,"(390.0, 262.0)",,"('cti', 0.529)",0,2180.165,0,0.06,same
0,184,catch,"[(1159, 799)]",[],[1],[],vertical,"(390.0, 262.0)",1.7,nan,1,2184.275,1,0.06,same
0,185,catch,"[(1165, 810)]",[],[1],[],vertical,"(390.0, 762.0)",1.7,nan,1,2190.178,1,0.06,same
0,186,valid,"[(1167, 781)]",[],[1],[0.5333333333333333],horizontal,"(390.0, 762.0)",0.55,0.493,1,2195.268,1,0.06,same
0,187,valid,"[(1166, 799)]",[],[1],[0.5833333333333334],horizontal,"(390.0, 262.0)",1.5,0.546,1,2199.612,2,0.06,same
0,188,catch,"[(1166, 793)]",[],[1],[],vertical,"(890.0, 262.0)",1.7,nan,1,2205.583,2,0.04,same
0,189,catch,"[(1150, 787)]",[],[1],[],vertical,"(390.0, 762.0)",1.7,nan,1,2211.382,2,0.04,same
0,190,valid,"[(1166, 812)]",[],[1],[0.65],vertical,"(890.0, 762.0)",0.36666666666666664,0.607,1,2217.257,3,0.04,same
0,191,valid,"[(1159, 759)]",[],[1],[0.6166666666666667],horizontal,"(390.0, 262.0)",1.35,0.575,1,2223.195,3,0.04,same
0,192,catch,"[(1166, 783)]",[],[1],[],vertical,"(390.0, 262.0)",1.7,nan,1,2229.163,3,0.04,same
0,193,valid,"[(1160, 786)]",[],[1],[0.55],horizontal,"(390.0, 762.0)",0.5333333333333333,0.508,1,2234.926,3,0.04,same
0,194,valid,"[(1171, 767)]",[],[1],[0.7333333333333333],horizontal,"(890.0, 762.0)",0.9666666666666667,0.7,1,2240.203,3,0.04,same
0,195,valid,"[(1175, 791)]",[],[1],[0.55],vertical,"(890.0, 762.0)",0.65,0.506,1,2245.81,3,0.04,same
0,196,valid,"[(1169, 795)]",[],[1],[0.5833333333333334],vertical,"(390.0, 762.0)",0.55,0.541,1,2251.093,3,0.04,same
0,197,invalid_adjacent_other_bar,"[(1165, 773)]",[],[1],[],vertical,"(390.0, 262.0)",,"('cti', 1.289)",0,2256.733,0,0.04,other
0,198,valid,"[(1150, 806)]",[],[1],[0.6166666666666667],vertical,"(390.0, 762.0)",1.15,0.578,1,2261.396,1,0.04,same
0,199,catch,"[(1161, 796)]",[],[1],[],vertical,"(890.0, 762.0)",1.7,nan,1,2269.86,1,0.04,same
0,200,catch,"[(1146, 781)]",[],[1],[],horizontal,"(390.0, 262.0)",1.7,nan,1,2275.33,1,0.04,same
0,201,valid,"[(1169, 787)]",[],[1],[0.6833333333333333],horizontal,"(890.0, 762.0)",1.1166666666666667,0.64,1,2280.97,2,0.04,same
0,202,valid,"[(1169, 795)]",[],[1],[0.6],horizontal,"(890.0, 762.0)",0.9666666666666667,0.56,1,2287.036,2,0.04,same
0,203,valid,"[(1159, 775)]",[],[1],[0.5333333333333333],vertical,"(390.0, 262.0)",0.55,0.49,1,2292.315,2,0.04,same
0,204,valid,"[(1166, 786)]",[],[1],[0.55],vertical,"(390.0, 262.0)",0.9,0.513,1,2297.013,3,0.04,same
0,205,valid,"[(1161, 804)]",[],[1],[0.6833333333333333],horizontal,"(890.0, 762.0)",0.85,0.637,1,2302.967,3,0.04,same
0,206,valid,"[(1161, 789)]",[],[1],[0.6833333333333333],vertical,"(390.0, 762.0)",1.2333333333333334,0.645,1,2308.912,3,0.04,same
0,207,valid,"[(1133, 820)]",[],[1],[0.85],vertical,"(890.0, 762.0)",0.6666666666666666,nan,0,2314.777,0,0.04,same
0,208,valid,"[(1136, 803)]",[],[1],[0.8],horizontal,"(890.0, 762.0)",0.7833333333333333,0.751,1,2319.709,1,0.04,same
0,209,catch,"[(1162, 786)]",[],[1],[],horizontal,"(890.0, 262.0)",1.7,nan,1,2324.892,1,0.02,same
0,210,valid,"[(1169, 790)]",[],[1],[0.5666666666666667],vertical,"(890.0, 762.0)",0.4166666666666667,0.522,1,2329.928,1,0.02,same
0,211,valid,"[(1166, 789)]",[],[1],[0.55],horizontal,"(390.0, 762.0)",0.95,0.508,1,2334.744,2,0.02,same
0,212,valid,"[(1167, 799)]",[],[1],[0.6666666666666666],horizontal,"(390.0, 762.0)",0.8833333333333333,0.624,1,2340.544,2,0.02,same
0,213,catch,"[(1170, 814)]",[],[1],[],vertical,"(890.0, 262.0)",1.7,nan,1,2346.126,2,0.02,same
0,214,invalid_adjacent_other_bar,"[(1162, 785)]",[],[1],[0.5166666666666666],vertical,"(890.0, 762.0)",1.35,0.476,1,2351.703,3,0.02,other
0,215,catch,"[(1170, 802)]",[],[1],[],horizontal,"(390.0, 762.0)",1.7,nan,1,2358.326,3,0.02,same
0,216,valid,"[(1146, 789)]",[],[1],[0.6333333333333333],vertical,"(890.0, 262.0)",0.5833333333333334,0.587,1,2363.911,3,0.02,same
0,217,valid,"[(1142, 782)]",[],[1],[0.5666666666666667],vertical,"(390.0, 262.0)",0.5833333333333334,0.532,1,2369.652,3,0.02,same
0,218,valid,"[(1165, 786)]",[],[1],[0.5166666666666666],horizontal,"(390.0, 762.0)",1.3666666666666667,0.476,1,2375.096,3,0.02,same
0,219,valid,"[(1159, 786)]",[],[1],[0.6333333333333333],horizontal,"(890.0, 262.0)",0.43333333333333335,0.589,1,2381.411,3,0.02,same
0,220,catch,"[(1151, 785)]",[],[1],[],vertical,"(390.0, 762.0)",1.7,nan,1,2386.944,3,0.02,same
0,221,catch,"[(1171, 776)]",[],[1],[],vertical,"(890.0, 262.0)",1.7,nan,1,2392.982,3,0.0,same
0,222,valid,"[(1175, 789)]",[],[1],[0.45],horizontal,"(390.0, 262.0)",1.25,0.417,1,2398.87,3,0.0,same
0,223,catch,"[(1160, 808)]",[],[1],[],horizontal,"(890.0, 262.0)",1.7,nan,1,2404.826,3,0.0,same
0,224,valid,"[(1157, 807)]",[],[1],[0.6333333333333333],vertical,"(390.0, 762.0)",0.4166666666666667,0.59,1,2410.443,3,0.0,same
0,225,valid,"[(1160, 783)]",[],[1],[0.25],horizontal,"(890.0, 262.0)",1.2333333333333334,0.214,1,2415.74,3,0.0,same
0,226,catch,"[(1157, 772)]",[],[1],[],vertical,"(390.0, 262.0)",1.7,nan,1,2421.593,3,0.0,same
0,227,catch,"[(1164, 770)]",[],[1],[],horizontal,"(390.0, 262.0)",1.7,nan,1,2427.86,3,0.0,same
0,228,valid,"[(1136, 803)]",[],[1],[0.5666666666666667],horizontal,"(890.0, 262.0)",0.7333333333333333,0.526,1,2434.06,3,0.0,same
0,229,catch,"[(1163, 787)]",[],[1],[],horizontal,"(390.0, 762.0)",1.7,nan,1,2439.844,3,0.0,same
0,230,valid,"[(1160, 776)]",[],[1],[0.6666666666666666],vertical,"(390.0, 762.0)",0.45,0.625,1,2446.127,3,0.0,same
0,231,valid,"[(1159, 786)]",[],[1],[0.85],vertical,"(390.0, 262.0)",0.8666666666666667,nan,0,2451.128,0,0.0,same
0,232,valid,"[(1157, 785)]",[],[1],[0.5333333333333333],vertical,"(890.0, 262.0)",0.8666666666666667,0.493,1,2456.11,1,0.0,same
0,233,valid,"[(1159, 806)]",[],[1],[0.5666666666666667],horizontal,"(390.0, 262.0)",0.8,0.524,1,2461.143,1,0.0,same
0,234,valid,"[(1167, 787)]",[],[1],[0.85],horizontal,"(390.0, 762.0)",0.8,nan,0,2466.542,0,0.0,same
0,235,valid,"[(1156, 776)]",[],[1],[0.85],vertical,"(890.0, 762.0)",0.75,nan,0,2471.377,0,0.0,same
0,236,valid,"[(1160, 796)]",[],[1],[0.5666666666666667],vertical,"(890.0, 262.0)",0.7333333333333333,0.526,1,2475.714,1,0.0,same
0,237,invalid_adjacent_other_bar,"[(1141, 779)]",[],[1],[0.7],horizontal,"(890.0, 262.0)",1.4333333333333333,0.657,1,2485.855,1,0.0,other
0,238,valid,"[(1170, 798)]",[],[1],[0.6166666666666667],horizontal,"(890.0, 262.0)",0.35,0.571,1,2491.261,1,0.0,same
0,239,catch,"[(1174, 788)]",[],[1],[],horizontal,"(890.0, 262.0)",1.7,nan,1,2495.727,2,0.0,same
0,240,valid,"[(1170, 790)]",[],[1],[0.6333333333333333],vertical,"(890.0, 762.0)",0.7666666666666666,0.588,1,2501.478,2,0.0,same
0,241,catch,"[(1160, 789)]",[],[1],[],vertical,"(890.0, 762.0)",1.7,nan,1,2507.461,2,0.0,same
0,242,valid,"[(1173, 782)]",[],[1],[0.6333333333333333],horizontal,"(390.0, 262.0)",1.2833333333333332,0.593,1,2512.728,3,0.0,same
0,243,valid,"[(1141, 774)]",[],[1],[0.6333333333333333],vertical,"(890.0, 762.0)",1.3833333333333333,0.591,1,2518.993,3,0.0,same
0,244,valid,"[(1155, 806)]",[],[1],[0.6],horizontal,"(390.0, 762.0)",0.85,0.559,1,2525.023,3,0.0,same
0,245,valid,"[(1151, 789)]",[],[1],[0.6],vertical,"(890.0, 762.0)",0.75,0.56,1,2530.495,3,0.0,same
0,246,valid,"[(1146, 789)]",[],[1],[0.5166666666666666],vertical,"(390.0, 262.0)",0.4666666666666667,0.479,1,2536.345,3,0.0,same
0,247,catch,"[(1157, 798)]",[],[1],[],vertical,"(890.0, 262.0)",1.7,nan,1,2541.327,3,0.0,same
0,248,valid,"[(1161, 783)]",[],[1],[0.35],vertical,"(390.0, 762.0)",1.4333333333333333,0.309,1,2547.339,3,0.0,same
0,249,valid,"[(1171, 766)]",[],[1],[0.6666666666666666],horizontal,"(890.0, 262.0)",1.15,0.621,1,2553.778,3,0.0,same
0,250,valid,"[(1161, 796)]",[],[1],[0.7333333333333333],horizontal,"(890.0, 762.0)",1.0166666666666666,0.686,1,2559.703,3,0.0,same
0,251,catch,"[(1156, 788)]",[],[1],[],horizontal,"(890.0, 762.0)",1.7,nan,1,2565.429,3,0.0,same
0,252,valid,"[(1155, 788)]",[],[1],[0.5],horizontal,"(390.0, 762.0)",1.5,0.459,1,2571.328,3,0.0,same
0,253,valid,"[(1158, 773)]",[],[1],[0.5166666666666666],horizontal,"(390.0, 262.0)",1.4166666666666667,0.476,1,2577.352,3,0.0,same
0,254,valid,"[(1162, 792)]",[],[1],[0.6666666666666666],horizontal,"(890.0, 262.0)",1.1666666666666667,0.621,1,2583.485,3,0.0,same
0,255,invalid_adjacent_other_bar,"[(1173, 782)]",[],[1],[0.55],horizontal,"(890.0, 762.0)",1.2333333333333334,0.508,1,2589.652,3,0.0,other
0,256,valid,"[(1178, 793)]",[],[1],[0.4666666666666667],horizontal,"(890.0, 262.0)",1.45,0.429,1,2595.919,3,0.0,same
0,257,valid,"[(1160, 791)]",[],[1],[0.6333333333333333],horizontal,"(390.0, 762.0)",1.1,0.592,1,2602.21,3,0.0,same
0,258,invalid_same_bar,"[(1163, 776)]",[],[1],[0.5333333333333333],horizontal,"(890.0, 262.0)",0.7333333333333333,0.491,1,2607.829,3,0.0,same
0,259,valid,"[(1160, 775)]",[],[1],[0.5666666666666667],horizontal,"(390.0, 762.0)",0.7833333333333333,0.524,1,2613.413,3,0.0,same
0,260,catch,"[(1171, 772)]",[],[1],[],vertical,"(390.0, 262.0)",1.7,nan,1,2618.912,3,0.0,same
0,261,valid,"[(1165, 773)]",[],[1],[0.4166666666666667],horizontal,"(890.0, 262.0)",1.5333333333333332,0.374,1,2624.78,3,0.0,same
0,262,valid,"[(1174, 782)]",[],[1],[0.65],horizontal,"(390.0, 762.0)",1.25,0.605,1,2630.811,3,0.0,same
0,263,valid,"[(1175, 785)]",[],[1],[0.7333333333333333],horizontal,"(390.0, 262.0)",0.36666666666666664,0.691,1,2636.967,3,0.0,same
0,264,valid,"[(1162, 792)]",[],[1],[0.55],horizontal,"(890.0, 262.0)",0.7333333333333333,0.51,1,2642.436,3,0.0,same
0,265,valid,"[(1161, 779)]",[],[1],[0.7666666666666666],vertical,"(390.0, 262.0)",0.6166666666666667,0.721,1,2647.844,3,0.0,same
0,266,valid,"[(1161, 795)]",[],[1],[0.7],vertical,"(890.0, 762.0)",1.3,0.653,1,2653.914,3,0.0,same
0,267,catch,"[(1166, 788)]",[],[1],[],horizontal,"(390.0, 762.0)",1.7,nan,1,2659.845,3,0.0,same
0,268,valid,"[(1173, 763)]",[],[1],[0.6],horizontal,"(390.0, 262.0)",0.5666666666666667,0.563,1,2665.556,3,0.0,same
0,269,catch,"[(1162, 782)]",[],[1],[],horizontal,"(390.0, 762.0)",1.7,nan,1,2670.712,3,0.0,same
0,270,catch,"[(1165, 788)]",[],[1],[],vertical,"(890.0, 262.0)",1.7,nan,1,2677.044,3,0.0,same
0,271,valid,"[(1156, 766)]",[],[1],[0.85],horizontal,"(390.0, 262.0)",0.7833333333333333,nan,0,2683.073,0,0.0,same
0,272,valid,"[(1141, 789)]",[],[1],[0.6166666666666667],horizontal,"(890.0, 762.0)",0.5833333333333334,0.573,1,2687.583,1,0.0,same
0,273,valid,"[(1132, 801)]",[],[1],[0.5666666666666667],horizontal,"(890.0, 762.0)",0.75,0.526,1,2692.628,1,0.0,same
0,274,valid,"[(1166, 801)]",[],[1],[0.55],vertical,"(890.0, 762.0)",1.0,0.513,1,2698.03,1,0.0,same
0,275,valid,"[(1161, 777)]",[],[1],[0.5833333333333334],horizontal,"(890.0, 262.0)",1.0666666666666667,0.541,1,2703.049,2,0.0,same
0,276,valid,"[(1165, 777)]",[],[1],[0.6],horizontal,"(390.0, 262.0)",1.3833333333333333,0.553,1,2709.101,2,0.0,same
0,277,valid,"[(1156, 788)]",[],[1],[0.5666666666666667],vertical,"(890.0, 262.0)",1.1833333333333333,0.52,1,2714.812,2,0.0,same
0,278,valid,"[(1176, 792)]",[],[1],[0.85],vertical,"(390.0, 762.0)",0.8333333333333334,nan,0,2720.849,0,0.0,same
0,279,valid,"[(1155, 815)]",[],[1],[0.85],horizontal,"(390.0, 262.0)",1.2333333333333334,nan,0,2725.861,0,0.0,same
0,280,valid,"[(1140, 809)]",[],[1],[0.5166666666666666],horizontal,"(890.0, 262.0)",1.3166666666666667,0.48,1,2731.562,1,0.0,same
0,281,valid,"[(1160, 764)]",[],[1],[0.6],vertical,"(390.0, 762.0)",1.35,0.559,1,2737.374,1,0.0,same
0,282,valid,"[(1166, 778)]",[],[1],[0.65],horizontal,"(890.0, 262.0)",0.48333333333333334,0.605,1,2742.712,1,0.0,same
0,283,valid,"[(1166, 789)]",[],[1],[0.6333333333333333],vertical,"(390.0, 762.0)",0.65,0.59,1,2747.647,2,0.0,same
0,284,catch,"[(1165, 772)]",[],[1],[],vertical,"(890.0, 262.0)",1.7,nan,1,2752.996,2,0.0,same
0,285,catch,"[(1168, 792)]",[],[1],[],vertical,"(390.0, 262.0)",1.7,nan,1,2758.672,2,0.0,same
0,286,valid,"[(1170, 793)]",[],[1],[0.55],vertical,"(390.0, 262.0)",1.3166666666666667,0.513,1,2764.64,3,0.0,same
0,287,valid,"[(1165, 783)]",[],[1],[0.8333333333333334],horizontal,"(390.0, 262.0)",1.1666666666666667,0.783,1,2771.123,3,0.0,same
0,288,valid,"[(1174, 782)]",[],[1],[0.6],vertical,"(890.0, 762.0)",1.0833333333333333,0.559,1,2777.011,3,0.0,same
0,289,catch,"[(1159, 785)]",[],[1],[],horizontal,"(390.0, 262.0)",1.7,nan,1,2782.878,3,0.0,same
0,290,valid,"[(1160, 778)]",[],[1],[0.5333333333333333],horizontal,"(890.0, 262.0)",1.05,0.496,1,2788.803,3,0.0,same
0,291,catch,"[(1179, 791)]",[],[1],[],horizontal,"(390.0, 762.0)",1.7,nan,1,2794.458,3,0.0,same
0,292,catch,"[(1168, 778)]",[],[1],[],horizontal,"(390.0, 762.0)",1.7,nan,1,2800.873,3,0.0,same
0,293,valid,"[(1162, 796)]",[],[1],[0.6833333333333333],vertical,"(390.0, 762.0)",1.2666666666666666,0.642,1,2806.451,3,0.0,same
0,294,valid,"[(1171, 780)]",[],[1],[0.6],vertical,"(390.0, 762.0)",1.35,0.554,1,2812.638,3,0.0,same
0,295,valid,"[(1159, 782)]",[],[1],[0.5166666666666666],horizontal,"(890.0, 262.0)",1.2833333333333332,0.474,1,2818.687,3,0.0,same
0,296,valid,"[(1155, 780)]",[],[1],[0.85],vertical,"(890.0, 762.0)",0.8833333333333333,nan,0,2824.581,0,0.0,same
0,297,valid,"[(1139, 802)]",[],[1],[0.5666666666666667],horizontal,"(890.0, 762.0)",1.2833333333333332,0.522,1,2829.435,1,0.0,same
0,298,valid,"[(1168, 775)]",[],[1],[0.7666666666666666],vertical,"(890.0, 262.0)",0.9166666666666666,0.72,1,2835.0,1,0.0,same
0,299,invalid_adjacent_other_bar,"[(1161, 782)]",[],[1],[0.6],horizontal,"(390.0, 762.0)",0.65,0.557,1,2840.401,1,0.0,other
0,300,valid,"[(1159, 766)]",[],[1],[0.6666666666666666],horizontal,"(890.0, 262.0)",0.7,0.621,1,2844.945,2,0.0,same
0,301,valid,"[(1157, 779)]",[],[1],[0.65],vertical,"(390.0, 762.0)",0.6,0.606,1,2850.079,2,0.0,same
0,302,invalid_adjacent_other_bar,"[(1171, 786)]",[],[1],[0.85],horizontal,"(390.0, 262.0)",1.1666666666666667,nan,0,2855.203,0,0.0,other
0,303,valid,"[(1150, 800)]",[],[1],[0.6],horizontal,"(390.0, 262.0)",0.65,0.561,1,2860.479,1,0.0,same
0,304,valid,"[(1161, 773)]",[],[1],[0.5333333333333333],horizontal,"(390.0, 762.0)",1.3166666666666667,0.494,1,2864.833,1,0.0,same
0,305,valid,"[(1158, 780)]",[],[1],[0.5833333333333334],horizontal,"(890.0, 262.0)",0.7333333333333333,0.543,1,2870.291,1,0.0,same
0,306,valid,"[(1164, 795)]",[],[1],[0.7666666666666666],horizontal,"(890.0, 762.0)",0.6333333333333333,0.723,1,2875.23,2,0.0,same
0,307,valid,"[(1165, 791)]",[],[1],[0.5333333333333333],vertical,"(890.0, 762.0)",0.48333333333333334,0.494,1,2880.729,2,0.0,same
0,308,valid,"[(1164, 781)]",[],[1],[0.5666666666666667],vertical,"(890.0, 762.0)",1.3666666666666667,0.524,1,2885.479,2,0.0,same
0,309,catch,"[(1161, 784)]",[],[1],[],vertical,"(890.0, 762.0)",1.7,nan,1,2891.389,3,0.0,same
0,310,valid,"[(1157, 801)]",[],[1],[],horizontal,"(390.0, 262.0)",,"('fix', 0.527)",0,2897.479,0,0.0,same
0,311,valid,"[(1147, 816)]",[],[1],[0.45],vertical,"(890.0, 762.0)",1.3666666666666667,0.411,1,2899.312,1,0.0,same
0,312,valid,"[(1160, 779)]",[],[1],[0.6],horizontal,"(390.0, 262.0)",0.45,0.554,1,2905.801,1,0.0,same
0,313,valid,"[(1163, 775)]",[],[1],[0.6333333333333333],horizontal,"(890.0, 262.0)",0.48333333333333334,0.588,1,2910.779,1,0.0,same
0,314,valid,"[(1157, 774)]",[],[1],[0.55],horizontal,"(390.0, 762.0)",1.4,0.509,1,2915.619,2,0.0,same
0,315,catch,"[(1158, 758)]",[],[1],[],horizontal,"(890.0, 262.0)",,"('cti', 1.657),nan",0,2921.479,0,0.02,same
0,316,valid,"[(1126, 816)]",[],[1],[0.5666666666666667],horizontal,"(890.0, 762.0)",0.65,0.523,1,2926.56,1,0.02,same
0,317,valid,"[(1159, 784)]",[],[1],[0.65],horizontal,"(890.0, 262.0)",0.5333333333333333,0.618,1,2933.896,1,0.02,same
0,318,valid,"[(1173, 772)]",[],[1],[0.6166666666666667],horizontal,"(390.0, 262.0)",0.7166666666666667,0.569,1,2938.897,1,0.02,same
0,319,valid,"[(1171, 790)]",[],[1],[0.55],vertical,"(890.0, 262.0)",1.45,0.511,1,2943.563,2,0.02,same
0,320,valid,"[(1171, 786)]",[],[1],[0.65],vertical,"(390.0, 262.0)",1.3833333333333333,0.606,1,2949.896,2,0.02,same
0,321,valid,"[(1174, 786)]",[],[1],[0.6166666666666667],vertical,"(890.0, 762.0)",0.48333333333333334,0.575,1,2955.697,2,0.02,same
0,322,valid,"[(1179, 773)]",[],[1],[0.85],vertical,"(390.0, 762.0)",0.48333333333333334,nan,0,2960.399,0,0.02,same
0,323,invalid_adjacent_other_bar,"[(1135, 793)]",[],[1],[0.6],vertical,"(390.0, 262.0)",1.0166666666666666,0.555,1,2964.905,1,0.02,other
0,324,valid,"[(1162, 766)]",[],[1],[0.6166666666666667],horizontal,"(890.0, 762.0)",0.7333333333333333,0.573,1,2969.946,1,0.02,same
0,325,valid,"[(1177, 777)]",[],[1],[0.5666666666666667],vertical,"(390.0, 762.0)",0.36666666666666664,0.525,1,2974.801,1,0.02,same
0,326,invalid_same_bar,"[(1168, 785)]",[],[1],[0.55],vertical,"(890.0, 762.0)",0.7833333333333333,0.508,1,2979.099,2,0.02,same
0,327,valid,"[(1175, 756)]",[],[1],[0.5166666666666666],horizontal,"(390.0, 762.0)",1.4833333333333334,0.478,1,2984.629,2,0.02,same
0,328,valid,"[(1156, 783)]",[],[1],[0.5666666666666667],vertical,"(390.0, 762.0)",1.4833333333333334,0.538,1,2990.271,2,0.02,same
0,329,valid,"[(1170, 784)]",[],[1],[0.6333333333333333],horizontal,"(890.0, 762.0)",1.2833333333333332,0.593,1,2996.764,3,0.02,same
0,330,catch,"[(1170, 786)]",[],[1],[],horizontal,"(390.0, 262.0)",1.7,nan,1,3003.234,3,0.02,same
0,331,valid,"[(1162, 804)]",[],[1],[0.5666666666666667],vertical,"(890.0, 262.0)",1.0666666666666667,0.526,1,3009.521,3,0.02,same
0,332,catch,"[(1164, 778)]",[],[1],[],horizontal,"(890.0, 762.0)",1.7,nan,1,3015.248,3,0.02,same
0,333,catch,"[(1160, 775)]",[],[1],[],vertical,"(390.0, 762.0)",1.7,nan,1,3021.031,3,0.02,same
0,334,catch,"[(1172, 769)]",[],[1],[],horizontal,"(390.0, 262.0)",1.7,nan,1,3027.029,3,0.02,same
0,335,catch,"[(1160, 766)]",[],[1],[],horizontal,"(890.0, 762.0)",1.7,nan,1,3032.648,3,0.02,same
0,336,valid,"[(1168, 787)]",[],[1],[0.5833333333333334],vertical,"(890.0, 762.0)",0.7333333333333333,0.538,1,3039.087,3,0.02,same
0,337,valid,"[(1165, 769)]",[],[1],[0.5833333333333334],vertical,"(890.0, 262.0)",1.35,0.545,1,3044.343,3,0.02,same
0,338,valid,"[(1153, 797)]",[],[1],[0.7166666666666667],horizontal,"(390.0, 262.0)",1.5166666666666666,0.683,1,3050.799,3,0.02,same
0,339,valid,"[(1170, 772)]",[],[1],[0.5833333333333334],vertical,"(890.0, 262.0)",0.6166666666666667,0.54,1,3057.284,3,0.02,same
0,340,valid,"[(1133, 790)]",[],[1],[0.7166666666666667],vertical,"(890.0, 762.0)",0.6166666666666667,0.67,1,3062.496,3,0.02,same
0,341,valid,"[(1166, 772)]",[],[1],[0.55],vertical,"(890.0, 762.0)",0.55,0.514,1,3068.08,3,0.02,same
0,342,valid,"[(1162, 769)]",[],[1],[0.85],vertical,"(890.0, 262.0)",0.6,nan,0,3073.613,0,0.02,same
0,343,valid,"[(1141, 788)]",[],[1],[0.4666666666666667],horizontal,"(890.0, 262.0)",1.5333333333333332,0.423,1,3078.047,1,0.02,same
0,344,valid,"[(1170, 791)]",[],[1],[0.5666666666666667],vertical,"(390.0, 262.0)",0.4666666666666667,0.526,1,3083.413,1,0.02,same
0,345,catch,"[(1151, 790)]",[],[1],[],vertical,"(390.0, 262.0)",1.7,nan,1,3087.814,1,0.02,same
0,346,valid,"[(1159, 790)]",[],[1],[0.6166666666666667],horizontal,"(890.0, 762.0)",1.25,0.576,1,3093.196,2,0.02,same
0,347,catch,"[(1170, 766)]",[],[1],[],horizontal,"(390.0, 762.0)",1.7,nan,1,3099.563,2,0.02,same
0,348,catch,"[(1191, 802)]",[],[1],[],vertical,"(890.0, 262.0)",1.7,nan,1,3105.063,2,0.02,same
0,349,catch,"[(1171, 787)]",[],[1],[],vertical,"(890.0, 762.0)",,"('cti', 1.49),nan",0,3110.871,0,0.04,same
0,350,valid,"[(1157, 786)]",[],[1],[0.5833333333333334],horizontal,"(890.0, 762.0)",1.1833333333333333,0.541,1,3116.014,1,0.04,same
0,351,valid,"[(1168, 775)]",[],[1],[0.65],vertical,"(390.0, 262.0)",1.2833333333333332,0.611,1,3121.391,1,0.04,same
0,352,valid,"[(1159, 780)]",[],[1],[0.5333333333333333],vertical,"(390.0, 762.0)",1.3166666666666667,0.494,1,3126.628,1,0.04,same
0,353,valid,"[(1145, 769)]",[],[1],[],vertical,"(390.0, 262.0)",,"('cti', 1.053)",0,3131.68,0,0.04,same
0,354,valid,"[(1132, 801)]",[],[1],[0.5666666666666667],vertical,"(390.0, 762.0)",1.1166666666666667,0.524,1,3136.229,1,0.04,same
0,355,valid,"[(1160, 795)]",[],[1],[0.7166666666666667],vertical,"(890.0, 262.0)",0.48333333333333334,0.675,1,3148.237,1,0.04,same
0,356,invalid_adjacent_other_bar,"[(1156, 791)]",[],[1],[0.65],horizontal,"(890.0, 762.0)",0.7166666666666667,0.607,1,3153.325,1,0.04,other
0,357,invalid_adjacent_other_bar,"[(1160, 776)]",[],[1],[0.85],vertical,"(390.0, 762.0)",0.85,nan,0,3158.253,0,0.04,other
0,358,catch,"[(1160, 806)]",[],[1],[],horizontal,"(890.0, 262.0)",1.7,nan,1,3163.18,1,0.04,same
0,359,valid,"[(1132, 827)]",[],[1],[0.5666666666666667],vertical,"(390.0, 762.0)",0.9666666666666667,0.535,1,3168.793,1,0.04,same
0,360,valid,"[(1165, 794)]",[],[1],[0.5333333333333333],vertical,"(390.0, 262.0)",0.8166666666666667,0.502,1,3174.132,1,0.04,same
0,361,valid,"[(1158, 756)]",[],[1],[0.5333333333333333],horizontal,"(390.0, 262.0)",0.6666666666666666,0.491,1,3178.909,2,0.04,same
0,362,valid,"[(1151, 792)]",[],[1],[0.6166666666666667],vertical,"(890.0, 762.0)",0.7,0.574,1,3183.772,2,0.04,same
0,363,valid,"[(1165, 796)]",[],[1],[0.6333333333333333],vertical,"(390.0, 762.0)",0.8,0.597,1,3188.88,2,0.04,same
0,364,valid,"[(1159, 778)]",[],[1],[0.6666666666666666],horizontal,"(390.0, 762.0)",0.55,0.627,1,3194.063,3,0.04,same
0,365,valid,"[(1160, 796)]",[],[1],[0.6833333333333333],vertical,"(390.0, 262.0)",0.4666666666666667,0.643,1,3199.823,3,0.02,same
0,366,catch,"[(1171, 777)]",[],[1],[],vertical,"(890.0, 262.0)",1.7,nan,1,3205.348,3,0.02,same
0,367,catch,"[(1164, 791)]",[],[1],[],vertical,"(390.0, 762.0)",1.7,nan,1,3211.248,3,0.02,same
0,368,valid,"[(1165, 791)]",[],[1],[0.6166666666666667],horizontal,"(890.0, 262.0)",0.8666666666666667,0.574,1,3217.236,3,0.02,same
0,369,valid,"[(1168, 791)]",[],[1],[0.6666666666666666],vertical,"(390.0, 762.0)",1.3666666666666667,0.635,1,3223.198,3,0.02,same
0,370,catch,"[(1183, 765)]",[],[1],[],horizontal,"(890.0, 262.0)",1.7,nan,1,3229.303,3,0.02,same
0,371,valid,"[(1161, 763)]",[],[1],[0.75],vertical,"(890.0, 262.0)",0.9,0.707,1,3235.18,3,0.02,same
0,372,valid,"[(1161, 764)]",[],[1],[0.6333333333333333],vertical,"(390.0, 262.0)",0.9833333333333333,0.594,1,3241.233,3,0.02,same
0,373,catch,"[(1170, 772)]",[],[1],[],vertical,"(890.0, 762.0)",1.7,nan,1,3247.548,3,0.02,same
0,374,invalid_adjacent_other_bar,"[(1160, 757)]",[],[1],[0.4166666666666667],horizontal,"(390.0, 762.0)",1.5166666666666666,0.377,1,3253.582,3,0.02,other
0,375,valid,"[(1160, 772)]",[],[1],[0.48333333333333334],horizontal,"(890.0, 762.0)",1.3666666666666667,0.447,1,3260.013,3,0.02,same
0,376,valid,"[(1162, 772)]",[],[1],[0.6166666666666667],horizontal,"(890.0, 262.0)",0.5833333333333334,0.572,1,3266.015,3,0.02,same
0,377,valid,"[(1166, 776)]",[],[1],[0.7166666666666667],vertical,"(390.0, 762.0)",0.8333333333333334,0.673,1,3271.681,3,0.02,same
0,378,valid,"[(1137, 786)]",[],[1],[0.6333333333333333],vertical,"(890.0, 762.0)",1.2833333333333332,0.594,1,3277.344,3,0.02,same
0,379,valid,"[(1160, 782)]",[],[1],[0.48333333333333334],horizontal,"(890.0, 262.0)",1.1666666666666667,0.449,1,3283.81,3,0.02,same
0,380,valid,"[(1175, 773)]",[],[1],[0.5333333333333333],horizontal,"(390.0, 762.0)",0.75,0.493,1,3289.442,3,0.02,same
0,381,valid,"[(1166, 791)]",[],[1],[0.65],vertical,"(390.0, 262.0)",1.1,0.61,1,3295.307,3,0.02,same
0,382,valid,"[(1153, 763)]",[],[1],[0.5],vertical,"(890.0, 262.0)",1.5333333333333332,0.463,1,3301.379,3,0.02,same
0,383,valid,"[(1170, 778)]",[],[1],[0.6833333333333333],horizontal,"(890.0, 262.0)",0.43333333333333335,0.639,1,3307.697,3,0.02,same
0,384,valid,"[(1167, 782)]",[],[1],[0.6333333333333333],vertical,"(390.0, 262.0)",1.0166666666666666,0.589,1,3313.164,3,0.02,same
0,385,valid,"[(1162, 783)]",[],[1],[0.85],horizontal,"(890.0, 762.0)",1.1666666666666667,nan,0,3319.272,0,0.02,same
0,386,valid,"[(1148, 796)]",[],[1],[0.6166666666666667],horizontal,"(390.0, 762.0)",1.25,0.573,1,3324.016,1,0.02,same
0,387,valid,"[(1168, 761)]",[],[1],[0.6166666666666667],vertical,"(890.0, 762.0)",1.1833333333333333,0.577,1,3329.54,1,0.02,same
0,388,valid,"[(1109, 827)]",[],[1],[0.6333333333333333],vertical,"(890.0, 262.0)",0.5,0.594,1,3335.564,1,0.02,same
0,389,valid,"[(1157, 793)]",[],[1],[0.5166666666666666],horizontal,"(390.0, 262.0)",1.4,0.477,1,3340.859,2,0.02,same
0,390,valid,"[(1159, 778)]",[],[1],[0.55],horizontal,"(890.0, 262.0)",0.48333333333333334,0.507,1,3346.781,2,0.02,same
0,391,invalid_same_bar,"[(1160, 776)]",[],[1],[0.6166666666666667],vertical,"(890.0, 762.0)",0.4666666666666667,0.579,1,3351.749,2,0.02,same
0,392,valid,"[(1160, 812)]",[],[1],[0.6333333333333333],vertical,"(890.0, 762.0)",0.8333333333333334,0.593,1,3356.443,3,0.02,same
0,393,valid,"[(1160, 777)]",[],[1],[0.85],vertical,"(890.0, 762.0)",0.5333333333333333,nan,0,3362.265,0,0.02,same
0,394,valid,"[(1136, 780)]",[],[1],[0.45],vertical,"(390.0, 762.0)",1.3333333333333333,0.414,1,3366.264,1,0.02,same
0,395,catch,"[(1159, 775)]",[],[1],[],vertical,"(390.0, 262.0)",1.7,nan,1,3371.881,1,0.02,same
0,396,valid,"[(1154, 771)]",[],[1],[0.55],horizontal,"(890.0, 762.0)",1.4,0.507,1,3377.099,1,0.02,same
0,397,valid,"[(1163, 774)]",[],[1],[0.6166666666666667],horizontal,"(390.0, 762.0)",0.6166666666666667,0.583,1,3382.618,2,0.02,same
0,398,valid,"[(1163, 776)]",[],[1],[0.5833333333333334],horizontal,"(890.0, 262.0)",1.4666666666666666,0.54,1,3387.782,2,0.02,same
0,399,catch,"[(1161, 790)]",[],[1],[],vertical,"(890.0, 762.0)",1.7,nan,1,3393.649,2,0.0,same
0,400,valid,"[(1164, 787)]",[],[1],[0.5666666666666667],vertical,"(890.0, 262.0)",1.3166666666666667,0.52,1,3399.349,3,0.0,same
0,401,valid,"[(1160, 790)]",[],[1],[0.7],vertical,"(890.0, 762.0)",0.7333333333333333,0.659,1,3405.727,3,0.0,same
0,402,valid,"[(1154, 781)]",[],[1],[0.85],horizontal,"(390.0, 762.0)",0.5833333333333334,nan,0,3411.233,0,0.0,same
0,403,catch,"[(1144, 792)]",[],[1],[],horizontal,"(390.0, 262.0)",1.7,nan,1,3415.166,1,0.0,same
0,404,catch,"[(1154, 785)]",[],[1],[],vertical,"(390.0, 762.0)",1.7,nan,1,3420.191,1,0.0,same
0,405,valid,"[(1169, 776)]",[],[1],[0.55],horizontal,"(890.0, 262.0)",0.8666666666666667,0.506,1,3425.105,1,0.0,same
0,406,catch,"[(1156, 764)]",[],[1],[],vertical,"(390.0, 262.0)",1.7,nan,1,3430.232,2,0.0,same
0,407,valid,"[(1161, 763)]",[],[1],[0.4166666666666667],vertical,"(390.0, 762.0)",1.4666666666666666,0.375,1,3435.782,2,0.0,same
0,408,valid,"[(1156, 776)]",[],[1],[0.5166666666666666],horizontal,"(890.0, 262.0)",1.4,0.477,1,3441.798,2,0.0,same
0,409,valid,"[(1167, 786)]",[],[1],[0.85],vertical,"(390.0, 262.0)",0.4,nan,0,3448.165,0,0.0,same
0,410,valid,"[(1132, 791)]",[],[1],[0.7166666666666667],horizontal,"(890.0, 262.0)",0.8666666666666667,0.68,1,3452.498,1,0.0,same
0,411,catch,"[(1160, 773)]",[],[1],[],vertical,"(890.0, 262.0)",1.7,nan,1,3457.451,1,0.0,same
0,412,valid,"[(1171, 773)]",[],[1],[0.6333333333333333],horizontal,"(890.0, 762.0)",0.7666666666666666,0.591,1,3462.684,1,0.0,same
0,413,valid,"[(1164, 773)]",[],[1],[0.5833333333333334],vertical,"(890.0, 262.0)",1.3166666666666667,0.54,1,3467.182,2,0.0,same
0,414,valid,"[(1146, 772)]",[],[1],[0.65],vertical,"(390.0, 262.0)",1.3,0.605,1,3472.675,2,0.0,same
0,415,valid,"[(1160, 794)]",[],[1],[0.7333333333333333],vertical,"(890.0, 762.0)",1.0833333333333333,0.691,1,3478.828,2,0.0,same
0,416,valid,"[(1159, 772)]",[],[1],[0.5666666666666667],horizontal,"(890.0, 762.0)",0.45,0.527,1,3484.703,3,0.0,same
0,417,catch,"[(1155, 796)]",[],[1],[],vertical,"(890.0, 262.0)",1.7,nan,1,3490.048,3,0.0,same
0,418,valid,"[(1155, 772)]",[],[1],[0.6166666666666667],horizontal,"(390.0, 762.0)",1.0333333333333332,0.573,1,3496.149,3,0.0,same
0,419,valid,"[(1141, 785)]",[],[1],[0.5666666666666667],horizontal,"(390.0, 262.0)",1.5,0.524,1,3502.147,3,0.0,same
0,420,valid,"[(1153, 786)]",[],[1],[0.5333333333333333],vertical,"(890.0, 262.0)",1.45,0.496,1,3508.315,3,0.0,same
0,421,valid,"[(1141, 781)]",[],[1],[0.7333333333333333],vertical,"(390.0, 262.0)",1.25,0.689,1,3514.611,3,0.0,same
0,422,catch,"[(1171, 794)]",[],[1],[],vertical,"(890.0, 262.0)",1.7,nan,1,3520.86,3,0.0,same
0,423,valid,"[(1159, 785)]",[],[1],[0.85],vertical,"(890.0, 762.0)",1.0666666666666667,nan,0,3527.074,0,0.0,same
0,424,valid,"[(1142, 782)]",[],[1],[0.6666666666666666],vertical,"(390.0, 762.0)",1.5,0.623,1,3531.932,1,0.0,same
0,425,valid,"[(1156, 777)]",[],[1],[0.55],vertical,"(890.0, 262.0)",0.9666666666666667,0.51,1,3537.346,1,0.0,same
0,426,valid,"[(1157, 781)]",[],[1],[0.85],vertical,"(890.0, 762.0)",0.36666666666666664,nan,0,3542.065,0,0.0,same
0,427,catch,"[(1135, 790)]",[],[1],[],horizontal,"(390.0, 262.0)",1.7,nan,1,3546.098,1,0.0,same
0,428,valid,"[(1141, 778)]",[],[1],[0.6333333333333333],vertical,"(890.0, 762.0)",1.3166666666666667,0.596,1,3551.512,1,0.0,same
0,429,catch,"[(1160, 780)]",[],[1],[],vertical,"(390.0, 262.0)",1.7,nan,1,3557.216,1,0.0,same
0,430,catch,"[(1154, 793)]",[],[1],[],vertical,"(390.0, 262.0)",1.7,nan,1,3562.349,2,0.0,same
0,431,valid,"[(1160, 790)]",[],[1],[0.6333333333333333],horizontal,"(890.0, 262.0)",1.05,0.592,1,3567.683,2,0.0,same
0,432,valid,"[(1172, 785)]",[],[1],[0.6333333333333333],horizontal,"(390.0, 762.0)",0.8166666666666667,0.588,1,3573.262,2,0.0,same
0,433,valid,"[(1165, 808)]",[],[1],[0.55],horizontal,"(390.0, 762.0)",1.45,0.506,1,3578.533,3,0.0,same
0,434,valid,"[(1140, 765)]",[],[1],[0.5666666666666667],vertical,"(390.0, 762.0)",1.4166666666666667,0.527,1,3584.715,3,0.0,same
0,435,catch,"[(1161, 770)]",[],[1],[],horizontal,"(890.0, 262.0)",1.7,nan,1,3590.993,3,0.0,same
0,436,valid,"[(1155, 791)]",[],[1],[0.65],vertical,"(390.0, 262.0)",0.9333333333333333,0.608,1,3597.375,3,0.0,same
0,437,catch,"[(1157, 798)]",[],[1],[],horizontal,"(390.0, 762.0)",1.7,nan,1,3603.25,3,0.0,same
0,438,catch,"[(1163, 788)]",[],[1],[],vertical,"(390.0, 762.0)",1.7,nan,1,3609.506,3,0.0,same
0,439,catch,"[(1172, 786)]",[],[1],[],horizontal,"(390.0, 762.0)",,"('cti', 1.299),nan",0,3615.499,0,0.02,same
0,440,valid,"[(1137, 782)]",[],[1],[0.5833333333333334],vertical,"(390.0, 762.0)",0.36666666666666664,0.537,1,3619.883,1,0.02,same
0,441,valid,"[(1170, 781)]",[],[1],[0.6],horizontal,"(390.0, 762.0)",1.1166666666666667,0.561,1,3624.065,1,0.02,same
0,442,valid,"[(1153, 775)]",[],[1],[0.85],horizontal,"(890.0, 262.0)",0.35,nan,0,3629.034,0,0.02,same
0,443,catch,"[(1132, 782)]",[],[1],[],horizontal,"(390.0, 262.0)",1.7,nan,1,3633.364,1,0.02,same
0,444,valid,"[(1166, 770)]",[],[1],[0.65],vertical,"(390.0, 262.0)",1.35,0.609,1,3638.45,1,0.02,same
0,445,catch,"[(1169, 757)]",[],[1],[],horizontal,"(390.0, 762.0)",1.7,nan,1,3643.616,1,0.02,same
0,446,valid,"[(1161, 777)]",[],[1],[0.6666666666666666],horizontal,"(390.0, 762.0)",1.05,0.622,1,3648.849,2,0.02,same
0,447,invalid_same_bar,"[(1171, 777)]",[],[1],[0.48333333333333334],vertical,"(390.0, 262.0)",1.5333333333333332,0.446,1,3654.376,2,0.02,same
0,448,valid,"[(1170, 782)]",[],[1],[0.5666666666666667],vertical,"(390.0, 762.0)",1.5166666666666666,0.525,1,3660.432,2,0.02,same
0,449,valid,"[(1151, 769)]",[],[1],[0.6833333333333333],vertical,"(890.0, 762.0)",0.7333333333333333,0.649,1,3666.55,3,0.02,same
0,450,catch,"[(1166, 761)]",[],[1],[],vertical,"(890.0, 762.0)",1.7,nan,1,3672.265,3,0.02,same
0,451,valid,"[(1161, 765)]",[],[1],[0.5333333333333333],horizontal,"(890.0, 262.0)",0.4,0.489,1,3677.981,3,0.02,same
0,452,valid,"[(1170, 786)]",[],[1],[0.5166666666666666],vertical,"(890.0, 262.0)",1.45,0.476,1,3683.388,3,0.02,same
0,453,valid,"[(1153, 777)]",[],[1],[0.5],horizontal,"(390.0, 762.0)",1.2,0.461,1,3689.298,3,0.02,same
0,454,valid,"[(1164, 772)]",[],[1],[0.6],vertical,"(390.0, 262.0)",0.55,0.561,1,3695.494,3,0.02,same
0,455,catch,"[(1167, 774)]",[],[1],[],horizontal,"(890.0, 762.0)",1.7,nan,1,3701.183,3,0.02,same
0,456,valid,"[(1157, 775)]",[],[1],[0.6166666666666667],horizontal,"(890.0, 262.0)",0.5,0.576,1,3707.044,3,0.02,same
0,457,valid,"[(1162, 791)]",[],[1],[0.85],vertical,"(390.0, 262.0)",1.0666666666666667,nan,0,3712.817,0,0.02,same
0,458,valid,"[(1138, 796)]",[],[1],[0.5833333333333334],vertical,"(390.0, 762.0)",1.5,0.539,1,3717.681,1,0.02,same
0,459,valid,"[(1150, 771)]",[],[1],[0.5666666666666667],vertical,"(890.0, 262.0)",1.2666666666666666,0.532,1,3723.149,1,0.02,same
0,460,valid,"[(1154, 782)]",[],[1],[0.5666666666666667],vertical,"(390.0, 262.0)",0.5333333333333333,0.527,1,3728.437,1,0.02,same
0,461,valid,"[(1154, 779)]",[],[1],[0.7],horizontal,"(390.0, 762.0)",0.7833333333333333,0.651,1,3732.891,2,0.02,same
0,462,valid,"[(1159, 780)]",[],[1],[0.6833333333333333],vertical,"(890.0, 762.0)",0.6333333333333333,0.637,1,3738.416,2,0.02,same
0,463,valid,"[(1175, 772)]",[],[1],[0.6833333333333333],vertical,"(890.0, 262.0)",1.3666666666666667,0.642,1,3743.967,2,0.02,same
0,464,catch,"[(1169, 773)]",[],[1],[],vertical,"(890.0, 262.0)",1.7,nan,1,3749.983,3,0.02,same
0,465,catch,"[(1159, 774)]",[],[1],[],horizontal,"(390.0, 262.0)",1.7,nan,1,3756.25,3,0.02,same
0,466,catch,"[(1156, 772)]",[],[1],[],horizontal,"(890.0, 762.0)",1.7,nan,1,3762.1,3,0.02,same
0,467,valid,"[(1166, 778)]",[],[1],[0.7166666666666667],vertical,"(390.0, 262.0)",1.1166666666666667,0.671,1,3768.384,3,0.02,same
0,468,catch,"[(1171, 763)]",[],[1],[],horizontal,"(890.0, 762.0)",1.7,nan,1,3774.317,3,0.02,same
0,469,valid,"[(1166, 783)]",[],[1],[0.7],vertical,"(890.0, 262.0)",1.2166666666666666,0.648,1,3780.266,3,0.02,same
0,470,valid,"[(1171, 760)]",[],[1],[0.6166666666666667],vertical,"(890.0, 262.0)",0.6666666666666666,0.573,1,3786.236,3,0.02,same
0,471,valid,"[(1172, 777)]",[],[1],[0.48333333333333334],horizontal,"(390.0, 262.0)",1.4833333333333334,0.448,1,3791.634,3,0.02,same
0,472,valid,"[(1165, 793)]",[],[1],[0.5833333333333334],horizontal,"(890.0, 762.0)",1.45,0.55,1,3797.716,3,0.02,same
0,473,valid,"[(1164, 770)]",[],[1],[0.5166666666666666],horizontal,"(390.0, 762.0)",1.4333333333333333,0.478,1,3803.933,3,0.02,same
0,474,valid,"[(1164, 765)]",[],[1],[0.6],horizontal,"(390.0, 762.0)",1.4,0.556,1,3810.599,3,0.02,same
0,475,catch,"[(1154, 787)]",[],[1],[],horizontal,"(890.0, 762.0)",1.7,nan,1,3816.593,3,0.02,same
0,476,catch,"[(1155, 786)]",[],[1],[],vertical,"(890.0, 762.0)",1.7,nan,1,3822.683,3,0.02,same
0,477,valid,"[(1170, 775)]",[],[1],[0.6666666666666666],vertical,"(390.0, 762.0)",0.9166666666666666,0.623,1,3828.501,3,0.02,same
0,478,valid,"[(1160, 781)]",[],[1],[0.6333333333333333],vertical,"(890.0, 762.0)",1.2,0.603,1,3834.199,3,0.02,same
0,479,valid,"[(1171, 756)]",[],[1],[0.55],vertical,"(890.0, 262.0)",0.9666666666666667,0.506,1,3840.396,3,0.02,same
0,480,valid,"[(1147, 786)]",[],[1],[0.6],horizontal,"(890.0, 262.0)",1.0666666666666667,0.557,1,3846.116,3,0.02,same
0,481,valid,"[(1166, 791)]",[],[1],[0.6],horizontal,"(390.0, 262.0)",0.7666666666666666,0.556,1,3852.168,3,0.02,same
0,482,valid,"[(1159, 786)]",[],[1],[0.35],horizontal,"(890.0, 262.0)",1.2666666666666666,0.31,1,3857.851,3,0.02,same
0,483,invalid_same_bar,"[(1176, 772)]",[],[1],[0.6833333333333333],vertical,"(890.0, 762.0)",1.0666666666666667,0.636,1,3864.021,3,0.02,same
0,484,valid,"[(1159, 776)]",[],[1],[0.6666666666666666],vertical,"(890.0, 762.0)",0.7666666666666666,0.628,1,3870.338,3,0.02,same
0,485,catch,"[(1158, 775)]",[],[1],[],horizontal,"(390.0, 262.0)",1.7,nan,1,3875.669,3,0.02,same
0,486,valid,"[(1156, 765)]",[],[1],[0.5333333333333333],vertical,"(390.0, 262.0)",0.8333333333333334,0.49,1,3881.785,3,0.02,same
0,487,valid,"[(1157, 783)]",[],[1],[0.6166666666666667],horizontal,"(390.0, 762.0)",0.9,0.573,1,3887.584,3,0.02,same
0,488,valid,"[(1167, 778)]",[],[1],[0.5333333333333333],horizontal,"(390.0, 262.0)",0.4666666666666667,0.493,1,3893.567,3,0.02,same
0,489,invalid_adjacent_other_bar,"[(1160, 781)]",[],[1],[0.6166666666666667],vertical,"(890.0, 762.0)",0.6333333333333333,0.577,1,3898.633,3,0.0,other
0,490,catch,"[(1141, 793)]",[],[1],[],vertical,"(890.0, 762.0)",1.7,nan,1,3904.043,3,0.0,same
0,491,catch,"[(1161, 781)]",[],[1],[],horizontal,"(390.0, 262.0)",1.7,nan,1,3910.28,3,0.0,same
0,492,catch,"[(1158, 774)]",[],[1],[],horizontal,"(390.0, 262.0)",1.7,nan,1,3916.122,3,0.0,same
0,493,catch,"[(1160, 786)]",[],[1],[],vertical,"(390.0, 762.0)",1.7,nan,1,3922.426,3,0.0,same
0,494,valid,"[(1162, 771)]",[],[1],[0.6666666666666666],vertical,"(390.0, 762.0)",0.85,0.626,1,3928.497,3,0.0,same
0,495,catch,"[(1167, 786)]",[],[1],[],horizontal,"(390.0, 262.0)",1.7,nan,1,3933.875,3,0.0,same
0,496,valid,"[(1158, 776)]",[],[1],[0.65],vertical,"(390.0, 262.0)",1.3666666666666667,0.606,1,3939.967,3,0.0,same
0,497,valid,"[(1162, 791)]",[],[1],[0.7],vertical,"(890.0, 762.0)",0.43333333333333335,0.657,1,3945.938,3,0.0,same
0,498,valid,"[(1165, 787)]",[],[1],[0.55],vertical,"(390.0, 762.0)",1.4666666666666666,0.507,1,3951.749,3,0.0,same
0,499,valid,"[(1159, 781)]",[],[1],[0.55],vertical,"(890.0, 262.0)",0.8833333333333333,0.509,1,3958.385,3,0.0,same
0,500,invalid_adjacent_other_bar,"[(1161, 772)]",[],[1],[0.7666666666666666],horizontal,"(890.0, 762.0)",0.4,0.721,1,3964.014,3,0.0,other
0,501,valid,"[(1159, 769)]",[],[1],[0.6166666666666667],horizontal,"(890.0, 262.0)",1.3666666666666667,0.576,1,3969.17,3,0.0,same
0,502,valid,"[(1158, 769)]",[],[1],[0.6666666666666666],horizontal,"(890.0, 262.0)",0.4,0.618,1,3975.251,3,0.0,same
0,503,catch,"[(1166, 777)]",[],[1],[],vertical,"(390.0, 762.0)",1.7,nan,1,3980.793,3,0.0,same
0,504,valid,"[(1147, 778)]",[],[1],[0.6166666666666667],horizontal,"(390.0, 762.0)",1.4166666666666667,0.569,1,3987.018,3,0.0,same
0,505,valid,"[(1171, 792)]",[],[1],[0.6],horizontal,"(890.0, 762.0)",1.4,0.554,1,3993.252,3,0.0,same
0,506,valid,"[(1175, 792)]",[],[1],[0.6],horizontal,"(390.0, 762.0)",0.4,0.553,1,3999.862,3,0.0,same
0,507,valid,"[(1159, 781)]",[],[1],[0.85],horizontal,"(390.0, 762.0)",0.36666666666666664,nan,0,4005.118,0,0.0,same
0,508,valid,"[(1135, 786)]",[],[1],[0.5666666666666667],horizontal,"(390.0, 262.0)",0.85,0.525,1,4009.654,1,0.0,same
0,509,invalid_same_bar,"[(1155, 780)]",[],[1],[0.65],horizontal,"(890.0, 762.0)",1.1666666666666667,0.605,1,4014.718,1,0.0,same
0,510,valid,"[(1175, 779)]",[],[1],[0.6],vertical,"(390.0, 262.0)",1.2666666666666666,0.56,1,4020.118,1,0.0,same
0,511,valid,"[(1159, 791)]",[],[1],[0.85],vertical,"(390.0, 262.0)",1.05,nan,0,4025.572,0,0.0,same
0,512,invalid_same_bar,"[(1142, 791)]",[],[1],[0.5333333333333333],vertical,"(890.0, 262.0)",1.4833333333333334,0.491,1,4030.386,1,0.0,same
0,513,valid,"[(1142, 775)]",[],[1],[0.7],vertical,"(890.0, 762.0)",0.5166666666666666,0.655,1,4036.235,1,0.0,same
0,514,catch,"[(1162, 775)]",[],[1],[],vertical,"(890.0, 762.0)",1.7,nan,1,4041.151,1,0.0,same
0,515,catch,"[(1162, 778)]",[],[1],[],vertical,"(890.0, 262.0)",1.7,nan,1,4046.684,2,0.0,same
0,516,valid,"[(1160, 790)]",[],[1],[0.6666666666666666],horizontal,"(390.0, 762.0)",1.1333333333333333,0.623,1,4052.652,2,0.0,same
0,517,valid,"[(1152, 782)]",[],[1],[0.5666666666666667],horizontal,"(890.0, 762.0)",0.8666666666666667,0.523,1,4058.305,2,0.0,same
0,518,catch,"[(1168, 773)]",[],[1],[],horizontal,"(890.0, 262.0)",1.7,nan,1,4063.801,3,0.0,same
0,519,valid,"[(1157, 766)]",[],[1],[0.6666666666666666],vertical,"(390.0, 762.0)",0.7666666666666666,0.623,1,4070.085,3,0.0,same
0,520,valid,"[(1138, 778)]",[],[1],[0.5666666666666667],vertical,"(390.0, 762.0)",0.9666666666666667,0.522,1,4075.799,3,0.0,same
0,521,catch,"[(1157, 779)]",[],[1],[],vertical,"(890.0, 262.0)",1.7,nan,1,4082.001,3,0.0,same
0,522,valid,"[(1157, 771)]",[],[1],[0.6333333333333333],horizontal,"(890.0, 762.0)",0.6333333333333333,0.589,1,4087.984,3,0.0,same
0,523,valid,"[(1160, 772)]",[],[1],[0.8],horizontal,"(890.0, 762.0)",0.6166666666666667,0.752,1,4093.707,3,0.0,same
0,524,valid,"[(1175, 791)]",[],[1],[0.48333333333333334],vertical,"(390.0, 762.0)",1.5333333333333332,0.443,1,4099.053,3,0.0,same
0,525,valid,"[(1167, 769)]",[],[1],[0.6833333333333333],vertical,"(890.0, 762.0)",0.48333333333333334,0.64,1,4105.45,3,0.0,same
0,526,invalid_same_bar,"[(1160, 789)]",[],[1],[0.65],vertical,"(890.0, 762.0)",1.2166666666666666,0.608,1,4111.068,3,0.0,same
0,527,catch,"[(1170, 772)]",[],[1],[],vertical,"(890.0, 762.0)",1.7,nan,1,4117.101,3,0.0,same
0,528,valid,"[(1146, 777)]",[],[1],[0.5833333333333334],vertical,"(890.0, 262.0)",1.4,0.542,1,4123.051,3,0.0,same
0,529,valid,"[(1158, 767)]",[],[1],[0.5666666666666667],vertical,"(390.0, 262.0)",1.3,0.532,1,4128.985,3,0.0,same
0,530,valid,"[(1166, 777)]",[],[1],[0.5666666666666667],vertical,"(890.0, 762.0)",0.8666666666666667,0.53,1,4134.951,3,0.0,same
0,531,valid,"[(1154, 762)]",[],[1],[0.5666666666666667],vertical,"(890.0, 762.0)",0.4666666666666667,0.529,1,4140.636,3,0.0,same
0,532,valid,"[(1157, 783)]",[],[1],[0.7666666666666666],horizontal,"(890.0, 762.0)",0.8333333333333334,0.724,1,4145.803,3,0.0,same
0,533,valid,"[(1159, 766)]",[],[1],[0.6],vertical,"(390.0, 762.0)",0.6833333333333333,0.563,1,4151.868,3,0.0,same
0,534,valid,"[(1166, 770)]",[],[1],[0.48333333333333334],vertical,"(890.0, 262.0)",1.45,0.445,1,4157.852,3,0.0,same
0,535,valid,"[(1167, 754)]",[],[1],[0.7666666666666666],horizontal,"(390.0, 762.0)",1.0166666666666666,0.716,1,4164.425,3,0.0,same
0,536,catch,"[(1159, 780)]",[],[1],[],vertical,"(890.0, 762.0)",1.7,nan,1,4170.32,3,0.0,same
0,537,catch,"[(1174, 765)]",[],[1],[],vertical,"(890.0, 762.0)",1.7,nan,1,4176.344,3,0.0,same
0,538,valid,"[(1167, 799)]",[],[1],[0.7833333333333333],vertical,"(890.0, 762.0)",0.5666666666666667,0.738,1,4182.37,3,0.0,same
0,539,valid,"[(1161, 767)]",[],[1],[0.8],horizontal,"(890.0, 762.0)",0.7166666666666667,0.754,1,4188.518,3,0.0,same
0,540,valid,"[(1170, 778)]",[],[1],[0.85],vertical,"(390.0, 762.0)",0.45,nan,0,4194.092,0,0.0,same
0,541,catch,"[(1134, 784)]",[],[1],[],vertical,"(390.0, 762.0)",1.7,nan,1,4198.635,1,0.0,same
0,542,valid,"[(1164, 770)]",[],[1],[0.35],horizontal,"(890.0, 262.0)",1.0333333333333332,0.31,1,4203.668,1,0.0,same
0,543,catch,"[(1178, 777)]",[],[1],[],vertical,"(390.0, 262.0)",1.7,nan,1,4209.003,1,0.0,same
0,544,valid,"[(1164, 778)]",[],[1],[0.6833333333333333],vertical,"(390.0, 262.0)",0.4,0.641,1,4214.028,2,0.0,same
0,545,catch,"[(1160, 772)]",[],[1],[],horizontal,"(390.0, 262.0)",1.7,nan,1,4219.063,2,0.0,same
0,546,catch,"[(1174, 799)]",[],[1],[],horizontal,"(890.0, 762.0)",1.7,nan,1,4224.618,2,0.0,same
0,547,valid,"[(1166, 798)]",[],[1],[0.65],vertical,"(890.0, 762.0)",0.6833333333333333,0.609,1,4230.253,3,0.0,same
0,548,valid,"[(1167, 776)]",[],[1],[0.65],horizontal,"(390.0, 762.0)",0.8,0.605,1,4236.269,3,0.0,same
0,549,valid,"[(1138, 776)]",[],[1],[0.65],vertical,"(390.0, 262.0)",0.5333333333333333,0.604,1,4241.653,3,0.0,same
0,550,valid,"[(1181, 780)]",[],[1],[0.65],horizontal,"(390.0, 262.0)",1.4833333333333334,0.61,1,4247.352,3,0.0,same
0,551,catch,"[(1156, 773)]",[],[1],[],horizontal,"(890.0, 262.0)",1.7,nan,1,4253.435,3,0.0,same
0,552,valid,"[(1164, 803)]",[],[1],[0.6666666666666666],vertical,"(890.0, 762.0)",1.2833333333333332,0.624,1,4259.403,3,0.0,same
0,553,valid,"[(1155, 767)]",[],[1],[0.6],horizontal,"(890.0, 762.0)",0.55,0.558,1,4265.52,3,0.0,same
0,554,valid,"[(1161, 796)]",[],[1],[0.6],vertical,"(390.0, 262.0)",1.1166666666666667,0.562,1,4270.886,3,0.0,same
0,555,catch,"[(1166, 751), (1136, 830)]",[],"[0, 1]",[],vertical,"(390.0, 762.0)",1.7,nan,1,4277.002,3,0.0,same
0,556,catch,"[(1160, 778)]",[],[1],[],horizontal,"(390.0, 762.0)",1.7,nan,1,4284.869,3,0.0,same
0,557,catch,"[(1159, 767)]",[],[1],[],vertical,"(390.0, 762.0)",1.7,nan,1,4290.794,3,0.0,same
0,558,valid,"[(1164, 763)]",[],[1],[0.7833333333333333],horizontal,"(390.0, 762.0)",0.4666666666666667,0.733,1,4296.68,3,0.0,same
0,559,valid,"[(1171, 768)]",[],[1],[0.6833333333333333],horizontal,"(390.0, 262.0)",1.05,0.637,1,4302.186,3,0.0,same
0,560,catch,"[(1166, 776)]",[],[1],[],horizontal,"(890.0, 262.0)",1.7,nan,1,4307.853,3,0.0,same
0,561,valid,"[(1174, 777)]",[],[1],[0.6],horizontal,"(890.0, 762.0)",0.9666666666666667,0.562,1,4313.895,3,0.0,same
0,562,valid,"[(1160, 757)]",[],[1],[0.6333333333333333],horizontal,"(890.0, 762.0)",0.8666666666666667,0.596,1,4319.478,3,0.0,same
0,563,catch,"[(1147, 778)]",[],[1],[],horizontal,"(390.0, 762.0)",1.7,nan,1,4325.052,3,0.0,same
0,564,valid,"[(1157, 769)]",[],[1],[0.6],vertical,"(390.0, 762.0)",0.9666666666666667,0.559,1,4331.171,3,0.0,same
0,565,catch,"[(1136, 752), (1134, 790)]",[],"[0, 1]",[],horizontal,"(890.0, 762.0)",,"('cti', 1.599),nan",0,4336.812,0,0.02,same
0,566,valid,"[(1160, 791)]",[],[1],[0.6166666666666667],vertical,"(890.0, 262.0)",1.15,0.569,1,4343.174,1,0.02,same
0,567,valid,"[(1159, 776)]",[],[1],[0.6833333333333333],vertical,"(390.0, 762.0)",0.6,0.639,1,4348.454,1,0.02,same
0,568,valid,"[(1160, 773)]",[],[1],[0.7333333333333333],horizontal,"(890.0, 262.0)",1.1166666666666667,0.702,1,4353.548,1,0.02,same
0,569,valid,"[(1165, 776)]",[],[1],[0.6166666666666667],vertical,"(890.0, 762.0)",0.35,0.581,1,4358.748,2,0.02,same
0,570,valid,"[(1151, 792)]",[],[1],[0.6166666666666667],vertical,"(890.0, 262.0)",0.8333333333333334,0.583,1,4363.581,2,0.02,same
0,571,catch,"[(1165, 775)]",[],[1],[],vertical,"(890.0, 762.0)",1.7,nan,1,4369.437,2,0.02,same
0,572,catch,"[(1136, 806)]",[],[1],[],vertical,"(890.0, 762.0)",1.7,nan,1,4374.936,3,0.02,same
0,573,catch,"[(1164, 779)]",[],[1],[],horizontal,"(390.0, 762.0)",1.7,nan,1,4380.991,3,0.02,same
0,574,valid,"[(1171, 774)]",[],[1],[0.55],horizontal,"(390.0, 262.0)",1.0,0.508,1,4386.953,3,0.02,same
0,575,valid,"[(1163, 769)]",[],[1],[0.5833333333333334],vertical,"(890.0, 262.0)",0.5833333333333334,0.542,1,4392.953,3,0.02,same
0,576,valid,"[(1160, 766)]",[],[1],[0.7666666666666666],horizontal,"(390.0, 762.0)",0.6333333333333333,0.723,1,4398.636,3,0.02,same
0,577,valid,"[(1159, 768)]",[],[1],[0.75],horizontal,"(390.0, 262.0)",1.3333333333333333,0.713,1,4404.403,3,0.02,same
0,578,valid,"[(1164, 769)]",[],[1],[0.6166666666666667],vertical,"(890.0, 762.0)",0.9833333333333333,0.577,1,4410.768,3,0.02,same
0,579,catch,"[(1159, 769)]",[],[1],[],horizontal,"(890.0, 262.0)",1.7,nan,1,4416.702,3,0.02,same
0,580,valid,"[(1140, 766)]",[],[1],[0.5833333333333334],horizontal,"(890.0, 262.0)",0.6,0.543,1,4422.777,3,0.02,same
0,581,valid,"[(1158, 776)]",[],[1],[0.5666666666666667],horizontal,"(890.0, 762.0)",1.3666666666666667,0.526,1,4428.122,3,0.02,same
0,582,valid,"[(1171, 775)]",[],[1],[0.7333333333333333],horizontal,"(890.0, 762.0)",0.48333333333333334,0.697,1,4434.103,3,0.02,same
0,583,catch,"[(1166, 773)]",[],[1],[],horizontal,"(390.0, 262.0)",1.7,nan,1,4439.48,3,0.02,same
0,584,valid,"[(1165, 757)]",[],[1],[0.65],vertical,"(890.0, 762.0)",0.55,0.607,1,4445.703,3,0.02,same
0,585,valid,"[(1162, 783)]",[],[1],[0.5666666666666667],horizontal,"(390.0, 262.0)",0.5666666666666667,0.525,1,4451.601,3,0.02,same
0,586,valid,"[(1174, 771)]",[],[1],[0.6333333333333333],horizontal,"(390.0, 762.0)",1.0166666666666666,0.595,1,4457.068,3,0.02,same
0,587,catch,"[(1161, 762)]",[],[1],[],horizontal,"(390.0, 762.0)",1.7,nan,1,4462.753,3,0.02,same
0,588,valid,"[(1155, 774)]",[],[1],[0.6166666666666667],vertical,"(390.0, 262.0)",0.8,0.575,1,4468.838,3,0.02,same
0,589,valid,"[(1159, 766)]",[],[1],[0.5833333333333334],vertical,"(390.0, 262.0)",1.4833333333333334,0.543,1,4474.843,3,0.02,same
0,590,valid,"[(1165, 758)]",[],[1],[0.55],vertical,"(890.0, 262.0)",1.1,0.512,1,4480.886,3,0.02,same
0,591,catch,"[(1161, 762)]",[],[1],[],horizontal,"(890.0, 262.0)",1.7,nan,1,4486.603,3,0.02,same
0,592,valid,"[(1139, 830)]",[],[1],[0.7833333333333333],horizontal,"(890.0, 262.0)",1.0,0.742,1,4494.387,3,0.02,same
0,593,valid,"[(1135, 783)]",[],[1],[0.7333333333333333],horizontal,"(390.0, 762.0)",0.8833333333333333,0.688,1,4500.321,3,0.02,same
0,594,valid,"[(1163, 766)]",[],[1],[0.5666666666666667],vertical,"(890.0, 262.0)",0.7666666666666666,0.526,1,4506.489,3,0.02,same
0,595,catch,"[(1156, 788)]",[],[1],[],horizontal,"(390.0, 262.0)",1.7,nan,1,4512.036,3,0.02,same
0,596,valid,"[(1156, 782)]",[],[1],[0.6333333333333333],horizontal,"(890.0, 762.0)",0.65,0.591,1,4518.079,3,0.02,same
0,597,valid,"[(1137, 822)]",[],[1],[0.6166666666666667],horizontal,"(890.0, 762.0)",1.4,0.573,1,4524.059,3,0.02,same
0,598,valid,"[(1170, 772)]",[],[1],[0.7333333333333333],vertical,"(390.0, 762.0)",1.1666666666666667,0.685,1,4530.454,3,0.02,same
0,599,valid,"[(1153, 796)]",[],[1],[0.6166666666666667],vertical,"(390.0, 762.0)",1.4166666666666667,0.573,1,4536.803,3,0.02,same
0,600,valid,"[(1166, 769)]",[],[1],[0.5833333333333334],horizontal,"(890.0, 262.0)",0.6166666666666667,0.539,1,4543.771,3,0.02,same
0,601,invalid_same_bar,"[(1146, 772)]",[],[1],[0.6],vertical,"(390.0, 262.0)",0.8,0.557,1,4549.22,3,0.02,same
0,602,valid,"[(1157, 760)]",[],[1],[0.6],horizontal,"(890.0, 262.0)",1.0333333333333332,0.561,1,4554.92,3,0.02,same
0,603,valid,"[(1161, 764)]",[],[1],[0.55],horizontal,"(890.0, 762.0)",1.1166666666666667,0.511,1,4561.122,3,0.02,same
0,604,catch,"[(1154, 787)]",[],[1],[],vertical,"(390.0, 762.0)",1.7,nan,1,4567.201,3,0.02,same
0,605,valid,"[(1170, 771)]",[],[1],[0.7833333333333333],vertical,"(890.0, 762.0)",0.65,0.738,1,4573.433,3,0.02,same
0,606,valid,"[(1134, 775)]",[],[1],[0.7166666666666667],vertical,"(390.0, 262.0)",0.7833333333333333,0.677,1,4579.042,3,0.02,same
0,607,valid,"[(1157, 781)]",[],[1],[0.6833333333333333],horizontal,"(890.0, 762.0)",0.8333333333333334,0.643,1,4585.005,3,0.02,same
0,608,valid,"[(1155, 786)]",[],[1],[0.5666666666666667],vertical,"(390.0, 262.0)",1.3666666666666667,0.525,1,4591.081,3,0.02,same
0,609,valid,"[(1165, 787)]",[],[1],[0.5833333333333334],vertical,"(390.0, 262.0)",0.95,0.546,1,4597.244,3,0.02,same
0,610,valid,"[(1170, 774)]",[],[1],[0.7333333333333333],horizontal,"(890.0, 262.0)",0.4666666666666667,0.68,1,4602.903,3,0.02,same
0,611,valid,"[(1164, 780)]",[],[1],[0.6],vertical,"(390.0, 262.0)",1.1666666666666667,0.562,1,4608.054,3,0.02,same
0,612,valid,"[(1141, 806)]",[],[1],[0.5833333333333334],horizontal,"(390.0, 762.0)",1.2,0.538,1,4614.137,3,0.02,same
0,613,valid,"[(1136, 773)]",[],[1],[0.75],horizontal,"(390.0, 262.0)",0.5,0.704,1,4621.538,3,0.02,same
0,614,valid,"[(1157, 773)]",[],[1],[0.6333333333333333],horizontal,"(890.0, 762.0)",1.3833333333333333,0.589,1,4627.167,3,0.02,same
0,615,valid,"[(1164, 795)]",[],[1],[0.55],horizontal,"(890.0, 762.0)",0.4,0.509,1,4633.505,3,0.0,same
0,616,valid,"[(1157, 791)]",[],[1],[0.5833333333333334],horizontal,"(390.0, 762.0)",0.43333333333333335,0.545,1,4639.121,3,0.0,same
0,617,valid,"[(1140, 781)]",[],[1],[0.6],horizontal,"(890.0, 262.0)",0.8,0.556,1,4644.422,3,0.0,same
0,618,valid,"[(1135, 778)]",[],[1],[0.5666666666666667],horizontal,"(390.0, 762.0)",0.6833333333333333,0.525,1,4649.952,3,0.0,same
0,619,catch,"[(1136, 770)]",[],[1],[],vertical,"(890.0, 762.0)",1.7,nan,1,4655.288,3,0.0,same
0,620,catch,"[(1170, 794)]",[],[1],[],horizontal,"(390.0, 262.0)",1.7,nan,1,4660.954,3,0.0,same
0,621,valid,"[(1155, 766)]",[],[1],[0.7166666666666667],horizontal,"(890.0, 262.0)",1.1,0.669,1,4667.403,3,0.0,same
0,622,valid,"[(1160, 779)]",[],[1],[0.7666666666666666],horizontal,"(890.0, 762.0)",0.6,0.723,1,4673.24,3,0.0,same
0,623,catch,"[(1160, 782)]",[],[1],[],horizontal,"(390.0, 762.0)",1.7,nan,1,4678.679,3,0.0,same
0,624,valid,"[(1172, 787)]",[],[1],[0.6166666666666667],vertical,"(390.0, 762.0)",0.75,0.58,1,4684.706,3,0.0,same
0,625,valid,"[(1165, 789)]",[],[1],[0.6],vertical,"(890.0, 762.0)",0.6666666666666666,0.562,1,4690.003,3,0.0,same
0,626,valid,"[(1160, 777)]",[],[1],[0.6166666666666667],horizontal,"(390.0, 262.0)",1.2333333333333334,0.574,1,4695.681,3,0.0,same
0,627,valid,"[(1156, 772)]",[],[1],[0.75],horizontal,"(890.0, 762.0)",1.3166666666666667,0.71,1,4701.938,3,0.0,same
0,628,valid,"[(1159, 769)]",[],[1],[0.5833333333333334],horizontal,"(890.0, 762.0)",1.25,0.541,1,4708.083,3,0.0,same
0,629,valid,"[(1160, 770)]",[],[1],[0.7833333333333333],vertical,"(890.0, 262.0)",0.55,0.742,1,4713.972,3,0.0,same
0,630,valid,"[(1160, 801)]",[],[1],[0.6],vertical,"(390.0, 762.0)",0.4666666666666667,0.557,1,4719.715,3,0.0,same
0,631,catch,"[(1163, 786)]",[],[1],[],vertical,"(890.0, 262.0)",1.7,nan,1,4725.155,3,0.0,same
0,632,valid,"[(1150, 801)]",[],[1],[0.6],horizontal,"(890.0, 262.0)",1.3166666666666667,0.557,1,4731.038,3,0.0,same
0,633,catch,"[(1159, 762)]",[],[1],[],vertical,"(890.0, 762.0)",1.7,nan,1,4737.271,3,0.0,same
0,634,valid,"[(1160, 778)]",[],[1],[0.6],horizontal,"(890.0, 762.0)",0.48333333333333334,0.554,1,4743.376,3,0.0,same
0,635,valid,"[(1165, 768)]",[],[1],[0.65],vertical,"(890.0, 262.0)",0.5166666666666666,0.602,1,4749.156,3,0.0,same
0,636,valid,"[(1141, 775)]",[],[1],[0.6166666666666667],horizontal,"(390.0, 762.0)",1.0833333333333333,0.573,1,4754.422,3,0.0,same
0,637,catch,"[(1160, 769)]",[],[1],[],horizontal,"(390.0, 762.0)",1.7,nan,1,4760.559,3,0.0,same
0,638,catch,"[(1142, 819)]",[],[1],[],vertical,"(890.0, 262.0)",1.7,nan,1,4766.455,3,0.0,same
0,639,valid,"[(1165, 802)]",[],[1],[0.85],vertical,"(390.0, 262.0)",1.25,nan,0,4859.409,0,0.0,same
0,640,invalid_adjacent_other_bar,"[(1161, 786)]",[],[1],[0.85],horizontal,"(390.0, 262.0)",0.5833333333333334,nan,0,4864.379,0,0.0,other
0,641,valid,"[(1157, 781)]",[],[1],[0.85],vertical,"(390.0, 762.0)",0.8166666666666667,nan,0,4868.976,0,0.0,same
0,642,catch,"[(1136, 796)]",[],[1],[],horizontal,"(390.0, 262.0)",1.7,nan,1,4873.854,1,0.0,same
0,643,catch,"[(1162, 760)]",[],[1],[],vertical,"(890.0, 262.0)",1.7,nan,1,4878.642,1,0.0,same
0,644,catch,"[(1172, 779)]",[],[1],[],horizontal,"(890.0, 262.0)",1.7,nan,1,4883.847,1,0.0,same
0,645,valid,"[(1176, 786)]",[],[1],[0.6333333333333333],horizontal,"(390.0, 762.0)",1.15,0.592,1,4889.359,2,0.0,same
0,646,valid,"[(1160, 794)]",[],[1],[0.5833333333333334],vertical,"(890.0, 762.0)",0.9166666666666666,0.546,1,4894.991,2,0.0,same
0,647,catch,"[(1175, 754)]",[],[1],[],horizontal,"(890.0, 262.0)",1.7,nan,1,4900.007,2,0.0,same
0,648,valid,"[(1159, 776)]",[],[1],[0.85],horizontal,"(390.0, 762.0)",0.65,nan,0,4905.789,0,0.0,same
0,649,valid,"[(1137, 782)]",[],[1],[0.5833333333333334],vertical,"(390.0, 262.0)",0.48333333333333334,0.54,1,4910.546,1,0.0,same
0,650,catch,"[(1155, 768)]",[],[1],[],vertical,"(890.0, 762.0)",1.7,nan,1,4915.251,1,0.0,same
0,651,valid,"[(1159, 760)]",[],[1],[0.6333333333333333],vertical,"(890.0, 762.0)",0.7,0.589,1,4920.365,1,0.0,same
0,652,valid,"[(1174, 768)]",[],[1],[0.65],horizontal,"(390.0, 762.0)",1.1833333333333333,0.607,1,4925.388,2,0.0,same
0,653,valid,"[(1163, 781)]",[],[1],[0.85],vertical,"(890.0, 262.0)",0.95,nan,0,4931.393,0,0.0,same
0,654,valid,"[(1155, 794)]",[],[1],[0.5833333333333334],vertical,"(390.0, 762.0)",1.15,0.537,1,4936.399,1,0.0,same
0,655,valid,"[(1161, 767)]",[],[1],[0.6],vertical,"(890.0, 762.0)",1.2833333333333332,0.558,1,4942.589,1,0.0,same
0,656,valid,"[(1131, 783)]",[],[1],[0.7166666666666667],vertical,"(390.0, 262.0)",1.05,0.67,1,4947.688,1,0.0,same
0,657,catch,"[(1160, 778)]",[],[1],[],vertical,"(890.0, 262.0)",1.7,nan,1,4952.939,2,0.0,same
0,658,catch,"[(1174, 787)]",[],[1],[],vertical,"(890.0, 762.0)",1.7,nan,1,4958.866,2,0.0,same
0,659,valid,"[(1170, 779)]",[],[1],[0.6833333333333333],horizontal,"(390.0, 762.0)",1.2,0.641,1,4964.425,2,0.0,same
0,660,valid,"[(1166, 796)]",[],[1],[0.7],horizontal,"(390.0, 762.0)",0.8,0.652,1,4970.17,3,0.0,same
0,661,catch,"[(1137, 775)]",[],[1],[],vertical,"(390.0, 262.0)",1.7,nan,1,4975.614,3,0.0,same
0,662,valid,"[(1168, 770)]",[],[1],[0.55],vertical,"(890.0, 762.0)",1.4,0.506,1,4981.489,3,0.0,same
0,663,valid,"[(1170, 779)]",[],[1],[0.6833333333333333],vertical,"(390.0, 762.0)",1.1666666666666667,0.641,1,4987.856,3,0.0,same
0,664,valid,"[(1170, 791)]",[],[1],[0.85],horizontal,"(390.0, 262.0)",1.3333333333333333,nan,0,4994.029,0,0.0,same
0,665,valid,"[(1135, 791)]",[],[1],[0.6833333333333333],vertical,"(390.0, 262.0)",0.7,0.638,1,4998.989,1,0.0,same
0,666,catch,"[(1135, 770)]",[],[1],[],vertical,"(390.0, 762.0)",1.7,nan,1,5004.247,1,0.0,same
0,667,valid,"[(1149, 767)]",[],[1],[0.75],horizontal,"(890.0, 262.0)",1.3666666666666667,0.705,1,5009.833,1,0.0,same
0,668,valid,"[(1136, 766)]",[],[1],[0.6833333333333333],vertical,"(390.0, 762.0)",0.8166666666666667,0.637,1,5015.122,2,0.0,same
0,669,valid,"[(1155, 765)]",[],[1],[0.6833333333333333],vertical,"(890.0, 762.0)",1.3833333333333333,0.639,1,5020.577,2,0.0,same
0,670,invalid_same_bar,"[(1167, 779)]",[],[1],[0.5666666666666667],horizontal,"(890.0, 762.0)",0.9833333333333333,0.521,1,5026.678,2,0.0,same
0,671,valid,"[(1136, 787)]",[],[1],[0.5666666666666667],vertical,"(390.0, 762.0)",0.8,0.529,1,5032.124,3,0.0,same
0,672,valid,"[(1136, 786)]",[],[1],[0.6333333333333333],vertical,"(390.0, 262.0)",0.6333333333333333,0.585,1,5037.738,3,0.0,same
0,673,valid,"[(1151, 764)]",[],[1],[0.7],horizontal,"(890.0, 762.0)",1.1166666666666667,0.655,1,5042.985,3,0.0,same
0,674,valid,"[(1148, 777)]",[],[1],[0.85],horizontal,"(890.0, 262.0)",0.5,nan,0,5049.3,0,0.0,same
0,675,valid,"[(1143, 780)]",[],[1],[0.6666666666666666],horizontal,"(890.0, 762.0)",0.8333333333333334,0.624,1,5053.663,1,0.0,same
0,676,valid,"[(1136, 793)]",[],[1],[],vertical,"(390.0, 762.0)",,"('cti', 0.717)",0,5058.64,0,0.0,same
0,677,valid,"[(1136, 822)]",[],[1],[0.85],horizontal,"(390.0, 262.0)",1.0166666666666666,nan,0,5062.727,0,0.0,same
0,678,valid,"[(1099, 836)]",[],[1],[0.8333333333333334],horizontal,"(390.0, 762.0)",1.3166666666666667,0.793,1,5556.859,1,0.0,same
0,679,valid,"[(1130, 880)]",[],[1],[0.85],vertical,"(390.0, 262.0)",0.36666666666666664,nan,0,5642.833,0,0.0,same
0,680,valid,"[(1127, 835)]",[],[1],[0.7],horizontal,"(390.0, 262.0)",1.4833333333333334,0.658,1,5649.1,1,0.0,same
0,681,valid,"[(1152, 802)]",[],[1],[0.8],horizontal,"(890.0, 762.0)",1.4166666666666667,0.754,1,5655.725,1,0.0,same
0,682,valid,"[(1138, 808)]",[],[1],[0.85],horizontal,"(890.0, 262.0)",0.9166666666666666,nan,0,5661.09,0,0.0,same
0,683,valid,"[(1110, 792)]",[],[1],[0.6166666666666667],horizontal,"(890.0, 262.0)",0.9333333333333333,0.575,1,5665.826,1,0.0,same
0,684,valid,"[(1148, 781)]",[],[1],[0.85],horizontal,"(390.0, 762.0)",0.7166666666666667,nan,0,5670.576,0,0.0,same
0,685,catch,"[(1104, 811)]",[],[1],[],horizontal,"(890.0, 762.0)",1.7,nan,1,5675.176,1,0.0,same
0,686,valid,"[(1094, 771)]",[],[1],[],vertical,"(890.0, 262.0)",,"('cti', 0.792)",0,5680.668,0,0.0,same
0,687,valid,"[(1096, 798)]",[],[1],[0.25],vertical,"(390.0, 762.0)",0.9666666666666667,0.211,1,5685.025,1,0.0,same
0,688,valid,"[(1183, 786)]",[],[1],[],horizontal,"(890.0, 762.0)",,"('cti', 0.768)",0,5690.43,0,0.0,same
0,689,valid,"[(1149, 759)]",[],[1],[0.8],vertical,"(390.0, 262.0)",1.4,0.757,1,5694.474,1,0.0,same
0,690,catch,"[(1170, 785)]",[],[1],[],vertical,"(890.0, 762.0)",1.7,nan,1,5700.442,1,0.0,same
0,691,valid,"[(1171, 786)]",[],[1],[0.6666666666666666],horizontal,"(890.0, 762.0)",1.3833333333333333,0.623,1,5706.074,1,0.0,same
0,692,catch,"[(1146, 777)]",[],[1],[],vertical,"(390.0, 262.0)",1.7,nan,1,5711.516,2,0.0,same
0,693,invalid_adjacent_other_bar,"[(1185, 791)]",[],[1],[0.6833333333333333],horizontal,"(890.0, 762.0)",1.3833333333333333,0.641,1,5717.659,2,0.0,other
0,694,valid,"[(1202, 786)]",[],[1],[0.6166666666666667],vertical,"(890.0, 762.0)",1.5,0.579,1,5723.375,2,0.0,same
0,695,valid,"[(1173, 786)]",[],[1],[0.7],vertical,"(890.0, 262.0)",0.7166666666666667,0.654,1,5729.594,3,0.0,same
0,696,valid,"[(1178, 793)]",[],[1],[0.85],vertical,"(890.0, 762.0)",1.0333333333333332,nan,0,5735.633,0,0.0,same
0,697,valid,"[(1152, 782)]",[],[1],[0.6],horizontal,"(390.0, 762.0)",0.3833333333333333,0.558,1,5740.545,1,0.0,same
0,698,valid,"[(1175, 771)]",[],[1],[0.85],vertical,"(390.0, 762.0)",0.35,nan,0,5744.915,0,0.0,same
0,699,valid,"[(1158, 791)]",[],[1],[0.6],horizontal,"(890.0, 262.0)",0.55,0.56,1,5748.935,1,0.0,same
0,700,catch,"[(1175, 765)]",[],[1],[],vertical,"(390.0, 262.0)",1.7,nan,1,5753.71,1,0.0,same
0,701,valid,"[(1176, 802)]",[],[1],[0.6166666666666667],vertical,"(890.0, 762.0)",0.8666666666666667,0.573,1,5759.129,1,0.0,same
0,702,valid,"[(1160, 786)]",[],[1],[0.85],horizontal,"(390.0, 762.0)",1.0166666666666666,nan,0,5764.202,0,0.0,same
0,703,valid,"[(1163, 808)]",[],[1],[0.55],vertical,"(890.0, 262.0)",0.6666666666666666,0.505,1,5769.524,1,0.0,same
0,704,valid,"[(1164, 762)]",[],[1],[0.6333333333333333],vertical,"(890.0, 762.0)",0.4,0.588,1,5774.367,1,0.0,same
0,705,catch,"[(1167, 771)]",[],[1],[],vertical,"(390.0, 762.0)",1.7,nan,1,5779.366,1,0.0,same
0,706,valid,"[(1170, 781)]",[],[1],[0.55],vertical,"(390.0, 262.0)",0.4666666666666667,0.509,1,5784.296,2,0.0,same
0,707,valid,"[(1159, 766)]",[],[1],[0.5666666666666667],horizontal,"(390.0, 262.0)",0.9333333333333333,0.524,1,5789.039,2,0.0,same
0,708,valid,"[(1159, 756)]",[],[1],[0.85],vertical,"(390.0, 762.0)",1.15,nan,0,5794.177,0,0.0,same
0,709,valid,"[(1167, 775)]",[],[1],[0.7833333333333333],vertical,"(390.0, 762.0)",0.7,0.736,1,5799.36,1,0.0,same
0,710,catch,"[(1163, 765)]",[],[1],[],horizontal,"(390.0, 762.0)",1.7,nan,1,5804.042,1,0.0,same
0,711,valid,"[(1167, 766)]",[],[1],[0.11666666666666667],horizontal,"(890.0, 762.0)",1.3,0.084,0,5809.177,0,0.0,same
0,712,valid,"[(1146, 784)]",[],[1],[0.36666666666666664],horizontal,"(390.0, 762.0)",1.45,0.336,1,5813.612,1,0.0,same
0,713,catch,"[(1171, 786)]",[],[1],[],vertical,"(390.0, 262.0)",1.7,nan,1,5819.372,1,0.0,same
0,714,valid,"[(1161, 756)]",[],[1],[0.7],horizontal,"(390.0, 262.0)",0.65,0.665,1,5824.376,1,0.0,same
0,715,valid,"[(1163, 775)]",[],[1],[0.6166666666666667],vertical,"(390.0, 262.0)",1.2666666666666666,0.581,1,5829.138,2,0.0,same
0,716,valid,"[(1165, 772)]",[],[1],[0.7],vertical,"(390.0, 262.0)",1.4166666666666667,0.652,1,5834.81,2,0.0,same
0,717,catch,"[(1176, 781)]",[],[1],[],horizontal,"(890.0, 262.0)",1.7,nan,1,5840.719,2,0.0,same
0,718,valid,"[(1170, 774)]",[],[1],[0.48333333333333334],vertical,"(890.0, 262.0)",1.45,0.448,1,5846.743,3,0.0,same
0,719,valid,"[(1170, 761)]",[],[1],[0.65],horizontal,"(390.0, 762.0)",1.15,0.61,1,5853.488,3,0.0,same
0,720,valid,"[(1163, 777)]",[],[1],[0.75],vertical,"(390.0, 762.0)",1.4166666666666667,0.705,1,5859.796,3,0.0,same
0,721,valid,"[(1171, 782)]",[],[1],[0.85],horizontal,"(390.0, 762.0)",0.7833333333333333,nan,0,5866.009,0,0.0,same
0,722,valid,"[(1134, 774)]",[],[1],[0.6166666666666667],horizontal,"(890.0, 762.0)",0.4166666666666667,0.584,1,5870.94,1,0.0,same
0,723,valid,"[(1161, 779)]",[],[1],[0.6166666666666667],vertical,"(890.0, 762.0)",0.8,0.577,1,5875.637,1,0.0,same
0,724,valid,"[(1160, 791)]",[],[1],[0.85],horizontal,"(390.0, 762.0)",0.45,nan,0,5880.769,0,0.0,same
0,725,catch,"[(1136, 772)]",[],[1],[],horizontal,"(390.0, 262.0)",1.7,nan,1,5885.181,1,0.0,same
0,726,catch,"[(1157, 801)]",[],[1],[],horizontal,"(390.0, 262.0)",1.7,nan,1,5890.926,1,0.0,same
0,727,valid,"[(1160, 790)]",[],[1],[0.6166666666666667],vertical,"(390.0, 262.0)",0.9,0.578,1,5897.01,1,0.0,same
0,728,valid,"[(1141, 821)]",[],[1],[0.85],horizontal,"(390.0, 262.0)",1.1,nan,0,5902.143,0,0.0,same
0,729,invalid_adjacent_other_bar,"[(1144, 772)]",[],[1],[0.85],horizontal,"(890.0, 762.0)",1.0,nan,0,5907.001,0,0.0,other
0,730,valid,"[(1123, 842)]",[],[1],[0.6666666666666666],horizontal,"(890.0, 762.0)",1.45,0.626,1,5912.493,1,0.0,same
0,731,valid,"[(1175, 783)]",[],[1],[0.7833333333333333],horizontal,"(890.0, 762.0)",0.9333333333333333,0.742,1,5918.328,1,0.0,same
0,732,valid,"[(1151, 763)]",[],[1],[0.5833333333333334],vertical,"(890.0, 762.0)",0.5333333333333333,0.538,1,5923.661,1,0.0,same
0,733,valid,"[(1175, 791)]",[],[1],[0.6666666666666666],vertical,"(390.0, 262.0)",0.8333333333333334,0.626,1,5928.073,2,0.0,same
0,734,valid,"[(1175, 766)]",[],[1],[0.5666666666666667],horizontal,"(890.0, 762.0)",1.0166666666666666,0.536,1,5933.332,2,0.0,same
0,735,valid,"[(1172, 789)]",[],[1],[0.6],horizontal,"(890.0, 262.0)",0.6,0.559,1,5938.826,2,0.0,same
0,736,valid,"[(1165, 795)]",[],[1],[0.6166666666666667],vertical,"(390.0, 762.0)",0.7166666666666667,0.576,1,5943.623,3,0.0,same
0,737,valid,"[(1135, 787)]",[],[1],[0.6],horizontal,"(890.0, 262.0)",0.8,0.557,1,5949.928,3,0.0,same
0,738,catch,"[(1175, 769)]",[],[1],[],horizontal,"(390.0, 762.0)",1.7,nan,1,5955.528,3,0.0,same
0,739,catch,"[(1160, 791)]",[],[1],[],vertical,"(390.0, 262.0)",1.7,nan,1,5961.661,3,0.0,same
0,740,valid,"[(1175, 791)]",[],[1],[0.4666666666666667],vertical,"(890.0, 262.0)",1.4833333333333334,0.429,1,5967.444,3,0.0,same
0,741,valid,"[(1172, 775)]",[],[1],[0.85],vertical,"(890.0, 262.0)",0.6833333333333333,nan,0,5973.699,0,0.0,same
0,742,valid,"[(1149, 789)]",[],[1],[0.7666666666666666],vertical,"(390.0, 262.0)",1.2166666666666666,0.718,1,5978.328,1,0.0,same
0,743,invalid_same_bar,"[(1175, 793)]",[],[1],[0.8333333333333334],horizontal,"(390.0, 262.0)",0.8833333333333333,0.79,1,5983.878,1,0.0,same
0,744,valid,"[(1160, 786)]",[],[1],[0.5833333333333334],horizontal,"(390.0, 762.0)",0.4166666666666667,0.542,1,5989.028,1,0.0,same
0,745,valid,"[(1160, 778)]",[],[1],[0.85],vertical,"(890.0, 762.0)",1.0166666666666666,nan,0,5993.311,0,0.0,same
0,746,catch,"[(1141, 783)]",[],[1],[],horizontal,"(390.0, 762.0)",1.7,nan,1,5998.321,1,0.0,same
0,747,valid,"[(1169, 778)]",[],[1],[0.7833333333333333],horizontal,"(890.0, 262.0)",1.2333333333333334,0.735,1,6005.103,1,0.0,same
0,748,valid,"[(1171, 790)]",[],[1],[0.6666666666666666],vertical,"(390.0, 262.0)",0.6833333333333333,0.618,1,6010.81,1,0.0,same
0,749,valid,"[(1167, 786)]",[],[1],[0.5833333333333334],horizontal,"(890.0, 262.0)",1.3666666666666667,0.543,1,6015.927,2,0.0,same
0,750,valid,"[(1159, 771)]",[],[1],[0.6666666666666666],horizontal,"(890.0, 762.0)",0.7166666666666667,0.621,1,6022.193,2,0.0,same
0,751,valid,"[(1159, 788)]",[],[1],[0.6166666666666667],horizontal,"(890.0, 762.0)",1.3,0.568,1,6027.259,2,0.0,same
0,752,catch,"[(1084, 827)]",[],[1],[],vertical,"(890.0, 262.0)",1.7,nan,1,6033.495,3,0.0,same
0,753,valid,"[(1160, 782)]",[],[1],[0.5833333333333334],vertical,"(390.0, 762.0)",1.3166666666666667,0.544,1,6040.276,3,0.0,same
0,754,catch,"[(1159, 797)]",[],[1],[],vertical,"(890.0, 262.0)",1.7,nan,1,6046.673,3,0.0,same
0,755,catch,"[(1159, 788)]",[],[1],[],vertical,"(890.0, 262.0)",1.7,nan,1,6052.494,3,0.0,same
0,756,valid,"[(1166, 776)]",[],[1],[0.6333333333333333],horizontal,"(390.0, 762.0)",1.0166666666666666,0.588,1,6058.889,3,0.0,same
0,757,valid,"[(1176, 780)]",[],[1],[0.5666666666666667],vertical,"(390.0, 762.0)",1.1333333333333333,0.521,1,6064.643,3,0.0,same
0,758,catch,"[(1172, 766)]",[],[1],[],vertical,"(890.0, 762.0)",1.7,nan,1,6070.359,3,0.0,same
0,759,valid,"[(1158, 776)]",[],[1],[0.65],vertical,"(890.0, 762.0)",1.2,0.605,1,6076.414,3,0.0,same
0,760,valid,"[(1167, 772)]",[],[1],[0.8166666666666667],vertical,"(390.0, 762.0)",1.1333333333333333,0.767,1,6082.544,3,0.0,same
0,761,valid,"[(1160, 785)]",[],[1],[0.85],vertical,"(390.0, 762.0)",0.4166666666666667,nan,0,6089.002,0,0.0,same
0,762,catch,"[(1157, 762)]",[],[1],[],vertical,"(390.0, 762.0)",1.7,nan,1,6093.061,1,0.0,same
0,763,valid,"[(1143, 812)]",[],[1],[0.75],vertical,"(890.0, 262.0)",0.7166666666666667,0.7,1,6098.427,1,0.0,same
0,764,valid,"[(1147, 817)]",[],[1],[0.6333333333333333],vertical,"(390.0, 262.0)",0.8833333333333333,0.589,1,6103.78,1,0.0,same
0,765,catch,"[(1182, 775)]",[],[1],[],vertical,"(390.0, 262.0)",1.7,nan,1,6109.757,2,0.0,same
0,766,catch,"[(1160, 801)]",[],[1],[],vertical,"(390.0, 762.0)",1.7,nan,1,6115.086,2,0.0,same
0,767,valid,"[(1175, 781)]",[],[1],[0.5833333333333334],horizontal,"(890.0, 762.0)",0.7833333333333333,0.543,1,6121.078,2,0.0,same
0,768,valid,"[(1161, 791)]",[],[1],[0.85],horizontal,"(890.0, 762.0)",0.9,nan,0,6126.077,0,0.0,same
0,769,valid,"[(1146, 779)]",[],[1],[0.5833333333333334],horizontal,"(890.0, 762.0)",0.5833333333333334,0.539,1,6131.032,1,0.0,same
0,770,valid,"[(1163, 766)]",[],[1],[0.55],vertical,"(890.0, 262.0)",1.4833333333333334,0.51,1,6135.84,1,0.0,same
0,771,valid,"[(1159, 756)]",[],[1],[0.5833333333333334],horizontal,"(390.0, 262.0)",0.8,0.546,1,6141.37,1,0.0,same
0,772,valid,"[(1165, 786)]",[],[1],[0.7333333333333333],horizontal,"(390.0, 762.0)",1.35,0.685,1,6146.681,2,0.0,same
0,773,valid,"[(1172, 774)]",[],[1],[0.85],vertical,"(890.0, 762.0)",0.55,nan,0,6152.433,0,0.0,same
0,774,valid,"[(1136, 787)]",[],[1],[0.7333333333333333],vertical,"(390.0, 762.0)",0.8,0.688,1,6157.012,1,0.0,same
0,775,valid,"[(1147, 791)]",[],[1],[0.6833333333333333],vertical,"(390.0, 262.0)",0.6833333333333333,0.635,1,6162.277,1,0.0,same
0,776,catch,"[(1156, 771)]",[],[1],[],horizontal,"(390.0, 262.0)",1.7,nan,1,6167.663,1,0.0,same
0,777,valid,"[(1172, 771)]",[],[1],[0.6833333333333333],vertical,"(890.0, 762.0)",1.4,0.647,1,6172.912,2,0.0,same
0,778,valid,"[(1160, 768)]",[],[1],[0.7166666666666667],horizontal,"(390.0, 262.0)",1.1833333333333333,0.673,1,6178.893,2,0.0,same
0,779,valid,"[(1159, 769)]",[],[1],[0.75],vertical,"(890.0, 262.0)",1.2,0.711,1,6185.045,2,0.0,same
0,780,valid,"[(1164, 771)]",[],[1],[0.5166666666666666],vertical,"(890.0, 262.0)",0.9,0.474,1,6190.68,3,0.0,same
0,781,valid,"[(1160, 773)]",[],[1],[0.6333333333333333],vertical,"(390.0, 262.0)",0.7333333333333333,0.589,1,6196.401,3,0.0,same
0,782,catch,"[(1154, 773)]",[],[1],[],horizontal,"(390.0, 762.0)",1.7,nan,1,6202.162,3,0.0,same
0,783,valid,"[(1157, 801)]",[],[1],[0.6166666666666667],horizontal,"(890.0, 262.0)",1.4166666666666667,0.571,1,6207.787,3,0.0,same
0,784,valid,"[(1166, 786)]",[],[1],[0.6333333333333333],vertical,"(390.0, 762.0)",1.2166666666666666,0.593,1,6214.157,3,0.0,same
0,785,valid,"[(1175, 764)]",[],[1],[0.6166666666666667],horizontal,"(890.0, 262.0)",1.3166666666666667,0.573,1,6220.535,3,0.0,same
0,786,valid,"[(1174, 781)]",[],[1],[0.3833333333333333],horizontal,"(390.0, 262.0)",1.5166666666666666,0.346,1,6226.638,3,0.0,same
0,787,valid,"[(1121, 837)]",[],[1],[0.85],vertical,"(390.0, 262.0)",1.2,nan,0,6233.165,0,0.0,same
0,788,valid,"[(1158, 808)]",[],[1],[0.5333333333333333],vertical,"(890.0, 762.0)",0.6666666666666666,0.488,1,6386.747,1,0.0,same
0,789,valid,"[(1168, 772)]",[],[1],[0.6333333333333333],vertical,"(890.0, 262.0)",0.43333333333333335,0.584,1,6391.638,1,0.0,same
0,790,catch,"[(1155, 771)]",[],[1],[],horizontal,"(890.0, 262.0)",1.7,nan,1,6396.454,1,0.0,same
0,791,valid,"[(1164, 786)]",[],[1],[0.65],vertical,"(890.0, 762.0)",0.95,0.605,1,6402.014,2,0.0,same
0,792,valid,"[(1169, 798)]",[],[1],[0.5833333333333334],horizontal,"(890.0, 262.0)",0.8166666666666667,0.545,1,6407.622,2,0.0,same
0,793,valid,"[(1137, 791)]",[],[1],[0.6333333333333333],horizontal,"(890.0, 262.0)",1.2833333333333332,0.595,1,6413.299,2,0.0,same
0,794,valid,"[(1168, 767)]",[],[1],[0.55],vertical,"(890.0, 262.0)",1.15,0.512,1,6419.564,3,0.0,same
0,795,catch,"[(1172, 770)]",[],[1],[],horizontal,"(390.0, 262.0)",1.7,nan,1,6425.83,3,0.0,same
0,796,valid,"[(1154, 776)]",[],[1],[0.6833333333333333],horizontal,"(890.0, 262.0)",1.0333333333333332,0.643,1,6431.638,3,0.0,same
0,797,valid,"[(1175, 786)]",[],[1],[0.6333333333333333],vertical,"(390.0, 262.0)",0.48333333333333334,0.593,1,6437.745,3,0.0,same
0,798,valid,"[(1151, 776)]",[],[1],[0.7166666666666667],vertical,"(890.0, 762.0)",1.3666666666666667,0.676,1,6443.597,3,0.0,same
0,799,valid,"[(1175, 768)]",[],[1],[0.7666666666666666],horizontal,"(890.0, 762.0)",1.0333333333333332,0.721,1,6449.563,3,0.0,same
0,800,valid,"[(1176, 772)]",[],[1],[0.6166666666666667],horizontal,"(390.0, 762.0)",0.7,0.581,1,6456.013,3,0.0,same
0,801,valid,"[(1152, 769)]",[],[1],[0.7166666666666667],vertical,"(390.0, 262.0)",1.2833333333333332,0.676,1,6461.887,3,0.0,same
0,802,catch,"[(1161, 755)]",[],[1],[],horizontal,"(890.0, 762.0)",1.7,nan,1,6468.096,3,0.0,same
0,803,valid,"[(1170, 773)]",[],[1],[0.7666666666666666],horizontal,"(890.0, 262.0)",0.5,0.732,1,6474.118,3,0.0,same
0,804,valid,"[(1159, 791)]",[],[1],[0.6],horizontal,"(890.0, 262.0)",0.7333333333333333,0.561,1,6479.662,3,0.0,same
0,805,valid,"[(1161, 758)]",[],[1],[0.6333333333333333],vertical,"(390.0, 762.0)",1.4,0.588,1,6484.998,3,0.0,same
0,806,valid,"[(1180, 781)]",[],[1],[0.55],vertical,"(390.0, 762.0)",1.0833333333333333,0.507,1,6491.202,3,0.0,same
0,807,catch,"[(1166, 773)]",[],[1],[],horizontal,"(890.0, 262.0)",1.7,nan,1,6496.98,3,0.0,same
0,808,valid,"[(1172, 801)]",[],[1],[0.6833333333333333],horizontal,"(890.0, 762.0)",1.4,0.642,1,6503.197,3,0.0,same
0,809,invalid_same_bar,"[(1149, 776)]",[],[1],[0.65],vertical,"(890.0, 262.0)",0.43333333333333335,0.606,1,6509.584,3,0.0,same
0,810,valid,"[(1166, 776)]",[],[1],[0.6666666666666666],vertical,"(890.0, 262.0)",1.4,0.628,1,6515.297,3,0.0,same
0,811,valid,"[(1158, 761)]",[],[1],[0.6166666666666667],horizontal,"(890.0, 262.0)",1.25,0.577,1,6521.52,3,0.0,same
0,812,catch,"[(1158, 779)]",[],[1],[],vertical,"(390.0, 262.0)",1.7,nan,1,6527.504,3,0.0,same
0,813,catch,"[(1157, 786)]",[],[1],[],horizontal,"(890.0, 262.0)",1.7,nan,1,6533.264,3,0.0,same
0,814,catch,"[(1158, 770)]",[],[1],[],vertical,"(890.0, 762.0)",1.7,nan,1,6539.459,3,0.0,same
0,815,valid,"[(1155, 775)]",[],[1],[0.6],horizontal,"(890.0, 262.0)",1.3,0.554,1,6545.381,3,0.0,same
0,816,valid,"[(1175, 777)]",[],[1],[0.7166666666666667],horizontal,"(890.0, 762.0)",1.3833333333333333,0.678,1,6551.463,3,0.0,same
0,817,valid,"[(1175, 776)]",[],[1],[0.85],horizontal,"(390.0, 262.0)",0.35,nan,0,6557.781,0,0.0,same
0,818,valid,"[(1135, 791)]",[],[1],[0.65],vertical,"(890.0, 262.0)",0.5666666666666667,0.609,1,6562.188,1,0.0,same
0,819,valid,"[(1160, 798)]",[],[1],[0.7833333333333333],vertical,"(390.0, 762.0)",0.9833333333333333,0.746,1,6567.164,1,0.0,same
0,820,catch,"[(1142, 823)]",[],[1],[],horizontal,"(890.0, 262.0)",1.7,nan,1,6572.711,1,0.0,same
0,821,invalid_same_bar,"[(1155, 782)]",[],[1],[0.85],horizontal,"(390.0, 762.0)",0.48333333333333334,nan,0,6577.813,0,0.0,same
0,822,catch,"[(1142, 768)]",[],[1],[],horizontal,"(390.0, 262.0)",1.7,"('cti', 1.699),nan",0,6582.413,0,0.02,same
0,823,valid,"[(1139, 810)]",[],[1],[0.5666666666666667],vertical,"(390.0, 262.0)",0.8666666666666667,0.53,1,6586.864,1,0.02,same
0,824,valid,"[(1155, 769)]",[],[1],[0.7333333333333333],horizontal,"(390.0, 262.0)",1.1166666666666667,0.689,1,6592.13,1,0.02,same
0,825,catch,"[(1167, 791)]",[],[1],[],vertical,"(890.0, 262.0)",1.7,nan,1,6597.679,1,0.02,same
0,826,catch,"[(1155, 783)]",[],[1],[],vertical,"(890.0, 762.0)",1.7,nan,1,6602.744,2,0.02,same
0,827,valid,"[(1160, 777)]",[],[1],[0.6166666666666667],horizontal,"(390.0, 262.0)",0.48333333333333334,0.574,1,6608.73,2,0.02,same
0,828,catch,"[(1153, 761)]",[],[1],[],horizontal,"(390.0, 262.0)",1.7,nan,1,6614.145,2,0.02,same
0,829,valid,"[(1153, 760)]",[],[1],[0.8333333333333334],vertical,"(390.0, 262.0)",1.05,0.796,1,6620.068,3,0.02,same
0,830,catch,"[(1176, 781)]",[],[1],[],horizontal,"(390.0, 762.0)",1.7,nan,1,6626.876,3,0.02,same
0,831,valid,"[(1167, 769)]",[],[1],[0.6833333333333333],vertical,"(890.0, 762.0)",1.4666666666666666,0.638,1,6632.914,3,0.02,same
0,832,valid,"[(1176, 786)]",[],[1],[0.6],horizontal,"(390.0, 762.0)",0.9,0.559,1,6639.136,3,0.02,same
0,833,valid,"[(1173, 778)]",[],[1],[0.6833333333333333],vertical,"(390.0, 762.0)",0.5666666666666667,0.643,1,6644.993,3,0.02,same
0,834,valid,"[(1175, 775)]",[],[1],[0.75],vertical,"(890.0, 762.0)",1.35,0.714,1,6650.736,3,0.02,same
0,835,valid,"[(1160, 758)]",[],[1],[0.65],horizontal,"(390.0, 262.0)",0.36666666666666664,0.605,1,6657.383,3,0.02,same
0,836,valid,"[(1170, 775)]",[],[1],[0.6],horizontal,"(890.0, 762.0)",1.25,0.559,1,6663.098,3,0.02,same
0,837,valid,"[(1166, 775)]",[],[1],[0.6333333333333333],horizontal,"(890.0, 262.0)",0.85,0.597,1,6669.547,3,0.02,same
0,838,catch,"[(1176, 778)]",[],[1],[],horizontal,"(390.0, 762.0)",1.7,nan,1,6675.615,3,0.02,same
0,839,valid,"[(1151, 776)]",[],[1],[0.6333333333333333],vertical,"(390.0, 762.0)",1.2,0.589,1,6681.33,3,0.02,same
0,840,valid,"[(1169, 786)]",[],[1],[0.5666666666666667],vertical,"(890.0, 762.0)",0.5166666666666666,0.528,1,6687.798,3,0.02,same
0,841,valid,"[(1172, 778)]",[],[1],[0.5333333333333333],horizontal,"(390.0, 262.0)",0.7833333333333333,0.492,1,6692.83,3,0.02,same
0,842,valid,"[(1171, 785)]",[],[1],[0.6166666666666667],horizontal,"(390.0, 762.0)",0.6833333333333333,0.576,1,6698.259,3,0.02,same
0,843,valid,"[(1158, 777)]",[],[1],[0.6],vertical,"(390.0, 262.0)",1.4333333333333333,0.559,1,6703.965,3,0.02,same
0,844,valid,"[(1158, 781)]",[],[1],[0.6],vertical,"(890.0, 762.0)",0.5,0.557,1,6710.17,3,0.02,same
0,845,invalid_adjacent_other_bar,"[(1159, 794)]",[],[1],[0.6],vertical,"(390.0, 762.0)",0.36666666666666664,0.561,1,6715.581,3,0.02,other
0,846,catch,"[(1151, 780)]",[],[1],[],horizontal,"(890.0, 262.0)",1.7,nan,1,6721.148,3,0.02,same
0,847,valid,"[(1171, 781)]",[],[1],[0.75],horizontal,"(890.0, 262.0)",0.9833333333333333,0.7,1,6727.031,3,0.02,same
0,848,valid,"[(1163, 765)]",[],[1],[0.6333333333333333],horizontal,"(390.0, 762.0)",0.6333333333333333,0.599,1,6733.348,3,0.02,same
0,849,catch,"[(1171, 761)]",[],[1],[],vertical,"(890.0, 262.0)",1.7,nan,1,6739.23,3,0.02,same
0,850,valid,"[(1160, 785)]",[],[1],[0.5666666666666667],vertical,"(390.0, 262.0)",1.4833333333333334,0.528,1,6745.347,3,0.02,same
0,851,valid,"[(1166, 790)]",[],[1],[0.7166666666666667],horizontal,"(890.0, 262.0)",0.9,0.675,1,6751.88,3,0.02,same
0,852,catch,"[(1137, 782)]",[],[1],[],horizontal,"(390.0, 762.0)",1.7,nan,1,6757.998,3,0.02,same
0,853,valid,"[(1157, 782)]",[],[1],[0.5833333333333334],vertical,"(390.0, 262.0)",0.8833333333333333,0.546,1,6764.231,3,0.02,same
0,854,valid,"[(1159, 770)]",[],[1],[0.6],horizontal,"(390.0, 762.0)",1.4833333333333334,0.559,1,6770.181,3,0.02,same
0,855,catch,"[(1155, 785)]",[],[1],[],vertical,"(890.0, 262.0)",1.7,nan,1,6776.314,3,0.02,same
0,856,valid,"[(1169, 769)]",[],[1],[0.55],vertical,"(390.0, 262.0)",1.4333333333333333,0.512,1,6782.326,3,0.02,same
0,857,valid,"[(1158, 776)]",[],[1],[0.4666666666666667],horizontal,"(390.0, 762.0)",1.4,0.428,1,6788.715,3,0.02,same
0,858,valid,"[(1156, 777)]",[],[1],[0.7666666666666666],horizontal,"(890.0, 762.0)",0.5,0.723,1,6794.912,3,0.02,same
0,859,valid,"[(1176, 787)]",[],[1],[0.6833333333333333],horizontal,"(890.0, 762.0)",1.2333333333333334,0.635,1,6800.61,3,0.02,same
0,860,valid,"[(1168, 796)]",[],[1],[0.6666666666666666],vertical,"(390.0, 762.0)",1.1833333333333333,0.627,1,6806.696,3,0.02,same
0,861,valid,"[(1132, 770)]",[],[1],[0.5833333333333334],vertical,"(390.0, 762.0)",1.0,0.54,1,6813.175,3,0.02,same
0,862,valid,"[(1172, 787)]",[],[1],[0.6333333333333333],vertical,"(390.0, 762.0)",0.7666666666666666,0.591,1,6819.494,3,0.02,same
0,863,valid,"[(1159, 779)]",[],[1],[0.6166666666666667],horizontal,"(390.0, 762.0)",1.3333333333333333,0.578,1,6825.19,3,0.02,same
