block,practice,trial,change_interval_s,change_interval_frames,taps_start_time_during_fix,taps_end_time_during_fix,taps_start_loc_during_fix,taps_end_loc_during_fix,taps_on_lever_during_fix,taps_on_lever_frame_during_fix,taps_on_lever_s_during_fix,fix_xy,bar_orientation,target_xy,cti,rt,acc,time
1,True,1,0.79,47,[],[],"[(1166, 897)]",[],[1],[24],[0.4],"[640.0, 512.0]",vertical,"(390.0, 762.0)",[0.9666666666666667],[0.358],1,0.108
1,True,2,1.091,65,[],[21836],"[(1189, 891)]","[(1136, 912)]",[1],[51],[0.85],"[640.0, 512.0]",horizontal,"(890.0, 762.0)",[],[0],0,5.337
1,True,3,0.571,34,[],[],"[(754, 936), (1132, 914)]",[],"[0, 1]",[],[],"[640.0, 512.0]",vertical,"(890.0, 762.0)",[],[0],0,16.369
1,True,4,1.046,62,[],[],"[(1213, 907)]",[],[1],[],[],"[640.0, 512.0]",vertical,"(390.0, 762.0)",[],[0],0,21.118
1,False,1,1.068,64,[],[],"[(1148, 918)]",[],[1],[51],[0.85],"[640.0, 512.0]",vertical,"(890.0, 762.0)",[1.0166666666666666],[0.805],0,36.437
1,False,2,0.599,35,[],[49751],"[(1119, 890)]","[(1080, 903)]",[1],[12],[0.2],"[640.0, 512.0]",horizontal,"(890.0, 762.0)",[],[0],0,41.621
1,False,3,1.143,68,[],[],"[(1189, 872)]",[],[1],[51],[0.85],"[640.0, 512.0]",vertical,"(390.0, 262.0)",[1.45],[0.81],0,44.276
1,False,4,0.723,43,[],[],"[(1148, 842)]",[],[1],[],[],"[640.0, 512.0]",vertical,"(390.0, 262.0)",[],[0],0,50.044
1,False,5,1.117,67,[],[],"[(750, 985), (1184, 877)]",[],"[0, 1]",[51],[0.85],"[640.0, 512.0]",horizontal,"(890.0, 762.0)",[1.2333333333333334],[0.818],0,52.59
1,False,6,0.691,41,[],[],"[(1164, 899)]",[],[1],[36],[0.6],"[640.0, 512.0]",vertical,"(390.0, 762.0)",[0.8333333333333334],[0.571],1,69.496
1,False,7,0.977,58,[],[81850],"[(1115, 898)]","[(1105, 895)]",[1],[8],[0.13333333333333333],"[640.0, 512.0]",vertical,"(890.0, 262.0)",[],[0],0,73.994
1,False,8,0.888,53,[],[],"[(1136, 869)]",[],[1],[39],[0.65],"[640.0, 512.0]",horizontal,"(890.0, 262.0)",[0.6],[0.616],1,76.375
1,False,9,0.513,30,[],[],"[(1105, 861)]",[],[1],[],[],"[640.0, 512.0]",horizontal,"(390.0, 262.0)",[],[0],0,80.716
1,False,10,0.643,38,[],[],"[(1206, 895)]",[],[1],[35],[0.5833333333333334],"[640.0, 512.0]",vertical,"(890.0, 262.0)",[0.5833333333333334],[0.54],1,83.064
1,False,11,0.874,52,[],[],"[(1126, 884)]",[],[1],[51],[0.85],"[640.0, 512.0]",vertical,"(390.0, 262.0)",[0.8],[0.803],0,102.269
1,False,12,0.517,31,[],[],"[(1170, 889)]",[],[1],[51],[0.85],"[640.0, 512.0]",vertical,"(890.0, 762.0)",[0.8666666666666667],[0.804],0,107.091
1,False,13,0.578,34,[],[],"[(1148, 867)]",[],[1],[30],[0.5],"[640.0, 512.0]",horizontal,"(390.0, 262.0)",[1.2333333333333334],[0.461],1,111.882
1,False,14,0.775,46,[],[],"[(1136, 883)]",[],[1],[51],[0.85],"[640.0, 512.0]",vertical,"(390.0, 762.0)",[0.9833333333333333],[0.813],0,118.885
1,False,15,0.954,57,[],[],"[(1187, 903)]",[],[1],[49],[0.8166666666666667],"[640.0, 512.0]",vertical,"(390.0, 762.0)",[0.95],[0.773],1,123.779
1,False,16,0.562,33,[],[],"[(1123, 871)]",[],[1],[38],[0.6333333333333333],"[640.0, 512.0]",horizontal,"(890.0, 262.0)",[1.5333333333333332],[0.595],1,133.535
1,False,17,1.169,70,[],[],"[(1168, 873)]",[],[1],[51],[0.85],"[640.0, 512.0]",vertical,"(390.0, 762.0)",[1.3166666666666667],[0.807],0,138.541
1,False,18,1.041,62,[],[],"[(1045, 127), (523, 45), (691, 890), (123, 904), (672, 853), (117, 96), (464, 86), (952, 860), (1026, 872), (178, 863), (1038, 866)]",[],"[0, 0, 0, 0, 0, 0, 0, 0, 0, 0, 1]",[],[],"[640.0, 512.0]",vertical,"(390.0, 262.0)",[],[0],0,144.076
1,False,19,1.06,63,[],[],"[(1211, 871)]",[],[1],[40],[0.6666666666666666],"[640.0, 512.0]",vertical,"(890.0, 262.0)",[1.15],[0.619],1,163.597
1,False,20,1.133,67,[],[],"[(1131, 886)]",[],[1],[45],[0.75],"[640.0, 512.0]",horizontal,"(390.0, 762.0)",[1.2166666666666666],[0.703],1,170.864
1,False,21,0.698,41,[],[],"[(1152, 885)]",[],[1],[51],[0.85],"[640.0, 512.0]",vertical,"(390.0, 262.0)",[0.5333333333333333],[0.799],0,176.311
1,False,22,0.595,35,[],[],"[(1184, 881)]",[],[1],[51],[0.85],"[640.0, 512.0]",vertical,"(890.0, 762.0)",[0.8333333333333334],[0.8],0,181.2
1,False,23,0.789,47,[],[],"[(1107, 864)]",[],[1],[51],[0.85],"[640.0, 512.0]",horizontal,"(390.0, 762.0)",[1.6833333333333333],[0.813],0,185.726
1,False,24,1.023,61,[],[],"[(1172, 880)]",[],[1],[],[],"[640.0, 512.0]",horizontal,"(890.0, 762.0)",[],[0],0,191.709
1,False,25,0.773,46,[],[],"[(1194, 862)]",[],[1],[46],[0.7666666666666666],"[640.0, 512.0]",horizontal,"(890.0, 762.0)",[1.4],[0.72],1,195.642
1,False,26,1.177,70,[],[],"[(1153, 881)]",[],[1],[48],[0.8],"[640.0, 512.0]",vertical,"(890.0, 262.0)",[1.3833333333333333],[0.754],1,200.822
1,False,27,0.666,39,[],[],"[(1128, 861)]",[],[1],[51],[0.85],"[640.0, 512.0]",horizontal,"(390.0, 762.0)",[0.8833333333333333],[0.799],0,206.33
1,False,28,1.096,65,[],[],"[(1196, 866)]",[],[1],[],[],"[640.0, 512.0]",horizontal,"(390.0, 262.0)",[],[0],0,210.817
1,False,29,1.141,68,[],[],"[(1198, 885)]",[],[1],[51],[0.85],"[640.0, 512.0]",horizontal,"(890.0, 262.0)",[1.3666666666666667],[0.801],0,214.562
1,False,30,0.551,33,[],[],"[(1183, 898)]",[],[1],[39],[0.65],"[640.0, 512.0]",vertical,"(390.0, 762.0)",[0.6333333333333333],[0.625],1,220.106
1,False,31,0.981,58,[],[],"[(1119, 891)]",[],[1],[34],[0.5666666666666667],"[640.0, 512.0]",horizontal,"(390.0, 262.0)",[0.9],[0.524],1,234.795
1,False,32,0.525,31,[],[],"[(1118, 885)]",[],[1],[51],[0.85],"[640.0, 512.0]",vertical,"(890.0, 762.0)",[1.0333333333333332],[0.805],0,239.512
1,False,33,0.663,39,[],[],"[(1174, 873)]",[],[1],[33],[0.55],"[640.0, 512.0]",vertical,"(890.0, 262.0)",[1.5833333333333333],[0.513],1,244.003
1,False,34,0.703,42,[],[],"[(1118, 888)]",[],[1],[35],[0.5833333333333334],"[640.0, 512.0]",horizontal,"(390.0, 262.0)",[1.0333333333333332],[0.543],1,248.913
1,False,35,1.115,66,[],[],"[(1150, 893)]",[],[1],[45],[0.75],"[640.0, 512.0]",horizontal,"(890.0, 762.0)",[1.15],[0.704],1,253.478
1,False,36,0.853,51,[],[],"[(1111, 888)]",[],[1],[36],[0.6],"[640.0, 512.0]",horizontal,"(390.0, 262.0)",[0.55],[0.554],1,258.656
1,False,37,1.193,71,[],[],"[(1117, 900)]",[],[1],[31],[0.5166666666666666],"[640.0, 512.0]",horizontal,"(890.0, 262.0)",[1.1],[0.476],1,262.79
1,False,38,0.851,51,[],[],"[(1118, 883)]",[],[1],[51],[0.85],"[640.0, 512.0]",vertical,"(890.0, 762.0)",[0.6666666666666666],[0.803],0,267.894
1,False,39,0.814,48,[],[],"[(1150, 878)]",[],[1],[31],[0.5166666666666666],"[640.0, 512.0]",vertical,"(390.0, 262.0)",[1.55],[0.481],1,272.562
1,False,40,1.042,62,[],[],"[(1123, 885)]",[],[1],[34],[0.5666666666666667],"[640.0, 512.0]",horizontal,"(390.0, 762.0)",[1.0833333333333333],[0.528],1,277.767
1,False,41,0.516,30,[],[],"[(1108, 866)]",[],[1],[34],[0.5666666666666667],"[640.0, 512.0]",horizontal,"(390.0, 762.0)",[1.55],[0.524],1,282.777
1,False,42,0.879,52,[],[],"[(1146, 906)]",[],[1],[42],[0.7],"[640.0, 512.0]",horizontal,"(890.0, 762.0)",[1.25],[0.657],1,287.572
1,False,43,1.068,64,[],[],"[(1105, 894)]",[],[1],[38],[0.6333333333333333],"[640.0, 512.0]",vertical,"(890.0, 262.0)",[0.6166666666666667],[0.597],1,292.554
1,False,44,0.505,30,[],[],"[(1155, 903)]",[],[1],[35],[0.5833333333333334],"[640.0, 512.0]",vertical,"(890.0, 262.0)",[0.8833333333333333],[0.545],1,296.945
1,False,45,1.163,69,[],[],"[(1147, 892)]",[],[1],[],[],"[640.0, 512.0]",horizontal,"(890.0, 762.0)",[],[0],0,301.096
1,False,46,0.56,33,[],[],"[(1136, 902)]",[],[1],[34],[0.5666666666666667],"[640.0, 512.0]",vertical,"(390.0, 762.0)",[0.55],[0.526],1,304.946
1,False,47,0.647,38,[],[],"[(1116, 882)]",[],[1],[36],[0.6],"[640.0, 512.0]",vertical,"(890.0, 762.0)",[1.2666666666666666],[0.565],1,308.858
1,False,48,0.926,55,[],[],"[(1121, 888)]",[],[1],[34],[0.5666666666666667],"[640.0, 512.0]",horizontal,"(890.0, 762.0)",[1.45],[0.526],1,313.662
1,False,49,0.986,59,[],[],"[(1143, 884)]",[],[1],[33],[0.55],"[640.0, 512.0]",horizontal,"(890.0, 762.0)",[0.5],[0.51],1,318.697
1,False,50,0.944,56,[],[],"[(1118, 903)]",[],[1],[34],[0.5666666666666667],"[640.0, 512.0]",vertical,"(890.0, 762.0)",[0.9166666666666666],[0.523],1,322.966
1,False,51,1.073,64,[],[],"[(1136, 884)]",[],[1],[40],[0.6666666666666666],"[640.0, 512.0]",vertical,"(890.0, 762.0)",[1.0666666666666667],[0.629],1,327.495
1,False,52,1.051,63,[],[],"[(1117, 881)]",[],[1],[34],[0.5666666666666667],"[640.0, 512.0]",vertical,"(890.0, 762.0)",[1.2],[0.53],1,332.537
1,False,53,1.122,67,[],[],"[(1119, 899)]",[],[1],[36],[0.6],"[640.0, 512.0]",horizontal,"(890.0, 762.0)",[0.7166666666666667],[0.558],1,337.646
1,False,54,0.666,39,[],[],"[(1124, 861)]",[],[1],[34],[0.5666666666666667],"[640.0, 512.0]",horizontal,"(890.0, 262.0)",[1.1666666666666667],[0.527],1,342.323
1,False,55,0.908,54,[],[],"[(1123, 907)]",[],[1],[39],[0.65],"[640.0, 512.0]",horizontal,"(890.0, 262.0)",[1.0333333333333332],[0.612],1,349.541
1,False,56,0.989,59,[],[],"[(1098, 899)]",[],[1],[35],[0.5833333333333334],"[640.0, 512.0]",horizontal,"(890.0, 762.0)",[0.85],[0.54],1,354.48
1,False,57,0.681,40,[],[],"[(1114, 903)]",[],[1],[35],[0.5833333333333334],"[640.0, 512.0]",horizontal,"(890.0, 262.0)",[0.5166666666666666],[0.541],1,358.943
1,False,58,0.611,36,[],[],"[(1105, 889)]",[],[1],[35],[0.5833333333333334],"[640.0, 512.0]",vertical,"(390.0, 762.0)",[1.1166666666666667],[0.54],1,363.044
1,False,59,0.976,58,[],[],"[(1110, 885)]",[],[1],[51],[0.85],"[640.0, 512.0]",vertical,"(390.0, 262.0)",[0.95],[0.801],0,367.429
1,False,60,0.687,41,[],[],"[(1146, 884)]",[],[1],[47],[0.7833333333333333],"[640.0, 512.0]",vertical,"(390.0, 762.0)",[1.5333333333333332],[0.733],1,372.38
2,False,61,0.518,31,[],[],"[(1140, 886)]",[],[1],[46],[0.7666666666666666],"[640.0, 512.0]",vertical,"(390.0, 262.0)",[0.7666666666666666],[0.719],1,377.481
2,False,62,0.871,52,[],[],"[(1122, 897)]",[],[1],[31],[0.5166666666666666],"[640.0, 512.0]",vertical,"(890.0, 262.0)",[1.6833333333333333],[0.475],1,381.996
2,False,63,0.619,37,[],[],"[(1152, 878)]",[],[1],[33],[0.55],"[640.0, 512.0]",vertical,"(890.0, 762.0)",[0.8666666666666667],[0.508],1,387.254
2,False,64,1.056,63,[],[],"[(1118, 907)]",[],[1],[32],[0.5333333333333333],"[640.0, 512.0]",vertical,"(890.0, 762.0)",[1.4],[0.495],1,391.874
2,False,65,0.991,59,[],[],"[(1104, 875)]",[],[1],[30],[0.5],"[640.0, 512.0]",vertical,"(890.0, 262.0)",[0.7333333333333333],[0.461],1,397.095
2,False,66,0.636,38,[],[],"[(1134, 893)]",[],[1],[37],[0.6166666666666667],"[640.0, 512.0]",horizontal,"(390.0, 262.0)",[1.0333333333333332],[0.574],1,401.559
2,False,67,0.727,43,[],[],"[(1110, 902)]",[],[1],[34],[0.5666666666666667],"[640.0, 512.0]",vertical,"(890.0, 762.0)",[1.55],[0.522],1,406.174
2,False,68,1.034,62,[],[],"[(1138, 898)]",[],[1],[32],[0.5333333333333333],"[640.0, 512.0]",vertical,"(390.0, 262.0)",[1.5166666666666666],[0.496],1,411.176
2,False,69,1.053,63,[],[],"[(1100, 884)]",[],[1],[],[],"[640.0, 512.0]",vertical,"(890.0, 762.0)",[],[0],0,416.603
2,False,70,0.711,42,[],[],"[(1137, 886)]",[],[1],[33],[0.55],"[640.0, 512.0]",horizontal,"(890.0, 762.0)",[1.25],[0.509],1,421.361
2,False,71,1.058,63,[],[],"[(1106, 894)]",[],[1],[33],[0.55],"[640.0, 512.0]",horizontal,"(890.0, 762.0)",[1.55],[0.508],1,426.247
2,False,72,0.837,50,[],[],"[(1105, 903)]",[],[1],[35],[0.5833333333333334],"[640.0, 512.0]",horizontal,"(390.0, 762.0)",[0.6833333333333333],[0.546],1,431.506
2,False,73,0.549,32,[],[],"[(1106, 893)]",[],[1],[34],[0.5666666666666667],"[640.0, 512.0]",horizontal,"(390.0, 762.0)",[1.1666666666666667],[0.524],1,435.88
2,False,74,1.041,62,[],[],"[(1129, 879)]",[],[1],[35],[0.5833333333333334],"[640.0, 512.0]",vertical,"(390.0, 262.0)",[0.5833333333333334],[0.549],1,440.444
2,False,75,1.137,68,[],[],"[(1072, 893)]",[],[1],[36],[0.6],"[640.0, 512.0]",horizontal,"(390.0, 262.0)",[0.9],[0.554],1,444.784
2,False,76,0.617,37,[],[],"[(1067, 897)]",[],[1],[51],[0.85],"[640.0, 512.0]",horizontal,"(390.0, 262.0)",[1.6333333333333333],[0.806],0,449.762
2,False,77,0.525,31,[],[],"[(1106, 888)]",[],[1],[35],[0.5833333333333334],"[640.0, 512.0]",horizontal,"(890.0, 762.0)",[1.1333333333333333],[0.542],1,455.159
2,False,78,1.04,62,[],[],"[(1102, 896)]",[],[1],[35],[0.5833333333333334],"[640.0, 512.0]",vertical,"(390.0, 762.0)",[0.9833333333333333],[0.541],1,460.134
2,False,79,0.935,56,[],[],"[(1096, 898)]",[],[1],[41],[0.6833333333333333],"[640.0, 512.0]",horizontal,"(890.0, 762.0)",[1.2833333333333332],[0.64],1,464.899
2,False,80,1.186,71,[],[],"[(1122, 894)]",[],[1],[33],[0.55],"[640.0, 512.0]",vertical,"(390.0, 262.0)",[1.5333333333333332],[0.508],1,470.12
2,False,81,0.673,40,[],[],"[(1111, 892)]",[],[1],[33],[0.55],"[640.0, 512.0]",vertical,"(390.0, 262.0)",[1.5166666666666666],[0.507],1,475.724
2,False,82,0.808,48,[],[],"[(1118, 899)]",[],[1],[33],[0.55],"[640.0, 512.0]",vertical,"(390.0, 262.0)",[0.9833333333333333],[0.513],1,480.614
2,False,83,0.58,34,[],[],"[(1092, 892)]",[],[1],[31],[0.5166666666666666],"[640.0, 512.0]",horizontal,"(390.0, 762.0)",[0.8166666666666667],[0.474],1,485.14
2,False,84,0.805,48,[],[],"[(1093, 899)]",[],[1],[33],[0.55],"[640.0, 512.0]",horizontal,"(390.0, 262.0)",[1.6666666666666667],[0.509],1,489.147
2,False,85,0.587,35,[],[],"[(1105, 903)]",[],[1],[35],[0.5833333333333334],"[640.0, 512.0]",horizontal,"(390.0, 262.0)",[1.4333333333333333],[0.541],1,494.412
2,False,86,0.969,58,[],[],"[(1100, 882)]",[],[1],[33],[0.55],"[640.0, 512.0]",vertical,"(890.0, 762.0)",[1.5333333333333332],[0.507],1,499.054
2,False,87,0.753,45,[],[],"[(1117, 882)]",[],[1],[37],[0.6166666666666667],"[640.0, 512.0]",vertical,"(890.0, 762.0)",[0.5333333333333333],[0.58],1,504.263
2,False,88,0.744,44,[],[],"[(1114, 905)]",[],[1],[33],[0.55],"[640.0, 512.0]",vertical,"(890.0, 762.0)",[1.15],[0.514],1,508.446
2,False,89,1.056,63,[],[],"[(1118, 906)]",[],[1],[42],[0.7],"[640.0, 512.0]",horizontal,"(890.0, 762.0)",[0.9166666666666666],[0.655],1,513.164
2,False,90,0.546,32,[],[],"[(1130, 892)]",[],[1],[44],[0.7333333333333333],"[640.0, 512.0]",horizontal,"(890.0, 762.0)",[1.0833333333333333],[0.687],1,517.896
2,False,91,1.113,66,[],[],"[(1113, 902)]",[],[1],[37],[0.6166666666666667],"[640.0, 512.0]",vertical,"(890.0, 762.0)",[1.1666666666666667],[0.584],1,522.465
2,False,92,1.113,66,[],[],"[(1113, 900)]",[],[1],[31],[0.5166666666666666],"[640.0, 512.0]",horizontal,"(390.0, 762.0)",[1.5833333333333333],[0.48],1,527.372
2,False,93,1.197,71,[],[],"[(1102, 896)]",[],[1],[44],[0.7333333333333333],"[640.0, 512.0]",vertical,"(890.0, 762.0)",[1.5166666666666666],[0.691],1,532.892
2,False,94,0.932,55,[],[],"[(1075, 903)]",[],[1],[51],[0.85],"[640.0, 512.0]",vertical,"(390.0, 262.0)",[0.8333333333333334],[0.804],0,538.4
2,False,95,1.173,70,[],[],"[(1137, 890)]",[],[1],[34],[0.5666666666666667],"[640.0, 512.0]",horizontal,"(390.0, 262.0)",[0.65],[0.527],1,543.269
2,False,96,0.91,54,[],[],"[(1103, 876)]",[],[1],[33],[0.55],"[640.0, 512.0]",horizontal,"(890.0, 262.0)",[0.75],[0.509],1,562.347
2,False,97,0.941,56,[],[],"[(1087, 897)]",[],[1],[34],[0.5666666666666667],"[640.0, 512.0]",vertical,"(890.0, 262.0)",[0.8666666666666667],[0.533],1,566.829
2,False,98,0.832,49,[],[],"[(1103, 899)]",[],[1],[34],[0.5666666666666667],"[640.0, 512.0]",vertical,"(890.0, 262.0)",[1.55],[0.531],1,571.513
2,False,99,0.968,58,[],[],"[(1099, 889)]",[],[1],[24],[0.4],"[640.0, 512.0]",vertical,"(390.0, 262.0)",[1.4833333333333334],[0.365],1,576.646
2,False,100,0.84,50,[],[],"[(1129, 884)]",[],[1],[34],[0.5666666666666667],"[640.0, 512.0]",horizontal,"(390.0, 262.0)",[1.05],[0.529],1,581.575
2,False,101,1.199,71,[],[],"[(1121, 883)]",[],[1],[33],[0.55],"[640.0, 512.0]",vertical,"(890.0, 762.0)",[1.4166666666666667],[0.509],1,586.168
2,False,102,0.789,47,[],[],"[(1126, 885)]",[],[1],[35],[0.5833333333333334],"[640.0, 512.0]",horizontal,"(890.0, 762.0)",[1.2333333333333334],[0.539],1,591.358
2,False,103,1.047,62,[],[],"[(1116, 901)]",[],[1],[36],[0.6],"[640.0, 512.0]",horizontal,"(390.0, 262.0)",[1.0333333333333332],[0.556],1,596.076
2,False,104,0.832,49,[],[],"[(1111, 891)]",[],[1],[35],[0.5833333333333334],"[640.0, 512.0]",vertical,"(390.0, 262.0)",[0.7166666666666667],[0.535],1,600.864
2,False,105,0.812,48,[],[],"[(1101, 898)]",[],[1],[34],[0.5666666666666667],"[640.0, 512.0]",vertical,"(390.0, 762.0)",[1.2333333333333334],[0.525],1,605.115
2,False,106,0.574,34,[],[],"[(1111, 891)]",[],[1],[33],[0.55],"[640.0, 512.0]",vertical,"(890.0, 762.0)",[1.55],[0.508],1,609.974
2,False,107,1.045,62,[],[],"[(1120, 894)]",[],[1],[34],[0.5666666666666667],"[640.0, 512.0]",horizontal,"(890.0, 762.0)",[0.75],[0.523],1,614.974
2,False,108,0.642,38,[],[],"[(1093, 880)]",[],[1],[35],[0.5833333333333334],"[640.0, 512.0]",vertical,"(390.0, 262.0)",[0.6166666666666667],[0.547],1,619.546
2,False,109,0.637,38,[],[],"[(1106, 899)]",[],[1],[10],[0.16666666666666666],"[640.0, 512.0]",horizontal,"(890.0, 262.0)",[1.5333333333333332],[0.136],1,623.641
2,False,110,1.18,70,[],[],"[(1100, 888)]",[],[1],[30],[0.5],"[640.0, 512.0]",horizontal,"(390.0, 262.0)",[1.05],[0.46],1,628.317
2,False,111,0.601,36,[],[],"[(1105, 897)]",[],[1],[32],[0.5333333333333333],"[640.0, 512.0]",vertical,"(390.0, 762.0)",[1.3],[0.494],1,633.331
2,False,112,1.128,67,[],[],"[(1136, 914)]",[],[1],[32],[0.5333333333333333],"[640.0, 512.0]",horizontal,"(390.0, 262.0)",[1.2],[0.493],1,637.931
2,False,113,0.738,44,[],[],"[(1074, 884)]",[],[1],[35],[0.5833333333333334],"[640.0, 512.0]",vertical,"(390.0, 762.0)",[1.55],[0.538],1,642.957
2,False,114,1.143,68,[],[],"[(1091, 902)]",[],[1],[31],[0.5166666666666666],"[640.0, 512.0]",horizontal,"(890.0, 262.0)",[0.75],[0.482],1,647.958
2,False,115,1.077,64,[],[],"[(1087, 883)]",[],[1],[35],[0.5833333333333334],"[640.0, 512.0]",horizontal,"(390.0, 762.0)",[1.5666666666666667],[0.537],1,652.659
2,False,116,1.086,65,[],[],"[(1061, 889)]",[],[1],[33],[0.55],"[640.0, 512.0]",vertical,"(890.0, 262.0)",[0.75],[0.512],1,657.911
2,False,117,0.795,47,[],[],"[(1118, 880)]",[],[1],[36],[0.6],"[640.0, 512.0]",horizontal,"(390.0, 762.0)",[1.3666666666666667],[0.552],1,662.463
2,False,118,0.617,37,[],[],"[(1081, 889)]",[],[1],[29],[0.48333333333333334],"[640.0, 512.0]",horizontal,"(390.0, 262.0)",[1.6333333333333333],[0.441],1,667.357
2,False,119,0.679,40,[],[],"[(1119, 900)]",[],[1],[32],[0.5333333333333333],"[640.0, 512.0]",vertical,"(890.0, 262.0)",[1.0833333333333333],[0.488],1,672.109
2,False,120,0.791,47,[],[],"[(1109, 900)]",[],[1],[35],[0.5833333333333334],"[640.0, 512.0]",horizontal,"(390.0, 262.0)",[0.75],[0.542],1,676.612
3,False,121,1.185,71,[],[],"[(1112, 901)]",[],[1],[34],[0.5666666666666667],"[640.0, 512.0]",vertical,"(390.0, 762.0)",[1.5833333333333333],[0.523],1,680.873
3,False,122,0.688,41,[],[],"[(1093, 902)]",[],[1],[30],[0.5],"[640.0, 512.0]",horizontal,"(890.0, 262.0)",[1.4166666666666667],[0.46],1,686.286
3,False,123,1.13,67,[],[],"[(1098, 892)]",[],[1],[36],[0.6],"[640.0, 512.0]",vertical,"(390.0, 762.0)",[0.5166666666666666],[0.555],1,690.974
3,False,124,0.765,45,[],[],"[(1101, 904)]",[],[1],[30],[0.5],"[640.0, 512.0]",horizontal,"(390.0, 262.0)",[1.7],[0.464],1,695.447
3,False,125,0.9,54,[],[],"[(1081, 913)]",[],[1],[34],[0.5666666666666667],"[640.0, 512.0]",vertical,"(390.0, 262.0)",[1.2666666666666666],[0.525],1,700.423
3,False,126,1.155,69,[],[],"[(1118, 903)]",[],[1],[32],[0.5333333333333333],"[640.0, 512.0]",vertical,"(890.0, 762.0)",[1.35],[0.492],1,705.396
3,False,127,0.818,49,[],[],"[(1097, 896)]",[],[1],[33],[0.55],"[640.0, 512.0]",horizontal,"(890.0, 762.0)",[1.45],[0.511],1,710.464
3,False,128,0.775,46,[],[],"[(1090, 893)]",[],[1],[42],[0.7],"[640.0, 512.0]",vertical,"(890.0, 262.0)",[1.3166666666666667],[0.649],1,715.463
3,False,129,0.725,43,[],[],"[(1099, 884)]",[],[1],[39],[0.65],"[640.0, 512.0]",horizontal,"(390.0, 762.0)",[1.2333333333333334],[0.608],1,720.318
3,False,130,1.161,69,[],[],"[(1084, 900)]",[],[1],[35],[0.5833333333333334],"[640.0, 512.0]",horizontal,"(890.0, 762.0)",[0.7333333333333333],[0.546],1,725.186
3,False,131,0.969,58,[],[],"[(1103, 884)]",[],[1],[36],[0.6],"[640.0, 512.0]",horizontal,"(390.0, 762.0)",[1.6166666666666667],[0.556],1,729.871
3,False,132,0.741,44,[],[],"[(1080, 898)]",[],[1],[34],[0.5666666666666667],"[640.0, 512.0]",horizontal,"(890.0, 762.0)",[0.9666666666666667],[0.524],1,735.287
3,False,133,0.73,43,[],[],"[(1095, 899)]",[],[1],[32],[0.5333333333333333],"[640.0, 512.0]",vertical,"(890.0, 262.0)",[1.6833333333333333],[0.497],1,739.608
3,False,134,0.809,48,[],[],"[(1087, 893)]",[],[1],[51],[0.85],"[640.0, 512.0]",horizontal,"(390.0, 262.0)",[1.1],[0.804],0,744.76
3,False,135,1.16,69,[],[],"[(1190, 902)]",[],[1],[32],[0.5333333333333333],"[640.0, 512.0]",vertical,"(390.0, 762.0)",[1.4666666666666666],[0.49],1,749.63
3,False,136,0.978,58,[],[],"[(1082, 892)]",[],[1],[36],[0.6],"[640.0, 512.0]",vertical,"(890.0, 762.0)",[0.7],[0.551],1,783.722
3,False,137,1.11,66,[],[],"[(1093, 885)]",[],[1],[40],[0.6666666666666666],"[640.0, 512.0]",horizontal,"(390.0, 262.0)",[0.75],[0.62],1,788.097
3,False,138,0.919,55,[],[],"[(1066, 893)]",[],[1],[45],[0.75],"[640.0, 512.0]",horizontal,"(890.0, 762.0)",[0.55],[0.704],1,792.742
3,False,139,1.187,71,[],[],"[(1086, 895)]",[],[1],[35],[0.5833333333333334],"[640.0, 512.0]",horizontal,"(890.0, 762.0)",[1.0833333333333333],[0.541],1,797.225
3,False,140,0.689,41,[],[],"[(1055, 886)]",[],[1],[34],[0.5666666666666667],"[640.0, 512.0]",vertical,"(890.0, 262.0)",[1.4666666666666666],[0.526],1,802.345
3,False,141,0.973,58,[],[],"[(1082, 885)]",[],[1],[39],[0.65],"[640.0, 512.0]",vertical,"(390.0, 262.0)",[0.8833333333333333],[0.605],1,807.149
3,False,142,1.076,64,[],[],"[(1066, 889)]",[],[1],[37],[0.6166666666666667],"[640.0, 512.0]",horizontal,"(890.0, 762.0)",[1.35],[0.572],1,811.653
3,False,143,1.181,70,[],[],"[(1067, 894)]",[],[1],[33],[0.55],"[640.0, 512.0]",vertical,"(890.0, 262.0)",[1.6],[0.508],1,816.799
3,False,144,1.05,63,[],[],"[(1081, 889)]",[],[1],[42],[0.7],"[640.0, 512.0]",horizontal,"(890.0, 262.0)",[0.6],[0.661],1,822.222
3,False,145,1.097,65,[],[],"[(1056, 892)]",[],[1],[33],[0.55],"[640.0, 512.0]",vertical,"(890.0, 262.0)",[0.8],[0.511],1,826.818
3,False,146,0.787,47,[],[],"[(1063, 910)]",[],[1],[31],[0.5166666666666666],"[640.0, 512.0]",horizontal,"(890.0, 262.0)",[1.6666666666666667],[0.473],1,831.512
3,False,147,0.819,49,[],[],"[(1079, 880)]",[],[1],[51],[0.85],"[640.0, 512.0]",horizontal,"(890.0, 762.0)",[1.4],[0.806],0,836.767
3,False,148,0.999,59,[],[],"[(1136, 880)]",[],[1],[31],[0.5166666666666666],"[640.0, 512.0]",vertical,"(890.0, 762.0)",[1.5],[0.475],1,841.949
3,False,149,1.149,68,[],[],"[(1111, 894)]",[],[1],[34],[0.5666666666666667],"[640.0, 512.0]",vertical,"(390.0, 762.0)",[0.7],[0.522],1,847.129
3,False,150,0.689,41,[],[],"[(1067, 880)]",[],[1],[37],[0.6166666666666667],"[640.0, 512.0]",vertical,"(390.0, 762.0)",[0.8166666666666667],[0.574],1,851.69
3,False,151,0.873,52,[],[],"[(1063, 880)]",[],[1],[34],[0.5666666666666667],"[640.0, 512.0]",vertical,"(890.0, 262.0)",[0.95],[0.522],1,856.028
3,False,152,1.075,64,[],[],"[(1057, 880)]",[],[1],[38],[0.6333333333333333],"[640.0, 512.0]",vertical,"(390.0, 262.0)",[0.95],[0.59],1,860.761
3,False,153,0.602,36,[],[],"[(1067, 877)]",[],[1],[33],[0.55],"[640.0, 512.0]",horizontal,"(390.0, 262.0)",[1.1833333333333333],[0.514],1,865.71
3,False,154,1.095,65,[],[],"[(1090, 895)]",[],[1],[32],[0.5333333333333333],"[640.0, 512.0]",horizontal,"(890.0, 262.0)",[0.8666666666666667],[0.491],1,870.16
3,False,155,0.683,40,[],[],"[(1075, 888)]",[],[1],[35],[0.5833333333333334],"[640.0, 512.0]",horizontal,"(890.0, 762.0)",[0.6333333333333333],[0.539],1,874.812
3,False,156,0.852,51,[],[],"[(1091, 884)]",[],[1],[51],[0.85],"[640.0, 512.0]",horizontal,"(890.0, 262.0)",[0.7333333333333333],[0.8],0,878.843
3,False,157,0.53,31,[],[],"[(1137, 875)]",[],[1],[41],[0.6833333333333333],"[640.0, 512.0]",horizontal,"(390.0, 762.0)",[0.7666666666666666],[0.635],1,883.37
3,False,158,0.741,44,[],[],"[(1105, 875)]",[],[1],[35],[0.5833333333333334],"[640.0, 512.0]",horizontal,"(390.0, 262.0)",[1.65],[0.542],1,890.477
3,False,159,1.174,70,[],[],"[(1063, 900)]",[],[1],[33],[0.55],"[640.0, 512.0]",vertical,"(390.0, 262.0)",[0.7],[0.507],1,895.637
3,False,160,0.915,54,[],[],"[(1067, 894)]",[],[1],[51],[0.85],"[640.0, 512.0]",vertical,"(390.0, 762.0)",[1.0166666666666666],[0.813],0,900.329
3,False,161,1.017,61,[],[],"[(1111, 885)]",[],[1],[46],[0.7666666666666666],"[640.0, 512.0]",vertical,"(390.0, 262.0)",[1.5333333333333332],[0.718],1,905.275
3,False,162,1.105,66,[],[],"[(1087, 860)]",[],[1],[33],[0.55],"[640.0, 512.0]",horizontal,"(390.0, 762.0)",[0.9333333333333333],[0.516],1,912.942
3,False,163,0.649,38,[],[],"[(1095, 893)]",[],[1],[32],[0.5333333333333333],"[640.0, 512.0]",vertical,"(390.0, 262.0)",[1.05],[0.494],1,917.835
3,False,164,0.919,55,[],[],"[(1099, 896)]",[],[1],[29],[0.48333333333333334],"[640.0, 512.0]",horizontal,"(390.0, 262.0)",[1.65],[0.446],1,922.253
3,False,165,1.078,64,[],[],"[(1085, 882)]",[],[1],[31],[0.5166666666666666],"[640.0, 512.0]",vertical,"(390.0, 762.0)",[1.65],[0.48],1,927.462
3,False,166,0.67,40,[],[],"[(1089, 883)]",[],[1],[34],[0.5666666666666667],"[640.0, 512.0]",horizontal,"(890.0, 762.0)",[0.5],[0.522],1,932.939
3,False,167,1.15,69,[],[],"[(1098, 886)]",[],[1],[33],[0.55],"[640.0, 512.0]",vertical,"(390.0, 762.0)",[0.8166666666666667],[0.507],1,936.947
3,False,168,0.661,39,[],[],"[(1102, 887)]",[],[1],[37],[0.6166666666666667],"[640.0, 512.0]",horizontal,"(890.0, 762.0)",[0.8666666666666667],[0.577],1,941.751
3,False,169,0.517,31,[],[],"[(1091, 904)]",[],[1],[44],[0.7333333333333333],"[640.0, 512.0]",vertical,"(890.0, 262.0)",[0.6666666666666666],[0.686],1,945.971
3,False,170,0.559,33,[],[],"[(1110, 898)]",[],[1],[34],[0.5666666666666667],"[640.0, 512.0]",vertical,"(390.0, 262.0)",[0.5],[0.527],1,950.172
3,False,171,0.751,45,[],[],"[(1129, 911)]",[],[1],[35],[0.5833333333333334],"[640.0, 512.0]",vertical,"(390.0, 262.0)",[1.7],[0.545],1,956.916
3,False,172,0.812,48,[],[],"[(1123, 892)]",[],[1],[34],[0.5666666666666667],"[640.0, 512.0]",vertical,"(390.0, 762.0)",[0.6166666666666667],[0.526],1,962.028
3,False,173,1.18,70,[],[],"[(1123, 889)]",[],[1],[32],[0.5333333333333333],"[640.0, 512.0]",vertical,"(890.0, 762.0)",[0.85],[0.498],1,966.115
3,False,174,0.776,46,[],[],"[(1099, 884)]",[],[1],[40],[0.6666666666666666],"[640.0, 512.0]",vertical,"(390.0, 762.0)",[0.5166666666666666],[0.621],1,970.824
3,False,175,0.796,47,[],[],"[(1098, 887)]",[],[1],[43],[0.7166666666666667],"[640.0, 512.0]",horizontal,"(890.0, 762.0)",[0.9],[0.674],1,975.025
3,False,176,1.13,67,[],[],"[(1111, 884)]",[],[1],[32],[0.5333333333333333],"[640.0, 512.0]",vertical,"(390.0, 762.0)",[1.5833333333333333],[0.486],1,979.823
3,False,177,1.191,71,[],[],"[(1112, 882)]",[],[1],[30],[0.5],"[640.0, 512.0]",vertical,"(390.0, 262.0)",[0.8166666666666667],[0.458],1,985.373
3,False,178,0.711,42,[],[],"[(1104, 885)]",[],[1],[31],[0.5166666666666666],"[640.0, 512.0]",horizontal,"(890.0, 262.0)",[1.4666666666666666],[0.48],1,990.053
3,False,179,1.187,71,[],[],"[(1118, 899)]",[],[1],[],[],"[640.0, 512.0]",horizontal,"(390.0, 262.0)",[],[0],0,994.838
3,False,180,1.154,69,[],[],"[(1150, 854)]",[],[1],[],[],"[640.0, 512.0]",horizontal,"(890.0, 262.0)",[],[0],0,1000.768
4,False,181,1.062,63,[],[],"[(1122, 851)]",[],[1],[37],[0.6166666666666667],"[640.0, 512.0]",vertical,"(390.0, 762.0)",[0.7166666666666667],[0.573],1,1004.756
4,False,182,1.03,61,[],[],"[(1087, 892)]",[],[1],[33],[0.55],"[640.0, 512.0]",horizontal,"(890.0, 762.0)",[1.0333333333333332],[0.503],1,1010.897
4,False,183,0.636,38,[],[],"[(1093, 871)]",[],[1],[33],[0.55],"[640.0, 512.0]",vertical,"(890.0, 762.0)",[1.6333333333333333],[0.506],1,1015.924
4,False,184,0.567,34,[],[],"[(1113, 888)]",[],[1],[33],[0.55],"[640.0, 512.0]",horizontal,"(390.0, 762.0)",[0.75],[0.507],1,1021.107
4,False,185,0.924,55,[],[],"[(1101, 888)]",[],[1],[40],[0.6666666666666666],"[640.0, 512.0]",horizontal,"(390.0, 262.0)",[0.9333333333333333],[0.623],1,1025.076
4,False,186,0.54,32,[],[],"[(1074, 884)]",[],[1],[34],[0.5666666666666667],"[640.0, 512.0]",horizontal,"(890.0, 262.0)",[0.9166666666666666],[0.522],1,1029.931
4,False,187,1.15,69,[],[],"[(1120, 888)]",[],[1],[35],[0.5833333333333334],"[640.0, 512.0]",horizontal,"(390.0, 762.0)",[0.8166666666666667],[0.543],1,1034.247
4,False,188,0.681,40,[],[],"[(1115, 889)]",[],[1],[34],[0.5666666666666667],"[640.0, 512.0]",horizontal,"(890.0, 762.0)",[0.9166666666666666],[0.523],1,1039.115
4,False,189,1.149,68,[],[],"[(1123, 889)]",[],[1],[37],[0.6166666666666667],"[640.0, 512.0]",horizontal,"(890.0, 262.0)",[1.3833333333333333],[0.569],1,1044.268
4,False,190,0.823,49,[],[],"[(1096, 869)]",[],[1],[32],[0.5333333333333333],"[640.0, 512.0]",horizontal,"(890.0, 262.0)",[0.65],[0.5],1,1049.453
4,False,191,0.93,55,[],[],"[(1065, 889)]",[],[1],[39],[0.65],"[640.0, 512.0]",horizontal,"(390.0, 762.0)",[1.3833333333333333],[0.602],1,1053.649
4,False,192,0.894,53,[],[],"[(1103, 886)]",[],[1],[31],[0.5166666666666666],"[640.0, 512.0]",vertical,"(890.0, 262.0)",[0.6666666666666666],[0.472],1,1058.683
4,False,193,0.811,48,[],[],"[(1093, 889)]",[],[1],[34],[0.5666666666666667],"[640.0, 512.0]",horizontal,"(390.0, 762.0)",[1.0],[0.519],1,1062.999
4,False,194,0.509,30,[],[],"[(1111, 896)]",[],[1],[35],[0.5833333333333334],"[640.0, 512.0]",horizontal,"(890.0, 762.0)",[1.3],[0.541],1,1067.459
4,False,195,0.924,55,[],[],"[(1112, 886)]",[],[1],[32],[0.5333333333333333],"[640.0, 512.0]",horizontal,"(890.0, 762.0)",[1.3166666666666667],[0.488],1,1071.993
4,False,196,0.566,33,[],[],"[(1103, 882)]",[],[1],[35],[0.5833333333333334],"[640.0, 512.0]",vertical,"(390.0, 762.0)",[1.15],[0.541],1,1076.999
4,False,197,1.139,68,[],[],"[(1063, 892)]",[],[1],[33],[0.55],"[640.0, 512.0]",vertical,"(390.0, 762.0)",[0.5],[0.506],1,1081.419
4,False,198,0.504,30,[],[],"[(1120, 880)]",[],[1],[33],[0.55],"[640.0, 512.0]",horizontal,"(890.0, 262.0)",[1.5166666666666666],[0.506],1,1085.825
4,False,199,1.13,67,[],[],"[(1063, 882)]",[],[1],[34],[0.5666666666666667],"[640.0, 512.0]",vertical,"(890.0, 762.0)",[0.65],[0.524],1,1090.617
4,False,200,0.887,53,[],[],"[(1093, 884)]",[],[1],[33],[0.55],"[640.0, 512.0]",vertical,"(390.0, 762.0)",[1.2],[0.505],1,1095.025
4,False,201,1.147,68,[],[],"[(1055, 886)]",[],[1],[33],[0.55],"[640.0, 512.0]",horizontal,"(390.0, 762.0)",[1.15],[0.511],1,1099.813
4,False,202,0.688,41,[],[],"[(1081, 884)]",[],[1],[34],[0.5666666666666667],"[640.0, 512.0]",vertical,"(390.0, 762.0)",[0.7666666666666666],[0.523],1,1104.879
4,False,203,0.627,37,[],[],"[(1093, 904)]",[],[1],[32],[0.5333333333333333],"[640.0, 512.0]",vertical,"(390.0, 262.0)",[1.3666666666666667],[0.493],1,1109.111
4,False,204,0.993,59,[],[],"[(1087, 883)]",[],[1],[43],[0.7166666666666667],"[640.0, 512.0]",horizontal,"(390.0, 762.0)",[1.4333333333333333],[0.671],1,1113.862
4,False,205,0.631,37,[],[],"[(1089, 889)]",[],[1],[38],[0.6333333333333333],"[640.0, 512.0]",vertical,"(390.0, 262.0)",[0.5166666666666666],[0.588],1,1119.274
4,False,206,1.045,62,[],[],"[(1100, 904)]",[],[1],[36],[0.6],"[640.0, 512.0]",vertical,"(390.0, 262.0)",[0.9666666666666667],[0.553],1,1123.343
4,False,207,0.569,34,[],[],"[(1083, 859)]",[],[1],[32],[0.5333333333333333],"[640.0, 512.0]",vertical,"(890.0, 262.0)",[0.8166666666666667],[0.499],1,1130.913
4,False,208,1.133,67,[],[],"[(1089, 898)]",[],[1],[32],[0.5333333333333333],"[640.0, 512.0]",horizontal,"(390.0, 762.0)",[1.6833333333333333],[0.491],1,1135.133
4,False,209,0.635,38,[],[],"[(1098, 898)]",[],[1],[34],[0.5666666666666667],"[640.0, 512.0]",horizontal,"(390.0, 762.0)",[1.0666666666666667],[0.526],1,1140.493
4,False,210,1.094,65,[],[],"[(1080, 900)]",[],[1],[39],[0.65],"[640.0, 512.0]",vertical,"(390.0, 262.0)",[0.7166666666666667],[0.61],1,1145.723
4,False,211,1.037,62,[],[],"[(1103, 884)]",[],[1],[37],[0.6166666666666667],"[640.0, 512.0]",horizontal,"(890.0, 762.0)",[0.8],[0.567],1,1150.527
4,False,212,1.081,64,[],[],"[(1117, 881)]",[],[1],[38],[0.6333333333333333],"[640.0, 512.0]",vertical,"(890.0, 762.0)",[0.8666666666666667],[0.593],1,1155.066
4,False,213,1.139,68,[],[],"[(1122, 884)]",[],[1],[34],[0.5666666666666667],"[640.0, 512.0]",vertical,"(390.0, 762.0)",[1.2666666666666666],[0.522],1,1159.912
4,False,214,0.981,58,[],[],"[(1101, 888)]",[],[1],[42],[0.7],"[640.0, 512.0]",vertical,"(390.0, 262.0)",[1.0833333333333333],[0.656],1,1165.116
4,False,215,0.587,35,[],[],"[(1098, 887)]",[],[1],[37],[0.6166666666666667],"[640.0, 512.0]",vertical,"(390.0, 262.0)",[1.1333333333333333],[0.572],1,1169.976
4,False,216,1.057,63,[],[],"[(1121, 892)]",[],[1],[34],[0.5666666666666667],"[640.0, 512.0]",horizontal,"(390.0, 762.0)",[0.8333333333333334],[0.526],1,1174.543
4,False,217,1.167,70,[],[],"[(1112, 889)]",[],[1],[32],[0.5333333333333333],"[640.0, 512.0]",vertical,"(390.0, 262.0)",[0.5833333333333334],[0.488],1,1179.3
4,False,218,0.562,33,[],[],"[(1087, 889)]",[],[1],[36],[0.6],"[640.0, 512.0]",horizontal,"(890.0, 262.0)",[0.5666666666666667],[0.557],1,1183.695
4,False,219,0.636,38,[],[],"[(1120, 892)]",[],[1],[33],[0.55],"[640.0, 512.0]",horizontal,"(890.0, 262.0)",[0.5],[0.511],1,1187.614
4,False,220,0.522,31,[],[],"[(1100, 885)]",[],[1],[35],[0.5833333333333334],"[640.0, 512.0]",vertical,"(390.0, 762.0)",[1.0],[0.542],1,1191.62
4,False,221,1.092,65,[],[],"[(1087, 890)]",[],[1],[36],[0.6],"[640.0, 512.0]",vertical,"(390.0, 762.0)",[1.0333333333333332],[0.561],1,1195.99
4,False,222,0.975,58,[],[],"[(1096, 892)]",[],[1],[37],[0.6166666666666667],"[640.0, 512.0]",horizontal,"(390.0, 762.0)",[1.1666666666666667],[0.575],1,1200.83
4,False,223,0.81,48,[],[],"[(1096, 872)]",[],[1],[36],[0.6],"[640.0, 512.0]",horizontal,"(390.0, 762.0)",[1.0333333333333332],[0.555],1,1205.826
4,False,224,0.63,37,[],[],"[(1074, 886)]",[],[1],[35],[0.5833333333333334],"[640.0, 512.0]",vertical,"(890.0, 762.0)",[1.55],[0.544],1,1210.356
4,False,225,1.199,71,[],[],"[(1087, 880)]",[],[1],[38],[0.6333333333333333],"[640.0, 512.0]",vertical,"(890.0, 762.0)",[1.2],[0.586],1,1215.145
4,False,226,0.713,42,[],[],"[(1068, 870)]",[],[1],[25],[0.4166666666666667],"[640.0, 512.0]",vertical,"(390.0, 262.0)",[0.75],[0.375],1,1220.379
4,False,227,0.867,52,[],[],"[(1117, 889)]",[],[1],[37],[0.6166666666666667],"[640.0, 512.0]",vertical,"(390.0, 262.0)",[0.5833333333333334],[0.569],1,1224.417
4,False,228,1.01,60,[],[],"[(1071, 880)]",[],[1],[39],[0.65],"[640.0, 512.0]",vertical,"(390.0, 762.0)",[0.6666666666666666],[0.607],1,1228.629
4,False,229,0.677,40,[],[],"[(1091, 884)]",[],[1],[33],[0.55],"[640.0, 512.0]",vertical,"(390.0, 262.0)",[1.5333333333333332],[0.507],1,1233.062
4,False,230,1.019,61,[],[],"[(1087, 880)]",[],[1],[34],[0.5666666666666667],"[640.0, 512.0]",horizontal,"(390.0, 762.0)",[1.3666666666666667],[0.529],1,1237.957
4,False,231,0.612,36,[],[],"[(1079, 884)]",[],[1],[34],[0.5666666666666667],"[640.0, 512.0]",vertical,"(890.0, 262.0)",[1.1166666666666667],[0.518],1,1243.001
4,False,232,1.121,67,[],[],"[(1080, 883)]",[],[1],[35],[0.5833333333333334],"[640.0, 512.0]",horizontal,"(890.0, 762.0)",[1.3333333333333333],[0.541],1,1247.532
4,False,233,0.686,41,[],[],"[(1080, 886)]",[],[1],[36],[0.6],"[640.0, 512.0]",vertical,"(890.0, 762.0)",[0.6],[0.559],1,1252.793
4,False,234,1.181,70,[],[],"[(1081, 889)]",[],[1],[32],[0.5333333333333333],"[640.0, 512.0]",horizontal,"(890.0, 262.0)",[1.2333333333333334],[0.491],1,1257.079
4,False,235,1.034,62,[],[],"[(1050, 877)]",[],[1],[51],[0.85],"[640.0, 512.0]",vertical,"(890.0, 262.0)",[1.3833333333333333],[0.808],0,1262.179
4,False,236,0.556,33,[],[],"[(1093, 870)]",[],[1],[40],[0.6666666666666666],"[640.0, 512.0]",horizontal,"(890.0, 762.0)",[1.4],[0.627],1,1267.493
4,False,237,0.765,45,[],[],"[(1096, 889)]",[],[1],[34],[0.5666666666666667],"[640.0, 512.0]",vertical,"(890.0, 762.0)",[0.9833333333333333],[0.53],1,1272.4
4,False,238,0.72,43,[],[],"[(1098, 880)]",[],[1],[33],[0.55],"[640.0, 512.0]",vertical,"(390.0, 762.0)",[1.35],[0.507],1,1276.85
4,False,239,0.883,52,[],[],"[(1099, 882)]",[],[1],[35],[0.5833333333333334],"[640.0, 512.0]",vertical,"(390.0, 762.0)",[0.6166666666666667],[0.539],1,1281.683
4,False,240,0.505,30,[],[],"[(1100, 884)]",[],[1],[32],[0.5333333333333333],"[640.0, 512.0]",horizontal,"(890.0, 762.0)",[1.6833333333333333],[0.491],1,1285.811
5,False,241,0.845,50,[],[],"[(1096, 886)]",[],[1],[33],[0.55],"[640.0, 512.0]",vertical,"(890.0, 762.0)",[0.65],[0.51],1,1290.79
5,False,242,0.898,53,[],[],"[(1115, 870)]",[],[1],[34],[0.5666666666666667],"[640.0, 512.0]",vertical,"(890.0, 262.0)",[1.1333333333333333],[0.525],1,1294.998
5,False,243,0.573,34,[],[],"[(1082, 889)]",[],[1],[35],[0.5833333333333334],"[640.0, 512.0]",horizontal,"(390.0, 762.0)",[0.7833333333333333],[0.542],1,1299.89
5,False,244,0.925,55,[],[],"[(1099, 871)]",[],[1],[34],[0.5666666666666667],"[640.0, 512.0]",vertical,"(390.0, 262.0)",[1.6],[0.524],1,1304.209
5,False,245,1.115,66,[],[],"[(1086, 899)]",[],[1],[17],[0.2833333333333333],"[640.0, 512.0]",vertical,"(390.0, 262.0)",[1.5],[0.251],1,1309.609
5,False,246,0.741,44,[],[],"[(1087, 883)]",[],[1],[31],[0.5166666666666666],"[640.0, 512.0]",vertical,"(390.0, 262.0)",[0.8666666666666667],[0.476],1,1319.011
5,False,247,1.156,69,[],[],"[(1062, 880)]",[],[1],[45],[0.75],"[640.0, 512.0]",vertical,"(890.0, 762.0)",[1.5166666666666666],[0.7],1,1323.329
5,False,248,0.651,39,[],[],"[(1081, 885)]",[],[1],[30],[0.5],"[640.0, 512.0]",vertical,"(890.0, 762.0)",[1.6166666666666667],[0.459],1,1328.767
5,False,249,0.531,31,[],[],"[(1085, 868)]",[],[1],[26],[0.43333333333333335],"[640.0, 512.0]",vertical,"(890.0, 262.0)",[1.45],[0.394],1,1333.718
5,False,250,0.872,52,[],[],"[(1075, 865)]",[],[1],[34],[0.5666666666666667],"[640.0, 512.0]",horizontal,"(390.0, 762.0)",[0.8833333333333333],[0.525],1,1338.185
5,False,251,1.186,71,[],[],"[(1121, 885)]",[],[1],[30],[0.5],"[640.0, 512.0]",horizontal,"(890.0, 762.0)",[1.1666666666666667],[0.457],1,1342.68
5,False,252,0.526,31,[],[],"[(1108, 892)]",[],[1],[33],[0.55],"[640.0, 512.0]",horizontal,"(390.0, 262.0)",[0.6833333333333333],[0.505],1,1347.543
5,False,253,0.736,44,[],[],"[(1081, 889)]",[],[1],[34],[0.5666666666666667],"[640.0, 512.0]",vertical,"(890.0, 762.0)",[1.1],[0.527],1,1351.421
5,False,254,0.831,49,[],[],"[(1096, 878)]",[],[1],[49],[0.8166666666666667],"[640.0, 512.0]",vertical,"(390.0, 262.0)",[0.8],[0.769],1,1356.153
5,False,255,0.61,36,[],[],"[(1095, 880)]",[],[1],[36],[0.6],"[640.0, 512.0]",horizontal,"(390.0, 262.0)",[1.0333333333333332],[0.56],1,1360.82
5,False,256,0.733,43,[],[],"[(1093, 895)]",[],[1],[32],[0.5333333333333333],"[640.0, 512.0]",vertical,"(390.0, 262.0)",[1.1666666666666667],[0.491],1,1365.198
5,False,257,0.749,44,[],[],"[(1104, 888)]",[],[1],[33],[0.55],"[640.0, 512.0]",vertical,"(390.0, 262.0)",[1.5833333333333333],[0.523],1,1369.747
5,False,258,0.642,38,[],[],"[(1102, 859)]",[],[1],[35],[0.5833333333333334],"[640.0, 512.0]",vertical,"(890.0, 762.0)",[1.4333333333333333],[0.541],1,1374.662
5,False,259,0.653,39,[],[],"[(1123, 879)]",[],[1],[36],[0.6],"[640.0, 512.0]",vertical,"(890.0, 262.0)",[1.1],[0.554],1,1379.631
5,False,260,0.878,52,[],[],"[(1087, 899)]",[],[1],[33],[0.55],"[640.0, 512.0]",horizontal,"(890.0, 762.0)",[0.6166666666666667],[0.507],1,1384.136
5,False,261,0.97,58,[],[],"[(1105, 888)]",[],[1],[40],[0.6666666666666666],"[640.0, 512.0]",vertical,"(390.0, 762.0)",[1.4833333333333334],[0.628],1,1388.348
5,False,262,0.723,43,[],[],"[(1093, 880)]",[],[1],[51],[0.85],"[640.0, 512.0]",horizontal,"(890.0, 262.0)",[0.5166666666666666],[0.8],0,1393.752
5,False,263,0.777,46,[],[],"[(1148, 894)]",[],[1],[35],[0.5833333333333334],"[640.0, 512.0]",horizontal,"(890.0, 762.0)",[0.5166666666666666],[0.541],1,1398.009
5,False,264,1.06,63,[],[],"[(1063, 855)]",[],[1],[36],[0.6],"[640.0, 512.0]",vertical,"(890.0, 762.0)",[1.5],[0.559],1,1436.931
5,False,265,0.69,41,[],[],"[(1104, 870)]",[],[1],[37],[0.6166666666666667],"[640.0, 512.0]",horizontal,"(890.0, 762.0)",[0.7166666666666667],[0.579],1,1442.153
5,False,266,1.135,68,[],[],"[(1105, 890)]",[],[1],[35],[0.5833333333333334],"[640.0, 512.0]",horizontal,"(890.0, 762.0)",[1.0166666666666666],[0.541],1,1446.378
5,False,267,1.049,62,[],[],"[(1099, 885)]",[],[1],[33],[0.55],"[640.0, 512.0]",horizontal,"(890.0, 262.0)",[0.55],[0.502],1,1451.354
5,False,268,0.51,30,[],[],"[(1106, 880)]",[],[1],[32],[0.5333333333333333],"[640.0, 512.0]",horizontal,"(890.0, 262.0)",[1.2],[0.487],1,1455.768
5,False,269,0.992,59,[],[],"[(1105, 884)]",[],[1],[37],[0.6166666666666667],"[640.0, 512.0]",horizontal,"(390.0, 262.0)",[0.5333333333333333],[0.576],1,1460.057
5,False,270,1.047,62,[],[],"[(1118, 894)]",[],[1],[36],[0.6],"[640.0, 512.0]",vertical,"(390.0, 262.0)",[0.5666666666666667],[0.557],1,1464.569
5,False,271,0.969,58,[],[],"[(1139, 894)]",[],[1],[34],[0.5666666666666667],"[640.0, 512.0]",vertical,"(890.0, 762.0)",[1.6666666666666667],[0.522],1,1469.064
5,False,272,0.804,48,[],[],"[(1094, 885)]",[],[1],[34],[0.5666666666666667],"[640.0, 512.0]",horizontal,"(390.0, 762.0)",[0.8833333333333333],[0.521],1,1474.601
5,False,273,0.548,32,[],[],"[(1123, 889)]",[],[1],[34],[0.5666666666666667],"[640.0, 512.0]",vertical,"(390.0, 262.0)",[0.6833333333333333],[0.525],1,1479.089
5,False,274,0.661,39,[],[],"[(1105, 906)]",[],[1],[40],[0.6666666666666666],"[640.0, 512.0]",vertical,"(890.0, 262.0)",[1.05],[0.628],1,1483.166
5,False,275,0.655,39,[],[],"[(1083, 899)]",[],[1],[31],[0.5166666666666666],"[640.0, 512.0]",horizontal,"(390.0, 262.0)",[1.5666666666666667],[0.478],1,1487.625
5,False,276,0.773,46,[],[],"[(1097, 894)]",[],[1],[31],[0.5166666666666666],"[640.0, 512.0]",horizontal,"(890.0, 262.0)",[1.25],[0.475],1,1492.594
5,False,277,0.752,45,[],[],"[(1071, 893)]",[],[1],[33],[0.55],"[640.0, 512.0]",horizontal,"(890.0, 262.0)",[1.1166666666666667],[0.51],1,1497.476
5,False,278,0.502,30,[],[],"[(1090, 901)]",[],[1],[44],[0.7333333333333333],"[640.0, 512.0]",horizontal,"(390.0, 762.0)",[0.55],[0.687],1,1502.172
5,False,279,1.134,68,[],[],"[(1087, 898)]",[],[1],[35],[0.5833333333333334],"[640.0, 512.0]",horizontal,"(390.0, 762.0)",[1.35],[0.541],1,1506.118
5,False,280,1.065,63,[],[],"[(1080, 896)]",[],[1],[39],[0.65],"[640.0, 512.0]",vertical,"(890.0, 762.0)",[1.4333333333333333],[0.605],1,1512.439
5,False,281,0.891,53,[],[],"[(1112, 899)]",[],[1],[32],[0.5333333333333333],"[640.0, 512.0]",horizontal,"(390.0, 262.0)",[1.0666666666666667],[0.493],1,1517.807
5,False,282,0.758,45,[],[],"[(1096, 874)]",[],[1],[34],[0.5666666666666667],"[640.0, 512.0]",horizontal,"(390.0, 262.0)",[0.7166666666666667],[0.529],1,1522.883
5,False,283,0.778,46,[],[],"[(1085, 877)]",[],[1],[35],[0.5833333333333334],"[640.0, 512.0]",horizontal,"(390.0, 762.0)",[1.05],[0.54],1,1527.084
5,False,284,0.891,53,[],[],"[(1102, 879)]",[],[1],[36],[0.6],"[640.0, 512.0]",horizontal,"(890.0, 262.0)",[0.5166666666666666],[0.558],1,1531.701
5,False,285,1.09,65,[],[],"[(1061, 879)]",[],[1],[41],[0.6833333333333333],"[640.0, 512.0]",vertical,"(890.0, 262.0)",[0.8333333333333334],[0.645],1,1535.989
5,False,286,1.171,70,[],[],"[(1123, 886)]",[],[1],[24],[0.4],"[640.0, 512.0]",horizontal,"(890.0, 262.0)",[1.5833333333333333],[0.36],1,1540.919
5,False,287,0.656,39,[],[],"[(1093, 889)]",[],[1],[34],[0.5666666666666667],"[640.0, 512.0]",vertical,"(890.0, 762.0)",[1.4333333333333333],[0.522],1,1546.728
5,False,288,0.563,33,[],[],"[(1112, 893)]",[],[1],[36],[0.6],"[640.0, 512.0]",horizontal,"(390.0, 762.0)",[1.3166666666666667],[0.559],1,1551.494
5,False,289,0.864,51,[],[],"[(1120, 890)]",[],[1],[33],[0.55],"[640.0, 512.0]",vertical,"(890.0, 762.0)",[1.2333333333333334],[0.502],1,1556.267
5,False,290,0.504,30,[],[],"[(1081, 894)]",[],[1],[34],[0.5666666666666667],"[640.0, 512.0]",vertical,"(890.0, 762.0)",[0.5666666666666667],[0.517],1,1561.019
5,False,291,0.659,39,[],[],"[(1097, 893)]",[],[1],[37],[0.6166666666666667],"[640.0, 512.0]",horizontal,"(390.0, 762.0)",[1.1833333333333333],[0.57],1,1564.834
5,False,292,0.856,51,[],[],"[(1106, 899)]",[],[1],[34],[0.5666666666666667],"[640.0, 512.0]",vertical,"(890.0, 762.0)",[1.4166666666666667],[0.522],1,1569.4
5,False,293,0.776,46,[],[],"[(1080, 872)]",[],[1],[32],[0.5333333333333333],"[640.0, 512.0]",horizontal,"(890.0, 762.0)",[0.5333333333333333],[0.491],1,1574.652
5,False,294,0.718,43,[],[],"[(1116, 898)]",[],[1],[38],[0.6333333333333333],"[640.0, 512.0]",horizontal,"(890.0, 762.0)",[1.65],[0.587],1,1578.625
5,False,295,0.982,58,[],[],"[(1035, 900)]",[],[1],[32],[0.5333333333333333],"[640.0, 512.0]",vertical,"(890.0, 262.0)",[1.05],[0.489],1,1583.875
5,False,296,0.509,30,[],[],"[(1093, 884)]",[],[1],[41],[0.6833333333333333],"[640.0, 512.0]",horizontal,"(890.0, 262.0)",[0.5166666666666666],[0.638],1,1588.951
5,False,297,1.153,69,[],[],"[(1099, 880)]",[],[1],[35],[0.5833333333333334],"[640.0, 512.0]",vertical,"(390.0, 762.0)",[1.0666666666666667],[0.546],1,1592.9
5,False,298,0.974,58,[],[],"[(1080, 857)]",[],[1],[37],[0.6166666666666667],"[640.0, 512.0]",vertical,"(390.0, 762.0)",[0.8666666666666667],[0.57],1,1597.817
5,False,299,1.18,70,[],[],"[(1094, 866)]",[],[1],[34],[0.5666666666666667],"[640.0, 512.0]",vertical,"(390.0, 762.0)",[1.1166666666666667],[0.522],1,1602.368
5,False,300,0.656,39,[],[],"[(1099, 880)]",[],[1],[43],[0.7166666666666667],"[640.0, 512.0]",vertical,"(390.0, 262.0)",[0.8666666666666667],[0.672],1,1607.447
6,False,301,0.958,57,[],[],"[(1118, 889)]",[],[1],[17],[0.2833333333333333],"[640.0, 512.0]",vertical,"(890.0, 262.0)",[1.0666666666666667],[0.245],1,1611.828
6,False,302,0.637,38,[],[],"[(1107, 893)]",[],[1],[33],[0.55],"[640.0, 512.0]",horizontal,"(890.0, 762.0)",[1.2],[0.512],1,1616.353
6,False,303,1.19,71,[],[],"[(1080, 865)]",[],[1],[33],[0.55],"[640.0, 512.0]",vertical,"(890.0, 762.0)",[1.1],[0.512],1,1620.967
6,False,304,1.096,65,[],[],"[(1094, 891)]",[],[1],[33],[0.55],"[640.0, 512.0]",horizontal,"(390.0, 262.0)",[0.75],[0.515],1,1625.911
6,False,305,0.57,34,[],[],"[(1105, 894)]",[],[1],[6],[0.1],"[640.0, 512.0]",vertical,"(390.0, 262.0)",[1.4333333333333333],[0.066],1,1630.446
6,False,306,0.634,38,[],[],"[(1115, 892)]",[],[1],[51],[0.85],"[640.0, 512.0]",horizontal,"(890.0, 262.0)",[0.6],[0.803],0,1634.726
6,False,307,0.593,35,[],[],"[(1106, 894)]",[],[1],[51],[0.85],"[640.0, 512.0]",horizontal,"(890.0, 762.0)",[1.2833333333333332],[0.804],0,1648.631
6,False,308,1.005,60,[],[],"[(1156, 358), (268, 499), (1223, 882)]",[],"[0, 0, 1]",[34],[0.5666666666666667],"[640.0, 512.0]",vertical,"(890.0, 762.0)",[1.25],[0.531],1,1660.948
6,False,309,1.15,69,[],[],"[(1071, 880)]",[],[1],[34],[0.5666666666666667],"[640.0, 512.0]",vertical,"(890.0, 762.0)",[0.9],[0.526],1,1672.604
6,False,310,0.573,34,[],[],"[(1087, 906)]",[],[1],[51],[0.85],"[640.0, 512.0]",vertical,"(890.0, 762.0)",[1.4333333333333333],[0.807],0,1677.379
6,False,311,0.924,55,[],[],"[(1163, 885)]",[],[1],[35],[0.5833333333333334],"[640.0, 512.0]",vertical,"(890.0, 762.0)",[0.55],[0.543],1,1682.348
6,False,312,0.774,46,[],[],"[(1100, 915)]",[],[1],[37],[0.6166666666666667],"[640.0, 512.0]",horizontal,"(890.0, 762.0)",[1.05],[0.569],1,1686.426
6,False,313,1.047,62,[],[],"[(1105, 910)]",[],[1],[33],[0.55],"[640.0, 512.0]",vertical,"(390.0, 262.0)",[0.6166666666666667],[0.51],1,1691.098
6,False,314,0.628,37,[],[],"[(1065, 905)]",[],[1],[32],[0.5333333333333333],"[640.0, 512.0]",vertical,"(890.0, 762.0)",[1.5333333333333332],[0.487],1,1695.968
6,False,315,0.754,45,[],[],"[(1066, 872)]",[],[1],[49],[0.8166666666666667],"[640.0, 512.0]",vertical,"(890.0, 262.0)",[0.9833333333333333],[0.771],1,1700.953
6,False,316,0.774,46,[],[],"[(1102, 904)]",[],[1],[51],[0.85],"[640.0, 512.0]",vertical,"(390.0, 762.0)",[0.9],[0.801],0,1705.691
6,False,317,0.864,51,[],[],"[(1177, 875)]",[],[1],[37],[0.6166666666666667],"[640.0, 512.0]",horizontal,"(390.0, 762.0)",[1.0666666666666667],[0.575],1,1710.864
6,False,318,0.779,46,[],[],"[(1096, 884)]",[],[1],[34],[0.5666666666666667],"[640.0, 512.0]",vertical,"(890.0, 762.0)",[0.75],[0.528],1,1715.679
6,False,319,0.7,42,[],[],"[(1094, 877)]",[],[1],[47],[0.7833333333333333],"[640.0, 512.0]",vertical,"(890.0, 262.0)",[1.4833333333333334],[0.734],1,1720.073
6,False,320,0.918,55,[],[],"[(1093, 886)]",[],[1],[34],[0.5666666666666667],"[640.0, 512.0]",vertical,"(890.0, 762.0)",[0.95],[0.523],1,1725.128
6,False,321,1.09,65,[],[],"[(1102, 879)]",[],[1],[35],[0.5833333333333334],"[640.0, 512.0]",vertical,"(390.0, 262.0)",[0.7],[0.552],1,1729.631
6,False,322,0.948,56,[],[],"[(1073, 872)]",[],[1],[34],[0.5666666666666667],"[640.0, 512.0]",horizontal,"(390.0, 262.0)",[0.8],[0.526],1,1734.346
6,False,323,1.026,61,[],[],"[(1117, 885)]",[],[1],[36],[0.6],"[640.0, 512.0]",horizontal,"(890.0, 762.0)",[0.9833333333333333],[0.561],1,1738.879
6,False,324,0.732,43,[],[],"[(1099, 890)]",[],[1],[37],[0.6166666666666667],"[640.0, 512.0]",horizontal,"(390.0, 762.0)",[1.0],[0.581],1,1743.738
6,False,325,1.177,70,[],[],"[(1096, 903)]",[],[1],[38],[0.6333333333333333],"[640.0, 512.0]",vertical,"(890.0, 762.0)",[1.0166666666666666],[0.589],1,1748.372
6,False,326,0.702,42,[],[],"[(1123, 901)]",[],[1],[35],[0.5833333333333334],"[640.0, 512.0]",horizontal,"(390.0, 762.0)",[1.2],[0.536],1,1753.839
6,False,327,1.042,62,[],[],"[(1086, 864)]",[],[1],[31],[0.5166666666666666],"[640.0, 512.0]",vertical,"(390.0, 262.0)",[1.0333333333333332],[0.477],1,1758.588
6,False,328,0.858,51,[],[],"[(1110, 875)]",[],[1],[37],[0.6166666666666667],"[640.0, 512.0]",horizontal,"(390.0, 262.0)",[0.85],[0.569],1,1763.303
6,False,329,0.734,44,[],[],"[(1093, 872)]",[],[1],[34],[0.5666666666666667],"[640.0, 512.0]",vertical,"(890.0, 262.0)",[0.8666666666666667],[0.521],1,1767.78
6,False,330,1.176,70,[],[],"[(733, 245), (1060, 919)]",[],"[0, 1]",[33],[0.55],"[640.0, 512.0]",vertical,"(890.0, 262.0)",[0.9166666666666666],[0.507],1,1772.13
6,False,331,0.652,39,[],[],"[(1156, 864)]",[],[1],[51],[0.85],"[640.0, 512.0]",vertical,"(890.0, 262.0)",[1.5],[0.8],0,1784.52
6,False,332,1.1,66,[],[],"[(1154, 858)]",[],[1],[51],[0.85],"[640.0, 512.0]",vertical,"(390.0, 762.0)",[1.4833333333333334],[0.799],0,1793.105
6,False,333,0.746,44,[],[],"[(812, 239), (1170, 899)]",[],"[0, 1]",[],[],"[640.0, 512.0]",horizontal,"(890.0, 262.0)",[],[0],0,1798.781
6,False,334,0.504,30,[],[],"[(1196, 870)]",[],[1],[34],[0.5666666666666667],"[640.0, 512.0]",vertical,"(890.0, 762.0)",[1.1333333333333333],[0.522],1,1808.886
6,False,335,0.819,49,[],[],"[(1096, 865)]",[],[1],[29],[0.48333333333333334],"[640.0, 512.0]",horizontal,"(890.0, 262.0)",[1.0166666666666666],[0.447],1,1813.318
6,False,336,1.078,64,[],[],"[(1109, 884)]",[],[1],[35],[0.5833333333333334],"[640.0, 512.0]",horizontal,"(890.0, 762.0)",[1.3666666666666667],[0.539],1,1817.876
6,False,337,0.613,36,[],[],"[(1098, 872)]",[],[1],[51],[0.85],"[640.0, 512.0]",vertical,"(390.0, 762.0)",[1.6666666666666667],[0.796],0,1823.102
6,False,338,0.668,40,[],[],"[(1152, 873)]",[],[1],[33],[0.55],"[640.0, 512.0]",vertical,"(390.0, 762.0)",[1.2666666666666666],[0.515],1,1828.255
6,False,339,0.632,37,[],[],"[(1104, 875)]",[],[1],[39],[0.65],"[640.0, 512.0]",horizontal,"(390.0, 762.0)",[0.5],[0.611],1,1833.164
6,False,340,0.901,54,[],[],"[(1101, 863)]",[],[1],[37],[0.6166666666666667],"[640.0, 512.0]",vertical,"(390.0, 762.0)",[0.6333333333333333],[0.569],1,1836.974
6,False,341,1.176,70,[],[],"[(1103, 878)]",[],[1],[],[],"[640.0, 512.0]",horizontal,"(890.0, 262.0)",[],[0],0,1841.344
6,False,342,0.625,37,[],[],"[(1107, 870)]",[],[1],[46],[0.7666666666666666],"[640.0, 512.0]",vertical,"(890.0, 762.0)",[0.9333333333333333],[0.719],1,1845.466
6,False,343,1.082,64,[],[],"[(1109, 875)]",[],[1],[38],[0.6333333333333333],"[640.0, 512.0]",vertical,"(390.0, 262.0)",[1.0],[0.593],1,1850.385
6,False,344,0.959,57,[],[],"[(1110, 872)]",[],[1],[51],[0.85],"[640.0, 512.0]",vertical,"(890.0, 262.0)",[0.7333333333333333],[0.814],0,1855.326
6,False,345,0.684,41,[],[],"[(832, 182), (1123, 857)]",[],"[0, 1]",[35],[0.5833333333333334],"[640.0, 512.0]",horizontal,"(390.0, 762.0)",[0.9],[0.547],1,1860.089
6,False,346,0.583,34,[],[],"[(1115, 884)]",[],[1],[51],[0.85],"[640.0, 512.0]",vertical,"(890.0, 762.0)",[1.3833333333333333],[0.801],0,1864.714
6,False,347,0.979,58,[],[],"[(1197, 857)]",[],[1],[42],[0.7],"[640.0, 512.0]",horizontal,"(390.0, 262.0)",[0.6333333333333333],[0.651],1,1869.567
6,False,348,0.615,36,[],[],"[(1117, 890)]",[],[1],[42],[0.7],"[640.0, 512.0]",horizontal,"(390.0, 762.0)",[0.65],[0.653],1,1880.147
6,False,349,0.573,34,[],[],"[(1087, 886)]",[],[1],[33],[0.55],"[640.0, 512.0]",vertical,"(390.0, 762.0)",[1.4333333333333333],[0.509],1,1884.234
6,False,350,0.657,39,[],[],"[(1074, 870)]",[],[1],[34],[0.5666666666666667],"[640.0, 512.0]",vertical,"(390.0, 762.0)",[1.1333333333333333],[0.527],1,1889.121
6,False,351,0.7,42,[],[],"[(1101, 872)]",[],[1],[34],[0.5666666666666667],"[640.0, 512.0]",horizontal,"(390.0, 262.0)",[1.0166666666666666],[0.535],1,1893.806
6,False,352,1.118,67,[],[],"[(1080, 875)]",[],[1],[33],[0.55],"[640.0, 512.0]",vertical,"(890.0, 262.0)",[1.1666666666666667],[0.508],1,1898.21
6,False,353,1.2,72,[],[],"[(1080, 860)]",[],[1],[34],[0.5666666666666667],"[640.0, 512.0]",vertical,"(890.0, 262.0)",[1.0333333333333332],[0.533],1,1903.206
6,False,354,0.694,41,[],[],"[(1056, 875)]",[],[1],[35],[0.5833333333333334],"[640.0, 512.0]",horizontal,"(890.0, 262.0)",[0.9333333333333333],[0.54],1,1908.252
6,False,355,1.08,64,[],[],"[(1093, 876)]",[],[1],[32],[0.5333333333333333],"[640.0, 512.0]",horizontal,"(890.0, 262.0)",[1.1833333333333333],[0.497],1,1912.785
6,False,356,0.698,41,[],[],"[(1096, 867)]",[],[1],[30],[0.5],"[640.0, 512.0]",vertical,"(390.0, 262.0)",[1.55],[0.46],1,1918.002
6,False,357,0.773,46,[],[],"[(1122, 865)]",[],[1],[51],[0.85],"[640.0, 512.0]",vertical,"(390.0, 262.0)",[1.3666666666666667],[0.804],0,1922.901
6,False,358,1.049,62,[],[],"[(1195, 863)]",[],[1],[33],[0.55],"[640.0, 512.0]",vertical,"(390.0, 762.0)",[1.65],[0.511],1,1928.101
6,False,359,0.992,59,[],[],"[(1134, 865)]",[],[1],[34],[0.5666666666666667],"[640.0, 512.0]",vertical,"(890.0, 762.0)",[1.3833333333333333],[0.521],1,1944.09
6,False,360,0.801,48,[],[],"[(1099, 861)]",[],[1],[41],[0.6833333333333333],"[640.0, 512.0]",vertical,"(890.0, 262.0)",[0.6833333333333333],[0.645],1,1949.101
7,False,361,1.06,63,[],[],"[(1115, 881)]",[],[1],[36],[0.6],"[640.0, 512.0]",horizontal,"(390.0, 262.0)",[1.1],[0.556],1,1953.391
7,False,362,1.046,62,[],[],"[(1086, 870)]",[],[1],[36],[0.6],"[640.0, 512.0]",vertical,"(890.0, 762.0)",[1.4],[0.56],1,1958.385
7,False,363,0.552,33,[],[],"[(1128, 880)]",[],[1],[33],[0.55],"[640.0, 512.0]",vertical,"(890.0, 262.0)",[1.4166666666666667],[0.509],1,1963.442
7,False,364,0.643,38,[],[],"[(1122, 859)]",[],[1],[38],[0.6333333333333333],"[640.0, 512.0]",horizontal,"(390.0, 262.0)",[1.3666666666666667],[0.594],1,1968.221
7,False,365,0.953,57,[],[],"[(1128, 873)]",[],[1],[40],[0.6666666666666666],"[640.0, 512.0]",vertical,"(890.0, 762.0)",[1.6],[0.619],1,1973.096
7,False,366,1.017,61,[],[],"[(1111, 868)]",[],[1],[44],[0.7333333333333333],"[640.0, 512.0]",horizontal,"(890.0, 762.0)",[1.6],[0.694],1,1978.435
7,False,367,0.84,50,[],[],"[(1098, 855)]",[],[1],[51],[0.85],"[640.0, 512.0]",vertical,"(390.0, 762.0)",[0.6],[0.799],0,1983.825
7,False,368,0.836,50,[],[],"[(1103, 853)]",[],[1],[34],[0.5666666666666667],"[640.0, 512.0]",vertical,"(390.0, 762.0)",[0.6666666666666666],[0.525],1,1988.487
7,False,369,0.698,41,[],[],"[(1117, 874)]",[],[1],[40],[0.6666666666666666],"[640.0, 512.0]",vertical,"(390.0, 262.0)",[1.55],[0.625],1,1993.064
7,False,370,1.009,60,[],[],"[(1102, 870)]",[],[1],[35],[0.5833333333333334],"[640.0, 512.0]",horizontal,"(390.0, 762.0)",[1.0666666666666667],[0.539],1,1998.141
7,False,371,0.926,55,[],[],"[(1117, 870)]",[],[1],[34],[0.5666666666666667],"[640.0, 512.0]",vertical,"(890.0, 762.0)",[1.4833333333333334],[0.526],1,2003.144
7,False,372,0.944,56,[],[],"[(1106, 887)]",[],[1],[51],[0.85],"[640.0, 512.0]",horizontal,"(390.0, 262.0)",[0.6833333333333333],[0.806],0,2008.359
7,False,373,0.523,31,[],[],"[(1172, 885)]",[],[1],[34],[0.5666666666666667],"[640.0, 512.0]",vertical,"(890.0, 262.0)",[1.3],[0.527],1,2013.102
7,False,374,0.527,31,[],[],"[(1127, 877)]",[],[1],[40],[0.6666666666666666],"[640.0, 512.0]",horizontal,"(390.0, 762.0)",[0.6166666666666667],[0.626],1,2018.562
7,False,375,1.139,68,[],[],"[(1104, 870)]",[],[1],[37],[0.6166666666666667],"[640.0, 512.0]",vertical,"(390.0, 762.0)",[1.2666666666666666],[0.576],1,2022.514
7,False,376,1.119,67,[],[],"[(1117, 868)]",[],[1],[37],[0.6166666666666667],"[640.0, 512.0]",horizontal,"(890.0, 262.0)",[0.5],[0.578],1,2027.942
7,False,377,0.631,37,[],[],"[(1124, 862)]",[],[1],[35],[0.5833333333333334],"[640.0, 512.0]",horizontal,"(890.0, 262.0)",[1.05],[0.543],1,2032.421
7,False,378,0.748,44,[],[],"[(1111, 892)]",[],[1],[51],[0.85],"[640.0, 512.0]",horizontal,"(390.0, 262.0)",[0.5],[0.805],0,2036.902
7,False,379,0.851,51,[],[],"[(1147, 892)]",[],[1],[33],[0.55],"[640.0, 512.0]",horizontal,"(390.0, 762.0)",[1.5333333333333332],[0.512],1,2041.285
7,False,380,1.035,62,[],[],"[(1075, 865)]",[],[1],[42],[0.7],"[640.0, 512.0]",horizontal,"(390.0, 762.0)",[1.0166666666666666],[0.653],1,2088.538
7,False,381,1.188,71,[],[],"[(1094, 864)]",[],[1],[33],[0.55],"[640.0, 512.0]",horizontal,"(890.0, 262.0)",[0.8],[0.51],1,2093.725
7,False,382,0.642,38,[],[],"[(1081, 864)]",[],[1],[34],[0.5666666666666667],"[640.0, 512.0]",horizontal,"(890.0, 762.0)",[0.9],[0.529],1,2098.733
7,False,383,0.896,53,[],[],"[(1115, 883)]",[],[1],[32],[0.5333333333333333],"[640.0, 512.0]",vertical,"(890.0, 262.0)",[1.5],[0.495],1,2105.074
7,False,384,0.629,37,[],[],"[(1102, 889)]",[],[1],[40],[0.6666666666666666],"[640.0, 512.0]",horizontal,"(390.0, 262.0)",[1.0],[0.614],1,2110.095
7,False,385,0.781,46,[],[],"[(1106, 877)]",[],[1],[37],[0.6166666666666667],"[640.0, 512.0]",horizontal,"(890.0, 262.0)",[1.1],[0.575],1,2114.594
7,False,386,0.917,55,[],[],"[(1124, 856)]",[],[1],[37],[0.6166666666666667],"[640.0, 512.0]",vertical,"(390.0, 762.0)",[0.7833333333333333],[0.57],1,2119.324
7,False,387,0.612,36,[],[],"[(1084, 875)]",[],[1],[51],[0.85],"[640.0, 512.0]",horizontal,"(890.0, 762.0)",[1.6],[0.801],0,2123.871
7,False,388,0.513,30,[],[],"[(1123, 868)]",[],[1],[36],[0.6],"[640.0, 512.0]",horizontal,"(890.0, 762.0)",[0.5166666666666666],[0.558],1,2129.158
7,False,389,0.941,56,[],[],"[(1088, 877)]",[],[1],[35],[0.5833333333333334],"[640.0, 512.0]",horizontal,"(890.0, 762.0)",[1.1333333333333333],[0.541],1,2132.915
7,False,390,0.697,41,[],[],"[(1104, 896)]",[],[1],[],[],"[640.0, 512.0]",vertical,"(390.0, 762.0)",[],[0],0,2137.88
7,False,391,0.697,41,[],[2152019],"[(1123, 856)]","[(1130, 873)]",[1],[14],[0.23333333333333334],"[640.0, 512.0]",vertical,"(890.0, 762.0)",[],[0],0,2144.021
7,False,392,1.1,66,[],[],"[(1148, 893)]",[],[1],[35],[0.5833333333333334],"[640.0, 512.0]",horizontal,"(390.0, 762.0)",[0.9833333333333333],[0.542],1,2146.538
7,False,393,1.018,61,[],[],"[(1125, 881)]",[],[1],[42],[0.7],"[640.0, 512.0]",horizontal,"(390.0, 762.0)",[0.6666666666666666],[0.657],1,2153.114
7,False,394,1.036,62,[],[],"[(1119, 871)]",[],[1],[33],[0.55],"[640.0, 512.0]",horizontal,"(390.0, 762.0)",[0.9666666666666667],[0.507],1,2157.616
7,False,395,0.502,30,[],[],"[(1101, 880)]",[],[1],[33],[0.55],"[640.0, 512.0]",horizontal,"(390.0, 762.0)",[1.5333333333333332],[0.505],1,2162.441
7,False,396,0.991,59,[],[],"[(1116, 877)]",[],[1],[51],[0.85],"[640.0, 512.0]",vertical,"(890.0, 262.0)",[1.1833333333333333],[0.812],0,2167.216
7,False,397,1.087,65,[],[],"[(1183, 880)]",[],[1],[32],[0.5333333333333333],"[640.0, 512.0]",horizontal,"(390.0, 762.0)",[0.6],[0.496],1,2172.459
7,False,398,0.778,46,[],[],"[(1123, 874)]",[],[1],[39],[0.65],"[640.0, 512.0]",horizontal,"(390.0, 262.0)",[1.35],[0.611],1,2176.928
7,False,399,0.679,40,[],[],"[(1099, 880)]",[],[1],[39],[0.65],"[640.0, 512.0]",vertical,"(390.0, 262.0)",[0.6666666666666666],[0.618],1,2181.791
7,False,400,1.135,68,[],[],"[(1117, 894)]",[],[1],[34],[0.5666666666666667],"[640.0, 512.0]",vertical,"(390.0, 762.0)",[1.1333333333333333],[0.529],1,2186.144
7,False,401,0.522,31,[],[],"[(1117, 875)]",[],[1],[33],[0.55],"[640.0, 512.0]",horizontal,"(890.0, 262.0)",[1.0666666666666667],[0.509],1,2191.05
7,False,402,0.646,38,[],[],"[(1113, 894)]",[],[1],[34],[0.5666666666666667],"[640.0, 512.0]",horizontal,"(390.0, 762.0)",[1.3833333333333333],[0.522],1,2195.387
7,False,403,0.856,51,[],[],"[(1094, 870)]",[],[1],[51],[0.85],"[640.0, 512.0]",horizontal,"(390.0, 262.0)",[0.6166666666666667],[0.806],0,2200.15
7,False,404,0.977,58,[],[],"[(1098, 887)]",[],[1],[51],[0.85],"[640.0, 512.0]",horizontal,"(890.0, 762.0)",[1.1666666666666667],[0.797],0,2204.768
7,False,405,0.528,31,[],[],"[(1147, 856)]",[],[1],[31],[0.5166666666666666],"[640.0, 512.0]",horizontal,"(890.0, 762.0)",[1.1166666666666667],[0.48],1,2210.721
7,False,406,0.633,37,[],[],"[(1096, 872)]",[],[1],[31],[0.5166666666666666],"[640.0, 512.0]",vertical,"(390.0, 262.0)",[0.9],[0.479],1,2215.149
7,False,407,0.723,43,[],[],"[(1117, 875)]",[],[1],[33],[0.55],"[640.0, 512.0]",vertical,"(890.0, 762.0)",[0.65],[0.507],1,2219.402
7,False,408,0.611,36,[],[],"[(1100, 882)]",[],[1],[33],[0.55],"[640.0, 512.0]",horizontal,"(390.0, 762.0)",[0.7666666666666666],[0.518],1,2223.592
7,False,409,1.146,68,[],[],"[(1117, 886)]",[],[1],[33],[0.55],"[640.0, 512.0]",vertical,"(390.0, 262.0)",[1.2333333333333334],[0.508],1,2227.718
7,False,410,1.109,66,[],[],"[(1086, 881)]",[],[1],[34],[0.5666666666666667],"[640.0, 512.0]",vertical,"(890.0, 762.0)",[0.5166666666666666],[0.528],1,2232.886
7,False,411,1.109,66,[],[],"[(1123, 872)]",[],[1],[33],[0.55],"[640.0, 512.0]",horizontal,"(390.0, 762.0)",[1.2],[0.509],1,2237.414
7,False,412,0.561,33,[],[],"[(1100, 883)]",[],[1],[37],[0.6166666666666667],"[640.0, 512.0]",horizontal,"(390.0, 762.0)",[0.6666666666666666],[0.587],1,2242.41
7,False,413,0.726,43,[],[],"[(1119, 889)]",[],[1],[37],[0.6166666666666667],"[640.0, 512.0]",horizontal,"(390.0, 262.0)",[1.3166666666666667],[0.583],1,2246.304
7,False,414,0.785,47,[],[],"[(1112, 872)]",[],[1],[51],[0.85],"[640.0, 512.0]",horizontal,"(890.0, 762.0)",[0.6166666666666667],[0.801],0,2251.286
7,False,415,1.196,71,[],[],"[(1099, 885)]",[],[1],[38],[0.6333333333333333],"[640.0, 512.0]",vertical,"(890.0, 762.0)",[0.9166666666666666],[0.59],1,2255.557
7,False,416,0.843,50,[],[],"[(1096, 906)]",[],[1],[35],[0.5833333333333334],"[640.0, 512.0]",vertical,"(890.0, 762.0)",[0.75],[0.549],1,2261.033
7,False,417,0.729,43,[],[],"[(1105, 889)]",[],[1],[35],[0.5833333333333334],"[640.0, 512.0]",vertical,"(390.0, 762.0)",[1.6333333333333333],[0.55],1,2265.318
7,False,418,0.561,33,[],[],"[(1081, 878)]",[],[1],[31],[0.5166666666666666],"[640.0, 512.0]",vertical,"(890.0, 262.0)",[0.75],[0.478],1,2270.419
7,False,419,0.637,38,[],[],"[(1075, 876)]",[],[1],[33],[0.55],"[640.0, 512.0]",horizontal,"(890.0, 762.0)",[0.75],[0.505],1,2274.351
7,False,420,0.796,47,[],[],"[(1107, 874)]",[],[1],[33],[0.55],"[640.0, 512.0]",horizontal,"(390.0, 762.0)",[1.6333333333333333],[0.515],1,2278.515
8,False,421,0.932,55,[],[],"[(1071, 871)]",[],[1],[43],[0.7166666666666667],"[640.0, 512.0]",vertical,"(390.0, 262.0)",[0.7833333333333333],[0.684],1,2283.526
8,False,422,1.071,64,[],[],"[(1098, 875)]",[],[1],[37],[0.6166666666666667],"[640.0, 512.0]",vertical,"(390.0, 262.0)",[0.7833333333333333],[0.571],1,2288.286
8,False,423,1.184,71,[],[],"[(1088, 884)]",[],[1],[31],[0.5166666666666666],"[640.0, 512.0]",vertical,"(890.0, 262.0)",[1.05],[0.487],1,2292.994
8,False,424,0.601,36,[],[],"[(1104, 880)]",[],[1],[32],[0.5333333333333333],"[640.0, 512.0]",vertical,"(890.0, 762.0)",[1.45],[0.5],1,2298.155
8,False,425,0.654,39,[],[],"[(1100, 876)]",[],[1],[36],[0.6],"[640.0, 512.0]",horizontal,"(390.0, 262.0)",[0.7833333333333333],[0.56],1,2303.036
8,False,426,0.725,43,[],[],"[(1100, 888)]",[],[1],[33],[0.55],"[640.0, 512.0]",horizontal,"(390.0, 762.0)",[1.5166666666666666],[0.508],1,2307.302
8,False,427,0.892,53,[],[],"[(1062, 880)]",[],[1],[31],[0.5166666666666666],"[640.0, 512.0]",horizontal,"(390.0, 262.0)",[1.3666666666666667],[0.474],1,2312.404
8,False,428,1.165,69,[],[],"[(1073, 884)]",[],[1],[33],[0.55],"[640.0, 512.0]",horizontal,"(890.0, 762.0)",[1.1333333333333333],[0.513],1,2317.462
8,False,429,0.742,44,[],[],"[(1093, 872)]",[],[1],[33],[0.55],"[640.0, 512.0]",vertical,"(890.0, 762.0)",[0.9833333333333333],[0.519],1,2322.328
8,False,430,0.797,47,[],[],"[(1087, 878)]",[],[1],[35],[0.5833333333333334],"[640.0, 512.0]",vertical,"(390.0, 262.0)",[1.3333333333333333],[0.545],1,2326.761
8,False,431,0.721,43,[],[],"[(1063, 894)]",[],[1],[32],[0.5333333333333333],"[640.0, 512.0]",horizontal,"(890.0, 262.0)",[1.25],[0.491],1,2331.666
8,False,432,0.585,35,[],[],"[(1069, 890)]",[],[1],[38],[0.6333333333333333],"[640.0, 512.0]",horizontal,"(390.0, 762.0)",[1.05],[0.591],1,2336.385
8,False,433,1.199,71,[],[],"[(1087, 889)]",[],[1],[33],[0.55],"[640.0, 512.0]",horizontal,"(890.0, 262.0)",[0.6333333333333333],[0.511],1,2340.966
8,False,434,0.898,53,[],[],"[(1063, 890)]",[],[1],[41],[0.6833333333333333],"[640.0, 512.0]",vertical,"(390.0, 762.0)",[1.1333333333333333],[0.641],1,2346.621
8,False,435,0.689,41,[],[],"[(1099, 884)]",[],[1],[38],[0.6333333333333333],"[640.0, 512.0]",horizontal,"(390.0, 762.0)",[0.75],[0.592],1,2351.489
8,False,436,0.983,58,[],[],"[(1095, 858)]",[],[1],[37],[0.6166666666666667],"[640.0, 512.0]",vertical,"(390.0, 762.0)",[0.5166666666666666],[0.578],1,2355.96
8,False,437,0.667,40,[],[],"[(1081, 880)]",[],[1],[40],[0.6666666666666666],"[640.0, 512.0]",vertical,"(390.0, 762.0)",[0.5],[0.625],1,2366.004
8,False,438,0.966,57,[],[],"[(1085, 890)]",[],[1],[40],[0.6666666666666666],"[640.0, 512.0]",vertical,"(390.0, 762.0)",[0.7],[0.624],1,2370.288
8,False,439,1.149,68,[],[],"[(1081, 892)]",[],[1],[11],[0.18333333333333332],"[640.0, 512.0]",vertical,"(390.0, 262.0)",[1.45],[0.15],1,2374.676
8,False,440,1.17,70,[],[],"[(1153, 894)]",[],[1],[38],[0.6333333333333333],"[640.0, 512.0]",vertical,"(890.0, 762.0)",[1.0333333333333332],[0.592],1,2379.717
8,False,441,0.799,47,[],[],"[(1102, 887)]",[],[1],[32],[0.5333333333333333],"[640.0, 512.0]",vertical,"(390.0, 762.0)",[0.7166666666666667],[0.501],1,2392.663
8,False,442,0.558,33,[],[],"[(1105, 870)]",[],[1],[33],[0.55],"[640.0, 512.0]",horizontal,"(390.0, 762.0)",[0.8],[0.51],1,2397.071
8,False,443,0.727,43,[],[],"[(1075, 883)]",[],[1],[42],[0.7],"[640.0, 512.0]",vertical,"(890.0, 762.0)",[1.5166666666666666],[0.656],1,2401.382
8,False,444,1.106,66,[],[],"[(1093, 889)]",[],[1],[38],[0.6333333333333333],"[640.0, 512.0]",horizontal,"(890.0, 762.0)",[1.5166666666666666],[0.593],1,2406.505
8,False,445,0.865,51,[],[],"[(1063, 884)]",[],[1],[35],[0.5833333333333334],"[640.0, 512.0]",horizontal,"(890.0, 762.0)",[0.65],[0.54],1,2412.048
8,False,446,0.572,34,[],[],"[(1074, 893)]",[],[1],[34],[0.5666666666666667],"[640.0, 512.0]",vertical,"(890.0, 762.0)",[1.5],[0.526],1,2416.346
8,False,447,1.047,62,[],[],"[(1105, 890)]",[],[1],[33],[0.55],"[640.0, 512.0]",vertical,"(890.0, 762.0)",[0.8166666666666667],[0.506],1,2421.084
8,False,448,0.535,32,[],[],"[(1111, 889)]",[],[1],"[51, 51]","[0.85, 0.85]","[640.0, 512.0]",horizontal,"(390.0, 262.0)",[0.6166666666666667],"[0.817, 0.817]",0,2425.736
8,False,449,0.849,50,[],[],"[(1129, 893)]",[],[1],[32],[0.5333333333333333],"[640.0, 512.0]",horizontal,"(890.0, 262.0)",[0.8666666666666667],[0.491],1,2429.855
8,False,450,1.17,70,[],[],"[(1104, 874)]",[],[1],[34],[0.5666666666666667],"[640.0, 512.0]",vertical,"(390.0, 762.0)",[1.5666666666666667],[0.529],1,2434.537
8,False,451,1.108,66,[],[],"[(1069, 871)]",[],[1],[37],[0.6166666666666667],"[640.0, 512.0]",vertical,"(390.0, 262.0)",[1.2333333333333334],[0.573],1,2439.894
8,False,452,0.749,44,[],[],"[(1081, 881)]",[],[1],[50],[0.8333333333333334],"[640.0, 512.0]",horizontal,"(390.0, 262.0)",[0.8333333333333334],[0.788],1,2445.138
8,False,453,0.576,34,[],[],"[(1097, 888)]",[],[1],[31],[0.5166666666666666],"[640.0, 512.0]",vertical,"(390.0, 262.0)",[1.35],[0.478],1,2449.732
8,False,454,0.5,30,[],[],"[(1069, 899)]",[],[1],[33],[0.55],"[640.0, 512.0]",vertical,"(890.0, 762.0)",[1.15],[0.513],1,2454.441
8,False,455,0.543,32,[],[],"[(1105, 870)]",[],[1],[35],[0.5833333333333334],"[640.0, 512.0]",vertical,"(390.0, 762.0)",[0.7333333333333333],[0.54],1,2458.726
8,False,456,1.176,70,[],[],"[(1110, 879)]",[],[1],[35],[0.5833333333333334],"[640.0, 512.0]",horizontal,"(390.0, 262.0)",[1.35],[0.544],1,2462.852
8,False,457,0.865,51,[],[],"[(1074, 879)]",[],[1],[43],[0.7166666666666667],"[640.0, 512.0]",horizontal,"(890.0, 762.0)",[1.6333333333333333],[0.672],1,2468.059
8,False,458,1.033,61,[],[],"[(1087, 896)]",[],[1],[36],[0.6],"[640.0, 512.0]",horizontal,"(890.0, 262.0)",[0.7833333333333333],[0.557],1,2473.308
8,False,459,0.578,34,[],[],"[(1072, 870)]",[],[1],[33],[0.55],"[640.0, 512.0]",horizontal,"(890.0, 262.0)",[1.05],[0.51],1,2477.923
8,False,460,1.064,63,[],[],"[(1045, 889)]",[],[1],[33],[0.55],"[640.0, 512.0]",horizontal,"(390.0, 762.0)",[1.6166666666666667],[0.514],1,2482.268
8,False,461,0.903,54,[],[],"[(1066, 871)]",[],[1],[44],[0.7333333333333333],"[640.0, 512.0]",horizontal,"(390.0, 262.0)",[1.3833333333333333],[0.693],1,2487.827
8,False,462,0.809,48,[],[],"[(1063, 878)]",[],[1],[32],[0.5333333333333333],"[640.0, 512.0]",horizontal,"(390.0, 262.0)",[1.0166666666666666],[0.491],1,2492.922
8,False,463,0.719,43,[],[],"[(1055, 862)]",[],[1],[40],[0.6666666666666666],"[640.0, 512.0]",vertical,"(890.0, 762.0)",[1.1],[0.629],1,2497.352
8,False,464,0.516,30,[],[],"[(1123, 878)]",[],[1],[36],[0.6],"[640.0, 512.0]",horizontal,"(890.0, 762.0)",[1.2666666666666666],[0.563],1,2502.087
8,False,465,0.657,39,[],[],"[(1075, 886)]",[],[1],[],[],"[640.0, 512.0]",horizontal,"(890.0, 762.0)",[],[0],0,2507.92
8,False,466,1.052,63,[],[],"[(1117, 843)]",[],[1],[35],[0.5833333333333334],"[640.0, 512.0]",vertical,"(390.0, 762.0)",[0.9666666666666667],[0.543],1,2512.39
8,False,467,1.049,62,[],[],"[(1050, 864)]",[],[1],[37],[0.6166666666666667],"[640.0, 512.0]",vertical,"(390.0, 762.0)",[0.9166666666666666],[0.575],1,2517.706
8,False,468,0.836,50,[],[],"[(1087, 872)]",[],[1],[35],[0.5833333333333334],"[640.0, 512.0]",horizontal,"(890.0, 762.0)",[1.6],[0.542],1,2522.44
8,False,469,0.878,52,[],[],"[(1166, 842)]",[],[1],[33],[0.55],"[640.0, 512.0]",vertical,"(890.0, 262.0)",[1.35],[0.503],1,2527.589
8,False,470,0.846,50,[],[],"[(1096, 865)]",[],[1],[42],[0.7],"[640.0, 512.0]",vertical,"(890.0, 262.0)",[0.5666666666666667],[0.656],1,2554.989
8,False,471,0.786,47,[],[],"[(1079, 879)]",[],[1],"[51, 51]","[0.85, 0.85]","[640.0, 512.0]",horizontal,"(390.0, 262.0)",[0.5666666666666667],"[0.808, 0.808]",0,2559.132
8,False,472,0.685,41,[],[],"[(1080, 861)]",[],[1],[36],[0.6],"[640.0, 512.0]",vertical,"(890.0, 262.0)",[0.9333333333333333],[0.559],1,2563.582
8,False,473,0.754,45,[],[],"[(1069, 882)]",[],[1],[36],[0.6],"[640.0, 512.0]",horizontal,"(890.0, 762.0)",[1.1166666666666667],[0.553],1,2568.964
8,False,474,1.049,62,[],[],"[(1090, 884)]",[],[1],[35],[0.5833333333333334],"[640.0, 512.0]",horizontal,"(890.0, 762.0)",[0.8666666666666667],[0.54],1,2573.683
8,False,475,1.024,61,[],[],"[(1103, 872)]",[],[1],[35],[0.5833333333333334],"[640.0, 512.0]",vertical,"(890.0, 762.0)",[0.6166666666666667],[0.539],1,2578.221
8,False,476,0.831,49,[],[],"[(1080, 883)]",[],[1],[35],[0.5833333333333334],"[640.0, 512.0]",horizontal,"(390.0, 262.0)",[0.7666666666666666],[0.544],1,2582.516
8,False,477,1.114,66,[],[],"[(1089, 877)]",[],[1],[35],[0.5833333333333334],"[640.0, 512.0]",horizontal,"(890.0, 762.0)",[1.6333333333333333],[0.538],1,2586.874
8,False,478,1.124,67,[],[],"[(1078, 876)]",[],[1],[34],[0.5666666666666667],"[640.0, 512.0]",horizontal,"(390.0, 262.0)",[0.7166666666666667],[0.53],1,2592.297
8,False,479,1.043,62,[],[],"[(1083, 888)]",[],[1],[34],[0.5666666666666667],"[640.0, 512.0]",vertical,"(890.0, 262.0)",[1.45],[0.53],1,2596.844
8,False,480,0.744,44,[],[],"[(1150, 869)]",[],[1],[35],[0.5833333333333334],"[640.0, 512.0]",horizontal,"(390.0, 762.0)",[0.6166666666666667],[0.545],1,2602.065
9,False,481,0.861,51,[],[],"[(1100, 872)]",[],[1],[41],[0.6833333333333333],"[640.0, 512.0]",horizontal,"(390.0, 762.0)",[1.1],[0.641],1,2622.838
9,False,482,0.501,30,[],[],"[(1122, 868)]",[],[1],[40],[0.6666666666666666],"[640.0, 512.0]",horizontal,"(890.0, 262.0)",[0.5],[0.626],1,2627.623
9,False,483,0.535,32,[],[],"[(1105, 886)]",[],[1],[36],[0.6],"[640.0, 512.0]",horizontal,"(390.0, 262.0)",[0.5],[0.568],1,2631.435
9,False,484,0.741,44,[],[],"[(1078, 879)]",[],[1],[33],[0.55],"[640.0, 512.0]",vertical,"(390.0, 262.0)",[1.3333333333333333],[0.511],1,2635.399
9,False,485,1.029,61,[],[],"[(1100, 884)]",[],[1],[35],[0.5833333333333334],"[640.0, 512.0]",horizontal,"(890.0, 262.0)",[0.8666666666666667],[0.544],1,2640.354
9,False,486,0.832,49,[],[],"[(1107, 884)]",[],[1],[43],[0.7166666666666667],"[640.0, 512.0]",vertical,"(390.0, 262.0)",[1.0666666666666667],[0.672],1,2644.916
9,False,487,0.597,35,[],[],"[(1096, 874)]",[],[1],[35],[0.5833333333333334],"[640.0, 512.0]",horizontal,"(390.0, 762.0)",[0.5333333333333333],[0.542],1,2649.619
9,False,488,0.994,59,[],[],"[(1089, 877)]",[],[1],[19],[0.31666666666666665],"[640.0, 512.0]",vertical,"(890.0, 262.0)",[1.3833333333333333],[0.286],1,2653.466
9,False,489,1.066,63,[],[],"[(1120, 870)]",[],[1],[34],[0.5666666666666667],"[640.0, 512.0]",horizontal,"(890.0, 762.0)",[0.7666666666666666],[0.525],1,2658.466
9,False,490,1.154,69,[],[],"[(1117, 880)]",[],[1],[35],[0.5833333333333334],"[640.0, 512.0]",vertical,"(390.0, 262.0)",[1.1666666666666667],[0.542],1,2663.168
9,False,491,0.547,32,[],[],"[(1074, 875)]",[],[1],[34],[0.5666666666666667],"[640.0, 512.0]",horizontal,"(390.0, 262.0)",[0.8166666666666667],[0.525],1,2668.167
9,False,492,1.101,66,[],[],"[(1080, 880)]",[],[1],[36],[0.6],"[640.0, 512.0]",vertical,"(390.0, 762.0)",[1.2666666666666666],[0.558],1,2672.408
9,False,493,1.023,61,[],[],"[(1083, 872)]",[],[1],[],[],"[640.0, 512.0]",horizontal,"(890.0, 262.0)",[],[0],0,2677.471
9,False,494,0.795,47,[],[],"[(1103, 878)]",[],[1],[34],[0.5666666666666667],"[640.0, 512.0]",vertical,"(890.0, 762.0)",[1.3833333333333333],[0.527],1,2682.136
9,False,495,0.708,42,[],[],"[(1102, 873)]",[],[1],[37],[0.6166666666666667],"[640.0, 512.0]",vertical,"(390.0, 262.0)",[0.6666666666666666],[0.581],1,2688.34
9,False,496,0.852,51,[],[],"[(1079, 881)]",[],[1],[39],[0.65],"[640.0, 512.0]",horizontal,"(890.0, 762.0)",[0.7166666666666667],[0.604],1,2692.487
9,False,497,1.038,62,[],[],"[(1056, 898)]",[],[1],[31],[0.5166666666666666],"[640.0, 512.0]",vertical,"(890.0, 262.0)",[0.95],[0.474],1,2696.873
9,False,498,0.942,56,[],[],"[(1072, 881)]",[],[1],[41],[0.6833333333333333],"[640.0, 512.0]",vertical,"(890.0, 762.0)",[1.25],[0.639],1,2701.764
9,False,499,0.914,54,[],[],"[(1103, 863)]",[],[1],[36],[0.6],"[640.0, 512.0]",horizontal,"(890.0, 762.0)",[0.75],[0.562],1,2706.741
9,False,500,0.862,51,[],[],"[(1098, 879)]",[],[1],[30],[0.5],"[640.0, 512.0]",horizontal,"(890.0, 262.0)",[1.1166666666666667],[0.461],1,2711.29
9,False,501,1.19,71,[],[],"[(1111, 856)]",[],[1],[33],[0.55],"[640.0, 512.0]",vertical,"(390.0, 762.0)",[1.55],[0.51],1,2715.867
9,False,502,1.152,69,[],[],"[(1090, 886)]",[],[1],[50],[0.8333333333333334],"[640.0, 512.0]",vertical,"(390.0, 262.0)",[1.1166666666666667],[0.786],1,2721.456
9,False,503,0.767,46,[],[],"[(1155, 920)]",[],[1],[36],[0.6],"[640.0, 512.0]",vertical,"(890.0, 762.0)",[1.3],[0.56],1,2726.805
9,False,504,0.639,38,[],[],"[(1073, 892)]",[],[1],[36],[0.6],"[640.0, 512.0]",horizontal,"(390.0, 762.0)",[1.2666666666666666],[0.559],1,2816.277
9,False,505,0.729,43,[],[],"[(1043, 880)]",[],[1],[39],[0.65],"[640.0, 512.0]",horizontal,"(890.0, 762.0)",[1.05],[0.61],1,2820.959
9,False,506,1.037,62,[],[],"[(1052, 890)]",[],[1],"[51, 51]","[0.85, 0.85]","[640.0, 512.0]",horizontal,"(390.0, 262.0)",[1.1166666666666667],"[0.802, 0.802]",0,2825.449
9,False,507,0.962,57,[],[],"[(1053, 885)]",[],[1],[36],[0.6],"[640.0, 512.0]",vertical,"(890.0, 762.0)",[1.25],[0.559],1,2830.77
9,False,508,1.004,60,[],[],"[(1050, 922)]",[],[1],[31],[0.5166666666666666],"[640.0, 512.0]",horizontal,"(890.0, 262.0)",[1.65],[0.479],1,2837.288
9,False,509,1.135,68,[],[],"[(1062, 889)]",[],[1],[35],[0.5833333333333334],"[640.0, 512.0]",vertical,"(890.0, 762.0)",[0.9166666666666666],[0.544],1,2842.681
9,False,510,0.549,32,[],[],"[(1075, 884)]",[],[1],[34],[0.5666666666666667],"[640.0, 512.0]",vertical,"(890.0, 762.0)",[0.55],[0.528],1,2847.658
9,False,511,1.059,63,[],[],"[(1055, 901)]",[],[1],[35],[0.5833333333333334],"[640.0, 512.0]",horizontal,"(390.0, 262.0)",[1.15],[0.546],1,2851.356
9,False,512,0.502,30,[],[],"[(1058, 861)]",[],[1],[51],[0.85],"[640.0, 512.0]",vertical,"(390.0, 262.0)",[1.25],[0.798],0,2856.256
9,False,513,0.819,49,[],[],"[(1068, 845)]",[],[1],[38],[0.6333333333333333],"[640.0, 512.0]",vertical,"(390.0, 762.0)",[0.95],[0.595],1,2862.039
9,False,514,0.551,33,[],[],"[(1177, 880)]",[],[1],[33],[0.55],"[640.0, 512.0]",horizontal,"(890.0, 262.0)",[0.85],[0.509],1,2868.053
9,False,515,1.0,60,[],[],"[(1101, 856)]",[],[1],[35],[0.5833333333333334],"[640.0, 512.0]",vertical,"(390.0, 262.0)",[1.55],[0.542],1,2880.485
9,False,516,0.63,37,[],[],"[(1071, 876)]",[],[1],[36],[0.6],"[640.0, 512.0]",vertical,"(890.0, 762.0)",[0.7],[0.558],1,2885.824
9,False,517,0.783,46,[],[],"[(1093, 870)]",[],[1],[47],[0.7833333333333333],"[640.0, 512.0]",vertical,"(390.0, 262.0)",[1.2833333333333332],[0.732],1,2889.989
9,False,518,0.733,43,[],[],"[(1090, 859)]",[],[1],[51],[0.85],"[640.0, 512.0]",horizontal,"(890.0, 262.0)",[0.7333333333333333],[0.809],0,2894.907
9,False,519,0.977,58,[],[],"[(1135, 867)]",[],[1],[35],[0.5833333333333334],"[640.0, 512.0]",vertical,"(890.0, 762.0)",[0.7666666666666666],[0.549],1,2900.46
9,False,520,0.605,36,[],[],"[(1073, 880)]",[],[1],[36],[0.6],"[640.0, 512.0]",horizontal,"(890.0, 262.0)",[1.2666666666666666],[0.557],1,2904.968
9,False,521,0.956,57,[],[],"[(1080, 890)]",[],[1],[38],[0.6333333333333333],"[640.0, 512.0]",vertical,"(890.0, 762.0)",[1.55],[0.588],1,2912.044
9,False,522,0.84,50,[],[],"[(1086, 889)]",[],[1],[36],[0.6],"[640.0, 512.0]",vertical,"(390.0, 762.0)",[0.7666666666666666],[0.555],1,2917.304
9,False,523,0.797,47,[],[],"[(1096, 881)]",[],[1],[35],[0.5833333333333334],"[640.0, 512.0]",vertical,"(890.0, 762.0)",[0.75],[0.543],1,2921.572
9,False,524,0.91,54,[],[],"[(1077, 891)]",[],[1],[36],[0.6],"[640.0, 512.0]",vertical,"(390.0, 762.0)",[0.6333333333333333],[0.56],1,2925.93
9,False,525,1.066,63,[],[],"[(1068, 875)]",[],[1],[35],[0.5833333333333334],"[640.0, 512.0]",vertical,"(890.0, 762.0)",[1.4666666666666666],[0.544],1,2930.271
9,False,526,0.568,34,[],[],"[(1082, 875)]",[],[1],[32],[0.5333333333333333],"[640.0, 512.0]",vertical,"(390.0, 762.0)",[1.2666666666666666],[0.489],1,2935.506
9,False,527,0.973,58,[],[],"[(1064, 881)]",[],[1],[39],[0.65],"[640.0, 512.0]",vertical,"(890.0, 762.0)",[1.3166666666666667],[0.604],1,2940.073
9,False,528,1.092,65,[],[],"[(1093, 884)]",[],[1],[35],[0.5833333333333334],"[640.0, 512.0]",horizontal,"(390.0, 262.0)",[1.25],[0.54],1,2946.836
9,False,529,1.004,60,[],[],"[(1111, 878)]",[],[1],[34],[0.5666666666666667],"[640.0, 512.0]",horizontal,"(890.0, 262.0)",[1.5],[0.523],1,2951.771
9,False,530,1.149,68,[],[],"[(1079, 875)]",[],[1],[35],[0.5833333333333334],"[640.0, 512.0]",vertical,"(390.0, 762.0)",[1.4333333333333333],[0.543],1,2959.457
9,False,531,0.679,40,[],[],"[(1052, 869)]",[],[1],[33],[0.55],"[640.0, 512.0]",vertical,"(890.0, 262.0)",[1.1333333333333333],[0.507],1,2966.8
9,False,532,0.639,38,[],[],"[(1080, 888)]",[],[1],[41],[0.6833333333333333],"[640.0, 512.0]",vertical,"(390.0, 262.0)",[1.2333333333333334],[0.64],1,2971.47
9,False,533,1.163,69,[],[],"[(1080, 884)]",[],[1],[35],[0.5833333333333334],"[640.0, 512.0]",horizontal,"(890.0, 762.0)",[1.3],[0.539],1,2976.32
9,False,534,0.554,33,[],[],"[(1098, 886)]",[],[1],[34],[0.5666666666666667],"[640.0, 512.0]",horizontal,"(890.0, 762.0)",[1.2833333333333332],[0.528],1,2981.512
9,False,535,1.182,70,[],[],"[(1082, 883)]",[],[1],[34],[0.5666666666666667],"[640.0, 512.0]",vertical,"(390.0, 262.0)",[1.3333333333333333],[0.518],1,2985.984
9,False,536,0.977,58,[],[],"[(1069, 872)]",[],[1],[33],[0.55],"[640.0, 512.0]",horizontal,"(890.0, 262.0)",[0.5],[0.526],1,2991.138
9,False,537,0.814,48,[],[],"[(1080, 864)]",[],[1],[34],[0.5666666666666667],"[640.0, 512.0]",horizontal,"(890.0, 262.0)",[1.4333333333333333],[0.527],1,2995.325
9,False,538,1.178,70,[],[],"[(1082, 892)]",[],[1],[43],[0.7166666666666667],"[640.0, 512.0]",horizontal,"(390.0, 762.0)",[0.8333333333333334],[0.666],1,3000.374
9,False,539,0.792,47,[],[],"[(1076, 888)]",[],[1],[35],[0.5833333333333334],"[640.0, 512.0]",horizontal,"(390.0, 262.0)",[1.1666666666666667],[0.541],1,3005.384
9,False,540,1.187,71,[],[],"[(1098, 872)]",[],[1],[35],[0.5833333333333334],"[640.0, 512.0]",vertical,"(390.0, 762.0)",[0.8],[0.541],1,3010.154
10,False,541,1.149,68,[],[],"[(1079, 880)]",[],[1],[36],[0.6],"[640.0, 512.0]",vertical,"(890.0, 262.0)",[0.75],[0.556],1,3014.725
10,False,542,0.685,41,[],[],"[(1099, 875)]",[],[1],[35],[0.5833333333333334],"[640.0, 512.0]",horizontal,"(890.0, 762.0)",[1.5333333333333332],[0.542],1,3019.46
10,False,543,1.086,65,[],[],"[(1091, 878)]",[],[1],[32],[0.5333333333333333],"[640.0, 512.0]",vertical,"(390.0, 262.0)",[1.2833333333333332],[0.496],1,3024.449
10,False,544,0.744,44,[],[],"[(1082, 878)]",[],[1],[34],[0.5666666666666667],"[640.0, 512.0]",horizontal,"(890.0, 762.0)",[1.55],[0.527],1,3029.518
10,False,545,0.7,42,[],[],"[(1146, 894)]",[],[1],[34],[0.5666666666666667],"[640.0, 512.0]",horizontal,"(390.0, 762.0)",[0.7],[0.526],1,3034.408
10,False,546,0.998,59,[],[],"[(1080, 891)]",[],[1],[35],[0.5833333333333334],"[640.0, 512.0]",horizontal,"(390.0, 762.0)",[0.9],[0.547],1,3047.979
10,False,547,0.932,55,[],[],"[(1074, 880)]",[],[1],[46],[0.7666666666666666],"[640.0, 512.0]",vertical,"(890.0, 262.0)",[1.05],[0.721],1,3052.634
10,False,548,0.925,55,[],[],"[(1081, 889)]",[],[1],[32],[0.5333333333333333],"[640.0, 512.0]",vertical,"(390.0, 762.0)",[1.5666666666666667],[0.499],1,3057.57
10,False,549,0.889,53,[],[],"[(1107, 896)]",[],[1],[35],[0.5833333333333334],"[640.0, 512.0]",horizontal,"(890.0, 762.0)",[0.7166666666666667],[0.537],1,3062.686
10,False,550,0.879,52,[],[],"[(1056, 879)]",[],[1],[39],[0.65],"[640.0, 512.0]",horizontal,"(890.0, 762.0)",[1.15],[0.607],1,3067.36
10,False,551,0.813,48,[],[],"[(1097, 874)]",[],[1],[37],[0.6166666666666667],"[640.0, 512.0]",horizontal,"(390.0, 262.0)",[0.8333333333333334],[0.573],1,3072.145
10,False,552,1.0,60,[],[],"[(1082, 884)]",[],[1],[33],[0.55],"[640.0, 512.0]",horizontal,"(390.0, 262.0)",[0.6],[0.51],1,3076.713
10,False,553,0.761,45,[],[],"[(1076, 897)]",[],[1],[35],[0.5833333333333334],"[640.0, 512.0]",horizontal,"(390.0, 762.0)",[1.4833333333333334],[0.544],1,3081.061
10,False,554,1.015,60,[],[],"[(1081, 882)]",[],[1],[34],[0.5666666666666667],"[640.0, 512.0]",vertical,"(890.0, 262.0)",[0.8166666666666667],[0.531],1,3086.061
10,False,555,1.151,69,[],[],"[(1074, 895)]",[],[1],[34],[0.5666666666666667],"[640.0, 512.0]",vertical,"(390.0, 262.0)",[0.7666666666666666],[0.524],1,3090.597
10,False,556,0.718,43,[],[],"[(1098, 887)]",[],[1],[33],[0.55],"[640.0, 512.0]",vertical,"(390.0, 262.0)",[1.1333333333333333],[0.51],1,3095.325
10,False,557,0.799,47,[],[],"[(1101, 888)]",[],[1],[42],[0.7],"[640.0, 512.0]",horizontal,"(390.0, 762.0)",[1.2166666666666666],[0.655],1,3100.035
10,False,558,1.063,63,[],[],"[(1084, 882)]",[],[1],[32],[0.5333333333333333],"[640.0, 512.0]",horizontal,"(890.0, 262.0)",[1.1666666666666667],[0.494],1,3104.962
10,False,559,0.743,44,[],[],"[(1068, 880)]",[],[1],[38],[0.6333333333333333],"[640.0, 512.0]",vertical,"(890.0, 262.0)",[0.95],[0.594],1,3109.907
10,False,560,1.055,63,[],[],"[(1102, 850)]",[],[1],[37],[0.6166666666666667],"[640.0, 512.0]",vertical,"(390.0, 762.0)",[0.6],[0.572],1,3114.597
10,False,561,1.056,63,[],[],"[(1080, 877)]",[],[1],[34],[0.5666666666666667],"[640.0, 512.0]",vertical,"(890.0, 262.0)",[1.4666666666666666],[0.525],1,3120.946
10,False,562,0.875,52,[],[],"[(1053, 884)]",[],[1],[40],[0.6666666666666666],"[640.0, 512.0]",vertical,"(390.0, 262.0)",[1.5666666666666667],[0.622],1,3126.226
10,False,563,0.858,51,[],[],"[(1060, 870)]",[],[1],[45],[0.75],"[640.0, 512.0]",vertical,"(890.0, 762.0)",[0.5],[0.707],1,3131.604
10,False,564,0.692,41,[],[],"[(1086, 890)]",[],[1],[38],[0.6333333333333333],"[640.0, 512.0]",horizontal,"(890.0, 762.0)",[0.7666666666666666],[0.589],1,3135.947
10,False,565,0.947,56,[],[],"[(1080, 889)]",[],[1],[33],[0.55],"[640.0, 512.0]",vertical,"(890.0, 262.0)",[1.65],[0.512],1,3140.158
10,False,566,1.105,66,[],[],"[(1067, 894)]",[],[1],[36],[0.6],"[640.0, 512.0]",horizontal,"(390.0, 262.0)",[0.8333333333333334],[0.558],1,3145.39
10,False,567,0.649,38,[],[],"[(1073, 873)]",[],[1],[35],[0.5833333333333334],"[640.0, 512.0]",horizontal,"(890.0, 262.0)",[1.3666666666666667],[0.535],1,3150.058
10,False,568,0.727,43,[],[],"[(1053, 885)]",[],[1],[39],[0.65],"[640.0, 512.0]",horizontal,"(890.0, 262.0)",[0.5833333333333334],[0.607],1,3154.825
10,False,569,0.911,54,[],[],"[(1075, 873)]",[],[1],[37],[0.6166666666666667],"[640.0, 512.0]",vertical,"(390.0, 262.0)",[0.7833333333333333],[0.575],1,3158.915
10,False,570,1.01,60,[],[],"[(1097, 880)]",[],[1],[32],[0.5333333333333333],"[640.0, 512.0]",horizontal,"(890.0, 262.0)",[1.1166666666666667],[0.497],1,3163.574
10,False,571,0.826,49,[],[],"[(1063, 880)]",[],[1],[35],[0.5833333333333334],"[640.0, 512.0]",horizontal,"(390.0, 762.0)",[1.0666666666666667],[0.542],1,3168.522
10,False,572,0.94,56,[],[],"[(1078, 880)]",[],[1],[33],[0.55],"[640.0, 512.0]",vertical,"(890.0, 262.0)",[1.1833333333333333],[0.508],1,3173.162
10,False,573,0.531,31,[],[],"[(1075, 866)]",[],[1],[31],[0.5166666666666666],"[640.0, 512.0]",horizontal,"(390.0, 262.0)",[1.5166666666666666],[0.481],1,3178.123
10,False,574,0.995,59,[],[],"[(1058, 898)]",[],[1],[37],[0.6166666666666667],"[640.0, 512.0]",horizontal,"(890.0, 762.0)",[0.75],[0.573],1,3183.039
10,False,575,0.589,35,[],[],"[(1079, 868)]",[],[1],[34],[0.5666666666666667],"[640.0, 512.0]",horizontal,"(890.0, 262.0)",[1.4],[0.521],1,3187.461
10,False,576,0.674,40,[],[],"[(1128, 884)]",[],[1],[36],[0.6],"[640.0, 512.0]",horizontal,"(890.0, 762.0)",[0.5833333333333334],[0.558],1,3192.239
10,False,577,0.639,38,[],[],"[(1092, 846)]",[],[1],[31],[0.5166666666666666],"[640.0, 512.0]",horizontal,"(390.0, 262.0)",[1.2333333333333334],[0.481],1,3207.181
10,False,578,0.955,57,[],[],"[(1054, 855)]",[],[1],[35],[0.5833333333333334],"[640.0, 512.0]",horizontal,"(390.0, 262.0)",[1.1666666666666667],[0.54],1,3211.737
10,False,579,0.968,58,[],[],"[(1064, 844)]",[],[1],[34],[0.5666666666666667],"[640.0, 512.0]",vertical,"(390.0, 262.0)",[0.8333333333333334],[0.525],1,3216.514
10,False,580,0.981,58,[],[],"[(1090, 889)]",[],[1],[],[],"[640.0, 512.0]",vertical,"(390.0, 262.0)",[],[0],0,3221.118
10,False,581,0.613,36,[],[],"[(1080, 859)]",[],[1],[33],[0.55],"[640.0, 512.0]",horizontal,"(890.0, 762.0)",[1.6833333333333333],[0.513],1,3225.507
10,False,582,0.813,48,[],[],"[(1056, 870)]",[],[1],[10],[0.16666666666666666],"[640.0, 512.0]",vertical,"(890.0, 262.0)",[1.5166666666666666],[0.134],1,3231.968
10,False,583,0.7,42,[],[],"[(1069, 882)]",[],[1],[37],[0.6166666666666667],"[640.0, 512.0]",vertical,"(890.0, 262.0)",[1.4666666666666666],[0.574],1,3236.842
10,False,584,1.076,64,[],[],"[(1080, 878)]",[],[1],[35],[0.5833333333333334],"[640.0, 512.0]",vertical,"(890.0, 762.0)",[1.6833333333333333],[0.535],1,3241.803
10,False,585,0.639,38,[],[],"[(1098, 875)]",[],[1],[38],[0.6333333333333333],"[640.0, 512.0]",vertical,"(890.0, 262.0)",[0.5],[0.593],1,3247.164
10,False,586,0.77,46,[],[],"[(1090, 895)]",[],[1],[36],[0.6],"[640.0, 512.0]",horizontal,"(390.0, 262.0)",[1.2666666666666666],[0.56],1,3251.202
10,False,587,0.662,39,[],[],"[(1105, 888)]",[],[1],[34],[0.5666666666666667],"[640.0, 512.0]",vertical,"(890.0, 762.0)",[1.0166666666666666],[0.529],1,3255.974
10,False,588,0.854,51,[],[],"[(1060, 866)]",[],[1],[33],[0.55],"[640.0, 512.0]",horizontal,"(390.0, 762.0)",[1.0666666666666667],[0.508],1,3260.252
10,False,589,0.877,52,[],[],"[(1078, 866)]",[],[1],[35],[0.5833333333333334],"[640.0, 512.0]",vertical,"(890.0, 762.0)",[1.6166666666666667],[0.538],1,3265.068
10,False,590,0.906,54,[],[],"[(1050, 891)]",[],[1],[35],[0.5833333333333334],"[640.0, 512.0]",horizontal,"(890.0, 762.0)",[1.1833333333333333],[0.542],1,3270.306
10,False,591,0.91,54,[],[],"[(1063, 879)]",[],[1],[36],[0.6],"[640.0, 512.0]",horizontal,"(890.0, 262.0)",[1.3333333333333333],[0.556],1,3275.069
10,False,592,0.706,42,[],[],"[(1062, 883)]",[],[1],[34],[0.5666666666666667],"[640.0, 512.0]",vertical,"(890.0, 262.0)",[0.7166666666666667],[0.522],1,3280.095
10,False,593,0.713,42,[],[],"[(1080, 864)]",[],[1],[32],[0.5333333333333333],"[640.0, 512.0]",horizontal,"(390.0, 262.0)",[0.7],[0.488],1,3284.356
10,False,594,0.918,55,[],[],"[(1044, 869)]",[],[1],[41],[0.6833333333333333],"[640.0, 512.0]",vertical,"(890.0, 762.0)",[0.6333333333333333],[0.643],1,3288.407
10,False,595,0.686,41,[],[],"[(1050, 877)]",[],[1],[41],[0.6833333333333333],"[640.0, 512.0]",horizontal,"(890.0, 262.0)",[1.1833333333333333],[0.64],1,3292.948
10,False,596,0.592,35,[],[],"[(1053, 874)]",[],[1],[31],[0.5166666666666666],"[640.0, 512.0]",horizontal,"(890.0, 262.0)",[1.6666666666666667],[0.473],1,3297.842
10,False,597,0.646,38,[],[],"[(1038, 841)]",[],[1],[36],[0.6],"[640.0, 512.0]",horizontal,"(890.0, 262.0)",[0.8666666666666667],[0.553],1,3302.891
10,False,598,0.966,57,[],[],"[(1093, 870)]",[],[1],[35],[0.5833333333333334],"[640.0, 512.0]",horizontal,"(390.0, 262.0)",[1.2666666666666666],[0.542],1,3307.357
10,False,599,1.021,61,[],[],"[(1075, 873)]",[],[1],[37],[0.6166666666666667],"[640.0, 512.0]",horizontal,"(390.0, 762.0)",[0.7666666666666666],[0.569],1,3312.261
10,False,600,0.982,58,[],[],"[(1078, 884)]",[],[1],[49],[0.8166666666666667],"[640.0, 512.0]",vertical,"(890.0, 262.0)",[0.7333333333333333],[0.765],1,3316.884
11,False,601,0.763,45,[],[],"[(1056, 875)]",[],[1],[35],[0.5833333333333334],"[640.0, 512.0]",vertical,"(890.0, 762.0)",[0.8333333333333334],[0.543],1,3321.583
11,False,602,0.916,54,[],[],"[(1075, 874)]",[],[1],[34],[0.5666666666666667],"[640.0, 512.0]",horizontal,"(890.0, 262.0)",[0.7166666666666667],[0.523],1,3325.976
11,False,603,1.137,68,[],[],"[(1080, 865)]",[],[1],[36],[0.6],"[640.0, 512.0]",vertical,"(390.0, 262.0)",[0.6666666666666666],[0.559],1,3330.275
11,False,604,0.82,49,[],[],"[(1142, 900)]",[],[1],[39],[0.65],"[640.0, 512.0]",horizontal,"(390.0, 262.0)",[1.6166666666666667],[0.607],1,3334.928
11,False,605,0.529,31,[],[],"[(1102, 882)]",[],[1],[34],[0.5666666666666667],"[640.0, 512.0]",vertical,"(390.0, 762.0)",[1.6166666666666667],[0.529],1,3340.799
11,False,606,1.032,61,[],[],"[(1094, 883)]",[],[1],[32],[0.5333333333333333],"[640.0, 512.0]",vertical,"(390.0, 262.0)",[0.5833333333333334],[0.491],1,3345.7
11,False,607,0.514,30,[],[],"[(1079, 858)]",[],[1],[36],[0.6],"[640.0, 512.0]",vertical,"(390.0, 262.0)",[1.3833333333333333],[0.567],1,3349.931
11,False,608,0.642,38,[],[],"[(1052, 880)]",[],[1],[35],[0.5833333333333334],"[640.0, 512.0]",vertical,"(890.0, 262.0)",[1.3],[0.538],1,3354.6
11,False,609,0.625,37,[],[],"[(1075, 860)]",[],[1],[37],[0.6166666666666667],"[640.0, 512.0]",vertical,"(390.0, 262.0)",[0.6333333333333333],[0.577],1,3359.2
11,False,610,1.185,71,[],[],"[(1058, 870)]",[],[1],[34],[0.5666666666666667],"[640.0, 512.0]",vertical,"(890.0, 262.0)",[0.9],[0.521],1,3363.126
11,False,611,1.178,70,[],[],"[(1086, 877)]",[],[1],[37],[0.6166666666666667],"[640.0, 512.0]",vertical,"(890.0, 262.0)",[0.55],[0.576],1,3367.975
11,False,612,0.868,52,[],[],"[(1052, 884)]",[],[1],[32],[0.5333333333333333],"[640.0, 512.0]",vertical,"(390.0, 262.0)",[1.4],[0.49],1,3372.487
11,False,613,0.973,58,[],[],"[(1041, 881)]",[],[1],[34],[0.5666666666666667],"[640.0, 512.0]",horizontal,"(890.0, 262.0)",[0.8],[0.529],1,3377.408
11,False,614,0.88,52,[],[],"[(1080, 889)]",[],[1],[45],[0.75],"[640.0, 512.0]",horizontal,"(390.0, 762.0)",[0.55],[0.699],1,3381.899
11,False,615,0.71,42,[],[],"[(1057, 858)]",[],[1],[34],[0.5666666666666667],"[640.0, 512.0]",horizontal,"(390.0, 762.0)",[0.9],[0.531],1,3386.239
11,False,616,0.686,41,[],[],"[(1060, 859)]",[],[1],[34],[0.5666666666666667],"[640.0, 512.0]",vertical,"(390.0, 262.0)",[0.8166666666666667],[0.533],1,3390.638
11,False,617,0.874,52,[],[],"[(1056, 860)]",[],[1],[36],[0.6],"[640.0, 512.0]",vertical,"(390.0, 262.0)",[0.5833333333333334],[0.554],1,3394.944
11,False,618,0.777,46,[],[],"[(1077, 868)]",[],[1],[39],[0.65],"[640.0, 512.0]",vertical,"(890.0, 762.0)",[0.9333333333333333],[0.603],1,3399.449
11,False,619,0.905,54,[],[],"[(1103, 860)]",[],[1],[39],[0.65],"[640.0, 512.0]",horizontal,"(390.0, 762.0)",[1.4666666666666666],[0.601],1,3404.085
11,False,620,0.806,48,[],[],"[(1079, 875)]",[],[1],[36],[0.6],"[640.0, 512.0]",horizontal,"(890.0, 762.0)",[1.0666666666666667],[0.56],1,3409.423
11,False,621,1.036,62,[],[],"[(1050, 886)]",[],[1],[51],[0.85],"[640.0, 512.0]",horizontal,"(390.0, 762.0)",[1.2],[0.805],0,3414.156
11,False,622,1.051,63,[],[],"[(1082, 848)]",[],[1],[36],[0.6],"[640.0, 512.0]",horizontal,"(890.0, 262.0)",[1.65],[0.552],1,3419.702
11,False,623,1.12,67,[],[],"[(1055, 848)]",[],[1],[40],[0.6666666666666666],"[640.0, 512.0]",horizontal,"(390.0, 262.0)",[1.1],[0.626],1,3425.739
11,False,624,0.585,35,[],[],"[(1118, 852)]",[],[1],[35],[0.5833333333333334],"[640.0, 512.0]",vertical,"(890.0, 762.0)",[0.7166666666666667],[0.54],1,3430.914
11,False,625,1.123,67,[],[],"[(1093, 871)]",[],[1],[36],[0.6],"[640.0, 512.0]",vertical,"(890.0, 762.0)",[0.5],[0.553],1,3435.189
11,False,626,1.19,71,[],[],"[(1066, 865)]",[],[1],[35],[0.5833333333333334],"[640.0, 512.0]",vertical,"(890.0, 262.0)",[1.3166666666666667],[0.546],1,3439.665
11,False,627,0.942,56,[],[],"[(1100, 852)]",[],[1],"[51, 51]","[0.85, 0.85]","[640.0, 512.0]",vertical,"(390.0, 262.0)",[0.9833333333333333],"[0.805, 0.805]",0,3444.982
11,False,628,0.664,39,[],[],"[(1084, 862)]",[],[1],[36],[0.6],"[640.0, 512.0]",vertical,"(890.0, 762.0)",[0.5833333333333334],[0.554],1,3449.722
11,False,629,0.835,50,[],[],"[(1089, 864)]",[],[1],[34],[0.5666666666666667],"[640.0, 512.0]",vertical,"(390.0, 262.0)",[1.4166666666666667],[0.524],1,3454.074
11,False,630,0.743,44,[],[],"[(1102, 885)]",[],[1],[34],[0.5666666666666667],"[640.0, 512.0]",vertical,"(890.0, 762.0)",[1.2666666666666666],[0.524],1,3458.881
11,False,631,1.163,69,[],[],"[(1096, 884)]",[],[1],[42],[0.7],"[640.0, 512.0]",vertical,"(890.0, 762.0)",[1.6166666666666667],[0.653],1,3463.581
11,False,632,0.988,59,[],[],"[(1087, 868)]",[],[1],[37],[0.6166666666666667],"[640.0, 512.0]",vertical,"(390.0, 762.0)",[0.6833333333333333],[0.581],1,3469.165
11,False,633,1.051,63,[],[],"[(1054, 881)]",[],[1],[40],[0.6666666666666666],"[640.0, 512.0]",horizontal,"(390.0, 262.0)",[0.9666666666666667],[0.629],1,3473.805
11,False,634,0.739,44,[],[],"[(1053, 864)]",[],[1],[35],[0.5833333333333334],"[640.0, 512.0]",vertical,"(390.0, 262.0)",[1.05],[0.541],1,3478.559
11,False,635,0.83,49,[],[],"[(1104, 859)]",[],[1],[33],[0.55],"[640.0, 512.0]",vertical,"(890.0, 762.0)",[1.2833333333333332],[0.51],1,3483.139
11,False,636,0.581,34,[],[],"[(1098, 878)]",[],[1],[34],[0.5666666666666667],"[640.0, 512.0]",horizontal,"(890.0, 762.0)",[0.5333333333333333],[0.527],1,3488.217
11,False,637,0.53,31,[],[],"[(1097, 877)]",[],[1],[35],[0.5833333333333334],"[640.0, 512.0]",horizontal,"(890.0, 762.0)",[0.9],[0.54],1,3492.07
11,False,638,0.767,46,[],[],"[(1087, 865)]",[],[1],[35],[0.5833333333333334],"[640.0, 512.0]",horizontal,"(390.0, 762.0)",[1.05],[0.542],1,3496.086
11,False,639,1.109,66,[],[],"[(1086, 858)]",[],[1],[36],[0.6],"[640.0, 512.0]",vertical,"(890.0, 262.0)",[0.5],[0.559],1,3501.915
11,False,640,0.554,33,[],[],"[(1063, 889)]",[],[1],[33],[0.55],"[640.0, 512.0]",horizontal,"(890.0, 262.0)",[1.45],[0.51],1,3506.374
11,False,641,0.79,47,[],[],"[(1088, 884)]",[],[1],[35],[0.5833333333333334],"[640.0, 512.0]",vertical,"(390.0, 262.0)",[1.25],[0.534],1,3510.985
11,False,642,0.836,50,[],[],"[(1091, 880)]",[],[1],[35],[0.5833333333333334],"[640.0, 512.0]",vertical,"(390.0, 262.0)",[0.6333333333333333],[0.537],1,3515.652
11,False,643,1.052,63,[],[],"[(1080, 863)]",[],[1],[36],[0.6],"[640.0, 512.0]",vertical,"(390.0, 262.0)",[1.6166666666666667],[0.555],1,3519.82
11,False,644,1.146,68,[],[],"[(1053, 865)]",[],[1],[38],[0.6333333333333333],"[640.0, 512.0]",vertical,"(390.0, 762.0)",[0.55],[0.592],1,3525.338
11,False,645,0.535,32,[],[],"[(1079, 872)]",[],[1],[34],[0.5666666666666667],"[640.0, 512.0]",vertical,"(890.0, 762.0)",[0.5666666666666667],[0.523],1,3529.72
11,False,646,0.794,47,[],[],"[(1062, 868)]",[],[1],[35],[0.5833333333333334],"[640.0, 512.0]",vertical,"(390.0, 762.0)",[0.5333333333333333],[0.539],1,3533.785
11,False,647,0.917,55,[],[],"[(1052, 869)]",[],[1],[33],[0.55],"[640.0, 512.0]",vertical,"(390.0, 262.0)",[1.3666666666666667],[0.506],1,3537.808
11,False,648,0.52,31,[],[],"[(1083, 879)]",[],[1],[35],[0.5833333333333334],"[640.0, 512.0]",horizontal,"(390.0, 262.0)",[0.65],[0.54],1,3542.686
11,False,649,0.634,38,[],[],"[(1077, 871)]",[],[1],[40],[0.6666666666666666],"[640.0, 512.0]",vertical,"(890.0, 262.0)",[0.7666666666666666],[0.622],1,3546.665
11,False,650,0.619,37,[],[],"[(1044, 895)]",[],[1],[34],[0.5666666666666667],"[640.0, 512.0]",vertical,"(390.0, 762.0)",[1.35],[0.524],1,3550.936
11,False,651,0.772,46,[],[],"[(1074, 881)]",[],[1],[34],[0.5666666666666667],"[640.0, 512.0]",horizontal,"(890.0, 762.0)",[0.5833333333333334],[0.523],1,3555.77
11,False,652,0.753,45,[],[],"[(1077, 870)]",[],[1],[33],[0.55],"[640.0, 512.0]",horizontal,"(890.0, 762.0)",[0.8166666666666667],[0.505],1,3559.961
11,False,653,1.18,70,[],[],"[(1082, 872)]",[],[1],[35],[0.5833333333333334],"[640.0, 512.0]",horizontal,"(390.0, 762.0)",[0.5333333333333333],[0.541],1,3564.425
11,False,654,0.519,31,[],[],"[(1056, 880)]",[],[1],[34],[0.5666666666666667],"[640.0, 512.0]",vertical,"(890.0, 762.0)",[1.5],[0.523],1,3568.964
11,False,655,0.971,58,[],[],"[(1056, 865)]",[],[1],[51],[0.85],"[640.0, 512.0]",vertical,"(390.0, 762.0)",[1.2333333333333334],[0.798],0,3573.728
11,False,656,1.093,65,[],[],"[(1149, 889)]",[],[1],[36],[0.6],"[640.0, 512.0]",vertical,"(890.0, 262.0)",[1.15],[0.552],1,3578.889
11,False,657,0.963,57,[],[],"[(1063, 852)]",[],[1],[33],[0.55],"[640.0, 512.0]",horizontal,"(890.0, 262.0)",[1.6666666666666667],[0.506],1,3586.186
11,False,658,1.198,71,[],[],"[(1080, 868)]",[],[1],[32],[0.5333333333333333],"[640.0, 512.0]",horizontal,"(390.0, 762.0)",[1.3833333333333333],[0.487],1,3591.569
11,False,659,0.897,53,[],[],"[(1085, 868)]",[],[1],[33],[0.55],"[640.0, 512.0]",vertical,"(890.0, 762.0)",[1.2],[0.501],1,3596.975
11,False,660,0.749,44,[],[],"[(1084, 888)]",[],[1],[34],[0.5666666666666667],"[640.0, 512.0]",horizontal,"(890.0, 762.0)",[1.4333333333333333],[0.526],1,3601.917
12,False,661,0.908,54,[],[],"[(1094, 866)]",[],[1],[46],[0.7666666666666666],"[640.0, 512.0]",vertical,"(390.0, 762.0)",[1.4333333333333333],[0.72],1,3606.853
12,False,662,0.895,53,[],[],"[(1085, 884)]",[],[1],[34],[0.5666666666666667],"[640.0, 512.0]",vertical,"(890.0, 762.0)",[0.7],[0.53],1,3612.243
12,False,663,0.723,43,[],[],"[(1050, 884)]",[],[1],[35],[0.5833333333333334],"[640.0, 512.0]",horizontal,"(390.0, 262.0)",[1.0333333333333332],[0.545],1,3616.523
12,False,664,0.652,39,[],[],"[(1099, 873)]",[],[1],[41],[0.6833333333333333],"[640.0, 512.0]",horizontal,"(890.0, 262.0)",[1.1333333333333333],[0.641],1,3620.921
12,False,665,1.058,63,[],[],"[(1053, 865)]",[],[1],[35],[0.5833333333333334],"[640.0, 512.0]",vertical,"(890.0, 762.0)",[1.4333333333333333],[0.545],1,3625.622
12,False,666,0.564,33,[],[],"[(1093, 857)]",[],[1],[33],[0.55],"[640.0, 512.0]",horizontal,"(890.0, 262.0)",[1.2833333333333332],[0.508],1,3630.909
12,False,667,0.505,30,[],[],"[(1056, 884)]",[],[1],[37],[0.6166666666666667],"[640.0, 512.0]",horizontal,"(390.0, 262.0)",[0.7666666666666666],[0.577],1,3635.502
