block,trial,trial_type,taps_start_loc_during_fix,taps_end_loc_during_fix,taps_on_lever_during_fix,taps_on_lever_s_during_fix,bar_orientation,target_xy,cti,rt,acc,time,pulses
0,1,target,"[(1023, 854)]",[],[1],[0.5],horizontal,"(890.0, 762.0)",1.2666666666666666,0.462,1,0.067,1
0,2,target,"[(1031, 885)]",[],[1],[0.7],vertical,"(890.0, 762.0)",0.7833333333333333,0.662,1,12.249,1
0,3,target,"[(1037, 851)]",[],[1],[0.25],vertical,"(390.0, 262.0)",1.1,0.218,1,300.811,1
0,4,target,"[(1043, 851)]",[],[1],[0.6],vertical,"(890.0, 262.0)",1.3,0.561,1,306.026,2
0,5,catch,"[(1060, 809)]",[],[1],[],vertical,"(390.0, 262.0)",1.5166666666666666,nan,1,312.526,1
0,6,target,"[(1060, 822)]",[],[1],[0.6833333333333333],vertical,"(890.0, 262.0)",0.9666666666666667,0.645,1,317.46,1
0,7,target,"[(1034, 831)]",[],[1],[0.18333333333333332],vertical,"(390.0, 762.0)",1.35,0.152,1,322.428,1
0,8,target,"[(1037, 833)]",[],[1],[0.23333333333333334],vertical,"(890.0, 262.0)",1.2,0.2,1,327.582,2
0,9,catch,"[(1076, 822)]",[],[1],[],vertical,"(390.0, 762.0)",,"('cti', 1.522),nan",1,333.742,1
0,10,target,"[(1039, 828)]",[],[1],[0.65],vertical,"(390.0, 762.0)",0.6833333333333333,0.612,1,338.81,1
0,11,target,"[(1039, 821)]",[],[1],[],vertical,"(390.0, 262.0)",,"('cti', 1.364)",0,344.486,0
0,12,target,"[(1063, 828)]",[],[1],[0.6833333333333333],horizontal,"(890.0, 262.0)",0.8166666666666667,0.643,1,349.169,1
0,13,target,"[(1041, 899)]",[],[1],[0.5],horizontal,"(890.0, 262.0)",1.1333333333333333,0.459,1,354.343,1
0,14,target,"[(1033, 860)]",[],[1],[0.6666666666666666],vertical,"(890.0, 762.0)",1.0333333333333332,0.629,1,4411.825,1
0,15,target,"[(1028, 833)]",[],[1],[],horizontal,"(890.0, 262.0)",,"('cti', 1.202)",0,4417.052,0
0,16,target,"[(1028, 849)]",[],[1],[],horizontal,"(390.0, 262.0)",,"('cti', 1.546)",0,4421.679,0
0,17,target,"[(1043, 848)]",[],[1],[0.7166666666666667],vertical,"(390.0, 762.0)",1.0333333333333332,0.673,1,4431.93,1
0,18,target,"[(1033, 812)]",[],[1],[0.5833333333333334],horizontal,"(890.0, 762.0)",1.4333333333333333,0.552,1,4437.062,1
0,19,target,"[(1045, 848)]",[],[1],[0.45],horizontal,"(390.0, 262.0)",1.5666666666666667,0.411,1,4442.36,1
0,20,catch,"[(1050, 830)]",[],[1],[],horizontal,"(890.0, 262.0)",,"('cti', 1.648),nan",1,4447.719,2
0,21,target,"[(1053, 847)]",[],[1],[0.6666666666666666],horizontal,"(890.0, 262.0)",0.5333333333333333,0.632,1,4453.774,1
0,22,target,"[(1053, 821)]",[],[1],[0.6666666666666666],horizontal,"(890.0, 262.0)",0.8666666666666667,0.624,1,4458.653,1
0,23,target,"[(1034, 825)]",[],[1],[0.5833333333333334],horizontal,"(890.0, 262.0)",0.55,0.552,1,4463.729,1
0,24,target,"[(1033, 822)]",[],[1],[0.5333333333333333],horizontal,"(390.0, 262.0)",1.1166666666666667,0.497,1,4468.582,2
0,25,target,"[(1073, 833)]",[],[1],[0.21666666666666667],vertical,"(390.0, 762.0)",1.4333333333333333,0.186,1,4474.329,1
0,26,catch,"[(1039, 821)]",[],[1],[],horizontal,"(390.0, 262.0)",1.55,nan,1,4480.429,1
0,27,target,"[(1053, 827)]",[],[1],[0.45],vertical,"(890.0, 762.0)",1.1666666666666667,0.41,1,4485.502,1
0,28,target,"[(1057, 818)]",[],[1],[],horizontal,"(890.0, 262.0)",,"('cti', 1.071)",0,4490.729,0
0,29,target,"[(1041, 829)]",[],[1],[0.8166666666666667],horizontal,"(890.0, 262.0)",0.6333333333333333,0.769,1,4495.512,1
0,30,target,"[(1020, 832)]",[],[1],[0.2],vertical,"(890.0, 762.0)",1.1666666666666667,0.167,1,4500.244,1
0,31,catch,"[(1041, 823)]",[],[1],[],vertical,"(390.0, 762.0)",1.3666666666666667,nan,1,4506.264,1
0,32,catch,"[(1053, 825)]",[],[1],[],horizontal,"(390.0, 262.0)",,"('cti', 1.34),nan",1,4511.196,2
0,33,target,"[(1053, 833)]",[],[1],[0.55],vertical,"(890.0, 262.0)",0.9333333333333333,0.513,1,4517.683,1
0,34,target,"[(1053, 839)]",[],[1],[0.6833333333333333],vertical,"(390.0, 762.0)",0.9,0.634,1,4522.892,1
0,35,target,"[(1033, 817)]",[],[1],[0.5666666666666667],vertical,"(390.0, 262.0)",0.9666666666666667,0.518,1,4527.997,1
0,36,target,"[(1076, 812)]",[],[1],[0.36666666666666664],vertical,"(890.0, 762.0)",1.1833333333333333,0.327,1,4533.48,2
0,37,target,"[(1036, 819)]",[],[1],[0.5833333333333334],horizontal,"(390.0, 762.0)",1.05,0.542,1,4538.872,1
0,38,target,"[(1053, 809)]",[],[1],[0.6],horizontal,"(890.0, 762.0)",0.7666666666666666,0.554,1,4544.528,1
0,39,target,"[(1063, 837)]",[],[1],[3.0666666666666664],vertical,"(390.0, 262.0)",0.75,2.984,0,4549.148,0
0,40,catch,"[(1033, 859)]",[],[1],[],horizontal,"(390.0, 762.0)",1.1833333333333333,nan,1,4555.668,1
0,41,target,"[(1034, 841)]",[],[1],[0.5333333333333333],vertical,"(890.0, 262.0)",0.9166666666666666,0.49,1,4563.448,1
0,42,target,"[(1042, 813)]",[],[1],[0.05],horizontal,"(390.0, 262.0)",1.6,0.019,0,4568.277,0
0,43,target,"[(1037, 813)]",[],[1],[0.21666666666666667],vertical,"(890.0, 262.0)",1.6166666666666667,0.183,1,4573.164,1
0,44,catch,"[(1039, 835)]",[],[1],[],horizontal,"(390.0, 262.0)",1.2,nan,1,4579.047,1
0,45,target,"[(1045, 846)]",[],[1],[0.6833333333333333],horizontal,"(390.0, 762.0)",0.7166666666666667,0.644,1,4584.322,1
0,46,target,"[(1033, 828)]",[],[1],[0.2833333333333333],vertical,"(390.0, 762.0)",1.2,0.246,1,4589.347,2
0,47,target,"[(1033, 809)]",[],[1],[0.7666666666666666],vertical,"(390.0, 762.0)",1.6833333333333333,0.726,1,4595.031,1
0,48,target,"[(1037, 819)]",[],[1],[0.6],vertical,"(890.0, 762.0)",1.0,0.56,1,4600.532,1
0,49,target,"[(1061, 816)]",[],[1],[0.4],vertical,"(890.0, 762.0)",1.3166666666666667,0.361,1,4605.863,1
0,50,target,"[(1051, 827)]",[],[1],[0.5666666666666667],horizontal,"(890.0, 262.0)",0.5,0.524,1,4610.914,2
0,51,target,"[(1044, 822)]",[],[1],[0.5666666666666667],vertical,"(890.0, 762.0)",1.15,0.532,1,4616.081,1
0,52,target,"[(1033, 847)]",[],[1],[0.65],horizontal,"(390.0, 762.0)",0.9,0.604,1,4621.154,1
0,53,target,"[(1023, 850)]",[],[1],[0.11666666666666667],horizontal,"(390.0, 262.0)",1.5333333333333332,0.083,0,4628.687,0
0,54,target,"[(1037, 848)]",[],[1],[0.6],horizontal,"(390.0, 762.0)",1.0,0.556,1,4633.329,1
0,55,target,"[(1041, 830)]",[],[1],[0.11666666666666667],vertical,"(390.0, 762.0)",1.4333333333333333,0.085,0,4638.564,0
0,56,catch,"[(1033, 828)]",[],[1],[],vertical,"(390.0, 762.0)",1.0166666666666666,nan,1,4643.489,1
0,57,target,"[(1046, 842)]",[],[1],[0.5666666666666667],horizontal,"(890.0, 762.0)",0.7333333333333333,0.526,1,4647.684,1
0,58,catch,"[(1040, 828)]",[],[1],[],horizontal,"(390.0, 262.0)",1.4333333333333333,nan,1,4652.618,1
0,59,target,"[(1033, 827)]",[],[1],[],horizontal,"(390.0, 762.0)",,"('cti', 1.046)",0,4657.653,0
0,60,target,"[(1059, 814)]",[],[1],[0.2],horizontal,"(390.0, 762.0)",1.5166666666666666,0.165,1,4662.029,1
0,61,target,"[(1041, 828)]",[],[1],[0.5333333333333333],vertical,"(890.0, 262.0)",0.9333333333333333,0.497,1,4667.198,1
0,62,target,"[(1032, 826)]",[],[1],[0.5833333333333334],vertical,"(890.0, 762.0)",0.7166666666666667,0.537,1,4672.018,1
0,63,target,"[(1038, 824)]",[],[1],[0.15],horizontal,"(390.0, 262.0)",1.5166666666666666,0.115,1,4677.313,2
0,64,target,"[(1054, 847)]",[],[1],[0.55],vertical,"(890.0, 262.0)",0.5,0.509,1,4682.957,1
0,65,target,"[(1043, 816)]",[],[1],[0.6666666666666666],vertical,"(390.0, 762.0)",0.75,0.626,1,4687.782,1
0,66,target,"[(1036, 802)]",[],[1],[0.55],vertical,"(890.0, 262.0)",1.1,0.508,1,4692.763,1
0,67,target,"[(1072, 823)]",[],[1],[0.6833333333333333],vertical,"(390.0, 262.0)",0.9,0.638,1,4697.769,2
0,68,target,"[(1061, 829)]",[],[1],[0.2833333333333333],vertical,"(890.0, 262.0)",1.4166666666666667,0.252,1,4703.283,1
0,69,target,"[(1065, 812)]",[],[1],[0.55],vertical,"(390.0, 762.0)",1.0833333333333333,0.505,1,4708.159,1
0,70,catch,"[(1036, 821)]",[],[1],[],horizontal,"(890.0, 762.0)",1.35,nan,1,4713.403,1
0,71,target,"[(1072, 821)]",[],[1],[],vertical,"(390.0, 262.0)",,"('cti', 1.531)",0,4718.03,0
0,72,target,"[(1058, 826)]",[],[1],[0.6],horizontal,"(390.0, 262.0)",0.6666666666666666,0.558,1,4722.732,1
0,73,target,"[(1042, 812)]",[],[1],[0.6166666666666667],horizontal,"(890.0, 262.0)",1.2,0.575,1,4727.281,1
0,74,target,"[(1037, 816)]",[],[1],[0.5666666666666667],vertical,"(890.0, 762.0)",1.0333333333333332,0.527,1,4732.416,1
0,75,target,"[(1041, 818)]",[],[1],[0.05],vertical,"(390.0, 762.0)",1.5666666666666667,0.021,0,4737.681,0
0,76,target,"[(1058, 821)]",[],[1],[0.21666666666666667],horizontal,"(890.0, 762.0)",1.5333333333333332,0.183,1,4742.438,1
0,77,catch,"[(1046, 825)]",[],[1],[],vertical,"(390.0, 762.0)",1.05,nan,1,4747.765,1
0,78,target,"[(1064, 842)]",[],[1],[],horizontal,"(890.0, 262.0)",,"('cti', 1.563)",0,4752.042,0
0,79,target,"[(1073, 825)]",[],[1],[0.5166666666666666],horizontal,"(390.0, 262.0)",1.3,0.475,1,4757.057,1
0,80,target,"[(1061, 807)]",[],[1],[0.55],horizontal,"(390.0, 262.0)",0.75,0.509,1,4762.103,1
0,81,catch,"[(1061, 816)]",[],[1],[],horizontal,"(390.0, 262.0)",1.3333333333333333,nan,1,4766.83,1
0,82,catch,"[(1036, 841)]",[],[1],[],horizontal,"(390.0, 262.0)",1.0166666666666666,nan,1,4771.715,2
0,83,target,"[(1038, 836)]",[],[1],[],vertical,"(390.0, 762.0)",,"('cti', 1.459)",0,4776.942,0
0,84,target,"[(1042, 828)]",[],[1],[0.5333333333333333],vertical,"(390.0, 262.0)",0.9833333333333333,0.498,1,4781.848,1
0,85,target,"[(1036, 816)]",[],[1],[0.08333333333333333],vertical,"(390.0, 262.0)",1.6333333333333333,0.052,0,4787.063,0
0,86,target,"[(1056, 838)]",[],[1],[0.5333333333333333],vertical,"(390.0, 262.0)",1.1,0.493,1,4791.949,1
0,87,target,"[(1053, 818)]",[],[1],[0.6333333333333333],horizontal,"(890.0, 762.0)",1.0333333333333332,0.591,1,4797.127,1
0,88,target,"[(1059, 837)]",[],[1],[0.5],horizontal,"(390.0, 262.0)",1.2166666666666666,0.461,1,4802.439,1
0,89,catch,"[(1002, 818), (1045, 833)]",[],"[0, 1]",[],vertical,"(890.0, 262.0)",,"('cti', 0.998),nan",1,4807.801,2
0,90,catch,"[(1042, 830)]",[],[1],[],vertical,"(890.0, 762.0)",1.0666666666666667,nan,1,4815.265,1
0,91,target,"[(1057, 828)]",[],[1],[0.7166666666666667],vertical,"(890.0, 262.0)",0.85,0.676,1,4819.599,1
0,92,target,"[(1060, 824)]",[],[1],[0.5333333333333333],vertical,"(890.0, 262.0)",0.6666666666666666,0.493,1,4824.615,1
0,93,target,"[(1038, 866)]",[],[1],[0.6666666666666666],vertical,"(390.0, 762.0)",0.6833333333333333,0.626,1,4829.143,2
0,94,target,"[(1068, 818)]",[],[1],[0.5666666666666667],horizontal,"(390.0, 262.0)",1.1833333333333333,0.526,1,4839.031,1
0,95,target,"[(1037, 837)]",[],[1],[0.5166666666666666],horizontal,"(390.0, 262.0)",0.7666666666666666,0.476,1,4844.163,1
0,96,target,"[(1057, 818)]",[],[1],[0.65],horizontal,"(390.0, 762.0)",0.9833333333333333,0.605,1,4850.564,1
0,97,target,"[(1037, 815)]",[],[1],[0.23333333333333334],vertical,"(390.0, 762.0)",1.2666666666666666,0.198,1,4855.613,2
0,98,target,"[(1061, 827)]",[],[1],[0.5166666666666666],vertical,"(890.0, 262.0)",1.2166666666666666,0.48,1,4861.179,1
0,99,target,"[(1057, 828)]",[],[1],[0.1],vertical,"(390.0, 762.0)",1.5333333333333332,0.068,0,4866.315,0
0,100,target,"[(1057, 827)]",[],[1],[0.35],vertical,"(390.0, 762.0)",1.4333333333333333,0.312,1,4870.865,1
0,101,catch,"[(1053, 827)]",[],[1],[],horizontal,"(390.0, 762.0)",1.1666666666666667,nan,1,4875.865,1
0,102,target,"[(1037, 828)]",[],[1],[0.45],horizontal,"(890.0, 762.0)",1.4666666666666666,0.407,1,4880.681,1
0,103,target,"[(1025, 836)]",[],[1],[0.65],vertical,"(390.0, 762.0)",1.0,0.606,1,4886.631,2
0,104,target,"[(1058, 817)]",[],[1],[1.2666666666666666],horizontal,"(890.0, 262.0)",0.5833333333333334,1.217,0,4892.481,0
0,105,target,"[(1057, 822)]",[],[1],[0.6333333333333333],horizontal,"(390.0, 262.0)",1.3333333333333333,0.588,1,4897.061,1
0,106,catch,"[(1037, 845)]",[],[1],[],vertical,"(890.0, 762.0)",1.15,nan,1,4902.281,1
0,107,target,"[(1059, 821)]",[],[1],[1.35],vertical,"(390.0, 762.0)",1.15,1.298,0,4907.081,0
0,108,target,"[(1053, 830)]",[],[1],[0.5833333333333334],horizontal,"(390.0, 262.0)",0.8,0.547,1,4912.266,1
0,109,target,"[(1057, 820)]",[],[1],[0.43333333333333335],horizontal,"(890.0, 262.0)",0.9666666666666667,0.389,1,4917.575,1
0,110,target,"[(1037, 823)]",[],[1],[0.6166666666666667],horizontal,"(890.0, 762.0)",1.25,0.578,1,4922.472,1
0,111,catch,"[(1034, 821)]",[],[1],[],vertical,"(890.0, 762.0)",1.1666666666666667,nan,1,4928.316,2
0,112,target,"[(1061, 826)]",[],[1],[0.5],vertical,"(390.0, 262.0)",1.65,0.459,1,4933.565,1
0,113,target,"[(1068, 832)]",[],[1],[0.6833333333333333],horizontal,"(890.0, 762.0)",0.5333333333333333,0.631,1,4938.917,1
0,114,target,"[(1057, 821)]",[],[1],[0.6],horizontal,"(890.0, 262.0)",1.3333333333333333,0.557,1,4944.017,1
0,115,target,"[(1072, 826)]",[],[1],[0.3],horizontal,"(890.0, 262.0)",1.3,0.267,1,4949.399,2
0,116,target,"[(1081, 812)]",[],[1],[0.5666666666666667],vertical,"(890.0, 262.0)",1.1833333333333333,0.535,1,4954.807,1
0,117,target,"[(1043, 825)]",[],[1],[0.6],horizontal,"(390.0, 262.0)",0.6666666666666666,0.558,1,4959.877,1
0,118,target,"[(1042, 813)]",[],[1],[0.6333333333333333],horizontal,"(390.0, 762.0)",0.9333333333333333,0.59,1,4964.485,1
0,119,target,"[(1038, 814)]",[],[1],[0.11666666666666667],vertical,"(890.0, 262.0)",1.4666666666666666,0.083,0,4969.515,0
0,120,target,"[(1053, 836)]",[],[1],[0.48333333333333334],vertical,"(890.0, 262.0)",1.05,0.447,1,4974.098,1
0,121,catch,"[(1069, 815)]",[],[1],[],horizontal,"(390.0, 262.0)",1.0833333333333333,nan,1,4979.466,1
0,122,target,"[(1071, 842)]",[],[1],[0.7833333333333333],vertical,"(890.0, 262.0)",0.9166666666666666,0.738,1,4984.248,1
0,123,target,"[(1061, 834)]",[],[1],[0.3833333333333333],vertical,"(390.0, 262.0)",1.1666666666666667,0.346,1,4989.386,2
0,124,target,"[(1061, 804)]",[],[1],[0.5666666666666667],horizontal,"(390.0, 262.0)",0.8333333333333334,0.537,1,4994.963,1
0,125,target,"[(1066, 825)]",[],[1],[0.26666666666666666],vertical,"(390.0, 762.0)",1.3333333333333333,0.228,1,4999.913,1
0,126,catch,"[(1037, 825)]",[],[1],[],vertical,"(890.0, 262.0)",,"('cti', 1.036),nan",1,5004.915,1
0,127,target,"[(1059, 838)]",[],[1],[0.6333333333333333],horizontal,"(390.0, 762.0)",0.85,0.588,1,5009.961,2
0,128,target,"[(1058, 833)]",[],[1],[0.25],horizontal,"(390.0, 762.0)",1.4833333333333334,0.215,1,5015.282,1
0,129,target,"[(1071, 818)]",[],[1],[0.6333333333333333],vertical,"(890.0, 762.0)",0.6833333333333333,0.59,1,5020.1,1
0,130,target,"[(1058, 816)]",[],[1],[0.4166666666666667],vertical,"(390.0, 762.0)",1.2666666666666666,0.381,1,5025.082,1
0,131,target,"[(1038, 832)]",[],[1],[0.7333333333333333],vertical,"(390.0, 762.0)",0.5,0.685,1,5030.115,2
0,132,target,"[(1049, 829)]",[],[1],[0.6333333333333333],vertical,"(890.0, 262.0)",0.6166666666666667,0.594,1,5035.542,1
0,133,target,"[(1072, 833)]",[],[1],[0.7833333333333333],vertical,"(890.0, 762.0)",1.2166666666666666,0.739,1,5040.249,1
0,134,catch,"[(1057, 813)]",[],[1],[],vertical,"(390.0, 262.0)",1.6,nan,1,5045.583,1
0,135,target,"[(1061, 832)]",[],[1],[0.4166666666666667],vertical,"(890.0, 262.0)",1.2833333333333332,0.375,1,5050.916,2
0,136,target,"[(1042, 814)]",[],[1],[0.25],horizontal,"(890.0, 262.0)",1.45,0.216,1,5056.066,1
0,137,target,"[(1057, 813)]",[],[1],[0.5666666666666667],horizontal,"(390.0, 262.0)",0.9333333333333333,0.523,1,5061.705,1
0,138,target,"[(1061, 837)]",[],[1],[0.75],horizontal,"(890.0, 762.0)",0.9,0.707,1,5066.932,1
0,139,target,"[(1061, 821)]",[],[1],[0.3],horizontal,"(390.0, 762.0)",1.25,0.265,1,5072.915,2
0,140,catch,"[(1057, 828)]",[],[1],[],horizontal,"(390.0, 262.0)",1.35,nan,1,5078.599,1
0,141,target,"[(1033, 828)]",[],[1],[0.6],horizontal,"(890.0, 262.0)",1.0,0.554,1,5083.433,1
0,142,catch,"[(1039, 820)]",[],[1],[],vertical,"(890.0, 262.0)",,"('cti', 1.109),nan",1,5088.964,1
0,143,target,"[(1061, 816)]",[],[1],[0.6],vertical,"(390.0, 262.0)",1.2166666666666666,0.554,1,5093.911,2
0,144,target,"[(1069, 818)]",[],[1],[0.6666666666666666],vertical,"(390.0, 262.0)",0.8166666666666667,0.623,1,5099.416,1
0,145,target,"[(1053, 834)]",[],[1],[0.6],vertical,"(390.0, 762.0)",1.05,0.559,1,5104.252,1
0,146,target,"[(1033, 826)]",[],[1],[0.7333333333333333],vertical,"(390.0, 762.0)",0.65,0.684,1,5109.35,1
0,147,target,"[(1059, 810)]",[],[1],[0.2833333333333333],horizontal,"(390.0, 762.0)",1.2833333333333332,0.248,1,5114.151,2
0,148,catch,"[(1080, 817)]",[],[1],[],vertical,"(390.0, 762.0)",1.2666666666666666,nan,1,5119.714,1
0,149,target,"[(1072, 821)]",[],[1],[0.11666666666666667],vertical,"(890.0, 762.0)",1.3833333333333333,0.086,0,5124.737,0
0,150,catch,"[(1072, 821)]",[],[1],[],vertical,"(890.0, 762.0)",1.1833333333333333,nan,1,5129.35,1
0,151,target,"[(1064, 818)]",[],[1],[0.7166666666666667],horizontal,"(890.0, 762.0)",0.8833333333333333,0.669,1,5134.496,1
0,152,target,"[(1062, 825)]",[],[1],[0.5666666666666667],vertical,"(390.0, 762.0)",0.9,0.527,1,5139.983,1
0,153,target,"[(1039, 814)]",[],[1],[0.5166666666666666],vertical,"(390.0, 262.0)",0.95,0.476,1,5144.883,2
0,154,target,"[(1054, 813)]",[],[1],[],vertical,"(890.0, 762.0)",,"('cti', 1.551)",0,5150.284,0
0,155,catch,"[(1046, 810)]",[],[1],[],horizontal,"(890.0, 762.0)",1.3333333333333333,nan,1,5155.271,1
0,156,target,"[(1076, 824)]",[],[1],[0.7166666666666667],horizontal,"(890.0, 262.0)",0.5666666666666667,0.668,1,5159.984,1
0,157,target,"[(1042, 818)]",[],[1],[0.7],horizontal,"(890.0, 262.0)",0.7166666666666667,0.652,1,5164.95,1
0,158,target,"[(1064, 830)]",[],[1],[0.6833333333333333],horizontal,"(890.0, 762.0)",0.9166666666666666,0.635,1,5169.818,2
0,159,target,"[(1057, 828)]",[],[1],[],vertical,"(890.0, 262.0)",,"('cti', 1.35)",0,5175.343,0
0,160,catch,"[(1061, 836)]",[],[1],[],horizontal,"(890.0, 762.0)",1.1333333333333333,nan,1,5180.132,1
0,161,target,"[(1058, 832)]",[],[1],[0.5333333333333333],horizontal,"(890.0, 762.0)",0.7,0.496,1,5184.938,1
0,162,target,"[(1034, 815)]",[],[1],[0.6],horizontal,"(890.0, 262.0)",0.6833333333333333,0.559,1,5189.633,1
0,163,target,"[(1046, 828)]",[],[1],[0.36666666666666664],vertical,"(390.0, 262.0)",1.4333333333333333,0.327,1,5194.738,2
0,164,target,"[(1062, 828)]",[],[1],[],horizontal,"(390.0, 262.0)",,"('cti', 1.576)",0,5200.101,0
0,165,target,"[(1037, 823)]",[],[1],[0.8333333333333334],horizontal,"(890.0, 762.0)",1.1166666666666667,0.779,1,5204.771,1
0,166,target,"[(1029, 826)]",[],[1],[],horizontal,"(390.0, 762.0)",,"('cti', 1.347)",0,5211.399,0
0,167,target,"[(1037, 839)]",[],[1],[0.36666666666666664],horizontal,"(390.0, 762.0)",1.5,0.325,1,5216.267,1
0,168,target,"[(1032, 828)]",[],[1],[0.5666666666666667],horizontal,"(890.0, 262.0)",1.1,0.527,1,5221.417,1
0,169,target,"[(1061, 842)]",[],[1],[0.31666666666666665],vertical,"(390.0, 762.0)",1.3,0.278,1,5226.668,1
0,170,target,"[(1061, 824)]",[],[1],[0.4],horizontal,"(390.0, 762.0)",0.95,0.358,1,5231.733,2
0,171,target,"[(1057, 817)]",[],[1],[0.7],vertical,"(390.0, 762.0)",0.9166666666666666,0.654,1,5237.305,1
0,172,target,"[(1059, 799)]",[],[1],[],vertical,"(390.0, 762.0)",,"('cti', 1.552)",0,5242.282,0
0,173,target,"[(1080, 838)]",[],[1],[0.35],horizontal,"(390.0, 262.0)",1.4,0.314,1,5246.873,1
0,174,catch,"[(1050, 806)]",[],[1],[],vertical,"(390.0, 762.0)",1.6666666666666667,"('cti', 1.665),nan",1,5252.399,1
0,175,target,"[(1061, 829)]",[],[1],[0.43333333333333335],vertical,"(890.0, 262.0)",1.1666666666666667,0.388,1,5257.969,1
0,176,catch,"[(1053, 831)]",[],[1],[],horizontal,"(890.0, 762.0)",1.05,nan,1,5263.349,2
0,177,target,"[(1061, 837)]",[],[1],[1.35],vertical,"(390.0, 262.0)",0.6,1.293,0,5268.635,0
0,178,target,"[(1037, 811)]",[],[1],[0.5833333333333334],vertical,"(890.0, 762.0)",0.55,0.539,1,5273.634,1
0,179,target,"[(1056, 822)]",[],[1],[0.5333333333333333],horizontal,"(390.0, 262.0)",0.8333333333333334,0.495,1,5278.057,1
0,180,target,"[(1042, 810)]",[],[1],[0.5666666666666667],horizontal,"(890.0, 262.0)",0.7166666666666667,0.528,1,5283.232,1
0,181,target,"[(1038, 813)]",[],[1],[0.6333333333333333],vertical,"(390.0, 762.0)",0.6833333333333333,0.591,1,5288.052,2
0,182,target,"[(1062, 823)]",[],[1],[0.4666666666666667],vertical,"(890.0, 762.0)",1.1,0.427,1,5292.973,1
0,183,target,"[(1074, 811)]",[],[1],[0.65],horizontal,"(890.0, 762.0)",0.9333333333333333,0.601,1,5298.287,1
0,184,catch,"[(1051, 823)]",[],[1],[],vertical,"(890.0, 262.0)",,"('cti', 1.589),nan",1,5303.369,1
0,185,target,"[(1057, 813)]",[],[1],[0.6],vertical,"(890.0, 762.0)",0.8333333333333334,0.56,1,5308.316,2
0,186,target,"[(1073, 809)]",[],[1],[0.6833333333333333],horizontal,"(390.0, 762.0)",1.1166666666666667,0.644,1,5313.945,1
0,187,target,"[(1033, 819)]",[],[1],[0.3833333333333333],horizontal,"(390.0, 262.0)",1.2,0.343,1,5319.066,1
0,188,target,"[(1088, 851)]",[],[1],[0.6166666666666667],vertical,"(890.0, 762.0)",0.5166666666666666,0.574,1,5324.548,1
0,189,target,"[(1057, 816)]",[],[1],[0.5833333333333334],horizontal,"(390.0, 262.0)",1.3666666666666667,0.543,1,5329.634,2
0,190,target,"[(1038, 812)]",[],[1],[],vertical,"(890.0, 762.0)",,"('cti', 1.078)",0,5335.255,0
0,191,target,"[(1026, 851)]",[],[1],[0.6833333333333333],horizontal,"(890.0, 262.0)",0.7166666666666667,0.634,1,5339.12,1
0,192,target,"[(1057, 840)]",[],[1],[],vertical,"(890.0, 262.0)",,"('cti', 1.567)",0,5346.65,0
0,193,target,"[(1053, 828)]",[],[1],[0.1],horizontal,"(890.0, 762.0)",1.5833333333333333,0.066,0,5351.384,0
0,194,target,"[(1056, 829)]",[],[1],[],horizontal,"(390.0, 762.0)",,"('cti', 1.503)",0,5356.213,0
0,195,target,"[(1064, 828)]",[],[1],[0.3],horizontal,"(390.0, 762.0)",1.35,0.269,1,5361.047,1
0,196,target,"[(1029, 800)]",[],[1],[0.6666666666666666],horizontal,"(390.0, 262.0)",0.8333333333333334,0.632,1,5366.247,1
0,197,target,"[(1055, 813)]",[],[1],[0.3833333333333333],vertical,"(390.0, 262.0)",1.2666666666666666,0.346,1,5371.138,1
0,198,target,"[(1057, 829)]",[],[1],[0.6333333333333333],vertical,"(390.0, 762.0)",0.5833333333333334,0.593,1,5376.733,2
0,199,target,"[(1076, 818)]",[],[1],[0.6333333333333333],vertical,"(890.0, 262.0)",0.9166666666666666,0.591,1,5381.934,1
0,200,target,"[(1054, 815)]",[],[1],[0.4166666666666667],horizontal,"(390.0, 262.0)",1.5833333333333333,0.383,1,5387.237,1
0,201,target,"[(1029, 842)]",[],[1],[],horizontal,"(890.0, 762.0)",,"('cti', 1.101)",0,5392.418,0
0,202,target,"[(1033, 833)]",[],[1],[0.7],horizontal,"(390.0, 762.0)",1.2333333333333334,0.656,1,5399.768,1
0,203,target,"[(1038, 817)]",[],[1],[0.7],horizontal,"(390.0, 262.0)",0.8333333333333334,0.658,1,5404.806,1
0,204,target,"[(1057, 850)]",[],[1],[0.5666666666666667],vertical,"(390.0, 262.0)",1.4,0.52,1,5409.884,1
0,205,target,"[(1058, 808)]",[],[1],[0.7],vertical,"(390.0, 262.0)",0.8833333333333333,0.658,1,5415.783,2
0,206,target,"[(1057, 810)]",[],[1],[0.48333333333333334],vertical,"(390.0, 262.0)",1.25,0.44,1,5421.163,1
0,207,target,"[(1033, 820)]",[],[1],[],vertical,"(890.0, 762.0)",,"('cti', 1.548)",0,5426.238,0
0,208,target,"[(1057, 820)]",[],[1],[0.6833333333333333],vertical,"(890.0, 762.0)",0.5333333333333333,0.642,1,5431.135,1
0,209,target,"[(1063, 812)]",[],[1],[4.716666666666667],horizontal,"(390.0, 762.0)",1.55,"('cti', 1.55),4.598",0,5435.784,0
0,210,target,"[(1032, 846)]",[],[1],[0.3833333333333333],horizontal,"(390.0, 762.0)",1.2333333333333334,0.345,1,5444.917,1
0,211,target,"[(1038, 813)]",[],[1],[0.5833333333333334],vertical,"(890.0, 262.0)",0.7666666666666666,0.542,1,5450.153,1
0,212,target,"[(1059, 828)]",[],[1],[0.4666666666666667],horizontal,"(390.0, 262.0)",1.25,0.434,1,5455.286,1
0,213,target,"[(1061, 816)]",[],[1],[0.6],horizontal,"(890.0, 262.0)",0.7833333333333333,0.571,1,5460.087,2
0,214,catch,"[(1056, 847)]",[],[1],[],vertical,"(390.0, 262.0)",1.2833333333333332,nan,1,5465.185,1
0,215,target,"[(1068, 832)]",[],[1],[0.21666666666666667],horizontal,"(390.0, 762.0)",1.6166666666666667,0.186,1,5470.486,1
0,216,target,"[(1052, 841)]",[],[1],[0.1],vertical,"(390.0, 262.0)",1.5333333333333332,0.069,0,5475.562,0
0,217,target,"[(1059, 836)]",[],[1],[0.5666666666666667],horizontal,"(390.0, 262.0)",0.6833333333333333,0.522,1,5480.357,1
0,218,target,"[(1038, 849)]",[],[1],[0.5666666666666667],vertical,"(890.0, 262.0)",0.7333333333333333,0.522,1,5485.156,1
0,219,target,"[(1033, 848)]",[],[1],[0.4666666666666667],horizontal,"(390.0, 762.0)",0.8333333333333334,0.429,1,5490.407,1
0,220,target,"[(1041, 852)]",[],[1],[0.7],vertical,"(890.0, 762.0)",0.8333333333333334,0.658,1,5497.46,2
0,221,target,"[(1045, 823)]",[],[1],[0.5166666666666666],vertical,"(390.0, 262.0)",1.4166666666666667,0.477,1,5503.254,1
0,222,catch,"[(1053, 823)]",[],[1],[],vertical,"(890.0, 762.0)",1.3333333333333333,nan,1,5508.457,1
0,223,target,"[(1053, 820)]",[],[1],[0.5833333333333334],horizontal,"(890.0, 762.0)",0.7833333333333333,0.542,1,5513.334,1
0,224,target,"[(1033, 812)]",[],[1],[0.55],horizontal,"(890.0, 762.0)",0.9166666666666666,0.504,1,5518.585,2
0,225,target,"[(1049, 805)]",[],[1],[0.23333333333333334],horizontal,"(890.0, 262.0)",1.45,0.2,1,5524.169,1
0,226,target,"[(1065, 829)]",[],[1],[0.3333333333333333],horizontal,"(890.0, 762.0)",1.2,0.293,1,5529.462,1
0,227,target,"[(1037, 812)]",[],[1],[0.6333333333333333],horizontal,"(890.0, 262.0)",0.6166666666666667,0.602,1,5534.585,1
0,228,target,"[(1038, 809)]",[],[1],[0.5333333333333333],vertical,"(390.0, 262.0)",1.1833333333333333,0.49,1,5539.586,2
0,229,target,"[(1061, 825)]",[],[1],[0.4],horizontal,"(390.0, 762.0)",1.6666666666666667,0.36,1,5545.519,1
0,230,target,"[(1057, 825)]",[],[1],[0.4],vertical,"(390.0, 262.0)",1.4833333333333334,0.363,1,5550.935,1
0,231,catch,"[(1057, 838)]",[],[1],[],horizontal,"(390.0, 262.0)",1.3666666666666667,nan,1,5556.784,1
0,232,target,"[(1061, 822)]",[],[1],[0.16666666666666666],vertical,"(890.0, 762.0)",1.45,0.134,1,5561.868,2
0,233,target,"[(1057, 820)]",[],[1],[0.6166666666666667],vertical,"(890.0, 262.0)",0.5333333333333333,0.574,1,5567.936,1
0,234,target,"[(1049, 822)]",[],[1],[0.36666666666666664],vertical,"(890.0, 762.0)",1.2666666666666666,0.331,1,5572.844,1
0,235,catch,"[(1047, 817)]",[],[1],[],horizontal,"(390.0, 262.0)",1.4166666666666667,nan,1,5577.959,1
0,236,target,"[(1045, 823)]",[],[1],[0.65],horizontal,"(890.0, 262.0)",0.8,0.606,1,5583.053,2
0,237,target,"[(1061, 817)]",[],[1],[0.6333333333333333],horizontal,"(390.0, 262.0)",0.7,0.591,1,5588.386,1
0,238,target,"[(1061, 835)]",[],[1],[],horizontal,"(890.0, 762.0)",,"('cti', 1.307)",0,5593.551,0
0,239,target,"[(1037, 816)]",[],[1],[0.55],vertical,"(390.0, 762.0)",1.35,0.513,1,5598.374,1
0,240,target,"[(1049, 833)]",[],[1],[0.5833333333333334],vertical,"(890.0, 262.0)",1.1666666666666667,0.544,1,5603.277,1
0,241,target,"[(1034, 807)]",[],[1],[0.8833333333333333],vertical,"(390.0, 762.0)",0.5666666666666667,0.84,0,5608.349,0
0,242,target,"[(1054, 818)]",[],[1],[0.6],horizontal,"(890.0, 262.0)",1.1333333333333333,0.555,1,5613.085,1
0,243,target,"[(1042, 833)]",[],[1],[0.5833333333333334],vertical,"(890.0, 762.0)",0.95,0.543,1,5617.986,1
0,244,target,"[(1028, 816)]",[],[1],[0.23333333333333334],horizontal,"(890.0, 762.0)",1.4833333333333334,0.196,1,5623.22,1
0,245,target,"[(1044, 823)]",[],[1],[0.5833333333333334],horizontal,"(390.0, 262.0)",1.15,0.539,1,5628.23,2
0,246,target,"[(1057, 819)]",[],[1],[0.4166666666666667],horizontal,"(890.0, 262.0)",1.6,0.383,1,5634.186,1
0,247,target,"[(1025, 816)]",[],[1],[0.6166666666666667],horizontal,"(890.0, 262.0)",1.3,0.584,1,5639.603,1
0,248,target,"[(1061, 820)]",[],[1],[0.15],vertical,"(890.0, 262.0)",1.5166666666666666,0.121,1,5645.623,1
0,249,catch,"[(1044, 819)]",[],[1],[],vertical,"(390.0, 762.0)",1.2,nan,1,5650.969,2
0,250,target,"[(1049, 822)]",[],[1],[],horizontal,"(390.0, 762.0)",,"('cti', 1.569)",0,5656.036,0
0,251,target,"[(1053, 827)]",[],[1],[0.65],horizontal,"(890.0, 762.0)",0.7166666666666667,0.609,1,5661.002,1
0,252,target,"[(1047, 820)]",[],[1],[1.1],horizontal,"(890.0, 762.0)",0.5,1.05,0,5666.201,0
0,253,target,"[(1049, 811)]",[],[1],[0.6],horizontal,"(890.0, 762.0)",0.6833333333333333,0.554,1,5670.852,1
0,254,target,"[(1041, 816)]",[],[1],[0.4166666666666667],vertical,"(390.0, 262.0)",1.45,0.378,1,5675.553,1
0,255,target,"[(1049, 822)]",[],[1],[0.11666666666666667],horizontal,"(390.0, 762.0)",1.6833333333333333,0.086,0,5680.719,0
0,256,target,"[(1057, 832)]",[],[1],[0.5833333333333334],vertical,"(390.0, 262.0)",0.7166666666666667,0.541,1,5685.443,1
0,257,target,"[(1026, 836)]",[],[1],[0.5666666666666667],horizontal,"(890.0, 262.0)",0.7333333333333333,0.525,1,5689.859,1
0,258,target,"[(1061, 817)]",[],[1],[0.5833333333333334],vertical,"(890.0, 762.0)",1.3666666666666667,0.541,1,5697.286,1
0,259,target,"[(1019, 845)]",[],[1],[],vertical,"(390.0, 762.0)",,"('cti', 0.603)",0,5702.653,0
0,260,target,"[(1054, 827)]",[],[1],[1.2333333333333334],vertical,"(390.0, 762.0)",0.5666666666666667,1.176,0,5706.92,0
0,261,target,"[(1034, 842)]",[],[1],[0.2],horizontal,"(390.0, 762.0)",1.5666666666666667,0.164,1,5711.684,1
0,262,target,"[(1026, 831)]",[],[1],[0.45],vertical,"(890.0, 762.0)",1.2333333333333334,0.412,1,5717.11,1
0,263,target,"[(1048, 828)]",[],[1],[1.3666666666666667],vertical,"(390.0, 762.0)",0.7,1.307,0,5722.246,0
0,264,target,"[(1052, 821)]",[],[1],[0.4],vertical,"(390.0, 762.0)",1.6333333333333333,0.36,1,5727.435,1
0,265,target,"[(1035, 806)]",[],[1],[0.7833333333333333],horizontal,"(390.0, 762.0)",0.6,0.739,1,5732.669,1
0,266,catch,"[(1035, 813)]",[],[1],[],vertical,"(890.0, 762.0)",1.1333333333333333,nan,1,5737.504,1
0,267,target,"[(1057, 836)]",[],[1],[0.35],vertical,"(390.0, 262.0)",1.4,0.308,1,5742.585,2
0,268,target,"[(1065, 811)]",[],[1],[0.6333333333333333],horizontal,"(390.0, 762.0)",0.8333333333333334,0.595,1,5748.853,1
0,269,target,"[(1025, 825)]",[],[1],[0.23333333333333334],vertical,"(390.0, 762.0)",1.65,0.2,1,5753.853,1
0,270,target,"[(1057, 817)]",[],[1],[1.1333333333333333],horizontal,"(390.0, 762.0)",0.5333333333333333,1.078,0,5759.326,0
0,271,target,"[(1061, 816)]",[],[1],[0.6333333333333333],horizontal,"(390.0, 262.0)",1.1666666666666667,0.589,1,5764.386,1
0,272,target,"[(1033, 879)]",[],[1],[0.26666666666666666],horizontal,"(890.0, 762.0)",1.5166666666666666,0.235,1,5769.17,1
0,273,target,"[(1041, 852)]",[],[1],[0.65],horizontal,"(390.0, 262.0)",0.5833333333333334,0.608,1,6071.783,1
0,274,target,"[(1065, 828)]",[],[1],[0.6666666666666666],vertical,"(890.0, 262.0)",0.8,0.623,1,6077.403,2
0,275,target,"[(1046, 831)]",[],[1],[0.5166666666666666],vertical,"(390.0, 762.0)",1.4666666666666666,0.483,1,6082.975,1
0,276,catch,"[(1038, 825)]",[],[1],[],horizontal,"(890.0, 262.0)",1.5,nan,1,6088.37,1
0,277,target,"[(1069, 825)]",[],[1],[0.23333333333333334],vertical,"(890.0, 262.0)",1.2,0.198,1,6093.87,1
0,278,target,"[(1054, 837)]",[],[1],[0.6333333333333333],vertical,"(390.0, 262.0)",0.8,0.591,1,6099.071,2
0,279,target,"[(1074, 832)]",[],[1],[0.6333333333333333],vertical,"(390.0, 762.0)",1.5833333333333333,0.584,1,6104.737,1
0,280,target,"[(1036, 828)]",[],[1],[0.2],vertical,"(890.0, 262.0)",1.2166666666666666,0.168,1,6110.094,1
0,281,catch,"[(1040, 817)]",[],[1],[],vertical,"(890.0, 262.0)",1.2333333333333334,nan,1,6115.184,1
0,282,target,"[(1017, 861)]",[],[1],[0.5],horizontal,"(890.0, 262.0)",0.85,0.465,1,6120.021,2
0,283,target,"[(1071, 828)]",[],[1],[0.5833333333333334],horizontal,"(890.0, 262.0)",1.3,0.541,1,6126.62,1
0,284,catch,"[(1038, 824)]",[],[1],[],vertical,"(390.0, 262.0)",1.2166666666666666,nan,1,6131.823,1
0,285,target,"[(1056, 812)]",[],[1],[0.5833333333333334],vertical,"(390.0, 262.0)",0.5,0.545,1,6136.92,1
0,286,target,"[(1052, 824)]",[],[1],[0.5666666666666667],horizontal,"(390.0, 762.0)",0.9666666666666667,0.527,1,6141.5,2
0,287,target,"[(1039, 818)]",[],[1],[0.55],horizontal,"(890.0, 262.0)",0.75,0.509,1,6146.904,1
0,288,target,"[(1057, 823)]",[],[1],[0.5],horizontal,"(890.0, 762.0)",0.6833333333333333,0.458,1,6151.705,1
0,289,target,"[(1062, 822)]",[],[1],[0.06666666666666667],horizontal,"(390.0, 762.0)",1.35,0.036,0,6156.77,0
0,290,target,"[(1029, 815)]",[],[1],[0.05],vertical,"(390.0, 762.0)",1.6333333333333333,0.02,0,6161.425,0
0,291,target,"[(1038, 824)]",[],[1],[0.7333333333333333],vertical,"(390.0, 762.0)",0.7833333333333333,0.694,1,6167.086,1
0,292,target,"[(1057, 829)]",[],[1],[0.7166666666666667],vertical,"(890.0, 262.0)",1.25,0.674,1,6172.187,1
0,293,target,"[(1025, 820)]",[],[1],[0.8666666666666667],vertical,"(890.0, 762.0)",0.7833333333333333,0.822,0,6177.23,0
0,294,target,"[(1032, 834)]",[],[1],[0.55],horizontal,"(890.0, 762.0)",0.5833333333333334,0.508,1,6181.754,1
0,295,target,"[(1057, 850)]",[],[1],[0.5],vertical,"(890.0, 262.0)",0.9666666666666667,0.464,1,6208.43,1
0,296,target,"[(1032, 846)]",[],[1],[0.4166666666666667],vertical,"(390.0, 262.0)",1.1166666666666667,0.376,1,6213.53,1
0,297,target,"[(1030, 842)]",[],[1],[0.6666666666666666],horizontal,"(890.0, 762.0)",1.4666666666666666,0.617,1,6219.754,2
0,298,target,"[(1059, 821)]",[],[1],[0.6166666666666667],vertical,"(390.0, 762.0)",0.9666666666666667,0.575,1,6226.454,1
0,299,target,"[(1057, 811)]",[],[1],[0.06666666666666667],vertical,"(390.0, 762.0)",1.5333333333333332,0.036,0,6231.879,0
0,300,target,"[(1061, 812)]",[],[1],[0.6833333333333333],horizontal,"(390.0, 262.0)",0.7166666666666667,0.634,1,6236.639,1
0,301,target,"[(1033, 796)]",[],[1],[0.3833333333333333],horizontal,"(390.0, 262.0)",1.4333333333333333,0.344,1,6241.752,1
0,302,target,"[(1034, 811)]",[],[1],[0.48333333333333334],vertical,"(390.0, 762.0)",1.4166666666666667,0.447,1,6247.2,1
0,303,target,"[(1054, 842)]",[],[1],[0.5666666666666667],vertical,"(890.0, 262.0)",1.0333333333333332,0.522,1,6252.805,2
0,304,catch,"[(1044, 787)]",[],[1],[],horizontal,"(890.0, 262.0)",1.4833333333333334,nan,1,6258.558,1
0,305,target,"[(1033, 816)]",[],[1],[0.2],horizontal,"(890.0, 262.0)",1.45,0.167,1,6263.288,1
0,306,catch,"[(1038, 826)]",[],[1],[],horizontal,"(390.0, 762.0)",1.4833333333333334,nan,1,6268.988,1
0,307,target,"[(1041, 795)]",[],[1],[0.5333333333333333],horizontal,"(890.0, 262.0)",0.8333333333333334,0.489,1,6273.721,2
0,308,target,"[(1057, 826)]",[],[1],[0.6166666666666667],vertical,"(390.0, 762.0)",1.05,0.573,1,6278.938,1
0,309,target,"[(1051, 818)]",[],[1],[0.8666666666666667],vertical,"(890.0, 262.0)",0.6333333333333333,0.818,0,6283.684,0
0,310,target,"[(1053, 832)]",[],[1],[0.65],horizontal,"(890.0, 762.0)",0.7166666666666667,0.604,1,6287.988,1
0,311,target,"[(1052, 816)]",[],[1],[0.4666666666666667],horizontal,"(890.0, 762.0)",1.1666666666666667,0.423,1,6293.388,1
0,312,target,"[(1029, 812)]",[],[1],[0.75],vertical,"(390.0, 762.0)",0.6666666666666666,0.7,1,6298.371,1
0,313,target,"[(1037, 828)]",[],[1],[0.55],vertical,"(890.0, 262.0)",1.3,0.505,1,6303.159,2
0,314,catch,"[(1076, 832)]",[],[1],[],vertical,"(390.0, 262.0)",1.0833333333333333,nan,1,6308.921,1
0,315,target,"[(1042, 804)]",[],[1],[0.7],horizontal,"(390.0, 762.0)",1.0666666666666667,0.647,1,6313.737,1
0,316,target,"[(1033, 812)]",[],[1],[0.7833333333333333],vertical,"(890.0, 262.0)",1.25,0.731,1,6318.827,1
0,317,target,"[(1062, 800)]",[],[1],[0.2],vertical,"(390.0, 262.0)",1.3833333333333333,0.167,1,6324.254,2
0,318,target,"[(1058, 810)]",[],[1],[0.43333333333333335],horizontal,"(390.0, 762.0)",1.4833333333333334,0.397,1,6329.738,1
0,319,target,"[(1056, 806)]",[],[1],[0.6166666666666667],vertical,"(890.0, 262.0)",0.7166666666666667,0.576,1,6335.539,1
0,320,target,"[(1055, 823)]",[],[1],[1.05],vertical,"(390.0, 762.0)",0.5666666666666667,1.0,0,6340.454,0
0,321,target,"[(1068, 823)]",[],[1],[0.5666666666666667],horizontal,"(390.0, 262.0)",0.6,0.534,1,6345.117,1
0,322,target,"[(1031, 815)]",[],[1],[0.6666666666666666],vertical,"(390.0, 262.0)",0.65,0.622,1,6349.533,1
0,323,target,"[(1065, 827)]",[],[1],[0.7],vertical,"(390.0, 762.0)",0.9333333333333333,0.66,1,6355.143,1
0,324,target,"[(1033, 813)]",[],[1],[0.5166666666666666],vertical,"(890.0, 262.0)",0.7333333333333333,0.473,1,6360.45,2
0,325,target,"[(1033, 804)]",[],[1],[1.4166666666666667],vertical,"(390.0, 762.0)",0.5166666666666666,1.362,0,6365.307,0
0,326,target,"[(1033, 813)]",[],[1],[1.6333333333333333],horizontal,"(890.0, 762.0)",0.95,1.567,0,6370.568,0
0,327,target,"[(1038, 833)]",[],[1],[0.55],vertical,"(890.0, 262.0)",1.3333333333333333,0.509,1,6376.094,1
0,328,target,"[(1066, 821)]",[],[1],[],horizontal,"(390.0, 262.0)",,"('cti', 1.566)",0,6381.539,0
0,329,target,"[(1025, 845)]",[],[1],[0.5333333333333333],horizontal,"(890.0, 262.0)",0.75,0.491,1,6386.191,1
0,330,catch,"[(1027, 833)]",[],[1],[],vertical,"(390.0, 762.0)",1.25,nan,1,6391.047,1
0,331,target,"[(1036, 795)]",[],[1],[0.23333333333333334],vertical,"(890.0, 262.0)",1.1,0.199,1,6396.244,1
0,332,target,"[(1062, 833)]",[],[1],[0.06666666666666667],horizontal,"(390.0, 762.0)",1.6,0.036,0,6401.305,0
0,333,target,"[(1061, 832)]",[],[1],[0.5333333333333333],horizontal,"(890.0, 262.0)",1.4166666666666667,0.491,1,6405.896,1
0,334,catch,"[(1039, 808)]",[],[1],[],vertical,"(890.0, 262.0)",1.2666666666666666,nan,1,6411.513,1
0,335,target,"[(1061, 819)]",[],[1],[0.2833333333333333],horizontal,"(890.0, 262.0)",1.4333333333333333,0.251,1,6416.539,1
0,336,catch,"[(1061, 818)]",[],[1],[],horizontal,"(390.0, 262.0)",1.3166666666666667,nan,1,6422.024,2
0,337,target,"[(1062, 814)]",[],[1],[0.6333333333333333],vertical,"(890.0, 762.0)",0.8166666666666667,0.588,1,6426.822,1
0,338,catch,"[(1067, 856)]",[],[1],[],vertical,"(390.0, 762.0)",1.55,nan,1,6431.449,1
0,339,target,"[(1053, 829)]",[],[1],[0.5333333333333333],vertical,"(390.0, 262.0)",1.1,0.494,1,6471.281,1
0,340,target,"[(1037, 818)]",[],[1],[0.1],horizontal,"(890.0, 762.0)",1.65,0.066,0,6476.86,0
0,341,target,"[(1062, 813)]",[],[1],[0.5],vertical,"(890.0, 262.0)",0.7333333333333333,0.458,1,6481.272,1
0,342,target,"[(1029, 828)]",[],[1],[0.2],horizontal,"(890.0, 762.0)",1.3833333333333333,0.171,1,6485.983,1
0,343,catch,"[(1035, 815)]",[],[1],[],horizontal,"(890.0, 762.0)",1.3166666666666667,nan,1,6491.634,1
0,344,catch,"[(1016, 837)]",[],[1],[],vertical,"(890.0, 262.0)",1.25,nan,1,6496.306,2
0,345,target,"[(1025, 825)]",[],[1],[0.13333333333333333],horizontal,"(890.0, 762.0)",1.6166666666666667,0.102,1,6501.643,1
0,346,target,"[(1025, 833)]",[],[1],[0.43333333333333335],horizontal,"(890.0, 262.0)",1.3833333333333333,0.397,1,6506.772,1
0,347,target,"[(1028, 842)]",[],[1],[0.5333333333333333],vertical,"(390.0, 262.0)",0.75,0.487,1,6511.965,1
0,348,target,"[(1040, 834)]",[],[1],[0.5833333333333334],vertical,"(390.0, 262.0)",1.0,0.547,1,6516.858,2
0,349,target,"[(1035, 828)]",[],[1],[0.5833333333333334],vertical,"(890.0, 762.0)",0.9833333333333333,0.538,1,6522.184,1
0,350,target,"[(1058, 822)]",[],[1],[0.26666666666666666],vertical,"(390.0, 262.0)",1.5,0.233,1,6526.977,1
0,351,target,"[(1065, 824)]",[],[1],[0.31666666666666665],horizontal,"(890.0, 262.0)",1.6166666666666667,0.281,1,6532.522,1
0,352,target,"[(1061, 848)]",[],[1],[0.16666666666666666],vertical,"(890.0, 762.0)",1.3166666666666667,0.136,1,6537.848,2
0,353,target,"[(1065, 838)]",[],[1],[0.5833333333333334],vertical,"(390.0, 762.0)",1.15,0.546,1,6543.29,1
0,354,target,"[(1061, 817)]",[],[1],[0.6166666666666667],vertical,"(390.0, 262.0)",0.6333333333333333,0.574,1,6548.7,1
0,355,catch,"[(1058, 830)]",[],[1],[],vertical,"(390.0, 262.0)",1.0,nan,1,6553.488,1
0,356,target,"[(1057, 839)]",[],[1],[0.5333333333333333],vertical,"(390.0, 262.0)",0.95,0.489,1,6557.924,2
0,357,catch,"[(1072, 832)]",[],[1],[],vertical,"(390.0, 262.0)",,"('cti', 1.413),nan",1,6563.79,1
0,358,target,"[(1059, 808)]",[],[1],[0.7833333333333333],vertical,"(890.0, 762.0)",0.5666666666666667,0.74,1,6569.039,1
0,359,target,"[(1033, 829)]",[],[1],[0.5333333333333333],horizontal,"(390.0, 262.0)",1.4,0.489,1,6573.807,1
0,360,target,"[(1030, 821)]",[],[1],[0.5],vertical,"(390.0, 262.0)",0.8833333333333333,0.459,1,6579.056,2
0,361,target,"[(1063, 779)]",[],[1],[0.6333333333333333],vertical,"(390.0, 762.0)",1.5166666666666666,0.594,1,6584.806,1
0,362,target,"[(1056, 833)]",[],[1],[0.5833333333333334],horizontal,"(890.0, 762.0)",0.8666666666666667,0.547,1,6590.002,1
0,363,catch,"[(1057, 828)]",[],[1],[],horizontal,"(890.0, 762.0)",,"('cti', 1.642),nan",1,6595.414,1
0,364,target,"[(1065, 828)]",[],[1],[0.5166666666666666],vertical,"(890.0, 262.0)",1.45,0.478,1,6600.456,2
0,365,catch,"[(1065, 828)]",[],[1],[],vertical,"(890.0, 262.0)",1.4666666666666666,nan,1,6606.351,1
0,366,target,"[(1057, 825)]",[],[1],[0.5166666666666666],vertical,"(890.0, 762.0)",1.1166666666666667,0.481,1,6611.162,1
0,367,target,"[(1065, 828)]",[],[1],[0.7],vertical,"(890.0, 262.0)",0.7166666666666667,0.657,1,6616.489,1
0,368,target,"[(1040, 828)]",[],[1],[16.2],horizontal,"(390.0, 262.0)",1.65,"('cti', 1.645),15.961",0,6621.607,0
0,369,target,"[(1022, 834)]",[],[1],[0.55],horizontal,"(890.0, 762.0)",0.8666666666666667,0.51,1,6642.24,1
0,370,target,"[(1033, 842)]",[],[1],[],vertical,"(390.0, 262.0)",,"('cti', 1.314)",0,6647.406,0
0,371,target,"[(1022, 834)]",[],[1],[0.55],horizontal,"(390.0, 762.0)",1.0333333333333332,0.515,1,6652.224,1
0,372,target,"[(1033, 849)]",[],[1],[0.6833333333333333],horizontal,"(390.0, 762.0)",0.9,0.636,1,6657.446,1
0,373,target,"[(1033, 829)]",[],[1],[0.5],vertical,"(390.0, 762.0)",1.0166666666666666,0.468,1,6662.656,1
0,374,target,"[(1065, 834)]",[],[1],[0.21666666666666667],vertical,"(890.0, 762.0)",1.2166666666666666,0.183,1,6667.926,2
0,375,target,"[(1025, 834)]",[],[1],[0.65],horizontal,"(890.0, 762.0)",0.9166666666666666,0.612,1,6673.71,1
0,376,target,"[(1026, 807)]",[],[1],[0.16666666666666666],horizontal,"(890.0, 262.0)",1.2,0.134,1,6678.754,1
0,377,target,"[(1057, 810)]",[],[1],[0.7166666666666667],vertical,"(390.0, 762.0)",0.8833333333333333,0.679,1,6684.312,1
0,378,target,"[(1070, 825)]",[],[1],[0.16666666666666666],vertical,"(390.0, 762.0)",1.3666666666666667,0.134,1,6689.67,2
0,379,target,"[(1056, 807)]",[],[1],[0.6333333333333333],horizontal,"(390.0, 762.0)",0.95,0.599,1,6695.245,1
0,380,target,"[(1057, 819)]",[],[1],[0.2],horizontal,"(390.0, 762.0)",1.3166666666666667,0.164,1,6700.299,1
0,381,target,"[(1059, 833)]",[],[1],[0.7],horizontal,"(390.0, 762.0)",0.9,0.668,1,6705.441,1
0,382,target,"[(1033, 816)]",[],[1],[1.1],horizontal,"(390.0, 762.0)",0.75,1.054,0,6710.49,0
0,383,target,"[(1069, 817)]",[],[1],[0.65],vertical,"(390.0, 262.0)",1.2333333333333334,0.614,1,6715.271,1
0,384,catch,"[(1070, 823)]",[],[1],[],vertical,"(390.0, 262.0)",1.4333333333333333,nan,1,6720.835,1
0,385,target,"[(1059, 812)]",[],[1],[0.1],vertical,"(890.0, 262.0)",1.55,0.072,0,6725.625,0
0,386,target,"[(1061, 813)]",[],[1],[0.5666666666666667],vertical,"(890.0, 262.0)",0.6833333333333333,0.533,1,6730.524,1
0,387,target,"[(1065, 813)]",[],[1],[0.7],vertical,"(890.0, 762.0)",0.8666666666666667,0.678,1,6735.374,1
0,388,catch,"[(1067, 830)]",[],[1],[],horizontal,"(390.0, 762.0)",1.3166666666666667,nan,1,6740.173,1
0,389,catch,"[(1057, 824)]",[],[1],[],horizontal,"(890.0, 762.0)",,"('cti', 1.411),nan",1,6744.631,2
0,390,target,"[(1061, 823)]",[],[1],[0.35],vertical,"(890.0, 262.0)",1.4166666666666667,0.31,1,6750.208,1
0,391,catch,"[(1057, 826)]",[],[1],[],horizontal,"(890.0, 762.0)",1.05,nan,1,6755.447,1
0,392,target,"[(1047, 809)]",[],[1],[0.6],horizontal,"(890.0, 762.0)",0.6166666666666667,0.558,1,6759.963,1
0,393,target,"[(1066, 804)]",[],[1],[0.6166666666666667],horizontal,"(390.0, 762.0)",1.0333333333333332,0.577,1,6765.124,2
0,394,catch,"[(1061, 800)]",[],[1],[],vertical,"(390.0, 762.0)",,"('cti', 1.514),nan",1,6770.608,1
0,395,target,"[(1066, 811)]",[],[1],[0.5333333333333333],horizontal,"(890.0, 262.0)",0.5833333333333334,0.487,1,6775.924,1
0,396,catch,"[(1059, 813)]",[],[1],[],vertical,"(390.0, 762.0)",1.3666666666666667,nan,1,6780.474,1
0,397,target,"[(1025, 821)]",[],[1],[1.0833333333333333],horizontal,"(890.0, 262.0)",0.7666666666666666,1.031,0,6785.568,0
0,398,target,"[(1062, 819)]",[],[1],[0.7333333333333333],vertical,"(390.0, 262.0)",0.5666666666666667,0.691,1,6790.358,1
0,399,target,"[(1025, 823)]",[],[1],[0.4666666666666667],horizontal,"(890.0, 762.0)",1.1166666666666667,0.427,1,6795.292,1
0,400,target,"[(1029, 814)]",[],[1],[0.5166666666666666],horizontal,"(890.0, 762.0)",0.9833333333333333,0.476,1,6800.841,1
0,401,target,"[(1036, 804)]",[],[1],[0.6166666666666667],vertical,"(890.0, 262.0)",1.65,0.569,1,6805.558,2
0,402,target,"[(1057, 843)]",[],[1],[0.4],vertical,"(390.0, 262.0)",1.4,0.361,1,6811.641,1
0,403,catch,"[(1057, 819)]",[],[1],[],vertical,"(890.0, 762.0)",1.3666666666666667,nan,1,6817.573,1
0,404,target,"[(1057, 826)]",[],[1],[0.48333333333333334],vertical,"(390.0, 262.0)",0.7166666666666667,0.439,1,6822.639,1
0,405,target,"[(1053, 824)]",[],[1],[0.8166666666666667],horizontal,"(890.0, 262.0)",0.5666666666666667,0.763,1,6827.707,2
0,406,catch,"[(1061, 816)]",[],[1],[],horizontal,"(390.0, 262.0)",1.55,nan,1,6833.084,1
0,407,target,"[(1055, 806)]",[],[1],[0.8333333333333334],vertical,"(390.0, 762.0)",0.5833333333333334,0.789,1,6838.13,1
0,408,target,"[(1061, 823)]",[],[1],[],vertical,"(890.0, 262.0)",,"('cti', 1.55)",0,6843.392,0
0,409,target,"[(1033, 851)]",[],[1],[0.5166666666666666],horizontal,"(890.0, 762.0)",0.6,0.477,1,6848.308,1
0,410,target,"[(1066, 809)]",[],[1],[],horizontal,"(390.0, 262.0)",,"('cti', 1.191)",0,6852.891,0
0,411,target,"[(1057, 823)]",[],[1],[0.6],horizontal,"(890.0, 762.0)",0.85,0.553,1,6857.472,1
0,412,target,"[(1068, 810)]",[],[1],[0.5833333333333334],vertical,"(390.0, 262.0)",0.9666666666666667,0.541,1,6862.424,1
0,413,target,"[(1027, 818)]",[],[1],[0.6833333333333333],horizontal,"(890.0, 762.0)",0.9,0.638,1,6867.592,1
0,414,target,"[(1060, 802)]",[],[1],[0.2],vertical,"(390.0, 262.0)",1.3833333333333333,0.163,1,6872.762,2
0,415,catch,"[(1065, 810)]",[],[1],[],horizontal,"(390.0, 262.0)",1.3833333333333333,nan,1,6878.407,1
0,416,target,"[(1066, 796)]",[],[1],[0.11666666666666667],horizontal,"(390.0, 262.0)",1.3333333333333333,0.082,0,6883.408,0
0,417,target,"[(1069, 818)]",[],[1],[0.4666666666666667],horizontal,"(890.0, 762.0)",1.2166666666666666,0.424,1,6888.108,1
0,418,target,"[(1061, 821)]",[],[1],[0.6833333333333333],horizontal,"(390.0, 762.0)",1.3833333333333333,0.645,1,6893.028,1
0,419,target,"[(1057, 821)]",[],[1],[0.6833333333333333],vertical,"(390.0, 762.0)",1.1166666666666667,0.634,1,6898.262,1
0,420,target,"[(1073, 826)]",[],[1],[0.36666666666666664],vertical,"(890.0, 762.0)",1.4833333333333334,0.328,1,6903.407,2
0,421,catch,"[(1065, 820)]",[],[1],[],vertical,"(390.0, 762.0)",1.3666666666666667,nan,1,6909.045,1
0,422,target,"[(1075, 837)]",[],[1],[1.2],vertical,"(390.0, 762.0)",0.5666666666666667,1.146,0,6914.059,0
0,423,target,"[(1059, 814)]",[],[1],[1.1333333333333333],vertical,"(890.0, 262.0)",0.5333333333333333,1.078,0,6918.756,0
0,424,target,"[(1061, 775)]",[],[1],[0.5333333333333333],horizontal,"(890.0, 762.0)",1.1333333333333333,0.487,1,6923.442,1
0,425,target,"[(1061, 818)]",[],[1],[0.5166666666666666],vertical,"(890.0, 262.0)",0.7833333333333333,0.473,1,6928.158,1
0,426,target,"[(1064, 822)]",[],[1],[0.23333333333333334],horizontal,"(390.0, 262.0)",1.3666666666666667,0.202,1,6933.192,1
0,427,target,"[(1065, 812)]",[],[1],[],vertical,"(390.0, 262.0)",,"('cti', 1.379)",0,6938.39,0
0,428,target,"[(1038, 813)]",[],[1],[0.36666666666666664],horizontal,"(390.0, 762.0)",1.3666666666666667,0.33,1,6943.107,1
0,429,target,"[(1039, 832)]",[],[1],[0.5833333333333334],vertical,"(890.0, 262.0)",1.4333333333333333,0.539,1,6948.744,1
0,430,target,"[(1065, 828)]",[],[1],[0.6333333333333333],vertical,"(390.0, 762.0)",0.95,0.595,1,6953.78,1
0,431,target,"[(1032, 857)]",[],[1],[0.26666666666666666],vertical,"(390.0, 262.0)",1.1166666666666667,0.235,1,6958.559,2
0,432,target,"[(1057, 855)]",[],[1],[0.5333333333333333],horizontal,"(390.0, 762.0)",0.5833333333333334,0.488,1,7008.108,1
0,433,target,"[(1065, 843)]",[],[1],[0.36666666666666664],horizontal,"(390.0, 762.0)",1.0,0.329,1,7013.107,1
0,434,target,"[(1037, 852)]",[],[1],[0.43333333333333335],vertical,"(390.0, 262.0)",1.4833333333333334,0.397,1,7018.244,1
0,435,catch,"[(1065, 833)]",[],[1],[],vertical,"(390.0, 262.0)",1.0166666666666666,nan,1,7023.608,2
0,436,target,"[(1065, 856)]",[],[1],[0.55],vertical,"(890.0, 262.0)",1.1,0.508,1,7028.859,1
0,437,catch,"[(1050, 819)]",[],[1],[],horizontal,"(890.0, 762.0)",1.6166666666666667,nan,1,7033.909,1
0,438,target,"[(1062, 825)]",[],[1],[0.3833333333333333],horizontal,"(890.0, 262.0)",0.9333333333333333,0.344,1,7039.075,1
0,439,target,"[(1053, 826)]",[],[1],[0.5333333333333333],vertical,"(890.0, 762.0)",1.0166666666666666,0.491,1,7044.081,2
0,440,target,"[(1072, 835)]",[],[1],[0.5166666666666666],horizontal,"(890.0, 262.0)",1.1833333333333333,0.478,1,7049.478,1
0,441,target,"[(1053, 814)]",[],[1],[0.11666666666666667],horizontal,"(890.0, 262.0)",1.6166666666666667,0.083,0,7054.509,0
0,442,target,"[(1062, 822)]",[],[1],[0.65],horizontal,"(390.0, 262.0)",0.8666666666666667,0.617,1,7059.281,1
0,443,target,"[(1045, 828)]",[],[1],[0.6166666666666667],vertical,"(890.0, 262.0)",0.5,0.579,1,7064.642,1
0,444,catch,"[(1039, 816)]",[],[1],[],horizontal,"(890.0, 262.0)",1.5166666666666666,nan,1,7069.541,1
0,445,target,"[(1054, 840)]",[],[1],[0.25],vertical,"(390.0, 762.0)",1.4,0.213,1,7074.669,2
0,446,target,"[(1054, 813)]",[],[1],[0.3],horizontal,"(890.0, 762.0)",1.25,0.267,1,7080.388,1
0,447,target,"[(1054, 834)]",[],[1],[0.5],vertical,"(890.0, 762.0)",1.2666666666666666,0.458,1,7085.708,1
0,448,target,"[(1012, 864)]",[],[1],[0.2],horizontal,"(890.0, 762.0)",1.6833333333333333,0.168,1,7090.958,1
0,449,target,"[(1034, 816)]",[],[1],[0.7166666666666667],horizontal,"(390.0, 262.0)",1.2333333333333334,0.672,1,7097.158,2
0,450,catch,"[(1033, 822)]",[],[1],[],vertical,"(890.0, 262.0)",1.5166666666666666,nan,1,7102.728,1
0,451,target,"[(1036, 830)]",[],[1],[0.6],horizontal,"(390.0, 762.0)",0.65,0.555,1,7107.893,1
0,452,target,"[(1071, 842)]",[],[1],[0.55],vertical,"(890.0, 762.0)",0.6833333333333333,0.511,1,7113.275,1
0,453,target,"[(1033, 823)]",[],[1],[0.5166666666666666],horizontal,"(390.0, 262.0)",0.55,0.477,1,7117.975,2
0,454,target,"[(1030, 812)]",[],[1],[0.6166666666666667],vertical,"(390.0, 762.0)",1.55,0.58,1,7122.779,1
0,455,target,"[(1022, 848)]",[],[1],[0.5],vertical,"(890.0, 262.0)",0.9166666666666666,0.461,1,7128.368,1
0,456,target,"[(1053, 818)]",[],[1],[0.05],vertical,"(390.0, 762.0)",1.5333333333333332,0.018,0,7133.608,0
0,457,catch,"[(1029, 804)]",[],[1],[],horizontal,"(390.0, 762.0)",1.25,nan,1,7138.343,1
0,458,catch,"[(1059, 818)]",[],[1],[],vertical,"(390.0, 762.0)",,"('cti', 1.421),nan",1,7142.882,1
0,459,catch,"[(1059, 829)]",[],[1],[],vertical,"(890.0, 762.0)",1.4833333333333334,nan,1,7148.209,1
0,460,target,"[(1036, 815)]",[],[1],[0.6166666666666667],horizontal,"(390.0, 762.0)",0.5,0.576,1,7153.219,2
0,461,target,"[(1048, 808)]",[],[1],[],horizontal,"(890.0, 762.0)",,"('cti', 1.502)",0,7157.941,0
0,462,catch,"[(1061, 806)]",[],[1],[],vertical,"(390.0, 262.0)",1.25,nan,1,7162.655,1
0,463,target,"[(1041, 836)]",[],[1],[0.7666666666666666],vertical,"(390.0, 262.0)",0.6666666666666666,0.723,1,7167.275,1
0,464,target,"[(1065, 818)]",[],[1],[0.5],horizontal,"(890.0, 262.0)",1.35,0.459,1,7172.688,1
0,465,target,"[(1029, 823)]",[],[1],[0.7833333333333333],vertical,"(390.0, 762.0)",0.6,0.74,1,7178.342,2
0,466,target,"[(1036, 806)]",[],[1],[0.75],vertical,"(390.0, 762.0)",0.9,0.706,1,7183.448,1
0,467,target,"[(1053, 836)]",[],[1],[0.6333333333333333],vertical,"(390.0, 262.0)",0.5833333333333334,0.591,1,7188.249,1
0,468,target,"[(1072, 804)]",[],[1],[0.9833333333333333],horizontal,"(390.0, 762.0)",0.8833333333333333,0.938,0,7193.25,0
0,469,target,"[(1033, 845)]",[],[1],[0.7166666666666667],horizontal,"(890.0, 262.0)",1.15,0.67,1,7197.977,1
0,470,target,"[(1035, 828)]",[],[1],[],vertical,"(890.0, 762.0)",,"('cti', 1.4)",0,7203.882,0
0,471,target,"[(1037, 840)]",[],[1],[0.5666666666666667],horizontal,"(890.0, 762.0)",0.8666666666666667,0.535,1,7208.52,1
0,472,target,"[(1033, 850)]",[],[1],[0.6166666666666667],horizontal,"(390.0, 762.0)",0.5666666666666667,0.585,1,7213.213,1
0,473,target,"[(1038, 823)]",[],[1],[0.7],vertical,"(390.0, 262.0)",0.7,0.665,1,7218.142,1
0,474,target,"[(1022, 831)]",[],[1],[0.5166666666666666],horizontal,"(890.0, 762.0)",0.9666666666666667,0.486,1,7223.477,2
0,475,target,"[(1046, 819)]",[],[1],[0.5166666666666666],horizontal,"(890.0, 262.0)",1.0333333333333332,0.477,1,7229.581,1
0,476,target,"[(1056, 812)]",[],[1],[0.4],horizontal,"(890.0, 262.0)",1.2833333333333332,0.362,1,7234.897,1
0,477,target,"[(1033, 830)]",[],[1],[0.5333333333333333],vertical,"(890.0, 762.0)",0.8,0.499,1,7240.448,1
0,478,catch,"[(1029, 811)]",[],[1],[],horizontal,"(390.0, 762.0)",1.2166666666666666,nan,1,7245.653,2
0,479,target,"[(1061, 835)]",[],[1],[0.5833333333333334],vertical,"(890.0, 762.0)",0.5,0.543,1,7250.902,1
0,480,target,"[(1025, 833)]",[],[1],[0.3333333333333333],horizontal,"(890.0, 762.0)",1.1833333333333333,0.301,1,7255.387,1
0,481,target,"[(1020, 830)]",[],[1],[0.6166666666666667],vertical,"(890.0, 262.0)",0.65,0.572,1,7261.06,1
0,482,target,"[(1049, 839)]",[],[1],[0.2833333333333333],horizontal,"(390.0, 762.0)",1.4,0.249,1,7266.533,2
0,483,target,"[(1062, 823)]",[],[1],[0.11666666666666667],vertical,"(390.0, 762.0)",1.55,0.083,0,7272.177,0
0,484,target,"[(1033, 823)]",[],[1],[0.5833333333333334],vertical,"(890.0, 762.0)",0.7833333333333333,0.545,1,7276.876,1
0,485,target,"[(1037, 834)]",[],[1],[0.5833333333333334],vertical,"(390.0, 262.0)",0.9666666666666667,0.54,1,7281.892,1
0,486,target,"[(1023, 814)]",[],[1],[0.1],horizontal,"(390.0, 262.0)",1.25,0.072,0,7287.021,0
0,487,target,"[(1049, 822)]",[],[1],[0.11666666666666667],horizontal,"(390.0, 762.0)",1.6,0.084,0,7291.891,0
0,488,target,"[(1053, 808)]",[],[1],[0.55],vertical,"(890.0, 262.0)",0.5,0.51,1,7296.776,1
0,489,target,"[(1041, 816)]",[],[1],[0.6],vertical,"(890.0, 262.0)",1.0333333333333332,0.56,1,7301.177,1
0,490,target,"[(1051, 828)]",[],[1],[0.9833333333333333],horizontal,"(390.0, 262.0)",1.4833333333333334,0.94,0,7306.544,0
0,491,target,"[(1053, 812)]",[],[1],[0.65],vertical,"(890.0, 262.0)",1.0833333333333333,0.609,1,7312.159,1
0,492,target,"[(1053, 811)]",[],[1],[0.7],horizontal,"(390.0, 762.0)",1.0333333333333332,0.656,1,7317.098,1
0,493,target,"[(1053, 820)]",[],[1],[0.5166666666666666],horizontal,"(890.0, 762.0)",1.1666666666666667,0.473,1,7322.345,1
0,494,target,"[(1040, 825)]",[],[1],[0.25],horizontal,"(890.0, 262.0)",1.4,0.216,1,7327.86,2
0,495,target,"[(1041, 809)]",[],[1],[],vertical,"(390.0, 262.0)",,"('cti', 1.495)",0,7333.721,0
0,496,catch,"[(1017, 812)]",[],[1],[],horizontal,"(390.0, 762.0)",1.1833333333333333,nan,1,7338.726,1
0,497,target,"[(1016, 842)]",[],[1],[0.48333333333333334],horizontal,"(390.0, 262.0)",1.1333333333333333,0.447,1,7347.409,1
0,498,catch,"[(1022, 824)]",[],[1],[],vertical,"(890.0, 762.0)",1.1,nan,1,7352.893,1
0,499,catch,"[(1042, 827)]",[],[1],[],horizontal,"(890.0, 262.0)",1.0,nan,1,7357.876,2
0,500,target,"[(1040, 839)]",[],[1],[],vertical,"(390.0, 262.0)",,"('cti', 1.213)",0,7362.729,0
0,501,target,"[(1049, 833)]",[],[1],[0.6],vertical,"(390.0, 262.0)",0.6,0.553,1,7367.543,1
0,502,target,"[(1022, 820)]",[],[1],[0.7166666666666667],horizontal,"(390.0, 762.0)",1.0833333333333333,0.672,1,7372.188,1
0,503,target,"[(1053, 829)]",[],[1],[0.5666666666666667],vertical,"(890.0, 262.0)",0.8166666666666667,0.524,1,7377.593,1
0,504,target,"[(1033, 805)]",[],[1],[0.6166666666666667],vertical,"(390.0, 762.0)",0.8,0.572,1,7382.612,2
0,505,target,"[(1061, 811)]",[],[1],[0.26666666666666666],vertical,"(390.0, 762.0)",1.3,0.231,1,7387.926,1
0,506,target,"[(1071, 827)]",[],[1],[0.4666666666666667],vertical,"(890.0, 262.0)",0.75,0.431,1,7393.014,1
0,507,target,"[(1059, 837)]",[],[1],[0.5833333333333334],horizontal,"(390.0, 262.0)",0.5833333333333334,0.54,1,7398.144,1
0,508,target,"[(1029, 846)]",[],[1],[0.55],horizontal,"(890.0, 262.0)",0.95,0.506,1,7402.518,2
0,509,target,"[(1057, 835)]",[],[1],[0.6],vertical,"(890.0, 262.0)",0.75,0.554,1,7407.885,1
0,510,target,"[(1053, 821)]",[],[1],[0.5],vertical,"(890.0, 262.0)",0.8833333333333333,0.454,1,7412.779,1
0,511,target,"[(1037, 818)]",[],[1],[0.8],vertical,"(890.0, 262.0)",0.5166666666666666,0.747,1,7418.043,1
0,512,target,"[(1036, 837)]",[],[1],[],horizontal,"(890.0, 762.0)",,"('cti', 1.354)",0,7422.755,0
0,513,target,"[(1046, 818)]",[],[1],[0.31666666666666665],vertical,"(890.0, 762.0)",1.5666666666666667,0.277,1,7427.428,1
0,514,target,"[(1010, 843)]",[],[1],[0.3333333333333333],horizontal,"(890.0, 262.0)",1.1833333333333333,0.293,1,7432.661,1
0,515,target,"[(1033, 809)]",[],[1],[0.7833333333333333],horizontal,"(390.0, 262.0)",0.6,0.734,1,7438.144,1
0,516,target,"[(1014, 824)]",[],[1],[],vertical,"(390.0, 762.0)",,"('cti', 1.504)",0,7443.361,0
0,517,target,"[(1060, 794)]",[],[1],[0.4],vertical,"(390.0, 262.0)",1.6666666666666667,0.359,1,7448.211,1
0,518,target,"[(1057, 818)]",[],[1],[0.6333333333333333],vertical,"(390.0, 762.0)",0.5166666666666666,0.588,1,7453.378,1
0,519,target,"[(1051, 819)]",[],[1],[0.43333333333333335],vertical,"(390.0, 262.0)",1.0833333333333333,0.394,1,7457.942,1
0,520,target,"[(1043, 817)]",[],[1],[],vertical,"(390.0, 762.0)",,"('cti', 1.517)",0,7463.516,0
0,521,target,"[(1026, 820)]",[],[1],[0.5],vertical,"(890.0, 762.0)",1.15,0.458,1,7468.377,1
0,522,target,"[(1057, 839)]",[],[1],[0.5166666666666666],horizontal,"(390.0, 262.0)",1.1,0.477,1,7473.663,1
0,523,target,"[(1027, 833)]",[],[1],[0.6666666666666666],horizontal,"(390.0, 762.0)",1.0666666666666667,0.626,1,7478.578,1
0,524,target,"[(1042, 832)]",[],[1],[0.35],horizontal,"(890.0, 762.0)",1.45,0.316,1,7483.825,2
0,525,target,"[(1057, 842)]",[],[1],[0.65],horizontal,"(390.0, 262.0)",1.0166666666666666,0.606,1,7489.418,1
0,526,target,"[(1036, 830)]",[],[1],[],vertical,"(890.0, 762.0)",,"('cti', 1.391)",0,7494.594,0
0,527,target,"[(1042, 819)]",[],[1],[0.5333333333333333],vertical,"(390.0, 762.0)",1.0666666666666667,0.495,1,7499.248,1
0,528,target,"[(1041, 825)]",[],[1],[1.1166666666666667],horizontal,"(890.0, 762.0)",0.5,1.062,0,7504.583,0
0,529,target,"[(1057, 820)]",[],[1],[0.43333333333333335],vertical,"(390.0, 262.0)",1.2666666666666666,0.395,1,7509.389,1
0,530,target,"[(1031, 828)]",[],[1],[0.3833333333333333],vertical,"(890.0, 762.0)",1.3833333333333333,0.348,1,7514.573,1
0,531,target,"[(1038, 832)]",[],[1],[0.7],horizontal,"(890.0, 262.0)",1.05,0.655,1,7519.671,1
0,532,target,"[(1061, 836)]",[],[1],[0.7833333333333333],horizontal,"(890.0, 262.0)",0.55,0.734,1,7524.55,2
0,533,catch,"[(1054, 792)]",[],[1],[],vertical,"(890.0, 762.0)",1.3,nan,1,7529.705,1
0,534,catch,"[(1057, 833)]",[],[1],[],vertical,"(890.0, 262.0)",1.5666666666666667,nan,1,7534.645,1
0,535,target,"[(1057, 838)]",[],[1],[0.5],horizontal,"(390.0, 262.0)",0.7666666666666666,0.456,1,7539.638,1
0,536,target,"[(1026, 820)]",[],[1],[0.5666666666666667],vertical,"(390.0, 762.0)",0.6,0.526,1,7544.744,2
0,537,target,"[(1058, 820)]",[],[1],[0.6333333333333333],vertical,"(390.0, 262.0)",1.65,0.592,1,7550.548,1
0,538,target,"[(1030, 815)]",[],[1],[0.25],horizontal,"(890.0, 762.0)",1.3666666666666667,0.218,1,7555.995,1
0,539,target,"[(1060, 837)]",[],[1],[0.5833333333333334],vertical,"(390.0, 762.0)",1.2333333333333334,0.541,1,7561.221,1
0,540,target,"[(1033, 830)]",[],[1],[0.5333333333333333],horizontal,"(890.0, 262.0)",0.95,0.497,1,7566.847,2
0,541,target,"[(1033, 829)]",[],[1],[0.48333333333333334],horizontal,"(890.0, 762.0)",1.3,0.443,1,7572.423,1
0,542,catch,"[(1057, 837)]",[],[1],[],horizontal,"(890.0, 762.0)",,"('cti', 1.39),nan",1,7577.81,1
0,543,target,"[(1061, 835)]",[],[1],[0.4166666666666667],vertical,"(390.0, 262.0)",1.45,0.376,1,7583.427,1
0,544,target,"[(1038, 838)]",[],[1],[0.5333333333333333],vertical,"(890.0, 762.0)",0.9,0.491,1,7588.689,2
0,545,target,"[(1032, 834)]",[],[1],[0.3],horizontal,"(890.0, 262.0)",1.3833333333333333,0.265,1,7594.494,1
0,546,target,"[(1017, 846)]",[],[1],[1.1],vertical,"(390.0, 762.0)",0.8333333333333334,1.042,0,7600.259,0
0,547,target,"[(1037, 817)]",[],[1],[0.7333333333333333],vertical,"(390.0, 262.0)",0.5666666666666667,0.686,1,7609.51,1
0,548,target,"[(1015, 870)]",[],[1],[0.55],vertical,"(390.0, 262.0)",0.5833333333333334,0.51,1,7614.137,1
0,549,target,"[(1033, 864)]",[],[1],[0.5333333333333333],vertical,"(390.0, 262.0)",1.1666666666666667,0.501,1,7699.083,1
0,550,target,"[(1051, 827)]",[],[1],[0.6166666666666667],horizontal,"(890.0, 762.0)",0.9166666666666666,0.582,1,7704.327,2
0,551,target,"[(1034, 819)]",[],[1],[0.5333333333333333],horizontal,"(890.0, 262.0)",0.6333333333333333,0.503,1,7710.195,1
0,552,target,"[(1034, 837)]",[],[1],[0.48333333333333334],horizontal,"(890.0, 762.0)",0.6833333333333333,0.448,1,7714.806,1
0,553,catch,"[(1059, 857)]",[],[1],[],horizontal,"(390.0, 762.0)",1.3666666666666667,nan,1,7719.958,1
0,554,catch,"[(1041, 840)]",[],[1],[],horizontal,"(890.0, 262.0)",1.2,nan,1,7724.747,2
0,555,target,"[(1013, 852)]",[],[1],[0.31666666666666665],horizontal,"(890.0, 262.0)",1.3333333333333333,0.282,1,7730.365,1
0,556,target,"[(1061, 845)]",[],[1],[0.5833333333333334],horizontal,"(390.0, 762.0)",1.1333333333333333,0.541,1,7737.5,1
0,557,target,"[(1038, 837)]",[],[1],[0.4666666666666667],vertical,"(390.0, 262.0)",1.4166666666666667,0.428,1,7742.823,1
0,558,target,"[(1065, 835)]",[],[1],[0.4666666666666667],horizontal,"(390.0, 262.0)",0.7166666666666667,0.424,1,7748.441,2
0,559,catch,"[(1037, 825)]",[],[1],[],horizontal,"(890.0, 262.0)",1.1666666666666667,nan,1,7754.004,1
0,560,target,"[(1068, 816)]",[],[1],[0.5333333333333333],vertical,"(390.0, 762.0)",1.1166666666666667,0.491,1,7759.231,1
0,561,target,"[(1017, 872)]",[],[1],[0.75],horizontal,"(890.0, 262.0)",0.6166666666666667,0.7,1,7764.528,1
0,562,target,"[(1049, 850)]",[],[1],[0.23333333333333334],horizontal,"(390.0, 762.0)",1.4333333333333333,0.205,1,8054.234,2
0,563,target,"[(1027, 847)]",[],[1],[0.5333333333333333],horizontal,"(390.0, 762.0)",0.9833333333333333,0.499,1,8060.23,1
0,564,catch,"[(1057, 824)]",[],[1],[],vertical,"(890.0, 262.0)",1.1666666666666667,nan,1,8066.253,1
0,565,target,"[(1055, 841)]",[],[1],[],horizontal,"(890.0, 262.0)",,"('cti', 1.574)",0,8070.597,0
0,566,target,"[(1067, 817)]",[],[1],[0.65],horizontal,"(390.0, 762.0)",1.15,0.605,1,8075.547,1
0,567,target,"[(1038, 846)]",[],[1],[0.25],horizontal,"(890.0, 762.0)",1.4833333333333334,0.213,1,8080.879,1
0,568,target,"[(1025, 800)]",[],[1],[0.7],vertical,"(890.0, 262.0)",0.65,0.655,1,8086.383,1
0,569,target,"[(1089, 832)]",[],[1],[0.35],horizontal,"(890.0, 262.0)",1.3833333333333333,0.31,1,8091.347,2
0,570,target,"[(1058, 807)]",[],[1],[0.55],horizontal,"(890.0, 262.0)",1.3166666666666667,0.507,1,8097.014,1
0,571,target,"[(1057, 809)]",[],[1],[0.7833333333333333],vertical,"(890.0, 262.0)",0.7666666666666666,0.738,1,8102.463,1
0,572,target,"[(1056, 809)]",[],[1],[0.8833333333333333],vertical,"(390.0, 262.0)",0.8333333333333334,0.837,0,8107.513,0
0,573,target,"[(1061, 813)]",[],[1],[0.5333333333333333],vertical,"(890.0, 762.0)",1.0666666666666667,0.494,1,8112.568,1
0,574,target,"[(1100, 823)]",[],[1],[1.2],horizontal,"(890.0, 262.0)",0.9,1.148,0,8117.419,0
0,575,target,"[(1059, 826)]",[],[1],[0.75],horizontal,"(390.0, 762.0)",0.75,0.707,1,8122.63,1
0,576,target,"[(1055, 833)]",[],[1],[0.5666666666666667],horizontal,"(890.0, 262.0)",0.8833333333333333,0.527,1,8127.331,1
0,577,target,"[(1068, 816)]",[],[1],[0.23333333333333334],vertical,"(890.0, 762.0)",1.5333333333333332,0.2,1,8132.187,1
0,578,target,"[(1065, 804)]",[],[1],[],vertical,"(390.0, 262.0)",,"('cti', 1.485)",0,8137.896,0
0,579,target,"[(1072, 788)]",[],[1],[0.7333333333333333],vertical,"(890.0, 262.0)",0.7666666666666666,0.687,1,8142.947,1
0,580,target,"[(1067, 806)]",[],[1],[0.6666666666666666],horizontal,"(890.0, 762.0)",1.0,0.626,1,8147.671,1
0,581,target,"[(1073, 834)]",[],[1],[],vertical,"(890.0, 762.0)",,"('cti', 0.638)",0,8152.514,0
0,582,target,"[(1057, 803)]",[],[1],[0.55],horizontal,"(890.0, 262.0)",1.1833333333333333,0.512,1,8156.843,1
0,583,target,"[(1061, 823)]",[],[1],[0.5666666666666667],horizontal,"(390.0, 262.0)",1.15,0.526,1,8162.363,1
0,584,target,"[(1057, 812)]",[],[1],[0.6166666666666667],vertical,"(390.0, 762.0)",1.05,0.576,1,8167.197,1
0,585,target,"[(1057, 832)]",[],[1],[0.6666666666666666],vertical,"(390.0, 762.0)",0.8833333333333333,0.624,1,8172.421,2
0,586,target,"[(1043, 810)]",[],[1],[0.6333333333333333],vertical,"(890.0, 262.0)",0.8666666666666667,0.596,1,8177.612,1
0,587,target,"[(1057, 814)]",[],[1],[0.5166666666666666],horizontal,"(390.0, 262.0)",1.1833333333333333,0.485,1,8182.414,1
0,588,target,"[(1033, 819)]",[],[1],[0.6833333333333333],vertical,"(390.0, 762.0)",0.9,0.635,1,8188.014,1
0,589,catch,"[(1057, 828)]",[],[1],[],vertical,"(890.0, 262.0)",1.3666666666666667,nan,1,8193.188,2
0,590,target,"[(1061, 804)]",[],[1],[0.5166666666666666],horizontal,"(390.0, 262.0)",1.35,0.474,1,8198.483,1
0,591,target,"[(1055, 813)]",[],[1],[0.65],horizontal,"(390.0, 762.0)",0.7666666666666666,0.605,1,8203.781,1
0,592,target,"[(1069, 812)]",[],[1],[0.6833333333333333],vertical,"(390.0, 762.0)",0.9166666666666666,0.639,1,8209.297,1
0,593,target,"[(1053, 822)]",[],[1],[0.5333333333333333],vertical,"(390.0, 762.0)",0.9666666666666667,0.496,1,8214.157,2
0,594,target,"[(1057, 813)]",[],[1],[1.15],vertical,"(390.0, 762.0)",0.6333333333333333,1.112,0,8220.212,0
0,595,target,"[(1059, 806)]",[],[1],[0.3333333333333333],vertical,"(890.0, 762.0)",1.25,0.295,1,8224.808,1
0,596,target,"[(1059, 807)]",[],[1],[0.25],vertical,"(390.0, 762.0)",1.4166666666666667,0.218,1,8229.806,1
0,597,target,"[(1069, 818)]",[],[1],[0.6],horizontal,"(890.0, 262.0)",0.9666666666666667,0.567,1,8234.852,1
0,598,target,"[(1057, 811)]",[],[1],[],horizontal,"(390.0, 762.0)",,"('cti', 1.471)",0,8240.216,0
0,599,target,"[(1087, 812)]",[],[1],[0.25],vertical,"(390.0, 262.0)",1.2833333333333332,0.218,1,8244.759,1
0,600,target,"[(1074, 804)]",[],[1],[0.6166666666666667],horizontal,"(390.0, 262.0)",0.9333333333333333,0.577,1,8250.083,1
0,601,target,"[(1057, 815)]",[],[1],[0.7],vertical,"(390.0, 762.0)",1.0166666666666666,0.651,1,8255.267,1
0,602,catch,"[(1046, 811)]",[],[1],[],horizontal,"(390.0, 262.0)",1.5,nan,1,8260.857,2
0,603,target,"[(1037, 808)]",[],[1],[0.6],vertical,"(390.0, 762.0)",0.55,0.559,1,8266.57,1
0,604,target,"[(1058, 799)]",[],[1],[0.7],horizontal,"(890.0, 262.0)",1.1,0.651,1,8271.534,1
0,605,catch,"[(1055, 804)]",[],[1],[],vertical,"(890.0, 262.0)",1.55,nan,1,8276.484,1
0,606,target,"[(1025, 841)]",[],[1],[0.5666666666666667],horizontal,"(390.0, 762.0)",1.05,0.527,1,8281.586,2
0,607,target,"[(1032, 815)]",[],[1],[0.6],horizontal,"(890.0, 762.0)",1.2,0.559,1,8287.264,1
0,608,target,"[(1025, 820)]",[],[1],[0.23333333333333334],horizontal,"(890.0, 262.0)",1.5,0.197,1,8293.329,1
0,609,target,"[(1053, 801)]",[],[1],[0.6],vertical,"(390.0, 762.0)",1.1,0.561,1,8298.615,1
0,610,target,"[(1059, 815)]",[],[1],[],horizontal,"(390.0, 762.0)",,"('cti', 1.466)",0,8304.032,0
0,611,catch,"[(1057, 813)]",[],[1],[],horizontal,"(890.0, 762.0)",1.5,nan,1,8308.865,1
0,612,target,"[(1065, 800)]",[],[1],[0.6],vertical,"(390.0, 262.0)",1.2,0.557,1,8314.22,1
0,613,target,"[(1043, 828)]",[],[1],[0.6166666666666667],vertical,"(890.0, 762.0)",0.8666666666666667,0.572,1,8319.198,1
0,614,target,"[(1041, 828)]",[],[1],[0.05],horizontal,"(890.0, 762.0)",1.6333333333333333,0.018,0,8324.496,0
0,615,target,"[(1057, 813)]",[],[1],[0.43333333333333335],vertical,"(390.0, 262.0)",1.4333333333333333,0.396,1,8328.95,1
0,616,target,"[(1037, 822)]",[],[1],[0.5833333333333334],vertical,"(890.0, 762.0)",0.5333333333333333,0.553,1,8334.064,1
0,617,target,"[(1043, 815)]",[],[1],[1.1166666666666667],vertical,"(890.0, 762.0)",0.5833333333333334,1.084,0,8339.131,0
0,618,target,"[(1057, 813)]",[],[1],[0.55],horizontal,"(890.0, 262.0)",0.9333333333333333,0.512,1,8343.715,1
0,619,target,"[(1061, 831)]",[],[1],[0.2833333333333333],horizontal,"(890.0, 762.0)",1.4666666666666666,0.25,1,8348.597,1
0,620,target,"[(1056, 835)]",[],[1],[0.7],vertical,"(390.0, 762.0)",0.9,0.653,1,8353.497,1
0,621,target,"[(1029, 823)]",[],[1],[0.4666666666666667],vertical,"(890.0, 762.0)",1.4,0.426,1,8358.312,2
0,622,target,"[(1053, 842)]",[],[1],[0.18333333333333332],vertical,"(390.0, 762.0)",1.35,0.151,1,8363.935,1
