block,trial,trial_type,taps_start_loc_during_fix,taps_end_loc_during_fix,taps_on_lever_during_fix,taps_on_lever_s_during_fix,bar_orientation,target_xy,cti,rt,acc,time,pulses
0,1,target,"[(1135, 861)]",[],[1],[0.4666666666666667],horizontal,"(890.0, 262.0)",0.5,0.434,1,0.408,1
0,2,target,"[(1041, 813), (1041, 813)]",[],"[1, 1]",[0.85],vertical,"(890.0, 762.0)",1.5666666666666667,nan,0,13.472,0
0,3,target,"[(1017, 870)]",[],[1],[0.7333333333333333],horizontal,"(890.0, 762.0)",0.6,0.694,1,23.941,1
0,4,target,"[(1048, 881)]",[],[1],[0.43333333333333335],vertical,"(390.0, 762.0)",1.3666666666666667,0.397,1,48.041,1
0,5,target,"[(1032, 883)]",[],[1],[0.7833333333333333],horizontal,"(890.0, 762.0)",0.5833333333333334,0.747,1,53.358,1
0,6,target,"[(1055, 849)]",[],[1],[0.5666666666666667],vertical,"(890.0, 762.0)",1.4,0.525,1,58.457,2
0,7,target,"[(1059, 834)]",[],[1],[0.5],vertical,"(890.0, 762.0)",0.9666666666666667,0.46,1,64.273,1
0,8,target,"[(1065, 837)]",[],[1],[0.8166666666666667],vertical,"(390.0, 262.0)",0.5166666666666666,0.774,1,69.308,1
0,9,target,"[(1055, 826)]",[],[1],[0.5333333333333333],horizontal,"(390.0, 262.0)",0.7333333333333333,0.495,1,73.941,1
0,10,target,"[(1049, 822)]",[],[1],[0.16666666666666666],vertical,"(890.0, 262.0)",0.9333333333333333,0.132,1,78.676,2
0,11,target,"[(1030, 856)]",[],[1],[0.55],horizontal,"(890.0, 762.0)",0.7333333333333333,0.504,1,84.042,1
0,12,target,"[(1051, 846)]",[],[1],[0.36666666666666664],horizontal,"(390.0, 762.0)",1.2333333333333334,0.329,1,88.643,1
0,13,target,"[(1018, 857)]",[],[1],[0.5166666666666666],vertical,"(890.0, 262.0)",0.9833333333333333,0.475,1,93.458,1
0,14,target,"[(1048, 837)]",[],[1],[0.5333333333333333],vertical,"(390.0, 762.0)",1.25,0.491,1,98.177,2
0,15,catch,"[(1053, 825)]",[],[1],[0.05],horizontal,"(390.0, 262.0)",1.1666666666666667,nan,1,104.065,1
0,16,target,"[(1068, 837)]",[],[1],[0.4166666666666667],horizontal,"(890.0, 762.0)",0.8833333333333333,0.379,1,108.889,1
0,17,target,"[(1054, 825)]",[],[1],[],vertical,"(890.0, 762.0)",,"('cti', 1.236)",0,113.491,0
0,18,target,"[(1053, 844)]",[],[1],[0.5166666666666666],vertical,"(890.0, 262.0)",0.5666666666666667,0.483,1,118.248,1
0,19,target,"[(1071, 809)]",[],[1],[],horizontal,"(390.0, 762.0)",,"('cti', 1.426)",0,122.843,0
0,20,target,"[(1036, 842)]",[],[1],[0.31666666666666665],vertical,"(390.0, 262.0)",1.3,0.274,1,126.918,1
0,21,catch,"[(1070, 813)]",[],[1],[0.05],horizontal,"(890.0, 262.0)",1.2,nan,1,131.605,1
0,22,target,"[(1068, 842)]",[],[1],[0.43333333333333335],vertical,"(890.0, 762.0)",1.3,0.392,1,136.442,1
0,23,target,"[(1057, 830)]",[],[1],[0.5833333333333334],horizontal,"(390.0, 262.0)",0.5666666666666667,0.545,1,141.637,2
0,24,target,"[(1053, 825)]",[],[1],[0.85],vertical,"(890.0, 262.0)",0.55,nan,0,146.807,0
0,25,target,"[(1055, 847)]",[],[1],[0.6333333333333333],vertical,"(390.0, 262.0)",0.6666666666666666,0.597,1,150.713,1
0,26,catch,"[(1037, 809)]",[],[1],[0.05],vertical,"(390.0, 262.0)",1.25,nan,1,156.058,1
0,27,target,"[(1053, 835)]",[],[1],[],vertical,"(890.0, 762.0)",,"('cti', 1.244)",0,160.592,0
0,28,target,"[(1041, 824)]",[],[1],[0.35],horizontal,"(390.0, 762.0)",1.25,0.315,1,165.032,1
0,29,target,"[(1053, 808)]",[],[1],[0.36666666666666664],vertical,"(390.0, 262.0)",0.8166666666666667,0.331,1,169.974,1
0,30,catch,"[(1053, 808)]",[],[1],[],horizontal,"(890.0, 262.0)",,"('cti', 1.176)",0,174.833,0
0,31,target,"[(1041, 837)]",[],[1],[0.6333333333333333],vertical,"(390.0, 762.0)",0.8666666666666667,0.589,1,179.308,1
0,32,catch,"[(1061, 814)]",[],[1],[0.05],vertical,"(890.0, 762.0)",1.2833333333333332,nan,1,184.042,1
0,33,target,"[(1058, 828)]",[],[1],[0.08333333333333333],vertical,"(890.0, 262.0)",1.5666666666666667,0.051,1,188.742,1
0,34,target,"[(1053, 815)]",[],[1],[],horizontal,"(390.0, 762.0)",,"('cti', 1.517)",0,193.852,0
0,35,target,"[(1037, 825)]",[],[1],[0.6333333333333333],horizontal,"(890.0, 762.0)",0.8,0.589,1,198.257,1
0,36,target,"[(1053, 826)]",[],[1],[],vertical,"(890.0, 262.0)",,"('cti', 1.075)",0,202.954,0
0,37,target,"[(1051, 829)]",[],[1],[0.36666666666666664],vertical,"(890.0, 762.0)",1.2,0.329,1,207.474,1
0,38,target,"[(1052, 806)]",[],[1],[],vertical,"(390.0, 762.0)",,"('cti', 1.453)",0,212.342,0
0,39,target,"[(1039, 831)]",[],[1],[0.4],horizontal,"(890.0, 262.0)",1.45,0.361,1,216.836,1
0,40,target,"[(1047, 808)]",[],[1],[0.3],vertical,"(390.0, 262.0)",1.5,0.264,1,221.853,1
0,41,target,"[(1061, 799)]",[],[1],[],vertical,"(390.0, 762.0)",,"('cti', 1.468)",0,226.926,0
0,42,target,"[(1052, 825)]",[],[1],[0.13333333333333333],horizontal,"(890.0, 262.0)",1.5166666666666666,0.101,1,231.111,1
0,43,target,"[(1053, 812)]",[],[1],[0.5666666666666667],vertical,"(390.0, 262.0)",0.9,0.521,1,236.624,1
0,44,target,"[(1054, 809)]",[],[1],[0.26666666666666666],vertical,"(890.0, 262.0)",1.2333333333333334,0.233,1,241.87,1
0,45,target,"[(1069, 818)]",[],[1],[],horizontal,"(890.0, 262.0)",,"('cti', 1.603)",0,246.992,0
0,46,target,"[(1043, 820)]",[],[1],[0.55],horizontal,"(390.0, 262.0)",1.5166666666666666,0.505,1,251.765,1
0,47,catch,"[(1051, 813)]",[],[1],[0.05],horizontal,"(390.0, 762.0)",1.0,nan,1,256.958,1
0,48,target,"[(1049, 819)]",[],[1],[0.3333333333333333],horizontal,"(890.0, 762.0)",1.15,0.296,1,261.621,1
0,49,target,"[(1056, 816)]",[],[1],[0.55],vertical,"(890.0, 262.0)",0.55,0.506,1,266.677,2
0,50,target,"[(1052, 852)]",[],[1],[0.6333333333333333],vertical,"(390.0, 762.0)",0.9833333333333333,0.593,1,271.351,1
0,51,target,"[(1065, 820)]",[],[1],[0.23333333333333334],horizontal,"(390.0, 762.0)",1.2833333333333332,0.201,1,276.416,1
0,52,target,"[(1056, 823)]",[],[1],[0.85],horizontal,"(390.0, 762.0)",0.5333333333333333,nan,0,281.44,0
0,53,target,"[(1042, 852)]",[],[1],[0.35],vertical,"(890.0, 262.0)",1.3,0.313,1,285.566,1
0,54,target,"[(1057, 844)]",[],[1],[0.65],horizontal,"(390.0, 762.0)",0.5333333333333333,0.611,1,290.932,1
0,55,target,"[(1054, 812)]",[],[1],[0.5166666666666666],horizontal,"(390.0, 762.0)",0.9333333333333333,0.477,1,295.625,1
0,56,target,"[(1053, 808)]",[],[1],[0.7],vertical,"(390.0, 262.0)",0.5833333333333334,0.652,1,300.474,2
0,57,target,"[(1049, 804)]",[],[1],[0.6166666666666667],horizontal,"(390.0, 762.0)",0.5333333333333333,0.576,1,305.954,1
0,58,target,"[(1053, 803)]",[],[1],[0.3],vertical,"(890.0, 762.0)",1.1833333333333333,0.263,1,310.758,1
0,59,target,"[(1039, 815)]",[],[1],[0.5666666666666667],vertical,"(890.0, 762.0)",0.5666666666666667,0.519,1,315.743,1
0,60,target,"[(1057, 812)]",[],[1],[0.1],horizontal,"(890.0, 762.0)",1.4,0.066,1,320.597,2
0,61,target,"[(1055, 812)]",[],[1],[0.06666666666666667],horizontal,"(890.0, 262.0)",1.6166666666666667,0.036,1,325.922,1
0,62,target,"[(1057, 795)]",[],[1],[0.23333333333333334],horizontal,"(390.0, 762.0)",1.3333333333333333,0.201,1,330.608,1
0,63,catch,"[(1057, 835)]",[],[1],"[0.05, 0.05]",vertical,"(390.0, 762.0)",1.0666666666666667,"0.018,nan",1,335.809,1
0,64,target,"[(1061, 819)]",[],[1],[0.2],horizontal,"(390.0, 262.0)",1.3666666666666667,0.169,1,341.109,2
0,65,target,"[(1037, 817)]",[],[1],[0.55],horizontal,"(390.0, 762.0)",0.6666666666666666,0.51,1,346.4,1
0,66,target,"[(1034, 799)]",[],[1],[],vertical,"(390.0, 762.0)",,"('cti', 1.382)",0,351.309,0
0,67,target,"[(1028, 852)]",[],[1],[0.6333333333333333],vertical,"(890.0, 762.0)",0.7333333333333333,0.586,1,355.892,1
0,68,target,"[(1057, 834)]",[],[1],[0.7],horizontal,"(890.0, 762.0)",0.8666666666666667,0.657,1,361.141,1
0,69,target,"[(1057, 823)]",[],[1],[0.5166666666666666],vertical,"(390.0, 762.0)",1.0333333333333332,0.478,1,366.426,1
0,70,target,"[(1055, 823)]",[],[1],[0.55],horizontal,"(390.0, 762.0)",0.9333333333333333,0.507,1,371.432,2
0,71,target,"[(1056, 818)]",[],[1],[0.4166666666666667],vertical,"(390.0, 262.0)",1.45,0.379,1,377.209,1
0,72,target,"[(1068, 823)]",[],[1],[0.5833333333333334],vertical,"(890.0, 762.0)",0.85,0.536,1,382.259,1
0,73,target,"[(1041, 800)]",[],[1],[0.85],horizontal,"(390.0, 762.0)",0.6,nan,0,387.193,0
0,74,target,"[(1050, 833)]",[],[1],[0.5833333333333334],vertical,"(890.0, 262.0)",0.55,0.548,1,391.526,1
0,75,target,"[(1053, 840)]",[],[1],[0.43333333333333335],horizontal,"(390.0, 262.0)",1.1833333333333333,0.402,1,396.358,1
0,76,catch,"[(1057, 813)]",[],[1],[0.05],horizontal,"(890.0, 262.0)",1.3666666666666667,nan,1,402.002,1
0,77,target,"[(1051, 802)]",[],[1],[0.6166666666666667],vertical,"(390.0, 262.0)",0.6833333333333333,0.576,1,407.225,2
0,78,target,"[(1049, 824)]",[],[1],[0.65],horizontal,"(390.0, 762.0)",0.55,0.606,1,412.541,1
0,79,target,"[(1029, 849)]",[],[1],[0.15],vertical,"(390.0, 262.0)",1.45,0.118,1,417.208,1
0,80,target,"[(1076, 826)]",[],[1],[0.7],vertical,"(890.0, 762.0)",0.75,0.652,1,423.429,1
0,81,target,"[(1068, 808)]",[],[1],[0.55],horizontal,"(890.0, 762.0)",1.2,0.509,1,428.627,2
0,82,target,"[(1049, 816)]",[],[1],[],vertical,"(390.0, 262.0)",,"('cti', 1.357)",0,434.158,0
0,83,target,"[(1056, 831)]",[],[1],[0.3833333333333333],vertical,"(890.0, 262.0)",1.3,0.344,1,438.778,1
0,84,target,"[(1058, 814)]",[],[1],[0.48333333333333334],horizontal,"(390.0, 262.0)",1.2666666666666666,0.451,1,443.974,1
0,85,catch,"[(1058, 819)]",[],[1],[0.05],vertical,"(890.0, 262.0)",1.1833333333333333,nan,1,449.0,1
0,86,target,"[(1076, 812)]",[],[1],[],vertical,"(890.0, 762.0)",,"('cti', 1.393)",0,453.282,0
0,87,catch,"[(1057, 833)]",[],[1],[0.05],vertical,"(890.0, 262.0)",1.45,nan,1,457.707,1
0,88,target,"[(1062, 820)]",[],[1],[0.06666666666666667],vertical,"(390.0, 262.0)",1.2833333333333332,0.035,1,462.475,1
0,89,target,"[(1076, 833)]",[],[1],[0.5166666666666666],vertical,"(890.0, 762.0)",0.9,0.481,1,467.725,1
0,90,target,"[(1057, 809)]",[],[1],[0.8333333333333334],horizontal,"(390.0, 262.0)",0.5666666666666667,0.792,1,472.726,2
0,91,target,"[(1037, 811)]",[],[1],"[0.85, 0.85]",horizontal,"(890.0, 262.0)",0.5,"0.808,nan",0,477.693,0
0,92,target,"[(1052, 801)]",[],[1],[0.65],horizontal,"(390.0, 762.0)",0.7833333333333333,0.61,1,482.175,1
0,93,target,"[(1053, 799)]",[],[1],[0.48333333333333334],horizontal,"(390.0, 262.0)",1.1166666666666667,0.447,1,486.658,1
0,94,target,"[(1050, 809)]",[],[1],[0.5666666666666667],horizontal,"(390.0, 762.0)",0.9,0.524,1,491.535,1
0,95,catch,"[(1057, 816)]",[],[1],[],horizontal,"(390.0, 762.0)",,"('cti', 1.279)",0,496.426,0
0,96,target,"[(1045, 828)]",[],[1],[0.5333333333333333],horizontal,"(890.0, 262.0)",0.6833333333333333,0.492,1,500.892,1
0,97,catch,"[(1076, 828)]",[],[1],[],vertical,"(390.0, 762.0)",,"('cti', 1.432)",0,505.743,0
0,98,target,"[(1057, 819)]",[],[1],[0.5],horizontal,"(890.0, 262.0)",1.1166666666666667,0.464,1,510.175,1
0,99,target,"[(1076, 802)]",[],[1],[0.13333333333333333],horizontal,"(390.0, 262.0)",1.5666666666666667,0.101,1,515.225,1
0,100,target,"[(1053, 821)]",[],[1],[0.5333333333333333],vertical,"(890.0, 262.0)",1.05,0.489,1,520.192,1
0,101,target,"[(1057, 819)]",[],[1],[0.5],vertical,"(890.0, 262.0)",0.5166666666666666,0.466,1,525.274,2
0,102,target,"[(1061, 795)]",[],[1],[0.5666666666666667],vertical,"(390.0, 262.0)",0.65,0.526,1,530.359,1
0,103,target,"[(1057, 810)]",[],[1],[0.4666666666666667],vertical,"(890.0, 762.0)",1.1,0.435,1,534.789,1
0,104,target,"[(1059, 812)]",[],[1],[0.1],vertical,"(390.0, 762.0)",1.4333333333333333,0.069,1,539.708,1
0,105,target,"[(1057, 828)]",[],[1],[0.85],vertical,"(390.0, 762.0)",0.8333333333333334,nan,0,545.142,0
0,106,target,"[(1054, 843)]",[],[1],[0.5333333333333333],vertical,"(390.0, 262.0)",0.5333333333333333,0.494,1,549.526,1
0,107,target,"[(1072, 818)]",[],[1],[0.1],horizontal,"(890.0, 762.0)",1.4333333333333333,0.069,1,554.465,1
0,108,target,"[(1057, 824)]",[],[1],[0.5166666666666666],horizontal,"(390.0, 262.0)",1.2333333333333334,0.478,1,559.477,1
0,109,target,"[(1040, 814)]",[],[1],[0.6833333333333333],vertical,"(890.0, 762.0)",0.6166666666666667,0.638,1,564.46,2
0,110,target,"[(1058, 811)]",[],[1],[0.08333333333333333],vertical,"(890.0, 262.0)",1.4666666666666666,0.052,1,569.956,1
0,111,target,"[(1057, 808)]",[],[1],[0.5],vertical,"(390.0, 762.0)",1.1166666666666667,0.469,1,574.876,1
0,112,target,"[(1058, 823)]",[],[1],[0.65],horizontal,"(890.0, 262.0)",0.5666666666666667,0.608,1,579.827,1
0,113,target,"[(1057, 815)]",[],[1],[0.5833333333333334],vertical,"(890.0, 762.0)",0.6666666666666666,0.539,1,584.31,2
0,114,target,"[(1037, 815)]",[],[1],[0.06666666666666667],vertical,"(890.0, 762.0)",1.5833333333333333,0.035,1,589.744,1
0,115,target,"[(1043, 790)]",[],[1],[0.6833333333333333],horizontal,"(390.0, 262.0)",0.6833333333333333,0.639,1,594.784,1
0,116,target,"[(1053, 823)]",[],[1],[0.3333333333333333],vertical,"(390.0, 762.0)",1.1666666666666667,0.297,1,599.88,1
0,117,target,"[(1053, 804)]",[],[1],[0.13333333333333333],vertical,"(890.0, 762.0)",1.55,0.101,1,604.81,2
0,118,target,"[(1072, 810)]",[],[1],[0.8333333333333334],horizontal,"(390.0, 762.0)",0.7666666666666666,0.792,1,610.418,1
0,119,catch,"[(1057, 817)]",[],[1],[0.05],horizontal,"(390.0, 762.0)",1.35,nan,1,615.777,1
0,120,target,"[(1059, 823)]",[],[1],[0.26666666666666666],vertical,"(890.0, 762.0)",1.2833333333333332,0.232,1,620.916,1
0,121,target,"[(1054, 814)]",[],[1],[0.6333333333333333],vertical,"(390.0, 762.0)",0.6666666666666666,0.601,1,626.274,2
0,122,target,"[(1035, 796)]",[],[1],[0.15],horizontal,"(390.0, 762.0)",1.6,0.118,1,631.744,1
0,123,target,"[(1068, 852)]",[],[1],[],horizontal,"(890.0, 762.0)",,"('cti', 1.392)",0,637.161,0
0,124,target,"[(1041, 834)]",[],[1],[0.8],horizontal,"(390.0, 262.0)",0.5,0.763,1,641.665,1
0,125,target,"[(1042, 829)]",[],[1],[0.13333333333333333],vertical,"(890.0, 762.0)",1.4,0.099,1,646.302,1
0,126,target,"[(1061, 832)]",[],[1],[0.3333333333333333],horizontal,"(890.0, 762.0)",1.5,0.297,1,651.277,1
0,127,target,"[(1041, 808)]",[],[1],[0.6],vertical,"(890.0, 762.0)",0.7166666666666667,0.56,1,656.571,2
0,128,target,"[(1053, 790)]",[],[1],[0.5666666666666667],horizontal,"(890.0, 262.0)",0.7833333333333333,0.524,1,661.794,1
0,129,target,"[(1042, 812)]",[],[1],[0.55],horizontal,"(390.0, 262.0)",0.8833333333333333,0.512,1,666.502,1
0,130,catch,"[(1043, 840)]",[],[1],[0.05],vertical,"(890.0, 262.0)",1.4,nan,1,671.634,1
0,131,target,"[(1055, 823)]",[],[1],[0.3833333333333333],horizontal,"(890.0, 262.0)",1.1666666666666667,0.346,1,677.061,2
0,132,target,"[(1045, 822)]",[],[1],[],horizontal,"(890.0, 262.0)",,"('cti', 1.109)",0,682.666,0
0,133,target,"[(1057, 828)]",[],[1],[],horizontal,"(390.0, 262.0)",,"('cti', 1.619)",0,687.194,0
0,134,target,"[(1041, 828)]",[],[1],[0.6166666666666667],vertical,"(390.0, 762.0)",0.85,0.575,1,692.044,1
0,135,catch,"[(1049, 816)]",[],[1],[0.05],horizontal,"(390.0, 262.0)",1.0166666666666666,nan,1,697.477,1
0,136,target,"[(1058, 823)]",[],[1],[0.5333333333333333],horizontal,"(890.0, 262.0)",0.75,0.494,1,702.238,1
0,137,target,"[(1058, 812)]",[],[1],[0.16666666666666666],vertical,"(890.0, 262.0)",1.4,0.131,1,706.861,2
0,138,target,"[(1058, 790)]",[],[1],[0.55],horizontal,"(390.0, 262.0)",1.3833333333333333,0.506,1,712.019,1
0,139,target,"[(1057, 807)]",[],[1],[0.6666666666666666],vertical,"(390.0, 262.0)",0.9166666666666666,0.622,1,717.061,1
0,140,target,"[(1058, 815)]",[],[1],[0.5333333333333333],vertical,"(890.0, 262.0)",1.15,0.493,1,722.111,1
0,141,target,"[(1053, 821)]",[],[1],[0.05],vertical,"(390.0, 262.0)",1.6666666666666667,0.019,1,727.001,2
0,142,target,"[(1068, 823)]",[],[1],[],horizontal,"(390.0, 262.0)",,"('cti', 1.571)",0,732.523,0
0,143,target,"[(1056, 823)]",[],[1],[],vertical,"(390.0, 762.0)",,"('cti', 1.544)",0,736.952,0
0,144,target,"[(1038, 819)]",[],[1],[0.05],vertical,"(390.0, 762.0)",1.6833333333333333,0.019,1,741.919,1
0,145,catch,"[(1041, 790)]",[],[1],[0.05],horizontal,"(390.0, 262.0)",1.65,nan,1,747.354,1
0,146,target,"[(1058, 823)]",[],[1],[0.5666666666666667],horizontal,"(390.0, 762.0)",0.6166666666666667,0.526,1,752.417,1
0,147,target,"[(1043, 810)]",[],[1],[0.5666666666666667],horizontal,"(890.0, 762.0)",0.9,0.522,1,757.277,2
0,148,target,"[(1057, 806)]",[],[1],[],horizontal,"(390.0, 262.0)",,"('cti', 1.556)",0,762.476,0
0,149,target,"[(1049, 824)]",[],[1],[0.5],vertical,"(890.0, 262.0)",1.0833333333333333,0.456,1,767.101,1
0,150,target,"[(1056, 826)]",[],[1],[0.11666666666666667],horizontal,"(890.0, 762.0)",1.4833333333333334,0.088,1,772.444,1
0,151,target,"[(1057, 820)]",[],[1],[0.6166666666666667],vertical,"(890.0, 762.0)",0.6333333333333333,0.575,1,777.194,1
0,152,target,"[(1038, 818)]",[],[1],[0.65],horizontal,"(390.0, 762.0)",0.8666666666666667,0.603,1,782.11,2
0,153,target,"[(1056, 806)]",[],[1],[],vertical,"(890.0, 262.0)",,"('cti', 1.442)",0,787.625,0
0,154,target,"[(1038, 807)]",[],[1],[0.08333333333333333],horizontal,"(390.0, 762.0)",1.55,0.051,1,792.182,1
0,155,target,"[(1057, 826)]",[],[1],[0.5],vertical,"(890.0, 762.0)",1.05,0.458,1,797.337,1
0,156,target,"[(1061, 809)]",[],[1],[],horizontal,"(390.0, 262.0)",,"('cti', 1.481)",0,802.305,0
0,157,target,"[(1058, 829)]",[],[1],[0.48333333333333334],vertical,"(890.0, 262.0)",1.2833333333333332,0.445,1,807.109,1
0,158,target,"[(1072, 819)]",[],[1],[0.5666666666666667],vertical,"(390.0, 262.0)",0.8666666666666667,0.529,1,811.985,1
0,159,target,"[(1057, 819)]",[],[1],[0.55],horizontal,"(390.0, 262.0)",0.5333333333333333,0.509,1,816.862,1
0,160,target,"[(1061, 813)]",[],[1],[0.1],horizontal,"(890.0, 262.0)",1.6,0.068,1,821.76,2
0,161,catch,"[(1057, 807)]",[],[1],[0.05],horizontal,"(390.0, 262.0)",1.5666666666666667,nan,1,827.546,1
0,162,target,"[(1073, 824)]",[],[1],[0.21666666666666667],horizontal,"(890.0, 262.0)",1.3833333333333333,0.186,1,832.41,1
0,163,target,"[(1074, 820)]",[],[1],[0.75],horizontal,"(390.0, 262.0)",0.5833333333333334,0.706,1,837.595,1
0,164,target,"[(1055, 830)]",[],[1],[0.3333333333333333],horizontal,"(390.0, 262.0)",1.3833333333333333,0.294,1,842.711,2
0,165,target,"[(1077, 812)]",[],[1],[0.55],vertical,"(890.0, 762.0)",0.9166666666666666,0.512,1,848.312,1
0,166,target,"[(1065, 823)]",[],[1],[0.6333333333333333],vertical,"(890.0, 762.0)",0.6166666666666667,0.592,1,853.649,1
0,167,target,"[(1037, 810)]",[],[1],[0.55],horizontal,"(390.0, 262.0)",0.85,0.509,1,858.377,1
0,168,target,"[(1057, 823)]",[],[1],[0.43333333333333335],horizontal,"(390.0, 262.0)",1.2,0.393,1,863.494,2
0,169,target,"[(1037, 828)]",[],[1],[0.65],horizontal,"(390.0, 262.0)",1.3,0.606,1,869.095,1
0,170,catch,"[(1058, 803)]",[],[1],[0.05],horizontal,"(390.0, 262.0)",1.15,nan,1,874.103,1
0,171,target,"[(1061, 816)]",[],[1],[],horizontal,"(890.0, 762.0)",,"('cti', 1.649)",0,879.11,0
0,172,target,"[(1057, 833)]",[],[1],[0.16666666666666666],horizontal,"(390.0, 262.0)",1.5,0.134,1,883.778,1
0,173,target,"[(1047, 808)]",[],[1],[0.3],vertical,"(390.0, 262.0)",1.5166666666666666,0.266,1,888.974,1
0,174,target,"[(1057, 808)]",[],[1],[],horizontal,"(390.0, 762.0)",,"('cti', 1.534)",0,894.547,0
0,175,target,"[(1059, 829)]",[],[1],[0.15],vertical,"(890.0, 262.0)",1.65,0.117,1,899.333,1
0,176,target,"[(1065, 799)]",[],[1],[0.43333333333333335],horizontal,"(890.0, 262.0)",1.1833333333333333,0.396,1,904.577,1
0,177,target,"[(1057, 823)]",[],[1],[0.6333333333333333],horizontal,"(390.0, 762.0)",1.1,0.594,1,910.317,1
0,178,target,"[(1033, 818)]",[],[1],[0.5666666666666667],horizontal,"(890.0, 262.0)",0.9,0.526,1,915.402,2
0,179,target,"[(1061, 809)]",[],[1],[0.48333333333333334],vertical,"(390.0, 262.0)",1.2666666666666666,0.44,1,921.162,1
0,180,target,"[(1044, 816)]",[],[1],[0.35],horizontal,"(890.0, 762.0)",1.2,0.309,1,926.332,1
0,181,target,"[(1061, 818)]",[],[1],[0.5333333333333333],horizontal,"(390.0, 262.0)",0.9,0.499,1,931.61,1
0,182,target,"[(1057, 808)]",[],[1],[0.18333333333333332],horizontal,"(390.0, 262.0)",1.4166666666666667,0.152,1,936.895,2
0,183,target,"[(1057, 818)]",[],[1],[0.36666666666666664],vertical,"(890.0, 762.0)",1.2166666666666666,0.338,1,942.226,1
0,184,target,"[(1059, 821)]",[],[1],[0.85],horizontal,"(390.0, 762.0)",0.55,nan,0,947.328,0
0,185,target,"[(1039, 805)]",[],[1],[0.55],horizontal,"(390.0, 762.0)",1.1,0.509,1,951.899,1
0,186,target,"[(1057, 811)]",[],[1],[0.6333333333333333],horizontal,"(890.0, 762.0)",0.85,0.587,1,957.454,1
0,187,target,"[(1038, 813)]",[],[1],[0.85],vertical,"(890.0, 262.0)",0.5666666666666667,nan,0,962.721,0
0,188,target,"[(1029, 823)]",[],[1],[0.6833333333333333],horizontal,"(390.0, 762.0)",0.5166666666666666,0.643,1,966.878,1
0,189,target,"[(1067, 829)]",[],[1],[],horizontal,"(890.0, 762.0)",,"('cti', 1.627)",0,976.22,0
0,190,target,"[(1041, 826)]",[],[1],[0.08333333333333333],horizontal,"(890.0, 762.0)",1.6666666666666667,0.052,1,981.519,1
0,191,target,"[(1041, 831)]",[],[1],[0.5166666666666666],horizontal,"(390.0, 262.0)",1.5166666666666666,0.482,1,987.187,1
0,192,target,"[(1046, 805)]",[],[1],[0.85],vertical,"(390.0, 762.0)",0.9333333333333333,nan,0,992.377,0
0,193,target,"[(1034, 818)]",[],[1],[0.7166666666666667],vertical,"(390.0, 262.0)",0.9,0.678,1,997.254,1
0,194,target,"[(1055, 809)]",[],[1],[0.65],vertical,"(390.0, 262.0)",0.65,0.62,1,1002.442,1
0,195,target,"[(1068, 814)]",[],[1],[0.5666666666666667],horizontal,"(390.0, 762.0)",0.9833333333333333,0.526,1,1007.443,1
0,196,target,"[(1031, 809)]",[],[1],[0.5333333333333333],horizontal,"(890.0, 262.0)",0.6166666666666667,0.5,1,1012.323,2
0,197,target,"[(1033, 794)]",[],[1],[0.35],vertical,"(890.0, 262.0)",1.1666666666666667,0.315,1,1017.177,1
0,198,target,"[(1041, 828)]",[],[1],[0.5666666666666667],horizontal,"(390.0, 262.0)",1.2,0.532,1,1022.366,1
0,199,target,"[(1038, 806)]",[],[1],[0.3833333333333333],vertical,"(890.0, 262.0)",1.3833333333333333,0.346,1,1027.993,1
0,200,target,"[(1035, 809)]",[],[1],[0.5666666666666667],horizontal,"(390.0, 762.0)",0.7833333333333333,0.523,1,1032.96,2
0,201,target,"[(1042, 800)]",[],[1],[0.5333333333333333],horizontal,"(390.0, 262.0)",0.65,0.497,1,1038.129,1
0,202,target,"[(1058, 811)]",[],[1],[0.25],horizontal,"(390.0, 262.0)",1.4666666666666666,0.216,1,1042.737,1
0,203,catch,"[(1060, 809)]",[],[1],[0.05],horizontal,"(390.0, 262.0)",1.3,nan,1,1048.161,1
0,204,catch,"[(1037, 815)]",[],[1],[0.05],horizontal,"(390.0, 762.0)",1.1666666666666667,nan,1,1053.16,2
0,205,target,"[(1033, 797)]",[],[1],[0.3333333333333333],horizontal,"(390.0, 762.0)",1.15,0.3,1,1058.712,1
0,206,target,"[(1037, 806)]",[],[1],[0.5333333333333333],vertical,"(890.0, 762.0)",1.1333333333333333,0.493,1,1063.512,1
0,207,target,"[(1037, 821)]",[],[1],[0.85],vertical,"(890.0, 262.0)",1.5166666666666666,"('cti', 1.506),nan",0,1068.596,0
0,208,target,"[(1032, 839)]",[],[1],[0.5333333333333333],horizontal,"(890.0, 762.0)",1.0833333333333333,0.502,1,1074.27,1
0,209,target,"[(1057, 816)]",[],[1],[0.6166666666666667],horizontal,"(390.0, 262.0)",0.5166666666666666,0.581,1,1079.512,1
0,210,target,"[(1049, 829)]",[],[1],[],vertical,"(890.0, 262.0)",,"('cti', 1.625)",0,1084.087,0
0,211,target,"[(1036, 834)]",[],[1],[0.55],vertical,"(390.0, 262.0)",1.1833333333333333,0.512,1,1088.645,1
0,212,target,"[(1042, 809)]",[],[1],[0.5166666666666666],horizontal,"(890.0, 262.0)",1.5,0.472,1,1094.144,1
0,213,target,"[(1019, 806)]",[],[1],[0.3333333333333333],vertical,"(390.0, 762.0)",1.3833333333333333,0.3,1,1099.794,1
0,214,target,"[(1037, 823)]",[],[1],[0.18333333333333332],horizontal,"(390.0, 762.0)",1.2,0.147,1,1105.295,2
0,215,target,"[(1033, 795)]",[],[1],[0.5666666666666667],horizontal,"(890.0, 262.0)",0.7,0.52,1,1110.839,1
0,216,target,"[(1038, 805)]",[],[1],[0.85],horizontal,"(390.0, 262.0)",0.6,nan,0,1115.85,0
0,217,target,"[(1032, 804)]",[],[1],[0.7166666666666667],horizontal,"(390.0, 762.0)",1.1333333333333333,0.684,1,1120.12,1
0,218,target,"[(1057, 822)]",[],[1],[0.5166666666666666],horizontal,"(890.0, 262.0)",0.5333333333333333,0.483,1,1125.515,1
0,219,target,"[(1061, 828)]",[],[1],[0.5],vertical,"(890.0, 262.0)",1.0833333333333333,0.466,1,1130.167,1
0,220,target,"[(1053, 820)]",[],[1],[0.43333333333333335],horizontal,"(890.0, 762.0)",1.0333333333333332,0.4,1,1135.663,2
0,221,target,"[(1040, 817)]",[],[1],[0.55],horizontal,"(390.0, 262.0)",0.85,0.516,1,1140.91,1
0,222,target,"[(1060, 817)]",[],[1],[0.15],vertical,"(890.0, 262.0)",1.0833333333333333,0.121,1,1145.698,1
0,223,target,"[(1038, 808)]",[],[1],[0.5],horizontal,"(390.0, 262.0)",0.9,0.464,1,1150.93,1
0,224,target,"[(1039, 813)]",[],[1],[0.6166666666666667],vertical,"(890.0, 262.0)",0.8833333333333333,0.572,1,1155.825,2
0,225,target,"[(1032, 783)]",[],[1],[0.21666666666666667],vertical,"(390.0, 262.0)",1.5,0.185,1,1161.046,1
0,226,target,"[(1042, 799)]",[],[1],[0.6333333333333333],horizontal,"(890.0, 262.0)",1.0,0.601,1,1165.895,1
0,227,target,"[(1057, 815)]",[],[1],[0.7],horizontal,"(890.0, 762.0)",0.55,0.661,1,1171.063,1
0,228,target,"[(1037, 824)]",[],[1],[0.5833333333333334],vertical,"(390.0, 762.0)",1.2333333333333334,0.542,1,1176.22,2
0,229,target,"[(1038, 810)]",[],[1],[0.5333333333333333],horizontal,"(390.0, 762.0)",1.1666666666666667,0.495,1,1181.812,1
0,230,target,"[(1059, 808)]",[],[1],[0.4666666666666667],horizontal,"(890.0, 762.0)",1.2833333333333332,0.428,1,1186.863,1
0,231,target,"[(1057, 824)]",[],[1],[0.48333333333333334],horizontal,"(890.0, 262.0)",1.05,0.444,1,1191.745,1
0,232,target,"[(1044, 812)]",[],[1],[0.55],horizontal,"(390.0, 262.0)",0.8333333333333334,0.506,1,1197.05,2
0,233,target,"[(1025, 837)]",[],[1],[0.55],vertical,"(390.0, 262.0)",1.0166666666666666,0.513,1,1202.313,1
0,234,target,"[(1029, 815)]",[],[1],[0.5666666666666667],horizontal,"(390.0, 262.0)",0.7,0.525,1,1208.063,1
0,235,target,"[(1039, 810)]",[],[1],[0.4],horizontal,"(390.0, 762.0)",1.25,0.36,1,1213.079,1
0,236,target,"[(1033, 821)]",[],[1],[0.11666666666666667],horizontal,"(390.0, 762.0)",1.5333333333333332,0.084,1,1217.96,2
0,237,target,"[(1040, 819)]",[],[1],[0.4166666666666667],horizontal,"(390.0, 762.0)",1.0833333333333333,0.38,1,1224.197,1
0,238,target,"[(1036, 806)]",[],[1],[0.3],vertical,"(390.0, 262.0)",1.3166666666666667,0.268,1,1229.725,1
0,239,target,"[(1061, 807)]",[],[1],[0.55],vertical,"(890.0, 262.0)",0.5666666666666667,0.508,1,1235.386,1
0,240,target,"[(1061, 820)]",[],[1],[0.6166666666666667],vertical,"(890.0, 762.0)",1.0666666666666667,0.571,1,1240.336,2
0,241,catch,"[(1038, 804)]",[],[1],[0.05],horizontal,"(390.0, 762.0)",1.2333333333333334,nan,1,1246.147,1
0,242,target,"[(1045, 813)]",[],[1],[0.4166666666666667],vertical,"(390.0, 762.0)",1.25,0.378,1,1250.931,1
0,243,target,"[(1036, 807)]",[],[1],[0.85],vertical,"(390.0, 762.0)",0.65,nan,0,1256.413,0
0,244,target,"[(1035, 793)]",[],[1],[0.26666666666666666],horizontal,"(390.0, 762.0)",1.3666666666666667,0.23,1,1261.18,1
0,245,target,"[(1033, 825)]",[],[1],[0.21666666666666667],vertical,"(390.0, 262.0)",1.35,0.184,1,1266.309,1
0,246,target,"[(1037, 810)]",[],[1],[0.25],vertical,"(390.0, 262.0)",1.5,0.214,1,1271.296,1
0,247,target,"[(1045, 816)]",[],[1],[0.6833333333333333],horizontal,"(390.0, 262.0)",0.5333333333333333,0.644,1,1276.688,2
0,248,target,"[(1033, 806)]",[],[1],[0.36666666666666664],vertical,"(890.0, 762.0)",1.2333333333333334,0.323,1,1281.997,1
0,249,target,"[(1033, 810)]",[],[1],[0.5666666666666667],horizontal,"(390.0, 762.0)",1.2166666666666666,0.528,1,1287.046,1
0,250,target,"[(1022, 795)]",[],[1],[0.48333333333333334],vertical,"(890.0, 262.0)",1.0166666666666666,0.45,1,1292.212,1
0,251,target,"[(1057, 809)]",[],[1],[0.3833333333333333],horizontal,"(890.0, 262.0)",1.15,0.343,1,1297.001,2
0,252,target,"[(1036, 805)]",[],[1],[0.85],horizontal,"(890.0, 262.0)",1.3833333333333333,"('cti', 1.413),nan",0,1302.876,0
0,253,target,"[(336, 393), (1010, 854)]",[],"[0, 1]",[],vertical,"(890.0, 762.0)",,"('cti', 1.453)",0,1308.471,0
0,254,target,"[(1057, 834)]",[],[1],[0.43333333333333335],vertical,"(890.0, 262.0)",1.3166666666666667,0.395,1,1355.945,1
0,255,target,"[(1032, 813)]",[],[1],[0.65],vertical,"(390.0, 262.0)",0.7666666666666666,0.605,1,1361.214,1
0,256,target,"[(1037, 828)]",[],[1],[0.6333333333333333],vertical,"(390.0, 762.0)",0.7,0.591,1,1365.912,1
0,257,target,"[(1034, 791)]",[],[1],[0.5833333333333334],vertical,"(890.0, 262.0)",0.6333333333333333,0.542,1,1370.78,2
0,258,target,"[(1050, 813)]",[],[1],[0.7166666666666667],vertical,"(390.0, 762.0)",0.85,0.662,1,1375.924,1
0,259,target,"[(1024, 799)]",[],[1],[],vertical,"(390.0, 762.0)",,"('cti', 1.633)",0,1380.863,0
0,260,target,"[(998, 802), (1010, 829)]",[],"[0, 1]",[0.6],horizontal,"(890.0, 762.0)",0.7333333333333333,0.563,1,1387.358,1
0,261,target,"[(1045, 790)]",[],[1],[0.5166666666666666],horizontal,"(890.0, 262.0)",0.75,0.474,1,1394.295,1
0,262,target,"[(1037, 813)]",[],[1],[0.48333333333333334],horizontal,"(890.0, 762.0)",1.05,0.443,1,1399.364,1
0,263,target,"[(1057, 828)]",[],[1],[0.4666666666666667],vertical,"(390.0, 262.0)",1.3,0.424,1,1404.586,2
0,264,target,"[(1030, 806)]",[],[1],[0.5666666666666667],vertical,"(390.0, 262.0)",0.9666666666666667,0.524,1,1410.258,1
0,265,target,"[(1039, 810)]",[],[1],[0.18333333333333332],vertical,"(890.0, 262.0)",1.6,0.15,1,1414.941,1
0,266,catch,"[(1054, 794)]",[],[1],[],vertical,"(390.0, 762.0)",,"('cti', 1.489)",0,1420.296,0
0,267,target,"[(1018, 847)]",[],[1],[0.7333333333333333],horizontal,"(890.0, 262.0)",1.3833333333333333,0.689,1,1425.155,1
0,268,target,"[(1017, 822)]",[],[1],[0.6833333333333333],horizontal,"(390.0, 262.0)",0.5333333333333333,0.639,1,1431.812,1
0,269,target,"[(1028, 799)]",[],[1],[0.55],vertical,"(890.0, 762.0)",1.2166666666666666,0.512,1,1436.376,1
0,270,target,"[(1021, 808)]",[],[1],[0.65],vertical,"(390.0, 762.0)",0.7333333333333333,0.608,1,1441.884,2
0,271,target,"[(1050, 808)]",[],[1],[0.5666666666666667],vertical,"(890.0, 762.0)",1.5166666666666666,0.528,1,1446.933,1
0,272,target,"[(1048, 833)]",[],[1],[0.18333333333333332],horizontal,"(890.0, 762.0)",1.4166666666666667,0.15,1,1452.316,1
0,273,target,"[(1033, 808)]",[],[1],[0.08333333333333333],horizontal,"(390.0, 762.0)",1.6333333333333333,0.05,1,1457.536,1
0,274,target,"[(1046, 816)]",[],[1],[0.11666666666666667],vertical,"(390.0, 262.0)",1.45,0.084,1,1462.641,2
0,275,target,"[(1049, 805)]",[],[1],[0.6833333333333333],vertical,"(390.0, 262.0)",0.6,0.637,1,1468.128,1
0,276,target,"[(1048, 816)]",[],[1],[0.6833333333333333],vertical,"(390.0, 262.0)",1.05,0.642,1,1472.456,1
0,277,target,"[(1043, 800)]",[],[1],[0.5333333333333333],horizontal,"(890.0, 762.0)",1.2666666666666666,0.494,1,1477.524,1
0,278,target,"[(1058, 809)]",[],[1],[],horizontal,"(390.0, 262.0)",,"('cti', 1.524)",0,1483.254,0
0,279,catch,"[(1037, 813)]",[],[1],[0.05],horizontal,"(890.0, 262.0)",1.0666666666666667,nan,1,1487.93,1
0,280,target,"[(1033, 821)]",[],[1],[0.6333333333333333],vertical,"(890.0, 262.0)",1.2,0.598,1,1492.58,1
0,281,target,"[(1036, 809)]",[],[1],[0.8333333333333334],vertical,"(390.0, 262.0)",0.7333333333333333,0.783,1,1498.081,1
0,282,target,"[(1054, 807)]",[],[1],[0.85],vertical,"(390.0, 762.0)",0.6666666666666666,nan,0,1503.431,0
0,283,target,"[(1017, 835)]",[],[1],[0.25],horizontal,"(890.0, 262.0)",1.55,0.215,1,1507.73,1
0,284,target,"[(1010, 791)]",[],[1],[0.3833333333333333],horizontal,"(890.0, 762.0)",1.25,0.346,1,1517.197,1
0,285,target,"[(1057, 829)]",[],[1],[0.6],vertical,"(890.0, 762.0)",0.5333333333333333,0.555,1,1522.897,1
0,286,target,"[(1059, 816)]",[],[1],[],vertical,"(890.0, 762.0)",,"('cti', 1.301)",0,1527.63,0
0,287,catch,"[(1035, 824)]",[],[1],[0.05],vertical,"(890.0, 762.0)",1.0666666666666667,nan,1,1532.138,1
0,288,target,"[(1035, 819)]",[],[1],[0.5333333333333333],horizontal,"(390.0, 262.0)",0.7,0.49,1,1537.031,1
0,289,target,"[(1057, 802)]",[],[1],[0.31666666666666665],horizontal,"(890.0, 262.0)",1.2166666666666666,0.289,1,1542.082,1
0,290,catch,"[(1019, 808)]",[],[1],[],horizontal,"(890.0, 262.0)",,"('cti', 1.458)",0,1547.426,0
0,291,target,"[(1037, 812)]",[],[1],[0.16666666666666666],horizontal,"(390.0, 262.0)",1.6333333333333333,0.134,1,1552.469,1
0,292,target,"[(1057, 829)]",[],[1],[0.5166666666666666],vertical,"(890.0, 262.0)",0.9833333333333333,0.477,1,1557.981,1
0,293,target,"[(1061, 813)]",[],[1],[0.16666666666666666],horizontal,"(890.0, 762.0)",1.4166666666666667,0.133,1,1563.062,1
0,294,target,"[(1045, 820)]",[],[1],[0.85],vertical,"(390.0, 762.0)",1.1666666666666667,nan,0,1568.298,0
0,295,target,"[(1033, 820)]",[],[1],[0.06666666666666667],horizontal,"(890.0, 762.0)",1.6833333333333333,0.035,1,1573.073,1
0,296,target,"[(1057, 820)]",[],[1],[0.5166666666666666],horizontal,"(890.0, 262.0)",1.6666666666666667,0.479,1,1578.26,1
0,297,catch,"[(1039, 814)]",[],[1],[0.05],vertical,"(390.0, 762.0)",1.1666666666666667,nan,1,1583.58,1
0,298,target,"[(1060, 816)]",[],[1],[0.85],vertical,"(390.0, 762.0)",0.8,nan,0,1588.489,0
0,299,target,"[(1037, 799)]",[],[1],[0.7166666666666667],horizontal,"(390.0, 762.0)",0.9333333333333333,0.681,1,1592.965,1
0,300,target,"[(1058, 827)]",[],[1],[0.6333333333333333],horizontal,"(390.0, 262.0)",0.7166666666666667,0.598,1,1598.047,1
0,301,target,"[(1044, 810)]",[],[1],[0.5833333333333334],horizontal,"(390.0, 762.0)",0.6333333333333333,0.55,1,1602.631,1
0,302,target,"[(1054, 807)]",[],[1],[0.5833333333333334],vertical,"(390.0, 262.0)",0.6333333333333333,0.544,1,1607.053,2
0,303,target,"[(1037, 813)]",[],[1],[0.5666666666666667],horizontal,"(390.0, 262.0)",1.5833333333333333,0.53,1,1611.982,1
0,304,catch,"[(1057, 804)]",[],[1],[0.05],horizontal,"(390.0, 262.0)",1.3833333333333333,nan,1,1617.365,1
0,305,target,"[(1057, 800)]",[],[1],[0.26666666666666666],vertical,"(890.0, 762.0)",1.25,0.235,1,1622.081,1
0,306,catch,"[(1054, 830)]",[],[1],[0.05],horizontal,"(390.0, 262.0)",1.0333333333333332,nan,1,1627.781,2
0,307,target,"[(1057, 804)]",[],[1],[0.3],horizontal,"(890.0, 262.0)",0.95,0.263,1,1632.798,1
0,308,target,"[(1055, 800)]",[],[1],[0.5666666666666667],horizontal,"(890.0, 762.0)",1.0666666666666667,0.526,1,1637.949,1
0,309,target,"[(1037, 812)]",[],[1],[0.5666666666666667],vertical,"(390.0, 762.0)",0.9333333333333333,0.532,1,1643.086,1
0,310,target,"[(1057, 807)]",[],[1],[0.11666666666666667],vertical,"(890.0, 762.0)",1.45,0.086,1,1648.569,2
0,311,target,"[(1039, 803)]",[],[1],[0.7833333333333333],vertical,"(390.0, 262.0)",0.5,0.746,1,1654.082,1
0,312,target,"[(1058, 828)]",[],[1],[0.08333333333333333],vertical,"(390.0, 262.0)",1.35,0.054,1,1658.674,1
0,313,catch,"[(1037, 787)]",[],[1],[0.05],horizontal,"(890.0, 762.0)",1.2166666666666666,nan,1,1664.099,1
0,314,target,"[(1033, 811)]",[],[1],[0.6333333333333333],vertical,"(390.0, 262.0)",1.2833333333333332,0.598,1,1668.598,2
0,315,target,"[(1057, 818)]",[],[1],[0.7333333333333333],vertical,"(390.0, 262.0)",0.9166666666666666,0.693,1,1674.064,1
0,316,target,"[(1044, 813)]",[],[1],[0.6],horizontal,"(390.0, 762.0)",1.0666666666666667,0.563,1,1679.414,1
0,317,target,"[(1041, 799)]",[],[1],[0.13333333333333333],vertical,"(890.0, 262.0)",1.5333333333333332,0.103,1,1684.581,1
0,318,target,"[(1058, 797)]",[],[1],[0.65],horizontal,"(390.0, 762.0)",0.65,0.607,1,1690.058,2
0,319,target,"[(1061, 803)]",[],[1],[0.5833333333333334],vertical,"(890.0, 262.0)",0.6333333333333333,0.547,1,1694.956,1
0,320,target,"[(1058, 821)]",[],[1],[0.08333333333333333],horizontal,"(390.0, 262.0)",1.55,0.051,1,1699.869,1
0,321,target,"[(1034, 812)]",[],[1],[0.6166666666666667],horizontal,"(390.0, 762.0)",0.6333333333333333,0.573,1,1705.306,1
0,322,target,"[(1057, 821)]",[],[1],[0.23333333333333334],vertical,"(890.0, 762.0)",1.25,0.204,1,1709.992,2
0,323,target,"[(1057, 813)]",[],[1],[0.3833333333333333],horizontal,"(390.0, 262.0)",1.45,0.345,1,1715.866,1
0,324,target,"[(1037, 812)]",[],[1],[0.6],vertical,"(890.0, 762.0)",0.7666666666666666,0.561,1,1720.899,1
0,325,catch,"[(1038, 796)]",[],[1],[0.05],vertical,"(390.0, 762.0)",1.1166666666666667,nan,1,1725.792,1
0,326,target,"[(1061, 820)]",[],[1],[0.6666666666666666],vertical,"(890.0, 762.0)",0.8833333333333333,0.618,1,1730.949,2
0,327,target,"[(1041, 804)]",[],[1],[0.85],vertical,"(890.0, 762.0)",0.9,nan,0,1736.482,0
0,328,target,"[(998, 807), (1040, 848)]",[],"[0, 1]",[0.5833333333333334],horizontal,"(390.0, 262.0)",1.2333333333333334,0.548,1,1741.065,1
0,329,target,"[(1037, 815)]",[],[1],[0.65],vertical,"(890.0, 262.0)",0.5666666666666667,0.612,1,1748.003,1
0,330,catch,"[(1037, 829)]",[],[1],[0.05],horizontal,"(890.0, 762.0)",1.45,nan,1,1752.846,1
0,331,target,"[(1057, 820)]",[],[1],[],vertical,"(390.0, 762.0)",,"('cti', 1.539)",0,1758.164,0
0,332,target,"[(1037, 827)]",[],[1],[0.6666666666666666],vertical,"(890.0, 262.0)",1.2166666666666666,0.624,1,1763.098,1
0,333,target,"[(1041, 818)]",[],[1],[0.2],vertical,"(890.0, 762.0)",1.3666666666666667,0.164,1,1768.254,1
0,334,target,"[(1071, 811)]",[],[1],[0.5833333333333334],horizontal,"(890.0, 762.0)",0.6,0.544,1,1773.627,1
0,335,target,"[(1034, 803)]",[],[1],[0.5666666666666667],vertical,"(890.0, 762.0)",1.5,0.532,1,1778.383,2
0,336,target,"[(1039, 818)]",[],[1],[0.16666666666666666],horizontal,"(890.0, 762.0)",1.6,0.133,1,1783.994,1
0,337,target,"[(1058, 823)]",[],[1],[0.5166666666666666],horizontal,"(390.0, 762.0)",0.9,0.475,1,1789.298,1
0,338,target,"[(1046, 811)]",[],[1],[0.2833333333333333],horizontal,"(390.0, 762.0)",1.25,0.251,1,1794.7,1
0,339,target,"[(1039, 822)]",[],[1],[0.35],vertical,"(890.0, 762.0)",1.2333333333333334,0.313,1,1800.083,2
0,340,target,"[(1055, 807)]",[],[1],[],vertical,"(390.0, 262.0)",,"('cti', 1.585)",0,1805.933,0
0,341,target,"[(1051, 825)]",[],[1],[0.45],vertical,"(390.0, 262.0)",1.6333333333333333,0.417,1,1810.401,1
0,342,target,"[(1061, 791)]",[],[1],[],vertical,"(890.0, 762.0)",,"('cti', 1.615)",0,1816.033,0
0,343,target,"[(1041, 814)]",[],[1],[0.4166666666666667],vertical,"(890.0, 262.0)",1.4,0.377,1,1820.927,1
0,344,catch,"[(1031, 820)]",[],[1],[],vertical,"(890.0, 762.0)",,"('cti', 1.58)",0,1826.101,0
0,345,target,"[(1037, 814)]",[],[1],[0.6],vertical,"(890.0, 262.0)",0.7166666666666667,0.555,1,1830.91,1
0,346,target,"[(1015, 864)]",[],[1],[0.65],vertical,"(890.0, 262.0)",1.25,0.599,1,1836.016,1
0,347,target,"[(1024, 852)]",[],[1],[0.6666666666666666],horizontal,"(890.0, 762.0)",0.6666666666666666,0.633,1,2983.295,1
0,348,target,"[(1003, 836), (1042, 852)]",[],"[0, 1]",[0.1],horizontal,"(390.0, 262.0)",1.4833333333333334,0.066,1,2988.301,2
0,349,catch,"[(1058, 829)]",[],[1],[0.05],vertical,"(390.0, 262.0)",1.1,nan,1,2995.722,1
0,350,target,"[(1029, 817)]",[],[1],[0.6166666666666667],horizontal,"(390.0, 762.0)",0.55,0.573,1,3000.423,1
0,351,target,"[(1047, 817)]",[],[1],[0.2833333333333333],vertical,"(390.0, 762.0)",1.3666666666666667,0.249,1,3005.137,1
0,352,target,"[(1032, 815)]",[],[1],[0.85],horizontal,"(390.0, 762.0)",1.6666666666666667,"('cti', 1.644),nan",0,3010.388,0
0,353,target,"[(1017, 828)]",[],[1],[0.75],horizontal,"(390.0, 262.0)",0.75,0.707,1,3015.822,1
0,354,catch,"[(1038, 807)]",[],[1],[0.05],vertical,"(390.0, 762.0)",1.0,nan,1,3020.987,1
0,355,target,"[(1030, 792)]",[],[1],[0.6333333333333333],horizontal,"(890.0, 262.0)",1.4333333333333333,0.585,1,3025.485,1
0,356,target,"[(1054, 817)]",[],[1],[0.7333333333333333],horizontal,"(890.0, 262.0)",1.1666666666666667,0.689,1,3030.803,2
0,357,target,"[(1030, 790)]",[],[1],[0.7833333333333333],vertical,"(390.0, 762.0)",1.0,0.737,1,3036.438,1
0,358,target,"[(1058, 826)]",[],[1],[0.5166666666666666],horizontal,"(890.0, 262.0)",0.85,0.482,1,3042.173,1
0,359,target,"[(1049, 822)]",[],[1],[0.55],horizontal,"(390.0, 262.0)",1.25,0.509,1,3047.313,1
0,360,target,"[(1036, 809)]",[],[1],[0.6166666666666667],vertical,"(890.0, 762.0)",0.75,0.573,1,3052.808,2
0,361,catch,"[(1029, 816)]",[],[1],[0.05],vertical,"(890.0, 262.0)",1.5833333333333333,nan,1,3058.383,1
0,362,target,"[(1022, 847)]",[],[1],[0.7166666666666667],vertical,"(390.0, 262.0)",1.55,0.665,1,3063.391,1
0,363,target,"[(1062, 820)]",[],[1],[0.3833333333333333],vertical,"(390.0, 762.0)",1.05,0.341,1,3069.755,1
0,364,target,"[(1029, 802)]",[],[1],[],vertical,"(890.0, 762.0)",,"('cti', 1.383)",0,3074.917,0
0,365,catch,"[(1032, 826)]",[],[1],[0.05],vertical,"(890.0, 262.0)",1.5333333333333332,nan,1,3079.638,1
0,366,target,"[(1042, 810)]",[],[1],[0.3833333333333333],horizontal,"(390.0, 762.0)",1.2166666666666666,0.349,1,3084.771,1
0,367,target,"[(1053, 802)]",[],[1],[0.2],vertical,"(390.0, 262.0)",1.3666666666666667,0.165,1,3090.154,1
0,368,target,"[(1035, 808)]",[],[1],[0.85],horizontal,"(890.0, 762.0)",0.5333333333333333,nan,0,3095.169,0
0,369,target,"[(1037, 813)]",[],[1],[0.8],horizontal,"(390.0, 762.0)",1.6,0.75,1,3099.705,1
0,370,target,"[(1072, 813)]",[],[1],[0.31666666666666665],horizontal,"(890.0, 262.0)",1.4666666666666666,0.28,1,3105.441,1
0,371,target,"[(1057, 808)]",[],[1],[0.6833333333333333],horizontal,"(390.0, 762.0)",0.8833333333333333,0.643,1,3110.6,1
0,372,target,"[(1033, 803)]",[],[1],[0.3],vertical,"(390.0, 262.0)",1.4,0.265,1,3115.672,2
0,373,catch,"[(1022, 805)]",[],[1],[0.05],horizontal,"(890.0, 762.0)",1.25,nan,1,3121.189,1
0,374,target,"[(1037, 813)]",[],[1],[0.4666666666666667],horizontal,"(890.0, 762.0)",1.3166666666666667,0.424,1,3125.805,1
0,375,target,"[(1022, 808)]",[],[1],[0.05],vertical,"(890.0, 762.0)",1.5666666666666667,0.018,1,3130.998,1
0,376,target,"[(1035, 814)]",[],[1],[0.6166666666666667],vertical,"(890.0, 262.0)",1.0333333333333332,0.571,1,3136.254,2
0,377,target,"[(1042, 813)]",[],[1],[0.55],vertical,"(390.0, 262.0)",1.1666666666666667,0.512,1,3142.154,1
0,378,target,"[(1042, 805)]",[],[1],[0.5166666666666666],horizontal,"(890.0, 262.0)",1.0,0.475,1,3147.564,1
0,379,target,"[(1035, 817)]",[],[1],[0.35],vertical,"(390.0, 762.0)",1.0166666666666666,0.321,1,3152.486,1
0,380,target,"[(1034, 783)]",[],[1],[0.5666666666666667],horizontal,"(390.0, 762.0)",0.6166666666666667,0.528,1,3157.5,2
0,381,target,"[(1038, 808)]",[],[1],[0.45],vertical,"(890.0, 762.0)",1.15,0.418,1,3162.055,1
0,382,target,"[(1057, 803)]",[],[1],[],horizontal,"(390.0, 762.0)",,"('cti', 1.183)",0,3167.601,0
0,383,catch,"[(1042, 817)]",[],[1],[0.05],horizontal,"(390.0, 262.0)",1.1666666666666667,nan,1,3172.071,1
0,384,target,"[(1060, 809)]",[],[1],[0.6166666666666667],vertical,"(390.0, 262.0)",1.0,0.572,1,3177.041,1
0,385,target,"[(1057, 804)]",[],[1],[0.65],vertical,"(390.0, 762.0)",1.0,0.605,1,3182.546,1
0,386,target,"[(1061, 792)]",[],[1],[0.6166666666666667],vertical,"(390.0, 262.0)",1.1666666666666667,0.577,1,3187.58,2
0,387,catch,"[(1033, 804)]",[],[1],[0.05],vertical,"(390.0, 762.0)",1.5166666666666666,nan,1,3193.507,1
0,388,target,"[(1062, 795)]",[],[1],[0.5833333333333334],vertical,"(890.0, 762.0)",0.8333333333333334,0.546,1,3198.474,1
0,389,catch,"[(1040, 786)]",[],[1],[0.05],vertical,"(890.0, 262.0)",1.2666666666666666,nan,1,3203.272,1
0,390,target,"[(1056, 810)]",[],[1],[0.7333333333333333],vertical,"(390.0, 762.0)",0.7833333333333333,0.69,1,3207.973,2
0,391,target,"[(1037, 799)]",[],[1],[0.55],horizontal,"(390.0, 262.0)",1.0666666666666667,0.518,1,3213.805,1
0,392,target,"[(1040, 787)]",[],[1],[0.6666666666666666],vertical,"(390.0, 762.0)",1.1833333333333333,0.628,1,3219.312,1
0,393,target,"[(1041, 803)]",[],[1],[0.6],vertical,"(390.0, 262.0)",0.9666666666666667,0.561,1,3224.622,1
0,394,target,"[(1057, 802)]",[],[1],[0.18333333333333332],horizontal,"(390.0, 762.0)",1.65,0.153,1,3229.563,2
0,395,target,"[(1036, 800)]",[],[1],[0.85],horizontal,"(390.0, 762.0)",1.4166666666666667,nan,0,3235.156,0
0,396,target,"[(1026, 810)]",[],[1],[0.5333333333333333],horizontal,"(390.0, 762.0)",1.35,0.494,1,3240.189,1
0,397,target,"[(1072, 813)]",[],[1],[0.6],horizontal,"(890.0, 762.0)",0.75,0.563,1,3245.349,1
0,398,target,"[(1061, 817)]",[],[1],[0.6666666666666666],vertical,"(390.0, 762.0)",1.0833333333333333,0.626,1,3250.088,1
0,399,target,"[(1034, 783)]",[],[1],[0.5833333333333334],horizontal,"(890.0, 262.0)",0.7333333333333333,0.546,1,3255.306,2
0,400,catch,"[(1060, 793)]",[],[1],[0.05],vertical,"(890.0, 262.0)",1.3166666666666667,nan,1,3260.872,1
0,401,target,"[(1057, 809)]",[],[1],[0.26666666666666666],vertical,"(890.0, 762.0)",1.2666666666666666,0.23,1,3265.576,1
0,402,target,"[(1055, 792)]",[],[1],[0.5],vertical,"(890.0, 262.0)",1.3166666666666667,0.46,1,3270.942,1
0,403,target,"[(1043, 803)]",[],[1],[0.6666666666666666],vertical,"(390.0, 262.0)",0.8,0.615,1,3276.405,2
0,404,target,"[(1051, 790)]",[],[1],[0.5166666666666666],vertical,"(390.0, 262.0)",1.65,0.489,1,3281.75,1
0,405,target,"[(1068, 816)]",[],[1],[0.6666666666666666],vertical,"(890.0, 262.0)",1.6666666666666667,0.622,1,3287.08,1
0,406,target,"[(1048, 809)]",[],[1],[0.7],vertical,"(890.0, 262.0)",0.9666666666666667,0.661,1,3292.601,1
0,407,target,"[(1061, 809)]",[],[1],[0.21666666666666667],horizontal,"(390.0, 762.0)",1.3833333333333333,0.184,1,3297.738,2
0,408,catch,"[(1037, 800)]",[],[1],[0.05],vertical,"(890.0, 762.0)",1.6833333333333333,nan,1,3303.539,1
0,409,target,"[(1053, 799)]",[],[1],[0.55],horizontal,"(890.0, 762.0)",1.05,0.515,1,3308.6,1
0,410,target,"[(1041, 810)]",[],[1],[0.5833333333333334],horizontal,"(390.0, 262.0)",0.5666666666666667,0.549,1,3313.498,1
0,411,target,"[(1022, 799)]",[],[1],[0.6333333333333333],horizontal,"(890.0, 262.0)",0.7,0.6,1,3318.096,2
0,412,target,"[(1065, 812)]",[],[1],[0.3833333333333333],horizontal,"(390.0, 262.0)",1.0833333333333333,0.345,1,3323.237,1
0,413,target,"[(1036, 794)]",[],[1],[0.13333333333333333],horizontal,"(890.0, 262.0)",1.3666666666666667,0.103,1,3328.355,1
0,414,catch,"[(1038, 794)]",[],[1],[],horizontal,"(390.0, 762.0)",,"('cti', 1.257)",0,3333.456,0
0,415,target,"[(1059, 817)]",[],[1],[],vertical,"(890.0, 262.0)",,"('cti', 1.574)",0,3338.047,0
0,416,target,"[(1028, 803)]",[],[1],[0.3333333333333333],horizontal,"(390.0, 762.0)",1.4666666666666666,0.305,1,3343.037,1
0,417,target,"[(1041, 787)]",[],[1],[0.6],horizontal,"(890.0, 762.0)",0.75,0.558,1,3348.102,1
0,418,catch,"[(1042, 785)]",[],[1],[0.05],vertical,"(390.0, 262.0)",1.05,nan,1,3352.839,1
0,419,target,"[(1041, 844)]",[],[1],[0.18333333333333332],horizontal,"(890.0, 262.0)",1.55,0.151,1,3357.838,2
0,420,target,"[(1025, 811)]",[],[1],[0.5666666666666667],vertical,"(890.0, 262.0)",1.3666666666666667,0.531,1,3364.772,1
0,421,target,"[(1058, 808)]",[],[1],"[0.85, 0.85]",vertical,"(390.0, 262.0)",0.5,"0.803,nan",0,3370.214,0
0,422,target,"[(1016, 804)]",[],[1],[0.7],vertical,"(390.0, 762.0)",1.2166666666666666,0.659,1,3374.84,1
0,423,target,"[(1057, 809)]",[],[1],[0.3333333333333333],horizontal,"(890.0, 262.0)",1.2666666666666666,0.294,1,3380.465,1
0,424,target,"[(1037, 823)]",[],[1],[0.6833333333333333],vertical,"(890.0, 262.0)",0.95,0.64,1,3385.838,1
0,425,target,"[(1056, 803)]",[],[1],[0.5],vertical,"(890.0, 262.0)",0.65,0.462,1,3390.856,2
0,426,target,"[(1046, 819)]",[],[1],[0.6],horizontal,"(390.0, 762.0)",0.6,0.558,1,3396.082,1
0,427,target,"[(1036, 803)]",[],[1],[0.6833333333333333],vertical,"(390.0, 262.0)",0.95,0.641,1,3400.68,1
0,428,target,"[(1035, 812)]",[],[1],[0.6833333333333333],horizontal,"(390.0, 762.0)",0.8333333333333334,0.643,1,3406.322,1
0,429,target,"[(1061, 794)]",[],[1],[],vertical,"(890.0, 262.0)",,"('cti', 1.461)",0,3411.109,0
0,430,target,"[(1035, 819)]",[],[1],[0.35],horizontal,"(890.0, 762.0)",1.35,0.313,1,3415.74,1
0,431,catch,"[(1037, 790)]",[],[1],[0.05],horizontal,"(890.0, 762.0)",1.4333333333333333,nan,1,3421.208,1
0,432,target,"[(1037, 794)]",[],[1],[0.7166666666666667],horizontal,"(890.0, 262.0)",0.85,0.673,1,3426.086,1
0,433,target,"[(1045, 787)]",[],[1],[],vertical,"(890.0, 762.0)",,"('cti', 1.538)",0,3431.057,0
0,434,target,"[(1019, 795)]",[],[1],[0.5666666666666667],horizontal,"(890.0, 262.0)",1.1666666666666667,0.522,1,3435.558,1
0,435,target,"[(1035, 809)]",[],[1],[0.11666666666666667],vertical,"(390.0, 262.0)",1.5833333333333333,0.083,1,3441.083,1
0,436,target,"[(1036, 790)]",[],[1],[],horizontal,"(390.0, 262.0)",,"('cti', 1.231)",0,3446.423,0
0,437,target,"[(1030, 798)]",[],[1],[0.8],vertical,"(890.0, 762.0)",0.8333333333333334,0.754,1,3451.141,1
0,438,target,"[(1061, 812)]",[],[1],[0.65],vertical,"(890.0, 262.0)",1.5333333333333332,0.614,1,3456.257,1
0,439,target,"[(1035, 786)]",[],[1],[0.65],horizontal,"(390.0, 762.0)",0.7333333333333333,0.607,1,3461.648,1
0,440,target,"[(1041, 799)]",[],[1],[0.6833333333333333],horizontal,"(390.0, 762.0)",1.0833333333333333,0.641,1,3466.834,2
0,441,target,"[(1045, 787)]",[],[1],[0.8],horizontal,"(890.0, 262.0)",0.65,0.756,1,3472.557,1
0,442,target,"[(1038, 804)]",[],[1],[0.5166666666666666],horizontal,"(890.0, 262.0)",1.0833333333333333,0.479,1,3477.231,1
0,443,target,"[(1061, 810)]",[],[1],[0.11666666666666667],horizontal,"(390.0, 262.0)",1.65,0.086,1,3482.323,1
0,444,target,"[(1043, 806)]",[],[1],[0.7333333333333333],horizontal,"(390.0, 762.0)",0.55,0.697,1,3487.357,2
0,445,target,"[(1064, 799)]",[],[1],[0.85],vertical,"(390.0, 762.0)",1.6666666666666667,nan,0,3492.365,0
0,446,target,"[(1038, 817)]",[],[1],[0.85],vertical,"(390.0, 262.0)",0.6833333333333333,nan,0,3497.665,0
0,447,target,"[(1028, 816)]",[],[1],[],horizontal,"(890.0, 262.0)",,"('cti', 1.279)",0,3502.221,0
0,448,target,"[(1016, 809)]",[],[1],[0.8],vertical,"(890.0, 762.0)",0.9333333333333333,0.759,1,3506.688,1
0,449,target,"[(1033, 798)]",[],[1],[0.6666666666666666],horizontal,"(890.0, 762.0)",0.7166666666666667,0.623,1,3512.564,1
0,450,target,"[(1030, 793)]",[],[1],[0.3],vertical,"(390.0, 262.0)",1.7,0.271,1,3517.305,1
0,451,target,"[(1062, 798)]",[],[1],[0.55],vertical,"(390.0, 262.0)",0.5666666666666667,0.52,1,3522.708,2
0,452,target,"[(1037, 799)]",[],[1],[0.85],vertical,"(890.0, 762.0)",0.7166666666666667,nan,0,3528.072,0
0,453,target,"[(1022, 801)]",[],[1],[0.7166666666666667],vertical,"(390.0, 762.0)",1.0,0.672,1,3532.956,1
0,454,target,"[(1029, 826)]",[],[1],[0.23333333333333334],horizontal,"(890.0, 762.0)",1.55,0.198,1,3538.424,1
0,455,target,"[(1055, 791)]",[],[1],[0.5333333333333333],horizontal,"(890.0, 762.0)",1.3333333333333333,0.493,1,3544.224,1
0,456,catch,"[(1032, 795)]",[],[1],[0.05],horizontal,"(890.0, 262.0)",1.1333333333333333,nan,1,3549.24,2
0,457,target,"[(1033, 803)]",[],[1],[0.6666666666666666],vertical,"(390.0, 762.0)",0.8,0.623,1,3554.756,1
0,458,catch,"[(1046, 781)]",[],[1],[0.05],vertical,"(390.0, 762.0)",1.0166666666666666,nan,1,3559.744,1
0,459,target,"[(1040, 823)]",[],[1],[],horizontal,"(390.0, 762.0)",,"('cti', 1.47)",0,3564.107,0
0,460,target,"[(1035, 825)]",[],[1],[0.6],horizontal,"(890.0, 762.0)",0.8166666666666667,0.558,1,3568.678,1
0,461,target,"[(1034, 775)]",[],[1],[0.35],horizontal,"(390.0, 762.0)",1.3666666666666667,0.312,1,3573.341,1
0,462,target,"[(1072, 814)]",[],[1],[0.35],vertical,"(390.0, 762.0)",1.45,0.313,1,3578.79,1
0,463,target,"[(1065, 794)]",[],[1],[0.7333333333333333],vertical,"(890.0, 762.0)",0.85,0.685,1,3583.966,2
0,464,target,"[(1057, 795)]",[],[1],[0.6333333333333333],vertical,"(390.0, 262.0)",0.7833333333333333,0.592,1,3589.141,1
0,465,target,"[(1063, 782)]",[],[1],[0.15],vertical,"(890.0, 762.0)",1.6333333333333333,0.119,1,3593.64,1
0,466,target,"[(1042, 813)]",[],[1],[0.85],horizontal,"(390.0, 762.0)",0.9666666666666667,nan,0,3598.635,0
0,467,target,"[(1010, 829)]",[],[1],[0.6333333333333333],vertical,"(890.0, 262.0)",0.7833333333333333,0.592,1,3603.158,1
0,468,target,"[(1029, 841)]",[],[1],[0.6166666666666667],vertical,"(390.0, 762.0)",1.0333333333333332,0.574,1,3653.241,1
0,469,catch,"[(1058, 814)]",[],[1],[0.05],horizontal,"(890.0, 262.0)",1.2333333333333334,nan,1,3658.592,1
0,470,target,"[(1032, 821)]",[],[1],[0.5666666666666667],horizontal,"(390.0, 762.0)",0.9833333333333333,0.524,1,3663.708,2
0,471,target,"[(1057, 813)]",[],[1],[0.8166666666666667],horizontal,"(390.0, 262.0)",0.5,0.766,1,3669.09,1
0,472,catch,"[(1037, 818)]",[],[1],[0.05],horizontal,"(890.0, 262.0)",1.0833333333333333,nan,1,3673.797,1
0,473,target,"[(1013, 861)]",[],[1],[0.5166666666666666],horizontal,"(890.0, 262.0)",1.2,0.482,1,3678.566,1
0,474,target,"[(1029, 824)]",[],[1],[0.5],vertical,"(390.0, 262.0)",1.2,0.463,1,3684.407,2
0,475,target,"[(1034, 807)]",[],[1],[0.13333333333333333],vertical,"(890.0, 262.0)",1.3666666666666667,0.099,1,3689.894,1
0,476,target,"[(1036, 819)]",[],[1],[0.6],vertical,"(390.0, 262.0)",1.1666666666666667,0.56,1,3696.693,1
0,477,target,"[(1042, 807)]",[],[1],[],vertical,"(890.0, 762.0)",,"('cti', 1.499)",0,3701.942,0
0,478,target,"[(1037, 818)]",[],[1],[0.13333333333333333],vertical,"(890.0, 262.0)",1.6666666666666667,0.102,1,3706.825,1
0,479,target,"[(1053, 816)]",[],[1],[0.4166666666666667],vertical,"(390.0, 762.0)",1.4,0.375,1,3712.414,1
0,480,target,"[(1042, 823)]",[],[1],[0.5833333333333334],vertical,"(390.0, 262.0)",0.95,0.539,1,3717.891,1
0,481,catch,"[(1053, 816)]",[],[1],[],horizontal,"(890.0, 262.0)",,"('cti', 1.52)",0,3723.174,0
0,482,target,"[(1033, 809)]",[],[1],[0.7],vertical,"(890.0, 262.0)",1.0333333333333332,0.657,1,3728.124,1
0,483,target,"[(1057, 812)]",[],[1],[0.35],vertical,"(390.0, 762.0)",1.6333333333333333,0.317,1,3734.758,1
0,484,target,"[(1029, 804)]",[],[1],[0.55],vertical,"(390.0, 262.0)",1.3333333333333333,0.517,1,3740.364,1
0,485,target,"[(1045, 798)]",[],[1],[0.75],horizontal,"(390.0, 262.0)",1.0166666666666666,0.706,1,3745.969,2
0,486,target,"[(1058, 809)]",[],[1],[0.85],vertical,"(890.0, 762.0)",1.65,"('cti', 1.646),nan",0,3751.952,0
0,487,target,"[(1038, 839)]",[],[1],[0.75],horizontal,"(390.0, 762.0)",0.5,0.709,1,3757.424,1
0,488,target,"[(1041, 795)]",[],[1],[0.5833333333333334],vertical,"(390.0, 762.0)",1.1833333333333333,0.543,1,3778.898,1
0,489,catch,"[(1058, 800)]",[],[1],[0.05],horizontal,"(890.0, 262.0)",1.6833333333333333,nan,1,3784.448,1
0,490,target,"[(1033, 808)]",[],[1],[],horizontal,"(890.0, 762.0)",,"('cti', 1.57)",0,3789.512,0
0,491,target,"[(1035, 815)]",[],[1],[0.5833333333333334],vertical,"(890.0, 262.0)",1.25,0.542,1,3794.408,1
0,492,target,"[(1054, 794)]",[],[1],[0.5333333333333333],horizontal,"(890.0, 262.0)",0.9,0.491,1,3799.391,1
0,493,catch,"[(1037, 816)]",[],[1],[0.05],horizontal,"(390.0, 762.0)",1.35,nan,1,3804.89,1
0,494,target,"[(1041, 804)]",[],[1],[0.6333333333333333],vertical,"(890.0, 762.0)",0.8666666666666667,0.596,1,3810.034,2
0,495,target,"[(1061, 783)]",[],[1],[0.8166666666666667],horizontal,"(890.0, 262.0)",0.55,0.784,1,3815.132,1
0,496,target,"[(1036, 805)]",[],[1],[0.6666666666666666],horizontal,"(390.0, 762.0)",0.7333333333333333,0.625,1,3819.773,1
0,497,target,"[(1033, 800)]",[],[1],[],vertical,"(390.0, 262.0)",,"('cti', 1.563)",0,3824.691,0
0,498,target,"[(1041, 826)]",[],[1],[0.48333333333333334],vertical,"(890.0, 762.0)",1.0333333333333332,0.444,1,3829.0,1
0,499,target,"[(1041, 802)]",[],[1],[0.55],vertical,"(890.0, 262.0)",0.9,0.512,1,3834.324,1
0,500,target,"[(1061, 819)]",[],[1],[0.65],vertical,"(890.0, 762.0)",0.7666666666666666,0.602,1,3839.099,1
0,501,target,"[(1038, 796)]",[],[1],[0.6166666666666667],vertical,"(390.0, 762.0)",0.6333333333333333,0.579,1,3844.397,2
0,502,target,"[(1069, 795)]",[],[1],[0.5833333333333334],horizontal,"(390.0, 262.0)",0.7666666666666666,0.538,1,3849.674,1
0,503,target,"[(1026, 808)]",[],[1],[0.6666666666666666],vertical,"(890.0, 762.0)",0.8666666666666667,0.625,1,3854.318,1
0,504,target,"[(1046, 814)]",[],[1],[0.4166666666666667],horizontal,"(890.0, 762.0)",1.3833333333333333,0.379,1,3861.309,1
0,505,target,"[(1033, 835)]",[],[1],[0.25],vertical,"(390.0, 762.0)",1.45,0.215,1,3866.426,2
0,506,target,"[(1053, 823)]",[],[1],[0.6333333333333333],horizontal,"(390.0, 762.0)",0.5333333333333333,0.589,1,3872.82,1
0,507,target,"[(1037, 807)]",[],[1],[0.6],vertical,"(390.0, 262.0)",0.6833333333333333,0.559,1,3877.825,1
0,508,target,"[(1025, 808)]",[],[1],[0.16666666666666666],vertical,"(390.0, 762.0)",1.45,0.136,1,3882.659,1
0,509,target,"[(1057, 805)]",[],[1],[0.6166666666666667],horizontal,"(390.0, 762.0)",0.9166666666666666,0.578,1,3887.742,2
0,510,catch,"[(1029, 807)]",[],[1],[0.05],horizontal,"(390.0, 262.0)",1.1,nan,1,3893.442,1
0,511,target,"[(1012, 800)]",[],[1],[],horizontal,"(890.0, 762.0)",,"('cti', 1.576)",0,3898.316,0
0,512,target,"[(1031, 817)]",[],[1],[],vertical,"(890.0, 262.0)",,"('cti', 1.546)",0,3903.291,0
0,513,catch,"[(1037, 828)]",[],[1],[0.05],horizontal,"(890.0, 262.0)",1.25,nan,1,3908.158,1
0,514,target,"[(1036, 803)]",[],[1],[0.21666666666666667],horizontal,"(890.0, 762.0)",1.65,0.182,1,3913.526,1
0,515,target,"[(1035, 810)]",[],[1],[0.85],horizontal,"(890.0, 762.0)",0.55,nan,0,3918.786,0
0,516,target,"[(1025, 821)]",[],[1],[0.5],vertical,"(390.0, 262.0)",1.1333333333333333,0.455,1,3923.426,1
0,517,target,"[(1038, 783)]",[],[1],[0.85],vertical,"(390.0, 262.0)",0.9666666666666667,nan,0,3928.804,0
0,518,catch,"[(1028, 808)]",[],[1],[0.05],vertical,"(890.0, 262.0)",1.1833333333333333,nan,1,3933.808,1
0,519,target,"[(1033, 806)]",[],[1],[0.7333333333333333],vertical,"(390.0, 262.0)",0.9333333333333333,0.687,1,3938.643,1
0,520,target,"[(1037, 806)]",[],[1],[0.85],horizontal,"(390.0, 262.0)",0.5666666666666667,nan,0,3944.101,0
0,521,catch,"[(1026, 827)]",[],[1],[0.05],vertical,"(390.0, 262.0)",1.15,nan,1,3948.346,1
0,522,target,"[(1022, 813)]",[],[1],[0.45],vertical,"(890.0, 762.0)",1.5166666666666666,0.414,1,3956.159,1
0,523,target,"[(1061, 808)]",[],[1],[0.06666666666666667],vertical,"(890.0, 762.0)",1.6166666666666667,0.037,1,3961.632,1
0,524,target,"[(1022, 810)]",[],[1],[0.85],vertical,"(390.0, 262.0)",0.7833333333333333,nan,0,3966.765,0
0,525,target,"[(1033, 814)]",[],[1],[0.55],vertical,"(390.0, 262.0)",1.2,0.509,1,3971.36,1
0,526,target,"[(1038, 783)]",[],[1],[0.5166666666666666],vertical,"(390.0, 262.0)",1.3666666666666667,0.477,1,3976.717,1
0,527,target,"[(1037, 811)]",[],[1],[0.6166666666666667],horizontal,"(390.0, 762.0)",0.9833333333333333,0.585,1,3981.975,1
0,528,target,"[(1041, 817)]",[],[1],[0.45],vertical,"(390.0, 262.0)",1.2666666666666666,0.413,1,3987.294,2
0,529,target,"[(1038, 811)]",[],[1],[0.85],horizontal,"(890.0, 262.0)",0.8,nan,0,3993.076,0
0,530,target,"[(1033, 810)]",[],[1],[0.6166666666666667],vertical,"(890.0, 762.0)",0.7,0.573,1,3997.776,1
0,531,target,"[(1038, 792)]",[],[1],[0.7166666666666667],horizontal,"(390.0, 262.0)",1.15,0.681,1,4002.493,1
0,532,target,"[(1043, 808)]",[],[1],[0.4],vertical,"(890.0, 262.0)",1.55,0.366,1,4007.826,1
0,533,target,"[(1047, 809)]",[],[1],[0.7],horizontal,"(390.0, 262.0)",0.8166666666666667,0.665,1,4013.202,2
0,534,target,"[(1028, 782)]",[],[1],[0.13333333333333333],horizontal,"(390.0, 762.0)",1.6833333333333333,0.1,1,4018.84,1
0,535,target,"[(1037, 807)]",[],[1],[0.5666666666666667],horizontal,"(390.0, 762.0)",1.0833333333333333,0.528,1,4024.125,1
0,536,target,"[(1036, 796)]",[],[1],[0.5666666666666667],horizontal,"(390.0, 262.0)",0.8833333333333333,0.526,1,4029.342,1
0,537,target,"[(1033, 823)]",[],[1],[0.1],vertical,"(890.0, 762.0)",1.5666666666666667,0.066,1,4034.026,2
0,538,target,"[(1053, 781)]",[],[1],[0.5166666666666666],horizontal,"(890.0, 762.0)",1.5333333333333332,0.474,1,4039.755,1
0,539,target,"[(1036, 797)]",[],[1],[0.21666666666666667],horizontal,"(890.0, 762.0)",1.6333333333333333,0.183,1,4045.429,1
0,540,target,"[(1033, 799)]",[],[1],[0.85],vertical,"(890.0, 762.0)",1.5,nan,0,4050.476,0
0,541,target,"[(1033, 799)]",[],[1],[0.6333333333333333],horizontal,"(390.0, 262.0)",0.8,0.592,1,4055.543,1
0,542,target,"[(1041, 800)]",[],[1],[0.6],vertical,"(390.0, 262.0)",1.3666666666666667,0.557,1,4060.892,1
0,543,target,"[(1061, 803)]",[],[1],[0.55],vertical,"(890.0, 262.0)",1.0166666666666666,0.504,1,4066.433,1
0,544,target,"[(1037, 808)]",[],[1],[0.65],horizontal,"(390.0, 762.0)",0.7666666666666666,0.606,1,4071.442,2
0,545,target,"[(1033, 800)]",[],[1],[0.15],horizontal,"(890.0, 762.0)",1.4,0.117,1,4076.626,1
0,546,target,"[(1032, 815)]",[],[1],[0.7333333333333333],vertical,"(890.0, 262.0)",0.9833333333333333,0.686,1,4082.326,1
0,547,target,"[(1038, 795)]",[],[1],[0.2833333333333333],vertical,"(890.0, 262.0)",1.65,0.245,1,4087.642,1
0,548,target,"[(1038, 782)]",[],[1],[0.6],horizontal,"(390.0, 262.0)",0.9166666666666666,0.554,1,4092.976,2
0,549,target,"[(1037, 815)]",[],[1],[0.5666666666666667],vertical,"(390.0, 262.0)",1.3333333333333333,0.518,1,4098.859,1
0,550,target,"[(1059, 814)]",[],[1],[0.5333333333333333],vertical,"(890.0, 262.0)",1.5,0.493,1,4104.21,1
0,551,target,"[(1060, 798)]",[],[1],[0.8166666666666667],vertical,"(390.0, 762.0)",0.5666666666666667,0.768,1,4109.543,1
0,552,target,"[(1029, 795)]",[],[1],[0.6],horizontal,"(390.0, 762.0)",0.7833333333333333,0.56,1,4114.242,2
0,553,target,"[(1036, 789)]",[],[1],[0.06666666666666667],vertical,"(390.0, 762.0)",1.6,0.035,1,4119.943,1
0,554,target,"[(1049, 797)]",[],[1],[0.85],horizontal,"(390.0, 262.0)",0.5666666666666667,nan,0,4125.142,0
0,555,target,"[(1037, 797)]",[],[1],[0.4666666666666667],vertical,"(890.0, 262.0)",1.5,0.43,1,4129.643,1
0,556,target,"[(1061, 799)]",[],[1],[0.6333333333333333],vertical,"(390.0, 262.0)",0.5,0.592,1,4134.892,1
0,557,target,"[(1031, 795)]",[],[1],[0.7166666666666667],vertical,"(890.0, 262.0)",1.0333333333333332,0.67,1,4139.892,1
0,558,target,"[(1037, 812)]",[],[1],[0.85],horizontal,"(890.0, 762.0)",0.5333333333333333,nan,0,4145.119,0
0,559,target,"[(1026, 807)]",[],[1],[0.2],vertical,"(890.0, 762.0)",1.6,0.168,1,4149.331,1
0,560,target,"[(1061, 808)]",[],[1],[0.85],horizontal,"(390.0, 262.0)",0.5166666666666666,nan,0,4154.856,0
0,561,catch,"[(1041, 808)]",[],[1],[0.05],horizontal,"(390.0, 262.0)",1.5166666666666666,nan,1,4159.47,1
0,562,target,"[(1042, 788)]",[],[1],[0.48333333333333334],horizontal,"(390.0, 762.0)",1.55,0.446,1,4164.642,1
0,563,catch,"[(1061, 799)]",[],[1],[0.05],vertical,"(890.0, 762.0)",1.3666666666666667,nan,1,4170.078,1
0,564,target,"[(1034, 806)]",[],[1],[0.15],horizontal,"(890.0, 762.0)",1.4666666666666666,0.116,1,4175.193,2
0,565,target,"[(1061, 809)]",[],[1],[0.85],horizontal,"(390.0, 262.0)",0.55,nan,0,4180.688,0
0,566,target,"[(1024, 800)]",[],[1],[0.6],horizontal,"(890.0, 262.0)",0.7,0.552,1,4185.025,1
0,567,target,"[(997, 807), (1023, 840)]",[],"[0, 1]",[0.5],vertical,"(890.0, 762.0)",1.3333333333333333,0.459,1,4189.679,1
0,568,target,"[(1032, 801)]",[],[1],[0.85],vertical,"(390.0, 762.0)",0.9166666666666666,nan,0,4198.759,0
0,569,target,"[(1038, 799)]",[],[1],[0.2],horizontal,"(890.0, 262.0)",1.6833333333333333,0.169,1,4203.226,1
0,570,target,"[(1057, 803)]",[],[1],[0.85],horizontal,"(890.0, 262.0)",0.55,nan,0,4208.752,0
0,571,catch,"[(1033, 803)]",[],[1],[0.05],vertical,"(890.0, 762.0)",1.25,nan,1,4213.096,1
0,572,target,"[(1057, 821)]",[],[1],[0.5833333333333334],horizontal,"(390.0, 262.0)",0.5666666666666667,0.54,1,4217.794,1
0,573,target,"[(1022, 800)]",[],[1],[0.36666666666666664],vertical,"(390.0, 762.0)",1.2666666666666666,0.331,1,4222.349,1
0,574,catch,"[(1033, 798)]",[],[1],[0.05],vertical,"(390.0, 762.0)",1.5666666666666667,nan,1,4227.577,2
0,575,target,"[(1028, 803)]",[],[1],[0.85],horizontal,"(890.0, 762.0)",0.8833333333333333,nan,0,4233.227,0
0,576,target,"[(1022, 806)]",[],[1],[0.4],vertical,"(390.0, 762.0)",1.5833333333333333,0.363,1,4238.101,1
0,577,target,"[(1037, 810)]",[],[1],[0.5833333333333334],horizontal,"(890.0, 762.0)",1.3833333333333333,0.545,1,4243.944,1
0,578,target,"[(1017, 803)]",[],[1],[0.55],horizontal,"(390.0, 262.0)",1.1166666666666667,0.512,1,4249.378,1
0,579,target,"[(1034, 816)]",[],[1],[0.4],horizontal,"(890.0, 762.0)",1.25,0.36,1,4254.518,2
0,580,catch,"[(1033, 779)]",[],[1],[0.05],horizontal,"(890.0, 262.0)",1.2666666666666666,nan,1,4260.094,1
0,581,target,"[(1023, 790)]",[],[1],[0.7333333333333333],horizontal,"(890.0, 762.0)",1.3166666666666667,0.692,1,4264.61,1
0,582,target,"[(1020, 790)]",[],[1],[0.8],horizontal,"(890.0, 262.0)",0.9666666666666667,0.75,1,4271.193,1
0,583,target,"[(1020, 810)]",[],[1],[0.45],vertical,"(390.0, 762.0)",1.2833333333333332,0.41,1,4277.37,2
0,584,target,"[(1057, 823)]",[],[1],[0.7],vertical,"(890.0, 262.0)",1.0666666666666667,0.656,1,4283.232,1
0,585,target,"[(1056, 806)]",[],[1],[0.5833333333333334],horizontal,"(890.0, 262.0)",1.5166666666666666,0.538,1,4288.277,1
0,586,target,"[(1039, 808)]",[],[1],[0.85],vertical,"(390.0, 262.0)",1.0333333333333332,nan,0,4293.63,0
0,587,target,"[(1037, 816)]",[],[1],[0.7833333333333333],horizontal,"(390.0, 262.0)",0.7666666666666666,0.743,1,4298.754,1
0,588,target,"[(1061, 804)]",[],[1],[0.5833333333333334],vertical,"(390.0, 262.0)",1.1166666666666667,0.547,1,4303.845,1
0,589,target,"[(1037, 828)]",[],[1],[0.11666666666666667],vertical,"(390.0, 262.0)",1.6333333333333333,0.083,1,4308.928,1
0,590,target,"[(1029, 808)]",[],[1],[0.08333333333333333],vertical,"(890.0, 762.0)",1.5,0.052,1,4314.543,2
0,591,target,"[(1063, 826)]",[],[1],[0.06666666666666667],horizontal,"(390.0, 262.0)",1.6666666666666667,0.036,1,4320.059,1
0,592,target,"[(1061, 810)]",[],[1],[0.5666666666666667],vertical,"(890.0, 762.0)",0.85,0.523,1,4325.677,1
0,593,target,"[(1033, 819)]",[],[1],[0.6],horizontal,"(890.0, 762.0)",0.6,0.557,1,4330.56,1
0,594,catch,"[(1058, 812)]",[],[1],[0.05],horizontal,"(890.0, 762.0)",1.5333333333333332,nan,1,4335.393,2
0,595,target,"[(1017, 800)]",[],[1],[],vertical,"(390.0, 262.0)",,"('cti', 1.133)",0,4341.093,0
0,596,target,"[(1027, 826)]",[],[1],[0.7],horizontal,"(890.0, 762.0)",0.6833333333333333,0.662,1,4401.945,1
0,597,target,"[(1057, 825)]",[],[1],[0.6],horizontal,"(390.0, 262.0)",0.5166666666666666,0.561,1,4406.887,1
0,598,target,"[(1063, 831)]",[],[1],[0.7],horizontal,"(890.0, 762.0)",0.9666666666666667,0.662,1,4412.045,1
0,599,target,"[(1056, 819)]",[],[1],[0.55],horizontal,"(890.0, 762.0)",1.05,0.513,1,4417.145,2
0,600,target,"[(1024, 814)]",[],[1],[0.55],vertical,"(890.0, 762.0)",0.6166666666666667,0.523,1,4422.928,1
0,601,target,"[(1032, 794)]",[],[1],[0.5333333333333333],vertical,"(890.0, 762.0)",1.0833333333333333,0.489,1,4427.395,1
0,602,target,"[(1030, 808)]",[],[1],[0.43333333333333335],vertical,"(890.0, 262.0)",1.15,0.401,1,4432.344,1
0,603,target,"[(1033, 815)]",[],[1],[0.5],vertical,"(890.0, 262.0)",0.7,0.465,1,4437.477,2
0,604,target,"[(1057, 815)]",[],[1],[],vertical,"(890.0, 762.0)",,"('cti', 1.496)",0,4442.932,0
0,605,target,"[(1035, 826)]",[],[1],[0.5666666666666667],vertical,"(890.0, 762.0)",1.0166666666666666,0.53,1,4447.593,1
0,606,target,"[(1025, 799)]",[],[1],[0.6666666666666666],horizontal,"(890.0, 762.0)",1.0666666666666667,0.627,1,4452.728,1
0,607,target,"[(1035, 800)]",[],[1],[0.8333333333333334],horizontal,"(890.0, 262.0)",0.9333333333333333,0.785,1,4458.462,1
0,608,catch,"[(1026, 812)]",[],[1],[0.05],horizontal,"(390.0, 762.0)",1.0166666666666666,nan,1,4464.061,2
0,609,target,"[(1057, 816)]",[],[1],[0.65],horizontal,"(390.0, 762.0)",0.5833333333333334,0.61,1,4469.412,1
0,610,target,"[(1055, 807)]",[],[1],[0.6],vertical,"(390.0, 762.0)",0.8166666666666667,0.559,1,4473.997,1
0,611,target,"[(1051, 797)]",[],[1],[0.5],vertical,"(890.0, 262.0)",1.2833333333333332,0.463,1,4479.262,1
0,612,target,"[(1037, 792)]",[],[1],[0.6666666666666666],horizontal,"(890.0, 762.0)",1.0,0.624,1,4484.594,2
0,613,target,"[(1033, 780)]",[],[1],[0.11666666666666667],vertical,"(890.0, 262.0)",1.6166666666666667,0.084,1,4490.295,1
0,614,target,"[(1073, 800)]",[],[1],[0.4166666666666667],horizontal,"(890.0, 762.0)",1.2333333333333334,0.381,1,4495.811,1
0,615,target,"[(1061, 804)]",[],[1],[0.7833333333333333],horizontal,"(390.0, 262.0)",0.7,0.75,1,4500.927,1
0,616,target,"[(1051, 796)]",[],[1],[0.26666666666666666],vertical,"(890.0, 262.0)",1.4166666666666667,0.235,1,4506.361,2
0,617,target,"[(1026, 786)]",[],[1],[0.55],vertical,"(890.0, 762.0)",0.8666666666666667,0.516,1,4512.337,1
0,618,target,"[(1049, 806)]",[],[1],[0.48333333333333334],horizontal,"(890.0, 262.0)",1.05,0.443,1,4516.794,1
0,619,target,"[(1030, 790)]",[],[1],[0.85],horizontal,"(390.0, 762.0)",1.0333333333333332,nan,0,4522.018,0
0,620,target,"[(1057, 811)]",[],[1],[0.4666666666666667],vertical,"(890.0, 262.0)",1.3,0.429,1,4526.712,1
0,621,catch,"[(1030, 823)]",[],[1],[0.05],horizontal,"(390.0, 762.0)",1.3,nan,1,4532.062,1
0,622,target,"[(1057, 811)]",[],[1],[0.6],vertical,"(890.0, 762.0)",1.1,0.564,1,4537.204,1
0,623,target,"[(1057, 815)]",[],[1],[0.85],vertical,"(390.0, 762.0)",0.55,nan,0,4542.743,0
0,624,target,"[(1022, 859)]",[],[1],[0.6833333333333333],horizontal,"(890.0, 762.0)",1.1166666666666667,0.643,1,4547.428,1
0,625,target,"[(1036, 832)]",[],[1],[0.85],vertical,"(890.0, 262.0)",0.8333333333333334,nan,0,5963.434,0
0,626,target,"[(1039, 843)]",[],[1],[0.4666666666666667],vertical,"(890.0, 762.0)",1.4166666666666667,0.428,1,5968.191,1
0,627,target,"[(1052, 817)]",[],[1],[0.65],horizontal,"(390.0, 762.0)",1.0666666666666667,0.608,1,5973.403,1
0,628,catch,"[(1041, 816)]",[],[1],[0.05],vertical,"(890.0, 762.0)",1.1833333333333333,nan,1,5978.321,1
0,629,catch,"[(1029, 822)]",[],[1],[0.05],vertical,"(890.0, 262.0)",1.0666666666666667,nan,1,5983.218,2
0,630,target,"[(1061, 820)]",[],[1],[0.6166666666666667],vertical,"(390.0, 762.0)",0.85,0.572,1,5988.102,1
0,631,catch,"[(1038, 831)]",[],[1],[0.05],vertical,"(890.0, 262.0)",1.4166666666666667,nan,1,5993.069,1
0,632,target,"[(1033, 806)]",[],[1],[0.5333333333333333],vertical,"(890.0, 762.0)",0.9666666666666667,0.493,1,5998.163,1
0,633,target,"[(1031, 821)]",[],[1],[0.35],vertical,"(390.0, 762.0)",1.4,0.312,1,6003.367,2
0,634,target,"[(1053, 800)]",[],[1],[0.35],horizontal,"(390.0, 262.0)",1.65,0.316,1,6008.933,1
0,635,catch,"[(1038, 807)]",[],[1],[0.05],vertical,"(390.0, 262.0)",1.6666666666666667,"('cti', 1.661),nan",1,6014.541,1
0,636,target,"[(1033, 790)]",[],[1],[],horizontal,"(390.0, 762.0)",,"('cti', 1.181)",0,6019.785,0
0,637,target,"[(1037, 822)]",[],[1],[0.7333333333333333],vertical,"(390.0, 262.0)",1.2,0.699,1,6024.486,1
0,638,target,"[(1040, 799)]",[],[1],[],vertical,"(890.0, 762.0)",,"('cti', 1.535)",0,6029.885,0
0,639,target,"[(1020, 815)]",[],[1],[0.18333333333333332],vertical,"(390.0, 262.0)",1.6833333333333333,0.153,1,6034.836,1
0,640,target,"[(1059, 810)]",[],[1],[0.6666666666666666],horizontal,"(890.0, 762.0)",1.0333333333333332,0.626,1,6040.494,1
0,641,catch,"[(1006, 812)]",[],[1],[0.05],vertical,"(890.0, 762.0)",1.1833333333333333,nan,1,6045.7,1
0,642,target,"[(1062, 795)]",[],[1],[0.85],vertical,"(890.0, 262.0)",0.7,nan,0,6050.817,0
0,643,target,"[(1033, 809)]",[],[1],[0.5166666666666666],vertical,"(890.0, 762.0)",1.1166666666666667,0.479,1,6055.268,1
0,644,target,"[(1039, 809)]",[],[1],[0.5166666666666666],vertical,"(390.0, 762.0)",0.9833333333333333,0.484,1,6060.288,1
0,645,target,"[(1032, 811)]",[],[1],[0.5],vertical,"(390.0, 262.0)",1.0833333333333333,0.464,1,6065.524,1
0,646,target,"[(1036, 813)]",[],[1],[0.6666666666666666],horizontal,"(890.0, 762.0)",0.6333333333333333,0.621,1,6070.686,2
0,647,target,"[(1032, 793)]",[],[1],[0.5333333333333333],horizontal,"(890.0, 262.0)",1.1166666666666667,0.488,1,6075.739,1
0,648,catch,"[(1036, 804)]",[],[1],[0.05],vertical,"(390.0, 762.0)",1.5,nan,1,6080.759,1
0,649,target,"[(1055, 803)]",[],[1],[0.7666666666666666],vertical,"(390.0, 762.0)",0.6166666666666667,0.722,1,6085.753,1
0,650,target,"[(1037, 816)]",[],[1],[0.3],horizontal,"(390.0, 262.0)",1.1666666666666667,0.264,1,6090.402,2
0,651,catch,"[(1032, 790)]",[],[1],[0.05],horizontal,"(390.0, 762.0)",1.2333333333333334,nan,1,6095.935,1
0,652,target,"[(1029, 810)]",[],[1],[0.3333333333333333],horizontal,"(390.0, 262.0)",1.4333333333333333,0.298,1,6100.852,1
0,653,target,"[(1036, 806)]",[],[1],[0.4166666666666667],vertical,"(890.0, 262.0)",1.5,0.38,1,6106.017,1
0,654,target,"[(1031, 789)]",[],[1],[0.48333333333333334],vertical,"(890.0, 262.0)",1.0166666666666666,0.444,1,6111.335,2
0,655,target,"[(1034, 775)]",[],[1],[0.6166666666666667],vertical,"(890.0, 762.0)",0.7166666666666667,0.579,1,6116.921,1
0,656,target,"[(1008, 850)]",[],[1],[0.5833333333333334],vertical,"(890.0, 762.0)",0.55,0.545,1,6121.985,1
0,657,catch,"[(1029, 803)]",[],[1],[0.05],vertical,"(890.0, 762.0)",1.3,nan,1,6127.735,1
0,658,target,"[(1042, 829)]",[],[1],[0.11666666666666667],vertical,"(390.0, 262.0)",1.5833333333333333,0.085,1,6132.537,2
0,659,target,"[(1038, 809)]",[],[1],[0.6333333333333333],horizontal,"(890.0, 262.0)",1.4,0.596,1,6138.532,1
0,660,target,"[(1038, 799)]",[],[1],[],vertical,"(390.0, 762.0)",,"('cti', 1.541)",0,6144.19,0
0,661,target,"[(1037, 824)]",[],[1],[0.4166666666666667],horizontal,"(890.0, 762.0)",1.2666666666666666,0.382,1,6148.885,1
0,662,target,"[(1034, 815)]",[],[1],[0.7],vertical,"(390.0, 762.0)",0.8833333333333333,0.658,1,6154.234,1
0,663,target,"[(1040, 797)]",[],[1],[0.35],horizontal,"(890.0, 762.0)",1.25,0.314,1,6159.586,1
0,664,target,"[(1037, 825)]",[],[1],[0.6333333333333333],vertical,"(390.0, 762.0)",1.1,0.594,1,6164.835,2
0,665,catch,"[(1055, 807)]",[],[1],[0.05],vertical,"(890.0, 762.0)",1.65,nan,1,6170.486,1
0,666,target,"[(1049, 813)]",[],[1],[],horizontal,"(390.0, 262.0)",,"('cti', 1.627)",0,6175.619,0
0,667,target,"[(1035, 835)]",[],[1],[0.85],vertical,"(390.0, 262.0)",0.8666666666666667,nan,0,6180.503,0
0,668,target,"[(1029, 820)]",[],[1],"[0.85, 0.85]",horizontal,"(390.0, 262.0)",0.8666666666666667,"0.812,nan",0,6187.252,0
0,669,target,"[(1040, 813)]",[],[1],[0.3833333333333333],vertical,"(890.0, 762.0)",1.2833333333333332,0.343,1,6191.897,1
0,670,target,"[(1053, 800)]",[],[1],[0.55],horizontal,"(890.0, 762.0)",1.4833333333333334,0.512,1,6197.064,1
0,671,target,"[(1032, 813)]",[],[1],[0.5],horizontal,"(890.0, 262.0)",1.1333333333333333,0.466,1,6202.502,1
0,672,target,"[(1040, 812)]",[],[1],[0.85],vertical,"(890.0, 762.0)",1.65,"('cti', 1.646),nan",0,6208.043,0
0,673,target,"[(1010, 798)]",[],[1],[0.4166666666666667],horizontal,"(890.0, 262.0)",1.4166666666666667,0.376,1,6213.269,1
0,674,target,"[(1036, 807)]",[],[1],[0.2],vertical,"(390.0, 762.0)",1.3166666666666667,0.168,1,6219.143,1
0,675,target,"[(1041, 803)]",[],[1],[0.85],vertical,"(390.0, 762.0)",0.9166666666666666,nan,0,6224.344,0
0,676,target,"[(1022, 814)]",[],[1],[0.75],horizontal,"(890.0, 262.0)",0.9,0.701,1,6228.765,1
0,677,target,"[(1040, 816)]",[],[1],[0.6833333333333333],vertical,"(890.0, 262.0)",0.9333333333333333,0.641,1,6234.139,1
0,678,target,"[(1032, 814)]",[],[1],[0.6666666666666666],vertical,"(390.0, 762.0)",1.0666666666666667,0.635,1,6239.248,1
0,679,catch,"[(1014, 792)]",[],[1],[0.05],vertical,"(890.0, 262.0)",1.4833333333333334,nan,1,6244.444,2
0,680,target,"[(1037, 806)]",[],[1],[0.15],horizontal,"(390.0, 762.0)",1.5166666666666666,0.116,1,6250.218,1
0,681,target,"[(1041, 814)]",[],[1],[0.05],horizontal,"(890.0, 262.0)",1.6,0.02,1,6255.203,1
0,682,target,"[(1035, 808)]",[],[1],[0.5833333333333334],horizontal,"(390.0, 262.0)",0.95,0.544,1,6260.654,1
0,683,target,"[(1033, 814)]",[],[1],[0.5833333333333334],horizontal,"(390.0, 762.0)",0.8833333333333333,0.544,1,6265.806,2
0,684,target,"[(1055, 810)]",[],[1],[0.08333333333333333],horizontal,"(390.0, 762.0)",1.6,0.053,1,6271.181,1
0,685,target,"[(1056, 804)]",[],[1],[0.6],horizontal,"(390.0, 762.0)",0.5166666666666666,0.562,1,6276.371,1
0,686,target,"[(1059, 805)]",[],[1],[0.1],horizontal,"(390.0, 762.0)",1.2333333333333334,0.067,1,6280.863,1
0,687,catch,"[(1022, 847)]",[],[1],[0.05],vertical,"(890.0, 762.0)",1.3666666666666667,nan,1,6285.977,2
0,688,target,"[(1057, 817)]",[],[1],[0.06666666666666667],horizontal,"(390.0, 262.0)",1.4,0.036,1,6327.214,1
0,689,catch,"[(1033, 789)]",[],[1],[0.05],vertical,"(390.0, 262.0)",1.1333333333333333,nan,1,6332.187,1
0,690,target,"[(1036, 803)]",[],[1],[0.85],horizontal,"(390.0, 262.0)",0.55,nan,0,6336.902,0
0,691,target,"[(1040, 832)]",[],[1],[0.5833333333333334],horizontal,"(890.0, 762.0)",1.0,0.543,1,6340.953,1
0,692,target,"[(1029, 817)]",[],[1],[0.5666666666666667],vertical,"(890.0, 762.0)",1.2,0.52,1,6346.168,1
0,693,target,"[(1015, 808)]",[],[1],[0.5333333333333333],horizontal,"(390.0, 762.0)",1.0666666666666667,0.49,1,6351.738,1
0,694,target,"[(1033, 798)]",[],[1],[0.36666666666666664],horizontal,"(890.0, 762.0)",1.3166666666666667,0.326,1,6356.822,2
0,695,catch,"[(1063, 810)]",[],[1],[0.05],vertical,"(890.0, 262.0)",1.4333333333333333,nan,1,6362.37,1
0,696,catch,"[(1076, 811)]",[],[1],[0.05],horizontal,"(390.0, 762.0)",1.1166666666666667,nan,1,6367.403,1
0,697,target,"[(1022, 793)]",[],[1],[0.85],vertical,"(890.0, 262.0)",1.5,"('cti', 1.477),nan",0,6372.461,0
0,698,target,"[(1025, 798)]",[],[1],[0.4666666666666667],horizontal,"(890.0, 262.0)",1.3166666666666667,0.426,1,6378.042,1
0,699,target,"[(1034, 794)]",[],[1],[0.55],horizontal,"(390.0, 262.0)",1.3333333333333333,0.509,1,6383.659,1
0,700,target,"[(1053, 830)]",[],[1],[0.85],vertical,"(390.0, 762.0)",0.6666666666666666,nan,0,6388.888,0
0,701,target,"[(1031, 812)]",[],[1],[0.5],vertical,"(390.0, 262.0)",1.4666666666666666,0.464,1,6393.304,1
0,702,target,"[(1033, 813)]",[],[1],[0.26666666666666666],horizontal,"(390.0, 762.0)",1.4,0.23,1,6398.695,1
0,703,target,"[(1057, 812)]",[],[1],[0.13333333333333333],vertical,"(390.0, 762.0)",1.5166666666666666,0.1,1,6403.795,1
0,704,target,"[(1031, 802)]",[],[1],[0.3833333333333333],horizontal,"(890.0, 262.0)",1.25,0.34,1,6409.348,2
0,705,target,"[(1029, 808)]",[],[1],[0.43333333333333335],horizontal,"(890.0, 262.0)",1.4166666666666667,0.394,1,6415.203,1
0,706,target,"[(1036, 801)]",[],[1],[0.43333333333333335],horizontal,"(390.0, 262.0)",1.5333333333333332,0.397,1,6420.348,1
0,707,catch,"[(1045, 822)]",[],[1],[0.05],horizontal,"(390.0, 762.0)",1.3166666666666667,nan,1,6425.596,1
0,708,target,"[(1034, 809)]",[],[1],[0.85],vertical,"(390.0, 262.0)",0.5666666666666667,nan,0,6430.538,0
0,709,target,"[(1057, 818)]",[],[1],[0.6666666666666666],horizontal,"(890.0, 262.0)",0.8166666666666667,0.628,1,6434.988,1
0,710,target,"[(1042, 816)]",[],[1],[0.5833333333333334],horizontal,"(890.0, 762.0)",0.5333333333333333,0.544,1,6440.253,1
0,711,target,"[(1053, 815)]",[],[1],[0.3833333333333333],horizontal,"(390.0, 762.0)",1.15,0.348,1,6444.937,1
0,712,target,"[(1045, 815)]",[],[1],[0.6333333333333333],horizontal,"(890.0, 762.0)",0.7666666666666666,0.589,1,6450.205,2
0,713,target,"[(1036, 807)]",[],[1],[0.23333333333333334],horizontal,"(390.0, 262.0)",1.6833333333333333,0.203,1,6455.571,1
0,714,target,"[(1053, 807)]",[],[1],[0.5333333333333333],horizontal,"(890.0, 262.0)",0.8,0.493,1,6460.787,1
0,715,target,"[(1033, 823)]",[],[1],[0.5166666666666666],horizontal,"(390.0, 262.0)",1.1,0.474,1,6465.469,1
0,716,target,"[(1049, 833)]",[],[1],[0.2],horizontal,"(390.0, 262.0)",1.6833333333333333,0.167,1,6470.62,2
0,717,target,"[(1077, 836)]",[],[1],[],vertical,"(390.0, 262.0)",,"('fix', 0.376)",0,6476.254,0
0,718,catch,"[(1032, 813)]",[],[1],"[0.05, 0.05]",vertical,"(390.0, 262.0)",1.5666666666666667,"0.02,nan",1,6478.254,1
0,719,target,"[(1036, 809)]",[],[1],[0.55],horizontal,"(390.0, 762.0)",1.1833333333333333,0.513,1,6487.838,1
0,720,target,"[(1033, 802)]",[],[1],[0.23333333333333334],horizontal,"(390.0, 262.0)",1.55,0.198,1,6493.245,1
0,721,target,"[(1027, 808)]",[],[1],[0.5],vertical,"(390.0, 262.0)",1.0666666666666667,0.463,1,6498.227,2
0,722,catch,"[(1033, 806)]",[],[1],[0.05],horizontal,"(890.0, 762.0)",1.65,nan,1,6504.088,1
0,723,target,"[(1061, 816)]",[],[1],[0.5333333333333333],horizontal,"(390.0, 262.0)",0.5666666666666667,0.494,1,6509.203,1
0,724,target,"[(1036, 819)]",[],[1],[0.45],vertical,"(390.0, 262.0)",1.35,0.408,1,6513.639,1
0,725,target,"[(1054, 808)]",[],[1],[],vertical,"(890.0, 762.0)",,"('cti', 1.495)",0,6518.871,0
0,726,target,"[(1037, 818)]",[],[1],[0.7666666666666666],horizontal,"(390.0, 762.0)",1.0,0.721,1,6523.692,1
0,727,target,"[(1074, 815)]",[],[1],[0.85],vertical,"(390.0, 762.0)",0.6333333333333333,nan,0,6528.955,0
0,728,target,"[(1059, 814)]",[],[1],[0.6],vertical,"(890.0, 262.0)",1.25,0.568,1,6533.404,1
0,729,target,"[(1077, 822)]",[],[1],[0.55],horizontal,"(390.0, 262.0)",1.3666666666666667,0.503,1,6538.628,1
0,730,target,"[(1054, 818)]",[],[1],[0.6666666666666666],horizontal,"(390.0, 262.0)",0.85,0.621,1,6543.654,1
0,731,target,"[(1075, 823)]",[],[1],[0.21666666666666667],horizontal,"(890.0, 262.0)",1.5166666666666666,0.18,1,6548.821,2
0,732,target,"[(1033, 783)]",[],[1],[0.6666666666666666],horizontal,"(390.0, 762.0)",0.7833333333333333,0.623,1,6554.349,1
0,733,target,"[(1082, 903)]",[],[1],[0.7],vertical,"(890.0, 262.0)",0.75,0.659,1,6559.404,1
0,734,target,"[(1081, 902)]",[],[1],[0.4666666666666667],vertical,"(890.0, 262.0)",0.9333333333333333,0.433,1,9727.545,1
0,735,target,"[(1059, 894)]",[],[1],[0.3833333333333333],vertical,"(390.0, 262.0)",0.9666666666666667,0.345,1,9733.537,2
