block,trial,trial_type,taps_start_loc_during_fix,taps_end_loc_during_fix,taps_on_lever_during_fix,taps_on_lever_s_during_fix,bar_orientation,target_xy,cti,rt,acc,time,pulses,fa_rate_recent100,actual_invalid_type
0,1,valid,"[(1156, 880)]",[],[1],[0.4166666666666667],vertical,"(890.0, 762.0)",1.25,0.383,1,0.457,1,0.0,same
0,2,invalid_same_bar,"[(1099, 855)]",[],[1],[0.85],horizontal,"(890.0, 262.0)",1.45,nan,0,86.137,0,0.0,same
0,3,catch,"[(1107, 828)]",[],[1],[],horizontal,"(890.0, 262.0)",1.7,nan,1,285.957,1,0.0,same
0,4,invalid_same_bar,"[(1079, 843)]",[],[1],[0.85],vertical,"(890.0, 762.0)",0.48333333333333334,nan,0,358.622,0,0.0,same
0,5,valid,"[(1077, 861)]",[],[1],[],vertical,"(890.0, 262.0)",,"('cti', 0.502)",0,365.584,0,0.0,same
0,6,valid,"[(1092, 810)]",[],[1],[],vertical,"(390.0, 762.0)",,"('cti', 0.735)",0,373.206,0,0.0,same
0,7,catch,"[(1093, 831)]",[],[1],[],horizontal,"(890.0, 262.0)",1.7,nan,1,376.894,1,0.0,same
0,8,valid,"[(1111, 804)]",[],[1],[0.7666666666666666],vertical,"(390.0, 762.0)",1.2333333333333334,0.721,1,382.467,1,0.0,same
0,9,valid,"[(1111, 791)]",[],[1],[0.85],horizontal,"(390.0, 762.0)",0.7166666666666667,nan,0,388.281,0,0.0,same
0,10,catch,"[(1148, 791)]",[],[1],[],horizontal,"(890.0, 262.0)",1.7,nan,1,393.029,1,0.0,same
0,11,valid,"[(1140, 784)]",[],[1],[0.85],vertical,"(390.0, 762.0)",1.0833333333333333,nan,0,398.768,0,0.0,same
0,12,valid,"[(1124, 841)]",[],[1],[0.85],vertical,"(890.0, 762.0)",1.2333333333333334,nan,0,403.49,0,0.0,same
0,13,valid,"[(1131, 850)]",[],[1],[0.65],horizontal,"(890.0, 262.0)",1.5333333333333332,0.6,1,408.689,1,0.0,same
0,14,valid,"[(1121, 794)]",[],[1],[0.6333333333333333],vertical,"(890.0, 262.0)",1.1166666666666667,0.587,1,416.173,1,0.0,same
0,15,valid,"[(1141, 789)]",[],[1],[0.85],horizontal,"(890.0, 762.0)",0.8166666666666667,nan,0,421.106,0,0.0,same
0,16,catch,"[(1093, 857)]",[],[1],[],vertical,"(390.0, 262.0)",1.7,nan,1,425.346,1,0.0,same
0,17,valid,"[(1128, 801)]",[],[1],[0.85],horizontal,"(890.0, 262.0)",1.45,nan,0,432.749,0,0.0,same
0,18,valid,"[(1131, 807)]",[],[1],[0.85],horizontal,"(890.0, 762.0)",0.5333333333333333,nan,0,437.896,0,0.0,same
0,19,invalid_adjacent_other_bar,"[(1092, 811)]",[],[1],[0.85],vertical,"(390.0, 762.0)",1.15,nan,0,442.191,0,0.0,other
0,20,invalid_adjacent_other_bar,"[(1102, 821)]",[],[1],[0.85],horizontal,"(390.0, 762.0)",0.5333333333333333,nan,0,454.74,0,0.0,other
0,21,catch,"[(1091, 825)]",[],[1],[],vertical,"(390.0, 762.0)",1.7,nan,1,459.376,1,0.0,same
0,22,valid,"[(1155, 808)]",[],[1],[0.5833333333333334],horizontal,"(890.0, 762.0)",0.7166666666666667,0.539,1,465.022,1,0.0,same
0,23,invalid_same_bar,"[(1152, 807)]",[],[1],[0.85],horizontal,"(890.0, 262.0)",0.6333333333333333,nan,0,469.673,0,0.0,same
0,24,valid,"[(1093, 816)]",[],[1],[0.5666666666666667],horizontal,"(890.0, 262.0)",1.1833333333333333,0.52,1,473.88,1,0.0,same
0,25,valid,"[(1130, 789)]",[],[1],[0.6333333333333333],horizontal,"(890.0, 762.0)",0.5333333333333333,0.587,1,479.273,1,0.0,same
0,26,catch,"[(1149, 787)]",[],[1],[],horizontal,"(890.0, 262.0)",1.7,nan,1,484.045,1,0.0,same
0,27,catch,"[(1166, 803)]",[],[1],[],vertical,"(390.0, 262.0)",1.7,nan,1,489.673,2,0.0,same
0,28,valid,"[(1190, 814)]",[],[1],[0.7],vertical,"(890.0, 262.0)",1.5333333333333332,0.65,1,495.432,2,0.0,same
0,29,valid,"[(1162, 783)]",[],[1],[0.6],horizontal,"(390.0, 762.0)",1.2333333333333334,0.552,1,501.49,2,0.0,same
0,30,valid,"[(1173, 795)]",[],[1],[0.6333333333333333],horizontal,"(390.0, 762.0)",1.2666666666666666,0.587,1,506.857,3,0.0,same
0,31,valid,"[(1136, 805)]",[],[1],[0.85],vertical,"(390.0, 262.0)",1.3333333333333333,nan,0,512.828,0,0.0,same
0,32,catch,"[(1122, 791)]",[],[1],[],horizontal,"(390.0, 762.0)",1.7,nan,1,518.257,1,0.0,same
0,33,valid,"[(1146, 792)]",[],[1],[0.85],horizontal,"(890.0, 762.0)",0.4166666666666667,nan,0,523.769,0,0.0,same
0,34,invalid_adjacent_other_bar,"[(1077, 823)]",[],[1],[0.55],vertical,"(390.0, 762.0)",1.2166666666666666,0.505,1,527.644,1,0.0,other
0,35,catch,"[(1161, 799)]",[],[1],[],vertical,"(890.0, 262.0)",1.7,nan,1,534.134,1,0.0,same
0,36,invalid_adjacent_other_bar,"[(1158, 788)]",[],[1],[0.6],horizontal,"(390.0, 762.0)",0.4,0.552,1,539.372,1,0.0,other
0,37,valid,"[(1151, 803)]",[],[1],[0.85],vertical,"(390.0, 262.0)",1.1166666666666667,nan,0,543.794,0,0.0,same
0,38,catch,"[(1121, 786)]",[],[1],[],horizontal,"(390.0, 762.0)",1.7,nan,1,548.973,1,0.0,same
0,39,valid,"[(1141, 783)]",[],[1],[0.6],vertical,"(890.0, 262.0)",0.5,0.557,1,554.361,1,0.0,same
0,40,catch,"[(1157, 796)]",[],[1],[],vertical,"(390.0, 262.0)",1.7,nan,1,558.69,1,0.0,same
0,41,valid,"[(1156, 803)]",[],[1],[0.6166666666666667],horizontal,"(390.0, 762.0)",0.36666666666666664,0.574,1,564.076,2,0.0,same
0,42,invalid_same_bar,"[(1190, 809)]",[],[1],[0.7833333333333333],horizontal,"(890.0, 262.0)",0.75,0.746,1,569.386,2,0.0,same
0,43,catch,"[(1132, 773)]",[],[1],[],horizontal,"(390.0, 762.0)",1.7,nan,1,574.74,2,0.0,same
0,44,valid,"[(1149, 790)]",[],[1],[0.5333333333333333],vertical,"(890.0, 762.0)",0.4666666666666667,0.497,1,580.215,3,0.0,same
0,45,valid,"[(1151, 779)]",[],[1],[0.55],horizontal,"(890.0, 262.0)",1.4666666666666666,0.506,1,586.041,3,0.0,same
0,46,valid,"[(1156, 786)]",[],[1],[0.6333333333333333],horizontal,"(890.0, 762.0)",1.4333333333333333,0.591,1,592.567,3,0.0,same
0,47,invalid_same_bar,"[(1181, 777)]",[],[1],[0.5333333333333333],vertical,"(390.0, 262.0)",1.5333333333333332,0.494,1,598.587,3,0.0,same
0,48,invalid_adjacent_other_bar,"[(1151, 782)]",[],[1],[0.65],vertical,"(890.0, 262.0)",0.3833333333333333,0.607,1,604.913,3,0.0,other
0,49,valid,"[(1167, 779)]",[],[1],[0.5166666666666666],vertical,"(390.0, 762.0)",0.55,0.477,1,610.095,3,0.0,same
0,50,valid,"[(1155, 778)]",[],[1],[0.85],horizontal,"(390.0, 262.0)",0.7,nan,0,615.484,0,0.0,same
0,51,valid,"[(1136, 789)]",[],[1],[0.5666666666666667],vertical,"(890.0, 762.0)",1.5333333333333332,0.527,1,620.358,1,0.0,same
0,52,catch,"[(1200, 780)]",[],[1],[],horizontal,"(890.0, 762.0)",1.7,nan,1,626.207,1,0.0,same
0,53,valid,"[(1175, 782)]",[],[1],[0.5],horizontal,"(890.0, 262.0)",0.48333333333333334,0.464,1,631.372,1,0.0,same
0,54,invalid_same_bar,"[(1159, 777)]",[],[1],[0.65],vertical,"(390.0, 262.0)",1.45,0.606,1,635.674,2,0.0,same
0,55,valid,"[(1161, 785)]",[],[1],[0.85],horizontal,"(890.0, 762.0)",1.2166666666666666,nan,0,641.806,0,0.0,same
0,56,valid,"[(1159, 806)]",[],[1],[0.5166666666666666],horizontal,"(890.0, 762.0)",1.5166666666666666,0.482,1,646.933,1,0.0,same
0,57,valid,"[(1166, 786)]",[],[1],[0.5166666666666666],vertical,"(890.0, 762.0)",0.75,0.476,1,652.641,1,0.0,same
0,58,valid,"[(1153, 799)]",[],[1],[0.55],vertical,"(390.0, 262.0)",0.45,0.509,1,657.11,1,0.0,same
0,59,valid,"[(1169, 775)]",[],[1],[0.5166666666666666],horizontal,"(390.0, 762.0)",0.7166666666666667,0.474,1,661.258,2,0.0,same
0,60,invalid_adjacent_other_bar,"[(1124, 853)]",[],[1],[0.48333333333333334],horizontal,"(890.0, 262.0)",0.7166666666666667,0.446,1,666.825,2,0.0,other
0,61,valid,"[(1156, 786)]",[],[1],[0.7666666666666666],horizontal,"(390.0, 762.0)",1.3333333333333333,0.731,1,671.858,2,0.0,same
0,62,valid,"[(1130, 795)]",[],[1],[0.6666666666666666],vertical,"(390.0, 262.0)",0.4166666666666667,0.624,1,678.356,3,0.0,same
0,63,catch,"[(1125, 846)]",[],[1],[],horizontal,"(390.0, 262.0)",1.7,nan,1,684.092,3,0.0,same
0,64,valid,"[(1171, 787)]",[],[1],[0.85],vertical,"(390.0, 762.0)",0.35,nan,0,690.425,0,0.0,same
0,65,invalid_adjacent_other_bar,"[(1128, 775)]",[],[1],[0.5666666666666667],vertical,"(890.0, 262.0)",0.8666666666666667,0.525,1,694.465,1,0.0,other
0,66,catch,"[(1170, 771)]",[],[1],[],vertical,"(390.0, 262.0)",1.7,nan,1,699.374,1,0.0,same
0,67,valid,"[(1138, 773)]",[],[1],[0.5166666666666666],horizontal,"(890.0, 262.0)",0.6,0.473,1,704.591,1,0.0,same
0,68,catch,"[(1166, 779)]",[],[1],[],horizontal,"(390.0, 762.0)",1.7,nan,1,708.957,2,0.0,same
0,69,invalid_same_bar,"[(1171, 803)]",[],[1],[0.5166666666666666],vertical,"(890.0, 262.0)",1.0333333333333332,0.476,1,714.783,2,0.0,same
0,70,catch,"[(1162, 778)]",[],[1],[],vertical,"(390.0, 762.0)",1.7,nan,1,719.808,2,0.0,same
0,71,valid,"[(1147, 778)]",[],[1],[0.65],vertical,"(890.0, 762.0)",1.5,0.614,1,725.774,3,0.0,same
0,72,valid,"[(1161, 793)]",[],[1],[0.5333333333333333],vertical,"(890.0, 262.0)",1.0166666666666666,0.493,1,732.562,3,0.0,same
0,73,valid,"[(1174, 749), (1136, 824)]",[],"[0, 1]",[0.5666666666666667],horizontal,"(390.0, 762.0)",1.2166666666666666,0.523,1,738.058,3,0.0,same
0,74,valid,"[(1179, 770)]",[],[1],[0.5833333333333334],horizontal,"(390.0, 762.0)",1.4166666666666667,0.545,1,745.562,3,0.0,same
0,75,valid,"[(1160, 815)]",[],[1],[0.5166666666666666],horizontal,"(390.0, 762.0)",0.4,0.475,1,751.573,3,0.0,same
0,76,catch,"[(1170, 786)]",[],[1],[],vertical,"(390.0, 262.0)",1.7,nan,1,756.96,3,0.0,same
0,77,valid,"[(1164, 785)]",[],[1],[0.6],horizontal,"(390.0, 762.0)",1.05,0.558,1,763.114,3,0.0,same
0,78,valid,"[(1150, 796)]",[],[1],[0.85],vertical,"(390.0, 762.0)",1.0333333333333332,nan,0,769.025,0,0.0,same
0,79,catch,"[(1152, 790)]",[],[1],[],vertical,"(890.0, 762.0)",1.7,nan,1,774.192,1,0.0,same
0,80,valid,"[(1158, 775)]",[],[1],[0.6166666666666667],vertical,"(390.0, 262.0)",1.3333333333333333,0.572,1,779.406,1,0.0,same
0,81,valid,"[(1173, 781)]",[],[1],[0.5],horizontal,"(390.0, 262.0)",0.75,0.466,1,784.552,1,0.0,same
0,82,catch,"[(1159, 783)]",[],[1],[],vertical,"(890.0, 762.0)",1.7,nan,1,789.357,2,0.0,same
0,83,valid,"[(1177, 774)]",[],[1],[0.5166666666666666],horizontal,"(890.0, 762.0)",0.65,0.481,1,795.129,2,0.0,same
0,84,valid,"[(1157, 785)]",[],[1],[0.85],horizontal,"(890.0, 762.0)",1.4666666666666666,nan,0,799.922,0,0.0,same
0,85,valid,"[(1139, 783)]",[],[1],[0.6666666666666666],vertical,"(390.0, 262.0)",0.8166666666666667,0.627,1,805.041,1,0.0,same
0,86,valid,"[(1155, 786)]",[],[1],[0.5],horizontal,"(890.0, 262.0)",0.8,0.461,1,810.058,1,0.0,same
0,87,valid,"[(1170, 782)]",[],[1],[0.4666666666666667],vertical,"(890.0, 262.0)",0.6666666666666666,0.426,1,814.441,1,0.0,same
0,88,catch,"[(1155, 824)]",[],[1],[],vertical,"(390.0, 762.0)",1.7,nan,1,819.279,2,0.0,same
0,89,catch,"[(1155, 799)]",[],[1],[],vertical,"(390.0, 762.0)",1.7,nan,1,824.958,2,0.0,same
0,90,catch,"[(1149, 799)]",[],[1],[],horizontal,"(890.0, 762.0)",1.7,nan,1,830.275,2,0.0,same
0,91,valid,"[(1153, 792)]",[],[1],[0.5333333333333333],vertical,"(890.0, 262.0)",1.25,0.49,1,835.848,3,0.0,same
0,92,valid,"[(1175, 803)]",[],[1],[0.6833333333333333],vertical,"(890.0, 762.0)",1.4833333333333334,0.634,1,841.844,3,0.0,same
0,93,valid,"[(1175, 791)]",[],[1],[0.6666666666666666],horizontal,"(390.0, 262.0)",0.8166666666666667,0.622,1,848.241,3,0.0,same
0,94,valid,"[(1163, 809)]",[],[1],[0.5],vertical,"(890.0, 762.0)",1.3833333333333333,0.465,1,854.157,3,0.0,same
0,95,valid,"[(1175, 790)]",[],[1],[0.48333333333333334],vertical,"(890.0, 762.0)",0.6666666666666666,0.448,1,860.204,3,0.0,same
0,96,valid,"[(1178, 772)]",[],[1],[0.6],horizontal,"(390.0, 262.0)",0.6,0.552,1,865.894,3,0.0,same
0,97,catch,"[(1108, 811)]",[],[1],[],vertical,"(390.0, 762.0)",1.7,nan,1,871.149,3,0.0,same
0,98,valid,"[(1154, 794)]",[],[1],[0.5333333333333333],horizontal,"(890.0, 762.0)",0.65,0.493,1,877.941,3,0.0,same
0,99,valid,"[(1117, 782)]",[],[1],[0.5333333333333333],horizontal,"(890.0, 262.0)",0.9333333333333333,0.495,1,883.326,3,0.0,same
0,100,valid,"[(1155, 768)]",[],[1],[0.5],vertical,"(390.0, 262.0)",0.4,0.462,1,889.074,3,0.0,same
0,101,valid,"[(1172, 800)]",[],[1],[0.48333333333333334],vertical,"(890.0, 262.0)",0.7166666666666667,0.439,1,894.358,3,0.0,same
0,102,valid,"[(1175, 786)]",[],[1],[0.85],vertical,"(390.0, 762.0)",0.6833333333333333,nan,0,900.001,0,0.0,same
0,103,catch,"[(1112, 796)]",[],[1],[],horizontal,"(390.0, 762.0)",1.7,nan,1,904.292,1,0.0,same
0,104,valid,"[(1155, 776)]",[],[1],[0.55],horizontal,"(390.0, 262.0)",1.2166666666666666,0.507,1,909.458,1,0.0,same
0,105,valid,"[(1200, 777)]",[],[1],[0.5],horizontal,"(890.0, 762.0)",0.5666666666666667,0.458,1,914.59,1,0.0,same
0,106,valid,"[(1151, 778)]",[],[1],[0.5333333333333333],horizontal,"(890.0, 262.0)",0.9166666666666666,0.49,1,919.562,2,0.0,same
0,107,invalid_same_bar,"[(1155, 796)]",[],[1],[0.5],horizontal,"(890.0, 262.0)",0.5333333333333333,0.462,1,924.858,2,0.0,same
0,108,valid,"[(1156, 789)]",[],[1],[0.7],vertical,"(390.0, 762.0)",0.9333333333333333,0.66,1,929.541,2,0.0,same
0,109,valid,"[(1161, 799)]",[],[1],[0.65],horizontal,"(390.0, 262.0)",0.45,0.617,1,935.411,3,0.0,same
0,110,valid,"[(1137, 806)]",[],[1],[0.85],vertical,"(390.0, 762.0)",1.35,nan,0,941.538,0,0.0,same
0,111,catch,"[(1104, 880)]",[],[1],[],horizontal,"(890.0, 262.0)",,"('cti', 0.295),nan",0,946.507,0,0.02,same
0,112,invalid_same_bar,"[(1132, 821)]","[(1136, 826)]",[1],[0.5333333333333333],vertical,"(390.0, 262.0)",,"('bar', 0.54)",0,1048.523,0,0.02,same
0,113,valid,"[(1128, 822)]","[(1099, 857)]",[1],[0.6166666666666667],vertical,"(390.0, 262.0)",,"('bar', 0.625)",0,1051.368,0,0.02,same
0,114,catch,"[(1175, 802)]","[(1158, 820)]",[1],[0.11666666666666667],horizontal,"(890.0, 262.0)",,"('bar', 0.134),nan",0,1058.842,0,0.04,same
0,115,valid,"[(1074, 836)]",[],[1],[],horizontal,"(890.0, 762.0)",,"('fix', 0.067)",0,1061.292,0,0.04,same
0,116,valid,"[(1165, 785)]",[],[1],[0.85],horizontal,"(890.0, 762.0)",0.9333333333333333,nan,0,1063.638,0,0.04,same
0,117,valid,"[(1097, 811)]",[],[1],[0.85],horizontal,"(890.0, 262.0)",0.6666666666666666,nan,0,1068.47,0,0.04,same
0,118,valid,"[(1074, 825)]","[(1007, 869)]",[1],[0.6333333333333333],horizontal,"(390.0, 262.0)",,"('bar', 0.636)",0,1076.293,0,0.04,same
0,119,valid,"[(1109, 845)]",[],[1],[0.85],vertical,"(390.0, 262.0)",0.5666666666666667,nan,0,1087.261,0,0.04,same
0,120,valid,"[(1155, 811)]","[(1120, 843)]",[1],[0.06666666666666667],vertical,"(390.0, 262.0)",,"('bar', 0.085)",0,1103.491,0,0.04,same
0,121,valid,"[(1112, 815)]",[],[1],[0.85],vertical,"(390.0, 262.0)",1.4666666666666666,nan,0,1112.762,0,0.04,same
0,122,valid,"[(1126, 821)]",[],[1],[0.5333333333333333],horizontal,"(390.0, 262.0)",1.2,0.491,1,1129.205,1,0.04,same
0,123,valid,"[(1153, 792)]",[],[1],[0.5],vertical,"(390.0, 762.0)",0.6833333333333333,0.46,1,1134.492,1,0.04,same
0,124,valid,"[(1158, 777)]",[],[1],[0.6166666666666667],vertical,"(390.0, 262.0)",1.0333333333333332,0.577,1,1139.255,1,0.04,same
0,125,valid,"[(1195, 799)]",[],[1],[0.85],vertical,"(390.0, 762.0)",1.1166666666666667,nan,0,1144.276,0,0.04,same
0,126,valid,"[(1136, 806)]",[],[1],[0.85],vertical,"(890.0, 762.0)",1.4333333333333333,nan,0,1149.176,0,0.04,same
0,127,valid,"[(1157, 784)]",[],[1],[0.85],vertical,"(890.0, 262.0)",1.3,nan,0,1154.51,0,0.04,same
0,128,valid,"[(1116, 798)]",[],[1],[0.85],horizontal,"(890.0, 762.0)",0.7,nan,0,1159.675,0,0.04,same
0,129,valid,"[(1158, 799)]",[],[1],[0.4666666666666667],horizontal,"(390.0, 262.0)",0.9666666666666667,0.429,1,1165.593,1,0.04,same
0,130,catch,"[(1170, 799)]",[],[1],[],vertical,"(390.0, 262.0)",1.7,nan,1,1170.691,1,0.04,same
0,131,valid,"[(1161, 798)]",[],[1],[0.6666666666666666],horizontal,"(890.0, 762.0)",0.4166666666666667,0.627,1,1175.521,1,0.04,same
0,132,valid,"[(1190, 789)]",[],[1],[0.6166666666666667],vertical,"(890.0, 762.0)",1.2666666666666666,0.572,1,1180.01,2,0.04,same
0,133,valid,"[(1205, 772)]",[],[1],[0.5166666666666666],vertical,"(890.0, 762.0)",1.2833333333333332,0.476,1,1185.826,2,0.04,same
0,134,valid,"[(1176, 783)]",[],[1],[0.5166666666666666],horizontal,"(390.0, 762.0)",0.7166666666666667,0.474,1,1191.51,2,0.04,same
0,135,valid,"[(1172, 787)]",[],[1],[0.5],vertical,"(390.0, 262.0)",0.7333333333333333,0.464,1,1196.61,3,0.04,same
0,136,valid,"[(1162, 817)]",[],[1],[0.6],horizontal,"(390.0, 762.0)",1.4666666666666666,0.569,1,1202.56,3,0.04,same
0,137,valid,"[(1166, 813)]",[],[1],[0.5833333333333334],vertical,"(890.0, 762.0)",1.1333333333333333,0.543,1,1208.91,3,0.04,same
0,138,valid,"[(1163, 783)]",[],[1],[0.6833333333333333],vertical,"(890.0, 762.0)",1.1,0.637,1,1215.043,3,0.04,same
0,139,valid,"[(1190, 787)]",[],[1],[0.55],horizontal,"(390.0, 262.0)",0.85,0.509,1,1221.465,3,0.04,same
0,140,invalid_same_bar,"[(1175, 791)]",[],[1],[0.48333333333333334],vertical,"(890.0, 762.0)",1.0,0.441,1,1227.224,3,0.04,same
0,141,catch,"[(1188, 804)]",[],[1],[],horizontal,"(390.0, 762.0)",1.7,nan,1,1232.743,3,0.04,same
0,142,catch,"[(1160, 791)]",[],[1],[],horizontal,"(890.0, 262.0)",1.7,nan,1,1238.776,3,0.04,same
0,143,valid,"[(1170, 776)]",[],[1],[0.5],horizontal,"(890.0, 762.0)",1.3,0.462,1,1244.931,3,0.04,same
0,144,valid,"[(1159, 784)]",[],[1],[0.5666666666666667],vertical,"(390.0, 762.0)",0.7333333333333333,0.525,1,1250.777,3,0.04,same
0,145,valid,"[(1131, 825)]",[],[1],[0.8333333333333334],horizontal,"(390.0, 762.0)",0.9166666666666666,0.783,1,1256.244,3,0.04,same
0,146,valid,"[(1158, 787)]",[],[1],[0.85],vertical,"(890.0, 762.0)",1.5333333333333332,nan,0,1595.143,0,0.04,same
0,147,valid,"[(1106, 812)]",[],[1],[0.6],horizontal,"(890.0, 762.0)",1.45,0.559,1,1600.693,1,0.04,same
0,148,valid,"[(1149, 809)]",[],[1],[0.85],horizontal,"(390.0, 762.0)",0.7333333333333333,nan,0,1608.46,0,0.04,same
0,149,catch,"[(1132, 796)]",[],[1],[],vertical,"(890.0, 262.0)",1.7,nan,1,1612.994,1,0.04,same
0,150,invalid_adjacent_other_bar,"[(1149, 777)]",[],[1],[0.85],vertical,"(890.0, 262.0)",0.7166666666666667,nan,0,1618.021,0,0.04,other
0,151,valid,"[(1105, 806)]",[],[1],[0.85],vertical,"(390.0, 262.0)",1.0,nan,0,1622.529,0,0.04,same
0,152,valid,"[(1170, 799)]",[],[1],[0.85],horizontal,"(890.0, 262.0)",0.75,nan,0,1628.411,0,0.04,same
0,153,invalid_adjacent_other_bar,"[(1142, 825)]",[],[1],[0.85],horizontal,"(390.0, 762.0)",0.7166666666666667,nan,0,1632.583,0,0.04,other
0,154,catch,"[(1133, 820)]",[],[1],[],vertical,"(890.0, 762.0)",1.7,nan,1,1636.678,1,0.04,same
0,155,catch,"[(1167, 790)]",[],[1],[],vertical,"(390.0, 762.0)",1.7,nan,1,1647.671,1,0.04,same
0,156,valid,"[(1174, 812)]",[],[1],[0.55],vertical,"(890.0, 262.0)",1.2333333333333334,0.507,1,1652.902,1,0.04,same
0,157,valid,"[(1183, 818)]",[],[1],[0.5833333333333334],horizontal,"(390.0, 262.0)",0.6,0.536,1,1657.781,2,0.04,same
0,158,invalid_adjacent_other_bar,"[(1158, 807)]",[],[1],[0.6166666666666667],horizontal,"(890.0, 262.0)",0.7166666666666667,0.569,1,1662.838,2,0.04,other
0,159,valid,"[(1173, 791)]",[],[1],[0.5666666666666667],vertical,"(890.0, 262.0)",0.3833333333333333,0.523,1,1668.081,2,0.04,same
0,160,valid,"[(1141, 831)]",[],[1],[0.6333333333333333],horizontal,"(390.0, 262.0)",1.3333333333333333,0.592,1,1673.26,3,0.04,same
0,161,catch,"[(1170, 796)]",[],[1],[],horizontal,"(890.0, 262.0)",1.7,nan,1,1836.907,3,0.02,same
0,162,valid,"[(1176, 759)]",[],[1],[0.6],vertical,"(890.0, 262.0)",0.6333333333333333,0.56,1,1842.584,3,0.02,same
0,163,valid,"[(1159, 782)]",[],[1],[0.55],vertical,"(890.0, 262.0)",1.05,0.514,1,1848.095,3,0.02,same
0,164,valid,"[(1180, 790)]",[],[1],[0.5666666666666667],horizontal,"(890.0, 262.0)",1.1833333333333333,0.53,1,1854.094,3,0.0,same
0,165,valid,"[(1174, 811)]",[],[1],[0.5],vertical,"(390.0, 262.0)",0.6333333333333333,0.46,1,1859.71,3,0.0,same
0,166,invalid_adjacent_other_bar,"[(1160, 791)]",[],[1],[0.85],horizontal,"(390.0, 262.0)",1.4666666666666666,nan,0,1865.196,0,0.0,other
0,167,valid,"[(1136, 786)]",[],[1],[0.75],horizontal,"(390.0, 762.0)",1.4666666666666666,0.704,1,1870.794,1,0.0,same
0,168,catch,"[(1174, 780)]",[],[1],[],vertical,"(390.0, 762.0)",1.7,nan,1,1876.614,1,0.0,same
0,169,valid,"[(1182, 792)]",[],[1],[0.6833333333333333],horizontal,"(390.0, 262.0)",1.3166666666666667,0.638,1,1881.768,1,0.0,same
0,170,catch,"[(1180, 800)]",[],[1],[],vertical,"(390.0, 262.0)",1.7,nan,1,1887.094,2,0.0,same
0,171,valid,"[(1200, 770)]",[],[1],[0.5],vertical,"(390.0, 762.0)",1.25,0.46,1,1892.609,2,0.0,same
0,172,valid,"[(1175, 775)]",[],[1],[0.45],vertical,"(890.0, 762.0)",0.5,0.412,1,1898.313,2,0.0,same
0,173,catch,"[(1197, 787)]",[],[1],[],vertical,"(890.0, 762.0)",,"('cti', 0.15),nan",0,1903.72,0,0.02,same
0,174,valid,"[(1155, 766)]",[],[1],[0.85],vertical,"(390.0, 262.0)",0.4,nan,0,1907.033,0,0.02,same
0,175,valid,"[(1173, 788)]",[],[1],[0.6666666666666666],vertical,"(390.0, 762.0)",0.9333333333333333,0.631,1,1911.494,1,0.02,same
0,176,valid,"[(1198, 790)]","[(1156, 866)]",[1],[0.75],horizontal,"(390.0, 262.0)",,"('bar', 0.761)",0,1916.511,0,0.02,same
0,177,valid,"[(1101, 772)]",[],[1],[0.5166666666666666],horizontal,"(390.0, 762.0)",1.4,0.473,1,1919.329,1,0.02,same
0,178,valid,"[(1170, 800)]",[],[1],[0.65],vertical,"(390.0, 262.0)",0.75,0.611,1,1925.028,1,0.02,same
0,179,valid,"[(1173, 794)]",[],[1],[0.6666666666666666],vertical,"(390.0, 262.0)",1.1833333333333333,0.621,1,1930.079,1,0.02,same
0,180,valid,"[(1183, 789)]",[],[1],[0.7333333333333333],vertical,"(390.0, 262.0)",1.0333333333333332,0.695,1,1935.245,2,0.02,same
0,181,invalid_same_bar,"[(1165, 780)]",[],[1],[0.5],vertical,"(890.0, 762.0)",0.8833333333333333,0.462,1,1941.211,2,0.02,same
0,182,valid,"[(1163, 790)]",[],[1],[0.5166666666666666],vertical,"(890.0, 262.0)",1.5,0.476,1,1946.745,2,0.02,same
0,183,catch,"[(1171, 802)]",[],[1],[],horizontal,"(890.0, 762.0)",1.7,nan,1,1952.788,3,0.02,same
0,184,valid,"[(1166, 781)]",[],[1],[0.48333333333333334],vertical,"(390.0, 262.0)",0.8,0.445,1,1959.061,3,0.02,same
0,185,valid,"[(1183, 795)]",[],[1],[0.5333333333333333],vertical,"(390.0, 262.0)",1.1666666666666667,0.488,1,1964.395,3,0.02,same
0,186,invalid_same_bar,"[(1133, 852)]",[],[1],[0.85],horizontal,"(390.0, 262.0)",0.45,nan,0,1970.144,0,0.02,same
0,187,catch,"[(1159, 805)]",[],[1],[],horizontal,"(890.0, 262.0)",1.7,nan,1,3886.951,1,0.02,same
0,188,valid,"[(1160, 773)]",[],[1],[0.85],vertical,"(390.0, 762.0)",0.55,nan,0,3892.223,0,0.02,same
0,189,valid,"[(1111, 841)]",[],[1],[0.85],horizontal,"(390.0, 262.0)",0.9833333333333333,nan,0,3898.087,0,0.02,same
0,190,valid,"[(1125, 811)]",[],[1],[0.85],horizontal,"(890.0, 262.0)",0.9333333333333333,nan,0,3903.336,0,0.02,same
0,191,valid,"[(1121, 805)]",[],[1],[0.85],horizontal,"(390.0, 262.0)",0.5166666666666666,nan,0,3907.744,0,0.02,same
0,192,valid,"[(1146, 833)]",[],[1],"[0.85, 0.85]",horizontal,"(390.0, 762.0)",1.3666666666666667,"0.802,nan",0,3912.704,0,0.02,same
0,193,valid,"[(1132, 822)]",[],[1],[0.75],horizontal,"(890.0, 762.0)",1.4166666666666667,0.705,1,3917.685,1,0.02,same
0,194,catch,"[(1154, 791)]",[],[1],[],vertical,"(890.0, 262.0)",1.7,nan,1,3923.408,1,0.02,same
0,195,valid,"[(1173, 810)]",[],[1],[0.55],vertical,"(390.0, 262.0)",1.4833333333333334,0.519,1,3928.96,1,0.02,same
0,196,valid,"[(1182, 759)]",[],[1],[0.85],horizontal,"(890.0, 262.0)",0.65,nan,0,3934.434,0,0.02,same
0,197,valid,"[(1165, 801)]",[],[1],[0.5333333333333333],vertical,"(390.0, 262.0)",1.0166666666666666,0.49,1,3938.873,1,0.02,same
0,198,valid,"[(1165, 793)]",[],[1],[0.85],vertical,"(890.0, 762.0)",1.1833333333333333,nan,0,3944.1,0,0.02,same
0,199,catch,"[(1165, 802)]",[],[1],[],vertical,"(890.0, 762.0)",1.7,nan,1,3949.252,1,0.02,same
0,200,valid,"[(1175, 806)]",[],[1],[0.65],horizontal,"(390.0, 762.0)",1.35,0.604,1,3954.221,1,0.02,same
0,201,valid,"[(1161, 788)]",[],[1],[0.6],vertical,"(890.0, 762.0)",1.3333333333333333,0.557,1,3959.564,1,0.02,same
0,202,valid,"[(1179, 785)]",[],[1],[0.6],vertical,"(390.0, 262.0)",0.65,0.552,1,3964.718,2,0.02,same
0,203,valid,"[(1179, 792)]",[],[1],[0.85],horizontal,"(890.0, 262.0)",1.2666666666666666,nan,0,3969.7,0,0.02,same
0,204,valid,"[(1162, 812)]",[],[1],[0.5833333333333334],vertical,"(390.0, 762.0)",0.8,0.535,1,3974.985,1,0.02,same
0,205,valid,"[(1160, 816)]",[],[1],[0.6333333333333333],vertical,"(390.0, 262.0)",1.45,0.59,1,3980.007,1,0.02,same
0,206,valid,"[(1156, 786)]",[],[1],[0.5666666666666667],horizontal,"(890.0, 762.0)",0.6,0.529,1,3985.9,1,0.02,same
0,207,valid,"[(1180, 783)]",[],[1],[0.5333333333333333],vertical,"(390.0, 762.0)",1.1166666666666667,0.491,1,3990.386,2,0.02,same
0,208,catch,"[(1175, 768)]",[],[1],[],horizontal,"(890.0, 262.0)",1.7,nan,1,3995.923,2,0.02,same
0,209,valid,"[(1176, 792)]",[],[1],[0.7666666666666666],vertical,"(390.0, 262.0)",0.9166666666666666,0.714,1,4001.69,2,0.02,same
0,210,valid,"[(1183, 791)]",[],[1],[0.5333333333333333],vertical,"(890.0, 262.0)",1.4,0.49,1,4007.55,3,0.02,same
0,211,valid,"[(1167, 799)]",[],[1],[0.5833333333333334],horizontal,"(390.0, 762.0)",0.9833333333333333,0.533,1,4013.986,3,0.02,same
0,212,valid,"[(1159, 793)]",[],[1],[0.85],horizontal,"(390.0, 262.0)",1.2,nan,0,4020.101,0,0.02,same
0,213,valid,"[(1131, 807)]",[],[1],[0.65],vertical,"(390.0, 762.0)",0.7833333333333333,0.61,1,4025.137,1,0.02,same
0,214,valid,"[(1155, 812)]",[],[1],[0.5833333333333334],horizontal,"(390.0, 262.0)",0.5166666666666666,0.546,1,4030.401,1,0.02,same
0,215,valid,"[(1159, 810)]",[],[1],[0.55],horizontal,"(390.0, 262.0)",0.45,0.51,1,4035.198,1,0.02,same
0,216,valid,"[(1157, 781)]",[],[1],[0.85],horizontal,"(390.0, 762.0)",1.4166666666666667,nan,0,4039.499,0,0.02,same
0,217,valid,"[(1131, 803)]",[],[1],[0.65],horizontal,"(390.0, 262.0)",0.7333333333333333,0.604,1,4044.751,1,0.02,same
0,218,invalid_adjacent_other_bar,"[(1163, 808)]",[],[1],[0.5333333333333333],vertical,"(390.0, 762.0)",1.5333333333333332,0.491,1,4049.68,1,0.02,other
0,219,valid,"[(1161, 808)]",[],[1],[0.5333333333333333],vertical,"(890.0, 762.0)",0.7333333333333333,0.493,1,4054.872,1,0.02,same
0,220,valid,"[(1165, 782)]",[],[1],[0.5833333333333334],horizontal,"(890.0, 262.0)",1.25,0.545,1,4059.802,2,0.02,same
0,221,catch,"[(1170, 784)]",[],[1],[],vertical,"(390.0, 762.0)",1.7,nan,1,4065.517,2,0.02,same
0,222,valid,"[(1155, 772)]",[],[1],[0.5666666666666667],horizontal,"(390.0, 762.0)",1.5,0.523,1,4071.049,2,0.02,same
0,223,invalid_adjacent_other_bar,"[(1160, 779)]",[],[1],[0.85],horizontal,"(890.0, 762.0)",0.9166666666666666,nan,0,4077.267,0,0.0,other
0,224,valid,"[(1135, 809)]",[],[1],[0.5333333333333333],vertical,"(890.0, 762.0)",1.0166666666666666,0.496,1,4081.667,1,0.0,same
0,225,valid,"[(1154, 808)]",[],[1],[0.5333333333333333],vertical,"(890.0, 262.0)",0.48333333333333334,0.492,1,4086.534,1,0.0,same
0,226,valid,"[(1155, 802)]",[],[1],[0.6833333333333333],vertical,"(890.0, 762.0)",0.4666666666666667,0.641,1,4090.909,1,0.0,same
0,227,catch,"[(1157, 779)]",[],[1],[],horizontal,"(890.0, 762.0)",1.7,nan,1,4095.833,2,0.0,same
0,228,catch,"[(1160, 762)]",[],[1],[],horizontal,"(890.0, 262.0)",1.7,nan,1,4101.517,2,0.0,same
0,229,catch,"[(1155, 772)]",[],[1],[],vertical,"(390.0, 762.0)",1.7,nan,1,4107.224,2,0.0,same
0,230,valid,"[(1160, 811)]",[],[1],[0.5666666666666667],vertical,"(890.0, 762.0)",0.4166666666666667,0.539,1,4113.189,3,0.0,same
0,231,valid,"[(1176, 802)]",[],[1],[0.6333333333333333],horizontal,"(890.0, 262.0)",1.2666666666666666,0.587,1,4118.268,3,0.0,same
0,232,valid,"[(1144, 813)]",[],[1],[0.5],horizontal,"(390.0, 762.0)",0.55,0.455,1,4124.223,3,0.0,same
0,233,valid,"[(1156, 783)]",[],[1],[0.5833333333333334],vertical,"(890.0, 262.0)",0.36666666666666664,0.539,1,4129.546,3,0.0,same
0,234,valid,"[(1160, 793)]",[],[1],[0.7],horizontal,"(390.0, 262.0)",1.55,0.656,1,4134.475,3,0.0,same
0,235,catch,"[(1158, 775)]",[],[1],[],vertical,"(890.0, 762.0)",1.7,nan,1,4140.95,3,0.0,same
0,236,invalid_same_bar,"[(1170, 772)]",[],[1],[0.5166666666666666],vertical,"(890.0, 262.0)",0.6166666666666667,0.476,1,4147.116,3,0.0,same
0,237,valid,"[(1171, 819)]",[],[1],[0.6833333333333333],horizontal,"(390.0, 262.0)",1.2833333333333332,0.642,1,4152.493,3,0.0,same
0,238,catch,"[(1170, 772)]",[],[1],[],horizontal,"(890.0, 262.0)",1.7,nan,1,4159.181,3,0.0,same
0,239,catch,"[(1164, 801)]",[],[1],[],vertical,"(890.0, 262.0)",1.7,nan,1,4165.168,3,0.0,same
0,240,catch,"[(1161, 789)]",[],[1],[],horizontal,"(890.0, 762.0)",1.7,nan,1,4170.818,3,0.0,same
0,241,invalid_adjacent_other_bar,"[(1158, 772)]",[],[1],[0.5833333333333334],vertical,"(890.0, 762.0)",0.7666666666666666,0.54,1,4177.234,3,0.0,other
0,242,catch,"[(1168, 793)]",[],[1],[],horizontal,"(890.0, 762.0)",1.7,nan,1,4182.584,3,0.0,same
0,243,valid,"[(1165, 779)]",[],[1],[0.5333333333333333],vertical,"(390.0, 762.0)",0.5333333333333333,0.494,1,4188.466,3,0.0,same
0,244,valid,"[(1175, 782)]",[],[1],[0.6],horizontal,"(390.0, 762.0)",1.45,0.557,1,4193.501,3,0.0,same
0,245,valid,"[(1176, 801)]",[],[1],[0.55],horizontal,"(890.0, 262.0)",1.0333333333333332,0.509,1,4199.942,3,0.0,same
0,246,valid,"[(1165, 783)]",[],[1],[0.7166666666666667],horizontal,"(890.0, 762.0)",0.8166666666666667,0.672,1,4206.002,3,0.0,same
0,247,valid,"[(1167, 780)]",[],[1],[0.7],vertical,"(890.0, 762.0)",1.1,0.654,1,4211.935,3,0.0,same
0,248,catch,"[(1170, 802)]",[],[1],[],horizontal,"(390.0, 262.0)",1.7,nan,1,4217.861,3,0.0,same
0,249,invalid_same_bar,"[(1161, 778)]",[],[1],[0.55],vertical,"(890.0, 762.0)",1.5166666666666666,0.511,1,4224.234,3,0.0,same
0,250,catch,"[(1176, 785)]",[],[1],[],vertical,"(390.0, 762.0)",1.7,nan,1,4230.686,3,0.0,same
0,251,valid,"[(1161, 787)]",[],[1],[0.85],vertical,"(390.0, 762.0)",0.5833333333333334,nan,0,4237.018,0,0.0,same
0,252,valid,"[(1126, 839)]",[],[1],[0.55],horizontal,"(390.0, 262.0)",1.05,0.508,1,4240.963,1,0.0,same
0,253,valid,"[(1170, 792)]",[],[1],[0.85],horizontal,"(390.0, 262.0)",0.7166666666666667,nan,0,4246.051,0,0.0,same
0,254,valid,"[(1128, 798)]",[],[1],[0.5333333333333333],vertical,"(890.0, 762.0)",0.5,0.493,1,4250.583,1,0.0,same
0,255,catch,"[(1164, 783)]",[],[1],[],horizontal,"(890.0, 762.0)",1.7,nan,1,4255.353,1,0.0,same
0,256,valid,"[(1141, 783)]",[],[1],[0.5666666666666667],vertical,"(890.0, 262.0)",0.9333333333333333,0.524,1,4260.773,1,0.0,same
0,257,catch,"[(1167, 781)]",[],[1],[],vertical,"(890.0, 762.0)",1.7,nan,1,4266.247,2,0.0,same
0,258,valid,"[(1183, 787)]",[],[1],[0.5166666666666666],vertical,"(890.0, 262.0)",1.5333333333333332,0.478,1,4271.667,2,0.0,same
0,259,catch,"[(1171, 781)]",[],[1],[],horizontal,"(890.0, 262.0)",1.7,nan,1,4277.713,2,0.0,same
0,260,valid,"[(1149, 786)]",[],[1],[0.6333333333333333],vertical,"(390.0, 262.0)",1.4333333333333333,0.592,1,4283.486,3,0.0,same
0,261,catch,"[(1155, 787)]",[],[1],[],vertical,"(390.0, 762.0)",1.7,nan,1,4289.569,3,0.0,same
0,262,invalid_same_bar,"[(1170, 791)]",[],[1],[0.85],horizontal,"(890.0, 762.0)",0.55,nan,0,4295.8,0,0.0,same
0,263,valid,"[(1131, 809)]",[],[1],[0.85],horizontal,"(390.0, 262.0)",0.9,nan,0,4300.101,0,0.0,same
0,264,valid,"[(1131, 791)]",[],[1],[0.6166666666666667],vertical,"(890.0, 262.0)",1.1,0.572,1,4305.489,1,0.0,same
0,265,invalid_adjacent_other_bar,"[(1170, 791)]",[],[1],[0.5166666666666666],vertical,"(390.0, 762.0)",0.8666666666666667,0.478,1,4310.67,1,0.0,other
0,266,valid,"[(1160, 779)]",[],[1],[0.55],horizontal,"(390.0, 262.0)",1.1,0.509,1,4315.585,1,0.0,same
0,267,invalid_adjacent_other_bar,"[(1170, 765)]",[],[1],[0.6833333333333333],vertical,"(390.0, 262.0)",0.9333333333333333,0.641,1,4320.685,2,0.0,other
0,268,valid,"[(1135, 802)]",[],[1],[0.5166666666666666],horizontal,"(890.0, 262.0)",0.8333333333333334,0.475,1,4326.58,2,0.0,same
0,269,valid,"[(1164, 791)]",[],[1],[0.5333333333333333],horizontal,"(390.0, 262.0)",1.1666666666666667,0.491,1,4331.902,2,0.0,same
0,270,catch,"[(1167, 786)]",[],[1],[],horizontal,"(390.0, 262.0)",1.7,nan,1,4337.353,3,0.0,same
0,271,valid,"[(1163, 804)]",[],[1],[0.5833333333333334],horizontal,"(390.0, 262.0)",0.6,0.537,1,4343.325,3,0.0,same
0,272,catch,"[(1135, 781)]",[],[1],[],vertical,"(390.0, 762.0)",1.7,nan,1,4349.422,3,0.0,same
0,273,catch,"[(1161, 790)]",[],[1],[],vertical,"(890.0, 262.0)",1.7,nan,1,4355.686,3,0.0,same
0,274,catch,"[(1165, 786)]",[],[1],[],horizontal,"(890.0, 262.0)",1.7,nan,1,4361.968,3,0.0,same
0,275,catch,"[(1164, 778)]",[],[1],[],vertical,"(390.0, 262.0)",1.7,nan,1,4368.519,3,0.0,same
0,276,catch,"[(1165, 786)]",[],[1],[],vertical,"(390.0, 262.0)",1.7,nan,1,4374.386,3,0.0,same
0,277,valid,"[(1166, 772)]",[],[1],[0.5166666666666666],horizontal,"(390.0, 762.0)",0.45,0.482,1,4380.702,3,0.0,same
0,278,valid,"[(1137, 789)]",[],[1],[0.55],vertical,"(390.0, 762.0)",1.3,0.518,1,4386.017,3,0.0,same
0,279,valid,"[(1166, 776)]",[],[1],[0.5],horizontal,"(390.0, 262.0)",0.6,0.468,1,4392.654,3,0.0,same
0,280,catch,"[(1171, 789)]",[],[1],[],horizontal,"(890.0, 762.0)",1.7,nan,1,4398.434,3,0.0,same
0,281,valid,"[(1166, 801)]",[],[1],[0.5666666666666667],vertical,"(890.0, 762.0)",0.7666666666666666,0.524,1,4404.603,3,0.0,same
0,282,valid,"[(1172, 795)]",[],[1],[0.5166666666666666],vertical,"(890.0, 762.0)",0.4166666666666667,0.482,1,4410.273,3,0.0,same
0,283,valid,"[(1185, 790)]",[],[1],[0.7333333333333333],horizontal,"(890.0, 262.0)",0.9833333333333333,0.687,1,4415.368,3,0.0,same
0,284,valid,"[(1159, 782)]",[],[1],[0.85],horizontal,"(390.0, 262.0)",0.43333333333333335,nan,0,4421.436,0,0.0,same
0,285,valid,"[(1131, 777)]",[],[1],[0.48333333333333334],horizontal,"(390.0, 762.0)",1.4666666666666666,0.443,1,4425.919,1,0.0,same
0,286,catch,"[(1161, 798)]",[],[1],[],vertical,"(890.0, 262.0)",1.7,nan,1,4431.767,1,0.0,same
0,287,valid,"[(1170, 795)]",[],[1],[0.5666666666666667],vertical,"(390.0, 762.0)",1.1333333333333333,0.524,1,4437.448,1,0.0,same
0,288,catch,"[(1165, 794)]",[],[1],[],vertical,"(390.0, 762.0)",,"('cti', 1.282),nan",0,4442.748,0,0.02,same
0,289,catch,"[(1087, 818)]",[],[1],[],vertical,"(890.0, 762.0)",1.7,nan,1,4447.385,1,0.02,same
0,290,catch,"[(1185, 781)]",[],[1],[],vertical,"(890.0, 762.0)",1.7,nan,1,4463.908,1,0.02,same
0,291,valid,"[(1165, 786)]",[],[1],[0.85],horizontal,"(390.0, 262.0)",0.9833333333333333,nan,0,4469.56,0,0.02,same
0,292,valid,"[(1142, 793)]",[],[1],[0.6333333333333333],vertical,"(890.0, 762.0)",0.3833333333333333,0.592,1,4474.885,1,0.02,same
0,293,valid,"[(1131, 790)]",[],[1],[0.7333333333333333],vertical,"(390.0, 762.0)",1.2333333333333334,0.685,1,4479.048,1,0.02,same
0,294,valid,"[(1186, 781)]",[],[1],[0.5166666666666666],horizontal,"(890.0, 262.0)",1.25,0.48,1,4484.234,1,0.02,same
0,295,valid,"[(1168, 799)]",[],[1],[0.5166666666666666],vertical,"(890.0, 762.0)",1.0666666666666667,0.481,1,4489.319,2,0.02,same
0,296,valid,"[(1121, 831)]",[],[1],[0.55],horizontal,"(890.0, 262.0)",1.45,0.507,1,4494.924,2,0.02,same
0,297,catch,"[(1160, 790)]",[],[1],[],horizontal,"(390.0, 262.0)",1.7,nan,1,4500.856,2,0.02,same
0,298,catch,"[(1175, 796)]",[],[1],[],horizontal,"(890.0, 762.0)",,"('cti', 1.603),nan",0,4506.085,0,0.04,same
0,299,valid,"[(1135, 802)]",[],[1],[0.6833333333333333],vertical,"(390.0, 262.0)",0.7333333333333333,0.644,1,4511.152,1,0.04,same
0,300,valid,"[(1136, 795)]",[],[1],[0.5333333333333333],vertical,"(390.0, 262.0)",0.7333333333333333,0.495,1,4516.188,1,0.04,same
0,301,valid,"[(1165, 789)]",[],[1],[0.5833333333333334],horizontal,"(890.0, 762.0)",1.25,0.541,1,4521.019,1,0.04,same
0,302,catch,"[(1149, 804)]",[],[1],[],vertical,"(890.0, 262.0)",1.7,nan,1,4526.565,2,0.04,same
0,303,catch,"[(1164, 787)]",[],[1],[],horizontal,"(890.0, 762.0)",1.7,nan,1,4532.687,2,0.04,same
0,304,valid,"[(1167, 777)]",[],[1],[0.6666666666666666],horizontal,"(390.0, 262.0)",1.4666666666666666,0.623,1,4538.719,2,0.04,same
0,305,valid,"[(1160, 783)]",[],[1],[0.5833333333333334],horizontal,"(390.0, 762.0)",1.4333333333333333,0.545,1,4544.646,3,0.04,same
0,306,valid,"[(1187, 774)]",[],[1],[0.5833333333333334],vertical,"(390.0, 262.0)",1.5,0.541,1,4550.985,3,0.04,same
0,307,invalid_same_bar,"[(1159, 777)]",[],[1],[0.6166666666666667],horizontal,"(390.0, 762.0)",0.5666666666666667,0.577,1,4557.253,3,0.04,same
0,308,valid,"[(1166, 782)]",[],[1],[0.6],horizontal,"(890.0, 762.0)",1.25,0.558,1,4562.369,3,0.04,same
0,309,catch,"[(1172, 801)]",[],[1],[],vertical,"(890.0, 262.0)",1.7,nan,1,4568.787,3,0.04,same
0,310,valid,"[(1174, 796)]",[],[1],[0.7166666666666667],horizontal,"(390.0, 762.0)",1.1333333333333333,0.667,1,4574.69,3,0.04,same
0,311,valid,"[(1167, 803)]",[],[1],[0.55],vertical,"(890.0, 762.0)",0.8833333333333333,0.508,1,4580.704,3,0.04,same
0,312,catch,"[(1162, 790)]",[],[1],[],horizontal,"(890.0, 262.0)",1.7,nan,1,4586.62,3,0.04,same
0,313,valid,"[(1169, 816)]",[],[1],[0.85],horizontal,"(390.0, 762.0)",0.3833333333333333,nan,0,4593.037,0,0.04,same
0,314,valid,"[(1121, 803)]",[],[1],[0.85],vertical,"(390.0, 262.0)",0.55,nan,0,4597.07,0,0.04,same
0,315,valid,"[(1132, 781)]",[],[1],[0.5833333333333334],vertical,"(390.0, 262.0)",0.35,0.537,1,4601.021,1,0.04,same
0,316,valid,"[(1121, 794)]",[],[1],[0.5],vertical,"(890.0, 262.0)",0.6333333333333333,0.459,1,4605.436,1,0.04,same
0,317,valid,"[(1175, 769)]",[],[1],[0.5333333333333333],vertical,"(890.0, 762.0)",1.4333333333333333,0.496,1,4610.084,1,0.04,same
0,318,valid,"[(1165, 772)]",[],[1],[0.6166666666666667],horizontal,"(390.0, 762.0)",1.4,0.585,1,4615.703,2,0.04,same
0,319,valid,"[(1166, 798)]",[],[1],[0.6333333333333333],horizontal,"(390.0, 262.0)",0.4,0.584,1,4621.627,2,0.04,same
0,320,valid,"[(1168, 773)]",[],[1],[0.85],horizontal,"(390.0, 262.0)",0.9,nan,0,4626.601,0,0.04,same
0,321,valid,"[(1157, 772)]",[],[1],[0.6],horizontal,"(390.0, 262.0)",1.2333333333333334,0.561,1,4631.436,1,0.04,same
0,322,valid,"[(1156, 772)]",[],[1],[0.5],vertical,"(890.0, 762.0)",0.8666666666666667,0.465,1,4636.735,1,0.04,same
0,323,catch,"[(1174, 784)]",[],[1],[],vertical,"(390.0, 262.0)",1.7,nan,1,4641.42,1,0.04,same
0,324,valid,"[(1155, 801)]",[],[1],[0.5666666666666667],vertical,"(390.0, 262.0)",0.9166666666666666,0.521,1,4647.153,2,0.04,same
0,325,valid,"[(1165, 788)]",[],[1],[0.6],vertical,"(390.0, 262.0)",0.6333333333333333,0.558,1,4652.857,2,0.04,same
0,326,valid,"[(1156, 782)]",[],[1],[0.6333333333333333],horizontal,"(390.0, 262.0)",0.6,0.591,1,4658.036,2,0.04,same
0,327,valid,"[(1152, 795)]",[],[1],[0.6666666666666666],vertical,"(390.0, 762.0)",1.3833333333333333,0.623,1,4663.553,3,0.04,same
0,328,catch,"[(1165, 775)]",[],[1],[],vertical,"(390.0, 262.0)",1.7,nan,1,4670.13,3,0.04,same
0,329,valid,"[(1132, 790)]",[],[1],[0.6166666666666667],horizontal,"(890.0, 262.0)",0.45,0.576,1,4676.125,3,0.04,same
0,330,valid,"[(1175, 782)]",[],[1],[0.85],horizontal,"(390.0, 762.0)",0.6666666666666666,nan,0,4681.727,0,0.04,same
0,331,invalid_adjacent_other_bar,"[(1130, 787)]",[],[1],[0.6666666666666666],horizontal,"(890.0, 762.0)",0.5333333333333333,0.63,1,4686.103,1,0.04,other
0,332,valid,"[(1120, 855)]",[],[1],[0.5333333333333333],vertical,"(390.0, 262.0)",1.0166666666666666,0.494,1,4690.813,1,0.04,same
0,333,catch,"[(1074, 752), (1106, 899)]",[],"[0, 1]",[],horizontal,"(390.0, 762.0)",,"('cti', 0.113),nan",0,4696.17,0,0.06,same
0,334,valid,"[(1102, 825)]",[],[1],[0.85],horizontal,"(390.0, 262.0)",1.0666666666666667,nan,0,5024.755,0,0.06,same
0,335,valid,"[(1148, 750), (1098, 835)]",[],"[0, 1]",[0.85],vertical,"(390.0, 762.0)",0.5333333333333333,nan,0,5029.72,0,0.06,same
0,336,valid,"[(1168, 812)]",[],[1],[0.6833333333333333],vertical,"(890.0, 262.0)",0.36666666666666664,0.638,1,5036.397,1,0.06,same
0,337,invalid_same_bar,"[(1141, 793)]",[],[1],[0.85],vertical,"(890.0, 262.0)",1.5166666666666666,nan,0,5041.105,0,0.06,same
0,338,valid,"[(1165, 789)]",[],[1],[0.5166666666666666],vertical,"(390.0, 262.0)",0.6166666666666667,0.478,1,5046.207,1,0.04,same
0,339,valid,"[(1165, 799)]",[],[1],[0.5333333333333333],horizontal,"(390.0, 262.0)",0.75,0.493,1,5050.888,1,0.04,same
0,340,valid,"[(1148, 806)]",[],[1],[0.5],vertical,"(890.0, 262.0)",0.9166666666666666,0.458,1,5056.027,1,0.04,same
0,341,catch,"[(1220, 792)]",[],[1],[],vertical,"(890.0, 762.0)",,"('cti', 1.393),nan",0,5061.271,0,0.06,same
0,342,invalid_same_bar,"[(1160, 781)]",[],[1],[0.6],horizontal,"(890.0, 262.0)",1.0,0.566,1,5065.97,1,0.06,same
0,343,catch,"[(1170, 799)]",[],[1],[],vertical,"(390.0, 762.0)",1.7,nan,1,5071.369,1,0.06,same
0,344,catch,"[(1171, 770)]",[],[1],[],horizontal,"(890.0, 262.0)",,"('cti', 1.194),nan",0,5076.595,0,0.08,same
0,345,valid,"[(1121, 786)]",[],[1],[0.6833333333333333],vertical,"(890.0, 262.0)",1.0333333333333332,0.643,1,5081.096,1,0.08,same
0,346,valid,"[(1126, 794)]",[],[1],[0.7],horizontal,"(390.0, 762.0)",0.95,0.654,1,5086.155,1,0.08,same
0,347,valid,"[(1192, 790)]",[],[1],[0.85],horizontal,"(390.0, 762.0)",1.0,nan,0,5091.79,0,0.08,same
0,348,valid,"[(1157, 800)]",[],[1],[0.5666666666666667],vertical,"(890.0, 762.0)",1.2833333333333332,0.52,1,5096.538,1,0.06,same
0,349,valid,"[(1159, 797)]",[],[1],[0.5166666666666666],horizontal,"(390.0, 262.0)",1.45,0.474,1,5101.754,1,0.06,same
0,350,valid,"[(1165, 802)]",[],[1],[0.85],horizontal,"(390.0, 762.0)",0.4,nan,0,5107.034,0,0.06,same
0,351,valid,"[(1175, 779)]",[],[1],[0.85],horizontal,"(890.0, 762.0)",0.35,nan,0,5111.471,0,0.06,same
0,352,valid,"[(1151, 806)]",[],[1],[0.5333333333333333],vertical,"(890.0, 762.0)",0.5666666666666667,0.489,1,5115.995,1,0.06,same
0,353,catch,"[(1156, 795)]",[],[1],[],horizontal,"(890.0, 262.0)",1.7,nan,1,5120.436,1,0.06,same
0,354,valid,"[(1155, 803)]",[],[1],[],horizontal,"(890.0, 762.0)",,"('fix', 0.069)",0,5125.909,0,0.06,same
0,355,invalid_adjacent_other_bar,"[(1121, 806)]",[],[1],[0.85],horizontal,"(390.0, 262.0)",0.55,nan,0,5127.688,0,0.06,other
0,356,valid,"[(1132, 786)]",[],[1],[0.8333333333333334],vertical,"(390.0, 762.0)",1.5,0.782,1,5132.827,1,0.06,same
0,357,valid,"[(1132, 783)]",[],[1],[0.8],vertical,"(390.0, 262.0)",0.7166666666666667,0.75,1,5138.237,1,0.06,same
0,358,catch,"[(1149, 783)]",[],[1],[],horizontal,"(890.0, 262.0)",1.7,nan,1,5143.372,1,0.06,same
0,359,catch,"[(1165, 782)]",[],[1],[],horizontal,"(390.0, 762.0)",1.7,nan,1,5148.777,2,0.06,same
0,360,valid,"[(1052, 801)]",[],[1],[0.5666666666666667],horizontal,"(390.0, 262.0)",0.8666666666666667,0.521,1,5154.587,2,0.06,same
0,361,catch,"[(1075, 799)]",[],[1],[],vertical,"(890.0, 762.0)",1.7,nan,1,5159.921,2,0.06,same
0,362,valid,"[(1175, 797)]",[],[1],[0.85],vertical,"(390.0, 262.0)",1.2833333333333332,nan,0,5165.148,0,0.06,same
0,363,catch,"[(1116, 802)]",[],[1],[],vertical,"(390.0, 762.0)",1.7,nan,1,5169.955,1,0.06,same
0,364,valid,"[(1133, 789)]",[],[1],[0.7333333333333333],horizontal,"(890.0, 762.0)",1.3,0.686,1,5175.855,1,0.06,same
0,365,catch,"[(1177, 806)]",[],[1],[],vertical,"(890.0, 262.0)",1.7,nan,1,5181.242,1,0.06,same
0,366,valid,"[(1164, 763)]",[],[1],[0.5833333333333334],vertical,"(890.0, 762.0)",0.75,0.539,1,5186.217,2,0.06,same
0,367,valid,"[(1154, 766)]",[],[1],[0.6],horizontal,"(390.0, 262.0)",0.4166666666666667,0.557,1,5191.738,2,0.06,same
0,368,catch,"[(1131, 781)]",[],[1],[],vertical,"(890.0, 762.0)",1.7,nan,1,5196.154,2,0.06,same
0,369,valid,"[(1171, 801)]",[],[1],[0.5166666666666666],horizontal,"(890.0, 262.0)",1.5166666666666666,0.471,1,5202.137,3,0.06,same
0,370,catch,"[(1172, 775)]",[],[1],[],horizontal,"(390.0, 762.0)",1.7,nan,1,5208.355,3,0.06,same
0,371,valid,"[(1170, 781)]",[],[1],[0.5166666666666666],horizontal,"(390.0, 262.0)",0.6833333333333333,0.482,1,5214.269,3,0.06,same
0,372,invalid_same_bar,"[(1174, 775)]",[],[1],[0.55],vertical,"(390.0, 262.0)",0.6,0.506,1,5220.037,3,0.06,same
0,373,valid,"[(1161, 799)]",[],[1],[0.65],vertical,"(390.0, 762.0)",1.45,0.601,1,5225.621,3,0.06,same
0,374,catch,"[(1142, 781)]",[],[1],[],vertical,"(390.0, 262.0)",1.7,nan,1,5231.69,3,0.06,same
0,375,catch,"[(1160, 796)]",[],[1],[],vertical,"(890.0, 762.0)",1.7,nan,1,5237.553,3,0.06,same
0,376,valid,"[(1175, 780)]",[],[1],[0.6],vertical,"(890.0, 262.0)",1.35,0.553,1,5243.872,3,0.06,same
0,377,valid,"[(1198, 787)]",[],[1],[0.75],vertical,"(890.0, 762.0)",1.45,0.704,1,5250.265,3,0.06,same
0,378,valid,"[(1161, 778)]",[],[1],[0.6333333333333333],horizontal,"(390.0, 762.0)",0.5666666666666667,0.585,1,5256.819,3,0.06,same
0,379,valid,"[(1175, 782)]",[],[1],[0.5333333333333333],vertical,"(890.0, 762.0)",1.0833333333333333,0.492,1,5262.065,3,0.06,same
0,380,catch,"[(1171, 799)]",[],[1],[],vertical,"(390.0, 762.0)",1.7,nan,1,5268.088,3,0.06,same
0,381,valid,"[(1172, 797)]",[],[1],[0.55],vertical,"(890.0, 762.0)",0.4,0.509,1,5273.825,3,0.06,same
0,382,valid,"[(1176, 796)]",[],[1],[0.5666666666666667],vertical,"(390.0, 762.0)",0.8666666666666667,0.526,1,5279.237,3,0.06,same
0,383,invalid_same_bar,"[(1186, 799)]",[],[1],[0.55],horizontal,"(890.0, 762.0)",0.7666666666666666,0.509,1,5285.279,3,0.04,same
0,384,catch,"[(1183, 799)]",[],[1],[],horizontal,"(890.0, 762.0)",1.7,nan,1,5291.131,3,0.04,same
0,385,valid,"[(1171, 776)]",[],[1],[0.5666666666666667],vertical,"(890.0, 762.0)",0.7666666666666666,0.523,1,5297.315,3,0.04,same
0,386,valid,"[(1205, 794)]",[],[1],[0.7],horizontal,"(890.0, 762.0)",1.3833333333333333,0.653,1,5302.588,3,0.04,same
0,387,valid,"[(1205, 790)]",[],[1],[0.5333333333333333],vertical,"(890.0, 262.0)",0.3833333333333333,0.5,1,5309.172,3,0.04,same
0,388,valid,"[(1146, 782)]",[],[1],[0.6333333333333333],horizontal,"(390.0, 262.0)",1.3,0.589,1,5314.206,3,0.04,same
0,389,catch,"[(1186, 794)]",[],[1],[],horizontal,"(890.0, 262.0)",1.7,nan,1,5320.233,3,0.04,same
0,390,valid,"[(1185, 777)]",[],[1],[0.5166666666666666],vertical,"(890.0, 262.0)",0.48333333333333334,0.477,1,5325.854,3,0.04,same
0,391,catch,"[(1180, 781)]",[],[1],[],horizontal,"(390.0, 762.0)",1.7,nan,1,5331.387,3,0.02,same
0,392,valid,"[(1174, 789)]",[],[1],[0.6166666666666667],horizontal,"(890.0, 262.0)",0.7333333333333333,0.57,1,5337.064,3,0.02,same
0,393,valid,"[(1146, 796)]",[],[1],[0.5333333333333333],horizontal,"(390.0, 262.0)",0.6,0.493,1,5342.512,3,0.02,same
0,394,valid,"[(1175, 780)]",[],[1],[0.85],vertical,"(390.0, 762.0)",0.65,nan,0,5347.6,0,0.0,same
0,395,valid,"[(1131, 785)]",[],[1],[0.6666666666666666],horizontal,"(890.0, 762.0)",1.3,0.625,1,5352.088,1,0.0,same
0,396,catch,"[(1176, 802)]",[],[1],[],vertical,"(890.0, 262.0)",1.7,nan,1,5358.034,1,0.0,same
0,397,valid,"[(1171, 786)]",[],[1],[0.65],horizontal,"(390.0, 762.0)",0.85,0.611,1,5363.565,1,0.0,same
0,398,valid,"[(1136, 796)]",[],[1],[0.6333333333333333],vertical,"(890.0, 762.0)",0.95,0.592,1,5368.412,2,0.0,same
0,399,catch,"[(1166, 796)]",[],[1],[],vertical,"(390.0, 762.0)",1.7,nan,1,5373.68,2,0.0,same
0,400,catch,"[(1175, 778)]",[],[1],[],vertical,"(890.0, 762.0)",1.7,nan,1,5379.172,2,0.0,same
0,401,invalid_same_bar,"[(1131, 773)]",[],[1],[0.6166666666666667],horizontal,"(390.0, 262.0)",0.7166666666666667,0.576,1,5385.021,3,0.0,same
0,402,valid,"[(1171, 792)]",[],[1],[0.85],vertical,"(890.0, 262.0)",0.45,nan,0,5390.981,0,0.0,same
0,403,valid,"[(1146, 800)]",[],[1],[0.6166666666666667],horizontal,"(890.0, 262.0)",0.4166666666666667,0.576,1,5395.071,1,0.0,same
0,404,invalid_adjacent_other_bar,"[(1151, 791)]",[],[1],[0.6166666666666667],horizontal,"(390.0, 262.0)",1.4,0.576,1,5399.855,1,0.0,other
0,405,valid,"[(1175, 808)]",[],[1],[0.5166666666666666],vertical,"(890.0, 262.0)",1.05,0.477,1,5405.571,1,0.0,same
0,406,valid,"[(1170, 796)]",[],[1],[0.75],horizontal,"(890.0, 762.0)",0.8833333333333333,0.706,1,5410.555,2,0.0,same
0,407,valid,"[(1171, 792)]",[],[1],[0.5666666666666667],horizontal,"(890.0, 262.0)",0.9166666666666666,0.526,1,5416.018,2,0.0,same
0,408,valid,"[(1180, 794)]",[],[1],[0.6833333333333333],vertical,"(890.0, 762.0)",0.85,0.639,1,5421.805,2,0.0,same
0,409,catch,"[(1161, 796)]",[],[1],[],horizontal,"(890.0, 262.0)",1.7,nan,1,5427.277,3,0.0,same
0,410,valid,"[(1189, 768)]",[],[1],[0.85],horizontal,"(890.0, 762.0)",1.5333333333333332,nan,0,5433.458,0,0.0,same
0,411,invalid_adjacent_other_bar,"[(1165, 768)]",[],[1],[0.85],vertical,"(890.0, 762.0)",0.5666666666666667,nan,0,5439.282,0,0.0,other
0,412,valid,"[(1131, 810)]",[],[1],[0.5833333333333334],horizontal,"(390.0, 762.0)",0.6166666666666667,0.542,1,5444.055,1,0.0,same
0,413,catch,"[(1178, 808)]",[],[1],[],horizontal,"(390.0, 262.0)",1.7,nan,1,5448.638,1,0.0,same
0,414,catch,"[(1170, 784)]",[],[1],[],vertical,"(890.0, 262.0)",1.7,nan,1,5454.005,1,0.0,same
0,415,catch,"[(1163, 795)]",[],[1],[],vertical,"(890.0, 762.0)",1.7,nan,1,5459.588,2,0.0,same
0,416,catch,"[(1152, 757)]",[],[1],[],horizontal,"(390.0, 262.0)",1.7,nan,1,5464.972,2,0.0,same
0,417,valid,"[(1170, 786)]",[],[1],[0.6166666666666667],vertical,"(390.0, 262.0)",0.4166666666666667,0.573,1,5470.803,2,0.0,same
0,418,valid,"[(1175, 778)]",[],[1],[0.5],horizontal,"(390.0, 262.0)",1.5,0.457,1,5475.526,3,0.0,same
0,419,invalid_adjacent_other_bar,"[(1170, 770)]",[],[1],[0.5166666666666666],vertical,"(890.0, 762.0)",0.5666666666666667,0.477,1,5482.381,3,0.0,other
0,420,valid,"[(1180, 775)]",[],[1],[0.5333333333333333],horizontal,"(890.0, 762.0)",1.3666666666666667,0.492,1,5487.972,3,0.0,same
0,421,valid,"[(1175, 779)]",[],[1],[0.5833333333333334],horizontal,"(890.0, 762.0)",1.3166666666666667,0.543,1,5494.087,3,0.0,same
0,422,valid,"[(1183, 798)]",[],[1],[0.85],vertical,"(390.0, 762.0)",1.25,nan,0,5500.478,0,0.0,same
0,423,catch,"[(1131, 815)]",[],[1],[],vertical,"(390.0, 762.0)",1.7,nan,1,5505.288,1,0.0,same
0,424,catch,"[(1126, 817)]",[],[1],[],horizontal,"(890.0, 762.0)",1.7,nan,1,5540.588,1,0.0,same
0,425,valid,"[(1155, 791)]",[],[1],[0.5666666666666667],horizontal,"(390.0, 262.0)",0.8666666666666667,0.525,1,5545.74,1,0.0,same
0,426,valid,"[(1174, 763)]",[],[1],[0.6666666666666666],horizontal,"(390.0, 262.0)",1.4166666666666667,0.625,1,5550.74,2,0.0,same
0,427,valid,"[(1183, 763)]",[],[1],[0.6166666666666667],horizontal,"(390.0, 262.0)",0.6666666666666666,0.575,1,5557.051,2,0.0,same
0,428,valid,"[(1155, 760)]",[],[1],[0.85],horizontal,"(390.0, 262.0)",0.6333333333333333,nan,0,5562.577,0,0.0,same
0,429,valid,"[(1157, 790)]",[],[1],[0.5333333333333333],vertical,"(890.0, 762.0)",1.2333333333333334,0.497,1,5566.987,1,0.0,same
0,430,valid,"[(1146, 797)]",[],[1],[0.5666666666666667],horizontal,"(890.0, 262.0)",0.9166666666666666,0.527,1,5572.139,1,0.0,same
0,431,catch,"[(1156, 773)]",[],[1],[],horizontal,"(890.0, 762.0)",1.7,nan,1,5577.356,1,0.0,same
0,432,valid,"[(1170, 785)]",[],[1],[0.6333333333333333],horizontal,"(890.0, 762.0)",0.8166666666666667,0.595,1,5582.868,2,0.0,same
0,433,catch,"[(1151, 780)]",[],[1],[],horizontal,"(390.0, 762.0)",1.7,nan,1,5588.806,2,0.0,same
0,434,catch,"[(1111, 840)]",[],[1],[],vertical,"(890.0, 262.0)",1.7,nan,1,5595.055,2,0.0,same
0,435,invalid_adjacent_other_bar,"[(1105, 839)]",[],[1],[0.85],horizontal,"(390.0, 762.0)",0.36666666666666664,nan,0,5601.106,0,0.0,other
0,436,invalid_adjacent_other_bar,"[(1076, 810)]",[],[1],[0.85],horizontal,"(890.0, 762.0)",1.5166666666666666,nan,0,6029.906,0,0.0,other
0,437,invalid_adjacent_other_bar,"[(1145, 814)]",[],[1],[0.85],horizontal,"(390.0, 762.0)",1.2333333333333334,nan,0,6036.301,0,0.0,other
0,438,valid,"[(1131, 824)]",[],[1],[0.6166666666666667],horizontal,"(890.0, 262.0)",0.5,0.571,1,6041.184,1,0.0,same
0,439,catch,"[(1165, 817)]",[],[1],[],vertical,"(890.0, 762.0)",1.7,nan,1,6046.226,1,0.0,same
0,440,valid,"[(1170, 790)]",[],[1],[0.55],vertical,"(390.0, 262.0)",0.5833333333333334,0.515,1,6051.385,1,0.0,same
0,441,catch,"[(1177, 804)]",[],[1],[],vertical,"(890.0, 762.0)",1.7,nan,1,6056.307,2,0.0,same
0,442,catch,"[(1166, 801)]",[],[1],[],horizontal,"(890.0, 762.0)",1.7,nan,1,6062.223,2,0.0,same
0,443,catch,"[(1160, 783)]",[],[1],[],horizontal,"(890.0, 262.0)",1.7,nan,1,6067.461,2,0.0,same
0,444,valid,"[(1175, 802)]",[],[1],[0.5833333333333334],horizontal,"(890.0, 262.0)",1.15,0.546,1,6073.091,3,0.0,same
0,445,valid,"[(1171, 787)]",[],[1],[0.5833333333333334],vertical,"(890.0, 262.0)",1.1,0.541,1,6078.898,3,0.0,same
0,446,valid,"[(1160, 797)]",[],[1],[0.5666666666666667],vertical,"(390.0, 262.0)",0.5666666666666667,0.521,1,6084.557,3,0.0,same
0,447,valid,"[(1195, 801)]",[],[1],[0.5666666666666667],vertical,"(890.0, 262.0)",0.8833333333333333,0.524,1,6090.189,3,0.0,same
0,448,valid,"[(1200, 799)]",[],[1],[0.65],horizontal,"(890.0, 262.0)",0.7833333333333333,0.607,1,6095.659,3,0.0,same
0,449,valid,"[(1190, 805)]",[],[1],[0.5333333333333333],vertical,"(890.0, 762.0)",0.9166666666666666,0.488,1,6101.257,3,0.0,same
0,450,valid,"[(1200, 810)]",[],[1],[0.5833333333333334],vertical,"(890.0, 262.0)",1.1333333333333333,0.543,1,6106.715,3,0.0,same
0,451,valid,"[(1175, 789)]",[],[1],[0.5833333333333334],vertical,"(390.0, 262.0)",1.3166666666666667,0.539,1,6112.216,3,0.0,same
0,452,catch,"[(1132, 803)]",[],[1],[],horizontal,"(390.0, 262.0)",1.7,nan,1,6118.665,3,0.0,same
0,453,valid,"[(1132, 793)]",[],[1],[0.85],horizontal,"(390.0, 762.0)",0.5833333333333334,nan,0,6124.767,0,0.0,same
0,454,valid,"[(1131, 781)]",[],[1],[0.55],horizontal,"(890.0, 262.0)",1.1166666666666667,0.511,1,6129.535,1,0.0,same
0,455,valid,"[(1136, 794)]",[],[1],[0.85],vertical,"(390.0, 762.0)",0.4166666666666667,nan,0,6135.012,0,0.0,same
0,456,valid,"[(1160, 802)]",[],[1],[0.5333333333333333],horizontal,"(890.0, 262.0)",1.2333333333333334,0.494,1,6139.096,1,0.0,same
0,457,valid,"[(1172, 786)]",[],[1],[0.5166666666666666],horizontal,"(890.0, 762.0)",1.4666666666666666,0.476,1,6143.857,1,0.0,same
0,458,invalid_same_bar,"[(1162, 789)]",[],[1],[0.5166666666666666],vertical,"(390.0, 262.0)",0.8166666666666667,0.48,1,6149.558,1,0.0,same
0,459,catch,"[(1129, 806)]",[],[1],[],horizontal,"(390.0, 262.0)",1.7,nan,1,6154.194,2,0.0,same
0,460,valid,"[(1177, 789)]",[],[1],[0.5333333333333333],horizontal,"(390.0, 762.0)",1.4833333333333334,0.493,1,6160.09,2,0.0,same
0,461,valid,"[(1175, 786)]",[],[1],[0.6333333333333333],vertical,"(390.0, 262.0)",0.7333333333333333,0.589,1,6166.091,2,0.0,same
0,462,catch,"[(1160, 790)]",[],[1],[],vertical,"(390.0, 762.0)",1.7,nan,1,6171.008,3,0.0,same
0,463,valid,"[(1157, 796)]",[],[1],[0.5333333333333333],horizontal,"(890.0, 262.0)",0.8166666666666667,0.495,1,6177.025,3,0.0,same
0,464,valid,"[(1175, 801)]",[],[1],[0.55],horizontal,"(890.0, 762.0)",0.5,0.506,1,6183.127,3,0.0,same
0,465,valid,"[(1116, 779)]",[],[1],[0.65],horizontal,"(890.0, 762.0)",0.85,0.606,1,6188.711,3,0.0,same
0,466,valid,"[(1081, 819)]",[],[1],[0.5333333333333333],vertical,"(390.0, 762.0)",1.4333333333333333,0.494,1,6194.941,3,0.0,same
0,467,valid,"[(1113, 814)]",[],[1],[0.6833333333333333],vertical,"(390.0, 762.0)",1.4,0.642,1,6201.675,3,0.0,same
0,468,catch,"[(1160, 779)]",[],[1],[],vertical,"(890.0, 762.0)",1.7,nan,1,6207.956,3,0.0,same
0,469,valid,"[(1167, 776)]",[],[1],[0.6833333333333333],horizontal,"(390.0, 262.0)",0.9666666666666667,0.641,1,6213.925,3,0.0,same
0,470,valid,"[(1156, 805)]",[],[1],[0.5666666666666667],horizontal,"(890.0, 762.0)",0.9666666666666667,0.522,1,6219.907,3,0.0,same
0,471,invalid_same_bar,"[(1163, 803)]",[],[1],[0.5],horizontal,"(390.0, 262.0)",1.5333333333333332,0.455,1,6226.095,3,0.0,same
0,472,invalid_same_bar,"[(1180, 789)]",[],[1],[0.85],horizontal,"(890.0, 762.0)",0.55,nan,0,6232.442,0,0.0,same
0,473,catch,"[(1134, 811)]",[],[1],[],horizontal,"(890.0, 262.0)",1.7,nan,1,6236.924,1,0.0,same
0,474,catch,"[(1155, 781)]",[],[1],[],vertical,"(890.0, 762.0)",1.7,nan,1,6242.495,1,0.0,same
0,475,catch,"[(1165, 799)]",[],[1],[],vertical,"(890.0, 762.0)",1.7,nan,1,6247.385,1,0.0,same
0,476,valid,"[(1107, 816)]",[],[1],[0.6],vertical,"(390.0, 262.0)",1.1666666666666667,0.553,1,6252.565,2,0.0,same
0,477,valid,"[(1155, 794)]",[],[1],[0.85],vertical,"(390.0, 762.0)",0.4166666666666667,nan,0,6258.241,0,0.0,same
0,478,catch,"[(1134, 801)]",[],[1],[],horizontal,"(890.0, 762.0)",1.7,nan,1,6262.624,1,0.0,same
0,479,catch,"[(1149, 796)]",[],[1],[],horizontal,"(890.0, 262.0)",,"('cti', 1.686),nan",0,6268.089,0,0.02,same
0,480,valid,"[(1160, 761)]",[],[1],[0.6],horizontal,"(890.0, 262.0)",0.9166666666666666,0.552,1,6272.941,1,0.02,same
0,481,catch,"[(1175, 781)]",[],[1],[],vertical,"(390.0, 762.0)",1.7,nan,1,6278.141,1,0.02,same
0,482,valid,"[(1156, 777)]",[],[1],[0.65],horizontal,"(890.0, 262.0)",1.15,0.606,1,6283.075,1,0.02,same
0,483,valid,"[(1172, 777)]",[],[1],[0.5833333333333334],vertical,"(390.0, 262.0)",0.9166666666666666,0.54,1,6288.441,2,0.02,same
0,484,catch,"[(1176, 775)]",[],[1],[],horizontal,"(890.0, 762.0)",1.7,nan,1,6293.975,2,0.02,same
0,485,valid,"[(1156, 801)]",[],[1],[0.5166666666666666],horizontal,"(390.0, 762.0)",0.5166666666666666,0.475,1,6299.825,2,0.02,same
0,486,valid,"[(1180, 780)]",[],[1],[0.5666666666666667],vertical,"(890.0, 262.0)",1.1333333333333333,0.524,1,6304.809,3,0.02,same
0,487,catch,"[(1179, 778)]",[],[1],[],vertical,"(890.0, 762.0)",1.7,nan,1,6310.809,3,0.02,same
0,488,valid,"[(1156, 788)]",[],[1],[0.5666666666666667],vertical,"(390.0, 762.0)",1.2333333333333334,0.526,1,6317.257,3,0.02,same
0,489,invalid_adjacent_other_bar,"[(1172, 794)]",[],[1],[0.5666666666666667],vertical,"(890.0, 762.0)",1.1833333333333333,0.521,1,6323.775,3,0.02,other
0,490,valid,"[(1133, 783)]",[],[1],[0.7666666666666666],horizontal,"(390.0, 262.0)",1.25,0.716,1,6329.841,3,0.02,same
0,491,valid,"[(1131, 806)]",[],[1],[0.85],horizontal,"(890.0, 762.0)",0.8,nan,0,6335.923,0,0.02,same
0,492,catch,"[(1136, 782)]",[],[1],[],vertical,"(390.0, 262.0)",1.7,nan,1,6341.223,1,0.02,same
0,493,valid,"[(1133, 778)]",[],[1],[0.85],horizontal,"(890.0, 762.0)",1.35,nan,0,6346.464,0,0.02,same
0,494,invalid_adjacent_other_bar,"[(1097, 847)]",[],[1],[0.5833333333333334],vertical,"(890.0, 762.0)",1.45,0.537,1,6351.472,1,0.02,other
0,495,catch,"[(1157, 816)]",[],[1],[],horizontal,"(390.0, 762.0)",1.7,nan,1,6357.892,1,0.02,same
0,496,valid,"[(1177, 783)]",[],[1],[0.5666666666666667],vertical,"(890.0, 762.0)",0.5666666666666667,0.523,1,6363.241,1,0.02,same
0,497,invalid_same_bar,"[(1154, 779)]",[],[1],[0.55],vertical,"(390.0, 262.0)",1.5,0.513,1,6367.507,2,0.02,same
0,498,valid,"[(1161, 789)]",[],[1],[0.7],vertical,"(390.0, 762.0)",1.0333333333333332,0.651,1,6373.491,2,0.02,same
0,499,catch,"[(1178, 782)]",[],[1],[],horizontal,"(890.0, 262.0)",1.7,nan,1,6378.843,2,0.02,same
0,500,valid,"[(1159, 806)]",[],[1],[0.55],vertical,"(890.0, 762.0)",0.3833333333333333,0.505,1,6384.524,3,0.02,same
0,501,valid,"[(1180, 776)]",[],[1],[0.85],vertical,"(390.0, 762.0)",0.8333333333333334,nan,0,6389.775,0,0.02,same
0,502,catch,"[(1135, 780)]",[],[1],[],horizontal,"(390.0, 262.0)",1.7,nan,1,6394.275,1,0.02,same
0,503,valid,"[(1157, 783)]",[],[1],[0.5333333333333333],vertical,"(890.0, 262.0)",0.5166666666666666,0.492,1,6399.203,1,0.02,same
0,504,valid,"[(1171, 791)]",[],[1],[0.55],vertical,"(390.0, 262.0)",0.7,0.51,1,6404.141,1,0.02,same
0,505,valid,"[(1160, 784)]",[],[1],[0.6],vertical,"(390.0, 262.0)",0.43333333333333335,0.567,1,6408.679,2,0.02,same
0,506,valid,"[(1160, 815)]",[],[1],[0.5833333333333334],vertical,"(390.0, 762.0)",1.5,0.543,1,6413.776,2,0.02,same
0,507,valid,"[(1174, 784)]",[],[1],[0.8166666666666667],vertical,"(390.0, 262.0)",1.0,0.777,1,6419.503,2,0.02,same
0,508,invalid_same_bar,"[(1156, 780)]",[],[1],[0.85],vertical,"(390.0, 262.0)",1.1166666666666667,nan,0,6425.141,0,0.02,same
0,509,valid,"[(1116, 778)]",[],[1],[0.85],horizontal,"(390.0, 262.0)",0.6166666666666667,nan,0,6430.024,0,0.02,same
0,510,valid,"[(1127, 794)]",[],[1],[0.5166666666666666],vertical,"(890.0, 762.0)",0.55,0.478,1,6434.759,1,0.02,same
0,511,catch,"[(1160, 777)]",[],[1],[],horizontal,"(890.0, 762.0)",1.7,nan,1,6439.611,1,0.02,same
0,512,valid,"[(1171, 790)]",[],[1],[0.6166666666666667],vertical,"(890.0, 262.0)",1.1166666666666667,0.572,1,6445.158,1,0.02,same
0,513,valid,"[(1181, 767)]",[],[1],[0.5333333333333333],vertical,"(890.0, 262.0)",1.4,0.493,1,6450.279,2,0.02,same
0,514,valid,"[(1180, 763)]",[],[1],[0.5166666666666666],vertical,"(890.0, 262.0)",0.6166666666666667,0.476,1,6456.292,2,0.02,same
0,515,catch,"[(1159, 782)]",[],[1],[],horizontal,"(890.0, 762.0)",1.7,nan,1,6461.167,2,0.02,same
0,516,catch,"[(1130, 798)]",[],[1],[],vertical,"(890.0, 762.0)",1.7,nan,1,6466.885,3,0.02,same
0,517,catch,"[(1170, 783)]",[],[1],[],horizontal,"(890.0, 762.0)",1.7,nan,1,6472.642,3,0.02,same
0,518,invalid_adjacent_other_bar,"[(1180, 796)]",[],[1],[0.5333333333333333],vertical,"(890.0, 262.0)",1.4333333333333333,0.501,1,6478.511,3,0.02,other
0,519,valid,"[(1178, 786)]",[],[1],[0.5],horizontal,"(390.0, 262.0)",0.8833333333333333,0.463,1,6484.659,3,0.02,same
0,520,valid,"[(1179, 806)]",[],[1],[0.5],horizontal,"(390.0, 762.0)",1.4666666666666666,0.461,1,6489.935,3,0.02,same
0,521,valid,"[(1179, 796)]",[],[1],[0.5333333333333333],horizontal,"(890.0, 762.0)",0.4666666666666667,0.495,1,6496.037,3,0.02,same
0,522,catch,"[(1155, 782)]",[],[1],[],vertical,"(390.0, 762.0)",1.7,nan,1,6501.358,3,0.02,same
0,523,invalid_adjacent_other_bar,"[(1180, 781)]",[],[1],[0.55],horizontal,"(390.0, 262.0)",1.1,0.51,1,6507.509,3,0.02,other
0,524,catch,"[(1154, 783)]",[],[1],[],vertical,"(390.0, 762.0)",1.7,nan,1,6513.087,3,0.02,same
0,525,invalid_same_bar,"[(1180, 789)]",[],[1],[0.5833333333333334],horizontal,"(890.0, 262.0)",0.4,0.545,1,6519.003,3,0.02,same
0,526,valid,"[(1180, 796)]",[],[1],[0.85],horizontal,"(390.0, 762.0)",1.3333333333333333,nan,0,6524.481,0,0.02,same
0,527,catch,"[(1138, 782)]",[],[1],[],vertical,"(890.0, 762.0)",1.7,nan,1,6529.192,1,0.02,same
0,528,catch,"[(1178, 787)]",[],[1],[],vertical,"(890.0, 762.0)",1.7,nan,1,6534.706,1,0.02,same
0,529,catch,"[(1151, 800)]",[],[1],[],horizontal,"(890.0, 762.0)",1.7,nan,1,6540.196,1,0.0,same
0,530,valid,"[(1155, 791)]",[],[1],[0.6666666666666666],vertical,"(890.0, 762.0)",1.4333333333333333,0.633,1,6545.553,2,0.0,same
0,531,valid,"[(1155, 778)]",[],[1],[0.85],vertical,"(890.0, 262.0)",0.7,nan,0,6551.569,0,0.0,same
0,532,valid,"[(1092, 847)]",[],[1],[0.85],horizontal,"(890.0, 762.0)",0.55,nan,0,6556.199,0,0.0,same
0,533,valid,"[(1138, 802)]",[],[1],[0.85],vertical,"(390.0, 262.0)",0.75,nan,0,6704.343,0,0.0,same
0,534,invalid_same_bar,"[(1146, 808)]",[],[1],[0.85],vertical,"(890.0, 262.0)",0.95,nan,0,6709.109,0,0.0,same
0,535,valid,"[(1132, 800)]",[],[1],[0.85],horizontal,"(390.0, 262.0)",1.4,nan,0,6713.759,0,0.0,same
0,536,catch,"[(1095, 807)]",[],[1],[],horizontal,"(390.0, 262.0)",1.7,nan,1,6719.829,1,0.0,same
0,537,valid,"[(1154, 787)]",[],[1],[0.5666666666666667],vertical,"(890.0, 262.0)",1.3,0.527,1,6730.526,1,0.0,same
0,538,catch,"[(1162, 793)]",[],[1],[],vertical,"(390.0, 762.0)",1.7,nan,1,6735.475,1,0.0,same
0,539,valid,"[(1134, 780)]",[],[1],[0.7166666666666667],vertical,"(890.0, 762.0)",0.8666666666666667,0.665,1,6740.714,2,0.0,same
0,540,valid,"[(1155, 784)]",[],[1],[0.75],vertical,"(390.0, 262.0)",0.9333333333333333,0.703,1,6746.208,2,0.0,same
0,541,catch,"[(1160, 786)]",[],[1],[],vertical,"(390.0, 262.0)",1.7,nan,1,6751.992,2,0.0,same
0,542,invalid_adjacent_other_bar,"[(1155, 785)]",[],[1],[0.85],horizontal,"(390.0, 762.0)",1.1166666666666667,nan,0,6757.325,0,0.0,other
0,543,valid,"[(1134, 801)]",[],[1],[0.85],horizontal,"(890.0, 262.0)",0.6,nan,0,6762.507,0,0.0,same
0,544,valid,"[(1121, 806)]",[],[1],[0.6333333333333333],horizontal,"(890.0, 262.0)",0.8166666666666667,0.595,1,6766.859,1,0.0,same
0,545,valid,"[(1165, 779)]",[],[1],[0.5833333333333334],horizontal,"(390.0, 262.0)",1.15,0.542,1,6772.123,1,0.0,same
0,546,catch,"[(1176, 779)]",[],[1],[],vertical,"(390.0, 262.0)",1.7,nan,1,6777.109,1,0.0,same
0,547,valid,"[(1176, 765)]",[],[1],[0.5166666666666666],horizontal,"(890.0, 762.0)",1.4333333333333333,0.481,1,6782.211,2,0.0,same
0,548,valid,"[(1167, 796)]",[],[1],[0.5833333333333334],vertical,"(390.0, 762.0)",1.5166666666666666,0.548,1,6787.686,2,0.0,same
0,549,valid,"[(1170, 791)]",[],[1],[0.7166666666666667],horizontal,"(890.0, 762.0)",0.9166666666666666,0.672,1,6793.539,2,0.0,same
0,550,valid,"[(1162, 801)]",[],[1],[0.6166666666666667],horizontal,"(390.0, 762.0)",1.1,0.576,1,6798.942,3,0.0,same
0,551,invalid_same_bar,"[(1176, 768)]",[],[1],[0.48333333333333334],horizontal,"(890.0, 262.0)",0.7,0.446,1,6805.113,3,0.0,same
0,552,catch,"[(1169, 771)]",[],[1],[],horizontal,"(390.0, 762.0)",1.7,nan,1,6810.474,3,0.0,same
0,553,valid,"[(1159, 776)]",[],[1],[0.6],vertical,"(890.0, 762.0)",1.25,0.553,1,6816.45,3,0.0,same
0,554,valid,"[(1160, 786)]",[],[1],[0.6166666666666667],horizontal,"(890.0, 262.0)",1.4166666666666667,0.571,1,6822.634,3,0.0,same
0,555,valid,"[(1180, 782)]",[],[1],[0.6666666666666666],vertical,"(890.0, 262.0)",1.3,0.629,1,6829.104,3,0.0,same
0,556,valid,"[(1168, 767)]",[],[1],[0.5333333333333333],horizontal,"(390.0, 262.0)",0.55,0.49,1,6835.059,3,0.0,same
0,557,valid,"[(1131, 807)]",[],[1],[0.4666666666666667],vertical,"(890.0, 262.0)",0.6833333333333333,0.425,1,6840.075,3,0.0,same
0,558,valid,"[(1161, 774)]",[],[1],[0.85],horizontal,"(390.0, 762.0)",0.48333333333333334,nan,0,6845.704,0,0.0,same
0,559,valid,"[(1123, 791)]",[],[1],[0.85],horizontal,"(890.0, 762.0)",0.8833333333333333,nan,0,6850.242,0,0.0,same
0,560,valid,"[(1115, 787)]",[],[1],[0.5],horizontal,"(390.0, 762.0)",1.0,0.463,1,6855.256,1,0.0,same
0,561,invalid_adjacent_other_bar,"[(1158, 811)]",[],[1],[0.85],vertical,"(390.0, 262.0)",1.5333333333333332,nan,0,6860.304,0,0.0,other
0,562,valid,"[(1120, 787)]",[],[1],[0.48333333333333334],vertical,"(390.0, 262.0)",0.5333333333333333,0.442,1,6865.336,1,0.0,same
0,563,valid,"[(1164, 772)]",[],[1],[0.85],horizontal,"(890.0, 262.0)",0.8833333333333333,nan,0,6869.86,0,0.0,same
0,564,catch,"[(1172, 796)]",[],[1],[],vertical,"(390.0, 262.0)",1.7,nan,1,6874.41,1,0.0,same
0,565,catch,"[(1155, 806)]",[],[1],[],vertical,"(890.0, 262.0)",1.7,nan,1,6879.576,1,0.0,same
0,566,catch,"[(1129, 799)]",[],[1],[],horizontal,"(890.0, 762.0)",1.7,nan,1,6884.46,1,0.0,same
0,567,valid,"[(1154, 799)]",[],[1],[0.55],horizontal,"(890.0, 762.0)",1.2166666666666666,0.504,1,6889.959,2,0.0,same
0,568,catch,"[(1155, 770)]",[],[1],[],horizontal,"(390.0, 262.0)",1.7,nan,1,6896.16,2,0.0,same
0,569,valid,"[(1139, 769)]",[],[1],[0.05],vertical,"(890.0, 762.0)",1.3666666666666667,0.019,0,6901.625,0,0.0,same
0,570,valid,"[(1108, 797)]",[],[1],[0.85],vertical,"(890.0, 762.0)",0.48333333333333334,nan,0,6906.272,0,0.0,same
0,571,valid,"[(1128, 776)]",[],[1],[0.48333333333333334],vertical,"(890.0, 762.0)",1.4666666666666666,0.439,1,6910.712,1,0.0,same
0,572,invalid_adjacent_other_bar,"[(1159, 798)]",[],[1],[0.4666666666666667],horizontal,"(890.0, 262.0)",0.9,0.433,1,6916.126,1,0.0,other
0,573,valid,"[(1136, 769)]",[],[1],[0.6],vertical,"(390.0, 262.0)",1.15,0.553,1,6920.61,1,0.0,same
0,574,invalid_same_bar,"[(1134, 769)]",[],[1],[0.8],vertical,"(390.0, 762.0)",0.9,0.755,1,6925.61,2,0.0,same
0,575,valid,"[(1182, 768)]",[],[1],[0.6333333333333333],horizontal,"(390.0, 262.0)",1.05,0.593,1,6931.042,2,0.0,same
0,576,valid,"[(1155, 761)]",[],[1],[0.7833333333333333],horizontal,"(890.0, 762.0)",0.9333333333333333,0.746,1,6936.428,2,0.0,same
0,577,valid,"[(1179, 783)]",[],[1],[0.6333333333333333],horizontal,"(390.0, 262.0)",0.45,0.597,1,6941.924,3,0.0,same
0,578,catch,"[(1162, 777)]",[],[1],[],vertical,"(390.0, 762.0)",1.7,nan,1,6947.582,3,0.0,same
0,579,valid,"[(1160, 795)]",[],[1],[0.5166666666666666],vertical,"(890.0, 762.0)",0.65,0.48,1,6953.662,3,0.0,same
0,580,catch,"[(1161, 791)]",[],[1],[],horizontal,"(390.0, 262.0)",1.7,nan,1,6959.01,3,0.0,same
0,581,catch,"[(1166, 772)]",[],[1],[],vertical,"(890.0, 262.0)",1.7,nan,1,6964.959,3,0.0,same
0,582,catch,"[(1169, 763)]",[],[1],[],horizontal,"(390.0, 262.0)",1.7,nan,1,6970.712,3,0.0,same
0,583,valid,"[(1159, 782)]",[],[1],[0.18333333333333332],vertical,"(890.0, 262.0)",1.5333333333333332,0.153,0,6976.51,0,0.0,same
0,584,catch,"[(1132, 800)]",[],[1],[],horizontal,"(390.0, 262.0)",1.7,nan,1,6981.276,1,0.0,same
0,585,catch,"[(1155, 791)]",[],[1],[],vertical,"(890.0, 762.0)",1.7,nan,1,6986.937,1,0.0,same
0,586,valid,"[(1135, 799)]",[],[1],[0.4],vertical,"(390.0, 262.0)",1.3666666666666667,0.355,1,6991.99,1,0.0,same
0,587,valid,"[(1136, 791)]",[],[1],[0.6333333333333333],vertical,"(390.0, 262.0)",0.9166666666666666,0.598,1,6997.339,2,0.0,same
0,588,valid,"[(1146, 785)]",[],[1],[0.55],horizontal,"(390.0, 262.0)",1.0166666666666666,0.518,1,7002.797,2,0.0,same
0,589,catch,"[(1166, 787)]",[],[1],[],horizontal,"(390.0, 262.0)",1.7,nan,1,7008.303,2,0.0,same
0,590,valid,"[(1160, 793)]",[],[1],[0.5166666666666666],horizontal,"(390.0, 762.0)",0.6666666666666666,0.473,1,7014.01,3,0.0,same
0,591,valid,"[(1134, 808)]",[],[1],[0.85],vertical,"(890.0, 262.0)",0.9666666666666667,nan,0,7019.659,0,0.0,same
0,592,invalid_adjacent_other_bar,"[(1116, 795)]",[],[1],[0.5833333333333334],horizontal,"(890.0, 262.0)",0.9,0.537,1,7024.776,1,0.0,other
0,593,valid,"[(1131, 804)]",[],[1],[0.5166666666666666],vertical,"(390.0, 762.0)",0.6333333333333333,0.484,1,7029.794,1,0.0,same
0,594,catch,"[(1135, 798)]",[],[1],[],vertical,"(890.0, 762.0)",1.7,nan,1,7034.476,1,0.0,same
0,595,valid,"[(1124, 831)]",[],[1],[0.5],vertical,"(890.0, 262.0)",0.9666666666666667,0.468,1,7040.295,2,0.0,same
0,596,valid,"[(1141, 821)]",[],[1],[0.48333333333333334],vertical,"(890.0, 762.0)",0.6666666666666666,0.457,1,7049.398,2,0.0,same
0,597,valid,"[(1151, 797)]",[],[1],[0.5166666666666666],vertical,"(390.0, 762.0)",0.5166666666666666,0.48,1,7054.711,2,0.0,same
0,598,valid,"[(1161, 783)]",[],[1],[0.6333333333333333],horizontal,"(890.0, 762.0)",0.5,0.592,1,7059.825,3,0.0,same
0,599,valid,"[(1155, 781)]",[],[1],[0.5333333333333333],vertical,"(390.0, 262.0)",1.2,0.494,1,7065.661,3,0.0,same
0,600,invalid_same_bar,"[(1156, 807)]",[],[1],[0.5666666666666667],horizontal,"(890.0, 262.0)",0.6,0.525,1,7071.998,3,0.0,same
0,601,catch,"[(1166, 787)]",[],[1],[],horizontal,"(890.0, 762.0)",1.7,nan,1,7077.858,3,0.0,same
0,602,valid,"[(1162, 793)]",[],[1],[0.85],vertical,"(390.0, 762.0)",0.85,nan,0,7083.615,0,0.0,same
0,603,invalid_same_bar,"[(1158, 803)]",[],[1],[0.7666666666666666],vertical,"(890.0, 262.0)",1.0,0.725,1,7088.246,1,0.0,same
0,604,invalid_adjacent_other_bar,"[(1161, 803)]",[],[1],[0.5166666666666666],horizontal,"(390.0, 262.0)",0.65,0.477,1,7093.593,1,0.0,other
0,605,invalid_same_bar,"[(1161, 806)]",[],[1],[0.5833333333333334],horizontal,"(890.0, 762.0)",1.45,0.544,1,7098.094,1,0.0,same
0,606,valid,"[(1159, 811)]",[],[1],[0.5833333333333334],vertical,"(390.0, 262.0)",1.3666666666666667,0.542,1,7103.542,2,0.0,same
0,607,valid,"[(1159, 798)]",[],[1],[0.5333333333333333],horizontal,"(390.0, 762.0)",1.4833333333333334,0.495,1,7109.846,2,0.0,same
0,608,valid,"[(1167, 796)]",[],[1],[0.5166666666666666],horizontal,"(390.0, 762.0)",0.5833333333333334,0.476,1,7115.81,2,0.0,same
0,609,catch,"[(1180, 784)]",[],[1],[],horizontal,"(890.0, 262.0)",1.7,nan,1,7120.729,3,0.0,same
0,610,valid,"[(1121, 825)]",[],[1],[0.6333333333333333],horizontal,"(890.0, 762.0)",1.0833333333333333,0.59,1,7127.459,3,0.0,same
0,611,catch,"[(1128, 819)]",[],[1],[],horizontal,"(390.0, 762.0)",1.7,nan,1,7135.811,3,0.0,same
0,612,valid,"[(1175, 793)]",[],[1],[0.6166666666666667],vertical,"(390.0, 262.0)",0.5,0.575,1,7141.923,3,0.0,same
0,613,invalid_adjacent_other_bar,"[(1175, 787)]",[],[1],[0.55],horizontal,"(890.0, 262.0)",0.8666666666666667,0.51,1,7147.439,3,0.0,other
0,614,invalid_same_bar,"[(1121, 789)]",[],[1],[0.5833333333333334],vertical,"(390.0, 762.0)",1.1166666666666667,0.539,1,7152.91,3,0.0,same
0,615,valid,"[(1158, 799)]",[],[1],[0.5],horizontal,"(390.0, 762.0)",0.7166666666666667,0.458,1,7159.077,3,0.0,same
0,616,valid,"[(1134, 791)]",[],[1],[0.5],horizontal,"(390.0, 262.0)",0.9,0.455,1,7164.427,3,0.0,same
0,617,catch,"[(1165, 785)]",[],[1],[],vertical,"(890.0, 262.0)",1.7,nan,1,7170.293,3,0.0,same
0,618,valid,"[(1170, 793)]",[],[1],[0.6333333333333333],horizontal,"(390.0, 762.0)",1.1833333333333333,0.594,1,7177.01,3,0.0,same
0,619,valid,"[(1157, 781)]",[],[1],[0.85],vertical,"(390.0, 762.0)",1.4333333333333333,nan,0,7183.16,0,0.0,same
0,620,catch,"[(1127, 792)]",[],[1],[],horizontal,"(390.0, 262.0)",1.7,nan,1,7188.494,1,0.0,same
0,621,catch,"[(1131, 790)]",[],[1],[],vertical,"(390.0, 262.0)",1.7,nan,1,7193.711,1,0.0,same
0,622,valid,"[(1169, 787)]",[],[1],[0.65],vertical,"(390.0, 762.0)",0.43333333333333335,0.61,1,7198.934,1,0.0,same
0,623,valid,"[(1166, 781)]",[],[1],[0.5833333333333334],vertical,"(890.0, 762.0)",0.36666666666666664,0.543,1,7203.454,2,0.0,same
0,624,catch,"[(1126, 781)]",[],[1],[],vertical,"(390.0, 262.0)",1.7,nan,1,7208.082,2,0.0,same
0,625,valid,"[(1131, 777)]",[],[1],[0.6333333333333333],horizontal,"(390.0, 762.0)",0.7,0.588,1,7213.866,2,0.0,same
0,626,catch,"[(1148, 784)]",[],[1],[],horizontal,"(890.0, 762.0)",1.7,nan,1,7219.027,3,0.0,same
0,627,valid,"[(1179, 778)]",[],[1],[0.55],vertical,"(390.0, 762.0)",0.5333333333333333,0.509,1,7225.194,3,0.0,same
0,628,valid,"[(1127, 776)]",[],[1],[0.5166666666666666],horizontal,"(890.0, 262.0)",1.4333333333333333,0.473,1,7230.81,3,0.0,same
0,629,valid,"[(1159, 778)]",[],[1],[0.5166666666666666],horizontal,"(390.0, 262.0)",0.7166666666666667,0.469,1,7237.384,3,0.0,same
0,630,valid,"[(1166, 793)]",[],[1],[0.6],horizontal,"(390.0, 262.0)",0.75,0.562,1,7243.16,3,0.0,same
0,631,valid,"[(1121, 795)]",[],[1],[0.85],vertical,"(390.0, 262.0)",0.4166666666666667,nan,0,7248.958,0,0.0,same
0,632,catch,"[(1119, 806)]",[],[1],[],vertical,"(390.0, 762.0)",1.7,nan,1,7253.127,1,0.0,same
0,633,valid,"[(1127, 803)]",[],[1],[0.75],horizontal,"(890.0, 262.0)",0.48333333333333334,0.698,1,7258.444,1,0.0,same
0,634,valid,"[(1160, 796)]",[],[1],[0.5833333333333334],horizontal,"(390.0, 262.0)",1.1833333333333333,0.539,1,7263.728,1,0.0,same
0,635,catch,"[(1155, 801)]",[],[1],[],horizontal,"(890.0, 762.0)",1.7,nan,1,7268.783,2,0.0,same
0,636,valid,"[(1121, 772)]",[],[1],[0.5833333333333334],vertical,"(390.0, 762.0)",0.8,0.542,1,7274.161,2,0.0,same
0,637,valid,"[(1156, 793)]",[],[1],[0.5833333333333334],vertical,"(890.0, 762.0)",1.35,0.536,1,7279.178,2,0.0,same
0,638,valid,"[(1127, 773)]",[],[1],[0.5166666666666666],vertical,"(890.0, 262.0)",0.7833333333333333,0.474,1,7285.377,3,0.0,same
0,639,valid,"[(1180, 762)]",[],[1],[0.6166666666666667],horizontal,"(890.0, 262.0)",0.43333333333333335,0.57,1,7291.144,3,0.0,same
0,640,invalid_same_bar,"[(1175, 778)]",[],[1],[0.55],horizontal,"(890.0, 262.0)",0.36666666666666664,0.504,1,7296.461,3,0.0,same
0,641,valid,"[(1161, 763)]",[],[1],[0.5166666666666666],horizontal,"(890.0, 262.0)",0.4,0.475,1,7302.028,3,0.0,same
0,642,invalid_same_bar,"[(1166, 782)]",[],[1],[0.6333333333333333],vertical,"(890.0, 262.0)",1.3166666666666667,0.584,1,7307.312,3,0.0,same
0,643,valid,"[(1166, 781)]",[],[1],[0.5333333333333333],horizontal,"(890.0, 262.0)",1.45,0.491,1,7313.69,3,0.0,same
0,644,valid,"[(1161, 774)]",[],[1],[0.65],horizontal,"(890.0, 762.0)",1.2666666666666666,0.603,1,7319.662,3,0.0,same
0,645,catch,"[(1159, 792)]",[],[1],[],horizontal,"(890.0, 762.0)",1.7,nan,1,7325.683,3,0.0,same
0,646,catch,"[(1194, 790)]",[],[1],[],horizontal,"(390.0, 262.0)",1.7,nan,1,7332.14,3,0.0,same
0,647,catch,"[(1159, 781)]",[],[1],[],vertical,"(390.0, 262.0)",1.7,nan,1,7338.357,3,0.0,same
0,648,catch,"[(1177, 767)]",[],[1],[],horizontal,"(890.0, 262.0)",1.7,nan,1,7344.312,3,0.0,same
0,649,valid,"[(1185, 776)]",[],[1],[0.85],horizontal,"(390.0, 762.0)",0.8166666666666667,nan,0,7350.337,0,0.0,same
0,650,invalid_same_bar,"[(1156, 777)]",[],[1],[0.5666666666666667],vertical,"(890.0, 262.0)",0.4666666666666667,0.523,1,7355.212,1,0.0,same
0,651,invalid_adjacent_other_bar,"[(1126, 783)]",[],[1],[0.7],vertical,"(390.0, 262.0)",1.0833333333333333,0.655,1,7360.287,1,0.0,other
0,652,catch,"[(1175, 771)]",[],[1],[],horizontal,"(390.0, 762.0)",1.7,nan,1,7365.974,1,0.0,same
0,653,catch,"[(1179, 780)]",[],[1],[],horizontal,"(390.0, 762.0)",1.7,nan,1,7371.017,2,0.0,same
0,654,valid,"[(1165, 767)]",[],[1],[0.6166666666666667],horizontal,"(890.0, 762.0)",0.5833333333333334,0.571,1,7376.783,2,0.0,same
0,655,valid,"[(1156, 776)]",[],[1],[0.6166666666666667],horizontal,"(890.0, 762.0)",1.0333333333333332,0.576,1,7381.59,2,0.0,same
0,656,invalid_same_bar,"[(1158, 781)]",[],[1],[0.5166666666666666],vertical,"(890.0, 762.0)",1.4833333333333334,0.473,1,7386.835,3,0.0,same
0,657,valid,"[(1152, 792)]",[],[1],[0.8],horizontal,"(390.0, 262.0)",1.2,0.751,1,7393.467,3,0.0,same
0,658,valid,"[(1156, 771)]",[],[1],[0.75],horizontal,"(890.0, 762.0)",1.3333333333333333,0.703,1,7399.714,3,0.0,same
0,659,invalid_adjacent_other_bar,"[(1128, 794)]",[],[1],[0.5833333333333334],vertical,"(390.0, 762.0)",1.2166666666666666,0.545,1,7406.045,3,0.0,other
0,660,catch,"[(1127, 756)]",[],[1],[],vertical,"(390.0, 762.0)",1.7,nan,1,7412.176,3,0.0,same
0,661,valid,"[(1177, 766)]",[],[1],[0.5],vertical,"(390.0, 262.0)",1.0166666666666666,0.46,1,7417.929,3,0.0,same
0,662,invalid_same_bar,"[(1146, 777)]",[],[1],[0.85],horizontal,"(390.0, 262.0)",1.4,nan,0,7423.36,0,0.0,same
0,663,valid,"[(1107, 792)]",[],[1],[0.6833333333333333],vertical,"(890.0, 262.0)",1.3333333333333333,0.637,1,7429.091,1,0.0,same
0,664,valid,"[(1158, 795)]",[],[1],[0.6666666666666666],vertical,"(390.0, 262.0)",1.0833333333333333,0.619,1,7434.495,1,0.0,same
0,665,valid,"[(1157, 776)]",[],[1],[0.65],horizontal,"(390.0, 762.0)",1.1333333333333333,0.602,1,7439.827,1,0.0,same
0,666,valid,"[(1127, 774)]",[],[1],[0.8166666666666667],vertical,"(890.0, 762.0)",1.3333333333333333,0.767,1,7445.139,2,0.0,same
0,667,valid,"[(1149, 796)]",[],[1],[0.5333333333333333],horizontal,"(890.0, 262.0)",1.0,0.5,1,7451.193,2,0.0,same
0,668,valid,"[(1180, 782)]",[],[1],[0.5666666666666667],horizontal,"(890.0, 762.0)",1.25,0.521,1,7456.706,2,0.0,same
0,669,valid,"[(1155, 778)]",[],[1],[0.5166666666666666],horizontal,"(890.0, 262.0)",0.4166666666666667,0.475,1,7462.777,3,0.0,same
0,670,valid,"[(1169, 777)]",[],[1],[0.7833333333333333],vertical,"(890.0, 762.0)",0.65,0.758,1,7468.538,3,0.0,same
0,671,invalid_adjacent_other_bar,"[(1135, 747), (1116, 814)]",[],"[0, 1]",[0.65],vertical,"(390.0, 762.0)",1.05,0.604,1,7474.495,3,0.0,other
0,672,valid,"[(1131, 785)]",[],[1],[0.5333333333333333],vertical,"(890.0, 262.0)",0.8166666666666667,0.492,1,7481.507,3,0.0,same
0,673,catch,"[(1126, 786)]",[],[1],[],horizontal,"(390.0, 262.0)",1.7,nan,1,7487.395,3,0.0,same
0,674,valid,"[(1163, 791)]",[],[1],[0.7],horizontal,"(890.0, 262.0)",1.45,0.647,1,7493.48,3,0.0,same
0,675,catch,"[(1144, 801)]",[],[1],[],horizontal,"(390.0, 762.0)",1.7,nan,1,7499.533,3,0.0,same
0,676,valid,"[(1161, 765)]",[],[1],[0.85],horizontal,"(390.0, 262.0)",1.2,nan,0,7505.795,0,0.0,same
0,677,valid,"[(1135, 794)]",[],[1],[0.55],vertical,"(890.0, 762.0)",1.0166666666666666,0.512,1,7510.962,1,0.0,same
0,678,valid,"[(1160, 761)]",[],[1],[0.85],vertical,"(390.0, 262.0)",0.55,nan,0,7515.994,0,0.0,same
0,679,valid,"[(1123, 790)]",[],[1],[0.6166666666666667],vertical,"(890.0, 262.0)",0.4,0.584,1,7520.262,1,0.0,same
0,680,catch,"[(1131, 782)]",[],[1],[],horizontal,"(390.0, 762.0)",1.7,nan,1,7524.859,1,0.0,same
0,681,valid,"[(1150, 776)]",[],[1],[0.5833333333333334],vertical,"(390.0, 262.0)",0.8833333333333333,0.54,1,7530.194,1,0.0,same
0,682,valid,"[(1180, 772)]",[],[1],[0.7666666666666666],horizontal,"(390.0, 262.0)",1.1333333333333333,0.721,1,7535.195,2,0.0,same
0,683,valid,"[(1175, 776)]",[],[1],[0.5333333333333333],horizontal,"(890.0, 262.0)",1.5166666666666666,0.495,1,7540.923,2,0.0,same
0,684,valid,"[(1115, 789)]",[],[1],[0.5666666666666667],horizontal,"(890.0, 262.0)",1.3666666666666667,0.527,1,7547.044,2,0.0,same
0,685,valid,"[(1149, 786)]",[],[1],[0.7166666666666667],horizontal,"(890.0, 262.0)",1.15,0.67,1,7553.211,3,0.0,same
0,686,catch,"[(1166, 766)]",[],[1],[],vertical,"(390.0, 262.0)",1.7,nan,1,7559.456,3,0.0,same
0,687,valid,"[(1162, 796)]",[],[1],[0.85],horizontal,"(890.0, 762.0)",1.3166666666666667,nan,0,7565.811,0,0.0,same
0,688,valid,"[(1121, 777)]",[],[1],[0.85],vertical,"(890.0, 762.0)",1.4833333333333334,nan,0,7571.19,0,0.0,same
0,689,valid,"[(1086, 766)]",[],[1],[0.85],vertical,"(390.0, 262.0)",0.43333333333333335,nan,0,7576.953,0,0.0,same
0,690,catch,"[(1131, 781)]",[],[1],[],horizontal,"(390.0, 262.0)",1.7,nan,1,7581.218,1,0.0,same
0,691,valid,"[(1126, 790)]",[],[1],[0.08333333333333333],horizontal,"(890.0, 262.0)",1.4333333333333333,0.052,0,7586.445,0,0.0,same
0,692,valid,"[(1126, 807)]",[],[1],[0.6],horizontal,"(890.0, 762.0)",1.2833333333333332,0.557,1,7591.037,1,0.0,same
0,693,valid,"[(1155, 785)]",[],[1],[0.5333333333333333],vertical,"(890.0, 262.0)",0.8666666666666667,0.491,1,7607.078,1,0.0,same
0,694,valid,"[(1131, 784)]",[],[1],[0.55],vertical,"(890.0, 762.0)",1.4166666666666667,0.511,1,7612.328,1,0.0,same
0,695,valid,"[(1169, 791)]",[],[1],[0.85],horizontal,"(390.0, 762.0)",0.4166666666666667,nan,0,7617.497,0,0.0,same
0,696,valid,"[(1121, 841)]",[],[1],[0.85],horizontal,"(390.0, 762.0)",0.36666666666666664,nan,0,7622.056,0,0.0,same
0,697,valid,"[(1116, 800)]",[],[1],[0.55],horizontal,"(390.0, 762.0)",0.65,0.508,1,7634.965,1,0.0,same
0,698,invalid_adjacent_other_bar,"[(1160, 787)]",[],[1],[0.6666666666666666],horizontal,"(890.0, 262.0)",1.45,0.625,1,7639.971,1,0.0,other
0,699,invalid_same_bar,"[(1161, 798)]",[],[1],[0.6],vertical,"(890.0, 262.0)",1.1333333333333333,0.56,1,7645.728,1,0.0,same
0,700,catch,"[(1160, 774)]",[],[1],[],horizontal,"(890.0, 262.0)",1.7,nan,1,7651.355,2,0.0,same
0,701,valid,"[(1166, 796)]",[],[1],[0.5],horizontal,"(390.0, 762.0)",0.8166666666666667,0.456,1,7657.329,2,0.0,same
0,702,catch,"[(1176, 785)]",[],[1],[],horizontal,"(390.0, 762.0)",1.7,nan,1,7662.643,2,0.0,same
0,703,valid,"[(1180, 781)]",[],[1],[0.48333333333333334],horizontal,"(890.0, 762.0)",1.45,0.443,1,7668.262,3,0.0,same
0,704,valid,"[(1165, 773)]",[],[1],[0.5333333333333333],vertical,"(390.0, 762.0)",1.1833333333333333,0.492,1,7674.612,3,0.0,same
0,705,catch,"[(1155, 794)]",[],[1],[],vertical,"(390.0, 762.0)",1.7,nan,1,7680.463,3,0.0,same
0,706,catch,"[(1170, 786)]",[],[1],[],vertical,"(390.0, 762.0)",1.7,nan,1,7686.245,3,0.0,same
0,707,valid,"[(1161, 790)]",[],[1],[0.5],vertical,"(890.0, 262.0)",1.5,0.462,1,7692.338,3,0.0,same
0,708,catch,"[(1126, 779)]",[],[1],[],horizontal,"(890.0, 762.0)",1.7,nan,1,7698.579,3,0.0,same
0,709,valid,"[(1177, 790)]",[],[1],[0.5],horizontal,"(390.0, 762.0)",0.75,0.464,1,7704.562,3,0.0,same
0,710,invalid_adjacent_other_bar,"[(1166, 791)]",[],[1],[0.5166666666666666],vertical,"(390.0, 262.0)",0.6333333333333333,0.477,1,7710.104,3,0.0,other
0,711,valid,"[(1172, 786)]",[],[1],[0.6],horizontal,"(390.0, 762.0)",1.3166666666666667,0.558,1,7715.411,3,0.0,same
0,712,catch,"[(1156, 808)]",[],[1],[],horizontal,"(890.0, 762.0)",1.7,nan,1,7721.659,3,0.0,same
0,713,valid,"[(1126, 763)]",[],[1],[0.5333333333333333],vertical,"(390.0, 262.0)",1.0,0.493,1,7728.195,3,0.0,same
0,714,catch,"[(1160, 771)]",[],[1],[],horizontal,"(390.0, 762.0)",1.7,nan,1,7734.045,3,0.0,same
0,715,catch,"[(1185, 767)]",[],[1],[],horizontal,"(890.0, 762.0)",1.7,nan,1,7740.079,3,0.0,same
0,716,invalid_same_bar,"[(1156, 797)]",[],[1],[0.85],vertical,"(390.0, 762.0)",0.7,nan,0,7746.448,0,0.0,same
0,717,catch,"[(1104, 823)]",[],[1],[],vertical,"(390.0, 262.0)",1.7,nan,1,7750.852,1,0.0,same
0,718,valid,"[(1180, 772)]",[],[1],[0.55],horizontal,"(890.0, 762.0)",1.5,0.511,1,7757.212,1,0.0,same
0,719,valid,"[(1159, 777)]",[],[1],[0.5833333333333334],horizontal,"(890.0, 762.0)",0.75,0.538,1,7763.052,1,0.0,same
0,720,valid,"[(1132, 799)]",[],[1],[0.5166666666666666],horizontal,"(890.0, 262.0)",0.9833333333333333,0.48,1,7767.724,2,0.0,same
0,721,valid,"[(1126, 801)]",[],[1],[0.55],horizontal,"(390.0, 262.0)",0.9833333333333333,0.508,1,7773.081,2,0.0,same
0,722,valid,"[(1119, 786)]",[],[1],[0.5333333333333333],horizontal,"(890.0, 762.0)",1.2833333333333332,0.492,1,7778.33,2,0.0,same
0,723,valid,"[(1151, 786)]",[],[1],[0.6333333333333333],horizontal,"(890.0, 762.0)",0.8666666666666667,0.591,1,7784.612,3,0.0,same
0,724,invalid_adjacent_other_bar,"[(1156, 782)]",[],[1],[0.55],vertical,"(890.0, 762.0)",1.3166666666666667,0.509,1,7790.858,3,0.0,other
0,725,invalid_adjacent_other_bar,"[(1155, 777)]",[],[1],[0.5],vertical,"(890.0, 262.0)",1.5166666666666666,0.456,1,7796.928,3,0.0,other
0,726,valid,"[(1170, 769)]",[],[1],[0.55],vertical,"(390.0, 262.0)",0.8166666666666667,0.504,1,7803.006,3,0.0,same
0,727,valid,"[(1161, 778)]",[],[1],[0.5333333333333333],horizontal,"(890.0, 762.0)",1.0,0.498,1,7809.038,3,0.0,same
0,728,catch,"[(1159, 766)]",[],[1],[],vertical,"(890.0, 262.0)",1.7,nan,1,7814.53,3,0.0,same
0,729,valid,"[(1175, 786)]",[],[1],[0.5166666666666666],vertical,"(390.0, 762.0)",1.3833333333333333,0.48,1,7820.395,3,0.0,same
0,730,catch,"[(1131, 786)]",[],[1],[],vertical,"(390.0, 262.0)",1.7,nan,1,7826.43,3,0.0,same
0,731,valid,"[(1158, 774)]",[],[1],[0.5333333333333333],vertical,"(890.0, 262.0)",0.4666666666666667,0.496,1,7832.365,3,0.0,same
0,732,valid,"[(1121, 833)]",[],[1],[0.65],horizontal,"(890.0, 262.0)",0.8333333333333334,0.618,1,7837.946,3,0.0,same
0,733,valid,"[(1126, 796)]",[],[1],[0.6666666666666666],vertical,"(390.0, 762.0)",0.55,0.633,1,7882.595,3,0.0,same
0,734,valid,"[(1150, 790)]",[],[1],[0.5666666666666667],horizontal,"(390.0, 262.0)",1.0166666666666666,0.535,1,7888.113,3,0.0,same
0,735,valid,"[(1154, 776)]",[],[1],[0.5666666666666667],vertical,"(890.0, 762.0)",1.2,0.532,1,7894.344,3,0.0,same
0,736,valid,"[(1150, 786)]",[],[1],[0.85],horizontal,"(390.0, 262.0)",1.3833333333333333,nan,0,7900.667,0,0.0,same
0,737,valid,"[(1121, 798)]",[],[1],[0.5333333333333333],vertical,"(890.0, 262.0)",1.1,0.497,1,7905.812,1,0.0,same
0,738,valid,"[(1131, 799)]",[],[1],[0.85],vertical,"(890.0, 762.0)",0.5166666666666666,nan,0,7910.895,0,0.0,same
0,739,valid,"[(1109, 779)]",[],[1],[0.6666666666666666],horizontal,"(890.0, 762.0)",1.3,0.625,1,7915.58,1,0.0,same
0,740,invalid_same_bar,"[(1153, 762)]",[],[1],[0.5333333333333333],vertical,"(390.0, 762.0)",0.4166666666666667,0.49,1,7921.329,1,0.0,same
0,741,valid,"[(1126, 821)]",[],[1],[0.5666666666666667],horizontal,"(390.0, 762.0)",1.4333333333333333,0.528,1,7925.753,1,0.0,same
0,742,catch,"[(1160, 791)]",[],[1],[],vertical,"(390.0, 262.0)",1.7,nan,1,7931.358,2,0.0,same
0,743,valid,"[(1126, 760)]",[],[1],[0.5166666666666666],vertical,"(390.0, 262.0)",0.45,0.478,1,7937.595,2,0.0,same
0,744,valid,"[(1151, 799)]",[],[1],[0.5666666666666667],horizontal,"(390.0, 262.0)",0.7,0.528,1,7942.436,2,0.0,same
0,745,valid,"[(1155, 787)]",[],[1],[0.5166666666666666],vertical,"(890.0, 262.0)",0.35,0.473,1,7947.988,3,0.0,same
0,746,valid,"[(1131, 781)]",[],[1],[0.6833333333333333],vertical,"(390.0, 762.0)",1.2,0.644,1,7953.2,3,0.0,same
0,747,valid,"[(1131, 760)]",[],[1],[0.55],horizontal,"(390.0, 262.0)",0.6833333333333333,0.508,1,7959.503,3,0.0,same
0,748,catch,"[(1177, 769)]",[],[1],[],horizontal,"(890.0, 262.0)",1.7,nan,1,7965.296,3,0.0,same
0,749,valid,"[(1131, 785)]",[],[1],[0.5333333333333333],horizontal,"(390.0, 762.0)",0.9333333333333333,0.49,1,7971.83,3,0.0,same
0,750,valid,"[(1156, 761)]",[],[1],[0.85],horizontal,"(390.0, 762.0)",0.5166666666666666,nan,0,7977.479,0,0.0,same
0,751,valid,"[(1111, 786)]",[],[1],[0.6833333333333333],vertical,"(390.0, 262.0)",0.9333333333333333,0.639,1,7981.545,1,0.0,same
0,752,catch,"[(1123, 804)]",[],[1],[],vertical,"(890.0, 762.0)",1.7,nan,1,7987.413,1,0.0,same
0,753,valid,"[(1156, 777)]",[],[1],[0.6166666666666667],horizontal,"(390.0, 762.0)",0.9166666666666666,0.578,1,7992.474,1,0.0,same
0,754,invalid_same_bar,"[(1171, 796)]",[],[1],[0.65],horizontal,"(890.0, 262.0)",1.2666666666666666,0.61,1,7997.814,2,0.0,same
0,755,valid,"[(1160, 786)]",[],[1],[0.85],horizontal,"(390.0, 762.0)",0.43333333333333335,nan,0,8003.554,0,0.0,same
0,756,valid,"[(1138, 768)]",[],[1],[0.6166666666666667],vertical,"(890.0, 262.0)",1.45,0.573,1,8007.663,1,0.0,same
0,757,valid,"[(1155, 791)]",[],[1],[0.6],horizontal,"(890.0, 762.0)",1.4166666666666667,0.559,1,8013.163,1,0.0,same
0,758,valid,"[(1160, 772)]",[],[1],[0.65],horizontal,"(890.0, 262.0)",0.75,0.613,1,8018.958,1,0.0,same
0,759,valid,"[(1126, 777)]",[],[1],[0.85],horizontal,"(390.0, 262.0)",1.5166666666666666,nan,0,8024.43,0,0.0,same
0,760,valid,"[(1156, 781)]",[],[1],[0.5166666666666666],horizontal,"(390.0, 262.0)",1.2666666666666666,0.484,1,8029.68,1,0.0,same
0,761,catch,"[(1131, 797)]",[],[1],[],horizontal,"(890.0, 762.0)",1.7,nan,1,8034.796,1,0.0,same
0,762,invalid_adjacent_other_bar,"[(1121, 820)]",[],[1],[0.5833333333333334],horizontal,"(390.0, 262.0)",1.4166666666666667,0.55,1,8040.447,1,0.0,other
0,763,invalid_same_bar,"[(1160, 776)]",[],[1],[0.5833333333333334],vertical,"(390.0, 262.0)",1.3666666666666667,0.55,1,8046.396,2,0.0,same
0,764,valid,"[(1136, 785)]",[],[1],[0.5],horizontal,"(890.0, 762.0)",0.4666666666666667,0.457,1,8052.383,2,0.0,same
0,765,invalid_adjacent_other_bar,"[(1165, 766)]",[],[1],[0.5333333333333333],horizontal,"(890.0, 762.0)",0.7,0.494,1,8056.947,2,0.0,other
0,766,valid,"[(1129, 769)]",[],[1],[0.5333333333333333],vertical,"(890.0, 762.0)",1.2333333333333334,0.495,1,8062.246,3,0.0,same
0,767,invalid_adjacent_other_bar,"[(1156, 774)]",[],[1],[0.6333333333333333],vertical,"(890.0, 262.0)",0.4,0.604,1,8068.317,3,0.0,other
0,768,invalid_adjacent_other_bar,"[(1171, 774)]",[],[1],[0.6],vertical,"(390.0, 262.0)",1.1,0.565,1,8074.103,3,0.0,other
0,769,valid,"[(1121, 781)]",[],[1],[0.5666666666666667],vertical,"(390.0, 262.0)",1.5166666666666666,0.522,1,8080.404,3,0.0,same
0,770,valid,"[(1159, 781)]",[],[1],[0.5833333333333334],horizontal,"(890.0, 762.0)",1.0333333333333332,0.544,1,8086.665,3,0.0,same
0,771,catch,"[(1137, 773)]",[],[1],[],vertical,"(390.0, 762.0)",1.7,nan,1,8093.038,3,0.0,same
0,772,catch,"[(1165, 756)]",[],[1],[],vertical,"(390.0, 762.0)",1.7,nan,1,8099.363,3,0.0,same
0,773,invalid_same_bar,"[(1174, 786)]",[],[1],[0.65],horizontal,"(890.0, 762.0)",1.1666666666666667,0.611,1,8105.739,3,0.0,same
0,774,catch,"[(1194, 787)]",[],[1],[],horizontal,"(390.0, 262.0)",1.7,nan,1,8111.966,3,0.0,same
0,775,invalid_same_bar,"[(1126, 779)]",[],[1],[0.7],horizontal,"(390.0, 262.0)",0.7833333333333333,0.657,1,8118.063,3,0.0,same
0,776,valid,"[(1155, 782)]",[],[1],[0.5333333333333333],vertical,"(390.0, 762.0)",0.9833333333333333,0.494,1,8124.146,3,0.0,same
0,777,valid,"[(1145, 771)]",[],[1],[0.85],vertical,"(390.0, 762.0)",1.0666666666666667,nan,0,8130.041,0,0.0,same
0,778,valid,"[(1118, 781)]",[],[1],[0.6],horizontal,"(390.0, 762.0)",1.0666666666666667,0.56,1,8135.013,1,0.0,same
0,779,valid,"[(1155, 774)]",[],[1],[0.55],horizontal,"(390.0, 262.0)",0.5166666666666666,0.507,1,8139.826,1,0.0,same
0,780,valid,"[(1168, 776)]",[],[1],[0.5833333333333334],horizontal,"(390.0, 262.0)",1.2,0.542,1,8144.198,1,0.0,same
0,781,valid,"[(1165, 783)]",[],[1],[0.85],vertical,"(890.0, 762.0)",1.2,nan,0,8149.864,0,0.0,same
0,782,invalid_same_bar,"[(1160, 774)]",[],[1],[0.5833333333333334],horizontal,"(390.0, 262.0)",0.7333333333333333,0.538,1,8154.811,1,0.0,same
0,783,valid,"[(1141, 782)]",[],[1],[0.6833333333333333],horizontal,"(390.0, 762.0)",1.4666666666666666,0.646,1,8159.685,1,0.0,same
0,784,catch,"[(1160, 774)]",[],[1],[],horizontal,"(390.0, 762.0)",1.7,nan,1,8165.346,1,0.0,same
0,785,valid,"[(1146, 810)]",[],[1],[0.5833333333333334],vertical,"(390.0, 262.0)",1.35,0.553,1,8170.417,2,0.0,same
0,786,valid,"[(1159, 791)]",[],[1],[0.6333333333333333],vertical,"(390.0, 762.0)",0.8333333333333334,0.594,1,8176.543,2,0.0,same
0,787,valid,"[(1159, 777)]",[],[1],[0.6],horizontal,"(390.0, 762.0)",1.3166666666666667,0.566,1,8181.931,2,0.0,same
0,788,catch,"[(1170, 762)]",[],[1],[],vertical,"(890.0, 762.0)",1.7,nan,1,8187.796,3,0.0,same
0,789,valid,"[(1151, 774)]",[],[1],[0.55],vertical,"(390.0, 262.0)",0.5,0.511,1,8193.448,3,0.0,same
0,790,invalid_same_bar,"[(1101, 829)]",[],[1],[0.5666666666666667],horizontal,"(890.0, 262.0)",0.45,0.532,1,8199.14,3,0.0,same
0,791,catch,"[(1088, 818)]",[],[1],[],vertical,"(390.0, 262.0)",1.7,nan,1,8205.439,3,0.0,same
0,792,valid,"[(1150, 817)]",[],[1],[0.65],vertical,"(390.0, 262.0)",1.45,0.611,1,8212.481,3,0.0,same
0,793,valid,"[(1160, 816)]",[],[1],[0.85],horizontal,"(890.0, 262.0)",0.55,nan,0,8219.045,0,0.0,same
0,794,catch,"[(1087, 806)]",[],[1],[],vertical,"(890.0, 762.0)",1.7,nan,1,8223.864,1,0.0,same
0,795,invalid_adjacent_other_bar,"[(1120, 820)]",[],[1],[0.55],vertical,"(890.0, 762.0)",1.2,0.51,1,8229.28,1,0.0,other
0,796,valid,"[(1155, 796)]",[],[1],[0.65],horizontal,"(390.0, 262.0)",1.2,0.61,1,8234.98,1,0.0,same
0,797,valid,"[(1128, 777)]",[],[1],[0.5333333333333333],vertical,"(390.0, 762.0)",1.3666666666666667,0.492,1,8240.081,2,0.0,same
0,798,valid,"[(1105, 848)]",[],[1],[0.5333333333333333],horizontal,"(390.0, 762.0)",1.45,0.487,1,8245.655,2,0.0,same
0,799,invalid_adjacent_other_bar,"[(1160, 811)]",[],[1],[0.5666666666666667],vertical,"(390.0, 762.0)",0.3833333333333333,0.526,1,8677.536,2,0.0,other
0,800,valid,"[(1140, 782)]",[],[1],[0.7166666666666667],horizontal,"(390.0, 762.0)",0.36666666666666664,0.666,1,8682.039,3,0.0,same
0,801,catch,"[(1145, 772)]",[],[1],[],vertical,"(390.0, 262.0)",1.7,nan,1,8687.548,3,0.0,same
0,802,invalid_same_bar,"[(1172, 783)]",[],[1],[0.5833333333333334],horizontal,"(890.0, 262.0)",0.9,0.538,1,8693.797,3,0.0,same
0,803,valid,"[(1170, 794)]",[],[1],[0.6],vertical,"(390.0, 262.0)",0.75,0.559,1,8699.765,3,0.0,same
0,804,catch,"[(1160, 772)]",[],[1],[],vertical,"(890.0, 262.0)",1.7,nan,1,8705.698,3,0.0,same
0,805,valid,"[(1155, 777)]",[],[1],[0.5],horizontal,"(390.0, 762.0)",1.3,0.458,1,8711.735,3,0.0,same
0,806,catch,"[(1153, 778)]",[],[1],[],vertical,"(890.0, 762.0)",1.7,nan,1,8717.799,3,0.0,same
0,807,invalid_same_bar,"[(1160, 778)]",[],[1],[0.6333333333333333],vertical,"(390.0, 262.0)",0.8,0.596,1,8723.899,3,0.0,same
0,808,valid,"[(1179, 795)]",[],[1],[0.5166666666666666],horizontal,"(390.0, 762.0)",0.43333333333333335,0.487,1,8729.648,3,0.0,same
0,809,valid,"[(1171, 808)]",[],[1],[0.55],horizontal,"(890.0, 762.0)",0.5333333333333333,0.507,1,8734.839,3,0.0,same
0,810,catch,"[(1168, 796)]",[],[1],[],vertical,"(890.0, 762.0)",1.7,nan,1,8740.097,3,0.0,same
0,811,valid,"[(1165, 807)]",[],[1],[0.5666666666666667],vertical,"(890.0, 762.0)",0.5666666666666667,0.523,1,8746.189,3,0.0,same
0,812,valid,"[(1179, 781)]",[],[1],[0.7166666666666667],vertical,"(390.0, 762.0)",1.2666666666666666,0.67,1,8751.691,3,0.0,same
0,813,invalid_adjacent_other_bar,"[(1175, 797)]",[],[1],[0.5666666666666667],vertical,"(890.0, 262.0)",0.8,0.525,1,8757.657,3,0.0,other
0,814,catch,"[(1150, 772)]",[],[1],[],vertical,"(890.0, 762.0)",1.7,nan,1,8763.499,3,0.0,same
0,815,valid,"[(1168, 778)]",[],[1],[0.48333333333333334],horizontal,"(390.0, 262.0)",1.2833333333333332,0.442,1,8769.839,3,0.0,same
0,816,catch,"[(1165, 781)]",[],[1],[],vertical,"(890.0, 762.0)",1.7,nan,1,8775.481,3,0.0,same
0,817,invalid_adjacent_other_bar,"[(1165, 811)]",[],[1],[0.55],vertical,"(890.0, 762.0)",1.25,0.506,1,8782.059,3,0.0,other
0,818,valid,"[(1174, 801)]",[],[1],[0.4666666666666667],vertical,"(890.0, 262.0)",1.25,0.432,1,8787.499,3,0.0,same
0,819,catch,"[(1166, 811)]",[],[1],[],horizontal,"(390.0, 762.0)",1.7,nan,1,8793.807,3,0.0,same
0,820,valid,"[(1163, 786)]",[],[1],[0.5],vertical,"(390.0, 262.0)",0.6,0.46,1,8800.345,3,0.0,same
0,821,valid,"[(1156, 782)]",[],[1],[0.65],vertical,"(390.0, 262.0)",0.36666666666666664,0.605,1,8805.835,3,0.0,same
0,822,valid,"[(1179, 786)]",[],[1],[0.5],vertical,"(890.0, 262.0)",0.5166666666666666,0.459,1,8811.315,3,0.0,same
0,823,valid,"[(1176, 779)]",[],[1],[0.5],horizontal,"(890.0, 262.0)",0.3833333333333333,0.46,1,8816.769,3,0.0,same
0,824,valid,"[(1180, 781)]",[],[1],[0.5],vertical,"(390.0, 262.0)",0.8,0.455,1,8822.127,3,0.0,same
0,825,valid,"[(1176, 811)]",[],[1],[0.5],vertical,"(390.0, 262.0)",0.8833333333333333,0.458,1,8827.527,3,0.0,same
0,826,valid,"[(1126, 840)]",[],[1],[0.5166666666666666],vertical,"(390.0, 262.0)",0.8833333333333333,0.478,1,8833.269,3,0.0,same
0,827,valid,"[(1169, 781)]",[],[1],[0.85],horizontal,"(890.0, 762.0)",0.85,nan,0,8839.383,0,0.0,same
0,828,valid,"[(1142, 786)]",[],[1],[0.6333333333333333],horizontal,"(890.0, 262.0)",1.0166666666666666,0.586,1,8844.04,1,0.0,same
0,829,valid,"[(1175, 768)]",[],[1],[0.85],horizontal,"(390.0, 262.0)",0.45,nan,0,8848.745,0,0.0,same
0,830,valid,"[(1172, 811)]",[],[1],[0.6],horizontal,"(890.0, 262.0)",0.48333333333333334,0.559,1,8852.905,1,0.0,same
0,831,valid,"[(1182, 807)]",[],[1],[0.5],vertical,"(890.0, 262.0)",1.2666666666666666,0.459,1,8857.147,1,0.0,same
0,832,valid,"[(1160, 803)]",[],[1],[0.55],horizontal,"(390.0, 262.0)",0.8666666666666667,0.509,1,8862.403,1,0.0,same
0,833,catch,"[(1168, 790)]",[],[1],[],vertical,"(390.0, 262.0)",1.7,nan,1,8867.376,2,0.0,same
0,834,valid,"[(1175, 798)]",[],[1],[0.5333333333333333],vertical,"(890.0, 762.0)",1.2833333333333332,0.491,1,8873.216,2,0.0,same
0,835,catch,"[(1172, 778)]",[],[1],[],vertical,"(390.0, 262.0)",1.7,nan,1,8878.752,2,0.0,same
0,836,valid,"[(1162, 787)]",[],[1],[0.5333333333333333],horizontal,"(890.0, 762.0)",0.75,0.492,1,8884.122,3,0.0,same
0,837,valid,"[(1161, 790)]",[],[1],[0.55],horizontal,"(890.0, 762.0)",1.4833333333333334,0.51,1,8889.625,3,0.0,same
0,838,valid,"[(1175, 785)]",[],[1],[0.5166666666666666],vertical,"(890.0, 262.0)",0.9333333333333333,0.47,1,8896.116,3,0.0,same
0,839,valid,"[(1158, 787)]",[],[1],[0.7833333333333333],horizontal,"(390.0, 762.0)",1.1666666666666667,0.737,1,8901.466,3,0.0,same
0,840,valid,"[(1151, 774)]",[],[1],[0.85],vertical,"(390.0, 762.0)",0.35,nan,0,8907.627,0,0.0,same
0,841,invalid_same_bar,"[(1131, 777)]",[],[1],[0.5333333333333333],horizontal,"(890.0, 762.0)",1.1666666666666667,0.494,1,8911.513,1,0.0,same
0,842,valid,"[(1160, 811)]",[],[1],[0.5333333333333333],vertical,"(390.0, 762.0)",1.45,0.491,1,8916.234,1,0.0,same
0,843,invalid_same_bar,"[(1131, 799)]",[],[1],[0.65],vertical,"(890.0, 262.0)",1.2833333333333332,0.606,1,8921.932,1,0.0,same
0,844,invalid_adjacent_other_bar,"[(1160, 770)]",[],[1],[0.5166666666666666],horizontal,"(890.0, 262.0)",0.75,0.481,1,8927.439,2,0.0,other
0,845,valid,"[(1160, 807)]",[],[1],[0.5],horizontal,"(390.0, 762.0)",0.6333333333333333,0.463,1,8932.55,2,0.0,same
0,846,valid,"[(1131, 807)]",[],[1],[0.75],vertical,"(390.0, 262.0)",0.7166666666666667,0.71,1,8937.79,2,0.0,same
0,847,valid,"[(1160, 767)]",[],[1],[0.75],horizontal,"(890.0, 262.0)",0.9833333333333333,0.7,1,8943.374,3,0.0,same
0,848,valid,"[(1159, 773)]",[],[1],[0.5666666666666667],vertical,"(390.0, 262.0)",1.4166666666666667,0.525,1,8949.711,3,0.0,same
0,849,valid,"[(1146, 802)]",[],[1],[0.48333333333333334],vertical,"(890.0, 262.0)",1.0833333333333333,0.439,1,8955.789,3,0.0,same
0,850,catch,"[(1190, 778)]",[],[1],[],vertical,"(390.0, 762.0)",1.7,nan,1,8961.321,3,0.0,same
0,851,valid,"[(1175, 777)]",[],[1],[0.7333333333333333],vertical,"(890.0, 762.0)",0.9,0.693,1,8967.382,3,0.0,same
0,852,catch,"[(1170, 806)]",[],[1],[],horizontal,"(390.0, 262.0)",1.7,nan,1,8973.483,3,0.0,same
0,853,valid,"[(1151, 780)]",[],[1],[0.45],vertical,"(890.0, 762.0)",1.1333333333333333,0.407,1,8979.645,3,0.0,same
0,854,invalid_same_bar,"[(1148, 807)]",[],[1],[0.5166666666666666],horizontal,"(390.0, 262.0)",0.55,0.473,1,8985.649,3,0.0,same
0,855,valid,"[(1180, 769)]",[],[1],[0.6],vertical,"(890.0, 262.0)",0.35,0.56,1,8991.148,3,0.0,same
0,856,valid,"[(1129, 811)]",[],[1],[0.85],horizontal,"(390.0, 762.0)",0.5166666666666666,nan,0,8996.049,0,0.0,same
0,857,valid,"[(1126, 785)]",[],[1],[0.5],horizontal,"(890.0, 262.0)",0.5666666666666667,0.462,1,9000.931,1,0.0,same
0,858,catch,"[(1165, 782)]",[],[1],[],vertical,"(390.0, 262.0)",1.7,nan,1,9005.482,1,0.0,same
0,859,catch,"[(1147, 785)]",[],[1],[],horizontal,"(390.0, 762.0)",1.7,nan,1,9010.59,1,0.0,same
0,860,catch,"[(1171, 787)]",[],[1],[],horizontal,"(890.0, 262.0)",1.7,nan,1,9015.982,2,0.0,same
0,861,valid,"[(1155, 797)]",[],[1],[0.5333333333333333],horizontal,"(890.0, 262.0)",1.3666666666666667,0.495,1,9021.649,2,0.0,same
0,862,catch,"[(1190, 779)]",[],[1],[],vertical,"(390.0, 262.0)",,"('cti', 1.438),nan",0,9027.366,0,0.02,same
0,863,valid,"[(1136, 792)]",[],[1],[0.48333333333333334],vertical,"(890.0, 762.0)",1.45,0.445,1,9031.899,1,0.02,same
0,864,valid,"[(1150, 788)]",[],[1],[0.5166666666666666],vertical,"(890.0, 762.0)",0.5166666666666666,0.478,1,9037.666,1,0.02,same
0,865,catch,"[(1200, 792)]",[],[1],[],vertical,"(390.0, 762.0)",1.7,nan,1,9041.891,1,0.02,same
0,866,invalid_same_bar,"[(1151, 783)]",[],[1],[0.5666666666666667],vertical,"(390.0, 262.0)",1.4,0.529,1,9047.466,2,0.02,same
0,867,valid,"[(1174, 782)]",[],[1],[0.6],horizontal,"(390.0, 762.0)",0.5333333333333333,0.559,1,9053.482,2,0.02,same
0,868,valid,"[(1131, 776)]",[],[1],[0.85],vertical,"(390.0, 262.0)",0.7833333333333333,nan,0,9058.769,0,0.02,same
0,869,valid,"[(1121, 768)]",[],[1],[0.55],horizontal,"(390.0, 762.0)",1.25,0.511,1,9063.133,1,0.02,same
0,870,catch,"[(1185, 781)]",[],[1],[],vertical,"(890.0, 262.0)",1.7,nan,1,9068.983,1,0.02,same
0,871,catch,"[(1126, 780)]",[],[1],[],vertical,"(390.0, 762.0)",1.7,nan,1,9074.127,1,0.02,same
0,872,invalid_adjacent_other_bar,"[(1150, 802)]",[],[1],[0.7333333333333333],horizontal,"(390.0, 262.0)",0.75,0.697,1,9079.549,2,0.02,other
