block,practice,trial,change_interval_s,change_interval_frames,taps_start_time_during_fix,taps_end_time_during_fix,taps_start_loc_during_fix,taps_end_loc_during_fix,taps_on_lever_during_fix,taps_on_lever_frame_during_fix,taps_on_lever_s_during_fix,fix_xy,bar_orientation,target_xy,cti,rt,acc,time
1,True,1,0.813,48,[],[],"[(1183, 893)]",[],[1],[51],[0.85],"[640.0, 512.0]",horizontal,"(890.0, 762.0)",[0.75],[0.796],0,0.456
1,True,2,0.746,44,[],[],"[(1186, 892)]",[],[1],[35],[0.5833333333333334],"[640.0, 512.0]",horizontal,"(390.0, 762.0)",[0.55],[0.544],1,86.826
1,True,3,1.132,67,[],[],"[(1127, 870)]",[],[1],[36],[0.6],"[640.0, 512.0]",vertical,"(390.0, 762.0)",[0.8666666666666667],[0.556],1,91.8
1,True,4,0.544,32,[],[],"[(1066, 866)]",[],[1],[51],[0.85],"[640.0, 512.0]",horizontal,"(390.0, 262.0)",[1.65],[0.814],0,96.76
1,False,1,0.791,47,[],[],"[(1124, 923)]",[],[1],[38],[0.6333333333333333],"[640.0, 512.0]",vertical,"(390.0, 262.0)",[1.2],[0.586],1,101.98
1,False,2,1.114,66,[],[],"[(1122, 880)]",[],[1],[51],[0.85],"[640.0, 512.0]",horizontal,"(390.0, 262.0)",[1.65],[0.803],0,107.774
1,False,3,0.94,56,[],[],"[(1146, 870)]",[],[1],[43],[0.7166666666666667],"[640.0, 512.0]",horizontal,"(890.0, 762.0)",[0.9166666666666666],[0.674],1,114.094
1,False,4,1.116,66,[],[],"[(1116, 895)]",[],[1],[51],[0.85],"[640.0, 512.0]",vertical,"(890.0, 262.0)",[1.5],[0.8],0,120.359
1,False,5,1.118,67,[],[],"[(1191, 878)]",[],[1],[42],[0.7],"[640.0, 512.0]",vertical,"(890.0, 262.0)",[1.3666666666666667],[0.656],1,125.815
1,False,6,0.995,59,[],[],"[(1099, 880)]",[],[1],[38],[0.6333333333333333],"[640.0, 512.0]",horizontal,"(390.0, 262.0)",[1.6],[0.594],1,131.351
1,False,7,0.998,59,[],[],"[(1087, 875)]",[],[1],[51],[0.85],"[640.0, 512.0]",vertical,"(390.0, 262.0)",[0.95],[0.795],0,136.765
1,False,8,0.735,44,[],[],"[(1118, 875)]",[],[1],[37],[0.6166666666666667],"[640.0, 512.0]",horizontal,"(890.0, 762.0)",[1.4166666666666667],[0.571],1,141.932
1,False,9,0.652,39,[],[],"[(1106, 880)]",[],[1],[37],[0.6166666666666667],"[640.0, 512.0]",vertical,"(390.0, 762.0)",[1.45],[0.57],1,148.236
1,False,10,1.009,60,[],[],"[(1072, 888)]",[],[1],[38],[0.6333333333333333],"[640.0, 512.0]",horizontal,"(390.0, 262.0)",[1.3833333333333333],[0.59],1,153.103
1,False,11,0.776,46,[],[],"[(1033, 896)]",[],[1],[39],[0.65],"[640.0, 512.0]",vertical,"(390.0, 262.0)",[0.5166666666666666],[0.599],1,158.135
1,False,12,1.042,62,[],[],"[(1118, 868)]",[],[1],[40],[0.6666666666666666],"[640.0, 512.0]",vertical,"(890.0, 262.0)",[0.95],[0.617],1,162.052
1,False,13,0.833,49,[],[],"[(1090, 894)]",[],[1],[37],[0.6166666666666667],"[640.0, 512.0]",vertical,"(890.0, 762.0)",[1.5166666666666666],[0.573],1,166.705
1,False,14,0.648,38,[],[],"[(1103, 866)]",[],[1],[37],[0.6166666666666667],"[640.0, 512.0]",vertical,"(890.0, 262.0)",[0.55],[0.591],1,171.739
1,False,15,1.14,68,[],[],"[(1090, 894)]",[],[1],[38],[0.6333333333333333],"[640.0, 512.0]",vertical,"(390.0, 762.0)",[0.65],[0.59],1,175.699
1,False,16,1.177,70,[],[],"[(1094, 884)]",[],[1],[35],[0.5833333333333334],"[640.0, 512.0]",vertical,"(390.0, 262.0)",[1.1666666666666667],[0.541],1,180.289
1,False,17,0.918,55,[],[],"[(1072, 862)]",[],[1],[46],[0.7666666666666666],"[640.0, 512.0]",vertical,"(390.0, 262.0)",[0.6666666666666666],[0.716],1,185.258
1,False,18,0.958,57,[],[],"[(1063, 908)]",[],[1],[37],[0.6166666666666667],"[640.0, 512.0]",horizontal,"(890.0, 762.0)",[0.8],[0.573],1,189.852
1,False,19,0.815,48,[],[],"[(1050, 861)]",[],[1],[41],[0.6833333333333333],"[640.0, 512.0]",horizontal,"(390.0, 762.0)",[1.6333333333333333],[0.642],1,194.32
1,False,20,1.15,69,[],[],"[(1035, 860)]",[],[1],[38],[0.6333333333333333],"[640.0, 512.0]",vertical,"(890.0, 262.0)",[0.9],[0.59],1,199.474
1,False,21,0.759,45,[],[],"[(1066, 866)]",[],[1],[37],[0.6166666666666667],"[640.0, 512.0]",vertical,"(390.0, 262.0)",[1.55],[0.577],1,204.19
1,False,22,0.658,39,[],[],"[(1056, 870)]",[],[1],[35],[0.5833333333333334],"[640.0, 512.0]",horizontal,"(890.0, 262.0)",[1.6333333333333333],[0.544],1,209.363
1,False,23,0.987,59,[],[],"[(1049, 861)]",[],[1],[41],[0.6833333333333333],"[640.0, 512.0]",vertical,"(890.0, 262.0)",[0.6833333333333333],[0.64],1,214.442
1,False,24,0.868,52,[],[],"[(1050, 863)]",[],[1],[51],[0.85],"[640.0, 512.0]",horizontal,"(390.0, 262.0)",[1.6166666666666667],[0.808],0,219.063
1,False,25,0.579,34,[],[],"[(1123, 880)]",[],[1],[37],[0.6166666666666667],"[640.0, 512.0]",horizontal,"(390.0, 262.0)",[1.65],[0.572],1,224.656
1,False,26,0.518,31,[],[],"[(1049, 880)]",[],[1],[35],[0.5833333333333334],"[640.0, 512.0]",horizontal,"(890.0, 762.0)",[1.3666666666666667],[0.551],1,230.941
1,False,27,0.635,38,[],[],"[(1070, 848)]",[],[1],[51],[0.85],"[640.0, 512.0]",vertical,"(390.0, 262.0)",[0.5666666666666667],[0.803],0,235.588
1,False,28,0.857,51,[],[],"[(1122, 882)]",[],[1],[51],[0.85],"[640.0, 512.0]",horizontal,"(390.0, 762.0)",[0.8666666666666667],[0.804],0,239.77
1,False,29,0.664,39,[],[],"[(1148, 906)]",[],[1],[31],[0.5166666666666666],"[640.0, 512.0]",vertical,"(890.0, 262.0)",[1.5666666666666667],[0.474],1,265.168
1,False,30,0.577,34,[],[],"[(1088, 867)]",[],[1],[35],[0.5833333333333334],"[640.0, 512.0]",vertical,"(390.0, 262.0)",[1.0],[0.541],1,275.279
1,False,31,1.028,61,[],[],"[(1078, 879)]",[],[1],[33],[0.55],"[640.0, 512.0]",horizontal,"(390.0, 762.0)",[1.35],[0.507],1,279.613
1,False,32,0.907,54,[],[],"[(1049, 886)]",[],[1],[36],[0.6],"[640.0, 512.0]",vertical,"(390.0, 762.0)",[1.4166666666666667],[0.561],1,284.683
1,False,33,0.866,51,[],[],"[(1080, 884)]",[],[1],[51],[0.85],"[640.0, 512.0]",vertical,"(890.0, 762.0)",[0.9333333333333333],[0.807],0,289.722
1,False,34,0.931,55,[],[],"[(1117, 894)]",[],[1],[36],[0.6],"[640.0, 512.0]",vertical,"(390.0, 762.0)",[1.1833333333333333],[0.557],1,294.602
1,False,35,1.139,68,[],[],"[(1047, 894)]",[],[1],[40],[0.6666666666666666],"[640.0, 512.0]",vertical,"(390.0, 262.0)",[1.3333333333333333],[0.623],1,301.159
1,False,36,0.864,51,[],[],"[(1080, 892)]",[],[1],[48],[0.8],"[640.0, 512.0]",horizontal,"(390.0, 262.0)",[1.2166666666666666],[0.758],1,306.509
1,False,37,0.956,57,[],[],"[(1034, 854)]",[],[1],[36],[0.6],"[640.0, 512.0]",horizontal,"(890.0, 762.0)",[1.0666666666666667],[0.564],1,311.437
1,False,38,0.837,50,[],[],"[(1045, 880)]",[],[1],[44],[0.7333333333333333],"[640.0, 512.0]",vertical,"(890.0, 262.0)",[1.3333333333333333],[0.686],1,316.363
1,False,39,1.135,68,[],[],"[(1084, 891)]",[],[1],[51],[0.85],"[640.0, 512.0]",vertical,"(390.0, 762.0)",[1.1666666666666667],[0.807],0,321.471
1,False,40,1.176,70,[],[],"[(1100, 894)]",[],[1],[35],[0.5833333333333334],"[640.0, 512.0]",horizontal,"(890.0, 762.0)",[1.6666666666666667],[0.542],1,326.653
1,False,41,1.147,68,[],[],"[(1067, 893)]",[],[1],[35],[0.5833333333333334],"[640.0, 512.0]",horizontal,"(890.0, 762.0)",[1.1333333333333333],[0.545],1,332.342
1,False,42,1.033,61,[],[],"[(1087, 867)]",[],[1],[37],[0.6166666666666667],"[640.0, 512.0]",horizontal,"(390.0, 762.0)",[0.65],[0.574],1,337.287
1,False,43,0.831,49,[],[],"[(1052, 888)]",[],[1],[51],[0.85],"[640.0, 512.0]",horizontal,"(390.0, 262.0)",[0.5166666666666666],[0.807],0,341.571
1,False,44,1.171,70,[],[],"[(1096, 893)]",[],[1],[39],[0.65],"[640.0, 512.0]",horizontal,"(890.0, 762.0)",[1.3166666666666667],[0.606],1,346.075
1,False,45,0.592,35,[],[],"[(1052, 890)]",[],[1],[34],[0.5666666666666667],"[640.0, 512.0]",horizontal,"(890.0, 762.0)",[1.4833333333333334],[0.523],1,351.27
1,False,46,0.698,41,[],[],"[(1035, 880)]",[],[1],[38],[0.6333333333333333],"[640.0, 512.0]",horizontal,"(890.0, 762.0)",[0.7833333333333333],[0.59],1,355.939
1,False,47,0.903,54,[],[],"[(1030, 878)]",[],[1],[51],[0.85],"[640.0, 512.0]",horizontal,"(390.0, 262.0)",[0.6166666666666667],[0.802],0,360.191
1,False,48,0.715,42,[],[],"[(1103, 886)]",[],[1],[34],[0.5666666666666667],"[640.0, 512.0]",vertical,"(890.0, 762.0)",[1.45],[0.524],1,364.672
1,False,49,1.074,64,[],[],"[(1049, 892)]",[],[1],[36],[0.6],"[640.0, 512.0]",horizontal,"(390.0, 262.0)",[1.2166666666666666],[0.559],1,369.642
1,False,50,0.622,37,[],[],"[(1052, 897)]",[],[1],[51],[0.85],"[640.0, 512.0]",horizontal,"(390.0, 262.0)",[0.6],[0.8],0,374.585
1,False,51,0.596,35,[],[],"[(1087, 871)]",[],[1],[38],[0.6333333333333333],"[640.0, 512.0]",horizontal,"(890.0, 262.0)",[0.5166666666666666],[0.587],1,378.755
1,False,52,0.579,34,[],[],"[(1042, 880)]",[],[1],[35],[0.5833333333333334],"[640.0, 512.0]",vertical,"(390.0, 762.0)",[1.3666666666666667],[0.546],1,382.537
1,False,53,0.895,53,[],[],"[(1051, 871)]",[],[1],[37],[0.6166666666666667],"[640.0, 512.0]",horizontal,"(390.0, 762.0)",[1.0],[0.569],1,387.149
1,False,54,1.073,64,[],[],"[(1049, 880)]",[],[1],[35],[0.5833333333333334],"[640.0, 512.0]",vertical,"(390.0, 762.0)",[0.7333333333333333],[0.538],1,391.714
1,False,55,1.032,61,[],[],"[(1109, 893)]",[],[1],[42],[0.7],"[640.0, 512.0]",vertical,"(890.0, 262.0)",[1.6166666666666667],[0.649],1,396.391
1,False,56,0.998,59,[],[],"[(1030, 889)]",[],[1],[36],[0.6],"[640.0, 512.0]",horizontal,"(890.0, 262.0)",[0.75],[0.557],1,409.32
1,False,57,1.014,60,[],[],"[(1079, 861)]",[],[1],[34],[0.5666666666666667],"[640.0, 512.0]",horizontal,"(390.0, 762.0)",[1.2166666666666666],[0.525],1,414.044
1,False,58,1.188,71,[],[],"[(1071, 867)]",[],[1],[36],[0.6],"[640.0, 512.0]",vertical,"(390.0, 262.0)",[1.1166666666666667],[0.559],1,419.141
1,False,59,1.076,64,[],[],"[(1080, 876)]",[],[1],[44],[0.7333333333333333],"[640.0, 512.0]",vertical,"(390.0, 262.0)",[0.9833333333333333],[0.685],1,424.336
1,False,60,0.703,42,[],[],"[(1081, 870)]",[],[1],[35],[0.5833333333333334],"[640.0, 512.0]",vertical,"(890.0, 262.0)",[0.8166666666666667],[0.542],1,429.19
2,False,61,0.802,48,[],[],"[(1083, 876)]",[],[1],[],[],"[640.0, 512.0]",horizontal,"(890.0, 262.0)",[],[0],0,433.555
2,False,62,0.901,54,[],[],"[(1134, 889)]",[],[1],[38],[0.6333333333333333],"[640.0, 512.0]",vertical,"(390.0, 762.0)",[1.05],[0.596],1,437.857
2,False,63,0.588,35,[],[],"[(1074, 873)]",[],[1],[34],[0.5666666666666667],"[640.0, 512.0]",horizontal,"(890.0, 762.0)",[1.3166666666666667],[0.524],1,444.353
2,False,64,0.644,38,[],[],"[(1079, 880)]",[],[1],[36],[0.6],"[640.0, 512.0]",horizontal,"(890.0, 762.0)",[0.7166666666666667],[0.555],1,449.041
2,False,65,0.657,39,[],[],"[(1046, 875)]",[],[1],[36],[0.6],"[640.0, 512.0]",vertical,"(890.0, 762.0)",[0.5833333333333334],[0.554],1,453.09
2,False,66,0.827,49,[],[],"[(1055, 870)]",[],[1],[43],[0.7166666666666667],"[640.0, 512.0]",horizontal,"(890.0, 762.0)",[1.4],[0.67],1,457.223
2,False,67,1.065,63,[],[],"[(1076, 889)]",[],[1],[34],[0.5666666666666667],"[640.0, 512.0]",vertical,"(890.0, 262.0)",[1.1166666666666667],[0.52],1,462.407
2,False,68,0.564,33,[],[],"[(1091, 889)]",[],[1],[36],[0.6],"[640.0, 512.0]",horizontal,"(890.0, 762.0)",[0.9],[0.556],1,467.223
2,False,69,1.091,65,[],[],"[(1058, 890)]",[],[1],[34],[0.5666666666666667],"[640.0, 512.0]",vertical,"(390.0, 262.0)",[1.1666666666666667],[0.529],1,472.5
2,False,70,0.572,34,[],[],"[(1074, 899)]",[],[1],[35],[0.5833333333333334],"[640.0, 512.0]",horizontal,"(890.0, 762.0)",[1.5833333333333333],[0.546],1,477.559
2,False,71,1.174,70,[],[],"[(1063, 876)]",[],[1],[35],[0.5833333333333334],"[640.0, 512.0]",vertical,"(890.0, 762.0)",[1.15],[0.544],1,482.508
2,False,72,0.973,58,[],[],"[(1092, 865)]",[],[1],[34],[0.5666666666666667],"[640.0, 512.0]",horizontal,"(890.0, 762.0)",[0.55],[0.525],1,487.446
2,False,73,1.172,70,[],[],"[(1048, 892)]",[],[1],[34],[0.5666666666666667],"[640.0, 512.0]",vertical,"(390.0, 762.0)",[0.9833333333333333],[0.541],1,491.655
2,False,74,1.086,65,[],[],"[(1038, 872)]",[],[1],[36],[0.6],"[640.0, 512.0]",horizontal,"(890.0, 762.0)",[0.6],[0.561],1,496.49
2,False,75,0.882,52,[],[],"[(1082, 875)]",[],[1],[37],[0.6166666666666667],"[640.0, 512.0]",horizontal,"(890.0, 262.0)",[0.8333333333333334],[0.573],1,500.972
2,False,76,0.822,49,[],[],"[(1064, 884)]",[],[1],[41],[0.6833333333333333],"[640.0, 512.0]",horizontal,"(890.0, 262.0)",[1.2],[0.643],1,505.49
2,False,77,1.178,70,[],[],"[(1047, 882)]",[],[1],[31],[0.5166666666666666],"[640.0, 512.0]",vertical,"(390.0, 262.0)",[1.3666666666666667],[0.474],1,510.487
2,False,78,1.101,66,[],[],"[(1093, 884)]",[],[1],[51],[0.85],"[640.0, 512.0]",vertical,"(890.0, 762.0)",[1.2333333333333334],[0.801],0,515.685
2,False,79,0.745,44,[],[],"[(1093, 902)]",[],[1],[35],[0.5833333333333334],"[640.0, 512.0]",horizontal,"(390.0, 262.0)",[0.6833333333333333],[0.541],1,521.172
2,False,80,1.188,71,[],[],"[(1072, 874)]",[],[1],[35],[0.5833333333333334],"[640.0, 512.0]",horizontal,"(390.0, 262.0)",[1.65],[0.543],1,525.895
2,False,81,0.674,40,[],[],"[(1050, 881)]",[],[1],[34],[0.5666666666666667],"[640.0, 512.0]",horizontal,"(890.0, 762.0)",[1.2666666666666666],[0.52],1,531.483
2,False,82,0.68,40,[],[],"[(1084, 870)]",[],[1],[39],[0.65],"[640.0, 512.0]",horizontal,"(890.0, 762.0)",[0.5833333333333334],[0.608],1,536.18
2,False,83,0.956,57,[],[],"[(1047, 859)]",[],[1],[33],[0.55],"[640.0, 512.0]",vertical,"(890.0, 762.0)",[1.3166666666666667],[0.509],1,540.363
2,False,84,1.141,68,[],[],"[(1081, 870)]",[],[1],[40],[0.6666666666666666],"[640.0, 512.0]",vertical,"(890.0, 262.0)",[1.05],[0.621],1,546.693
2,False,85,0.539,32,[],[],"[(1052, 880)]",[],[1],[34],[0.5666666666666667],"[640.0, 512.0]",vertical,"(390.0, 262.0)",[1.6666666666666667],[0.526],1,551.622
2,False,86,0.812,48,[],[],"[(1046, 884)]",[],[1],[36],[0.6],"[640.0, 512.0]",horizontal,"(890.0, 762.0)",[0.8166666666666667],[0.561],1,556.573
2,False,87,0.847,50,[],[],"[(1075, 872)]",[],[1],[36],[0.6],"[640.0, 512.0]",horizontal,"(890.0, 762.0)",[1.5333333333333332],[0.561],1,560.817
2,False,88,0.939,56,[],[],"[(1117, 860)]",[],[1],[35],[0.5833333333333334],"[640.0, 512.0]",horizontal,"(890.0, 262.0)",[0.6833333333333333],[0.541],1,566.003
2,False,89,1.037,62,[],[],"[(1127, 870)]",[],[1],[34],[0.5666666666666667],"[640.0, 512.0]",horizontal,"(890.0, 262.0)",[0.8666666666666667],[0.529],1,570.432
2,False,90,0.829,49,[],[],"[(1146, 889)]",[],[1],[42],[0.7],"[640.0, 512.0]",vertical,"(390.0, 262.0)",[0.6666666666666666],[0.656],1,575.136
2,False,91,0.765,45,[],[],"[(1074, 881)]",[],[1],[37],[0.6166666666666667],"[640.0, 512.0]",horizontal,"(890.0, 762.0)",[1.45],[0.571],1,583.885
2,False,92,0.889,53,[],[],"[(1081, 853)]",[],[1],[33],[0.55],"[640.0, 512.0]",horizontal,"(890.0, 262.0)",[1.6333333333333333],[0.512],1,588.913
2,False,93,0.816,48,[],[],"[(1057, 856)]",[],[1],[51],[0.85],"[640.0, 512.0]",horizontal,"(390.0, 762.0)",[1.6333333333333333],[0.805],0,594.158
2,False,94,0.994,59,[],[],"[(1081, 889)]",[],[1],[39],[0.65],"[640.0, 512.0]",vertical,"(390.0, 762.0)",[1.3166666666666667],[0.599],1,599.581
2,False,95,0.555,33,[],[],"[(1103, 857)]",[],[1],[51],[0.85],"[640.0, 512.0]",horizontal,"(390.0, 262.0)",[1.5666666666666667],[0.798],0,604.559
2,False,96,0.672,40,[],[],"[(1136, 859)]",[],[1],[36],[0.6],"[640.0, 512.0]",horizontal,"(390.0, 762.0)",[1.3333333333333333],[0.557],1,610.557
2,False,97,1.166,69,[],[],"[(1102, 887)]",[],[1],[39],[0.65],"[640.0, 512.0]",horizontal,"(390.0, 262.0)",[0.5833333333333334],[0.607],1,615.358
2,False,98,0.736,44,[],[],"[(1074, 861)]",[],[1],[36],[0.6],"[640.0, 512.0]",horizontal,"(890.0, 762.0)",[0.65],[0.56],1,619.795
2,False,99,1.084,65,[],[],"[(1111, 864)]",[],[1],[38],[0.6333333333333333],"[640.0, 512.0]",horizontal,"(390.0, 262.0)",[0.9833333333333333],[0.591],1,624.042
2,False,100,0.815,48,[],[],"[(1093, 881)]",[],[1],[38],[0.6333333333333333],"[640.0, 512.0]",horizontal,"(890.0, 762.0)",[1.45],[0.59],1,628.915
2,False,101,1.023,61,[],[],"[(1093, 873)]",[],[1],[36],[0.6],"[640.0, 512.0]",horizontal,"(390.0, 762.0)",[1.6],[0.559],1,633.83
2,False,102,0.827,49,[],[],"[(1079, 854)]",[],[1],[40],[0.6666666666666666],"[640.0, 512.0]",horizontal,"(390.0, 762.0)",[0.5],[0.628],1,639.147
2,False,103,0.912,54,[],[],"[(1074, 869)]",[],[1],[38],[0.6333333333333333],"[640.0, 512.0]",vertical,"(890.0, 762.0)",[0.5833333333333334],[0.588],1,643.437
2,False,104,0.726,43,[],[],"[(1104, 876)]",[],[1],[37],[0.6166666666666667],"[640.0, 512.0]",vertical,"(890.0, 762.0)",[1.0],[0.57],1,647.738
2,False,105,0.547,32,[],[],"[(1099, 893)]",[],[1],[37],[0.6166666666666667],"[640.0, 512.0]",horizontal,"(390.0, 262.0)",[1.45],[0.571],1,652.136
2,False,106,0.913,54,[],[],"[(1065, 883)]",[],[1],[51],[0.85],"[640.0, 512.0]",horizontal,"(390.0, 262.0)",[1.2],[0.803],0,656.877
2,False,107,0.675,40,[],[],"[(1111, 863)]",[],[1],[34],[0.5666666666666667],"[640.0, 512.0]",horizontal,"(890.0, 262.0)",[1.55],[0.523],1,661.942
2,False,108,0.7,42,[],[],"[(1056, 862)]",[],[1],[36],[0.6],"[640.0, 512.0]",horizontal,"(890.0, 762.0)",[1.5666666666666667],[0.56],1,674.318
2,False,109,0.787,47,[],[],"[(1066, 875)]",[],[1],[51],[0.85],"[640.0, 512.0]",horizontal,"(390.0, 262.0)",[0.7666666666666666],[0.802],0,679.472
2,False,110,0.706,42,[],[],"[(1123, 900)]",[],[1],[43],[0.7166666666666667],"[640.0, 512.0]",horizontal,"(390.0, 262.0)",[1.5166666666666666],[0.668],1,684.03
2,False,111,0.544,32,[],[],"[(1056, 880)]",[],[1],[36],[0.6],"[640.0, 512.0]",vertical,"(390.0, 762.0)",[1.0],[0.555],1,690.228
2,False,112,0.83,49,[],[],"[(1091, 900)]",[],[1],[36],[0.6],"[640.0, 512.0]",horizontal,"(890.0, 762.0)",[0.9],[0.553],1,694.491
2,False,113,1.132,67,[],[],"[(1105, 884)]",[],[1],[39],[0.65],"[640.0, 512.0]",vertical,"(390.0, 262.0)",[1.0666666666666667],[0.606],1,698.821
2,False,114,0.894,53,[],[],"[(1087, 879)]",[],[1],[35],[0.5833333333333334],"[640.0, 512.0]",horizontal,"(390.0, 262.0)",[1.6166666666666667],[0.541],1,703.874
2,False,115,0.585,35,[],[],"[(1099, 885)]",[],[1],[38],[0.6333333333333333],"[640.0, 512.0]",vertical,"(890.0, 262.0)",[1.45],[0.588],1,709.199
2,False,116,1.15,69,[],[],"[(1087, 881)]",[],[1],[33],[0.55],"[640.0, 512.0]",vertical,"(390.0, 262.0)",[1.4333333333333333],[0.509],1,714.088
2,False,117,0.611,36,[],[],"[(1077, 885)]",[],[1],[35],[0.5833333333333334],"[640.0, 512.0]",horizontal,"(390.0, 262.0)",[1.2166666666666666],[0.547],1,719.492
2,False,118,0.897,53,[],[],"[(1044, 865)]",[],[1],[35],[0.5833333333333334],"[640.0, 512.0]",horizontal,"(890.0, 262.0)",[1.65],[0.538],1,724.32
2,False,119,0.64,38,[],[],"[(1073, 877)]",[],[1],[37],[0.6166666666666667],"[640.0, 512.0]",vertical,"(890.0, 762.0)",[0.5],[0.573],1,729.559
2,False,120,1.088,65,[],[],"[(1078, 891)]",[],[1],[34],[0.5666666666666667],"[640.0, 512.0]",vertical,"(390.0, 762.0)",[1.6833333333333333],[0.524],1,733.61
3,False,121,0.601,36,[],[],"[(1076, 873)]",[],[1],[37],[0.6166666666666667],"[640.0, 512.0]",horizontal,"(890.0, 262.0)",[0.9],[0.57],1,739.137
3,False,122,0.999,59,[],[],"[(1063, 869)]",[],[1],[35],[0.5833333333333334],"[640.0, 512.0]",horizontal,"(390.0, 262.0)",[0.65],[0.539],1,743.452
3,False,123,0.624,37,[],[],"[(1050, 879)]",[],[1],[33],[0.55],"[640.0, 512.0]",horizontal,"(890.0, 262.0)",[1.3333333333333333],[0.514],1,747.769
3,False,124,0.63,37,[],[],"[(1063, 882)]",[],[1],[51],[0.85],"[640.0, 512.0]",vertical,"(890.0, 262.0)",[0.5666666666666667],[0.804],0,752.522
3,False,125,0.522,31,[],[],"[(1136, 853)]",[],[1],[34],[0.5666666666666667],"[640.0, 512.0]",vertical,"(890.0, 262.0)",[0.8666666666666667],[0.528],1,756.829
3,False,126,0.549,32,[],[],"[(1087, 847)]",[],[1],[38],[0.6333333333333333],"[640.0, 512.0]",horizontal,"(890.0, 762.0)",[1.1333333333333333],[0.588],1,764.108
3,False,127,0.913,54,[],[],"[(1079, 885)]",[],[1],[37],[0.6166666666666667],"[640.0, 512.0]",horizontal,"(890.0, 762.0)",[1.3],[0.572],1,768.682
3,False,128,0.669,40,[],[],"[(1076, 876)]",[],[1],[36],[0.6],"[640.0, 512.0]",horizontal,"(390.0, 762.0)",[0.6833333333333333],[0.563],1,773.622
3,False,129,1.151,69,[],[],"[(1053, 863)]",[],[1],[38],[0.6333333333333333],"[640.0, 512.0]",horizontal,"(390.0, 762.0)",[0.9166666666666666],[0.594],1,777.726
3,False,130,0.853,51,[],[],"[(1076, 884)]",[],[1],[37],[0.6166666666666667],"[640.0, 512.0]",horizontal,"(890.0, 762.0)",[1.3833333333333333],[0.574],1,782.817
3,False,131,1.137,68,[],[],"[(1074, 872)]",[],[1],[35],[0.5833333333333334],"[640.0, 512.0]",vertical,"(890.0, 262.0)",[0.5666666666666667],[0.543],1,787.744
3,False,132,1.169,70,[],[],"[(1094, 881)]",[],[1],[37],[0.6166666666666667],"[640.0, 512.0]",horizontal,"(390.0, 762.0)",[0.5666666666666667],[0.574],1,792.192
3,False,133,1.121,67,[],[],"[(1054, 882)]",[],[1],[35],[0.5833333333333334],"[640.0, 512.0]",vertical,"(890.0, 262.0)",[1.4666666666666666],[0.535],1,796.672
3,False,134,0.863,51,[],[],"[(1072, 880)]",[],[1],[38],[0.6333333333333333],"[640.0, 512.0]",vertical,"(890.0, 762.0)",[0.7833333333333333],[0.589],1,802.039
3,False,135,0.595,35,[],[],"[(1079, 872)]",[],[1],[35],[0.5833333333333334],"[640.0, 512.0]",vertical,"(890.0, 262.0)",[0.8],[0.544],1,806.343
3,False,136,1.104,66,[],[],"[(1074, 877)]",[],[1],[45],[0.75],"[640.0, 512.0]",vertical,"(890.0, 262.0)",[1.5166666666666666],[0.706],1,810.603
3,False,137,0.86,51,[],[],"[(1081, 880)]",[],[1],[38],[0.6333333333333333],"[640.0, 512.0]",horizontal,"(890.0, 262.0)",[0.6],[0.597],1,816.087
3,False,138,0.832,49,[],[],"[(1074, 886)]",[],[1],[37],[0.6166666666666667],"[640.0, 512.0]",horizontal,"(390.0, 762.0)",[1.6333333333333333],[0.573],1,820.366
3,False,139,1.012,60,[],[],"[(1074, 880)]",[],[1],[35],[0.5833333333333334],"[640.0, 512.0]",horizontal,"(890.0, 762.0)",[1.1666666666666667],[0.542],1,825.497
3,False,140,1.064,63,[],[],"[(1075, 875)]",[],[1],[40],[0.6666666666666666],"[640.0, 512.0]",vertical,"(390.0, 762.0)",[1.05],[0.621],1,830.309
3,False,141,0.612,36,[],[],"[(1087, 884)]",[],[1],[35],[0.5833333333333334],"[640.0, 512.0]",horizontal,"(390.0, 262.0)",[1.6333333333333333],[0.548],1,835.339
3,False,142,0.582,34,[],[],"[(1072, 871)]",[],[1],[35],[0.5833333333333334],"[640.0, 512.0]",vertical,"(890.0, 762.0)",[1.5333333333333332],[0.541],1,840.394
3,False,143,0.883,52,[],[],"[(1074, 875)]",[],[1],[40],[0.6666666666666666],"[640.0, 512.0]",vertical,"(390.0, 762.0)",[0.8],[0.62],1,845.392
3,False,144,0.502,30,[],[],"[(1085, 870)]",[],[1],[38],[0.6333333333333333],"[640.0, 512.0]",vertical,"(390.0, 262.0)",[1.3166666666666667],[0.595],1,850.077
3,False,145,0.941,56,[],[],"[(1070, 894)]",[],[1],[37],[0.6166666666666667],"[640.0, 512.0]",horizontal,"(890.0, 262.0)",[1.0666666666666667],[0.578],1,854.953
3,False,146,1.005,60,[],[],"[(1083, 875)]",[],[1],[36],[0.6],"[640.0, 512.0]",horizontal,"(390.0, 762.0)",[1.6166666666666667],[0.561],1,859.806
3,False,147,1.029,61,[],[],"[(1053, 864)]",[],[1],[43],[0.7166666666666667],"[640.0, 512.0]",horizontal,"(890.0, 762.0)",[1.3666666666666667],[0.672],1,865.134
3,False,148,0.66,39,[],[],"[(1053, 887)]",[],[1],[37],[0.6166666666666667],"[640.0, 512.0]",horizontal,"(390.0, 262.0)",[1.1666666666666667],[0.582],1,870.553
3,False,149,1.188,71,[],[],"[(1039, 875)]",[],[1],[38],[0.6333333333333333],"[640.0, 512.0]",vertical,"(390.0, 262.0)",[1.2333333333333334],[0.589],1,875.227
3,False,150,0.883,52,[],[],"[(1068, 863)]",[],[1],[45],[0.75],"[640.0, 512.0]",horizontal,"(890.0, 762.0)",[1.45],[0.703],1,880.505
3,False,151,1.026,61,[],[],"[(1075, 886)]",[],[1],[47],[0.7833333333333333],"[640.0, 512.0]",vertical,"(890.0, 262.0)",[0.7666666666666666],[0.731],1,885.754
3,False,152,0.617,37,[],[],"[(1063, 869)]",[],[1],[51],[0.85],"[640.0, 512.0]",horizontal,"(390.0, 262.0)",[0.65],[0.798],0,890.742
3,False,153,1.173,70,[],[],"[(1107, 872)]",[],[1],[50],[0.8333333333333334],"[640.0, 512.0]",horizontal,"(390.0, 262.0)",[0.9],[0.791],1,895.226
3,False,154,0.839,50,[],[],"[(1072, 866)]",[],[1],[39],[0.65],"[640.0, 512.0]",vertical,"(890.0, 262.0)",[1.0333333333333332],[0.605],1,909.376
3,False,155,1.145,68,[],[],"[(1074, 883)]",[],[1],[36],[0.6],"[640.0, 512.0]",vertical,"(890.0, 262.0)",[1.5166666666666666],[0.563],1,914.069
3,False,156,0.852,51,[],[],"[(1036, 870)]",[],[1],[36],[0.6],"[640.0, 512.0]",vertical,"(390.0, 262.0)",[1.3],[0.554],1,919.476
3,False,157,0.591,35,[],[],"[(1047, 875)]",[],[1],[36],[0.6],"[640.0, 512.0]",vertical,"(890.0, 762.0)",[0.95],[0.558],1,924.624
3,False,158,0.889,53,[],[],"[(1055, 880)]",[],[1],[51],[0.85],"[640.0, 512.0]",vertical,"(890.0, 262.0)",[0.95],[0.805],0,928.823
3,False,159,1.011,60,[],[],"[(1099, 882)]",[],[1],[36],[0.6],"[640.0, 512.0]",horizontal,"(890.0, 262.0)",[1.1166666666666667],[0.557],1,933.597
3,False,160,0.594,35,[],[],"[(1068, 893)]",[],[1],[34],[0.5666666666666667],"[640.0, 512.0]",horizontal,"(390.0, 262.0)",[1.2],[0.527],1,938.438
3,False,161,0.83,49,[],[],"[(1036, 885)]",[],[1],[34],[0.5666666666666667],"[640.0, 512.0]",horizontal,"(890.0, 762.0)",[0.6333333333333333],[0.527],1,943.021
3,False,162,0.854,51,[],[],"[(1056, 885)]",[],[1],[35],[0.5833333333333334],"[640.0, 512.0]",vertical,"(890.0, 762.0)",[0.9],[0.54],1,947.352
3,False,163,0.753,45,[],[],"[(1123, 859)]",[],[1],[40],[0.6666666666666666],"[640.0, 512.0]",horizontal,"(390.0, 262.0)",[1.25],[0.623],1,951.944
3,False,164,1.004,60,[],[],"[(1072, 892)]",[],[1],[35],[0.5833333333333334],"[640.0, 512.0]",vertical,"(890.0, 262.0)",[0.7833333333333333],[0.541],1,964.325
3,False,165,0.739,44,[],[],"[(1058, 886)]",[],[1],[35],[0.5833333333333334],"[640.0, 512.0]",horizontal,"(890.0, 762.0)",[0.95],[0.533],1,968.942
3,False,166,0.787,47,[],[],"[(1076, 881)]",[],[1],[37],[0.6166666666666667],"[640.0, 512.0]",vertical,"(890.0, 762.0)",[1.0],[0.573],1,973.283
3,False,167,1.113,66,[],[],"[(1032, 887)]",[],[1],[36],[0.6],"[640.0, 512.0]",horizontal,"(890.0, 762.0)",[1.35],[0.557],1,977.98
3,False,168,0.74,44,[],[],"[(1074, 883)]",[],[1],[36],[0.6],"[640.0, 512.0]",horizontal,"(890.0, 762.0)",[0.9166666666666666],[0.555],1,983.456
3,False,169,0.578,34,[],[],"[(1068, 893)]",[],[1],[38],[0.6333333333333333],"[640.0, 512.0]",horizontal,"(390.0, 762.0)",[0.6833333333333333],[0.581],1,987.702
3,False,170,1.153,69,[],[],"[(1045, 877)]",[],[1],[43],[0.7166666666666667],"[640.0, 512.0]",vertical,"(890.0, 762.0)",[1.6666666666666667],[0.668],1,991.902
3,False,171,1.07,64,[],[],"[(1034, 872)]",[],[1],[39],[0.65],"[640.0, 512.0]",horizontal,"(390.0, 762.0)",[1.7],[0.606],1,997.617
3,False,172,1.133,67,[],[],"[(1052, 874)]",[],[1],[],[],"[640.0, 512.0]",horizontal,"(890.0, 762.0)",[],[0],0,1003.246
3,False,173,1.088,65,[],[],"[(1070, 868)]",[],[1],[34],[0.5666666666666667],"[640.0, 512.0]",horizontal,"(890.0, 262.0)",[1.5],[0.519],1,1006.819
3,False,174,0.817,49,[],[],"[(1053, 872)]",[],[1],[34],[0.5666666666666667],"[640.0, 512.0]",horizontal,"(890.0, 762.0)",[0.5],[0.526],1,1012.145
3,False,175,1.059,63,[],[],"[(1050, 882)]",[],[1],[38],[0.6333333333333333],"[640.0, 512.0]",horizontal,"(890.0, 762.0)",[1.45],[0.593],1,1016.118
3,False,176,0.842,50,[],[],"[(1065, 864)]",[],[1],[37],[0.6166666666666667],"[640.0, 512.0]",horizontal,"(390.0, 762.0)",[0.6833333333333333],[0.573],1,1021.592
3,False,177,0.746,44,[],[],"[(1089, 873)]",[],[1],[45],[0.75],"[640.0, 512.0]",vertical,"(390.0, 262.0)",[1.0666666666666667],[0.703],1,1025.894
3,False,178,0.937,56,[],[],"[(1087, 874)]",[],[1],[39],[0.65],"[640.0, 512.0]",horizontal,"(390.0, 262.0)",[1.5166666666666666],[0.622],1,1030.636
3,False,179,1.198,71,[],[],"[(1089, 870)]",[],[1],[39],[0.65],"[640.0, 512.0]",horizontal,"(890.0, 762.0)",[1.3],[0.604],1,1036.025
3,False,180,0.965,57,[],[],"[(1072, 885)]",[],[1],[45],[0.75],"[640.0, 512.0]",vertical,"(390.0, 262.0)",[1.3],[0.709],1,1041.266
4,False,181,0.596,35,[],[],"[(1068, 881)]",[],[1],[35],[0.5833333333333334],"[640.0, 512.0]",vertical,"(390.0, 262.0)",[0.9],[0.543],1,1046.543
4,False,182,0.669,40,[],[],"[(1106, 884)]",[],[1],[46],[0.7666666666666666],"[640.0, 512.0]",horizontal,"(890.0, 262.0)",[0.95],[0.719],1,1050.936
4,False,183,0.609,36,[],[],"[(1107, 889)]",[],[1],[36],[0.6],"[640.0, 512.0]",horizontal,"(390.0, 262.0)",[1.35],[0.565],1,1055.509
4,False,184,1.09,65,[],[],"[(1081, 863)]",[],[1],[42],[0.7],"[640.0, 512.0]",vertical,"(890.0, 262.0)",[0.6333333333333333],[0.653],1,1060.334
4,False,185,1.168,70,[],[],"[(1051, 889)]",[],[1],[41],[0.6833333333333333],"[640.0, 512.0]",vertical,"(390.0, 762.0)",[0.7166666666666667],[0.637],1,1064.805
4,False,186,1.005,60,[],[],"[(1069, 890)]",[],[1],[38],[0.6333333333333333],"[640.0, 512.0]",vertical,"(390.0, 762.0)",[0.7666666666666666],[0.581],1,1069.426
4,False,187,1.19,71,[],[],"[(1091, 870)]",[],[1],[43],[0.7166666666666667],"[640.0, 512.0]",horizontal,"(890.0, 762.0)",[1.1166666666666667],[0.674],1,1074.043
4,False,188,0.517,31,[],[],"[(1075, 870)]",[],[1],[37],[0.6166666666666667],"[640.0, 512.0]",horizontal,"(890.0, 262.0)",[1.4833333333333334],[0.573],1,1079.441
4,False,189,0.657,39,[],[],"[(1101, 877)]",[],[1],[38],[0.6333333333333333],"[640.0, 512.0]",vertical,"(390.0, 262.0)",[0.6],[0.585],1,1084.208
4,False,190,1.063,63,[],[],"[(1078, 875)]",[],[1],[33],[0.55],"[640.0, 512.0]",horizontal,"(890.0, 262.0)",[1.1],[0.509],1,1088.472
4,False,191,0.596,35,[],[],"[(1074, 887)]",[],[1],[37],[0.6166666666666667],"[640.0, 512.0]",horizontal,"(890.0, 762.0)",[1.4833333333333334],[0.574],1,1093.258
4,False,192,0.6,36,[],[],"[(1056, 867)]",[],[1],[30],[0.5],"[640.0, 512.0]",vertical,"(890.0, 262.0)",[1.6166666666666667],[0.46],1,1098.249
4,False,193,0.545,32,[],[],"[(1054, 878)]",[],[1],[51],[0.85],"[640.0, 512.0]",horizontal,"(890.0, 262.0)",[1.0166666666666666],[0.801],0,1102.993
4,False,194,0.866,51,[],[],"[(1142, 892)]",[],[1],[34],[0.5666666666666667],"[640.0, 512.0]",vertical,"(890.0, 262.0)",[1.6333333333333333],[0.526],1,1107.842
4,False,195,0.674,40,[],[],"[(1087, 870)]",[],[1],[36],[0.6],"[640.0, 512.0]",horizontal,"(890.0, 262.0)",[1.2],[0.557],1,1145.674
4,False,196,0.658,39,[],[],"[(1030, 885)]",[],[1],[36],[0.6],"[640.0, 512.0]",horizontal,"(890.0, 262.0)",[1.0166666666666666],[0.561],1,1150.31
4,False,197,1.152,69,[],[],"[(1013, 875), (1099, 874)]",[],"[0, 1]",[38],[0.6333333333333333],"[640.0, 512.0]",vertical,"(890.0, 762.0)",[0.6666666666666666],[0.594],1,1154.92
4,False,198,1.011,60,[],[],"[(1051, 863)]",[],[1],[37],[0.6166666666666667],"[640.0, 512.0]",horizontal,"(390.0, 762.0)",[0.9666666666666667],[0.575],1,1161.839
4,False,199,0.736,44,[],[],"[(1034, 882)]",[],[1],[36],[0.6],"[640.0, 512.0]",horizontal,"(390.0, 262.0)",[1.2333333333333334],[0.558],1,1166.626
4,False,200,0.679,40,[],[],"[(1050, 876)]",[],[1],[35],[0.5833333333333334],"[640.0, 512.0]",vertical,"(890.0, 262.0)",[0.7833333333333333],[0.539],1,1171.638
4,False,201,0.61,36,[],[],"[(1050, 888)]",[],[1],[38],[0.6333333333333333],"[640.0, 512.0]",vertical,"(390.0, 262.0)",[1.1333333333333333],[0.587],1,1175.908
4,False,202,1.098,65,[],[],"[(1015, 873), (1090, 873)]",[],"[0, 1]",[51],[0.85],"[640.0, 512.0]",horizontal,"(890.0, 262.0)",[0.6666666666666666],[0.803],0,1180.36
4,False,203,0.679,40,[],[],"[(1127, 850)]",[],[1],[51],[0.85],"[640.0, 512.0]",vertical,"(390.0, 262.0)",[1.3833333333333333],[0.802],0,1187.494
4,False,204,0.768,46,[],[],"[(1111, 844)]",[],[1],[37],[0.6166666666666667],"[640.0, 512.0]",horizontal,"(390.0, 262.0)",[0.6166666666666667],[0.573],1,1204.643
4,False,205,0.501,30,[],[],"[(1063, 870)]",[],[1],[43],[0.7166666666666667],"[640.0, 512.0]",vertical,"(890.0, 762.0)",[1.35],[0.673],1,1208.87
4,False,206,0.95,57,[],[],"[(1081, 880)]",[],[1],[50],[0.8333333333333334],"[640.0, 512.0]",horizontal,"(390.0, 262.0)",[1.0666666666666667],[0.788],1,1213.473
4,False,207,0.69,41,[],[],"[(1054, 880)]",[],[1],[35],[0.5833333333333334],"[640.0, 512.0]",horizontal,"(390.0, 262.0)",[1.1],[0.539],1,1218.542
4,False,208,0.936,56,[],[],"[(1063, 865)]",[],[1],[38],[0.6333333333333333],"[640.0, 512.0]",horizontal,"(890.0, 762.0)",[0.6666666666666666],[0.585],1,1223.239
4,False,209,1.105,66,[],[],"[(1036, 891)]",[],[1],[37],[0.6166666666666667],"[640.0, 512.0]",horizontal,"(390.0, 762.0)",[0.7666666666666666],[0.571],1,1227.704
4,False,210,0.621,37,[],[],"[(1032, 889)]",[],[1],[37],[0.6166666666666667],"[640.0, 512.0]",vertical,"(890.0, 262.0)",[0.7],[0.57],1,1232.438
4,False,211,0.656,39,[],[],"[(1030, 903)]",[],[1],[47],[0.7833333333333333],"[640.0, 512.0]",vertical,"(390.0, 262.0)",[0.5833333333333334],[0.735],1,1236.681
4,False,212,1.038,62,[],[],"[(1050, 892)]",[],[1],[34],[0.5666666666666667],"[640.0, 512.0]",vertical,"(390.0, 762.0)",[1.4666666666666666],[0.526],1,1241.206
4,False,213,1.063,63,[],[],"[(1053, 881)]",[],[1],[16],[0.26666666666666666],"[640.0, 512.0]",horizontal,"(890.0, 262.0)",[1.3666666666666667],[0.232],1,1246.439
4,False,214,0.865,51,[],[],"[(1048, 880)]",[],[1],[18],[0.3],"[640.0, 512.0]",vertical,"(390.0, 262.0)",[1.6833333333333333],[0.268],1,1251.344
4,False,215,0.626,37,[],[],"[(1102, 887)]",[],[1],[51],[0.85],"[640.0, 512.0]",vertical,"(390.0, 262.0)",[0.65],[0.808],0,1256.506
4,False,216,1.082,64,[],[],"[(1114, 899)]",[],[1],[51],[0.85],"[640.0, 512.0]",horizontal,"(390.0, 762.0)",[1.2666666666666666],[0.8],0,1260.829
4,False,217,0.523,31,[],[],"[(1086, 870)]",[],[1],[36],[0.6],"[640.0, 512.0]",horizontal,"(890.0, 762.0)",[1.3333333333333333],[0.561],1,1266.244
4,False,218,1.107,66,[],[],"[(1097, 872)]",[],[1],[42],[0.7],"[640.0, 512.0]",vertical,"(890.0, 762.0)",[1.65],[0.664],1,1270.846
4,False,219,0.591,35,[],[],"[(1049, 892)]",[],[1],[33],[0.55],"[640.0, 512.0]",vertical,"(890.0, 762.0)",[0.5333333333333333],[0.513],1,1276.493
4,False,220,0.972,58,[],[],"[(1074, 881)]",[],[1],[51],[0.85],"[640.0, 512.0]",horizontal,"(890.0, 262.0)",[0.65],[0.799],0,1280.471
4,False,221,0.681,40,[],[],"[(1098, 871)]",[],[1],[38],[0.6333333333333333],"[640.0, 512.0]",horizontal,"(390.0, 762.0)",[0.5],[0.588],1,1285.116
4,False,222,1.094,65,[],[],"[(1076, 873)]",[],[1],[44],[0.7333333333333333],"[640.0, 512.0]",vertical,"(890.0, 262.0)",[0.9166666666666666],[0.689],1,1289.343
4,False,223,0.594,35,[],[],"[(1074, 894)]",[],[1],[35],[0.5833333333333334],"[640.0, 512.0]",vertical,"(390.0, 762.0)",[1.15],[0.541],1,1294.421
4,False,224,0.604,36,[],[],"[(1058, 899)]",[],[1],[38],[0.6333333333333333],"[640.0, 512.0]",horizontal,"(890.0, 262.0)",[0.8],[0.589],1,1298.933
4,False,225,0.793,47,[],[],"[(1044, 894)]",[],[1],[34],[0.5666666666666667],"[640.0, 512.0]",horizontal,"(390.0, 262.0)",[1.4333333333333333],[0.524],1,1303.144
4,False,226,1.041,62,[],[],"[(1051, 885)]",[],[1],[36],[0.6],"[640.0, 512.0]",horizontal,"(890.0, 262.0)",[1.0],[0.555],1,1308.176
4,False,227,0.751,45,[],[],"[(1043, 884)]",[],[1],[38],[0.6333333333333333],"[640.0, 512.0]",vertical,"(390.0, 762.0)",[0.6833333333333333],[0.587],1,1312.953
4,False,228,1.01,60,[],[],"[(1063, 884)]",[],[1],[34],[0.5666666666666667],"[640.0, 512.0]",vertical,"(390.0, 762.0)",[1.1],[0.524],1,1317.135
4,False,229,0.976,58,[],[],"[(1044, 884)]",[],[1],[35],[0.5833333333333334],"[640.0, 512.0]",horizontal,"(890.0, 262.0)",[1.6833333333333333],[0.542],1,1321.91
4,False,230,0.675,40,[],[],"[(1061, 890)]",[],[1],[40],[0.6666666666666666],"[640.0, 512.0]",horizontal,"(890.0, 262.0)",[1.25],[0.621],1,1327.187
4,False,231,0.931,55,[],[],"[(1056, 875)]",[],[1],[38],[0.6333333333333333],"[640.0, 512.0]",horizontal,"(890.0, 762.0)",[1.0],[0.592],1,1331.885
4,False,232,0.686,41,[],[],"[(1026, 882), (1090, 851)]",[],"[0, 1]",[45],[0.75],"[640.0, 512.0]",vertical,"(890.0, 762.0)",[1.2833333333333332],[0.707],1,1336.639
4,False,233,1.158,69,[],[],"[(1164, 869)]",[],[1],[38],[0.6333333333333333],"[640.0, 512.0]",horizontal,"(890.0, 762.0)",[0.9833333333333333],[0.586],1,1344.259
4,False,234,0.996,59,[],[],"[(1082, 851)]",[],[1],[35],[0.5833333333333334],"[640.0, 512.0]",horizontal,"(890.0, 262.0)",[0.8166666666666667],[0.546],1,1360.527
4,False,235,0.999,59,[],[],"[(1040, 873)]",[],[1],[33],[0.55],"[640.0, 512.0]",horizontal,"(890.0, 262.0)",[1.6166666666666667],[0.51],1,1365.291
4,False,236,0.912,54,[],[],"[(1056, 884)]",[],[1],[39],[0.65],"[640.0, 512.0]",horizontal,"(390.0, 262.0)",[0.5166666666666666],[0.607],1,1370.456
4,False,237,0.976,58,[],[],"[(1056, 861)]",[],[1],[34],[0.5666666666666667],"[640.0, 512.0]",horizontal,"(890.0, 262.0)",[1.35],[0.527],1,1374.689
4,False,238,0.865,51,[],[],"[(1043, 869)]",[],[1],[34],[0.5666666666666667],"[640.0, 512.0]",vertical,"(390.0, 762.0)",[1.5],[0.525],1,1379.74
4,False,239,0.692,41,[],[],"[(1094, 885)]",[],[1],[35],[0.5833333333333334],"[640.0, 512.0]",horizontal,"(890.0, 762.0)",[1.4],[0.542],1,1385.039
4,False,240,0.566,33,[],[],"[(1068, 899)]",[],[1],[41],[0.6833333333333333],"[640.0, 512.0]",vertical,"(890.0, 762.0)",[0.9833333333333333],[0.646],1,1390.144
5,False,241,0.875,52,[],[],"[(1081, 892)]",[],[1],[51],[0.85],"[640.0, 512.0]",vertical,"(390.0, 762.0)",[1.2333333333333334],[0.807],0,1394.803
5,False,242,0.531,31,[],[],"[(1096, 870)]",[],[1],[32],[0.5333333333333333],"[640.0, 512.0]",horizontal,"(390.0, 262.0)",[1.5],[0.494],1,1399.877
5,False,243,0.612,36,[],[],"[(1067, 881)]",[],[1],[13],[0.21666666666666667],"[640.0, 512.0]",horizontal,"(890.0, 262.0)",[1.45],[0.184],1,1404.71
5,False,244,1.137,68,[],[],"[(1068, 885)]",[],[1],[4],[0.06666666666666667],"[640.0, 512.0]",horizontal,"(890.0, 262.0)",[1.5833333333333333],[0.036],1,1409.375
5,False,245,1.071,64,[],[],"[(1067, 905)]",[],[1],[48],[0.8],"[640.0, 512.0]",vertical,"(890.0, 262.0)",[0.9666666666666667],[0.751],1,1414.507
5,False,246,1.142,68,[],[],"[(1054, 873)]",[],[1],[36],[0.6],"[640.0, 512.0]",vertical,"(390.0, 762.0)",[0.8],[0.556],1,1419.404
5,False,247,0.844,50,[],[],"[(1052, 886)]",[],[1],[35],[0.5833333333333334],"[640.0, 512.0]",horizontal,"(390.0, 762.0)",[0.6666666666666666],[0.537],1,1424.22
5,False,248,0.824,49,[],[],"[(1056, 898)]",[],[1],[35],[0.5833333333333334],"[640.0, 512.0]",horizontal,"(390.0, 762.0)",[1.4833333333333334],[0.542],1,1428.387
5,False,249,0.66,39,[],[],"[(1052, 882)]",[],[1],[35],[0.5833333333333334],"[640.0, 512.0]",vertical,"(890.0, 762.0)",[0.8166666666666667],[0.541],1,1433.493
5,False,250,1.178,70,[],[],"[(1056, 866)]",[],[1],[35],[0.5833333333333334],"[640.0, 512.0]",horizontal,"(390.0, 262.0)",[1.1],[0.549],1,1437.791
5,False,251,0.783,46,[],[],"[(1063, 901)]",[],[1],[35],[0.5833333333333334],"[640.0, 512.0]",horizontal,"(890.0, 762.0)",[0.9166666666666666],[0.539],1,1442.796
5,False,252,0.823,49,[],[],"[(1068, 882)]",[],[1],[33],[0.55],"[640.0, 512.0]",vertical,"(390.0, 762.0)",[1.2666666666666666],[0.508],1,1447.291
5,False,253,0.538,32,[],[],"[(1068, 893)]",[],[1],[36],[0.6],"[640.0, 512.0]",horizontal,"(390.0, 762.0)",[0.5],[0.568],1,1452.192
5,False,254,0.783,46,[],[],"[(1062, 884)]",[],[1],[37],[0.6166666666666667],"[640.0, 512.0]",horizontal,"(390.0, 762.0)",[0.6666666666666666],[0.57],1,1456.083
5,False,255,0.771,46,[],[],"[(1059, 884)]",[],[1],[39],[0.65],"[640.0, 512.0]",horizontal,"(390.0, 262.0)",[1.0833333333333333],[0.604],1,1460.326
5,False,256,0.868,52,[],[],"[(1058, 885)]",[],[1],[35],[0.5833333333333334],"[640.0, 512.0]",vertical,"(890.0, 762.0)",[1.15],[0.545],1,1465.377
5,False,257,1.115,66,[],[],"[(1056, 876)]",[],[1],[51],[0.85],"[640.0, 512.0]",vertical,"(390.0, 762.0)",[0.6],[0.798],0,1470.582
5,False,258,1.066,63,[],[],"[(1093, 913)]",[],[1],[37],[0.6166666666666667],"[640.0, 512.0]",vertical,"(890.0, 762.0)",[1.35],[0.576],1,1475.262
5,False,259,0.652,39,[],[],"[(1074, 886)]",[],[1],[35],[0.5833333333333334],"[640.0, 512.0]",horizontal,"(390.0, 262.0)",[1.0833333333333333],[0.54],1,1481.765
5,False,260,1.046,62,[],[],"[(1063, 868)]",[],[1],[34],[0.5666666666666667],"[640.0, 512.0]",vertical,"(390.0, 762.0)",[1.4333333333333333],[0.535],1,1486.271
5,False,261,0.94,56,[],[],"[(1081, 876)]",[],[1],[33],[0.55],"[640.0, 512.0]",horizontal,"(890.0, 262.0)",[1.35],[0.51],1,1491.435
5,False,262,1.189,71,[],[],"[(1093, 866)]",[],[1],[39],[0.65],"[640.0, 512.0]",horizontal,"(890.0, 262.0)",[1.65],[0.605],1,1496.468
5,False,263,0.752,45,[],[],"[(1034, 882)]",[],[1],[35],[0.5833333333333334],"[640.0, 512.0]",horizontal,"(390.0, 762.0)",[1.2166666666666666],[0.549],1,1502.1
5,False,264,0.892,53,[],[],"[(1038, 855)]",[],[1],[38],[0.6333333333333333],"[640.0, 512.0]",horizontal,"(390.0, 262.0)",[0.9333333333333333],[0.597],1,1506.876
5,False,265,0.645,38,[],[],"[(1053, 889)]",[],[1],[37],[0.6166666666666667],"[640.0, 512.0]",horizontal,"(390.0, 262.0)",[0.6666666666666666],[0.59],1,1511.815
5,False,266,0.829,49,[],[],"[(1072, 871)]",[],[1],[36],[0.6],"[640.0, 512.0]",vertical,"(390.0, 262.0)",[1.4833333333333334],[0.561],1,1515.945
5,False,267,1.109,66,[],[],"[(1067, 885)]",[],[1],[35],[0.5833333333333334],"[640.0, 512.0]",vertical,"(390.0, 262.0)",[0.8],[0.545],1,1521.007
5,False,268,0.69,41,[],[],"[(1068, 890)]",[],[1],[37],[0.6166666666666667],"[640.0, 512.0]",vertical,"(390.0, 762.0)",[1.3166666666666667],[0.568],1,1525.744
5,False,269,1.199,71,[],[],"[(1074, 879)]",[],[1],[38],[0.6333333333333333],"[640.0, 512.0]",horizontal,"(390.0, 262.0)",[0.5833333333333334],[0.588],1,1530.461
5,False,270,0.856,51,[],[],"[(1061, 880)]",[],[1],[34],[0.5666666666666667],"[640.0, 512.0]",vertical,"(390.0, 762.0)",[1.0833333333333333],[0.531],1,1535.173
5,False,271,0.671,40,[],[],"[(1099, 868)]",[],[1],[33],[0.55],"[640.0, 512.0]",vertical,"(890.0, 262.0)",[0.8666666666666667],[0.512],1,1539.964
5,False,272,0.834,50,[],[],"[(1082, 892)]",[],[1],[48],[0.8],"[640.0, 512.0]",horizontal,"(890.0, 262.0)",[0.6833333333333333],[0.751],1,1544.352
5,False,273,0.598,35,[],[],"[(1074, 888)]",[],[1],[39],[0.65],"[640.0, 512.0]",vertical,"(890.0, 762.0)",[1.4166666666666667],[0.611],1,1548.947
5,False,274,1.074,64,[],[],"[(1080, 873)]",[],[1],[40],[0.6666666666666666],"[640.0, 512.0]",horizontal,"(890.0, 762.0)",[1.6333333333333333],[0.618],1,1553.716
5,False,275,0.574,34,[],[],"[(1061, 874)]",[],[1],[34],[0.5666666666666667],"[640.0, 512.0]",vertical,"(390.0, 262.0)",[1.1333333333333333],[0.522],1,1559.31
5,False,276,1.118,67,[],[],"[(1069, 871)]",[],[1],[40],[0.6666666666666666],"[640.0, 512.0]",horizontal,"(390.0, 262.0)",[0.6833333333333333],[0.625],1,1563.759
5,False,277,0.704,42,[],[],"[(1060, 854)]",[],[1],[36],[0.6],"[640.0, 512.0]",horizontal,"(390.0, 262.0)",[1.2666666666666666],[0.56],1,1568.51
5,False,278,0.669,40,[],[],"[(1079, 880)]",[],[1],[35],[0.5833333333333334],"[640.0, 512.0]",horizontal,"(890.0, 762.0)",[0.6333333333333333],[0.541],1,1573.196
5,False,279,0.966,57,[],[],"[(1053, 881)]",[],[1],[35],[0.5833333333333334],"[640.0, 512.0]",horizontal,"(890.0, 762.0)",[1.3166666666666667],[0.539],1,1577.226
5,False,280,1.154,69,[],[],"[(1080, 840)]",[],[1],[35],[0.5833333333333334],"[640.0, 512.0]",horizontal,"(890.0, 262.0)",[1.3333333333333333],[0.544],1,1582.21
5,False,281,1.171,70,[],[],"[(1063, 869)]",[],[1],[51],[0.85],"[640.0, 512.0]",vertical,"(390.0, 262.0)",[0.7166666666666667],[0.804],0,1587.404
5,False,282,0.732,43,[],[],"[(1153, 883)]",[],[1],[36],[0.6],"[640.0, 512.0]",horizontal,"(890.0, 762.0)",[0.9166666666666666],[0.559],1,1592.575
5,False,283,0.52,31,[],[],"[(1080, 888)]",[],[1],[35],[0.5833333333333334],"[640.0, 512.0]",vertical,"(890.0, 762.0)",[1.6333333333333333],[0.541],1,1597.059
5,False,284,0.547,32,[],[],"[(1106, 867)]",[],[1],[32],[0.5333333333333333],"[640.0, 512.0]",horizontal,"(890.0, 262.0)",[1.65],[0.494],1,1601.993
5,False,285,0.837,50,[],[],"[(1070, 874)]",[],[1],[33],[0.55],"[640.0, 512.0]",horizontal,"(390.0, 762.0)",[0.9333333333333333],[0.509],1,1606.909
5,False,286,1.044,62,[],[],"[(1056, 875)]",[],[1],[37],[0.6166666666666667],"[640.0, 512.0]",horizontal,"(390.0, 262.0)",[1.1333333333333333],[0.571],1,1611.628
5,False,287,0.682,40,[],[],"[(1072, 901)]",[],[1],[48],[0.8],"[640.0, 512.0]",vertical,"(390.0, 762.0)",[0.9166666666666666],[0.752],1,1616.49
5,False,288,0.578,34,[],[],"[(1172, 875)]",[],[1],[],[],"[640.0, 512.0]",horizontal,"(890.0, 262.0)",[],[0],0,1621.141
5,False,289,0.814,48,[],[],"[(1127, 852)]",[],[1],[47],[0.7833333333333333],"[640.0, 512.0]",horizontal,"(890.0, 262.0)",[1.0166666666666666],[0.735],1,1638.51
5,False,290,0.547,32,[],[],"[(1074, 834)]",[],[1],[44],[0.7333333333333333],"[640.0, 512.0]",vertical,"(890.0, 262.0)",[1.45],[0.687],1,1643.21
5,False,291,1.009,60,[],[],"[(1075, 876)]",[],[1],[36],[0.6],"[640.0, 512.0]",horizontal,"(890.0, 762.0)",[1.1166666666666667],[0.56],1,1647.987
5,False,292,1.063,63,[],[],"[(1063, 875)]",[],[1],[35],[0.5833333333333334],"[640.0, 512.0]",vertical,"(890.0, 762.0)",[1.5333333333333332],[0.544],1,1652.974
5,False,293,1.118,67,[],[],"[(1074, 876)]",[],[1],[36],[0.6],"[640.0, 512.0]",vertical,"(390.0, 762.0)",[0.7333333333333333],[0.559],1,1658.223
5,False,294,0.817,49,[],[],"[(1073, 875)]",[],[1],[37],[0.6166666666666667],"[640.0, 512.0]",horizontal,"(390.0, 762.0)",[1.1],[0.573],1,1662.991
5,False,295,1.159,69,[],[],"[(1047, 915)]",[],[1],[],[],"[640.0, 512.0]",vertical,"(890.0, 762.0)",[],[0],0,1667.622
5,False,296,0.768,46,[],[],"[(1123, 866)]",[],[1],[37],[0.6166666666666667],"[640.0, 512.0]",horizontal,"(890.0, 762.0)",[0.9],[0.572],1,1671.455
5,False,297,1.032,61,[],[],"[(1068, 885)]",[],[1],[34],[0.5666666666666667],"[640.0, 512.0]",horizontal,"(390.0, 762.0)",[1.2333333333333334],[0.524],1,1698.227
5,False,298,0.843,50,[],[],"[(1093, 857)]",[],[1],[36],[0.6],"[640.0, 512.0]",vertical,"(390.0, 262.0)",[1.2666666666666666],[0.554],1,1703.292
5,False,299,1.107,66,[],[],"[(1099, 862)]",[],[1],[34],[0.5666666666666667],"[640.0, 512.0]",vertical,"(890.0, 262.0)",[0.5333333333333333],[0.527],1,1708.318
5,False,300,0.791,47,[],[],"[(1117, 862)]",[],[1],[39],[0.65],"[640.0, 512.0]",horizontal,"(390.0, 262.0)",[1.0666666666666667],[0.603],1,1712.875
6,False,301,0.884,53,[],[],"[(1050, 884)]",[],[1],[38],[0.6333333333333333],"[640.0, 512.0]",vertical,"(890.0, 762.0)",[1.0333333333333332],[0.586],1,1717.665
6,False,302,1.199,71,[],[],"[(1072, 873)]",[],[1],[40],[0.6666666666666666],"[640.0, 512.0]",horizontal,"(390.0, 762.0)",[0.6333333333333333],[0.623],1,1722.254
6,False,303,1.101,66,[],[],"[(1080, 887)]",[],[1],[33],[0.55],"[640.0, 512.0]",vertical,"(890.0, 262.0)",[0.5],[0.517],1,1726.989
6,False,304,0.685,41,[],[],"[(1071, 862)]",[],[1],[35],[0.5833333333333334],"[640.0, 512.0]",vertical,"(390.0, 762.0)",[0.8166666666666667],[0.544],1,1731.478
6,False,305,0.622,37,[],[],"[(1063, 871)]",[],[1],[35],[0.5833333333333334],"[640.0, 512.0]",vertical,"(390.0, 762.0)",[1.2333333333333334],[0.541],1,1735.837
6,False,306,1.046,62,[],[],"[(1057, 900)]",[],[1],[36],[0.6],"[640.0, 512.0]",horizontal,"(390.0, 262.0)",[1.0333333333333332],[0.555],1,1740.593
6,False,307,0.749,44,[],[],"[(1094, 872)]",[],[1],[34],[0.5666666666666667],"[640.0, 512.0]",vertical,"(890.0, 262.0)",[0.6333333333333333],[0.525],1,1745.288
6,False,308,0.786,47,[],[],"[(1078, 879)]",[],[1],[33],[0.55],"[640.0, 512.0]",horizontal,"(890.0, 262.0)",[1.5333333333333332],[0.513],1,1749.491
6,False,309,0.911,54,[],[],"[(1080, 878)]",[],[1],[38],[0.6333333333333333],"[640.0, 512.0]",horizontal,"(890.0, 762.0)",[0.6],[0.591],1,1754.654
6,False,310,1.173,70,[],[],"[(1056, 863)]",[],[1],[42],[0.7],"[640.0, 512.0]",horizontal,"(390.0, 762.0)",[1.4166666666666667],[0.649],1,1758.863
6,False,311,0.826,49,[],[],"[(1038, 863)]",[],[1],[36],[0.6],"[640.0, 512.0]",horizontal,"(890.0, 262.0)",[0.8],[0.557],1,1764.357
6,False,312,0.724,43,[],[],"[(1074, 875)]",[],[1],[37],[0.6166666666666667],"[640.0, 512.0]",vertical,"(390.0, 762.0)",[0.5166666666666666],[0.577],1,1768.801
6,False,313,1.119,67,[],[],"[(1043, 884)]",[],[1],[35],[0.5833333333333334],"[640.0, 512.0]",horizontal,"(390.0, 262.0)",[1.3],[0.548],1,1772.847
6,False,314,0.575,34,[],[],"[(1038, 879)]",[],[1],[38],[0.6333333333333333],"[640.0, 512.0]",horizontal,"(390.0, 762.0)",[1.4333333333333333],[0.592],1,1778.231
6,False,315,1.177,70,[],[],"[(1032, 855)]",[],[1],[35],[0.5833333333333334],"[640.0, 512.0]",vertical,"(890.0, 762.0)",[1.0166666666666666],[0.544],1,1783.154
6,False,316,0.683,40,[],[],"[(1040, 877)]",[],[1],[32],[0.5333333333333333],"[640.0, 512.0]",vertical,"(390.0, 262.0)",[1.65],[0.495],1,1788.329
6,False,317,0.907,54,[],[],"[(1050, 884)]",[],[1],[51],[0.85],"[640.0, 512.0]",vertical,"(390.0, 262.0)",[0.6166666666666667],[0.805],0,1793.404
6,False,318,1.092,65,[],[],"[(1100, 876)]",[],[1],[45],[0.75],"[640.0, 512.0]",vertical,"(890.0, 262.0)",[0.8833333333333333],[0.707],1,1797.927
6,False,319,0.893,53,[],[],"[(1032, 888)]",[],[1],[35],[0.5833333333333334],"[640.0, 512.0]",horizontal,"(890.0, 262.0)",[0.65],[0.549],1,1803.544
6,False,320,1.133,67,[],[],"[(1069, 874)]",[],[1],[41],[0.6833333333333333],"[640.0, 512.0]",vertical,"(890.0, 262.0)",[1.0666666666666667],[0.64],1,1807.804
6,False,321,0.71,42,[],[],"[(1064, 846)]",[],[1],[37],[0.6166666666666667],"[640.0, 512.0]",horizontal,"(390.0, 762.0)",[0.5333333333333333],[0.578],1,1812.862
6,False,322,0.534,32,[],[],"[(1033, 863)]",[],[1],[38],[0.6333333333333333],"[640.0, 512.0]",vertical,"(390.0, 262.0)",[0.5833333333333334],[0.588],1,1817.879
6,False,323,0.998,59,[],[],"[(1036, 870)]",[],[1],[38],[0.6333333333333333],"[640.0, 512.0]",vertical,"(890.0, 262.0)",[0.7],[0.591],1,1821.952
6,False,324,1.031,61,[],[],"[(1056, 884)]",[],[1],[34],[0.5666666666666667],"[640.0, 512.0]",vertical,"(890.0, 762.0)",[1.1333333333333333],[0.531],1,1826.632
6,False,325,0.879,52,[],[],"[(1050, 860)]",[],[1],[35],[0.5833333333333334],"[640.0, 512.0]",horizontal,"(890.0, 262.0)",[1.1333333333333333],[0.544],1,1831.49
6,False,326,0.758,45,[],[],"[(1070, 894)]",[],[1],[36],[0.6],"[640.0, 512.0]",vertical,"(390.0, 762.0)",[0.6],[0.562],1,1836.452
6,False,327,1.011,60,[],[],"[(1049, 875)]",[],[1],[38],[0.6333333333333333],"[640.0, 512.0]",horizontal,"(390.0, 262.0)",[0.9833333333333333],[0.591],1,1840.535
6,False,328,0.926,55,[],[],"[(1077, 880)]",[],[1],[33],[0.55],"[640.0, 512.0]",vertical,"(390.0, 762.0)",[0.7],[0.507],1,1845.243
6,False,329,0.856,51,[],[],"[(1033, 870)]",[],[1],[51],[0.85],"[640.0, 512.0]",horizontal,"(390.0, 262.0)",[1.2],[0.808],0,1849.607
6,False,330,0.937,56,[],[],"[(1120, 867)]",[],[1],"[51, 51]","[0.85, 0.85]","[640.0, 512.0]",vertical,"(890.0, 262.0)",[1.1],"[0.803, 0.803]",0,1855.771
6,False,331,0.566,33,[],[],"[(1117, 859)]",[],[1],[42],[0.7],"[640.0, 512.0]",horizontal,"(890.0, 762.0)",[1.1166666666666667],[0.657],1,1860.857
6,False,332,0.808,48,[],[],"[(1087, 857)]",[],[1],[38],[0.6333333333333333],"[640.0, 512.0]",vertical,"(890.0, 262.0)",[0.5],[0.586],1,1865.472
6,False,333,0.783,46,[],[],"[(1069, 877)]",[],[1],[34],[0.5666666666666667],"[640.0, 512.0]",horizontal,"(390.0, 762.0)",[1.6166666666666667],[0.52],1,1869.556
6,False,334,0.745,44,[],[],"[(1081, 878)]",[],[1],[36],[0.6],"[640.0, 512.0]",vertical,"(390.0, 762.0)",[0.8666666666666667],[0.563],1,1874.637
6,False,335,0.621,37,[],[],"[(1072, 889)]",[],[1],[38],[0.6333333333333333],"[640.0, 512.0]",vertical,"(390.0, 262.0)",[0.6],[0.585],1,1879.078
6,False,336,1.028,61,[],[],"[(1072, 893)]",[],[1],[36],[0.6],"[640.0, 512.0]",vertical,"(390.0, 762.0)",[1.3],[0.557],1,1883.025
6,False,337,0.7,42,[],[],"[(1080, 870)]",[],[1],[35],[0.5833333333333334],"[640.0, 512.0]",vertical,"(890.0, 262.0)",[1.1166666666666667],[0.538],1,1888.159
6,False,338,0.708,42,[],[],"[(1044, 889)]",[],[1],[33],[0.55],"[640.0, 512.0]",vertical,"(390.0, 762.0)",[1.2833333333333332],[0.506],1,1892.709
6,False,339,0.938,56,[],[],"[(1184, 893)]",[],[1],[38],[0.6333333333333333],"[640.0, 512.0]",vertical,"(890.0, 762.0)",[0.7666666666666666],[0.589],1,1897.511
6,False,340,0.629,37,[],[],"[(1087, 881)]",[],[1],[39],[0.65],"[640.0, 512.0]",horizontal,"(890.0, 762.0)",[1.2833333333333332],[0.611],1,1973.394
6,False,341,1.144,68,[],[],"[(1101, 867)]",[],[1],[35],[0.5833333333333334],"[640.0, 512.0]",vertical,"(890.0, 762.0)",[0.9166666666666666],[0.54],1,1978.359
6,False,342,0.802,48,[],[],"[(1087, 888)]",[],[1],[41],[0.6833333333333333],"[640.0, 512.0]",vertical,"(390.0, 762.0)",[0.8],[0.638],1,1983.134
6,False,343,0.805,48,[],[],"[(1093, 873)]",[],[1],[33],[0.55],"[640.0, 512.0]",vertical,"(890.0, 262.0)",[1.6666666666666667],[0.511],1,1987.673
6,False,344,0.539,32,[],[],"[(1081, 912)]",[],[1],[51],[0.85],"[640.0, 512.0]",horizontal,"(890.0, 262.0)",[0.5666666666666667],[0.806],0,1992.927
6,False,345,0.54,32,[],[],"[(1162, 868)]",[],[1],[41],[0.6833333333333333],"[640.0, 512.0]",vertical,"(390.0, 262.0)",[1.0166666666666666],[0.637],1,1997.199
6,False,346,1.197,71,[],[],"[(1013, 902), (1148, 872)]",[],"[0, 1]",[40],[0.6666666666666666],"[640.0, 512.0]",horizontal,"(390.0, 762.0)",[1.2166666666666666],[0.619],1,2001.707
6,False,347,0.819,49,[],[],"[(1117, 886)]",[],[1],[39],[0.65],"[640.0, 512.0]",horizontal,"(390.0, 262.0)",[1.2],[0.598],1,2012.306
6,False,348,0.589,35,[],[],"[(1101, 879)]",[],[1],[39],[0.65],"[640.0, 512.0]",vertical,"(890.0, 762.0)",[0.7666666666666666],[0.603],1,2022.095
6,False,349,0.559,33,[],[],"[(1009, 894), (1068, 854)]",[],"[0, 1]",[50],[0.8333333333333334],"[640.0, 512.0]",vertical,"(890.0, 262.0)",[0.65],[0.788],1,2026.494
6,False,350,1.016,60,[],[],"[(1090, 857)]",[],[1],[36],[0.6],"[640.0, 512.0]",horizontal,"(890.0, 762.0)",[1.35],[0.561],1,2036.584
6,False,351,0.835,50,[],[],"[(1071, 870)]",[],[1],[36],[0.6],"[640.0, 512.0]",horizontal,"(890.0, 262.0)",[0.7],[0.553],1,2041.687
6,False,352,1.004,60,[],[],"[(1116, 879)]",[],[1],[36],[0.6],"[640.0, 512.0]",horizontal,"(890.0, 762.0)",[1.1666666666666667],[0.556],1,2045.979
6,False,353,1.063,63,[],[],"[(1090, 883)]",[],[1],[35],[0.5833333333333334],"[640.0, 512.0]",horizontal,"(390.0, 262.0)",[1.55],[0.549],1,2050.818
6,False,354,0.734,44,[],[],"[(1054, 879)]",[],[1],[40],[0.6666666666666666],"[640.0, 512.0]",horizontal,"(390.0, 262.0)",[1.6166666666666667],[0.622],1,2056.373
6,False,355,0.824,49,[],[],"[(1170, 889)]",[],[1],[39],[0.65],"[640.0, 512.0]",vertical,"(890.0, 262.0)",[0.6666666666666666],[0.605],1,2061.445
6,False,356,0.82,49,[],[],"[(1106, 874)]",[],[1],[36],[0.6],"[640.0, 512.0]",vertical,"(890.0, 262.0)",[0.9],[0.556],1,2069.624
6,False,357,0.825,49,[],[],"[(1059, 835)]",[],[1],[46],[0.7666666666666666],"[640.0, 512.0]",horizontal,"(890.0, 262.0)",[1.0833333333333333],[0.717],1,2074.186
6,False,358,0.96,57,[],[],"[(1097, 851)]",[],[1],[34],[0.5666666666666667],"[640.0, 512.0]",vertical,"(890.0, 262.0)",[1.25],[0.521],1,2079.161
6,False,359,0.713,42,[],[],"[(1052, 850)]",[],[1],[35],[0.5833333333333334],"[640.0, 512.0]",vertical,"(890.0, 762.0)",[1.6166666666666667],[0.544],1,2084.189
6,False,360,1.143,68,[],[],"[(1129, 870)]",[],[1],[40],[0.6666666666666666],"[640.0, 512.0]",horizontal,"(390.0, 262.0)",[0.5833333333333334],[0.62],1,2089.261
7,False,361,0.622,37,[],[],"[(1077, 862)]",[],[1],[36],[0.6],"[640.0, 512.0]",vertical,"(890.0, 762.0)",[0.6],[0.556],1,2093.824
7,False,362,0.696,41,[],[],"[(1101, 870)]",[],[1],[37],[0.6166666666666667],"[640.0, 512.0]",vertical,"(390.0, 262.0)",[0.7833333333333333],[0.574],1,2097.723
7,False,363,0.685,41,[],[],"[(1100, 849)]",[],[1],[35],[0.5833333333333334],"[640.0, 512.0]",vertical,"(390.0, 262.0)",[0.7],[0.541],1,2101.874
7,False,364,1.114,66,[],[],"[(1097, 870)]",[],[1],[44],[0.7333333333333333],"[640.0, 512.0]",vertical,"(390.0, 262.0)",[1.1166666666666667],[0.687],1,2106.095
7,False,365,0.989,59,[],[],"[(1098, 870)]",[],[1],[37],[0.6166666666666667],"[640.0, 512.0]",horizontal,"(390.0, 762.0)",[1.2],[0.584],1,2111.156
7,False,366,0.761,45,[],[],"[(1054, 868)]",[],[1],[49],[0.8166666666666667],"[640.0, 512.0]",horizontal,"(890.0, 262.0)",[1.1666666666666667],[0.77],1,2116.359
7,False,367,1.194,71,[],[],"[(1052, 887)]",[],[1],[45],[0.75],"[640.0, 512.0]",horizontal,"(890.0, 762.0)",[0.9333333333333333],[0.703],1,2121.193
7,False,368,1.136,68,[],[],"[(1068, 856)]",[],[1],[36],[0.6],"[640.0, 512.0]",vertical,"(390.0, 762.0)",[1.3166666666666667],[0.556],1,2126.278
7,False,369,1.125,67,[],[],"[(1073, 878)]",[],[1],[34],[0.5666666666666667],"[640.0, 512.0]",vertical,"(390.0, 262.0)",[1.5],[0.524],1,2131.619
7,False,370,1.06,63,[],[],"[(1038, 870)]",[],[1],[37],[0.6166666666666667],"[640.0, 512.0]",vertical,"(390.0, 262.0)",[0.9],[0.576],1,2136.896
7,False,371,0.559,33,[],[],"[(1051, 859)]",[],[1],[43],[0.7166666666666667],"[640.0, 512.0]",vertical,"(890.0, 762.0)",[0.6666666666666666],[0.675],1,2141.777
7,False,372,0.732,43,[],[],"[(1076, 875)]",[],[1],[41],[0.6833333333333333],"[640.0, 512.0]",vertical,"(390.0, 762.0)",[0.6833333333333333],[0.634],1,2145.975
7,False,373,0.51,30,[],[],"[(1089, 883)]",[],[1],[51],[0.85],"[640.0, 512.0]",vertical,"(890.0, 262.0)",[0.9333333333333333],[0.806],0,2151.123
7,False,374,1.011,60,[],[],"[(1142, 877)]",[],[1],[35],[0.5833333333333334],"[640.0, 512.0]",vertical,"(390.0, 262.0)",[0.9166666666666666],[0.543],1,2155.521
7,False,375,1.191,71,[],[],"[(1085, 864)]",[],[1],[34],[0.5666666666666667],"[640.0, 512.0]",horizontal,"(390.0, 762.0)",[0.9333333333333333],[0.527],1,2160.272
7,False,376,0.599,35,[],[],"[(1117, 856)]",[],[1],[34],[0.5666666666666667],"[640.0, 512.0]",vertical,"(390.0, 762.0)",[0.7333333333333333],[0.527],1,2165.225
7,False,377,0.945,56,[],[],"[(1063, 871)]",[],[1],[44],[0.7333333333333333],"[640.0, 512.0]",horizontal,"(890.0, 262.0)",[1.25],[0.679],1,2169.457
7,False,378,1.085,65,[],[],"[(1084, 876)]",[],[1],[36],[0.6],"[640.0, 512.0]",horizontal,"(890.0, 762.0)",[0.8833333333333333],[0.554],1,2174.589
7,False,379,1.181,70,[],[],"[(1103, 880)]",[],[1],[36],[0.6],"[640.0, 512.0]",horizontal,"(390.0, 762.0)",[0.85],[0.557],1,2179.456
7,False,380,0.84,50,[],[],"[(1079, 861)]",[],[1],[42],[0.7],"[640.0, 512.0]",horizontal,"(390.0, 762.0)",[1.5333333333333332],[0.653],1,2184.128
7,False,381,1.106,66,[],[],"[(1077, 855)]",[],[1],[36],[0.6],"[640.0, 512.0]",horizontal,"(390.0, 762.0)",[0.5833333333333334],[0.559],1,2189.456
7,False,382,0.76,45,[],[],"[(1078, 870)]",[],[1],[35],[0.5833333333333334],"[640.0, 512.0]",vertical,"(390.0, 762.0)",[1.1166666666666667],[0.548],1,2193.986
7,False,383,0.972,58,[],[],"[(1123, 866)]",[],[1],[38],[0.6333333333333333],"[640.0, 512.0]",vertical,"(890.0, 262.0)",[1.2],[0.589],1,2198.693
7,False,384,0.618,37,[],[],"[(1096, 886)]",[],[1],[47],[0.7833333333333333],"[640.0, 512.0]",horizontal,"(890.0, 762.0)",[1.1166666666666667],[0.743],1,2203.707
7,False,385,1.197,71,[],[],"[(1074, 865)]",[],[1],[36],[0.6],"[640.0, 512.0]",horizontal,"(390.0, 762.0)",[1.0333333333333332],[0.554],1,2208.593
7,False,386,0.774,46,[],[],"[(1056, 859)]",[],[1],[34],[0.5666666666666667],"[640.0, 512.0]",vertical,"(890.0, 262.0)",[1.25],[0.524],1,2213.596
7,False,387,0.607,36,[],[],"[(1054, 863)]",[],[1],[37],[0.6166666666666667],"[640.0, 512.0]",horizontal,"(890.0, 262.0)",[0.5666666666666667],[0.576],1,2218.511
7,False,388,0.994,59,[],[],"[(1102, 863)]",[],[1],[33],[0.55],"[640.0, 512.0]",horizontal,"(390.0, 762.0)",[1.25],[0.509],1,2222.457
7,False,389,0.639,38,[],[],"[(1059, 897)]",[],[1],[37],[0.6166666666666667],"[640.0, 512.0]",vertical,"(390.0, 762.0)",[1.4333333333333333],[0.574],1,2227.608
7,False,390,0.917,55,[],[],"[(1056, 893)]",[],[1],[36],[0.6],"[640.0, 512.0]",horizontal,"(890.0, 762.0)",[1.6833333333333333],[0.561],1,2232.477
7,False,391,0.614,36,[],[],"[(1052, 886)]",[],[1],[42],[0.7],"[640.0, 512.0]",horizontal,"(390.0, 262.0)",[1.2333333333333334],[0.656],1,2237.907
7,False,392,0.617,37,[],[],"[(1056, 875)]",[],[1],[44],[0.7333333333333333],"[640.0, 512.0]",vertical,"(890.0, 762.0)",[1.05],[0.69],1,2242.719
7,False,393,0.675,40,[],[],"[(1044, 860)]",[],[1],[51],[0.85],"[640.0, 512.0]",horizontal,"(890.0, 262.0)",[1.65],[0.81],0,2247.224
7,False,394,1.15,69,[],[],"[(1075, 860)]",[],[1],[36],[0.6],"[640.0, 512.0]",horizontal,"(390.0, 762.0)",[1.15],[0.56],1,2252.634
7,False,395,0.867,52,[],[],"[(1033, 865)]",[],[1],[35],[0.5833333333333334],"[640.0, 512.0]",horizontal,"(390.0, 762.0)",[1.5666666666666667],[0.54],1,2258.201
7,False,396,0.89,53,[],[],"[(1038, 864)]",[],[1],[36],[0.6],"[640.0, 512.0]",horizontal,"(390.0, 762.0)",[1.3833333333333333],[0.56],1,2263.543
7,False,397,0.901,54,[],[],"[(1063, 870)]",[],[1],[51],[0.85],"[640.0, 512.0]",horizontal,"(390.0, 262.0)",[0.65],[0.807],0,2268.807
7,False,398,0.932,55,[],[],"[(1109, 859)]",[],[1],[29],[0.48333333333333334],"[640.0, 512.0]",horizontal,"(390.0, 262.0)",[1.6666666666666667],[0.438],1,2273.232
7,False,399,0.946,56,[],[],"[(1074, 868)]",[],[1],[35],[0.5833333333333334],"[640.0, 512.0]",vertical,"(890.0, 762.0)",[1.2666666666666666],[0.55],1,2278.587
7,False,400,0.627,37,[],[],"[(1038, 888)]",[],[1],[34],[0.5666666666666667],"[640.0, 512.0]",horizontal,"(890.0, 262.0)",[1.1833333333333333],[0.529],1,2283.742
7,False,401,0.52,31,[],[],"[(1071, 875)]",[],[1],[40],[0.6666666666666666],"[640.0, 512.0]",horizontal,"(390.0, 762.0)",[1.5333333333333332],[0.621],1,2288.471
7,False,402,1.107,66,[],[],"[(1063, 864)]",[],[1],[34],[0.5666666666666667],"[640.0, 512.0]",vertical,"(890.0, 262.0)",[1.3666666666666667],[0.526],1,2293.233
7,False,403,0.913,54,[],[],"[(1059, 859)]",[],[1],[36],[0.6],"[640.0, 512.0]",horizontal,"(890.0, 262.0)",[1.2],[0.562],1,2298.394
7,False,404,0.935,56,[],[],"[(1063, 871)]",[],[1],[48],[0.8],"[640.0, 512.0]",horizontal,"(390.0, 262.0)",[0.5833333333333334],[0.748],1,2303.37
7,False,405,0.915,54,[],[],"[(1054, 865)]",[],[1],[51],[0.85],"[640.0, 512.0]",horizontal,"(390.0, 262.0)",[0.6666666666666666],[0.813],0,2307.877
7,False,406,0.838,50,[],[],"[(1149, 851)]",[],[1],[27],[0.45],"[640.0, 512.0]",horizontal,"(390.0, 262.0)",[1.5],[0.417],1,2312.588
7,False,407,1.163,69,[],[],"[(1053, 880)]",[],[1],[35],[0.5833333333333334],"[640.0, 512.0]",vertical,"(390.0, 762.0)",[1.2],[0.549],1,2317.518
7,False,408,0.624,37,[],[],"[(1047, 866)]",[],[1],[36],[0.6],"[640.0, 512.0]",vertical,"(390.0, 762.0)",[1.1333333333333333],[0.558],1,2323.955
7,False,409,1.054,63,[],[],"[(1070, 863)]",[],[1],[41],[0.6833333333333333],"[640.0, 512.0]",vertical,"(890.0, 762.0)",[1.2166666666666666],[0.644],1,2328.543
7,False,410,0.723,43,[],[],"[(1072, 892)]",[],[1],[35],[0.5833333333333334],"[640.0, 512.0]",horizontal,"(890.0, 262.0)",[1.3666666666666667],[0.538],1,2333.799
7,False,411,1.088,65,[],[],"[(1053, 884)]",[],[1],[37],[0.6166666666666667],"[640.0, 512.0]",horizontal,"(890.0, 262.0)",[0.65],[0.577],1,2339.835
7,False,412,0.852,51,[],[],"[(1043, 862)]",[],[1],[41],[0.6833333333333333],"[640.0, 512.0]",horizontal,"(390.0, 762.0)",[1.2666666666666666],[0.649],1,2344.375
7,False,413,1.127,67,[],[],"[(1080, 869)]",[],[1],[47],[0.7833333333333333],"[640.0, 512.0]",horizontal,"(890.0, 262.0)",[1.3666666666666667],[0.739],1,2349.381
7,False,414,0.808,48,[],[],"[(1073, 872)]",[],[1],[33],[0.55],"[640.0, 512.0]",vertical,"(390.0, 262.0)",[1.4666666666666666],[0.506],1,2354.909
7,False,415,0.848,50,[],[],"[(1071, 880)]",[],[1],[36],[0.6],"[640.0, 512.0]",horizontal,"(390.0, 762.0)",[1.4666666666666666],[0.554],1,2360.201
7,False,416,0.832,49,[],[],"[(1056, 875)]",[],[1],[37],[0.6166666666666667],"[640.0, 512.0]",vertical,"(390.0, 762.0)",[0.8666666666666667],[0.577],1,2365.335
7,False,417,0.746,44,[],[],"[(1071, 877)]",[],[1],[44],[0.7333333333333333],"[640.0, 512.0]",vertical,"(890.0, 762.0)",[1.4],[0.682],1,2369.848
7,False,418,0.927,55,[],[],"[(1060, 853)]",[],[1],[36],[0.6],"[640.0, 512.0]",vertical,"(390.0, 262.0)",[0.8],[0.559],1,2375.007
7,False,419,0.892,53,[],[],"[(1076, 906)]",[],[1],[37],[0.6166666666666667],"[640.0, 512.0]",vertical,"(390.0, 262.0)",[0.6666666666666666],[0.576],1,2379.573
7,False,420,0.516,30,[],[],"[(1081, 884)]",[],[1],[34],[0.5666666666666667],"[640.0, 512.0]",vertical,"(890.0, 262.0)",[1.2333333333333334],[0.529],1,2383.83
8,False,421,0.752,45,[],[],"[(1074, 877)]",[],[1],[40],[0.6666666666666666],"[640.0, 512.0]",horizontal,"(890.0, 762.0)",[0.6166666666666667],[0.631],1,2388.192
8,False,422,1.117,67,[],[],"[(1071, 886)]",[],[1],[34],[0.5666666666666667],"[640.0, 512.0]",vertical,"(890.0, 262.0)",[0.7666666666666666],[0.528],1,2392.338
8,False,423,1.081,64,[],[],"[(1087, 851)]",[],[1],[34],[0.5666666666666667],"[640.0, 512.0]",vertical,"(390.0, 762.0)",[0.9333333333333333],[0.528],1,2397.182
8,False,424,0.821,49,[],[],"[(1056, 871)]",[],[1],[42],[0.7],"[640.0, 512.0]",horizontal,"(390.0, 762.0)",[0.7333333333333333],[0.661],1,2402.026
8,False,425,0.66,39,[],[],"[(1073, 893)]",[],[1],[30],[0.5],"[640.0, 512.0]",vertical,"(890.0, 262.0)",[0.6333333333333333],[0.46],1,2406.439
8,False,426,1.016,60,[],[],"[(1052, 872)]",[],[1],[10],[0.16666666666666666],"[640.0, 512.0]",vertical,"(390.0, 262.0)",[1.0333333333333332],[0.134],1,2410.539
8,False,427,0.656,39,[],[],"[(1087, 882)]",[],[1],[36],[0.6],"[640.0, 512.0]",horizontal,"(390.0, 762.0)",[0.6333333333333333],[0.564],1,2414.925
8,False,428,0.854,51,[],[],"[(1058, 868)]",[],[1],[33],[0.55],"[640.0, 512.0]",vertical,"(390.0, 262.0)",[0.7333333333333333],[0.506],1,2418.989
8,False,429,0.699,41,[],[],"[(1063, 867)]",[],[1],[36],[0.6],"[640.0, 512.0]",vertical,"(390.0, 762.0)",[1.1833333333333333],[0.556],1,2423.477
8,False,430,0.903,54,[],[],"[(1080, 865)]",[],[1],[38],[0.6333333333333333],"[640.0, 512.0]",horizontal,"(390.0, 762.0)",[1.1333333333333333],[0.587],1,2428.176
8,False,431,0.62,37,[],[],"[(1038, 860)]",[],[1],[35],[0.5833333333333334],"[640.0, 512.0]",horizontal,"(890.0, 762.0)",[0.5166666666666666],[0.542],1,2433.111
8,False,432,0.923,55,[],[],"[(1080, 889)]",[],[1],"[51, 51]","[0.85, 0.85]","[640.0, 512.0]",horizontal,"(390.0, 262.0)",[1.4166666666666667],"[0.803, 0.803]",0,2436.967
8,False,433,0.936,56,[],[],"[(1116, 859)]",[],[1],[39],[0.65],"[640.0, 512.0]",horizontal,"(390.0, 762.0)",[1.5666666666666667],[0.601],1,2442.317
8,False,434,0.522,31,[],[],"[(1050, 884)]",[],[1],[29],[0.48333333333333334],"[640.0, 512.0]",vertical,"(890.0, 262.0)",[1.5],[0.441],1,2447.727
8,False,435,0.953,57,[],[],"[(1099, 878)]",[],[1],[46],[0.7666666666666666],"[640.0, 512.0]",horizontal,"(890.0, 762.0)",[0.9],[0.717],1,2452.367
8,False,436,1.074,64,[],[],"[(1056, 880)]",[],[1],[39],[0.65],"[640.0, 512.0]",horizontal,"(890.0, 262.0)",[1.0333333333333332],[0.61],1,2457.307
8,False,437,0.659,39,[],[],"[(1063, 875)]",[],[1],[34],[0.5666666666666667],"[640.0, 512.0]",vertical,"(390.0, 262.0)",[1.6333333333333333],[0.529],1,2462.226
8,False,438,0.996,59,[],[],"[(1099, 878)]",[],[1],[42],[0.7],"[640.0, 512.0]",horizontal,"(390.0, 262.0)",[0.8166666666666667],[0.659],1,2467.339
8,False,439,1.061,63,[],[],"[(1097, 873)]",[],[1],[35],[0.5833333333333334],"[640.0, 512.0]",vertical,"(890.0, 262.0)",[1.3833333333333333],[0.54],1,2471.922
8,False,440,0.685,41,[],[],"[(1066, 880)]",[],[1],[39],[0.65],"[640.0, 512.0]",vertical,"(390.0, 762.0)",[0.9],[0.605],1,2477.163
8,False,441,0.574,34,[],[],"[(1083, 885)]",[],[1],[45],[0.75],"[640.0, 512.0]",horizontal,"(890.0, 262.0)",[0.5833333333333334],[0.708],1,2481.495
8,False,442,0.583,34,[],[],"[(1074, 899)]",[],[1],[38],[0.6333333333333333],"[640.0, 512.0]",vertical,"(890.0, 762.0)",[0.7666666666666666],[0.586],1,2485.627
8,False,443,1.123,67,[],[],"[(1067, 873)]",[],[1],[33],[0.55],"[640.0, 512.0]",horizontal,"(890.0, 262.0)",[1.2],[0.508],1,2489.913
8,False,444,0.652,39,[],[],"[(1056, 851)]",[],[1],[35],[0.5833333333333334],"[640.0, 512.0]",vertical,"(390.0, 262.0)",[1.2166666666666666],[0.541],1,2495.034
8,False,445,0.882,52,[],[],"[(1056, 860)]",[],[1],[34],[0.5666666666666667],"[640.0, 512.0]",vertical,"(890.0, 262.0)",[1.3],[0.528],1,2499.577
8,False,446,0.515,30,[],[],"[(1073, 886)]",[],[1],[51],[0.85],"[640.0, 512.0]",vertical,"(390.0, 262.0)",[1.1166666666666667],[0.799],0,2504.578
8,False,447,1.149,68,[],[],"[(1123, 868)]",[],[1],[39],[0.65],"[640.0, 512.0]",horizontal,"(390.0, 762.0)",[0.6],[0.608],1,2509.251
8,False,448,1.003,60,[],[],"[(1079, 860)]",[],[1],[37],[0.6166666666666667],"[640.0, 512.0]",vertical,"(890.0, 762.0)",[1.0666666666666667],[0.566],1,2513.79
8,False,449,0.55,33,[],[],"[(1081, 886)]",[],[1],[51],[0.85],"[640.0, 512.0]",horizontal,"(390.0, 262.0)",[0.9166666666666666],[0.799],0,2518.595
8,False,450,1.17,70,[],[],"[(1091, 853)]",[],[1],[34],[0.5666666666666667],"[640.0, 512.0]",horizontal,"(390.0, 762.0)",[1.5166666666666666],[0.526],1,2523.262
8,False,451,0.713,42,[],[],"[(1101, 876)]",[],[1],[48],[0.8],"[640.0, 512.0]",vertical,"(390.0, 262.0)",[1.3833333333333333],[0.75],1,2529.703
8,False,452,0.809,48,[],[],"[(1063, 888)]",[],[1],[37],[0.6166666666666667],"[640.0, 512.0]",horizontal,"(390.0, 762.0)",[1.3166666666666667],[0.57],1,2534.842
8,False,453,1.086,65,[],[],"[(1104, 873)]",[],[1],[38],[0.6333333333333333],"[640.0, 512.0]",vertical,"(390.0, 762.0)",[1.0333333333333332],[0.587],1,2539.693
8,False,454,0.833,49,[],[],"[(1074, 886)]",[],[1],[36],[0.6],"[640.0, 512.0]",horizontal,"(890.0, 762.0)",[1.3666666666666667],[0.554],1,2544.494
8,False,455,1.155,69,[],[],"[(1072, 870)]",[],[1],[36],[0.6],"[640.0, 512.0]",vertical,"(390.0, 262.0)",[0.9333333333333333],[0.556],1,2549.509
8,False,456,0.782,46,[],[],"[(1089, 876)]",[],[1],[37],[0.6166666666666667],"[640.0, 512.0]",vertical,"(390.0, 262.0)",[0.8],[0.568],1,2554.502
8,False,457,0.631,37,[],[],"[(1102, 866)]",[],[1],[35],[0.5833333333333334],"[640.0, 512.0]",horizontal,"(890.0, 762.0)",[1.5166666666666666],[0.54],1,2558.841
8,False,458,1.144,68,[],[],"[(1074, 876)]",[],[1],[23],[0.3833333333333333],"[640.0, 512.0]",horizontal,"(390.0, 762.0)",[0.7666666666666666],[0.348],1,2563.706
8,False,459,1.096,65,[],[],"[(166, 369), (25, 813), (72, 302), (348, 870), (141, 426), (1162, 875)]",[],"[0, 0, 0, 0, 0, 1]",[33],[0.55],"[640.0, 512.0]",horizontal,"(890.0, 262.0)",[0.5],[0.507],1,2568.092
8,False,460,1.093,65,[],[],"[(1106, 870)]",[],[1],[51],[0.85],"[640.0, 512.0]",vertical,"(390.0, 762.0)",[1.15],[0.809],0,2590.14
8,False,461,0.847,50,[],[],"[(1178, 856)]",[],[1],[40],[0.6666666666666666],"[640.0, 512.0]",vertical,"(390.0, 762.0)",[1.1333333333333333],[0.619],1,2595.518
8,False,462,0.567,34,[],[],"[(31, 899), (1160, 886)]",[],"[0, 1]",[51],[0.85],"[640.0, 512.0]",horizontal,"(890.0, 762.0)",[1.2333333333333334],[0.801],0,2600.141
8,False,463,0.774,46,[],[],"[(1106, 840)]",[],[1],[51],[0.85],"[640.0, 512.0]",horizontal,"(890.0, 262.0)",[1.3166666666666667],[0.803],0,2610.349
8,False,464,1.039,62,[],[],"[(1022, 841), (1168, 876)]",[],"[0, 1]",[39],[0.65],"[640.0, 512.0]",vertical,"(390.0, 762.0)",[0.7],[0.604],1,2615.576
8,False,465,0.7,42,[],[],"[(1051, 872)]",[],[1],[38],[0.6333333333333333],"[640.0, 512.0]",horizontal,"(390.0, 762.0)",[1.0166666666666666],[0.581],1,2621.697
8,False,466,0.694,41,[],[],"[(1105, 859)]",[],[1],[51],[0.85],"[640.0, 512.0]",vertical,"(390.0, 762.0)",[1.45],[0.805],0,2626.2
8,False,467,0.635,38,[],[],"[(1129, 848)]",[],[1],[45],[0.75],"[640.0, 512.0]",vertical,"(390.0, 762.0)",[1.0333333333333332],[0.705],1,2631.246
8,False,468,0.503,30,[],[],"[(1081, 878)]",[],[1],[51],[0.85],"[640.0, 512.0]",vertical,"(390.0, 262.0)",[1.55],[0.803],0,2642.458
8,False,469,1.136,68,[],[],"[(1098, 856)]",[],[1],[34],[0.5666666666666667],"[640.0, 512.0]",vertical,"(390.0, 262.0)",[1.6833333333333333],[0.523],1,2647.572
8,False,470,1.159,69,[],[],"[(1102, 877)]",[],[1],[37],[0.6166666666666667],"[640.0, 512.0]",horizontal,"(890.0, 762.0)",[0.5833333333333334],[0.569],1,2653.403
8,False,471,1.08,64,[],[],"[(1099, 870)]",[],[1],[39],[0.65],"[640.0, 512.0]",horizontal,"(390.0, 762.0)",[1.1],[0.611],1,2657.983
8,False,472,0.73,43,[],[],"[(1092, 871)]",[],[1],[51],[0.85],"[640.0, 512.0]",vertical,"(390.0, 262.0)",[1.5],[0.8],0,2662.976
8,False,473,0.501,30,[],[],"[(1096, 880)]",[],[1],[42],[0.7],"[640.0, 512.0]",horizontal,"(890.0, 762.0)",[1.25],[0.651],1,2668.242
8,False,474,0.809,48,[],[],"[(1083, 892)]",[],[1],[34],[0.5666666666666667],"[640.0, 512.0]",vertical,"(890.0, 762.0)",[1.0333333333333332],[0.526],1,2673.022
8,False,475,0.772,46,[],[],"[(1103, 875)]",[],[1],[51],[0.85],"[640.0, 512.0]",horizontal,"(390.0, 262.0)",[1.3166666666666667],[0.805],0,2677.621
8,False,476,0.716,42,[],[],"[(1110, 854)]",[],[1],[37],[0.6166666666666667],"[640.0, 512.0]",vertical,"(390.0, 762.0)",[1.4333333333333333],[0.571],1,2682.622
8,False,477,0.846,50,[],[],"[(1052, 898)]",[],[1],[38],[0.6333333333333333],"[640.0, 512.0]",horizontal,"(390.0, 262.0)",[1.3166666666666667],[0.588],1,2691.884
8,False,478,0.545,32,[],[],"[(1080, 885)]",[],[1],[51],[0.85],"[640.0, 512.0]",vertical,"(390.0, 762.0)",[1.2333333333333334],[0.796],0,2696.997
8,False,479,0.714,42,[],[],"[(1106, 879)]",[],[1],[51],[0.85],"[640.0, 512.0]",horizontal,"(890.0, 262.0)",[1.35],[0.803],0,2701.761
8,False,480,0.887,53,[],[],"[(1142, 860)]",[],[1],[37],[0.6166666666666667],"[640.0, 512.0]",horizontal,"(390.0, 262.0)",[0.8666666666666667],[0.577],1,2706.969
9,False,481,1.1,66,[],[],"[(1099, 869)]",[],[1],[37],[0.6166666666666667],"[640.0, 512.0]",vertical,"(890.0, 762.0)",[1.35],[0.583],1,2711.462
9,False,482,0.976,58,[],[],"[(1103, 860)]",[],[1],[42],[0.7],"[640.0, 512.0]",vertical,"(390.0, 262.0)",[0.6666666666666666],[0.652],1,2716.586
9,False,483,1.052,63,[],[],"[(1105, 879)]",[],[1],[51],[0.85],"[640.0, 512.0]",horizontal,"(890.0, 762.0)",[0.5833333333333334],[0.794],0,2721.225
9,False,484,0.972,58,[],[],"[(1111, 876)]",[],[1],[38],[0.6333333333333333],"[640.0, 512.0]",horizontal,"(390.0, 762.0)",[0.9666666666666667],[0.587],1,2725.868
9,False,485,0.613,36,[],[],"[(1093, 874)]",[],[1],[34],[0.5666666666666667],"[640.0, 512.0]",horizontal,"(890.0, 762.0)",[1.4666666666666666],[0.532],1,2730.676
9,False,486,0.559,33,[],[],"[(1077, 865)]",[],[1],[51],[0.85],"[640.0, 512.0]",vertical,"(390.0, 762.0)",[1.1666666666666667],[0.801],0,2735.643
9,False,487,0.774,46,[],[],"[(189, 485), (31, 362), (641, 479), (635, 416), (308, 512), (141, 516), (242, 550), (176, 545), (395, 542), (152, 580), (174, 507), (98, 607), (1168, 902)]",[],"[0, 0, 0, 0, 0, 0, 0, 0, 0, 0, 0, 0, 1]",[49],[0.8166666666666667],"[640.0, 512.0]",horizontal,"(890.0, 762.0)",[1.5],[0.767],1,2740.47
9,False,488,0.835,50,[],[],"[(1087, 870)]",[],[1],[51],[0.85],"[640.0, 512.0]",horizontal,"(390.0, 762.0)",[0.6166666666666667],[0.811],0,3159.643
9,False,489,0.98,58,[],[],"[(1111, 902)]",[],[1],[38],[0.6333333333333333],"[640.0, 512.0]",vertical,"(390.0, 762.0)",[0.8166666666666667],[0.584],1,3164.279
9,False,490,1.021,61,[],[],"[(1116, 884)]",[],[1],[41],[0.6833333333333333],"[640.0, 512.0]",horizontal,"(390.0, 262.0)",[1.4833333333333334],[0.639],1,3285.78
9,False,491,0.575,34,[],[],"[(1089, 864)]",[],[1],[39],[0.65],"[640.0, 512.0]",vertical,"(390.0, 762.0)",[0.9666666666666667],[0.604],1,3291.164
9,False,492,1.119,67,[],[],"[(1078, 869)]",[],[1],[44],[0.7333333333333333],"[640.0, 512.0]",vertical,"(390.0, 762.0)",[1.2833333333333332],[0.694],1,3295.512
9,False,493,1.05,63,[],[],"[(1089, 891)]",[],[1],[33],[0.55],"[640.0, 512.0]",vertical,"(390.0, 262.0)",[0.55],[0.509],1,3300.802
9,False,494,1.007,60,[],[],"[(1093, 894)]",[],[1],[42],[0.7],"[640.0, 512.0]",horizontal,"(390.0, 762.0)",[1.2666666666666666],[0.656],1,3305.114
9,False,495,0.751,45,[],[],"[(1082, 872)]",[],[1],[47],[0.7833333333333333],"[640.0, 512.0]",horizontal,"(390.0, 262.0)",[0.9666666666666667],[0.733],1,3310.434
9,False,496,0.665,39,[],[],"[(1166, 895)]",[],[1],[51],[0.85],"[640.0, 512.0]",horizontal,"(890.0, 262.0)",[1.35],[0.802],0,3315.314
9,False,497,0.558,33,[],[],"[(1151, 903)]",[],[1],[43],[0.7166666666666667],"[640.0, 512.0]",vertical,"(390.0, 762.0)",[1.35],[0.673],1,3329.586
9,False,498,0.531,31,[],[],"[(1083, 913)]",[],[1],[37],[0.6166666666666667],"[640.0, 512.0]",vertical,"(890.0, 262.0)",[0.5],[0.576],1,3334.757
9,False,499,0.992,59,[],[],"[(1093, 889)]",[],[1],[37],[0.6166666666666667],"[640.0, 512.0]",horizontal,"(390.0, 762.0)",[0.9],[0.572],1,3338.549
9,False,500,1.115,66,[],[],"[(1096, 881)]",[],[1],[34],[0.5666666666666667],"[640.0, 512.0]",vertical,"(390.0, 262.0)",[0.8333333333333334],[0.526],1,3343.144
9,False,501,0.596,35,[],[],"[(1089, 890)]",[],[1],[41],[0.6833333333333333],"[640.0, 512.0]",vertical,"(390.0, 262.0)",[0.6166666666666667],[0.641],1,3347.871
9,False,502,1.058,63,[],[],"[(1105, 879)]",[],[1],[34],[0.5666666666666667],"[640.0, 512.0]",vertical,"(890.0, 762.0)",[0.9333333333333333],[0.523],1,3351.943
9,False,503,1.041,62,[],[],"[(1093, 861)]",[],[1],[51],[0.85],"[640.0, 512.0]",vertical,"(890.0, 262.0)",[0.6833333333333333],[0.796],0,3356.831
9,False,504,0.995,59,[],[],"[(1074, 851)]",[],[1],[39],[0.65],"[640.0, 512.0]",horizontal,"(890.0, 762.0)",[1.0333333333333332],[0.613],1,3361.497
9,False,505,0.918,55,[],[],"[(1075, 867)]",[],[1],[14],[0.23333333333333334],"[640.0, 512.0]",vertical,"(890.0, 262.0)",[0.9166666666666666],[0.2],1,3367.051
9,False,506,0.87,52,[],[],"[(1070, 855)]",[],[1],[33],[0.55],"[640.0, 512.0]",vertical,"(890.0, 762.0)",[1.65],[0.52],1,3371.481
9,False,507,0.933,55,[],[],"[(1103, 875)]",[],[1],[38],[0.6333333333333333],"[640.0, 512.0]",vertical,"(890.0, 762.0)",[0.5666666666666667],[0.587],1,3376.672
9,False,508,0.969,58,[],[],"[(1086, 864)]",[],[1],[43],[0.7166666666666667],"[640.0, 512.0]",horizontal,"(890.0, 762.0)",[0.75],[0.673],1,3380.915
9,False,509,0.643,38,[],[],"[(1099, 871)]",[],[1],[42],[0.7],"[640.0, 512.0]",vertical,"(890.0, 262.0)",[0.65],[0.653],1,3385.565
9,False,510,1.044,62,[],[],"[(1054, 870)]",[],[1],[35],[0.5833333333333334],"[640.0, 512.0]",vertical,"(390.0, 762.0)",[1.1333333333333333],[0.539],1,3389.741
9,False,511,0.528,31,[],[],"[(1066, 862)]",[],[1],[34],[0.5666666666666667],"[640.0, 512.0]",horizontal,"(390.0, 262.0)",[1.45],[0.522],1,3394.794
9,False,512,0.553,33,[],[],"[(1086, 876)]",[],[1],[31],[0.5166666666666666],"[640.0, 512.0]",vertical,"(390.0, 262.0)",[1.0166666666666666],[0.475],1,3399.628
9,False,513,0.838,50,[],[],"[(1070, 880)]",[],[1],[31],[0.5166666666666666],"[640.0, 512.0]",vertical,"(890.0, 262.0)",[1.0666666666666667],[0.478],1,3404.075
9,False,514,0.808,48,[],[],"[(1080, 876)]",[],[1],[39],[0.65],"[640.0, 512.0]",horizontal,"(890.0, 762.0)",[0.9666666666666667],[0.604],1,3408.594
9,False,515,1.133,67,[],[],"[(1076, 855)]",[],[1],[37],[0.6166666666666667],"[640.0, 512.0]",horizontal,"(390.0, 762.0)",[0.9833333333333333],[0.574],1,3413.172
9,False,516,1.121,67,[],[],"[(1093, 893)]",[],[1],[36],[0.6],"[640.0, 512.0]",vertical,"(390.0, 762.0)",[1.1333333333333333],[0.561],1,3417.934
9,False,517,0.578,34,[],[],"[(1085, 870)]",[],[1],[38],[0.6333333333333333],"[640.0, 512.0]",vertical,"(890.0, 262.0)",[1.2666666666666666],[0.591],1,3423.01
9,False,518,0.571,34,[],[],"[(1080, 863)]",[],[1],[35],[0.5833333333333334],"[640.0, 512.0]",horizontal,"(890.0, 262.0)",[0.7333333333333333],[0.543],1,3427.925
9,False,519,1.096,65,[],[],"[(1046, 880)]",[],[1],[38],[0.6333333333333333],"[640.0, 512.0]",vertical,"(890.0, 762.0)",[1.0666666666666667],[0.59],1,3431.948
9,False,520,0.547,32,[],[],"[(1081, 854)]",[],[1],[38],[0.6333333333333333],"[640.0, 512.0]",vertical,"(890.0, 762.0)",[0.8333333333333334],[0.589],1,3436.861
9,False,521,0.932,55,[],[],"[(1052, 869)]",[],[1],[34],[0.5666666666666667],"[640.0, 512.0]",vertical,"(390.0, 262.0)",[1.5],[0.527],1,3442.317
9,False,522,1.085,65,[],[],"[(1021, 855), (1120, 863)]",[],"[0, 1]",[37],[0.6166666666666667],"[640.0, 512.0]",horizontal,"(390.0, 262.0)",[1.4166666666666667],[0.573],1,3447.441
9,False,523,1.196,71,[],[],"[(1075, 872)]",[],[1],[],[],"[640.0, 512.0]",vertical,"(890.0, 262.0)",[],[0],0,3454.597
9,False,524,0.903,54,[],[],"[(1089, 876)]",[],[1],[39],[0.65],"[640.0, 512.0]",horizontal,"(890.0, 762.0)",[1.1833333333333333],[0.604],1,3459.379
9,False,525,0.622,37,[],[],"[(1072, 874)]",[],[1],[35],[0.5833333333333334],"[640.0, 512.0]",horizontal,"(390.0, 762.0)",[0.8],[0.54],1,3468.9
9,False,526,0.938,56,[],[],"[(1055, 882)]",[],[1],[41],[0.6833333333333333],"[640.0, 512.0]",vertical,"(890.0, 762.0)",[0.95],[0.641],1,3473.277
9,False,527,0.868,52,[],[],"[(1071, 870)]",[],[1],[51],[0.85],"[640.0, 512.0]",horizontal,"(890.0, 262.0)",[0.5333333333333333],[0.803],0,3478.073
9,False,528,0.504,30,[],[],"[(1123, 872)]",[],[1],[39],[0.65],"[640.0, 512.0]",horizontal,"(890.0, 762.0)",[1.0],[0.601],1,3482.487
9,False,529,0.858,51,[],[],"[(1062, 885)]",[],[1],[37],[0.6166666666666667],"[640.0, 512.0]",vertical,"(390.0, 762.0)",[1.0166666666666666],[0.573],1,3486.703
9,False,530,0.699,41,[],[],"[(1053, 851)]",[],[1],[35],[0.5833333333333334],"[640.0, 512.0]",horizontal,"(390.0, 762.0)",[0.85],[0.54],1,3491.235
9,False,531,0.754,45,[],[],"[(1056, 862)]",[],[1],[35],[0.5833333333333334],"[640.0, 512.0]",vertical,"(890.0, 262.0)",[0.5166666666666666],[0.547],1,3495.594
9,False,532,1.157,69,[],[],"[(1048, 868)]",[],[1],[31],[0.5166666666666666],"[640.0, 512.0]",vertical,"(390.0, 762.0)",[1.6],[0.476],1,3499.644
9,False,533,0.946,56,[],[],"[(1085, 885)]",[],[1],[41],[0.6833333333333333],"[640.0, 512.0]",horizontal,"(390.0, 262.0)",[0.8333333333333334],[0.64],1,3504.903
9,False,534,0.768,46,[],[],"[(1078, 880)]",[],[1],[35],[0.5833333333333334],"[640.0, 512.0]",vertical,"(890.0, 762.0)",[0.6666666666666666],[0.542],1,3509.633
9,False,535,0.836,50,[],[],"[(1069, 880)]",[],[1],[35],[0.5833333333333334],"[640.0, 512.0]",horizontal,"(890.0, 762.0)",[0.5333333333333333],[0.538],1,3515.742
9,False,536,1.074,64,[],[],"[(1080, 877)]",[],[1],[38],[0.6333333333333333],"[640.0, 512.0]",vertical,"(890.0, 762.0)",[1.5833333333333333],[0.585],1,3519.817
9,False,537,1.001,60,[],[],"[(1081, 865)]",[],[1],[41],[0.6833333333333333],"[640.0, 512.0]",vertical,"(390.0, 762.0)",[1.15],[0.636],1,3525.244
9,False,538,1.167,70,[],[],"[(1058, 865)]",[],[1],[],[],"[640.0, 512.0]",vertical,"(390.0, 262.0)",[],[0],0,3530.097
9,False,539,0.925,55,[],[],"[(1024, 864), (1148, 868)]",[],"[0, 1]",[],[],"[640.0, 512.0]",horizontal,"(390.0, 262.0)",[],[0],0,3534.5
9,False,540,1.029,61,[],[],"[(1080, 852)]",[],[1],[33],[0.55],"[640.0, 512.0]",vertical,"(390.0, 762.0)",[1.0166666666666666],[0.504],1,3544.177
10,False,541,1.109,66,[],[],"[(1070, 868)]",[],[1],[35],[0.5833333333333334],"[640.0, 512.0]",horizontal,"(390.0, 762.0)",[0.9666666666666667],[0.545],1,3549.092
10,False,542,1.191,71,[],[],"[(1047, 870)]",[],[1],[39],[0.65],"[640.0, 512.0]",horizontal,"(390.0, 262.0)",[1.4333333333333333],[0.61],1,3554.027
10,False,543,0.678,40,[],[],"[(1097, 860)]",[],[1],[36],[0.6],"[640.0, 512.0]",horizontal,"(890.0, 262.0)",[1.5833333333333333],[0.557],1,3559.313
10,False,544,1.089,65,[],[],"[(1087, 853)]",[],[1],[23],[0.3833333333333333],"[640.0, 512.0]",vertical,"(390.0, 262.0)",[1.55],[0.345],1,3564.371
10,False,545,0.734,44,[],[],"[(1050, 884)]",[],[1],[35],[0.5833333333333334],"[640.0, 512.0]",vertical,"(890.0, 262.0)",[1.0833333333333333],[0.536],1,3569.586
10,False,546,0.957,57,[],[],"[(1073, 876)]",[],[1],[34],[0.5666666666666667],"[640.0, 512.0]",vertical,"(390.0, 762.0)",[1.65],[0.521],1,3574.324
10,False,547,0.818,49,[],[],"[(1050, 864)]",[],[1],[37],[0.6166666666666667],"[640.0, 512.0]",vertical,"(890.0, 762.0)",[0.7333333333333333],[0.568],1,3579.6
10,False,548,0.84,50,[],[],"[(1051, 862)]",[],[1],[34],[0.5666666666666667],"[640.0, 512.0]",horizontal,"(390.0, 762.0)",[1.4],[0.521],1,3583.844
10,False,549,0.578,34,[],[],"[(1072, 869)]",[],[1],[40],[0.6666666666666666],"[640.0, 512.0]",vertical,"(890.0, 762.0)",[1.3333333333333333],[0.62],1,3588.903
10,False,550,0.96,57,[],[],"[(1093, 880)]",[],[1],[37],[0.6166666666666667],"[640.0, 512.0]",vertical,"(890.0, 762.0)",[1.6333333333333333],[0.571],1,3593.805
10,False,551,0.911,54,[],[],"[(1092, 881)]",[],[1],[36],[0.6],"[640.0, 512.0]",horizontal,"(390.0, 762.0)",[1.2833333333333332],[0.555],1,3599.011
10,False,552,1.029,61,[],[],"[(1074, 879)]",[],[1],[28],[0.4666666666666667],"[640.0, 512.0]",horizontal,"(390.0, 262.0)",[1.6666666666666667],[0.426],1,3604.009
10,False,553,0.691,41,[],[],"[(1077, 879)]",[],[1],[35],[0.5833333333333334],"[640.0, 512.0]",horizontal,"(390.0, 762.0)",[1.3166666666666667],[0.538],1,3609.136
10,False,554,1.069,64,[],[3627277],"[(1100, 880)]","[(1086, 884)]",[1],[20],[0.3333333333333333],"[640.0, 512.0]",vertical,"(390.0, 262.0)",[],[0],0,3613.759
10,False,555,0.996,59,[],[],"[(1111, 885)]",[],[1],[31],[0.5166666666666666],"[640.0, 512.0]",vertical,"(890.0, 262.0)",[1.45],[0.475],1,3616.537
10,False,556,1.135,68,[],[3734516],"[(1136, 876)]","[(1104, 894)]",[1],[61],[1.0166666666666666],"[640.0, 512.0]",vertical,"(390.0, 262.0)",[],[0],0,3672.814
10,False,557,1.078,64,[],[],"[(1142, 894)]",[],[1],[36],[0.6],"[640.0, 512.0]",vertical,"(390.0, 762.0)",[1.6],[0.557],1,3723.771
10,False,558,0.643,38,[],[],"[(1063, 849)]",[],[1],[46],[0.7666666666666666],"[640.0, 512.0]",horizontal,"(390.0, 762.0)",[1.4666666666666666],[0.721],1,3807.914
10,False,559,0.529,31,[],[],"[(1071, 880)]",[],[1],[23],[0.3833333333333333],"[640.0, 512.0]",vertical,"(390.0, 262.0)",[1.55],[0.345],1,3812.986
10,False,560,0.634,38,[],[],"[(1084, 851)]",[],[1],[14],[0.23333333333333334],"[640.0, 512.0]",vertical,"(890.0, 262.0)",[1.6666666666666667],[0.198],1,3817.548
10,False,561,0.832,49,[],[],"[(1050, 881)]",[],[1],[38],[0.6333333333333333],"[640.0, 512.0]",horizontal,"(390.0, 262.0)",[1.35],[0.591],1,3822.198
10,False,562,0.551,33,[],[],"[(1121, 877)]",[],[1],[37],[0.6166666666666667],"[640.0, 512.0]",horizontal,"(890.0, 762.0)",[0.5166666666666666],[0.574],1,3827.288
10,False,563,0.627,37,[],[],"[(1112, 862)]",[],[1],[35],[0.5833333333333334],"[640.0, 512.0]",horizontal,"(390.0, 262.0)",[1.3],[0.543],1,3831.098
10,False,564,0.783,46,[],[],"[(1094, 865)]",[],[1],[36],[0.6],"[640.0, 512.0]",vertical,"(890.0, 762.0)",[1.4666666666666666],[0.566],1,3835.661
10,False,565,0.54,32,[],[],"[(1110, 888)]",[],[1],[51],[0.85],"[640.0, 512.0]",horizontal,"(390.0, 762.0)",[1.3],[0.803],0,3840.727
10,False,566,0.985,59,[],[],"[(1093, 869)]",[],[1],[46],[0.7666666666666666],"[640.0, 512.0]",vertical,"(390.0, 762.0)",[1.45],[0.723],1,3845.576
10,False,567,0.511,30,[],[],"[(1076, 878)]",[],[1],[38],[0.6333333333333333],"[640.0, 512.0]",horizontal,"(390.0, 762.0)",[1.5666666666666667],[0.598],1,3851.614
10,False,568,1.042,62,[],[],"[(1079, 838)]",[],[1],[35],[0.5833333333333334],"[640.0, 512.0]",horizontal,"(390.0, 762.0)",[1.0666666666666667],[0.543],1,3856.427
10,False,569,0.767,46,[],[],"[(1110, 869)]",[],[1],[36],[0.6],"[640.0, 512.0]",horizontal,"(390.0, 762.0)",[0.55],[0.554],1,3861.525
10,False,570,0.763,45,[],[],"[(1068, 885)]",[],[1],[36],[0.6],"[640.0, 512.0]",horizontal,"(890.0, 762.0)",[0.5666666666666667],[0.558],1,3865.734
10,False,571,1.063,63,[],[],"[(1116, 872)]",[],[1],[35],[0.5833333333333334],"[640.0, 512.0]",horizontal,"(390.0, 762.0)",[1.6333333333333333],[0.544],1,3870.026
10,False,572,1.198,71,[],[],"[(1095, 848)]",[],[1],[37],[0.6166666666666667],"[640.0, 512.0]",horizontal,"(890.0, 762.0)",[1.5666666666666667],[0.571],1,3875.463
10,False,573,0.775,46,[],[],"[(1099, 885)]",[],[1],[36],[0.6],"[640.0, 512.0]",vertical,"(890.0, 762.0)",[0.6166666666666667],[0.559],1,3881.047
10,False,574,1.095,65,[],[],"[(1103, 875)]",[],[1],[51],[0.85],"[640.0, 512.0]",vertical,"(390.0, 762.0)",[1.4],[0.8],0,3885.308
10,False,575,1.147,68,[],[],"[(1098, 880)]",[],[1],[35],[0.5833333333333334],"[640.0, 512.0]",vertical,"(390.0, 262.0)",[1.1333333333333333],[0.539],1,3890.747
10,False,576,0.831,49,[],[],"[(1148, 864)]",[],[1],[35],[0.5833333333333334],"[640.0, 512.0]",vertical,"(390.0, 762.0)",[1.1],[0.543],1,3898.645
10,False,577,0.87,52,[],[],"[(1093, 861)]",[],[1],[36],[0.6],"[640.0, 512.0]",vertical,"(890.0, 262.0)",[1.4666666666666666],[0.557],1,3916.815
10,False,578,0.714,42,[],[],"[(1050, 880)]",[],[1],[35],[0.5833333333333334],"[640.0, 512.0]",horizontal,"(390.0, 762.0)",[1.0166666666666666],[0.542],1,3922.248
10,False,579,1.149,68,[],[],"[(1038, 858)]",[],[1],[35],[0.5833333333333334],"[640.0, 512.0]",vertical,"(390.0, 762.0)",[1.3],[0.544],1,3926.862
10,False,580,1.062,63,[],[],"[(1056, 871)]",[],[1],[34],[0.5666666666666667],"[640.0, 512.0]",horizontal,"(890.0, 762.0)",[0.75],[0.525],1,3932.207
10,False,581,0.958,57,[],[],"[(1082, 875)]",[],[1],[34],[0.5666666666666667],"[640.0, 512.0]",horizontal,"(890.0, 262.0)",[1.35],[0.522],1,3936.643
10,False,582,1.18,70,[],[],"[(1058, 865)]",[],[1],[38],[0.6333333333333333],"[640.0, 512.0]",horizontal,"(890.0, 762.0)",[1.1833333333333333],[0.591],1,3941.745
10,False,583,0.609,36,[],[],"[(1056, 863)]",[],[1],[35],[0.5833333333333334],"[640.0, 512.0]",vertical,"(890.0, 762.0)",[0.5333333333333333],[0.536],1,3947.0
10,False,584,0.513,30,[],[],"[(1050, 868)]",[],[1],[40],[0.6666666666666666],"[640.0, 512.0]",horizontal,"(890.0, 262.0)",[1.0166666666666666],[0.62],1,3950.773
10,False,585,0.604,36,[],[],"[(1073, 864)]",[],[1],[37],[0.6166666666666667],"[640.0, 512.0]",horizontal,"(390.0, 762.0)",[0.5166666666666666],[0.573],1,3955.132
10,False,586,0.931,55,[],[],"[(1105, 873)]",[],[1],[36],[0.6],"[640.0, 512.0]",horizontal,"(390.0, 262.0)",[1.1666666666666667],[0.562],1,3959.254
10,False,587,0.896,53,[],[],"[(1054, 871)]",[],[1],[35],[0.5833333333333334],"[640.0, 512.0]",horizontal,"(390.0, 262.0)",[0.7666666666666666],[0.547],1,3964.258
10,False,588,0.73,43,[],[],"[(1050, 868)]",[],[1],[35],[0.5833333333333334],"[640.0, 512.0]",horizontal,"(390.0, 262.0)",[0.9166666666666666],[0.546],1,3968.723
10,False,589,0.996,59,[],[],"[(1076, 855)]",[],[1],[19],[0.31666666666666665],"[640.0, 512.0]",vertical,"(890.0, 262.0)",[1.35],[0.279],1,3972.918
10,False,590,0.666,39,[],[],"[(1072, 871)]",[],[1],[34],[0.5666666666666667],"[640.0, 512.0]",horizontal,"(890.0, 262.0)",[0.85],[0.528],1,3979.062
10,False,591,0.784,47,[],[],"[(1056, 876)]",[],[1],[28],[0.4666666666666667],"[640.0, 512.0]",vertical,"(390.0, 262.0)",[1.1],[0.43],1,3983.231
10,False,592,1.148,68,[],[],"[(1038, 870)]",[],[1],[32],[0.5333333333333333],"[640.0, 512.0]",vertical,"(390.0, 262.0)",[0.9],[0.493],1,3987.622
10,False,593,1.054,63,[],[],"[(1101, 880)]",[],[1],[30],[0.5],"[640.0, 512.0]",vertical,"(890.0, 262.0)",[0.75],[0.458],1,3992.366
10,False,594,1.047,62,[],[],"[(1083, 871)]",[],[1],[47],[0.7833333333333333],"[640.0, 512.0]",horizontal,"(890.0, 262.0)",[1.0],[0.735],1,3996.973
10,False,595,1.193,71,[],[],"[(1047, 868)]",[],[1],[38],[0.6333333333333333],"[640.0, 512.0]",horizontal,"(390.0, 762.0)",[0.7333333333333333],[0.59],1,4002.116
10,False,596,0.624,37,[],[],"[(1050, 859)]",[],[1],[33],[0.55],"[640.0, 512.0]",horizontal,"(390.0, 262.0)",[1.35],[0.508],1,4006.667
10,False,597,0.773,46,[],[],"[(1004, 866), (1166, 846)]",[],"[0, 1]",[37],[0.6166666666666667],"[640.0, 512.0]",horizontal,"(890.0, 262.0)",[0.8166666666666667],[0.575],1,4011.428
10,False,598,0.52,31,[],[],"[(1072, 897)]",[],[1],[24],[0.4],"[640.0, 512.0]",vertical,"(390.0, 262.0)",[1.1833333333333333],[0.361],1,4017.545
10,False,599,1.106,66,[],[],"[(1051, 872)]",[],[1],[36],[0.6],"[640.0, 512.0]",horizontal,"(890.0, 762.0)",[0.55],[0.557],1,4021.948
10,False,600,1.033,61,[],[],"[(1070, 869)]",[],[1],[37],[0.6166666666666667],"[640.0, 512.0]",horizontal,"(890.0, 262.0)",[1.4333333333333333],[0.577],1,4026.527
11,False,601,0.69,41,[],[],"[(1056, 864)]",[],[1],[17],[0.2833333333333333],"[640.0, 512.0]",vertical,"(890.0, 262.0)",[1.3666666666666667],[0.256],1,4031.815
11,False,602,0.881,52,[],[],"[(1056, 863)]",[],[1],[34],[0.5666666666666667],"[640.0, 512.0]",horizontal,"(390.0, 762.0)",[1.5],[0.522],1,4036.258
11,False,603,0.973,58,[],[],"[(1032, 868)]",[],[1],[39],[0.65],"[640.0, 512.0]",horizontal,"(890.0, 762.0)",[1.5],[0.605],1,4041.294
11,False,604,0.855,51,[],[],"[(1051, 872)]",[],[1],[51],[0.85],"[640.0, 512.0]",horizontal,"(890.0, 262.0)",[0.5],[0.798],0,4046.533
11,False,605,0.72,43,[],[],"[(1109, 861)]",[],[1],[37],[0.6166666666666667],"[640.0, 512.0]",vertical,"(390.0, 762.0)",[0.5],[0.571],1,4050.816
11,False,606,0.766,45,[],[],"[(1098, 880)]",[],[1],[41],[0.6833333333333333],"[640.0, 512.0]",horizontal,"(890.0, 762.0)",[1.0166666666666666],[0.639],1,4058.265
11,False,607,0.653,39,[],[],"[(1066, 873)]",[],[1],[38],[0.6333333333333333],"[640.0, 512.0]",horizontal,"(890.0, 262.0)",[1.0833333333333333],[0.589],1,4062.89
11,False,608,0.841,50,[],[],"[(1050, 877)]",[],[1],[43],[0.7166666666666667],"[640.0, 512.0]",horizontal,"(390.0, 762.0)",[0.9333333333333333],[0.67],1,4067.525
11,False,609,0.996,59,[],[],"[(1001, 865), (1100, 870)]",[],"[0, 1]",[36],[0.6],"[640.0, 512.0]",horizontal,"(390.0, 262.0)",[0.85],[0.559],1,4072.297
11,False,610,0.716,42,[],[],"[(1033, 865)]",[],[1],[36],[0.6],"[640.0, 512.0]",vertical,"(890.0, 762.0)",[0.5166666666666666],[0.559],1,4109.781
11,False,611,1.126,67,[],[],"[(1050, 861)]",[],[1],[40],[0.6666666666666666],"[640.0, 512.0]",vertical,"(890.0, 762.0)",[0.7166666666666667],[0.622],1,4113.695
11,False,612,0.699,41,[],[],"[(1056, 879)]",[],[1],[28],[0.4666666666666667],"[640.0, 512.0]",vertical,"(890.0, 262.0)",[1.25],[0.426],1,4118.266
11,False,613,0.794,47,[],[],"[(1031, 876)]",[],[1],[6],[0.1],"[640.0, 512.0]",vertical,"(890.0, 262.0)",[1.5666666666666667],[0.069],1,4122.845
11,False,614,0.782,46,[],[],"[(1051, 878)]",[],[1],[39],[0.65],"[640.0, 512.0]",vertical,"(390.0, 762.0)",[1.4833333333333334],[0.599],1,4127.54
11,False,615,0.577,34,[],[],"[(1038, 866)]",[],[1],[37],[0.6166666666666667],"[640.0, 512.0]",vertical,"(390.0, 762.0)",[0.55],[0.576],1,4132.479
11,False,616,1.042,62,[],[],"[(1048, 889)]",[],[1],[33],[0.55],"[640.0, 512.0]",horizontal,"(390.0, 762.0)",[0.55],[0.507],1,4136.547
11,False,617,1.003,60,[],[],"[(1072, 869)]",[],[1],[34],[0.5666666666666667],"[640.0, 512.0]",horizontal,"(890.0, 262.0)",[0.95],[0.517],1,4140.856
11,False,618,0.829,49,[],[],"[(1035, 875)]",[],[1],[43],[0.7166666666666667],"[640.0, 512.0]",vertical,"(890.0, 262.0)",[0.6166666666666667],[0.67],1,4145.71
11,False,619,0.994,59,[],[],"[(1036, 878)]",[],[1],[37],[0.6166666666666667],"[640.0, 512.0]",vertical,"(890.0, 262.0)",[1.0],[0.576],1,4150.082
11,False,620,0.9,54,[],[],"[(1099, 877)]",[],[1],[32],[0.5333333333333333],"[640.0, 512.0]",vertical,"(890.0, 762.0)",[1.2666666666666666],[0.488],1,4154.96
11,False,621,0.566,33,[],[],"[(1028, 876), (1140, 855)]",[],"[0, 1]",[38],[0.6333333333333333],"[640.0, 512.0]",horizontal,"(390.0, 762.0)",[0.8166666666666667],[0.591],1,4160.251
11,False,622,0.752,45,[],[],"[(1047, 871)]",[],[1],[37],[0.6166666666666667],"[640.0, 512.0]",vertical,"(890.0, 262.0)",[0.6],[0.571],1,4166.032
11,False,623,1.129,67,[],[],"[(1070, 862)]",[],[1],[28],[0.4666666666666667],"[640.0, 512.0]",vertical,"(390.0, 262.0)",[1.2666666666666666],[0.423],1,4170.499
11,False,624,0.704,42,[],[],"[(995, 877), (1118, 861)]",[],"[0, 1]",[41],[0.6833333333333333],"[640.0, 512.0]",horizontal,"(890.0, 762.0)",[0.6833333333333333],[0.642],1,4175.614
11,False,625,0.906,54,[],[],"[(1044, 857)]",[],[1],[37],[0.6166666666666667],"[640.0, 512.0]",vertical,"(890.0, 762.0)",[1.1],[0.567],1,4181.281
11,False,626,0.508,30,[],[4198812],"[(1053, 886)]","[(1052, 890)]",[1],[1],[0.016666666666666666],"[640.0, 512.0]",horizontal,"(890.0, 262.0)",[],[0],0,4185.875
11,False,627,0.947,56,[],[],"[(1146, 908)]",[],[1],[32],[0.5333333333333333],"[640.0, 512.0]",horizontal,"(890.0, 762.0)",[1.3333333333333333],[0.492],1,4188.059
11,False,628,1.038,62,[],[],"[(1068, 880)]",[],[1],[36],[0.6],"[640.0, 512.0]",vertical,"(890.0, 762.0)",[0.8833333333333333],[0.557],1,4305.011
11,False,629,1.129,67,[],[],"[(1061, 869)]",[],[1],[41],[0.6833333333333333],"[640.0, 512.0]",vertical,"(890.0, 262.0)",[0.55],[0.645],1,4309.784
11,False,630,0.961,57,[],[],"[(1050, 876)]",[],[1],[38],[0.6333333333333333],"[640.0, 512.0]",horizontal,"(390.0, 262.0)",[1.0666666666666667],[0.596],1,4314.21
11,False,631,0.754,45,[],[],"[(1048, 879)]",[],[1],[37],[0.6166666666666667],"[640.0, 512.0]",horizontal,"(890.0, 762.0)",[1.5833333333333333],[0.573],1,4318.955
11,False,632,1.023,61,[],[],"[(1050, 888)]",[],[1],[47],[0.7833333333333333],"[640.0, 512.0]",horizontal,"(890.0, 262.0)",[1.25],[0.735],1,4324.048
11,False,633,0.856,51,[],[],"[(1061, 856)]",[],[1],[32],[0.5333333333333333],"[640.0, 512.0]",vertical,"(890.0, 262.0)",[1.3833333333333333],[0.493],1,4329.232
11,False,634,0.895,53,[],[],"[(1043, 869)]",[],[1],[41],[0.6833333333333333],"[640.0, 512.0]",horizontal,"(890.0, 262.0)",[1.6],[0.65],1,4334.179
11,False,635,0.552,33,[],[],"[(1050, 889)]",[],[1],[36],[0.6],"[640.0, 512.0]",horizontal,"(390.0, 762.0)",[1.3],[0.558],1,4339.491
11,False,636,0.747,44,[],[],"[(1059, 875)]",[],[1],[33],[0.55],"[640.0, 512.0]",horizontal,"(890.0, 262.0)",[0.9166666666666666],[0.511],1,4344.194
11,False,637,0.703,42,[],[],"[(1056, 872)]",[],[1],[31],[0.5166666666666666],"[640.0, 512.0]",horizontal,"(390.0, 262.0)",[0.8833333333333333],[0.484],1,4348.722
11,False,638,0.847,50,[],[],"[(1042, 864)]",[],[1],[35],[0.5833333333333334],"[640.0, 512.0]",vertical,"(890.0, 762.0)",[1.25],[0.54],1,4352.943
11,False,639,1.165,69,[],[],"[(1046, 908)]",[],[1],[30],[0.5],"[640.0, 512.0]",horizontal,"(890.0, 262.0)",[1.4],[0.458],1,4357.999
11,False,640,0.62,37,[],[],"[(1073, 905)]",[],[1],[37],[0.6166666666666667],"[640.0, 512.0]",horizontal,"(890.0, 262.0)",[1.6166666666666667],[0.577],1,4363.393
11,False,641,0.674,40,[],[],"[(1052, 896)]",[],[1],[38],[0.6333333333333333],"[640.0, 512.0]",horizontal,"(890.0, 762.0)",[1.3333333333333333],[0.597],1,4368.612
11,False,642,0.645,38,[],[],"[(1052, 854)]",[],[1],[33],[0.55],"[640.0, 512.0]",vertical,"(890.0, 762.0)",[1.0333333333333332],[0.516],1,4373.394
11,False,643,1.102,66,[],[],"[(1113, 857)]",[],[1],[37],[0.6166666666666667],"[640.0, 512.0]",horizontal,"(390.0, 762.0)",[1.35],[0.575],1,4377.701
11,False,644,0.989,59,[],[],"[(1113, 880)]",[],[1],[39],[0.65],"[640.0, 512.0]",horizontal,"(390.0, 762.0)",[1.6333333333333333],[0.607],1,4383.116
11,False,645,0.662,39,[],[],"[(1116, 866)]",[],[1],[40],[0.6666666666666666],"[640.0, 512.0]",horizontal,"(890.0, 762.0)",[0.7666666666666666],[0.628],1,4407.058
11,False,646,0.941,56,[],[],"[(1040, 861)]",[],[1],[38],[0.6333333333333333],"[640.0, 512.0]",horizontal,"(890.0, 762.0)",[1.1666666666666667],[0.595],1,4412.278
11,False,647,0.537,32,[],[],"[(1087, 880)]",[],[1],[17],[0.2833333333333333],"[640.0, 512.0]",horizontal,"(390.0, 262.0)",[1.5],[0.247],1,4417.331
11,False,648,0.567,34,[],[],"[(1070, 873)]",[],[1],[35],[0.5833333333333334],"[640.0, 512.0]",vertical,"(390.0, 762.0)",[0.9166666666666666],[0.547],1,4421.929
11,False,649,0.643,38,[],[],"[(1056, 872)]",[],[1],[34],[0.5666666666666667],"[640.0, 512.0]",horizontal,"(890.0, 262.0)",[1.3],[0.524],1,4428.087
11,False,650,0.546,32,[],[],"[(1090, 876)]",[],[1],[35],[0.5833333333333334],"[640.0, 512.0]",vertical,"(890.0, 762.0)",[0.9666666666666667],[0.541],1,4432.746
11,False,651,0.72,43,[],[],"[(1092, 881)]",[],[1],[41],[0.6833333333333333],"[640.0, 512.0]",horizontal,"(890.0, 762.0)",[1.6],[0.636],1,4436.894
11,False,652,0.84,50,[],[],"[(1087, 889)]",[],[1],[36],[0.6],"[640.0, 512.0]",vertical,"(890.0, 762.0)",[1.6666666666666667],[0.557],1,4442.066
11,False,653,0.977,58,[],[],"[(1068, 876)]",[],[1],[36],[0.6],"[640.0, 512.0]",horizontal,"(890.0, 762.0)",[1.3],[0.555],1,4447.497
11,False,654,0.737,44,[],[],"[(1081, 855)]",[],[1],[43],[0.7166666666666667],"[640.0, 512.0]",vertical,"(890.0, 762.0)",[0.5333333333333333],[0.678],1,4452.612
11,False,655,0.614,36,[],[],"[(1026, 866), (1117, 867)]",[],"[0, 1]",[43],[0.7166666666666667],"[640.0, 512.0]",vertical,"(390.0, 762.0)",[0.75],[0.68],1,4459.514
11,False,656,0.867,52,[],[],"[(1074, 862)]",[],[1],[37],[0.6166666666666667],"[640.0, 512.0]",vertical,"(390.0, 762.0)",[1.5],[0.574],1,4466.513
11,False,657,0.612,36,[],[],"[(1072, 873)]",[],[1],[37],[0.6166666666666667],"[640.0, 512.0]",horizontal,"(890.0, 762.0)",[0.85],[0.567],1,4471.766
11,False,658,0.575,34,[],[],"[(1117, 876)]",[],[1],[37],[0.6166666666666667],"[640.0, 512.0]",horizontal,"(390.0, 762.0)",[1.65],[0.573],1,4476.047
11,False,659,0.742,44,[],[],"[(1074, 853)]",[],[1],[38],[0.6333333333333333],"[640.0, 512.0]",vertical,"(890.0, 262.0)",[0.5],[0.589],1,4494.879
11,False,660,1.108,66,[],[],"[(1076, 854)]",[],[1],[39],[0.65],"[640.0, 512.0]",horizontal,"(390.0, 762.0)",[1.5833333333333333],[0.607],1,4499.094
12,False,661,0.767,46,[],[],"[(1026, 855), (1142, 875)]",[],"[0, 1]",[23],[0.3833333333333333],"[640.0, 512.0]",vertical,"(890.0, 262.0)",[1.2833333333333332],[0.347],1,4504.691
12,False,662,0.748,44,[],[],"[(1100, 859)]",[],[1],[35],[0.5833333333333334],"[640.0, 512.0]",vertical,"(890.0, 262.0)",[0.6333333333333333],[0.547],1,4511.271
12,False,663,0.986,59,[],[],"[(1090, 866)]",[],[1],[4],[0.06666666666666667],"[640.0, 512.0]",vertical,"(390.0, 262.0)",[1.6333333333333333],[0.036],1,4515.412
