block,trial,trial_type,taps_start_loc_during_fix,taps_end_loc_during_fix,taps_on_lever_during_fix,taps_on_lever_s_during_fix,bar_orientation,target_xy,cti,rt,acc,time,pulses,fa_rate_recent100,p_catch
0,1,target,"[(1093, 834)]",[],[1],[0.48333333333333334],horizontal,"(390.0, 762.0)",1.4833333333333334,0.456,1,0.5,1,0.0,0.25
0,2,target,"[(1032, 802)]",[],[1],[0.5833333333333334],vertical,"(390.0, 762.0)",0.5166666666666666,0.547,1,11.946,1,0.0,0.25
0,3,catch,"[(1044, 787)]",[],[1],[],vertical,"(890.0, 262.0)",1.6,nan,1,718.298,1,0.0,0.25
0,4,target,"[(1055, 800)]",[],[1],[0.85],horizontal,"(890.0, 762.0)",1.35,nan,0,723.331,0,0.0,0.25
0,5,catch,"[(1038, 809)]",[],[1],[],horizontal,"(890.0, 762.0)",1.6,nan,1,728.997,1,0.0,0.25
0,6,catch,"[(1046, 825)]",[],[1],[],horizontal,"(890.0, 262.0)",1.6,nan,1,734.664,1,0.0,0.25
0,7,catch,"[(1057, 785)]",[],[1],[],vertical,"(890.0, 262.0)",1.6,nan,1,739.933,1,0.0,0.25
0,8,target,"[(1072, 799)]",[],[1],[0.85],horizontal,"(390.0, 762.0)",0.9333333333333333,nan,0,744.815,0,0.0,0.25
0,9,target,"[(1008, 783)]",[],[1],[0.65],vertical,"(890.0, 762.0)",1.0333333333333332,0.601,1,749.215,1,0.0,0.25
0,10,target,"[(1069, 786)]",[],[1],[0.5333333333333333],vertical,"(890.0, 762.0)",0.9333333333333333,0.496,1,754.265,1,0.0,0.25
0,11,target,"[(1032, 788)]",[],[1],[0.85],vertical,"(890.0, 762.0)",0.7,nan,0,758.749,0,0.0,0.25
0,12,catch,"[(1035, 781)]",[],[1],[],vertical,"(390.0, 762.0)",1.6,nan,1,763.53,1,0.0,0.25
0,13,target,"[(1052, 786)]",[],[1],[0.85],horizontal,"(390.0, 762.0)",0.6666666666666666,nan,0,768.89,0,0.0,0.25
0,14,target,"[(1041, 791)]",[],[1],[0.5],horizontal,"(890.0, 262.0)",0.9666666666666667,0.461,1,772.832,1,0.0,0.25
0,15,target,"[(1055, 785)]",[],[1],[0.6833333333333333],horizontal,"(890.0, 762.0)",1.1166666666666667,0.653,1,778.259,1,0.0,0.25
0,16,target,"[(1052, 780)]",[],[1],[0.5666666666666667],horizontal,"(890.0, 262.0)",0.36666666666666664,0.521,1,783.546,1,0.0,0.25
0,17,target,"[(1024, 797)]",[],[1],[0.5],horizontal,"(890.0, 262.0)",0.9,0.466,1,787.789,2,0.0,0.25
0,18,target,"[(1054, 787)]",[],[1],[0.5666666666666667],horizontal,"(390.0, 762.0)",1.0333333333333332,0.525,1,793.513,2,0.0,0.25
0,19,target,"[(1039, 772)]",[],[1],[0.85],horizontal,"(890.0, 762.0)",0.4666666666666667,nan,0,798.589,0,0.0,0.25
0,20,target,"[(1048, 807)]",[],[1],[0.65],vertical,"(890.0, 762.0)",0.55,0.604,1,802.829,1,0.0,0.25
0,21,target,"[(1053, 781)]",[],[1],[0.5333333333333333],vertical,"(390.0, 762.0)",1.5,0.5,1,807.321,1,0.0,0.25
0,22,target,"[(1053, 804)]",[],[1],[0.5333333333333333],vertical,"(890.0, 262.0)",1.0833333333333333,0.492,1,812.973,1,0.0,0.25
0,23,target,"[(1052, 792)]",[],[1],[0.5833333333333334],vertical,"(890.0, 762.0)",0.8166666666666667,0.539,1,818.081,2,0.0,0.25
0,24,target,"[(1053, 756)]",[],[1],[0.85],vertical,"(890.0, 762.0)",1.0333333333333332,nan,0,823.565,0,0.0,0.25
0,25,catch,"[(1037, 785)]",[],[1],[],vertical,"(890.0, 262.0)",1.6,nan,1,828.081,1,0.0,0.25
0,26,target,"[(1055, 803)]",[],[1],[0.5833333333333334],vertical,"(390.0, 262.0)",0.4,0.539,1,833.33,1,0.0,0.25
0,27,target,"[(1056, 785)]",[],[1],[0.6833333333333333],vertical,"(890.0, 262.0)",0.9166666666666666,0.648,1,838.032,1,0.0,0.25
0,28,target,"[(1059, 786)]",[],[1],[0.6166666666666667],vertical,"(390.0, 262.0)",0.5333333333333333,0.567,1,843.381,2,0.0,0.25
0,29,target,"[(1042, 792)]",[],[1],[0.5],horizontal,"(390.0, 262.0)",1.3166666666666667,0.46,1,848.353,2,0.0,0.25
0,30,target,"[(1043, 781)]",[],[1],[0.3],vertical,"(890.0, 262.0)",1.45,0.259,1,854.325,2,0.0,0.25
0,31,catch,"[(1034, 793)]",[],[1],[],vertical,"(890.0, 762.0)",,"('cti', 1.534),nan",0,859.466,0,0.03225806451612903,0.25
0,32,target,"[(905, 606), (1049, 837)]",[],"[0, 1]",[0.8],vertical,"(890.0, 762.0)",0.7833333333333333,0.753,1,864.135,1,0.03125,0.25
0,33,catch,"[(1056, 817)]",[],[1],[],vertical,"(890.0, 262.0)",1.6,nan,1,2824.858,1,0.030303030303030304,0.25
0,34,target,"[(1049, 794)]",[],[1],[0.5333333333333333],vertical,"(390.0, 762.0)",1.2666666666666666,0.494,1,2830.004,1,0.029411764705882353,0.25
0,35,target,"[(1051, 760)]",[],[1],[0.4],horizontal,"(890.0, 262.0)",1.4833333333333334,0.364,1,2835.653,2,0.02857142857142857,0.25
0,36,target,"[(1021, 769)]",[],[1],[0.7333333333333333],horizontal,"(390.0, 262.0)",0.8166666666666667,0.696,1,2841.773,2,0.027777777777777776,0.25
0,37,target,"[(1054, 770)]",[],[1],[0.7166666666666667],vertical,"(890.0, 762.0)",0.5166666666666666,0.681,1,2847.295,2,0.02702702702702703,0.25
0,38,target,"[(1034, 769)]",[],[1],[0.5666666666666667],horizontal,"(890.0, 762.0)",1.15,0.524,1,2852.393,2,0.02631578947368421,0.25
0,39,catch,"[(1047, 774)]",[],[1],[],vertical,"(890.0, 762.0)",1.6,nan,1,2857.798,3,0.02564102564102564,0.25
0,40,target,"[(1047, 770)]",[],[1],[0.5833333333333334],horizontal,"(390.0, 762.0)",1.1666666666666667,0.539,1,2863.67,3,0.025,0.25
0,41,target,"[(1032, 758)]",[],[1],[0.6166666666666667],horizontal,"(890.0, 762.0)",0.7166666666666667,0.572,1,2870.076,3,0.024390243902439025,0.25
0,42,target,"[(1037, 785)]",[],[1],[0.55],horizontal,"(890.0, 262.0)",0.95,0.511,1,2875.205,3,0.023809523809523808,0.25
0,43,target,"[(1037, 764)]",[],[1],[0.26666666666666666],horizontal,"(390.0, 262.0)",1.5333333333333332,0.232,1,2880.709,3,0.023255813953488372,0.25
0,44,catch,"[(1037, 763)]",[],[1],[],horizontal,"(390.0, 262.0)",1.6,nan,1,2887.113,3,0.022727272727272728,0.25
0,45,catch,"[(1052, 779)]",[],[1],[],vertical,"(890.0, 762.0)",1.6,nan,1,2893.337,3,0.022222222222222223,0.25
0,46,target,"[(1047, 765)]",[],[1],[0.6],vertical,"(890.0, 762.0)",0.8333333333333334,0.552,1,2899.178,3,0.021739130434782608,0.25
0,47,target,"[(1045, 775)]",[],[1],[0.7333333333333333],vertical,"(390.0, 262.0)",1.4,0.69,1,2904.968,3,0.02127659574468085,0.25
0,48,target,"[(1052, 779)]",[],[1],[0.5833333333333334],horizontal,"(890.0, 262.0)",1.25,0.544,1,2911.438,3,0.020833333333333332,0.25
0,49,target,"[(1042, 783)]",[],[1],[0.5666666666666667],horizontal,"(390.0, 262.0)",1.3666666666666667,0.524,1,2917.337,3,0.02040816326530612,0.25
0,50,target,"[(1034, 778)]",[],[1],[0.55],vertical,"(390.0, 262.0)",1.35,0.508,1,2923.487,3,0.02,0.25
0,51,catch,"[(1053, 760)]",[],[1],[],vertical,"(890.0, 762.0)",1.6,nan,1,2929.388,3,0.02,0.25
0,52,catch,"[(1019, 781)]",[],[1],[],vertical,"(390.0, 262.0)",1.6,nan,1,2935.755,3,0.02,0.25
0,53,target,"[(1041, 790)]",[],[1],[0.55],vertical,"(390.0, 762.0)",0.45,0.515,1,2941.473,3,0.02,0.25
0,54,catch,"[(1020, 805)]",[],[1],[],horizontal,"(890.0, 762.0)",1.6,nan,1,2946.893,3,0.02,0.25
0,55,target,"[(1033, 773)]",[],[1],[0.85],vertical,"(890.0, 762.0)",0.4166666666666667,nan,0,2952.896,0,0.02,0.25
0,56,target,"[(1033, 803)]",[],[1],[0.55],vertical,"(390.0, 262.0)",1.2833333333333332,0.505,1,2957.105,1,0.02,0.25
0,57,target,"[(1042, 783)]",[],[1],[0.85],horizontal,"(390.0, 762.0)",0.4166666666666667,nan,0,2962.388,0,0.02,0.25
0,58,target,"[(1040, 775)]",[],[1],[0.6666666666666666],vertical,"(890.0, 262.0)",1.0666666666666667,0.625,1,2966.421,1,0.02,0.25
0,59,target,"[(1052, 769)]",[],[1],[0.6833333333333333],vertical,"(890.0, 762.0)",0.75,0.64,1,2972.005,1,0.02,0.25
0,60,target,"[(1037, 787)]",[],[1],[0.5833333333333334],horizontal,"(390.0, 262.0)",1.25,0.539,1,2976.588,1,0.02,0.25
0,61,catch,"[(1037, 773)]",[],[1],[],horizontal,"(390.0, 262.0)",1.6,nan,1,2982.17,2,0.02,0.25
0,62,target,"[(1065, 774)]",[],[1],[0.5833333333333334],horizontal,"(890.0, 762.0)",1.3166666666666667,0.539,1,2987.554,2,0.02,0.25
0,63,target,"[(1037, 787)]",[],[1],[0.6],horizontal,"(390.0, 762.0)",1.0333333333333332,0.558,1,2993.083,2,0.02,0.25
0,64,target,"[(1056, 765)]",[],[1],[0.5833333333333334],vertical,"(390.0, 762.0)",0.8666666666666667,0.552,1,2998.833,2,0.02,0.25
0,65,catch,"[(1034, 774)]",[],[1],[],horizontal,"(890.0, 762.0)",1.6,nan,1,3003.954,3,0.02,0.25
0,66,catch,"[(1049, 778)]",[],[1],[],vertical,"(890.0, 762.0)",1.6,nan,1,3010.121,3,0.02,0.25
0,67,target,"[(1037, 767)]",[],[1],[0.5833333333333334],horizontal,"(890.0, 762.0)",1.05,0.539,1,3015.805,3,0.02,0.25
0,68,catch,"[(1038, 765)]",[],[1],[],horizontal,"(390.0, 762.0)",1.6,nan,1,3021.555,3,0.02,0.25
0,69,target,"[(1035, 776)]",[],[1],[0.5666666666666667],horizontal,"(890.0, 762.0)",0.4166666666666667,0.526,1,3027.354,3,0.02,0.25
0,70,target,"[(1049, 780)]",[],[1],[0.85],vertical,"(390.0, 762.0)",0.45,nan,0,3032.454,0,0.02,0.25
0,71,target,"[(1040, 792)]",[],[1],[0.85],horizontal,"(890.0, 762.0)",0.6333333333333333,nan,0,3037.005,0,0.02,0.25
0,72,target,"[(1033, 772)]",[],[1],[0.55],horizontal,"(390.0, 262.0)",0.45,0.51,1,3041.55,1,0.02,0.25
0,73,target,"[(1050, 792)]",[],[1],[0.65],vertical,"(390.0, 262.0)",1.4,0.61,1,3045.827,1,0.02,0.25
0,74,target,"[(1047, 773)]",[],[1],[0.6],horizontal,"(890.0, 762.0)",0.45,0.568,1,3051.089,1,0.02,0.25
0,75,catch,"[(1037, 791)]",[],[1],[],horizontal,"(890.0, 762.0)",1.6,nan,1,3056.087,2,0.02,0.25
0,76,catch,"[(1038, 777)]",[],[1],[],vertical,"(390.0, 762.0)",1.6,nan,1,3061.669,2,0.02,0.25
0,77,target,"[(1033, 779)]",[],[1],[0.55],horizontal,"(390.0, 762.0)",1.2166666666666666,0.507,1,3067.104,2,0.02,0.25
0,78,target,"[(1041, 779)]",[],[1],[0.3333333333333333],horizontal,"(890.0, 262.0)",1.5333333333333332,0.293,1,3072.734,2,0.02,0.25
0,79,catch,"[(1033, 799)]",[],[1],[],horizontal,"(890.0, 262.0)",1.6,nan,1,3078.62,3,0.02,0.25
0,80,target,"[(1038, 787)]",[],[1],[0.6166666666666667],vertical,"(890.0, 762.0)",0.6833333333333333,0.573,1,3084.839,3,0.02,0.25
0,81,target,"[(1033, 772)]",[],[1],[0.6666666666666666],vertical,"(390.0, 262.0)",1.1166666666666667,0.62,1,3089.972,3,0.0,0.25
0,82,target,"[(1053, 768)]",[],[1],[0.6],horizontal,"(390.0, 262.0)",1.3333333333333333,0.563,1,3096.272,3,0.0,0.25
0,83,catch,"[(1052, 785)]",[],[1],[],horizontal,"(390.0, 262.0)",1.6,nan,1,3102.405,3,0.0,0.25
0,84,target,"[(1038, 767)]",[],[1],[0.6],horizontal,"(890.0, 762.0)",1.2333333333333334,0.561,1,3108.117,3,0.0,0.25
0,85,target,"[(1053, 785)]",[],[1],[0.85],horizontal,"(390.0, 762.0)",0.4166666666666667,nan,0,3114.439,0,0.0,0.25
0,86,target,"[(1019, 789)]",[],[1],[0.4],vertical,"(390.0, 262.0)",1.45,0.369,1,3118.572,1,0.0,0.25
0,87,target,"[(1037, 769)]",[],[1],[0.6166666666666667],vertical,"(390.0, 262.0)",0.4166666666666667,0.576,1,3124.217,1,0.0,0.25
0,88,target,"[(1052, 781)]",[],[1],[0.7333333333333333],horizontal,"(390.0, 262.0)",1.45,0.692,1,3128.921,1,0.0,0.25
0,89,target,"[(1034, 787)]",[],[1],[0.85],horizontal,"(890.0, 262.0)",0.75,nan,0,3134.241,0,0.0,0.25
0,90,target,"[(1035, 798)]",[],[1],[0.6],horizontal,"(390.0, 762.0)",1.0833333333333333,0.552,1,3138.858,1,0.0,0.25
0,91,target,"[(1057, 767)]",[],[1],[0.5833333333333334],vertical,"(890.0, 762.0)",0.4666666666666667,0.541,1,3144.125,1,0.0,0.25
0,92,catch,"[(1052, 771)]",[],[1],[],horizontal,"(890.0, 262.0)",1.6,nan,1,3148.583,1,0.0,0.25
0,93,target,"[(1054, 782)]",[],[1],[0.6333333333333333],vertical,"(890.0, 762.0)",0.9833333333333333,0.591,1,3153.424,2,0.0,0.25
0,94,target,"[(1052, 764)]",[],[1],[0.6833333333333333],horizontal,"(890.0, 762.0)",0.65,0.638,1,3158.936,2,0.0,0.25
0,95,catch,"[(1034, 787)]",[],[1],[],vertical,"(390.0, 762.0)",1.6,nan,1,3164.076,2,0.0,0.25
0,96,target,"[(1047, 770)]",[],[1],[0.6666666666666666],horizontal,"(890.0, 762.0)",0.9,0.623,1,3170.137,2,0.0,0.25
0,97,target,"[(1041, 778)]",[],[1],[0.6166666666666667],horizontal,"(890.0, 762.0)",0.85,0.576,1,3175.306,3,0.0,0.25
0,98,catch,"[(1033, 769)]",[],[1],[],vertical,"(890.0, 762.0)",1.6,nan,1,3181.164,3,0.0,0.25
0,99,catch,"[(1054, 785)]",[],[1],[],horizontal,"(390.0, 262.0)",1.6,nan,1,3187.085,3,0.0,0.25
0,100,target,"[(1041, 795)]",[],[1],[0.6166666666666667],horizontal,"(890.0, 262.0)",1.2333333333333334,0.575,1,3193.147,3,0.0,0.25
0,101,target,"[(1048, 777)]",[],[1],[0.5166666666666666],vertical,"(390.0, 262.0)",1.4166666666666667,0.476,1,3199.61,3,0.0,0.25
0,102,target,"[(1037, 785)]",[],[1],[0.5666666666666667],vertical,"(390.0, 762.0)",0.7166666666666667,0.52,1,3205.755,3,0.0,0.25
0,103,target,"[(1054, 798)]",[],[1],[0.65],horizontal,"(390.0, 262.0)",0.3833333333333333,0.604,1,3210.958,3,0.0,0.25
0,104,target,"[(1041, 785)]",[],[1],[0.4],vertical,"(890.0, 762.0)",1.4833333333333334,0.364,1,3216.556,3,0.0,0.25
0,105,catch,"[(1047, 787)]",[],[1],[],horizontal,"(390.0, 762.0)",1.6,nan,1,3222.769,3,0.0,0.25
0,106,target,"[(1022, 775)]",[],[1],[0.6],vertical,"(890.0, 762.0)",0.6833333333333333,0.562,1,3228.472,3,0.0,0.25
0,107,target,"[(1029, 782)]",[],[1],[0.55],horizontal,"(890.0, 762.0)",0.5166666666666666,0.506,1,3233.921,3,0.0,0.25
0,108,target,"[(1051, 771)]",[],[1],[0.48333333333333334],horizontal,"(890.0, 762.0)",1.2666666666666666,0.452,1,3238.991,3,0.0,0.25
0,109,target,"[(1036, 768)]",[],[1],[0.7],vertical,"(890.0, 262.0)",0.9666666666666667,0.655,1,3244.825,3,0.0,0.25
0,110,catch,"[(1042, 777)]",[],[1],[],vertical,"(390.0, 262.0)",1.6,nan,1,3250.756,3,0.0,0.25
0,111,target,"[(1053, 841)]",[],[1],[0.6166666666666667],horizontal,"(390.0, 762.0)",1.3666666666666667,0.572,1,3256.755,3,0.0,0.25
0,112,target,"[(1040, 793)]",[],[1],[0.5666666666666667],horizontal,"(890.0, 762.0)",0.7166666666666667,0.529,1,3263.129,3,0.0,0.25
0,113,target,"[(1033, 797)]",[],[1],[0.5666666666666667],vertical,"(390.0, 262.0)",0.5166666666666666,0.525,1,3269.107,3,0.0,0.25
0,114,target,"[(1037, 782)]",[],[1],[0.5166666666666666],vertical,"(390.0, 262.0)",1.5,0.475,1,3274.781,3,0.0,0.25
0,115,target,"[(1036, 764)]",[],[1],[0.55],vertical,"(890.0, 262.0)",1.1,0.507,1,3280.943,3,0.0,0.25
0,116,catch,"[(1045, 778)]",[],[1],[],vertical,"(390.0, 262.0)",1.6,"('cti', 1.594),nan",0,3287.089,0,0.02,0.25
0,117,catch,"[(1033, 804)]",[],[1],[],vertical,"(890.0, 762.0)",1.6,nan,1,3291.955,1,0.02,0.25
0,118,target,"[(1033, 787)]",[],[1],[0.55],horizontal,"(890.0, 262.0)",0.45,0.503,1,3296.756,1,0.02,0.25
0,119,target,"[(1033, 787)]",[],[1],[0.6666666666666666],vertical,"(390.0, 762.0)",0.5333333333333333,0.624,1,3300.989,1,0.02,0.25
0,120,target,"[(1037, 789)]",[],[1],[0.85],horizontal,"(390.0, 762.0)",0.6,nan,0,3305.722,0,0.02,0.25
0,121,target,"[(1021, 786)]",[],[1],[0.45],horizontal,"(390.0, 262.0)",1.5166666666666666,0.411,1,3310.371,1,0.02,0.25
0,122,target,"[(1052, 802)]",[],[1],[0.3833333333333333],vertical,"(390.0, 262.0)",1.5166666666666666,0.344,1,3317.056,1,0.02,0.25
0,123,target,"[(1038, 795)]",[],[1],[0.55],horizontal,"(390.0, 262.0)",0.35,0.508,1,3322.705,1,0.02,0.25
0,124,target,"[(1038, 771)]",[],[1],[0.5833333333333334],vertical,"(390.0, 262.0)",1.2333333333333334,0.544,1,3327.184,2,0.02,0.25
0,125,catch,"[(1051, 796)]",[],[1],[],vertical,"(890.0, 762.0)",1.6,nan,1,3332.87,2,0.02,0.25
0,126,target,"[(1053, 787)]",[],[1],[0.6333333333333333],vertical,"(390.0, 762.0)",1.3833333333333333,0.589,1,3338.227,2,0.02,0.25
0,127,target,"[(1053, 798)]",[],[1],[0.7666666666666666],vertical,"(890.0, 262.0)",1.0,0.719,1,3344.407,2,0.02,0.25
0,128,target,"[(1033, 752), (1028, 824)]",[],"[0, 1]",[0.5166666666666666],horizontal,"(890.0, 262.0)",0.9833333333333333,0.472,1,3350.413,3,0.02,0.25
0,129,target,"[(1040, 783)]",[],[1],[0.6833333333333333],vertical,"(390.0, 262.0)",0.9166666666666666,0.635,1,3357.873,3,0.02,0.25
0,130,target,"[(1033, 792)]",[],[1],[0.55],vertical,"(890.0, 262.0)",1.0666666666666667,0.509,1,3363.833,3,0.02,0.25
0,131,target,"[(1041, 789)]",[],[1],[0.5166666666666666],vertical,"(890.0, 262.0)",1.5333333333333332,0.474,1,3369.671,3,0.02,0.25
0,132,catch,"[(1029, 768)]",[],[1],[],vertical,"(390.0, 262.0)",1.6,nan,1,3375.751,3,0.02,0.25
0,133,target,"[(1052, 804)]",[],[1],[0.85],vertical,"(390.0, 762.0)",0.5166666666666666,nan,0,3381.873,0,0.02,0.25
0,134,target,"[(1032, 801)]",[],[1],[0.85],horizontal,"(890.0, 762.0)",0.8666666666666667,nan,0,3386.227,0,0.02,0.25
0,135,target,"[(1035, 775)]",[],[1],[0.85],horizontal,"(390.0, 262.0)",0.5333333333333333,nan,0,3391.222,0,0.02,0.25
0,136,catch,"[(1029, 802)]",[],[1],[],vertical,"(390.0, 762.0)",1.6,nan,1,3396.005,1,0.02,0.25
0,137,target,"[(1039, 778)]",[],[1],[0.55],vertical,"(890.0, 262.0)",0.4,0.507,1,3401.687,1,0.02,0.25
0,138,target,"[(1029, 773)]",[],[1],[0.7833333333333333],vertical,"(390.0, 762.0)",1.1166666666666667,0.735,1,3406.089,1,0.02,0.25
0,139,catch,"[(1045, 781)]",[],[1],[],horizontal,"(890.0, 762.0)",1.6,nan,1,3411.422,2,0.02,0.25
0,140,target,"[(1034, 806)]",[],[1],[0.55],vertical,"(890.0, 262.0)",1.1666666666666667,0.506,1,3417.195,2,0.02,0.25
0,141,target,"[(1033, 790)]",[],[1],[0.6666666666666666],vertical,"(390.0, 262.0)",1.0833333333333333,0.616,1,3422.616,2,0.02,0.25
0,142,target,"[(1055, 796)]",[],[1],[0.7666666666666666],vertical,"(390.0, 262.0)",1.0833333333333333,0.725,1,3428.393,2,0.02,0.25
0,143,catch,"[(1057, 799)]",[],[1],[],vertical,"(890.0, 762.0)",1.6,nan,1,3434.201,3,0.02,0.25
0,144,target,"[(1054, 782)]",[],[1],[0.85],horizontal,"(890.0, 762.0)",0.8333333333333334,nan,0,3440.088,0,0.02,0.25
0,145,target,"[(1042, 792)]",[],[1],[0.7333333333333333],vertical,"(390.0, 762.0)",0.4666666666666667,0.688,1,3444.355,1,0.02,0.25
0,146,target,"[(1047, 795)]",[],[1],[0.6333333333333333],vertical,"(890.0, 762.0)",1.0333333333333332,0.588,1,3449.18,1,0.02,0.25
0,147,target,"[(1038, 802)]",[],[1],[0.6],vertical,"(890.0, 262.0)",0.43333333333333335,0.56,1,3454.535,1,0.02,0.25
0,148,target,"[(1033, 789)]",[],[1],[0.5666666666666667],horizontal,"(390.0, 762.0)",0.8333333333333334,0.527,1,3458.889,2,0.02,0.25
0,149,target,"[(1049, 790)]",[],[1],[0.5833333333333334],vertical,"(390.0, 762.0)",1.2666666666666666,0.542,1,3464.261,2,0.02,0.25
0,150,target,"[(1038, 806)]",[],[1],[0.6],vertical,"(890.0, 262.0)",1.2166666666666666,0.556,1,3470.244,2,0.02,0.25
0,151,target,"[(1052, 806)]",[],[1],[0.5166666666666666],horizontal,"(890.0, 262.0)",1.0,0.487,1,3475.624,2,0.02,0.25
0,152,catch,"[(1037, 768)]",[],[1],[],vertical,"(890.0, 762.0)",1.6,nan,1,3480.958,3,0.02,0.25
0,153,catch,"[(1041, 771)]",[],[1],[],horizontal,"(390.0, 762.0)",1.6,nan,1,3487.003,3,0.02,0.25
0,154,target,"[(1052, 783)]",[],[1],[0.6333333333333333],horizontal,"(390.0, 262.0)",0.6333333333333333,0.608,1,3492.656,3,0.02,0.25
0,155,catch,"[(1033, 778)]",[],[1],[],vertical,"(890.0, 762.0)",1.6,nan,1,3498.143,3,0.02,0.25
0,156,target,"[(1042, 799)]",[],[1],[0.23333333333333334],vertical,"(890.0, 262.0)",1.4,0.196,0,3503.99,0,0.02,0.25
0,157,target,"[(1037, 786)]",[],[1],[0.5666666666666667],horizontal,"(390.0, 262.0)",0.9333333333333333,0.526,1,3509.085,1,0.02,0.25
0,158,catch,"[(1036, 782)]",[],[1],[],horizontal,"(890.0, 762.0)",1.6,nan,1,3514.006,1,0.02,0.25
0,159,target,"[(1041, 758)]",[],[1],[0.45],horizontal,"(890.0, 262.0)",1.5166666666666666,0.411,1,3519.172,1,0.02,0.25
0,160,target,"[(1043, 790)]",[],[1],[0.5833333333333334],vertical,"(890.0, 762.0)",0.65,0.537,1,3524.639,2,0.02,0.25
0,161,catch,"[(1042, 782)]",[],[1],[],horizontal,"(890.0, 262.0)",1.6,nan,1,3530.022,2,0.02,0.25
0,162,target,"[(1033, 807)]",[],[1],[0.5333333333333333],vertical,"(390.0, 262.0)",1.2333333333333334,0.504,1,3535.872,2,0.02,0.25
0,163,catch,"[(1040, 800)]",[],[1],[],vertical,"(890.0, 762.0)",1.6,nan,1,3541.906,2,0.02,0.25
0,164,target,"[(1040, 767)]",[],[1],[0.6166666666666667],vertical,"(390.0, 262.0)",1.0833333333333333,0.569,1,3547.395,3,0.02,0.25
0,165,target,"[(1041, 778)]",[],[1],[0.4],horizontal,"(890.0, 762.0)",1.4833333333333334,0.361,1,3553.763,3,0.02,0.25
0,166,catch,"[(1038, 793)]",[],[1],[],horizontal,"(390.0, 262.0)",1.6,nan,1,3559.605,3,0.0,0.25
0,167,target,"[(1052, 802)]",[],[1],[0.5333333333333333],vertical,"(390.0, 262.0)",0.36666666666666664,0.495,1,3565.573,3,0.0,0.25
0,168,target,"[(1037, 778)]",[],[1],[0.5333333333333333],horizontal,"(390.0, 762.0)",1.35,0.493,1,3570.614,3,0.0,0.25
0,169,target,"[(1052, 802)]",[],[1],[0.75],horizontal,"(390.0, 762.0)",0.6,0.704,1,3576.7,3,0.0,0.25
0,170,target,"[(1053, 785)]",[],[1],[0.6333333333333333],vertical,"(390.0, 762.0)",0.7833333333333333,0.591,1,3581.973,3,0.0,0.25
0,171,target,"[(1042, 806)]",[],[1],[0.65],horizontal,"(390.0, 762.0)",1.1166666666666667,0.608,1,3587.884,3,0.0,0.25
0,172,target,"[(1037, 783)]",[],[1],[0.55],vertical,"(890.0, 262.0)",1.1333333333333333,0.51,1,3594.094,3,0.0,0.25
0,173,target,"[(1038, 779)]",[],[1],[0.7],vertical,"(390.0, 762.0)",1.2833333333333332,0.657,1,3600.207,3,0.0,0.25
0,174,catch,"[(1044, 783)]",[],[1],[],horizontal,"(890.0, 762.0)",1.6,nan,1,3606.194,3,0.0,0.25
0,175,target,"[(1033, 794)]",[],[1],[0.5166666666666666],vertical,"(890.0, 262.0)",0.9333333333333333,0.472,1,3612.123,3,0.0,0.25
0,176,target,"[(1037, 781)]",[],[1],[0.5333333333333333],horizontal,"(390.0, 762.0)",1.15,0.492,1,3617.863,3,0.0,0.25
0,177,catch,"[(1038, 768)]",[],[1],[],horizontal,"(890.0, 762.0)",1.6,nan,1,3623.807,3,0.0,0.25
0,178,catch,"[(1037, 802)]",[],[1],[],horizontal,"(890.0, 762.0)",1.6,nan,1,3629.957,3,0.0,0.25
0,179,target,"[(1035, 777)]",[],[1],[0.55],vertical,"(890.0, 262.0)",0.8666666666666667,0.511,1,3635.8,3,0.0,0.25
0,180,target,"[(1053, 777)]",[],[1],[0.85],vertical,"(390.0, 762.0)",0.6833333333333333,nan,0,3642.263,0,0.0,0.25
0,181,catch,"[(1037, 800)]",[],[1],[],vertical,"(390.0, 762.0)",1.6,nan,1,3646.456,1,0.0,0.25
0,182,target,"[(1041, 769)]",[],[1],[0.6166666666666667],horizontal,"(890.0, 262.0)",1.1666666666666667,0.579,1,3651.845,1,0.0,0.25
0,183,catch,"[(1045, 789)]",[],[1],[],horizontal,"(890.0, 762.0)",1.6,nan,1,3657.394,1,0.0,0.25
0,184,target,"[(1052, 778)]",[],[1],[0.4166666666666667],horizontal,"(390.0, 762.0)",1.4,0.376,1,3662.787,2,0.0,0.25
0,185,target,"[(1052, 778)]",[],[1],[0.6166666666666667],vertical,"(890.0, 262.0)",0.6166666666666667,0.576,1,3668.623,2,0.0,0.25
0,186,target,"[(1050, 787)]",[],[1],[0.7],vertical,"(890.0, 762.0)",1.1,0.656,1,3673.936,2,0.0,0.25
0,187,target,"[(1065, 803)]",[],[1],[0.43333333333333335],horizontal,"(390.0, 762.0)",1.3666666666666667,0.397,1,3679.561,2,0.0,0.25
0,188,target,"[(1052, 798)]",[],[1],[0.7166666666666667],vertical,"(890.0, 762.0)",1.0833333333333333,0.67,1,3685.553,3,0.0,0.25
0,189,target,"[(1052, 786)]",[],[1],[0.65],vertical,"(390.0, 262.0)",1.1166666666666667,0.605,1,3691.936,3,0.0,0.25
0,190,target,"[(1056, 789)]",[],[1],[0.6],horizontal,"(390.0, 262.0)",1.2,0.552,1,3697.94,3,0.0,0.25
0,191,target,"[(1051, 799)]",[],[1],[0.31666666666666665],horizontal,"(890.0, 762.0)",1.4833333333333334,0.278,1,3704.158,3,0.0,0.25
0,192,target,"[(1051, 773)]",[],[1],[0.5833333333333334],vertical,"(890.0, 262.0)",0.36666666666666664,0.547,1,3710.376,3,0.0,0.25
0,193,catch,"[(1057, 788)]",[],[1],[],horizontal,"(890.0, 262.0)",1.6,nan,1,3715.351,3,0.0,0.25
0,194,target,"[(1056, 778)]",[],[1],[0.75],horizontal,"(390.0, 762.0)",0.7666666666666666,0.698,1,3721.23,3,0.0,0.25
0,195,target,"[(1038, 791)]",[],[1],[0.7],vertical,"(390.0, 262.0)",0.8166666666666667,0.653,1,3727.138,3,0.0,0.25
0,196,catch,"[(1053, 788)]",[],[1],[],horizontal,"(390.0, 262.0)",1.6,nan,1,3732.824,3,0.0,0.25
0,197,target,"[(1048, 792)]",[],[1],[0.5166666666666666],horizontal,"(390.0, 262.0)",1.2833333333333332,0.478,1,3738.4,3,0.0,0.25
0,198,target,"[(1034, 788)]",[],[1],[0.55],horizontal,"(890.0, 262.0)",0.48333333333333334,0.503,1,3744.363,3,0.0,0.25
0,199,catch,"[(1038, 782)]",[],[1],[],horizontal,"(890.0, 262.0)",1.6,nan,1,3749.374,3,0.0,0.25
0,200,target,"[(1022, 807)]",[],[1],[0.6666666666666666],vertical,"(390.0, 262.0)",0.5833333333333334,0.627,1,3755.04,3,0.0,0.25
0,201,target,"[(1034, 797)]",[],[1],[0.55],vertical,"(390.0, 262.0)",0.8333333333333334,0.505,1,3760.956,3,0.0,0.25
0,202,target,"[(1041, 787)]",[],[1],[0.5],vertical,"(390.0, 262.0)",1.0666666666666667,0.456,1,3767.357,3,0.0,0.25
0,203,target,"[(1053, 802)]",[],[1],[0.6],horizontal,"(390.0, 262.0)",0.7666666666666666,0.558,1,3773.123,3,0.0,0.25
0,204,catch,"[(1041, 804)]",[],[1],[],horizontal,"(390.0, 262.0)",1.6,nan,1,3778.891,3,0.0,0.25
0,205,target,"[(1029, 779)]",[],[1],[0.6666666666666666],horizontal,"(390.0, 262.0)",0.9333333333333333,0.627,1,3785.063,3,0.0,0.25
0,206,target,"[(1038, 820)]",[],[1],[0.43333333333333335],vertical,"(390.0, 762.0)",1.4166666666666667,0.389,1,3790.957,3,0.0,0.25
0,207,target,"[(1032, 807)]",[],[1],[0.6],horizontal,"(890.0, 762.0)",0.6666666666666666,0.556,1,3796.823,3,0.0,0.25
0,208,catch,"[(1037, 804)]",[],[1],[],vertical,"(890.0, 262.0)",1.6,nan,1,3802.923,3,0.0,0.25
0,209,target,"[(1035, 765)]",[],[1],[0.35],vertical,"(890.0, 262.0)",1.3833333333333333,0.315,1,3808.838,3,0.0,0.25
0,210,target,"[(1037, 775)]",[],[1],[0.7],horizontal,"(390.0, 262.0)",1.2,0.658,1,3815.001,3,0.0,0.25
0,211,target,"[(1042, 807)]",[],[1],[0.6166666666666667],vertical,"(390.0, 762.0)",1.0833333333333333,0.573,1,3820.888,3,0.0,0.25
0,212,target,"[(1052, 812)]",[],[1],[0.6],vertical,"(890.0, 762.0)",0.36666666666666664,0.56,1,3826.906,3,0.0,0.25
0,213,target,"[(1045, 778)]",[],[1],[0.6166666666666667],vertical,"(890.0, 762.0)",0.36666666666666664,0.575,1,3832.14,3,0.0,0.25
0,214,target,"[(1040, 795)]",[],[1],[0.36666666666666664],horizontal,"(390.0, 762.0)",1.5333333333333332,0.331,1,3837.406,3,0.0,0.25
0,215,catch,"[(1033, 779)]",[],[1],[],horizontal,"(890.0, 262.0)",1.6,nan,1,3843.547,3,0.0,0.25
0,216,catch,"[(1053, 812)]",[],[1],[],vertical,"(390.0, 762.0)",1.6,nan,1,3849.79,3,0.0,0.25
0,217,target,"[(1052, 791)]",[],[1],[0.6],horizontal,"(390.0, 262.0)",1.2333333333333334,0.562,1,3900.622,3,0.0,0.25
0,218,target,"[(1054, 789)]",[],[1],[0.5],vertical,"(390.0, 262.0)",0.8,0.457,1,3906.906,3,0.0,0.25
0,219,catch,"[(1038, 792)]",[],[1],[],horizontal,"(890.0, 762.0)",1.6,nan,1,3912.507,3,0.0,0.25
0,220,target,"[(1038, 770)]",[],[1],[0.55],horizontal,"(390.0, 262.0)",0.5,0.509,1,3918.64,3,0.0,0.25
0,221,target,"[(1041, 798)]",[],[1],[0.6833333333333333],horizontal,"(390.0, 762.0)",1.0333333333333332,0.637,1,3924.369,3,0.0,0.25
0,222,catch,"[(1035, 786)]",[],[1],[],vertical,"(390.0, 762.0)",1.6,nan,1,3930.691,3,0.0,0.25
0,223,catch,"[(1045, 803)]",[],[1],[],horizontal,"(390.0, 262.0)",1.6,nan,1,3936.423,3,0.0,0.25
0,224,target,"[(1033, 770)]",[],[1],[0.4],vertical,"(890.0, 262.0)",1.5333333333333332,0.363,1,3942.672,3,0.0,0.25
0,225,target,"[(1037, 790)]",[],[1],[0.5666666666666667],vertical,"(390.0, 262.0)",1.5166666666666666,0.526,1,3948.741,3,0.0,0.25
0,226,target,"[(1050, 774)]",[],[1],[0.5333333333333333],horizontal,"(890.0, 262.0)",1.2833333333333332,0.496,1,3955.005,3,0.0,0.25
0,227,target,"[(1051, 793)]",[],[1],[0.65],horizontal,"(890.0, 262.0)",0.48333333333333334,0.607,1,3960.875,3,0.0,0.25
0,228,catch,"[(1022, 786)]",[],[1],[],vertical,"(390.0, 262.0)",1.6,nan,1,3966.116,3,0.0,0.25
0,229,target,"[(1041, 777)]",[],[1],[0.5],vertical,"(890.0, 262.0)",1.1,0.465,1,3971.757,3,0.0,0.25
0,230,target,"[(1041, 807)]",[],[1],[0.85],horizontal,"(390.0, 262.0)",0.9,nan,0,3977.919,0,0.0,0.25
0,231,catch,"[(1035, 832)]",[],[1],[],horizontal,"(390.0, 262.0)",1.6,nan,1,3982.558,1,0.0,0.25
0,232,target,"[(1035, 786)]",[],[1],[0.5666666666666667],vertical,"(890.0, 262.0)",1.3833333333333333,0.532,1,4009.901,1,0.0,0.25
0,233,target,"[(1033, 762)]",[],[1],[0.5],horizontal,"(390.0, 762.0)",1.4166666666666667,0.459,1,4015.295,1,0.0,0.25
0,234,catch,"[(1021, 808)]",[],[1],[],vertical,"(890.0, 262.0)",1.6,nan,1,4020.68,2,0.0,0.25
0,235,target,"[(1031, 779)]",[],[1],[0.6666666666666666],horizontal,"(390.0, 262.0)",0.7166666666666667,0.633,1,4026.907,2,0.0,0.25
0,236,target,"[(1057, 791)]",[],[1],[0.5833333333333334],horizontal,"(390.0, 762.0)",1.1166666666666667,0.543,1,4031.9,2,0.0,0.25
0,237,catch,"[(1036, 779)]",[],[1],[],vertical,"(390.0, 262.0)",1.6,nan,1,4037.633,2,0.0,0.25
0,238,target,"[(1028, 781)]",[],[1],[0.5666666666666667],vertical,"(890.0, 762.0)",1.3333333333333333,0.53,1,4043.319,3,0.0,0.25
0,239,target,"[(1052, 766)]",[],[1],[0.3833333333333333],horizontal,"(890.0, 262.0)",1.5,0.351,1,4049.418,3,0.0,0.25
0,240,target,"[(1044, 768)]",[],[1],[0.6666666666666666],horizontal,"(890.0, 262.0)",0.9333333333333333,0.632,1,4055.904,3,0.0,0.25
0,241,target,"[(1036, 782)]",[],[1],[0.85],vertical,"(390.0, 762.0)",1.1833333333333333,nan,0,4061.944,0,0.0,0.25
0,242,target,"[(1036, 786)]",[],[1],[0.85],vertical,"(390.0, 762.0)",0.6166666666666667,nan,0,4066.775,0,0.0,0.25
0,243,target,"[(1031, 787)]",[],[1],[0.6833333333333333],vertical,"(890.0, 762.0)",0.9333333333333333,0.645,1,4071.48,1,0.0,0.25
0,244,target,"[(1052, 788)]",[],[1],[0.6],horizontal,"(390.0, 262.0)",0.7833333333333333,0.566,1,4077.107,1,0.0,0.25
0,245,catch,"[(1033, 778)]",[],[1],[],vertical,"(390.0, 762.0)",1.6,nan,1,4082.143,1,0.0,0.25
0,246,target,"[(1035, 793)]",[],[1],[0.6833333333333333],vertical,"(390.0, 762.0)",1.3,0.647,1,4087.676,2,0.0,0.25
0,247,target,"[(1027, 788)]",[],[1],[0.6833333333333333],horizontal,"(390.0, 262.0)",0.6166666666666667,0.643,1,4093.67,2,0.0,0.25
0,248,target,"[(1052, 776)]",[],[1],[0.6166666666666667],vertical,"(890.0, 762.0)",0.85,0.575,1,4099.031,2,0.0,0.25
0,249,target,"[(1030, 777)]",[],[1],[0.5166666666666666],horizontal,"(890.0, 262.0)",0.8166666666666667,0.486,1,4104.292,2,0.0,0.25
0,250,target,"[(1042, 781)]",[],[1],[0.5833333333333334],horizontal,"(390.0, 262.0)",1.1666666666666667,0.547,1,4109.572,3,0.0,0.25
0,251,target,"[(1036, 776)]",[],[1],[0.3],horizontal,"(390.0, 762.0)",1.1166666666666667,0.261,1,4115.963,3,0.0,0.25
0,252,target,"[(1032, 792)]",[],[1],[0.35],vertical,"(390.0, 262.0)",1.5333333333333332,0.311,1,4121.953,3,0.0,0.25
0,253,catch,"[(1042, 786)]",[],[1],[],vertical,"(890.0, 262.0)",1.6,nan,1,4128.306,3,0.0,0.25
0,254,target,"[(1020, 757)]",[],[1],[0.6166666666666667],horizontal,"(390.0, 762.0)",1.15,0.57,1,4134.358,3,0.0,0.25
0,255,target,"[(1034, 783)]",[],[1],[0.7],horizontal,"(390.0, 762.0)",0.5833333333333334,0.658,1,4140.579,3,0.0,0.25
0,256,catch,"[(1029, 765)]",[],[1],[],vertical,"(390.0, 762.0)",1.6,nan,1,4146.193,3,0.0,0.25
0,257,target,"[(1030, 785)]",[],[1],[0.5666666666666667],vertical,"(890.0, 262.0)",1.0166666666666666,0.527,1,4152.591,3,0.0,0.25
0,258,catch,"[(1033, 777)]",[],[1],[],vertical,"(390.0, 262.0)",1.6,nan,1,4158.896,3,0.0,0.25
0,259,target,"[(1047, 767)]",[],[1],[0.7],horizontal,"(390.0, 762.0)",0.4,0.659,1,4165.03,3,0.0,0.25
0,260,target,"[(1051, 796)]",[],[1],[0.6666666666666666],horizontal,"(390.0, 262.0)",0.9666666666666667,0.625,1,4170.673,3,0.0,0.25
0,261,target,"[(1057, 773)]",[],[1],[0.55],vertical,"(890.0, 262.0)",0.95,0.514,1,4177.008,3,0.0,0.25
0,262,target,"[(1028, 790)]",[],[1],[0.5333333333333333],vertical,"(390.0, 762.0)",1.3,0.496,1,4182.723,3,0.0,0.25
0,263,target,"[(1053, 782)]",[],[1],[0.5666666666666667],vertical,"(390.0, 262.0)",1.4666666666666666,0.521,1,4189.112,3,0.0,0.25
0,264,catch,"[(1026, 798)]",[],[1],[],vertical,"(890.0, 762.0)",1.6,nan,1,4195.571,3,0.0,0.25
0,265,target,"[(1035, 790)]",[],[1],[0.5666666666666667],vertical,"(890.0, 262.0)",1.1833333333333333,0.529,1,4201.695,3,0.0,0.25
0,266,target,"[(1054, 804)]",[],[1],[0.35],vertical,"(890.0, 762.0)",1.45,0.312,1,4207.592,3,0.0,0.25
0,267,target,"[(1033, 773)]",[],[1],[0.6666666666666666],horizontal,"(390.0, 762.0)",0.8,0.624,1,4214.158,3,0.0,0.25
0,268,catch,"[(1053, 796)]",[],[1],[],vertical,"(890.0, 262.0)",1.6,nan,1,4220.358,3,0.0,0.25
0,269,catch,"[(1053, 769)]",[],[1],[],horizontal,"(390.0, 762.0)",1.6,nan,1,4226.622,3,0.0,0.25
0,270,catch,"[(1033, 802)]",[],[1],[],horizontal,"(390.0, 262.0)",1.6,nan,1,4232.323,3,0.0,0.25
0,271,catch,"[(1052, 805)]",[],[1],[],horizontal,"(390.0, 762.0)",1.6,nan,1,4238.764,3,0.0,0.25
0,272,target,"[(1042, 801)]",[],[1],[0.6],vertical,"(890.0, 262.0)",1.2333333333333334,0.56,1,4244.306,3,0.0,0.25
0,273,target,"[(1052, 775)]",[],[1],[0.5666666666666667],vertical,"(890.0, 762.0)",0.4666666666666667,0.522,1,4250.38,3,0.0,0.25
0,274,target,"[(1026, 798)]",[],[1],[0.6],vertical,"(390.0, 762.0)",1.0666666666666667,0.566,1,4255.759,3,0.0,0.25
0,275,target,"[(1040, 773)]",[],[1],[0.6],horizontal,"(390.0, 262.0)",1.4833333333333334,0.563,1,4262.143,3,0.0,0.25
0,276,target,"[(1144, 168), (973, 187), (1125, 211), (1132, 206), (1129, 269), (977, 273), (932, 281), (1023, 902)]",[],"[0, 0, 0, 0, 0, 0, 0, 1]",[0.65],horizontal,"(390.0, 762.0)",0.9,0.61,1,4268.057,3,0.0,0.25
0,277,target,"[(1039, 816)]",[],[1],[0.85],horizontal,"(390.0, 262.0)",0.6666666666666666,nan,0,4427.51,0,0.0,0.25
0,278,target,"[(1029, 813)]",[],[1],[0.55],horizontal,"(390.0, 762.0)",0.5666666666666667,0.505,1,4431.631,1,0.0,0.25
0,279,target,"[(1047, 845)]",[],[1],[0.6],horizontal,"(890.0, 762.0)",1.05,0.556,1,4436.826,1,0.0,0.25
0,280,target,"[(1037, 780)]",[],[1],[0.85],horizontal,"(890.0, 762.0)",1.4,nan,0,4442.058,0,0.0,0.25
0,281,catch,"[(1038, 837)]",[],[1],[],vertical,"(890.0, 762.0)",1.6,nan,1,4447.373,1,0.0,0.25
0,282,target,"[(1033, 787)]",[],[1],[0.6],horizontal,"(890.0, 762.0)",0.7833333333333333,0.553,1,4452.849,1,0.0,0.25
0,283,catch,"[(1029, 765)]",[],[1],[],vertical,"(390.0, 262.0)",1.6,nan,1,4458.013,1,0.0,0.25
0,284,catch,"[(1029, 747), (1038, 817)]",[],"[0, 1]",[],horizontal,"(390.0, 262.0)",1.6,nan,1,4463.293,2,0.0,0.25
0,285,target,"[(1039, 773)]",[],[1],[0.85],vertical,"(390.0, 262.0)",0.4,nan,0,4469.462,0,0.0,0.25
0,286,catch,"[(1040, 808)]",[],[1],[],horizontal,"(890.0, 762.0)",1.6,nan,1,4473.508,1,0.0,0.25
0,287,target,"[(1052, 785)]",[],[1],[0.85],vertical,"(390.0, 262.0)",1.4833333333333334,nan,0,4478.998,0,0.0,0.25
0,288,target,"[(1028, 811)]",[],[1],[0.65],horizontal,"(390.0, 262.0)",1.3333333333333333,0.604,1,4484.297,1,0.0,0.25
0,289,target,"[(1036, 802)]",[],[1],[0.65],horizontal,"(390.0, 762.0)",0.7,0.603,1,4489.903,1,0.0,0.25
0,290,target,"[(1037, 782)]",[],[1],[0.85],horizontal,"(890.0, 762.0)",0.6,nan,0,4495.166,0,0.0,0.25
0,291,target,"[(1041, 817)]",[],[1],[0.85],vertical,"(390.0, 762.0)",0.5333333333333333,nan,0,4499.447,0,0.0,0.25
0,292,target,"[(463, 468), (1042, 811)]",[],"[0, 1]",[0.5666666666666667],vertical,"(390.0, 262.0)",1.0166666666666666,0.521,1,4503.66,1,0.0,0.25
0,293,target,"[(1053, 785)]",[],[1],[0.6],vertical,"(890.0, 262.0)",1.1333333333333333,0.56,1,4511.852,1,0.0,0.25
0,294,target,"[(1049, 825)]",[],[1],[0.55],horizontal,"(890.0, 762.0)",0.8333333333333334,0.511,1,4517.2,1,0.0,0.25
0,295,target,"[(1033, 812)]",[],[1],[0.5833333333333334],horizontal,"(390.0, 262.0)",0.36666666666666664,0.539,1,4521.983,2,0.0,0.25
0,296,catch,"[(1034, 790)]",[],[1],[],vertical,"(890.0, 262.0)",1.6,nan,1,4526.751,2,0.0,0.25
0,297,catch,"[(1046, 819)]",[],[1],[],vertical,"(390.0, 262.0)",1.6,nan,1,4532.049,2,0.0,0.25
0,298,target,"[(1035, 812)]",[],[1],[0.6666666666666666],horizontal,"(390.0, 762.0)",0.8833333333333333,0.622,1,4537.691,2,0.0,0.25
0,299,target,"[(1055, 798)]",[],[1],[0.85],vertical,"(390.0, 762.0)",0.8833333333333333,nan,0,4543.19,0,0.0,0.25
0,300,target,"[(1037, 813)]",[],[1],[0.45],horizontal,"(390.0, 762.0)",1.5166666666666666,0.409,1,4547.862,1,0.0,0.25
0,301,catch,"[(1057, 780)]",[],[1],[],vertical,"(890.0, 262.0)",1.6,nan,1,4553.452,1,0.0,0.25
0,302,catch,"[(1033, 792)]",[],[1],[],vertical,"(390.0, 262.0)",1.6,nan,1,4558.603,1,0.0,0.25
0,303,target,"[(1040, 782)]",[],[1],[0.5333333333333333],horizontal,"(890.0, 762.0)",1.3833333333333333,0.495,1,4564.41,2,0.0,0.25
0,304,target,"[(1069, 799)]",[],[1],[0.5333333333333333],horizontal,"(890.0, 762.0)",0.5666666666666667,0.493,1,4570.193,2,0.0,0.25
0,305,catch,"[(1033, 779)]",[],[1],[],vertical,"(890.0, 262.0)",1.6,nan,1,4575.159,2,0.0,0.25
0,306,target,"[(1045, 809)]",[],[1],[0.7],horizontal,"(390.0, 762.0)",0.7166666666666667,0.655,1,4580.793,2,0.0,0.25
0,307,target,"[(1038, 787)]",[],[1],[0.5666666666666667],horizontal,"(390.0, 262.0)",0.35,0.519,1,4586.077,3,0.0,0.25
0,308,target,"[(1050, 801)]",[],[1],[0.5],horizontal,"(390.0, 262.0)",1.2,0.463,1,4591.626,3,0.0,0.25
0,309,target,"[(1040, 795)]",[],[1],[0.5666666666666667],vertical,"(390.0, 262.0)",0.45,0.524,1,4598.008,3,0.0,0.25
0,310,target,"[(1037, 779)]",[],[1],[0.4666666666666667],vertical,"(390.0, 762.0)",1.3666666666666667,0.431,1,4603.286,3,0.0,0.25
0,311,catch,"[(1041, 790)]",[],[1],[],vertical,"(390.0, 762.0)",1.6,nan,1,4609.382,3,0.0,0.25
0,312,target,"[(1041, 776)]",[],[1],[0.5833333333333334],vertical,"(890.0, 762.0)",1.0,0.54,1,4615.478,3,0.0,0.25
0,313,catch,"[(1043, 782)]",[],[1],[],vertical,"(390.0, 762.0)",1.6,nan,1,4621.424,3,0.0,0.25
0,314,target,"[(1045, 771)]",[],[1],[0.7166666666666667],vertical,"(890.0, 262.0)",0.6833333333333333,0.675,1,4627.259,3,0.0,0.25
0,315,target,"[(1055, 783)]",[],[1],[0.55],horizontal,"(390.0, 762.0)",1.0666666666666667,0.51,1,4632.691,3,0.0,0.25
0,316,target,"[(1033, 796)]",[],[1],[0.5166666666666666],vertical,"(890.0, 262.0)",0.35,0.475,1,4638.86,3,0.0,0.25
0,317,target,"[(1049, 779)]",[],[1],[0.5333333333333333],horizontal,"(890.0, 262.0)",1.25,0.49,1,4644.196,3,0.0,0.25
0,318,catch,"[(1045, 794)]",[],[1],[],horizontal,"(890.0, 262.0)",1.6,nan,1,4650.143,3,0.0,0.25
0,319,target,"[(1041, 816)]",[],[1],[0.5333333333333333],horizontal,"(890.0, 262.0)",0.36666666666666664,0.497,1,4655.709,3,0.0,0.25
0,320,target,"[(1038, 778)]",[],[1],[0.6],horizontal,"(390.0, 762.0)",0.48333333333333334,0.553,1,4661.293,3,0.0,0.25
0,321,catch,"[(1044, 779)]",[],[1],[],horizontal,"(390.0, 762.0)",1.6,nan,1,4666.578,3,0.0,0.25
0,322,target,"[(1055, 808)]",[],[1],[0.18333333333333332],vertical,"(890.0, 262.0)",1.45,0.153,0,4672.293,0,0.0,0.25
0,323,target,"[(1037, 809)]",[],[1],[0.6],horizontal,"(390.0, 762.0)",0.6166666666666667,0.558,1,4677.31,1,0.0,0.25
0,324,target,"[(1045, 810)]",[],[1],[0.25],vertical,"(390.0, 762.0)",1.4666666666666666,0.215,1,4681.808,1,0.0,0.25
0,325,target,"[(1035, 781)]",[],[1],[0.43333333333333335],horizontal,"(890.0, 262.0)",1.4,0.394,1,4687.126,1,0.0,0.25
0,326,target,"[(1037, 781)]",[],[1],[0.6],vertical,"(890.0, 262.0)",0.9833333333333333,0.555,1,4692.543,2,0.0,0.25
0,327,target,"[(1039, 809)]",[],[1],[0.6833333333333333],vertical,"(890.0, 762.0)",0.75,0.638,1,4698.242,2,0.0,0.25
0,328,target,"[(1034, 799)]",[],[1],[0.2833333333333333],vertical,"(890.0, 262.0)",1.3833333333333333,0.251,1,4703.678,2,0.0,0.25
0,329,target,"[(1056, 808)]",[],[1],[0.5333333333333333],vertical,"(390.0, 262.0)",1.0666666666666667,0.489,1,4709.619,2,0.0,0.25
0,330,catch,"[(1037, 792)]",[],[1],[],horizontal,"(390.0, 262.0)",1.6,nan,1,4714.897,3,0.0,0.25
0,331,target,"[(1055, 796)]",[],[1],[0.6166666666666667],vertical,"(390.0, 762.0)",1.1,0.573,1,4720.992,3,0.0,0.25
0,332,catch,"[(1055, 794)]",[],[1],[],horizontal,"(390.0, 262.0)",1.6,nan,1,4727.027,3,0.0,0.25
0,333,target,"[(1057, 788)]",[],[1],[0.5],vertical,"(890.0, 262.0)",1.4833333333333334,0.459,1,4733.109,3,0.0,0.25
0,334,target,"[(1037, 791)]",[],[1],[0.4666666666666667],horizontal,"(390.0, 762.0)",1.1833333333333333,0.429,1,4739.809,3,0.0,0.25
0,335,catch,"[(1038, 782)]",[],[1],[],horizontal,"(890.0, 762.0)",1.6,nan,1,4746.026,3,0.0,0.25
0,336,target,"[(1052, 779)]",[],[1],[0.6666666666666666],vertical,"(390.0, 762.0)",0.5166666666666666,0.618,1,4752.044,3,0.0,0.25
0,337,target,"[(1040, 779)]",[],[1],[0.6666666666666666],horizontal,"(890.0, 262.0)",0.9833333333333333,0.617,1,4757.208,3,0.0,0.25
0,338,target,"[(1056, 787)]",[],[1],[0.7],horizontal,"(390.0, 762.0)",0.7166666666666667,0.657,1,4762.969,3,0.0,0.25
0,339,target,"[(1057, 807)]",[],[1],[0.6333333333333333],vertical,"(390.0, 262.0)",1.3,0.596,1,4768.742,3,0.0,0.25
0,340,catch,"[(1058, 790)]",[],[1],[],horizontal,"(890.0, 262.0)",1.6,nan,1,4774.827,3,0.0,0.25
0,341,target,"[(1052, 780)]",[],[1],[0.5833333333333334],vertical,"(890.0, 762.0)",0.35,0.544,1,4780.556,3,0.0,0.25
0,342,target,"[(1038, 790)]",[],[1],[0.6666666666666666],horizontal,"(390.0, 762.0)",0.6666666666666666,0.617,1,4786.073,3,0.0,0.25
0,343,target,"[(1045, 779)]",[],[1],[0.85],vertical,"(390.0, 762.0)",0.5666666666666667,nan,0,4791.502,0,0.0,0.25
0,344,target,"[(1037, 788)]",[],[1],[0.6166666666666667],horizontal,"(890.0, 262.0)",0.6333333333333333,0.581,1,4796.176,1,0.0,0.25
0,345,catch,"[(1036, 785)]",[],[1],[],horizontal,"(390.0, 762.0)",1.6,nan,1,4801.086,1,0.0,0.25
0,346,target,"[(1054, 777)]",[],[1],[0.6833333333333333],vertical,"(890.0, 262.0)",1.2,0.65,1,4806.193,1,0.0,0.25
0,347,catch,"[(1031, 797)]",[],[1],[],vertical,"(890.0, 262.0)",1.6,nan,1,4811.644,2,0.0,0.25
0,348,target,"[(1045, 794)]",[],[1],[0.85],horizontal,"(890.0, 762.0)",0.7666666666666666,nan,0,4817.559,0,0.0,0.25
0,349,catch,"[(1040, 786)]",[],[1],[],vertical,"(390.0, 762.0)",1.6,nan,1,4822.111,1,0.0,0.25
0,350,target,"[(1041, 777)]",[],[1],[0.7],horizontal,"(890.0, 262.0)",0.8333333333333334,0.657,1,4827.246,1,0.0,0.25
0,351,catch,"[(1045, 776)]",[],[1],[],vertical,"(890.0, 762.0)",1.6,nan,1,4832.094,1,0.0,0.25
0,352,target,"[(1060, 786)]",[],[1],[0.85],vertical,"(390.0, 762.0)",0.6666666666666666,nan,0,4837.227,0,0.0,0.25
0,353,catch,"[(1037, 778)]",[],[1],[],vertical,"(890.0, 262.0)",1.6,nan,1,4842.166,1,0.0,0.25
0,354,catch,"[(1048, 783)]",[],[1],[],vertical,"(890.0, 762.0)",1.6,nan,1,4847.244,1,0.0,0.25
0,355,target,"[(1053, 781)]",[],[1],[0.85],horizontal,"(390.0, 262.0)",0.4666666666666667,nan,0,4852.679,0,0.0,0.25
0,356,catch,"[(1037, 808)]",[],[1],[],vertical,"(890.0, 762.0)",1.6,nan,1,4856.861,1,0.0,0.25
0,357,target,"[(1057, 807)]",[],[1],[0.6166666666666667],vertical,"(390.0, 262.0)",0.6833333333333333,0.573,1,4862.224,1,0.0,0.25
0,358,catch,"[(1038, 801)]",[],[1],[],horizontal,"(890.0, 762.0)",1.6,nan,1,4867.376,1,0.0,0.25
0,359,target,"[(1054, 787)]",[],[1],[0.4],vertical,"(390.0, 262.0)",1.45,0.361,1,4872.811,2,0.0,0.25
0,360,target,"[(1054, 790)]",[],[1],[0.5833333333333334],vertical,"(390.0, 762.0)",0.85,0.545,1,4878.742,2,0.0,0.25
0,361,target,"[(1049, 778)]",[],[1],[0.7666666666666666],horizontal,"(890.0, 762.0)",1.15,0.719,1,4883.947,2,0.0,0.25
0,362,catch,"[(1037, 807)]",[],[1],[],horizontal,"(390.0, 762.0)",1.6,nan,1,4889.53,2,0.0,0.25
0,363,catch,"[(1049, 785)]",[],[1],[],vertical,"(390.0, 762.0)",1.6,nan,1,4895.475,3,0.0,0.25
0,364,target,"[(1053, 809)]",[],[1],[0.6166666666666667],horizontal,"(890.0, 762.0)",0.6833333333333333,0.573,1,4901.394,3,0.0,0.25
0,365,target,"[(1037, 795)]",[],[1],[0.5],vertical,"(890.0, 262.0)",1.2333333333333334,0.455,1,4907.286,3,0.0,0.25
0,366,target,"[(1037, 772)]",[],[1],[0.7],vertical,"(390.0, 262.0)",0.4666666666666667,0.651,1,4913.246,3,0.0,0.25
0,367,catch,"[(1038, 773)]",[],[1],[],vertical,"(390.0, 762.0)",1.6,nan,1,4918.596,3,0.0,0.25
0,368,target,"[(1038, 790)]",[],[1],[0.6833333333333333],vertical,"(890.0, 762.0)",0.48333333333333334,0.632,1,4924.248,3,0.0,0.25
0,369,catch,"[(1038, 786)]",[],[1],[],horizontal,"(390.0, 762.0)",1.6,nan,1,4930.026,3,0.0,0.25
0,370,target,"[(1065, 807)]",[],[1],[0.5833333333333334],horizontal,"(390.0, 762.0)",0.6,0.54,1,4936.16,3,0.0,0.25
0,371,target,"[(1043, 812)]",[],[1],[0.85],horizontal,"(390.0, 262.0)",0.5666666666666667,nan,0,4941.722,0,0.0,0.25
0,372,target,"[(1043, 787)]",[],[1],[0.85],horizontal,"(390.0, 762.0)",0.5833333333333334,nan,0,4946.243,0,0.0,0.25
0,373,target,"[(1037, 821)]",[],[1],[0.5833333333333334],horizontal,"(390.0, 262.0)",1.15,0.544,1,4951.268,1,0.0,0.25
0,374,target,"[(1040, 773)]",[],[1],[0.5333333333333333],vertical,"(390.0, 262.0)",1.3666666666666667,0.493,1,4958.027,1,0.0,0.25
0,375,target,"[(1037, 807)]",[],[1],[0.48333333333333334],horizontal,"(890.0, 762.0)",1.4666666666666666,0.444,1,4963.093,1,0.0,0.25
0,376,target,"[(1039, 778)]",[],[1],[0.6],horizontal,"(390.0, 262.0)",0.7,0.559,1,4968.942,2,0.0,0.25
0,377,target,"[(1043, 776)]",[],[1],[0.65],horizontal,"(890.0, 262.0)",0.8,0.605,1,4974.271,2,0.0,0.25
0,378,catch,"[(1045, 782)]",[],[1],[],horizontal,"(390.0, 762.0)",1.6,nan,1,4979.477,2,0.0,0.25
0,379,target,"[(1045, 790)]",[],[1],[0.5666666666666667],horizontal,"(390.0, 262.0)",1.25,0.525,1,4985.344,2,0.0,0.25
0,380,target,"[(1055, 802)]",[],[1],[0.5333333333333333],vertical,"(390.0, 762.0)",0.43333333333333335,0.49,1,4991.111,3,0.0,0.25
0,381,target,"[(1038, 796)]",[],[1],[0.65],horizontal,"(890.0, 262.0)",1.0166666666666666,0.61,1,4996.394,3,0.0,0.25
0,382,target,"[(1041, 793)]",[],[1],[0.5666666666666667],vertical,"(390.0, 762.0)",0.95,0.523,1,5002.513,3,0.0,0.25
0,383,target,"[(1037, 782)]",[],[1],[0.55],horizontal,"(890.0, 262.0)",0.5,0.506,1,5008.36,3,0.0,0.25
0,384,target,"[(1043, 782)]",[],[1],[0.65],vertical,"(890.0, 762.0)",0.75,0.605,1,5013.528,3,0.0,0.25
0,385,target,"[(1038, 782)]",[],[1],[0.75],horizontal,"(890.0, 762.0)",0.6166666666666667,0.706,1,5019.361,3,0.0,0.25
0,386,catch,"[(1055, 807)]",[],[1],[],vertical,"(390.0, 762.0)",1.6,nan,1,5024.606,3,0.0,0.25
0,387,catch,"[(1041, 782)]",[],[1],[],vertical,"(390.0, 262.0)",1.6,nan,1,5030.594,3,0.0,0.25
0,388,target,"[(1057, 783)]",[],[1],[0.5166666666666666],horizontal,"(890.0, 262.0)",0.8833333333333333,0.478,1,5036.42,3,0.0,0.25
0,389,target,"[(1055, 783)]",[],[1],[0.5666666666666667],vertical,"(890.0, 262.0)",1.1666666666666667,0.526,1,5042.108,3,0.0,0.25
0,390,catch,"[(1037, 787)]",[],[1],[],horizontal,"(890.0, 262.0)",1.6,nan,1,5048.411,3,0.0,0.25
0,391,catch,"[(1040, 813)]",[],[1],[],horizontal,"(390.0, 762.0)",1.6,nan,1,5054.082,3,0.0,0.25
0,392,target,"[(1037, 787)]",[],[1],[0.5333333333333333],horizontal,"(890.0, 262.0)",0.9333333333333333,0.501,1,5060.321,3,0.0,0.25
0,393,target,"[(1054, 782)]",[],[1],[0.5833333333333334],horizontal,"(390.0, 262.0)",1.2166666666666666,0.541,1,5065.735,3,0.0,0.25
0,394,target,"[(1043, 812)]",[],[1],[0.6333333333333333],vertical,"(390.0, 762.0)",1.3666666666666667,0.592,1,5072.018,3,0.0,0.25
0,395,target,"[(1045, 786)]",[],[1],[0.5666666666666667],horizontal,"(390.0, 262.0)",1.0166666666666666,0.523,1,5078.2,3,0.0,0.25
0,396,catch,"[(1040, 786)]",[],[1],[],horizontal,"(390.0, 262.0)",,"('cti', 1.408),nan",0,5083.779,0,0.02,0.25
0,397,catch,"[(1038, 807)]",[],[1],[],horizontal,"(390.0, 762.0)",1.6,nan,1,5088.482,1,0.02,0.25
0,398,target,"[(1057, 812)]",[],[1],[0.85],vertical,"(390.0, 262.0)",0.5666666666666667,nan,0,5093.628,0,0.02,0.25
0,399,catch,"[(1033, 808)]",[],[1],[],horizontal,"(890.0, 262.0)",1.6,nan,1,5097.761,1,0.02,0.25
0,400,target,"[(1047, 786)]",[],[1],[0.3],vertical,"(890.0, 762.0)",1.4333333333333333,0.257,1,5103.479,1,0.02,0.25
0,401,target,"[(1034, 808)]",[],[1],[0.85],horizontal,"(890.0, 262.0)",0.5833333333333334,nan,0,5108.319,0,0.02,0.25
0,402,target,"[(1036, 759)]",[],[1],[0.6],horizontal,"(890.0, 762.0)",1.35,0.56,1,5113.158,1,0.02,0.25
0,403,target,"[(1040, 842)]",[],[1],[0.85],horizontal,"(890.0, 762.0)",0.4166666666666667,nan,0,5150.211,0,0.02,0.25
0,404,target,"[(1030, 843)]",[],[1],[0.5333333333333333],vertical,"(890.0, 262.0)",1.0666666666666667,0.497,1,5155.417,1,0.02,0.25
0,405,target,"[(1033, 790)]",[],[1],[0.7],horizontal,"(890.0, 262.0)",0.7833333333333333,0.66,1,5161.232,1,0.02,0.25
0,406,catch,"[(1022, 783)]",[],[1],[],vertical,"(390.0, 262.0)",1.6,nan,1,5166.315,1,0.02,0.25
0,407,target,"[(1038, 800)]",[],[1],[0.65],horizontal,"(890.0, 762.0)",0.5,0.61,1,5171.619,2,0.02,0.25
0,408,target,"[(1036, 789)]",[],[1],[0.7],horizontal,"(390.0, 262.0)",0.45,0.653,1,5176.464,2,0.02,0.25
0,409,target,"[(1044, 789)]",[],[1],[],horizontal,"(890.0, 262.0)",,"('cti', 1.129)",0,5181.777,0,0.04,0.25
0,410,catch,"[(1034, 809)]",[],[1],[],vertical,"(390.0, 262.0)",1.6,nan,1,5186.356,1,0.04,0.25
0,411,target,"[(1057, 792)]",[],[1],[0.5333333333333333],vertical,"(390.0, 762.0)",1.3666666666666667,0.491,1,5191.43,1,0.04,0.25
0,412,target,"[(1036, 785)]",[],[1],[0.85],vertical,"(390.0, 762.0)",0.7166666666666667,nan,0,5196.859,0,0.04,0.25
0,413,catch,"[(1017, 812)]",[],[1],[],horizontal,"(890.0, 762.0)",1.6,nan,1,5201.23,1,0.04,0.25
0,414,catch,"[(1045, 768)]",[],[1],[],horizontal,"(390.0, 262.0)",1.6,nan,1,5206.334,1,0.04,0.25
0,415,target,"[(1054, 793)]",[],[1],[0.45],vertical,"(890.0, 762.0)",1.3333333333333333,0.414,1,5211.376,1,0.04,0.25
0,416,target,"[(1052, 775)]",[],[1],[0.5833333333333334],horizontal,"(390.0, 762.0)",0.95,0.542,1,5216.994,2,0.04,0.25
0,417,target,"[(1053, 783)]",[],[1],[0.6333333333333333],vertical,"(390.0, 762.0)",1.2833333333333332,0.589,1,5222.346,2,0.04,0.25
0,418,target,"[(1044, 770)]",[],[1],[0.6833333333333333],horizontal,"(890.0, 262.0)",0.35,0.641,1,5228.269,2,0.04,0.25
0,419,catch,"[(1053, 812)]",[],[1],[],vertical,"(890.0, 262.0)",1.6,nan,1,5233.581,2,0.04,0.25
0,420,target,"[(1033, 777)]",[],[1],[0.4166666666666667],horizontal,"(390.0, 262.0)",1.3166666666666667,0.376,1,5239.606,3,0.04,0.25
0,421,target,"[(1046, 790)]",[],[1],[0.6666666666666666],horizontal,"(390.0, 762.0)",1.0666666666666667,0.627,1,5245.895,3,0.04,0.25
0,422,target,"[(1037, 806)]",[],[1],[0.6333333333333333],horizontal,"(390.0, 262.0)",0.43333333333333335,0.59,1,5251.995,3,0.04,0.25
0,423,target,"[(1053, 812)]",[],[1],[0.85],vertical,"(390.0, 262.0)",1.1833333333333333,nan,0,5257.294,0,0.04,0.25
0,424,target,"[(1036, 779)]",[],[1],[0.65],vertical,"(390.0, 262.0)",1.0166666666666666,0.608,1,5262.011,1,0.04,0.25
0,425,target,"[(1035, 753), (1037, 828)]",[],"[0, 1]",[0.5833333333333334],horizontal,"(390.0, 262.0)",1.05,0.542,1,5267.211,1,0.04,0.25
0,426,target,"[(1035, 788)]",[],[1],[0.5166666666666666],vertical,"(890.0, 262.0)",1.5166666666666666,0.473,1,5273.727,1,0.04,0.25
0,427,target,"[(1048, 781)]",[],[1],[0.6166666666666667],horizontal,"(890.0, 262.0)",0.5,0.591,1,5278.943,2,0.04,0.25
0,428,target,"[(1053, 795)]",[],[1],[0.65],vertical,"(890.0, 762.0)",0.6,0.61,1,5284.46,2,0.04,0.25
0,429,target,"[(1040, 806)]",[],[1],[0.3833333333333333],vertical,"(390.0, 762.0)",1.4833333333333334,0.35,1,5289.69,2,0.04,0.25
0,430,target,"[(1055, 781)]",[],[1],[0.55],vertical,"(390.0, 262.0)",0.3833333333333333,0.506,1,5295.506,2,0.04,0.25
0,431,target,"[(1052, 808)]",[],[1],[0.6166666666666667],horizontal,"(390.0, 762.0)",0.5166666666666666,0.574,1,5300.494,3,0.04,0.25
0,432,target,"[(1038, 802)]",[],[1],[0.5666666666666667],horizontal,"(890.0, 762.0)",0.75,0.528,1,5305.896,3,0.04,0.25
0,433,target,"[(1040, 791)]",[],[1],[0.6],horizontal,"(390.0, 262.0)",0.75,0.557,1,5311.595,3,0.04,0.25
0,434,target,"[(1041, 773)]",[],[1],[0.5333333333333333],horizontal,"(890.0, 262.0)",0.9833333333333333,0.497,1,5316.929,3,0.04,0.25
0,435,target,"[(1046, 783)]",[],[1],[0.55],horizontal,"(390.0, 762.0)",0.65,0.507,1,5323.028,3,0.04,0.25
0,436,catch,"[(1033, 806)]",[],[1],[],horizontal,"(390.0, 262.0)",1.6,nan,1,5328.938,3,0.04,0.25
0,437,target,"[(1053, 792)]",[],[1],[0.7833333333333333],vertical,"(390.0, 762.0)",0.4166666666666667,0.738,1,5334.616,3,0.04,0.25
0,438,target,"[(1029, 785)]",[],[1],[0.55],vertical,"(890.0, 762.0)",0.4166666666666667,0.512,1,5340.087,3,0.04,0.25
0,439,target,"[(1057, 784)]",[],[1],[0.4166666666666667],vertical,"(390.0, 762.0)",1.2333333333333334,0.377,1,5345.129,3,0.04,0.25
0,440,target,"[(1034, 793)]",[],[1],[0.7166666666666667],vertical,"(390.0, 262.0)",0.6,0.672,1,5351.377,3,0.04,0.25
0,441,target,"[(1037, 808)]",[],[1],[0.55],vertical,"(890.0, 262.0)",0.6,0.516,1,5357.129,3,0.04,0.25
0,442,target,"[(1033, 773)]",[],[1],[0.7333333333333333],horizontal,"(390.0, 762.0)",0.7666666666666666,0.688,1,5362.924,3,0.04,0.25
0,443,target,"[(1032, 811)]",[],[1],[0.3],horizontal,"(890.0, 262.0)",1.5,0.263,1,5368.829,3,0.04,0.25
0,444,target,"[(1036, 781)]",[],[1],[0.5666666666666667],vertical,"(890.0, 762.0)",0.45,0.533,1,5375.649,3,0.04,0.25
0,445,target,"[(1036, 785)]",[],[1],[0.7166666666666667],horizontal,"(890.0, 262.0)",0.75,0.673,1,5381.167,3,0.04,0.25
0,446,target,"[(1053, 790)]",[],[1],[0.85],horizontal,"(390.0, 762.0)",0.6833333333333333,nan,0,5386.68,0,0.02,0.25
0,447,target,"[(1041, 792)]",[],[1],[0.7166666666666667],horizontal,"(390.0, 762.0)",1.05,0.673,1,5390.926,1,0.02,0.25
0,448,catch,"[(1037, 767)]",[],[1],[],horizontal,"(890.0, 762.0)",1.6,nan,1,5396.511,1,0.02,0.25
0,449,target,"[(1056, 803)]",[],[1],[0.5],vertical,"(390.0, 262.0)",1.35,0.458,1,5401.291,1,0.02,0.25
0,450,target,"[(1038, 773)]",[],[1],[0.6833333333333333],vertical,"(390.0, 762.0)",1.1833333333333333,0.637,1,5406.909,2,0.02,0.25
0,451,target,"[(1058, 786)]",[],[1],[0.7166666666666667],horizontal,"(390.0, 762.0)",0.7333333333333333,0.678,1,5412.412,2,0.02,0.25
0,452,target,"[(1057, 807)]",[],[1],[0.6666666666666666],horizontal,"(890.0, 762.0)",1.0833333333333333,0.618,1,5417.796,2,0.02,0.25
0,453,target,"[(1033, 787)]",[],[1],[0.6166666666666667],horizontal,"(390.0, 762.0)",0.48333333333333334,0.585,1,5423.516,2,0.02,0.25
0,454,target,"[(1052, 796)]",[],[1],[0.45],horizontal,"(390.0, 262.0)",1.3166666666666667,0.413,1,5428.962,3,0.02,0.25
0,455,target,"[(1058, 788)]",[],[1],[0.6666666666666666],vertical,"(390.0, 762.0)",0.8166666666666667,0.63,1,5435.243,3,0.02,0.25
0,456,target,"[(1033, 803)]",[],[1],[0.55],horizontal,"(390.0, 262.0)",1.0833333333333333,0.512,1,5440.917,3,0.02,0.25
0,457,target,"[(1036, 781)]",[],[1],[0.65],horizontal,"(890.0, 262.0)",0.6166666666666667,0.607,1,5447.129,3,0.02,0.25
0,458,target,"[(1037, 780)]",[],[1],[0.5666666666666667],vertical,"(890.0, 262.0)",1.1,0.523,1,5452.829,3,0.02,0.25
0,459,target,"[(1054, 802)]",[],[1],[0.85],vertical,"(890.0, 262.0)",0.6833333333333333,nan,0,5458.745,0,0.0,0.25
0,460,target,"[(1037, 809)]",[],[1],[0.5833333333333334],vertical,"(890.0, 762.0)",1.0,0.543,1,5463.46,1,0.0,0.25
0,461,target,"[(1040, 783)]",[],[1],[0.75],vertical,"(390.0, 262.0)",0.9833333333333333,0.706,1,5468.405,1,0.0,0.25
0,462,catch,"[(1039, 773)]",[],[1],[],vertical,"(390.0, 262.0)",1.6,nan,1,5473.811,1,0.0,0.25
0,463,target,"[(1057, 783)]",[],[1],[0.3833333333333333],vertical,"(390.0, 762.0)",1.4666666666666666,0.349,1,5478.977,2,0.0,0.25
0,464,target,"[(1039, 812)]",[],[1],[0.5],horizontal,"(890.0, 262.0)",1.25,0.457,1,5484.478,2,0.0,0.25
0,465,target,"[(1049, 779)]",[],[1],[0.85],horizontal,"(390.0, 762.0)",0.5666666666666667,nan,0,5490.263,0,0.0,0.25
0,466,catch,"[(1033, 810)]",[],[1],[],horizontal,"(390.0, 762.0)",1.6,nan,1,5494.762,1,0.0,0.25
0,467,target,"[(1057, 787)]",[],[1],[0.55],vertical,"(890.0, 262.0)",1.1333333333333333,0.508,1,5500.193,1,0.0,0.25
0,468,target,"[(1039, 798)]",[],[1],[0.85],vertical,"(390.0, 762.0)",1.4166666666666667,nan,0,5505.778,0,0.0,0.25
0,469,target,"[(1035, 787)]",[],[1],[0.5833333333333334],horizontal,"(890.0, 262.0)",1.5333333333333332,0.545,1,5510.72,1,0.0,0.25
0,470,target,"[(1036, 774)]",[],[1],[0.5833333333333334],vertical,"(890.0, 762.0)",0.48333333333333334,0.541,1,5516.327,1,0.0,0.25
0,471,target,"[(1045, 782)]",[],[1],[0.5833333333333334],horizontal,"(890.0, 762.0)",0.9833333333333333,0.539,1,5521.017,1,0.0,0.25
0,472,target,"[(1033, 788)]",[],[1],[0.6333333333333333],vertical,"(890.0, 762.0)",0.8,0.595,1,5526.228,2,0.0,0.25
0,473,catch,"[(1054, 790)]",[],[1],[],horizontal,"(890.0, 262.0)",1.6,nan,1,5531.578,2,0.0,0.25
0,474,target,"[(1038, 791)]",[],[1],[0.85],vertical,"(890.0, 762.0)",0.5666666666666667,nan,0,5537.162,0,0.0,0.25
0,475,catch,"[(1017, 788)]",[],[1],[],vertical,"(890.0, 262.0)",1.6,nan,1,5541.678,1,0.0,0.25
0,476,target,"[(1058, 807)]",[],[1],[0.6333333333333333],vertical,"(390.0, 762.0)",0.8166666666666667,0.587,1,5547.312,1,0.0,0.25
0,477,target,"[(1020, 787)]",[],[1],[0.3833333333333333],vertical,"(890.0, 262.0)",1.5166666666666666,0.347,1,5552.329,1,0.0,0.25
0,478,target,"[(1054, 767)]",[],[1],[0.6],vertical,"(890.0, 762.0)",0.4,0.558,1,5557.882,2,0.0,0.25
0,479,target,"[(1052, 767)]",[],[1],[0.5833333333333334],horizontal,"(390.0, 262.0)",0.6666666666666666,0.541,1,5562.879,2,0.0,0.25
0,480,target,"[(1054, 787)]",[],[1],[0.75],vertical,"(890.0, 762.0)",0.9666666666666667,0.706,1,5567.579,2,0.0,0.25
0,481,target,"[(1055, 799)]",[],[1],[0.5833333333333334],vertical,"(390.0, 762.0)",1.05,0.543,1,5573.23,2,0.0,0.25
0,482,target,"[(1054, 789)]",[],[1],[0.5833333333333334],vertical,"(890.0, 762.0)",1.1333333333333333,0.554,1,5578.504,3,0.0,0.25
0,483,target,"[(1054, 790)]",[],[1],[0.5333333333333333],horizontal,"(890.0, 262.0)",1.3166666666666667,0.496,1,5584.846,3,0.0,0.25
0,484,target,"[(1058, 783)]",[],[1],[0.5666666666666667],horizontal,"(390.0, 262.0)",0.36666666666666664,0.523,1,5590.868,3,0.0,0.25
0,485,catch,"[(1037, 801)]",[],[1],[],vertical,"(890.0, 762.0)",1.6,nan,1,5596.188,3,0.0,0.25
0,486,target,"[(1041, 806)]",[],[1],[0.85],horizontal,"(890.0, 762.0)",0.5666666666666667,nan,0,5601.922,0,0.0,0.25
0,487,target,"[(1033, 804)]",[],[1],[0.6166666666666667],horizontal,"(390.0, 262.0)",1.35,0.572,1,5606.189,1,0.0,0.25
0,488,target,"[(1046, 790)]",[],[1],[0.6666666666666666],vertical,"(890.0, 762.0)",0.5666666666666667,0.622,1,5612.145,1,0.0,0.25
0,489,target,"[(1053, 805)]",[],[1],[0.7],vertical,"(890.0, 262.0)",1.0666666666666667,0.662,1,5617.18,1,0.0,0.25
0,490,target,"[(1056, 805)]",[],[1],[0.5833333333333334],horizontal,"(390.0, 762.0)",1.1166666666666667,0.545,1,5622.33,2,0.0,0.25
0,491,target,"[(1037, 777)]",[],[1],[0.5666666666666667],horizontal,"(890.0, 762.0)",1.1666666666666667,0.526,1,5628.227,2,0.0,0.25
0,492,target,"[(1034, 770)]",[],[1],[0.55],horizontal,"(890.0, 262.0)",0.8833333333333333,0.512,1,5633.647,2,0.0,0.25
0,493,target,"[(1049, 779)]",[],[1],[0.85],vertical,"(390.0, 262.0)",0.6,nan,0,5639.113,0,0.0,0.25
0,494,target,"[(1037, 792)]",[],[1],[0.5833333333333334],horizontal,"(390.0, 762.0)",1.3166666666666667,0.546,1,5643.246,1,0.0,0.25
0,495,target,"[(1045, 784)]",[],[1],[0.85],horizontal,"(890.0, 262.0)",0.5,nan,0,5648.579,0,0.0,0.25
0,496,catch,"[(1034, 824)]",[],[1],[],horizontal,"(390.0, 262.0)",1.6,nan,1,5652.841,1,0.0,0.25
0,497,target,"[(1054, 802)]",[],[1],[0.6333333333333333],vertical,"(890.0, 762.0)",0.75,0.589,1,5677.463,1,0.0,0.25
0,498,target,"[(1017, 793)]",[],[1],[0.5333333333333333],horizontal,"(890.0, 762.0)",1.2833333333333332,0.492,1,5682.334,1,0.0,0.25
0,499,target,"[(1041, 798)]",[],[1],[0.85],horizontal,"(390.0, 762.0)",0.43333333333333335,nan,0,5687.816,0,0.0,0.25
0,500,catch,"[(1055, 787)]",[],[1],[],horizontal,"(890.0, 762.0)",1.6,nan,1,5692.296,1,0.0,0.25
0,501,target,"[(1057, 808)]",[],[1],[0.5666666666666667],horizontal,"(890.0, 762.0)",1.3666666666666667,0.526,1,5697.644,1,0.0,0.25
0,502,target,"[(1058, 800)]",[],[1],[0.6666666666666666],horizontal,"(390.0, 762.0)",1.1333333333333333,0.62,1,5703.141,1,0.0,0.25
0,503,catch,"[(1055, 782)]",[],[1],[],vertical,"(890.0, 762.0)",1.6,nan,1,5708.28,2,0.0,0.25
0,504,target,"[(1035, 787)]",[],[1],[0.7666666666666666],vertical,"(390.0, 762.0)",0.65,0.715,1,5713.662,2,0.0,0.25
0,505,target,"[(1052, 803)]",[],[1],[0.2],horizontal,"(390.0, 762.0)",1.5166666666666666,0.166,0,5719.439,0,0.0,0.25
0,506,target,"[(1033, 799)]",[],[1],[0.6],vertical,"(390.0, 762.0)",0.9833333333333333,0.557,1,5724.015,1,0.0,0.25
0,507,target,"[(1031, 811)]",[],[1],[0.6166666666666667],vertical,"(890.0, 262.0)",0.4666666666666667,0.574,1,5728.873,1,0.0,0.25
0,508,catch,"[(1056, 809)]",[],[1],[],horizontal,"(890.0, 262.0)",1.6,nan,1,5733.83,1,0.0,0.25
0,509,target,"[(1052, 790)]",[],[1],[0.6833333333333333],vertical,"(890.0, 762.0)",0.9333333333333333,0.641,1,5738.68,2,0.0,0.25
0,510,catch,"[(1042, 794)]",[],[1],[],vertical,"(390.0, 262.0)",1.6,nan,1,5744.029,2,0.0,0.25
0,511,target,"[(1055, 768)]",[],[1],[0.6666666666666666],vertical,"(390.0, 762.0)",1.0,0.621,1,5749.552,2,0.0,0.25
0,512,catch,"[(1057, 794)]",[],[1],[],vertical,"(390.0, 262.0)",1.6,nan,1,5755.139,2,0.0,0.25
0,513,target,"[(1057, 815)]",[],[1],[0.5],vertical,"(390.0, 262.0)",1.1833333333333333,0.457,1,5760.913,3,0.0,0.25
0,514,catch,"[(1057, 804)]",[],[1],[],vertical,"(390.0, 762.0)",1.6,nan,1,5767.276,3,0.0,0.25
0,515,target,"[(1056, 803)]",[],[1],[0.36666666666666664],vertical,"(390.0, 762.0)",1.5,0.326,1,5773.042,3,0.0,0.25
0,516,target,"[(1049, 787)]",[],[1],[0.85],horizontal,"(890.0, 762.0)",0.4,nan,0,5779.346,0,0.0,0.25
0,517,catch,"[(1028, 802)]",[],[1],[],vertical,"(890.0, 262.0)",1.6,nan,1,5783.835,1,0.0,0.25
0,518,catch,"[(1057, 796)]",[],[1],[],horizontal,"(390.0, 262.0)",1.6,nan,1,5788.762,1,0.0,0.25
0,519,target,"[(1057, 790)]",[],[1],[0.55],horizontal,"(390.0, 262.0)",0.8,0.5,1,5793.802,1,0.0,0.25
0,520,catch,"[(1057, 768)]",[],[1],[],horizontal,"(890.0, 262.0)",1.6,nan,1,5798.519,2,0.0,0.25
0,521,target,"[(1059, 777)]",[],[1],[0.5666666666666667],vertical,"(390.0, 762.0)",0.6,0.528,1,5804.322,2,0.0,0.25
0,522,target,"[(1052, 792)]",[],[1],[0.21666666666666667],horizontal,"(890.0, 762.0)",1.5166666666666666,0.178,0,5809.395,0,0.0,0.25
0,523,catch,"[(1029, 794)]",[],[1],[],vertical,"(390.0, 762.0)",1.6,nan,1,5814.064,1,0.0,0.25
0,524,target,"[(1033, 778)]",[],[1],[0.7166666666666667],vertical,"(390.0, 262.0)",0.4166666666666667,0.675,1,5819.196,1,0.0,0.25
0,525,target,"[(1054, 790)]",[],[1],[0.85],horizontal,"(390.0, 762.0)",0.7,nan,0,5824.361,0,0.0,0.25
0,526,target,"[(1026, 792)]",[],[1],[0.5833333333333334],vertical,"(890.0, 762.0)",0.9,0.535,1,5829.08,1,0.0,0.25
0,527,target,"[(1048, 778)]",[],[1],[0.65],horizontal,"(390.0, 262.0)",0.6,0.603,1,5834.33,1,0.0,0.25
0,528,target,"[(1055, 787)]",[],[1],[0.7333333333333333],vertical,"(390.0, 762.0)",1.1166666666666667,0.685,1,5839.131,1,0.0,0.25
0,529,target,"[(1047, 783)]",[],[1],[0.45],horizontal,"(890.0, 762.0)",1.3833333333333333,0.406,1,5844.311,2,0.0,0.25
0,530,target,"[(1057, 785)]",[],[1],[0.55],horizontal,"(390.0, 262.0)",1.3833333333333333,0.505,1,5849.829,2,0.0,0.25
0,531,catch,"[(1056, 799)]",[],[1],[],vertical,"(390.0, 762.0)",1.6,nan,1,5855.459,2,0.0,0.25
0,532,target,"[(1052, 812)]",[],[1],[0.85],vertical,"(390.0, 762.0)",0.8666666666666667,nan,0,5861.342,0,0.0,0.25
0,533,target,"[(1022, 797)]",[],[1],[0.8166666666666667],horizontal,"(890.0, 762.0)",0.5333333333333333,0.775,1,5865.909,1,0.0,0.25
0,534,target,"[(1029, 829)]",[],[1],[0.6666666666666666],horizontal,"(890.0, 762.0)",1.2,0.622,1,5870.705,1,0.0,0.25
0,535,catch,"[(1050, 808)]",[],[1],[],horizontal,"(390.0, 762.0)",1.6,nan,1,5880.214,1,0.0,0.25
0,536,target,"[(1032, 808)]",[],[1],[0.7166666666666667],horizontal,"(890.0, 262.0)",0.7166666666666667,0.678,1,5885.374,2,0.0,0.25
0,537,catch,"[(1060, 787)]",[],[1],[],horizontal,"(890.0, 762.0)",1.6,nan,1,5890.413,2,0.0,0.25
0,538,target,"[(1056, 802)]",[],[1],[0.5666666666666667],horizontal,"(390.0, 762.0)",1.0666666666666667,0.525,1,5895.947,2,0.0,0.25
0,539,target,"[(1055, 787)]",[],[1],[0.85],vertical,"(390.0, 762.0)",0.55,nan,0,5901.463,0,0.0,0.25
0,540,target,"[(1033, 776)]",[],[1],[0.6333333333333333],vertical,"(890.0, 762.0)",0.6,0.594,1,5906.047,1,0.0,0.25
0,541,target,"[(1029, 804)]",[],[1],[0.5],horizontal,"(390.0, 262.0)",1.2166666666666666,0.465,1,5910.813,1,0.0,0.25
0,542,catch,"[(1025, 827)]",[],[1],[],vertical,"(390.0, 262.0)",1.6,nan,1,5916.38,1,0.0,0.25
0,543,target,"[(1033, 793)]",[],[1],[0.5166666666666666],vertical,"(390.0, 262.0)",1.3,0.474,1,5921.947,2,0.0,0.25
0,544,target,"[(1057, 807)]",[],[1],[0.5333333333333333],vertical,"(890.0, 762.0)",0.5333333333333333,0.491,1,5928.113,2,0.0,0.25
0,545,target,"[(1037, 787)]",[],[1],[0.65],vertical,"(890.0, 762.0)",0.5166666666666666,0.606,1,5933.096,2,0.0,0.25
0,546,target,"[(1053, 780)]",[],[1],[0.85],vertical,"(890.0, 762.0)",0.5833333333333334,nan,0,5938.729,0,0.0,0.25
0,547,target,"[(1022, 782)]",[],[1],[0.5833333333333334],vertical,"(890.0, 762.0)",1.0833333333333333,0.54,1,5943.049,1,0.0,0.25
0,548,target,"[(1042, 787)]",[],[1],[0.5833333333333334],vertical,"(390.0, 262.0)",1.0,0.538,1,5947.95,1,0.0,0.25
0,549,target,"[(1049, 780)]",[],[1],[0.7],horizontal,"(890.0, 262.0)",0.7666666666666666,0.648,1,5953.129,1,0.0,0.25
0,550,target,"[(1017, 808)]",[],[1],[0.5833333333333334],horizontal,"(390.0, 262.0)",0.7,0.537,1,5958.251,2,0.0,0.25
0,551,target,"[(1050, 798)]",[],[1],[0.6666666666666666],vertical,"(390.0, 762.0)",0.5,0.622,1,5963.737,2,0.0,0.25
0,552,target,"[(1049, 797)]",[],[1],[0.85],horizontal,"(390.0, 762.0)",0.7,nan,0,5968.601,0,0.0,0.25
0,553,catch,"[(1028, 794)]",[],[1],[],horizontal,"(390.0, 262.0)",1.6,nan,1,5972.918,1,0.0,0.25
0,554,target,"[(1035, 769)]",[],[1],[0.6333333333333333],horizontal,"(390.0, 262.0)",1.2,0.586,1,5978.427,1,0.0,0.25
0,555,catch,"[(1038, 802)]",[],[1],[],vertical,"(390.0, 262.0)",1.6,nan,1,5983.771,1,0.0,0.25
0,556,target,"[(1033, 773)]",[],[1],[0.7166666666666667],horizontal,"(890.0, 262.0)",1.1333333333333333,0.667,1,5989.029,2,0.0,0.25
0,557,target,"[(1057, 792)]",[],[1],[0.55],vertical,"(890.0, 262.0)",1.4333333333333333,0.508,1,5994.319,2,0.0,0.25
0,558,target,"[(1065, 786)]",[],[1],[0.85],horizontal,"(890.0, 762.0)",0.7666666666666666,nan,0,6000.313,0,0.0,0.25
0,559,target,"[(1029, 788)]",[],[1],[0.3333333333333333],vertical,"(890.0, 262.0)",1.5333333333333332,0.297,1,6005.157,1,0.0,0.25
0,560,target,"[(1055, 773)]",[],[1],[0.85],horizontal,"(390.0, 762.0)",0.85,nan,0,6010.946,0,0.0,0.25
0,561,catch,"[(1025, 774)]",[],[1],[],horizontal,"(390.0, 262.0)",1.6,nan,1,6015.371,1,0.0,0.25
0,562,target,"[(1036, 776)]",[],[1],[0.85],vertical,"(890.0, 762.0)",0.4666666666666667,nan,0,6020.601,0,0.0,0.25
0,563,catch,"[(1033, 781)]",[],[1],[],horizontal,"(390.0, 762.0)",1.6,nan,1,6025.157,1,0.0,0.25
0,564,catch,"[(1063, 788)]",[],[1],[],horizontal,"(390.0, 262.0)",1.6,nan,1,6030.259,1,0.0,0.25
0,565,target,"[(1035, 791)]",[],[1],[0.85],vertical,"(890.0, 262.0)",0.9833333333333333,nan,0,6035.843,0,0.0,0.25
0,566,target,"[(1022, 776)]",[],[1],[0.5833333333333334],vertical,"(890.0, 262.0)",1.4166666666666667,0.539,1,6040.413,1,0.0,0.25
0,567,catch,"[(1057, 812)]",[],[1],[],vertical,"(390.0, 762.0)",1.6,nan,1,6046.23,1,0.0,0.25
0,568,target,"[(1055, 785)]",[],[1],[0.6166666666666667],vertical,"(390.0, 762.0)",1.2833333333333332,0.569,1,6051.12,1,0.0,0.25
0,569,catch,"[(1060, 792)]",[],[1],[],horizontal,"(890.0, 762.0)",1.6,nan,1,6056.48,2,0.0,0.25
0,570,target,"[(1061, 785)]",[],[1],[0.65],vertical,"(890.0, 262.0)",0.6166666666666667,0.608,1,6062.044,2,0.0,0.25
0,571,catch,"[(1052, 802)]",[],[1],[],vertical,"(890.0, 262.0)",1.6,nan,1,6067.496,2,0.0,0.25
0,572,target,"[(1051, 807)]",[],[1],[0.6333333333333333],vertical,"(390.0, 762.0)",0.8833333333333333,0.585,1,6073.032,2,0.0,0.25
0,573,catch,"[(1030, 796)]",[],[1],[],horizontal,"(390.0, 762.0)",1.6,nan,1,6078.48,3,0.0,0.25
0,574,target,"[(1033, 782)]",[],[1],[0.85],horizontal,"(890.0, 762.0)",0.4666666666666667,nan,0,6084.78,0,0.0,0.25
0,575,target,"[(1038, 801)]",[],[1],[0.85],vertical,"(390.0, 762.0)",0.5166666666666666,nan,0,6088.954,0,0.0,0.25
0,576,target,"[(1033, 769)]",[],[1],[0.5666666666666667],horizontal,"(890.0, 262.0)",1.25,0.528,1,6093.267,1,0.0,0.25
0,577,catch,"[(1052, 843)]",[],[1],[],vertical,"(890.0, 262.0)",1.6,nan,1,6098.914,1,0.0,0.25
0,578,target,"[(1042, 852)]",[],[1],[0.6333333333333333],vertical,"(890.0, 762.0)",1.3333333333333333,0.589,1,8671.52,1,0.0,0.25
0,579,catch,"[(1036, 787)]",[],[1],[],horizontal,"(390.0, 262.0)",1.6,nan,1,8677.821,2,0.0,0.25
0,580,target,"[(1061, 794)]",[],[1],[0.65],vertical,"(890.0, 262.0)",0.5833333333333334,0.607,1,8683.329,2,0.0,0.25
0,581,target,"[(1060, 790)]",[],[1],[0.5666666666666667],horizontal,"(890.0, 262.0)",1.25,0.523,1,8688.422,2,0.0,0.25
0,582,catch,"[(1057, 782)]",[],[1],[],vertical,"(390.0, 762.0)",1.6,nan,1,8694.108,2,0.0,0.25
0,583,catch,"[(1052, 807)]",[],[1],[],vertical,"(390.0, 762.0)",1.6,nan,1,8699.453,3,0.0,0.25
0,584,target,"[(1045, 802)]",[],[1],[0.6833333333333333],horizontal,"(390.0, 762.0)",0.48333333333333334,0.646,1,8705.342,3,0.0,0.25
0,585,target,"[(1052, 811)]",[],[1],[0.6333333333333333],vertical,"(390.0, 262.0)",1.0,0.59,1,8710.806,3,0.0,0.25
0,586,target,"[(1038, 777)]",[],[1],[0.65],vertical,"(890.0, 262.0)",0.7,0.605,1,8716.971,3,0.0,0.25
0,587,target,"[(1037, 758)]",[],[1],[0.6166666666666667],horizontal,"(890.0, 262.0)",1.1833333333333333,0.58,1,8722.604,3,0.0,0.25
0,588,catch,"[(1072, 762)]",[],[1],[],vertical,"(390.0, 762.0)",,"('cti', 1.555),nan",0,8728.578,0,0.02,0.25
0,589,catch,"[(1052, 789)]",[],[1],[],horizontal,"(390.0, 762.0)",1.6,nan,1,8733.122,1,0.02,0.25
0,590,catch,"[(1055, 770)]",[],[1],[],vertical,"(390.0, 262.0)",,"('cti', 1.412),nan",0,8737.822,0,0.04,0.25
0,591,target,"[(1030, 790)]",[],[1],[0.5833333333333334],vertical,"(890.0, 762.0)",0.7166666666666667,0.541,1,8742.752,1,0.04,0.25
0,592,catch,"[(1052, 782)]",[],[1],[],vertical,"(890.0, 762.0)",1.6,nan,1,8748.145,1,0.04,0.25
0,593,target,"[(1052, 797)]",[],[1],[0.45],horizontal,"(890.0, 262.0)",1.4666666666666666,0.406,1,8753.421,1,0.04,0.25
0,594,target,"[(1021, 798)]",[],[1],[0.6],vertical,"(890.0, 762.0)",0.7166666666666667,0.557,1,8758.988,2,0.04,0.25
0,595,target,"[(1021, 820)]",[],[1],[0.5833333333333334],vertical,"(890.0, 262.0)",0.9333333333333333,0.544,1,8771.313,2,0.04,0.25
0,596,target,"[(1053, 798)]",[],[1],[0.7166666666666667],horizontal,"(890.0, 762.0)",1.2,0.669,1,8776.571,2,0.04,0.25
0,597,target,"[(1052, 783)]",[],[1],[0.5166666666666666],vertical,"(890.0, 762.0)",0.6666666666666666,0.478,1,8782.088,2,0.04,0.25
0,598,target,"[(1046, 798)]",[],[1],[0.48333333333333334],horizontal,"(390.0, 262.0)",1.1666666666666667,0.44,1,8787.071,3,0.04,0.25
0,599,target,"[(1055, 773)]",[],[1],[0.6166666666666667],vertical,"(390.0, 762.0)",0.5166666666666666,0.571,1,8792.988,3,0.04,0.25
0,600,target,"[(1052, 786)]",[],[1],[0.5166666666666666],horizontal,"(390.0, 262.0)",0.9166666666666666,0.483,1,8798.62,3,0.04,0.25
0,601,catch,"[(1055, 784)]",[],[1],[],vertical,"(890.0, 262.0)",1.6,nan,1,8804.21,3,0.04,0.25
0,602,target,"[(1039, 766)]",[],[1],[0.5666666666666667],vertical,"(890.0, 262.0)",0.8666666666666667,0.523,1,8809.707,3,0.04,0.25
0,603,catch,"[(1052, 782)]",[],[1],[],vertical,"(390.0, 762.0)",,"('cti', 1.082),nan",0,8815.139,0,0.06,0.25
0,604,target,"[(1038, 800)]",[],[1],[0.4],vertical,"(390.0, 262.0)",1.1833333333333333,0.358,1,8819.355,1,0.06,0.25
0,605,catch,"[(1052, 794)]",[],[1],[],horizontal,"(890.0, 262.0)",,"('cti', 1.362),nan",0,8824.323,0,0.08,0.25
0,606,catch,"[(1047, 798)]",[],[1],[],horizontal,"(890.0, 762.0)",1.6,nan,1,8828.746,1,0.08,0.25
0,607,catch,"[(1046, 771)]",[],[1],[],vertical,"(890.0, 262.0)",1.6,"('cti', 1.601),nan",0,8834.027,0,0.1,0.25
0,608,target,"[(1025, 766)]",[],[1],[0.6166666666666667],vertical,"(390.0, 262.0)",1.0666666666666667,0.578,1,8838.573,1,0.1,0.25
0,609,target,"[(1051, 762)]",[],[1],[0.5166666666666666],horizontal,"(890.0, 262.0)",1.1833333333333333,0.474,1,8843.801,1,0.1,0.25
0,610,catch,"[(1052, 762)]",[],[1],[],vertical,"(890.0, 762.0)",1.6,nan,1,8849.087,1,0.1,0.25
0,611,target,"[(1054, 773)]",[],[1],[0.5666666666666667],vertical,"(890.0, 762.0)",1.0833333333333333,0.528,1,8854.038,2,0.1,0.25
0,612,target,"[(1052, 781)]",[],[1],[0.6],horizontal,"(390.0, 262.0)",0.7666666666666666,0.561,1,8859.638,2,0.1,0.25
0,613,catch,"[(1050, 762)]",[],[1],[],horizontal,"(890.0, 762.0)",,"('cti', 1.43),nan",0,8864.848,0,0.12,0.25
0,614,target,"[(1031, 778)]",[],[1],[0.85],vertical,"(390.0, 762.0)",0.3833333333333333,nan,0,8869.485,0,0.12,0.25
0,615,catch,"[(1052, 781)]",[],[1],[],vertical,"(390.0, 762.0)",1.6,nan,1,8873.639,1,0.12,0.25
0,616,target,"[(1054, 776)]",[],[1],[0.5166666666666666],horizontal,"(890.0, 762.0)",0.48333333333333334,0.484,1,8879.374,1,0.12,0.25
0,617,catch,"[(1061, 786)]",[],[1],[],vertical,"(890.0, 262.0)",1.6,nan,1,8883.503,1,0.12,0.25
0,618,target,"[(1048, 769)]",[],[1],[0.5833333333333334],vertical,"(890.0, 262.0)",0.45,0.549,1,8888.422,2,0.12,0.25
0,619,catch,"[(1033, 770)]",[],[1],[],vertical,"(890.0, 262.0)",,"('cti', 1.356),nan",0,8893.398,0,0.14,0.25
0,620,target,"[(1033, 804)]",[],[1],[0.55],horizontal,"(390.0, 762.0)",0.9,0.511,1,8898.262,1,0.14,0.25
0,621,target,"[(1033, 777)]",[],[1],[0.5166666666666666],vertical,"(890.0, 762.0)",0.9666666666666667,0.482,1,8903.121,1,0.14,0.25
0,622,target,"[(1046, 792)]",[],[1],[0.5],vertical,"(890.0, 762.0)",0.4166666666666667,0.468,1,8908.244,1,0.14,0.25
0,623,target,"[(1055, 792)]",[],[1],[0.5666666666666667],vertical,"(890.0, 262.0)",0.35,0.531,1,8912.439,2,0.14,0.25
0,624,target,"[(1054, 785)]",[],[1],[0.7333333333333333],horizontal,"(890.0, 262.0)",0.5,0.692,1,8917.258,2,0.14,0.25
0,625,target,"[(1041, 788)]",[],[1],[0.2],vertical,"(890.0, 262.0)",1.5333333333333332,0.168,0,8922.299,0,0.14,0.25
0,626,target,"[(1035, 779)]",[],[1],[0.4],vertical,"(890.0, 762.0)",1.3833333333333333,0.359,1,8926.943,1,0.14,0.25
0,627,target,"[(1049, 773)]",[],[1],[0.55],horizontal,"(390.0, 762.0)",1.0333333333333332,0.518,1,8932.059,1,0.14,0.25
0,628,target,"[(1050, 761)]",[],[1],[0.6333333333333333],horizontal,"(890.0, 262.0)",0.35,0.596,1,8936.992,1,0.14,0.25
0,629,target,"[(1052, 780)]",[],[1],[0.5166666666666666],vertical,"(390.0, 762.0)",0.4666666666666667,0.479,1,8941.687,2,0.14,0.25
0,630,target,"[(1036, 793)]",[],[1],[0.55],horizontal,"(890.0, 762.0)",0.7833333333333333,0.506,1,8946.778,2,0.14,0.25
0,631,target,"[(1052, 778)]",[],[1],[0.1],vertical,"(890.0, 762.0)",1.4166666666666667,0.069,0,8952.205,0,0.14,0.25
0,632,target,"[(1021, 837)]",[],[1],[],vertical,"(390.0, 262.0)",,"('cti', 0.77)",0,8956.522,0,0.16,0.25
0,633,catch,"[(1046, 792)]",[],[1],[0.03333333333333333],vertical,"(390.0, 762.0)",1.6,"0.019,nan",0,8963.69,0,0.18,0.25
0,634,catch,"[(1033, 795)]",[],[1],[],horizontal,"(390.0, 262.0)",1.6,nan,1,8968.418,1,0.18,0.25
0,635,target,"[(1069, 808)]",[],[1],[0.6],horizontal,"(890.0, 762.0)",0.5166666666666666,0.561,1,8973.264,1,0.18,0.25
0,636,target,"[(1056, 798)]",[],[1],[0.6333333333333333],vertical,"(890.0, 762.0)",0.65,0.589,1,8978.093,1,0.18,0.25
0,637,catch,"[(1055, 788)]",[],[1],[],vertical,"(390.0, 762.0)",1.6,nan,1,8983.059,2,0.18,0.25
0,638,target,"[(1054, 786)]",[],[1],[0.6166666666666667],horizontal,"(390.0, 262.0)",0.6166666666666667,0.576,1,8989.138,2,0.16,0.25
0,639,catch,"[(1058, 792)]",[],[1],[],horizontal,"(390.0, 762.0)",1.6,"('cti', 1.596),nan",0,8994.505,0,0.18,0.25
0,640,catch,"[(1053, 798)]",[],[1],[],horizontal,"(390.0, 762.0)",1.6,nan,1,8999.32,1,0.16,0.25
0,641,target,"[(1037, 817)]",[],[1],[0.6333333333333333],horizontal,"(890.0, 762.0)",0.4666666666666667,0.593,1,9004.466,1,0.16,0.25
0,642,target,"[(1052, 770)]",[],[1],[0.4],horizontal,"(390.0, 762.0)",1.1,0.357,1,9009.307,1,0.16,0.25
0,643,catch,"[(1052, 749), (1054, 807)]",[],"[0, 1]",[],vertical,"(890.0, 262.0)",1.6,nan,1,9014.69,2,0.16,0.25
0,644,target,"[(1046, 782)]",[],[1],[0.6],horizontal,"(890.0, 262.0)",1.0166666666666666,0.56,1,9021.24,2,0.16,0.25
0,645,target,"[(1055, 787)]",[],[1],[0.5333333333333333],vertical,"(390.0, 762.0)",0.8166666666666667,0.489,1,9026.315,2,0.16,0.25
0,646,catch,"[(1057, 778)]",[],[1],[],horizontal,"(390.0, 762.0)",,"('cti', 1.436),nan",0,9031.784,0,0.18,0.25
0,647,target,"[(1046, 782)]",[],[1],[0.3833333333333333],horizontal,"(390.0, 262.0)",1.4,0.345,1,9036.455,1,0.18,0.25
0,648,target,"[(1055, 778)]",[],[1],[0.5666666666666667],vertical,"(890.0, 262.0)",0.75,0.522,1,9041.906,1,0.18,0.25
0,649,target,"[(1058, 778)]",[],[1],[0.55],horizontal,"(390.0, 262.0)",0.5,0.508,1,9046.768,1,0.18,0.25
0,650,target,"[(1057, 788)]",[],[1],[0.3833333333333333],vertical,"(890.0, 762.0)",1.25,0.348,1,9050.905,2,0.18,0.25
0,651,target,"[(1055, 789)]",[],[1],[0.1],vertical,"(390.0, 762.0)",1.5166666666666666,0.068,0,9056.778,0,0.18,0.25
0,652,target,"[(1042, 792)]",[],[1],[0.5],horizontal,"(890.0, 262.0)",0.75,0.462,1,9061.679,1,0.18,0.25
0,653,target,"[(1052, 782)]",[],[1],[0.55],vertical,"(390.0, 762.0)",0.8166666666666667,0.507,1,9066.257,1,0.16,0.25
0,654,target,"[(1052, 783)]",[],[1],[0.5333333333333333],horizontal,"(890.0, 262.0)",1.0833333333333333,0.491,1,9071.089,1,0.16,0.25
0,655,catch,"[(1052, 789)]",[],[1],[],horizontal,"(390.0, 262.0)",1.6,nan,1,9076.289,2,0.14,0.25
0,656,target,"[(1053, 780)]","[(1002, 854)]",[1],[0.31666666666666665],horizontal,"(890.0, 762.0)",,"('bar', 0.334)",0,9082.054,0,0.14,0.25
0,657,catch,"[(1033, 808)]",[],[1],[],horizontal,"(390.0, 762.0)",,"('cti', 1.543),nan",0,9084.746,0,0.14,0.25
0,658,target,"[(1041, 779)]",[],[1],[0.55],horizontal,"(890.0, 762.0)",0.75,0.508,1,9089.39,1,0.14,0.25
0,659,target,"[(1030, 782)]",[],[1],[0.48333333333333334],vertical,"(890.0, 262.0)",1.3833333333333333,0.443,1,9093.91,1,0.14,0.25
0,660,target,"[(1032, 803)]",[],[1],[0.5833333333333334],vertical,"(390.0, 762.0)",0.75,0.542,1,9098.973,1,0.14,0.25
0,661,target,"[(1065, 792)]",[],[1],[0.23333333333333334],vertical,"(890.0, 262.0)",1.4166666666666667,0.2,1,9104.416,2,0.14,0.25
0,662,catch,"[(1045, 802)]",[],[1],[],vertical,"(890.0, 762.0)",1.6,nan,1,9110.09,2,0.14,0.25
0,663,target,"[(1061, 802)]",[],[1],[0.35],vertical,"(890.0, 262.0)",1.35,0.311,1,9115.256,2,0.12,0.25
0,664,catch,"[(1055, 783)]",[],[1],[],horizontal,"(890.0, 262.0)",1.6,nan,1,9120.622,2,0.12,0.25
0,665,catch,"[(1038, 807)]",[],[1],[],vertical,"(390.0, 262.0)",1.6,nan,1,9126.334,3,0.12,0.25
0,666,target,"[(1056, 793)]",[],[1],[0.6333333333333333],horizontal,"(890.0, 762.0)",0.5333333333333333,0.59,1,9195.14,3,0.12,0.25
0,667,target,"[(1042, 805)]",[],[1],[0.4166666666666667],vertical,"(890.0, 762.0)",1.3,0.377,1,9200.858,3,0.12,0.25
0,668,catch,"[(1033, 815)]",[],[1],[],horizontal,"(390.0, 262.0)",,"('cti', 1.246),nan",0,9206.44,0,0.14,0.25
0,669,target,"[(1049, 798)]",[],[1],[0.5166666666666666],horizontal,"(890.0, 762.0)",0.8833333333333333,0.478,1,9211.057,1,0.12,0.25
0,670,target,"[(1052, 802)]",[],[1],[0.5333333333333333],horizontal,"(890.0, 762.0)",1.1,0.495,1,9215.624,1,0.12,0.25
0,671,target,"[(1054, 796)]",[],[1],[0.25],vertical,"(390.0, 262.0)",1.4666666666666666,0.213,1,9220.872,1,0.12,0.25
0,672,catch,"[(1056, 780)]",[],[1],[],vertical,"(890.0, 262.0)",1.6,nan,1,9226.203,2,0.12,0.25
0,673,target,"[(1055, 792)]",[],[1],[0.55],vertical,"(390.0, 262.0)",0.6,0.517,1,9232.119,2,0.12,0.25
0,674,target,"[(1041, 777)]",[],[1],[0.5666666666666667],vertical,"(890.0, 762.0)",1.0166666666666666,0.525,1,9237.124,2,0.12,0.25
0,675,target,"[(1068, 774)]",[],[1],[0.5666666666666667],horizontal,"(390.0, 762.0)",0.95,0.523,1,9242.678,2,0.12,0.25
0,676,catch,"[(1060, 801)]",[],[1],[],horizontal,"(890.0, 762.0)",1.6,nan,1,9248.29,3,0.12,0.25
0,677,target,"[(1052, 789)]",[],[1],[0.5166666666666666],vertical,"(890.0, 762.0)",0.43333333333333335,0.479,1,9254.626,3,0.12,0.25
0,678,target,"[(1039, 791)]",[],[1],[0.4666666666666667],horizontal,"(890.0, 262.0)",0.9333333333333333,0.426,1,9259.891,3,0.12,0.25
0,679,target,"[(1054, 771)]",[],[1],[0.5833333333333334],horizontal,"(390.0, 262.0)",0.7833333333333333,0.539,1,9265.55,3,0.12,0.25
0,680,target,"[(1039, 763)]",[],[1],[0.5166666666666666],vertical,"(890.0, 262.0)",0.55,0.475,1,9270.819,3,0.12,0.25
0,681,target,"[(1038, 772)]",[],[1],[0.85],horizontal,"(390.0, 262.0)",0.43333333333333335,nan,0,9275.991,0,0.12,0.25
0,682,target,"[(1053, 781)]",[],[1],[0.3],horizontal,"(390.0, 762.0)",1.45,0.26,1,9280.174,1,0.1,0.25
0,683,target,"[(1049, 788)]",[],[1],[0.31666666666666665],vertical,"(890.0, 262.0)",1.4166666666666667,0.278,1,9285.558,1,0.08,0.25
0,684,target,"[(1053, 778)]",[],[1],[0.5333333333333333],vertical,"(890.0, 762.0)",0.3833333333333333,0.495,1,9290.757,1,0.08,0.25
0,685,catch,"[(1034, 786)]",[],[1],[],vertical,"(390.0, 762.0)",1.6,nan,1,9294.823,2,0.08,0.25
0,686,target,"[(1043, 786)]",[],[1],[0.2833333333333333],vertical,"(390.0, 262.0)",1.2,0.246,1,9300.606,2,0.08,0.25
0,687,target,"[(1034, 779)]",[],[1],[0.5166666666666666],vertical,"(390.0, 262.0)",0.35,0.476,1,9305.758,2,0.08,0.25
0,688,target,"[(1055, 794)]",[],[1],[0.5166666666666666],vertical,"(890.0, 762.0)",1.3166666666666667,0.474,1,9310.446,2,0.08,0.25
0,689,target,"[(1055, 784)]",[],[1],[0.6333333333333333],horizontal,"(890.0, 262.0)",0.7166666666666667,0.593,1,9316.305,3,0.06,0.25
0,690,target,"[(1051, 785)]",[],[1],[0.7],vertical,"(890.0, 762.0)",0.36666666666666664,0.654,1,9321.907,3,0.06,0.25
0,691,catch,"[(1054, 791)]",[],[1],[],vertical,"(390.0, 762.0)",1.6,nan,1,9327.024,3,0.06,0.25
0,692,target,"[(1056, 782)]",[],[1],[0.5833333333333334],horizontal,"(390.0, 762.0)",0.6833333333333333,0.536,1,9333.205,3,0.06,0.25
0,693,target,"[(1041, 778)]",[],[1],[0.6],vertical,"(390.0, 762.0)",0.4666666666666667,0.553,1,9338.869,3,0.06,0.25
0,694,target,"[(1037, 782)]",[],[1],[0.2],vertical,"(390.0, 762.0)",1.3,0.166,0,9344.564,0,0.06,0.25
0,695,target,"[(1047, 801)]",[],[1],[0.5333333333333333],vertical,"(390.0, 262.0)",0.43333333333333335,0.488,1,9349.439,1,0.06,0.25
0,696,target,"[(1051, 756)]",[],[1],[0.7],horizontal,"(890.0, 262.0)",0.6666666666666666,0.65,1,9354.106,1,0.04,0.25
0,697,target,"[(1040, 766)]",[],[1],[0.5333333333333333],horizontal,"(390.0, 262.0)",0.6333333333333333,0.502,1,9359.04,1,0.04,0.25
0,698,target,"[(1057, 768)]",[],[1],[0.23333333333333334],vertical,"(390.0, 762.0)",1.35,0.2,1,9363.453,2,0.04,0.25
0,699,target,"[(1056, 783)]",[],[1],[0.5],horizontal,"(890.0, 762.0)",0.3833333333333333,0.463,1,9369.007,2,0.04,0.25
0,700,catch,"[(1057, 768)]",[],[1],[],vertical,"(890.0, 262.0)",,"('cti', 1.474),nan",0,9373.623,0,0.06,0.25
0,701,target,"[(1040, 795)]",[],[1],[0.4666666666666667],horizontal,"(390.0, 262.0)",1.4,0.425,1,9378.39,1,0.06,0.25
0,702,target,"[(1041, 786)]",[],[1],[0.6666666666666666],horizontal,"(890.0, 262.0)",0.9,0.612,1,9383.641,1,0.06,0.25
0,703,catch,"[(1056, 786)]",[],[1],[],vertical,"(890.0, 262.0)",,"('cti', 1.39),nan",0,9388.593,0,0.08,0.25
0,704,catch,"[(1033, 804)]",[],[1],[],vertical,"(390.0, 262.0)",,"('cti', 1.267),nan",0,9393.473,0,0.1,0.25
0,705,catch,"[(1034, 792)]",[],[1],[],horizontal,"(890.0, 762.0)",,"('cti', 1.531),nan",0,9398.022,0,0.12,0.25
0,706,target,"[(1057, 781)]",[],[1],[0.5833333333333334],horizontal,"(890.0, 262.0)",0.65,0.54,1,9402.498,1,0.12,0.25
0,707,catch,"[(1061, 803)]",[],[1],[],horizontal,"(890.0, 762.0)",1.6,nan,1,9407.249,1,0.1,0.25
0,708,target,"[(1041, 769)]",[],[1],[0.7166666666666667],horizontal,"(390.0, 762.0)",0.7833333333333333,0.666,1,9412.24,1,0.1,0.25
0,709,catch,"[(1054, 795)]",[],[1],[],vertical,"(890.0, 262.0)",1.6,nan,1,9417.509,2,0.1,0.25
0,710,target,"[(1058, 798)]",[],[1],[0.55],vertical,"(890.0, 262.0)",1.2333333333333334,0.513,1,9423.008,2,0.1,0.25
0,711,target,"[(1047, 789)]",[],[1],[0.85],horizontal,"(890.0, 762.0)",0.6666666666666666,nan,0,9428.723,0,0.1,0.25
0,712,target,"[(1055, 802)]",[],[1],[0.7166666666666667],vertical,"(890.0, 262.0)",0.45,0.662,1,9433.174,1,0.1,0.25
0,713,target,"[(1036, 798)]",[],[1],[0.85],horizontal,"(390.0, 762.0)",0.5833333333333334,nan,0,9437.764,0,0.1,0.25
0,714,target,"[(1053, 786)]",[],[1],[],horizontal,"(390.0, 762.0)",,"('cti', 1.158)",0,9441.889,0,0.12,0.25
0,715,catch,"[(1038, 808)]",[],[1],[],horizontal,"(890.0, 262.0)",1.6,nan,1,9446.229,1,0.12,0.25
0,716,target,"[(1036, 776)]",[],[1],[0.55],vertical,"(890.0, 762.0)",0.6666666666666666,0.507,1,9451.517,1,0.12,0.25
0,717,catch,"[(1057, 785)]",[],[1],[],horizontal,"(390.0, 762.0)",,"('cti', 1.536),nan",0,9455.886,0,0.14,0.25
0,718,catch,"[(1056, 800)]",[],[1],[],vertical,"(890.0, 262.0)",1.6,nan,1,9460.269,1,0.12,0.25
0,719,catch,"[(1035, 785)]",[],[1],[],horizontal,"(390.0, 762.0)",1.6,nan,1,9465.292,1,0.12,0.25
0,720,target,"[(1050, 794)]",[],[1],[0.5833333333333334],vertical,"(390.0, 762.0)",0.3833333333333333,0.538,1,9470.487,1,0.12,0.25
0,721,target,"[(1038, 778)]",[],[1],[0.6],vertical,"(890.0, 262.0)",0.6666666666666666,0.557,1,9475.059,2,0.12,0.25
0,722,target,"[(1055, 780)]",[],[1],[0.48333333333333334],horizontal,"(390.0, 262.0)",1.0833333333333333,0.44,1,9480.408,2,0.12,0.25
0,723,target,"[(1055, 802)]",[],[1],[0.5833333333333334],vertical,"(890.0, 762.0)",1.3333333333333333,0.537,1,9486.073,2,0.12,0.25
0,724,target,"[(1053, 791)]",[],[1],[0.5166666666666666],vertical,"(390.0, 262.0)",0.43333333333333335,0.475,1,9491.946,2,0.12,0.25
0,725,catch,"[(1053, 794)]",[],[1],[],vertical,"(890.0, 262.0)",,"('cti', 1.534),nan",0,9496.942,0,0.14,0.25
0,726,target,"[(1037, 795)]",[],[1],[0.6166666666666667],vertical,"(390.0, 762.0)",0.8666666666666667,0.574,1,9501.759,1,0.14,0.25
0,727,target,"[(1057, 813)]",[],[1],[0.6166666666666667],vertical,"(890.0, 262.0)",0.9333333333333333,0.572,1,9506.82,1,0.14,0.25
0,728,target,"[(1040, 764)]",[],[1],[0.35],horizontal,"(890.0, 762.0)",1.2833333333333332,0.318,1,9511.979,1,0.14,0.25
0,729,target,"[(1054, 799)]",[],[1],[0.3833333333333333],vertical,"(390.0, 262.0)",1.2,0.344,1,9517.082,2,0.14,0.25
0,730,target,"[(1059, 777)]",[],[1],[0.5666666666666667],vertical,"(390.0, 762.0)",1.1,0.519,1,9522.82,2,0.14,0.25
0,731,target,"[(1053, 798)]",[],[1],[0.5666666666666667],horizontal,"(390.0, 262.0)",0.5666666666666667,0.528,1,9528.498,2,0.14,0.25
0,732,target,"[(1040, 811)]",[],[1],[0.2833333333333333],vertical,"(890.0, 262.0)",1.5166666666666666,0.248,1,9533.458,2,0.14,0.25
0,733,target,"[(1056, 789)]",[],[1],[0.55],horizontal,"(890.0, 262.0)",1.0833333333333333,0.511,1,9539.09,3,0.14,0.25
0,734,catch,"[(1045, 783)]",[],[1],[],vertical,"(390.0, 262.0)",1.6,nan,1,9545.274,3,0.14,0.25
0,735,catch,"[(1060, 792)]",[],[1],[],vertical,"(890.0, 262.0)",1.6,"('cti', 1.582),nan",0,9550.909,0,0.16,0.25
0,736,catch,"[(1035, 785)]",[],[1],[],vertical,"(890.0, 262.0)",1.6,nan,1,9555.896,1,0.16,0.25
0,737,target,"[(1061, 782)]",[],[1],[0.5833333333333334],vertical,"(890.0, 762.0)",0.6666666666666666,0.536,1,9561.153,1,0.16,0.25
0,738,target,"[(1037, 768)]",[],[1],[0.5666666666666667],vertical,"(890.0, 262.0)",0.85,0.525,1,9565.539,1,0.16,0.25
0,739,target,"[(1055, 777)]",[],[1],[0.6833333333333333],vertical,"(390.0, 262.0)",0.4166666666666667,0.638,1,9570.541,2,0.16,0.25
0,740,target,"[(1039, 794)]",[],[1],[0.55],horizontal,"(390.0, 262.0)",1.1166666666666667,0.51,1,9575.908,2,0.16,0.25
0,741,target,"[(1054, 763)]",[],[1],[0.35],vertical,"(390.0, 262.0)",1.3,0.311,1,9581.208,2,0.16,0.25
0,742,target,"[(1055, 789)]",[],[1],[0.5166666666666666],horizontal,"(890.0, 262.0)",0.9,0.473,1,9586.658,2,0.16,0.25
0,743,target,"[(1051, 785)]",[],[1],[],vertical,"(390.0, 762.0)",,"('cti', 1.489)",0,9591.775,0,0.18,0.25
0,744,target,"[(1041, 787)]",[],[1],[0.45],horizontal,"(890.0, 762.0)",1.2,0.405,1,9596.363,1,0.18,0.25
0,745,target,"[(1054, 781)]",[],[1],[0.6666666666666666],vertical,"(890.0, 762.0)",1.1,0.618,1,9601.369,1,0.18,0.25
0,746,target,"[(1058, 798)]",[],[1],[0.4666666666666667],horizontal,"(390.0, 762.0)",1.3,0.428,1,9606.59,1,0.18,0.25
0,747,target,"[(1055, 784)]",[],[1],[0.5166666666666666],horizontal,"(390.0, 262.0)",0.36666666666666664,0.471,1,9611.703,2,0.18,0.25
0,748,target,"[(1053, 772)]",[],[1],[0.16666666666666666],horizontal,"(890.0, 262.0)",1.4333333333333333,0.132,0,9616.524,0,0.18,0.25
0,749,target,"[(1039, 794)]",[],[1],[0.55],horizontal,"(890.0, 262.0)",0.75,0.504,1,9621.265,1,0.18,0.25
0,750,target,"[(1040, 773)]",[],[1],[0.21666666666666667],vertical,"(890.0, 262.0)",1.5,0.179,0,9626.245,0,0.16,0.25
0,751,target,"[(1037, 786)]",[],[1],[0.3],vertical,"(390.0, 262.0)",1.5166666666666666,0.263,1,9631.034,1,0.16,0.25
0,752,catch,"[(1037, 793)]",[],[1],[],vertical,"(890.0, 262.0)",1.6,nan,1,9636.068,1,0.16,0.25
0,753,target,"[(1041, 775)]",[],[1],[0.55],horizontal,"(890.0, 262.0)",0.6333333333333333,0.514,1,9640.824,1,0.14,0.25
0,754,catch,"[(1060, 763)]",[],[1],[],vertical,"(890.0, 762.0)",,"('cti', 1.494),nan",0,9645.309,0,0.14,0.25
0,755,target,"[(1037, 793)]",[],[1],[0.3],horizontal,"(890.0, 262.0)",1.45,0.269,1,9650.108,1,0.12,0.25
0,756,target,"[(1037, 782)]",[],[1],[0.5666666666666667],horizontal,"(890.0, 262.0)",0.7666666666666666,0.525,1,9655.332,1,0.12,0.25
0,757,target,"[(1044, 779)]",[],[1],[0.6],horizontal,"(390.0, 262.0)",1.1833333333333333,0.558,1,9659.858,1,0.12,0.25
0,758,target,"[(1049, 791)]",[],[1],[0.5333333333333333],vertical,"(890.0, 262.0)",1.1833333333333333,0.486,1,9665.042,2,0.12,0.25
0,759,target,"[(1058, 802)]",[],[1],[0.5333333333333333],horizontal,"(390.0, 762.0)",1.1333333333333333,0.491,1,9670.801,2,0.12,0.25
0,760,target,"[(1064, 796)]",[],[1],[0.7],vertical,"(890.0, 262.0)",0.9,0.657,1,9676.215,2,0.12,0.25
0,761,target,"[(1061, 790)]",[],[1],[0.26666666666666666],horizontal,"(390.0, 762.0)",1.4166666666666667,0.227,1,9681.88,2,0.12,0.25
0,762,target,"[(1055, 790)]",[],[1],[0.55],horizontal,"(890.0, 762.0)",1.0833333333333333,0.509,1,9687.794,3,0.12,0.25
0,763,target,"[(1039, 787)]",[],[1],[0.6666666666666666],vertical,"(390.0, 762.0)",0.45,0.619,1,9694.095,3,0.12,0.25
0,764,target,"[(1041, 788)]",[],[1],[0.5333333333333333],vertical,"(890.0, 262.0)",0.5333333333333333,0.497,1,9699.82,3,0.1,0.25
0,765,target,"[(1055, 803)]",[],[1],[0.05],vertical,"(890.0, 762.0)",1.3,0.019,0,9705.041,0,0.1,0.25
0,766,catch,"[(1051, 793)]",[],[1],[],horizontal,"(890.0, 262.0)",1.6,nan,1,9709.771,1,0.1,0.25
0,767,catch,"[(1050, 782)]",[],[1],[],horizontal,"(890.0, 262.0)",1.6,nan,1,9714.971,1,0.08,0.25
0,768,catch,"[(1043, 770)]",[],[1],[],vertical,"(390.0, 262.0)",1.6,nan,1,9720.313,1,0.08,0.25
0,769,target,"[(1053, 781)]",[],[1],[0.5333333333333333],horizontal,"(390.0, 762.0)",1.1333333333333333,0.492,1,9725.496,2,0.08,0.25
0,770,catch,"[(1045, 780)]",[],[1],[],vertical,"(390.0, 262.0)",1.6,nan,1,9731.142,2,0.08,0.25
0,771,catch,"[(1055, 790)]",[],[1],[],horizontal,"(890.0, 762.0)",1.6,nan,1,9736.592,2,0.08,0.25
0,772,target,"[(1048, 792)]",[],[1],[0.36666666666666664],vertical,"(390.0, 762.0)",1.45,0.328,1,9742.274,2,0.08,0.25
0,773,target,"[(1061, 801)]",[],[1],[0.6333333333333333],vertical,"(890.0, 262.0)",0.8166666666666667,0.594,1,9748.041,3,0.08,0.25
0,774,target,"[(1053, 787)]",[],[1],[0.3],horizontal,"(890.0, 762.0)",1.35,0.265,1,9753.701,3,0.08,0.25
0,775,target,"[(1052, 779)]",[],[1],[0.7],horizontal,"(890.0, 262.0)",0.6666666666666666,0.658,1,9759.71,3,0.06,0.25
0,776,target,"[(1049, 795)]",[],[1],[0.6833333333333333],horizontal,"(890.0, 762.0)",0.9833333333333333,0.64,1,9765.397,3,0.06,0.25
0,777,target,"[(1043, 798)]",[],[1],[0.5166666666666666],horizontal,"(390.0, 262.0)",0.8,0.472,1,9771.434,3,0.06,0.25
0,778,catch,"[(1040, 773)]",[],[1],[],horizontal,"(890.0, 762.0)",1.6,"('cti', 1.592),nan",0,9777.137,0,0.08,0.25
0,779,target,"[(1037, 790)]",[],[1],[0.5166666666666666],horizontal,"(390.0, 762.0)",1.35,0.474,1,9781.491,1,0.08,0.25
0,780,catch,"[(1051, 787)]",[],[1],[],horizontal,"(890.0, 762.0)",1.6,nan,1,9786.552,1,0.08,0.25
0,781,target,"[(1037, 782)]",[],[1],[0.5833333333333334],horizontal,"(890.0, 762.0)",0.6333333333333333,0.545,1,9791.768,1,0.08,0.25
0,782,target,"[(1052, 781)]",[],[1],[0.5666666666666667],horizontal,"(390.0, 762.0)",0.8833333333333333,0.524,1,9796.588,2,0.08,0.25
0,783,target,"[(1035, 776)]",[],[1],[0.55],vertical,"(890.0, 262.0)",0.5166666666666666,0.508,1,9801.875,2,0.08,0.25
0,784,catch,"[(1055, 795)]",[],[1],[],horizontal,"(890.0, 762.0)",1.6,nan,1,9806.679,2,0.08,0.25
0,785,target,"[(1053, 795)]",[],[1],[0.6166666666666667],vertical,"(390.0, 762.0)",0.9,0.578,1,9812.352,2,0.06,0.25
0,786,target,"[(1053, 791)]",[],[1],[0.5333333333333333],horizontal,"(890.0, 262.0)",0.5166666666666666,0.491,1,9817.427,3,0.06,0.25
0,787,target,"[(1037, 792)]",[],[1],[0.26666666666666666],vertical,"(890.0, 762.0)",1.4333333333333333,0.233,1,9822.543,3,0.06,0.25
0,788,target,"[(1052, 786)]",[],[1],[0.85],vertical,"(390.0, 262.0)",0.45,nan,0,9828.225,0,0.06,0.25
0,789,target,"[(1033, 798)]",[],[1],[0.6666666666666666],vertical,"(390.0, 762.0)",0.85,0.622,1,9832.658,1,0.06,0.25
0,790,target,"[(1035, 781)]",[],[1],[0.55],vertical,"(890.0, 762.0)",0.7833333333333333,0.508,1,9837.884,1,0.06,0.25
0,791,catch,"[(1054, 778)]",[],[1],[],vertical,"(890.0, 762.0)",1.6,nan,1,9842.644,1,0.06,0.25
0,792,target,"[(1049, 790)]",[],[1],[0.6],horizontal,"(890.0, 762.0)",0.48333333333333334,0.563,1,9847.458,2,0.06,0.25
0,793,target,"[(1026, 791)]",[],[1],[0.5833333333333334],horizontal,"(890.0, 262.0)",0.8,0.545,1,9852.602,2,0.04,0.25
0,794,target,"[(1061, 804)]",[],[1],[0.5666666666666667],horizontal,"(890.0, 762.0)",0.5833333333333334,0.53,1,9857.691,2,0.04,0.25
0,795,target,"[(1041, 789)]",[],[1],[0.55],horizontal,"(390.0, 762.0)",0.6833333333333333,0.512,1,9862.391,2,0.04,0.25
0,796,target,"[(1070, 767)]",[],[1],[0.5],vertical,"(890.0, 262.0)",0.8333333333333334,0.46,1,9867.518,3,0.04,0.25
0,797,target,"[(1036, 791)]",[],[1],[0.26666666666666666],vertical,"(890.0, 762.0)",1.4,0.233,1,9873.208,3,0.04,0.25
0,798,target,"[(1037, 776)]",[],[1],[0.55],vertical,"(890.0, 762.0)",0.75,0.506,1,9879.025,3,0.04,0.25
0,799,target,"[(1033, 778)]",[],[1],[0.6166666666666667],vertical,"(890.0, 262.0)",1.2666666666666666,0.575,1,9884.863,3,0.04,0.25
0,800,target,"[(1042, 787)]",[],[1],[0.16666666666666666],horizontal,"(890.0, 262.0)",1.4333333333333333,0.134,0,9890.941,0,0.04,0.25
0,801,catch,"[(1033, 795)]",[],[1],[],horizontal,"(890.0, 262.0)",,"('cti', 1.323),nan",0,9895.7,0,0.06,0.25
0,802,target,"[(1041, 782)]",[],[1],[0.5833333333333334],vertical,"(890.0, 262.0)",0.43333333333333335,0.54,1,9900.542,1,0.06,0.25
0,803,target,"[(1054, 782)]",[],[1],[0.6833333333333333],vertical,"(890.0, 262.0)",0.8166666666666667,0.642,1,9904.891,1,0.06,0.25
0,804,target,"[(1053, 787)]",[],[1],[0.4],vertical,"(390.0, 762.0)",1.3833333333333333,0.366,1,9909.526,1,0.04,0.25
0,805,target,"[(1037, 782)]",[],[1],[0.5166666666666666],vertical,"(390.0, 262.0)",0.48333333333333334,0.482,1,9914.745,2,0.04,0.25
0,806,catch,"[(1037, 783)]",[],[1],[],horizontal,"(390.0, 262.0)",1.6,nan,1,9919.423,2,0.04,0.25
0,807,target,"[(1063, 792)]",[],[1],[0.36666666666666664],vertical,"(890.0, 762.0)",1.3,0.325,1,9924.846,2,0.04,0.25
0,808,target,"[(1055, 793)]",[],[1],[0.85],vertical,"(890.0, 762.0)",0.5333333333333333,nan,0,9930.551,0,0.04,0.25
0,809,target,"[(1033, 780)]",[],[1],[0.45],horizontal,"(390.0, 762.0)",1.3166666666666667,0.412,1,9934.9,1,0.04,0.25
0,810,target,"[(1060, 789)]",[],[1],[0.55],horizontal,"(890.0, 262.0)",0.75,0.508,1,9940.375,1,0.04,0.25
0,811,target,"[(1061, 804)]",[],[1],[0.26666666666666666],horizontal,"(390.0, 762.0)",1.35,0.228,1,9945.175,1,0.04,0.25
0,812,target,"[(1060, 787)]",[],[1],[0.4666666666666667],vertical,"(890.0, 262.0)",1.3666666666666667,0.426,1,9950.458,2,0.04,0.25
0,813,target,"[(1046, 779)]",[],[1],[0.6],horizontal,"(390.0, 762.0)",1.1666666666666667,0.558,1,9956.113,2,0.04,0.25
0,814,target,"[(1040, 791)]",[],[1],[0.5666666666666667],horizontal,"(390.0, 262.0)",0.8166666666666667,0.527,1,9961.442,2,0.04,0.25
0,815,target,"[(1033, 780)]",[],[1],[0.3833333333333333],horizontal,"(890.0, 262.0)",1.3333333333333333,0.344,1,9966.625,2,0.04,0.25
0,816,catch,"[(1034, 770)]",[],[1],[],horizontal,"(390.0, 262.0)",1.6,nan,1,9972.325,3,0.04,0.25
0,817,catch,"[(1058, 782)]",[],[1],[],horizontal,"(890.0, 762.0)",1.6,"('cti', 1.585),nan",0,9978.228,0,0.06,0.25
0,818,target,"[(1060, 837)]",[],[1],[0.85],vertical,"(890.0, 262.0)",0.5333333333333333,nan,0,9983.177,0,0.06,0.25
0,819,catch,"[(1017, 804)]",[],[1],[],horizontal,"(890.0, 762.0)",1.6,nan,1,10059.592,1,0.06,0.25
0,820,target,"[(1049, 819)]",[],[1],[0.5333333333333333],vertical,"(390.0, 262.0)",0.8666666666666667,0.498,1,10064.492,1,0.06,0.25
0,821,target,"[(1058, 799)]",[],[1],[0.55],horizontal,"(390.0, 762.0)",0.95,0.507,1,10069.297,1,0.06,0.25
0,822,target,"[(1050, 770)]",[],[1],[0.5833333333333334],horizontal,"(390.0, 262.0)",1.1,0.542,1,10074.522,2,0.06,0.25
0,823,target,"[(1045, 783)]",[],[1],[],vertical,"(390.0, 262.0)",,"('cti', 0.671)",0,10079.997,0,0.08,0.25
0,824,target,"[(1042, 792)]",[],[1],[0.7],vertical,"(390.0, 262.0)",0.9666666666666667,0.653,1,10083.892,1,0.08,0.25
0,825,target,"[(1036, 781)]",[],[1],[0.5333333333333333],horizontal,"(390.0, 262.0)",0.5333333333333333,0.496,1,10089.08,1,0.08,0.25
0,826,target,"[(1054, 791)]",[],[1],[0.85],vertical,"(390.0, 762.0)",0.7166666666666667,nan,0,10093.854,0,0.08,0.25
0,827,target,"[(1052, 777)]",[],[1],[0.4666666666666667],vertical,"(890.0, 262.0)",1.2833333333333332,0.426,1,10098.721,1,0.08,0.25
0,828,target,"[(1034, 785)]",[],[1],[0.5833333333333334],horizontal,"(890.0, 262.0)",0.9166666666666666,0.541,1,10104.132,1,0.06,0.25
0,829,catch,"[(1068, 803)]",[],[1],[],horizontal,"(890.0, 762.0)",,"('cti', 1.494),nan",0,10108.831,0,0.08,0.25
0,830,target,"[(1040, 787)]",[],[1],[0.55],vertical,"(890.0, 762.0)",1.25,0.519,1,10113.68,1,0.08,0.25
0,831,catch,"[(1045, 803)]",[],[1],[],horizontal,"(390.0, 762.0)",1.6,nan,1,10118.795,1,0.08,0.25
0,832,target,"[(1033, 778)]",[],[1],[0.6833333333333333],horizontal,"(890.0, 262.0)",0.55,0.643,1,10123.781,1,0.08,0.25
0,833,catch,"[(1036, 762)]",[],[1],[],vertical,"(390.0, 762.0)",1.6,nan,1,10128.259,2,0.08,0.25
0,834,catch,"[(1032, 765)]",[],[1],[0.03333333333333333],vertical,"(890.0, 762.0)",1.6,"0.018,nan",0,10133.515,0,0.1,0.25
0,835,target,"[(1036, 771)]",[],[1],[0.55],vertical,"(890.0, 762.0)",1.25,0.521,1,10137.778,1,0.1,0.25
0,836,target,"[(1033, 792)]",[],[1],[0.65],horizontal,"(390.0, 262.0)",0.9,0.614,1,10143.686,1,0.1,0.25
0,837,target,"[(1045, 807)]",[],[1],[0.4],vertical,"(390.0, 762.0)",1.3833333333333333,0.367,1,10148.488,1,0.1,0.25
0,838,target,"[(1021, 786)]",[],[1],[0.5333333333333333],horizontal,"(390.0, 262.0)",0.7166666666666667,0.494,1,10153.777,2,0.1,0.25
0,839,catch,"[(1033, 785)]",[],[1],[],horizontal,"(890.0, 262.0)",1.6,nan,1,10159.048,2,0.1,0.25
0,840,target,"[(1053, 800)]",[],[1],[0.5166666666666666],vertical,"(890.0, 762.0)",0.65,0.473,1,10164.665,2,0.1,0.25
0,841,target,"[(1045, 773)]",[],[1],[0.5666666666666667],vertical,"(390.0, 262.0)",0.35,0.533,1,10169.927,2,0.1,0.25
0,842,target,"[(1053, 775)]",[],[1],[0.48333333333333334],horizontal,"(890.0, 262.0)",1.2666666666666666,0.44,1,10174.809,3,0.1,0.25
0,843,target,"[(1033, 793)]",[],[1],[0.35],horizontal,"(390.0, 762.0)",1.5333333333333332,0.315,1,10180.774,3,0.1,0.25
0,844,target,"[(1036, 774)]",[],[1],[0.6],horizontal,"(890.0, 762.0)",1.0666666666666667,0.564,1,10186.597,3,0.1,0.25
0,845,target,"[(1039, 787)]",[],[1],[0.5333333333333333],vertical,"(390.0, 762.0)",1.0166666666666666,0.491,1,10192.293,3,0.1,0.25
0,846,catch,"[(1054, 787)]",[],[1],[],horizontal,"(890.0, 262.0)",1.6,nan,1,10198.02,3,0.1,0.25
0,847,target,"[(1052, 802)]",[],[1],[0.48333333333333334],vertical,"(890.0, 262.0)",1.1833333333333333,0.441,1,10203.703,3,0.1,0.25
0,848,catch,"[(1041, 778)]",[],[1],[],vertical,"(390.0, 762.0)",1.6,"('cti', 1.598),nan",0,10209.453,0,0.12,0.25
0,849,target,"[(1032, 812)]",[],[1],[0.2833333333333333],vertical,"(390.0, 762.0)",1.5166666666666666,0.25,1,10214.476,1,0.12,0.25
0,850,target,"[(1035, 770)]",[],[1],[0.5333333333333333],horizontal,"(390.0, 262.0)",0.8666666666666667,0.496,1,10222.317,1,0.12,0.25
0,851,catch,"[(1036, 777)]",[],[1],[],horizontal,"(890.0, 262.0)",1.6,nan,1,10227.226,1,0.1,0.25
0,852,target,"[(1033, 801)]",[],[1],[0.55],vertical,"(390.0, 262.0)",1.2666666666666666,0.509,1,10232.576,2,0.1,0.25
0,853,target,"[(1035, 769)]",[],[1],[0.23333333333333334],vertical,"(390.0, 762.0)",1.4166666666666667,0.194,0,10238.009,0,0.1,0.25
0,854,target,"[(1041, 777)]",[],[1],[0.55],horizontal,"(390.0, 262.0)",0.55,0.509,1,10242.377,1,0.1,0.25
0,855,target,"[(1036, 778)]",[],[1],[0.65],horizontal,"(390.0, 762.0)",0.5833333333333334,0.607,1,10246.642,1,0.1,0.25
0,856,catch,"[(1033, 766)]",[],[1],[],vertical,"(390.0, 262.0)",1.6,nan,1,10251.741,1,0.1,0.25
0,857,target,"[(1052, 798)]",[],[1],[0.85],horizontal,"(390.0, 262.0)",0.5333333333333333,nan,0,10256.75,0,0.1,0.25
0,858,target,"[(1033, 808)]",[],[1],[0.55],vertical,"(390.0, 762.0)",0.9,0.512,1,10261.523,1,0.1,0.25
0,859,target,"[(1020, 819)]",[],[1],[0.35],vertical,"(390.0, 762.0)",1.3166666666666667,0.319,1,10269.408,1,0.1,0.25
0,860,target,"[(1051, 788)]",[],[1],[0.5333333333333333],vertical,"(890.0, 762.0)",1.2,0.495,1,10277.16,1,0.1,0.25
0,861,target,"[(1033, 797)]",[],[1],[0.6],horizontal,"(390.0, 262.0)",1.4,0.558,1,10282.509,2,0.1,0.25
0,862,target,"[(1057, 802)]",[],[1],[0.6166666666666667],vertical,"(390.0, 762.0)",0.55,0.574,1,10288.026,2,0.1,0.25
0,863,catch,"[(1033, 803)]",[],[1],[],horizontal,"(890.0, 262.0)",1.6,nan,1,10293.159,2,0.1,0.25
0,864,target,"[(1049, 785)]",[],[1],[0.6],horizontal,"(390.0, 762.0)",0.5666666666666667,0.555,1,10298.426,2,0.1,0.25
0,865,target,"[(1039, 777)]",[],[1],[],horizontal,"(890.0, 262.0)",,"('cti', 1.029)",0,10303.863,0,0.12,0.25
0,866,target,"[(1039, 807)]",[],[1],[0.7],horizontal,"(390.0, 762.0)",0.43333333333333335,0.664,1,10307.96,1,0.12,0.25
0,867,target,"[(1033, 794)]",[],[1],[0.45],vertical,"(390.0, 762.0)",1.0,0.406,1,10312.147,1,0.1,0.25
0,868,catch,"[(1055, 786)]",[],[1],[],vertical,"(390.0, 762.0)",1.6,nan,1,10317.255,1,0.1,0.25
0,869,target,"[(1045, 791)]",[],[1],[0.7166666666666667],vertical,"(890.0, 762.0)",0.4,0.677,1,10322.184,2,0.1,0.25
