block,trial,trial_type,taps_start_loc_during_fix,taps_end_loc_during_fix,taps_on_lever_during_fix,taps_on_lever_s_during_fix,bar_orientation,target_xy,cti,rt,acc,time,pulses,fa_rate_recent100,p_catch
0,1,target,"[(1060, 826)]",[],[1],[0.3833333333333333],horizontal,"(390.0, 762.0)",1.5333333333333332,0.344,1,0.078,1,0.0,0.25
0,2,target,"[(1132, 841)]",[],[1],[0.6333333333333333],horizontal,"(390.0, 262.0)",0.75,0.601,1,997.404,1,0.0,0.25
0,3,catch,"[(1156, 803)]",[],[1],[],horizontal,"(390.0, 262.0)",1.7,nan,1,1089.261,1,0.0,0.25
0,4,target,"[(1135, 839)]",[],[1],[0.6],horizontal,"(890.0, 762.0)",1.0333333333333332,0.558,1,1094.784,2,0.0,0.25
0,5,target,"[(1136, 831)]",[],[1],[0.85],horizontal,"(890.0, 762.0)",0.8333333333333334,nan,0,1100.257,0,0.0,0.25
0,6,target,"[(1127, 818)]",[],[1],[0.85],horizontal,"(390.0, 762.0)",0.8666666666666667,nan,0,1104.44,0,0.0,0.25
0,7,target,"[(1137, 806)]",[],[1],[0.85],horizontal,"(890.0, 262.0)",0.48333333333333334,nan,0,1109.297,0,0.0,0.25
0,8,target,"[(1146, 804)]",[],[1],[0.85],horizontal,"(890.0, 762.0)",0.48333333333333334,nan,0,1114.03,0,0.0,0.25
0,9,target,"[(1123, 805)]",[],[1],[0.5333333333333333],horizontal,"(390.0, 262.0)",0.8,0.493,1,1118.496,1,0.0,0.25
0,10,catch,"[(1146, 804)]",[],[1],[],vertical,"(890.0, 762.0)",1.7,nan,1,1123.441,1,0.0,0.25
0,11,catch,"[(1159, 793)]",[],[1],[],vertical,"(890.0, 262.0)",1.7,nan,1,1128.508,1,0.0,0.25
0,12,target,"[(1142, 803)]",[],[1],[0.5666666666666667],horizontal,"(890.0, 262.0)",0.6333333333333333,0.529,1,1133.832,2,0.0,0.25
0,13,catch,"[(1137, 807)]",[],[1],[],horizontal,"(890.0, 762.0)",1.7,nan,1,1139.049,2,0.0,0.25
0,14,target,"[(1146, 807)]",[],[1],[0.55],vertical,"(890.0, 762.0)",1.25,0.508,1,1144.889,2,0.0,0.25
0,15,target,"[(1146, 800)]",[],[1],[0.6],horizontal,"(390.0, 262.0)",0.5833333333333334,0.559,1,1150.808,2,0.0,0.25
0,16,target,"[(1150, 797)]",[],[1],[0.45],horizontal,"(890.0, 262.0)",1.5333333333333332,0.409,1,1156.088,3,0.0,0.25
0,17,target,"[(1156, 856)]",[],[1],[0.85],horizontal,"(890.0, 762.0)",0.6,nan,0,1162.423,0,0.0,0.25
0,18,target,"[(1151, 821)]",[],[1],[0.65],vertical,"(890.0, 762.0)",1.3833333333333333,0.611,1,1167.073,1,0.0,0.25
0,19,catch,"[(1157, 794)]",[],[1],[],vertical,"(890.0, 762.0)",1.7,nan,1,1172.683,1,0.0,0.25
0,20,target,"[(1154, 787)]",[],[1],[0.5833333333333334],horizontal,"(890.0, 762.0)",0.5833333333333334,0.542,1,1177.623,1,0.0,0.25
0,21,target,"[(1147, 783)]",[],[1],[0.48333333333333334],horizontal,"(890.0, 262.0)",1.0,0.438,1,1182.427,2,0.0,0.25
0,22,target,"[(1150, 795)]",[],[1],[0.5],vertical,"(390.0, 262.0)",0.65,0.46,1,1187.973,2,0.0,0.25
0,23,catch,"[(1151, 773)]",[],[1],[],vertical,"(890.0, 762.0)",1.7,nan,1,1193.276,2,0.0,0.25
0,24,target,"[(1154, 791)]",[],[1],[0.6166666666666667],horizontal,"(890.0, 762.0)",0.9666666666666667,0.577,1,1198.857,2,0.0,0.25
0,25,target,"[(1160, 784)]",[],[1],[0.6],vertical,"(390.0, 262.0)",0.7333333333333333,0.558,1,1204.274,3,0.0,0.25
0,26,target,"[(1161, 804)]",[],[1],[0.3333333333333333],vertical,"(390.0, 262.0)",1.25,0.295,1,1210.173,3,0.0,0.25
0,27,target,"[(1124, 821)]",[],[1],[0.5],horizontal,"(390.0, 762.0)",1.2666666666666666,0.451,1,1216.275,3,0.0,0.25
0,28,target,"[(1158, 783)]",[],[1],[0.85],vertical,"(390.0, 262.0)",0.48333333333333334,nan,0,1225.776,0,0.0,0.25
0,29,target,"[(1135, 821)]",[],[1],[0.6333333333333333],horizontal,"(390.0, 762.0)",0.5666666666666667,0.59,1,1229.824,1,0.0,0.25
0,30,catch,"[(1158, 789)]",[],[1],[],vertical,"(890.0, 762.0)",,"('cti', 1.621),nan",0,1234.857,0,0.03333333333333333,0.25
0,31,target,"[(1153, 794)]",[],[1],[0.6166666666666667],horizontal,"(890.0, 762.0)",0.4166666666666667,0.574,1,1239.841,1,0.03225806451612903,0.25
0,32,target,"[(1162, 795)]",[],[1],[0.6833333333333333],vertical,"(890.0, 262.0)",0.5833333333333334,0.634,1,1244.725,1,0.03125,0.25
0,33,catch,"[(1156, 809)]",[],[1],[],horizontal,"(890.0, 762.0)",1.7,nan,1,1249.64,1,0.030303030303030304,0.25
0,34,catch,"[(1153, 785)]",[],[1],[],vertical,"(890.0, 762.0)",1.7,nan,1,1255.174,2,0.029411764705882353,0.25
0,35,target,"[(1166, 785)]",[],[1],[0.5666666666666667],horizontal,"(390.0, 262.0)",1.25,0.524,1,1260.991,2,0.02857142857142857,0.25
0,36,target,"[(1155, 796)]",[],[1],[0.55],horizontal,"(390.0, 762.0)",0.75,0.507,1,1266.307,2,0.027777777777777776,0.25
0,37,target,"[(1151, 797)]",[],[1],[0.5833333333333334],vertical,"(890.0, 762.0)",1.4833333333333334,0.541,1,1271.807,2,0.02702702702702703,0.25
0,38,target,"[(1156, 792)]",[],[1],[0.5833333333333334],vertical,"(390.0, 262.0)",0.5833333333333334,0.54,1,1277.377,3,0.02631578947368421,0.25
0,39,target,"[(1156, 774)]",[],[1],[0.85],vertical,"(890.0, 262.0)",1.25,nan,0,1282.942,0,0.02564102564102564,0.25
0,40,target,"[(1127, 812)]",[],[1],[0.6333333333333333],vertical,"(890.0, 762.0)",0.4166666666666667,0.588,1,1288.124,1,0.025,0.25
0,41,target,"[(1116, 808)]",[],[1],[0.5],horizontal,"(390.0, 262.0)",0.6666666666666666,0.46,1,1293.257,1,0.024390243902439025,0.25
0,42,target,"[(1132, 830)]",[],[1],[0.25],horizontal,"(390.0, 262.0)",1.2166666666666666,0.213,1,1313.377,1,0.023809523809523808,0.25
0,43,target,"[(1156, 787)]",[],[1],[0.55],horizontal,"(890.0, 262.0)",1.3333333333333333,0.505,1,1318.841,2,0.023255813953488372,0.25
0,44,target,"[(1174, 787)]",[],[1],[0.6166666666666667],horizontal,"(890.0, 262.0)",0.6166666666666667,0.574,1,1324.554,2,0.022727272727272728,0.25
0,45,catch,"[(1162, 783)]",[],[1],[],horizontal,"(890.0, 262.0)",1.7,nan,1,1329.624,2,0.022222222222222223,0.25
0,46,target,"[(1156, 798)]",[],[1],[0.65],vertical,"(890.0, 262.0)",0.6333333333333333,0.609,1,1335.295,2,0.021739130434782608,0.25
0,47,catch,"[(1156, 775)]",[],[1],[],vertical,"(890.0, 762.0)",1.7,nan,1,1340.668,3,0.02127659574468085,0.25
0,48,target,"[(1158, 820)]",[],[1],[0.75],vertical,"(390.0, 762.0)",0.9666666666666667,0.7,1,1346.291,3,0.020833333333333332,0.25
0,49,target,"[(1156, 798)]",[],[1],[0.85],horizontal,"(890.0, 762.0)",0.7166666666666667,nan,0,1352.624,0,0.02040816326530612,0.25
0,50,catch,"[(1142, 796)]",[],[1],[],vertical,"(390.0, 762.0)",1.7,nan,1,1357.104,1,0.02,0.25
0,51,catch,"[(1167, 790)]",[],[1],[],horizontal,"(390.0, 762.0)",1.7,nan,1,1362.691,1,0.02,0.25
0,52,target,"[(1167, 787)]",[],[1],[0.4666666666666667],horizontal,"(390.0, 762.0)",1.45,0.424,1,1368.224,1,0.02,0.25
0,53,target,"[(1161, 777)]",[],[1],[0.5833333333333334],horizontal,"(890.0, 262.0)",0.7833333333333333,0.538,1,1373.371,2,0.02,0.25
0,54,catch,"[(1155, 784)]",[],[1],[],horizontal,"(390.0, 262.0)",,"('cti', 1.646),nan",0,1378.826,0,0.04,0.25
0,55,catch,"[(1156, 808)]",[],[1],[],vertical,"(390.0, 262.0)",1.7,nan,1,1383.814,1,0.04,0.25
0,56,target,"[(1166, 795)]",[],[1],[0.55],vertical,"(390.0, 262.0)",1.1333333333333333,0.512,1,1389.825,1,0.04,0.25
0,57,target,"[(1170, 784)]",[],[1],[0.5666666666666667],vertical,"(390.0, 762.0)",1.1333333333333333,0.524,1,1394.714,1,0.04,0.25
0,58,target,"[(1162, 795)]",[],[1],[0.5333333333333333],vertical,"(890.0, 762.0)",0.4666666666666667,0.495,1,1399.808,2,0.04,0.25
0,59,target,"[(1166, 793)]",[],[1],[0.5333333333333333],vertical,"(390.0, 262.0)",0.7,0.492,1,1405.048,2,0.04,0.25
0,60,target,"[(1152, 796)]",[],[1],[0.5833333333333334],horizontal,"(390.0, 262.0)",0.6333333333333333,0.542,1,1410.309,2,0.04,0.25
0,61,catch,"[(1175, 784)]",[],[1],[],vertical,"(890.0, 262.0)",1.7,nan,1,1415.396,2,0.04,0.25
0,62,target,"[(1155, 800)]",[],[1],[0.5833333333333334],horizontal,"(890.0, 262.0)",0.65,0.544,1,1421.118,3,0.04,0.25
0,63,target,"[(1157, 790)]",[],[1],[0.5333333333333333],vertical,"(890.0, 262.0)",0.85,0.493,1,1426.474,3,0.04,0.25
0,64,catch,"[(1141, 798)]",[],[1],[],horizontal,"(390.0, 262.0)",1.7,nan,1,1432.071,3,0.04,0.25
0,65,target,"[(1161, 809)]",[],[1],[0.5833333333333334],horizontal,"(390.0, 762.0)",1.2833333333333332,0.546,1,1437.768,3,0.04,0.25
0,66,target,"[(1154, 804)]",[],[1],[0.5333333333333333],vertical,"(390.0, 762.0)",0.36666666666666664,0.49,1,1443.875,3,0.04,0.25
0,67,target,"[(1156, 793)]",[],[1],[0.26666666666666666],horizontal,"(890.0, 762.0)",1.3333333333333333,0.231,1,1449.01,3,0.04,0.25
0,68,target,"[(1167, 806)]",[],[1],[0.55],horizontal,"(890.0, 262.0)",1.2833333333333332,0.506,1,1455.079,3,0.04,0.25
0,69,catch,"[(1160, 794)]",[],[1],[],horizontal,"(890.0, 262.0)",1.7,nan,1,1460.841,3,0.04,0.25
0,70,target,"[(1159, 786)]",[],[1],[0.48333333333333334],horizontal,"(390.0, 262.0)",0.5166666666666666,0.438,1,1466.731,3,0.04,0.25
0,71,target,"[(1157, 785)]",[],[1],[0.55],vertical,"(890.0, 762.0)",0.5833333333333334,0.509,1,1471.5,3,0.04,0.25
0,72,target,"[(1152, 794)]",[],[1],[0.48333333333333334],vertical,"(390.0, 262.0)",1.3666666666666667,0.444,1,1476.923,3,0.04,0.25
0,73,target,"[(1153, 801)]",[],[1],[0.5333333333333333],horizontal,"(390.0, 762.0)",0.4666666666666667,0.491,1,1483.208,3,0.04,0.25
0,74,target,"[(1153, 779)]",[],[1],[0.5166666666666666],vertical,"(890.0, 762.0)",0.8666666666666667,0.48,1,1488.741,3,0.04,0.25
0,75,target,"[(1143, 791)]",[],[1],[0.5833333333333334],vertical,"(890.0, 262.0)",0.8166666666666667,0.543,1,1494.256,3,0.04,0.25
0,76,target,"[(1156, 793)]",[],[1],[0.5166666666666666],horizontal,"(390.0, 262.0)",0.75,0.475,1,1500.208,3,0.04,0.25
0,77,target,"[(1154, 789)]",[],[1],[0.5833333333333334],horizontal,"(890.0, 262.0)",0.5833333333333334,0.541,1,1505.726,3,0.04,0.25
0,78,catch,"[(1154, 785)]",[],[1],[],horizontal,"(890.0, 762.0)",1.7,nan,1,1511.126,3,0.04,0.25
0,79,target,"[(1153, 789)]",[],[1],[0.6166666666666667],horizontal,"(390.0, 762.0)",1.5333333333333332,0.571,1,1516.792,3,0.04,0.25
0,80,target,"[(1154, 779)]",[],[1],[0.65],vertical,"(390.0, 262.0)",1.3333333333333333,0.6,1,1522.757,3,0.02,0.25
0,81,target,"[(1140, 790)]",[],[1],[0.5833333333333334],horizontal,"(890.0, 762.0)",1.1,0.542,1,1528.502,3,0.02,0.25
0,82,catch,"[(1159, 807)]",[],[1],[],vertical,"(390.0, 262.0)",1.7,nan,1,1534.411,3,0.02,0.25
0,83,target,"[(1158, 774)]",[],[1],[0.65],vertical,"(390.0, 262.0)",0.6,0.608,1,1540.507,3,0.02,0.25
0,84,catch,"[(1156, 782)]",[],[1],[],horizontal,"(890.0, 762.0)",1.7,nan,1,1545.657,3,0.02,0.25
0,85,catch,"[(1154, 791)]",[],[1],[],horizontal,"(390.0, 762.0)",1.7,nan,1,1551.658,3,0.02,0.25
0,86,catch,"[(1168, 798)]",[],[1],[],horizontal,"(390.0, 262.0)",,"('cti', 1.538),nan",0,1557.311,0,0.04,0.25
0,87,target,"[(1156, 778)]",[],[1],[0.85],vertical,"(390.0, 762.0)",0.5333333333333333,nan,0,1561.978,0,0.04,0.25
0,88,target,"[(1132, 793)]",[],[1],[0.55],horizontal,"(890.0, 262.0)",0.65,0.511,1,1566.209,1,0.04,0.25
0,89,target,"[(1166, 802)]",[],[1],[0.3333333333333333],vertical,"(390.0, 762.0)",1.45,0.295,1,1571.328,1,0.04,0.25
0,90,target,"[(1158, 787)]",[],[1],[0.6166666666666667],vertical,"(390.0, 262.0)",0.6666666666666666,0.571,1,1576.771,1,0.04,0.25
0,91,target,"[(1156, 784)]",[],[1],[0.5],horizontal,"(390.0, 262.0)",0.9333333333333333,0.459,1,1581.508,2,0.04,0.25
0,92,target,"[(1155, 787)]",[],[1],[0.6166666666666667],vertical,"(390.0, 262.0)",0.5166666666666666,0.574,1,1587.057,2,0.04,0.25
0,93,target,"[(1149, 793)]",[],[1],[0.6166666666666667],horizontal,"(390.0, 762.0)",0.48333333333333334,0.568,1,1592.205,2,0.04,0.25
0,94,target,"[(1120, 832)]",[],[1],[0.35],horizontal,"(890.0, 262.0)",1.4666666666666666,0.312,1,1597.39,2,0.04,0.25
0,95,target,"[(1158, 806)]",[],[1],[0.6666666666666666],vertical,"(390.0, 262.0)",1.2166666666666666,0.627,1,1603.159,3,0.04,0.25
0,96,target,"[(1164, 789)]",[],[1],[0.16666666666666666],vertical,"(890.0, 262.0)",1.5166666666666666,0.133,0,1609.127,0,0.04,0.25
0,97,catch,"[(1154, 792)]",[],[1],[],vertical,"(890.0, 762.0)",1.7,nan,1,1613.858,1,0.04,0.25
0,98,target,"[(1126, 821)]",[],[1],[0.5166666666666666],vertical,"(890.0, 262.0)",1.5333333333333332,0.475,1,1619.152,1,0.04,0.25
0,99,target,"[(1175, 795)]",[],[1],[0.55],horizontal,"(390.0, 762.0)",1.3,0.509,1,1633.541,1,0.04,0.25
0,100,target,"[(1150, 841)]",[],[1],[0.6166666666666667],vertical,"(890.0, 762.0)",1.1833333333333333,0.57,1,1638.621,2,0.04,0.25
0,101,target,"[(1151, 823)]",[],[1],[0.85],horizontal,"(390.0, 762.0)",1.2833333333333332,nan,0,2237.679,0,0.04,0.25
0,102,target,"[(1136, 819)]",[],[1],[0.85],horizontal,"(890.0, 762.0)",0.7666666666666666,nan,0,2242.545,0,0.04,0.25
0,103,catch,"[(1143, 855)]",[],[1],[0.03333333333333333],horizontal,"(390.0, 762.0)",1.7,"0.016,nan",0,2247.406,0,0.06,0.25
0,104,catch,"[(1102, 858)]",[],[1],[],horizontal,"(890.0, 762.0)",1.7,nan,1,2845.663,1,0.04,0.25
0,105,catch,"[(1153, 813)]",[],[1],[],vertical,"(390.0, 762.0)",1.7,nan,1,2852.364,1,0.04,0.25
0,106,target,"[(1151, 821)]",[],[1],[0.7],vertical,"(390.0, 262.0)",0.3833333333333333,0.654,1,2857.629,1,0.04,0.25
0,107,target,"[(1149, 789)]",[],[1],[0.6666666666666666],vertical,"(390.0, 262.0)",0.9,0.619,1,2862.398,2,0.04,0.25
0,108,target,"[(1152, 797)]",[],[1],[0.6166666666666667],horizontal,"(390.0, 262.0)",0.9166666666666666,0.569,1,2867.741,2,0.04,0.25
0,109,target,"[(1148, 782)]",[],[1],[0.7833333333333333],horizontal,"(390.0, 262.0)",1.2166666666666666,0.739,1,2872.747,2,0.04,0.25
0,110,target,"[(1150, 799)]",[],[1],[0.6166666666666667],vertical,"(390.0, 262.0)",1.0833333333333333,0.577,1,2878.731,2,0.04,0.25
0,111,target,"[(1149, 795)]",[],[1],[0.55],horizontal,"(890.0, 762.0)",1.5,0.509,1,2884.664,3,0.04,0.25
0,112,catch,"[(1132, 795)]",[],[1],[],horizontal,"(390.0, 262.0)",1.7,nan,1,2890.697,3,0.04,0.25
0,113,target,"[(1148, 795)]",[],[1],[0.6833333333333333],vertical,"(390.0, 762.0)",0.5166666666666666,0.648,1,2896.914,3,0.04,0.25
0,114,target,"[(1152, 786)]",[],[1],[0.55],vertical,"(390.0, 762.0)",1.3666666666666667,0.51,1,2902.148,3,0.04,0.25
0,115,target,"[(1146, 795)]",[],[1],[0.7],vertical,"(390.0, 762.0)",0.35,0.654,1,2908.601,3,0.04,0.25
0,116,target,"[(1147, 793)]",[],[1],[0.6166666666666667],horizontal,"(890.0, 262.0)",0.5666666666666667,0.586,1,2913.688,3,0.04,0.25
0,117,target,"[(1149, 789)]",[],[1],[0.5666666666666667],vertical,"(890.0, 762.0)",1.2833333333333332,0.527,1,2919.364,3,0.04,0.25
0,118,catch,"[(1167, 811)]",[],[1],[],vertical,"(890.0, 262.0)",1.7,nan,1,2925.33,3,0.04,0.25
0,119,target,"[(1166, 800)]",[],[1],[0.6],vertical,"(890.0, 262.0)",0.7166666666666667,0.557,1,2931.131,3,0.04,0.25
0,120,target,"[(1151, 824)]",[],[1],[0.5333333333333333],horizontal,"(390.0, 262.0)",1.1333333333333333,0.493,1,2936.48,3,0.04,0.25
0,121,target,"[(1148, 817)]",[],[1],[0.55],vertical,"(390.0, 762.0)",0.8333333333333334,0.514,1,2942.766,3,0.04,0.25
0,122,target,"[(1161, 793)]",[],[1],[0.65],vertical,"(390.0, 262.0)",0.8833333333333333,0.607,1,2948.548,3,0.04,0.25
0,123,target,"[(1165, 797)]",[],[1],[0.5833333333333334],horizontal,"(390.0, 762.0)",0.75,0.541,1,2954.647,3,0.04,0.25
0,124,catch,"[(1152, 781)]",[],[1],[],vertical,"(390.0, 762.0)",1.7,nan,1,2959.964,3,0.04,0.25
0,125,target,"[(1153, 774)]",[],[1],[0.7],vertical,"(390.0, 762.0)",1.1833333333333333,0.653,1,2966.032,3,0.04,0.25
0,126,target,"[(1157, 799)]",[],[1],[0.65],vertical,"(390.0, 262.0)",1.3,0.608,1,2972.43,3,0.04,0.25
0,127,catch,"[(1156, 788)]",[],[1],[],horizontal,"(890.0, 762.0)",1.7,nan,1,2978.83,3,0.04,0.25
0,128,target,"[(1166, 799)]",[],[1],[0.7333333333333333],horizontal,"(890.0, 262.0)",1.05,0.691,1,2984.896,3,0.04,0.25
0,129,target,"[(1149, 782)]",[],[1],[0.5166666666666666],vertical,"(390.0, 262.0)",1.3166666666666667,0.476,1,2991.081,3,0.04,0.25
0,130,target,"[(1152, 782)]",[],[1],[0.5666666666666667],vertical,"(890.0, 262.0)",0.7833333333333333,0.524,1,2997.331,3,0.04,0.25
0,131,target,"[(1134, 783)]",[],[1],[0.7833333333333333],horizontal,"(890.0, 762.0)",1.0,0.738,1,3002.615,3,0.04,0.25
0,132,target,"[(1162, 792)]",[],[1],[0.6666666666666666],vertical,"(390.0, 762.0)",0.9833333333333333,0.623,1,3008.964,3,0.04,0.25
0,133,catch,"[(1153, 788)]",[],[1],[],horizontal,"(390.0, 762.0)",1.7,nan,1,3014.494,3,0.04,0.25
0,134,target,"[(1154, 779)]",[],[1],[0.48333333333333334],horizontal,"(890.0, 262.0)",0.6333333333333333,0.441,1,3020.479,3,0.04,0.25
0,135,target,"[(1151, 780)]",[],[1],[0.5333333333333333],vertical,"(390.0, 762.0)",0.9,0.494,1,3025.998,3,0.04,0.25
0,136,catch,"[(1150, 772)]",[],[1],[],horizontal,"(390.0, 762.0)",1.7,nan,1,3031.729,3,0.02,0.25
0,137,target,"[(1129, 815)]",[],[1],[0.85],horizontal,"(390.0, 762.0)",0.3833333333333333,nan,0,3037.694,0,0.02,0.25
0,138,target,"[(1127, 804)]",[],[1],[0.65],horizontal,"(390.0, 762.0)",0.5,0.609,1,3046.015,1,0.02,0.25
0,139,target,"[(1153, 800)]",[],[1],[0.5666666666666667],horizontal,"(390.0, 762.0)",0.4666666666666667,0.526,1,3050.588,1,0.02,0.25
0,140,target,"[(1151, 777)]",[],[1],[0.5],vertical,"(390.0, 262.0)",1.2833333333333332,0.457,1,3055.044,1,0.02,0.25
0,141,target,"[(1161, 804)]",[],[1],[0.5333333333333333],vertical,"(890.0, 262.0)",0.6333333333333333,0.49,1,3060.584,2,0.02,0.25
0,142,catch,"[(1151, 778)]",[],[1],[],vertical,"(390.0, 262.0)",,"('cti', 1.327),nan",0,3065.372,0,0.04,0.25
0,143,target,"[(1159, 815)]",[],[1],[0.6833333333333333],horizontal,"(390.0, 762.0)",1.0666666666666667,0.641,1,3069.932,1,0.04,0.25
0,144,catch,"[(1166, 789)]",[],[1],[],vertical,"(890.0, 762.0)",1.7,nan,1,3077.448,1,0.04,0.25
0,145,target,"[(1150, 786)]",[],[1],[0.65],horizontal,"(890.0, 262.0)",0.7,0.608,1,3082.416,1,0.04,0.25
0,146,target,"[(1148, 775)]",[],[1],[0.5833333333333334],horizontal,"(390.0, 762.0)",1.0,0.544,1,3087.081,2,0.04,0.25
0,147,target,"[(1169, 804)]",[],[1],[0.5666666666666667],horizontal,"(390.0, 262.0)",1.0333333333333332,0.529,1,3092.296,2,0.04,0.25
0,148,catch,"[(1156, 804)]",[],[1],[],horizontal,"(890.0, 762.0)",1.7,nan,1,3097.748,2,0.04,0.25
0,149,target,"[(1171, 806)]",[],[1],[0.6],horizontal,"(890.0, 262.0)",1.4,0.556,1,3103.665,2,0.04,0.25
0,150,target,"[(1161, 808)]",[],[1],[0.5166666666666666],vertical,"(390.0, 762.0)",1.0333333333333332,0.475,1,3109.656,3,0.04,0.25
0,151,target,"[(1158, 804)]",[],[1],[0.7666666666666666],vertical,"(890.0, 262.0)",0.6833333333333333,0.721,1,3115.897,3,0.04,0.25
0,152,target,"[(1156, 803)]",[],[1],[0.85],vertical,"(890.0, 762.0)",0.3833333333333333,nan,0,3121.376,0,0.04,0.25
0,153,target,"[(1149, 817)]",[],[1],[0.6],horizontal,"(390.0, 762.0)",0.5333333333333333,0.554,1,3125.882,1,0.02,0.25
0,154,target,"[(1151, 797)]",[],[1],[0.36666666666666664],vertical,"(390.0, 762.0)",1.4833333333333334,0.329,1,3130.336,1,0.02,0.25
0,155,target,"[(1169, 803)]",[],[1],[0.7333333333333333],horizontal,"(890.0, 262.0)",1.1,0.684,1,3135.76,1,0.02,0.25
0,156,target,"[(1167, 810)]",[],[1],[0.7666666666666666],vertical,"(890.0, 762.0)",1.1833333333333333,0.718,1,3140.909,2,0.02,0.25
0,157,target,"[(1166, 800)]",[],[1],[0.85],vertical,"(390.0, 762.0)",0.48333333333333334,nan,0,3147.014,0,0.02,0.25
0,158,target,"[(1134, 809)]",[],[1],[0.7],vertical,"(390.0, 762.0)",1.25,0.656,1,3150.977,1,0.02,0.25
0,159,target,"[(1189, 783)]",[],[1],[0.5833333333333334],vertical,"(890.0, 762.0)",0.9833333333333333,0.537,1,3156.839,1,0.02,0.25
0,160,target,"[(1147, 791)]",[],[1],[0.7166666666666667],vertical,"(390.0, 762.0)",0.6166666666666667,0.668,1,3161.544,1,0.02,0.25
0,161,target,"[(1166, 803)]",[],[1],[0.85],vertical,"(390.0, 762.0)",0.48333333333333334,nan,0,3166.482,0,0.02,0.25
0,162,target,"[(1153, 807)]",[],[1],[0.6],horizontal,"(890.0, 262.0)",0.8333333333333334,0.559,1,3171.082,1,0.02,0.25
0,163,target,"[(1153, 804)]",[],[1],[0.65],horizontal,"(890.0, 262.0)",0.48333333333333334,0.603,1,3176.18,1,0.02,0.25
0,164,target,"[(1169, 775)]",[],[1],[0.5333333333333333],vertical,"(890.0, 262.0)",0.9166666666666666,0.489,1,3180.323,1,0.02,0.25
0,165,target,"[(1157, 784)]",[],[1],[0.6833333333333333],horizontal,"(390.0, 262.0)",0.7166666666666667,0.639,1,3185.402,2,0.02,0.25
0,166,target,"[(1167, 790)]",[],[1],[0.55],horizontal,"(390.0, 762.0)",1.3,0.512,1,3190.865,2,0.02,0.25
0,167,target,"[(1152, 789)]",[],[1],[0.43333333333333335],horizontal,"(890.0, 262.0)",1.4666666666666666,0.395,1,3196.76,2,0.02,0.25
0,168,target,"[(1159, 793)]",[],[1],[0.5666666666666667],horizontal,"(890.0, 262.0)",0.45,0.525,1,3202.816,2,0.02,0.25
0,169,target,"[(1150, 781)]",[],[1],[0.7833333333333333],horizontal,"(390.0, 262.0)",1.3833333333333333,0.737,1,3207.692,3,0.02,0.25
0,170,catch,"[(1138, 776)]",[],[1],[],horizontal,"(390.0, 762.0)",1.7,nan,1,3213.8,3,0.02,0.25
0,171,target,"[(1164, 801)]",[],[1],[0.55],vertical,"(390.0, 262.0)",1.0166666666666666,0.508,1,3219.559,3,0.02,0.25
0,172,target,"[(1156, 807)]",[],[1],[0.43333333333333335],horizontal,"(390.0, 262.0)",1.1833333333333333,0.391,1,3225.75,3,0.02,0.25
0,173,target,"[(1152, 797)]",[],[1],[0.5333333333333333],horizontal,"(890.0, 762.0)",1.0333333333333332,0.488,1,3231.697,3,0.02,0.25
0,174,catch,"[(1163, 794)]",[],[1],[],horizontal,"(890.0, 762.0)",1.7,nan,1,3237.433,3,0.02,0.25
0,175,catch,"[(1153, 814)]",[],[1],[],vertical,"(390.0, 262.0)",1.7,nan,1,3243.309,3,0.02,0.25
0,176,target,"[(1161, 798)]",[],[1],[0.7],vertical,"(390.0, 262.0)",0.9833333333333333,0.651,1,3249.222,3,0.02,0.25
0,177,target,"[(1171, 789)]",[],[1],[0.65],horizontal,"(890.0, 262.0)",0.4166666666666667,0.605,1,3255.383,3,0.02,0.25
0,178,target,"[(1170, 791)]",[],[1],[0.65],horizontal,"(390.0, 762.0)",0.65,0.598,1,3260.566,3,0.02,0.25
0,179,catch,"[(1151, 806)]",[],[1],[],horizontal,"(890.0, 762.0)",,"('cti', 1.636),nan",0,3265.768,0,0.04,0.25
0,180,catch,"[(1166, 801)]",[],[1],[],vertical,"(390.0, 762.0)",1.7,nan,1,3270.59,1,0.04,0.25
0,181,target,"[(1166, 803)]",[],[1],[0.6166666666666667],horizontal,"(890.0, 762.0)",1.1,0.577,1,3275.616,1,0.04,0.25
0,182,target,"[(1166, 813)]",[],[1],[0.65],vertical,"(890.0, 762.0)",0.5,0.602,1,3281.081,1,0.04,0.25
0,183,catch,"[(1160, 810)]",[],[1],[],vertical,"(890.0, 262.0)",1.7,nan,1,3285.84,2,0.04,0.25
0,184,catch,"[(1167, 811)]",[],[1],[],horizontal,"(390.0, 762.0)",1.7,nan,1,3291.553,2,0.04,0.25
0,185,target,"[(1166, 812)]",[],[1],[0.5666666666666667],horizontal,"(890.0, 262.0)",0.8166666666666667,0.524,1,3297.048,2,0.04,0.25
0,186,target,"[(1131, 790)]",[],[1],[0.55],vertical,"(390.0, 262.0)",0.6166666666666667,0.509,1,3302.148,2,0.04,0.25
0,187,catch,"[(1159, 803)]",[],[1],[],horizontal,"(390.0, 762.0)",1.7,nan,1,3307.5,3,0.04,0.25
0,188,target,"[(1132, 804)]",[],[1],[0.6],vertical,"(890.0, 762.0)",1.1833333333333333,0.559,1,3313.504,3,0.04,0.25
0,189,catch,"[(1155, 788)]",[],[1],[],vertical,"(890.0, 262.0)",1.7,nan,1,3319.833,3,0.04,0.25
0,190,catch,"[(1170, 788)]",[],[1],[],horizontal,"(390.0, 262.0)",1.7,nan,1,3325.478,3,0.04,0.25
0,191,target,"[(1162, 804)]",[],[1],[0.5666666666666667],horizontal,"(890.0, 262.0)",1.0833333333333333,0.527,1,3331.082,3,0.04,0.25
0,192,target,"[(1161, 788)]",[],[1],[0.85],horizontal,"(890.0, 762.0)",1.3,nan,0,3337.13,0,0.02,0.25
0,193,catch,"[(1132, 789)]",[],[1],[],vertical,"(390.0, 262.0)",1.7,nan,1,3342.147,1,0.02,0.25
0,194,target,"[(1155, 790)]",[],[1],[0.6333333333333333],vertical,"(390.0, 762.0)",1.1,0.587,1,3347.715,1,0.02,0.25
0,195,target,"[(1165, 806)]",[],[1],[0.6],vertical,"(390.0, 762.0)",1.3666666666666667,0.557,1,3353.286,1,0.02,0.25
0,196,catch,"[(1161, 796)]",[],[1],[],vertical,"(890.0, 762.0)",1.7,nan,1,3358.832,2,0.02,0.25
0,197,target,"[(1161, 803)]",[],[1],[0.55],vertical,"(390.0, 762.0)",0.4,0.508,1,3364.299,2,0.02,0.25
0,198,target,"[(1155, 783)]",[],[1],[0.5333333333333333],vertical,"(390.0, 262.0)",1.0333333333333332,0.496,1,3369.049,2,0.02,0.25
0,199,target,"[(1155, 800)]",[],[1],[0.55],vertical,"(390.0, 762.0)",0.9833333333333333,0.505,1,3374.202,2,0.02,0.25
0,200,target,"[(1149, 821)]",[],[1],[0.55],horizontal,"(890.0, 262.0)",1.1333333333333333,0.505,1,3379.85,3,0.02,0.25
0,201,target,"[(1132, 787)]",[],[1],[0.5666666666666667],vertical,"(890.0, 262.0)",1.2666666666666666,0.522,1,3386.113,3,0.02,0.25
0,202,target,"[(1151, 789)]",[],[1],[0.6],vertical,"(890.0, 762.0)",0.7333333333333333,0.554,1,3392.6,3,0.02,0.25
0,203,target,"[(1154, 790)]",[],[1],[0.5333333333333333],horizontal,"(390.0, 262.0)",1.05,0.491,1,3398.042,3,0.02,0.25
0,204,target,"[(1158, 795)]",[],[1],[0.6833333333333333],horizontal,"(890.0, 762.0)",0.9333333333333333,0.639,1,3404.266,3,0.02,0.25
0,205,target,"[(1137, 782)]",[],[1],[0.7],vertical,"(390.0, 762.0)",1.2166666666666666,0.658,1,3410.121,3,0.02,0.25
0,206,target,"[(1149, 781)]",[],[1],[0.5],vertical,"(390.0, 262.0)",0.95,0.461,1,3416.211,3,0.02,0.25
0,207,catch,"[(1139, 783)]",[],[1],[],vertical,"(890.0, 762.0)",1.7,nan,1,3422.095,3,0.02,0.25
0,208,target,"[(1163, 796)]",[],[1],[0.6],horizontal,"(390.0, 762.0)",0.55,0.558,1,3428.013,3,0.02,0.25
0,209,target,"[(1166, 795)]",[],[1],[0.48333333333333334],vertical,"(390.0, 762.0)",1.4,0.45,1,3433.782,3,0.02,0.25
0,210,catch,"[(1154, 776)]",[],[1],[],vertical,"(890.0, 762.0)",1.7,nan,1,3439.799,3,0.02,0.25
0,211,catch,"[(1157, 793)]",[],[1],[],horizontal,"(890.0, 762.0)",1.7,nan,1,3445.482,3,0.02,0.25
0,212,target,"[(1148, 794)]",[],[1],[0.55],vertical,"(890.0, 262.0)",1.0166666666666666,0.51,1,3451.617,3,0.02,0.25
0,213,catch,"[(1158, 778)]",[],[1],[],vertical,"(390.0, 762.0)",1.7,nan,1,3457.397,3,0.02,0.25
0,214,target,"[(1161, 790)]",[],[1],[0.5833333333333334],vertical,"(390.0, 762.0)",1.1833333333333333,0.544,1,3463.065,3,0.02,0.25
0,215,target,"[(1128, 805)]",[],[1],[0.7166666666666667],vertical,"(890.0, 762.0)",0.43333333333333335,0.674,1,3469.283,3,0.02,0.25
0,216,target,"[(1150, 788)]",[],[1],[0.5],horizontal,"(890.0, 262.0)",0.8333333333333334,0.459,1,3474.583,3,0.02,0.25
0,217,target,"[(1162, 790)]",[],[1],[0.5],horizontal,"(390.0, 262.0)",1.2833333333333332,0.459,1,3479.984,3,0.02,0.25
0,218,target,"[(1132, 823)]",[],[1],[0.5166666666666666],vertical,"(890.0, 262.0)",0.7,0.476,1,3485.965,3,0.02,0.25
0,219,catch,"[(1169, 791)]",[],[1],[0.03333333333333333],horizontal,"(890.0, 762.0)",1.7,"0.02,nan",0,3491.667,0,0.04,0.25
0,220,target,"[(1151, 811)]",[],[1],[],horizontal,"(390.0, 762.0)",,"('cti', 0.953)",0,3496.643,0,0.06,0.25
0,221,target,"[(1133, 803)]",[],[1],[0.5666666666666667],vertical,"(890.0, 762.0)",0.9,0.524,1,3501.074,1,0.06,0.25
0,222,target,"[(1153, 806)]",[],[1],[0.43333333333333335],vertical,"(890.0, 762.0)",1.5166666666666666,0.392,1,3506.116,1,0.06,0.25
0,223,catch,"[(1152, 787)]",[],[1],[],horizontal,"(390.0, 262.0)",1.7,nan,1,3511.292,1,0.06,0.25
0,224,target,"[(1152, 828)]",[],[1],[0.45],vertical,"(390.0, 762.0)",1.3,0.414,1,3516.651,2,0.06,0.25
0,225,target,"[(1171, 794)]",[],[1],[0.48333333333333334],vertical,"(890.0, 262.0)",1.4833333333333334,0.452,1,3522.581,2,0.06,0.25
0,226,catch,"[(1166, 806)]",[],[1],[],horizontal,"(390.0, 262.0)",1.7,nan,1,3528.717,2,0.06,0.25
0,227,catch,"[(1159, 799)]",[],[1],[],horizontal,"(390.0, 762.0)",1.7,nan,1,3534.601,2,0.06,0.25
0,228,target,"[(1172, 814)]",[],[1],[0.65],vertical,"(390.0, 262.0)",0.43333333333333335,0.608,1,3540.4,3,0.06,0.25
0,229,target,"[(1167, 785)]",[],[1],[0.7333333333333333],horizontal,"(890.0, 762.0)",1.1333333333333333,0.694,1,3545.584,3,0.04,0.25
0,230,catch,"[(1166, 777)]",[],[1],[],vertical,"(890.0, 762.0)",1.7,nan,1,3551.529,3,0.04,0.25
0,231,catch,"[(1169, 801)]",[],[1],[],vertical,"(390.0, 762.0)",1.7,nan,1,3557.308,3,0.04,0.25
0,232,target,"[(1170, 805)]",[],[1],[0.85],horizontal,"(890.0, 762.0)",0.7,nan,0,3563.134,0,0.04,0.25
0,233,target,"[(1153, 795)]",[],[1],[0.6],horizontal,"(390.0, 762.0)",0.48333333333333334,0.561,1,3567.97,1,0.04,0.25
0,234,target,"[(1166, 784)]",[],[1],[0.6666666666666666],vertical,"(390.0, 762.0)",0.5,0.619,1,3572.74,1,0.04,0.25
0,235,target,"[(1161, 798)]",[],[1],[0.43333333333333335],horizontal,"(890.0, 262.0)",1.5,0.395,1,3577.029,1,0.04,0.25
0,236,catch,"[(1166, 812)]",[],[1],[],horizontal,"(390.0, 262.0)",1.7,nan,1,3582.483,2,0.04,0.25
0,237,target,"[(1145, 805)]",[],[1],[0.85],vertical,"(890.0, 762.0)",0.5333333333333333,nan,0,3588.401,0,0.04,0.25
0,238,target,"[(1137, 815)]",[],[1],[0.6666666666666666],horizontal,"(390.0, 262.0)",0.5166666666666666,0.625,1,3593.05,1,0.04,0.25
0,239,target,"[(1159, 797)]",[],[1],[0.5],vertical,"(890.0, 262.0)",1.3,0.463,1,3597.567,1,0.04,0.25
0,240,catch,"[(1166, 790)]",[],[1],[],vertical,"(390.0, 262.0)",1.7,nan,1,3602.334,1,0.04,0.25
0,241,catch,"[(1166, 799)]",[],[1],[],horizontal,"(890.0, 762.0)",,"('cti', 1.094),nan",0,3607.265,0,0.06,0.25
0,242,target,"[(1132, 823)]",[],[1],[0.7166666666666667],horizontal,"(390.0, 262.0)",0.43333333333333335,0.674,1,3611.905,1,0.06,0.25
0,243,target,"[(1161, 787)]",[],[1],[0.65],horizontal,"(390.0, 262.0)",0.55,0.606,1,3616.917,1,0.06,0.25
0,244,target,"[(1153, 780)]",[],[1],[0.7333333333333333],vertical,"(890.0, 762.0)",0.9333333333333333,0.687,1,3621.634,1,0.06,0.25
0,245,target,"[(1133, 801)]",[],[1],[0.6666666666666666],horizontal,"(890.0, 762.0)",1.05,0.624,1,3626.766,2,0.06,0.25
0,246,catch,"[(1160, 805)]",[],[1],[],horizontal,"(890.0, 262.0)",1.7,nan,1,3632.417,2,0.06,0.25
0,247,target,"[(1171, 796)]",[],[1],[0.6],horizontal,"(390.0, 762.0)",0.5166666666666666,0.552,1,3637.818,2,0.06,0.25
0,248,catch,"[(1156, 799)]",[],[1],[],horizontal,"(890.0, 262.0)",1.7,nan,1,3642.932,2,0.06,0.25
0,249,target,"[(1168, 789)]",[],[1],[0.5333333333333333],vertical,"(890.0, 762.0)",0.5,0.497,1,3648.683,3,0.06,0.25
0,250,catch,"[(1157, 800)]",[],[1],[],horizontal,"(890.0, 262.0)",1.7,nan,1,3654.116,3,0.06,0.25
0,251,catch,"[(1150, 798)]",[],[1],[],horizontal,"(390.0, 262.0)",1.7,nan,1,3659.918,3,0.06,0.25
0,252,catch,"[(1167, 798)]",[],[1],[],vertical,"(890.0, 262.0)",1.7,nan,1,3665.745,3,0.06,0.25
0,253,target,"[(1126, 835)]",[],[1],[0.5],horizontal,"(390.0, 262.0)",0.48333333333333334,0.46,1,3671.919,3,0.06,0.25
0,254,target,"[(1147, 813)]",[],[1],[0.4],vertical,"(890.0, 262.0)",1.4,0.363,1,3678.18,3,0.06,0.25
0,255,target,"[(1156, 783)]",[],[1],[0.6166666666666667],horizontal,"(390.0, 262.0)",1.4333333333333333,0.574,1,3684.1,3,0.06,0.25
0,256,target,"[(1169, 807)]",[],[1],[0.5666666666666667],vertical,"(890.0, 262.0)",0.5666666666666667,0.518,1,3690.151,3,0.06,0.25
0,257,target,"[(1153, 804)]",[],[1],[0.5],vertical,"(890.0, 262.0)",0.8666666666666667,0.458,1,3695.659,3,0.06,0.25
0,258,target,"[(1154, 786)]",[],[1],[0.5166666666666666],vertical,"(390.0, 762.0)",0.9666666666666667,0.474,1,3701.556,3,0.06,0.25
0,259,target,"[(1132, 793)]",[],[1],[0.5166666666666666],vertical,"(890.0, 262.0)",1.1,0.477,1,3706.977,3,0.06,0.25
0,260,target,"[(1161, 793)]",[],[1],[0.85],horizontal,"(890.0, 762.0)",1.3333333333333333,nan,0,3712.818,0,0.06,0.25
0,261,catch,"[(1151, 798)]",[],[1],[],horizontal,"(890.0, 762.0)",1.7,nan,1,3717.733,1,0.06,0.25
0,262,catch,"[(1129, 801)]",[],[1],[],horizontal,"(390.0, 762.0)",,"('cti', 1.675),nan",0,3722.7,0,0.08,0.25
0,263,target,"[(1142, 822)]",[],[1],[0.7],vertical,"(890.0, 762.0)",0.48333333333333334,0.658,1,3727.668,1,0.08,0.25
0,264,catch,"[(1159, 801)]",[],[1],[],horizontal,"(390.0, 262.0)",1.7,nan,1,3732.867,1,0.08,0.25
0,265,catch,"[(1161, 798)]",[],[1],[],vertical,"(890.0, 762.0)",1.7,nan,1,3737.802,1,0.08,0.25
0,266,target,"[(1166, 811)]",[],[1],[0.5166666666666666],horizontal,"(890.0, 762.0)",1.1,0.471,1,3743.041,2,0.08,0.25
0,267,catch,"[(1160, 802)]",[],[1],[],vertical,"(390.0, 762.0)",1.7,nan,1,3748.511,2,0.08,0.25
0,268,target,"[(1170, 799)]",[],[1],[0.6666666666666666],horizontal,"(890.0, 262.0)",0.6833333333333333,0.625,1,3754.285,2,0.08,0.25
0,269,target,"[(1156, 800)]",[],[1],[0.5],vertical,"(390.0, 762.0)",1.5333333333333332,0.456,1,3759.285,2,0.06,0.25
0,270,target,"[(1158, 807)]",[],[1],[0.5166666666666666],horizontal,"(890.0, 262.0)",0.36666666666666664,0.473,1,3764.911,3,0.04,0.25
0,271,target,"[(1127, 779)]",[],[1],[0.6166666666666667],vertical,"(390.0, 762.0)",0.7833333333333333,0.587,1,3770.55,3,0.04,0.25
0,272,target,"[(1153, 803)]",[],[1],[0.5333333333333333],horizontal,"(390.0, 762.0)",1.1833333333333333,0.502,1,3776.15,3,0.04,0.25
0,273,target,"[(1161, 785)]",[],[1],[0.7333333333333333],vertical,"(390.0, 762.0)",1.1166666666666667,0.691,1,3782.117,3,0.04,0.25
0,274,target,"[(1158, 785)]",[],[1],[0.5166666666666666],horizontal,"(890.0, 262.0)",1.4833333333333334,0.479,1,3788.182,3,0.04,0.25
0,275,catch,"[(1156, 811)]",[],[1],[],vertical,"(390.0, 762.0)",1.7,nan,1,3794.732,3,0.04,0.25
0,276,catch,"[(1167, 802)]",[],[1],[],horizontal,"(890.0, 762.0)",1.7,nan,1,3800.964,3,0.04,0.25
0,277,catch,"[(1166, 799)]",[],[1],[],vertical,"(890.0, 262.0)",1.7,nan,1,3806.562,3,0.04,0.25
0,278,target,"[(1157, 792)]",[],[1],[0.85],vertical,"(390.0, 262.0)",0.5666666666666667,nan,0,3812.751,0,0.04,0.25
0,279,target,"[(1158, 803)]",[],[1],[0.6166666666666667],horizontal,"(390.0, 262.0)",1.0666666666666667,0.577,1,3817.479,1,0.04,0.25
0,280,target,"[(1167, 791)]",[],[1],[0.7333333333333333],horizontal,"(390.0, 762.0)",0.43333333333333335,0.686,1,3822.417,1,0.04,0.25
0,281,catch,"[(1168, 781)]",[],[1],[],horizontal,"(890.0, 262.0)",1.7,nan,1,3826.76,1,0.04,0.25
0,282,target,"[(1156, 830)]",[],[1],[0.55],horizontal,"(390.0, 762.0)",0.5,0.512,1,3832.149,2,0.04,0.25
0,283,catch,"[(1151, 804)]",[],[1],[],vertical,"(890.0, 262.0)",1.7,nan,1,3837.563,2,0.04,0.25
0,284,target,"[(1166, 797)]",[],[1],[0.5333333333333333],horizontal,"(890.0, 262.0)",1.0166666666666666,0.499,1,3842.985,2,0.04,0.25
0,285,target,"[(1133, 822)]",[],[1],[0.5333333333333333],vertical,"(390.0, 262.0)",0.8,0.491,1,3848.234,2,0.04,0.25
0,286,target,"[(1166, 791)]",[],[1],[0.4666666666666667],horizontal,"(390.0, 262.0)",1.0166666666666666,0.431,1,3853.805,3,0.04,0.25
0,287,target,"[(1154, 774)]",[],[1],[0.43333333333333335],vertical,"(390.0, 262.0)",1.4,0.391,1,3859.584,3,0.04,0.25
0,288,target,"[(1156, 787)]",[],[1],[0.4],horizontal,"(390.0, 762.0)",1.4666666666666666,0.364,1,3865.5,3,0.04,0.25
0,289,target,"[(1164, 795)]",[],[1],[0.5166666666666666],vertical,"(390.0, 762.0)",0.8166666666666667,0.474,1,3871.517,3,0.04,0.25
0,290,target,"[(1165, 788)]",[],[1],[0.48333333333333334],horizontal,"(890.0, 262.0)",1.3333333333333333,0.448,1,3877.319,3,0.04,0.25
0,291,catch,"[(1154, 796)]",[],[1],[],horizontal,"(890.0, 262.0)",1.7,nan,1,3883.184,3,0.02,0.25
0,292,target,"[(1154, 786)]",[],[1],[0.55],horizontal,"(890.0, 262.0)",0.8833333333333333,0.507,1,3889.518,3,0.02,0.25
0,293,target,"[(1156, 785)]",[],[1],[0.55],horizontal,"(890.0, 762.0)",1.0666666666666667,0.508,1,3895.491,3,0.02,0.25
0,294,target,"[(1166, 803)]",[],[1],[0.7333333333333333],horizontal,"(390.0, 262.0)",0.9833333333333333,0.696,1,3901.652,3,0.02,0.25
0,295,target,"[(1154, 805)]",[],[1],[0.5166666666666666],vertical,"(890.0, 262.0)",1.3166666666666667,0.474,1,3907.901,3,0.02,0.25
0,296,catch,"[(1170, 790)]",[],[1],[],vertical,"(390.0, 262.0)",1.7,nan,1,3913.684,3,0.02,0.25
0,297,target,"[(1151, 789)]",[],[1],[0.4666666666666667],vertical,"(890.0, 262.0)",0.9166666666666666,0.43,1,3919.419,3,0.02,0.25
0,298,target,"[(1153, 789)]",[],[1],[0.5333333333333333],vertical,"(890.0, 762.0)",0.4166666666666667,0.491,1,3925.269,3,0.02,0.25
0,299,target,"[(1151, 790)]",[],[1],[0.5166666666666666],vertical,"(890.0, 762.0)",1.3666666666666667,0.475,1,3930.434,3,0.02,0.25
0,300,catch,"[(1156, 813)]",[],[1],[],horizontal,"(390.0, 262.0)",1.7,nan,1,3936.537,3,0.02,0.25
0,301,target,"[(1166, 794)]",[],[1],[0.65],vertical,"(890.0, 262.0)",0.65,0.611,1,3942.568,3,0.02,0.25
0,302,target,"[(1169, 807)]",[],[1],[0.6],horizontal,"(390.0, 762.0)",1.25,0.559,1,3947.966,3,0.02,0.25
0,303,catch,"[(1152, 794)]",[],[1],[],horizontal,"(890.0, 762.0)",1.7,nan,1,3954.319,3,0.02,0.25
0,304,target,"[(1168, 795)]",[],[1],[0.55],vertical,"(390.0, 762.0)",1.0,0.511,1,3960.685,3,0.02,0.25
0,305,target,"[(1146, 811)]",[],[1],[0.43333333333333335],vertical,"(890.0, 262.0)",0.8833333333333333,0.39,1,3966.881,3,0.02,0.25
0,306,target,"[(1154, 808)]",[],[1],[0.6666666666666666],horizontal,"(890.0, 262.0)",1.0666666666666667,0.622,1,3972.319,3,0.02,0.25
0,307,catch,"[(1132, 808)]",[],[1],[],vertical,"(890.0, 262.0)",1.7,nan,1,3978.018,3,0.02,0.25
0,308,target,"[(1158, 789)]",[],[1],[0.3],horizontal,"(390.0, 262.0)",1.5166666666666666,0.264,1,3984.002,3,0.02,0.25
0,309,target,"[(1151, 802)]",[],[1],[0.5333333333333333],vertical,"(390.0, 762.0)",0.5,0.493,1,3990.009,3,0.02,0.25
0,310,catch,"[(1166, 827)]",[],[1],[],vertical,"(890.0, 262.0)",1.7,nan,1,3995.221,3,0.02,0.25
0,311,target,"[(1167, 789)]",[],[1],[0.5833333333333334],horizontal,"(390.0, 762.0)",0.9833333333333333,0.538,1,4001.036,3,0.02,0.25
0,312,target,"[(1142, 779)]",[],[1],[0.5166666666666666],horizontal,"(890.0, 262.0)",0.4,0.478,1,4006.56,3,0.0,0.25
0,313,target,"[(1164, 799)]",[],[1],[0.5166666666666666],horizontal,"(390.0, 262.0)",0.6666666666666666,0.479,1,4011.614,3,0.0,0.25
0,314,target,"[(1150, 807)]",[],[1],[0.5],vertical,"(890.0, 262.0)",0.7833333333333333,0.465,1,4017.485,3,0.0,0.25
0,315,target,"[(1150, 819)]",[],[1],[0.5333333333333333],horizontal,"(390.0, 762.0)",1.05,0.495,1,4022.786,3,0.0,0.25
0,316,target,"[(1144, 786)]",[],[1],[0.6],vertical,"(890.0, 262.0)",0.85,0.557,1,4545.602,3,0.0,0.25
0,317,target,"[(1128, 823)]",[],[1],[0.5333333333333333],vertical,"(390.0, 262.0)",0.6166666666666667,0.487,1,4551.288,3,0.0,0.25
0,318,target,"[(1153, 803)]",[],[1],[0.6666666666666666],horizontal,"(890.0, 262.0)",0.45,0.626,1,4556.809,3,0.0,0.25
0,319,target,"[(1176, 794)]",[],[1],[0.5333333333333333],vertical,"(890.0, 762.0)",1.2333333333333334,0.494,1,4562.22,3,0.0,0.25
0,320,catch,"[(1167, 803)]",[],[1],[],horizontal,"(390.0, 762.0)",1.7,nan,1,4567.971,3,0.0,0.25
0,321,target,"[(1155, 792)]",[],[1],[0.5166666666666666],horizontal,"(890.0, 262.0)",1.2666666666666666,0.485,1,4573.703,3,0.0,0.25
0,322,target,"[(1157, 811)]",[],[1],[0.5166666666666666],horizontal,"(890.0, 762.0)",0.6333333333333333,0.478,1,4579.639,3,0.0,0.25
0,323,target,"[(1164, 811)]",[],[1],[0.4],vertical,"(390.0, 262.0)",1.5166666666666666,0.367,1,4585.196,3,0.0,0.25
0,324,target,"[(1165, 806)]",[],[1],[0.7833333333333333],horizontal,"(390.0, 262.0)",0.9333333333333333,0.745,1,4590.886,3,0.0,0.25
0,325,target,"[(1162, 793)]",[],[1],[0.5],horizontal,"(390.0, 762.0)",0.8,0.462,1,4597.021,3,0.0,0.25
0,326,catch,"[(1169, 794)]",[],[1],[],horizontal,"(390.0, 262.0)",1.7,nan,1,4602.703,3,0.0,0.25
0,327,target,"[(1156, 784)]",[],[1],[0.5166666666666666],horizontal,"(890.0, 762.0)",0.35,0.475,1,4608.956,3,0.0,0.25
0,328,target,"[(1176, 794)]",[],[1],[0.5],vertical,"(890.0, 262.0)",0.36666666666666664,0.46,1,4613.806,3,0.0,0.25
0,329,target,"[(1156, 781)]",[],[1],[0.6166666666666667],horizontal,"(890.0, 262.0)",0.36666666666666664,0.583,1,4618.61,3,0.0,0.25
0,330,target,"[(1150, 781)]",[],[1],[0.65],horizontal,"(890.0, 262.0)",0.8333333333333334,0.612,1,4623.758,3,0.0,0.25
0,331,target,"[(1164, 792)]",[],[1],[0.6666666666666666],horizontal,"(390.0, 762.0)",0.43333333333333335,0.633,1,4629.285,3,0.0,0.25
0,332,target,"[(1164, 803)]",[],[1],[0.5166666666666666],vertical,"(390.0, 262.0)",0.5166666666666666,0.479,1,4634.94,3,0.0,0.25
0,333,catch,"[(1158, 790)]",[],[1],[],vertical,"(390.0, 262.0)",1.7,nan,1,4640.385,3,0.0,0.25
0,334,target,"[(1156, 797)]",[],[1],[0.6166666666666667],vertical,"(390.0, 262.0)",0.7833333333333333,0.57,1,4646.104,3,0.0,0.25
0,335,target,"[(1151, 798)]",[],[1],[0.45],vertical,"(390.0, 262.0)",0.7,0.41,1,4651.698,3,0.0,0.25
0,336,target,"[(1168, 782)]",[],[1],[0.6333333333333333],horizontal,"(390.0, 762.0)",0.7666666666666666,0.594,1,4657.435,3,0.0,0.25
0,337,target,"[(1151, 784)]",[],[1],[0.6833333333333333],vertical,"(390.0, 262.0)",0.6333333333333333,0.642,1,4662.956,3,0.0,0.25
0,338,target,"[(1162, 786)]",[],[1],[0.55],horizontal,"(390.0, 262.0)",0.8166666666666667,0.512,1,4668.269,3,0.0,0.25
0,339,target,"[(1165, 798)]",[],[1],[0.5166666666666666],horizontal,"(890.0, 762.0)",0.9333333333333333,0.473,1,4673.972,3,0.0,0.25
0,340,catch,"[(1151, 797)]",[],[1],[],horizontal,"(390.0, 762.0)",1.7,nan,1,4679.657,3,0.0,0.25
0,341,target,"[(1171, 786)]",[],[1],[0.31666666666666665],horizontal,"(390.0, 762.0)",1.5333333333333332,0.284,1,4685.376,3,0.0,0.25
0,342,catch,"[(1172, 796)]",[],[1],[],horizontal,"(390.0, 262.0)",1.7,nan,1,4691.305,3,0.0,0.25
0,343,target,"[(1161, 800)]",[],[1],[0.4166666666666667],horizontal,"(890.0, 762.0)",0.9,0.381,1,4697.587,3,0.0,0.25
0,344,target,"[(1151, 792)]",[],[1],[0.7166666666666667],horizontal,"(390.0, 762.0)",0.43333333333333335,0.673,1,4703.521,3,0.0,0.25
0,345,target,"[(1164, 803)]",[],[1],[0.55],vertical,"(390.0, 262.0)",0.5166666666666666,0.509,1,4708.656,3,0.0,0.25
0,346,target,"[(1163, 796)]",[],[1],[0.5333333333333333],vertical,"(390.0, 262.0)",0.7,0.501,1,4714.242,3,0.0,0.25
0,347,target,"[(1166, 778)]",[],[1],[0.5333333333333333],vertical,"(390.0, 762.0)",1.35,0.494,1,4719.703,3,0.0,0.25
0,348,catch,"[(1128, 799)]",[],[1],[],vertical,"(390.0, 762.0)",,"('cti', 1.082),nan",0,4726.037,0,0.02,0.25
0,349,target,"[(1131, 813)]",[],[1],[0.5166666666666666],vertical,"(390.0, 262.0)",0.8333333333333334,0.479,1,4730.404,1,0.02,0.25
0,350,target,"[(1160, 804)]",[],[1],[0.31666666666666665],horizontal,"(890.0, 262.0)",1.35,0.279,1,4735.713,1,0.02,0.25
0,351,target,"[(1138, 803)]",[],[1],[0.5166666666666666],horizontal,"(890.0, 762.0)",0.9333333333333333,0.479,1,4740.903,1,0.02,0.25
0,352,target,"[(1176, 783)]",[],[1],[0.6],vertical,"(890.0, 762.0)",1.3333333333333333,0.558,1,4745.587,2,0.02,0.25
0,353,target,"[(1154, 804)]",[],[1],[0.5333333333333333],horizontal,"(390.0, 262.0)",1.0333333333333332,0.495,1,4751.221,2,0.02,0.25
0,354,target,"[(1166, 815)]",[],[1],[0.36666666666666664],horizontal,"(890.0, 262.0)",1.1833333333333333,0.324,1,4756.811,2,0.02,0.25
0,355,target,"[(1146, 813)]",[],[1],[0.6833333333333333],vertical,"(390.0, 262.0)",0.3833333333333333,0.639,1,4762.088,2,0.02,0.25
0,356,catch,"[(1164, 782)]",[],[1],[],vertical,"(890.0, 262.0)",1.7,nan,1,4767.486,3,0.02,0.25
0,357,target,"[(1162, 805)]",[],[1],[0.5],vertical,"(390.0, 762.0)",0.7,0.458,1,4773.189,3,0.02,0.25
0,358,target,"[(1183, 787)]",[],[1],[0.5666666666666667],horizontal,"(390.0, 262.0)",1.1333333333333333,0.52,1,4779.055,3,0.02,0.25
0,359,catch,"[(1163, 782)]",[],[1],[0.03333333333333333],vertical,"(890.0, 762.0)",1.7,"0.019,nan",0,4784.972,0,0.04,0.25
0,360,catch,"[(1156, 806)]",[],[1],[],horizontal,"(390.0, 262.0)",1.7,nan,1,4789.504,1,0.04,0.25
0,361,target,"[(1155, 798)]",[],[1],[0.35],horizontal,"(390.0, 262.0)",1.4666666666666666,0.31,1,4794.837,1,0.04,0.25
0,362,target,"[(1134, 791)]",[],[1],[0.55],horizontal,"(390.0, 262.0)",0.45,0.51,1,4800.008,1,0.04,0.25
0,363,target,"[(1169, 797)]",[],[1],[0.7666666666666666],vertical,"(390.0, 762.0)",0.4166666666666667,0.722,1,4804.246,2,0.04,0.25
0,364,target,"[(1176, 797)]",[],[1],[0.36666666666666664],horizontal,"(890.0, 762.0)",1.5333333333333332,0.327,1,4809.339,2,0.04,0.25
0,365,target,"[(1167, 833)]",[],[1],[0.5166666666666666],horizontal,"(890.0, 262.0)",0.8666666666666667,0.478,1,4815.506,2,0.04,0.25
0,366,catch,"[(1153, 784)]",[],[1],[],horizontal,"(390.0, 262.0)",1.7,nan,1,4820.805,2,0.04,0.25
0,367,catch,"[(1171, 775)]",[],[1],[],vertical,"(390.0, 262.0)",,"('cti', 1.399),nan",0,4826.372,0,0.06,0.25
0,368,catch,"[(1135, 798)]",[],[1],[],vertical,"(890.0, 262.0)",1.7,nan,1,4831.104,1,0.06,0.25
0,369,target,"[(1156, 787)]",[],[1],[0.7],vertical,"(390.0, 762.0)",0.48333333333333334,0.657,1,4836.055,1,0.06,0.25
0,370,target,"[(1169, 790)]",[],[1],[0.7166666666666667],horizontal,"(390.0, 262.0)",1.2666666666666666,0.67,1,4840.771,1,0.06,0.25
0,371,catch,"[(1171, 806)]",[],[1],[],horizontal,"(390.0, 762.0)",1.7,nan,1,4846.284,2,0.06,0.25
0,372,catch,"[(1166, 796)]",[],[1],[],horizontal,"(390.0, 262.0)",1.7,nan,1,4851.922,2,0.06,0.25
0,373,catch,"[(1151, 788)]",[],[1],[],horizontal,"(390.0, 762.0)",1.7,nan,1,4857.355,2,0.06,0.25
0,374,target,"[(1166, 783)]",[],[1],[0.5333333333333333],vertical,"(890.0, 762.0)",1.5166666666666666,0.494,1,4863.139,2,0.06,0.25
0,375,target,"[(1166, 815)]",[],[1],[0.85],horizontal,"(390.0, 262.0)",0.8,nan,0,4869.456,0,0.06,0.25
0,376,target,"[(1156, 791)]",[],[1],[0.5666666666666667],vertical,"(390.0, 262.0)",1.0666666666666667,0.524,1,4874.038,1,0.06,0.25
0,377,target,"[(1143, 827)]",[],[1],[0.85],horizontal,"(890.0, 762.0)",0.3833333333333333,nan,0,4878.988,0,0.06,0.25
0,378,target,"[(1151, 818)]",[],[1],[0.6166666666666667],horizontal,"(890.0, 262.0)",0.6333333333333333,0.572,1,4883.155,1,0.06,0.25
0,379,target,"[(1152, 787)]",[],[1],[0.5666666666666667],vertical,"(890.0, 762.0)",0.8333333333333334,0.527,1,4887.798,1,0.06,0.25
0,380,target,"[(1161, 795)]",[],[1],[0.6],horizontal,"(890.0, 262.0)",0.6333333333333333,0.561,1,4892.704,1,0.06,0.25
0,381,target,"[(1156, 789)]",[],[1],[0.7166666666666667],horizontal,"(390.0, 762.0)",1.2666666666666666,0.666,1,4897.72,2,0.06,0.25
0,382,catch,"[(1153, 781)]",[],[1],[],horizontal,"(890.0, 762.0)",,"('cti', 1.613),nan",0,4903.455,0,0.08,0.25
0,383,target,"[(1156, 794)]",[],[1],[0.5833333333333334],horizontal,"(390.0, 762.0)",0.3833333333333333,0.546,1,4908.389,1,0.08,0.25
0,384,catch,"[(1171, 802)]",[],[1],[],vertical,"(390.0, 762.0)",1.7,nan,1,4912.567,1,0.08,0.25
0,385,target,"[(1170, 800)]",[],[1],[0.6666666666666666],horizontal,"(390.0, 262.0)",1.1,0.625,1,4917.455,1,0.08,0.25
0,386,target,"[(1151, 778)]",[],[1],[0.5333333333333333],vertical,"(890.0, 762.0)",1.2166666666666666,0.491,1,4922.339,2,0.08,0.25
0,387,catch,"[(1159, 804)]",[],[1],[],horizontal,"(890.0, 262.0)",1.7,nan,1,4928.18,2,0.08,0.25
0,388,target,"[(1133, 825)]",[],[1],[0.48333333333333334],horizontal,"(390.0, 262.0)",1.1166666666666667,0.443,1,4933.68,2,0.08,0.25
0,389,target,"[(1143, 794)]",[],[1],[0.5666666666666667],horizontal,"(390.0, 762.0)",0.9333333333333333,0.528,1,4939.134,2,0.08,0.25
0,390,target,"[(1147, 813)]",[],[1],[0.55],horizontal,"(890.0, 262.0)",1.2833333333333332,0.509,1,4944.443,3,0.08,0.25
0,391,catch,"[(1152, 795)]",[],[1],[],horizontal,"(890.0, 762.0)",1.7,nan,1,4950.63,3,0.08,0.25
0,392,target,"[(1161, 799)]",[],[1],[0.85],horizontal,"(890.0, 262.0)",0.8333333333333334,nan,0,4956.641,0,0.08,0.25
0,393,target,"[(1109, 824)]",[],[1],[0.08333333333333333],vertical,"(890.0, 262.0)",1.3666666666666667,0.053,0,4961.135,0,0.08,0.25
0,394,target,"[(1112, 792)]",[],[1],[0.7],horizontal,"(390.0, 262.0)",0.35,0.665,1,5031.223,1,0.08,0.25
0,395,target,"[(1155, 794)]",[],[1],[0.5666666666666667],horizontal,"(890.0, 262.0)",0.9833333333333333,0.525,1,5036.098,1,0.08,0.25
0,396,target,"[(1148, 797)]",[],[1],[0.5666666666666667],vertical,"(890.0, 262.0)",0.9,0.527,1,5040.823,1,0.08,0.25
0,397,target,"[(1155, 803)]",[],[1],[0.5333333333333333],vertical,"(890.0, 762.0)",1.15,0.492,1,5045.687,2,0.08,0.25
0,398,catch,"[(1157, 793)]",[],[1],[],vertical,"(890.0, 262.0)",1.7,"('cti', 1.695),nan",0,5050.888,0,0.08,0.25
0,399,target,"[(1132, 803)]",[],[1],[0.65],horizontal,"(890.0, 762.0)",0.35,0.609,1,5055.473,1,0.08,0.25
0,400,target,"[(1149, 783)]",[],[1],[0.6333333333333333],horizontal,"(390.0, 762.0)",1.2333333333333334,0.587,1,5059.805,1,0.08,0.25
0,401,target,"[(1153, 795)]",[],[1],[0.6166666666666667],vertical,"(890.0, 762.0)",1.35,0.576,1,5065.24,1,0.08,0.25
0,402,target,"[(1153, 812)]",[],[1],[0.5],vertical,"(890.0, 262.0)",0.8333333333333334,0.457,1,5070.639,2,0.08,0.25
0,403,target,"[(1156, 803)]",[],[1],[0.55],horizontal,"(390.0, 762.0)",0.5666666666666667,0.508,1,5075.758,2,0.08,0.25
0,404,target,"[(1162, 799)]",[],[1],[0.65],horizontal,"(390.0, 262.0)",0.55,0.605,1,5080.572,2,0.08,0.25
0,405,target,"[(1159, 792)]",[],[1],[0.5833333333333334],horizontal,"(890.0, 762.0)",0.8833333333333333,0.544,1,5085.988,2,0.08,0.25
0,406,target,"[(1153, 804)]",[],[1],[0.65],horizontal,"(890.0, 762.0)",0.5,0.607,1,5091.189,3,0.08,0.25
0,407,target,"[(1148, 794)]",[],[1],[0.5],horizontal,"(890.0, 262.0)",1.4166666666666667,0.461,1,5096.655,3,0.08,0.25
0,408,catch,"[(1128, 783)]",[],[1],[],vertical,"(390.0, 762.0)",1.7,nan,1,5102.311,3,0.08,0.25
0,409,catch,"[(1158, 782)]",[],[1],[0.03333333333333333],horizontal,"(390.0, 262.0)",1.7,"0.02,nan",0,5107.94,0,0.08,0.25
0,410,target,"[(1166, 790)]",[],[1],[0.5],vertical,"(390.0, 262.0)",1.3666666666666667,0.465,1,5112.79,1,0.08,0.25
0,411,target,"[(1161, 786)]",[],[1],[0.6333333333333333],vertical,"(890.0, 762.0)",1.3833333333333333,0.594,1,5118.339,1,0.08,0.25
0,412,target,"[(1167, 779)]",[],[1],[0.6333333333333333],vertical,"(890.0, 762.0)",1.3666666666666667,0.6,1,5123.752,1,0.08,0.25
0,413,catch,"[(1133, 794)]",[],[1],[],horizontal,"(890.0, 762.0)",1.7,nan,1,5128.991,2,0.08,0.25
0,414,target,"[(1135, 824)]",[],[1],[0.7833333333333333],vertical,"(390.0, 762.0)",1.0166666666666666,0.746,1,5134.49,2,0.08,0.25
0,415,target,"[(1132, 792)]",[],[1],[0.85],horizontal,"(390.0, 762.0)",1.3166666666666667,nan,0,5140.467,0,0.08,0.25
0,416,catch,"[(1128, 786)]",[],[1],[],vertical,"(890.0, 762.0)",1.7,nan,1,5145.123,1,0.08,0.25
0,417,target,"[(1154, 789)]",[],[1],[0.5666666666666667],vertical,"(890.0, 262.0)",0.7166666666666667,0.529,1,5150.629,1,0.06,0.25
0,418,target,"[(1154, 818)]",[],[1],[0.5333333333333333],vertical,"(390.0, 762.0)",1.4333333333333333,0.489,1,5155.123,1,0.06,0.25
0,419,catch,"[(1154, 798)]",[],[1],[],horizontal,"(390.0, 262.0)",1.7,nan,1,5160.29,2,0.06,0.25
0,420,catch,"[(1155, 782)]",[],[1],[],horizontal,"(890.0, 762.0)",,"('cti', 1.692),nan",0,5166.207,0,0.08,0.25
0,421,target,"[(1137, 813)]",[],[1],[0.85],horizontal,"(890.0, 762.0)",1.2833333333333332,nan,0,5170.774,0,0.08,0.25
0,422,target,"[(1129, 802)]",[],[1],[0.7166666666666667],vertical,"(390.0, 262.0)",0.4666666666666667,0.673,1,5176.272,1,0.08,0.25
0,423,catch,"[(1147, 818)]",[],[1],[],horizontal,"(390.0, 262.0)",1.7,nan,1,5181.023,1,0.08,0.25
0,424,target,"[(1141, 795)]",[],[1],[0.5],vertical,"(890.0, 262.0)",1.25,0.465,1,5186.424,1,0.08,0.25
0,425,target,"[(1155, 784)]",[],[1],[0.6333333333333333],vertical,"(390.0, 762.0)",1.3166666666666667,0.593,1,5191.589,2,0.08,0.25
0,426,catch,"[(1156, 787)]",[],[1],[],vertical,"(890.0, 762.0)",,"('cti', 1.611),nan",0,5197.361,0,0.1,0.25
0,427,target,"[(1125, 797)]",[],[1],[0.5833333333333334],horizontal,"(390.0, 262.0)",1.1166666666666667,0.547,1,5201.941,1,0.1,0.25
0,428,catch,"[(1161, 796)]",[],[1],[],vertical,"(890.0, 762.0)",1.7,nan,1,5207.134,1,0.1,0.25
0,429,target,"[(1150, 761)]",[],[1],[0.6],horizontal,"(890.0, 262.0)",0.8333333333333334,0.564,1,5212.584,1,0.1,0.25
0,430,target,"[(1153, 813)]",[],[1],[0.55],vertical,"(390.0, 762.0)",0.35,0.51,1,5217.444,2,0.1,0.25
0,431,target,"[(1154, 803)]",[],[1],[0.48333333333333334],horizontal,"(890.0, 262.0)",1.35,0.444,1,5222.43,2,0.1,0.25
0,432,target,"[(1183, 808)]",[],[1],[0.5333333333333333],vertical,"(390.0, 762.0)",1.4166666666666667,0.501,1,5228.018,2,0.08,0.25
0,433,target,"[(1158, 800)]",[],[1],[0.6666666666666666],horizontal,"(890.0, 762.0)",0.5833333333333334,0.624,1,5233.438,2,0.08,0.25
0,434,catch,"[(1156, 798)]",[],[1],[],horizontal,"(390.0, 262.0)",1.7,nan,1,5238.378,3,0.08,0.25
0,435,target,"[(1167, 817)]",[],[1],[0.7],horizontal,"(390.0, 762.0)",1.3166666666666667,0.657,1,5244.986,3,0.08,0.25
0,436,target,"[(1133, 806)]",[],[1],[0.5333333333333333],horizontal,"(890.0, 262.0)",0.43333333333333335,0.498,1,5251.007,3,0.08,0.25
0,437,target,"[(1156, 793)]",[],[1],[0.5],horizontal,"(890.0, 262.0)",1.5333333333333332,0.464,1,5256.44,3,0.08,0.25
0,438,target,"[(1147, 792)]",[],[1],[0.5],horizontal,"(390.0, 262.0)",1.35,0.463,1,5262.773,3,0.08,0.25
0,439,target,"[(1151, 771)]",[],[1],[0.55],vertical,"(390.0, 762.0)",0.9666666666666667,0.512,1,5268.573,3,0.08,0.25
0,440,target,"[(1152, 778)]",[],[1],[0.5166666666666666],vertical,"(390.0, 762.0)",0.9,0.481,1,5274.52,3,0.08,0.25
0,441,target,"[(1158, 782)]",[],[1],[0.48333333333333334],horizontal,"(390.0, 762.0)",1.2833333333333332,0.448,1,5280.09,3,0.08,0.25
0,442,target,"[(1140, 787)]",[],[1],[0.55],vertical,"(890.0, 762.0)",0.9166666666666666,0.508,1,5285.995,3,0.08,0.25
0,443,catch,"[(1162, 783)]",[],[1],[],vertical,"(890.0, 262.0)",1.7,nan,1,5291.621,3,0.08,0.25
0,444,catch,"[(1167, 816)]",[],[1],[],horizontal,"(890.0, 762.0)",1.7,nan,1,5297.604,3,0.08,0.25
0,445,catch,"[(1158, 794)]",[],[1],[],vertical,"(890.0, 762.0)",1.7,nan,1,5303.602,3,0.08,0.25
0,446,target,"[(1152, 802)]",[],[1],[0.5833333333333334],vertical,"(390.0, 762.0)",1.1,0.542,1,5309.673,3,0.08,0.25
0,447,target,"[(1156, 805)]",[],[1],[],horizontal,"(890.0, 762.0)",,"('cti', 0.622)",0,5315.801,0,0.1,0.25
0,448,target,"[(1122, 814)]",[],[1],[0.35],vertical,"(890.0, 262.0)",1.2166666666666666,0.311,1,5319.689,1,0.08,0.25
0,449,target,"[(1133, 820)]",[],[1],[0.48333333333333334],horizontal,"(890.0, 762.0)",0.5666666666666667,0.439,1,5325.106,1,0.08,0.25
0,450,target,"[(1166, 780)]",[],[1],[0.5],vertical,"(890.0, 762.0)",1.0,0.462,1,5329.623,1,0.08,0.25
0,451,target,"[(1175, 807)]",[],[1],[0.55],vertical,"(890.0, 262.0)",0.55,0.517,1,5334.89,2,0.08,0.25
0,452,target,"[(1152, 798)]",[],[1],[0.5666666666666667],horizontal,"(890.0, 762.0)",0.4166666666666667,0.526,1,5339.54,2,0.08,0.25
0,453,target,"[(1151, 796)]",[],[1],[0.6],vertical,"(890.0, 762.0)",0.8166666666666667,0.561,1,5344.073,2,0.08,0.25
0,454,catch,"[(1156, 783)]",[],[1],[],horizontal,"(390.0, 762.0)",,"('cti', 1.596),nan",0,5349.29,0,0.1,0.25
0,455,target,"[(1166, 806)]",[],[1],[0.5333333333333333],horizontal,"(890.0, 262.0)",0.75,0.494,1,5353.808,1,0.1,0.25
0,456,target,"[(1131, 848)]",[],[1],[0.6],vertical,"(890.0, 762.0)",0.5333333333333333,0.56,1,5358.573,1,0.1,0.25
0,457,target,"[(1164, 808)]",[],[1],[0.5833333333333334],vertical,"(390.0, 262.0)",1.3166666666666667,0.548,1,5789.808,1,0.1,0.25
0,458,catch,"[(1169, 806)]",[],[1],[],vertical,"(390.0, 262.0)",1.7,nan,1,5795.175,2,0.1,0.25
0,459,target,"[(1124, 822)]",[],[1],[0.5166666666666666],horizontal,"(890.0, 262.0)",0.35,0.483,1,5800.864,2,0.08,0.25
0,460,catch,"[(1160, 786)]",[],[1],[],horizontal,"(390.0, 262.0)",1.7,nan,1,5805.609,2,0.08,0.25
0,461,catch,"[(1162, 799)]",[],[1],[],vertical,"(390.0, 762.0)",1.7,nan,1,5811.043,2,0.08,0.25
0,462,target,"[(1160, 791)]",[],[1],[0.5166666666666666],vertical,"(890.0, 262.0)",1.1833333333333333,0.48,1,5816.493,3,0.08,0.25
0,463,target,"[(1158, 814)]",[],[1],[0.85],vertical,"(890.0, 762.0)",0.7666666666666666,nan,0,5822.501,0,0.08,0.25
0,464,target,"[(1132, 803)]",[],[1],[0.5833333333333334],vertical,"(890.0, 762.0)",0.7166666666666667,0.54,1,5826.552,1,0.08,0.25
0,465,target,"[(1117, 813)]",[],[1],[0.5],horizontal,"(890.0, 262.0)",0.7666666666666666,0.463,1,5831.609,1,0.08,0.25
0,466,catch,"[(1188, 802)]",[],[1],[],vertical,"(390.0, 762.0)",1.7,nan,1,5836.358,1,0.08,0.25
0,467,target,"[(1161, 784)]",[],[1],[0.5666666666666667],horizontal,"(890.0, 262.0)",0.7333333333333333,0.53,1,5841.735,2,0.08,0.25
0,468,catch,"[(1166, 808)]",[],[1],[],vertical,"(390.0, 262.0)",1.7,nan,1,5846.592,2,0.08,0.25
0,469,target,"[(1175, 800)]",[],[1],[0.5833333333333334],horizontal,"(390.0, 262.0)",0.6,0.545,1,5851.842,2,0.08,0.25
0,470,catch,"[(1190, 792)]",[],[1],[],horizontal,"(390.0, 762.0)",,"('cti', 1.534),nan",0,5857.024,0,0.08,0.25
0,471,target,"[(1130, 808)]",[],[1],[0.5333333333333333],horizontal,"(390.0, 262.0)",0.7,0.496,1,5861.931,1,0.08,0.25
0,472,target,"[(1166, 809)]",[],[1],[0.6666666666666666],horizontal,"(390.0, 762.0)",0.7333333333333333,0.635,1,5866.692,1,0.08,0.25
0,473,catch,"[(1159, 789)]",[],[1],[],vertical,"(390.0, 762.0)",1.7,nan,1,5871.462,1,0.08,0.25
0,474,target,"[(1190, 828)]",[],[1],[0.5],vertical,"(890.0, 262.0)",0.95,0.464,1,5876.707,2,0.08,0.25
0,475,target,"[(1151, 803)]",[],[1],[0.5833333333333334],horizontal,"(890.0, 762.0)",0.75,0.542,1,5881.814,2,0.08,0.25
0,476,catch,"[(1169, 803)]",[],[1],[],vertical,"(890.0, 762.0)",1.7,nan,1,5887.408,2,0.06,0.25
0,477,target,"[(1171, 789)]",[],[1],[0.85],vertical,"(890.0, 762.0)",0.6166666666666667,nan,0,5893.126,0,0.06,0.25
0,478,target,"[(1153, 796)]",[],[1],[0.6],horizontal,"(890.0, 762.0)",0.35,0.565,1,5897.809,1,0.06,0.25
0,479,target,"[(1155, 788)]",[],[1],[0.4666666666666667],vertical,"(390.0, 762.0)",1.5333333333333332,0.423,1,5902.076,1,0.06,0.25
0,480,target,"[(1156, 793)]",[],[1],[0.8166666666666667],vertical,"(890.0, 262.0)",1.1,0.773,1,5907.648,1,0.06,0.25
0,481,target,"[(1164, 807)]",[],[1],[0.6666666666666666],vertical,"(890.0, 262.0)",1.2333333333333334,0.64,1,5913.459,2,0.06,0.25
0,482,target,"[(1154, 789)]",[],[1],[0.6],horizontal,"(390.0, 762.0)",1.2666666666666666,0.557,1,5919.109,2,0.06,0.25
0,483,target,"[(1169, 774)]",[],[1],[0.36666666666666664],vertical,"(390.0, 262.0)",1.5166666666666666,0.326,1,5924.499,2,0.06,0.25
0,484,target,"[(1161, 792)]",[],[1],[0.65],horizontal,"(390.0, 262.0)",1.1333333333333333,0.614,1,5930.375,2,0.06,0.25
0,485,target,"[(1162, 796)]",[],[1],[0.5833333333333334],vertical,"(890.0, 762.0)",0.9,0.538,1,5936.026,3,0.06,0.25
0,486,target,"[(1156, 791)]",[],[1],[0.5333333333333333],horizontal,"(890.0, 262.0)",0.55,0.493,1,5941.821,3,0.06,0.25
0,487,target,"[(1162, 786)]",[],[1],[0.45],horizontal,"(890.0, 262.0)",0.5,0.411,1,5946.803,3,0.06,0.25
0,488,catch,"[(1153, 792)]",[],[1],[],vertical,"(890.0, 762.0)",1.7,nan,1,5951.626,3,0.06,0.25
0,489,catch,"[(1172, 789)]",[],[1],[],horizontal,"(390.0, 762.0)",1.7,nan,1,5957.51,3,0.06,0.25
0,490,target,"[(1168, 813)]",[],[1],[0.85],horizontal,"(390.0, 262.0)",0.6,nan,0,5963.759,0,0.06,0.25
0,491,target,"[(1154, 791)]",[],[1],[0.85],horizontal,"(890.0, 262.0)",0.5666666666666667,nan,0,5968.225,0,0.06,0.25
0,492,target,"[(1152, 795)]",[],[1],[0.5333333333333333],vertical,"(390.0, 262.0)",1.25,0.5,1,5972.359,1,0.06,0.25
0,493,target,"[(1171, 788)]",[],[1],[0.5],horizontal,"(890.0, 762.0)",0.6833333333333333,0.464,1,5977.49,1,0.06,0.25
0,494,target,"[(1170, 806)]",[],[1],[0.6],vertical,"(890.0, 762.0)",0.7333333333333333,0.558,1,5981.744,1,0.06,0.25
0,495,catch,"[(1171, 799)]",[],[1],[],horizontal,"(890.0, 262.0)",1.7,nan,1,5987.029,2,0.06,0.25
0,496,target,"[(1197, 786)]",[],[1],[0.55],vertical,"(890.0, 762.0)",1.2833333333333332,0.512,1,5992.244,2,0.06,0.25
0,497,target,"[(1167, 804)]",[],[1],[0.85],vertical,"(890.0, 762.0)",0.5333333333333333,nan,0,5998.258,0,0.04,0.25
0,498,target,"[(1143, 796)]",[],[1],[0.5666666666666667],vertical,"(390.0, 762.0)",1.2833333333333332,0.527,1,6002.394,1,0.04,0.25
0,499,catch,"[(1166, 803)]",[],[1],[],vertical,"(390.0, 262.0)",1.7,nan,1,6007.553,1,0.04,0.25
0,500,target,"[(1167, 787)]",[],[1],[0.5333333333333333],vertical,"(390.0, 762.0)",0.4666666666666667,0.489,1,6012.544,1,0.04,0.25
0,501,target,"[(1169, 791)]",[],[1],[0.6166666666666667],vertical,"(890.0, 762.0)",0.55,0.579,1,6017.042,2,0.04,0.25
0,502,target,"[(1162, 769)]",[],[1],[0.55],horizontal,"(390.0, 762.0)",0.7166666666666667,0.508,1,6022.309,2,0.04,0.25
0,503,target,"[(1166, 798)]",[],[1],[0.6333333333333333],horizontal,"(390.0, 762.0)",0.8333333333333334,0.592,1,6027.458,2,0.04,0.25
0,504,catch,"[(1154, 788)]",[],[1],[],vertical,"(390.0, 762.0)",1.7,nan,1,6032.541,2,0.02,0.25
0,505,target,"[(1171, 811)]",[],[1],[0.5],vertical,"(390.0, 762.0)",0.5666666666666667,0.459,1,6037.891,3,0.02,0.25
0,506,catch,"[(1168, 843)]",[],[1],[],horizontal,"(390.0, 262.0)",,"('cti', 1.581),nan",0,6043.225,0,0.04,0.25
0,507,target,"[(1137, 808)]",[],[1],[0.5333333333333333],horizontal,"(890.0, 262.0)",0.55,0.493,1,6048.41,1,0.04,0.25
0,508,target,"[(1150, 786)]",[],[1],[0.4666666666666667],vertical,"(890.0, 262.0)",1.4,0.431,1,6053.071,1,0.04,0.25
0,509,target,"[(1169, 789)]",[],[1],[0.5166666666666666],horizontal,"(390.0, 262.0)",0.4166666666666667,0.485,1,6058.224,1,0.04,0.25
0,510,target,"[(1166, 794)]",[],[1],[0.6333333333333333],horizontal,"(390.0, 262.0)",0.8333333333333334,0.596,1,6062.342,2,0.04,0.25
0,511,target,"[(1163, 804)]",[],[1],[0.43333333333333335],vertical,"(390.0, 262.0)",1.45,0.399,1,6068.026,2,0.04,0.25
0,512,target,"[(1160, 789)]",[],[1],[0.5166666666666666],vertical,"(890.0, 762.0)",0.6666666666666666,0.476,1,6073.915,2,0.04,0.25
0,513,target,"[(1178, 786)]",[],[1],[0.5666666666666667],vertical,"(890.0, 262.0)",0.55,0.528,1,6079.326,2,0.04,0.25
0,514,catch,"[(1161, 798)]",[],[1],[],horizontal,"(390.0, 262.0)",1.7,nan,1,6084.126,3,0.04,0.25
0,515,target,"[(1170, 788)]",[],[1],[0.6666666666666666],horizontal,"(390.0, 262.0)",0.6833333333333333,0.619,1,6089.992,3,0.04,0.25
0,516,catch,"[(1158, 801)]",[],[1],[],vertical,"(390.0, 762.0)",1.7,nan,1,6095.131,3,0.04,0.25
0,517,target,"[(1156, 790)]",[],[1],[0.5333333333333333],vertical,"(390.0, 262.0)",1.1666666666666667,0.498,1,6101.176,3,0.04,0.25
0,518,target,"[(1171, 797)]",[],[1],[0.55],vertical,"(890.0, 762.0)",0.9333333333333333,0.52,1,6106.844,3,0.04,0.25
0,519,target,"[(1159, 798)]",[],[1],[0.85],vertical,"(890.0, 762.0)",0.65,nan,0,6112.333,0,0.04,0.25
0,520,target,"[(1152, 800)]",[],[1],[0.5],horizontal,"(390.0, 262.0)",1.0166666666666666,0.459,1,6117.11,1,0.02,0.25
0,521,catch,"[(1155, 793)]",[],[1],[],horizontal,"(390.0, 762.0)",1.7,nan,1,6122.26,1,0.02,0.25
0,522,target,"[(1161, 791)]",[],[1],[0.6666666666666666],vertical,"(390.0, 762.0)",0.6,0.622,1,6127.792,1,0.02,0.25
0,523,target,"[(1166, 789)]",[],[1],[0.85],horizontal,"(390.0, 762.0)",0.36666666666666664,nan,0,6132.709,0,0.02,0.25
0,524,catch,"[(1146, 797)]",[],[1],[],vertical,"(890.0, 762.0)",1.7,nan,1,6137.09,1,0.02,0.25
0,525,catch,"[(1153, 803)]",[],[1],[],vertical,"(890.0, 262.0)",1.7,nan,1,6142.318,1,0.02,0.25
0,526,target,"[(1154, 811)]",[],[1],[0.5833333333333334],vertical,"(390.0, 262.0)",0.55,0.539,1,6147.465,1,0.02,0.25
0,527,target,"[(1152, 813)]",[],[1],[0.55],horizontal,"(390.0, 762.0)",1.2666666666666666,0.525,1,6154.043,2,0.02,0.25
0,528,target,"[(1159, 778)]",[],[1],[0.4666666666666667],vertical,"(390.0, 262.0)",1.4666666666666666,0.426,1,6159.44,2,0.02,0.25
0,529,target,"[(1155, 799)]",[],[1],[0.5833333333333334],vertical,"(390.0, 762.0)",0.48333333333333334,0.544,1,6165.376,2,0.02,0.25
0,530,target,"[(1134, 814)]",[],[1],[0.48333333333333334],horizontal,"(890.0, 762.0)",0.5833333333333334,0.443,1,6170.276,2,0.02,0.25
0,531,catch,"[(1163, 790)]",[],[1],[],vertical,"(890.0, 262.0)",1.7,nan,1,6175.294,3,0.02,0.25
0,532,target,"[(1153, 807)]",[],[1],[0.5],horizontal,"(390.0, 762.0)",1.3666666666666667,0.463,1,6181.311,3,0.02,0.25
0,533,target,"[(1169, 818)]",[],[1],[0.5333333333333333],vertical,"(390.0, 762.0)",1.1166666666666667,0.492,1,6187.556,3,0.02,0.25
0,534,target,"[(1171, 808)]",[],[1],[0.6833333333333333],vertical,"(390.0, 762.0)",0.85,0.64,1,6193.328,3,0.02,0.25
0,535,catch,"[(1155, 810)]",[],[1],[],vertical,"(390.0, 762.0)",1.7,nan,1,6199.16,3,0.02,0.25
0,536,catch,"[(1166, 804)]",[],[1],[],horizontal,"(890.0, 262.0)",1.7,nan,1,6205.486,3,0.02,0.25
0,537,catch,"[(1153, 797)]",[],[1],[],vertical,"(390.0, 262.0)",1.7,nan,1,6211.726,3,0.02,0.25
0,538,target,"[(1171, 788)]",[],[1],[0.85],horizontal,"(390.0, 762.0)",0.8666666666666667,nan,0,6218.021,0,0.02,0.25
0,539,target,"[(1158, 792)]",[],[1],[0.6333333333333333],horizontal,"(390.0, 262.0)",1.3833333333333333,0.593,1,6222.796,1,0.02,0.25
0,540,target,"[(1176, 808)]",[],[1],[0.5],vertical,"(890.0, 762.0)",1.4833333333333334,0.459,1,6228.411,1,0.02,0.25
0,541,target,"[(1169, 806)]",[],[1],[0.5333333333333333],horizontal,"(390.0, 762.0)",0.8166666666666667,0.494,1,6234.015,1,0.02,0.25
0,542,target,"[(1171, 790)]",[],[1],[0.5333333333333333],horizontal,"(890.0, 762.0)",1.1333333333333333,0.491,1,6238.91,2,0.02,0.25
0,543,target,"[(1156, 792)]",[],[1],[0.5166666666666666],vertical,"(890.0, 762.0)",0.8,0.479,1,6244.575,2,0.02,0.25
0,544,target,"[(1172, 812)]",[],[1],[0.55],horizontal,"(390.0, 262.0)",0.4,0.51,1,6250.111,2,0.02,0.25
0,545,target,"[(1156, 803)]",[],[1],[0.6833333333333333],vertical,"(390.0, 762.0)",1.0833333333333333,0.648,1,6254.675,2,0.02,0.25
0,546,target,"[(1163, 808)]",[],[1],[0.55],vertical,"(390.0, 262.0)",0.7,0.506,1,6260.344,3,0.02,0.25
0,547,target,"[(1172, 805)]",[],[1],[0.55],horizontal,"(390.0, 762.0)",1.3666666666666667,0.507,1,6265.954,3,0.02,0.25
0,548,target,"[(1156, 808)]",[],[1],[0.4666666666666667],horizontal,"(890.0, 762.0)",0.7,0.429,1,6272.197,3,0.02,0.25
0,549,target,"[(1157, 804)]",[],[1],[],vertical,"(890.0, 762.0)",,"('cti', 1.132)",0,6277.411,0,0.04,0.25
0,550,catch,"[(1153, 794)]",[],[1],[],vertical,"(390.0, 762.0)",1.7,nan,1,6281.654,1,0.04,0.25
0,551,target,"[(1162, 813)]",[],[1],[0.5666666666666667],horizontal,"(890.0, 762.0)",1.45,0.534,1,6286.932,1,0.04,0.25
0,552,target,"[(1157, 803)]",[],[1],[0.65],horizontal,"(390.0, 762.0)",0.5666666666666667,0.606,1,6292.144,1,0.04,0.25
0,553,target,"[(1171, 798)]",[],[1],[0.5833333333333334],horizontal,"(390.0, 262.0)",0.4,0.543,1,6296.76,2,0.04,0.25
0,554,target,"[(1171, 803)]",[],[1],[0.7333333333333333],horizontal,"(390.0, 762.0)",0.8,0.697,1,6301.835,2,0.04,0.25
0,555,target,"[(1169, 793)]",[],[1],[0.35],vertical,"(390.0, 262.0)",1.5,0.316,1,6307.542,2,0.04,0.25
0,556,target,"[(1148, 822)]",[],[1],[0.5],vertical,"(890.0, 262.0)",0.5166666666666666,0.461,1,6313.446,2,0.02,0.25
0,557,target,"[(1157, 809)]",[],[1],[0.55],horizontal,"(390.0, 762.0)",0.6,0.51,1,6318.897,3,0.02,0.25
0,558,catch,"[(1155, 790)]",[],[1],[],vertical,"(390.0, 762.0)",1.7,nan,1,6324.644,3,0.02,0.25
0,559,target,"[(1170, 795)]",[],[1],[0.5],horizontal,"(390.0, 262.0)",1.4333333333333333,0.47,1,6330.461,3,0.02,0.25
0,560,target,"[(1160, 778)]",[],[1],[0.48333333333333334],vertical,"(890.0, 262.0)",1.0666666666666667,0.446,1,6337.058,3,0.02,0.25
0,561,target,"[(1181, 819)]",[],[1],[0.5666666666666667],vertical,"(890.0, 262.0)",0.6833333333333333,0.524,1,6342.996,3,0.02,0.25
0,562,target,"[(1177, 801)]",[],[1],[0.85],horizontal,"(390.0, 262.0)",0.6666666666666666,nan,0,6348.295,0,0.02,0.25
0,563,target,"[(1129, 809)]",[],[1],[0.5833333333333334],vertical,"(390.0, 762.0)",1.4166666666666667,0.551,1,6352.44,1,0.02,0.25
0,564,target,"[(1176, 795)]",[],[1],[0.65],horizontal,"(390.0, 262.0)",0.9,0.605,1,6358.011,1,0.02,0.25
0,565,target,"[(1153, 800)]",[],[1],[0.55],vertical,"(890.0, 262.0)",1.3666666666666667,0.517,1,6363.311,1,0.02,0.25
0,566,catch,"[(1156, 790)]",[],[1],[],horizontal,"(890.0, 262.0)",1.7,nan,1,6368.707,2,0.02,0.25
0,567,catch,"[(1170, 798)]",[],[1],[],horizontal,"(890.0, 762.0)",1.7,nan,1,6374.539,2,0.02,0.25
0,568,target,"[(1160, 798)]",[],[1],[0.6666666666666666],vertical,"(390.0, 762.0)",0.8833333333333333,0.617,1,6380.359,2,0.02,0.25
0,569,target,"[(1132, 819)]",[],[1],[0.6333333333333333],vertical,"(890.0, 262.0)",1.0833333333333333,0.586,1,6385.988,2,0.02,0.25
0,570,target,"[(1172, 787)]",[],[1],[0.65],horizontal,"(390.0, 762.0)",0.7,0.615,1,6391.451,3,0.02,0.25
0,571,target,"[(1154, 781)]",[],[1],[0.5333333333333333],vertical,"(390.0, 262.0)",0.8833333333333333,0.498,1,6396.825,3,0.02,0.25
0,572,target,"[(1171, 810)]",[],[1],[0.5166666666666666],vertical,"(890.0, 262.0)",1.1333333333333333,0.48,1,6402.496,3,0.02,0.25
0,573,target,"[(1162, 787)]",[],[1],[0.6],horizontal,"(890.0, 762.0)",0.8,0.552,1,6408.027,3,0.02,0.25
0,574,catch,"[(1157, 802)]",[],[1],[],horizontal,"(390.0, 762.0)",1.7,nan,1,6413.824,3,0.02,0.25
0,575,target,"[(1154, 791)]",[],[1],[0.5],horizontal,"(890.0, 262.0)",1.35,0.462,1,6419.628,3,0.02,0.25
0,576,catch,"[(1164, 799)]",[],[1],[],vertical,"(390.0, 762.0)",1.7,nan,1,6425.524,3,0.02,0.25
0,577,catch,"[(1151, 816)]",[],[1],[],horizontal,"(890.0, 762.0)",1.7,nan,1,6431.511,3,0.02,0.25
0,578,target,"[(1166, 804)]",[],[1],[0.5166666666666666],horizontal,"(890.0, 262.0)",0.8166666666666667,0.482,1,6437.461,3,0.02,0.25
0,579,target,"[(1163, 780)]",[],[1],[0.6],horizontal,"(390.0, 262.0)",0.6,0.559,1,6442.956,3,0.02,0.25
0,580,target,"[(1156, 812)]",[],[1],[0.55],horizontal,"(890.0, 762.0)",1.35,0.505,1,6448.78,3,0.02,0.25
0,581,target,"[(1151, 791)]",[],[1],[0.5333333333333333],horizontal,"(390.0, 262.0)",0.65,0.499,1,6454.927,3,0.02,0.25
0,582,target,"[(1148, 801)]",[],[1],[0.5666666666666667],horizontal,"(890.0, 262.0)",1.2,0.528,1,6460.488,3,0.02,0.25
0,583,catch,"[(1176, 801)]",[],[1],[],vertical,"(890.0, 262.0)",1.7,nan,1,6466.447,3,0.02,0.25
0,584,target,"[(1140, 837)]",[],[1],[0.5833333333333334],horizontal,"(890.0, 762.0)",1.4333333333333333,0.548,1,6472.795,3,0.02,0.25
0,585,target,"[(1156, 806)]",[],[1],[0.6],vertical,"(390.0, 262.0)",1.2666666666666666,0.561,1,6480.061,3,0.02,0.25
0,586,target,"[(1166, 796)]",[],[1],[0.5333333333333333],horizontal,"(890.0, 762.0)",1.0166666666666666,0.495,1,6486.111,3,0.02,0.25
0,587,target,"[(1167, 800)]",[],[1],[0.5],horizontal,"(890.0, 262.0)",1.5,0.461,1,6491.994,3,0.02,0.25
0,588,target,"[(1167, 806)]",[],[1],[0.26666666666666666],horizontal,"(390.0, 262.0)",1.4833333333333334,0.231,1,6498.215,3,0.02,0.25
0,589,target,"[(1160, 799)]",[],[1],[0.48333333333333334],horizontal,"(890.0, 262.0)",0.35,0.439,1,6504.048,3,0.02,0.25
0,590,catch,"[(1165, 790)]",[],[1],[],horizontal,"(390.0, 762.0)",,"('cti', 1.451),nan",0,6509.162,0,0.04,0.25
0,591,catch,"[(1166, 802)]",[],[1],[],horizontal,"(890.0, 262.0)",1.7,nan,1,6514.012,1,0.04,0.25
0,592,target,"[(1152, 786)]",[],[1],[0.5666666666666667],vertical,"(890.0, 262.0)",0.48333333333333334,0.527,1,6519.679,1,0.04,0.25
0,593,catch,"[(1165, 803)]",[],[1],[],horizontal,"(390.0, 762.0)",1.7,nan,1,6524.461,1,0.04,0.25
0,594,target,"[(1152, 795)]",[],[1],[0.7],horizontal,"(390.0, 262.0)",1.0,0.65,1,6529.412,2,0.04,0.25
0,595,target,"[(1166, 805)]",[],[1],[0.85],vertical,"(390.0, 762.0)",0.48333333333333334,nan,0,6534.939,0,0.04,0.25
0,596,target,"[(1137, 798)]",[],[1],[0.6166666666666667],horizontal,"(890.0, 762.0)",0.48333333333333334,0.574,1,6539.59,1,0.04,0.25
0,597,target,"[(1160, 790)]",[],[1],[0.85],horizontal,"(390.0, 762.0)",0.3833333333333333,nan,0,6544.194,0,0.04,0.25
0,598,target,"[(1161, 779)]",[],[1],[0.85],horizontal,"(890.0, 762.0)",0.7166666666666667,nan,0,6548.384,0,0.04,0.25
0,599,target,"[(1156, 803)]",[],[1],[0.6],vertical,"(390.0, 762.0)",1.2333333333333334,0.563,1,6553.099,1,0.02,0.25
0,600,target,"[(1151, 788)]",[],[1],[0.43333333333333335],vertical,"(390.0, 762.0)",1.45,0.395,1,6558.645,1,0.02,0.25
0,601,target,"[(1127, 809)]",[],[1],[0.5833333333333334],vertical,"(890.0, 762.0)",0.35,0.545,1,6564.056,1,0.02,0.25
0,602,target,"[(1166, 805)]",[],[1],[0.5333333333333333],vertical,"(390.0, 262.0)",0.7833333333333333,0.491,1,6568.329,2,0.02,0.25
0,603,catch,"[(1161, 787)]",[],[1],[],horizontal,"(890.0, 762.0)",1.7,nan,1,6573.378,2,0.02,0.25
0,604,target,"[(1166, 811)]",[],[1],[0.6166666666666667],vertical,"(890.0, 762.0)",0.7333333333333333,0.579,1,6578.996,2,0.02,0.25
0,605,target,"[(1156, 824)]",[],[1],[0.5],vertical,"(890.0, 762.0)",0.9166666666666666,0.466,1,6584.213,2,0.02,0.25
0,606,target,"[(1166, 804)]",[],[1],[0.85],vertical,"(390.0, 762.0)",0.5833333333333334,nan,0,6589.328,0,0.02,0.25
0,607,target,"[(1136, 811)]",[],[1],[0.6833333333333333],horizontal,"(890.0, 762.0)",0.6833333333333333,0.647,1,6593.845,1,0.02,0.25
0,608,target,"[(1169, 803)]",[],[1],[0.6166666666666667],vertical,"(390.0, 262.0)",0.6166666666666667,0.571,1,6598.846,1,0.02,0.25
0,609,target,"[(1169, 801)]",[],[1],[0.5],horizontal,"(390.0, 262.0)",0.9666666666666667,0.46,1,6603.744,1,0.02,0.25
0,610,target,"[(1169, 803)]",[],[1],[0.55],horizontal,"(890.0, 262.0)",0.6166666666666667,0.512,1,6608.361,2,0.02,0.25
0,611,catch,"[(1147, 791)]",[],[1],[],horizontal,"(390.0, 262.0)",1.7,nan,1,6613.529,2,0.02,0.25
0,612,target,"[(1168, 786)]",[],[1],[0.3333333333333333],vertical,"(390.0, 762.0)",1.5166666666666666,0.295,1,6619.429,2,0.02,0.25
0,613,target,"[(1170, 807)]",[],[1],[0.6],vertical,"(390.0, 762.0)",0.75,0.555,1,6625.445,2,0.02,0.25
0,614,target,"[(1171, 788)]",[],[1],[0.65],vertical,"(890.0, 262.0)",0.35,0.605,1,6630.696,3,0.02,0.25
0,615,target,"[(1167, 780)]",[],[1],[0.4666666666666667],vertical,"(890.0, 262.0)",0.5166666666666666,0.432,1,6636.431,3,0.02,0.25
0,616,target,"[(1156, 796)]",[],[1],[0.55],vertical,"(890.0, 762.0)",0.55,0.509,1,6641.679,3,0.02,0.25
0,617,target,"[(1172, 808)]",[],[1],[0.6833333333333333],horizontal,"(890.0, 262.0)",1.5333333333333332,0.644,1,6647.111,3,0.02,0.25
0,618,target,"[(1158, 793)]",[],[1],[0.75],vertical,"(890.0, 762.0)",1.25,0.71,1,6653.295,3,0.02,0.25
0,619,target,"[(1167, 786)]",[],[1],[0.5666666666666667],horizontal,"(390.0, 762.0)",1.1333333333333333,0.525,1,6659.513,3,0.02,0.25
0,620,target,"[(1156, 805)]",[],[1],[0.5166666666666666],vertical,"(390.0, 262.0)",1.2166666666666666,0.485,1,6665.479,3,0.02,0.25
0,621,target,"[(1166, 804)]",[],[1],[0.5166666666666666],horizontal,"(390.0, 262.0)",1.2,0.474,1,6671.565,3,0.02,0.25
0,622,catch,"[(1169, 798)]",[],[1],[],vertical,"(890.0, 762.0)",1.7,nan,1,6677.451,3,0.02,0.25
0,623,target,"[(1154, 801)]",[],[1],[0.4666666666666667],vertical,"(890.0, 262.0)",1.2,0.427,1,6683.345,3,0.02,0.25
0,624,target,"[(1152, 777)]",[],[1],[0.5],horizontal,"(890.0, 262.0)",1.25,0.462,1,6688.881,3,0.02,0.25
0,625,target,"[(1174, 798)]",[],[1],[0.5833333333333334],vertical,"(390.0, 762.0)",0.6,0.549,1,6694.98,3,0.02,0.25
0,626,target,"[(1149, 807)]",[],[1],[0.7666666666666666],vertical,"(890.0, 262.0)",0.75,0.721,1,6700.614,3,0.02,0.25
0,627,target,"[(1166, 792)]",[],[1],[0.6666666666666666],horizontal,"(890.0, 762.0)",1.05,0.629,1,6706.365,3,0.02,0.25
0,628,target,"[(1137, 796)]",[],[1],[0.6166666666666667],horizontal,"(390.0, 262.0)",0.7666666666666666,0.579,1,6712.353,3,0.02,0.25
0,629,target,"[(1157, 791)]",[],[1],[0.5],horizontal,"(390.0, 762.0)",1.2166666666666666,0.458,1,6717.904,3,0.02,0.25
0,630,target,"[(1171, 776)]",[],[1],[0.5666666666666667],horizontal,"(890.0, 762.0)",1.3166666666666667,0.535,1,6723.946,3,0.02,0.25
0,631,catch,"[(1173, 807)]",[],[1],[],vertical,"(390.0, 262.0)",1.7,nan,1,6729.762,3,0.02,0.25
0,632,target,"[(1166, 798)]",[],[1],[0.6166666666666667],horizontal,"(890.0, 262.0)",0.9166666666666666,0.574,1,6736.045,3,0.02,0.25
0,633,target,"[(1161, 782)]",[],[1],[0.65],horizontal,"(390.0, 262.0)",0.6666666666666666,0.603,1,6741.63,3,0.02,0.25
0,634,target,"[(1166, 825)]",[],[1],[0.6],horizontal,"(390.0, 762.0)",0.6166666666666667,0.558,1,6747.462,3,0.02,0.25
0,635,target,"[(1153, 811)]",[],[1],[0.2],horizontal,"(890.0, 762.0)",1.35,0.171,0,6753.233,0,0.02,0.25
0,636,catch,"[(1153, 804)]",[],[1],[],vertical,"(890.0, 762.0)",1.7,nan,1,6757.993,1,0.02,0.25
0,637,target,"[(1166, 788)]",[],[1],[0.6],horizontal,"(390.0, 262.0)",0.9333333333333333,0.564,1,6763.662,1,0.02,0.25
0,638,catch,"[(1151, 802)]",[],[1],[],vertical,"(390.0, 762.0)",1.7,nan,1,6768.419,1,0.02,0.25
0,639,catch,"[(1171, 771)]",[],[1],[0.03333333333333333],vertical,"(390.0, 262.0)",1.7,"0.018,nan",0,6773.568,0,0.04,0.25
0,640,catch,"[(1152, 813)]",[],[1],[],vertical,"(390.0, 262.0)",1.7,nan,1,6778.077,1,0.02,0.25
0,641,target,"[(1159, 831)]",[],[1],[0.5166666666666666],vertical,"(890.0, 262.0)",0.45,0.476,1,6824.896,1,0.02,0.25
0,642,target,"[(1154, 783)]",[],[1],[0.7],horizontal,"(390.0, 262.0)",1.0166666666666666,0.653,1,6829.522,1,0.02,0.25
0,643,target,"[(1173, 818)]",[],[1],[0.5666666666666667],vertical,"(890.0, 762.0)",1.4333333333333333,0.522,1,6834.924,2,0.02,0.25
0,644,target,"[(1174, 792)]",[],[1],[0.4666666666666667],vertical,"(390.0, 262.0)",1.4833333333333334,0.424,1,6840.539,2,0.02,0.25
0,645,target,"[(1155, 803)]",[],[1],[0.55],horizontal,"(890.0, 262.0)",1.05,0.51,1,6846.296,2,0.02,0.25
0,646,target,"[(1172, 794)]",[],[1],[0.85],vertical,"(890.0, 762.0)",0.7833333333333333,nan,0,6851.929,0,0.02,0.25
0,647,target,"[(1153, 791)]",[],[1],[0.55],vertical,"(890.0, 762.0)",0.95,0.509,1,6856.795,1,0.02,0.25
0,648,target,"[(1172, 797)]",[],[1],[0.48333333333333334],vertical,"(890.0, 262.0)",0.7833333333333333,0.445,1,6861.942,1,0.02,0.25
0,649,catch,"[(1176, 789)]",[],[1],[],horizontal,"(890.0, 262.0)",1.7,nan,1,6866.668,1,0.02,0.25
0,650,target,"[(1152, 803)]",[],[1],[0.6666666666666666],horizontal,"(390.0, 262.0)",0.8,0.63,1,6872.035,2,0.02,0.25
0,651,target,"[(1166, 809)]",[],[1],[0.5166666666666666],vertical,"(390.0, 762.0)",1.0,0.48,1,6877.72,2,0.02,0.25
0,652,target,"[(1156, 790)]",[],[1],[0.7],vertical,"(390.0, 762.0)",1.2166666666666666,0.658,1,6882.913,2,0.02,0.25
0,653,target,"[(1152, 796)]",[],[1],[0.6166666666666667],horizontal,"(890.0, 262.0)",0.7166666666666667,0.575,1,6888.636,2,0.02,0.25
0,654,target,"[(1151, 808)]",[],[1],[0.4],horizontal,"(390.0, 262.0)",1.4333333333333333,0.364,1,6893.466,3,0.02,0.25
0,655,target,"[(1152, 795)]",[],[1],[0.5666666666666667],horizontal,"(390.0, 762.0)",1.2166666666666666,0.528,1,6899.413,3,0.02,0.25
0,656,target,"[(1157, 783)]",[],[1],[0.6666666666666666],vertical,"(890.0, 762.0)",0.7,0.631,1,6905.179,3,0.02,0.25
0,657,target,"[(1170, 796)]",[],[1],[0.5666666666666667],horizontal,"(890.0, 762.0)",1.1166666666666667,0.525,1,6911.096,3,0.02,0.25
0,658,target,"[(1151, 806)]",[],[1],[0.5833333333333334],horizontal,"(890.0, 762.0)",0.5666666666666667,0.54,1,6916.731,3,0.02,0.25
0,659,target,"[(1166, 800)]",[],[1],[0.7333333333333333],vertical,"(890.0, 762.0)",1.2166666666666666,0.684,1,6922.661,3,0.02,0.25
0,660,target,"[(1127, 791)]",[],[1],[0.65],vertical,"(890.0, 262.0)",0.7833333333333333,0.611,1,6928.665,3,0.02,0.25
0,661,target,"[(1170, 808)]",[],[1],[0.4666666666666667],vertical,"(390.0, 262.0)",0.7666666666666666,0.437,1,6934.336,3,0.02,0.25
0,662,catch,"[(1165, 793)]",[],[1],[],vertical,"(390.0, 762.0)",1.7,nan,1,6939.756,3,0.02,0.25
0,663,catch,"[(1156, 810)]",[],[1],[],horizontal,"(390.0, 762.0)",1.7,nan,1,6945.595,3,0.02,0.25
0,664,catch,"[(1147, 802)]",[],[1],[],vertical,"(890.0, 762.0)",1.7,nan,1,6951.896,3,0.02,0.25
0,665,catch,"[(1153, 795)]",[],[1],[],horizontal,"(390.0, 762.0)",1.7,nan,1,6957.846,3,0.02,0.25
0,666,target,"[(1168, 800)]",[],[1],[0.55],horizontal,"(890.0, 262.0)",1.15,0.508,1,6964.03,3,0.02,0.25
0,667,target,"[(1161, 798)]",[],[1],[0.4666666666666667],horizontal,"(390.0, 262.0)",1.3833333333333333,0.426,1,6969.561,3,0.02,0.25
0,668,catch,"[(1153, 783)]",[],[1],[],horizontal,"(890.0, 262.0)",1.7,nan,1,6975.48,3,0.02,0.25
0,669,target,"[(1156, 788)]",[],[1],[],horizontal,"(390.0, 762.0)",,"('cti', 1.143)",0,6981.196,0,0.04,0.25
0,670,catch,"[(1132, 806)]",[],[1],[],horizontal,"(390.0, 762.0)",1.7,nan,1,6985.146,1,0.04,0.25
0,671,catch,"[(1166, 816)]",[],[1],[],horizontal,"(890.0, 262.0)",,"('cti', 1.538),nan",0,6990.43,0,0.06,0.25
0,672,target,"[(1153, 852)]",[],[1],[0.5333333333333333],horizontal,"(390.0, 262.0)",0.6333333333333333,0.498,1,6995.013,1,0.06,0.25
0,673,catch,"[(1154, 798)]",[],[1],[],vertical,"(390.0, 762.0)",1.7,nan,1,7000.596,1,0.06,0.25
0,674,target,"[(1156, 816)]",[],[1],[0.65],vertical,"(390.0, 262.0)",0.9333333333333333,0.607,1,7005.881,1,0.06,0.25
0,675,catch,"[(1169, 793)]",[],[1],[],horizontal,"(390.0, 762.0)",1.7,nan,1,7011.048,2,0.06,0.25
0,676,target,"[(1132, 826)]",[],[1],[0.5],vertical,"(390.0, 262.0)",0.7,0.458,1,7016.73,2,0.06,0.25
0,677,catch,"[(1157, 782)]",[],[1],[],vertical,"(890.0, 262.0)",1.7,nan,1,7022.288,2,0.06,0.25
0,678,catch,"[(1132, 783)]",[],[1],[],vertical,"(390.0, 762.0)",1.7,nan,1,7027.823,2,0.06,0.25
0,679,target,"[(1151, 795)]",[],[1],[0.5666666666666667],vertical,"(890.0, 762.0)",0.45,0.523,1,7033.418,3,0.06,0.25
0,680,target,"[(1153, 808)]",[],[1],[0.55],vertical,"(390.0, 262.0)",1.1333333333333333,0.505,1,7038.719,3,0.06,0.25
0,681,target,"[(1156, 808)]",[],[1],[0.5833333333333334],vertical,"(390.0, 262.0)",0.4666666666666667,0.538,1,7044.83,3,0.06,0.25
0,682,target,"[(1156, 793)]",[],[1],[],vertical,"(890.0, 762.0)",,"('cti', 1.394)",0,7050.331,0,0.08,0.25
0,683,target,"[(1079, 813)]",[],[1],[0.6333333333333333],vertical,"(390.0, 262.0)",0.5,0.592,1,7054.49,1,0.08,0.25
0,684,catch,"[(1132, 851)]",[],[1],[],horizontal,"(390.0, 762.0)",1.7,nan,1,7059.231,1,0.08,0.25
0,685,target,"[(1153, 813)]",[],[1],[0.6833333333333333],horizontal,"(890.0, 762.0)",1.15,0.643,1,7064.498,1,0.08,0.25
0,686,target,"[(1153, 802)]",[],[1],[0.5333333333333333],vertical,"(390.0, 762.0)",0.6833333333333333,0.493,1,7070.263,2,0.08,0.25
0,687,target,"[(1151, 798)]",[],[1],[0.75],vertical,"(390.0, 262.0)",0.8166666666666667,0.71,1,7075.331,2,0.08,0.25
0,688,target,"[(1161, 788)]",[],[1],[0.55],horizontal,"(890.0, 762.0)",0.4,0.513,1,7080.614,2,0.08,0.25
0,689,catch,"[(1168, 790)]",[],[1],[],horizontal,"(390.0, 762.0)",,"('cti', 1.636),nan",0,7085.015,0,0.08,0.25
0,690,target,"[(1163, 803)]",[],[1],[0.85],horizontal,"(390.0, 762.0)",0.6333333333333333,nan,0,7090.108,0,0.08,0.25
0,691,target,"[(1146, 809)]",[],[1],[0.6],vertical,"(890.0, 262.0)",0.5666666666666667,0.561,1,7094.274,1,0.08,0.25
0,692,target,"[(1166, 808)]",[],[1],[0.23333333333333334],vertical,"(390.0, 262.0)",1.3833333333333333,0.198,0,7132.047,0,0.08,0.25
0,693,target,"[(1154, 793)]",[],[1],[0.4166666666666667],horizontal,"(890.0, 762.0)",1.4,0.376,1,7137.03,1,0.08,0.25
0,694,target,"[(1167, 808)]",[],[1],[0.48333333333333334],vertical,"(890.0, 762.0)",0.43333333333333335,0.444,1,7142.241,1,0.08,0.25
0,695,target,"[(1167, 809)]",[],[1],[0.5333333333333333],horizontal,"(390.0, 762.0)",1.3166666666666667,0.493,1,7146.713,1,0.08,0.25
0,696,target,"[(1169, 795)]",[],[1],[0.6],horizontal,"(390.0, 762.0)",1.2,0.557,1,7152.221,2,0.08,0.25
0,697,target,"[(1165, 803)]",[],[1],[0.6],horizontal,"(390.0, 262.0)",1.15,0.559,1,7158.097,2,0.08,0.25
0,698,target,"[(1161, 807)]",[],[1],[0.6166666666666667],horizontal,"(390.0, 262.0)",1.3333333333333333,0.58,1,7163.594,2,0.08,0.25
0,699,catch,"[(1152, 813)]",[],[1],[],vertical,"(390.0, 762.0)",1.7,nan,1,7169.531,2,0.08,0.25
0,700,target,"[(1151, 802)]",[],[1],[0.5166666666666666],horizontal,"(390.0, 262.0)",1.25,0.478,1,7175.312,3,0.08,0.25
0,701,target,"[(1149, 836)]",[],[1],[0.85],horizontal,"(390.0, 762.0)",0.6,nan,0,7181.432,0,0.08,0.25
0,702,target,"[(1137, 797)]",[],[1],[0.5666666666666667],horizontal,"(390.0, 262.0)",0.8833333333333333,0.531,1,7186.015,1,0.08,0.25
0,703,catch,"[(1153, 851)]",[],[1],[],horizontal,"(890.0, 762.0)",,"('cti', 1.502),nan",0,7191.1,0,0.1,0.25
0,704,catch,"[(1142, 842)]",[],[1],[],horizontal,"(390.0, 262.0)",1.7,nan,1,7791.967,1,0.1,0.25
0,705,target,"[(1160, 807)]",[],[1],[0.4],horizontal,"(890.0, 262.0)",0.9333333333333333,0.367,1,7797.864,1,0.1,0.25
0,706,target,"[(1169, 815)]",[],[1],[0.85],vertical,"(390.0, 762.0)",0.65,nan,0,7803.117,0,0.1,0.25
0,707,catch,"[(1127, 821)]",[],[1],[],horizontal,"(390.0, 762.0)",1.7,nan,1,7807.834,1,0.1,0.25
0,708,target,"[(1145, 804)]",[],[1],[0.85],horizontal,"(390.0, 262.0)",0.36666666666666664,nan,0,7814.448,0,0.1,0.25
0,709,target,"[(1156, 817)]",[],[1],[0.8333333333333334],horizontal,"(890.0, 762.0)",0.7,0.786,1,7819.119,1,0.1,0.25
0,710,catch,"[(1148, 804)]",[],[1],[],horizontal,"(890.0, 762.0)",1.7,nan,1,7824.283,1,0.1,0.25
0,711,target,"[(1149, 796)]",[],[1],[0.5166666666666666],vertical,"(390.0, 262.0)",0.8833333333333333,0.473,1,7829.421,1,0.1,0.25
0,712,target,"[(1142, 809)]",[],[1],[0.48333333333333334],vertical,"(890.0, 262.0)",1.4166666666666667,0.442,1,7834.299,2,0.1,0.25
0,713,target,"[(1174, 799)]",[],[1],[0.5166666666666666],vertical,"(890.0, 762.0)",0.4166666666666667,0.477,1,7840.666,2,0.1,0.25
0,714,target,"[(1172, 803)]",[],[1],[0.5333333333333333],vertical,"(390.0, 262.0)",1.2333333333333334,0.491,1,7845.428,2,0.1,0.25
0,715,target,"[(1123, 820)]",[],[1],[0.5666666666666667],horizontal,"(390.0, 762.0)",1.3,0.523,1,7851.259,2,0.1,0.25
0,716,target,"[(1175, 795)]",[],[1],[0.5833333333333334],horizontal,"(890.0, 762.0)",0.9166666666666666,0.539,1,7857.166,3,0.1,0.25
0,717,target,"[(1158, 791)]",[],[1],[0.6833333333333333],vertical,"(890.0, 762.0)",1.2666666666666666,0.645,1,7862.815,3,0.1,0.25
0,718,target,"[(1196, 796)]",[],[1],[0.85],vertical,"(390.0, 762.0)",0.6666666666666666,nan,0,7869.078,0,0.1,0.25
0,719,catch,"[(1131, 791)]",[],[1],[],horizontal,"(890.0, 762.0)",1.7,nan,1,7873.734,1,0.08,0.25
0,720,target,"[(1166, 797)]",[],[1],[0.6],horizontal,"(390.0, 762.0)",0.5833333333333334,0.556,1,7878.981,1,0.08,0.25
0,721,target,"[(1161, 809)]",[],[1],[0.6833333333333333],vertical,"(390.0, 762.0)",0.8333333333333334,0.64,1,7883.854,1,0.06,0.25
0,722,catch,"[(1161, 798)]",[],[1],[],vertical,"(890.0, 762.0)",1.7,nan,1,7888.75,2,0.06,0.25
0,723,catch,"[(1159, 777)]",[],[1],[],vertical,"(390.0, 262.0)",1.7,nan,1,7893.984,2,0.06,0.25
0,724,catch,"[(1158, 799)]",[],[1],[],vertical,"(390.0, 262.0)",1.7,nan,1,7899.674,2,0.06,0.25
0,725,target,"[(1170, 804)]",[],[1],[0.48333333333333334],vertical,"(390.0, 262.0)",0.6166666666666667,0.444,1,7905.017,2,0.06,0.25
0,726,target,"[(1148, 853)]",[],[1],[0.45],horizontal,"(890.0, 262.0)",0.8833333333333333,0.41,1,7910.118,3,0.06,0.25
0,727,catch,"[(1170, 809)]",[],[1],[],horizontal,"(890.0, 762.0)",1.7,nan,1,7917.48,3,0.06,0.25
0,728,target,"[(1172, 812)]",[],[1],[0.5833333333333334],vertical,"(890.0, 262.0)",0.65,0.543,1,7923.508,3,0.06,0.25
0,729,catch,"[(1156, 794)]",[],[1],[],horizontal,"(890.0, 262.0)",1.7,nan,1,7929.127,3,0.06,0.25
0,730,catch,"[(1166, 799)]",[],[1],[],horizontal,"(390.0, 262.0)",1.7,nan,1,7935.05,3,0.06,0.25
0,731,catch,"[(1166, 799)]",[],[1],[],vertical,"(890.0, 762.0)",1.7,nan,1,7941.143,3,0.06,0.25
0,732,catch,"[(1160, 799)]",[],[1],[],horizontal,"(890.0, 262.0)",1.7,nan,1,7947.171,3,0.04,0.25
0,733,catch,"[(1167, 800)]",[],[1],[],vertical,"(890.0, 262.0)",1.7,nan,1,7953.157,3,0.04,0.25
0,734,target,"[(1166, 777)]",[],[1],[0.6],horizontal,"(390.0, 262.0)",0.7166666666666667,0.561,1,7959.325,3,0.04,0.25
0,735,target,"[(1156, 785)]",[],[1],[0.5166666666666666],vertical,"(890.0, 762.0)",0.5666666666666667,0.478,1,7965.268,3,0.04,0.25
0,736,target,"[(1160, 793)]",[],[1],[0.55],vertical,"(390.0, 762.0)",1.3833333333333333,0.507,1,7970.466,3,0.04,0.25
0,737,catch,"[(1166, 788)]",[],[1],[],vertical,"(890.0, 762.0)",1.7,nan,1,7976.534,3,0.04,0.25
0,738,target,"[(1161, 799)]",[],[1],[0.6166666666666667],horizontal,"(390.0, 262.0)",1.0833333333333333,0.573,1,7982.784,3,0.04,0.25
0,739,target,"[(1166, 782)]",[],[1],[0.5666666666666667],vertical,"(390.0, 262.0)",1.35,0.528,1,7988.833,3,0.02,0.25
0,740,catch,"[(1164, 791)]",[],[1],[],horizontal,"(390.0, 762.0)",,"('cti', 1.118),nan",0,7994.718,0,0.04,0.25
0,741,target,"[(1148, 809)]",[],[1],[0.6],horizontal,"(390.0, 762.0)",0.48333333333333334,0.561,1,7999.13,1,0.04,0.25
0,742,target,"[(1166, 777)]",[],[1],[0.26666666666666666],horizontal,"(390.0, 262.0)",1.2,0.235,1,8003.517,1,0.04,0.25
0,743,target,"[(1166, 788)]",[],[1],[0.65],vertical,"(390.0, 262.0)",0.7666666666666666,0.604,1,8008.642,1,0.04,0.25
0,744,target,"[(1134, 789)]",[],[1],[0.6166666666666667],vertical,"(890.0, 262.0)",1.3666666666666667,0.585,1,8013.601,2,0.04,0.25
0,745,target,"[(1168, 786)]",[],[1],[0.5833333333333334],horizontal,"(390.0, 262.0)",1.2666666666666666,0.542,1,8019.534,2,0.04,0.25
0,746,catch,"[(1174, 796)]",[],[1],[],horizontal,"(390.0, 762.0)",1.7,nan,1,8025.138,2,0.04,0.25
0,747,target,"[(1156, 772)]",[],[1],[0.48333333333333334],horizontal,"(890.0, 262.0)",1.4833333333333334,0.441,1,8031.089,2,0.04,0.25
0,748,target,"[(1171, 807)]",[],[1],[0.7333333333333333],horizontal,"(390.0, 762.0)",1.2833333333333332,0.695,1,8036.799,3,0.04,0.25
0,749,target,"[(1152, 828)]",[],[1],[0.5666666666666667],horizontal,"(890.0, 262.0)",1.2,0.524,1,8043.034,3,0.04,0.25
0,750,catch,"[(1146, 815)]",[],[1],[],vertical,"(390.0, 262.0)",1.7,nan,1,8049.551,3,0.04,0.25
0,751,target,"[(1160, 802)]",[],[1],[0.85],horizontal,"(390.0, 762.0)",0.43333333333333335,nan,0,8058.267,0,0.04,0.25
0,752,catch,"[(1117, 802)]",[],[1],[],vertical,"(390.0, 762.0)",1.7,nan,1,8062.668,1,0.04,0.25
0,753,catch,"[(1153, 808)]",[],[1],[],horizontal,"(390.0, 262.0)",,"('cti', 1.585),nan",0,8067.941,0,0.04,0.25
0,754,target,"[(1112, 793)]",[],[1],[0.65],horizontal,"(390.0, 262.0)",0.8833333333333333,0.605,1,8072.967,1,0.04,0.25
0,755,catch,"[(1153, 809)]",[],[1],[],horizontal,"(890.0, 262.0)",1.7,nan,1,8081.734,1,0.04,0.25
0,756,target,"[(1171, 813)]",[],[1],[0.5166666666666666],horizontal,"(890.0, 762.0)",0.9833333333333333,0.479,1,8087.175,1,0.04,0.25
0,757,target,"[(1154, 801)]",[],[1],[0.5333333333333333],horizontal,"(390.0, 762.0)",1.4666666666666666,0.493,1,8092.201,2,0.04,0.25
0,758,target,"[(1169, 797)]",[],[1],[0.5],vertical,"(890.0, 262.0)",1.05,0.462,1,8097.905,2,0.04,0.25
0,759,catch,"[(1156, 798)]",[],[1],[],horizontal,"(890.0, 262.0)",1.7,nan,1,8102.869,2,0.04,0.25
0,760,target,"[(1169, 819)]",[],[1],[0.6833333333333333],horizontal,"(390.0, 262.0)",0.7,0.642,1,8108.288,2,0.04,0.25
0,761,target,"[(1142, 802)]",[],[1],[0.6333333333333333],vertical,"(390.0, 762.0)",1.1166666666666667,0.599,1,8113.87,3,0.04,0.25
0,762,target,"[(1158, 775)]",[],[1],[0.5],horizontal,"(890.0, 262.0)",1.4,0.456,1,8119.7,3,0.04,0.25
0,763,catch,"[(1156, 794)]",[],[1],[],vertical,"(390.0, 762.0)",1.7,nan,1,8125.479,3,0.04,0.25
0,764,target,"[(1166, 795)]",[],[1],[0.5666666666666667],vertical,"(890.0, 762.0)",0.55,0.528,1,8131.176,3,0.04,0.25
0,765,target,"[(1155, 796)]",[],[1],[0.5333333333333333],horizontal,"(890.0, 762.0)",0.9333333333333333,0.494,1,8136.151,3,0.04,0.25
0,766,catch,"[(1149, 802)]",[],[1],[],horizontal,"(890.0, 262.0)",1.7,nan,1,8142.003,3,0.04,0.25
0,767,catch,"[(1161, 791)]",[],[1],[],horizontal,"(390.0, 262.0)",1.7,nan,1,8147.689,3,0.04,0.25
0,768,catch,"[(1171, 806)]",[],[1],[],vertical,"(890.0, 262.0)",1.7,nan,1,8153.348,3,0.04,0.25
0,769,target,"[(1164, 811)]",[],[1],[0.5166666666666666],horizontal,"(890.0, 262.0)",0.8333333333333334,0.475,1,8159.101,3,0.04,0.25
0,770,catch,"[(1152, 803)]",[],[1],[],vertical,"(390.0, 762.0)",,"('cti', 1.535),nan",0,8164.868,0,0.06,0.25
0,771,target,"[(1132, 806)]",[],[1],[0.5166666666666666],horizontal,"(890.0, 262.0)",0.6666666666666666,0.481,1,8169.818,1,0.06,0.25
0,772,catch,"[(1097, 805)]",[],[1],[],vertical,"(890.0, 762.0)",1.7,nan,1,8174.687,1,0.06,0.25
0,773,catch,"[(1166, 818)]",[],[1],[],horizontal,"(390.0, 262.0)",1.7,nan,1,8179.967,1,0.06,0.25
0,774,catch,"[(1162, 799)]",[],[1],[],horizontal,"(890.0, 262.0)",1.7,nan,1,8185.133,2,0.06,0.25
0,775,target,"[(1156, 795)]",[],[1],[0.55],horizontal,"(890.0, 262.0)",0.7333333333333333,0.513,1,8190.815,2,0.06,0.25
0,776,target,"[(1166, 789)]",[],[1],[0.85],horizontal,"(890.0, 262.0)",1.4333333333333333,nan,0,8196.216,0,0.06,0.25
0,777,catch,"[(1132, 804)]",[],[1],[],vertical,"(390.0, 762.0)",1.7,nan,1,8201.152,1,0.06,0.25
0,778,target,"[(1162, 816)]",[],[1],[0.5],horizontal,"(890.0, 262.0)",0.9333333333333333,0.458,1,8206.834,1,0.06,0.25
0,779,catch,"[(1156, 803)]",[],[1],[],horizontal,"(890.0, 762.0)",1.7,nan,1,8211.581,1,0.06,0.25
0,780,target,"[(1161, 803)]",[],[1],[0.5],horizontal,"(390.0, 262.0)",0.8666666666666667,0.46,1,8216.518,2,0.06,0.25
0,781,target,"[(1162, 790)]",[],[1],[0.6],horizontal,"(890.0, 262.0)",0.8833333333333333,0.559,1,8221.602,2,0.06,0.25
0,782,target,"[(1136, 822)]",[],[1],[0.75],vertical,"(390.0, 762.0)",0.43333333333333335,0.703,1,8226.701,2,0.06,0.25
0,783,target,"[(1170, 789)]",[],[1],[0.7333333333333333],horizontal,"(390.0, 762.0)",0.9,0.686,1,8232.235,2,0.06,0.25
0,784,target,"[(1166, 800)]",[],[1],[0.5333333333333333],vertical,"(390.0, 762.0)",1.0666666666666667,0.493,1,8237.67,3,0.06,0.25
0,785,target,"[(1166, 818)]",[],[1],[0.5666666666666667],horizontal,"(390.0, 762.0)",1.4666666666666666,0.522,1,8243.234,3,0.06,0.25
0,786,catch,"[(1156, 818)]",[],[1],[],horizontal,"(390.0, 262.0)",1.7,nan,1,8249.609,3,0.06,0.25
0,787,target,"[(1112, 808)]",[],[1],[0.85],vertical,"(390.0, 762.0)",0.36666666666666664,nan,0,8255.668,0,0.06,0.25
0,788,target,"[(1148, 841)]",[],[1],[0.6166666666666667],vertical,"(890.0, 262.0)",1.15,0.577,1,9254.605,1,0.06,0.25
0,789,target,"[(1156, 830)]",[],[1],[0.4666666666666667],horizontal,"(890.0, 762.0)",1.4,0.426,1,9260.33,1,0.06,0.25
0,790,target,"[(1173, 819)]",[],[1],[0.6333333333333333],vertical,"(890.0, 762.0)",1.3166666666666667,0.59,1,9266.111,1,0.04,0.25
0,791,catch,"[(1129, 838)]",[],[1],[],vertical,"(890.0, 262.0)",1.7,nan,1,9271.387,2,0.04,0.25
0,792,target,"[(1147, 821)]",[],[1],[0.6],horizontal,"(890.0, 262.0)",0.6,0.555,1,9740.44,2,0.04,0.25
0,793,target,"[(1159, 813)]",[],[1],[0.6333333333333333],horizontal,"(890.0, 762.0)",1.0833333333333333,0.585,1,9746.09,2,0.04,0.25
0,794,target,"[(1165, 815)]",[],[1],[0.45],vertical,"(890.0, 762.0)",1.5166666666666666,0.417,1,9751.989,2,0.04,0.25
0,795,target,"[(1151, 807)]",[],[1],[0.6666666666666666],vertical,"(890.0, 262.0)",0.9166666666666666,0.626,1,9757.725,3,0.04,0.25
0,796,target,"[(1175, 798)]",[],[1],[0.6],vertical,"(890.0, 762.0)",1.2666666666666666,0.561,1,9763.824,3,0.04,0.25
0,797,target,"[(1176, 793)]",[],[1],[0.5333333333333333],horizontal,"(390.0, 262.0)",0.95,0.501,1,9769.957,3,0.04,0.25
0,798,target,"[(1176, 787)]",[],[1],[0.85],vertical,"(390.0, 762.0)",0.48333333333333334,nan,0,9775.341,0,0.04,0.25
0,799,target,"[(1161, 799)]",[],[1],[0.75],horizontal,"(890.0, 762.0)",0.95,0.71,1,9779.622,1,0.04,0.25
0,800,target,"[(1152, 794)]",[],[1],[0.5333333333333333],horizontal,"(890.0, 762.0)",1.2333333333333334,0.491,1,9784.741,1,0.04,0.25
0,801,target,"[(1186, 803)]",[],[1],[0.48333333333333334],vertical,"(890.0, 262.0)",1.1333333333333333,0.45,1,9790.273,1,0.04,0.25
0,802,target,"[(1167, 783)]",[],[1],[0.5],vertical,"(390.0, 262.0)",1.4333333333333333,0.459,1,9795.507,2,0.04,0.25
0,803,target,"[(1156, 791)]",[],[1],[0.5166666666666666],vertical,"(890.0, 762.0)",1.4166666666666667,0.477,1,9800.917,2,0.02,0.25
0,804,target,"[(1195, 797)]",[],[1],[0.7333333333333333],vertical,"(890.0, 262.0)",1.15,0.686,1,9807.057,2,0.02,0.25
0,805,target,"[(1168, 794)]",[],[1],[0.6166666666666667],vertical,"(390.0, 262.0)",0.6,0.573,1,9812.819,2,0.02,0.25
0,806,target,"[(1157, 794)]",[],[1],[0.85],horizontal,"(390.0, 262.0)",0.65,nan,0,9817.839,0,0.02,0.25
0,807,target,"[(1176, 796)]",[],[1],[0.55],horizontal,"(890.0, 762.0)",0.8,0.505,1,9822.161,1,0.02,0.25
0,808,target,"[(1164, 792)]",[],[1],[0.65],horizontal,"(390.0, 762.0)",0.6333333333333333,0.616,1,9826.916,1,0.02,0.25
0,809,catch,"[(1189, 790)]",[],[1],[],vertical,"(390.0, 762.0)",1.7,nan,1,9832.147,1,0.02,0.25
0,810,target,"[(1127, 785)]",[],[1],[0.5833333333333334],horizontal,"(890.0, 762.0)",1.2666666666666666,0.544,1,9837.808,2,0.02,0.25
0,811,target,"[(1162, 812)]",[],[1],[0.6333333333333333],horizontal,"(890.0, 762.0)",0.9166666666666666,0.587,1,9843.69,2,0.02,0.25
0,812,target,"[(1161, 786)]",[],[1],[0.5],horizontal,"(390.0, 762.0)",1.2666666666666666,0.46,1,9849.298,2,0.02,0.25
0,813,catch,"[(1169, 806)]",[],[1],[],horizontal,"(890.0, 262.0)",1.7,nan,1,9854.791,2,0.02,0.25
0,814,catch,"[(1168, 805)]",[],[1],[],horizontal,"(390.0, 262.0)",,"('cti', 1.375),nan",0,9860.158,0,0.04,0.25
0,815,target,"[(1156, 802)]",[],[1],[0.55],horizontal,"(890.0, 262.0)",1.0666666666666667,0.508,1,9865.132,1,0.04,0.25
0,816,target,"[(1153, 795)]",[],[1],[0.85],horizontal,"(390.0, 762.0)",0.6666666666666666,nan,0,9872.024,0,0.04,0.25
0,817,target,"[(1133, 798)]",[],[1],[0.5833333333333334],vertical,"(890.0, 262.0)",0.6166666666666667,0.542,1,9876.239,1,0.04,0.25
0,818,target,"[(1161, 806)]",[],[1],[0.3833333333333333],horizontal,"(890.0, 762.0)",1.45,0.342,1,9881.314,1,0.04,0.25
0,819,target,"[(1126, 779)]",[],[1],[0.5166666666666666],horizontal,"(390.0, 262.0)",0.5833333333333334,0.473,1,9886.581,1,0.04,0.25
0,820,target,"[(1181, 788)]",[],[1],[0.4],vertical,"(890.0, 762.0)",1.4166666666666667,0.364,1,9890.901,2,0.02,0.25
0,821,target,"[(1127, 795)]",[],[1],[0.5166666666666666],vertical,"(390.0, 762.0)",1.1666666666666667,0.475,1,9896.528,2,0.02,0.25
0,822,target,"[(1156, 795)]",[],[1],[0.6],vertical,"(390.0, 762.0)",0.6833333333333333,0.555,1,9902.442,2,0.02,0.25
0,823,target,"[(1174, 784)]",[],[1],[0.4666666666666667],horizontal,"(890.0, 262.0)",1.45,0.427,1,9907.509,2,0.02,0.25
0,824,target,"[(1168, 796)]",[],[1],[0.6666666666666666],horizontal,"(390.0, 762.0)",1.0166666666666666,0.624,1,9913.639,3,0.02,0.25
0,825,target,"[(1153, 807)]",[],[1],[0.5333333333333333],vertical,"(390.0, 262.0)",0.8833333333333333,0.493,1,9919.458,3,0.02,0.25
0,826,target,"[(1156, 801)]",[],[1],[0.4666666666666667],horizontal,"(390.0, 262.0)",0.9666666666666667,0.428,1,9925.205,3,0.02,0.25
0,827,target,"[(1171, 777)]",[],[1],[0.5166666666666666],vertical,"(390.0, 762.0)",0.35,0.475,1,9930.884,3,0.02,0.25
0,828,catch,"[(1161, 805)]",[],[1],[],horizontal,"(890.0, 762.0)",1.7,nan,1,9935.642,3,0.02,0.25
0,829,target,"[(1156, 796)]",[],[1],[0.5333333333333333],vertical,"(390.0, 762.0)",0.9333333333333333,0.495,1,9941.459,3,0.02,0.25
0,830,target,"[(1153, 795)]",[],[1],[0.7],horizontal,"(390.0, 262.0)",0.36666666666666664,0.654,1,9946.921,3,0.02,0.25
0,831,target,"[(1154, 799)]",[],[1],[0.5166666666666666],horizontal,"(390.0, 262.0)",1.2166666666666666,0.471,1,9952.641,3,0.02,0.25
0,832,target,"[(1151, 808)]",[],[1],[0.5333333333333333],vertical,"(890.0, 262.0)",1.25,0.494,1,9958.769,3,0.02,0.25
0,833,target,"[(1171, 789)]",[],[1],[0.5],vertical,"(890.0, 762.0)",0.9666666666666667,0.457,1,9964.799,3,0.02,0.25
0,834,target,"[(1170, 811)]",[],[1],[0.5333333333333333],vertical,"(390.0, 762.0)",0.9666666666666667,0.492,1,9970.459,3,0.02,0.25
0,835,target,"[(1154, 788)]",[],[1],[0.5166666666666666],vertical,"(890.0, 262.0)",1.1333333333333333,0.473,1,9976.335,3,0.02,0.25
0,836,catch,"[(1161, 785)]",[],[1],[],vertical,"(890.0, 262.0)",1.7,nan,1,9982.009,3,0.02,0.25
0,837,catch,"[(1156, 794)]",[],[1],[],vertical,"(390.0, 262.0)",1.7,nan,1,9987.868,3,0.02,0.25
0,838,catch,"[(1161, 796)]",[],[1],[],horizontal,"(890.0, 262.0)",1.7,nan,1,9994.092,3,0.02,0.25
0,839,target,"[(1172, 799)]",[],[1],[0.3833333333333333],horizontal,"(390.0, 762.0)",1.4,0.347,1,10000.242,3,0.02,0.25
0,840,target,"[(1156, 788)]",[],[1],[0.7],vertical,"(390.0, 262.0)",1.05,0.652,1,10006.24,3,0.02,0.25
0,841,catch,"[(1156, 790)]",[],[1],[],vertical,"(390.0, 262.0)",1.7,nan,1,10012.008,3,0.02,0.25
0,842,target,"[(1130, 815)]",[],[1],[0.5166666666666666],horizontal,"(390.0, 262.0)",1.2166666666666666,0.474,1,10018.062,3,0.02,0.25
0,843,catch,"[(1161, 800)]",[],[1],[],vertical,"(890.0, 762.0)",1.7,nan,1,10024.567,3,0.02,0.25
0,844,target,"[(1167, 802)]",[],[1],[0.6],vertical,"(890.0, 262.0)",0.8666666666666667,0.557,1,10030.308,3,0.02,0.25
0,845,target,"[(1157, 807)]",[],[1],[0.55],horizontal,"(390.0, 262.0)",0.9166666666666666,0.505,1,10036.075,3,0.02,0.25
0,846,target,"[(1156, 808)]",[],[1],[0.5333333333333333],horizontal,"(390.0, 762.0)",0.6,0.495,1,10041.476,3,0.02,0.25
0,847,target,"[(1153, 789)]",[],[1],[0.5833333333333334],vertical,"(390.0, 262.0)",1.0,0.539,1,10046.791,3,0.02,0.25
0,848,target,"[(1166, 794)]",[],[1],[0.5333333333333333],vertical,"(890.0, 262.0)",0.6166666666666667,0.493,1,10052.508,3,0.02,0.25
0,849,target,"[(1142, 774)]",[],[1],[0.5166666666666666],vertical,"(890.0, 262.0)",1.5333333333333332,0.48,1,10057.813,3,0.02,0.25
0,850,target,"[(1156, 784)]",[],[1],[0.5166666666666666],vertical,"(890.0, 762.0)",0.6666666666666666,0.473,1,10063.926,3,0.02,0.25
0,851,target,"[(1161, 786)]",[],[1],[0.5166666666666666],horizontal,"(390.0, 262.0)",1.4666666666666666,0.473,1,10069.114,3,0.02,0.25
0,852,target,"[(1144, 783)]",[],[1],[0.5166666666666666],vertical,"(890.0, 762.0)",0.6,0.486,1,10075.497,3,0.02,0.25
0,853,catch,"[(1156, 808)]",[],[1],[],horizontal,"(890.0, 262.0)",1.7,nan,1,10080.807,3,0.02,0.25
0,854,catch,"[(1150, 800)]",[],[1],[],horizontal,"(890.0, 262.0)",1.7,nan,1,10087.158,3,0.02,0.25
0,855,catch,"[(1152, 808)]",[],[1],[],horizontal,"(390.0, 762.0)",1.7,nan,1,10093.396,3,0.02,0.25
0,856,catch,"[(1153, 790)]",[],[1],[],vertical,"(390.0, 762.0)",1.7,nan,1,10099.125,3,0.02,0.25
0,857,catch,"[(1172, 799)]",[],[1],[],vertical,"(890.0, 762.0)",1.7,nan,1,10105.384,3,0.02,0.25
0,858,catch,"[(1161, 792)]",[],[1],[],horizontal,"(890.0, 262.0)",1.7,nan,1,10111.585,3,0.02,0.25
0,859,target,"[(1155, 794)]",[],[1],[0.5166666666666666],horizontal,"(390.0, 262.0)",1.3833333333333333,0.486,1,10117.64,3,0.02,0.25
0,860,target,"[(1156, 787)]",[],[1],[0.6666666666666666],vertical,"(890.0, 262.0)",0.43333333333333335,0.624,1,10123.926,3,0.02,0.25
0,861,target,"[(1152, 781)]",[],[1],[0.6833333333333333],vertical,"(890.0, 762.0)",1.3166666666666667,0.635,1,10129.622,3,0.02,0.25
0,862,catch,"[(1151, 794)]",[],[1],[],vertical,"(890.0, 262.0)",1.7,nan,1,10135.592,3,0.02,0.25
0,863,target,"[(1153, 788)]",[],[1],[0.45],vertical,"(390.0, 262.0)",1.3666666666666667,0.411,1,10141.845,3,0.02,0.25
0,864,catch,"[(1159, 794)]",[],[1],[],vertical,"(390.0, 262.0)",1.7,nan,1,10147.971,3,0.0,0.25
0,865,catch,"[(1143, 792)]",[],[1],[],horizontal,"(390.0, 762.0)",1.7,nan,1,10153.857,3,0.0,0.25
