block,trial,trial_type,taps_start_loc_during_fix,taps_end_loc_during_fix,taps_on_lever_during_fix,taps_on_lever_s_during_fix,bar_orientation,target_xy,cti,rt,acc,time,pulses,fa_rate_recent100,actual_invalid_type
0,1,valid,"[(1161, 831)]",[],[1],[0.3833333333333333],horizontal,"(390.0, 262.0)",0.8166666666666667,0.349,1,0.494,1,0.0,same
0,2,valid,"[(1124, 801)]",[],[1],[0.4],vertical,"(890.0, 762.0)",0.5166666666666666,0.368,1,7.461,1,0.0,same
0,3,catch,"[(1125, 846)]",[],[1],[],horizontal,"(390.0, 762.0)",,"('cti', 0.505),nan",0,12.586,0,0.3333333333333333,same
0,4,catch,"[(1090, 835)]",[],[1],[],horizontal,"(390.0, 762.0)",1.7,nan,1,54.371,1,0.25,same
0,5,catch,"[(1094, 819)]",[],[1],[],vertical,"(890.0, 262.0)",1.7,nan,1,396.255,1,0.2,same
0,6,valid,"[(1130, 808)]",[],[1],[0.85],vertical,"(890.0, 262.0)",0.5,nan,0,784.409,0,0.16666666666666666,same
0,7,valid,"[(1092, 835), (1028, 834)]",[],"[1, 1]",[0.5],horizontal,"(890.0, 262.0)",0.8666666666666667,0.459,1,788.478,1,0.14285714285714285,same
0,8,valid,"[(1164, 800)]",[],[1],[0.85],vertical,"(390.0, 762.0)",0.75,nan,0,797.625,0,0.125,same
0,9,valid,"[(1160, 782)]",[],[1],[0.85],horizontal,"(890.0, 762.0)",0.8333333333333334,nan,0,802.34,0,0.1111111111111111,same
0,10,valid,"[(1141, 797)]",[],[1],[0.4166666666666667],horizontal,"(890.0, 762.0)",1.4666666666666666,0.381,1,807.188,1,0.1,same
0,11,valid,"[(1160, 767)]",[],[1],[0.85],horizontal,"(390.0, 762.0)",0.8833333333333333,nan,0,812.702,0,0.09090909090909091,same
0,12,catch,"[(1133, 816)]",[],[1],[],horizontal,"(390.0, 762.0)",,"('cti', 1.669),nan",0,817.71,0,0.16666666666666666,same
0,13,valid,"[(1185, 824)]",[],[1],[0.55],horizontal,"(890.0, 262.0)",0.9666666666666667,0.507,1,830.01,1,0.15384615384615385,same
0,14,valid,"[(1175, 807)]",[],[1],[0.55],vertical,"(890.0, 262.0)",0.65,0.502,1,834.659,1,0.14285714285714285,same
0,15,valid,"[(1180, 779)]",[],[1],[0.5166666666666666],vertical,"(890.0, 262.0)",0.9,0.475,1,839.075,1,0.13333333333333333,same
0,16,valid,"[(1177, 782)]",[],[1],[0.85],vertical,"(890.0, 762.0)",0.9333333333333333,nan,0,844.225,0,0.125,same
0,17,valid,"[(1176, 799)]",[],[1],[0.5],horizontal,"(890.0, 762.0)",1.4,0.46,1,849.022,1,0.11764705882352941,same
0,18,catch,"[(1174, 785)]",[],[1],[],vertical,"(890.0, 262.0)",1.7,nan,1,854.694,1,0.1111111111111111,same
0,19,catch,"[(1170, 773)]",[],[1],[],vertical,"(890.0, 762.0)",1.7,nan,1,860.334,1,0.10526315789473684,same
0,20,valid,"[(1175, 782)]",[],[1],[0.65],vertical,"(890.0, 762.0)",1.0,0.612,1,865.538,2,0.1,same
0,21,invalid_same_bar,"[(1185, 784)]",[],[1],[0.5166666666666666],vertical,"(890.0, 762.0)",0.7666666666666666,0.473,1,871.026,2,0.09523809523809523,same
0,22,valid,"[(1185, 789)]",[],[1],[0.5166666666666666],horizontal,"(390.0, 262.0)",0.5333333333333333,0.475,1,876.095,2,0.09090909090909091,same
0,23,catch,"[(1175, 770)]",[],[1],[],horizontal,"(390.0, 762.0)",1.7,nan,1,881.374,3,0.08695652173913043,same
0,24,valid,"[(1193, 786)]",[],[1],[0.5333333333333333],vertical,"(390.0, 762.0)",0.4666666666666667,0.5,1,887.627,3,0.08333333333333333,same
0,25,catch,"[(1185, 775)]",[],[1],[],vertical,"(390.0, 262.0)",,"('cti', 1.554),nan",0,893.243,0,0.12,same
0,26,valid,"[(1110, 803)]",[],[1],[0.6166666666666667],vertical,"(390.0, 762.0)",0.5166666666666666,0.581,1,898.025,1,0.11538461538461539,same
0,27,catch,"[(1185, 805)]",[],[1],[],vertical,"(390.0, 262.0)",,"('cti', 1.41),nan",0,902.721,0,0.14814814814814814,same
0,28,valid,"[(1183, 794)]",[],[1],[0.5],vertical,"(890.0, 762.0)",0.5666666666666667,0.467,1,907.409,1,0.14285714285714285,same
0,29,valid,"[(1184, 790)]",[],[1],[0.85],horizontal,"(890.0, 262.0)",0.4666666666666667,nan,0,911.718,0,0.13793103448275862,same
0,30,valid,"[(1172, 781)]",[],[1],[0.4666666666666667],horizontal,"(390.0, 762.0)",1.4833333333333334,0.425,1,916.432,1,0.13333333333333333,same
0,31,valid,"[(1194, 770)]",[],[1],[0.5],horizontal,"(890.0, 762.0)",0.6666666666666666,0.463,1,922.072,1,0.12903225806451613,same
0,32,valid,"[(1194, 773)]",[],[1],[0.5333333333333333],horizontal,"(890.0, 762.0)",0.4166666666666667,0.497,1,926.992,1,0.125,same
0,33,invalid_same_bar,"[(1169, 786)]",[],[1],[0.5333333333333333],horizontal,"(390.0, 762.0)",1.3833333333333333,0.494,1,931.642,2,0.12121212121212122,same
0,34,valid,"[(1115, 786)]",[],[1],[0.6833333333333333],vertical,"(390.0, 262.0)",0.4166666666666667,0.639,1,937.608,2,0.11764705882352941,same
0,35,valid,"[(1165, 777)]",[],[1],[0.5166666666666666],horizontal,"(890.0, 762.0)",0.5833333333333334,0.476,1,942.309,2,0.11428571428571428,same
0,36,catch,"[(1160, 786)]",[],[1],[],horizontal,"(890.0, 762.0)",1.7,nan,1,947.462,3,0.1111111111111111,same
0,37,valid,"[(1162, 767)]",[],[1],[0.5666666666666667],horizontal,"(390.0, 762.0)",0.43333333333333335,0.529,1,953.96,3,0.10810810810810811,same
0,38,catch,"[(1160, 796)]",[],[1],[],horizontal,"(890.0, 262.0)",1.7,nan,1,958.96,3,0.10526315789473684,same
0,39,valid,"[(1170, 777)]",[],[1],[0.5666666666666667],horizontal,"(890.0, 762.0)",0.6333333333333333,0.533,1,965.227,3,0.10256410256410256,same
0,40,catch,"[(1162, 789)]",[],[1],[],horizontal,"(390.0, 762.0)",1.7,nan,1,970.664,3,0.1,same
0,41,valid,"[(1165, 773)]",[],[1],[0.6],vertical,"(390.0, 762.0)",0.7333333333333333,0.569,1,976.441,3,0.0975609756097561,same
0,42,catch,"[(1163, 806)]",[],[1],[],vertical,"(390.0, 262.0)",1.7,nan,1,982.078,3,0.09523809523809523,same
0,43,valid,"[(1168, 796)]",[],[1],[0.75],vertical,"(390.0, 262.0)",1.0666666666666667,0.701,1,987.983,3,0.09302325581395349,same
0,44,valid,"[(1165, 787)]",[],[1],[0.5166666666666666],vertical,"(890.0, 762.0)",0.6666666666666666,0.474,1,994.247,3,0.09090909090909091,same
0,45,catch,"[(1163, 777)]",[],[1],[],vertical,"(890.0, 762.0)",1.7,nan,1,999.877,3,0.08888888888888889,same
0,46,valid,"[(1178, 788)]",[],[1],[0.6833333333333333],horizontal,"(890.0, 262.0)",0.4666666666666667,0.639,1,1005.576,3,0.08695652173913043,same
0,47,valid,"[(1163, 778)]",[],[1],[0.85],horizontal,"(890.0, 762.0)",1.0166666666666666,nan,0,1011.029,0,0.0851063829787234,same
0,48,valid,"[(1160, 792)]",[],[1],[0.7],vertical,"(390.0, 262.0)",0.4166666666666667,0.654,1,1015.818,1,0.08333333333333333,same
0,49,valid,"[(1165, 776)]",[],[1],[0.5],horizontal,"(390.0, 262.0)",1.0333333333333332,0.46,1,1020.03,1,0.08163265306122448,same
0,50,valid,"[(1165, 780)]",[],[1],[0.5333333333333333],horizontal,"(890.0, 262.0)",0.5666666666666667,0.491,1,1024.867,1,0.08,same
0,51,invalid_same_bar,"[(1167, 796)]",[],[1],[0.5833333333333334],horizontal,"(890.0, 262.0)",1.35,0.541,1,1029.491,2,0.08,same
0,52,valid,"[(1162, 799)]",[],[1],[0.5333333333333333],vertical,"(890.0, 762.0)",0.9833333333333333,0.491,1,1035.396,2,0.08,same
0,53,catch,"[(1140, 783)]",[],[1],[],horizontal,"(390.0, 262.0)",1.7,nan,1,1040.976,2,0.06,same
0,54,valid,"[(1165, 792)]",[],[1],[0.7333333333333333],horizontal,"(390.0, 762.0)",1.05,0.693,1,1047.125,3,0.06,same
0,55,invalid_adjacent_other_bar,"[(1163, 789)]",[],[1],[],vertical,"(890.0, 762.0)",,"('cti', 1.066)",0,1053.127,0,0.06,other
0,56,catch,"[(1130, 799)]",[],[1],[],horizontal,"(390.0, 762.0)",1.7,nan,1,1057.01,1,0.06,same
0,57,valid,"[(1178, 783)]",[],[1],[0.55],horizontal,"(390.0, 262.0)",0.85,0.508,1,1063.608,1,0.06,same
0,58,valid,"[(1166, 765)]",[],[1],[0.6333333333333333],horizontal,"(890.0, 762.0)",1.3333333333333333,0.591,1,1068.409,1,0.06,same
0,59,valid,"[(1172, 791)]",[],[1],[0.55],vertical,"(390.0, 262.0)",1.2666666666666666,0.503,1,1073.587,2,0.06,same
0,60,valid,"[(1181, 794)]",[],[1],[0.5166666666666666],vertical,"(890.0, 762.0)",0.8166666666666667,0.472,1,1079.163,2,0.06,same
0,61,catch,"[(1166, 781)]",[],[1],[],horizontal,"(890.0, 262.0)",1.7,nan,1,1084.111,2,0.06,same
0,62,catch,"[(1162, 777)]",[],[1],[],horizontal,"(390.0, 762.0)",1.7,nan,1,1089.793,3,0.04,same
0,63,valid,"[(1179, 795)]",[],[1],[0.7166666666666667],horizontal,"(890.0, 762.0)",1.1833333333333333,0.669,1,1095.863,3,0.04,same
0,64,valid,"[(1170, 789)]",[],[1],[0.5166666666666666],horizontal,"(390.0, 762.0)",0.7666666666666666,0.48,1,1102.06,3,0.04,same
0,65,catch,"[(1165, 801)]",[],[1],[],vertical,"(890.0, 762.0)",1.7,nan,1,1107.676,3,0.04,same
0,66,valid,"[(1169, 780)]",[],[1],[0.7],horizontal,"(890.0, 762.0)",1.1166666666666667,0.656,1,1113.677,3,0.04,same
0,67,catch,"[(1170, 787)]",[],[1],[],horizontal,"(390.0, 262.0)",1.7,nan,1,1119.989,3,0.04,same
0,68,catch,"[(1175, 803)]",[],[1],[],vertical,"(390.0, 262.0)",1.7,nan,1,1125.977,3,0.04,same
0,69,valid,"[(1165, 786)]",[],[1],[0.5166666666666666],vertical,"(890.0, 262.0)",0.7833333333333333,0.475,1,1132.138,3,0.04,same
0,70,catch,"[(1170, 786)]",[],[1],[],vertical,"(890.0, 762.0)",1.7,nan,1,1137.977,3,0.04,same
0,71,valid,"[(1170, 810)]",[],[1],[0.8333333333333334],horizontal,"(890.0, 762.0)",1.0666666666666667,0.781,1,1143.66,3,0.04,same
0,72,valid,"[(1160, 836)]",[],[1],[0.85],vertical,"(390.0, 262.0)",1.3333333333333333,nan,0,1149.808,0,0.04,same
0,73,valid,"[(1180, 803)]",[],[1],[0.6333333333333333],horizontal,"(390.0, 762.0)",1.2,0.591,1,1514.361,1,0.04,same
0,74,valid,"[(1163, 787)]",[],[1],[0.6333333333333333],vertical,"(390.0, 762.0)",0.5,0.592,1,1519.651,1,0.04,same
0,75,valid,"[(1174, 795)]",[],[1],[0.7333333333333333],vertical,"(890.0, 262.0)",0.35,0.69,1,1524.536,1,0.02,same
0,76,valid,"[(1185, 798)]",[],[1],[0.6333333333333333],vertical,"(890.0, 262.0)",1.4666666666666666,0.594,1,1529.345,2,0.02,same
0,77,catch,"[(1162, 799)]",[],[1],[],vertical,"(390.0, 262.0)",1.7,nan,1,1535.443,2,0.0,same
0,78,catch,"[(1160, 801)]",[],[1],[],horizontal,"(890.0, 262.0)",1.7,nan,1,1540.937,2,0.0,same
0,79,catch,"[(1165, 797)]",[],[1],[],vertical,"(390.0, 262.0)",1.7,nan,1,1546.602,3,0.0,same
0,80,valid,"[(1160, 797)]",[],[1],[0.55],vertical,"(390.0, 262.0)",0.3833333333333333,0.509,1,1552.978,3,0.0,same
0,81,catch,"[(1163, 789)]",[],[1],[],vertical,"(390.0, 262.0)",1.7,nan,1,1557.703,3,0.0,same
0,82,valid,"[(1164, 784)]",[],[1],[0.6166666666666667],horizontal,"(890.0, 762.0)",1.25,0.569,1,1563.875,3,0.0,same
0,83,catch,"[(1165, 783)]",[],[1],[],horizontal,"(390.0, 262.0)",1.7,nan,1,1570.332,3,0.0,same
0,84,valid,"[(1165, 822)]",[],[1],[0.55],vertical,"(390.0, 262.0)",0.95,0.512,1,1576.338,3,0.0,same
0,85,valid,"[(1166, 781)]",[],[1],[0.55],vertical,"(890.0, 262.0)",0.5666666666666667,0.514,1,1589.06,3,0.0,same
0,86,valid,"[(1164, 781)]",[],[1],[0.6],horizontal,"(890.0, 762.0)",1.55,0.555,1,1594.28,3,0.0,same
0,87,valid,"[(1137, 790)]",[],[1],[0.6],vertical,"(390.0, 262.0)",1.4833333333333334,0.557,1,1600.246,3,0.0,same
0,88,valid,"[(1168, 786)]",[],[1],[0.55],vertical,"(390.0, 262.0)",0.35,0.508,1,1606.265,3,0.0,same
0,89,valid,"[(1137, 775)]",[],[1],[0.5166666666666666],horizontal,"(890.0, 262.0)",0.6333333333333333,0.477,1,1611.28,3,0.0,same
0,90,valid,"[(1165, 787)]",[],[1],[0.5333333333333333],horizontal,"(390.0, 262.0)",0.55,0.49,1,1616.468,3,0.0,same
0,91,valid,"[(1148, 785)]",[],[1],[0.5666666666666667],horizontal,"(390.0, 762.0)",1.35,0.529,1,1621.641,3,0.0,same
0,92,valid,"[(1161, 800)]",[],[1],[0.5666666666666667],vertical,"(890.0, 262.0)",0.3833333333333333,0.531,1,1628.078,3,0.0,same
0,93,valid,"[(1165, 792)]",[],[1],[0.5833333333333334],vertical,"(390.0, 762.0)",0.55,0.544,1,1633.88,3,0.0,same
0,94,valid,"[(1169, 773)]",[],[1],[0.55],vertical,"(890.0, 262.0)",1.3833333333333333,0.507,1,1638.963,3,0.0,same
0,95,catch,"[(1169, 783)]",[],[1],[],vertical,"(890.0, 262.0)",1.7,nan,1,1645.245,3,0.0,same
0,96,valid,"[(1168, 790)]",[],[1],[0.7333333333333333],horizontal,"(890.0, 762.0)",1.0666666666666667,0.687,1,1651.352,3,0.0,same
0,97,valid,"[(1167, 788)]",[],[1],[0.43333333333333335],horizontal,"(390.0, 762.0)",1.4333333333333333,0.404,1,1657.662,3,0.0,same
0,98,valid,"[(1163, 789)]",[],[1],[0.7],vertical,"(390.0, 262.0)",1.1166666666666667,0.658,1,1663.878,3,0.0,same
0,99,valid,"[(1175, 781)]",[],[1],[0.5666666666666667],vertical,"(890.0, 262.0)",0.95,0.529,1,1670.329,3,0.0,same
0,100,catch,"[(1165, 777)]",[],[1],[],horizontal,"(390.0, 762.0)",1.7,nan,1,1676.396,3,0.0,same
0,101,valid,"[(1164, 802)]",[],[1],[0.6166666666666667],vertical,"(390.0, 762.0)",0.8666666666666667,0.579,1,1682.456,3,0.0,same
0,102,catch,"[(1161, 804)]",[],[1],[],vertical,"(890.0, 262.0)",1.7,nan,1,1688.145,3,0.0,same
0,103,valid,"[(1158, 797)]",[],[1],[0.6333333333333333],vertical,"(390.0, 762.0)",1.1833333333333333,0.6,1,1694.413,3,0.0,same
0,104,valid,"[(1173, 775)]",[],[1],[0.6666666666666666],vertical,"(890.0, 262.0)",0.8666666666666667,0.624,1,1700.396,3,0.0,same
0,105,valid,"[(1165, 789)]",[],[1],[0.5666666666666667],vertical,"(890.0, 762.0)",1.4,0.531,1,1706.394,3,0.0,same
0,106,valid,"[(1165, 784)]",[],[1],[0.5833333333333334],vertical,"(390.0, 762.0)",1.0166666666666666,0.544,1,1712.596,3,0.0,same
0,107,valid,"[(1166, 778)]",[],[1],[0.55],horizontal,"(390.0, 762.0)",0.7333333333333333,0.52,1,1718.495,3,0.0,same
0,108,valid,"[(1133, 825)]",[],[1],[0.5333333333333333],vertical,"(390.0, 262.0)",1.3666666666666667,0.495,1,1724.32,3,0.0,same
0,109,valid,"[(1131, 786)]",[],[1],[0.48333333333333334],horizontal,"(890.0, 262.0)",1.2,0.446,1,1730.63,3,0.0,same
0,110,catch,"[(1161, 786)]",[],[1],[],vertical,"(890.0, 762.0)",1.7,nan,1,1736.432,3,0.0,same
0,111,valid,"[(1170, 794)]",[],[1],[0.5666666666666667],vertical,"(890.0, 762.0)",0.9333333333333333,0.527,1,1742.409,3,0.0,same
0,112,valid,"[(1160, 791)]",[],[1],[0.6166666666666667],vertical,"(390.0, 762.0)",1.0,0.568,1,1748.323,3,0.0,same
0,113,valid,"[(1177, 814)]",[],[1],[0.5166666666666666],horizontal,"(890.0, 262.0)",1.0333333333333332,0.478,1,1754.112,3,0.0,same
0,114,catch,"[(1175, 778)]",[],[1],[],horizontal,"(390.0, 762.0)",1.7,nan,1,1760.312,3,0.0,same
0,115,valid,"[(1175, 788)]",[],[1],[0.6666666666666666],horizontal,"(390.0, 762.0)",0.8166666666666667,0.624,1,1766.329,3,0.0,same
0,116,valid,"[(1177, 780)]",[],[1],[0.55],vertical,"(890.0, 762.0)",0.75,0.509,1,1771.82,3,0.0,same
0,117,catch,"[(1161, 806)]",[],[1],[],horizontal,"(890.0, 762.0)",,"('cti', 1.684),nan",0,1777.297,0,0.02,same
0,118,catch,"[(1138, 803)]",[],[1],[],vertical,"(390.0, 762.0)",1.7,nan,1,1782.132,1,0.02,same
0,119,valid,"[(1174, 772)]",[],[1],[0.36666666666666664],horizontal,"(390.0, 762.0)",1.4333333333333333,0.33,1,1788.5,1,0.02,same
0,120,catch,"[(1155, 772)]",[],[1],[],horizontal,"(390.0, 262.0)",1.7,nan,1,1794.211,1,0.02,same
0,121,catch,"[(1149, 778)]",[],[1],[],vertical,"(390.0, 262.0)",1.7,nan,1,1799.2,2,0.02,same
0,122,valid,"[(1175, 791)]",[],[1],[0.6166666666666667],vertical,"(890.0, 262.0)",0.7833333333333333,0.575,1,1805.463,2,0.02,same
0,123,valid,"[(1155, 772)]",[],[1],[0.6],horizontal,"(890.0, 262.0)",0.8666666666666667,0.56,1,1810.862,2,0.02,same
0,124,valid,"[(1177, 779)]",[],[1],[0.6],horizontal,"(390.0, 262.0)",1.2666666666666666,0.553,1,1816.48,3,0.02,same
0,125,valid,"[(1186, 796)]",[],[1],[0.55],vertical,"(390.0, 262.0)",1.25,0.513,1,1822.389,3,0.02,same
0,126,valid,"[(1160, 788)]",[],[1],[0.6],horizontal,"(390.0, 262.0)",1.3,0.558,1,1828.328,3,0.02,same
0,127,catch,"[(1161, 798)]",[],[1],[],vertical,"(890.0, 762.0)",1.7,nan,1,1834.296,3,0.02,same
0,128,valid,"[(1183, 799)]",[],[1],[0.5666666666666667],vertical,"(390.0, 762.0)",0.85,0.531,1,1840.678,3,0.02,same
0,129,valid,"[(1188, 793)]",[],[1],[0.5666666666666667],horizontal,"(390.0, 762.0)",0.8,0.526,1,1846.113,3,0.02,same
0,130,valid,"[(1183, 793)]",[],[1],[0.6666666666666666],horizontal,"(890.0, 262.0)",1.1666666666666667,0.621,1,1851.562,3,0.02,same
0,131,valid,"[(1180, 787)]",[],[1],[0.55],horizontal,"(390.0, 762.0)",0.7833333333333333,0.511,1,1857.309,3,0.02,same
0,132,valid,"[(1166, 798)]",[],[1],[0.55],vertical,"(390.0, 762.0)",0.8833333333333333,0.51,1,1862.781,3,0.02,same
0,133,valid,"[(1180, 821)]",[],[1],[0.5],vertical,"(890.0, 762.0)",0.4,0.46,1,1868.384,3,0.02,same
0,134,valid,"[(1186, 797)]",[],[1],[0.5833333333333334],vertical,"(890.0, 262.0)",1.2333333333333334,0.54,1,1873.38,3,0.02,same
0,135,valid,"[(1185, 796)]",[],[1],[0.5833333333333334],vertical,"(390.0, 762.0)",0.7833333333333333,0.547,1,1879.153,3,0.02,same
0,136,valid,"[(1183, 797)]",[],[1],[0.5333333333333333],vertical,"(390.0, 762.0)",1.4666666666666666,0.494,1,1884.589,3,0.02,same
0,137,valid,"[(1177, 792)]",[],[1],[0.5833333333333334],horizontal,"(390.0, 262.0)",1.2833333333333332,0.54,1,1890.547,3,0.02,same
0,138,valid,"[(1175, 785)]",[],[1],[0.5333333333333333],horizontal,"(890.0, 262.0)",1.5333333333333332,0.494,1,1896.73,3,0.02,same
0,139,catch,"[(1175, 796)]",[],[1],[],vertical,"(890.0, 762.0)",1.7,nan,1,1902.912,3,0.02,same
0,140,valid,"[(1170, 791)]",[],[1],[0.43333333333333335],horizontal,"(890.0, 262.0)",1.5,0.394,1,1908.548,3,0.02,same
0,141,valid,"[(1170, 793)]",[],[1],[0.5666666666666667],vertical,"(890.0, 262.0)",0.5333333333333333,0.525,1,1914.446,3,0.02,same
0,142,valid,"[(1177, 791)]",[],[1],[0.65],vertical,"(390.0, 762.0)",0.5333333333333333,0.604,1,1919.696,3,0.02,same
0,143,valid,"[(1175, 790)]",[],[1],[0.55],horizontal,"(390.0, 762.0)",0.8166666666666667,0.514,1,1924.964,3,0.02,same
0,144,valid,"[(1180, 792)]",[],[1],[0.7166666666666667],vertical,"(390.0, 762.0)",0.6833333333333333,0.669,1,1930.781,3,0.02,same
0,145,valid,"[(1172, 795)]",[],[1],[0.5666666666666667],vertical,"(890.0, 262.0)",0.6833333333333333,0.527,1,1936.379,3,0.02,same
0,146,valid,"[(1175, 780)]",[],[1],[0.6],vertical,"(390.0, 262.0)",0.7833333333333333,0.555,1,1941.713,3,0.02,same
0,147,valid,"[(1166, 797)]",[],[1],[0.6833333333333333],vertical,"(390.0, 262.0)",0.9333333333333333,0.645,1,1947.481,3,0.02,same
0,148,valid,"[(1190, 791)]",[],[1],[0.5833333333333334],vertical,"(890.0, 262.0)",1.5166666666666666,0.538,1,1953.679,3,0.02,same
0,149,valid,"[(1171, 775)]",[],[1],[0.55],horizontal,"(890.0, 762.0)",1.3333333333333333,0.514,1,1959.686,3,0.02,same
0,150,valid,"[(1165, 773)]",[],[1],[0.6833333333333333],vertical,"(390.0, 762.0)",1.2666666666666666,0.641,1,1965.64,3,0.02,same
0,151,valid,"[(1170, 796)]",[],[1],[0.5666666666666667],horizontal,"(390.0, 262.0)",0.45,0.524,1,1971.768,3,0.02,same
0,152,catch,"[(1188, 807)]",[],[1],[],horizontal,"(390.0, 762.0)",1.7,nan,1,1977.213,3,0.02,same
0,153,catch,"[(1163, 796)]",[],[1],[],vertical,"(890.0, 762.0)",1.7,nan,1,1983.347,3,0.02,same
0,154,catch,"[(1166, 805)]",[],[1],[],horizontal,"(890.0, 262.0)",1.7,nan,1,1988.981,3,0.02,same
0,155,valid,"[(1164, 808)]",[],[1],[0.5833333333333334],horizontal,"(390.0, 762.0)",1.1333333333333333,0.541,1,1994.795,3,0.02,same
0,156,catch,"[(1175, 804)]",[],[1],[],vertical,"(890.0, 762.0)",1.7,nan,1,2001.569,3,0.02,same
0,157,valid,"[(1165, 780)]",[],[1],[],vertical,"(890.0, 262.0)",,"('cti', 1.412)",0,2007.88,0,0.02,same
0,158,invalid_same_bar,"[(1141, 796)]",[],[1],[0.5166666666666666],vertical,"(390.0, 262.0)",0.9666666666666667,0.474,1,2012.012,1,0.02,same
0,159,valid,"[(1155, 783)]",[],[1],[0.85],horizontal,"(390.0, 762.0)",1.3666666666666667,nan,0,2523.306,0,0.02,same
0,160,catch,"[(1153, 806)]",[],[1],[],horizontal,"(390.0, 262.0)",1.7,nan,1,2528.794,1,0.02,same
0,161,catch,"[(1166, 794)]",[],[1],[],vertical,"(890.0, 262.0)",1.7,nan,1,2541.807,1,0.02,same
0,162,catch,"[(1167, 778)]",[],[1],[],vertical,"(390.0, 762.0)",1.7,nan,1,2547.192,1,0.02,same
0,163,catch,"[(1181, 796)]",[],[1],[],vertical,"(890.0, 262.0)",1.7,nan,1,2552.312,2,0.02,same
0,164,valid,"[(1165, 798)]",[],[1],[0.55],vertical,"(890.0, 262.0)",1.1666666666666667,0.511,1,2558.015,2,0.02,same
0,165,valid,"[(1136, 817)]",[],[1],[0.85],horizontal,"(390.0, 262.0)",1.2666666666666666,nan,0,2563.152,0,0.02,same
0,166,catch,"[(1164, 791)]",[],[1],[],vertical,"(390.0, 262.0)",1.7,nan,1,2569.685,1,0.02,same
0,167,valid,"[(1163, 803)]",[],[1],[0.6],vertical,"(890.0, 262.0)",1.4833333333333334,0.564,1,2575.044,1,0.0,same
0,168,valid,"[(1181, 796)]",[],[1],[0.6],horizontal,"(890.0, 762.0)",1.3166666666666667,0.559,1,2580.615,1,0.0,same
0,169,valid,"[(1182, 790)]",[],[1],"[0.85, 0.85]",horizontal,"(390.0, 262.0)",1.0666666666666667,"0.81,nan",0,2586.199,0,0.0,same
0,170,invalid_adjacent_other_bar,"[(1163, 783)]",[],[1],[0.85],vertical,"(890.0, 262.0)",0.85,nan,0,2591.375,0,0.0,other
0,171,invalid_adjacent_other_bar,"[(1161, 799)]",[],[1],[0.5833333333333334],vertical,"(890.0, 762.0)",0.7333333333333333,0.549,1,2595.966,1,0.0,other
0,172,valid,"[(1170, 796)]",[],[1],[0.8333333333333334],vertical,"(390.0, 762.0)",1.4666666666666666,0.788,1,2600.788,1,0.0,same
0,173,valid,"[(1176, 806)]",[],[1],[0.75],vertical,"(890.0, 762.0)",0.5666666666666667,0.711,1,2606.4,1,0.0,same
0,174,catch,"[(1180, 780)]",[],[1],[],horizontal,"(890.0, 262.0)",1.7,nan,1,2611.004,2,0.0,same
0,175,valid,"[(1182, 782)]",[],[1],[0.5166666666666666],vertical,"(390.0, 262.0)",0.8833333333333333,0.477,1,2616.783,2,0.0,same
0,176,catch,"[(1160, 807)]",[],[1],[],horizontal,"(390.0, 762.0)",1.7,nan,1,2621.842,2,0.0,same
0,177,valid,"[(1160, 791)]",[],[1],[0.5166666666666666],vertical,"(390.0, 762.0)",1.2666666666666666,0.479,1,2627.876,3,0.0,same
0,178,valid,"[(1135, 808)]",[],[1],[0.6833333333333333],vertical,"(390.0, 262.0)",1.3833333333333333,0.636,1,2634.236,3,0.0,same
0,179,valid,"[(1172, 795)]",[],[1],[0.5333333333333333],vertical,"(390.0, 262.0)",1.3833333333333333,0.493,1,2641.166,3,0.0,same
0,180,catch,"[(1135, 798)]",[],[1],[],vertical,"(390.0, 262.0)",1.7,nan,1,2647.167,3,0.0,same
0,181,valid,"[(1170, 790)]",[],[1],[0.6333333333333333],horizontal,"(890.0, 762.0)",1.3333333333333333,0.59,1,2653.549,3,0.0,same
0,182,valid,"[(1165, 786)]",[],[1],[0.48333333333333334],horizontal,"(890.0, 262.0)",1.5,0.452,1,2659.564,3,0.0,same
0,183,valid,"[(1145, 799)]",[],[1],[0.5166666666666666],vertical,"(390.0, 262.0)",0.48333333333333334,0.479,1,2665.725,3,0.0,same
0,184,valid,"[(1152, 814)]",[],[1],[0.48333333333333334],horizontal,"(890.0, 262.0)",0.5166666666666666,0.445,1,2671.266,3,0.0,same
0,185,catch,"[(1160, 793)]",[],[1],[],horizontal,"(890.0, 262.0)",1.7,nan,1,2676.599,3,0.0,same
0,186,valid,"[(1199, 806)]",[],[1],[0.5833333333333334],horizontal,"(890.0, 762.0)",1.4666666666666666,0.547,1,2682.617,3,0.0,same
0,187,catch,"[(1190, 793)]",[],[1],[],horizontal,"(890.0, 262.0)",1.7,nan,1,2688.849,3,0.0,same
0,188,valid,"[(1187, 787)]",[],[1],"[0.85, 0.85]",vertical,"(890.0, 762.0)",0.6833333333333333,"0.804,nan",0,2694.974,0,0.0,same
0,189,catch,"[(1165, 787)]",[],[1],[],horizontal,"(890.0, 762.0)",1.7,nan,1,2699.742,1,0.0,same
0,190,valid,"[(1161, 794)]",[],[1],[0.15],horizontal,"(390.0, 762.0)",1.4,0.118,0,2705.116,0,0.0,same
0,191,catch,"[(1180, 790)]",[],[1],[],horizontal,"(390.0, 262.0)",1.7,nan,1,2709.983,1,0.0,same
0,192,valid,"[(1187, 798)]",[],[1],[0.85],vertical,"(890.0, 762.0)",1.0166666666666666,nan,0,2715.252,0,0.0,same
0,193,valid,"[(1169, 804)]",[],[1],[0.5166666666666666],horizontal,"(890.0, 762.0)",0.7,0.479,1,2720.149,1,0.0,same
0,194,catch,"[(1202, 784)]",[],[1],[],vertical,"(890.0, 262.0)",1.7,nan,1,2724.794,1,0.0,same
0,195,valid,"[(1165, 792)]",[],[1],[0.5666666666666667],horizontal,"(890.0, 762.0)",1.2,0.523,1,2730.351,1,0.0,same
0,196,catch,"[(1175, 789)]",[],[1],[],vertical,"(890.0, 262.0)",1.7,nan,1,2735.599,2,0.0,same
0,197,invalid_adjacent_other_bar,"[(1200, 796)]",[],[1],[0.6166666666666667],vertical,"(890.0, 762.0)",0.9,0.572,1,2741.134,2,0.0,other
0,198,valid,"[(1165, 805)]",[],[1],[0.5833333333333334],vertical,"(390.0, 762.0)",0.45,0.539,1,2746.84,2,0.0,same
0,199,catch,"[(1183, 774)]",[],[1],[],vertical,"(390.0, 262.0)",1.7,nan,1,2751.569,3,0.0,same
0,200,valid,"[(1181, 800)]",[],[1],[0.5833333333333334],horizontal,"(890.0, 262.0)",1.3833333333333333,0.543,1,2757.616,3,0.0,same
0,201,valid,"[(1165, 778)]",[],[1],[0.65],vertical,"(890.0, 262.0)",0.7833333333333333,0.615,1,2764.07,3,0.0,same
0,202,valid,"[(1165, 826)]",[],[1],[0.5166666666666666],horizontal,"(890.0, 262.0)",0.9333333333333333,0.476,1,2769.856,3,0.0,same
0,203,valid,"[(1182, 791)]",[],[1],[0.65],horizontal,"(890.0, 262.0)",0.9333333333333333,0.604,1,2776.183,3,0.0,same
0,204,valid,"[(1165, 775)]",[],[1],[0.6666666666666666],horizontal,"(890.0, 762.0)",1.5,0.622,1,2781.738,3,0.0,same
0,205,catch,"[(1165, 802)]",[],[1],[],horizontal,"(890.0, 762.0)",1.7,nan,1,2788.133,3,0.0,same
0,206,valid,"[(1160, 778)]",[],[1],[0.5833333333333334],horizontal,"(390.0, 762.0)",0.55,0.543,1,2794.216,3,0.0,same
0,207,valid,"[(1170, 796)]",[],[1],[0.4666666666666667],horizontal,"(390.0, 762.0)",1.5,0.425,1,2799.666,3,0.0,same
0,208,valid,"[(1182, 793)]",[],[1],[0.6],horizontal,"(390.0, 762.0)",0.8166666666666667,0.558,1,2805.95,3,0.0,same
0,209,valid,"[(1175, 791)]",[],[1],[0.5666666666666667],vertical,"(390.0, 762.0)",0.6166666666666667,0.523,1,2811.986,3,0.0,same
0,210,valid,"[(1176, 795)]",[],[1],[0.6],horizontal,"(390.0, 762.0)",1.2333333333333334,0.557,1,2817.471,3,0.0,same
0,211,valid,"[(1156, 792)]",[],[1],[0.6833333333333333],horizontal,"(890.0, 262.0)",1.45,0.637,1,2823.733,3,0.0,same
0,212,valid,"[(1165, 805)]",[],[1],[0.6],horizontal,"(390.0, 762.0)",1.1,0.559,1,2830.233,3,0.0,same
0,213,catch,"[(1185, 788)]",[],[1],[],horizontal,"(890.0, 762.0)",1.7,nan,1,2836.293,3,0.0,same
0,214,valid,"[(1165, 786)]",[],[1],[0.5333333333333333],horizontal,"(390.0, 762.0)",0.8666666666666667,0.488,1,2842.192,3,0.0,same
0,215,invalid_adjacent_other_bar,"[(1165, 795)]",[],[1],[0.5833333333333334],vertical,"(390.0, 262.0)",0.5333333333333333,0.542,1,2848.184,3,0.0,other
0,216,valid,"[(1164, 783)]",[],[1],[0.5166666666666666],vertical,"(890.0, 262.0)",1.3833333333333333,0.479,1,2853.989,3,0.0,same
0,217,valid,"[(1175, 811)]",[],[1],[0.6833333333333333],horizontal,"(390.0, 762.0)",0.4166666666666667,0.639,1,2860.167,3,0.0,same
0,218,valid,"[(1164, 774)]",[],[1],[0.65],vertical,"(390.0, 762.0)",1.2166666666666666,0.606,1,2865.566,3,0.0,same
0,219,valid,"[(1178, 786)]",[],[1],[0.5833333333333334],horizontal,"(390.0, 262.0)",0.4166666666666667,0.54,1,2871.768,3,0.0,same
0,220,valid,"[(1169, 785)]",[],[1],[0.55],vertical,"(890.0, 762.0)",0.7833333333333333,0.512,1,2877.001,3,0.0,same
0,221,valid,"[(1172, 795)]",[],[1],[0.5],vertical,"(890.0, 762.0)",1.3833333333333333,0.459,1,2882.884,3,0.0,same
0,222,valid,"[(1166, 791)]",[],[1],[0.5833333333333334],horizontal,"(890.0, 762.0)",0.3833333333333333,0.539,1,2888.551,3,0.0,same
0,223,valid,"[(1153, 790)]",[],[1],[0.55],horizontal,"(390.0, 262.0)",0.8,0.505,1,2893.466,3,0.0,same
0,224,catch,"[(1170, 774)]",[],[1],[],vertical,"(390.0, 762.0)",1.7,nan,1,2899.067,3,0.0,same
0,225,invalid_adjacent_other_bar,"[(1176, 786)]",[],[1],[0.6333333333333333],horizontal,"(890.0, 262.0)",0.9,0.596,1,2905.067,3,0.0,other
0,226,valid,"[(1169, 792)]",[],[1],[0.5666666666666667],vertical,"(890.0, 262.0)",0.6666666666666666,0.523,1,2910.496,3,0.0,same
0,227,valid,"[(1164, 816)]",[],[1],[0.6166666666666667],horizontal,"(890.0, 262.0)",0.43333333333333335,0.564,1,2916.35,3,0.0,same
0,228,valid,"[(1180, 796)]",[],[1],[0.85],vertical,"(390.0, 262.0)",0.95,nan,0,2921.58,0,0.0,same
0,229,valid,"[(1148, 779)]",[],[1],[0.6333333333333333],vertical,"(390.0, 762.0)",1.1166666666666667,0.593,1,2926.184,1,0.0,same
0,230,valid,"[(1170, 800)]",[],[1],[0.5],horizontal,"(890.0, 262.0)",1.45,0.46,1,2931.844,1,0.0,same
0,231,valid,"[(1178, 791)]",[],[1],[0.48333333333333334],horizontal,"(390.0, 262.0)",1.35,0.442,1,2937.283,1,0.0,same
0,232,valid,"[(1157, 812)]",[],[1],[0.5833333333333334],vertical,"(390.0, 762.0)",0.4166666666666667,0.545,1,2943.001,2,0.0,same
0,233,catch,"[(1160, 772)]",[],[1],[],horizontal,"(890.0, 262.0)",1.7,nan,1,3287.585,2,0.0,same
0,234,catch,"[(1179, 802)]",[],[1],[],vertical,"(890.0, 762.0)",1.7,nan,1,3293.568,2,0.0,same
0,235,valid,"[(1165, 801)]",[],[1],[0.7666666666666666],horizontal,"(390.0, 762.0)",0.9833333333333333,0.724,1,3299.77,3,0.0,same
0,236,valid,"[(1197, 796)]",[],[1],[0.5],horizontal,"(390.0, 262.0)",0.9,0.459,1,3305.86,3,0.0,same
0,237,valid,"[(1175, 795)]",[],[1],[0.65],horizontal,"(390.0, 262.0)",1.35,0.607,1,3311.68,3,0.0,same
0,238,valid,"[(1167, 800)]",[],[1],[0.5333333333333333],horizontal,"(390.0, 762.0)",0.6166666666666667,0.491,1,3317.977,3,0.0,same
0,239,valid,"[(1174, 793)]",[],[1],[0.6333333333333333],vertical,"(390.0, 762.0)",1.45,0.588,1,3323.375,3,0.0,same
0,240,valid,"[(1166, 790)]",[],[1],[0.85],horizontal,"(390.0, 262.0)",1.4166666666666667,nan,0,3329.57,0,0.0,same
0,241,valid,"[(1078, 778)]",[],[1],[0.5],horizontal,"(890.0, 762.0)",1.05,0.462,1,3334.74,1,0.0,same
0,242,valid,"[(1180, 790)]",[],[1],[0.5833333333333334],horizontal,"(390.0, 762.0)",0.48333333333333334,0.542,1,3340.486,1,0.0,same
0,243,valid,"[(1170, 778)]",[],[1],[0.5666666666666667],vertical,"(890.0, 762.0)",1.4166666666666667,0.529,1,3345.586,1,0.0,same
0,244,valid,"[(1146, 774)]",[],[1],[0.55],horizontal,"(890.0, 762.0)",1.2,0.509,1,3351.386,2,0.0,same
0,245,valid,"[(1171, 791)]",[],[1],[0.5166666666666666],horizontal,"(890.0, 762.0)",0.45,0.475,1,3357.296,2,0.0,same
0,246,valid,"[(1165, 796)]",[],[1],[0.5166666666666666],horizontal,"(890.0, 262.0)",0.45,0.476,1,3362.384,2,0.0,same
0,247,valid,"[(1165, 772)]","[(1163, 825)]",[1],[0.25],vertical,"(390.0, 262.0)",,"('bar', 0.267)",0,3367.318,0,0.0,same
0,248,valid,"[(1136, 821)]",[],[1],[0.43333333333333335],vertical,"(890.0, 262.0)",1.45,0.399,1,3369.92,1,0.0,same
0,249,catch,"[(1177, 774)]",[],[1],[],horizontal,"(890.0, 262.0)",1.7,nan,1,3375.519,1,0.0,same
0,250,valid,"[(1166, 816)]",[],[1],[0.5833333333333334],vertical,"(390.0, 762.0)",1.4833333333333334,0.538,1,3381.024,1,0.0,same
0,251,valid,"[(1170, 788)]",[],[1],[0.48333333333333334],horizontal,"(890.0, 262.0)",1.1166666666666667,0.444,1,3386.652,2,0.0,same
0,252,valid,"[(1200, 795)]",[],[1],[0.6166666666666667],horizontal,"(890.0, 762.0)",1.0166666666666666,0.575,1,3391.936,2,0.0,same
0,253,valid,"[(1175, 821)]",[],[1],[0.48333333333333334],vertical,"(890.0, 262.0)",1.2833333333333332,0.446,1,3397.27,2,0.0,same
0,254,valid,"[(1170, 795)]",[],[1],[0.48333333333333334],vertical,"(390.0, 262.0)",0.5666666666666667,0.44,1,3403.018,3,0.0,same
0,255,invalid_same_bar,"[(1137, 786)]",[],[1],[0.7833333333333333],horizontal,"(390.0, 262.0)",0.95,0.741,1,3408.244,3,0.0,same
0,256,invalid_same_bar,"[(1193, 786)]",[],[1],[0.5666666666666667],vertical,"(390.0, 762.0)",0.3833333333333333,0.527,1,3414.043,3,0.0,same
0,257,valid,"[(1178, 794)]",[],[1],[0.7],vertical,"(390.0, 762.0)",0.5166666666666666,0.659,1,3419.328,3,0.0,same
0,258,valid,"[(1166, 788)]",[],[1],[0.5666666666666667],vertical,"(390.0, 762.0)",1.4166666666666667,0.524,1,3425.158,3,0.0,same
0,259,valid,"[(1180, 792)]",[],[1],[0.55],horizontal,"(890.0, 762.0)",0.7,0.511,1,3431.702,3,0.0,same
0,260,valid,"[(1164, 821)]",[],[1],[0.6333333333333333],horizontal,"(890.0, 762.0)",1.5333333333333332,0.587,1,3437.555,3,0.0,same
0,261,valid,"[(1100, 808)]",[],[1],[0.48333333333333334],vertical,"(390.0, 262.0)",0.7666666666666666,0.444,1,3443.984,3,0.0,same
0,262,valid,"[(1180, 798)]",[],[1],[0.5666666666666667],horizontal,"(390.0, 262.0)",0.35,0.529,1,3449.35,3,0.0,same
0,263,valid,"[(1165, 803)]",[],[1],[0.85],vertical,"(390.0, 762.0)",0.6666666666666666,nan,0,3454.435,0,0.0,same
0,264,valid,"[(1132, 813)]",[],[1],[0.65],horizontal,"(890.0, 262.0)",1.1666666666666667,0.606,1,3458.911,1,0.0,same
0,265,valid,"[(1165, 791)]",[],[1],[0.85],horizontal,"(390.0, 762.0)",0.8833333333333333,nan,0,3465.786,0,0.0,same
0,266,valid,"[(1137, 784)]",[],[1],[0.5333333333333333],vertical,"(890.0, 262.0)",0.85,0.494,1,3470.552,1,0.0,same
0,267,catch,"[(1153, 786)]",[],[1],[],horizontal,"(390.0, 262.0)",1.7,nan,1,3475.236,1,0.0,same
0,268,valid,"[(1170, 763)]",[],[1],[0.5666666666666667],vertical,"(890.0, 262.0)",0.35,0.529,1,3480.568,1,0.0,same
0,269,catch,"[(1204, 780)]",[],[1],[],vertical,"(390.0, 762.0)",1.7,nan,1,3484.753,2,0.0,same
0,270,valid,"[(1175, 782)]",[],[1],[0.85],vertical,"(390.0, 262.0)",0.48333333333333334,nan,0,3490.586,0,0.0,same
0,271,valid,"[(1176, 790)]",[],[1],[0.6166666666666667],horizontal,"(390.0, 762.0)",0.45,0.575,1,3495.241,1,0.0,same
0,272,catch,"[(1174, 777)]",[],[1],[],vertical,"(390.0, 262.0)",1.7,nan,1,3500.154,1,0.0,same
0,273,catch,"[(1180, 783)]",[],[1],[],horizontal,"(390.0, 762.0)",1.7,nan,1,3505.42,1,0.0,same
0,274,valid,"[(1177, 776)]",[],[1],[0.5333333333333333],vertical,"(390.0, 762.0)",0.85,0.492,1,3510.919,2,0.0,same
0,275,catch,"[(1170, 782)]",[],[1],[],horizontal,"(390.0, 762.0)",1.7,nan,1,3516.57,2,0.0,same
0,276,valid,"[(1179, 798)]",[],[1],[0.55],vertical,"(390.0, 262.0)",0.85,0.505,1,3522.397,2,0.0,same
0,277,valid,"[(1181, 777)]",[],[1],[0.55],horizontal,"(390.0, 262.0)",0.8666666666666667,0.512,1,3527.623,3,0.0,same
0,278,catch,"[(1174, 793)]",[],[1],[],vertical,"(890.0, 262.0)",1.7,nan,1,3533.537,3,0.0,same
0,279,valid,"[(1182, 792)]",[],[1],[0.36666666666666664],horizontal,"(890.0, 762.0)",1.4333333333333333,0.329,1,3539.487,3,0.0,same
0,280,valid,"[(1180, 791)]",[],[1],[0.6],vertical,"(390.0, 762.0)",0.6333333333333333,0.562,1,3545.889,3,0.0,same
0,281,valid,"[(1170, 804)]",[],[1],[0.85],vertical,"(890.0, 762.0)",0.6,nan,0,3551.77,0,0.0,same
0,282,catch,"[(1168, 790)]",[],[1],[],horizontal,"(890.0, 762.0)",1.7,nan,1,3556.305,1,0.0,same
0,283,valid,"[(1169, 784)]",[],[1],[0.6666666666666666],vertical,"(390.0, 262.0)",1.4166666666666667,0.618,1,3561.37,1,0.0,same
0,284,valid,"[(1180, 772)]",[],[1],[],horizontal,"(890.0, 262.0)",,"('fix', 0.548)",0,3566.764,0,0.0,same
0,285,catch,"[(1135, 791)]",[],[1],[],horizontal,"(890.0, 262.0)",,"('cti', 1.379),nan",0,3568.889,0,0.02,same
0,286,invalid_same_bar,"[(1168, 806)]",[],[1],[0.6],vertical,"(890.0, 262.0)",1.35,0.567,1,3573.576,1,0.02,same
0,287,valid,"[(1178, 785)]",[],[1],[0.7333333333333333],horizontal,"(390.0, 762.0)",1.3666666666666667,0.694,1,3579.241,1,0.02,same
0,288,catch,"[(1180, 794)]",[],[1],[],horizontal,"(890.0, 762.0)",1.7,nan,1,3585.086,1,0.02,same
0,289,valid,"[(1165, 811)]",[],[1],[0.45],horizontal,"(890.0, 762.0)",0.7,0.414,1,3590.328,2,0.02,same
0,290,valid,"[(1167, 799)]",[],[1],[0.7],horizontal,"(390.0, 262.0)",1.1666666666666667,0.65,1,3595.537,2,0.02,same
0,291,valid,"[(1165, 806)]",[],[1],[0.85],horizontal,"(390.0, 262.0)",1.15,nan,0,3601.238,0,0.02,same
0,292,catch,"[(1152, 796)]",[],[1],[],vertical,"(390.0, 762.0)",1.7,nan,1,3606.186,1,0.02,same
0,293,valid,"[(1198, 787)]",[],[1],[0.5833333333333334],vertical,"(890.0, 262.0)",0.9,0.541,1,3611.441,1,0.02,same
0,294,valid,"[(1170, 792)]",[],[1],[0.65],horizontal,"(390.0, 262.0)",1.0666666666666667,0.607,1,3616.011,1,0.02,same
0,295,invalid_adjacent_other_bar,"[(1180, 785)]",[],[1],[0.85],horizontal,"(390.0, 262.0)",0.6333333333333333,nan,0,3621.086,0,0.02,other
0,296,valid,"[(1130, 798)]",[],[1],[0.6166666666666667],vertical,"(390.0, 262.0)",1.4333333333333333,0.577,1,3625.521,1,0.02,same
0,297,valid,"[(1180, 792)]",[],[1],[0.5666666666666667],horizontal,"(890.0, 262.0)",0.48333333333333334,0.527,1,3631.136,1,0.02,same
0,298,catch,"[(1181, 781)]",[],[1],[],horizontal,"(390.0, 262.0)",1.7,nan,1,3635.303,1,0.02,same
0,299,valid,"[(1163, 795)]",[],[1],[0.55],vertical,"(890.0, 262.0)",1.3166666666666667,0.508,1,3640.303,2,0.02,same
0,300,valid,"[(1163, 823)]",[],[1],[0.48333333333333334],vertical,"(890.0, 262.0)",1.3,0.445,1,3646.405,2,0.02,same
0,301,valid,"[(1180, 782)]",[],[1],[0.6333333333333333],horizontal,"(890.0, 262.0)",0.4166666666666667,0.593,1,3652.287,2,0.02,same
0,302,catch,"[(1180, 821)]",[],[1],[],horizontal,"(890.0, 262.0)",1.7,nan,1,3657.058,3,0.02,same
0,303,catch,"[(1173, 789)]",[],[1],[],vertical,"(890.0, 262.0)",1.7,nan,1,3663.061,3,0.02,same
0,304,valid,"[(1175, 777)]",[],[1],[0.5666666666666667],vertical,"(390.0, 262.0)",0.7,0.526,1,3669.09,3,0.02,same
0,305,valid,"[(1180, 774)]",[],[1],[0.55],vertical,"(390.0, 762.0)",0.5833333333333334,0.509,1,3674.703,3,0.02,same
0,306,valid,"[(1181, 777)]","[(1120, 858)]",[1],[0.21666666666666667],horizontal,"(890.0, 262.0)",,"('bar', 0.226)",0,3679.737,0,0.02,same
0,307,valid,"[(1148, 777)]",[],[1],[0.5333333333333333],horizontal,"(390.0, 262.0)",0.95,0.49,1,3682.203,1,0.02,same
0,308,invalid_adjacent_other_bar,"[(1167, 772)]",[],[1],[0.4166666666666667],vertical,"(890.0, 262.0)",1.3333333333333333,0.383,1,3687.584,1,0.02,other
0,309,catch,"[(1192, 774)]",[],[1],[],horizontal,"(890.0, 262.0)",1.7,nan,1,3693.32,1,0.02,same
0,310,valid,"[(1194, 786)]",[],[1],[0.5333333333333333],vertical,"(390.0, 262.0)",0.8,0.507,1,3698.341,2,0.02,same
0,311,valid,"[(1179, 796)]",[],[1],[0.5],vertical,"(890.0, 762.0)",0.5,0.456,1,3703.823,2,0.02,same
0,312,valid,"[(1175, 791)]",[],[1],[0.7333333333333333],vertical,"(390.0, 762.0)",1.1666666666666667,0.685,1,3708.363,2,0.02,same
0,313,valid,"[(1184, 796)]",[],[1],[0.5833333333333334],vertical,"(390.0, 762.0)",0.7166666666666667,0.541,1,3714.361,3,0.02,same
0,314,valid,"[(1169, 786)]",[],[1],[0.75],vertical,"(390.0, 762.0)",1.3,0.704,1,3720.258,3,0.02,same
0,315,valid,"[(1175, 775)]",[],[1],[0.7333333333333333],horizontal,"(890.0, 762.0)",0.45,0.687,1,3726.437,3,0.02,same
0,316,valid,"[(1185, 794)]",[],[1],[0.6166666666666667],vertical,"(390.0, 762.0)",0.55,0.571,1,3731.967,3,0.02,same
0,317,invalid_adjacent_other_bar,"[(1164, 778)]",[],[1],[0.85],vertical,"(890.0, 762.0)",1.05,nan,0,3737.273,0,0.02,other
0,318,catch,"[(1132, 795)]",[],[1],[],vertical,"(890.0, 262.0)",1.7,nan,1,3742.203,1,0.02,same
0,319,valid,"[(1202, 797)]",[],[1],[0.48333333333333334],vertical,"(390.0, 262.0)",1.5333333333333332,0.445,1,3756.738,1,0.02,same
0,320,valid,"[(1179, 823)]",[],[1],[0.85],vertical,"(390.0, 262.0)",0.9,nan,0,3762.065,0,0.02,same
0,321,catch,"[(1175, 805)]",[],[1],[],horizontal,"(390.0, 762.0)",,"('cti', 1.615),nan",0,3767.054,0,0.04,same
0,322,valid,"[(1143, 806)]",[],[1],[0.65],vertical,"(390.0, 262.0)",1.1833333333333333,0.607,1,3772.304,1,0.04,same
0,323,valid,"[(1200, 786)]",[],[1],[0.6166666666666667],horizontal,"(890.0, 762.0)",1.5,0.573,1,3778.272,1,0.04,same
0,324,valid,"[(1170, 798)]",[],[1],[0.85],horizontal,"(890.0, 762.0)",0.5,nan,0,3783.457,0,0.04,same
0,325,catch,"[(1165, 791)]",[],[1],[],vertical,"(890.0, 262.0)",1.7,nan,1,3787.954,1,0.04,same
0,326,valid,"[(1174, 821)]",[],[1],[0.55],horizontal,"(890.0, 262.0)",1.4333333333333333,0.507,1,3793.784,1,0.04,same
0,327,valid,"[(1165, 810)]",[],[1],[0.5166666666666666],vertical,"(390.0, 762.0)",1.1666666666666667,0.474,1,3799.504,1,0.04,same
0,328,valid,"[(1158, 805)]",[],[1],[0.5166666666666666],horizontal,"(890.0, 262.0)",0.5666666666666667,0.475,1,3804.817,2,0.04,same
0,329,valid,"[(1175, 803)]",[],[1],[0.5333333333333333],vertical,"(390.0, 262.0)",0.65,0.492,1,3818.011,2,0.04,same
0,330,catch,"[(1175, 791)]",[],[1],[],horizontal,"(390.0, 762.0)",1.7,nan,1,3822.789,2,0.04,same
0,331,valid,"[(1173, 788)]",[],[1],[0.4666666666666667],vertical,"(890.0, 262.0)",1.4833333333333334,0.431,1,3828.67,3,0.04,same
0,332,valid,"[(1175, 795)]",[],[1],[0.5],horizontal,"(390.0, 262.0)",0.7833333333333333,0.465,1,3834.886,3,0.04,same
0,333,valid,"[(1178, 782)]",[],[1],[0.5666666666666667],horizontal,"(390.0, 762.0)",0.65,0.525,1,3840.621,3,0.04,same
0,334,valid,"[(1175, 794)]",[],[1],[0.5666666666666667],horizontal,"(890.0, 262.0)",1.5166666666666666,0.525,1,3846.294,3,0.04,same
0,335,valid,"[(1176, 789)]",[],[1],[0.65],horizontal,"(390.0, 262.0)",0.35,0.6,1,3852.522,3,0.02,same
0,336,catch,"[(1179, 791)]",[],[1],[],vertical,"(390.0, 762.0)",1.7,nan,1,3857.297,3,0.02,same
0,337,catch,"[(1178, 795)]",[],[1],[],horizontal,"(890.0, 262.0)",1.7,nan,1,3862.981,3,0.02,same
0,338,invalid_adjacent_other_bar,"[(1168, 789)]",[],[1],[0.6],vertical,"(390.0, 762.0)",0.6833333333333333,0.561,1,3869.055,3,0.02,other
0,339,valid,"[(1176, 817)]",[],[1],[0.5],horizontal,"(890.0, 762.0)",1.5333333333333332,0.456,1,3874.897,3,0.02,same
0,340,valid,"[(1173, 787)]",[],[1],[0.6333333333333333],vertical,"(390.0, 262.0)",1.2,0.586,1,3881.259,3,0.02,same
0,341,valid,"[(1175, 789)]",[],[1],[0.85],horizontal,"(390.0, 262.0)",1.05,nan,0,3887.52,0,0.02,same
0,342,valid,"[(1165, 786)]",[],[1],[0.5666666666666667],horizontal,"(390.0, 262.0)",1.4166666666666667,0.527,1,3892.557,1,0.02,same
0,343,valid,"[(1179, 770)]",[],[1],[0.5666666666666667],horizontal,"(390.0, 262.0)",0.6666666666666666,0.526,1,3898.054,1,0.02,same
0,344,valid,"[(1170, 796)]",[],[1],[0.85],horizontal,"(390.0, 762.0)",0.45,nan,0,3902.93,0,0.02,same
0,345,catch,"[(1155, 791)]",[],[1],[],horizontal,"(390.0, 262.0)",1.7,nan,1,3907.209,1,0.02,same
0,346,invalid_adjacent_other_bar,"[(1174, 786)]",[],[1],[0.7333333333333333],horizontal,"(890.0, 262.0)",1.3166666666666667,0.684,1,3912.576,1,0.02,other
0,347,valid,"[(1160, 796)]",[],[1],[0.85],vertical,"(890.0, 762.0)",1.0166666666666666,nan,0,3917.888,0,0.02,same
0,348,valid,"[(1135, 796)]",[],[1],[0.4666666666666667],horizontal,"(890.0, 262.0)",1.1666666666666667,0.425,1,3922.689,1,0.02,same
0,349,catch,"[(1165, 785)]",[],[1],[],horizontal,"(390.0, 262.0)",1.7,nan,1,3930.461,1,0.02,same
0,350,valid,"[(1164, 769)]",[],[1],[0.5833333333333334],horizontal,"(890.0, 762.0)",1.4166666666666667,0.551,1,3935.998,1,0.02,same
0,351,catch,"[(1179, 773)]","[(1162, 849)]",[1],[0.1],vertical,"(390.0, 262.0)",,"('bar', 0.117),nan",0,3941.844,0,0.04,same
0,352,valid,"[(1149, 815)]",[],[1],[0.5166666666666666],horizontal,"(890.0, 762.0)",0.7333333333333333,0.468,1,3944.172,1,0.04,same
0,353,valid,"[(1175, 795)]",[],[1],[0.55],horizontal,"(890.0, 262.0)",0.4666666666666667,0.505,1,3948.846,1,0.04,same
0,354,valid,"[(1175, 774)]",[],[1],[0.5166666666666666],horizontal,"(390.0, 762.0)",0.6166666666666667,0.474,1,3953.622,1,0.04,same
0,355,valid,"[(1183, 777)]",[],[1],[0.6],vertical,"(890.0, 762.0)",1.0,0.557,1,3958.077,2,0.04,same
0,356,valid,"[(1195, 787)]",[],[1],[0.65],vertical,"(390.0, 762.0)",1.3166666666666667,0.609,1,3963.616,2,0.04,same
0,357,catch,"[(1179, 803)]",[],[1],[],horizontal,"(890.0, 762.0)",1.7,nan,1,3969.575,2,0.04,same
0,358,valid,"[(1185, 794)]",[],[1],[0.5166666666666666],vertical,"(890.0, 762.0)",1.4166666666666667,0.476,1,3975.586,3,0.04,same
0,359,valid,"[(1200, 790)]",[],[1],[0.48333333333333334],vertical,"(390.0, 262.0)",0.8666666666666667,0.441,1,3981.952,3,0.04,same
0,360,catch,"[(1171, 783)]",[],[1],[],vertical,"(890.0, 762.0)",1.7,nan,1,3987.201,3,0.04,same
0,361,catch,"[(1164, 779)]",[],[1],[],horizontal,"(390.0, 762.0)",1.7,nan,1,3992.901,3,0.04,same
0,362,invalid_same_bar,"[(1181, 782)]",[],[1],[0.6666666666666666],horizontal,"(390.0, 762.0)",1.1166666666666667,0.63,1,3998.954,3,0.04,same
0,363,valid,"[(1180, 786)]",[],[1],[0.5166666666666666],horizontal,"(390.0, 262.0)",0.5166666666666666,0.471,1,4005.038,3,0.04,same
0,364,valid,"[(1175, 773)]",[],[1],[0.6333333333333333],horizontal,"(390.0, 262.0)",1.0166666666666666,0.587,1,4010.755,3,0.04,same
0,365,valid,"[(1177, 793)]",[],[1],[0.5333333333333333],horizontal,"(390.0, 262.0)",1.3,0.491,1,4016.893,3,0.04,same
0,366,catch,"[(1181, 782)]",[],[1],[],vertical,"(390.0, 262.0)",1.7,nan,1,4022.937,3,0.04,same
0,367,valid,"[(1180, 766)]",[],[1],[0.6],horizontal,"(390.0, 262.0)",0.45,0.551,1,4029.022,3,0.04,same
0,368,valid,"[(1180, 770)]",[],[1],[0.55],horizontal,"(390.0, 262.0)",0.8333333333333334,0.505,1,4034.133,3,0.04,same
0,369,valid,"[(1180, 792)]",[],[1],[0.5833333333333334],vertical,"(890.0, 262.0)",1.3,0.539,1,4039.685,3,0.04,same
0,370,valid,"[(1172, 792)]",[],[1],[0.6333333333333333],horizontal,"(390.0, 762.0)",1.0166666666666666,0.59,1,4045.721,3,0.04,same
0,371,valid,"[(1185, 814)]",[],[1],[0.5333333333333333],vertical,"(390.0, 262.0)",1.1833333333333333,0.494,1,4051.959,3,0.02,same
0,372,catch,"[(1161, 803)]",[],[1],[],horizontal,"(390.0, 762.0)",1.7,nan,1,4058.099,3,0.02,same
0,373,valid,"[(1165, 774)]",[],[1],[0.5166666666666666],horizontal,"(390.0, 262.0)",0.85,0.47,1,4063.988,3,0.02,same
0,374,catch,"[(1180, 777)]",[],[1],[],vertical,"(390.0, 262.0)",1.7,nan,1,4069.411,3,0.02,same
0,375,valid,"[(1181, 786)]",[],[1],[0.55],horizontal,"(890.0, 762.0)",0.9333333333333333,0.507,1,4075.288,3,0.02,same
0,376,valid,"[(1181, 783)]",[],[1],[0.5333333333333333],vertical,"(890.0, 762.0)",1.0333333333333332,0.494,1,4080.972,3,0.02,same
0,377,valid,"[(1193, 789)]",[],[1],[0.6166666666666667],horizontal,"(390.0, 262.0)",1.15,0.577,1,4086.697,3,0.02,same
0,378,valid,"[(1175, 769)]",[],[1],[0.5],vertical,"(390.0, 262.0)",1.15,0.458,1,4092.901,3,0.02,same
0,379,valid,"[(1177, 793)]",[],[1],[0.6333333333333333],horizontal,"(390.0, 262.0)",1.25,0.595,1,4098.39,3,0.02,same
0,380,catch,"[(1161, 782)]",[],[1],[],horizontal,"(890.0, 762.0)",1.7,nan,1,4104.602,3,0.02,same
0,381,catch,"[(1181, 773)]",[],[1],[],horizontal,"(390.0, 262.0)",1.7,nan,1,4110.255,3,0.02,same
0,382,valid,"[(1160, 779)]",[],[1],[0.65],horizontal,"(890.0, 762.0)",0.8666666666666667,0.604,1,4116.283,3,0.02,same
0,383,valid,"[(1170, 768)]",[],[1],[0.5],vertical,"(890.0, 262.0)",0.6833333333333333,0.456,1,4121.822,3,0.02,same
0,384,valid,"[(1179, 787)]",[],[1],[0.5666666666666667],horizontal,"(890.0, 762.0)",0.55,0.524,1,4127.04,3,0.02,same
0,385,valid,"[(1160, 782)]",[],[1],[0.55],vertical,"(390.0, 262.0)",1.0666666666666667,0.509,1,4132.164,3,0.02,same
0,386,valid,"[(1180, 790)]",[],[1],[0.5],vertical,"(890.0, 762.0)",0.4,0.459,1,4138.137,3,0.02,same
0,387,valid,"[(1171, 839)]",[],[1],[0.5166666666666666],horizontal,"(390.0, 262.0)",0.95,0.477,1,4143.694,3,0.02,same
0,388,catch,"[(1165, 791)]",[],[1],[],horizontal,"(890.0, 262.0)",1.7,nan,1,4149.587,3,0.02,same
0,389,valid,"[(1165, 791)]",[],[1],[0.7166666666666667],horizontal,"(390.0, 262.0)",1.4,0.677,1,4155.314,3,0.02,same
0,390,valid,"[(1209, 781)]",[],[1],[0.45],horizontal,"(390.0, 262.0)",1.3833333333333333,0.412,1,4161.582,3,0.02,same
0,391,valid,"[(1165, 794)]",[],[1],[0.6333333333333333],horizontal,"(390.0, 262.0)",1.25,0.593,1,4167.906,3,0.02,same
0,392,valid,"[(1180, 771)]",[],[1],[0.75],vertical,"(390.0, 262.0)",1.0166666666666666,0.7,1,4173.947,3,0.02,same
0,393,valid,"[(1175, 778)]",[],[1],[0.65],horizontal,"(890.0, 762.0)",1.1333333333333333,0.607,1,4179.94,3,0.02,same
0,394,valid,"[(1174, 772)]",[],[1],[0.5666666666666667],horizontal,"(890.0, 262.0)",0.5,0.528,1,4185.611,3,0.02,same
0,395,catch,"[(1179, 811)]",[],[1],[],horizontal,"(890.0, 762.0)",1.7,nan,1,4191.078,3,0.02,same
0,396,valid,"[(1180, 789)]",[],[1],[0.5833333333333334],vertical,"(890.0, 762.0)",0.7833333333333333,0.539,1,4197.516,3,0.02,same
0,397,valid,"[(1167, 772)]",[],[1],[0.85],horizontal,"(390.0, 262.0)",0.7166666666666667,nan,0,4202.987,0,0.02,same
0,398,catch,"[(1165, 786)]",[],[1],[],vertical,"(390.0, 762.0)",1.7,nan,1,4207.425,1,0.02,same
0,399,valid,"[(1138, 831)]",[],[1],[0.36666666666666664],vertical,"(390.0, 262.0)",0.9333333333333333,0.332,1,4212.692,1,0.02,same
0,400,valid,"[(1170, 775)]",[],[1],[0.6333333333333333],vertical,"(890.0, 262.0)",1.05,0.586,1,4226.839,1,0.02,same
0,401,catch,"[(1122, 821)]",[],[1],[],vertical,"(390.0, 762.0)",1.7,nan,1,4231.924,2,0.0,same
0,402,valid,"[(1135, 806)]",[],[1],[0.6833333333333333],horizontal,"(390.0, 262.0)",1.5333333333333332,0.649,1,6871.767,2,0.0,same
0,403,valid,"[(1118, 778)]",[],[1],[0.6833333333333333],vertical,"(390.0, 762.0)",1.3666666666666667,0.64,1,6878.3,2,0.0,same
0,404,valid,"[(1165, 808)]",[],[1],[0.6],horizontal,"(390.0, 762.0)",0.8,0.552,1,6884.706,3,0.0,same
0,405,valid,"[(1165, 796)]",[],[1],[0.5666666666666667],vertical,"(890.0, 762.0)",1.2833333333333332,0.528,1,6890.686,3,0.0,same
0,406,valid,"[(1166, 793)]",[],[1],[],vertical,"(390.0, 262.0)",,"('cti', 1.224)",0,6896.593,0,0.0,same
0,407,valid,"[(1140, 819)]",[],[1],[0.6833333333333333],vertical,"(890.0, 262.0)",1.4166666666666667,0.64,1,6900.896,1,0.0,same
0,408,valid,"[(1175, 787)]",[],[1],[0.7833333333333333],vertical,"(890.0, 762.0)",1.2,0.734,1,6906.283,1,0.0,same
0,409,valid,"[(1168, 809)]",[],[1],[0.6833333333333333],horizontal,"(890.0, 762.0)",1.2833333333333332,0.638,1,6911.741,1,0.0,same
0,410,catch,"[(1162, 801)]",[],[1],[],horizontal,"(390.0, 262.0)",1.7,nan,1,6917.776,2,0.0,same
0,411,invalid_same_bar,"[(1169, 787)]","[(1125, 863)]",[1],[0.35],horizontal,"(390.0, 762.0)",,"('bar', 0.365)",0,6923.324,0,0.0,same
0,412,catch,"[(1115, 806)]",[],[1],[],vertical,"(890.0, 262.0)",1.7,nan,1,6926.152,1,0.0,same
0,413,valid,"[(1149, 787)]",[],[1],[0.65],vertical,"(390.0, 262.0)",0.65,0.607,1,6931.226,1,0.0,same
0,414,valid,"[(1161, 776)]",[],[1],[0.5833333333333334],vertical,"(390.0, 262.0)",0.35,0.543,1,6936.551,1,0.0,same
0,415,valid,"[(1162, 761)]",[],[1],[0.8333333333333334],vertical,"(890.0, 262.0)",0.4166666666666667,0.787,1,6941.036,2,0.0,same
0,416,valid,"[(1160, 776)]",[],[1],[0.6333333333333333],vertical,"(390.0, 762.0)",0.55,0.589,1,6946.616,2,0.0,same
0,417,valid,"[(1160, 796)]",[],[1],[],horizontal,"(890.0, 262.0)",,"('cti', 1.203)",0,6952.161,0,0.0,same
0,418,catch,"[(1146, 798)]",[],[1],[],horizontal,"(390.0, 262.0)",1.7,nan,1,6957.036,1,0.0,same
0,419,valid,"[(1155, 777)]",[],[1],[0.5666666666666667],horizontal,"(390.0, 762.0)",0.55,0.523,1,6962.908,1,0.0,same
0,420,valid,"[(1185, 776)]",[],[1],[0.48333333333333334],horizontal,"(890.0, 262.0)",1.4833333333333334,0.451,1,6967.839,1,0.0,same
0,421,catch,"[(1180, 782)]",[],[1],[],vertical,"(390.0, 262.0)",1.7,nan,1,6973.669,2,0.0,same
0,422,valid,"[(1170, 773)]",[],[1],[0.6833333333333333],horizontal,"(890.0, 262.0)",0.36666666666666664,0.65,1,6979.7,2,0.0,same
0,423,catch,"[(1166, 765)]",[],[1],[],horizontal,"(890.0, 762.0)",1.7,nan,1,6984.596,2,0.0,same
0,424,valid,"[(1133, 753), (1128, 815)]",[],"[0, 1]",[0.6166666666666667],horizontal,"(390.0, 762.0)",0.8666666666666667,0.571,1,6990.561,3,0.0,same
0,425,valid,"[(1165, 778)]",[],[1],[0.5666666666666667],vertical,"(890.0, 762.0)",1.5166666666666666,0.524,1,6998.833,3,0.0,same
0,426,valid,"[(1161, 782)]",[],[1],[0.5666666666666667],horizontal,"(390.0, 762.0)",1.45,0.527,1,7005.383,3,0.0,same
0,427,catch,"[(1167, 776)]",[],[1],[],horizontal,"(890.0, 262.0)",1.7,nan,1,7011.767,3,0.0,same
0,428,catch,"[(1163, 776)]",[],[1],[],horizontal,"(390.0, 762.0)",1.7,nan,1,7018.018,3,0.0,same
0,429,valid,"[(1162, 778)]",[],[1],[0.75],horizontal,"(390.0, 262.0)",0.8833333333333333,0.708,1,7024.783,3,0.0,same
0,430,valid,"[(1184, 791)]",[],[1],[0.85],horizontal,"(890.0, 762.0)",0.85,nan,0,7030.546,0,0.0,same
0,431,valid,"[(1135, 786)]",[],[1],[0.08333333333333333],horizontal,"(390.0, 262.0)",1.2333333333333334,0.05,0,7035.403,0,0.0,same
0,432,valid,"[(1160, 785)]",[],[1],[0.55],vertical,"(390.0, 762.0)",0.6166666666666667,0.508,1,7040.069,1,0.0,same
0,433,valid,"[(1178, 773)]",[],[1],[0.6666666666666666],horizontal,"(390.0, 762.0)",1.3666666666666667,0.625,1,7044.907,1,0.0,same
0,434,catch,"[(1179, 784)]",[],[1],[],vertical,"(890.0, 262.0)",1.7,nan,1,7050.105,1,0.0,same
0,435,valid,"[(1140, 797)]",[],[1],[0.6],vertical,"(390.0, 762.0)",1.1833333333333333,0.564,1,7055.403,2,0.0,same
0,436,valid,"[(1167, 778)]",[],[1],[0.6],horizontal,"(890.0, 762.0)",1.4,0.556,1,7061.049,2,0.0,same
0,437,valid,"[(1175, 776)]",[],[1],[0.5833333333333334],horizontal,"(890.0, 262.0)",0.5,0.543,1,7066.774,2,0.0,same
0,438,valid,"[(1167, 750), (1130, 812)]",[],"[0, 1]",[0.6166666666666667],vertical,"(890.0, 762.0)",0.36666666666666664,0.579,1,7071.52,3,0.0,same
0,439,valid,"[(1166, 795)]",[],[1],[0.8],vertical,"(390.0, 762.0)",0.5166666666666666,0.756,1,7078.838,3,0.0,same
0,440,catch,"[(1135, 788)]",[],[1],[],horizontal,"(390.0, 762.0)",1.7,nan,1,7084.438,3,0.0,same
0,441,valid,"[(1165, 782)]",[],[1],[0.6166666666666667],vertical,"(390.0, 262.0)",1.0,0.569,1,7090.444,3,0.0,same
0,442,invalid_same_bar,"[(1162, 797)]",[],[1],[0.85],horizontal,"(890.0, 262.0)",1.5166666666666666,nan,0,7096.502,0,0.0,same
0,443,valid,"[(1131, 803)]",[],[1],"[0.85, 0.85]",horizontal,"(890.0, 262.0)",0.8,"0.813,nan",0,7102.19,0,0.0,same
0,444,catch,"[(1133, 806)]",[],[1],[],horizontal,"(390.0, 762.0)",1.7,nan,1,7107.449,1,0.0,same
0,445,valid,"[(1164, 800)]",[],[1],[0.85],horizontal,"(890.0, 762.0)",1.45,nan,0,7112.273,0,0.0,same
0,446,valid,"[(1092, 821)]",[],[1],[0.7833333333333333],vertical,"(890.0, 762.0)",1.0333333333333332,0.752,1,7117.555,1,0.0,same
0,447,valid,"[(1172, 797)]",[],[1],[0.6],vertical,"(390.0, 262.0)",1.4,0.564,1,7123.25,1,0.0,same
0,448,invalid_adjacent_other_bar,"[(1180, 776)]",[],[1],[0.85],horizontal,"(890.0, 262.0)",0.4166666666666667,nan,0,7129.058,0,0.0,other
0,449,catch,"[(1137, 788)]",[],[1],[],vertical,"(890.0, 762.0)",1.7,nan,1,7133.784,1,0.0,same
0,450,valid,"[(1164, 783)]",[],[1],[0.85],horizontal,"(890.0, 762.0)",0.95,nan,0,7139.231,0,0.0,same
0,451,valid,"[(1145, 787)]",[],[1],[0.85],vertical,"(390.0, 762.0)",1.5,nan,0,7144.194,0,0.0,same
0,452,valid,"[(1139, 791)]",[],[1],[0.7],vertical,"(890.0, 762.0)",1.2166666666666666,0.656,1,7150.027,1,0.0,same
0,453,valid,"[(1163, 801)]",[],[1],[0.6166666666666667],horizontal,"(890.0, 762.0)",0.43333333333333335,0.576,1,7156.384,1,0.0,same
0,454,valid,"[(1167, 796)]",[],[1],[0.85],horizontal,"(890.0, 762.0)",1.2,nan,0,7161.183,0,0.0,same
0,455,invalid_adjacent_other_bar,"[(1134, 794)]",[],[1],[0.7],vertical,"(890.0, 262.0)",1.3,0.653,1,7166.14,1,0.0,other
0,456,valid,"[(1158, 839)]",[],[1],[0.6],horizontal,"(890.0, 262.0)",1.0333333333333332,0.557,1,7171.238,1,0.0,same
0,457,catch,"[(1133, 777)]",[],[1],[],vertical,"(390.0, 762.0)",1.7,nan,1,7177.05,1,0.0,same
0,458,valid,"[(1150, 798)]",[],[1],[0.7833333333333333],vertical,"(390.0, 262.0)",0.6,0.735,1,7182.053,2,0.0,same
0,459,valid,"[(1165, 793)]",[],[1],[0.8166666666666667],horizontal,"(390.0, 762.0)",1.3166666666666667,0.772,1,7187.75,2,0.0,same
0,460,valid,"[(1181, 761)]",[],[1],[0.5666666666666667],horizontal,"(890.0, 262.0)",0.6333333333333333,0.529,1,7194.094,2,0.0,same
0,461,valid,"[(1163, 776)]",[],[1],[0.6],horizontal,"(890.0, 762.0)",0.35,0.554,1,7199.568,3,0.0,same
0,462,valid,"[(1161, 774)]",[],[1],[0.8],vertical,"(390.0, 262.0)",0.5166666666666666,0.75,1,7204.995,3,0.0,same
0,463,catch,"[(1170, 806)]",[],[1],[],horizontal,"(390.0, 262.0)",1.7,nan,1,7210.502,3,0.0,same
0,464,catch,"[(1160, 750), (1120, 833)]",[],"[0, 1]",[],horizontal,"(890.0, 762.0)",1.7,nan,1,7216.32,3,0.0,same
0,465,valid,"[(1165, 791)]",[],[1],[0.5833333333333334],horizontal,"(390.0, 762.0)",1.5,0.544,1,7224.478,3,0.0,same
0,466,catch,"[(1166, 781)]",[],[1],[],vertical,"(890.0, 262.0)",1.7,nan,1,7231.002,3,0.0,same
0,467,catch,"[(1155, 769)]",[],[1],[],horizontal,"(390.0, 762.0)",1.7,nan,1,7236.661,3,0.0,same
0,468,catch,"[(1155, 791)]",[],[1],[],vertical,"(390.0, 262.0)",1.7,nan,1,7242.718,3,0.0,same
0,469,valid,"[(1157, 776)]",[],[1],[0.85],horizontal,"(390.0, 762.0)",1.4166666666666667,nan,0,7249.119,0,0.0,same
0,470,valid,"[(1138, 790)]",[],[1],[0.5833333333333334],vertical,"(390.0, 762.0)",0.4666666666666667,0.545,1,7254.288,1,0.0,same
0,471,valid,"[(1186, 803)]",[],[1],[0.6833333333333333],vertical,"(390.0, 262.0)",0.9666666666666667,0.644,1,7258.731,1,0.0,same
0,472,valid,"[(1172, 781)]",[],[1],[0.6833333333333333],horizontal,"(390.0, 762.0)",1.0,0.638,1,7264.039,1,0.0,same
0,473,valid,"[(1160, 778)]",[],[1],[0.85],vertical,"(390.0, 762.0)",0.7833333333333333,nan,0,7269.218,0,0.0,same
0,474,valid,"[(1137, 821)]",[],[1],[0.85],vertical,"(890.0, 762.0)",0.55,nan,0,7273.952,0,0.0,same
0,475,catch,"[(1139, 803)]",[],[1],[],vertical,"(390.0, 262.0)",1.7,nan,1,7278.735,1,0.0,same
0,476,valid,"[(1145, 822)]",[],[1],[0.6],vertical,"(390.0, 762.0)",0.75,0.563,1,7284.668,1,0.0,same
0,477,valid,"[(1139, 798)]",[],[1],[0.7333333333333333],horizontal,"(890.0, 262.0)",0.8166666666666667,0.687,1,7316.407,1,0.0,same
0,478,valid,"[(1160, 807)]",[],[1],[0.7666666666666666],vertical,"(390.0, 762.0)",1.3,0.721,1,7321.528,2,0.0,same
0,479,valid,"[(1165, 792)]",[],[1],[0.75],vertical,"(390.0, 762.0)",0.8166666666666667,0.707,1,7327.818,2,0.0,same
0,480,valid,"[(1181, 776)]",[],[1],[0.5666666666666667],horizontal,"(390.0, 262.0)",0.7833333333333333,0.525,1,7333.631,2,0.0,same
0,481,catch,"[(1136, 754)]",[],[1],[],vertical,"(390.0, 762.0)",1.7,nan,1,7339.534,3,0.0,same
0,482,valid,"[(1165, 781)]",[],[1],[0.6666666666666666],vertical,"(890.0, 262.0)",0.4166666666666667,0.627,1,7346.064,3,0.0,same
0,483,catch,"[(1165, 776)]",[],[1],[],horizontal,"(890.0, 762.0)",1.7,nan,1,7351.588,3,0.0,same
0,484,valid,"[(1163, 786)]",[],[1],[0.85],horizontal,"(890.0, 762.0)",0.65,nan,0,7357.945,0,0.0,same
0,485,catch,"[(1147, 799)]",[],[1],[],vertical,"(890.0, 762.0)",1.7,nan,1,7362.634,1,0.0,same
0,486,valid,"[(1164, 765)]",[],[1],[0.85],vertical,"(390.0, 762.0)",1.2333333333333334,nan,0,7370.657,0,0.0,same
0,487,valid,"[(1131, 812)]",[],[1],[0.5666666666666667],vertical,"(390.0, 762.0)",0.7,0.529,1,7375.711,1,0.0,same
0,488,valid,"[(1160, 793)]",[],[1],[0.5666666666666667],horizontal,"(890.0, 762.0)",0.6666666666666666,0.523,1,7380.201,1,0.0,same
0,489,catch,"[(1169, 800)]",[],[1],[],vertical,"(390.0, 762.0)",1.7,nan,1,7385.245,1,0.0,same
0,490,valid,"[(1172, 774)]",[],[1],[0.85],vertical,"(890.0, 262.0)",0.6166666666666667,nan,0,7391.051,0,0.0,same
0,491,valid,"[(1142, 801)]",[],[1],[0.5833333333333334],horizontal,"(390.0, 262.0)",1.5333333333333332,0.541,1,7395.544,1,0.0,same
0,492,catch,"[(1169, 798)]",[],[1],[],vertical,"(390.0, 262.0)",1.7,nan,1,7401.405,1,0.0,same
0,493,valid,"[(1160, 776)]",[],[1],[0.5666666666666667],vertical,"(890.0, 762.0)",1.1,0.523,1,7406.638,1,0.0,same
0,494,catch,"[(1164, 794)]",[],[1],[],horizontal,"(890.0, 262.0)",1.7,nan,1,7411.82,2,0.0,same
0,495,valid,"[(1163, 777)]",[],[1],[0.6666666666666666],vertical,"(890.0, 262.0)",1.2,0.629,1,7417.352,2,0.0,same
0,496,catch,"[(1150, 802)]",[],[1],[],vertical,"(890.0, 762.0)",1.7,nan,1,7422.924,2,0.0,same
0,497,valid,"[(1161, 772)]",[],[1],[0.6],horizontal,"(390.0, 762.0)",0.43333333333333335,0.557,1,7428.537,3,0.0,same
0,498,valid,"[(1160, 794)]",[],[1],[0.6666666666666666],vertical,"(890.0, 762.0)",0.75,0.62,1,7434.285,3,0.0,same
0,499,valid,"[(1115, 791)]",[],[1],[0.65],vertical,"(390.0, 262.0)",0.9666666666666667,0.614,1,7440.025,3,0.0,same
0,500,valid,"[(1131, 777)]",[],[1],[0.6166666666666667],horizontal,"(390.0, 762.0)",0.36666666666666664,0.573,1,7445.753,3,0.0,same
0,501,catch,"[(1160, 819)]",[],[1],[],vertical,"(890.0, 262.0)",1.7,nan,1,7451.302,3,0.0,same
0,502,valid,"[(1167, 774)]",[],[1],[0.85],horizontal,"(390.0, 262.0)",1.1333333333333333,nan,0,7457.512,0,0.0,same
0,503,valid,"[(1140, 783)]",[],[1],[0.65],horizontal,"(390.0, 262.0)",1.05,0.604,1,7462.904,1,0.0,same
0,504,valid,"[(1165, 833)]",[],[1],[0.85],horizontal,"(890.0, 762.0)",0.5166666666666666,nan,0,7468.793,0,0.0,same
0,505,valid,"[(1134, 838)]",[],[1],[0.85],vertical,"(890.0, 762.0)",1.2666666666666666,nan,0,10054.725,0,0.0,same
0,506,catch,"[(1144, 796)]",[],[1],[],horizontal,"(390.0, 762.0)",1.7,nan,1,10061.362,1,0.0,same
0,507,valid,"[(1138, 817)]",[],[1],[0.85],vertical,"(390.0, 762.0)",1.2333333333333334,nan,0,10066.742,0,0.0,same
0,508,catch,"[(1121, 809)]",[],[1],[],horizontal,"(390.0, 762.0)",1.7,nan,1,10071.68,1,0.0,same
0,509,valid,"[(1161, 798)]",[],[1],[0.6333333333333333],horizontal,"(890.0, 262.0)",1.15,0.593,1,10076.764,1,0.0,same
0,510,valid,"[(1171, 803)]",[],[1],[0.5666666666666667],vertical,"(890.0, 762.0)",0.3833333333333333,0.523,1,10082.263,1,0.0,same
0,511,catch,"[(1164, 799)]",[],[1],[],horizontal,"(890.0, 762.0)",1.7,nan,1,10087.048,2,0.0,same
0,512,catch,"[(1172, 792)]",[],[1],[],vertical,"(890.0, 262.0)",1.7,nan,1,10093.195,2,0.0,same
0,513,catch,"[(1169, 796)]",[],[1],[],horizontal,"(390.0, 262.0)",1.7,nan,1,10099.056,2,0.0,same
0,514,catch,"[(1163, 791)]",[],[1],[],horizontal,"(890.0, 762.0)",1.7,nan,1,10104.795,3,0.0,same
0,515,catch,"[(1088, 830)]",[],[1],[],vertical,"(890.0, 262.0)",1.7,nan,1,10110.854,3,0.0,same
0,516,valid,"[(1165, 800)]",[],[1],[0.65],horizontal,"(890.0, 262.0)",1.3166666666666667,0.614,1,10117.639,3,0.0,same
0,517,catch,"[(1137, 790)]",[],[1],[],vertical,"(890.0, 762.0)",1.7,nan,1,10123.747,3,0.0,same
0,518,valid,"[(1165, 793)]",[],[1],[0.75],horizontal,"(890.0, 762.0)",1.05,0.704,1,10129.863,3,0.0,same
0,519,valid,"[(1172, 789)]",[],[1],[0.6],horizontal,"(890.0, 762.0)",1.5166666666666666,0.565,1,10136.146,3,0.0,same
0,520,catch,"[(1166, 795)]",[],[1],[],horizontal,"(890.0, 262.0)",1.7,nan,1,10142.262,3,0.0,same
0,521,catch,"[(1137, 784)]",[],[1],[],horizontal,"(890.0, 762.0)",1.7,nan,1,10148.721,3,0.0,same
0,522,valid,"[(1113, 815)]",[],[1],[0.85],horizontal,"(890.0, 262.0)",0.4666666666666667,nan,0,10154.868,0,0.0,same
0,523,valid,"[(1147, 801)]",[],[1],[0.85],vertical,"(890.0, 262.0)",1.3333333333333333,nan,0,10165.732,0,0.0,same
0,524,valid,"[(1148, 834)]",[],[1],[0.8333333333333334],horizontal,"(890.0, 762.0)",0.6,0.788,1,10170.731,1,0.0,same
0,525,valid,"[(1165, 794)]",[],[1],[0.5833333333333334],vertical,"(890.0, 762.0)",0.4166666666666667,0.542,1,10302.231,1,0.0,same
0,526,valid,"[(1159, 791)]",[],[1],[0.65],horizontal,"(890.0, 262.0)",1.1,0.61,1,10306.648,1,0.0,same
0,527,valid,"[(1162, 813)]",[],[1],[0.7833333333333333],horizontal,"(890.0, 762.0)",0.95,0.732,1,10311.981,2,0.0,same
0,528,valid,"[(1181, 791)]",[],[1],[0.5833333333333334],horizontal,"(890.0, 762.0)",1.3333333333333333,0.543,1,10317.966,2,0.0,same
0,529,catch,"[(1167, 812)]",[],[1],[],vertical,"(390.0, 262.0)",1.7,nan,1,10324.081,2,0.0,same
0,530,valid,"[(1166, 806)]",[],[1],[0.5833333333333334],vertical,"(890.0, 762.0)",0.9,0.542,1,10329.39,3,0.0,same
0,531,valid,"[(1162, 816)]",[],[1],[0.5333333333333333],vertical,"(890.0, 262.0)",1.15,0.494,1,10335.365,3,0.0,same
0,532,catch,"[(1176, 803)]",[],[1],[],vertical,"(890.0, 262.0)",1.7,nan,1,10341.697,3,0.0,same
0,533,valid,"[(1162, 797)]",[],[1],"[0.85, 0.85]",vertical,"(390.0, 262.0)",1.1166666666666667,"0.804,nan",0,10347.746,0,0.0,same
0,534,valid,"[(1160, 791)]",[],[1],[0.85],horizontal,"(390.0, 762.0)",0.9833333333333333,nan,0,10353.281,0,0.0,same
0,535,valid,"[(1125, 801)]",[],[1],[0.6833333333333333],vertical,"(890.0, 762.0)",0.9333333333333333,0.654,1,10358.031,1,0.0,same
0,536,valid,"[(1157, 775)]",[],[1],[0.6666666666666666],vertical,"(390.0, 262.0)",0.5666666666666667,0.621,1,10363.449,1,0.0,same
0,537,valid,"[(1157, 787)]",[],[1],[0.7333333333333333],vertical,"(390.0, 762.0)",0.55,0.694,1,10368.213,1,0.0,same
0,538,valid,"[(1178, 777)]",[],[1],[0.6],vertical,"(890.0, 262.0)",1.1,0.561,1,10372.914,2,0.0,same
0,539,catch,"[(1158, 801)]",[],[1],[],horizontal,"(890.0, 762.0)",1.7,nan,1,10378.474,2,0.0,same
0,540,invalid_adjacent_other_bar,"[(1158, 791)]",[],[1],[0.5833333333333334],vertical,"(390.0, 262.0)",1.3166666666666667,0.543,1,10383.837,2,0.0,other
0,541,catch,"[(1160, 806)]",[],[1],[],vertical,"(390.0, 262.0)",1.7,nan,1,10389.282,3,0.0,same
0,542,valid,"[(1160, 796)]",[],[1],[0.85],horizontal,"(390.0, 262.0)",1.0166666666666666,nan,0,10395.631,0,0.0,same
0,543,valid,"[(1140, 768)]",[],[1],[0.85],vertical,"(390.0, 262.0)",0.9166666666666666,nan,0,10400.382,0,0.0,same
0,544,valid,"[(1161, 802)]",[],[1],[0.85],vertical,"(390.0, 762.0)",0.7666666666666666,nan,0,10405.105,0,0.0,same
0,545,catch,"[(1135, 787)]",[],[1],[],vertical,"(390.0, 262.0)",1.7,nan,1,10410.098,1,0.0,same
0,546,valid,"[(1140, 786)]",[],[1],[0.65],vertical,"(890.0, 262.0)",1.0666666666666667,0.613,1,10416.114,1,0.0,same
0,547,valid,"[(1160, 796)]",[],[1],[0.85],horizontal,"(890.0, 762.0)",0.6,nan,0,10421.45,0,0.0,same
0,548,valid,"[(1136, 787)]",[],[1],[0.7],vertical,"(390.0, 262.0)",1.2,0.658,1,10425.898,1,0.0,same
0,549,valid,"[(1141, 816)]",[],[1],[0.5166666666666666],vertical,"(890.0, 262.0)",0.75,0.475,1,10431.781,1,0.0,same
0,550,valid,"[(1174, 792)]",[],[1],[0.8166666666666667],vertical,"(890.0, 762.0)",1.0,0.773,1,10446.831,1,0.0,same
0,551,valid,"[(1169, 804)]",[],[1],[0.7],vertical,"(890.0, 762.0)",0.5833333333333334,0.657,1,10452.052,2,0.0,same
0,552,valid,"[(1165, 766)]",[],[1],[0.85],vertical,"(390.0, 762.0)",1.25,nan,0,10457.481,0,0.0,same
0,553,valid,"[(1142, 806)]",[],[1],[0.75],horizontal,"(890.0, 762.0)",0.9333333333333333,0.704,1,10462.602,1,0.0,same
0,554,valid,"[(1170, 801)]",[],[1],[0.5333333333333333],vertical,"(890.0, 762.0)",0.6666666666666666,0.498,1,10467.681,1,0.0,same
0,555,catch,"[(1160, 769)]",[],[1],[],vertical,"(890.0, 762.0)",1.7,nan,1,10472.141,1,0.0,same
0,556,valid,"[(1175, 789)]",[],[1],[0.55],horizontal,"(890.0, 262.0)",0.8166666666666667,0.521,1,10477.631,2,0.0,same
0,557,valid,"[(1142, 799)]",[],[1],[0.7333333333333333],horizontal,"(890.0, 262.0)",1.4333333333333333,0.703,1,10483.552,2,0.0,same
0,558,valid,"[(1163, 789)]",[],[1],[0.5166666666666666],vertical,"(890.0, 762.0)",1.4666666666666666,0.478,1,10489.441,2,0.0,same
0,559,catch,"[(1135, 806)]",[],[1],[],horizontal,"(390.0, 262.0)",1.7,nan,1,10495.575,3,0.0,same
0,560,valid,"[(1162, 772)]",[],[1],[0.5166666666666666],vertical,"(890.0, 762.0)",0.6,0.482,1,10507.057,3,0.0,same
0,561,invalid_adjacent_other_bar,"[(1161, 801)]",[],[1],[0.6166666666666667],horizontal,"(390.0, 762.0)",0.7,0.578,1,10512.399,3,0.0,other
0,562,valid,"[(1160, 776)]",[],[1],[0.85],vertical,"(890.0, 262.0)",0.9666666666666667,nan,0,10518.098,0,0.0,same
0,563,valid,"[(1125, 787)]",[],[1],[0.6166666666666667],horizontal,"(390.0, 762.0)",0.6666666666666666,0.579,1,10522.738,1,0.0,same
0,564,valid,"[(1171, 773)]",[],[1],[0.5833333333333334],vertical,"(390.0, 262.0)",0.6666666666666666,0.541,1,10527.971,1,0.0,same
0,565,valid,"[(1162, 773)]",[],[1],[0.55],vertical,"(890.0, 262.0)",1.15,0.507,1,10532.966,1,0.0,same
0,566,catch,"[(1165, 773)]",[],[1],[],vertical,"(390.0, 262.0)",1.7,nan,1,10538.066,2,0.0,same
0,567,valid,"[(1167, 794)]",[],[1],[0.85],horizontal,"(890.0, 262.0)",0.6,nan,0,10543.473,0,0.0,same
0,568,valid,"[(1164, 821)]",[],[1],[0.6666666666666666],horizontal,"(390.0, 762.0)",0.6333333333333333,0.636,1,10547.571,1,0.0,same
0,569,invalid_same_bar,"[(1190, 812)]","[(1171, 833)]",[1],[0.26666666666666666],horizontal,"(890.0, 762.0)",,"('bar', 0.278)",0,10579.206,0,0.0,same
0,570,valid,"[(1132, 819)]",[],[1],[0.7],horizontal,"(890.0, 262.0)",0.6666666666666666,0.657,1,10581.773,1,0.0,same
0,571,catch,"[(1166, 801)]",[],[1],[],vertical,"(390.0, 262.0)",1.7,nan,1,10586.55,1,0.0,same
0,572,valid,"[(1175, 773)]",[],[1],[0.85],horizontal,"(890.0, 762.0)",0.7833333333333333,nan,0,10591.962,0,0.0,same
0,573,valid,"[(1158, 786)]",[],[1],[0.85],vertical,"(890.0, 762.0)",0.35,nan,0,10596.968,0,0.0,same
0,574,valid,"[(1169, 819)]",[],[1],[0.6666666666666666],horizontal,"(890.0, 762.0)",0.6,0.621,1,10601.531,1,0.0,same
0,575,valid,"[(1165, 775)]",[],[1],[0.7],horizontal,"(890.0, 762.0)",1.3166666666666667,0.653,1,10607.582,1,0.0,same
0,576,valid,"[(1136, 786)]",[],[1],[0.85],horizontal,"(890.0, 262.0)",0.7833333333333333,nan,0,10613.498,0,0.0,same
0,577,valid,"[(1135, 790)]",[],[1],[0.7333333333333333],vertical,"(890.0, 762.0)",1.45,0.686,1,10618.633,1,0.0,same
0,578,valid,"[(1165, 796)]",[],[1],[0.55],vertical,"(890.0, 262.0)",0.45,0.51,1,10624.487,1,0.0,same
0,579,invalid_same_bar,"[(1165, 805)]",[],[1],[0.7666666666666666],horizontal,"(390.0, 262.0)",1.3333333333333333,0.726,1,10628.968,1,0.0,same
0,580,catch,"[(1162, 821)]",[],[1],[],vertical,"(890.0, 262.0)",1.7,nan,1,10634.332,2,0.0,same
0,581,valid,"[(1177, 803)]","[(1175, 812)]",[1],[0.8166666666666667],horizontal,"(890.0, 762.0)",,"('bar', 0.82)",0,10640.215,0,0.0,same
0,582,valid,"[(1169, 802)]",[],[1],[0.48333333333333334],vertical,"(890.0, 262.0)",1.4166666666666667,0.449,1,10643.482,1,0.0,same
0,583,valid,"[(1179, 811)]",[],[1],[0.5833333333333334],horizontal,"(390.0, 762.0)",1.0833333333333333,0.545,1,10690.597,1,0.0,same
0,584,catch,"[(1164, 796)]",[],[1],[],vertical,"(390.0, 762.0)",1.7,nan,1,10695.849,1,0.0,same
0,585,valid,"[(1165, 796)]",[],[1],[0.3],vertical,"(890.0, 262.0)",1.5166666666666666,0.262,1,10701.282,2,0.0,same
0,586,valid,"[(1166, 792)]",[],[1],[0.5666666666666667],horizontal,"(890.0, 262.0)",1.4166666666666667,0.526,1,10707.697,2,0.0,same
0,587,valid,"[(1178, 794)]",[],[1],[0.5833333333333334],vertical,"(890.0, 762.0)",1.15,0.543,1,10713.849,2,0.0,same
0,588,invalid_same_bar,"[(1168, 792)]",[],[1],[0.4],vertical,"(390.0, 262.0)",1.5166666666666666,0.361,1,10719.476,3,0.0,same
0,589,valid,"[(1165, 802)]",[],[1],[0.85],horizontal,"(390.0, 262.0)",1.2333333333333334,nan,0,10726.133,0,0.0,same
0,590,valid,"[(1164, 816)]",[],[1],[0.55],horizontal,"(390.0, 762.0)",0.85,0.515,1,10731.225,1,0.0,same
0,591,catch,"[(1178, 803)]",[],[1],[],vertical,"(890.0, 262.0)",1.7,nan,1,10736.468,1,0.0,same
0,592,valid,"[(1165, 794)]",[],[1],[0.55],vertical,"(890.0, 762.0)",0.4666666666666667,0.507,1,10741.948,1,0.0,same
0,593,catch,"[(1175, 796)]",[],[1],[],vertical,"(890.0, 762.0)",1.7,nan,1,10746.69,2,0.0,same
0,594,valid,"[(1176, 801)]",[],[1],[0.5333333333333333],horizontal,"(890.0, 762.0)",1.0666666666666667,0.493,1,10752.686,2,0.0,same
0,595,valid,"[(1170, 789)]",[],[1],[0.5166666666666666],vertical,"(890.0, 262.0)",0.8,0.475,1,10758.053,2,0.0,same
0,596,valid,"[(1175, 788)]",[],[1],[0.85],vertical,"(890.0, 262.0)",0.8833333333333333,nan,0,10763.233,0,0.0,same
0,597,valid,"[(1141, 792)]",[],[1],[0.85],vertical,"(890.0, 262.0)",0.35,nan,0,10767.981,0,0.0,same
0,598,catch,"[(1160, 830)]",[],[1],[],vertical,"(890.0, 262.0)",1.7,nan,1,10772.375,1,0.0,same
0,599,valid,"[(1160, 787)]",[],[1],[0.5333333333333333],vertical,"(390.0, 762.0)",1.25,0.5,1,10778.456,1,0.0,same
0,600,valid,"[(1177, 799)]",[],[1],[0.5333333333333333],horizontal,"(390.0, 762.0)",1.05,0.491,1,10783.716,1,0.0,same
0,601,valid,"[(1176, 801)]",[],[1],[0.7833333333333333],horizontal,"(890.0, 262.0)",1.0666666666666667,0.733,1,10788.982,2,0.0,same
0,602,valid,"[(1175, 802)]",[],[1],[0.6333333333333333],vertical,"(890.0, 762.0)",0.8,0.587,1,10794.79,2,0.0,same
0,603,valid,"[(1161, 772)]",[],[1],[0.55],vertical,"(390.0, 262.0)",0.5166666666666666,0.512,1,10799.9,2,0.0,same
0,604,valid,"[(1179, 796)]",[],[1],[0.65],vertical,"(390.0, 262.0)",1.2666666666666666,0.614,1,10804.796,3,0.0,same
0,605,catch,"[(1165, 791)]",[],[1],[],vertical,"(890.0, 262.0)",1.7,nan,1,10811.289,3,0.0,same
0,606,invalid_adjacent_other_bar,"[(1164, 773)]",[],[1],[0.5666666666666667],vertical,"(390.0, 762.0)",1.0833333333333333,0.531,1,10817.689,3,0.0,other
0,607,valid,"[(1179, 795)]",[],[1],[0.6666666666666666],vertical,"(390.0, 762.0)",1.2,0.624,1,10823.282,3,0.0,same
0,608,invalid_adjacent_other_bar,"[(1165, 793)]",[],[1],[0.65],vertical,"(390.0, 762.0)",1.4,0.614,1,10829.84,3,0.0,other
0,609,valid,"[(1165, 800)]",[],[1],[0.85],vertical,"(890.0, 762.0)",0.5833333333333334,nan,0,10836.362,0,0.0,same
0,610,valid,"[(1137, 789)]",[],[1],[0.85],horizontal,"(390.0, 762.0)",1.1833333333333333,nan,0,10840.897,0,0.0,same
0,611,valid,"[(1131, 823)]",[],[1],[0.2833333333333333],vertical,"(890.0, 262.0)",1.3333333333333333,0.246,1,10846.193,1,0.0,same
0,612,valid,"[(1178, 798)]",[],[1],[0.7],horizontal,"(890.0, 762.0)",0.7833333333333333,0.659,1,10851.742,1,0.0,same
0,613,valid,"[(1165, 778)]",[],[1],[0.6166666666666667],vertical,"(890.0, 762.0)",1.35,0.57,1,10856.866,1,0.0,same
0,614,valid,"[(1180, 779)]",[],[1],[0.55],vertical,"(890.0, 262.0)",1.05,0.512,1,10862.729,2,0.0,same
0,615,catch,"[(1175, 794)]",[],[1],[],horizontal,"(390.0, 762.0)",1.7,nan,1,10868.225,2,0.0,same
0,616,valid,"[(1158, 792)]",[],[1],[0.7333333333333333],horizontal,"(390.0, 262.0)",0.6333333333333333,0.691,1,10873.563,2,0.0,same
0,617,catch,"[(1180, 803)]",[],[1],[],vertical,"(890.0, 262.0)",1.7,nan,1,10879.511,3,0.0,same
0,618,valid,"[(1160, 788)]",[],[1],[0.7],vertical,"(890.0, 262.0)",1.3666666666666667,0.655,1,10885.842,3,0.0,same
0,619,valid,"[(1163, 777)]",[],[1],[0.65],vertical,"(890.0, 262.0)",0.9,0.613,1,10892.39,3,0.0,same
0,620,catch,"[(1178, 792)]",[],[1],[],horizontal,"(890.0, 262.0)",1.7,nan,1,10897.908,3,0.0,same
0,621,catch,"[(1160, 777)]",[],[1],[],horizontal,"(890.0, 262.0)",1.7,nan,1,10903.83,3,0.0,same
0,622,catch,"[(1176, 795)]",[],[1],[],horizontal,"(390.0, 762.0)",1.7,nan,1,10910.196,3,0.0,same
0,623,valid,"[(1177, 804)]",[],[1],[0.6166666666666667],horizontal,"(390.0, 762.0)",0.6833333333333333,0.572,1,10916.223,3,0.0,same
0,624,catch,"[(1163, 791)]",[],[1],[],horizontal,"(390.0, 262.0)",1.7,nan,1,10921.517,3,0.0,same
0,625,catch,"[(1135, 781)]",[],[1],[],vertical,"(390.0, 262.0)",1.7,nan,1,10927.917,3,0.0,same
0,626,valid,"[(1162, 789)]",[],[1],[0.5666666666666667],horizontal,"(390.0, 762.0)",1.5166666666666666,0.515,1,10934.191,3,0.0,same
0,627,valid,"[(1165, 786)]",[],[1],[0.5833333333333334],horizontal,"(390.0, 262.0)",1.3333333333333333,0.537,1,10940.525,3,0.0,same
0,628,valid,"[(1160, 791)]",[],[1],[0.2833333333333333],vertical,"(390.0, 262.0)",1.3333333333333333,0.249,1,10946.816,3,0.0,same
0,629,valid,"[(1170, 799)]",[],[1],[0.5666666666666667],vertical,"(390.0, 762.0)",0.4,0.524,1,10952.8,3,0.0,same
0,630,valid,"[(1169, 794)]",[],[1],[0.5333333333333333],vertical,"(890.0, 262.0)",1.4333333333333333,0.5,1,10958.183,3,0.0,same
0,631,valid,"[(1171, 790)]",[],[1],[0.08333333333333333],horizontal,"(390.0, 262.0)",1.35,0.052,0,10964.316,0,0.0,same
0,632,valid,"[(1140, 795)]",[],[1],[],vertical,"(890.0, 262.0)",,"('cti', 1.047)",0,10969.054,0,0.0,same
0,633,valid,"[(1125, 812)]",[],[1],[0.7],horizontal,"(390.0, 262.0)",0.9666666666666667,0.653,1,10973.266,1,0.0,same
0,634,valid,"[(1160, 797)]",[],[1],[0.85],horizontal,"(390.0, 762.0)",0.6166666666666667,nan,0,11980.619,0,0.0,same
0,635,valid,"[(1160, 812)]",[],[1],[0.55],vertical,"(890.0, 762.0)",1.2833333333333332,0.513,1,11984.852,1,0.0,same
0,636,valid,"[(1164, 803)]",[],[1],[0.6],horizontal,"(890.0, 262.0)",1.4666666666666666,0.559,1,11990.041,1,0.0,same
0,637,catch,"[(1147, 795)]",[],[1],[],vertical,"(390.0, 262.0)",,"('cti', 1.649),nan",0,11995.743,0,0.02,same
0,638,valid,"[(1148, 781)]",[],[1],[0.75],vertical,"(390.0, 762.0)",1.0333333333333332,0.714,1,12000.488,1,0.02,same
0,639,valid,"[(1169, 806)]",[],[1],[0.6333333333333333],horizontal,"(390.0, 262.0)",1.3833333333333333,0.592,1,12005.591,1,0.02,same
0,640,invalid_adjacent_other_bar,"[(1165, 778)]",[],[1],[0.7666666666666666],horizontal,"(890.0, 762.0)",1.4166666666666667,0.723,1,12011.171,1,0.02,other
0,641,catch,"[(1167, 791)]",[],[1],[],horizontal,"(390.0, 762.0)",1.7,nan,1,12016.805,2,0.02,same
0,642,valid,"[(1137, 813)]",[],[1],[0.6],vertical,"(890.0, 762.0)",1.2833333333333332,0.565,1,12022.662,2,0.02,same
0,643,valid,"[(1165, 767)]",[],[1],[0.85],horizontal,"(890.0, 762.0)",0.3833333333333333,nan,0,12028.199,0,0.02,same
0,644,valid,"[(1140, 786)]",[],[1],[0.7],horizontal,"(390.0, 262.0)",1.1333333333333333,0.655,1,12032.621,1,0.02,same
0,645,valid,"[(1164, 778)]",[],[1],[0.85],horizontal,"(390.0, 762.0)",0.43333333333333335,nan,0,12037.978,0,0.02,same
0,646,invalid_adjacent_other_bar,"[(1135, 791)]",[],[1],[0.6],vertical,"(890.0, 762.0)",1.05,0.555,1,12041.966,1,0.02,other
0,647,valid,"[(1179, 775)]",[],[1],[0.5666666666666667],horizontal,"(890.0, 262.0)",0.6166666666666667,0.526,1,12046.937,1,0.02,same
0,648,valid,"[(1137, 798)]",[],[1],[0.6833333333333333],horizontal,"(390.0, 262.0)",0.9333333333333333,0.637,1,12051.336,1,0.02,same
0,649,catch,"[(1176, 777)]",[],[1],[],vertical,"(390.0, 262.0)",1.7,nan,1,12056.538,2,0.02,same
0,650,catch,"[(1159, 783)]",[],[1],[],vertical,"(890.0, 762.0)",1.7,nan,1,12062.207,2,0.02,same
0,651,catch,"[(1165, 791)]",[],[1],[],vertical,"(890.0, 262.0)",1.7,nan,1,12068.01,2,0.02,same
0,652,valid,"[(1162, 798)]",[],[1],[0.5666666666666667],vertical,"(390.0, 262.0)",0.4166666666666667,0.525,1,12073.439,3,0.02,same
0,653,catch,"[(1178, 787)]",[],[1],[],vertical,"(390.0, 262.0)",1.7,nan,1,12078.505,3,0.02,same
0,654,catch,"[(1162, 791)]",[],[1],[],vertical,"(390.0, 762.0)",1.7,nan,1,12084.749,3,0.02,same
0,655,valid,"[(1160, 786)]",[],[1],[0.5166666666666666],vertical,"(390.0, 762.0)",1.45,0.473,1,12090.821,3,0.02,same
0,656,invalid_same_bar,"[(1170, 801)]",[],[1],[],vertical,"(890.0, 762.0)",,"('cti', 1.093)",0,12096.831,0,0.02,same
0,657,valid,"[(1137, 784)]",[],[1],[0.6666666666666666],horizontal,"(890.0, 762.0)",0.55,0.622,1,12101.24,1,0.02,same
0,658,valid,"[(1180, 786)]",[],[1],[0.55],vertical,"(390.0, 762.0)",1.4166666666666667,0.512,1,12105.671,1,0.02,same
0,659,valid,"[(1132, 772)]",[],[1],[0.6666666666666666],horizontal,"(390.0, 262.0)",0.8166666666666667,0.622,1,12110.706,1,0.02,same
0,660,valid,"[(1173, 786)]",[],[1],[0.65],horizontal,"(890.0, 762.0)",0.9333333333333333,0.603,1,12115.868,2,0.02,same
0,661,catch,"[(1159, 778)]",[],[1],[],vertical,"(890.0, 762.0)",1.7,nan,1,12121.313,2,0.02,same
0,662,valid,"[(1171, 766)]",[],[1],[0.85],horizontal,"(390.0, 762.0)",1.0666666666666667,nan,0,12126.922,0,0.02,same
0,663,valid,"[(1163, 774)]",[],[1],[0.5333333333333333],vertical,"(390.0, 762.0)",0.8833333333333333,0.493,1,12132.235,1,0.02,same
0,664,valid,"[(1160, 812)]",[],[1],[0.5],vertical,"(890.0, 262.0)",0.75,0.456,1,12136.959,1,0.02,same
0,665,valid,"[(1175, 772)]",[],[1],[0.6833333333333333],horizontal,"(890.0, 262.0)",0.4166666666666667,0.637,1,12141.844,1,0.02,same
0,666,catch,"[(1185, 776)]",[],[1],[],horizontal,"(390.0, 262.0)",,"('cti', 1.65),nan",0,12146.113,0,0.04,same
0,667,valid,"[(1149, 813)]",[],[1],[0.5666666666666667],vertical,"(390.0, 262.0)",1.0333333333333332,0.526,1,12151.307,1,0.04,same
0,668,invalid_same_bar,"[(1132, 774)]",[],[1],[0.7833333333333333],horizontal,"(890.0, 762.0)",0.7833333333333333,0.73,1,12155.89,1,0.04,same
0,669,catch,"[(1170, 783)]",[],[1],[],vertical,"(390.0, 262.0)",1.7,nan,1,12160.831,1,0.04,same
0,670,catch,"[(1179, 786)]",[],[1],[],vertical,"(890.0, 762.0)",1.7,nan,1,12165.818,2,0.04,same
0,671,valid,"[(1182, 774)]",[],[1],[0.5833333333333334],vertical,"(390.0, 262.0)",1.3166666666666667,0.54,1,12171.865,2,0.04,same
0,672,valid,"[(1165, 773)]",[],[1],[0.6666666666666666],horizontal,"(390.0, 762.0)",1.2166666666666666,0.621,1,12177.79,2,0.04,same
0,673,catch,"[(1180, 794)]",[],[1],[],horizontal,"(390.0, 262.0)",1.7,nan,1,12183.351,3,0.04,same
0,674,valid,"[(1162, 776)]",[],[1],[0.6333333333333333],vertical,"(390.0, 262.0)",0.8166666666666667,0.586,1,12189.275,3,0.04,same
0,675,valid,"[(1163, 805)]",[],[1],[0.6333333333333333],vertical,"(890.0, 262.0)",0.5,0.588,1,12195.243,3,0.04,same
0,676,valid,"[(1170, 779)]",[],[1],[0.5666666666666667],vertical,"(890.0, 762.0)",0.3833333333333333,0.522,1,12201.004,3,0.04,same
0,677,catch,"[(1177, 786)]",[],[1],[],horizontal,"(390.0, 262.0)",1.7,nan,1,12206.429,3,0.04,same
0,678,catch,"[(1180, 795)]",[],[1],[],horizontal,"(390.0, 262.0)",1.7,nan,1,12212.572,3,0.04,same
0,679,catch,"[(1160, 787)]",[],[1],[],horizontal,"(890.0, 762.0)",1.7,nan,1,12218.135,3,0.04,same
0,680,catch,"[(1161, 793)]",[],[1],[],vertical,"(890.0, 262.0)",1.7,nan,1,12224.173,3,0.04,same
0,681,valid,"[(1176, 794)]",[],[1],[0.5333333333333333],horizontal,"(390.0, 262.0)",1.5333333333333332,0.486,1,12229.834,3,0.04,same
0,682,valid,"[(1167, 794)]",[],[1],[0.85],horizontal,"(390.0, 762.0)",1.1666666666666667,nan,0,12235.949,0,0.04,same
0,683,valid,"[(1161, 796)]",[],[1],[0.55],vertical,"(390.0, 262.0)",1.2833333333333332,0.511,1,12240.605,1,0.04,same
