block,practice,trial,taps_start_loc_during_fix,taps_end_loc_during_fix,taps_on_lever_during_fix,taps_on_lever_s_during_fix,bar_orientation,target_xy,cti,rt,acc,time
1,True,1,"[(1050, 837)]",[],[1],[0.3333333333333333],horizontal,"(890.0, 762.0)",1.55,0.296,1,0.562
1,True,2,"[(1047, 826)]",[],[1],[0.21666666666666667],horizontal,"(890.0, 262.0)",1.4166666666666667,0.189,1,6.127
1,True,3,"[(1047, 825)]",[],[1],[],vertical,"(390.0, 762.0)",,fix_phase,0,14.277
1,True,4,"[(1063, 828)]",[],[1],[0.45],horizontal,"(890.0, 262.0)",0.9666666666666667,0.412,1,26.913
1,False,1,"[(1064, 828)]",[],[1],[0.5166666666666666],vertical,"(890.0, 762.0)",0.5166666666666666,0.483,1,31.396
1,False,2,"[(1078, 893)]",[],[1],[0.4],vertical,"(890.0, 762.0)",1.3833333333333333,0.36,1,40.537
1,False,3,"[(1072, 893)]",[],[1],[0.45],vertical,"(390.0, 262.0)",1.4166666666666667,0.412,1,57.796
1,False,4,"[(1047, 902)]",[],[1],[0.5333333333333333],vertical,"(890.0, 762.0)",1.5,0.493,1,63.296
1,False,5,"[(1013, 885)]",[],[1],[0.5333333333333333],vertical,"(890.0, 262.0)",1.2833333333333332,0.5,1,161.946
1,False,6,"[(1048, 901)]",[],[1],[0.55],vertical,"(390.0, 262.0)",0.65,0.51,1,168.353
1,False,7,"[(1054, 907)]",[],[1],[0.6666666666666666],vertical,"(890.0, 762.0)",1.4833333333333334,0.628,1,172.349
1,False,8,"[(1072, 932)]",[],[1],[0.6666666666666666],horizontal,"(890.0, 762.0)",0.9,0.626,1,177.168
1,False,9,"[(1059, 900)]",[],[1],[0.65],vertical,"(390.0, 762.0)",1.15,0.607,1,181.685
1,False,10,"[(1070, 910)]",[],[1],[0.05],vertical,"(390.0, 262.0)",0.5666666666666667,0.019,1,186.387
1,False,11,"[(1051, 906)]",[],[1],[0.6],horizontal,"(890.0, 762.0)",1.45,0.559,1,190.266
1,False,12,"[(1066, 889)]",[],[1],[0.6],horizontal,"(390.0, 762.0)",1.25,0.559,1,195.225
1,False,13,"[(1041, 885)]",[],[1],[0.5833333333333334],vertical,"(890.0, 762.0)",0.5833333333333334,0.548,1,199.818
1,False,14,"[(1038, 888)]",[],[1],[0.16666666666666666],vertical,"(390.0, 262.0)",1.1,0.134,1,204.335
1,False,15,"[(1050, 895)]",[],[1],[0.5833333333333334],horizontal,"(390.0, 762.0)",1.4833333333333334,0.546,1,208.916
1,False,16,"[(1040, 884)]",[],[1],"[0.85, 0.85]",horizontal,"(890.0, 762.0)",1.4,"0.802,0.802",0,214.127
1,False,17,"[(1069, 880)]",[],[1],[0.6],vertical,"(890.0, 762.0)",1.4666666666666666,0.56,1,219.469
1,False,18,"[(1036, 884)]",[],[1],[0.6833333333333333],horizontal,"(890.0, 262.0)",1.0,0.644,1,224.549
1,False,19,"[(1038, 900)]",[],[1],[0.6],vertical,"(390.0, 762.0)",0.7833333333333333,0.562,1,229.418
1,False,20,"[(1038, 892)]",[],[1],[0.55],vertical,"(390.0, 262.0)",0.7333333333333333,0.52,1,233.809
1,False,21,"[(1053, 884)]",[],[1],[0.5166666666666666],vertical,"(390.0, 762.0)",1.55,0.491,1,238.447
1,False,22,"[(1052, 905)]",[],[1],[0.5666666666666667],horizontal,"(890.0, 262.0)",0.5666666666666667,0.541,1,243.527
1,False,23,"[(1076, 890)]",[],[1],[0.5333333333333333],vertical,"(890.0, 262.0)",0.6166666666666667,0.493,1,247.758
1,False,24,"[(1035, 874)]",[],[1],[0.6166666666666667],horizontal,"(390.0, 262.0)",0.8833333333333333,0.573,1,252.389
1,False,25,"[(1067, 890)]",[],[1],[0.6],vertical,"(390.0, 762.0)",1.0666666666666667,0.564,1,257.018
1,False,26,"[(1081, 914)]",[],[1],[0.5666666666666667],vertical,"(890.0, 262.0)",0.6666666666666666,0.543,1,261.806
1,False,27,"[(1038, 895)]",[],[1],[0.85],horizontal,"(890.0, 762.0)",1.3666666666666667,0.826,0,265.86
1,False,28,"[(1047, 877)]",[],[1],[0.4666666666666667],horizontal,"(890.0, 262.0)",0.8833333333333333,0.442,1,271.253
1,False,29,"[(1047, 901)]",[],[1],[0.5833333333333334],vertical,"(890.0, 762.0)",1.0833333333333333,0.549,1,276.263
1,False,30,"[(1073, 906)]",[],[1],[0.6166666666666667],vertical,"(890.0, 762.0)",1.3166666666666667,0.59,1,281.525
1,False,31,"[(1052, 899)]",[],[1],[0.5666666666666667],vertical,"(390.0, 762.0)",0.5666666666666667,0.529,1,286.193
1,False,32,"[(1036, 904)]",[],[1],[0.6],horizontal,"(890.0, 762.0)",0.9833333333333333,0.571,1,290.716
1,False,33,"[(1053, 908)]",[],[1],[0.6],vertical,"(390.0, 762.0)",0.8833333333333333,0.571,1,295.72
1,False,34,"[(1006, 876)]",[],[1],[0.6833333333333333],vertical,"(890.0, 762.0)",1.35,0.649,1,300.677
1,False,35,"[(1052, 898)]",[],[1],[0.85],vertical,"(890.0, 262.0)",1.0666666666666667,0.817,0,305.936
1,False,36,"[(1062, 880)]",[],[1],[0.55],horizontal,"(890.0, 762.0)",0.65,0.522,1,310.678
1,False,37,"[(1061, 902)]",[],[1],[0.6166666666666667],horizontal,"(890.0, 762.0)",0.5666666666666667,0.594,1,374.326
1,False,38,"[(1058, 905)]",[],[1],[0.65],vertical,"(890.0, 262.0)",0.75,0.624,1,378.892
1,False,39,"[(1036, 901)]",[],[1],[0.65],vertical,"(890.0, 262.0)",0.9166666666666666,0.61,1,383.511
1,False,40,"[(1038, 895)]",[],[1],[0.6],vertical,"(890.0, 762.0)",1.0,0.552,1,413.269
1,False,41,"[(1047, 906)]",[],[1],[0.5666666666666667],horizontal,"(890.0, 262.0)",0.55,0.519,1,417.769
1,False,42,"[(1045, 896)]",[],[1],[0.5833333333333334],vertical,"(890.0, 762.0)",0.8666666666666667,0.537,1,421.491
1,False,43,"[(1036, 882)]",[],[1],[0.5666666666666667],vertical,"(390.0, 762.0)",0.5166666666666666,0.525,1,425.505
1,False,44,"[(1041, 874)]",[],[1],[0.55],horizontal,"(390.0, 762.0)",0.6333333333333333,0.506,1,429.654
1,False,45,"[(1048, 905)]",[],[1],[0.5666666666666667],horizontal,"(890.0, 262.0)",0.8166666666666667,0.521,1,434.275
1,False,46,"[(1054, 861)]",[],[1],[0.65],vertical,"(890.0, 762.0)",0.6,0.603,1,438.609
1,False,47,"[(1042, 918)]",[],[1],[0.5666666666666667],horizontal,"(390.0, 762.0)",0.5,0.521,1,444.461
1,False,48,"[(1042, 892)]",[],[1],[0.5666666666666667],horizontal,"(890.0, 262.0)",0.7333333333333333,0.53,1,448.548
1,False,49,"[(1058, 882)]",[],[1],[0.5333333333333333],vertical,"(890.0, 262.0)",1.4166666666666667,0.496,1,452.813
1,False,50,"[(1042, 871)]",[],[1],[0.5333333333333333],vertical,"(390.0, 262.0)",1.0833333333333333,0.488,1,458.343
1,False,51,"[(1073, 900)]",[],[1],[0.5666666666666667],horizontal,"(890.0, 762.0)",1.6166666666666667,0.525,1,463.814
1,False,52,"[(1040, 868)]",[],[1],[0.5],vertical,"(890.0, 262.0)",1.25,0.455,1,468.764
1,False,53,"[(1058, 910)]",[],[1],[0.6166666666666667],vertical,"(390.0, 762.0)",0.5833333333333334,0.573,1,474.689
1,False,54,"[(1064, 889)]",[],[1],[0.6],vertical,"(390.0, 762.0)",1.0833333333333333,0.554,1,478.905
1,False,55,"[(1047, 871)]",[],[1],[0.55],vertical,"(390.0, 262.0)",0.5333333333333333,0.506,1,483.52
1,False,56,"[(1071, 893)]",[],[1],[0.8333333333333334],vertical,"(390.0, 262.0)",0.8,0.784,1,487.666
1,False,57,"[(1074, 861)]",[],[1],[0.3333333333333333],horizontal,"(390.0, 262.0)",1.45,0.297,1,492.365
1,False,58,"[(1061, 900)]",[],[1],[0.5833333333333334],horizontal,"(890.0, 262.0)",1.0833333333333333,0.535,1,499.075
1,False,59,"[(1051, 889)]",[],[1],[0.5666666666666667],horizontal,"(890.0, 762.0)",1.4166666666666667,0.522,1,503.758
1,False,60,"[(1038, 892)]",[],[1],[0.5833333333333334],vertical,"(890.0, 762.0)",1.1833333333333333,0.558,1,508.69
2,False,61,"[(1042, 890)]",[],[1],[0.5833333333333334],vertical,"(890.0, 762.0)",0.9166666666666666,0.539,1,513.511
2,False,62,"[(1066, 888)]",[],[1],[0.5833333333333334],horizontal,"(390.0, 762.0)",1.5166666666666666,0.538,1,517.956
2,False,63,"[(1052, 880)]",[],[1],[0.5],vertical,"(390.0, 762.0)",1.15,0.462,1,523.062
2,False,64,"[(1041, 883)]",[],[1],[0.55],horizontal,"(890.0, 262.0)",0.5666666666666667,0.508,1,527.407
2,False,65,"[(1044, 885)]",[],[1],[0.5666666666666667],horizontal,"(390.0, 762.0)",1.6,0.524,1,531.601
2,False,66,"[(1038, 895)]",[],[1],[0.6],vertical,"(890.0, 262.0)",0.7,0.555,1,536.752
2,False,67,"[(1034, 902)]",[],[1],[0.5],vertical,"(890.0, 262.0)",1.25,0.459,1,541.369
2,False,68,"[(1039, 914)]",[],[1],[0.5833333333333334],vertical,"(890.0, 262.0)",1.1333333333333333,0.548,1,596.673
2,False,69,"[(1062, 879)]",[],[1],[0.5666666666666667],vertical,"(390.0, 262.0)",0.8333333333333334,0.53,1,601.98
2,False,70,"[(1057, 890)]",[],[1],[0.5333333333333333],horizontal,"(890.0, 262.0)",0.9166666666666666,0.491,1,606.63
2,False,71,"[(1065, 889)]",[],[1],[0.5666666666666667],vertical,"(890.0, 262.0)",0.8666666666666667,0.523,1,611.687
2,False,72,"[(1058, 891)]",[],[1],[0.5333333333333333],horizontal,"(390.0, 262.0)",0.7833333333333333,0.492,1,616.098
2,False,73,"[(1052, 876)]",[],[1],[0.55],vertical,"(890.0, 762.0)",0.8333333333333334,0.511,1,620.331
2,False,74,"[(1071, 897)]",[],[1],[0.5833333333333334],vertical,"(890.0, 762.0)",0.9166666666666666,0.549,1,624.768
2,False,75,"[(1039, 903)]",[],[1],[0.55],horizontal,"(890.0, 762.0)",1.6166666666666667,0.505,1,629.913
2,False,76,"[(1038, 890)]",[],[1],[0.65],horizontal,"(390.0, 762.0)",1.0666666666666667,0.611,1,635.51
2,False,77,"[(1075, 890)]",[],[1],[0.5166666666666666],vertical,"(890.0, 262.0)",0.6833333333333333,0.481,1,640.667
2,False,78,"[(1074, 890)]",[],[1],[0.6166666666666667],horizontal,"(890.0, 762.0)",1.0833333333333333,0.575,1,645.149
2,False,79,"[(1070, 889)]",[],[1],[0.5666666666666667],vertical,"(390.0, 762.0)",1.4833333333333334,0.522,1,649.728
2,False,80,"[(1038, 893)]",[],[1],[0.5],horizontal,"(890.0, 262.0)",1.3833333333333333,0.465,1,654.897
2,False,81,"[(1076, 892)]",[],[1],[0.5666666666666667],horizontal,"(890.0, 262.0)",0.8166666666666667,0.52,1,660.184
2,False,82,"[(1042, 890)]",[],[1],[0.48333333333333334],horizontal,"(390.0, 262.0)",0.8,0.445,1,664.499
2,False,83,"[(1072, 889)]",[],[1],[0.5],vertical,"(390.0, 262.0)",1.4833333333333334,0.457,1,669.124
2,False,84,"[(1071, 874)]",[],[1],[0.3333333333333333],horizontal,"(890.0, 262.0)",1.6,0.293,1,673.783
2,False,85,"[(1041, 887)]",[],[1],[0.5166666666666666],horizontal,"(390.0, 262.0)",0.6,0.472,1,679.023
2,False,86,"[(1042, 883)]",[],[1],[0.65],horizontal,"(890.0, 262.0)",0.6666666666666666,0.612,1,683.421
2,False,87,"[(1038, 871)]",[],[1],[0.48333333333333334],horizontal,"(390.0, 262.0)",1.5166666666666666,0.451,1,687.393
2,False,88,"[(1038, 888)]",[],[1],[0.6833333333333333],vertical,"(890.0, 262.0)",1.2,0.644,1,692.632
2,False,89,"[(1062, 876)]",[],[1],[0.55],vertical,"(890.0, 762.0)",1.5833333333333333,0.509,1,697.684
2,False,90,"[(1065, 888)]",[],[1],[0.85],horizontal,"(890.0, 762.0)",1.1666666666666667,0.808,0,702.651
2,False,91,"[(427, 464), (996, 864), (1057, 889)]",[],"[0, 0, 1]",[0.85],vertical,"(890.0, 262.0)",1.65,0.8,0,748.379
2,False,92,"[(1055, 880)]",[],[1],[0.85],vertical,"(390.0, 762.0)",0.7666666666666666,0.801,0,768.793
2,False,93,"[(1052, 846)]",[],[1],[0.85],vertical,"(890.0, 762.0)",0.7,0.799,0,773.698
2,False,94,"[(1076, 860)]",[],[1],[0.5666666666666667],horizontal,"(390.0, 262.0)",0.8333333333333334,0.521,1,787.727
2,False,95,"[(1044, 896)]",[],[1],[0.6166666666666667],horizontal,"(890.0, 762.0)",1.3166666666666667,0.577,1,792.151
2,False,96,"[(1036, 900)]",[],[1],[0.5666666666666667],horizontal,"(890.0, 262.0)",1.6833333333333333,0.521,1,797.272
2,False,97,"[(1019, 871)]",[],[1],[0.6],vertical,"(390.0, 762.0)",1.3666666666666667,0.557,1,802.601
2,False,98,"[(1065, 898)]",[],[1],[0.5833333333333334],vertical,"(390.0, 262.0)",1.65,0.542,1,808.206
2,False,99,"[(1042, 900)]",[],[1],[0.85],horizontal,"(390.0, 262.0)",0.8666666666666667,0.802,0,813.492
2,False,100,"[(1038, 893)]",[],[1],[0.5166666666666666],vertical,"(390.0, 762.0)",1.0,0.476,1,818.56
2,False,101,"[(1047, 886)]",[],[1],[0.55],vertical,"(890.0, 262.0)",0.8166666666666667,0.503,1,832.183
2,False,102,"[(1042, 872)]",[],[1],[0.48333333333333334],horizontal,"(390.0, 262.0)",0.9166666666666666,0.443,1,836.7
2,False,103,"[(1039, 892)]",[],[1],[0.6],horizontal,"(890.0, 762.0)",1.35,0.551,1,841.149
2,False,104,"[(1040, 874)]",[],[1],[0.55],vertical,"(890.0, 262.0)",0.5333333333333333,0.509,1,846.096
2,False,105,"[(1047, 885)]",[],[1],[0.5666666666666667],vertical,"(890.0, 262.0)",1.5666666666666667,0.519,1,850.193
2,False,106,"[(1033, 895)]",[],[1],[0.45],vertical,"(390.0, 262.0)",0.7666666666666666,0.411,1,855.671
2,False,107,"[(1053, 885)]",[],[1],[0.55],horizontal,"(890.0, 762.0)",0.9833333333333333,0.505,1,860.204
2,False,108,"[(1047, 895)]",[],[1],[0.65],horizontal,"(890.0, 262.0)",1.0333333333333332,0.609,1,864.615
2,False,109,"[(1067, 892)]",[],[1],[0.55],horizontal,"(390.0, 262.0)",0.5,0.524,1,869.098
2,False,110,"[(1059, 890)]",[],[1],[0.6166666666666667],horizontal,"(890.0, 762.0)",1.6,0.573,1,873.086
2,False,111,"[(1039, 871)]",[],[1],[0.55],vertical,"(390.0, 262.0)",0.6333333333333333,0.511,1,878.467
2,False,112,"[(1076, 895)]",[],[1],[0.5666666666666667],horizontal,"(390.0, 262.0)",1.55,0.519,1,882.985
2,False,113,"[(1067, 897)]",[],[1],[0.6666666666666666],vertical,"(890.0, 762.0)",1.5333333333333332,0.622,1,888.289
2,False,114,"[(1061, 899)]",[],[1],[0.48333333333333334],vertical,"(890.0, 262.0)",1.2166666666666666,0.445,1,893.44
2,False,115,"[(1047, 872)]",[],[1],[0.5833333333333334],vertical,"(890.0, 762.0)",0.8833333333333333,0.542,1,897.79
2,False,116,"[(1070, 882)]",[],[1],[0.65],horizontal,"(890.0, 762.0)",1.0333333333333332,0.607,1,902.287
2,False,117,"[(1047, 878)]",[],[1],[0.48333333333333334],horizontal,"(890.0, 262.0)",1.6833333333333333,0.443,1,906.913
2,False,118,"[(1052, 901)]",[],[1],[0.6],horizontal,"(390.0, 762.0)",1.4166666666666667,0.557,1,912.081
2,False,119,"[(1039, 895)]",[],[1],[0.5166666666666666],horizontal,"(890.0, 262.0)",1.1833333333333333,0.475,1,917.315
2,False,120,"[(1045, 882)]",[],[1],[0.13333333333333333],horizontal,"(390.0, 262.0)",1.3,0.1,1,922.136
3,False,121,"[(1050, 863)]",[],[1],[0.6],vertical,"(890.0, 762.0)",0.5,0.556,1,926.9
3,False,122,"[(1052, 907)]",[],[1],[0.6833333333333333],vertical,"(890.0, 262.0)",0.6,0.641,1,931.799
3,False,123,"[(1063, 876)]",[],[1],[0.65],vertical,"(890.0, 262.0)",1.3166666666666667,0.607,1,936.253
3,False,124,"[(1047, 852)]",[],[1],[0.5666666666666667],vertical,"(390.0, 762.0)",1.15,0.523,1,941.483
3,False,125,"[(1042, 867)]",[],[1],[0.55],vertical,"(390.0, 262.0)",1.65,0.51,1,946.2
3,False,126,"[(1047, 876)]",[],[1],[0.5833333333333334],vertical,"(890.0, 762.0)",0.7666666666666666,0.541,1,951.827
3,False,127,"[(1040, 881)]",[],[1],[0.6],horizontal,"(390.0, 762.0)",0.7,0.556,1,956.378
3,False,128,"[(1038, 880)]",[],[1],[0.7333333333333333],vertical,"(890.0, 262.0)",0.9666666666666667,0.689,1,960.879
3,False,129,"[(1035, 885)]",[],[1],[0.23333333333333334],horizontal,"(390.0, 262.0)",1.5833333333333333,0.196,1,965.906
3,False,130,"[(1047, 898)]",[],[1],[0.7166666666666667],vertical,"(890.0, 262.0)",0.5666666666666667,0.667,1,971.134
3,False,131,"[(1054, 902)]",[],[1],[0.6],horizontal,"(890.0, 762.0)",1.1166666666666667,0.553,1,975.09
3,False,132,"[(1047, 903)]",[],[1],[0.5833333333333334],vertical,"(390.0, 262.0)",0.6833333333333333,0.54,1,979.782
3,False,133,"[(1038, 892)]",[],[1],[0.5666666666666667],horizontal,"(890.0, 762.0)",0.9166666666666666,0.525,1,984.318
3,False,134,"[(1027, 901)]",[],[1],[0.55],vertical,"(390.0, 762.0)",0.6833333333333333,0.519,1,988.62
3,False,135,"[(1042, 890)]",[],[1],[0.26666666666666666],vertical,"(390.0, 262.0)",1.5666666666666667,0.229,1,993.285
3,False,136,"[(1041, 870)]",[],[1],[0.5],horizontal,"(390.0, 262.0)",1.4166666666666667,0.459,1,998.137
3,False,137,"[(1043, 889)]",[],[1],[0.5833333333333334],vertical,"(890.0, 262.0)",0.7,0.542,1,1003.179
3,False,138,"[(1042, 867)]",[],[1],[0.55],vertical,"(890.0, 762.0)",0.6166666666666667,0.509,1,1007.604
3,False,139,"[(1050, 894)]",[],[1],[0.5666666666666667],vertical,"(390.0, 262.0)",0.7166666666666667,0.524,1,1011.928
3,False,140,"[(1035, 876)]",[],[1],[0.5666666666666667],horizontal,"(890.0, 762.0)",0.9666666666666667,0.523,1,1016.451
3,False,141,"[(1040, 886)]",[],[1],[0.7],horizontal,"(890.0, 262.0)",0.8,0.663,1,1021.314
3,False,142,"[(1040, 890)]",[],[1],[0.5833333333333334],vertical,"(390.0, 262.0)",0.7166666666666667,0.542,1,1025.826
3,False,143,"[(1050, 874)]",[],[1],[0.5],vertical,"(390.0, 262.0)",1.3166666666666667,0.462,1,1030.137
3,False,144,"[(1041, 899)]",[],[1],[0.5333333333333333],vertical,"(390.0, 262.0)",0.5833333333333334,0.495,1,1035.09
3,False,145,"[(1042, 890)]",[],[1],[0.6833333333333333],vertical,"(390.0, 262.0)",0.8833333333333333,0.641,1,1038.965
3,False,146,"[(1052, 882)]",[],[1],[0.5666666666666667],horizontal,"(390.0, 762.0)",0.5666666666666667,0.524,1,1043.639
3,False,147,"[(1038, 902)]",[],[1],[0.55],horizontal,"(390.0, 762.0)",0.75,0.516,1,1047.873
3,False,148,"[(1040, 893)]",[],[1],[0.5666666666666667],horizontal,"(390.0, 762.0)",1.55,0.529,1,1052.396
3,False,149,"[(1046, 885)]",[],[1],[0.6666666666666666],vertical,"(390.0, 762.0)",1.0166666666666666,0.618,1,1057.444
3,False,150,"[(1053, 879)]",[],[1],[0.5666666666666667],horizontal,"(390.0, 762.0)",0.5166666666666666,0.522,1,1062.512
3,False,151,"[(1049, 871)]",[],[1],[0.5833333333333334],horizontal,"(390.0, 762.0)",0.5,0.542,1,1066.55
3,False,152,"[(1009, 872)]",[],[1],[0.55],horizontal,"(890.0, 262.0)",0.9,0.51,1,1070.489
3,False,153,"[(1034, 875)]",[],[1],[0.5333333333333333],horizontal,"(390.0, 262.0)",1.1166666666666667,0.496,1,1074.796
3,False,154,"[(1028, 871)]",[],[1],[0.5666666666666667],vertical,"(390.0, 262.0)",0.5333333333333333,0.532,1,1079.638
3,False,155,"[(1037, 885)]",[],[1],[0.55],vertical,"(890.0, 262.0)",1.1333333333333333,0.511,1,1083.783
3,False,156,"[(1047, 897)]",[],[1],[0.5666666666666667],horizontal,"(890.0, 762.0)",1.3666666666666667,0.532,1,1088.512
3,False,157,"[(1038, 893)]",[],[1],[0.5666666666666667],vertical,"(390.0, 762.0)",1.0166666666666666,0.527,1,1093.548
3,False,158,"[(1052, 876)]",[],[1],[0.6166666666666667],horizontal,"(890.0, 262.0)",0.7833333333333333,0.577,1,1098.149
3,False,159,"[(1044, 882)]",[],[1],[0.6333333333333333],horizontal,"(890.0, 762.0)",1.4,0.592,1,1102.597
3,False,160,"[(1044, 899)]",[],[1],[0.5666666666666667],vertical,"(890.0, 762.0)",1.2833333333333332,0.535,1,1107.679
3,False,161,"[(1042, 884)]",[],[1],[0.6166666666666667],horizontal,"(890.0, 262.0)",1.5166666666666666,0.576,1,1112.848
3,False,162,"[(1049, 888)]",[],[1],[0.55],horizontal,"(390.0, 262.0)",0.8333333333333334,0.511,1,1118.08
3,False,163,"[(1060, 887)]",[],[1],[0.5666666666666667],vertical,"(890.0, 262.0)",0.6,0.52,1,1122.387
3,False,164,"[(1076, 878)]",[],[1],[0.6],vertical,"(390.0, 762.0)",1.4833333333333334,0.558,1,1126.244
3,False,165,"[(1067, 876)]",[],[1],[0.5833333333333334],vertical,"(890.0, 262.0)",0.75,0.547,1,1131.616
3,False,166,"[(1047, 888)]",[],[1],[0.55],vertical,"(890.0, 262.0)",1.1,0.507,1,1136.18
3,False,167,"[(1076, 885)]",[],[1],[0.6833333333333333],vertical,"(390.0, 762.0)",1.2,0.645,1,1141.122
3,False,168,"[(1036, 862)]",[],[1],[0.55],vertical,"(390.0, 762.0)",1.5166666666666666,0.507,1,1146.215
3,False,169,"[(1046, 891)]",[],[1],[0.5333333333333333],horizontal,"(890.0, 262.0)",0.6833333333333333,0.488,1,1151.176
3,False,170,"[(1076, 874)]",[],[1],[0.5666666666666667],horizontal,"(890.0, 762.0)",1.1666666666666667,0.525,1,1155.625
3,False,171,"[(1057, 898)]",[],[1],[0.5666666666666667],vertical,"(890.0, 762.0)",1.5166666666666666,0.532,1,1160.248
3,False,172,"[(1062, 903)]",[],[1],[0.6166666666666667],horizontal,"(890.0, 762.0)",1.3666666666666667,0.575,1,1164.893
3,False,173,"[(1061, 900)]",[],[1],[0.55],horizontal,"(390.0, 262.0)",1.05,0.505,1,1170.287
3,False,174,"[(1076, 903)]",[],[1],[0.5833333333333334],vertical,"(390.0, 262.0)",0.8333333333333334,0.547,1,1175.143
3,False,175,"[(1076, 897)]",[],[1],[0.55],vertical,"(890.0, 262.0)",0.5666666666666667,0.512,1,1179.627
3,False,176,"[(1051, 877)]",[],[1],[0.55],horizontal,"(390.0, 762.0)",0.6166666666666667,0.515,1,1184.176
3,False,177,"[(1052, 899)]",[],[1],[0.5166666666666666],horizontal,"(890.0, 262.0)",1.5166666666666666,0.481,1,1188.141
3,False,178,"[(1047, 901)]",[],[1],[0.7166666666666667],horizontal,"(890.0, 762.0)",1.6,0.675,1,1192.837
3,False,179,"[(1047, 869)]",[],[1],[0.55],horizontal,"(390.0, 262.0)",1.2333333333333334,0.505,1,1197.951
3,False,180,"[(1054, 883)]",[],[1],[0.6],vertical,"(390.0, 762.0)",0.55,0.554,1,1203.087
4,False,181,"[(1062, 892)]",[],[1],[0.6166666666666667],horizontal,"(890.0, 262.0)",0.85,0.573,1,1207.17
4,False,182,"[(1047, 885)]",[],[1],[0.6],vertical,"(390.0, 262.0)",1.5333333333333332,0.564,1,1211.485
4,False,183,"[(1076, 871)]",[],[1],[0.5333333333333333],horizontal,"(890.0, 262.0)",1.6,0.493,1,1216.331
4,False,184,"[(1033, 868)]",[],[1],[0.6666666666666666],horizontal,"(890.0, 262.0)",0.75,0.618,1,1221.026
4,False,185,"[(1038, 895)]",[],[1],[0.5666666666666667],vertical,"(890.0, 262.0)",1.4,0.523,1,1225.729
4,False,186,"[(1065, 872)]",[],[1],[],horizontal,"(390.0, 262.0)",,cti_phase,0,1230.987
4,False,187,"[(1047, 881)]",[],[1],[0.6166666666666667],vertical,"(890.0, 762.0)",0.55,0.572,1,1234.801
4,False,188,"[(1058, 899)]",[],[1],[0.4166666666666667],horizontal,"(390.0, 262.0)",0.8833333333333333,0.38,1,1238.999
4,False,189,"[(1058, 895)]",[],[1],[0.5833333333333334],horizontal,"(890.0, 262.0)",1.3333333333333333,0.538,1,1243.569
4,False,190,"[(1038, 884)]",[],[1],[0.6],vertical,"(890.0, 762.0)",0.65,0.555,1,1248.303
4,False,191,"[(1055, 902)]",[],[1],[0.6],horizontal,"(890.0, 762.0)",1.4,0.556,1,1252.65
4,False,192,"[(1033, 881)]",[],[1],[0.5666666666666667],horizontal,"(890.0, 262.0)",0.7,0.526,1,1257.86
4,False,193,"[(1076, 879)]",[],[1],[0.6166666666666667],horizontal,"(390.0, 762.0)",0.7,0.579,1,1262.494
4,False,194,"[(1033, 881)]",[],[1],[0.6],horizontal,"(390.0, 762.0)",1.6166666666666667,0.555,1,1266.78
4,False,195,"[(1035, 894)]",[],[1],[0.6],vertical,"(890.0, 262.0)",0.7333333333333333,0.558,1,1272.185
4,False,196,"[(1057, 880)]",[],[1],[0.55],vertical,"(390.0, 262.0)",1.0333333333333332,0.506,1,1276.685
4,False,197,"[(1058, 906)]",[],[1],[0.85],vertical,"(390.0, 262.0)",1.0666666666666667,0.812,0,1281.232
4,False,198,"[(1029, 877)]",[],[1],[0.7],horizontal,"(890.0, 762.0)",1.1333333333333333,0.659,1,1286.393
4,False,199,"[(1076, 882)]",[],[1],[0.55],vertical,"(890.0, 762.0)",0.6833333333333333,0.513,1,1292.036
4,False,200,"[(1041, 898)]",[],[1],[0.5666666666666667],horizontal,"(390.0, 762.0)",0.6666666666666666,0.525,1,1296.258
4,False,201,"[(1039, 875)]",[],[1],[0.5833333333333334],vertical,"(390.0, 262.0)",0.9833333333333333,0.542,1,1300.621
4,False,202,"[(1067, 877)]",[],[1],[0.5833333333333334],vertical,"(890.0, 262.0)",1.2166666666666666,0.538,1,1305.029
4,False,203,"[(1044, 896)]",[],[1],[0.5666666666666667],vertical,"(890.0, 762.0)",0.6833333333333333,0.525,1,1309.937
4,False,204,"[(1045, 874)]",[],[1],[0.5666666666666667],vertical,"(890.0, 262.0)",1.5833333333333333,0.525,1,1314.401
4,False,205,"[(1045, 856)]",[],[1],[0.48333333333333334],horizontal,"(390.0, 262.0)",1.1833333333333333,0.442,1,1319.433
4,False,206,"[(1061, 908)]",[],[1],[0.6333333333333333],vertical,"(390.0, 762.0)",1.4833333333333334,0.586,1,1323.895
4,False,207,"[(1056, 898)]",[],[1],[0.5666666666666667],horizontal,"(390.0, 762.0)",1.6,0.528,1,1328.959
4,False,208,"[(1050, 871)]",[],[1],[0.5666666666666667],vertical,"(390.0, 262.0)",0.5333333333333333,0.523,1,1334.062
4,False,209,"[(1052, 898)]",[],[1],[0.5166666666666666],horizontal,"(890.0, 262.0)",1.45,0.475,1,1338.342
4,False,210,"[(1066, 894)]",[],[1],[0.5833333333333334],vertical,"(890.0, 762.0)",0.9666666666666667,0.551,1,1343.252
4,False,211,"[(1060, 886)]",[],[1],[0.5666666666666667],vertical,"(390.0, 762.0)",1.25,0.541,1,1347.913
4,False,212,"[(1068, 865)]",[],[1],[0.35],horizontal,"(390.0, 262.0)",1.4166666666666667,0.314,1,1352.724
4,False,213,"[(1053, 895)]",[],[1],[0.5166666666666666],horizontal,"(890.0, 262.0)",1.15,0.479,1,1357.57
4,False,214,"[(1076, 893)]",[],[1],[0.5833333333333334],vertical,"(390.0, 262.0)",1.5333333333333332,0.534,1,1362.232
4,False,215,"[(1076, 899)]",[],[1],[0.6],vertical,"(890.0, 762.0)",1.0,0.557,1,1367.152
4,False,216,"[(1045, 860)]",[],[1],[0.5666666666666667],horizontal,"(890.0, 762.0)",0.8333333333333334,0.521,1,1371.62
4,False,217,"[(1044, 893)]",[],[1],[0.5833333333333334],horizontal,"(890.0, 762.0)",1.4833333333333334,0.541,1,1376.285
4,False,218,"[(1072, 905)]",[],[1],[0.6333333333333333],vertical,"(390.0, 262.0)",0.65,0.588,1,1381.222
4,False,219,"[(1038, 890)]",[],[1],[0.5333333333333333],vertical,"(890.0, 762.0)",0.75,0.493,1,1385.596
4,False,220,"[(1045, 876)]",[],[1],[0.5166666666666666],vertical,"(890.0, 262.0)",1.6333333333333333,0.473,1,1390.347
4,False,221,"[(1066, 888)]",[],[1],[0.5833333333333334],vertical,"(390.0, 262.0)",1.25,0.54,1,1395.499
4,False,222,"[(1062, 876)]",[],[1],[0.5666666666666667],horizontal,"(890.0, 762.0)",1.65,0.534,1,1400.201
4,False,223,"[(1052, 889)]",[],[1],[0.5833333333333334],vertical,"(390.0, 262.0)",0.5666666666666667,0.543,1,1405.535
4,False,224,"[(1017, 894)]",[],[1],[0.5666666666666667],vertical,"(890.0, 262.0)",0.8333333333333334,0.525,1,1409.549
4,False,225,"[(1045, 898)]",[],[1],[0.26666666666666666],horizontal,"(390.0, 262.0)",1.4666666666666666,0.235,1,1421.629
4,False,226,"[(1028, 895)]",[],[1],[0.6166666666666667],horizontal,"(890.0, 262.0)",0.75,0.578,1,1426.339
4,False,227,"[(1028, 887)]",[],[1],[0.55],horizontal,"(890.0, 262.0)",1.55,0.509,1,1431.092
4,False,228,"[(1076, 902)]",[],[1],[0.5833333333333334],horizontal,"(390.0, 762.0)",1.4666666666666666,0.542,1,1436.511
4,False,229,"[(1018, 908)]",[],[1],[0.65],vertical,"(890.0, 762.0)",1.4166666666666667,0.606,1,1441.499
4,False,230,"[(1047, 885)]",[],[1],[0.5666666666666667],horizontal,"(890.0, 762.0)",1.0666666666666667,0.524,1,1446.586
4,False,231,"[(1023, 890)]",[],[1],[0.5333333333333333],vertical,"(890.0, 262.0)",0.7833333333333333,0.491,1,1451.2
4,False,232,"[(1042, 895)]",[],[1],[0.55],vertical,"(390.0, 262.0)",1.0833333333333333,0.51,1,1455.937
4,False,233,"[(1066, 899)]",[],[1],[0.6166666666666667],horizontal,"(390.0, 262.0)",0.85,0.58,1,1460.896
4,False,234,"[(1061, 885)]",[],[1],[0.6333333333333333],horizontal,"(890.0, 262.0)",0.7,0.591,1,1465.247
4,False,235,"[(1066, 904)]",[],[1],[0.6166666666666667],vertical,"(390.0, 262.0)",0.9666666666666667,0.576,1,1469.746
4,False,236,"[(1028, 890)]",[],[1],[0.5666666666666667],horizontal,"(390.0, 762.0)",0.7,0.526,1,1474.493
4,False,237,"[(1060, 895)]",[],[1],[],horizontal,"(390.0, 262.0)",,cti_phase,0,1479.036
4,False,238,"[(1039, 885)]",[],[1],[0.48333333333333334],horizontal,"(890.0, 762.0)",1.3,0.444,1,1482.951
4,False,239,"[(1014, 899)]",[],[1],[0.6166666666666667],vertical,"(890.0, 262.0)",0.8666666666666667,0.576,1,1487.587
4,False,240,"[(1035, 880)]",[],[1],[0.6833333333333333],vertical,"(390.0, 762.0)",1.65,0.641,1,1492.79
5,False,241,"[(1041, 891)]",[],[1],[0.8166666666666667],horizontal,"(390.0, 762.0)",0.7333333333333333,0.771,1,1497.917
5,False,242,"[(1042, 905)]",[],[1],[0.7],vertical,"(890.0, 762.0)",1.1666666666666667,0.655,1,1502.805
5,False,243,"[(1033, 881)]",[],[1],[0.5666666666666667],horizontal,"(890.0, 262.0)",1.35,0.528,1,1508.344
5,False,244,"[(1028, 885)]",[],[1],[0.5833333333333334],horizontal,"(390.0, 762.0)",0.5833333333333334,0.546,1,1513.621
5,False,245,"[(1028, 887)]",[],[1],[0.5666666666666667],vertical,"(890.0, 762.0)",1.5666666666666667,0.525,1,1518.147
5,False,246,"[(1046, 886)]",[],[1],[0.6166666666666667],horizontal,"(890.0, 762.0)",1.1333333333333333,0.573,1,1523.009
5,False,247,"[(1066, 893)]",[],[1],[0.5833333333333334],horizontal,"(890.0, 762.0)",0.7833333333333333,0.54,1,1527.405
5,False,248,"[(1041, 897)]",[],[1],[0.65],horizontal,"(390.0, 762.0)",0.9666666666666667,0.603,1,1531.89
5,False,249,"[(1065, 891)]",[],[1],[0.55],vertical,"(890.0, 762.0)",0.85,0.512,1,1536.695
5,False,250,"[(1066, 905)]",[],[1],[0.6333333333333333],horizontal,"(390.0, 262.0)",1.45,0.59,1,1541.65
5,False,251,"[(1065, 891)]",[],[1],[0.5833333333333334],horizontal,"(890.0, 762.0)",1.45,0.543,1,1546.597
5,False,252,"[(1049, 892)]",[],[1],[0.6333333333333333],vertical,"(390.0, 262.0)",0.9333333333333333,0.591,1,1551.743
5,False,253,"[(1076, 906)]",[],[1],[0.6],horizontal,"(890.0, 762.0)",1.45,0.555,1,1556.182
5,False,254,"[(1050, 906)]",[],[1],[0.6166666666666667],vertical,"(890.0, 762.0)",1.6833333333333333,0.574,1,1561.454
5,False,255,"[(1076, 889)]",[],[1],[0.6166666666666667],horizontal,"(390.0, 262.0)",0.6166666666666667,0.574,1,1567.07
5,False,256,"[(1067, 882)]",[],[1],[0.5666666666666667],vertical,"(390.0, 762.0)",0.7666666666666666,0.525,1,1571.232
5,False,257,"[(1052, 888)]",[],[1],[0.5666666666666667],horizontal,"(890.0, 262.0)",0.7833333333333333,0.524,1,1575.3
5,False,258,"[(1067, 892)]",[],[1],[0.55],vertical,"(890.0, 262.0)",1.2,0.509,1,1579.833
5,False,259,"[(1076, 900)]",[],[1],[0.6833333333333333],vertical,"(390.0, 762.0)",1.15,0.646,1,1584.57
5,False,260,"[(1076, 885)]",[],[1],[0.55],horizontal,"(890.0, 262.0)",1.05,0.505,1,1589.701
5,False,261,"[(1052, 868)]",[],[1],[0.6166666666666667],horizontal,"(890.0, 262.0)",0.5,0.569,1,1594.452
5,False,262,"[(1072, 887)]",[],[1],[0.5833333333333334],horizontal,"(390.0, 762.0)",1.0833333333333333,0.542,1,1598.304
5,False,263,"[(1022, 906)]",[],[1],[0.6],horizontal,"(390.0, 262.0)",1.0833333333333333,0.554,1,1603.135
5,False,264,"[(1067, 881)]",[],[1],[0.55],horizontal,"(890.0, 262.0)",1.4,0.504,1,1607.868
5,False,265,"[(1036, 874)]",[],[1],[0.6],vertical,"(390.0, 762.0)",0.9,0.556,1,1612.521
5,False,266,"[(1024, 876)]",[],[1],[0.6],horizontal,"(890.0, 262.0)",0.5,0.556,1,1617.238
5,False,267,"[(1067, 897)]",[],[1],[0.5333333333333333],vertical,"(890.0, 262.0)",1.5166666666666666,0.488,1,1621.322
5,False,268,"[(1049, 879)]",[],[1],[0.4666666666666667],vertical,"(890.0, 262.0)",1.6833333333333333,0.423,1,1626.61
5,False,269,"[(1076, 889)]",[],[1],[0.6],horizontal,"(890.0, 762.0)",1.3833333333333333,0.555,1,1631.713
5,False,270,"[(1038, 885)]",[],[1],[0.6166666666666667],vertical,"(390.0, 262.0)",1.3666666666666667,0.576,1,1636.96
5,False,271,"[(1042, 890)]",[],[1],[0.6],vertical,"(890.0, 762.0)",0.6166666666666667,0.562,1,1641.782
5,False,272,"[(1023, 889)]",[],[1],[0.6],vertical,"(890.0, 262.0)",1.4,0.555,1,1645.911
5,False,273,"[(1072, 900)]",[],[1],[0.7166666666666667],horizontal,"(390.0, 762.0)",1.2333333333333334,0.669,1,1650.852
5,False,274,"[(1050, 903)]",[],[1],[0.6],vertical,"(390.0, 262.0)",1.55,0.553,1,1655.671
5,False,275,"[(1025, 874)]",[],[1],[0.5833333333333334],vertical,"(390.0, 262.0)",0.5666666666666667,0.539,1,1660.85
5,False,276,"[(1071, 908)]",[],[1],[0.6333333333333333],vertical,"(390.0, 762.0)",0.5,0.59,1,1665.664
5,False,277,"[(1066, 891)]",[],[1],[0.6],vertical,"(390.0, 762.0)",1.65,0.554,1,1669.791
5,False,278,"[(1076, 904)]",[],[1],[0.5833333333333334],vertical,"(890.0, 762.0)",0.8833333333333333,0.539,1,1675.475
5,False,279,"[(1041, 895)]",[],[1],[0.5666666666666667],vertical,"(390.0, 762.0)",0.9666666666666667,0.527,1,1679.901
5,False,280,"[(1057, 881)]",[],[1],[0.65],vertical,"(890.0, 762.0)",1.0,0.61,1,1684.545
5,False,281,"[(1043, 886)]",[],[1],[0.6],horizontal,"(890.0, 762.0)",0.6666666666666666,0.557,1,1688.939
5,False,282,"[(1059, 883)]",[],[1],[0.5833333333333334],horizontal,"(890.0, 762.0)",1.6333333333333333,0.541,1,1692.958
5,False,283,"[(1064, 902)]",[],[1],[0.6],vertical,"(390.0, 262.0)",1.3,0.558,1,1698.22
5,False,284,"[(1032, 881)]",[],[1],[0.6666666666666666],horizontal,"(890.0, 762.0)",1.1166666666666667,0.62,1,1703.444
5,False,285,"[(1076, 885)]",[],[1],[],horizontal,"(390.0, 262.0)",,cti_phase,0,1708.423
5,False,286,"[(1041, 878)]",[],[1],[0.7],vertical,"(390.0, 762.0)",0.65,0.659,1,1713.228
5,False,287,"[(1038, 890)]",[],[1],[0.5666666666666667],vertical,"(390.0, 762.0)",0.75,0.522,1,1718.006
5,False,288,"[(1044, 892)]",[],[1],[0.5833333333333334],vertical,"(890.0, 262.0)",1.1833333333333333,0.547,1,1721.998
5,False,289,"[(1033, 881)]",[],[1],[0.5666666666666667],horizontal,"(390.0, 262.0)",0.95,0.52,1,1727.104
5,False,290,"[(1047, 880)]",[],[1],[0.5666666666666667],horizontal,"(890.0, 262.0)",1.4166666666666667,0.526,1,1731.818
5,False,291,"[(1038, 883)]",[],[1],[0.5833333333333334],vertical,"(890.0, 762.0)",0.95,0.541,1,1736.41
5,False,292,"[(1036, 889)]",[],[1],[0.2833333333333333],horizontal,"(390.0, 262.0)",0.8833333333333333,0.249,1,1740.816
5,False,293,"[(1043, 885)]",[],[1],[0.7333333333333333],horizontal,"(890.0, 762.0)",1.0833333333333333,0.694,1,1744.835
5,False,294,"[(1039, 885)]",[],[1],[0.5833333333333334],vertical,"(390.0, 762.0)",1.4833333333333334,0.539,1,1749.76
5,False,295,"[(1032, 891)]",[],[1],[0.7166666666666667],vertical,"(890.0, 262.0)",1.2666666666666666,0.67,1,1754.682
5,False,296,"[(1033, 885)]",[],[1],[0.75],horizontal,"(890.0, 762.0)",1.35,0.7,1,1759.288
5,False,297,"[(1043, 878)]",[],[1],[0.5666666666666667],vertical,"(890.0, 262.0)",1.1666666666666667,0.528,1,1764.447
5,False,298,"[(1050, 881)]",[],[1],[0.6],vertical,"(890.0, 762.0)",0.6166666666666667,0.565,1,1769.117
5,False,299,"[(1028, 885)]",[],[1],[0.65],horizontal,"(890.0, 762.0)",1.1666666666666667,0.607,1,1773.651
5,False,300,"[(1038, 892)]",[],[1],[0.5666666666666667],vertical,"(890.0, 762.0)",1.2666666666666666,0.522,1,1778.304
6,False,301,"[(1032, 880)]",[],[1],[0.5666666666666667],vertical,"(890.0, 762.0)",0.9833333333333333,0.524,1,1783.449
6,False,302,"[(1042, 885)]",[],[1],[0.55],vertical,"(390.0, 762.0)",0.8666666666666667,0.51,1,1787.936
6,False,303,"[(1044, 880)]",[],[1],[0.55],horizontal,"(390.0, 762.0)",0.6666666666666666,0.511,1,1792.455
6,False,304,"[(1030, 877)]",[],[1],[0.5833333333333334],vertical,"(390.0, 762.0)",0.8333333333333334,0.542,1,1796.996
6,False,305,"[(1047, 891)]",[],[1],[0.5666666666666667],vertical,"(390.0, 262.0)",1.6666666666666667,0.525,1,1801.306
6,False,306,"[(1041, 890)]",[],[1],[0.6833333333333333],horizontal,"(890.0, 762.0)",0.7833333333333333,0.64,1,1806.688
6,False,307,"[(1067, 876)]",[],[1],[0.16666666666666666],horizontal,"(390.0, 262.0)",1.3,0.134,1,1811.154
6,False,308,"[(1026, 903)]",[],[1],[0.55],horizontal,"(890.0, 262.0)",1.2833333333333332,0.509,1,1815.505
6,False,309,"[(1076, 885)]",[],[1],[0.6166666666666667],horizontal,"(390.0, 762.0)",1.3833333333333333,0.575,1,1820.631
6,False,310,"[(1031, 888)]",[],[1],[0.6],horizontal,"(390.0, 262.0)",0.5666666666666667,0.553,1,1825.426
6,False,311,"[(1076, 885)]",[],[1],[0.6],horizontal,"(390.0, 762.0)",1.1,0.565,1,1829.73
6,False,312,"[(1047, 885)]",[],[1],[0.5833333333333334],horizontal,"(890.0, 762.0)",0.9666666666666667,0.54,1,1834.749
6,False,313,"[(1028, 849)]",[],[1],[0.48333333333333334],vertical,"(390.0, 262.0)",1.1333333333333333,0.442,1,1839.015
6,False,314,"[(1076, 901)]",[],[1],[0.7666666666666666],horizontal,"(890.0, 762.0)",1.3166666666666667,0.725,1,1843.832
6,False,315,"[(1038, 905)]",[],[1],[0.55],vertical,"(390.0, 262.0)",0.9833333333333333,0.509,1,1849.205
6,False,316,"[(1071, 881)]",[],[1],[0.5833333333333334],horizontal,"(890.0, 262.0)",0.6666666666666666,0.543,1,1854.173
6,False,317,"[(1071, 884)]",[],[1],[0.6166666666666667],horizontal,"(390.0, 262.0)",0.6833333333333333,0.574,1,1858.317
6,False,318,"[(1076, 890)]",[],[1],[0.6666666666666666],horizontal,"(890.0, 762.0)",0.5333333333333333,0.622,1,1862.331
6,False,319,"[(1045, 880)]",[],[1],[0.5166666666666666],horizontal,"(890.0, 262.0)",1.45,0.477,1,1866.52
6,False,320,"[(1043, 904)]",[],[1],[0.5833333333333334],vertical,"(390.0, 762.0)",1.6166666666666667,0.538,1,1871.122
6,False,321,"[(1044, 878)]",[],[1],[0.55],vertical,"(390.0, 262.0)",0.7166666666666667,0.509,1,1876.239
6,False,322,"[(1038, 880)]",[],[1],[0.6166666666666667],vertical,"(390.0, 762.0)",1.4333333333333333,0.575,1,1880.309
6,False,323,"[(1034, 871)]",[],[1],[0.6833333333333333],horizontal,"(390.0, 262.0)",0.7833333333333333,0.637,1,1885.236
6,False,324,"[(1043, 867)]",[],[1],[0.6],vertical,"(390.0, 762.0)",0.8166666666666667,0.567,1,1890.037
6,False,325,"[(1052, 916)]",[],[1],[0.5833333333333334],vertical,"(390.0, 762.0)",1.5833333333333333,0.541,1,1894.636
6,False,326,"[(1062, 894)]",[],[1],[0.6],vertical,"(390.0, 762.0)",1.15,0.56,1,1899.818
6,False,327,"[(1076, 876)]",[],[1],[0.5666666666666667],vertical,"(390.0, 262.0)",1.1333333333333333,0.523,1,1905.073
6,False,328,"[(1028, 880)]",[],[1],[0.5833333333333334],horizontal,"(890.0, 762.0)",0.5166666666666666,0.544,1,1909.611
6,False,329,"[(1072, 879)]",[],[1],[0.6],vertical,"(390.0, 762.0)",1.2333333333333334,0.56,1,1913.27
6,False,330,"[(1039, 902)]",[],[1],[0.6],horizontal,"(390.0, 262.0)",0.6833333333333333,0.559,1,1918.255
6,False,331,"[(1072, 890)]",[],[1],[0.5666666666666667],vertical,"(390.0, 262.0)",0.95,0.522,1,1922.65
6,False,332,"[(1053, 890)]",[],[1],[0.6833333333333333],horizontal,"(890.0, 762.0)",1.6833333333333333,0.641,1,1927.2
6,False,333,"[(1052, 914)]",[],[1],[0.5833333333333334],horizontal,"(890.0, 262.0)",1.3166666666666667,0.538,1,1932.705
6,False,334,"[(1049, 871)]",[],[1],[],horizontal,"(390.0, 262.0)",,cti_phase,0,1937.6
6,False,335,"[(1047, 876)]",[],[1],[0.5833333333333334],horizontal,"(390.0, 762.0)",0.7333333333333333,0.542,1,1942.138
6,False,336,"[(1082, 888)]",[],[1],[0.5666666666666667],vertical,"(890.0, 262.0)",1.4333333333333333,0.524,1,1947.002
6,False,337,"[(1043, 875)]",[],[1],[0.65],vertical,"(390.0, 762.0)",0.8666666666666667,0.61,1,1952.217
6,False,338,"[(1031, 880)]",[],[1],[0.6],horizontal,"(890.0, 262.0)",1.5666666666666667,0.555,1,1956.905
6,False,339,"[(1042, 871)]",[],[1],[0.6333333333333333],vertical,"(390.0, 762.0)",1.3333333333333333,0.588,1,1962.235
6,False,340,"[(1042, 910)]",[],[1],[0.5833333333333334],vertical,"(890.0, 262.0)",1.5166666666666666,0.546,1,1967.606
6,False,341,"[(1047, 877)]",[],[1],[0.65],vertical,"(390.0, 262.0)",1.3333333333333333,0.603,1,1973.153
6,False,342,"[(1038, 876)]",[],[1],[0.55],horizontal,"(890.0, 262.0)",1.5666666666666667,0.501,1,1978.397
6,False,343,"[(1068, 876)]",[],[1],[0.5166666666666666],horizontal,"(890.0, 262.0)",1.5333333333333332,0.476,1,1983.452
6,False,344,"[(1041, 874)]",[],[1],[0.6333333333333333],vertical,"(890.0, 762.0)",0.7333333333333333,0.594,1,1988.407
6,False,345,"[(1064, 900)]",[],[1],[0.65],horizontal,"(890.0, 762.0)",0.7666666666666666,0.61,1,1993.073
6,False,346,"[(1036, 905)]",[],[1],[0.7666666666666666],horizontal,"(890.0, 762.0)",1.0666666666666667,0.717,1,1997.601
6,False,347,"[(1042, 882)]",[],[1],[0.5833333333333334],vertical,"(390.0, 762.0)",1.3833333333333333,0.544,1,2002.273
6,False,348,"[(1053, 880)]",[],[1],[0.75],horizontal,"(390.0, 262.0)",1.2333333333333334,0.7,1,2006.997
6,False,349,"[(1067, 898)]",[],[1],[0.6],horizontal,"(890.0, 762.0)",0.6666666666666666,0.552,1,2011.799
6,False,350,"[(1014, 877)]",[],[1],[0.55],vertical,"(890.0, 262.0)",0.7666666666666666,0.511,1,2016.014
6,False,351,"[(1039, 889)]",[],[1],[0.6333333333333333],vertical,"(390.0, 262.0)",1.0666666666666667,0.587,1,2020.494
6,False,352,"[(1038, 894)]",[],[1],[0.5666666666666667],horizontal,"(390.0, 262.0)",0.7,0.523,1,2024.984
6,False,353,"[(1057, 889)]",[],[1],[0.6],horizontal,"(390.0, 262.0)",0.95,0.562,1,2029.65
6,False,354,"[(1042, 876)]",[],[1],[0.85],horizontal,"(390.0, 262.0)",1.5833333333333333,"cti_phase,0.811",0,2034.101
6,False,355,"[(1051, 867)]",[],[1],[0.7],horizontal,"(890.0, 762.0)",0.8333333333333334,0.656,1,2039.563
6,False,356,"[(1062, 890)]",[],[1],[0.65],vertical,"(890.0, 762.0)",0.6166666666666667,0.601,1,2044.339
6,False,357,"[(1057, 881)]",[],[1],[0.55],vertical,"(890.0, 262.0)",1.45,0.506,1,2048.968
6,False,358,"[(1082, 884)]",[],[1],[0.7],horizontal,"(890.0, 262.0)",1.1666666666666667,0.652,1,2054.13
6,False,359,"[(1066, 881)]",[],[1],[0.5666666666666667],vertical,"(890.0, 762.0)",1.4666666666666666,0.531,1,2059.271
6,False,360,"[(1061, 900)]",[],[1],[0.55],vertical,"(390.0, 262.0)",1.0,0.51,1,2064.565
7,False,361,"[(1064, 882)]",[],[1],[0.7666666666666666],horizontal,"(890.0, 762.0)",1.3666666666666667,0.721,1,2069.36
7,False,362,"[(1038, 875)]",[],[1],[0.1],horizontal,"(390.0, 262.0)",1.6333333333333333,0.07,1,2074.88
7,False,363,"[(1062, 876)]",[],[1],[0.5833333333333334],horizontal,"(890.0, 762.0)",1.2666666666666666,0.539,1,2079.388
7,False,364,"[(1068, 913)]",[],[1],[0.6166666666666667],horizontal,"(890.0, 262.0)",0.6833333333333333,0.568,1,2084.294
7,False,365,"[(1028, 860)]",[],[1],[0.5833333333333334],vertical,"(890.0, 762.0)",0.8333333333333334,0.537,1,2088.967
7,False,366,"[(1046, 881)]",[],[1],[0.6333333333333333],vertical,"(390.0, 262.0)",1.1666666666666667,0.589,1,2093.706
7,False,367,"[(1024, 880)]",[],[1],[0.6333333333333333],horizontal,"(390.0, 262.0)",0.7,0.583,1,2098.706
7,False,368,"[(1062, 881)]",[],[1],[0.48333333333333334],horizontal,"(390.0, 262.0)",1.35,0.443,1,2103.277
7,False,369,"[(1023, 900)]",[],[1],[0.5833333333333334],horizontal,"(890.0, 262.0)",1.3333333333333333,0.541,1,2107.675
7,False,370,"[(1060, 880)]",[],[1],[0.5833333333333334],horizontal,"(890.0, 262.0)",1.1666666666666667,0.54,1,2112.802
7,False,371,"[(1057, 874)]",[],[1],[0.6166666666666667],vertical,"(390.0, 762.0)",0.8666666666666667,0.574,1,2117.855
7,False,372,"[(1035, 863)]",[],[1],[0.5833333333333334],vertical,"(890.0, 762.0)",0.8166666666666667,0.54,1,2122.899
7,False,373,"[(1059, 884)]",[],[1],[0.6666666666666666],vertical,"(890.0, 762.0)",1.35,0.643,1,2127.7
7,False,374,"[(1063, 900)]",[],[1],[0.5666666666666667],vertical,"(390.0, 262.0)",1.5166666666666666,0.528,1,2133.011
7,False,375,"[(1060, 919)]",[],[1],[0.55],horizontal,"(890.0, 762.0)",0.85,0.51,1,2138.289
7,False,376,"[(1057, 877)]",[],[1],[0.75],vertical,"(390.0, 262.0)",0.5666666666666667,0.705,1,2142.551
7,False,377,"[(1071, 890)]",[],[1],[0.55],vertical,"(390.0, 262.0)",1.1333333333333333,0.515,1,2146.768
7,False,378,"[(1064, 873)]",[],[1],[0.6666666666666666],horizontal,"(890.0, 762.0)",0.6666666666666666,0.621,1,2151.135
7,False,379,"[(1054, 881)]",[],[1],[0.6166666666666667],vertical,"(390.0, 262.0)",1.3,0.579,1,2155.85
7,False,380,"[(1058, 871)]",[],[1],[0.5833333333333334],vertical,"(890.0, 762.0)",1.4333333333333333,0.547,1,2160.699
7,False,381,"[(1068, 873)]",[],[1],[0.75],horizontal,"(890.0, 762.0)",1.5833333333333333,0.703,1,2165.454
7,False,382,"[(1072, 876)]",[],[1],[0.55],horizontal,"(890.0, 262.0)",0.85,0.515,1,2170.92
7,False,383,"[(1059, 885)]",[],[1],[0.5833333333333334],horizontal,"(390.0, 262.0)",1.1,0.544,1,2175.341
7,False,384,"[(1082, 871)]",[],[1],[0.5833333333333334],vertical,"(390.0, 762.0)",0.7166666666666667,0.544,1,2179.829
7,False,385,"[(1055, 880)]",[],[1],[0.65],vertical,"(390.0, 262.0)",1.3166666666666667,0.608,1,2183.713
7,False,386,"[(1057, 878)]",[],[1],[0.5666666666666667],vertical,"(890.0, 262.0)",0.8,0.536,1,2188.956
7,False,387,"[(1077, 892)]",[],[1],[0.6333333333333333],vertical,"(390.0, 762.0)",0.6166666666666667,0.589,1,2193.425
7,False,388,"[(1044, 916)]",[],[1],[0.6833333333333333],vertical,"(390.0, 762.0)",0.95,0.636,1,2197.731
7,False,389,"[(1029, 868)]",[],[1],[0.5666666666666667],vertical,"(390.0, 262.0)",1.0166666666666666,0.528,1,2202.468
7,False,390,"[(1076, 885)]",[],[1],[0.5666666666666667],vertical,"(890.0, 762.0)",0.9166666666666666,0.525,1,2207.375
7,False,391,"[(1062, 879)]",[],[1],[0.6],horizontal,"(890.0, 262.0)",0.6333333333333333,0.555,1,2211.806
7,False,392,"[(1044, 881)]",[],[1],[0.6666666666666666],vertical,"(890.0, 762.0)",1.6166666666666667,0.62,1,2216.318
7,False,393,"[(1042, 881)]",[],[1],[0.5833333333333334],vertical,"(390.0, 762.0)",0.9,0.541,1,2222.155
7,False,394,"[(1054, 880)]",[],[1],[0.7],horizontal,"(390.0, 762.0)",1.5666666666666667,0.661,1,2226.733
7,False,395,"[(1014, 868)]",[],[1],[0.6666666666666666],vertical,"(890.0, 262.0)",1.4666666666666666,0.624,1,2231.822
7,False,396,"[(1059, 868)]",[],[1],[0.23333333333333334],horizontal,"(390.0, 762.0)",1.05,0.199,1,2237.186
7,False,397,"[(1057, 877)]",[],[1],[0.5666666666666667],vertical,"(390.0, 262.0)",1.1166666666666667,0.527,1,2241.622
7,False,398,"[(1067, 879)]",[],[1],[0.65],vertical,"(890.0, 762.0)",1.1833333333333333,0.616,1,2246.164
7,False,399,"[(1068, 882)]",[],[1],[0.55],horizontal,"(890.0, 262.0)",1.1166666666666667,0.507,1,2251.002
7,False,400,"[(1052, 883)]",[],[1],[0.6],vertical,"(890.0, 262.0)",1.0,0.563,1,2255.809
7,False,401,"[(1042, 909)]",[],[1],[],horizontal,"(390.0, 262.0)",,cti_phase,0,2260.429
7,False,402,"[(1067, 871)]",[],[1],[0.6],vertical,"(890.0, 762.0)",1.5666666666666667,0.555,1,2264.408
7,False,403,"[(1068, 893)]",[],[1],[0.5666666666666667],vertical,"(390.0, 262.0)",0.5833333333333334,0.529,1,2270.509
7,False,404,"[(1057, 891)]",[],[1],[0.23333333333333334],horizontal,"(890.0, 762.0)",1.65,0.203,1,2274.958
7,False,405,"[(1071, 899)]",[],[1],[0.5333333333333333],horizontal,"(390.0, 262.0)",0.9,0.495,1,2279.515
7,False,406,"[(1033, 867)]",[],[1],[0.7],horizontal,"(890.0, 262.0)",0.6166666666666667,0.656,1,2284.201
7,False,407,"[(1047, 881)]",[],[1],[0.5666666666666667],horizontal,"(890.0, 762.0)",0.9666666666666667,0.529,1,2288.953
7,False,408,"[(1046, 876)]",[],[1],[0.55],horizontal,"(390.0, 762.0)",1.4,0.51,1,2293.611
7,False,409,"[(1068, 878)]",[],[1],[0.5833333333333334],vertical,"(390.0, 262.0)",0.5666666666666667,0.547,1,2298.756
7,False,410,"[(1034, 872)]",[],[1],[0.5833333333333334],vertical,"(890.0, 262.0)",1.2833333333333332,0.538,1,2302.733
7,False,411,"[(1018, 880)]",[],[1],[0.5833333333333334],horizontal,"(390.0, 762.0)",1.2666666666666666,0.541,1,2307.513
7,False,412,"[(1083, 880)]",[],[1],[0.5833333333333334],vertical,"(890.0, 262.0)",1.6333333333333333,0.539,1,2312.906
7,False,413,"[(1067, 897)]",[],[1],[0.6166666666666667],vertical,"(890.0, 762.0)",1.5666666666666667,0.571,1,2318.233
7,False,414,"[(1047, 879)]",[],[1],[0.6166666666666667],horizontal,"(890.0, 262.0)",1.5,0.574,1,2323.089
7,False,415,"[(1042, 876)]",[],[1],[0.5666666666666667],vertical,"(390.0, 762.0)",0.6166666666666667,0.533,1,2328.491
7,False,416,"[(1057, 925)]",[],[1],[0.55],horizontal,"(390.0, 762.0)",0.6,0.507,1,2333.042
7,False,417,"[(1066, 877)]",[],[1],[0.6],vertical,"(890.0, 262.0)",1.6333333333333333,0.555,1,2376.268
7,False,418,"[(1076, 886)]",[],[1],[0.55],horizontal,"(890.0, 762.0)",1.0833333333333333,0.507,1,2381.185
7,False,419,"[(1059, 876)]",[],[1],[0.55],vertical,"(390.0, 762.0)",1.55,0.512,1,2385.851
7,False,420,"[(1067, 895)]",[],[1],[0.5666666666666667],vertical,"(890.0, 762.0)",1.4166666666666667,0.53,1,2390.89
8,False,421,"[(1017, 888)]",[],[1],[0.5666666666666667],vertical,"(390.0, 262.0)",1.2333333333333334,0.518,1,2396.088
8,False,422,"[(1065, 916)]",[],[1],[0.5666666666666667],horizontal,"(390.0, 762.0)",1.45,0.519,1,2402.846
8,False,423,"[(1036, 890)]",[],[1],[0.55],horizontal,"(890.0, 262.0)",1.4333333333333333,0.503,1,2408.09
8,False,424,"[(1069, 882)]",[],[1],[0.6],horizontal,"(390.0, 762.0)",0.8166666666666667,0.557,1,2413.487
8,False,425,"[(1071, 884)]",[],[1],[0.5166666666666666],horizontal,"(390.0, 262.0)",1.3666666666666667,0.473,1,2417.839
8,False,426,"[(1062, 897)]",[],[1],[0.85],vertical,"(390.0, 762.0)",0.65,0.793,0,2422.808
8,False,427,"[(1085, 864)]",[],[1],[0.6],vertical,"(890.0, 762.0)",1.6666666666666667,0.561,1,2427.34
8,False,428,"[(1072, 886)]",[],[1],[0.23333333333333334],horizontal,"(390.0, 262.0)",1.6166666666666667,0.204,1,2432.598
8,False,429,"[(1057, 899)]",[],[1],[0.5666666666666667],vertical,"(390.0, 762.0)",0.9666666666666667,0.524,1,2437.227
8,False,430,"[(1038, 880)]",[],[1],[0.5666666666666667],horizontal,"(890.0, 262.0)",1.6166666666666667,0.523,1,2441.883
8,False,431,"[(1048, 871)]",[],[1],[0.65],horizontal,"(390.0, 762.0)",0.8666666666666667,0.613,1,2446.983
8,False,432,"[(1047, 899)]",[],[1],[0.5833333333333334],horizontal,"(390.0, 262.0)",1.25,0.538,1,2451.467
8,False,433,"[(1064, 868)]",[],[1],[0.6],vertical,"(890.0, 262.0)",1.3833333333333333,0.553,1,2456.163
8,False,434,"[(1005, 882)]",[],[1],[0.6],vertical,"(890.0, 762.0)",0.9,0.555,1,2461.028
8,False,435,"[(1033, 898)]",[],[1],[0.55],horizontal,"(890.0, 262.0)",1.2,0.506,1,2465.599
8,False,436,"[(1081, 881)]",[],[1],[0.75],vertical,"(890.0, 262.0)",0.6166666666666667,0.698,1,2470.155
8,False,437,"[(1053, 876)]",[],[1],[0.6666666666666666],vertical,"(890.0, 762.0)",1.0833333333333333,0.622,1,2474.598
8,False,438,"[(1023, 871)]",[],[1],[0.6],vertical,"(890.0, 762.0)",1.15,0.553,1,2479.187
8,False,439,"[(1076, 877)]",[],[1],[0.6],vertical,"(890.0, 262.0)",1.2,0.554,1,2484.185
8,False,440,"[(1065, 881)]",[],[1],[0.5333333333333333],horizontal,"(890.0, 762.0)",0.7,0.499,1,2488.94
8,False,441,"[(1076, 893)]",[],[1],[0.65],horizontal,"(390.0, 762.0)",1.0,0.61,1,2492.905
8,False,442,"[(1081, 884)]",[],[1],[0.5333333333333333],horizontal,"(890.0, 262.0)",0.7,0.495,1,2497.923
8,False,443,"[(1065, 890)]",[],[1],[0.7],horizontal,"(890.0, 762.0)",1.15,0.655,1,2502.493
8,False,444,"[(1086, 872)]",[],[1],[0.5333333333333333],horizontal,"(890.0, 762.0)",0.85,0.499,1,2507.519
8,False,445,"[(1066, 872)]",[],[1],[0.5666666666666667],horizontal,"(890.0, 762.0)",1.2,0.527,1,2511.971
8,False,446,"[(1062, 867)]",[],[1],[0.08333333333333333],horizontal,"(390.0, 262.0)",1.55,0.053,1,2517.258
8,False,447,"[(1052, 890)]",[],[1],[0.6333333333333333],horizontal,"(390.0, 762.0)",1.05,0.591,1,2522.172
8,False,448,"[(1051, 869)]",[],[1],[0.5833333333333334],horizontal,"(890.0, 762.0)",1.2166666666666666,0.543,1,2526.767
8,False,449,"[(1047, 897)]",[],[1],[0.7166666666666667],vertical,"(390.0, 762.0)",1.3666666666666667,0.678,1,2531.489
8,False,450,"[(1050, 893)]",[],[1],[0.5666666666666667],vertical,"(390.0, 762.0)",0.8333333333333334,0.524,1,2537.028
8,False,451,"[(1046, 884)]",[],[1],[0.5666666666666667],horizontal,"(890.0, 762.0)",0.8666666666666667,0.527,1,2541.342
8,False,452,"[(1052, 890)]",[],[1],[0.5666666666666667],horizontal,"(890.0, 262.0)",0.9166666666666666,0.522,1,2545.779
8,False,453,"[(1063, 873)]",[],[1],[0.7166666666666667],vertical,"(390.0, 762.0)",1.2666666666666666,0.672,1,2550.088
8,False,454,"[(1043, 878)]",[],[1],[0.6166666666666667],horizontal,"(890.0, 762.0)",1.3833333333333333,0.574,1,2554.967
8,False,455,"[(1076, 903)]",[],[1],[0.5833333333333334],vertical,"(390.0, 262.0)",1.4166666666666667,0.542,1,2560.286
8,False,456,"[(1067, 871)]",[],[1],[0.6333333333333333],vertical,"(890.0, 762.0)",0.7333333333333333,0.596,1,2565.352
8,False,457,"[(1038, 885)]",[],[1],[0.5666666666666667],horizontal,"(390.0, 262.0)",0.6333333333333333,0.529,1,2569.396
8,False,458,"[(1076, 880)]",[],[1],[0.5333333333333333],vertical,"(890.0, 262.0)",1.45,0.497,1,2573.536
8,False,459,"[(1086, 890)]",[],[1],[0.55],vertical,"(890.0, 762.0)",1.4833333333333334,0.507,1,2578.473
8,False,460,"[(1047, 879)]",[],[1],[0.65],vertical,"(390.0, 762.0)",1.2166666666666666,0.616,1,2583.438
8,False,461,"[(1058, 875)]",[],[1],[0.5166666666666666],horizontal,"(390.0, 762.0)",1.1166666666666667,0.48,1,2588.737
8,False,462,"[(1041, 867)]",[],[1],[0.5666666666666667],horizontal,"(390.0, 262.0)",0.5,0.523,1,2593.665
8,False,463,"[(1072, 875)]",[],[1],[0.6166666666666667],vertical,"(890.0, 762.0)",1.6666666666666667,0.576,1,2597.951
8,False,464,"[(1038, 878)]",[],[1],[0.7],horizontal,"(890.0, 762.0)",1.4333333333333333,0.658,1,2603.039
8,False,465,"[(1042, 871)]",[],[1],[0.3],horizontal,"(390.0, 262.0)",1.4833333333333334,0.272,1,2608.068
8,False,466,"[(1073, 879)]",[],[1],[0.5333333333333333],horizontal,"(390.0, 762.0)",1.6,0.49,1,2612.756
8,False,467,"[(1050, 864)]",[],[1],[0.7],vertical,"(390.0, 762.0)",1.6666666666666667,0.653,1,2617.716
8,False,468,"[(1073, 890)]",[],[1],[0.5833333333333334],horizontal,"(390.0, 262.0)",1.4166666666666667,0.55,1,2622.75
8,False,469,"[(1045, 868)]",[],[1],[0.6166666666666667],horizontal,"(890.0, 762.0)",1.1,0.574,1,2627.928
8,False,470,"[(1076, 887)]",[],[1],[0.6333333333333333],vertical,"(390.0, 762.0)",1.2,0.598,1,2632.684
8,False,471,"[(1062, 870)]",[],[1],[0.48333333333333334],horizontal,"(390.0, 262.0)",1.3333333333333333,0.441,1,2637.612
8,False,472,"[(1071, 868)]",[],[1],[0.5666666666666667],horizontal,"(390.0, 762.0)",0.9,0.52,1,2642.606
8,False,473,"[(1072, 877)]",[],[1],[0.6],vertical,"(890.0, 762.0)",0.55,0.557,1,2647.358
8,False,474,"[(1053, 876)]",[],[1],[0.5833333333333334],horizontal,"(890.0, 762.0)",1.1166666666666667,0.541,1,2651.697
8,False,475,"[(1035, 884)]",[],[1],[0.5833333333333334],vertical,"(890.0, 762.0)",1.0166666666666666,0.54,1,2656.026
8,False,476,"[(1042, 871)]",[],[1],[0.6],vertical,"(890.0, 262.0)",1.05,0.561,1,2660.436
8,False,477,"[(1074, 885)]",[],[1],[0.5666666666666667],horizontal,"(390.0, 762.0)",0.7,0.524,1,2664.836
8,False,478,"[(1071, 885)]",[],[1],[0.5166666666666666],vertical,"(390.0, 262.0)",0.9166666666666666,0.48,1,2669.25
8,False,479,"[(1058, 887)]",[],[1],[0.55],vertical,"(890.0, 262.0)",1.6333333333333333,0.507,1,2673.78
8,False,480,"[(1072, 874)]",[],[1],[0.5333333333333333],horizontal,"(390.0, 262.0)",1.55,0.495,1,2679.084
9,False,481,"[(1038, 866)]",[],[1],[0.7],vertical,"(890.0, 762.0)",0.5166666666666666,0.658,1,2684.12
9,False,482,"[(1071, 862)]",[],[1],[0.6333333333333333],horizontal,"(390.0, 762.0)",1.2333333333333334,0.591,1,2688.149
9,False,483,"[(1047, 872)]",[],[1],[],horizontal,"(390.0, 262.0)",,cti_phase,0,2693.223
9,False,484,"[(1047, 853)]",[],[1],[0.55],vertical,"(390.0, 262.0)",1.55,0.509,1,2697.417
9,False,485,"[(1065, 885)]",[],[1],[0.5666666666666667],vertical,"(890.0, 762.0)",0.9166666666666666,0.523,1,2705.905
9,False,486,"[(1071, 876)]",[],[1],[0.5666666666666667],vertical,"(390.0, 762.0)",1.1666666666666667,0.526,1,2710.106
9,False,487,"[(1072, 881)]",[],[1],[0.5666666666666667],horizontal,"(890.0, 262.0)",0.6,0.524,1,2715.169
9,False,488,"[(1070, 862)]",[],[1],[0.6166666666666667],horizontal,"(890.0, 762.0)",1.5,0.57,1,2719.187
9,False,489,"[(1067, 878)]",[],[1],[0.5833333333333334],vertical,"(390.0, 262.0)",0.6166666666666667,0.541,1,2724.23
9,False,490,"[(1063, 894)]",[],[1],[0.5833333333333334],horizontal,"(890.0, 762.0)",1.1666666666666667,0.546,1,2728.439
9,False,491,"[(1062, 883)]",[],[1],[0.7666666666666666],vertical,"(390.0, 762.0)",0.8666666666666667,0.724,1,2733.29
9,False,492,"[(1038, 891)]",[],[1],[0.6666666666666666],vertical,"(390.0, 762.0)",1.35,0.627,1,2737.998
9,False,493,"[(1047, 890)]",[],[1],[0.5666666666666667],vertical,"(390.0, 262.0)",1.3833333333333333,0.524,1,2743.086
9,False,494,"[(1037, 876)]",[],[1],[0.65],vertical,"(890.0, 262.0)",0.8833333333333333,0.606,1,2747.894
9,False,495,"[(1048, 862)]",[],[1],[0.5833333333333334],vertical,"(390.0, 262.0)",0.7833333333333333,0.541,1,2752.69
9,False,496,"[(1057, 866)]",[],[1],[0.6],horizontal,"(390.0, 762.0)",0.9333333333333333,0.563,1,2756.796
9,False,497,"[(1033, 876)]",[],[1],[0.7333333333333333],horizontal,"(890.0, 762.0)",1.5666666666666667,0.692,1,2761.072
9,False,498,"[(1079, 886)]",[],[1],[0.55],horizontal,"(390.0, 762.0)",0.95,0.509,1,2766.501
9,False,499,"[(1047, 887)]",[],[1],[0.5833333333333334],vertical,"(890.0, 762.0)",1.5166666666666666,0.543,1,2770.906
9,False,500,"[(1063, 867)]",[],[1],[0.5666666666666667],horizontal,"(390.0, 762.0)",0.5333333333333333,0.523,1,2775.846
9,False,501,"[(1070, 870)]",[],[1],[0.65],vertical,"(890.0, 262.0)",1.0166666666666666,0.609,1,2780.042
9,False,502,"[(1023, 869)]",[],[1],[0.6833333333333333],horizontal,"(890.0, 262.0)",0.9833333333333333,0.645,1,2784.843
9,False,503,"[(1072, 879)]",[],[1],[0.5333333333333333],vertical,"(890.0, 262.0)",0.6166666666666667,0.495,1,2789.822
9,False,504,"[(1086, 877)]",[],[1],[0.6],vertical,"(390.0, 762.0)",1.6333333333333333,0.552,1,2793.741
9,False,505,"[(1057, 894)]",[],[1],[0.5833333333333334],vertical,"(390.0, 762.0)",1.45,0.54,1,2799.366
9,False,506,"[(1058, 880)]",[],[1],[0.55],horizontal,"(390.0, 762.0)",0.5666666666666667,0.512,1,2804.423
9,False,507,"[(1072, 881)]",[],[1],[0.55],vertical,"(390.0, 262.0)",0.6833333333333333,0.51,1,2808.873
9,False,508,"[(1070, 885)]",[],[1],[],horizontal,"(390.0, 262.0)",,cti_phase,0,2813.263
9,False,509,"[(1086, 864)]",[],[1],[0.6],vertical,"(390.0, 262.0)",1.2666666666666666,0.554,1,2817.106
9,False,510,"[(1086, 872)]",[],[1],[0.55],vertical,"(890.0, 262.0)",0.8,0.511,1,2821.719
9,False,511,"[(1052, 876)]",[],[1],[],vertical,"(390.0, 262.0)",,cti_phase,0,2826.237
9,False,512,"[(1073, 848)]",[],[1],[0.5833333333333334],horizontal,"(390.0, 762.0)",0.7,0.545,1,2830.225
9,False,513,"[(1076, 872)]",[],[1],[0.3833333333333333],horizontal,"(390.0, 262.0)",1.3,0.347,1,2835.028
9,False,514,"[(1047, 872)]",[],[1],[0.6166666666666667],vertical,"(890.0, 762.0)",0.7,0.573,1,2839.721
9,False,515,"[(1071, 872)]",[],[1],[0.5833333333333334],vertical,"(390.0, 262.0)",0.95,0.538,1,2844.431
9,False,516,"[(1050, 885)]",[],[1],[0.5833333333333334],vertical,"(390.0, 262.0)",0.7833333333333333,0.553,1,2848.939
9,False,517,"[(1062, 885)]",[],[1],[0.6],vertical,"(890.0, 262.0)",0.8666666666666667,0.552,1,2853.263
9,False,518,"[(1052, 880)]",[],[1],[0.7666666666666666],vertical,"(390.0, 262.0)",0.7833333333333333,0.72,1,2858.119
9,False,519,"[(1079, 871)]",[],[1],[0.5833333333333334],horizontal,"(390.0, 262.0)",0.8,0.541,1,2862.684
9,False,520,"[(1054, 889)]",[],[1],[0.5666666666666667],horizontal,"(890.0, 262.0)",0.5833333333333334,0.524,1,2866.972
9,False,521,"[(1052, 862)]",[],[1],[0.7333333333333333],vertical,"(390.0, 762.0)",0.6166666666666667,0.687,1,2870.826
9,False,522,"[(1046, 863)]",[],[1],[0.6333333333333333],vertical,"(390.0, 762.0)",0.9666666666666667,0.59,1,2875.479
9,False,523,"[(1072, 914)]",[],[1],[0.7166666666666667],vertical,"(390.0, 762.0)",0.8833333333333333,0.67,1,2880.266
9,False,524,"[(1047, 867)]",[],[1],[0.6333333333333333],vertical,"(890.0, 262.0)",1.6166666666666667,0.592,1,2885.029
9,False,525,"[(1070, 872)]",[],[1],[0.85],vertical,"(390.0, 262.0)",1.0166666666666666,0.795,0,2890.231
9,False,526,"[(1076, 890)]",[],[1],[0.6333333333333333],horizontal,"(390.0, 762.0)",1.5666666666666667,0.592,1,2895.34
9,False,527,"[(1057, 892)]",[],[1],[0.6166666666666667],horizontal,"(890.0, 762.0)",1.6833333333333333,0.569,1,2901.575
9,False,528,"[(1053, 885)]",[],[1],[0.6166666666666667],horizontal,"(390.0, 762.0)",0.8166666666666667,0.574,1,2906.91
9,False,529,"[(1049, 895)]",[],[1],[0.3833333333333333],vertical,"(390.0, 762.0)",1.2666666666666666,0.345,1,2911.416
9,False,530,"[(1074, 879)]",[],[1],[0.5666666666666667],vertical,"(390.0, 762.0)",0.95,0.528,1,2915.801
9,False,531,"[(950, 525), (725, 534), (1042, 282), (282, 641), (961, 250), (1153, 606), (1008, 473), (777, 613), (834, 708), (1153, 603), (792, 627), (1003, 399), (233, 444), (1008, 454), (898, 444), (893, 317), (797, 473), (930, 156), (1088, 478), (1038, 484), (927, 481), (255, 666), (739, 419), (1043, 478), (1004, 545), (869, 739), (1124, 775)]",[],"[0, 0, 0, 0, 0, 0, 0, 0, 0, 0, 0, 0, 0, 0, 0, 0, 0, 0, 0, 0, 0, 0, 0, 0, 0, 0, 1]",[],vertical,"(390.0, 762.0)",,fix_phase,0,2920.286
9,False,532,"[(1069, 884)]",[],[1],[],horizontal,"(890.0, 262.0)",,fix_phase,0,2980.803
9,False,533,"[(1054, 853)]",[],[1],[],vertical,"(890.0, 762.0)",,cti_phase,0,2982.92
9,False,534,"[(1057, 894)]",[],[1],[0.5333333333333333],horizontal,"(390.0, 762.0)",0.7666666666666666,0.49,1,2986.112
9,False,535,"[(1081, 882)]",[],[1],[],horizontal,"(890.0, 262.0)",,cti_phase,0,2990.667
9,False,536,"[(1069, 875)]",[],[1],[],horizontal,"(890.0, 762.0)",,cti_phase,0,2994.992
9,False,537,"[(1057, 502), (1042, 797)]",[],"[0, 1]",[0.4666666666666667],horizontal,"(890.0, 762.0)",0.5166666666666666,0.424,1,2998.684
9,False,538,"[(1074, 873)]",[],[1],[0.6166666666666667],horizontal,"(890.0, 762.0)",0.7666666666666666,0.574,1,3005.455
9,False,539,"[(1250, 913), (1072, 860)]",[],"[0, 1]",[],vertical,"(390.0, 262.0)",,cti_phase,0,3009.987
9,False,540,"[(1069, 863)]",[],[1],[0.45],vertical,"(390.0, 762.0)",0.9,0.41,1,3013.247
10,False,541,"[(1086, 894)]",[],[1],[0.85],vertical,"(390.0, 762.0)",1.6333333333333333,"cti_phase,0.799",0,3017.573
10,False,542,"[(1195, 889)]",[],[1],[],vertical,"(890.0, 762.0)",,cti_phase,0,3023.203
10,False,543,"[(1072, 849)]",[],[1],[],vertical,"(890.0, 762.0)",,cti_phase,0,3026.912
10,False,544,"[(1182, 923)]",[],[1],[],horizontal,"(890.0, 762.0)",,fix_phase,0,3030.931
10,False,545,"[(1082, 856)]",[],[1],[0.55],vertical,"(390.0, 262.0)",1.0333333333333332,0.515,1,3032.519
10,False,546,"[(1076, 938)]",[],[1],[0.5333333333333333],vertical,"(890.0, 262.0)",0.9833333333333333,0.492,1,3037.002
10,False,547,"[(1077, 885)]",[],[1],[0.6333333333333333],vertical,"(890.0, 762.0)",1.0666666666666667,0.593,1,3041.277
10,False,548,"[(1067, 885)]","[(1067, 885)]",[1],[0.45],horizontal,"(890.0, 762.0)",,bar_phase,0,3046.163
10,False,549,"[(20, 121), (1063, 879)]","[(1063, 879)]","[0, 1]",[0.05],horizontal,"(890.0, 762.0)",,bar_phase,0,3049.056
10,False,550,"[(1091, 878)]",[],[1],[],vertical,"(390.0, 262.0)",,cti_phase,0,3051.384
10,False,551,"[(92, 286), (1082, 854)]",[],"[0, 1]",[0.55],vertical,"(390.0, 762.0)",1.05,0.514,1,3056.809
10,False,552,"[(117, 151), (1081, 89), (1085, 842)]",[],"[0, 0, 1]",[0.4],horizontal,"(890.0, 762.0)",1.2,0.361,1,3061.691
10,False,553,"[(1067, 898)]",[],[1],[0.55],horizontal,"(390.0, 762.0)",0.6166666666666667,0.514,1,3068.547
10,False,554,"[(118, 588), (992, 887), (1079, 865)]",[],"[0, 0, 1]",[0.5],vertical,"(390.0, 262.0)",1.65,0.458,1,3072.692
10,False,555,"[(1072, 880)]","[(1076, 876)]",[1],[0.7],vertical,"(890.0, 262.0)",,bar_phase,0,3079.423
10,False,556,"[(1069, 856)]",[],[1],[0.85],vertical,"(390.0, 262.0)",0.9,0.817,0,3082.485
10,False,557,"[(1061, 860)]",[],[1],[0.23333333333333334],vertical,"(890.0, 762.0)",1.55,0.205,1,3087.456
10,False,558,"[(1047, 872)]",[],[1],[0.65],vertical,"(390.0, 262.0)",0.7666666666666666,0.614,1,3092.752
10,False,559,"[(1051, 882)]",[],[1],[0.5166666666666666],vertical,"(390.0, 762.0)",1.0166666666666666,0.484,1,3097.552
10,False,560,"[(1058, 895)]",[],[1],[0.5666666666666667],vertical,"(890.0, 262.0)",1.3,0.523,1,3101.99
10,False,561,"[(1055, 874)]",[],[1],[0.6833333333333333],vertical,"(390.0, 762.0)",1.6,0.637,1,3106.873
10,False,562,"[(1069, 880)]",[],[1],[0.1],vertical,"(390.0, 762.0)",1.15,0.067,1,3112.585
10,False,563,"[(1052, 885)]",[],[1],[0.85],horizontal,"(890.0, 762.0)",0.6833333333333333,0.815,0,3117.074
10,False,564,"[(1044, 862)]",[],[1],[0.85],vertical,"(390.0, 762.0)",1.65,0.804,0,3121.914
10,False,565,"[(1077, 863)]",[],[1],[0.2833333333333333],horizontal,"(890.0, 262.0)",1.6666666666666667,0.244,1,3127.266
10,False,566,"[(165, 214), (1072, 845)]",[],"[0, 1]",[0.13333333333333333],horizontal,"(390.0, 262.0)",1.3666666666666667,0.103,1,3138.623
10,False,567,"[(270, 315), (926, 799), (883, 262), (1033, 874)]",[],"[0, 0, 0, 1]",[0.13333333333333333],horizontal,"(890.0, 262.0)",1.15,0.101,1,3145.52
10,False,568,"[(900, 866), (1075, 871)]",[],"[0, 1]",[0.5666666666666667],vertical,"(890.0, 262.0)",1.2,0.531,1,3167.717
10,False,569,"[(1081, 866)]",[],[1],[0.7666666666666666],horizontal,"(390.0, 262.0)",0.7833333333333333,0.728,1,3174.535
10,False,570,"[(1076, 853)]",[],[1],[0.05],vertical,"(890.0, 762.0)",1.3333333333333333,0.018,1,3178.987
10,False,571,"[(1075, 876)]",[],[1],[0.6833333333333333],horizontal,"(390.0, 262.0)",1.1333333333333333,0.642,1,3185.982
10,False,572,"[(1069, 887)]",[],[1],[0.4666666666666667],vertical,"(390.0, 262.0)",1.45,0.428,1,3190.896
10,False,573,"[(1051, 894)]",[],[1],[0.85],horizontal,"(890.0, 262.0)",0.5,0.806,0,3196.006
10,False,574,"[(1076, 877)]",[],[1],[0.85],vertical,"(890.0, 262.0)",1.4333333333333333,0.808,0,3200.189
10,False,575,"[(1066, 882)]",[],[1],[0.5666666666666667],vertical,"(890.0, 262.0)",0.8666666666666667,0.539,1,3208.707
10,False,576,"[(1074, 880)]",[],[1],[0.85],horizontal,"(390.0, 762.0)",1.3833333333333333,0.801,0,3213.325
10,False,577,"[(1038, 861)]",[],[1],[0.5833333333333334],vertical,"(890.0, 762.0)",1.4166666666666667,0.536,1,3218.822
10,False,578,"[(1072, 895)]",[],[1],[0.5833333333333334],vertical,"(390.0, 262.0)",0.7833333333333333,0.542,1,3224.32
10,False,579,"[(1057, 887)]",[],[1],[0.85],horizontal,"(890.0, 262.0)",1.6833333333333333,0.799,0,3228.967
10,False,580,"[(1070, 867)]",[],[1],[0.85],vertical,"(890.0, 762.0)",0.7833333333333333,0.798,0,3234.581
10,False,581,"[(1042, 881)]",[],[1],[0.5666666666666667],vertical,"(390.0, 262.0)",1.0833333333333333,0.519,1,3238.985
10,False,582,"[(1044, 881)]",[],[1],[0.5666666666666667],horizontal,"(390.0, 762.0)",1.1333333333333333,0.526,1,3260.39
10,False,583,"[(1076, 890)]",[],[1],[0.5666666666666667],horizontal,"(890.0, 762.0)",0.7666666666666666,0.524,1,3265.185
10,False,584,"[(1071, 879)]",[],[1],[0.6166666666666667],vertical,"(390.0, 262.0)",1.0,0.577,1,3269.607
10,False,585,"[(1063, 885)]",[],[1],[0.5833333333333334],vertical,"(890.0, 762.0)",0.6833333333333333,0.544,1,3274.105
10,False,586,"[(1075, 892)]",[],[1],[0.5666666666666667],horizontal,"(890.0, 262.0)",1.6,0.523,1,3278.238
10,False,587,"[(1056, 875)]",[],[1],[0.5833333333333334],vertical,"(890.0, 762.0)",1.35,0.538,1,3283.358
10,False,588,"[(1084, 868)]",[],[1],[0.55],horizontal,"(890.0, 262.0)",1.2833333333333332,0.509,1,3288.436
10,False,589,"[(1072, 880)]",[],[1],[0.5666666666666667],vertical,"(390.0, 762.0)",0.8833333333333333,0.525,1,3293.585
10,False,590,"[(1046, 868)]",[],[1],[0.5833333333333334],horizontal,"(890.0, 762.0)",1.3,0.537,1,3298.374
10,False,591,"[(1064, 890)]",[],[1],[0.1],horizontal,"(390.0, 262.0)",1.3833333333333333,0.067,1,3304.096
10,False,592,"[(1053, 872)]",[],[1],[0.5666666666666667],vertical,"(390.0, 262.0)",1.45,0.524,1,3308.456
10,False,593,"[(1069, 876)]",[],[1],[0.5833333333333334],vertical,"(890.0, 762.0)",1.2666666666666666,0.544,1,3313.518
10,False,594,"[(1076, 862)]",[],[1],[0.5666666666666667],vertical,"(890.0, 762.0)",0.5833333333333334,0.526,1,3318.686
10,False,595,"[(1081, 889)]",[],[1],[0.6166666666666667],horizontal,"(390.0, 762.0)",0.5166666666666666,0.571,1,3323.266
10,False,596,"[(1077, 849)]",[],[1],[0.6166666666666667],horizontal,"(390.0, 762.0)",1.65,0.577,1,3326.998
10,False,597,"[(1076, 868)]",[],[1],[0.6166666666666667],vertical,"(390.0, 262.0)",0.85,0.575,1,3331.886
10,False,598,"[(1042, 851)]",[],[1],[0.55],vertical,"(890.0, 262.0)",1.6,0.507,1,3336.532
10,False,599,"[(1059, 862)]",[],[1],[0.6166666666666667],horizontal,"(390.0, 762.0)",1.1,0.574,1,3341.68
10,False,600,"[(1077, 858)]",[],[1],[0.4666666666666667],vertical,"(390.0, 262.0)",1.6666666666666667,0.421,1,3346.504
11,False,601,"[(1076, 871)]",[],[1],[0.5833333333333334],horizontal,"(390.0, 762.0)",0.85,0.539,1,3351.89
11,False,602,"[(1076, 881)]",[],[1],[0.65],horizontal,"(890.0, 762.0)",0.6,0.607,1,3356.404
11,False,603,"[(1081, 876)]",[],[1],[],vertical,"(390.0, 762.0)",,cti_phase,0,3360.551
11,False,604,"[(1076, 871)]",[],[1],[0.5833333333333334],horizontal,"(390.0, 762.0)",0.7666666666666666,0.546,1,3364.699
11,False,605,"[(1081, 870)]",[],[1],[0.5],horizontal,"(390.0, 262.0)",1.0166666666666666,0.459,1,3368.889
11,False,606,"[(1078, 849)]",[],[1],[0.5833333333333334],vertical,"(890.0, 262.0)",1.1166666666666667,0.541,1,3373.076
11,False,607,"[(1072, 867)]",[],[1],[0.6],horizontal,"(890.0, 262.0)",0.5666666666666667,0.566,1,3377.743
11,False,608,"[(1081, 862)]",[],[1],[0.5833333333333334],horizontal,"(890.0, 762.0)",0.7,0.539,1,3382.139
11,False,609,"[(1077, 867)]",[],[1],[0.5666666666666667],vertical,"(390.0, 262.0)",0.7833333333333333,0.528,1,3386.282
11,False,610,"[(1081, 868)]",[],[1],[0.6166666666666667],horizontal,"(390.0, 762.0)",0.9166666666666666,0.581,1,3391.006
11,False,611,"[(1081, 878)]",[],[1],[0.5333333333333333],horizontal,"(890.0, 262.0)",1.5166666666666666,0.492,1,3395.484
11,False,612,"[(1067, 876)]",[],[1],[0.55],horizontal,"(890.0, 762.0)",1.15,0.508,1,3400.301
11,False,613,"[(1047, 858)]",[],[1],[0.5833333333333334],vertical,"(390.0, 762.0)",1.1666666666666667,0.545,1,3404.582
11,False,614,"[(1052, 857)]",[],[1],[0.6666666666666666],horizontal,"(390.0, 262.0)",0.7166666666666667,0.63,1,3409.104
11,False,615,"[(1072, 869)]",[],[1],[0.5833333333333334],vertical,"(890.0, 262.0)",1.5833333333333333,0.542,1,3413.836
11,False,616,"[(1081, 853)]",[],[1],[0.6166666666666667],vertical,"(890.0, 262.0)",0.6,0.584,1,3418.776
11,False,617,"[(1078, 866)]",[],[1],[0.55],horizontal,"(890.0, 262.0)",1.05,0.51,1,3422.475
11,False,618,"[(1081, 863)]",[],[1],[0.7],vertical,"(390.0, 762.0)",1.2833333333333332,0.661,1,3427.374
11,False,619,"[(1081, 857)]",[],[1],[0.5666666666666667],vertical,"(890.0, 762.0)",1.2166666666666666,0.524,1,3432.171
11,False,620,"[(1062, 872)]",[],[1],[0.5833333333333334],horizontal,"(390.0, 262.0)",0.7333333333333333,0.536,1,3436.607
11,False,621,"[(1081, 885)]",[],[1],[0.5833333333333334],horizontal,"(890.0, 262.0)",0.6,0.537,1,3441.141
11,False,622,"[(1076, 869)]",[],[1],[0.8333333333333334],horizontal,"(390.0, 262.0)",0.8,0.791,1,3445.156
11,False,623,"[(1081, 887)]",[],[1],[0.55],vertical,"(890.0, 762.0)",0.6,0.516,1,3449.974
11,False,624,"[(1076, 860)]",[],[1],[0.5666666666666667],vertical,"(390.0, 762.0)",0.9666666666666667,0.532,1,3454.1
11,False,625,"[(1052, 856)]",[],[1],[0.5833333333333334],horizontal,"(890.0, 762.0)",0.65,0.541,1,3458.42
11,False,626,"[(1076, 895)]",[],[1],[0.5166666666666666],vertical,"(390.0, 262.0)",1.6166666666666667,0.479,1,3462.881
11,False,627,"[(1067, 885)]",[],[1],[0.6666666666666666],horizontal,"(890.0, 262.0)",1.6666666666666667,0.62,1,3468.152
11,False,628,"[(1060, 863)]",[],[1],[0.55],horizontal,"(390.0, 262.0)",0.6666666666666666,0.508,1,3473.498
11,False,629,"[(1071, 862)]",[],[1],[0.6166666666666667],vertical,"(390.0, 762.0)",0.8666666666666667,0.574,1,3477.856
11,False,630,"[(1081, 857)]",[],[1],[0.5333333333333333],vertical,"(890.0, 262.0)",0.8333333333333334,0.497,1,3482.37
11,False,631,"[(1081, 877)]",[],[1],[0.55],vertical,"(390.0, 762.0)",1.2166666666666666,0.512,1,3487.136
11,False,632,"[(1072, 862)]",[],[1],[0.5166666666666666],horizontal,"(390.0, 762.0)",1.4333333333333333,0.474,1,3491.908
11,False,633,"[(1072, 855)]",[],[1],[0.55],horizontal,"(390.0, 762.0)",1.15,0.51,1,3496.988
11,False,634,"[(1081, 881)]",[],[1],[0.5833333333333334],horizontal,"(390.0, 762.0)",1.2,0.541,1,3501.957
11,False,635,"[(1062, 882)]",[],[1],[0.6166666666666667],horizontal,"(390.0, 762.0)",1.0,0.571,1,3507.111
11,False,636,"[(1081, 874)]",[],[1],[0.85],horizontal,"(390.0, 262.0)",1.0333333333333332,0.812,0,3511.871
11,False,637,"[(1067, 868)]",[],[1],[0.6166666666666667],horizontal,"(890.0, 762.0)",1.6666666666666667,0.57,1,3516.675
11,False,638,"[(1062, 859)]",[],[1],[0.6333333333333333],horizontal,"(390.0, 762.0)",1.5166666666666666,0.588,1,3521.83
11,False,639,"[(1057, 864)]",[],[1],[0.6666666666666666],vertical,"(890.0, 262.0)",1.3666666666666667,0.62,1,3526.931
11,False,640,"[(1067, 872)]",[],[1],[0.6833333333333333],horizontal,"(390.0, 762.0)",0.9,0.64,1,3532.088
11,False,641,"[(1076, 872)]",[],[1],[0.5833333333333334],vertical,"(390.0, 262.0)",1.4,0.542,1,3536.452
11,False,642,"[(1081, 875)]",[],[1],[0.5666666666666667],horizontal,"(390.0, 262.0)",1.3666666666666667,0.525,1,3541.407
11,False,643,"[(1087, 866)]",[],[1],[0.55],vertical,"(890.0, 262.0)",0.7333333333333333,0.512,1,3546.229
11,False,644,"[(1079, 897)]",[],[1],[0.5833333333333334],horizontal,"(390.0, 762.0)",1.5,0.538,1,3550.773
11,False,645,"[(1067, 885)]",[],[1],[0.6],vertical,"(890.0, 762.0)",1.55,0.556,1,3555.598
11,False,646,"[(1081, 851)]",[],[1],[0.15],vertical,"(390.0, 262.0)",1.6833333333333333,0.118,1,3560.862
11,False,647,"[(1079, 866)]",[],[1],[0.55],vertical,"(390.0, 262.0)",1.3833333333333333,0.507,1,3566.024
11,False,648,"[(1058, 876)]",[],[1],[0.5666666666666667],horizontal,"(390.0, 262.0)",0.5666666666666667,0.523,1,3571.235
11,False,649,"[(1075, 884)]",[],[1],[0.5666666666666667],horizontal,"(390.0, 262.0)",0.5833333333333334,0.527,1,3575.269
11,False,650,"[(1077, 858)]",[],[1],[0.5666666666666667],vertical,"(390.0, 262.0)",0.6,0.528,1,3579.818
11,False,651,"[(1074, 885)]",[],[1],[0.5],vertical,"(890.0, 262.0)",1.1,0.457,1,3584.392
11,False,652,"[(1058, 881)]",[],[1],[0.5833333333333334],vertical,"(390.0, 262.0)",0.55,0.543,1,3589.384
11,False,653,"[(1067, 884)]",[],[1],[0.5833333333333334],horizontal,"(390.0, 762.0)",0.7833333333333333,0.544,1,3593.755
11,False,654,"[(1052, 886)]",[],[1],[0.5833333333333334],vertical,"(390.0, 762.0)",1.3666666666666667,0.541,1,3598.233
11,False,655,"[(1072, 876)]",[],[1],[0.5833333333333334],horizontal,"(890.0, 762.0)",0.85,0.535,1,3603.441
11,False,656,"[(1081, 884)]",[],[1],[0.6166666666666667],horizontal,"(890.0, 762.0)",1.5833333333333333,0.573,1,3607.937
11,False,657,"[(1077, 895)]",[],[1],[0.7166666666666667],horizontal,"(390.0, 762.0)",1.45,0.672,1,3613.219
11,False,658,"[(1056, 894)]",[],[1],[0.6833333333333333],horizontal,"(390.0, 262.0)",0.9,0.637,1,3618.65
11,False,659,"[(1047, 863)]",[],[1],[0.65],vertical,"(890.0, 262.0)",1.1666666666666667,0.598,1,3623.005
11,False,660,"[(1058, 896)]",[],[1],[0.6666666666666666],vertical,"(890.0, 262.0)",1.2666666666666666,0.622,1,3627.769
12,False,661,"[(1042, 885)]",[],[1],[0.65],vertical,"(890.0, 262.0)",1.1,0.601,1,3632.241
12,False,662,"[(1081, 866)]",[],[1],[],horizontal,"(390.0, 262.0)",,cti_phase,0,3637.008
12,False,663,"[(1055, 885)]",[],[1],[0.6],horizontal,"(390.0, 762.0)",0.9333333333333333,0.554,1,3641.557
12,False,664,"[(1080, 892)]",[],[1],[0.6833333333333333],horizontal,"(890.0, 762.0)",1.65,0.638,1,3646.228
12,False,665,"[(1076, 855)]",[],[1],[0.6166666666666667],horizontal,"(390.0, 262.0)",0.9666666666666667,0.573,1,3651.892
12,False,666,"[(1074, 880)]",[],[1],[0.6166666666666667],horizontal,"(390.0, 262.0)",0.5166666666666666,0.569,1,3656.436
12,False,667,"[(1048, 850)]",[],[1],[0.5666666666666667],vertical,"(390.0, 762.0)",1.0,0.521,1,3660.735
12,False,668,"[(1076, 848)]",[],[1],[0.55],vertical,"(890.0, 262.0)",0.5666666666666667,0.506,1,3664.885
12,False,669,"[(1071, 888)]",[],[1],[0.6],vertical,"(890.0, 262.0)",1.45,0.553,1,3669.168
12,False,670,"[(1062, 896)]",[],[1],[0.7],vertical,"(390.0, 762.0)",0.8166666666666667,0.658,1,3674.588
12,False,671,"[(1071, 875)]",[],[1],[0.5333333333333333],horizontal,"(890.0, 262.0)",0.9333333333333333,0.491,1,3679.354
12,False,672,"[(1080, 862)]",[],[1],[0.7333333333333333],vertical,"(390.0, 762.0)",1.05,0.686,1,3683.55
12,False,673,"[(1053, 880)]",[],[1],[],horizontal,"(390.0, 262.0)",,cti_phase,0,3688.635
12,False,674,"[(1081, 847)]",[],[1],[0.5833333333333334],vertical,"(390.0, 262.0)",0.7333333333333333,0.538,1,3693.334
12,False,675,"[(1077, 880)]",[],[1],[0.75],vertical,"(890.0, 262.0)",1.0833333333333333,0.705,1,3697.541
12,False,676,"[(1081, 871)]",[],[1],[0.7],horizontal,"(890.0, 262.0)",0.9833333333333333,0.65,1,3702.191
12,False,677,"[(1081, 897)]",[],[1],[0.5666666666666667],horizontal,"(390.0, 262.0)",1.6333333333333333,0.525,1,3706.855
12,False,678,"[(1042, 893)]",[],[1],[0.5833333333333334],horizontal,"(890.0, 262.0)",1.5,0.537,1,3711.782
12,False,679,"[(1076, 886)]",[],[1],[0.5833333333333334],vertical,"(890.0, 762.0)",0.7,0.544,1,3716.941
12,False,680,"[(1047, 856)]",[],[1],[0.7333333333333333],vertical,"(390.0, 262.0)",1.4166666666666667,0.685,1,3721.462
12,False,681,"[(1063, 897)]",[],[1],[0.6166666666666667],horizontal,"(890.0, 762.0)",1.15,0.573,1,3726.892
12,False,682,"[(1076, 885)]",[],[1],[0.6333333333333333],vertical,"(390.0, 262.0)",0.7166666666666667,0.588,1,3731.834
12,False,683,"[(1047, 890)]",[],[1],[0.7833333333333333],vertical,"(890.0, 262.0)",0.6,0.734,1,3736.47
12,False,684,"[(1057, 881)]",[],[1],[0.7333333333333333],vertical,"(890.0, 262.0)",1.2166666666666666,0.684,1,3740.537
12,False,685,"[(1066, 901)]",[],[1],[0.5833333333333334],vertical,"(890.0, 262.0)",0.5833333333333334,0.54,1,3745.086
12,False,686,"[(1081, 900)]",[],[1],[0.6166666666666667],vertical,"(390.0, 262.0)",0.7666666666666666,0.588,1,3748.784
12,False,687,"[(1071, 896)]",[],[1],[0.5333333333333333],horizontal,"(890.0, 262.0)",1.1666666666666667,0.498,1,3753.204
12,False,688,"[(1076, 880)]",[],[1],[0.5666666666666667],vertical,"(890.0, 262.0)",0.7666666666666666,0.529,1,3757.939
12,False,689,"[(1076, 874)]",[],[1],[0.55],horizontal,"(390.0, 262.0)",0.9,0.508,1,3761.853
12,False,690,"[(1063, 885)]",[],[1],[0.6333333333333333],vertical,"(890.0, 762.0)",1.2,0.587,1,3766.102
12,False,691,"[(1052, 896)]",[],[1],[0.5666666666666667],horizontal,"(890.0, 262.0)",1.4333333333333333,0.523,1,3770.825
12,False,692,"[(1077, 885)]",[],[1],[0.31666666666666665],vertical,"(390.0, 262.0)",1.6166666666666667,0.279,1,3775.371
12,False,693,"[(1055, 866)]",[],[1],[0.3333333333333333],vertical,"(890.0, 762.0)",1.65,0.293,1,3780.364
12,False,694,"[(1062, 885)]",[],[1],[0.5833333333333334],vertical,"(390.0, 762.0)",1.55,0.54,1,3785.118
12,False,695,"[(1048, 857)]",[],[1],[0.6333333333333333],horizontal,"(390.0, 762.0)",0.9833333333333333,0.595,1,3790.091
12,False,696,"[(1071, 894)]",[],[1],[0.5833333333333334],horizontal,"(890.0, 262.0)",0.7333333333333333,0.542,1,3794.757
12,False,697,"[(1042, 888)]",[],[1],[0.5833333333333334],vertical,"(890.0, 262.0)",1.55,0.546,1,3799.073
12,False,698,"[(1078, 867)]",[],[1],[0.7666666666666666],vertical,"(390.0, 762.0)",1.5333333333333332,0.731,1,3804.326
12,False,699,"[(1054, 885)]",[],[1],[0.6],horizontal,"(890.0, 762.0)",1.35,0.564,1,3809.321
12,False,700,"[(1076, 862)]",[],[1],[0.85],horizontal,"(390.0, 262.0)",0.8833333333333333,0.804,0,3814.031
12,False,701,"[(1067, 886)]",[],[1],[0.5833333333333334],vertical,"(390.0, 762.0)",0.6166666666666667,0.54,1,3819.98
12,False,702,"[(1075, 890)]",[],[1],[0.6833333333333333],vertical,"(890.0, 262.0)",0.5,0.646,1,3824.235
12,False,703,"[(1081, 890)]",[],[1],[0.6333333333333333],vertical,"(890.0, 762.0)",1.6333333333333333,0.592,1,3828.779
12,False,704,"[(1058, 886)]",[],[1],[0.7],horizontal,"(390.0, 762.0)",0.6166666666666667,0.657,1,3833.645
12,False,705,"[(1042, 880)]",[],[1],[0.5833333333333334],vertical,"(390.0, 762.0)",1.3333333333333333,0.548,1,3837.779
12,False,706,"[(1049, 878)]",[],[1],[0.6166666666666667],vertical,"(390.0, 262.0)",0.85,0.577,1,3842.653
12,False,707,"[(1038, 895)]",[],[1],[0.5833333333333334],horizontal,"(390.0, 762.0)",1.6333333333333333,0.543,1,3847.142
12,False,708,"[(1054, 879)]",[],[1],[0.5833333333333334],horizontal,"(890.0, 762.0)",1.5833333333333333,0.536,1,3852.018
12,False,709,"[(1057, 886)]",[],[1],[0.65],vertical,"(890.0, 762.0)",1.55,0.603,1,3857.244
12,False,710,"[(1081, 861)]",[],[1],[0.5666666666666667],vertical,"(390.0, 762.0)",0.85,0.523,1,3862.19
12,False,711,"[(1081, 900)]",[],[1],[0.5833333333333334],horizontal,"(890.0, 762.0)",0.5833333333333334,0.542,1,3866.506
12,False,712,"[(1063, 894)]",[],[1],[0.6666666666666666],horizontal,"(390.0, 762.0)",1.3333333333333333,0.622,1,3870.923
12,False,713,"[(1066, 876)]",[],[1],[0.5833333333333334],horizontal,"(890.0, 762.0)",0.8,0.538,1,3876.125
12,False,714,"[(1081, 876)]",[],[1],[0.5666666666666667],vertical,"(890.0, 262.0)",0.9166666666666666,0.528,1,3880.308
12,False,715,"[(1067, 886)]",[],[1],[0.5333333333333333],vertical,"(890.0, 262.0)",0.7,0.492,1,3884.641
12,False,716,"[(1078, 873)]",[],[1],[0.4666666666666667],vertical,"(390.0, 262.0)",1.2,0.429,1,3888.765
12,False,717,"[(1079, 883)]",[],[1],[0.5],horizontal,"(390.0, 762.0)",1.4,0.464,1,3893.242
12,False,718,"[(1071, 884)]",[],[1],[0.5833333333333334],horizontal,"(390.0, 762.0)",1.3166666666666667,0.547,1,3898.421
12,False,719,"[(1066, 892)]",[],[1],[0.6],horizontal,"(890.0, 762.0)",0.65,0.558,1,3903.517
12,False,720,"[(1060, 876)]",[],[1],[0.6666666666666666],horizontal,"(390.0, 762.0)",1.6833333333333333,0.624,1,3907.577
13,False,721,"[(1078, 871)]",[],[1],[0.6166666666666667],vertical,"(390.0, 762.0)",1.6666666666666667,0.577,1,3912.721
13,False,722,"[(1044, 876)]",[],[1],[],horizontal,"(390.0, 262.0)",,cti_phase,0,3917.791
13,False,723,"[(1047, 863)]",[],[1],[0.7],horizontal,"(890.0, 762.0)",0.9166666666666666,0.658,1,3921.888
13,False,724,"[(1076, 876)]",[],[1],[0.6166666666666667],vertical,"(890.0, 762.0)",1.0166666666666666,0.58,1,3928.885
13,False,725,"[(1067, 884)]",[],[1],[0.6],horizontal,"(890.0, 262.0)",0.75,0.554,1,3933.698
13,False,726,"[(1081, 880)]",[],[1],[0.6166666666666667],horizontal,"(390.0, 762.0)",1.1166666666666667,0.577,1,3937.735
13,False,727,"[(1057, 885)]",[],[1],[],horizontal,"(390.0, 262.0)",,cti_phase,0,3942.533
13,False,728,"[(1081, 876)]",[],[1],[0.5333333333333333],horizontal,"(890.0, 262.0)",0.7166666666666667,0.496,1,3948.273
13,False,729,"[(1081, 871)]",[],[1],[0.55],horizontal,"(890.0, 262.0)",0.5,0.508,1,3952.368
13,False,730,"[(1081, 869)]",[],[1],[0.3],horizontal,"(390.0, 262.0)",1.55,0.27,1,3956.383
13,False,731,"[(1076, 884)]",[],[1],[0.7166666666666667],vertical,"(390.0, 262.0)",1.35,0.672,1,3961.254
13,False,732,"[(1081, 862)]",[],[1],[0.3],horizontal,"(390.0, 262.0)",1.5666666666666667,0.269,1,3966.424
13,False,733,"[(1081, 885)]",[],[1],[0.85],horizontal,"(890.0, 262.0)",0.7666666666666666,0.804,0,3971.495
13,False,734,"[(1079, 871)]",[],[1],[0.5833333333333334],horizontal,"(890.0, 262.0)",1.4666666666666666,0.546,1,3976.346
13,False,735,"[(1063, 861)]",[],[1],[0.6333333333333333],horizontal,"(890.0, 762.0)",0.6166666666666667,0.599,1,3981.329
13,False,736,"[(1083, 867)]",[],[1],[0.6166666666666667],vertical,"(390.0, 262.0)",1.2666666666666666,0.576,1,3985.601
13,False,737,"[(1081, 889)]",[],[1],[0.5333333333333333],vertical,"(890.0, 262.0)",0.7166666666666667,0.491,1,3990.431
13,False,738,"[(1081, 862)]",[],[1],[0.5166666666666666],vertical,"(390.0, 262.0)",0.9166666666666666,0.48,1,3995.142
13,False,739,"[(1062, 871)]",[],[1],[0.5666666666666667],horizontal,"(890.0, 262.0)",1.35,0.523,1,3999.953
13,False,740,"[(1066, 879)]",[],[1],[0.6],vertical,"(390.0, 762.0)",1.6,0.558,1,4004.457
13,False,741,"[(1081, 866)]",[],[1],[0.85],vertical,"(890.0, 262.0)",1.35,0.809,0,4009.825
13,False,742,"[(1011, 872)]",[],[1],[0.6],horizontal,"(890.0, 262.0)",1.2833333333333332,0.556,1,4014.988
13,False,743,"[(1081, 867)]",[],[1],[0.55],vertical,"(390.0, 262.0)",1.1166666666666667,0.504,1,4020.387
13,False,744,"[(1076, 876)]",[],[1],[0.5833333333333334],horizontal,"(390.0, 762.0)",1.6666666666666667,0.542,1,4024.786
13,False,745,"[(1079, 858)]",[],[1],[0.6833333333333333],horizontal,"(890.0, 762.0)",1.5833333333333333,0.65,1,4029.637
13,False,746,"[(1038, 862)]",[],[1],[0.5666666666666667],horizontal,"(390.0, 262.0)",0.5,0.526,1,4034.742
13,False,747,"[(1072, 871)]",[],[1],[0.5833333333333334],vertical,"(890.0, 262.0)",0.6666666666666666,0.534,1,4038.99
13,False,748,"[(1052, 868)]",[],[1],[0.7333333333333333],horizontal,"(890.0, 262.0)",1.05,0.683,1,4043.738
13,False,749,"[(1076, 890)]",[],[1],[0.5666666666666667],horizontal,"(890.0, 262.0)",1.1,0.537,1,4048.331
13,False,750,"[(1062, 875)]",[],[1],[0.5833333333333334],horizontal,"(890.0, 762.0)",0.6166666666666667,0.539,1,4053.404
13,False,751,"[(1022, 871)]",[],[1],[0.5833333333333334],horizontal,"(890.0, 762.0)",1.6,0.54,1,4057.378
13,False,752,"[(1076, 875)]",[],[1],[0.6833333333333333],vertical,"(890.0, 262.0)",0.6833333333333333,0.64,1,4062.323
13,False,753,"[(1076, 885)]",[],[1],[0.6333333333333333],vertical,"(890.0, 262.0)",1.3666666666666667,0.591,1,4066.473
13,False,754,"[(1067, 888)]",[],[1],[],horizontal,"(390.0, 262.0)",,cti_phase,0,4071.257
13,False,755,"[(1081, 881)]",[],[1],[0.55],horizontal,"(890.0, 262.0)",1.4,0.51,1,4075.722
13,False,756,"[(1072, 876)]",[],[1],[0.5833333333333334],vertical,"(890.0, 262.0)",1.0166666666666666,0.544,1,4080.585
13,False,757,"[(1081, 888)]",[],[1],[0.6166666666666667],horizontal,"(390.0, 262.0)",0.7333333333333333,0.568,1,4085.384
13,False,758,"[(1052, 872)]",[],[1],[0.5833333333333334],vertical,"(890.0, 762.0)",1.65,0.541,1,4089.692
13,False,759,"[(1067, 871)]",[],[1],[0.5666666666666667],vertical,"(890.0, 762.0)",0.7166666666666667,0.519,1,4094.672
13,False,760,"[(1072, 860)]",[],[1],[0.6666666666666666],vertical,"(890.0, 762.0)",1.3166666666666667,0.623,1,4099.114
13,False,761,"[(1081, 888)]",[],[1],[0.6333333333333333],horizontal,"(390.0, 762.0)",1.4666666666666666,0.59,1,4103.765
13,False,762,"[(1057, 865)]",[],[1],[0.5333333333333333],vertical,"(890.0, 762.0)",0.7666666666666666,0.505,1,4109.227
13,False,763,"[(1069, 885)]",[],[1],[0.6],horizontal,"(890.0, 762.0)",1.0,0.561,1,4113.734
13,False,764,"[(1081, 891)]",[],[1],[0.6166666666666667],vertical,"(890.0, 762.0)",0.5833333333333334,0.576,1,4118.326
13,False,765,"[(1072, 880)]",[],[1],[0.6666666666666666],horizontal,"(890.0, 762.0)",1.3666666666666667,0.621,1,4122.758
13,False,766,"[(1076, 874)]",[],[1],[0.65],horizontal,"(390.0, 262.0)",0.7666666666666666,0.604,1,4127.774
13,False,767,"[(1072, 895)]",[],[1],[0.6166666666666667],vertical,"(390.0, 762.0)",0.95,0.574,1,4132.168
13,False,768,"[(1061, 893)]",[],[1],[0.7333333333333333],horizontal,"(890.0, 262.0)",0.9,0.682,1,4136.388
13,False,769,"[(1063, 885)]",[],[1],[0.6],horizontal,"(890.0, 262.0)",0.5,0.556,1,4140.816
13,False,770,"[(1058, 876)]",[],[1],[0.5833333333333334],vertical,"(390.0, 762.0)",1.65,0.543,1,4145.337
13,False,771,"[(1072, 905)]",[],[1],[0.5666666666666667],horizontal,"(890.0, 262.0)",1.4166666666666667,0.523,1,4150.802
13,False,772,"[(1081, 901)]",[],[1],[0.06666666666666667],horizontal,"(390.0, 262.0)",1.2166666666666666,0.036,1,4156.186
13,False,773,"[(1081, 875)]",[],[1],[0.5833333333333334],vertical,"(890.0, 262.0)",0.7166666666666667,0.535,1,4160.773
13,False,774,"[(1076, 871)]",[],[1],[0.7333333333333333],vertical,"(390.0, 762.0)",0.9666666666666667,0.692,1,4165.216
13,False,775,"[(1066, 887)]",[],[1],[0.5833333333333334],horizontal,"(390.0, 262.0)",0.65,0.539,1,4169.847
13,False,776,"[(1081, 880)]",[],[1],[0.6166666666666667],vertical,"(890.0, 762.0)",1.3333333333333333,0.576,1,4173.922
13,False,777,"[(1062, 877)]",[],[1],[0.6166666666666667],vertical,"(890.0, 262.0)",1.2833333333333332,0.579,1,4179.17
13,False,778,"[(1077, 904)]",[],[1],[0.6166666666666667],vertical,"(390.0, 262.0)",0.55,0.574,1,4183.766
13,False,779,"[(1058, 867)]",[],[1],[0.6],horizontal,"(890.0, 262.0)",1.6,0.557,1,4187.957
13,False,780,"[(1079, 883)]",[],[1],[0.55],vertical,"(890.0, 262.0)",1.1666666666666667,0.506,1,4193.324
14,False,781,"[(1081, 871)]",[],[1],[0.5666666666666667],horizontal,"(890.0, 262.0)",0.8333333333333334,0.524,1,4198.504
14,False,782,"[(1081, 886)]",[],[1],[0.6],vertical,"(390.0, 762.0)",0.5333333333333333,0.56,1,4202.97
14,False,783,"[(1057, 871)]",[],[1],[0.7833333333333333],horizontal,"(390.0, 262.0)",0.6166666666666667,0.734,1,4207.185
14,False,784,"[(1058, 876)]",[],[1],[0.5833333333333334],horizontal,"(390.0, 262.0)",0.85,0.545,1,4211.697
14,False,785,"[(1067, 882)]",[],[1],[0.5666666666666667],horizontal,"(890.0, 262.0)",0.9,0.529,1,4216.332
14,False,786,"[(1081, 892)]",[],[1],[0.6333333333333333],horizontal,"(890.0, 762.0)",0.6,0.592,1,4220.563
14,False,787,"[(1078, 869)]",[],[1],[0.6],horizontal,"(390.0, 762.0)",1.3333333333333333,0.562,1,4224.748
14,False,788,"[(1049, 869)]",[],[1],[0.5666666666666667],vertical,"(890.0, 762.0)",0.7,0.533,1,4229.374
14,False,789,"[(1072, 871)]",[],[1],[0.5833333333333334],vertical,"(390.0, 762.0)",0.6833333333333333,0.544,1,4233.645
14,False,790,"[(1081, 871)]",[],[1],[0.7333333333333333],vertical,"(890.0, 762.0)",1.4,0.688,1,4238.363
14,False,791,"[(1071, 880)]",[],[1],[0.5666666666666667],horizontal,"(890.0, 762.0)",0.7666666666666666,0.524,1,4243.651
14,False,792,"[(1081, 880)]",[],[1],[0.5833333333333334],horizontal,"(390.0, 762.0)",0.7333333333333333,0.542,1,4248.272
14,False,793,"[(1045, 880)]",[],[1],[0.7],horizontal,"(390.0, 762.0)",1.6833333333333333,0.656,1,4252.551
14,False,794,"[(1081, 890)]",[],[1],[0.5833333333333334],horizontal,"(890.0, 762.0)",1.6333333333333333,0.545,1,4257.719
14,False,795,"[(1071, 868)]",[],[1],[0.65],vertical,"(890.0, 762.0)",1.4833333333333334,0.609,1,4262.764
14,False,796,"[(1080, 886)]",[],[1],[0.5833333333333334],vertical,"(390.0, 762.0)",1.55,0.542,1,4267.815
14,False,797,"[(1081, 884)]",[],[1],[0.55],horizontal,"(890.0, 762.0)",0.6833333333333333,0.513,1,4272.92
14,False,798,"[(1081, 870)]",[],[1],[0.6333333333333333],vertical,"(890.0, 262.0)",0.6333333333333333,0.592,1,4277.254
14,False,799,"[(1081, 879)]",[],[1],[0.7666666666666666],vertical,"(390.0, 762.0)",1.35,0.723,1,4281.69
14,False,800,"[(1076, 881)]",[],[1],[0.7],vertical,"(890.0, 762.0)",1.2833333333333332,0.653,1,4286.689
14,False,801,"[(1063, 882)]",[],[1],[0.6],vertical,"(390.0, 262.0)",0.9666666666666667,0.555,1,4291.771
14,False,802,"[(1056, 858)]",[],[1],[0.6833333333333333],horizontal,"(890.0, 262.0)",0.5833333333333334,0.638,1,4296.381
14,False,803,"[(1060, 881)]",[],[1],[0.5666666666666667],vertical,"(390.0, 762.0)",0.5833333333333334,0.536,1,4300.754
14,False,804,"[(1057, 868)]",[],[1],[0.5833333333333334],vertical,"(390.0, 762.0)",0.6333333333333333,0.544,1,4305.415
14,False,805,"[(1081, 872)]",[],[1],[0.5833333333333334],vertical,"(890.0, 762.0)",1.1666666666666667,0.537,1,4309.96
14,False,806,"[(1081, 870)]",[],[1],[0.7],vertical,"(390.0, 262.0)",0.5166666666666666,0.659,1,4314.342
14,False,807,"[(1058, 877)]",[],[1],[0.6833333333333333],horizontal,"(390.0, 762.0)",1.4,0.643,1,4318.732
14,False,808,"[(1081, 875)]",[],[1],[0.7666666666666666],vertical,"(390.0, 262.0)",1.2666666666666666,0.729,1,4323.548
14,False,809,"[(1081, 885)]",[],[1],[0.6333333333333333],horizontal,"(890.0, 262.0)",0.75,0.587,1,4329.103
14,False,810,"[(1081, 894)]",[],[1],[0.7833333333333333],horizontal,"(890.0, 262.0)",0.6666666666666666,0.748,1,4333.491
14,False,811,"[(1041, 869)]",[],[1],[0.6166666666666667],horizontal,"(390.0, 262.0)",0.7833333333333333,0.578,1,4337.842
14,False,812,"[(1081, 874)]",[],[1],[0.6166666666666667],vertical,"(390.0, 762.0)",1.5833333333333333,0.581,1,4344.482
14,False,813,"[(1081, 861)]",[],[1],[0.5666666666666667],horizontal,"(890.0, 762.0)",0.8333333333333334,0.535,1,4349.261
14,False,814,"[(1081, 899)]",[],[1],[0.5833333333333334],horizontal,"(390.0, 762.0)",0.55,0.55,1,4353.997
14,False,815,"[(1081, 876)]",[],[1],[0.7333333333333333],vertical,"(390.0, 762.0)",1.2333333333333334,0.693,1,4358.508
14,False,816,"[(1062, 881)]",[],[1],[0.6333333333333333],vertical,"(890.0, 762.0)",0.7666666666666666,0.588,1,4363.166
14,False,817,"[(1082, 878)]",[],[1],[0.5333333333333333],horizontal,"(890.0, 262.0)",1.4,0.492,1,4367.509
14,False,818,"[(1054, 872)]",[],[1],[0.65],vertical,"(890.0, 262.0)",1.15,0.608,1,4372.328
14,False,819,"[(1081, 868)]",[],[1],[0.65],vertical,"(390.0, 762.0)",1.1166666666666667,0.604,1,4377.037
14,False,820,"[(1071, 875)]",[],[1],[0.7166666666666667],vertical,"(890.0, 762.0)",1.1,0.673,1,4382.274
14,False,821,"[(1076, 874)]",[],[1],[0.5833333333333334],vertical,"(390.0, 262.0)",0.7,0.543,1,4386.827
14,False,822,"[(1052, 882)]",[],[1],[0.5833333333333334],vertical,"(390.0, 762.0)",0.6666666666666666,0.54,1,4390.901
14,False,823,"[(1076, 880)]",[],[1],[0.5833333333333334],horizontal,"(890.0, 262.0)",1.0666666666666667,0.543,1,4395.172
14,False,824,"[(1081, 876)]",[],[1],[0.6],vertical,"(890.0, 762.0)",1.05,0.556,1,4399.791
14,False,825,"[(1066, 871)]",[],[1],[0.6166666666666667],vertical,"(390.0, 762.0)",1.5666666666666667,0.574,1,4404.022
14,False,826,"[(1078, 864)]",[],[1],[0.6],vertical,"(890.0, 262.0)",1.4833333333333334,0.558,1,4409.188
14,False,827,"[(1075, 878)]",[],[1],[0.5666666666666667],horizontal,"(390.0, 262.0)",0.5166666666666666,0.532,1,4414.309
14,False,828,"[(1061, 867)]",[],[1],[0.6666666666666666],vertical,"(890.0, 762.0)",1.0666666666666667,0.624,1,4418.759
14,False,829,"[(1081, 866)]",[],[1],[0.6166666666666667],vertical,"(390.0, 762.0)",1.7,0.573,1,4423.765
14,False,830,"[(1081, 875)]",[],[1],[0.6166666666666667],horizontal,"(890.0, 762.0)",1.2333333333333334,0.571,1,4429.262
14,False,831,"[(1081, 875)]",[],[1],[0.6833333333333333],vertical,"(390.0, 762.0)",1.15,0.639,1,4433.875
14,False,832,"[(1081, 861)]",[],[1],[0.5666666666666667],horizontal,"(390.0, 262.0)",0.7333333333333333,0.523,1,4438.333
14,False,833,"[(1072, 869)]",[],[1],[0.6],horizontal,"(390.0, 762.0)",1.15,0.555,1,4442.324
14,False,834,"[(1062, 875)]",[],[1],[0.5833333333333334],vertical,"(390.0, 762.0)",1.3,0.547,1,4446.998
14,False,835,"[(1081, 862)]",[],[1],[0.6333333333333333],horizontal,"(390.0, 762.0)",0.8666666666666667,0.587,1,4451.887
14,False,836,"[(1068, 873)]",[],[1],[0.5833333333333334],horizontal,"(890.0, 262.0)",0.7333333333333333,0.54,1,4456.142
14,False,837,"[(1041, 862)]",[],[1],[0.35],horizontal,"(390.0, 262.0)",1.3833333333333333,0.311,1,4460.359
14,False,838,"[(1062, 874)]",[],[1],[0.5833333333333334],horizontal,"(890.0, 262.0)",1.3833333333333333,0.537,1,4466.33
14,False,839,"[(1076, 856)]",[],[1],[0.65],vertical,"(890.0, 262.0)",1.0333333333333332,0.609,1,4471.265
14,False,840,"[(1042, 869)]",[],[1],[0.6166666666666667],horizontal,"(890.0, 262.0)",1.5166666666666666,0.568,1,4475.737
15,False,841,"[(1076, 869)]",[],[1],[0.5833333333333334],vertical,"(390.0, 762.0)",0.9666666666666667,0.539,1,4481.071
15,False,842,"[(1077, 851)]",[],[1],[0.6166666666666667],horizontal,"(890.0, 762.0)",1.0333333333333332,0.567,1,4485.236
15,False,843,"[(1071, 878)]",[],[1],[0.6166666666666667],vertical,"(390.0, 262.0)",1.1333333333333333,0.573,1,4489.653
15,False,844,"[(1037, 866)]",[],[1],[0.65],horizontal,"(890.0, 262.0)",1.0,0.608,1,4494.695
15,False,845,"[(1081, 863)]",[],[1],[0.6],vertical,"(890.0, 762.0)",1.1833333333333333,0.557,1,4541.647
15,False,846,"[(1038, 885)]",[],[1],[0.6],vertical,"(890.0, 262.0)",0.5333333333333333,0.552,1,4546.326
15,False,847,"[(1041, 892)]",[],[1],[0.5833333333333334],horizontal,"(390.0, 762.0)",0.6,0.536,1,4550.666
15,False,848,"[(1047, 876)]",[],[1],[0.5833333333333334],vertical,"(390.0, 762.0)",1.2333333333333334,0.536,1,4554.947
15,False,849,"[(1053, 894)]",[],[1],[0.7333333333333333],vertical,"(890.0, 262.0)",1.25,0.698,1,4559.923
15,False,850,"[(1047, 891)]",[],[1],[0.6],vertical,"(890.0, 262.0)",1.6333333333333333,0.562,1,4564.778
15,False,851,"[(1063, 861)]",[],[1],[0.05],horizontal,"(390.0, 262.0)",1.2333333333333334,0.02,1,4570.419
15,False,852,"[(1063, 876)]",[],[1],[0.6],vertical,"(390.0, 762.0)",1.5333333333333332,0.551,1,4574.758
15,False,853,"[(1081, 864)]",[],[1],[0.6833333333333333],vertical,"(390.0, 262.0)",1.6666666666666667,0.639,1,4579.854
15,False,854,"[(1081, 893)]",[],[1],[0.6166666666666667],vertical,"(890.0, 262.0)",0.8333333333333334,0.574,1,4585.035
15,False,855,"[(1063, 889)]",[],[1],[0.8],horizontal,"(390.0, 262.0)",0.5,0.766,1,4589.81
15,False,856,"[(1076, 876)]",[],[1],[0.6],horizontal,"(390.0, 762.0)",1.0,0.571,1,4593.976
15,False,857,"[(1072, 874)]",[],[1],[0.65],horizontal,"(890.0, 262.0)",0.6666666666666666,0.602,1,4598.962
15,False,858,"[(1081, 881)]",[],[1],[0.6],vertical,"(890.0, 262.0)",0.95,0.56,1,4602.875
15,False,859,"[(1082, 880)]",[],[1],[0.5833333333333334],vertical,"(390.0, 762.0)",1.45,0.542,1,4607.948
15,False,860,"[(1079, 867)]",[],[1],[0.6166666666666667],vertical,"(390.0, 262.0)",1.1,0.583,1,4612.859
15,False,861,"[(1081, 874)]",[],[1],[0.6],vertical,"(890.0, 762.0)",1.3,0.556,1,4618.026
15,False,862,"[(1080, 854)]",[],[1],[0.7666666666666666],vertical,"(890.0, 262.0)",0.7166666666666667,0.718,1,4622.953
15,False,863,"[(1085, 885)]",[],[1],[0.6666666666666666],horizontal,"(390.0, 262.0)",0.5166666666666666,0.62,1,4627.062
15,False,864,"[(1080, 858)]",[],[1],[0.5666666666666667],horizontal,"(390.0, 762.0)",0.7333333333333333,0.529,1,4631.089
15,False,865,"[(1070, 873)]",[],[1],[0.65],horizontal,"(390.0, 762.0)",1.4,0.606,1,4635.241
15,False,866,"[(1057, 877)]",[],[1],[0.6333333333333333],horizontal,"(390.0, 762.0)",0.5333333333333333,0.589,1,4640.121
15,False,867,"[(1081, 876)]",[],[1],[0.7833333333333333],horizontal,"(890.0, 262.0)",0.6166666666666667,0.735,1,4644.439
15,False,868,"[(1081, 863)]",[],[1],[0.65],vertical,"(390.0, 262.0)",0.7,0.62,1,4649.242
15,False,869,"[(1081, 871)]",[],[1],[0.5833333333333334],vertical,"(890.0, 262.0)",1.6166666666666667,0.54,1,4653.685
15,False,870,"[(1081, 874)]",[],[1],[0.6166666666666667],horizontal,"(890.0, 262.0)",1.45,0.578,1,4659.303
15,False,871,"[(1076, 857)]",[],[1],[0.65],horizontal,"(890.0, 262.0)",1.4333333333333333,0.614,1,4664.074
15,False,872,"[(1067, 860)]",[],[1],[0.6],vertical,"(890.0, 262.0)",0.5833333333333334,0.558,1,4670.305
15,False,873,"[(1067, 871)]",[],[1],[0.55],vertical,"(890.0, 762.0)",0.7833333333333333,0.516,1,4674.56
15,False,874,"[(1081, 871)]",[],[1],[0.7],vertical,"(390.0, 762.0)",1.6333333333333333,0.657,1,4678.48
15,False,875,"[(1067, 871)]",[],[1],[0.5666666666666667],vertical,"(390.0, 262.0)",1.25,0.529,1,4683.338
15,False,876,"[(1081, 864)]",[],[1],[0.6166666666666667],horizontal,"(390.0, 762.0)",0.8666666666666667,0.581,1,4688.023
15,False,877,"[(1081, 873)]",[],[1],[0.5333333333333333],vertical,"(890.0, 262.0)",1.55,0.493,1,4692.778
15,False,878,"[(1096, 860)]",[],[1],[0.55],vertical,"(390.0, 262.0)",1.25,0.504,1,4697.958
15,False,879,"[(1057, 861)]",[],[1],[0.6],vertical,"(390.0, 762.0)",0.55,0.56,1,4703.192
15,False,880,"[(1072, 873)]",[],[1],[0.5666666666666667],horizontal,"(890.0, 762.0)",1.65,0.521,1,4707.155
15,False,881,"[(1081, 877)]",[],[1],[0.5833333333333334],horizontal,"(390.0, 762.0)",0.6166666666666667,0.542,1,4712.671
15,False,882,"[(1082, 867)]",[],[1],[0.6833333333333333],vertical,"(390.0, 262.0)",0.6833333333333333,0.641,1,4716.923
15,False,883,"[(1052, 872)]",[],[1],[0.65],horizontal,"(890.0, 762.0)",1.5333333333333332,0.606,1,4721.159
15,False,884,"[(1061, 881)]",[],[1],[0.5666666666666667],horizontal,"(890.0, 762.0)",0.8666666666666667,0.521,1,4727.055
15,False,885,"[(1057, 893)]",[],[1],[0.75],vertical,"(890.0, 762.0)",1.0166666666666666,0.702,1,4731.407
15,False,886,"[(1074, 871)]",[],[1],[0.6666666666666666],horizontal,"(890.0, 262.0)",0.6666666666666666,0.628,1,4736.117
15,False,887,"[(1059, 871)]",[],[1],[0.55],vertical,"(890.0, 262.0)",1.3,0.506,1,4740.403
15,False,888,"[(1041, 870)]",[],[1],[0.5333333333333333],vertical,"(890.0, 262.0)",1.5833333333333333,0.492,1,4745.229
15,False,889,"[(1084, 868)]",[],[1],[0.5833333333333334],vertical,"(890.0, 262.0)",0.85,0.549,1,4752.009
15,False,890,"[(1072, 871)]",[],[1],[0.5833333333333334],horizontal,"(390.0, 262.0)",0.9666666666666667,0.543,1,4756.959
15,False,891,"[(1081, 871)]",[],[1],[0.5],vertical,"(890.0, 762.0)",1.1833333333333333,0.461,1,4761.325
15,False,892,"[(1081, 877)]",[],[1],[0.6166666666666667],horizontal,"(890.0, 762.0)",0.7166666666666667,0.574,1,4766.037
15,False,893,"[(1081, 875)]",[],[1],[0.5833333333333334],horizontal,"(390.0, 762.0)",0.75,0.541,1,4770.153
15,False,894,"[(1072, 871)]",[],[1],[0.5666666666666667],horizontal,"(390.0, 262.0)",0.6333333333333333,0.52,1,4774.954
15,False,895,"[(1086, 876)]",[],[1],[0.5833333333333334],horizontal,"(890.0, 262.0)",1.0333333333333332,0.541,1,4779.231
15,False,896,"[(1078, 868)]",[],[1],[0.65],vertical,"(890.0, 262.0)",0.9333333333333333,0.609,1,4783.503
15,False,897,"[(1081, 871)]",[],[1],[0.6],horizontal,"(390.0, 762.0)",0.7666666666666666,0.559,1,4788.016
15,False,898,"[(1083, 867)]",[],[1],[0.5666666666666667],horizontal,"(390.0, 262.0)",0.6833333333333333,0.521,1,4792.366
15,False,899,"[(1058, 868)]",[],[1],[0.55],horizontal,"(890.0, 262.0)",1.6833333333333333,0.511,1,4797.101
15,False,900,"[(1075, 854)]",[],[1],[0.5833333333333334],horizontal,"(390.0, 262.0)",1.0166666666666666,0.544,1,4802.76
16,False,901,"[(1087, 875)]",[],[1],[],horizontal,"(390.0, 262.0)",,cti_phase,0,4807.494
16,False,902,"[(1081, 866)]",[],[1],[0.5833333333333334],vertical,"(390.0, 262.0)",0.9166666666666666,0.542,1,4811.488
16,False,903,"[(1081, 882)]",[],[1],[0.18333333333333332],horizontal,"(390.0, 262.0)",1.55,0.15,1,4815.964
16,False,904,"[(1081, 861)]",[],[1],[0.6833333333333333],vertical,"(890.0, 262.0)",0.8833333333333333,0.645,1,4820.665
16,False,905,"[(1078, 871)]",[],[1],[0.5333333333333333],horizontal,"(390.0, 262.0)",1.6666666666666667,0.491,1,4825.47
16,False,906,"[(1069, 876)]",[],[1],[0.5666666666666667],horizontal,"(890.0, 262.0)",1.15,0.522,1,4830.376
16,False,907,"[(1042, 861)]",[],[1],[0.3333333333333333],horizontal,"(890.0, 262.0)",1.5166666666666666,0.297,1,4835.304
16,False,908,"[(1067, 854)]",[],[1],[],vertical,"(890.0, 762.0)",,cti_phase,0,4840.623
16,False,909,"[(1067, 865)]",[],[1],[0.5666666666666667],vertical,"(890.0, 262.0)",0.9833333333333333,0.523,1,4843.852
16,False,910,"[(1035, 871)]",[],[1],[0.5],horizontal,"(890.0, 262.0)",1.0333333333333332,0.462,1,4848.838
