block,trial,trial_type,taps_start_loc_during_fix,taps_end_loc_during_fix,taps_on_lever_during_fix,taps_on_lever_s_during_fix,bar_orientation,target_xy,cti,rt,acc,time,pulses
0,1,catch,"[(1041, 827)]",[],[1],[],horizontal,"(890.0, 262.0)",1.183333333,nan,1,0.075,1
0,2,target,"[(1041, 832)]",[],[1],[0.85],vertical,"(390.0, 262.0)",0.75,nan,0,2544.721,0
0,3,target,"[(1056, 839)]",[],[1],[0.48333333333333334],vertical,"(890.0, 762.0)",1.533333333,0.446,1,2549.404,1
0,4,target,"[(1061, 816)]",[],[1],[0.7333333333333333],horizontal,"(890.0, 262.0)",0.733333333,0.689,1,2562.287,1
0,5,target,"[(1074, 837)]",[],[1],[0.6833333333333333],horizontal,"(890.0, 762.0)",0.616666667,0.638,1,2566.721,1
0,6,target,"[(1040, 806)]",[],[1],[0.2],horizontal,"(890.0, 762.0)",1.583333333,0.165,1,2571.221,2
0,7,target,"[(1090, 798)]",[],[1],[0.31666666666666665],vertical,"(890.0, 762.0)",1.283333333,0.281,1,2576.804,2
0,8,target,"[(1093, 797)]",[],[1],[0.65],horizontal,"(390.0, 262.0)",1.25,0.611,1,2582.321,2
0,9,target,"[(1082, 791)]",[],[1],[0.7666666666666666],horizontal,"(390.0, 762.0)",1.033333333,0.717,1,2587.599,2
0,10,target,"[(1081, 795)]",[],[1],[0.7166666666666667],vertical,"(390.0, 262.0)",0.583333333,0.671,1,2593.078,2
0,11,target,"[(1079, 787)]",[],[1],[0.6166666666666667],vertical,"(890.0, 262.0)",1.416666667,0.574,1,2597.553,3
0,12,target,"[(1081, 802)]",[],[1],[0.8166666666666667],horizontal,"(390.0, 762.0)",1.633333333,0.784,1,2603.131,3
0,13,target,"[(1103, 810)]",[],[1],[0.85],horizontal,"(890.0, 262.0)",1.516666667,nan,0,2609.771,0
0,14,target,"[(1102, 781)]",[],[1],[0.85],horizontal,"(890.0, 762.0)",0.9,nan,0,2615.282,0
0,15,catch,"[(1094, 794)]",[],[1],[],vertical,"(390.0, 762.0)",1.166666667,nan,1,2620.396,1
0,16,target,"[(1084, 791)]",[],[1],[0.6333333333333333],vertical,"(890.0, 762.0)",0.65,0.589,1,2624.314,1
0,17,target,"[(1080, 831)]",[],[1],[0.31666666666666665],vertical,"(890.0, 262.0)",1.433333333,0.277,1,2628.637,1
0,18,target,"[(1097, 820)]",[],[1],[0.25],horizontal,"(890.0, 262.0)",1.566666667,0.22,1,2633.538,2
0,19,target,"[(1085, 807)]",[],[1],[0.7166666666666667],vertical,"(390.0, 262.0)",1.066666667,0.675,1,2638.77,2
0,20,target,"[(1070, 778)]",[],[1],[0.6333333333333333],vertical,"(890.0, 262.0)",0.866666667,0.6,1,2644.502,2
0,21,catch,"[(1080, 790)]",[],[1],[],vertical,"(890.0, 262.0)",1.216666667,nan,1,2649.755,2
0,22,target,"[(1066, 778)]",[],[1],[0.5333333333333333],vertical,"(390.0, 262.0)",0.533333333,0.492,1,2654.672,2
0,23,target,"[(1090, 806)]",[],[1],[0.3833333333333333],horizontal,"(390.0, 262.0)",1.4,0.346,1,2659.386,3
0,24,target,"[(1097, 807)]",[],[1],[0.36666666666666664],vertical,"(890.0, 262.0)",1.216666667,0.33,1,2665.022,3
0,25,target,"[(1084, 789)]",[],[1],[0.11666666666666667],vertical,"(390.0, 262.0)",1.583333333,0.082,0,2670.805,0
0,26,target,"[(1078, 816)]",[],[1],[0.6166666666666667],horizontal,"(390.0, 762.0)",0.7,0.574,1,2675.638,1
0,27,target,"[(1075, 808)]",[],[1],[0.5833333333333334],vertical,"(890.0, 262.0)",1.083333333,0.543,1,2680.109,1
0,28,catch,"[(1083, 796)]",[],[1],[],horizontal,"(390.0, 762.0)",1.233333333,nan,1,2684.687,1
0,29,target,"[(1081, 799)]",[],[1],[0.8],vertical,"(890.0, 762.0)",0.533333333,0.754,1,2688.804,2
0,30,catch,"[(1073, 809)]",[],[1],[],horizontal,"(890.0, 262.0)",1.6,nan,1,2693.872,2
0,31,target,"[(1070, 801)]",[],[1],[0.85],horizontal,"(390.0, 762.0)",0.5,nan,0,2699.272,0
0,32,target,"[(1080, 793)]",[],[1],[0.5666666666666667],vertical,"(890.0, 262.0)",0.55,0.526,1,2703.522,1
0,33,catch,"[(1104, 818)]",[],[1],[],horizontal,"(390.0, 762.0)",1.45,nan,1,2707.338,1
0,34,target,"[(1060, 826)]",[],[1],[0.85],horizontal,"(390.0, 762.0)",0.9,nan,0,2711.73,0
0,35,target,"[(1079, 806)]",[],[1],[0.85],vertical,"(390.0, 762.0)",0.883333333,nan,0,2716.872,0
0,36,target,"[(1073, 816)]",[],[1],[0.6833333333333333],vertical,"(890.0, 762.0)",0.633333333,0.649,1,2721.922,1
0,37,target,"[(1085, 783)]",[],[1],[0.11666666666666667],vertical,"(390.0, 262.0)",1.55,0.087,0,2726.371,0
0,38,target,"[(1087, 812)]",[],[1],[0.85],horizontal,"(890.0, 262.0)",1.35,nan,0,2730.805,0
0,39,target,"[(1075, 809)]",[],[1],[0.6],horizontal,"(390.0, 762.0)",0.966666667,0.557,1,2736.204,1
0,40,target,"[(1075, 782)]",[],[1],[0.6],horizontal,"(890.0, 262.0)",0.65,0.556,1,2740.539,1
0,41,target,"[(1071, 783)]",[],[1],[0.6833333333333333],vertical,"(390.0, 762.0)",0.5,0.644,1,2744.788,1
0,42,target,"[(1073, 776)]",[],[1],[0.8],horizontal,"(890.0, 762.0)",0.9,0.76,1,2749.122,2
0,43,target,"[(1092, 790)]",[],[1],[],horizontal,"(390.0, 262.0)",,"('cti', 1.292)",0,2753.926,0
0,44,target,"[(1080, 799)]",[],[1],[0.5833333333333334],vertical,"(890.0, 762.0)",1.133333333,0.54,1,2758.523,1
0,45,target,"[(1060, 781)]",[],[1],[0.6333333333333333],vertical,"(390.0, 262.0)",0.516666667,0.596,1,2762.821,1
0,46,target,"[(1076, 808)]",[],[1],[0.55],vertical,"(890.0, 262.0)",1.45,0.513,1,2766.88,1
0,47,target,"[(1090, 813)]",[],[1],[0.5833333333333334],vertical,"(390.0, 262.0)",1.2,0.546,1,2771.872,2
0,48,target,"[(1074, 786)]",[],[1],[0.5833333333333334],horizontal,"(890.0, 762.0)",0.933333333,0.543,1,2776.936,2
0,49,target,"[(1076, 802)]",[],[1],[0.75],horizontal,"(890.0, 762.0)",0.833333333,0.71,1,2782.206,2
0,50,target,"[(1084, 792)]",[],[1],[0.06666666666666667],vertical,"(390.0, 262.0)",1.633333333,0.036,0,2787.524,0
0,51,catch,"[(1110, 780)]",[],[1],[],horizontal,"(390.0, 262.0)",1.5,nan,1,2792.067,1
0,52,catch,"[(1074, 794)]",[],[1],[],horizontal,"(390.0, 762.0)",1.166666667,nan,1,2796.422,1
0,53,target,"[(1063, 799)]",[],[1],[0.6166666666666667],horizontal,"(390.0, 762.0)",0.716666667,0.575,1,2800.371,1
0,54,target,"[(1065, 803)]",[],[1],"[0.85, 0.85]",vertical,"(890.0, 762.0)",0.516666667,"0.797,nan",0,2804.844,0
0,55,target,"[(1079, 772)]",[],[1],[0.6166666666666667],vertical,"(390.0, 262.0)",1.4,0.572,1,2809.389,1
0,56,target,"[(1092, 796)]",[],[1],[0.85],vertical,"(390.0, 262.0)",1.583333333,nan,0,2814.452,0
0,57,target,"[(1062, 806)]",[],[1],[0.85],vertical,"(890.0, 262.0)",1.333333333,nan,0,2819.894,0
0,58,catch,"[(1060, 780)]",[],[1],[],horizontal,"(890.0, 762.0)",1.55,nan,1,2824.826,1
0,59,target,"[(1090, 798)]",[],[1],[0.5833333333333334],horizontal,"(390.0, 762.0)",1.133333333,0.547,1,2829.473,1
0,60,target,"[(1068, 818)]",[],[1],[0.2833333333333333],horizontal,"(390.0, 262.0)",1.4,0.25,1,2834.322,1
0,61,target,"[(1093, 796)]",[],[1],[0.85],horizontal,"(390.0, 762.0)",0.883333333,nan,0,2839.539,0
0,62,target,"[(1075, 791)]",[],[1],"[0.85, 0.85]",horizontal,"(390.0, 262.0)",1.2,"0.802,nan",0,2844.555,0
0,63,target,"[(1091, 798)]",[],[1],[0.65],horizontal,"(890.0, 262.0)",1.266666667,0.606,1,2849.773,1
0,64,target,"[(1104, 796)]",[],[1],[0.65],horizontal,"(890.0, 762.0)",0.716666667,0.604,1,2854.789,1
0,65,target,"[(1065, 784)]",[],[1],[0.5],horizontal,"(390.0, 762.0)",1.433333333,0.464,1,2858.923,1
0,66,target,"[(1083, 783)]",[],[1],[0.5833333333333334],horizontal,"(390.0, 762.0)",0.583333333,0.541,1,2863.822,2
0,67,target,"[(1083, 793)]",[],[1],[],horizontal,"(390.0, 262.0)",,"('cti', 1.333)",0,2868.397,0
0,68,target,"[(1096, 782)]",[],[1],[0.5333333333333333],horizontal,"(890.0, 762.0)",1.166666667,0.489,1,2873.04,1
0,69,target,"[(1083, 798)]",[],[1],[0.7],horizontal,"(890.0, 262.0)",0.6,0.658,1,2877.273,1
0,70,target,"[(1085, 797)]",[],[1],[0.4666666666666667],vertical,"(390.0, 762.0)",1.166666667,0.427,1,2881.978,1
0,71,target,"[(1090, 804)]",[],[1],[0.5666666666666667],vertical,"(890.0, 762.0)",1.016666667,0.525,1,2886.79,2
0,72,target,"[(1075, 791)]",[],[1],[0.7333333333333333],vertical,"(390.0, 762.0)",0.55,0.698,1,2891.756,2
0,73,catch,"[(1082, 800)]",[],[1],[],horizontal,"(390.0, 762.0)",1.45,nan,1,2896.23,2
0,74,target,"[(1086, 796)]",[],[1],[0.5833333333333334],horizontal,"(390.0, 262.0)",0.95,0.549,1,2900.889,2
0,75,target,"[(1085, 793)]",[],[1],[0.85],vertical,"(390.0, 762.0)",0.616666667,nan,0,2905.89,0
0,76,catch,"[(1071, 787)]",[],[1],[],horizontal,"(890.0, 762.0)",1.683333333,nan,1,2910.306,1
0,77,target,"[(1062, 779)]",[],[1],[0.5666666666666667],vertical,"(390.0, 262.0)",1.266666667,0.528,1,2915.38,1
0,78,target,"[(1074, 798)]",[],[1],[0.36666666666666664],vertical,"(390.0, 262.0)",1.6,0.33,1,2920.363,1
0,79,target,"[(1072, 796)]",[],[1],[0.5833333333333334],vertical,"(890.0, 262.0)",1.383333333,0.544,1,2925.478,2
0,80,target,"[(1092, 793)]",[],[1],[0.5333333333333333],vertical,"(390.0, 262.0)",0.516666667,0.499,1,2930.777,2
0,81,target,"[(1080, 782)]",[],[1],[0.6666666666666666],horizontal,"(390.0, 762.0)",0.933333333,0.621,1,2935.297,2
0,82,target,"[(1067, 780)]",[],[1],[0.5333333333333333],horizontal,"(890.0, 262.0)",0.716666667,0.494,1,2940.576,2
0,83,target,"[(1082, 799)]",[],[1],[0.5333333333333333],horizontal,"(390.0, 762.0)",1.2,0.489,1,2945.264,2
0,84,target,"[(1059, 782)]",[],[1],[0.5833333333333334],horizontal,"(890.0, 762.0)",1.133333333,0.536,1,2950.186,3
0,85,target,"[(1095, 796)]",[],[1],[0.48333333333333334],horizontal,"(390.0, 262.0)",1.166666667,0.443,1,2955.896,3
0,86,catch,"[(1084, 797)]",[],[1],[],vertical,"(890.0, 762.0)",1.366666667,nan,1,2961.21,3
0,87,target,"[(1065, 807)]",[],[1],[0.4],horizontal,"(390.0, 262.0)",1.483333333,0.366,1,2966.672,3
0,88,target,"[(1083, 807)]",[],[1],[0.55],vertical,"(390.0, 762.0)",1.383333333,0.508,1,2972.256,3
0,89,target,"[(1093, 783)]",[],[1],[0.45],vertical,"(390.0, 762.0)",1.25,0.411,1,2977.973,3
0,90,target,"[(1086, 792)]",[],[1],[0.4666666666666667],horizontal,"(890.0, 262.0)",1.633333333,0.423,1,2983.648,3
0,91,target,"[(1085, 785)]",[],[1],[0.6833333333333333],vertical,"(890.0, 762.0)",0.783333333,0.639,1,2989.273,3
0,92,target,"[(1083, 795)]",[],[1],[0.75],vertical,"(890.0, 762.0)",0.733333333,0.707,1,2994.332,3
0,93,catch,"[(1082, 799)]",[],[1],[],vertical,"(890.0, 762.0)",1.6,nan,1,2999.724,3
0,94,target,"[(1080, 787)]",[],[1],[0.5833333333333334],horizontal,"(890.0, 262.0)",0.95,0.541,1,3004.85,3
0,95,target,"[(1081, 790)]",[],[1],[0.55],horizontal,"(390.0, 762.0)",0.916666667,0.507,1,3010.541,3
0,96,catch,"[(1088, 794)]",[],[1],[],horizontal,"(890.0, 762.0)",1.316666667,nan,1,3016.173,3
0,97,target,"[(1062, 792)]",[],[1],[0.55],vertical,"(890.0, 762.0)",1.05,0.51,1,3021.255,3
0,98,target,"[(1075, 821)]",[],[1],[0.6333333333333333],vertical,"(890.0, 262.0)",1,0.593,1,3026.724,3
0,99,target,"[(1081, 785)]",[],[1],[0.45],vertical,"(890.0, 262.0)",1.25,0.413,1,3032.424,3
0,100,target,"[(1080, 783)]",[],[1],[0.6333333333333333],vertical,"(890.0, 262.0)",0.866666667,0.603,1,3037.791,3
0,101,target,"[(1081, 784)]",[],[1],[0.6166666666666667],horizontal,"(390.0, 262.0)",1.316666667,0.574,1,3043.257,3
0,102,target,"[(1064, 796)]",[],[1],[],horizontal,"(390.0, 262.0)",,"('cti', 1.05)",0,3048.757,0
0,103,target,"[(1081, 802)]",[],[1],[0.5833333333333334],horizontal,"(890.0, 262.0)",0.75,0.543,1,3053.324,1
0,104,catch,"[(1065, 806)]",[],[1],[],horizontal,"(390.0, 762.0)",1.7,nan,1,3057.723,1
0,105,target,"[(1065, 790)]",[],[1],[0.7166666666666667],horizontal,"(390.0, 262.0)",1.016666667,0.673,1,3062.708,1
0,106,target,"[(1095, 770)]",[],[1],[0.4166666666666667],horizontal,"(890.0, 262.0)",1.133333333,0.379,1,3067.342,2
0,107,target,"[(1082, 782)]",[],[1],[0.65],vertical,"(390.0, 762.0)",0.616666667,0.609,1,3072.374,2
0,108,target,"[(1077, 795)]",[],[1],[0.5333333333333333],horizontal,"(890.0, 762.0)",0.733333333,0.497,1,3076.908,2
0,109,target,"[(1079, 787)]",[],[1],[0.35],horizontal,"(890.0, 762.0)",1.216666667,0.318,1,3081.307,2
0,110,target,"[(1072, 789)]",[],[1],[0.5],horizontal,"(890.0, 762.0)",0.75,0.461,1,3086.146,2
0,111,target,"[(1075, 806)]",[],[1],[0.5666666666666667],vertical,"(890.0, 762.0)",0.633333333,0.523,1,3090.94,3
0,112,target,"[(1078, 778)]",[],[1],[0.5666666666666667],horizontal,"(890.0, 262.0)",1.1,0.529,1,3096.086,3
0,113,target,"[(1079, 779)]",[],[1],[0.7],horizontal,"(890.0, 762.0)",0.516666667,0.66,1,3101.335,3
0,114,catch,"[(1061, 790)]",[],[1],[],vertical,"(390.0, 762.0)",1.6,nan,1,3106.298,3
0,115,target,"[(1074, 804)]",[],[1],[0.48333333333333334],vertical,"(890.0, 262.0)",1.083333333,0.444,1,3112.6,3
0,116,target,"[(1068, 803)]",[],[1],[0.25],horizontal,"(390.0, 262.0)",1.533333333,0.216,1,3118.375,3
0,117,target,"[(1062, 785)]",[],[1],[],horizontal,"(390.0, 762.0)",,"('cti', 1.317)",0,3124.028,0
0,118,target,"[(1078, 781)]",[],[1],[0.35],vertical,"(390.0, 262.0)",1.283333333,0.317,1,3128.591,1
0,119,target,"[(1061, 839)]",[],[1],[0.85],horizontal,"(890.0, 762.0)",1.5,nan,0,3133.542,0
0,120,target,"[(1080, 813)]",[],[1],[0.36666666666666664],horizontal,"(390.0, 262.0)",1.45,0.332,1,3191.974,1
0,121,target,"[(1080, 821)]",[],[1],[0.85],horizontal,"(390.0, 262.0)",0.783333333,nan,0,3196.609,0
0,122,catch,"[(1075, 813)]",[],[1],[],horizontal,"(890.0, 262.0)",1.5,nan,1,3200.975,1
0,123,catch,"[(1077, 802)]",[],[1],[],horizontal,"(890.0, 262.0)",1.166666667,nan,1,3205.5,1
0,124,target,"[(1066, 798)]",[],[1],[0.6],vertical,"(390.0, 762.0)",0.516666667,0.56,1,3209.392,1
0,125,target,"[(1062, 796)]",[],[1],[0.36666666666666664],horizontal,"(890.0, 762.0)",1.183333333,0.328,1,3213.741,2
0,126,target,"[(1075, 786)]",[],[1],[0.5333333333333333],horizontal,"(890.0, 762.0)",0.75,0.49,1,3218.893,2
0,127,target,"[(1077, 795)]",[],[1],[0.6666666666666666],vertical,"(390.0, 262.0)",0.616666667,0.634,1,3223.661,2
0,128,target,"[(1077, 791)]",[],[1],[],horizontal,"(890.0, 762.0)",,"('cti', 1.381)",0,3228.659,0
0,129,target,"[(1077, 795)]",[],[1],[0.5166666666666666],vertical,"(390.0, 262.0)",0.85,0.484,1,3233.409,1
0,130,target,"[(1077, 791)]",[],[1],[0.7166666666666667],vertical,"(390.0, 762.0)",0.766666667,0.671,1,3237.548,1
0,131,target,"[(1080, 791)]",[],[1],[0.25],horizontal,"(890.0, 762.0)",1.616666667,0.216,1,3242.359,1
0,132,target,"[(1065, 777)]",[],[1],[0.5333333333333333],vertical,"(390.0, 762.0)",1.133333333,0.493,1,3247.174,2
0,133,target,"[(1085, 766)]",[],[1],[0.5833333333333334],vertical,"(890.0, 762.0)",0.583333333,0.541,1,3252.282,2
0,134,target,"[(1093, 770)]",[],[1],[0.36666666666666664],horizontal,"(890.0, 262.0)",1.2,0.327,1,3257.026,2
0,135,target,"[(1082, 784)]",[],[1],[],vertical,"(390.0, 762.0)",,"('cti', 1.446)",0,3261.939,0
0,136,target,"[(1085, 796)]",[],[1],[0.25],horizontal,"(390.0, 762.0)",1.483333333,0.218,1,3266.75,1
0,137,target,"[(1095, 780)]",[],[1],[0.5833333333333334],horizontal,"(390.0, 762.0)",0.633333333,0.548,1,3271.889,1
0,138,target,"[(1104, 794)]",[],[1],[0.48333333333333334],vertical,"(390.0, 262.0)",1.166666667,0.446,1,3276.426,1
0,139,target,"[(1077, 779)]",[],[1],[0.48333333333333334],horizontal,"(390.0, 762.0)",1.216666667,0.441,1,3281.26,2
0,140,target,"[(1083, 781)]",[],[1],[0.6166666666666667],vertical,"(390.0, 762.0)",0.75,0.576,1,3286.676,2
0,141,target,"[(1082, 775)]",[],[1],[0.5666666666666667],vertical,"(390.0, 762.0)",0.983333333,0.531,1,3291.49,2
0,142,catch,"[(1081, 790)]",[],[1],[],horizontal,"(890.0, 762.0)",1.366666667,nan,1,3296.392,2
0,143,target,"[(1091, 782)]",[],[1],[0.7666666666666666],vertical,"(890.0, 762.0)",0.55,0.729,1,3301.458,2
0,144,target,"[(1090, 780)]",[],[1],[0.31666666666666665],horizontal,"(890.0, 262.0)",1.4,0.281,1,3306.192,3
0,145,target,"[(1081, 785)]",[],[1],[],vertical,"(390.0, 762.0)",,"('cti', 1.275)",0,3311.826,0
0,146,target,"[(1065, 794)]",[],[1],[0.5666666666666667],horizontal,"(890.0, 262.0)",1.166666667,0.522,1,3316.385,1
0,147,target,"[(1075, 800)]",[],[1],[0.6333333333333333],vertical,"(390.0, 762.0)",0.533333333,0.594,1,3321.308,1
0,148,catch,"[(1064, 766)]",[],[1],[],vertical,"(390.0, 262.0)",1.416666667,nan,1,3325.434,1
0,149,catch,"[(1063, 793)]",[],[1],[],vertical,"(390.0, 762.0)",1.483333333,nan,1,3329.558,2
0,150,target,"[(1032, 806)]",[],[1],[0.5333333333333333],vertical,"(890.0, 262.0)",1.05,0.497,1,3334.359,2
0,151,target,"[(1066, 796)]",[],[1],[0.65],vertical,"(390.0, 262.0)",0.883333333,0.606,1,3339.338,2
0,152,target,"[(1076, 807)]",[],[1],[0.6333333333333333],vertical,"(890.0, 262.0)",0.85,0.599,1,3344.576,2
0,153,target,"[(1067, 789)]",[],[1],[0.05],vertical,"(890.0, 262.0)",1.316666667,0.019,0,3349.526,0
0,154,target,"[(1064, 792)]",[],[1],[0.5166666666666666],vertical,"(390.0, 262.0)",0.816666667,0.474,1,3354.043,1
0,155,target,"[(1067, 806)]",[],[1],[0.7333333333333333],vertical,"(390.0, 762.0)",0.783333333,0.688,1,3358.375,1
0,156,target,"[(1063, 772)]",[],[1],[],vertical,"(890.0, 762.0)",,"('cti', 1.157)",0,3363.073,0
0,157,catch,"[(1058, 791)]",[],[1],[0.03333333333333333],vertical,"(890.0, 262.0)",1.616666667,"0.019,nan",0,3367.802,0
0,158,catch,"[(1070, 765)]",[],[1],[],vertical,"(890.0, 762.0)",1.166666667,nan,1,3372.943,1
0,159,target,"[(1066, 800)]",[],[1],[0.6],horizontal,"(890.0, 762.0)",1.233333333,0.562,1,3376.993,1
0,160,target,"[(1066, 793)]",[],[1],[0.55],horizontal,"(390.0, 262.0)",0.5,0.509,1,3382.035,1
0,161,target,"[(1081, 790)]",[],[1],[0.7],vertical,"(390.0, 762.0)",0.866666667,0.659,1,3386.393,2
0,162,target,"[(1089, 792)]",[],[1],[0.6333333333333333],horizontal,"(890.0, 762.0)",0.916666667,0.596,1,3391.23,2
0,163,target,"[(1071, 785)]",[],[1],[0.6166666666666667],vertical,"(890.0, 762.0)",0.616666667,0.574,1,3396.043,2
0,164,target,"[(1080, 799)]",[],[1],[0.4],horizontal,"(890.0, 262.0)",1.216666667,0.364,1,3400.603,2
0,165,target,"[(1066, 788)]",[],[1],[0.55],vertical,"(390.0, 762.0)",0.933333333,0.507,1,3405.377,2
0,166,catch,"[(1085, 798)]",[],[1],[],horizontal,"(890.0, 262.0)",,"('cti', 1.418),nan",0,3410.302,0
0,167,target,"[(1088, 777)]",[],[1],[0.5333333333333333],horizontal,"(390.0, 762.0)",0.866666667,0.49,1,3414.762,1
0,168,target,"[(1062, 786)]",[],[1],[0.65],vertical,"(390.0, 262.0)",0.766666667,0.617,1,3419.031,1
0,169,target,"[(1077, 794)]",[],[1],[],vertical,"(890.0, 762.0)",,"('cti', 0.492)",0,3423.11,0
0,170,target,"[(1037, 807)]",[],[1],[0.5166666666666666],vertical,"(890.0, 262.0)",1.016666667,0.475,1,3427.001,1
0,171,target,"[(1079, 802)]",[],[1],[0.6166666666666667],vertical,"(890.0, 762.0)",0.733333333,0.575,1,3431.377,1
0,172,target,"[(1103, 795)]",[],[1],[0.6166666666666667],vertical,"(390.0, 262.0)",1,0.572,1,3435.598,1
0,173,target,"[(1062, 778)]",[],[1],[0.18333333333333332],horizontal,"(390.0, 762.0)",1.533333333,0.149,0,3439.993,0
0,174,target,"[(1059, 800)]",[],[1],[0.5833333333333334],horizontal,"(390.0, 762.0)",0.966666667,0.539,1,3444.643,1
0,175,catch,"[(1099, 792)]",[],[1],[],horizontal,"(890.0, 262.0)",1.166666667,nan,1,3449.522,1
0,176,target,"[(1059, 793)]",[],[1],[0.5833333333333334],horizontal,"(890.0, 262.0)",0.766666667,0.541,1,3453.56,1
0,177,target,"[(1079, 782)]",[],[1],[0.5166666666666666],horizontal,"(890.0, 762.0)",1.2,0.473,1,3457.877,2
0,178,target,"[(1079, 813)]",[],[1],[0.5666666666666667],horizontal,"(390.0, 262.0)",1.083333333,0.522,1,3463.374,2
0,179,catch,"[(1108, 789)]",[],[1],[],vertical,"(390.0, 762.0)",1.45,nan,1,3468.477,2
0,180,target,"[(1075, 782)]",[],[1],[0.5166666666666666],horizontal,"(390.0, 762.0)",1.283333333,0.478,1,3473.533,2
0,181,target,"[(1061, 775)]",[],[1],[0.8],horizontal,"(890.0, 762.0)",0.6,0.752,1,3478.736,2
0,182,target,"[(1077, 783)]",[],[1],[0.5333333333333333],vertical,"(890.0, 762.0)",0.633333333,0.493,1,3483.291,3
0,183,target,"[(1082, 782)]",[],[1],[0.5833333333333334],vertical,"(890.0, 762.0)",0.916666667,0.542,1,3488.576,3
0,184,target,"[(1068, 796)]",[],[1],[0.4666666666666667],horizontal,"(390.0, 762.0)",1.3,0.425,1,3494.008,3
0,185,target,"[(1071, 776)]",[],[1],[0.3833333333333333],vertical,"(390.0, 762.0)",1.233333333,0.347,1,3499.396,3
0,186,target,"[(1082, 805)]",[],[1],[0.2],vertical,"(390.0, 262.0)",1.316666667,0.165,1,3504.527,3
0,187,target,"[(1066, 801)]",[],[1],[0.6],vertical,"(890.0, 762.0)",0.866666667,0.559,1,3509.844,3
0,188,target,"[(1063, 770)]",[],[1],[0.15],vertical,"(390.0, 262.0)",1.516666667,0.118,0,3515.236,0
0,189,catch,"[(1080, 768)]",[],[1],[],vertical,"(390.0, 762.0)",1.516666667,nan,1,3519.428,1
0,190,target,"[(1069, 788)]",[],[1],[0.55],vertical,"(890.0, 762.0)",0.766666667,0.508,1,3523.968,1
0,191,target,"[(1061, 791)]",[],[1],[0.5333333333333333],horizontal,"(390.0, 762.0)",1.266666667,0.5,1,3528.626,1
0,192,target,"[(1087, 792)]",[],[1],[0.55],horizontal,"(890.0, 262.0)",0.516666667,0.508,1,3533.418,2
0,193,target,"[(1095, 793)]",[],[1],[0.4],vertical,"(890.0, 262.0)",1.55,0.36,1,3537.891,2
0,194,catch,"[(1094, 802)]",[],[1],[],vertical,"(390.0, 762.0)",1.533333333,nan,1,3542.975,2
0,195,target,"[(1081, 792)]",[],[1],[0.5166666666666666],horizontal,"(390.0, 262.0)",0.9,0.475,1,3547.86,2
0,196,target,"[(1090, 792)]",[],[1],[0.5166666666666666],horizontal,"(890.0, 262.0)",1.133333333,0.474,1,3552.944,2
0,197,target,"[(1078, 776)]",[],[1],[0.3],horizontal,"(890.0, 762.0)",1.283333333,0.262,1,3557.959,3
0,198,target,"[(1080, 787)]",[],[1],[0.5333333333333333],vertical,"(890.0, 262.0)",1.083333333,0.494,1,3563.077,3
0,199,catch,"[(1085, 789)]",[],[1],[],vertical,"(390.0, 262.0)",1.583333333,"('cti', 1.576),nan",0,3568.596,0
0,200,catch,"[(1083, 787)]",[],[1],[],vertical,"(390.0, 762.0)",1.55,nan,1,3573.378,1
0,201,target,"[(1085, 796)]",[],[1],[0.7166666666666667],vertical,"(890.0, 762.0)",0.983333333,0.667,1,3577.706,1
0,202,target,"[(1077, 778)]",[],[1],[0.21666666666666667],horizontal,"(890.0, 762.0)",1.333333333,0.183,1,3582.03,1
0,203,target,"[(1084, 794)]",[],[1],[0.5166666666666666],vertical,"(890.0, 262.0)",1.016666667,0.476,1,3586.847,2
0,204,catch,"[(1090, 783)]",[],[1],[],horizontal,"(390.0, 762.0)",1.466666667,nan,1,3591.676,2
0,205,target,"[(1085, 798)]",[],[1],[0.6],vertical,"(390.0, 762.0)",0.983333333,0.561,1,3596.372,2
0,206,target,"[(1080, 786)]",[],[1],[0.5833333333333334],vertical,"(390.0, 262.0)",0.516666667,0.554,1,3601.444,2
0,207,target,"[(1083, 782)]",[],[1],[0.5833333333333334],vertical,"(390.0, 262.0)",0.75,0.542,1,3605.961,2
0,208,target,"[(1073, 801)]",[],[1],[0.65],vertical,"(390.0, 762.0)",0.6,0.607,1,3610.878,3
0,209,catch,"[(1090, 776)]",[],[1],[],horizontal,"(890.0, 762.0)",,"('cti', 1.496),nan",0,3615.794,0
0,210,target,"[(1085, 784)]",[],[1],[0.6333333333333333],vertical,"(390.0, 262.0)",0.933333333,0.588,1,3620.563,1
0,211,target,"[(1091, 781)]",[],[1],[0.06666666666666667],horizontal,"(890.0, 262.0)",1.65,0.035,0,3625.578,0
0,212,target,"[(1081, 791)]",[],[1],[],vertical,"(390.0, 762.0)",,"('cti', 1.553)",0,3630.394,0
0,213,target,"[(1107, 782)]",[],[1],[0.5833333333333334],vertical,"(890.0, 262.0)",1.6,0.544,1,3635.184,1
0,214,target,"[(1082, 794)]",[],[1],[0.5666666666666667],vertical,"(390.0, 762.0)",0.983333333,0.528,1,3640.078,1
0,215,target,"[(1080, 790)]",[],[1],[0.55],vertical,"(390.0, 262.0)",1.083333333,0.518,1,3644.799,1
0,216,target,"[(1104, 785)]",[],[1],[0.26666666666666666],vertical,"(890.0, 762.0)",1.516666667,0.233,1,3649.511,2
0,217,target,"[(1099, 803)]",[],[1],[0.5],vertical,"(390.0, 762.0)",1.183333333,0.465,1,3654.527,2
0,218,target,"[(1080, 793)]",[],[1],[0.35],horizontal,"(890.0, 262.0)",1.45,0.319,1,3659.496,2
0,219,catch,"[(1062, 797)]",[],[1],[],horizontal,"(890.0, 762.0)",,"('cti', 1.508),nan",0,3664.955,0
0,220,target,"[(1077, 797)]",[],[1],[0.4666666666666667],horizontal,"(890.0, 762.0)",1.6,0.436,1,3669.463,1
0,221,target,"[(1056, 776)]",[],[1],[0.85],horizontal,"(890.0, 762.0)",0.533333333,nan,0,3674.445,0
0,222,target,"[(1082, 790)]",[],[1],[0.5166666666666666],horizontal,"(390.0, 762.0)",1.3,0.476,1,3678.962,1
0,223,target,"[(1106, 796)]",[],[1],[0.21666666666666667],horizontal,"(890.0, 762.0)",1.55,0.184,1,3684.044,1
0,224,target,"[(1070, 799)]",[],[1],[0.5333333333333333],vertical,"(890.0, 762.0)",0.5,0.497,1,3688.676,1
0,225,target,"[(1081, 797)]",[],[1],[0.5166666666666666],horizontal,"(390.0, 262.0)",1.183333333,0.472,1,3692.938,2
0,226,target,"[(1075, 798)]",[],[1],[0.85],horizontal,"(890.0, 262.0)",1.616666667,"('cti', 1.6),nan",0,3698.249,0
0,227,target,"[(1080, 789)]",[],[1],[0.5166666666666666],vertical,"(890.0, 262.0)",0.866666667,0.474,1,3703.61,1
0,228,target,"[(1080, 787)]",[],[1],[0.55],horizontal,"(390.0, 762.0)",1.483333333,0.51,1,3708.019,1
0,229,target,"[(1064, 761)]",[],[1],[0.1],horizontal,"(890.0, 762.0)",1.633333333,0.069,0,3712.694,0
0,230,target,"[(1106, 801)]",[],[1],[0.6],horizontal,"(390.0, 262.0)",0.716666667,0.56,1,3718.188,1
0,231,target,"[(1106, 785)]",[],[1],[0.6333333333333333],horizontal,"(390.0, 262.0)",0.883333333,0.587,1,3722.62,1
0,232,target,"[(1079, 793)]",[],[1],[0.48333333333333334],vertical,"(390.0, 262.0)",1.233333333,0.443,1,3726.924,1
0,233,target,"[(1056, 790)]",[],[1],[0.35],vertical,"(390.0, 262.0)",1.35,0.317,1,3731.995,2
0,234,target,"[(1076, 787)]",[],[1],[0.4],horizontal,"(890.0, 762.0)",1.116666667,0.36,1,3737.261,2
0,235,target,"[(1109, 795)]",[],[1],[0.13333333333333333],vertical,"(390.0, 762.0)",1.516666667,0.102,0,3742.292,0
0,236,target,"[(1074, 768)]",[],[1],[0.5833333333333334],horizontal,"(390.0, 762.0)",0.766666667,0.543,1,3746.728,1
0,237,target,"[(1072, 790)]",[],[1],[0.85],vertical,"(390.0, 762.0)",0.75,nan,0,3751.428,0
0,238,target,"[(1104, 790)]",[],[1],[0.55],vertical,"(390.0, 262.0)",1.216666667,0.51,1,3755.879,1
0,239,target,"[(1071, 786)]",[],[1],[0.5666666666666667],horizontal,"(890.0, 762.0)",0.933333333,0.527,1,3760.596,1
0,240,target,"[(1069, 796)]",[],[1],[0.5666666666666667],horizontal,"(890.0, 762.0)",1.183333333,0.525,1,3765.661,1
0,241,target,"[(1077, 791)]",[],[1],[0.3333333333333333],vertical,"(390.0, 262.0)",1.516666667,0.294,1,3770.344,2
0,242,target,"[(1071, 790)]",[],[1],[0.2833333333333333],vertical,"(890.0, 262.0)",1.55,0.248,1,3775.462,2
0,243,target,"[(1076, 794)]",[],[1],[0.85],vertical,"(890.0, 262.0)",0.8,nan,0,3780.912,0
0,244,target,"[(1090, 795)]",[],[1],[0.18333333333333332],vertical,"(390.0, 262.0)",1.666666667,0.15,1,3785.702,1
0,245,target,"[(1066, 785)]",[],[1],[0.6],vertical,"(390.0, 762.0)",1.083333333,0.56,1,3790.809,1
0,246,target,"[(1072, 795)]",[],[1],[0.75],vertical,"(390.0, 762.0)",1.016666667,0.706,1,3795.516,1
0,247,target,"[(1068, 795)]",[],[1],[0.6333333333333333],vertical,"(890.0, 262.0)",1.45,0.592,1,3800.555,2
0,248,target,"[(1071, 797)]",[],[1],[0.6],vertical,"(890.0, 762.0)",0.733333333,0.559,1,3805.591,2
0,249,target,"[(1061, 787)]",[],[1],[0.5166666666666666],vertical,"(390.0, 262.0)",1.3,0.482,1,3810.146,2
0,250,target,"[(1071, 799)]",[],[1],[0.5666666666666667],vertical,"(390.0, 262.0)",0.966666667,0.523,1,3815.708,2
0,251,target,"[(1081, 792)]",[],[1],[0.85],vertical,"(390.0, 762.0)",1.616666667,"('cti', 1.604),nan",0,3820.987,0
0,252,target,"[(1104, 792)]",[],[1],[0.7166666666666667],horizontal,"(390.0, 262.0)",0.55,0.677,1,3826.707,1
0,253,target,"[(1103, 786)]",[],[1],[0.5],vertical,"(390.0, 262.0)",1.283333333,0.463,1,3831.041,1
0,254,catch,"[(1088, 803)]",[],[1],[],vertical,"(390.0, 762.0)",1.366666667,nan,1,3835.596,1
0,255,target,"[(1081, 786)]",[],[1],[0.4666666666666667],vertical,"(390.0, 762.0)",1.366666667,0.432,1,3840.395,2
0,256,target,"[(1086, 799)]",[],[1],[0.5333333333333333],horizontal,"(390.0, 262.0)",1.166666667,0.491,1,3845.864,2
0,257,target,"[(1110, 778)]",[],[1],[0.6166666666666667],horizontal,"(390.0, 762.0)",0.65,0.572,1,3851.308,2
0,258,target,"[(1082, 785)]",[],[1],[0.4166666666666667],vertical,"(890.0, 262.0)",1.433333333,0.379,1,3856.196,2
0,259,target,"[(1040, 792)]",[],[1],[0.6],vertical,"(390.0, 262.0)",1.066666667,0.555,1,3861.161,2
0,260,target,"[(1072, 787)]",[],[1],[0.6],horizontal,"(890.0, 762.0)",0.666666667,0.558,1,3866.46,3
0,261,target,"[(1059, 799)]",[],[1],[0.3833333333333333],horizontal,"(390.0, 762.0)",1.333333333,0.344,1,3871.318,3
0,262,target,"[(1065, 782)]",[],[1],[0.5],vertical,"(890.0, 262.0)",1.5,0.46,1,3876.975,3
0,263,target,"[(1104, 761)]",[],[1],[0.55],horizontal,"(890.0, 262.0)",1.033333333,0.505,1,3882.675,3
0,264,target,"[(1069, 786)]",[],[1],[0.2],horizontal,"(890.0, 262.0)",1.516666667,0.166,1,3887.994,3
0,265,target,"[(1077, 787)]",[],[1],[0.6],horizontal,"(890.0, 262.0)",0.683333333,0.56,1,3893.113,3
0,266,target,"[(1079, 786)]",[],[1],[0.7166666666666667],vertical,"(390.0, 262.0)",1.066666667,0.673,1,3898.03,3
0,267,target,"[(1087, 803)]",[],[1],[0.6],vertical,"(390.0, 762.0)",1.15,0.555,1,3903.529,3
0,268,target,"[(1077, 793)]",[],[1],[0.6166666666666667],vertical,"(390.0, 762.0)",0.916666667,0.569,1,3909.049,3
0,269,target,"[(1061, 783)]",[],[1],[0.6833333333333333],horizontal,"(890.0, 762.0)",0.983333333,0.643,1,3914.333,3
0,270,target,"[(1085, 802)]",[],[1],[0.5666666666666667],horizontal,"(390.0, 762.0)",0.9,0.524,1,3919.667,3
0,271,target,"[(1080, 781)]",[],[1],[0.3333333333333333],vertical,"(890.0, 762.0)",1.4,0.297,1,3925.246,3
0,272,target,"[(1058, 771)]",[],[1],[0.85],vertical,"(390.0, 262.0)",0.6,nan,0,3930.747,0
0,273,target,"[(1079, 803)]",[],[1],[0.5666666666666667],vertical,"(890.0, 762.0)",0.783333333,0.523,1,3935.145,1
0,274,target,"[(1072, 791)]",[],[1],[0.65],horizontal,"(890.0, 262.0)",0.95,0.603,1,3939.788,1
0,275,target,"[(1077, 805)]",[],[1],[0.4666666666666667],horizontal,"(390.0, 762.0)",1.083333333,0.422,1,3944.918,1
0,276,target,"[(1059, 776)]",[],[1],[0.2],vertical,"(390.0, 762.0)",1.6,0.167,1,3949.749,2
0,277,target,"[(1083, 778)]",[],[1],[0.5666666666666667],horizontal,"(390.0, 762.0)",0.666666667,0.523,1,3954.646,2
0,278,target,"[(1083, 786)]",[],[1],[0.5833333333333334],vertical,"(890.0, 762.0)",0.55,0.543,1,3959.444,2
0,279,target,"[(1080, 793)]",[],[1],[0.48333333333333334],horizontal,"(390.0, 762.0)",0.966666667,0.441,1,3964.367,2
0,280,target,"[(1085, 788)]",[],[1],[0.35],vertical,"(890.0, 262.0)",1.283333333,0.305,1,3969.464,2
0,281,target,"[(1077, 792)]",[],[1],[0.5666666666666667],horizontal,"(390.0, 262.0)",0.85,0.527,1,3974.53,3
0,282,target,"[(1081, 770)]",[],[1],[0.6333333333333333],horizontal,"(390.0, 762.0)",0.866666667,0.599,1,3980.047,3
0,283,target,"[(1077, 807)]",[],[1],[0.5333333333333333],vertical,"(890.0, 262.0)",0.933333333,0.486,1,3985.047,3
0,284,target,"[(1078, 799)]",[],[1],[0.75],vertical,"(890.0, 762.0)",1.016666667,0.706,1,3990.341,3
0,285,target,"[(1061, 790)]",[],[1],[0.5666666666666667],horizontal,"(890.0, 762.0)",0.633333333,0.524,1,3995.622,3
0,286,catch,"[(1080, 799)]",[],[1],[],vertical,"(890.0, 762.0)",,"('cti', 1.478),nan",0,4000.845,0
0,287,target,"[(1080, 796)]",[],[1],[0.18333333333333332],vertical,"(390.0, 762.0)",1.35,0.147,0,4005.473,0
0,288,target,"[(1065, 796)]",[],[1],[0.5166666666666666],vertical,"(390.0, 762.0)",1.2,0.473,1,4010.33,1
0,289,target,"[(1063, 775)]",[],[1],[0.2],horizontal,"(890.0, 262.0)",1.516666667,0.168,1,4015.513,1
0,290,catch,"[(1073, 791)]",[],[1],[],horizontal,"(390.0, 762.0)",1.416666667,nan,1,4020.336,1
0,291,target,"[(1064, 782)]",[],[1],[0.25],horizontal,"(390.0, 762.0)",1.55,0.215,1,4024.951,2
0,292,target,"[(1077, 779)]",[],[1],[0.6],vertical,"(890.0, 262.0)",0.866666667,0.551,1,4029.83,2
0,293,target,"[(1077, 782)]",[],[1],[0.6333333333333333],vertical,"(890.0, 262.0)",0.733333333,0.589,1,4035.181,2
0,294,target,"[(1071, 803)]",[],[1],[0.43333333333333335],vertical,"(890.0, 762.0)",1.066666667,0.391,1,4039.863,2
0,295,target,"[(1084, 797)]",[],[1],[0.5666666666666667],vertical,"(390.0, 262.0)",0.6,0.523,1,4045.03,2
0,296,target,"[(1080, 782)]",[],[1],[0.55],vertical,"(890.0, 762.0)",1.233333333,0.503,1,4049.781,3
0,297,target,"[(1076, 803)]",[],[1],[0.5],horizontal,"(890.0, 262.0)",0.55,0.462,1,4055.592,3
0,298,target,"[(1061, 762)]",[],[1],[0.06666666666666667],vertical,"(890.0, 762.0)",1.433333333,0.035,0,4060.631,0
0,299,target,"[(1061, 799)]",[],[1],[0.55],vertical,"(390.0, 262.0)",1.416666667,0.513,1,4065.031,1
0,300,target,"[(1090, 785)]",[],[1],[0.31666666666666665],horizontal,"(390.0, 262.0)",1.6,0.276,1,4070.296,1
0,301,catch,"[(1075, 776)]",[],[1],[],vertical,"(390.0, 262.0)",1.35,nan,1,4075.03,1
0,302,target,"[(1075, 794)]",[],[1],[0.6],horizontal,"(890.0, 262.0)",0.733333333,0.559,1,4079.613,2
0,303,target,"[(1084, 786)]",[],[1],[],vertical,"(390.0, 762.0)",,"('cti', 1.588)",0,4084.565,0
0,304,target,"[(1080, 786)]",[],[1],[0.5333333333333333],horizontal,"(890.0, 262.0)",1.25,0.494,1,4089.31,1
0,305,target,"[(1085, 805)]",[],[1],[0.65],horizontal,"(390.0, 762.0)",0.866666667,0.603,1,4094.156,1
0,306,target,"[(1087, 790)]",[],[1],[0.5166666666666666],horizontal,"(890.0, 762.0)",0.766666667,0.475,1,4098.567,1
0,307,target,"[(1071, 782)]",[],[1],[0.5166666666666666],vertical,"(890.0, 262.0)",0.516666667,0.479,1,4103.006,2
0,308,target,"[(1069, 777)]",[],[1],[0.65],vertical,"(890.0, 262.0)",0.916666667,0.606,1,4107.779,2
0,309,target,"[(1098, 811)]",[],[1],[0.5833333333333334],vertical,"(390.0, 262.0)",1.166666667,0.541,1,4112.756,2
0,310,target,"[(1077, 800)]",[],[1],[0.4],horizontal,"(890.0, 762.0)",1.216666667,0.359,1,4117.776,2
0,311,target,"[(1085, 791)]",[],[1],[0.6833333333333333],horizontal,"(390.0, 262.0)",0.733333333,0.637,1,4122.79,2
0,312,target,"[(1078, 785)]",[],[1],[0.5666666666666667],horizontal,"(890.0, 762.0)",1.016666667,0.524,1,4127.421,3
0,313,target,"[(1098, 785)]",[],[1],[0.3833333333333333],horizontal,"(390.0, 262.0)",1.35,0.345,1,4132.66,3
0,314,target,"[(1078, 777)]",[],[1],[0.3833333333333333],horizontal,"(390.0, 762.0)",1.333333333,0.344,1,4137.766,3
0,315,target,"[(1079, 778)]",[],[1],[0.5666666666666667],horizontal,"(890.0, 762.0)",1.05,0.519,1,4143.281,3
0,316,target,"[(1064, 786)]",[],[1],[],horizontal,"(890.0, 262.0)",,"('cti', 1.506)",0,4148.65,0
0,317,target,"[(1077, 787)]",[],[1],[0.4],vertical,"(890.0, 762.0)",1.266666667,0.359,1,4152.923,1
0,318,target,"[(1075, 783)]",[],[1],[0.36666666666666664],horizontal,"(890.0, 762.0)",1.266666667,0.329,1,4157.762,1
0,319,target,"[(1059, 787)]",[],[1],[0.55],vertical,"(390.0, 262.0)",1.1,0.512,1,4162.695,1
0,320,target,"[(1075, 789)]",[],[1],[0.5333333333333333],horizontal,"(390.0, 762.0)",0.966666667,0.495,1,4167.469,2
0,321,target,"[(1048, 773)]",[],[1],[0.7833333333333333],vertical,"(890.0, 762.0)",0.883333333,0.738,1,4172.744,2
0,322,target,"[(1095, 799)]",[],[1],[0.13333333333333333],vertical,"(890.0, 262.0)",1.5,0.098,0,4177.965,0
0,323,target,"[(1091, 786)]",[],[1],[0.65],horizontal,"(890.0, 262.0)",0.75,0.606,1,4182.93,1
0,324,target,"[(1085, 770)]",[],[1],[0.26666666666666666],vertical,"(390.0, 262.0)",1.5,0.227,1,4187.634,1
0,325,target,"[(1082, 773)]",[],[1],[0.5666666666666667],horizontal,"(390.0, 762.0)",0.766666667,0.523,1,4192.606,1
0,326,target,"[(1060, 775)]",[],[1],[0.6333333333333333],vertical,"(890.0, 762.0)",0.5,0.587,1,4197.068,2
0,327,catch,"[(1084, 795)]",[],[1],[],vertical,"(390.0, 762.0)",1.6,nan,1,4201.666,2
0,328,target,"[(1065, 768)]",[],[1],[0.5666666666666667],horizontal,"(890.0, 762.0)",0.866666667,0.527,1,4206.831,2
0,329,target,"[(1062, 765)]",[],[1],[0.06666666666666667],horizontal,"(890.0, 262.0)",1.516666667,0.036,0,4211.657,0
0,330,target,"[(1061, 807)]",[],[1],[0.4166666666666667],horizontal,"(890.0, 762.0)",1.216666667,0.377,1,4216.316,1
0,331,target,"[(1077, 794)]",[],[1],[0.3833333333333333],vertical,"(890.0, 762.0)",1.233333333,0.341,1,4221.025,1
0,332,catch,"[(1075, 795)]",[],[1],[],horizontal,"(890.0, 762.0)",1.433333333,nan,1,4225.538,1
0,333,target,"[(1081, 797)]",[],[1],[0.6833333333333333],vertical,"(390.0, 762.0)",1.166666667,0.639,1,4229.802,2
0,334,target,"[(1079, 794)]",[],[1],[0.43333333333333335],horizontal,"(890.0, 262.0)",0.95,0.388,1,4235.297,2
0,335,target,"[(1081, 778)]",[],[1],[0.5833333333333334],horizontal,"(390.0, 762.0)",0.95,0.541,1,4240.337,2
0,336,target,"[(1077, 782)]",[],[1],[0.5166666666666666],horizontal,"(890.0, 762.0)",1.216666667,0.476,1,4245.682,2
0,337,target,"[(1084, 798)]",[],[1],[0.5333333333333333],horizontal,"(390.0, 262.0)",1,0.49,1,4250.849,2
0,338,target,"[(1070, 787)]",[],[1],[0.2],horizontal,"(390.0, 762.0)",1.4,0.169,1,4255.548,3
0,339,target,"[(1072, 773)]",[],[1],[0.15],horizontal,"(890.0, 262.0)",1.633333333,0.119,0,4260.981,0
0,340,target,"[(1074, 798)]",[],[1],[0.55],vertical,"(390.0, 262.0)",1.15,0.503,1,4265.798,1
0,341,target,"[(1071, 780)]",[],[1],[0.6],vertical,"(890.0, 762.0)",0.583333333,0.566,1,4270.4,1
0,342,target,"[(1060, 782)]",[],[1],[0.8166666666666667],horizontal,"(390.0, 262.0)",0.533333333,0.766,1,4274.4,1
0,343,target,"[(1090, 795)]",[],[1],[0.6833333333333333],horizontal,"(390.0, 762.0)",0.5,0.636,1,4278.666,2
0,344,target,"[(1079, 777)]",[],[1],[0.06666666666666667],vertical,"(390.0, 762.0)",1.483333333,0.036,0,4283.298,0
0,345,target,"[(1061, 792)]",[],[1],[0.4],vertical,"(890.0, 762.0)",1.6,0.362,1,4288.017,1
0,346,target,"[(1064, 806)]",[],[1],[0.5666666666666667],vertical,"(390.0, 262.0)",0.65,0.525,1,4333.531,1
0,347,target,"[(1067, 800)]",[],[1],[],vertical,"(890.0, 762.0)",,"('cti', 1.236)",0,4337.99,0
0,348,target,"[(1057, 787)]",[],[1],[0.5],vertical,"(890.0, 762.0)",1.333333333,0.46,1,4342.846,1
0,349,target,"[(1082, 798)]",[],[1],[0.7333333333333333],horizontal,"(390.0, 762.0)",0.533333333,0.686,1,4347.933,1
0,350,target,"[(1062, 796)]",[],[1],[0.5666666666666667],vertical,"(390.0, 762.0)",1.033333333,0.528,1,4351.815,1
0,351,target,"[(1072, 776)]",[],[1],[],vertical,"(890.0, 262.0)",,"('cti', 1.288)",0,4356.265,0
0,352,target,"[(1085, 779)]",[],[1],[0.8166666666666667],horizontal,"(890.0, 762.0)",1.283333333,0.769,1,4361.077,1
0,353,target,"[(1075, 777)]",[],[1],[0.6666666666666666],vertical,"(390.0, 762.0)",0.566666667,0.621,1,4365.849,1
0,354,target,"[(1080, 774)]",[],[1],[0.5666666666666667],horizontal,"(890.0, 762.0)",0.766666667,0.526,1,4370.098,1
0,355,target,"[(1066, 787)]",[],[1],[0.5666666666666667],horizontal,"(390.0, 762.0)",0.933333333,0.524,1,4374.42,2
0,356,catch,"[(1075, 784)]",[],[1],[],horizontal,"(890.0, 262.0)",,"('cti', 1.355),nan",0,4379.249,0
0,357,target,"[(1078, 785)]",[],[1],[0.48333333333333334],horizontal,"(390.0, 762.0)",1.416666667,0.442,1,4383.588,1
0,358,target,"[(1075, 798)]",[],[1],[0.7166666666666667],vertical,"(890.0, 762.0)",0.633333333,0.668,1,4388.833,1
0,359,target,"[(1063, 800)]",[],[1],[0.6333333333333333],horizontal,"(890.0, 262.0)",1,0.59,1,4393.001,1
0,360,target,"[(1104, 794)]",[],[1],[0.5166666666666666],horizontal,"(890.0, 762.0)",0.966666667,0.477,1,4397.816,2
0,361,target,"[(1068, 795)]",[],[1],[0.5666666666666667],vertical,"(390.0, 762.0)",1.5,0.524,1,4402.512,2
0,362,target,"[(1059, 770)]",[],[1],[0.55],horizontal,"(890.0, 262.0)",0.55,0.51,1,4407.57,2
0,363,target,"[(1080, 778)]",[],[1],[0.55],vertical,"(890.0, 762.0)",1.2,0.504,1,4412.104,2
0,364,target,"[(1060, 785)]",[],[1],[0.5],vertical,"(390.0, 262.0)",1.6,0.459,1,4417.573,2
0,365,target,"[(1060, 807)]",[],[1],[0.7],vertical,"(390.0, 262.0)",1.216666667,0.649,1,4423.32,3
0,366,target,"[(1069, 798)]",[],[1],[0.7833333333333333],horizontal,"(390.0, 762.0)",0.65,0.735,1,4428.749,3
0,367,target,"[(1060, 795)]",[],[1],[0.6166666666666667],horizontal,"(890.0, 762.0)",0.766666667,0.572,1,4434.016,3
0,368,target,"[(1075, 769)]",[],[1],[0.55],horizontal,"(890.0, 762.0)",0.616666667,0.511,1,4439.566,3
0,369,target,"[(1080, 774)]",[],[1],[0.6],horizontal,"(890.0, 762.0)",1.1,0.553,1,4444.661,3
0,370,target,"[(1081, 782)]",[],[1],[0.6],horizontal,"(890.0, 762.0)",0.683333333,0.558,1,4449.917,3
0,371,target,"[(1074, 794)]",[],[1],[0.3833333333333333],horizontal,"(390.0, 762.0)",1.166666667,0.342,1,4454.907,3
0,372,target,"[(1079, 796)]",[],[1],[0.6333333333333333],horizontal,"(390.0, 262.0)",1.633333333,0.587,1,4460.703,3
0,373,target,"[(1077, 788)]",[],[1],[0.5],horizontal,"(890.0, 262.0)",0.95,0.461,1,4466.387,3
0,374,catch,"[(1085, 805)]",[],[1],[],horizontal,"(390.0, 262.0)",1.2,nan,1,4471.284,3
0,375,target,"[(1079, 796)]",[],[1],[0.15],vertical,"(890.0, 762.0)",1.383333333,0.118,0,4476.522,0
0,376,target,"[(1051, 821)]",[],[1],[0.5833333333333334],horizontal,"(390.0, 262.0)",1,0.54,1,4481.127,1
0,377,catch,"[(1061, 789)]",[],[1],[],vertical,"(390.0, 762.0)",1.6,nan,1,4486.467,1
0,378,target,"[(1060, 796)]",[],[1],[0.5],vertical,"(890.0, 262.0)",1.583333333,0.459,1,4491.21,1
0,379,catch,"[(1071, 792)]",[],[1],[],horizontal,"(890.0, 762.0)",1.15,nan,1,4496.467,2
0,380,target,"[(1076, 786)]",[],[1],[0.5333333333333333],vertical,"(890.0, 762.0)",1.416666667,0.497,1,4500.883,2
0,381,target,"[(1061, 797)]",[],[1],[0.55],vertical,"(890.0, 262.0)",1.1,0.506,1,4506.562,2
0,382,catch,"[(1065, 798)]",[],[1],[],vertical,"(390.0, 262.0)",1.3,nan,1,4511.6,2
0,383,target,"[(1080, 812)]",[],[1],[0.5],vertical,"(890.0, 262.0)",1.1,0.454,1,4516.642,2
0,384,target,"[(1075, 801)]",[],[1],[0.18333333333333332],horizontal,"(890.0, 262.0)",1.683333333,0.146,0,4521.498,0
0,385,target,"[(1074, 806)]",[],[1],[0.6],vertical,"(390.0, 262.0)",0.6,0.554,1,4526.112,1
0,386,target,"[(1076, 793)]",[],[1],[0.25],horizontal,"(890.0, 262.0)",1.316666667,0.215,1,4530.35,1
0,387,target,"[(1063, 785)]",[],[1],[0.8333333333333334],vertical,"(890.0, 762.0)",0.583333333,0.78,1,4535.249,1
0,388,target,"[(1075, 800)]",[],[1],"[0.85, 0.85]",vertical,"(390.0, 762.0)",0.666666667,"0.805,nan",0,4539.97,0
0,389,target,"[(1072, 797)]",[],[1],[0.7],horizontal,"(390.0, 762.0)",0.883333333,0.653,1,4544.548,1
0,390,target,"[(1060, 811)]",[],[1],[0.48333333333333334],vertical,"(390.0, 762.0)",1.583333333,0.438,1,4548.982,1
0,391,target,"[(1059, 776)]",[],[1],[0.21666666666666667],vertical,"(890.0, 762.0)",1.5,0.182,1,4553.884,1
0,392,target,"[(1074, 784)]",[],[1],[0.7],horizontal,"(890.0, 762.0)",0.55,0.646,1,4558.317,2
0,393,target,"[(1082, 782)]",[],[1],[0.8333333333333334],horizontal,"(890.0, 262.0)",0.816666667,0.787,1,4562.817,2
0,394,target,"[(1063, 791)]",[],[1],[0.13333333333333333],vertical,"(390.0, 262.0)",1.683333333,0.101,0,4567.717,0
0,395,target,"[(1061, 794)]",[],[1],[0.31666666666666665],horizontal,"(890.0, 262.0)",1.6,0.281,1,4572.382,1
0,396,target,"[(1083, 773)]",[],[1],[0.7],vertical,"(890.0, 762.0)",0.55,0.656,1,4577.5,1
0,397,target,"[(1075, 786)]",[],[1],[0.5666666666666667],vertical,"(890.0, 762.0)",0.716666667,0.52,1,4581.683,1
0,398,target,"[(1065, 802)]",[],[1],[0.5166666666666666],horizontal,"(390.0, 762.0)",1.083333333,0.477,1,4585.595,2
0,399,target,"[(1090, 800)]",[],[1],[0.7],horizontal,"(390.0, 762.0)",0.533333333,0.655,1,4590.733,2
0,400,target,"[(1070, 774)]",[],[1],[0.6166666666666667],horizontal,"(390.0, 762.0)",1.083333333,0.576,1,4595.35,2
0,401,target,"[(1081, 784)]",[],[1],[],vertical,"(390.0, 762.0)",,"('cti', 1.502)",0,4600.149,0
0,402,target,"[(1083, 792)]",[],[1],[0.4166666666666667],vertical,"(890.0, 762.0)",1.333333333,0.377,1,4604.711,1
0,403,target,"[(1044, 780)]",[],[1],[0.75],horizontal,"(890.0, 762.0)",0.833333333,0.699,1,4609.429,1
0,404,target,"[(1080, 792)]",[],[1],[0.6],vertical,"(390.0, 262.0)",1.383333333,0.562,1,4614.323,1
0,405,catch,"[(1063, 797)]",[],[1],[],vertical,"(890.0, 262.0)",1.55,nan,1,4619.401,2
0,406,target,"[(1077, 803)]",[],[1],[0.3833333333333333],vertical,"(890.0, 262.0)",1.166666667,0.341,1,4624.632,2
0,407,catch,"[(1076, 802)]",[],[1],[],horizontal,"(890.0, 762.0)",1.45,nan,1,4629.928,2
0,408,target,"[(1080, 792)]",[],[1],[0.45],horizontal,"(390.0, 262.0)",1.366666667,0.408,1,4634.835,2
0,409,target,"[(1091, 788)]",[],[1],[0.4],horizontal,"(890.0, 262.0)",1.166666667,0.36,1,4640.051,2
0,410,catch,"[(1083, 797)]",[],[1],[],vertical,"(390.0, 262.0)",1.233333333,nan,1,4645.463,3
0,411,target,"[(1077, 798)]",[],[1],[0.25],horizontal,"(390.0, 262.0)",1.483333333,0.214,1,4650.69,3
0,412,target,"[(1074, 790)]",[],[1],[],horizontal,"(390.0, 262.0)",,"('cti', 1.449)",0,4656.6,0
0,413,catch,"[(1080, 792)]",[],[1],[],vertical,"(890.0, 262.0)",1.15,nan,1,4661.284,1
0,414,target,"[(1069, 802)]",[],[1],[0.05],vertical,"(890.0, 762.0)",1.233333333,0.021,0,4665.773,0
0,415,target,"[(1062, 798)]",[],[1],[0.6166666666666667],horizontal,"(890.0, 762.0)",0.766666667,0.571,1,4669.947,1
0,416,catch,"[(1070, 779)]",[],[1],[],vertical,"(890.0, 262.0)",1.6,nan,1,4674.202,1
0,417,target,"[(1058, 802)]",[],[1],[0.35],vertical,"(890.0, 762.0)",1.483333333,0.313,1,4678.752,1
0,418,target,"[(1071, 777)]",[],[1],[0.6],horizontal,"(390.0, 262.0)",1.133333333,0.559,1,4683.834,2
0,419,target,"[(1099, 799)]",[],[1],[0.16666666666666666],vertical,"(890.0, 262.0)",1.55,0.132,0,4688.74,0
0,420,target,"[(1038, 835)]",[],[1],[0.85],vertical,"(890.0, 262.0)",0.9,nan,0,4693.41,0
0,421,target,"[(343, 478), (1031, 798)]",[],"[0, 1]",[0.7333333333333333],horizontal,"(390.0, 262.0)",0.85,0.685,1,4782.902,1
0,422,target,"[(1056, 833)]",[],[1],[0.6666666666666666],horizontal,"(390.0, 262.0)",1.2,0.626,1,4790.37,1
0,423,target,"[(1104, 837)]",[],[1],[0.85],vertical,"(890.0, 262.0)",0.85,nan,0,4795.713,0
