block,trial,trial_type,taps_start_loc_during_fix,taps_end_loc_during_fix,taps_on_lever_during_fix,taps_on_lever_s_during_fix,bar_orientation,target_xy,cti,rt,acc,time,pulses,fa_rate_recent100,actual_invalid_type
0,1,catch,"[(1046, 818)]",[],[1],[],horizontal,"(390.0, 262.0)",,"('cti', 1.522),nan",0,0.566,0,1.0,same
0,2,valid,"[(980, 790), (1093, 853)]",[],"[0, 1]",[0.43333333333333335],horizontal,"(890.0, 762.0)",1.5333333333333332,0.407,1,64.596,1,0.5,same
0,3,valid,"[(1086, 873)]",[],[1],[],vertical,"(890.0, 262.0)",,"('fix', 0.396)",0,95.063,0,0.3333333333333333,same
0,4,catch,"[(1090, 833)]",[],[1],[],vertical,"(890.0, 762.0)",,"('cti', 1.219),nan",0,350.18,0,0.5,same
0,5,valid,"[(1121, 820)]",[],[1],[0.55],vertical,"(390.0, 762.0)",0.45,0.521,1,354.77,1,0.4,same
0,6,valid,"[(1136, 808)]",[],[1],[0.4],horizontal,"(390.0, 762.0)",1.1,0.368,1,358.974,1,0.3333333333333333,same
0,7,valid,"[(1170, 802)]",[],[1],[0.5333333333333333],vertical,"(890.0, 762.0)",0.7,0.497,1,364.313,1,0.2857142857142857,same
0,8,valid,"[(1161, 803)]",[],[1],[0.5666666666666667],vertical,"(390.0, 262.0)",1.4833333333333334,0.538,1,369.24,2,0.25,same
0,9,catch,"[(1170, 774)]",[],[1],[0.03333333333333333],vertical,"(890.0, 262.0)",1.7,"0.018,nan",0,375.31,0,0.3333333333333333,same
0,10,valid,"[(1133, 838)]",[],[1],[0.6166666666666667],horizontal,"(890.0, 262.0)",1.3,0.584,1,380.574,1,0.3,same
0,11,catch,"[(1131, 797)]",[],[1],[],horizontal,"(890.0, 762.0)",1.7,nan,1,388.599,1,0.2727272727272727,same
0,12,valid,"[(1160, 802)]",[],[1],[0.55],horizontal,"(890.0, 262.0)",0.8166666666666667,0.514,1,394.419,1,0.25,same
0,13,catch,"[(1167, 782)]",[],[1],[],horizontal,"(890.0, 762.0)",,"('cti', 1.425),nan",0,399.868,0,0.3076923076923077,same
0,14,invalid_same_bar,"[(1135, 798)]",[],[1],[0.85],vertical,"(390.0, 262.0)",1.2,nan,0,404.986,0,0.2857142857142857,same
0,15,valid,"[(1155, 773)]",[],[1],[0.65],vertical,"(890.0, 262.0)",0.43333333333333335,0.624,1,409.952,1,0.26666666666666666,same
0,16,valid,"[(1173, 790)]",[],[1],[0.6],vertical,"(890.0, 262.0)",1.15,0.572,1,414.917,1,0.25,same
0,17,valid,"[(1143, 794)]",[],[1],[0.5666666666666667],vertical,"(890.0, 762.0)",1.3,0.539,1,420.28,1,0.23529411764705882,same
0,18,valid,"[(1163, 787)]",[],[1],[0.85],vertical,"(390.0, 762.0)",1.2333333333333334,nan,0,425.944,0,0.2222222222222222,same
0,19,valid,"[(1132, 791)]",[],[1],[0.5666666666666667],vertical,"(890.0, 762.0)",1.4,0.542,1,430.805,1,0.21052631578947367,same
0,20,catch,"[(1196, 792)]",[],[1],[],vertical,"(390.0, 762.0)",1.7,nan,1,436.56,1,0.2,same
0,21,catch,"[(1157, 792)]",[],[1],[],horizontal,"(390.0, 262.0)",1.7,nan,1,442.031,1,0.19047619047619047,same
0,22,valid,"[(1155, 790)]",[],[1],[0.7],horizontal,"(390.0, 762.0)",0.6833333333333333,0.677,1,447.611,2,0.18181818181818182,same
0,23,valid,"[(1170, 792)]",[],[1],[0.25],horizontal,"(390.0, 762.0)",1.4,0.218,1,453.286,2,0.17391304347826086,same
0,24,valid,"[(1156, 797)]",[],[1],[0.48333333333333334],horizontal,"(890.0, 762.0)",1.5333333333333332,0.454,1,459.078,2,0.16666666666666666,same
0,25,valid,"[(1164, 769)]",[],[1],[0.6666666666666666],horizontal,"(890.0, 762.0)",0.8666666666666667,0.643,1,465.481,3,0.16,same
0,26,valid,"[(1155, 799)]",[],[1],[0.55],horizontal,"(390.0, 262.0)",1.0666666666666667,0.523,1,471.119,3,0.15384615384615385,same
0,27,invalid_adjacent_other_bar,"[(1171, 799)]",[],[1],[0.55],vertical,"(390.0, 762.0)",0.7833333333333333,0.524,1,477.043,3,0.14814814814814814,other
0,28,valid,"[(1167, 795)]",[],[1],[0.5333333333333333],vertical,"(390.0, 262.0)",0.5666666666666667,0.509,1,482.774,3,0.14285714285714285,same
0,29,valid,"[(1170, 793)]",[],[1],[0.85],vertical,"(890.0, 262.0)",0.3833333333333333,nan,0,488.408,0,0.13793103448275862,same
0,30,valid,"[(1136, 793)]",[],[1],[0.6166666666666667],vertical,"(390.0, 262.0)",1.05,0.592,1,492.294,1,0.13333333333333333,same
0,31,valid,"[(1178, 799)]",[],[1],[0.7333333333333333],vertical,"(390.0, 262.0)",1.1666666666666667,0.707,1,497.97,1,0.12903225806451613,same
0,32,catch,"[(1160, 792)]",[],[1],[],vertical,"(890.0, 262.0)",1.7,nan,1,503.207,1,0.125,same
0,33,catch,"[(1154, 809)]",[],[1],[],horizontal,"(890.0, 262.0)",1.7,nan,1,508.952,2,0.12121212121212122,same
0,34,valid,"[(1161, 797)]",[],[1],[0.6333333333333333],vertical,"(390.0, 262.0)",0.6333333333333333,0.595,1,515.752,2,0.11764705882352941,same
0,35,valid,"[(1128, 807)]",[],[1],[0.7666666666666666],vertical,"(890.0, 762.0)",0.5,0.725,1,520.899,2,0.11428571428571428,same
0,36,valid,"[(1160, 792)]",[],[1],[0.6333333333333333],vertical,"(390.0, 762.0)",0.85,0.607,1,527.03,3,0.1111111111111111,same
0,37,valid,"[(1170, 789)]",[],[1],[0.6],horizontal,"(890.0, 262.0)",1.2,0.567,1,532.601,3,0.10810810810810811,same
0,38,valid,"[(1171, 787)]",[],[1],[0.1],horizontal,"(390.0, 262.0)",1.5166666666666666,0.065,0,538.461,0,0.10526315789473684,same
0,39,valid,"[(1131, 851)]",[],[1],[0.85],vertical,"(390.0, 262.0)",1.0,nan,0,543.145,0,0.10256410256410256,same
0,40,valid,"[(1121, 836)]",[],[1],[0.85],vertical,"(890.0, 762.0)",0.85,nan,0,564.116,0,0.1,same
0,41,catch,"[(1120, 793)]",[],[1],[],vertical,"(390.0, 262.0)",1.7,nan,1,570.812,1,0.0975609756097561,same
0,42,valid,"[(1133, 798)]",[],[1],[0.85],horizontal,"(390.0, 262.0)",0.4166666666666667,nan,0,576.279,0,0.09523809523809523,same
0,43,catch,"[(1128, 796)]",[],[1],[],vertical,"(890.0, 762.0)",1.7,nan,1,587.804,1,0.09302325581395349,same
0,44,valid,"[(1155, 787)]",[],[1],[0.6666666666666666],vertical,"(390.0, 762.0)",1.1666666666666667,0.62,1,592.928,1,0.09090909090909091,same
0,45,valid,"[(1156, 776)]",[],[1],[0.6333333333333333],vertical,"(390.0, 262.0)",0.85,0.596,1,598.52,1,0.08888888888888889,same
0,46,catch,"[(1173, 795)]",[],[1],[],vertical,"(390.0, 762.0)",1.7,nan,1,603.739,2,0.08695652173913043,same
0,47,valid,"[(1125, 819)]",[],[1],[0.85],vertical,"(390.0, 762.0)",0.5666666666666667,nan,0,609.583,0,0.0851063829787234,same
0,48,catch,"[(1132, 809)]",[],[1],[],horizontal,"(890.0, 762.0)",1.7,nan,1,613.956,1,0.08333333333333333,same
0,49,catch,"[(1155, 792)]",[],[1],[],vertical,"(390.0, 262.0)",1.7,nan,1,619.289,1,0.08163265306122448,same
0,50,valid,"[(1157, 772)]",[],[1],[0.6333333333333333],vertical,"(890.0, 762.0)",0.7666666666666666,0.592,1,624.717,1,0.08,same
0,51,invalid_adjacent_other_bar,"[(1155, 791)]",[],[1],[0.6333333333333333],vertical,"(890.0, 762.0)",1.3166666666666667,0.589,1,629.709,2,0.06,other
0,52,catch,"[(1153, 792)]",[],[1],[],vertical,"(390.0, 762.0)",1.7,nan,1,635.374,2,0.06,same
0,53,valid,"[(1154, 794)]",[],[1],[0.85],horizontal,"(390.0, 762.0)",0.36666666666666664,nan,0,640.974,0,0.06,same
0,54,valid,"[(1122, 796)]",[],[1],[0.5833333333333334],horizontal,"(890.0, 762.0)",1.2,0.549,1,644.92,1,0.04,same
0,55,catch,"[(1164, 773)]",[],[1],[],horizontal,"(890.0, 762.0)",1.7,nan,1,651.034,1,0.04,same
0,56,catch,"[(1157, 795)]",[],[1],[],horizontal,"(390.0, 762.0)",1.7,nan,1,656.193,1,0.04,same
0,57,valid,"[(1129, 771)]",[],[1],[0.75],vertical,"(390.0, 762.0)",0.6333333333333333,0.71,1,661.336,2,0.04,same
0,58,valid,"[(1161, 792)]",[],[1],[0.85],horizontal,"(890.0, 762.0)",0.6333333333333333,nan,0,666.955,0,0.04,same
0,59,valid,"[(1135, 776)]",[],[1],[0.85],vertical,"(890.0, 762.0)",1.3,nan,0,671.147,0,0.02,same
0,60,valid,"[(1131, 793)]",[],[1],[0.35],vertical,"(890.0, 762.0)",1.1666666666666667,0.31,1,676.109,1,0.02,same
0,61,valid,"[(1156, 800)]",[],[1],[],vertical,"(390.0, 262.0)",,"('fix', 0.575)",0,681.66,0,0.02,same
0,62,catch,"[(1147, 801)]",[],[1],[],vertical,"(390.0, 262.0)",1.7,nan,1,683.793,1,0.02,same
0,63,valid,"[(1136, 794)]",[],[1],[0.7666666666666666],horizontal,"(390.0, 762.0)",0.9166666666666666,0.733,1,688.965,1,0.0,same
0,64,catch,"[(1160, 797)]",[],[1],[],horizontal,"(890.0, 262.0)",1.7,nan,1,694.142,1,0.0,same
0,65,valid,"[(1160, 797)]",[],[1],[0.5166666666666666],horizontal,"(890.0, 762.0)",0.9166666666666666,0.473,1,699.407,2,0.0,same
0,66,valid,"[(1173, 794)]",[],[1],[0.5833333333333334],vertical,"(890.0, 762.0)",1.3333333333333333,0.542,1,704.608,2,0.0,same
0,67,valid,"[(1165, 795)]",[],[1],[0.7],horizontal,"(890.0, 262.0)",1.5,0.665,1,710.696,2,0.0,same
0,68,valid,"[(1165, 795)]",[],[1],[0.5666666666666667],vertical,"(390.0, 762.0)",0.6166666666666667,0.527,1,716.303,3,0.0,same
0,69,invalid_adjacent_other_bar,"[(1143, 810)]",[],[1],[0.5],vertical,"(390.0, 262.0)",1.2333333333333334,0.464,1,722.1,3,0.0,other
0,70,valid,"[(1150, 794)]",[],[1],[0.85],vertical,"(390.0, 262.0)",1.2666666666666666,nan,0,727.685,0,0.0,same
0,71,valid,"[(1131, 812)]",[],[1],[0.5166666666666666],vertical,"(390.0, 262.0)",1.5166666666666666,0.477,1,732.586,1,0.0,same
0,72,valid,"[(1136, 797)]",[],[1],[0.85],vertical,"(890.0, 762.0)",1.0,nan,0,738.252,0,0.0,same
0,73,valid,"[(1129, 835)]",[],[1],[],vertical,"(390.0, 262.0)",,"('cti', 0.678)",0,788.222,0,0.0,same
0,74,catch,"[(1087, 812)]",[],[1],[],vertical,"(390.0, 262.0)",1.7,nan,1,792.211,1,0.0,same
0,75,invalid_adjacent_other_bar,"[(1126, 802)]",[],[1],[0.85],vertical,"(390.0, 262.0)",0.85,nan,0,890.727,0,0.0,other
0,76,catch,"[(1101, 838)]",[],[1],[],horizontal,"(890.0, 762.0)",1.7,nan,1,895.743,1,0.0,same
0,77,valid,"[(1131, 810)]",[],[1],[0.35],vertical,"(890.0, 762.0)",1.3,0.31,1,904.826,1,0.0,same
0,78,catch,"[(1135, 831)]",[],[1],[],vertical,"(390.0, 262.0)",1.7,nan,1,910.013,1,0.0,same
0,79,valid,"[(1085, 813)]",[],[1],[0.7333333333333333],vertical,"(890.0, 262.0)",1.05,0.693,1,915.17,2,0.0,same
0,80,valid,"[(1127, 797)]",[],[1],[0.5666666666666667],horizontal,"(390.0, 262.0)",0.6833333333333333,0.529,1,920.826,2,0.0,same
0,81,invalid_same_bar,"[(1160, 787)]",[],[1],[0.6],vertical,"(390.0, 262.0)",0.9833333333333333,0.561,1,926.175,2,0.0,same
0,82,valid,"[(1131, 796)]",[],[1],[0.7],horizontal,"(890.0, 762.0)",0.4166666666666667,0.653,1,931.775,3,0.0,same
0,83,valid,"[(1161, 781)]",[],[1],[0.26666666666666666],horizontal,"(390.0, 762.0)",1.35,0.231,1,937.587,3,0.0,same
0,84,catch,"[(1159, 778)]",[],[1],[],horizontal,"(390.0, 762.0)",1.7,nan,1,943.827,3,0.0,same
0,85,valid,"[(1131, 785)]",[],[1],[0.85],horizontal,"(390.0, 762.0)",0.85,nan,0,949.546,0,0.0,same
0,86,catch,"[(1132, 788)]",[],[1],[],horizontal,"(390.0, 762.0)",,"('cti', 1.051),nan",0,954.361,0,0.02,same
0,87,valid,"[(1116, 792)]",[],[1],[0.6166666666666667],vertical,"(390.0, 762.0)",0.4166666666666667,0.573,1,958.561,1,0.02,same
0,88,valid,"[(1107, 820)]",[],[1],[],horizontal,"(890.0, 762.0)",,"('cti', 1.163)",0,966.505,0,0.02,same
0,89,valid,"[(1096, 822)]",[],[1],[0.85],horizontal,"(890.0, 262.0)",0.7,nan,0,1137.81,0,0.02,same
0,90,valid,"[(1157, 816)]",[],[1],[0.75],horizontal,"(390.0, 762.0)",0.5833333333333334,0.699,1,1197.894,1,0.02,same
0,91,invalid_adjacent_other_bar,"[(1158, 791)]",[],[1],[0.85],vertical,"(390.0, 762.0)",0.8833333333333333,nan,0,1202.445,0,0.02,other
0,92,catch,"[(1141, 783)]",[],[1],[],vertical,"(890.0, 262.0)",1.7,nan,1,1207.364,1,0.02,same
0,93,valid,"[(1157, 812)]",[],[1],[0.5666666666666667],vertical,"(890.0, 262.0)",0.4,0.528,1,1212.723,1,0.02,same
0,94,valid,"[(1156, 800)]",[],[1],[0.85],horizontal,"(890.0, 762.0)",0.4166666666666667,nan,0,1217.035,0,0.02,same
0,95,valid,"[(1155, 792)]",[],[1],[0.5166666666666666],vertical,"(890.0, 262.0)",1.2666666666666666,0.475,1,1221.81,1,0.02,same
0,96,invalid_same_bar,"[(1159, 812)]",[],[1],[0.85],vertical,"(890.0, 262.0)",0.9666666666666667,nan,0,1229.576,0,0.02,same
0,97,valid,"[(1100, 789)]",[],[1],[0.5],horizontal,"(390.0, 762.0)",0.5166666666666666,0.462,1,1234.377,1,0.02,same
0,98,valid,"[(1174, 794)]",[],[1],[0.6833333333333333],vertical,"(390.0, 262.0)",1.0,0.641,1,1248.726,1,0.02,same
0,99,valid,"[(1160, 787)]",[],[1],[0.6166666666666667],vertical,"(890.0, 262.0)",0.5333333333333333,0.576,1,1253.723,1,0.02,same
0,100,valid,"[(1177, 796)]",[],[1],[0.65],vertical,"(390.0, 762.0)",1.3,0.606,1,1258.216,2,0.02,same
0,101,valid,"[(1174, 830)]",[],[1],[0.7833333333333333],vertical,"(390.0, 262.0)",1.15,0.745,1,1264.633,2,0.02,same
0,102,invalid_adjacent_other_bar,"[(1166, 793)]",[],[1],[0.55],horizontal,"(890.0, 762.0)",1.2666666666666666,0.51,1,1275.609,2,0.02,other
0,103,valid,"[(1166, 789)]",[],[1],[0.5333333333333333],vertical,"(890.0, 762.0)",0.7,0.493,1,1281.892,3,0.02,same
0,104,invalid_same_bar,"[(1155, 801)]",[],[1],[0.6166666666666667],vertical,"(390.0, 762.0)",1.1833333333333333,0.569,1,1288.177,3,0.02,same
0,105,valid,"[(1170, 783)]",[],[1],[0.5666666666666667],horizontal,"(890.0, 762.0)",1.5,0.52,1,1294.193,3,0.02,same
0,106,valid,"[(1159, 786)]",[],[1],[0.5833333333333334],vertical,"(890.0, 762.0)",0.5666666666666667,0.543,1,1300.527,3,0.02,same
0,107,valid,"[(1158, 807)]",[],[1],[0.55],vertical,"(890.0, 262.0)",0.6833333333333333,0.511,1,1305.839,3,0.02,same
0,108,valid,"[(1177, 782)]",[],[1],[0.16666666666666666],vertical,"(890.0, 262.0)",1.4666666666666666,0.136,0,1311.647,0,0.02,same
0,109,valid,"[(1156, 778)]",[],[1],[],vertical,"(390.0, 262.0)",,"('cti', 1.321)",0,1316.022,0,0.02,same
0,110,valid,"[(1126, 822)]",[],[1],[0.6],vertical,"(390.0, 762.0)",1.15,0.557,1,1320.25,1,0.02,same
0,111,valid,"[(1186, 776)]",[],[1],[0.6],vertical,"(390.0, 262.0)",0.4166666666666667,0.56,1,1325.292,1,0.02,same
0,112,valid,"[(1172, 777)]",[],[1],[0.55],vertical,"(890.0, 262.0)",1.2333333333333334,0.509,1,1329.839,1,0.02,same
0,113,valid,"[(1171, 797)]",[],[1],[0.65],vertical,"(890.0, 762.0)",1.1,0.607,1,1334.721,2,0.02,same
0,114,valid,"[(1201, 797)]",[],[1],[0.5166666666666666],vertical,"(390.0, 762.0)",1.3833333333333333,0.482,1,1340.442,2,0.02,same
0,115,valid,"[(1175, 785)]",[],[1],[0.85],horizontal,"(390.0, 762.0)",0.8666666666666667,nan,0,1346.237,0,0.02,same
0,116,valid,"[(1161, 783)]",[],[1],[0.6333333333333333],horizontal,"(390.0, 762.0)",1.5,0.587,1,1351.192,1,0.02,same
0,117,valid,"[(1160, 789)]",[],[1],[0.55],vertical,"(390.0, 762.0)",0.8666666666666667,0.51,1,1356.541,1,0.02,same
0,118,valid,"[(1178, 782)]",[],[1],[0.85],horizontal,"(890.0, 262.0)",0.65,nan,0,1361.171,0,0.02,same
0,119,valid,"[(1136, 764)]",[],[1],[0.6],vertical,"(390.0, 762.0)",1.0166666666666666,0.553,1,1365.21,1,0.02,same
0,120,valid,"[(1200, 777)]",[],[1],[0.8333333333333334],vertical,"(390.0, 262.0)",1.45,0.79,1,1370.563,1,0.02,same
0,121,valid,"[(1176, 798)]",[],[1],[0.5333333333333333],vertical,"(390.0, 262.0)",0.5166666666666666,0.491,1,1376.133,1,0.02,same
0,122,catch,"[(1178, 774)]",[],[1],[],horizontal,"(390.0, 762.0)",1.7,nan,1,1380.845,2,0.02,same
0,123,valid,"[(1172, 799)]",[],[1],[0.85],vertical,"(390.0, 762.0)",0.8166666666666667,nan,0,1386.59,0,0.02,same
0,124,valid,"[(1157, 802)]",[],[1],[0.6166666666666667],vertical,"(390.0, 762.0)",1.3333333333333333,0.573,1,1391.661,1,0.02,same
0,125,catch,"[(1175, 779)]",[],[1],[],horizontal,"(390.0, 762.0)",1.7,nan,1,1396.568,1,0.02,same
0,126,valid,"[(1164, 797)]",[],[1],[0.5833333333333334],vertical,"(890.0, 262.0)",1.4333333333333333,0.542,1,1401.28,1,0.02,same
0,127,catch,"[(1180, 769)]",[],[1],[],vertical,"(390.0, 262.0)",1.7,nan,1,1406.59,2,0.02,same
0,128,catch,"[(1175, 769)]",[],[1],[],vertical,"(390.0, 262.0)",1.7,nan,1,1412.589,2,0.02,same
0,129,catch,"[(1176, 787)]",[],[1],[],horizontal,"(890.0, 762.0)",1.7,nan,1,1417.95,2,0.02,same
0,130,valid,"[(1164, 773)]",[],[1],[0.5666666666666667],horizontal,"(390.0, 762.0)",0.9666666666666667,0.528,1,1423.523,3,0.02,same
0,131,catch,"[(1161, 782)]",[],[1],[],vertical,"(890.0, 762.0)",1.7,nan,1,1429.074,3,0.02,same
0,132,invalid_adjacent_other_bar,"[(1175, 795)]",[],[1],[0.6833333333333333],horizontal,"(390.0, 262.0)",0.3833333333333333,0.635,1,1435.362,3,0.02,other
0,133,valid,"[(1175, 788)]",[],[1],[0.5833333333333334],vertical,"(390.0, 262.0)",0.5166666666666666,0.542,1,1440.277,3,0.02,same
0,134,catch,"[(1175, 775)]",[],[1],[],horizontal,"(390.0, 762.0)",1.7,nan,1,1445.609,3,0.02,same
0,135,valid,"[(1160, 774)]",[],[1],[0.5166666666666666],horizontal,"(890.0, 762.0)",1.3166666666666667,0.479,1,1451.529,3,0.02,same
0,136,valid,"[(1160, 800)]",[],[1],[0.7833333333333333],vertical,"(390.0, 762.0)",1.15,0.741,1,1457.796,3,0.0,same
0,137,valid,"[(1173, 799)]",[],[1],[0.5833333333333334],horizontal,"(390.0, 262.0)",0.5666666666666667,0.541,1,1463.74,3,0.0,same
0,138,valid,"[(1157, 788)]",[],[1],[0.5666666666666667],vertical,"(390.0, 262.0)",0.6666666666666666,0.522,1,1468.795,3,0.0,same
0,139,valid,"[(1180, 771)]",[],[1],[0.6],horizontal,"(390.0, 762.0)",0.9166666666666666,0.555,1,1474.563,3,0.0,same
0,140,valid,"[(1175, 801)]",[],[1],[0.5666666666666667],horizontal,"(390.0, 762.0)",0.43333333333333335,0.523,1,1480.499,3,0.0,same
0,141,valid,"[(1160, 763)]",[],[1],[0.5666666666666667],vertical,"(890.0, 762.0)",0.9666666666666667,0.525,1,1485.745,3,0.0,same
0,142,invalid_adjacent_other_bar,"[(1158, 792)]",[],[1],[0.85],vertical,"(890.0, 262.0)",0.4166666666666667,nan,0,1491.562,0,0.0,other
0,143,valid,"[(1131, 774)]",[],[1],[0.55],horizontal,"(890.0, 262.0)",1.5166666666666666,0.512,1,1495.559,1,0.0,same
0,144,valid,"[(1175, 777)]",[],[1],[0.48333333333333334],horizontal,"(390.0, 762.0)",1.35,0.438,1,1501.26,1,0.0,same
0,145,valid,"[(1195, 771)]",[],[1],[0.48333333333333334],vertical,"(390.0, 262.0)",1.2333333333333334,0.441,1,1506.862,1,0.0,same
0,146,invalid_adjacent_other_bar,"[(1181, 789)]",[],[1],[0.5333333333333333],vertical,"(890.0, 762.0)",0.7,0.492,1,1512.061,2,0.0,other
0,147,catch,"[(1175, 782)]",[],[1],[],vertical,"(390.0, 762.0)",1.7,nan,1,1517.165,2,0.0,same
0,148,valid,"[(1174, 770)]",[],[1],[0.6333333333333333],horizontal,"(390.0, 762.0)",0.65,0.592,1,1522.967,2,0.0,same
0,149,invalid_same_bar,"[(1160, 799)]",[],[1],[0.5166666666666666],horizontal,"(890.0, 262.0)",1.0833333333333333,0.476,1,1528.095,3,0.0,same
0,150,invalid_same_bar,"[(1161, 797)]",[],[1],[0.5166666666666666],horizontal,"(890.0, 262.0)",0.85,0.475,1,1534.527,3,0.0,same
0,151,valid,"[(1167, 788)]",[],[1],[0.55],vertical,"(390.0, 762.0)",1.1,0.51,1,1539.922,3,0.0,same
0,152,catch,"[(1179, 776)]",[],[1],[],vertical,"(390.0, 262.0)",1.7,nan,1,1546.061,3,0.0,same
0,153,invalid_same_bar,"[(1173, 797)]",[],[1],[0.5],vertical,"(890.0, 762.0)",1.05,0.461,1,1552.028,3,0.0,same
0,154,valid,"[(1170, 795)]",[],[1],[0.7],horizontal,"(890.0, 262.0)",1.5333333333333332,0.655,1,1557.578,3,0.0,same
0,155,valid,"[(1170, 786)]",[],[1],[0.55],vertical,"(390.0, 262.0)",0.65,0.507,1,1563.705,3,0.0,same
0,156,valid,"[(1171, 797)]",[],[1],[0.6333333333333333],vertical,"(390.0, 762.0)",1.2666666666666666,0.586,1,1569.018,3,0.0,same
0,157,invalid_adjacent_other_bar,"[(1203, 798)]",[],[1],[0.4166666666666667],vertical,"(890.0, 262.0)",1.4833333333333334,0.377,1,1574.782,3,0.0,other
0,158,valid,"[(1161, 780)]",[],[1],[0.5166666666666666],vertical,"(890.0, 262.0)",1.3333333333333333,0.471,1,1581.17,3,0.0,same
0,159,catch,"[(1174, 802)]",[],[1],[],vertical,"(390.0, 262.0)",1.7,nan,1,1587.194,3,0.0,same
0,160,valid,"[(1175, 798)]",[],[1],[0.6666666666666666],horizontal,"(890.0, 762.0)",0.6166666666666667,0.621,1,1592.902,3,0.0,same
0,161,catch,"[(1172, 775)]",[],[1],[],horizontal,"(890.0, 262.0)",1.7,"('cti', 1.685),nan",0,1598.391,0,0.02,same
0,162,invalid_adjacent_other_bar,"[(1142, 792)]",[],[1],[0.6666666666666666],horizontal,"(890.0, 762.0)",0.7166666666666667,0.622,1,1603.17,1,0.02,other
0,163,valid,"[(1181, 781)]",[],[1],[0.6166666666666667],horizontal,"(390.0, 762.0)",1.0,0.573,1,1608.289,1,0.02,same
0,164,catch,"[(1171, 770)]",[],[1],[],vertical,"(890.0, 762.0)",1.7,nan,1,1613.149,1,0.02,same
0,165,catch,"[(1174, 775)]",[],[1],[],vertical,"(890.0, 262.0)",1.7,nan,1,1618.31,2,0.02,same
0,166,valid,"[(1159, 765)]",[],[1],[0.5333333333333333],vertical,"(890.0, 762.0)",0.45,0.496,1,1623.928,2,0.02,same
0,167,invalid_adjacent_other_bar,"[(1172, 784)]",[],[1],[0.6166666666666667],horizontal,"(890.0, 262.0)",1.3166666666666667,0.574,1,1628.611,2,0.02,other
0,168,valid,"[(1175, 772)]",[],[1],[0.5833333333333334],horizontal,"(390.0, 262.0)",1.2333333333333334,0.542,1,1634.483,3,0.02,same
0,169,valid,"[(1173, 782)]",[],[1],[0.5166666666666666],horizontal,"(890.0, 262.0)",0.43333333333333335,0.471,1,1640.883,3,0.02,same
0,170,invalid_same_bar,"[(1183, 773)]",[],[1],[0.55],vertical,"(390.0, 262.0)",1.4333333333333333,0.507,1,1645.928,3,0.02,same
0,171,valid,"[(1175, 794)]",[],[1],[0.5833333333333334],horizontal,"(890.0, 762.0)",1.0166666666666666,0.543,1,1652.177,3,0.02,same
0,172,valid,"[(1177, 780)]",[],[1],[0.5833333333333334],horizontal,"(390.0, 262.0)",0.8166666666666667,0.547,1,1657.718,3,0.02,same
0,173,valid,"[(1181, 764)]",[],[1],[0.4666666666666667],horizontal,"(390.0, 262.0)",0.95,0.428,1,1663.286,3,0.02,same
0,174,valid,"[(1178, 788)]",[],[1],[0.2833333333333333],horizontal,"(890.0, 762.0)",1.5333333333333332,0.251,1,1669.111,3,0.02,same
0,175,invalid_same_bar,"[(1160, 778)]",[],[1],[0.7333333333333333],vertical,"(390.0, 762.0)",0.4166666666666667,0.69,1,1675.184,3,0.02,same
0,176,valid,"[(1171, 786)]",[],[1],[0.5],vertical,"(890.0, 262.0)",1.5,0.464,1,1680.669,3,0.02,same
0,177,valid,"[(1165, 769)]",[],[1],[0.5333333333333333],vertical,"(890.0, 262.0)",0.6,0.494,1,1686.911,3,0.02,same
0,178,invalid_same_bar,"[(1175, 802)]",[],[1],[0.85],horizontal,"(390.0, 262.0)",1.4333333333333333,nan,0,1692.611,0,0.02,same
0,179,valid,"[(1160, 795)]",[],[1],[0.5666666666666667],vertical,"(390.0, 762.0)",0.8666666666666667,0.532,1,1697.461,1,0.02,same
0,180,valid,"[(1178, 772)]",[],[1],[0.5166666666666666],vertical,"(890.0, 762.0)",1.0833333333333333,0.482,1,1702.761,1,0.02,same
0,181,valid,"[(1170, 792)]",[],[1],[0.48333333333333334],horizontal,"(890.0, 262.0)",0.9833333333333333,0.453,1,1707.447,1,0.02,same
0,182,catch,"[(1170, 772)]",[],[1],[],vertical,"(890.0, 762.0)",,"('cti', 0.616),nan",0,1712.701,0,0.04,same
0,183,valid,"[(1146, 795)]",[],[1],[0.5333333333333333],horizontal,"(390.0, 262.0)",1.2,0.492,1,1716.819,1,0.04,same
0,184,catch,"[(1168, 770)]",[],[1],[],horizontal,"(890.0, 262.0)",1.7,nan,1,1722.279,1,0.04,same
0,185,valid,"[(1177, 772)]",[],[1],[0.5166666666666666],horizontal,"(390.0, 762.0)",1.35,0.477,1,1727.279,1,0.04,same
0,186,valid,"[(1180, 795)]",[],[1],[0.5],vertical,"(390.0, 762.0)",0.6333333333333333,0.469,1,1732.769,2,0.04,same
0,187,valid,"[(1156, 783)]",[],[1],[0.85],horizontal,"(890.0, 762.0)",0.5666666666666667,nan,0,1738.177,0,0.04,same
0,188,valid,"[(1156, 785)]",[],[1],[0.5333333333333333],horizontal,"(390.0, 762.0)",0.9,0.496,1,1742.744,1,0.04,same
0,189,catch,"[(1155, 769)]",[],[1],[],vertical,"(390.0, 262.0)",1.7,nan,1,1747.533,1,0.04,same
0,190,valid,"[(1175, 776)]",[],[1],[0.5666666666666667],vertical,"(390.0, 762.0)",1.2,0.529,1,1752.911,1,0.04,same
0,191,valid,"[(1174, 782)]",[],[1],[0.55],vertical,"(890.0, 762.0)",0.8,0.514,1,1758.446,2,0.04,same
0,192,valid,"[(1199, 793)]",[],[1],[0.6666666666666666],horizontal,"(890.0, 262.0)",1.05,0.633,1,1763.491,2,0.04,same
0,193,valid,"[(1161, 766)]",[],[1],[0.5666666666666667],vertical,"(890.0, 262.0)",1.0166666666666666,0.524,1,1769.51,2,0.04,same
0,194,valid,"[(1159, 787)]",[],[1],[0.5166666666666666],vertical,"(390.0, 762.0)",0.9166666666666666,0.472,1,1774.843,3,0.04,same
0,195,invalid_adjacent_other_bar,"[(1175, 774)]",[],[1],[0.6833333333333333],vertical,"(390.0, 762.0)",0.6666666666666666,0.647,1,1780.816,3,0.04,other
0,196,invalid_same_bar,"[(1180, 782)]",[],[1],[0.85],vertical,"(890.0, 262.0)",0.6666666666666666,nan,0,1786.078,0,0.04,same
0,197,catch,"[(1131, 792)]",[],[1],[],vertical,"(390.0, 762.0)",1.7,nan,1,1790.296,1,0.04,same
0,198,valid,"[(1175, 773)]",[],[1],[0.6166666666666667],horizontal,"(890.0, 762.0)",0.7166666666666667,0.573,1,1795.35,1,0.04,same
0,199,catch,"[(1177, 774)]",[],[1],[],vertical,"(390.0, 262.0)",1.7,nan,1,1799.779,1,0.04,same
0,200,catch,"[(1171, 796)]",[],[1],[],horizontal,"(890.0, 262.0)",,"('cti', 1.574),nan",0,1805.379,0,0.06,same
0,201,catch,"[(1131, 799)]",[],[1],[],vertical,"(890.0, 762.0)",1.7,nan,1,1810.246,1,0.06,same
0,202,valid,"[(1172, 783)]",[],[1],[0.6166666666666667],horizontal,"(390.0, 262.0)",0.9166666666666666,0.568,1,1818.146,1,0.06,same
0,203,valid,"[(1172, 797)]",[],[1],[0.55],horizontal,"(390.0, 262.0)",1.1833333333333333,0.511,1,1823.166,1,0.06,same
0,204,valid,"[(1164, 790)]",[],[1],[0.5333333333333333],vertical,"(890.0, 762.0)",0.75,0.499,1,1828.25,2,0.06,same
0,205,valid,"[(1174, 782)]",[],[1],[0.55],horizontal,"(390.0, 262.0)",1.5166666666666666,0.512,1,1833.173,2,0.06,same
0,206,invalid_adjacent_other_bar,"[(1166, 773)]",[],[1],[0.5833333333333334],horizontal,"(890.0, 262.0)",0.4,0.545,1,1838.941,2,0.06,other
0,207,catch,"[(1163, 783)]",[],[1],[],vertical,"(890.0, 262.0)",,"('cti', 1.657),nan",0,1843.628,0,0.08,same
0,208,valid,"[(1132, 793)]",[],[1],[0.5],vertical,"(890.0, 762.0)",1.45,0.459,1,1848.612,1,0.08,same
0,209,valid,"[(1183, 800)]",[],[1],[0.5333333333333333],horizontal,"(390.0, 762.0)",0.4166666666666667,0.497,1,1853.924,1,0.08,same
0,210,valid,"[(1158, 773)]",[],[1],[0.5333333333333333],vertical,"(890.0, 262.0)",0.6666666666666666,0.489,1,1858.127,1,0.08,same
0,211,valid,"[(1179, 787)]",[],[1],[0.55],vertical,"(890.0, 762.0)",1.0333333333333332,0.519,1,1862.526,2,0.06,same
0,212,valid,"[(1175, 797)]",[],[1],[0.6333333333333333],vertical,"(390.0, 762.0)",1.15,0.595,1,1867.673,2,0.06,same
0,213,valid,"[(1156, 802)]",[],[1],[0.6166666666666667],horizontal,"(390.0, 762.0)",0.4,0.572,1,1873.02,2,0.06,same
0,214,valid,"[(1159, 783)]",[],[1],[0.5833333333333334],horizontal,"(890.0, 762.0)",1.0833333333333333,0.547,1,1878.169,3,0.06,same
0,215,catch,"[(1175, 778)]",[],[1],[],horizontal,"(890.0, 262.0)",1.7,nan,1,1884.26,3,0.06,same
0,216,valid,"[(1177, 782)]",[],[1],[0.6333333333333333],vertical,"(890.0, 262.0)",0.5,0.585,1,1890.356,3,0.06,same
0,217,valid,"[(1161, 779)]",[],[1],[0.6166666666666667],vertical,"(390.0, 262.0)",1.5333333333333332,0.569,1,1895.846,3,0.06,same
0,218,valid,"[(1179, 787)]",[],[1],[0.5166666666666666],horizontal,"(390.0, 262.0)",0.4666666666666667,0.484,1,1901.933,3,0.06,same
0,219,valid,"[(1168, 776)]",[],[1],[0.5166666666666666],horizontal,"(390.0, 262.0)",1.3833333333333333,0.481,1,1906.852,3,0.06,same
0,220,invalid_adjacent_other_bar,"[(1163, 769)]",[],[1],[0.5333333333333333],vertical,"(390.0, 762.0)",0.7666666666666666,0.495,1,1912.761,3,0.06,other
0,221,valid,"[(1170, 790)]",[],[1],[0.5],vertical,"(890.0, 262.0)",0.9166666666666666,0.462,1,1918.379,3,0.06,same
0,222,valid,"[(1156, 772)]",[],[1],[0.65],vertical,"(390.0, 262.0)",0.4,0.607,1,1923.777,3,0.06,same
0,223,invalid_adjacent_other_bar,"[(1167, 776)]",[],[1],[0.5166666666666666],vertical,"(390.0, 262.0)",1.45,0.473,1,1929.173,3,0.06,other
0,224,invalid_adjacent_other_bar,"[(1173, 781)]",[],[1],[0.85],vertical,"(890.0, 262.0)",0.4166666666666667,nan,0,1935.696,0,0.06,other
0,225,valid,"[(1146, 781)]",[],[1],[0.4166666666666667],horizontal,"(390.0, 262.0)",1.1833333333333333,0.377,1,1939.633,1,0.06,same
0,226,catch,"[(1170, 773)]",[],[1],[],vertical,"(390.0, 262.0)",1.7,nan,1,1944.898,1,0.06,same
0,227,invalid_adjacent_other_bar,"[(1172, 798)]",[],[1],[0.5833333333333334],horizontal,"(890.0, 262.0)",1.0,0.54,1,1949.949,1,0.06,other
0,228,invalid_same_bar,"[(1170, 767)]",[],[1],[0.5666666666666667],vertical,"(890.0, 762.0)",1.5166666666666666,0.521,1,1955.186,2,0.06,same
0,229,catch,"[(1155, 780)]",[],[1],[],horizontal,"(390.0, 262.0)",1.7,nan,1,1960.906,2,0.06,same
0,230,valid,"[(1170, 791)]",[],[1],[0.6166666666666667],vertical,"(890.0, 262.0)",0.8833333333333333,0.571,1,1966.41,2,0.06,same
0,231,catch,"[(1165, 801)]",[],[1],[],vertical,"(890.0, 762.0)",1.7,nan,1,1971.692,3,0.06,same
0,232,valid,"[(1166, 799)]",[],[1],[0.6166666666666667],vertical,"(390.0, 762.0)",1.4333333333333333,0.577,1,1978.182,3,0.04,same
0,233,valid,"[(1173, 799)]",[],[1],[0.6333333333333333],vertical,"(890.0, 262.0)",1.15,0.583,1,1984.362,3,0.04,same
0,234,valid,"[(1159, 778)]",[],[1],[0.6666666666666666],horizontal,"(890.0, 762.0)",1.25,0.62,1,1990.351,3,0.04,same
0,235,valid,"[(1165, 783)]",[],[1],[0.65],vertical,"(890.0, 762.0)",0.6833333333333333,0.604,1,1996.546,3,0.04,same
0,236,valid,"[(1168, 799)]",[],[1],[0.5166666666666666],vertical,"(390.0, 262.0)",0.9,0.474,1,2002.314,3,0.04,same
0,237,catch,"[(1165, 800)]",[],[1],[],horizontal,"(390.0, 262.0)",1.7,nan,1,2007.921,3,0.04,same
0,238,valid,"[(1171, 781)]",[],[1],[0.5333333333333333],vertical,"(890.0, 262.0)",0.8833333333333333,0.49,1,2013.471,3,0.04,same
0,239,invalid_adjacent_other_bar,"[(1188, 783)]",[],[1],[0.6666666666666666],vertical,"(890.0, 262.0)",0.7333333333333333,0.615,1,2019.213,3,0.04,other
0,240,valid,"[(1155, 788)]",[],[1],[0.5833333333333334],horizontal,"(890.0, 762.0)",1.2,0.538,1,2024.525,3,0.04,same
0,241,valid,"[(1175, 796)]",[],[1],[0.5833333333333334],horizontal,"(390.0, 262.0)",1.2833333333333332,0.542,1,2030.322,3,0.04,same
0,242,invalid_adjacent_other_bar,"[(1156, 799)]",[],[1],[0.6333333333333333],vertical,"(890.0, 762.0)",1.3166666666666667,0.593,1,2035.979,3,0.04,other
0,243,invalid_adjacent_other_bar,"[(1156, 788)]",[],[1],[0.7833333333333333],vertical,"(890.0, 262.0)",0.7666666666666666,0.734,1,2041.928,3,0.04,other
0,244,valid,"[(1186, 800)]",[],[1],[0.45],horizontal,"(890.0, 762.0)",1.45,0.408,1,2047.945,3,0.04,same
0,245,valid,"[(1169, 797)]",[],[1],[0.7166666666666667],horizontal,"(390.0, 262.0)",1.1333333333333333,0.674,1,2053.98,3,0.04,same
0,246,catch,"[(1155, 798)]",[],[1],[],vertical,"(390.0, 262.0)",1.7,"('cti', 1.689),nan",0,2059.813,0,0.06,same
0,247,valid,"[(1086, 807)]",[],[1],[0.55],horizontal,"(390.0, 262.0)",0.7333333333333333,0.506,1,2065.273,1,0.06,same
0,248,valid,"[(1168, 771)]",[],[1],[0.6833333333333333],horizontal,"(890.0, 262.0)",0.7,0.639,1,2070.226,1,0.06,same
0,249,catch,"[(1161, 791)]",[],[1],[],horizontal,"(390.0, 762.0)",1.7,nan,1,2075.313,1,0.06,same
0,250,invalid_adjacent_other_bar,"[(1165, 802)]",[],[1],[0.5166666666666666],horizontal,"(390.0, 762.0)",1.05,0.479,1,2080.372,2,0.04,other
0,251,catch,"[(1162, 797)]",[],[1],[],vertical,"(390.0, 762.0)",1.7,nan,1,2085.862,2,0.04,same
0,252,invalid_adjacent_other_bar,"[(1168, 780)]",[],[1],[0.55],vertical,"(390.0, 762.0)",0.9666666666666667,0.514,1,2091.57,2,0.04,other
0,253,catch,"[(1172, 797)]",[],[1],[],horizontal,"(890.0, 762.0)",,"('cti', 1.333),nan",0,2096.76,0,0.06,same
0,254,invalid_adjacent_other_bar,"[(1081, 831)]",[],[1],[0.5166666666666666],horizontal,"(890.0, 262.0)",0.7166666666666667,0.48,1,2101.516,1,0.06,other
0,255,catch,"[(1158, 802)]",[],[1],[],vertical,"(390.0, 762.0)",1.7,nan,1,2145.046,1,0.06,same
0,256,invalid_same_bar,"[(1153, 807)]",[],[1],[0.6],vertical,"(390.0, 762.0)",0.4166666666666667,0.554,1,2150.435,1,0.06,same
0,257,catch,"[(1156, 788)]",[],[1],[],horizontal,"(390.0, 262.0)",1.7,nan,1,2155.11,2,0.04,same
0,258,catch,"[(1157, 784)]",[],[1],[],horizontal,"(390.0, 262.0)",1.7,nan,1,2160.822,2,0.04,same
0,259,valid,"[(1152, 795)]",[],[1],[0.5666666666666667],vertical,"(890.0, 262.0)",0.7166666666666667,0.53,1,2166.428,2,0.04,same
0,260,invalid_adjacent_other_bar,"[(1160, 791)]",[],[1],[0.85],vertical,"(390.0, 762.0)",0.4666666666666667,nan,0,2171.638,0,0.04,other
0,261,valid,"[(1112, 778)]",[],[1],[0.85],vertical,"(890.0, 262.0)",0.43333333333333335,nan,0,2176.245,0,0.04,same
0,262,catch,"[(1134, 797)]",[],[1],[],vertical,"(890.0, 762.0)",1.7,nan,1,2180.145,1,0.04,same
0,263,catch,"[(1163, 807)]",[],[1],[],vertical,"(890.0, 762.0)",1.7,nan,1,2185.752,1,0.04,same
0,264,valid,"[(1167, 799)]",[],[1],[0.6],vertical,"(890.0, 762.0)",0.3833333333333333,0.557,1,2191.213,1,0.04,same
0,265,valid,"[(1197, 791)]",[],[1],[0.6166666666666667],horizontal,"(390.0, 762.0)",0.3833333333333333,0.58,1,2195.919,2,0.04,same
0,266,valid,"[(1172, 776)]",[],[1],[0.7],vertical,"(390.0, 262.0)",0.7,0.657,1,2200.97,2,0.04,same
0,267,valid,"[(1168, 797)]",[],[1],[0.48333333333333334],horizontal,"(890.0, 262.0)",1.3333333333333333,0.444,1,2205.829,2,0.04,same
0,268,valid,"[(1169, 791)]",[],[1],[0.5333333333333333],horizontal,"(390.0, 262.0)",0.5833333333333334,0.49,1,2212.204,3,0.04,same
0,269,catch,"[(1155, 787)]",[],[1],[],vertical,"(390.0, 762.0)",1.7,nan,1,2217.569,3,0.04,same
0,270,valid,"[(1165, 802)]",[],[1],[],horizontal,"(890.0, 262.0)",,"('cti', 1.24)",0,2223.262,0,0.04,same
0,271,invalid_adjacent_other_bar,"[(1132, 798)]",[],[1],[0.5166666666666666],vertical,"(890.0, 762.0)",1.3666666666666667,0.478,1,2227.413,1,0.04,other
0,272,valid,"[(1154, 773)]",[],[1],[0.85],vertical,"(890.0, 262.0)",0.45,nan,0,2232.439,0,0.04,same
0,273,valid,"[(1135, 776)]",[],[1],[0.85],horizontal,"(390.0, 762.0)",0.5166666666666666,nan,0,2236.923,0,0.04,same
0,274,catch,"[(1116, 798)]",[],[1],[],horizontal,"(390.0, 762.0)",1.7,nan,1,2241.034,1,0.04,same
0,275,valid,"[(1156, 778)]",[],[1],[0.65],vertical,"(390.0, 762.0)",1.25,0.608,1,2246.211,1,0.04,same
0,276,valid,"[(1159, 786)]",[],[1],[0.4166666666666667],horizontal,"(890.0, 262.0)",1.5166666666666666,0.38,1,2251.596,1,0.04,same
0,277,valid,"[(1154, 787)]",[],[1],[0.5333333333333333],vertical,"(890.0, 262.0)",0.6833333333333333,0.489,1,2257.02,2,0.04,same
0,278,valid,"[(1155, 799)]",[],[1],[0.6166666666666667],horizontal,"(890.0, 762.0)",0.7666666666666666,0.577,1,2261.762,2,0.04,same
0,279,catch,"[(1156, 781)]",[],[1],[],vertical,"(390.0, 262.0)",,"('cti', 1.613),nan",0,2267.024,0,0.06,same
0,280,valid,"[(1136, 799)]",[],[1],[0.5833333333333334],vertical,"(890.0, 762.0)",0.4666666666666667,0.54,1,2272.112,1,0.06,same
0,281,catch,"[(1166, 816)]",[],[1],[],horizontal,"(390.0, 762.0)",1.7,nan,1,2276.63,1,0.06,same
0,282,valid,"[(1150, 802)]",[],[1],[0.5333333333333333],horizontal,"(390.0, 262.0)",0.7666666666666666,0.494,1,2281.786,1,0.06,same
0,283,catch,"[(1155, 772)]",[],[1],[],vertical,"(390.0, 262.0)",1.7,nan,1,2286.163,2,0.06,same
0,284,valid,"[(1152, 766)]",[],[1],[0.55],vertical,"(890.0, 262.0)",0.6166666666666667,0.508,1,2291.444,2,0.06,same
0,285,valid,"[(1154, 773)]",[],[1],[0.5833333333333334],horizontal,"(390.0, 262.0)",1.2333333333333334,0.542,1,2296.481,2,0.06,same
0,286,valid,"[(1142, 778)]",[],[1],[0.5166666666666666],horizontal,"(890.0, 262.0)",0.5333333333333333,0.475,1,2302.061,3,0.06,same
0,287,valid,"[(1151, 781)]",[],[1],[0.6333333333333333],horizontal,"(390.0, 762.0)",1.0666666666666667,0.595,1,2307.845,3,0.06,same
0,288,valid,"[(1169, 783)]",[],[1],[0.7666666666666666],vertical,"(890.0, 262.0)",0.7333333333333333,0.722,1,2314.054,3,0.06,same
0,289,valid,"[(1147, 776)]",[],[1],[0.7333333333333333],vertical,"(890.0, 262.0)",1.4166666666666667,0.685,1,2320.012,3,0.06,same
0,290,catch,"[(1153, 800)]",[],[1],[],horizontal,"(390.0, 262.0)",1.7,nan,1,2326.085,3,0.06,same
0,291,catch,"[(1160, 783)]",[],[1],[],vertical,"(890.0, 262.0)",1.7,nan,1,2331.729,3,0.06,same
0,292,valid,"[(1170, 773)]",[],[1],[0.6666666666666666],vertical,"(390.0, 262.0)",0.5333333333333333,0.625,1,2337.813,3,0.06,same
0,293,catch,"[(1163, 779)]",[],[1],[],vertical,"(890.0, 262.0)",1.7,nan,1,2343.444,3,0.06,same
0,294,catch,"[(1154, 774)]",[],[1],[],vertical,"(890.0, 762.0)",1.7,nan,1,2349.079,3,0.06,same
0,295,valid,"[(1155, 774)]",[],[1],[0.5166666666666666],horizontal,"(890.0, 762.0)",0.4666666666666667,0.477,1,2355.395,3,0.06,same
0,296,invalid_same_bar,"[(1154, 792)]",[],[1],[0.5666666666666667],horizontal,"(890.0, 262.0)",1.35,0.533,1,2360.397,3,0.04,same
0,297,valid,"[(1159, 792)]",[],[1],[0.6666666666666666],vertical,"(890.0, 262.0)",0.5,0.626,1,2366.259,3,0.04,same
0,298,valid,"[(1155, 769)]",[],[1],[0.5666666666666667],vertical,"(890.0, 762.0)",1.4833333333333334,0.522,1,2371.415,3,0.04,same
0,299,catch,"[(1166, 792)]",[],[1],[],horizontal,"(890.0, 262.0)",1.7,nan,1,2377.979,3,0.04,same
0,300,invalid_same_bar,"[(1160, 782)]",[],[1],[0.6166666666666667],vertical,"(890.0, 762.0)",1.25,0.574,1,2383.835,3,0.04,same
0,301,invalid_same_bar,"[(1172, 793)]",[],[1],[0.65],horizontal,"(890.0, 262.0)",1.3333333333333333,0.607,1,2390.413,3,0.04,same
0,302,valid,"[(1145, 792)]",[],[1],[0.65],horizontal,"(390.0, 762.0)",0.8333333333333334,0.609,1,2396.379,3,0.04,same
0,303,valid,"[(1165, 797)]",[],[1],[0.23333333333333334],horizontal,"(390.0, 762.0)",1.45,0.198,0,2401.88,0,0.02,same
0,304,valid,"[(1144, 797)]",[],[1],[0.8166666666666667],horizontal,"(890.0, 262.0)",0.9833333333333333,0.771,1,2406.469,1,0.02,same
0,305,valid,"[(1168, 805)]",[],[1],[0.6333333333333333],horizontal,"(390.0, 262.0)",1.2666666666666666,0.593,1,2411.909,1,0.02,same
0,306,valid,"[(1170, 792)]",[],[1],[0.5333333333333333],vertical,"(390.0, 762.0)",0.8833333333333333,0.492,1,2417.388,1,0.02,same
0,307,catch,"[(1159, 782)]",[],[1],[],vertical,"(890.0, 262.0)",1.7,nan,1,2422.013,2,0.02,same
0,308,valid,"[(1175, 766)]",[],[1],[0.65],horizontal,"(390.0, 762.0)",0.5166666666666666,0.616,1,2427.59,2,0.02,same
0,309,valid,"[(1171, 782)]",[],[1],[0.6333333333333333],vertical,"(390.0, 762.0)",0.7,0.59,1,2433.122,2,0.02,same
0,310,catch,"[(1167, 786)]",[],[1],[],vertical,"(390.0, 262.0)",1.7,nan,1,2438.849,3,0.02,same
0,311,invalid_same_bar,"[(1155, 778)]",[],[1],[0.5666666666666667],vertical,"(890.0, 762.0)",0.5166666666666666,0.523,1,2444.637,3,0.02,same
0,312,valid,"[(1148, 802)]",[],[1],[0.5833333333333334],vertical,"(390.0, 762.0)",1.1166666666666667,0.541,1,2450.292,3,0.02,same
0,313,invalid_adjacent_other_bar,"[(1150, 800)]",[],[1],[0.6166666666666667],horizontal,"(890.0, 262.0)",0.55,0.573,1,2456.587,3,0.02,other
0,314,valid,"[(1156, 779)]",[],[1],[0.6666666666666666],horizontal,"(390.0, 262.0)",1.35,0.618,1,2461.789,3,0.02,same
0,315,invalid_adjacent_other_bar,"[(1163, 779)]",[],[1],[0.6833333333333333],vertical,"(390.0, 262.0)",0.75,0.638,1,2467.787,3,0.02,other
0,316,valid,"[(1155, 778)]",[],[1],[0.6666666666666666],horizontal,"(890.0, 762.0)",1.4333333333333333,0.628,1,2473.759,3,0.02,same
0,317,catch,"[(1159, 773)]",[],[1],[],horizontal,"(390.0, 262.0)",1.7,nan,1,2480.121,3,0.02,same
0,318,invalid_same_bar,"[(1155, 774)]",[],[1],[0.6333333333333333],vertical,"(890.0, 762.0)",0.9333333333333333,0.591,1,2486.223,3,0.02,same
0,319,valid,"[(1155, 786)]",[],[1],[0.7666666666666666],horizontal,"(390.0, 262.0)",0.48333333333333334,0.724,1,2491.857,3,0.02,same
0,320,valid,"[(1155, 778)]",[],[1],[0.55],horizontal,"(890.0, 262.0)",0.36666666666666664,0.504,1,2497.539,3,0.02,same
0,321,valid,"[(1155, 765)]",[],[1],[0.55],vertical,"(890.0, 762.0)",0.9,0.514,1,2502.725,3,0.02,same
0,322,valid,"[(1156, 776)]",[],[1],[0.5666666666666667],horizontal,"(390.0, 262.0)",0.4166666666666667,0.529,1,2508.204,3,0.02,same
0,323,valid,"[(1155, 776)]",[],[1],[0.5833333333333334],horizontal,"(390.0, 262.0)",0.8666666666666667,0.535,1,2513.477,3,0.02,same
0,324,invalid_adjacent_other_bar,"[(1157, 786)]",[],[1],[0.6666666666666666],vertical,"(890.0, 262.0)",0.85,0.626,1,2519.284,3,0.02,other
0,325,catch,"[(1157, 778)]",[],[1],[],horizontal,"(890.0, 262.0)",1.7,nan,1,2524.884,3,0.02,same
0,326,catch,"[(1166, 765)]",[],[1],[],horizontal,"(890.0, 262.0)",1.7,nan,1,2530.575,3,0.02,same
0,327,valid,"[(1144, 769)]",[],[1],[0.55],vertical,"(890.0, 262.0)",0.7166666666666667,0.51,1,2536.579,3,0.02,same
0,328,invalid_adjacent_other_bar,"[(1173, 767)]",[],[1],[0.5333333333333333],horizontal,"(390.0, 262.0)",0.45,0.491,1,2542.296,3,0.02,other
0,329,invalid_adjacent_other_bar,"[(1168, 768)]",[],[1],[0.7833333333333333],vertical,"(390.0, 762.0)",1.4833333333333334,0.75,1,2547.834,3,0.0,other
0,330,valid,"[(1155, 782)]",[],[1],[0.5833333333333334],vertical,"(890.0, 262.0)",0.45,0.54,1,2553.996,3,0.0,same
0,331,catch,"[(1141, 773)]",[],[1],[],horizontal,"(390.0, 762.0)",1.7,nan,1,2559.625,3,0.0,same
0,332,catch,"[(1155, 773)]",[],[1],[],horizontal,"(390.0, 762.0)",1.7,nan,1,2565.169,3,0.0,same
0,333,invalid_adjacent_other_bar,"[(1165, 782)]",[],[1],[0.6333333333333333],horizontal,"(890.0, 262.0)",1.15,0.587,1,2571.046,3,0.0,other
0,334,valid,"[(1170, 801)]",[],[1],[0.5833333333333334],horizontal,"(890.0, 262.0)",1.3666666666666667,0.537,1,2576.703,3,0.0,same
0,335,invalid_same_bar,"[(1157, 801)]",[],[1],[0.8333333333333334],horizontal,"(390.0, 762.0)",0.6333333333333333,0.794,1,2582.797,3,0.0,same
0,336,invalid_same_bar,"[(1155, 771)]",[],[1],[0.5666666666666667],vertical,"(390.0, 762.0)",1.1166666666666667,0.527,1,2588.706,3,0.0,same
0,337,catch,"[(1155, 770)]",[],[1],[],horizontal,"(890.0, 262.0)",1.7,nan,1,2594.518,3,0.0,same
0,338,catch,"[(1175, 789)]",[],[1],[],vertical,"(890.0, 262.0)",1.7,nan,1,2600.413,3,0.0,same
0,339,valid,"[(1186, 779)]",[],[1],[0.5166666666666666],vertical,"(890.0, 262.0)",0.95,0.472,1,2606.232,3,0.0,same
0,340,valid,"[(1156, 769)]",[],[1],[0.5],vertical,"(890.0, 762.0)",1.5166666666666666,0.46,1,2611.656,3,0.0,same
0,341,catch,"[(1155, 768)]",[],[1],[],vertical,"(890.0, 262.0)",1.7,nan,1,2617.899,3,0.0,same
0,342,valid,"[(1160, 772)]",[],[1],[0.5333333333333333],vertical,"(890.0, 762.0)",0.9,0.491,1,2623.801,3,0.0,same
0,343,catch,"[(1155, 777)]",[],[1],[],horizontal,"(890.0, 262.0)",1.7,nan,1,2629.531,3,0.0,same
0,344,catch,"[(1151, 768)]",[],[1],[],horizontal,"(890.0, 762.0)",1.7,nan,1,2635.713,3,0.0,same
0,345,catch,"[(1159, 775)]",[],[1],[],horizontal,"(890.0, 762.0)",1.7,nan,1,2641.546,3,0.0,same
0,346,valid,"[(1171, 788)]",[],[1],[0.65],horizontal,"(890.0, 262.0)",0.36666666666666664,0.606,1,2647.893,3,0.0,same
0,347,valid,"[(1159, 779)]",[],[1],[0.6166666666666667],vertical,"(390.0, 762.0)",0.9333333333333333,0.568,1,2653.394,3,0.0,same
0,348,valid,"[(1150, 778)]",[],[1],[0.6],horizontal,"(390.0, 762.0)",1.3666666666666667,0.564,1,2659.447,3,0.0,same
0,349,invalid_same_bar,"[(1158, 788)]",[],[1],[0.85],horizontal,"(890.0, 262.0)",0.95,nan,0,2665.829,0,0.0,same
0,350,valid,"[(1150, 798)]",[],[1],[0.5166666666666666],horizontal,"(390.0, 262.0)",1.2166666666666666,0.474,1,2670.753,1,0.0,same
0,351,valid,"[(1160, 796)]",[],[1],[0.65],horizontal,"(390.0, 762.0)",1.2,0.604,1,2676.094,1,0.0,same
0,352,valid,"[(1158, 775)]",[],[1],[0.6],horizontal,"(390.0, 762.0)",0.7,0.56,1,2681.143,1,0.0,same
0,353,valid,"[(1160, 790)]",[],[1],[0.5166666666666666],vertical,"(890.0, 262.0)",1.4333333333333333,0.478,1,2685.747,2,0.0,same
0,354,valid,"[(1151, 777)]",[],[1],[0.5666666666666667],vertical,"(890.0, 762.0)",0.8166666666666667,0.528,1,2691.725,2,0.0,same
0,355,catch,"[(1159, 801)]",[],[1],[],horizontal,"(890.0, 262.0)",1.7,nan,1,2697.006,2,0.0,same
0,356,valid,"[(1146, 800)]",[],[1],[0.5333333333333333],horizontal,"(890.0, 762.0)",0.9333333333333333,0.499,1,2702.597,3,0.0,same
0,357,valid,"[(1159, 778)]",[],[1],[0.6333333333333333],horizontal,"(890.0, 262.0)",1.15,0.587,1,2708.399,3,0.0,same
0,358,valid,"[(1155, 782)]",[],[1],[0.6333333333333333],horizontal,"(890.0, 262.0)",0.36666666666666664,0.603,1,2714.363,3,0.0,same
0,359,catch,"[(1155, 773)]",[],[1],[],vertical,"(890.0, 762.0)",1.7,nan,1,2719.538,3,0.0,same
0,360,valid,"[(1152, 766)]",[],[1],[0.5666666666666667],horizontal,"(890.0, 762.0)",1.5,0.529,1,2725.235,3,0.0,same
0,361,invalid_same_bar,"[(1141, 800)]",[],[1],[0.45],horizontal,"(890.0, 762.0)",0.6166666666666667,0.413,1,2731.147,3,0.0,same
0,362,valid,"[(1155, 787)]",[],[1],[0.5833333333333334],vertical,"(390.0, 262.0)",0.9833333333333333,0.543,1,2736.948,3,0.0,same
0,363,valid,"[(1150, 800)]",[],[1],[0.5833333333333334],horizontal,"(390.0, 262.0)",1.5166666666666666,0.551,1,2742.598,3,0.0,same
0,364,catch,"[(1161, 791)]",[],[1],[],vertical,"(890.0, 762.0)",1.7,nan,1,2748.866,3,0.0,same
0,365,catch,"[(1131, 798)]",[],[1],[],vertical,"(890.0, 262.0)",1.7,nan,1,2754.457,3,0.0,same
0,366,valid,"[(1146, 769)]",[],[1],[0.5333333333333333],horizontal,"(390.0, 762.0)",0.5,0.492,1,2760.93,3,0.0,same
0,367,catch,"[(1156, 781)]",[],[1],[],vertical,"(390.0, 262.0)",1.7,nan,1,2766.576,3,0.0,same
0,368,valid,"[(1155, 779)]",[],[1],[0.5333333333333333],horizontal,"(890.0, 262.0)",0.5166666666666666,0.502,1,2772.679,3,0.0,same
0,369,valid,"[(1154, 773)]",[],[1],[0.5],horizontal,"(390.0, 762.0)",1.35,0.46,1,2777.913,3,0.0,same
0,370,catch,"[(1131, 796)]",[],[1],[],vertical,"(390.0, 762.0)",1.7,nan,1,2784.14,3,0.0,same
0,371,valid,"[(1159, 777)]",[],[1],[0.65],horizontal,"(890.0, 762.0)",0.9333333333333333,0.614,1,2790.095,3,0.0,same
0,372,valid,"[(1149, 778)]",[],[1],[0.85],horizontal,"(890.0, 762.0)",0.5166666666666666,nan,0,2796.168,0,0.0,same
0,373,catch,"[(1143, 797)]",[],[1],[],vertical,"(390.0, 262.0)",1.7,nan,1,2800.503,1,0.0,same
0,374,valid,"[(1157, 773)]",[],[1],[0.7],horizontal,"(390.0, 262.0)",0.8666666666666667,0.656,1,2805.586,1,0.0,same
0,375,invalid_adjacent_other_bar,"[(1159, 781)]",[],[1],[0.85],vertical,"(390.0, 762.0)",1.05,nan,0,2810.251,0,0.0,other
0,376,valid,"[(1142, 797)]",[],[1],[0.5666666666666667],vertical,"(890.0, 762.0)",1.0333333333333332,0.528,1,2815.196,1,0.0,same
0,377,invalid_same_bar,"[(1155, 774)]",[],[1],[0.6166666666666667],horizontal,"(390.0, 262.0)",1.2166666666666666,0.572,1,2820.18,1,0.0,same
0,378,valid,"[(1163, 784)]",[],[1],[0.55],vertical,"(890.0, 762.0)",0.8166666666666667,0.508,1,2825.714,1,0.0,same
0,379,valid,"[(1160, 769)]",[],[1],[0.6833333333333333],horizontal,"(890.0, 262.0)",0.43333333333333335,0.645,1,2830.465,2,0.0,same
0,380,valid,"[(1160, 786)]",[],[1],[0.6],vertical,"(890.0, 262.0)",0.7166666666666667,0.56,1,2835.709,2,0.0,same
0,381,catch,"[(1155, 797)]",[],[1],[],horizontal,"(390.0, 762.0)",1.7,nan,1,2840.746,2,0.0,same
0,382,valid,"[(1160, 778)]",[],[1],[0.85],horizontal,"(890.0, 762.0)",0.35,nan,0,2846.43,0,0.0,same
0,383,valid,"[(1111, 781)]",[],[1],[0.6333333333333333],horizontal,"(890.0, 262.0)",0.6333333333333333,0.593,1,2850.978,1,0.0,same
0,384,valid,"[(1170, 781)]",[],[1],[0.6],horizontal,"(890.0, 762.0)",0.7166666666666667,0.565,1,2855.962,1,0.0,same
0,385,catch,"[(1166, 775)]",[],[1],[],horizontal,"(890.0, 762.0)",1.7,nan,1,2860.93,1,0.0,same
0,386,valid,"[(1160, 770)]",[],[1],[0.55],horizontal,"(390.0, 762.0)",0.8333333333333334,0.506,1,2865.841,2,0.0,same
0,387,catch,"[(1141, 782)]",[],[1],[],horizontal,"(890.0, 262.0)",1.7,nan,1,2870.73,2,0.0,same
0,388,valid,"[(1156, 789)]",[],[1],[0.65],vertical,"(390.0, 762.0)",1.1333333333333333,0.605,1,2876.531,2,0.0,same
0,389,valid,"[(1155, 790)]",[],[1],[0.85],vertical,"(890.0, 762.0)",0.8666666666666667,nan,0,2882.747,0,0.0,same
0,390,valid,"[(1134, 800)]",[],[1],[0.65],horizontal,"(390.0, 262.0)",1.3333333333333333,0.605,1,2887.43,1,0.0,same
0,391,catch,"[(1143, 775)]",[],[1],[],vertical,"(890.0, 262.0)",1.7,nan,1,2892.713,1,0.0,same
0,392,catch,"[(1136, 793)]",[],[1],[],vertical,"(390.0, 262.0)",1.7,nan,1,2898.206,1,0.0,same
0,393,valid,"[(1160, 773)]",[],[1],[0.6333333333333333],vertical,"(390.0, 762.0)",0.48333333333333334,0.587,1,2903.107,2,0.0,same
0,394,invalid_same_bar,"[(1155, 792)]",[],[1],[0.7666666666666666],horizontal,"(890.0, 762.0)",0.9833333333333333,0.719,1,2908.138,2,0.0,same
0,395,valid,"[(1159, 792)]",[],[1],[0.7333333333333333],vertical,"(890.0, 762.0)",0.8833333333333333,0.686,1,2914.153,2,0.0,same
0,396,valid,"[(1159, 794)]",[],[1],[0.6166666666666667],horizontal,"(390.0, 762.0)",1.3,0.57,1,2919.713,3,0.0,same
0,397,valid,"[(1136, 772)]",[],[1],[0.5166666666666666],vertical,"(890.0, 262.0)",1.3666666666666667,0.477,1,2926.046,3,0.0,same
0,398,invalid_same_bar,"[(1149, 787)]",[],[1],[0.65],vertical,"(390.0, 762.0)",1.3833333333333333,0.606,1,2932.413,3,0.0,same
0,399,valid,"[(1166, 765)]",[],[1],[0.5666666666666667],vertical,"(890.0, 262.0)",0.55,0.526,1,2938.469,3,0.0,same
0,400,catch,"[(1147, 784)]",[],[1],[],vertical,"(890.0, 262.0)",1.7,nan,1,2943.642,3,0.0,same
0,401,invalid_same_bar,"[(1121, 784)]",[],[1],[0.6333333333333333],vertical,"(890.0, 262.0)",1.0333333333333332,0.588,1,2949.739,3,0.0,same
0,402,valid,"[(1149, 774)]",[],[1],[0.5166666666666666],horizontal,"(890.0, 762.0)",1.5333333333333332,0.473,1,2955.63,3,0.0,same
0,403,invalid_same_bar,"[(1165, 785)]",[],[1],[0.85],vertical,"(890.0, 762.0)",1.1666666666666667,nan,0,2961.748,0,0.0,same
0,404,valid,"[(1131, 781)]",[],[1],[0.6166666666666667],vertical,"(390.0, 262.0)",1.15,0.574,1,2966.393,1,0.0,same
0,405,invalid_same_bar,"[(1163, 800)]",[],[1],[0.6166666666666667],horizontal,"(390.0, 262.0)",1.2,0.577,1,2971.422,1,0.0,same
0,406,valid,"[(1155, 774)]",[],[1],[0.85],vertical,"(390.0, 762.0)",0.35,nan,0,2976.389,0,0.0,same
0,407,valid,"[(1136, 781)]",[],[1],[0.7166666666666667],vertical,"(890.0, 262.0)",0.9,0.669,1,2980.862,1,0.0,same
0,408,catch,"[(1165, 782)]",[],[1],[],horizontal,"(390.0, 262.0)",1.7,nan,1,2985.886,1,0.0,same
0,409,catch,"[(1159, 766)]",[],[1],[],vertical,"(390.0, 262.0)",1.7,nan,1,2991.046,1,0.0,same
0,410,catch,"[(1156, 763)]",[],[1],[],vertical,"(390.0, 262.0)",1.7,nan,1,2996.248,2,0.0,same
0,411,invalid_adjacent_other_bar,"[(1152, 793)]",[],[1],[0.85],vertical,"(390.0, 262.0)",1.0333333333333332,nan,0,3001.93,0,0.0,other
0,412,catch,"[(1117, 792)]",[],[1],[],vertical,"(890.0, 262.0)",1.7,nan,1,3007.03,1,0.0,same
0,413,catch,"[(1155, 782)]",[],[1],[],horizontal,"(390.0, 762.0)",1.7,nan,1,3012.33,1,0.0,same
0,414,valid,"[(1166, 780)]",[],[1],[0.5333333333333333],horizontal,"(890.0, 262.0)",1.4666666666666666,0.493,1,3017.791,1,0.0,same
0,415,valid,"[(1148, 786)]",[],[1],[0.5833333333333334],horizontal,"(390.0, 262.0)",1.3666666666666667,0.541,1,3023.094,2,0.0,same
0,416,valid,"[(1161, 778)]",[],[1],[0.6833333333333333],vertical,"(890.0, 762.0)",0.5166666666666666,0.636,1,3029.072,2,0.0,same
0,417,catch,"[(1160, 796)]",[],[1],[],horizontal,"(390.0, 762.0)",1.7,nan,1,3034.446,2,0.0,same
0,418,valid,"[(1154, 797)]",[],[1],[0.6333333333333333],vertical,"(890.0, 262.0)",1.3166666666666667,0.592,1,3039.98,3,0.0,same
0,419,invalid_same_bar,"[(1160, 798)]",[],[1],[0.7333333333333333],vertical,"(890.0, 762.0)",1.1666666666666667,0.685,1,3046.631,3,0.0,same
0,420,valid,"[(1165, 782)]",[],[1],[0.5333333333333333],horizontal,"(890.0, 262.0)",1.4166666666666667,0.491,1,3052.347,3,0.0,same
0,421,valid,"[(1160, 773)]",[],[1],[0.5166666666666666],horizontal,"(390.0, 762.0)",1.45,0.48,1,3058.696,3,0.0,same
0,422,invalid_same_bar,"[(1155, 792)]",[],[1],[0.85],vertical,"(390.0, 262.0)",1.0,nan,0,3064.96,0,0.0,same
0,423,invalid_same_bar,"[(1122, 796)]",[],[1],[0.6],vertical,"(390.0, 262.0)",1.4,0.56,1,3069.596,1,0.0,same
0,424,valid,"[(1157, 769)]",[],[1],[0.6166666666666667],horizontal,"(890.0, 762.0)",1.3,0.576,1,3074.982,1,0.0,same
0,425,valid,"[(1131, 796)]",[],[1],[0.6833333333333333],vertical,"(890.0, 262.0)",1.3666666666666667,0.641,1,3080.081,1,0.0,same
0,426,valid,"[(1152, 796)]",[],[1],[0.85],horizontal,"(890.0, 262.0)",0.9333333333333333,nan,0,3085.748,0,0.0,same
0,427,valid,"[(1122, 796)]",[],[1],[0.85],horizontal,"(390.0, 262.0)",0.75,nan,0,3090.929,0,0.0,same
0,428,invalid_adjacent_other_bar,"[(1132, 796)]",[],[1],[0.75],vertical,"(390.0, 262.0)",1.0333333333333332,0.708,1,3095.94,1,0.0,other
0,429,valid,"[(1160, 784)]",[],[1],[0.85],horizontal,"(890.0, 262.0)",1.0666666666666667,nan,0,3101.547,0,0.0,same
0,430,valid,"[(1111, 791)]",[],[1],[0.5666666666666667],horizontal,"(390.0, 762.0)",0.6,0.528,1,3106.272,1,0.0,same
0,431,valid,"[(1160, 785)]",[],[1],[0.6333333333333333],vertical,"(390.0, 762.0)",1.5166666666666666,0.594,1,3111.386,1,0.0,same
0,432,valid,"[(1146, 787)]",[],[1],[0.6666666666666666],vertical,"(890.0, 762.0)",0.4166666666666667,0.625,1,3116.96,1,0.0,same
0,433,valid,"[(1162, 797)]",[],[1],[0.85],vertical,"(890.0, 262.0)",1.3166666666666667,nan,0,3121.616,0,0.0,same
0,434,catch,"[(1126, 802)]",[],[1],[],vertical,"(890.0, 262.0)",1.7,nan,1,3126.547,1,0.0,same
0,435,valid,"[(1156, 783)]",[],[1],[0.55],horizontal,"(890.0, 762.0)",1.5333333333333332,0.512,1,3131.827,1,0.0,same
0,436,valid,"[(1132, 796)]",[],[1],[0.55],vertical,"(390.0, 262.0)",0.65,0.508,1,3137.323,1,0.0,same
0,437,valid,"[(1172, 790)]",[],[1],[0.6166666666666667],horizontal,"(890.0, 762.0)",0.65,0.575,1,3142.127,2,0.0,same
0,438,valid,"[(1151, 782)]",[],[1],[0.6833333333333333],horizontal,"(890.0, 262.0)",0.5333333333333333,0.649,1,3147.598,2,0.0,same
0,439,invalid_adjacent_other_bar,"[(1135, 778)]",[],[1],[0.6166666666666667],horizontal,"(890.0, 262.0)",0.9666666666666667,0.578,1,3152.704,2,0.0,other
0,440,valid,"[(1158, 788)]",[],[1],[0.5833333333333334],vertical,"(390.0, 762.0)",0.5666666666666667,0.549,1,3158.199,3,0.0,same
0,441,invalid_adjacent_other_bar,"[(1159, 773)]",[],[1],[0.75],horizontal,"(390.0, 262.0)",1.2333333333333334,0.71,1,3163.714,3,0.0,other
0,442,valid,"[(1161, 770)]",[],[1],[0.6333333333333333],horizontal,"(390.0, 262.0)",1.3333333333333333,0.589,1,3169.865,3,0.0,same
0,443,catch,"[(1155, 773)]",[],[1],[],vertical,"(890.0, 762.0)",1.7,nan,1,3175.575,3,0.0,same
0,444,catch,"[(1150, 774)]",[],[1],[],horizontal,"(890.0, 762.0)",1.7,nan,1,3181.565,3,0.0,same
0,445,valid,"[(1151, 764)]",[],[1],[0.5833333333333334],vertical,"(890.0, 262.0)",0.5666666666666667,0.548,1,3187.496,3,0.0,same
0,446,valid,"[(1155, 778)]",[],[1],[0.6666666666666666],horizontal,"(390.0, 262.0)",0.75,0.625,1,3192.491,3,0.0,same
0,447,invalid_same_bar,"[(1157, 759)]",[],[1],[0.6833333333333333],vertical,"(890.0, 762.0)",0.75,0.637,1,3197.984,3,0.0,same
0,448,valid,"[(1155, 773)]",[],[1],[0.55],horizontal,"(890.0, 262.0)",1.25,0.508,1,3203.803,3,0.0,same
0,449,valid,"[(1161, 770)]",[],[1],[0.55],horizontal,"(390.0, 262.0)",1.4666666666666666,0.517,1,3209.963,3,0.0,same
0,450,valid,"[(1138, 770)]",[],[1],[0.6833333333333333],horizontal,"(390.0, 262.0)",0.65,0.651,1,3216.381,3,0.0,same
0,451,catch,"[(1161, 779)]",[],[1],[],vertical,"(890.0, 762.0)",1.7,nan,1,3222.215,3,0.0,same
0,452,valid,"[(1138, 777)]",[],[1],[0.6166666666666667],horizontal,"(390.0, 262.0)",1.3333333333333333,0.572,1,3228.064,3,0.0,same
0,453,valid,"[(1158, 762)]",[],[1],[0.5666666666666667],horizontal,"(890.0, 262.0)",1.1333333333333333,0.529,1,3234.407,3,0.0,same
0,454,valid,"[(1137, 768)]",[],[1],[0.5833333333333334],horizontal,"(390.0, 262.0)",1.5333333333333332,0.546,1,3240.68,3,0.0,same
0,455,valid,"[(1151, 773)]",[],[1],[0.5666666666666667],horizontal,"(890.0, 762.0)",1.35,0.524,1,3247.162,3,0.0,same
0,456,catch,"[(1172, 792)]",[],[1],[],vertical,"(390.0, 762.0)",1.7,nan,1,3253.597,3,0.0,same
0,457,valid,"[(1158, 788)]",[],[1],[0.5833333333333334],horizontal,"(890.0, 762.0)",0.7,0.544,1,3259.283,3,0.0,same
0,458,invalid_adjacent_other_bar,"[(1159, 780)]",[],[1],[0.85],horizontal,"(390.0, 262.0)",1.4166666666666667,nan,0,3264.991,0,0.0,other
0,459,catch,"[(1115, 789)]",[],[1],[],horizontal,"(890.0, 762.0)",1.7,nan,1,3270.204,1,0.0,same
0,460,valid,"[(1160, 773)]",[],[1],[0.6833333333333333],horizontal,"(890.0, 262.0)",0.7166666666666667,0.643,1,3275.864,1,0.0,same
0,461,invalid_same_bar,"[(1150, 761)]",[],[1],[0.85],horizontal,"(390.0, 262.0)",1.4,nan,0,3280.531,0,0.0,same
0,462,valid,"[(1131, 784)]",[],[1],[0.75],horizontal,"(390.0, 262.0)",1.3,0.71,1,3285.706,1,0.0,same
0,463,valid,"[(1136, 787)]",[],[1],[0.5833333333333334],horizontal,"(390.0, 762.0)",1.4166666666666667,0.542,1,3291.105,1,0.0,same
0,464,invalid_same_bar,"[(1159, 764)]",[],[1],[0.6833333333333333],vertical,"(390.0, 262.0)",0.8166666666666667,0.65,1,3296.865,1,0.0,same
0,465,valid,"[(1160, 787)]",[],[1],[0.7166666666666667],vertical,"(390.0, 762.0)",1.05,0.678,1,3301.615,2,0.0,same
0,466,invalid_adjacent_other_bar,"[(1160, 779)]",[],[1],[0.6333333333333333],vertical,"(890.0, 262.0)",0.5,0.594,1,3307.02,2,0.0,other
0,467,invalid_adjacent_other_bar,"[(1159, 773)]",[],[1],[0.7833333333333333],horizontal,"(890.0, 762.0)",0.85,0.735,1,3311.903,2,0.0,other
0,468,valid,"[(1146, 768)]",[],[1],[0.6833333333333333],vertical,"(890.0, 762.0)",1.1833333333333333,0.641,1,3317.631,3,0.0,same
0,469,catch,"[(1157, 764)]",[],[1],[],vertical,"(390.0, 762.0)",1.7,nan,1,3323.865,3,0.0,same
0,470,valid,"[(1158, 771)]",[],[1],[0.5166666666666666],vertical,"(390.0, 762.0)",1.5,0.47,1,3330.095,3,0.0,same
0,471,valid,"[(1164, 800)]",[],[1],[0.5666666666666667],horizontal,"(390.0, 262.0)",0.75,0.524,1,3336.372,3,0.0,same
0,472,valid,"[(1158, 780)]",[],[1],[0.5166666666666666],vertical,"(890.0, 262.0)",0.7666666666666666,0.474,1,3341.588,3,0.0,same
0,473,valid,"[(1139, 768)]",[],[1],[0.75],horizontal,"(890.0, 762.0)",1.0333333333333332,0.698,1,3346.848,3,0.0,same
0,474,invalid_adjacent_other_bar,"[(1161, 794)]",[],[1],[0.85],horizontal,"(890.0, 762.0)",1.3833333333333333,nan,0,3353.19,0,0.0,other
0,475,catch,"[(1111, 780)]",[],[1],[],vertical,"(390.0, 262.0)",1.7,nan,1,3358.176,1,0.0,same
0,476,valid,"[(1138, 765)]",[],[1],[0.43333333333333335],vertical,"(390.0, 762.0)",1.4333333333333333,0.39,1,3363.275,1,0.0,same
0,477,valid,"[(1160, 790)]",[],[1],[0.65],vertical,"(890.0, 762.0)",0.5833333333333334,0.603,1,3368.773,1,0.0,same
0,478,valid,"[(1162, 760)]",[],[1],[0.6666666666666666],horizontal,"(890.0, 762.0)",0.6166666666666667,0.626,1,3373.605,2,0.0,same
0,479,catch,"[(1161, 787)]",[],[1],[],vertical,"(890.0, 262.0)",1.7,nan,1,3378.852,2,0.0,same
0,480,valid,"[(1160, 782)]",[],[1],[0.7166666666666667],vertical,"(890.0, 762.0)",1.05,0.672,1,3384.612,2,0.0,same
0,481,valid,"[(1163, 800)]",[],[1],[0.6],horizontal,"(890.0, 262.0)",1.2833333333333332,0.554,1,3390.292,3,0.0,same
0,482,valid,"[(1160, 767)]",[],[1],[0.5666666666666667],vertical,"(390.0, 262.0)",0.6833333333333333,0.524,1,3396.991,3,0.0,same
0,483,valid,"[(1166, 778)]",[],[1],[0.5666666666666667],horizontal,"(890.0, 762.0)",0.4,0.525,1,3402.57,3,0.0,same
0,484,valid,"[(1169, 780)]",[],[1],[0.45],horizontal,"(890.0, 262.0)",1.3333333333333333,0.411,1,3407.633,3,0.0,same
0,485,valid,"[(1136, 778)]",[],[1],[0.6166666666666667],horizontal,"(390.0, 762.0)",0.5,0.574,1,3413.698,3,0.0,same
0,486,valid,"[(1141, 759)]",[],[1],[0.6],vertical,"(390.0, 262.0)",1.4166666666666667,0.555,1,3419.272,3,0.0,same
0,487,catch,"[(1131, 772)]",[],[1],[],horizontal,"(890.0, 262.0)",1.7,nan,1,3425.527,3,0.0,same
0,488,catch,"[(1165, 765)]",[],[1],[],vertical,"(890.0, 262.0)",1.7,nan,1,3431.587,3,0.0,same
0,489,valid,"[(1160, 753), (1101, 807)]",[],"[0, 1]",[0.7],horizontal,"(890.0, 262.0)",0.6166666666666667,0.654,1,3437.714,3,0.0,same
0,490,valid,"[(1131, 792)]",[],[1],[0.55],vertical,"(390.0, 762.0)",1.45,0.51,1,3444.481,3,0.0,same
0,491,catch,"[(1168, 773)]",[],[1],[],vertical,"(890.0, 262.0)",1.7,nan,1,3450.583,3,0.0,same
0,492,valid,"[(1160, 765)]",[],[1],[0.7166666666666667],horizontal,"(390.0, 262.0)",1.1166666666666667,0.67,1,3456.117,3,0.0,same
0,493,valid,"[(1170, 776)]",[],[1],[0.5333333333333333],vertical,"(390.0, 262.0)",0.4166666666666667,0.485,1,3462.221,3,0.0,same
0,494,valid,"[(1166, 758)]",[],[1],[0.85],horizontal,"(390.0, 762.0)",0.35,nan,0,3467.298,0,0.0,same
0,495,catch,"[(1122, 780)]",[],[1],[],horizontal,"(890.0, 762.0)",1.7,nan,1,3471.398,1,0.0,same
0,496,catch,"[(1165, 782)]",[],[1],[],horizontal,"(390.0, 262.0)",1.7,nan,1,3476.914,1,0.0,same
0,497,valid,"[(1161, 781)]",[],[1],[0.75],horizontal,"(890.0, 762.0)",0.3833333333333333,0.699,1,3482.104,1,0.0,same
0,498,valid,"[(1160, 778)]",[],[1],[0.5666666666666667],vertical,"(390.0, 762.0)",0.4,0.519,1,3486.481,2,0.0,same
0,499,valid,"[(1138, 763)]",[],[1],[0.75],vertical,"(390.0, 262.0)",0.9833333333333333,0.704,1,3491.064,2,0.0,same
0,500,invalid_adjacent_other_bar,"[(1160, 782)]",[],[1],[0.85],vertical,"(390.0, 762.0)",1.1666666666666667,nan,0,3496.554,0,0.0,other
0,501,valid,"[(1131, 781)]",[],[1],[0.5666666666666667],vertical,"(390.0, 262.0)",0.4,0.524,1,3501.815,1,0.0,same
0,502,valid,"[(1160, 767)]",[],[1],[0.5833333333333334],vertical,"(890.0, 762.0)",1.0333333333333332,0.546,1,3506.371,1,0.0,same
0,503,valid,"[(1158, 790)]",[],[1],[0.6833333333333333],horizontal,"(390.0, 762.0)",1.15,0.641,1,3511.876,1,0.0,same
0,504,catch,"[(1161, 800)]",[],[1],[],vertical,"(390.0, 762.0)",1.7,nan,1,3516.894,2,0.0,same
0,505,valid,"[(1162, 802)]",[],[1],[0.6166666666666667],horizontal,"(390.0, 262.0)",1.4,0.575,1,3522.727,2,0.0,same
0,506,valid,"[(1150, 782)]",[],[1],[0.6],horizontal,"(390.0, 762.0)",1.0166666666666666,0.559,1,3528.202,2,0.0,same
0,507,valid,"[(1158, 789)]",[],[1],[0.5666666666666667],horizontal,"(390.0, 262.0)",1.3166666666666667,0.529,1,3534.131,3,0.0,same
0,508,valid,"[(1136, 758)]",[],[1],[0.23333333333333334],horizontal,"(890.0, 762.0)",1.1,0.199,0,3540.464,0,0.0,same
0,509,catch,"[(1111, 775)]",[],[1],[],vertical,"(390.0, 262.0)",1.7,nan,1,3544.897,1,0.0,same
0,510,valid,"[(1160, 773)]",[],[1],[0.6666666666666666],horizontal,"(390.0, 762.0)",0.7666666666666666,0.619,1,3550.437,1,0.0,same
0,511,valid,"[(1156, 787)]",[],[1],[0.6666666666666666],vertical,"(890.0, 262.0)",0.95,0.622,1,3555.305,1,0.0,same
0,512,catch,"[(1135, 777)]",[],[1],[],horizontal,"(890.0, 762.0)",,"('cti', 1.436),nan",0,3560.529,0,0.02,same
0,513,invalid_same_bar,"[(1111, 799)]",[],[1],[0.55],horizontal,"(390.0, 262.0)",1.5166666666666666,0.505,1,3565.198,1,0.02,same
0,514,valid,"[(1132, 800)]",[],[1],[0.7166666666666667],vertical,"(390.0, 262.0)",1.35,0.677,1,3602.852,1,0.02,same
0,515,catch,"[(1160, 770)]",[],[1],[],horizontal,"(890.0, 262.0)",,"('cti', 1.56),nan",0,3608.849,0,0.04,same
0,516,valid,"[(1131, 776)]",[],[1],[0.5666666666666667],horizontal,"(890.0, 262.0)",1.25,0.525,1,3613.325,1,0.04,same
0,517,catch,"[(1167, 779)]",[],[1],[],horizontal,"(890.0, 762.0)",1.7,nan,1,3618.426,1,0.04,same
0,518,valid,"[(1175, 799)]",[],[1],[0.5333333333333333],vertical,"(390.0, 762.0)",0.3833333333333333,0.499,1,3623.719,1,0.04,same
0,519,valid,"[(1175, 797)]",[],[1],[0.5833333333333334],vertical,"(390.0, 762.0)",1.45,0.551,1,3627.909,2,0.04,same
0,520,valid,"[(1164, 796)]",[],[1],[0.6166666666666667],horizontal,"(890.0, 762.0)",0.6,0.577,1,3633.525,2,0.04,same
0,521,catch,"[(1170, 780)]",[],[1],[],horizontal,"(890.0, 262.0)",1.7,nan,1,3638.961,2,0.04,same
0,522,catch,"[(1160, 799)]",[],[1],[],vertical,"(890.0, 262.0)",1.7,nan,1,3644.411,3,0.04,same
0,523,valid,"[(1183, 777)]",[],[1],[0.55],vertical,"(390.0, 262.0)",1.1,0.514,1,3650.304,3,0.04,same
0,524,catch,"[(1160, 764)]",[],[1],[],vertical,"(390.0, 262.0)",1.7,nan,1,3656.175,3,0.04,same
0,525,valid,"[(1167, 773)]",[],[1],[0.3333333333333333],horizontal,"(390.0, 762.0)",1.5,0.299,1,3662.07,3,0.04,same
0,526,valid,"[(1171, 777)]",[],[1],[0.6666666666666666],vertical,"(390.0, 262.0)",0.5,0.625,1,3667.965,3,0.04,same
0,527,invalid_adjacent_other_bar,"[(1170, 773)]",[],[1],[0.6],vertical,"(390.0, 262.0)",1.35,0.56,1,3673.532,3,0.04,other
0,528,valid,"[(1177, 772)]",[],[1],[0.5166666666666666],vertical,"(890.0, 262.0)",1.0666666666666667,0.485,1,3679.622,3,0.04,same
0,529,invalid_same_bar,"[(1156, 772)]",[],[1],[0.6666666666666666],horizontal,"(390.0, 762.0)",1.3166666666666667,0.624,1,3685.228,3,0.04,same
0,530,catch,"[(1175, 769)]",[],[1],[],vertical,"(390.0, 762.0)",1.7,nan,1,3691.365,3,0.04,same
0,531,catch,"[(1171, 795)]",[],[1],[],horizontal,"(890.0, 762.0)",1.7,nan,1,3697.522,3,0.04,same
0,532,valid,"[(1170, 799)]",[],[1],[0.5333333333333333],vertical,"(390.0, 262.0)",0.85,0.501,1,3703.515,3,0.04,same
0,533,valid,"[(1164, 769)]",[],[1],[0.45],horizontal,"(390.0, 762.0)",1.3666666666666667,0.414,1,3709.149,3,0.04,same
0,534,valid,"[(1172, 789)]",[],[1],[0.5833333333333334],vertical,"(390.0, 762.0)",1.0666666666666667,0.553,1,3715.065,3,0.04,same
0,535,valid,"[(1165, 774)]",[],[1],[0.5],horizontal,"(890.0, 262.0)",1.4833333333333334,0.468,1,3721.311,3,0.04,same
0,536,valid,"[(1205, 797)]",[],[1],[0.6],horizontal,"(390.0, 262.0)",0.7,0.569,1,3727.207,3,0.04,same
0,537,catch,"[(1163, 741), (1111, 807)]",[],"[0, 1]",[],vertical,"(890.0, 262.0)",1.7,nan,1,3732.463,3,0.04,same
0,538,invalid_adjacent_other_bar,"[(1159, 772)]",[],[1],[0.5666666666666667],horizontal,"(390.0, 762.0)",0.7166666666666667,0.529,1,3739.916,3,0.04,other
0,539,valid,"[(1160, 763)]",[],[1],[0.55],horizontal,"(390.0, 262.0)",1.3333333333333333,0.509,1,3745.17,3,0.04,same
0,540,catch,"[(1159, 763)]",[],[1],[],vertical,"(890.0, 762.0)",1.7,nan,1,3751.548,3,0.04,same
0,541,valid,"[(1160, 773)]",[],[1],[0.5666666666666667],horizontal,"(390.0, 762.0)",1.3666666666666667,0.526,1,3757.799,3,0.04,same
0,542,valid,"[(1156, 776)]",[],[1],[0.55],horizontal,"(890.0, 262.0)",0.5666666666666667,0.511,1,3763.531,3,0.04,same
0,543,valid,"[(1161, 753), (1136, 841)]",[],"[0, 1]",[0.65],vertical,"(890.0, 762.0)",0.43333333333333335,0.605,1,3769.038,3,0.04,same
0,544,catch,"[(1137, 769)]",[],[1],[],vertical,"(890.0, 262.0)",1.7,nan,1,3776.069,3,0.04,same
0,545,invalid_adjacent_other_bar,"[(1160, 773)]",[],[1],[0.5833333333333334],vertical,"(390.0, 262.0)",0.7833333333333333,0.542,1,3781.786,3,0.04,other
0,546,catch,"[(1159, 768)]",[],[1],[],horizontal,"(390.0, 762.0)",,"('cti', 1.174),nan",0,3787.53,0,0.06,same
0,547,valid,"[(1131, 788)]",[],[1],[0.5666666666666667],horizontal,"(390.0, 762.0)",0.7666666666666666,0.521,1,3791.615,1,0.06,same
0,548,valid,"[(1160, 779)]",[],[1],[0.7],horizontal,"(890.0, 762.0)",1.3833333333333333,0.652,1,3796.32,1,0.06,same
0,549,valid,"[(1132, 769)]",[],[1],[0.5166666666666666],vertical,"(890.0, 762.0)",1.05,0.474,1,3802.116,1,0.06,same
0,550,valid,"[(1160, 778)]",[],[1],[0.6833333333333333],horizontal,"(890.0, 762.0)",0.4666666666666667,0.653,1,3807.364,2,0.06,same
0,551,catch,"[(1163, 787)]",[],[1],[],horizontal,"(890.0, 262.0)",1.7,nan,1,3812.412,2,0.06,same
0,552,valid,"[(1158, 779)]",[],[1],[0.6],vertical,"(890.0, 762.0)",0.7,0.56,1,3818.399,2,0.06,same
0,553,valid,"[(1160, 780)]",[],[1],[0.5166666666666666],horizontal,"(890.0, 262.0)",0.8166666666666667,0.47,1,3823.401,3,0.06,same
0,554,catch,"[(1175, 769)]",[],[1],[],vertical,"(390.0, 262.0)",1.7,nan,1,3829.574,3,0.06,same
0,555,valid,"[(1157, 773)]",[],[1],[],vertical,"(890.0, 262.0)",,"('cti', 1.154)",0,3835.564,0,0.06,same
0,556,catch,"[(1134, 777)]",[],[1],[],horizontal,"(390.0, 262.0)",1.7,nan,1,3839.464,1,0.06,same
0,557,valid,"[(1159, 779)]",[],[1],[0.55],vertical,"(890.0, 262.0)",0.8333333333333334,0.509,1,3844.565,1,0.06,same
0,558,valid,"[(1174, 768)]",[],[1],[0.55],horizontal,"(890.0, 262.0)",0.9333333333333333,0.508,1,3849.431,1,0.06,same
0,559,valid,"[(1136, 782)]",[],[1],[0.7333333333333333],vertical,"(390.0, 262.0)",0.9166666666666666,0.685,1,3854.552,2,0.06,same
0,560,valid,"[(1136, 768)]",[],[1],[0.85],horizontal,"(390.0, 262.0)",0.45,nan,0,3860.242,0,0.06,same
0,561,valid,"[(1139, 803)]",[],[1],[0.6666666666666666],vertical,"(390.0, 262.0)",0.5,0.624,1,3864.636,1,0.06,same
0,562,catch,"[(1167, 773)]",[],[1],[],horizontal,"(890.0, 262.0)",1.7,nan,1,3869.514,1,0.04,same
0,563,catch,"[(1151, 788)]",[],[1],[],horizontal,"(890.0, 762.0)",1.7,nan,1,3875.14,1,0.04,same
0,564,catch,"[(1160, 774)]",[],[1],[],vertical,"(390.0, 262.0)",1.7,nan,1,3880.475,2,0.04,same
0,565,valid,"[(1161, 783)]",[],[1],[0.5666666666666667],vertical,"(890.0, 762.0)",0.36666666666666664,0.524,1,3885.975,2,0.02,same
0,566,valid,"[(1156, 765)]",[],[1],[0.65],horizontal,"(390.0, 262.0)",0.3833333333333333,0.604,1,3890.867,2,0.02,same
0,567,valid,"[(1159, 777)]",[],[1],[0.6833333333333333],vertical,"(890.0, 262.0)",0.5333333333333333,0.639,1,3896.194,3,0.02,same
0,568,valid,"[(1156, 770)]",[],[1],[0.65],horizontal,"(890.0, 762.0)",1.1833333333333333,0.605,1,3902.132,3,0.02,same
0,569,valid,"[(1183, 777)]",[],[1],[0.6166666666666667],vertical,"(890.0, 762.0)",0.4166666666666667,0.577,1,3908.331,3,0.02,same
0,570,catch,"[(1161, 779)]",[],[1],[],vertical,"(390.0, 262.0)",1.7,nan,1,3913.72,3,0.02,same
0,571,valid,"[(1160, 766)]",[],[1],[0.85],vertical,"(890.0, 262.0)",0.7,nan,0,3919.602,0,0.02,same
0,572,catch,"[(1135, 784)]",[],[1],[],vertical,"(890.0, 262.0)",1.7,nan,1,3924.21,1,0.02,same
0,573,valid,"[(1132, 786)]",[],[1],[0.6],horizontal,"(390.0, 762.0)",0.6833333333333333,0.555,1,3929.449,1,0.02,same
0,574,valid,"[(1146, 748), (1081, 817)]",[],"[0, 1]",[0.6166666666666667],horizontal,"(390.0, 262.0)",0.7,0.571,1,3934.495,1,0.02,same
0,575,catch,"[(1165, 764)]",[],[1],[],horizontal,"(390.0, 762.0)",1.7,nan,1,3940.73,2,0.02,same
0,576,valid,"[(1160, 781)]",[],[1],[0.8],horizontal,"(890.0, 762.0)",0.4166666666666667,0.756,1,3946.365,2,0.02,same
0,577,valid,"[(1165, 789)]",[],[1],[0.75],horizontal,"(390.0, 762.0)",0.45,0.708,1,3951.211,2,0.02,same
0,578,catch,"[(1155, 788)]",[],[1],[],vertical,"(890.0, 762.0)",1.7,nan,1,3956.582,3,0.02,same
0,579,catch,"[(1170, 782)]",[],[1],[],vertical,"(890.0, 262.0)",1.7,nan,1,3962.71,3,0.02,same
0,580,valid,"[(1156, 765)]",[],[1],[0.55],vertical,"(890.0, 762.0)",0.5,0.509,1,3968.849,3,0.02,same
0,581,catch,"[(1133, 780)]",[],[1],[],horizontal,"(890.0, 762.0)",1.7,nan,1,3973.917,3,0.02,same
0,582,valid,"[(1155, 769)]",[],[1],[0.5333333333333333],vertical,"(890.0, 262.0)",0.9333333333333333,0.491,1,3979.748,3,0.02,same
0,583,catch,"[(1177, 764)]",[],[1],[],horizontal,"(890.0, 762.0)",1.7,nan,1,3985.686,3,0.02,same
0,584,valid,"[(1155, 757)]",[],[1],[0.55],horizontal,"(390.0, 262.0)",1.5,0.512,1,3991.873,3,0.02,same
0,585,valid,"[(1161, 778)]",[],[1],[0.7166666666666667],horizontal,"(390.0, 262.0)",1.25,0.676,1,3998.532,3,0.02,same
0,586,valid,"[(1155, 763)]",[],[1],[0.6166666666666667],vertical,"(390.0, 262.0)",1.1833333333333333,0.579,1,4004.299,3,0.02,same
0,587,valid,"[(1154, 768)]",[],[1],[0.65],vertical,"(390.0, 762.0)",0.4666666666666667,0.615,1,4010.365,3,0.02,same
0,588,valid,"[(1131, 771)]",[],[1],[0.5833333333333334],horizontal,"(890.0, 262.0)",0.75,0.542,1,4015.932,3,0.02,same
0,589,valid,"[(1172, 773)]",[],[1],[0.7],vertical,"(390.0, 262.0)",1.5,0.651,1,4021.434,3,0.02,same
0,590,catch,"[(1166, 770)]",[],[1],[],horizontal,"(890.0, 762.0)",1.7,nan,1,4028.218,3,0.02,same
0,591,valid,"[(1158, 773)]",[],[1],[0.5333333333333333],horizontal,"(390.0, 262.0)",1.3166666666666667,0.491,1,4034.156,3,0.02,same
0,592,invalid_same_bar,"[(1156, 769)]",[],[1],[0.8],horizontal,"(390.0, 262.0)",0.8666666666666667,0.749,1,4040.291,3,0.02,same
0,593,invalid_adjacent_other_bar,"[(1157, 763)]",[],[1],[0.5833333333333334],horizontal,"(390.0, 262.0)",0.8333333333333334,0.546,1,4046.278,3,0.02,other
0,594,catch,"[(1166, 777)]",[],[1],[],vertical,"(890.0, 262.0)",1.7,nan,1,4051.798,3,0.02,same
0,595,valid,"[(1136, 799)]",[],[1],[0.7666666666666666],vertical,"(390.0, 762.0)",0.4,0.729,1,4057.82,3,0.02,same
0,596,valid,"[(1145, 778)]",[],[1],[0.6166666666666667],vertical,"(390.0, 262.0)",0.8166666666666667,0.577,1,4063.715,3,0.0,same
0,597,valid,"[(1152, 749), (1116, 808)]",[],"[0, 1]",[0.65],vertical,"(390.0, 262.0)",0.5,0.617,1,4069.382,3,0.0,same
0,598,valid,"[(1156, 777)]",[],[1],[0.6833333333333333],vertical,"(390.0, 262.0)",1.2666666666666666,0.643,1,4076.352,3,0.0,same
0,599,catch,"[(1155, 770)]",[],[1],[],vertical,"(390.0, 762.0)",1.7,nan,1,4082.482,3,0.0,same
0,600,valid,"[(1155, 767)]",[],[1],[0.5666666666666667],vertical,"(890.0, 262.0)",0.35,0.523,1,4088.466,3,0.0,same
0,601,valid,"[(1151, 765)]",[],[1],[0.5833333333333334],vertical,"(890.0, 762.0)",1.3833333333333333,0.549,1,4093.907,3,0.0,same
0,602,valid,"[(1174, 773)]",[],[1],[0.7833333333333333],horizontal,"(390.0, 262.0)",1.1833333333333333,0.737,1,4100.132,3,0.0,same
0,603,catch,"[(1116, 784)]",[],[1],[],horizontal,"(390.0, 262.0)",1.7,nan,1,4106.575,3,0.0,same
0,604,valid,"[(1125, 789)]",[],[1],[0.5333333333333333],vertical,"(390.0, 262.0)",1.2333333333333334,0.49,1,4112.832,3,0.0,same
0,605,valid,"[(1170, 767)]",[],[1],[0.55],horizontal,"(890.0, 262.0)",1.4666666666666666,0.508,1,4118.876,3,0.0,same
0,606,invalid_same_bar,"[(1162, 778)]",[],[1],[0.6],horizontal,"(390.0, 262.0)",0.36666666666666664,0.558,1,4124.783,3,0.0,same
0,607,valid,"[(1150, 795)]",[],[1],[0.7666666666666666],horizontal,"(390.0, 262.0)",1.1,0.721,1,4130.025,3,0.0,same
0,608,catch,"[(1151, 779)]",[],[1],[],horizontal,"(890.0, 262.0)",1.7,nan,1,4136.532,3,0.0,same
0,609,valid,"[(1175, 771)]",[],[1],[0.5833333333333334],vertical,"(390.0, 262.0)",1.0,0.539,1,4142.299,3,0.0,same
0,610,catch,"[(1160, 777)]",[],[1],[],horizontal,"(890.0, 262.0)",1.7,nan,1,4147.961,3,0.0,same
0,611,catch,"[(1155, 774)]",[],[1],[],horizontal,"(890.0, 262.0)",1.7,nan,1,4153.765,3,0.0,same
0,612,catch,"[(1146, 782)]",[],[1],[],vertical,"(390.0, 762.0)",1.7,nan,1,4159.966,3,0.0,same
0,613,valid,"[(1159, 767)]",[],[1],[0.5333333333333333],vertical,"(390.0, 262.0)",0.55,0.501,1,4165.765,3,0.0,same
0,614,invalid_adjacent_other_bar,"[(1135, 769)]",[],[1],[0.5833333333333334],horizontal,"(390.0, 262.0)",0.65,0.544,1,4170.762,3,0.0,other
0,615,valid,"[(1136, 784)]",[],[1],[0.65],horizontal,"(890.0, 262.0)",0.6,0.607,1,4176.078,3,0.0,same
0,616,invalid_same_bar,"[(1153, 784)]",[],[1],[0.75],vertical,"(890.0, 762.0)",1.0,0.717,1,4181.68,3,0.0,same
0,617,valid,"[(1155, 772)]",[],[1],[0.4166666666666667],horizontal,"(390.0, 262.0)",1.5166666666666666,0.377,1,4187.616,3,0.0,same
0,618,valid,"[(1131, 762)]",[],[1],[0.5833333333333334],horizontal,"(390.0, 762.0)",0.7333333333333333,0.554,1,4193.807,3,0.0,same
0,619,catch,"[(1155, 777)]",[],[1],[],vertical,"(890.0, 762.0)",1.7,nan,1,4199.643,3,0.0,same
0,620,valid,"[(1156, 764)]",[],[1],[0.5666666666666667],vertical,"(890.0, 762.0)",1.25,0.532,1,4205.683,3,0.0,same
0,621,invalid_adjacent_other_bar,"[(1151, 780)]",[],[1],[0.8],vertical,"(890.0, 762.0)",1.2,0.766,1,4211.887,3,0.0,other
0,622,catch,"[(1153, 778)]",[],[1],[],horizontal,"(390.0, 762.0)",1.7,nan,1,4218.058,3,0.0,same
0,623,valid,"[(1151, 769)]",[],[1],[0.8],horizontal,"(890.0, 762.0)",0.4,0.756,1,4223.974,3,0.0,same
0,624,invalid_adjacent_other_bar,"[(1153, 770)]",[],[1],[0.7833333333333333],vertical,"(890.0, 762.0)",0.8833333333333333,0.745,1,4229.625,3,0.0,other
0,625,invalid_adjacent_other_bar,"[(1153, 799)]",[],[1],[0.85],horizontal,"(890.0, 262.0)",0.9,nan,0,4235.849,0,0.0,other
0,626,valid,"[(1083, 822)]",[],[1],[0.25],vertical,"(890.0, 762.0)",1.15,0.217,1,4240.251,1,0.0,same
0,627,valid,"[(1154, 783)]",[],[1],[0.6],vertical,"(890.0, 762.0)",0.85,0.563,1,4248.292,1,0.0,same
0,628,catch,"[(1128, 783)]",[],[1],[],horizontal,"(890.0, 262.0)",1.7,nan,1,4253.715,1,0.0,same
0,629,catch,"[(1151, 777)]",[],[1],[],vertical,"(390.0, 762.0)",1.7,nan,1,4259.457,2,0.0,same
0,630,catch,"[(1150, 771)]",[],[1],[],horizontal,"(890.0, 762.0)",1.7,nan,1,4264.782,2,0.0,same
0,631,invalid_same_bar,"[(1150, 784)]",[],[1],[0.7166666666666667],vertical,"(390.0, 262.0)",1.1666666666666667,0.668,1,4270.076,2,0.0,same
0,632,valid,"[(1136, 789)]",[],[1],[0.85],vertical,"(890.0, 762.0)",0.6833333333333333,nan,0,4275.898,0,0.0,same
0,633,valid,"[(1122, 781)]",[],[1],[0.55],horizontal,"(390.0, 762.0)",1.2166666666666666,0.506,1,4280.938,1,0.0,same
0,634,invalid_adjacent_other_bar,"[(1150, 792)]",[],[1],[0.65],vertical,"(390.0, 262.0)",1.5,0.622,1,4286.166,1,0.0,other
0,635,valid,"[(1161, 776)]",[],[1],[0.85],vertical,"(890.0, 762.0)",0.8833333333333333,nan,0,4291.98,0,0.0,same
0,636,invalid_adjacent_other_bar,"[(1138, 776)]",[],[1],[0.6166666666666667],vertical,"(390.0, 262.0)",0.8666666666666667,0.573,1,4296.932,1,0.0,other
0,637,catch,"[(1158, 774)]",[],[1],[],horizontal,"(390.0, 262.0)",1.7,nan,1,4301.679,1,0.0,same
0,638,catch,"[(1153, 781)]",[],[1],[],vertical,"(890.0, 262.0)",1.7,nan,1,4306.716,1,0.0,same
0,639,invalid_same_bar,"[(1150, 792)]",[],[1],[0.5666666666666667],vertical,"(890.0, 762.0)",0.7666666666666666,0.521,1,4311.816,2,0.0,same
0,640,valid,"[(1147, 791)]",[],[1],[0.6333333333333333],horizontal,"(390.0, 762.0)",0.8,0.59,1,4317.182,2,0.0,same
0,641,valid,"[(1151, 778)]",[],[1],[0.6166666666666667],vertical,"(890.0, 262.0)",1.0166666666666666,0.574,1,4322.692,2,0.0,same
0,642,invalid_same_bar,"[(1153, 793)]",[],[1],[0.6666666666666666],vertical,"(390.0, 762.0)",0.7666666666666666,0.62,1,4328.075,3,0.0,same
0,643,valid,"[(1156, 764)]",[],[1],[0.7666666666666666],vertical,"(390.0, 762.0)",1.05,0.718,1,4333.817,3,0.0,same
0,644,valid,"[(1162, 773)]",[],[1],[0.85],vertical,"(890.0, 762.0)",0.7333333333333333,nan,0,4340.167,0,0.0,same
0,645,valid,"[(1117, 778)]",[],[1],[0.5666666666666667],horizontal,"(390.0, 262.0)",1.1166666666666667,0.521,1,4344.869,1,0.0,same
0,646,valid,"[(1155, 782)]",[],[1],[0.5666666666666667],vertical,"(890.0, 762.0)",1.5333333333333332,0.519,1,4350.427,1,0.0,same
0,647,invalid_same_bar,"[(1154, 785)]",[],[1],[0.6166666666666667],horizontal,"(390.0, 762.0)",0.7166666666666667,0.573,1,4355.633,1,0.0,same
0,648,catch,"[(1153, 786)]",[],[1],[],vertical,"(890.0, 262.0)",1.7,nan,1,4360.782,2,0.0,same
0,649,valid,"[(1153, 782)]",[],[1],[0.5833333333333334],horizontal,"(890.0, 762.0)",0.6333333333333333,0.539,1,4366.599,2,0.0,same
0,650,catch,"[(1155, 787)]",[],[1],[],horizontal,"(390.0, 762.0)",1.7,nan,1,4371.416,2,0.0,same
0,651,valid,"[(1135, 779)]",[],[1],[0.7833333333333333],horizontal,"(390.0, 262.0)",0.6333333333333333,0.736,1,4376.832,3,0.0,same
0,652,valid,"[(1136, 750), (1106, 837)]",[],"[0, 1]",[0.5833333333333334],vertical,"(890.0, 762.0)",0.9833333333333333,0.54,1,4382.57,3,0.0,same
0,653,valid,"[(1165, 763)]",[],[1],[0.55],horizontal,"(390.0, 262.0)",0.6333333333333333,0.512,1,4389.865,3,0.0,same
0,654,valid,"[(1150, 784)]",[],[1],[0.55],vertical,"(390.0, 262.0)",0.4166666666666667,0.507,1,4395.222,3,0.0,same
0,655,valid,"[(1150, 775)]",[],[1],[0.65],horizontal,"(890.0, 262.0)",0.7833333333333333,0.606,1,4400.349,3,0.0,same
0,656,valid,"[(1146, 786)]",[],[1],[0.55],vertical,"(890.0, 762.0)",1.0333333333333332,0.513,1,4406.193,3,0.0,same
0,657,valid,"[(1141, 787)]",[],[1],[0.5666666666666667],vertical,"(890.0, 262.0)",0.7333333333333333,0.524,1,4412.45,3,0.0,same
0,658,valid,"[(1154, 776)]",[],[1],[0.6],horizontal,"(390.0, 262.0)",0.9,0.552,1,4418.265,3,0.0,same
0,659,catch,"[(1151, 769)]",[],[1],[],vertical,"(890.0, 262.0)",1.7,nan,1,4424.307,3,0.0,same
0,660,invalid_same_bar,"[(1155, 778)]",[],[1],[0.85],horizontal,"(390.0, 262.0)",0.5333333333333333,nan,0,4430.5,0,0.0,same
0,661,catch,"[(1135, 787)]",[],[1],[],horizontal,"(390.0, 262.0)",1.7,nan,1,4434.729,1,0.0,same
0,662,catch,"[(1171, 773)]",[],[1],[],horizontal,"(890.0, 262.0)",1.7,nan,1,4440.046,1,0.0,same
0,663,catch,"[(1166, 797)]",[],[1],[],horizontal,"(890.0, 762.0)",1.7,nan,1,4445.692,1,0.0,same
0,664,valid,"[(1136, 791)]",[],[1],[0.85],horizontal,"(890.0, 762.0)",0.9166666666666666,nan,0,4451.033,0,0.0,same
0,665,catch,"[(1136, 784)]",[],[1],[],vertical,"(390.0, 762.0)",1.7,nan,1,4455.917,1,0.0,same
0,666,invalid_adjacent_other_bar,"[(1142, 772)]",[],[1],[0.7833333333333333],horizontal,"(890.0, 762.0)",1.1666666666666667,0.735,1,4461.033,1,0.0,other
0,667,valid,"[(1165, 792)]",[],[1],[0.5166666666666666],horizontal,"(390.0, 262.0)",0.7,0.475,1,4466.334,1,0.0,same
0,668,invalid_adjacent_other_bar,"[(1169, 794)]",[],[1],[0.85],horizontal,"(890.0, 762.0)",0.3833333333333333,nan,0,4471.197,0,0.0,other
0,669,valid,"[(1118, 776)]",[],[1],[0.6166666666666667],horizontal,"(390.0, 262.0)",0.7666666666666666,0.577,1,4475.16,1,0.0,same
0,670,valid,"[(1148, 778)]",[],[1],[0.6],vertical,"(890.0, 262.0)",0.6333333333333333,0.56,1,4480.138,1,0.0,same
0,671,valid,"[(1141, 781)]",[],[1],[0.75],horizontal,"(890.0, 262.0)",0.4166666666666667,0.717,1,4484.877,1,0.0,same
0,672,invalid_same_bar,"[(1165, 773)]",[],[1],[0.5833333333333334],horizontal,"(390.0, 762.0)",0.8333333333333334,0.543,1,4489.35,2,0.0,same
0,673,valid,"[(1170, 778)]",[],[1],[0.5833333333333334],vertical,"(390.0, 262.0)",0.6833333333333333,0.545,1,4494.96,2,0.0,same
0,674,catch,"[(1146, 778)]",[],[1],[],horizontal,"(890.0, 262.0)",1.7,nan,1,4500.069,2,0.0,same
0,675,valid,"[(1116, 795)]",[],[1],[0.6],horizontal,"(390.0, 762.0)",1.2,0.555,1,4505.579,3,0.0,same
0,676,valid,"[(1121, 790)]",[],[1],[0.55],horizontal,"(390.0, 262.0)",1.5166666666666666,0.507,1,4511.882,3,0.0,same
0,677,valid,"[(1136, 757)]",[],[1],[0.6],horizontal,"(890.0, 262.0)",1.35,0.558,1,4518.513,3,0.0,same
0,678,valid,"[(1146, 792)]",[],[1],[0.7],horizontal,"(890.0, 762.0)",1.35,0.655,1,4525.083,3,0.0,same
0,679,valid,"[(1137, 767)]",[],[1],[0.7166666666666667],vertical,"(890.0, 762.0)",1.2166666666666666,0.672,1,4531.316,3,0.0,same
0,680,valid,"[(1155, 796)]",[],[1],[0.5833333333333334],horizontal,"(890.0, 762.0)",0.4166666666666667,0.553,1,4537.467,3,0.0,same
0,681,valid,"[(1160, 779)]",[],[1],[0.5333333333333333],vertical,"(890.0, 262.0)",0.5666666666666667,0.491,1,4542.767,3,0.0,same
0,682,valid,"[(1155, 787)]",[],[1],[0.6166666666666667],vertical,"(890.0, 762.0)",0.6166666666666667,0.58,1,4548.508,3,0.0,same
0,683,valid,"[(1170, 797)]",[],[1],[0.5166666666666666],horizontal,"(890.0, 762.0)",1.5,0.484,1,4554.016,3,0.0,same
0,684,valid,"[(1136, 782)]",[],[1],[0.7666666666666666],horizontal,"(390.0, 262.0)",0.8666666666666667,0.723,1,4560.283,3,0.0,same
0,685,valid,"[(1175, 773)]",[],[1],[0.13333333333333333],horizontal,"(890.0, 762.0)",1.5166666666666666,0.099,0,4566.014,0,0.0,same
0,686,valid,"[(1096, 823)]",[],[1],[0.25],horizontal,"(890.0, 262.0)",1.4333333333333333,0.211,1,4571.047,1,0.0,same
0,687,valid,"[(1146, 802)]",[],[1],[0.5333333333333333],horizontal,"(890.0, 262.0)",0.45,0.49,1,4667.017,1,0.0,same
0,688,valid,"[(1141, 801)]",[],[1],[0.55],horizontal,"(390.0, 762.0)",0.9666666666666667,0.511,1,4671.961,1,0.0,same
0,689,catch,"[(1131, 786)]",[],[1],[],horizontal,"(890.0, 262.0)",1.7,nan,1,4676.899,2,0.0,same
0,690,valid,"[(1160, 794)]",[],[1],[],horizontal,"(890.0, 762.0)",,"('fix', 0.459)",0,4682.851,0,0.0,same
0,691,valid,"[(1116, 808)]",[],[1],[0.55],vertical,"(390.0, 762.0)",0.36666666666666664,0.514,1,4684.9,1,0.0,same
0,692,valid,"[(1129, 801)]",[],[1],[0.6],vertical,"(890.0, 762.0)",1.2166666666666666,0.557,1,4689.267,1,0.0,same
0,693,valid,"[(1132, 794)]",[],[1],[0.6],vertical,"(390.0, 762.0)",0.48333333333333334,0.563,1,4694.652,1,0.0,same
0,694,catch,"[(1151, 783)]",[],[1],[],vertical,"(890.0, 262.0)",1.7,nan,1,4699.401,2,0.0,same
0,695,valid,"[(1155, 777)]",[],[1],[0.5833333333333334],horizontal,"(890.0, 262.0)",1.4166666666666667,0.543,1,4705.477,2,0.0,same
0,696,valid,"[(1175, 779)]",[],[1],[0.6833333333333333],vertical,"(390.0, 262.0)",0.9,0.638,1,4711.145,2,0.0,same
0,697,valid,"[(1170, 778)]",[],[1],[],horizontal,"(890.0, 762.0)",,"('cti', 0.654)",0,4716.166,0,0.0,same
0,698,invalid_adjacent_other_bar,"[(1136, 770)]",[],[1],[0.5333333333333333],horizontal,"(890.0, 262.0)",0.43333333333333335,0.494,1,4720.301,1,0.0,other
0,699,invalid_adjacent_other_bar,"[(1155, 794)]",[],[1],[],vertical,"(890.0, 762.0)",,"('fix', 0.233)",0,4724.633,0,0.0,other
0,700,valid,"[(1116, 797)]",[],[1],[0.5333333333333333],horizontal,"(890.0, 762.0)",1.1166666666666667,0.49,1,4726.584,1,0.0,same
0,701,valid,"[(1156, 795)]",[],[1],[0.65],horizontal,"(890.0, 762.0)",0.9166666666666666,0.604,1,4731.983,1,0.0,same
0,702,catch,"[(1160, 791)]",[],[1],[],horizontal,"(390.0, 262.0)",1.7,nan,1,4737.433,1,0.0,same
0,703,catch,"[(1170, 767)]",[],[1],[],horizontal,"(890.0, 262.0)",1.7,nan,1,4742.917,2,0.0,same
0,704,valid,"[(1159, 771)]",[],[1],[0.5666666666666667],vertical,"(390.0, 262.0)",0.4,0.522,1,4748.465,2,0.0,same
0,705,catch,"[(1136, 782)]",[],[1],[],horizontal,"(890.0, 262.0)",1.7,nan,1,4753.182,2,0.0,same
0,706,catch,"[(1155, 788)]",[],[1],[],horizontal,"(390.0, 262.0)",1.7,nan,1,4758.88,3,0.0,same
0,707,valid,"[(1159, 775)]",[],[1],[0.7],vertical,"(390.0, 262.0)",1.0166666666666666,0.653,1,4765.171,3,0.0,same
0,708,invalid_adjacent_other_bar,"[(1161, 773)]",[],[1],[0.5333333333333333],horizontal,"(390.0, 762.0)",1.15,0.489,1,4771.332,3,0.0,other
0,709,valid,"[(1160, 779)]",[],[1],[0.85],horizontal,"(390.0, 262.0)",0.45,nan,0,4777.185,0,0.0,same
0,710,valid,"[(1138, 782)]",[],[1],[0.5666666666666667],horizontal,"(390.0, 262.0)",0.8833333333333333,0.532,1,4781.655,1,0.0,same
0,711,catch,"[(1134, 775)]",[],[1],[],horizontal,"(890.0, 762.0)",1.7,nan,1,4786.612,1,0.0,same
0,712,valid,"[(1160, 777)]",[],[1],[0.6666666666666666],horizontal,"(390.0, 262.0)",1.45,0.623,1,4792.298,1,0.0,same
0,713,valid,"[(1151, 778)]",[],[1],[0.5833333333333334],horizontal,"(390.0, 762.0)",0.3833333333333333,0.545,1,4797.93,2,0.0,same
0,714,catch,"[(1161, 769)]",[],[1],[],horizontal,"(390.0, 262.0)",1.7,nan,1,4802.977,2,0.0,same
0,715,catch,"[(1165, 769)]",[],[1],[],horizontal,"(390.0, 262.0)",1.7,nan,1,4808.382,2,0.0,same
0,716,invalid_adjacent_other_bar,"[(1151, 778)]",[],[1],[0.85],horizontal,"(890.0, 762.0)",1.1,nan,0,4814.001,0,0.0,other
0,717,catch,"[(1136, 784)]",[],[1],[],horizontal,"(890.0, 762.0)",1.7,nan,1,4819.22,1,0.0,same
0,718,catch,"[(1148, 797)]",[],[1],[],vertical,"(390.0, 262.0)",1.7,nan,1,4824.49,1,0.0,same
0,719,valid,"[(1135, 756)]",[],[1],[0.85],vertical,"(390.0, 762.0)",1.1166666666666667,nan,0,4829.909,0,0.0,same
0,720,valid,"[(1151, 777)]",[],[1],[0.7833333333333333],horizontal,"(890.0, 762.0)",0.43333333333333335,0.734,1,4835.216,1,0.0,same
0,721,valid,"[(1179, 787)]",[],[1],[0.6166666666666667],horizontal,"(890.0, 762.0)",1.35,0.572,1,4840.066,1,0.0,same
0,722,catch,"[(1172, 779)]",[],[1],[],vertical,"(890.0, 762.0)",,"('fix', 0.607),nan",0,4845.301,0,0.02,same
0,723,valid,"[(1141, 820)]",[],[1],[0.7],horizontal,"(390.0, 762.0)",0.4666666666666667,0.656,1,4847.5,1,0.02,same
0,724,valid,"[(1163, 772)]",[],[1],[0.85],vertical,"(390.0, 262.0)",0.9833333333333333,nan,0,4852.417,0,0.02,same
0,725,valid,"[(1089, 770)]",[],[1],[0.6166666666666667],horizontal,"(390.0, 762.0)",0.35,0.575,1,4857.247,1,0.02,same
0,726,catch,"[(1157, 777)]",[],[1],[],vertical,"(890.0, 262.0)",1.7,nan,1,4861.921,1,0.02,same
0,727,valid,"[(1156, 782)]",[],[1],[0.5],vertical,"(890.0, 262.0)",1.4166666666666667,0.463,1,4866.835,1,0.02,same
0,728,valid,"[(1155, 804)]",[],[1],[0.5833333333333334],horizontal,"(890.0, 262.0)",0.5333333333333333,0.543,1,4871.921,2,0.02,same
0,729,valid,"[(1159, 791)]",[],[1],[0.5],vertical,"(390.0, 762.0)",0.8,0.459,1,4876.852,2,0.02,same
0,730,invalid_same_bar,"[(1111, 772)]",[],[1],[0.8333333333333334],horizontal,"(890.0, 762.0)",0.8,0.794,1,4881.95,2,0.02,same
0,731,valid,"[(1137, 799)]",[],[1],[0.6],horizontal,"(390.0, 262.0)",1.2166666666666666,0.559,1,4887.6,3,0.02,same
0,732,valid,"[(1158, 751), (1122, 803)]",[],"[0, 1]",[0.6166666666666667],horizontal,"(390.0, 762.0)",1.15,0.572,1,4894.229,3,0.02,same
0,733,catch,"[(1160, 768)]",[],[1],[],horizontal,"(390.0, 262.0)",1.7,nan,1,4901.719,3,0.02,same
0,734,valid,"[(1160, 778)]",[],[1],[0.5833333333333334],horizontal,"(890.0, 262.0)",1.25,0.543,1,4907.382,3,0.02,same
0,735,valid,"[(1137, 764)]",[],[1],[0.5166666666666666],horizontal,"(890.0, 262.0)",1.5,0.475,1,4913.398,3,0.02,same
0,736,catch,"[(1153, 756)]",[],[1],[],vertical,"(890.0, 262.0)",1.7,nan,1,4919.7,3,0.02,same
0,737,valid,"[(1160, 778)]",[],[1],[0.5833333333333334],horizontal,"(890.0, 262.0)",0.7166666666666667,0.544,1,4925.658,3,0.02,same
0,738,valid,"[(1152, 778)]",[],[1],[0.6166666666666667],horizontal,"(390.0, 262.0)",0.85,0.572,1,4931.141,3,0.02,same
0,739,valid,"[(1166, 762)]",[],[1],[],vertical,"(390.0, 262.0)",,"('fix', 0.569)",0,4937.161,0,0.02,same
0,740,valid,"[(1116, 792)]",[],[1],[0.55],vertical,"(890.0, 262.0)",0.45,0.515,1,4939.377,1,0.02,same
0,741,valid,"[(1136, 759)]",[],[1],[0.55],vertical,"(390.0, 262.0)",0.6333333333333333,0.515,1,4944.206,1,0.02,same
0,742,invalid_adjacent_other_bar,"[(1132, 769)]",[],[1],[0.85],horizontal,"(390.0, 762.0)",0.4166666666666667,nan,0,4949.412,0,0.02,other
0,743,valid,"[(1126, 782)]",[],[1],[0.75],vertical,"(390.0, 262.0)",0.9833333333333333,0.705,1,4953.463,1,0.02,same
0,744,invalid_same_bar,"[(1153, 767)]",[],[1],[0.6166666666666667],vertical,"(890.0, 262.0)",1.2833333333333332,0.575,1,4958.674,1,0.02,same
0,745,valid,"[(1189, 773)]",[],[1],[0.6],horizontal,"(890.0, 762.0)",1.15,0.56,1,4964.267,1,0.02,same
0,746,valid,"[(1161, 777)]",[],[1],[0.65],vertical,"(390.0, 762.0)",0.45,0.61,1,4969.773,2,0.02,same
0,747,valid,"[(1160, 776)]",[],[1],[0.55],vertical,"(390.0, 762.0)",1.5333333333333332,0.509,1,4974.767,2,0.02,same
0,748,valid,"[(1156, 792)]",[],[1],[0.6333333333333333],horizontal,"(890.0, 262.0)",0.6166666666666667,0.593,1,4980.841,2,0.02,same
0,749,valid,"[(1160, 795)]",[],[1],[0.5666666666666667],vertical,"(890.0, 762.0)",0.9166666666666666,0.522,1,4985.652,3,0.02,same
0,750,valid,"[(1141, 782)]",[],[1],[0.5833333333333334],horizontal,"(890.0, 262.0)",1.15,0.542,1,4991.4,3,0.02,same
0,751,catch,"[(1160, 773)]",[],[1],[],horizontal,"(890.0, 762.0)",1.7,nan,1,4997.365,3,0.02,same
0,752,catch,"[(1170, 791)]",[],[1],[],horizontal,"(890.0, 262.0)",1.7,nan,1,5003.15,3,0.02,same
0,753,valid,"[(1135, 787)]",[],[1],[0.6166666666666667],vertical,"(390.0, 262.0)",1.1166666666666667,0.583,1,5009.118,3,0.02,same
0,754,valid,"[(1155, 779)]",[],[1],[0.7],horizontal,"(890.0, 262.0)",0.6666666666666666,0.655,1,5015.411,3,0.02,same
0,755,valid,"[(1167, 784)]",[],[1],[0.5333333333333333],vertical,"(890.0, 762.0)",1.35,0.492,1,5021.206,3,0.02,same
0,756,valid,"[(1161, 770)]",[],[1],[0.55],vertical,"(890.0, 762.0)",1.2666666666666666,0.511,1,5027.669,3,0.02,same
0,757,valid,"[(1158, 783)]",[],[1],[0.75],vertical,"(390.0, 262.0)",1.1,0.718,1,5033.623,3,0.02,same
0,758,catch,"[(1164, 772)]",[],[1],[],horizontal,"(390.0, 262.0)",1.7,nan,1,5040.101,3,0.02,same
0,759,valid,"[(1159, 782)]",[],[1],[0.5666666666666667],horizontal,"(890.0, 262.0)",1.2333333333333334,0.535,1,5045.918,3,0.02,same
0,760,valid,"[(1158, 783)]",[],[1],[0.5166666666666666],horizontal,"(390.0, 762.0)",1.2166666666666666,0.478,1,5052.151,3,0.02,same
0,761,valid,"[(1155, 783)]",[],[1],[0.85],vertical,"(390.0, 262.0)",0.7166666666666667,nan,0,5058.014,0,0.02,same
0,762,catch,"[(1121, 785)]",[],[1],[],vertical,"(390.0, 762.0)",1.7,nan,1,5062.762,1,0.02,same
0,763,valid,"[(1159, 789)]",[],[1],[0.6166666666666667],vertical,"(390.0, 762.0)",0.5833333333333334,0.583,1,5068.007,1,0.02,same
0,764,valid,"[(1164, 765)]",[],[1],[0.7],vertical,"(890.0, 762.0)",1.3333333333333333,0.654,1,5072.843,1,0.02,same
0,765,catch,"[(1158, 743), (1118, 804)]",[],"[0, 1]",[],horizontal,"(390.0, 262.0)",1.7,nan,1,5078.649,2,0.02,same
0,766,valid,"[(1134, 773)]",[],[1],[0.6166666666666667],vertical,"(390.0, 262.0)",1.1333333333333333,0.571,1,5086.09,2,0.02,same
0,767,valid,"[(1137, 773)]",[],[1],[0.55],vertical,"(390.0, 262.0)",0.35,0.517,1,5091.747,2,0.02,same
0,768,catch,"[(1156, 769)]",[],[1],[],vertical,"(390.0, 262.0)",1.7,nan,1,5096.537,3,0.02,same
0,769,valid,"[(1131, 766)]",[],[1],[0.5666666666666667],vertical,"(390.0, 762.0)",0.65,0.532,1,5103.112,3,0.02,same
0,770,valid,"[(1158, 778)]",[],[1],[0.5833333333333334],vertical,"(890.0, 262.0)",1.5,0.545,1,5108.883,3,0.02,same
0,771,valid,"[(1156, 768)]",[],[1],[0.5166666666666666],horizontal,"(390.0, 262.0)",0.4,0.473,1,5115.276,3,0.02,same
0,772,valid,"[(1157, 769)]",[],[1],[0.6166666666666667],vertical,"(390.0, 762.0)",1.4,0.576,1,5120.122,3,0.0,same
0,773,valid,"[(1157, 776)]",[],[1],[0.5833333333333334],horizontal,"(390.0, 262.0)",1.25,0.546,1,5126.425,3,0.0,same
0,774,valid,"[(1161, 769)]",[],[1],[0.55],horizontal,"(390.0, 262.0)",0.8833333333333333,0.51,1,5132.651,3,0.0,same
0,775,invalid_adjacent_other_bar,"[(1159, 779)]",[],[1],[0.7],vertical,"(390.0, 762.0)",0.8166666666666667,0.656,1,5138.393,3,0.0,other
0,776,catch,"[(1159, 771)]",[],[1],[],horizontal,"(890.0, 762.0)",1.7,nan,1,5144.117,3,0.0,same
0,777,valid,"[(1160, 782)]",[],[1],[0.55],horizontal,"(890.0, 262.0)",1.1166666666666667,0.507,1,5150.45,3,0.0,same
0,778,valid,"[(1131, 785)]",[],[1],[0.6666666666666666],vertical,"(390.0, 262.0)",1.4166666666666667,0.626,1,5156.333,3,0.0,same
0,779,valid,"[(1146, 781)]",[],[1],[0.5666666666666667],horizontal,"(390.0, 262.0)",1.3333333333333333,0.528,1,5163.067,3,0.0,same
0,780,invalid_adjacent_other_bar,"[(1131, 766)]",[],[1],[0.85],horizontal,"(390.0, 762.0)",1.2,nan,0,5169.166,0,0.0,other
0,781,valid,"[(1131, 791)]",[],[1],[0.5333333333333333],vertical,"(890.0, 262.0)",0.9,0.493,1,5174.334,1,0.0,same
0,782,valid,"[(1154, 757)]",[],[1],[0.5833333333333334],horizontal,"(890.0, 262.0)",0.55,0.534,1,5179.217,1,0.0,same
0,783,catch,"[(1131, 785)]",[],[1],[],vertical,"(390.0, 262.0)",1.7,nan,1,5183.627,1,0.0,same
0,784,valid,"[(1164, 788)]",[],[1],[0.65],vertical,"(390.0, 262.0)",0.8333333333333334,0.606,1,5189.005,2,0.0,same
0,785,valid,"[(1159, 782)]",[],[1],[0.85],vertical,"(390.0, 762.0)",1.0833333333333333,nan,0,5194.685,0,0.0,same
0,786,catch,"[(1101, 785)]",[],[1],[],horizontal,"(390.0, 262.0)",1.7,nan,1,5199.328,1,0.0,same
0,787,valid,"[(1154, 780)]",[],[1],[0.5833333333333334],vertical,"(890.0, 762.0)",0.4,0.543,1,5204.889,1,0.0,same
0,788,catch,"[(1132, 786)]",[],[1],[],horizontal,"(890.0, 762.0)",1.7,nan,1,5209.473,1,0.0,same
0,789,valid,"[(1131, 771)]",[],[1],[0.55],vertical,"(390.0, 262.0)",0.7666666666666666,0.505,1,5214.413,2,0.0,same
0,790,invalid_same_bar,"[(1155, 780)]",[],[1],[0.6833333333333333],horizontal,"(890.0, 262.0)",0.8,0.637,1,5219.646,2,0.0,same
0,791,catch,"[(1156, 766)]",[],[1],[],horizontal,"(890.0, 762.0)",1.7,nan,1,5224.746,2,0.0,same
0,792,catch,"[(1162, 792)]",[],[1],[],horizontal,"(890.0, 262.0)",1.7,nan,1,5230.445,3,0.0,same
0,793,catch,"[(1152, 778)]",[],[1],[],vertical,"(890.0, 262.0)",1.7,nan,1,5236.506,3,0.0,same
0,794,valid,"[(1148, 764)]",[],[1],[0.5666666666666667],vertical,"(390.0, 262.0)",1.4,0.527,1,5242.75,3,0.0,same
0,795,catch,"[(1137, 777)]",[],[1],[],vertical,"(390.0, 762.0)",1.7,nan,1,5249.203,3,0.0,same
0,796,invalid_same_bar,"[(1160, 777)]",[],[1],[0.5666666666666667],horizontal,"(390.0, 262.0)",0.95,0.52,1,5255.064,3,0.0,same
0,797,valid,"[(1147, 765)]",[],[1],[0.5666666666666667],vertical,"(890.0, 262.0)",1.0,0.526,1,5260.867,3,0.0,same
0,798,valid,"[(1149, 783)]",[],[1],[0.85],horizontal,"(890.0, 262.0)",0.8833333333333333,nan,0,5266.734,0,0.0,same
0,799,valid,"[(1116, 782)]",[],[1],[0.5833333333333334],horizontal,"(390.0, 262.0)",1.3833333333333333,0.537,1,5271.267,1,0.0,same
0,800,valid,"[(1146, 792)]",[],[1],[0.55],horizontal,"(890.0, 262.0)",1.05,0.505,1,5277.039,1,0.0,same
0,801,catch,"[(1131, 778)]",[],[1],[],vertical,"(890.0, 262.0)",1.7,nan,1,5282.318,1,0.0,same
0,802,valid,"[(1158, 790)]",[],[1],[0.85],horizontal,"(890.0, 762.0)",1.1333333333333333,nan,0,5287.138,0,0.0,same
0,803,valid,"[(1131, 794)]",[],[1],[0.85],vertical,"(390.0, 262.0)",1.4666666666666666,nan,0,5291.867,0,0.0,same
0,804,catch,"[(1098, 787)]",[],[1],[],vertical,"(890.0, 262.0)",1.7,nan,1,5297.218,1,0.0,same
0,805,valid,"[(1132, 781)]",[],[1],[0.5833333333333334],vertical,"(890.0, 262.0)",1.15,0.542,1,5323.545,1,0.0,same
0,806,valid,"[(1159, 776)]",[],[1],[0.5166666666666666],horizontal,"(890.0, 762.0)",0.6,0.476,1,5328.893,1,0.0,same
0,807,valid,"[(1160, 787)]",[],[1],[0.55],vertical,"(890.0, 262.0)",1.4,0.506,1,5333.874,2,0.0,same
0,808,invalid_adjacent_other_bar,"[(1156, 778)]",[],[1],[0.5666666666666667],vertical,"(390.0, 262.0)",1.5333333333333332,0.523,1,5340.151,2,0.0,other
0,809,invalid_same_bar,"[(1155, 774)]",[],[1],[0.6333333333333333],vertical,"(390.0, 762.0)",1.3333333333333333,0.591,1,5346.339,2,0.0,same
0,810,catch,"[(1190, 785)]",[],[1],[],horizontal,"(890.0, 762.0)",1.7,nan,1,5352.362,3,0.0,same
0,811,valid,"[(1155, 768)]",[],[1],[0.5833333333333334],horizontal,"(390.0, 262.0)",0.6166666666666667,0.535,1,5358.88,3,0.0,same
0,812,catch,"[(1172, 775)]",[],[1],[],vertical,"(390.0, 262.0)",1.7,nan,1,5364.524,3,0.0,same
0,813,valid,"[(1168, 788)]",[],[1],[0.5666666666666667],horizontal,"(390.0, 762.0)",1.35,0.526,1,5370.752,3,0.0,same
0,814,valid,"[(1174, 793)]",[],[1],[0.65],horizontal,"(890.0, 262.0)",1.2333333333333334,0.605,1,5377.03,3,0.0,same
0,815,valid,"[(1159, 782)]",[],[1],[0.5666666666666667],horizontal,"(890.0, 262.0)",0.5666666666666667,0.521,1,5383.179,3,0.0,same
0,816,valid,"[(1165, 787)]",[],[1],[0.5333333333333333],horizontal,"(390.0, 762.0)",0.6,0.493,1,5388.47,3,0.0,same
0,817,valid,"[(1157, 773)]",[],[1],[0.85],horizontal,"(390.0, 262.0)",1.5333333333333332,nan,0,5393.849,0,0.0,same
0,818,valid,"[(1081, 786)]",[],[1],[0.5666666666666667],vertical,"(390.0, 262.0)",1.2666666666666666,0.528,1,5399.243,1,0.0,same
0,819,catch,"[(1171, 785)]",[],[1],[],vertical,"(390.0, 762.0)",1.7,nan,1,5404.459,1,0.0,same
0,820,catch,"[(1166, 774)]",[],[1],[],horizontal,"(890.0, 262.0)",1.7,nan,1,5409.629,1,0.0,same
0,821,invalid_same_bar,"[(1160, 782)]",[],[1],[],vertical,"(890.0, 262.0)",,"('cti', 0.428)",0,5414.817,0,0.0,same
0,822,valid,"[(1117, 774)]",[],[1],[0.6166666666666667],horizontal,"(890.0, 262.0)",0.8833333333333333,0.572,1,5418.685,1,0.0,same
0,823,catch,"[(1158, 789)]",[],[1],[],horizontal,"(390.0, 262.0)",1.7,nan,1,5423.405,1,0.0,same
0,824,valid,"[(1198, 787)]",[],[1],[0.5333333333333333],vertical,"(390.0, 262.0)",0.43333333333333335,0.506,1,5429.041,1,0.0,same
0,825,catch,"[(1167, 794)]",[],[1],[],horizontal,"(390.0, 762.0)",1.7,"('cti', 1.699),nan",0,5433.042,0,0.02,same
0,826,valid,"[(1141, 782)]",[],[1],[0.6333333333333333],vertical,"(390.0, 762.0)",1.25,0.587,1,5438.167,1,0.02,same
0,827,catch,"[(1157, 778)]",[],[1],[],vertical,"(390.0, 262.0)",1.7,nan,1,5443.314,1,0.02,same
0,828,valid,"[(1170, 797)]",[],[1],[0.85],horizontal,"(890.0, 262.0)",0.5833333333333334,nan,0,5448.645,0,0.02,same
0,829,valid,"[(1158, 784)]",[],[1],[0.5833333333333334],vertical,"(390.0, 262.0)",0.35,0.541,1,5453.035,1,0.02,same
0,830,valid,"[(1146, 810)]",[],[1],[0.7166666666666667],vertical,"(390.0, 262.0)",0.45,0.678,1,5457.514,1,0.02,same
0,831,invalid_same_bar,"[(1167, 807)]",[],[1],[0.5333333333333333],horizontal,"(390.0, 762.0)",1.0,0.5,1,5462.06,1,0.02,same
0,832,valid,"[(1152, 765)]",[],[1],[0.6666666666666666],vertical,"(890.0, 762.0)",1.2666666666666666,0.623,1,5467.217,2,0.02,same
0,833,valid,"[(1172, 773)]",[],[1],[],vertical,"(390.0, 262.0)",,"('fix', 0.445)",0,5472.663,0,0.02,same
0,834,valid,"[(1131, 801)]",[],[1],[0.7666666666666666],vertical,"(890.0, 262.0)",1.1833333333333333,0.723,1,5474.751,1,0.02,same
0,835,valid,"[(1155, 799)]",[],[1],[0.6333333333333333],horizontal,"(390.0, 762.0)",1.4,0.589,1,5479.995,1,0.02,same
0,836,valid,"[(1133, 803)]",[],[1],[0.5833333333333334],horizontal,"(890.0, 762.0)",1.15,0.547,1,5485.353,1,0.02,same
0,837,invalid_adjacent_other_bar,"[(1160, 785)]",[],[1],[0.6833333333333333],vertical,"(390.0, 262.0)",0.8,0.636,1,5490.55,2,0.02,other
0,838,catch,"[(1137, 783)]",[],[1],[],horizontal,"(390.0, 762.0)",1.7,nan,1,5495.868,2,0.02,same
0,839,invalid_same_bar,"[(1156, 781)]",[],[1],[0.6666666666666666],vertical,"(890.0, 762.0)",0.6,0.626,1,5501.863,2,0.02,same
0,840,valid,"[(1160, 782)]",[],[1],[0.6166666666666667],vertical,"(390.0, 762.0)",1.3833333333333333,0.573,1,5506.885,3,0.02,same
0,841,valid,"[(1130, 787)]",[],[1],[0.7],horizontal,"(390.0, 262.0)",0.9333333333333333,0.652,1,5512.966,3,0.02,same
0,842,catch,"[(1148, 775)]",[],[1],[],horizontal,"(890.0, 762.0)",1.7,nan,1,5518.7,3,0.02,same
0,843,valid,"[(1178, 781)]",[],[1],[0.5166666666666666],vertical,"(390.0, 262.0)",0.9166666666666666,0.473,1,5524.719,3,0.02,same
0,844,valid,"[(1159, 779)]",[],[1],[0.7333333333333333],horizontal,"(390.0, 762.0)",0.9666666666666667,0.699,1,5530.63,3,0.02,same
0,845,valid,"[(1156, 770)]",[],[1],[0.85],vertical,"(390.0, 762.0)",0.75,nan,0,5536.669,0,0.02,same
0,846,valid,"[(1144, 787)]",[],[1],[0.7166666666666667],horizontal,"(890.0, 262.0)",0.9833333333333333,0.676,1,5541.267,1,0.02,same
0,847,invalid_adjacent_other_bar,"[(1163, 795)]",[],[1],[0.5666666666666667],horizontal,"(390.0, 262.0)",0.95,0.52,1,5546.769,1,0.02,other
0,848,valid,"[(1137, 787)]",[],[1],[0.5666666666666667],vertical,"(390.0, 762.0)",0.6333333333333333,0.529,1,5551.798,1,0.02,same
0,849,valid,"[(1155, 798)]",[],[1],[0.5333333333333333],horizontal,"(390.0, 762.0)",0.75,0.493,1,5556.495,2,0.02,same
0,850,catch,"[(1158, 779)]",[],[1],[],vertical,"(390.0, 762.0)",1.7,nan,1,5561.534,2,0.02,same
0,851,valid,"[(1155, 781)]",[],[1],[0.6333333333333333],vertical,"(890.0, 262.0)",1.4833333333333334,0.592,1,5566.769,2,0.02,same
0,852,valid,"[(1155, 797)]",[],[1],[0.7166666666666667],vertical,"(390.0, 262.0)",0.5166666666666666,0.675,1,5572.967,3,0.02,same
0,853,valid,"[(1173, 782)]",[],[1],[0.5333333333333333],horizontal,"(390.0, 762.0)",0.9333333333333333,0.492,1,5578.192,3,0.02,same
0,854,catch,"[(1155, 774)]",[],[1],[],vertical,"(390.0, 262.0)",1.7,nan,1,5584.102,3,0.02,same
0,855,valid,"[(1153, 792)]",[],[1],[0.6],horizontal,"(890.0, 762.0)",1.4166666666666667,0.563,1,5590.134,3,0.02,same
0,856,valid,"[(1136, 776)]",[],[1],[0.5666666666666667],horizontal,"(890.0, 762.0)",1.25,0.53,1,5596.952,3,0.02,same
