block,trial,trial_type,taps_start_loc_during_fix,taps_end_loc_during_fix,taps_on_lever_during_fix,taps_on_lever_s_during_fix,bar_orientation,target_xy,cti,rt,acc,time,pulses,fa_rate_recent100,actual_invalid_type
0,1,valid,"[(1151, 785)]",[],[1],[0.36666666666666664],horizontal,"(890.0, 762.0)",0.95,0.327,1,0.472,1,0.0,same
0,2,valid,"[(1085, 841)]",[],[1],[0.5],vertical,"(890.0, 262.0)",0.9666666666666667,0.454,1,9.309,1,0.0,same
0,3,valid,"[(1027, 949), (1087, 851)]",[],"[0, 1]",[0.85],horizontal,"(890.0, 762.0)",1.1166666666666667,nan,0,47.774,0,0.0,same
0,4,catch,"[(1132, 803)]",[],[1],[],horizontal,"(890.0, 262.0)",1.7,nan,1,54.776,1,0.0,same
0,5,valid,"[(1161, 792)]",[],[1],[0.6],vertical,"(390.0, 262.0)",1.2666666666666666,0.558,1,61.075,1,0.0,same
0,6,valid,"[(1172, 795)]",[],[1],[0.85],vertical,"(890.0, 762.0)",0.6833333333333333,nan,0,66.108,0,0.0,same
0,7,valid,"[(1093, 916)]",[],[1],[0.7166666666666667],horizontal,"(890.0, 762.0)",0.4166666666666667,0.671,1,70.728,1,0.0,same
0,8,invalid_adjacent_other_bar,"[(1161, 795)]",[],[1],[0.85],horizontal,"(890.0, 262.0)",0.65,nan,0,77.108,0,0.0,other
0,9,valid,"[(1129, 776)]",[],[1],[0.65],horizontal,"(390.0, 762.0)",0.3833333333333333,0.609,1,81.647,1,0.0,same
0,10,catch,"[(1177, 796)]",[],[1],[],vertical,"(390.0, 262.0)",1.7,nan,1,86.262,1,0.0,same
0,11,catch,"[(1155, 789)]",[],[1],[],vertical,"(890.0, 762.0)",1.7,nan,1,91.542,1,0.0,same
0,12,valid,"[(1177, 787)]",[],[1],[0.7333333333333333],vertical,"(890.0, 762.0)",1.5166666666666666,0.693,1,97.022,2,0.0,same
0,13,valid,"[(1157, 781)]",[],[1],[0.65],horizontal,"(890.0, 262.0)",1.1166666666666667,0.607,1,103.662,2,0.0,same
0,14,valid,"[(1156, 804)]",[],[1],[0.8333333333333334],vertical,"(390.0, 762.0)",1.2166666666666666,0.784,1,109.592,2,0.0,same
0,15,valid,"[(1152, 813)]",[],[1],[0.7],vertical,"(890.0, 762.0)",0.7166666666666667,0.653,1,115.241,3,0.0,same
0,16,catch,"[(1170, 799)]",[],[1],[],vertical,"(890.0, 762.0)",1.7,nan,1,120.758,3,0.0,same
0,17,catch,"[(1169, 782)]",[],[1],[],vertical,"(390.0, 262.0)",1.7,nan,1,127.009,3,0.0,same
0,18,valid,"[(1170, 773)]",[],[1],[0.6666666666666666],horizontal,"(390.0, 762.0)",1.3833333333333333,0.628,1,133.109,3,0.0,same
0,19,invalid_same_bar,"[(1170, 784)]",[],[1],[0.6666666666666666],vertical,"(890.0, 762.0)",1.3,0.616,1,139.345,3,0.0,same
0,20,valid,"[(1174, 796)]",[],[1],[0.85],horizontal,"(890.0, 262.0)",1.3166666666666667,nan,0,145.276,0,0.0,same
0,21,valid,"[(1126, 795)]",[],[1],[0.5],vertical,"(390.0, 262.0)",1.2833333333333332,0.457,1,150.351,1,0.0,same
0,22,valid,"[(1131, 829)]",[],[1],[0.85],horizontal,"(390.0, 262.0)",0.45,nan,0,155.442,0,0.0,same
0,23,valid,"[(1142, 803)]",[],[1],[0.5833333333333334],vertical,"(390.0, 762.0)",0.4166666666666667,0.54,1,160.375,1,0.0,same
0,24,valid,"[(1143, 764)]",[],[1],[0.85],horizontal,"(390.0, 262.0)",0.4,nan,0,165.117,0,0.0,same
0,25,valid,"[(1160, 770)]",[],[1],[0.85],horizontal,"(890.0, 262.0)",0.8,nan,0,169.697,0,0.0,same
0,26,valid,"[(1160, 778)]",[],[1],[0.5666666666666667],horizontal,"(890.0, 762.0)",0.6166666666666667,0.522,1,174.409,1,0.0,same
0,27,valid,"[(1197, 794)]",[],[1],[0.6166666666666667],vertical,"(390.0, 262.0)",1.2666666666666666,0.572,1,178.843,1,0.0,same
0,28,invalid_same_bar,"[(1191, 778)]",[],[1],[0.85],vertical,"(390.0, 762.0)",0.4,nan,0,183.992,0,0.0,same
0,29,valid,"[(1160, 778)]",[],[1],[0.5333333333333333],vertical,"(890.0, 762.0)",1.15,0.49,1,188.126,1,0.0,same
0,30,catch,"[(1192, 760)]",[],[1],[],horizontal,"(390.0, 762.0)",1.7,nan,1,193.602,1,0.0,same
0,31,valid,"[(1175, 776)]",[],[1],[0.65],vertical,"(890.0, 762.0)",1.5333333333333332,0.607,1,199.225,1,0.0,same
0,32,catch,"[(1195, 792)]",[],[1],[],horizontal,"(390.0, 762.0)",1.7,nan,1,204.478,2,0.0,same
0,33,catch,"[(1170, 779)]",[],[1],[],horizontal,"(890.0, 262.0)",1.7,nan,1,210.159,2,0.0,same
0,34,valid,"[(1192, 798)]",[],[1],[0.85],horizontal,"(390.0, 262.0)",0.7,nan,0,215.649,0,0.0,same
0,35,catch,"[(1142, 777)]",[],[1],[],horizontal,"(390.0, 262.0)",1.7,nan,1,220.767,1,0.0,same
0,36,valid,"[(1155, 782)]",[],[1],[0.55],vertical,"(390.0, 762.0)",0.8666666666666667,0.509,1,226.133,1,0.0,same
0,37,invalid_adjacent_other_bar,"[(1202, 787)]",[],[1],[0.6666666666666666],horizontal,"(890.0, 262.0)",0.8666666666666667,0.618,1,231.226,1,0.0,other
0,38,valid,"[(1170, 777)]",[],[1],[0.55],vertical,"(890.0, 762.0)",0.6,0.506,1,236.226,2,0.0,same
0,39,catch,"[(1171, 782)]",[],[1],[],horizontal,"(890.0, 762.0)",1.7,nan,1,241.325,2,0.0,same
0,40,valid,"[(1170, 793)]",[],[1],[0.6166666666666667],horizontal,"(390.0, 762.0)",1.4666666666666666,0.573,1,246.925,2,0.0,same
0,41,valid,"[(1200, 784)]",[],[1],[0.5333333333333333],vertical,"(890.0, 262.0)",0.5666666666666667,0.492,1,253.104,3,0.0,same
0,42,valid,"[(1170, 780)]",[],[1],[0.5666666666666667],vertical,"(390.0, 262.0)",1.5166666666666666,0.528,1,258.773,3,0.0,same
0,43,catch,"[(1171, 773)]",[],[1],[],vertical,"(890.0, 762.0)",1.7,nan,1,264.893,3,0.0,same
0,44,valid,"[(1136, 816)]",[],[1],[0.85],horizontal,"(390.0, 262.0)",1.4,nan,0,270.975,0,0.0,same
0,45,invalid_same_bar,"[(1150, 769)]",[],[1],[0.6666666666666666],vertical,"(390.0, 262.0)",0.45,0.623,1,276.476,1,0.0,same
0,46,catch,"[(1170, 773)]",[],[1],[],horizontal,"(390.0, 762.0)",1.7,nan,1,281.498,1,0.0,same
0,47,valid,"[(1170, 780)]",[],[1],[0.55],horizontal,"(890.0, 262.0)",0.7666666666666666,0.507,1,286.542,1,0.0,same
0,48,valid,"[(1169, 799)]",[],[1],[0.85],horizontal,"(890.0, 262.0)",0.5166666666666666,nan,0,291.292,0,0.0,same
0,49,valid,"[(1146, 786)]",[],[1],[0.55],vertical,"(890.0, 762.0)",0.4,0.509,1,295.892,1,0.0,same
0,50,valid,"[(1163, 781)]",[],[1],[0.5333333333333333],horizontal,"(390.0, 762.0)",1.25,0.499,1,300.793,1,0.0,same
0,51,valid,"[(1203, 781)]",[],[1],[0.4666666666666667],horizontal,"(390.0, 262.0)",1.0666666666666667,0.427,1,306.409,1,0.0,same
0,52,valid,"[(1175, 765)]",[],[1],[0.55],vertical,"(390.0, 262.0)",1.3833333333333333,0.508,1,311.749,2,0.0,same
0,53,catch,"[(1131, 803)]",[],[1],[],horizontal,"(390.0, 262.0)",1.7,nan,1,317.726,2,0.0,same
0,54,valid,"[(1192, 790)]",[],[1],[0.5],horizontal,"(390.0, 262.0)",0.35,0.457,1,323.687,2,0.0,same
0,55,invalid_same_bar,"[(1204, 778)]",[],[1],[0.5333333333333333],vertical,"(890.0, 762.0)",0.8166666666666667,0.489,1,328.359,3,0.0,same
0,56,valid,"[(1160, 766)]",[],[1],[0.5666666666666667],vertical,"(890.0, 262.0)",0.7,0.523,1,334.019,3,0.0,same
0,57,catch,"[(1172, 773)]",[],[1],[],horizontal,"(890.0, 262.0)",1.7,nan,1,339.776,3,0.0,same
0,58,catch,"[(1174, 779)]",[],[1],[],vertical,"(390.0, 262.0)",1.7,nan,1,345.628,3,0.0,same
0,59,valid,"[(1202, 784)]",[],[1],[0.55],vertical,"(890.0, 262.0)",0.6833333333333333,0.506,1,351.461,3,0.0,same
0,60,catch,"[(1170, 783)]",[],[1],[],horizontal,"(390.0, 762.0)",1.7,nan,1,357.009,3,0.0,same
0,61,catch,"[(1175, 787)]",[],[1],[],vertical,"(890.0, 762.0)",1.7,nan,1,363.542,3,0.0,same
0,62,valid,"[(1176, 792)]",[],[1],[0.5333333333333333],horizontal,"(890.0, 762.0)",0.7,0.492,1,369.493,3,0.0,same
0,63,valid,"[(1180, 770)]",[],[1],[0.5166666666666666],horizontal,"(890.0, 762.0)",0.3833333333333333,0.477,1,375.082,3,0.0,same
0,64,valid,"[(1170, 779)]",[],[1],[0.85],vertical,"(890.0, 762.0)",0.55,nan,0,379.773,0,0.0,same
0,65,valid,"[(1150, 807)]",[],[1],[0.6166666666666667],horizontal,"(890.0, 762.0)",1.1166666666666667,0.578,1,383.854,1,0.0,same
0,66,valid,"[(1195, 787)]",[],[1],[0.5833333333333334],horizontal,"(390.0, 762.0)",0.95,0.54,1,389.201,1,0.0,same
0,67,valid,"[(1188, 768)]",[],[1],[0.6833333333333333],horizontal,"(890.0, 262.0)",0.6666666666666666,0.644,1,394.317,1,0.0,same
0,68,valid,"[(1146, 807)]",[],[1],[0.65],horizontal,"(890.0, 762.0)",0.5666666666666667,0.604,1,399.348,2,0.0,same
0,69,valid,"[(1181, 778)]",[],[1],[0.55],vertical,"(890.0, 762.0)",0.45,0.504,1,405.287,2,0.0,same
0,70,valid,"[(1191, 807)]",[],[1],[0.35],vertical,"(390.0, 262.0)",1.4833333333333334,0.315,1,410.509,2,0.0,same
0,71,valid,"[(1181, 793)]",[],[1],[0.5166666666666666],horizontal,"(890.0, 262.0)",0.5,0.475,1,416.459,3,0.0,same
0,72,catch,"[(1163, 792)]",[],[1],[],vertical,"(890.0, 262.0)",1.7,nan,1,422.043,3,0.0,same
0,73,valid,"[(1192, 789)]",[],[1],[0.65],vertical,"(890.0, 762.0)",0.8333333333333334,0.604,1,428.342,3,0.0,same
0,74,valid,"[(1195, 794)]",[],[1],[0.48333333333333334],horizontal,"(890.0, 762.0)",0.35,0.438,1,434.276,3,0.0,same
0,75,valid,"[(1196, 773)]",[],[1],[0.65],horizontal,"(890.0, 262.0)",1.2166666666666666,0.608,1,439.463,3,0.0,same
0,76,valid,"[(1172, 776)]",[],[1],[0.5833333333333334],horizontal,"(390.0, 762.0)",1.2333333333333334,0.54,1,445.343,3,0.0,same
0,77,valid,"[(1175, 785)]",[],[1],[0.6333333333333333],horizontal,"(890.0, 762.0)",1.5333333333333332,0.591,1,451.051,3,0.0,same
0,78,invalid_same_bar,"[(1172, 773)]",[],[1],[0.6],vertical,"(390.0, 762.0)",0.8666666666666667,0.555,1,457.808,3,0.0,same
0,79,valid,"[(1171, 776)]",[],[1],[0.5666666666666667],horizontal,"(390.0, 762.0)",1.4666666666666666,0.523,1,463.475,3,0.0,same
0,80,valid,"[(1170, 768)]",[],[1],[0.6],horizontal,"(390.0, 762.0)",1.0833333333333333,0.56,1,469.642,3,0.0,same
0,81,catch,"[(1172, 773)]",[],[1],[],vertical,"(390.0, 762.0)",1.7,nan,1,475.609,3,0.0,same
0,82,catch,"[(1172, 779)]",[],[1],[],horizontal,"(890.0, 762.0)",1.7,nan,1,481.459,3,0.0,same
0,83,valid,"[(1199, 782)]",[],[1],[0.5666666666666667],horizontal,"(390.0, 762.0)",1.1833333333333333,0.526,1,487.476,3,0.0,same
0,84,catch,"[(1170, 778)]",[],[1],[],horizontal,"(890.0, 762.0)",1.7,nan,1,493.626,3,0.0,same
0,85,valid,"[(1172, 802)]",[],[1],[0.6],horizontal,"(390.0, 262.0)",1.4166666666666667,0.557,1,499.659,3,0.0,same
0,86,valid,"[(1189, 797)]",[],[1],[0.55],horizontal,"(390.0, 262.0)",1.3,0.507,1,505.776,3,0.0,same
0,87,valid,"[(1185, 782)]",[],[1],[0.5833333333333334],horizontal,"(890.0, 262.0)",0.9666666666666667,0.542,1,511.977,3,0.0,same
0,88,valid,"[(1174, 783)]",[],[1],[0.85],vertical,"(390.0, 262.0)",0.8333333333333334,nan,0,517.83,0,0.0,same
0,89,valid,"[(1167, 812)]",[],[1],[0.6333333333333333],horizontal,"(390.0, 262.0)",1.0666666666666667,0.589,1,522.577,1,0.0,same
0,90,valid,"[(1170, 776)]",[],[1],[0.55],horizontal,"(390.0, 262.0)",1.4833333333333334,0.502,1,527.943,1,0.0,same
0,91,valid,"[(1170, 779)]",[],[1],[0.6],vertical,"(890.0, 262.0)",1.45,0.556,1,533.509,1,0.0,same
0,92,catch,"[(1190, 764)]",[],[1],[],vertical,"(890.0, 262.0)",1.7,nan,1,539.016,2,0.0,same
0,93,valid,"[(1171, 778)]",[],[1],[0.5166666666666666],horizontal,"(390.0, 762.0)",1.3666666666666667,0.474,1,544.825,2,0.0,same
0,94,valid,"[(1192, 788)]",[],[1],[0.5],vertical,"(390.0, 262.0)",0.5333333333333333,0.457,1,551.127,2,0.0,same
0,95,catch,"[(1169, 792)]",[],[1],[],horizontal,"(390.0, 762.0)",1.7,nan,1,556.493,3,0.0,same
0,96,catch,"[(1182, 784)]",[],[1],[],vertical,"(890.0, 762.0)",1.7,nan,1,562.981,3,0.0,same
0,97,valid,"[(1175, 783)]",[],[1],[0.6333333333333333],vertical,"(890.0, 262.0)",0.75,0.593,1,568.844,3,0.0,same
0,98,valid,"[(1183, 765)]",[],[1],[0.5833333333333334],horizontal,"(390.0, 762.0)",1.15,0.545,1,574.4,3,0.0,same
0,99,valid,"[(1173, 770)]",[],[1],[0.55],horizontal,"(890.0, 262.0)",1.1833333333333333,0.512,1,580.418,3,0.0,same
0,100,valid,"[(1170, 782)]",[],[1],[0.5666666666666667],vertical,"(390.0, 762.0)",0.7333333333333333,0.522,1,586.27,3,0.0,same
0,101,valid,"[(1181, 782)]",[],[1],[0.6833333333333333],vertical,"(390.0, 762.0)",1.35,0.637,1,591.8,3,0.0,same
0,102,valid,"[(1180, 783)]",[],[1],[0.5833333333333334],vertical,"(390.0, 762.0)",1.3166666666666667,0.542,1,598.26,3,0.0,same
0,103,valid,"[(1182, 777)]",[],[1],[0.55],vertical,"(390.0, 262.0)",0.4166666666666667,0.506,1,604.288,3,0.0,same
0,104,valid,"[(1171, 771)]",[],[1],[0.85],horizontal,"(890.0, 762.0)",1.0,nan,0,609.588,0,0.0,same
0,105,catch,"[(1172, 787)]",[],[1],[],horizontal,"(390.0, 762.0)",1.7,nan,1,614.385,1,0.0,same
0,106,valid,"[(1200, 808)]",[],[1],[0.5333333333333333],vertical,"(890.0, 762.0)",1.3666666666666667,0.492,1,619.494,1,0.0,same
0,107,valid,"[(1198, 769)]",[],[1],[0.5166666666666666],horizontal,"(390.0, 262.0)",0.7166666666666667,0.475,1,624.643,1,0.0,same
0,108,catch,"[(1202, 788)]",[],[1],[],vertical,"(390.0, 762.0)",1.7,nan,1,629.063,2,0.0,same
0,109,catch,"[(1190, 786)]",[],[1],[],horizontal,"(390.0, 762.0)",1.7,nan,1,635.227,2,0.0,same
0,110,valid,"[(1155, 787)]",[],[1],[0.5666666666666667],horizontal,"(390.0, 762.0)",1.25,0.529,1,640.56,2,0.0,same
0,111,catch,"[(1176, 785)]",[],[1],[],horizontal,"(390.0, 762.0)",1.7,nan,1,646.443,3,0.0,same
0,112,invalid_adjacent_other_bar,"[(1184, 771)]",[],[1],[0.7166666666666667],horizontal,"(890.0, 262.0)",1.1666666666666667,0.669,1,652.793,3,0.0,other
0,113,catch,"[(1192, 769)]",[],[1],[],vertical,"(390.0, 262.0)",1.7,nan,1,659.026,3,0.0,same
0,114,valid,"[(1171, 786)]",[],[1],[0.85],vertical,"(390.0, 262.0)",0.95,nan,0,664.81,0,0.0,same
0,115,valid,"[(1170, 787)]",[],[1],[0.65],vertical,"(390.0, 762.0)",1.1833333333333333,0.612,1,669.565,1,0.0,same
0,116,valid,"[(1170, 758)]",[],[1],[0.65],horizontal,"(890.0, 262.0)",0.5833333333333334,0.611,1,674.562,1,0.0,same
0,117,valid,"[(1201, 783)]",[],[1],[0.5666666666666667],horizontal,"(890.0, 762.0)",1.45,0.523,1,679.081,1,0.0,same
0,118,catch,"[(1205, 808)]",[],[1],[],vertical,"(390.0, 762.0)",1.7,nan,1,684.453,2,0.0,same
0,119,valid,"[(1172, 787)]",[],[1],[0.55],vertical,"(890.0, 762.0)",0.48333333333333334,0.511,1,690.242,2,0.0,same
0,120,valid,"[(1179, 792)]",[],[1],[0.5166666666666666],vertical,"(390.0, 262.0)",1.3666666666666667,0.476,1,695.538,2,0.0,same
0,121,valid,"[(1196, 770)]",[],[1],[0.7333333333333333],horizontal,"(890.0, 762.0)",0.35,0.69,1,701.501,3,0.0,same
0,122,valid,"[(1195, 782)]",[],[1],[0.48333333333333334],vertical,"(890.0, 262.0)",1.0,0.447,1,707.293,3,0.0,same
0,123,valid,"[(1170, 789)]",[],[1],[0.55],horizontal,"(390.0, 262.0)",0.35,0.515,1,713.21,3,0.0,same
0,124,valid,"[(1173, 773)]",[],[1],[0.6333333333333333],vertical,"(890.0, 262.0)",1.1833333333333333,0.589,1,718.71,3,0.0,same
0,125,catch,"[(1169, 778)]",[],[1],[],horizontal,"(890.0, 262.0)",1.7,nan,1,724.727,3,0.0,same
0,126,valid,"[(1182, 778)]",[],[1],[0.85],horizontal,"(890.0, 762.0)",1.1333333333333333,nan,0,730.544,0,0.0,same
0,127,valid,"[(1156, 786)]",[],[1],[0.85],vertical,"(890.0, 762.0)",1.05,nan,0,735.31,0,0.0,same
0,128,valid,"[(1167, 795)]",[],[1],[0.5666666666666667],vertical,"(890.0, 262.0)",0.5333333333333333,0.523,1,740.66,1,0.0,same
0,129,valid,"[(1170, 811)]",[],[1],[0.8],vertical,"(890.0, 762.0)",1.0833333333333333,0.755,1,744.943,1,0.0,same
0,130,valid,"[(1201, 778)]",[],[1],[0.85],horizontal,"(390.0, 762.0)",1.0333333333333332,nan,0,750.14,0,0.0,same
0,131,invalid_adjacent_other_bar,"[(1170, 784)]",[],[1],[0.6333333333333333],horizontal,"(890.0, 762.0)",0.43333333333333335,0.596,1,754.593,1,0.0,other
0,132,catch,"[(1200, 771)]",[],[1],[],horizontal,"(390.0, 762.0)",1.7,nan,1,759.05,1,0.0,same
0,133,valid,"[(1185, 767)]",[],[1],[0.5333333333333333],vertical,"(890.0, 262.0)",0.36666666666666664,0.497,1,764.46,1,0.0,same
0,134,valid,"[(1200, 765)]",[],[1],[0.5],vertical,"(890.0, 262.0)",1.3166666666666667,0.457,1,769.045,2,0.0,same
0,135,valid,"[(1202, 778)]",[],[1],[0.5166666666666666],horizontal,"(890.0, 762.0)",0.7666666666666666,0.477,1,775.244,2,0.0,same
0,136,valid,"[(1200, 796)]",[],[1],[0.55],horizontal,"(390.0, 762.0)",1.45,0.517,1,780.261,2,0.0,same
0,137,valid,"[(1197, 776)]",[],[1],[0.5166666666666666],vertical,"(390.0, 262.0)",0.9,0.476,1,786.06,3,0.0,same
0,138,valid,"[(1201, 773)]",[],[1],[0.65],horizontal,"(890.0, 762.0)",0.9666666666666667,0.609,1,791.978,3,0.0,same
0,139,valid,"[(1200, 766)]",[],[1],[0.55],horizontal,"(390.0, 762.0)",0.5833333333333334,0.502,1,797.51,3,0.0,same
0,140,catch,"[(1179, 783)]",[],[1],[],horizontal,"(390.0, 262.0)",1.7,nan,1,802.889,3,0.0,same
0,141,valid,"[(1191, 778)]",[],[1],[0.5833333333333334],vertical,"(890.0, 262.0)",0.6,0.549,1,808.595,3,0.0,same
0,142,valid,"[(1174, 782)]",[],[1],[0.5333333333333333],horizontal,"(890.0, 262.0)",1.4333333333333333,0.497,1,813.81,3,0.0,same
0,143,valid,"[(1165, 778)]",[],[1],[0.5833333333333334],horizontal,"(890.0, 262.0)",1.0333333333333332,0.543,1,820.451,3,0.0,same
0,144,catch,"[(1166, 785)]",[],[1],[],vertical,"(390.0, 262.0)",1.7,nan,1,826.041,3,0.0,same
0,145,valid,"[(1166, 795)]",[],[1],[0.48333333333333334],horizontal,"(390.0, 262.0)",1.5,0.449,1,832.026,3,0.0,same
0,146,invalid_adjacent_other_bar,"[(1188, 768)]",[],[1],[0.5666666666666667],vertical,"(890.0, 262.0)",1.1833333333333333,0.526,1,838.505,3,0.0,other
0,147,catch,"[(1201, 778)]",[],[1],[],horizontal,"(890.0, 262.0)",1.7,nan,1,844.711,3,0.0,same
0,148,catch,"[(1198, 771)]",[],[1],[],horizontal,"(390.0, 762.0)",1.7,nan,1,851.044,3,0.0,same
0,149,valid,"[(1170, 778)]",[],[1],[0.85],horizontal,"(390.0, 262.0)",0.8,nan,0,857.338,0,0.0,same
0,150,catch,"[(1167, 778)]",[],[1],[],vertical,"(390.0, 762.0)",1.7,nan,1,861.823,1,0.0,same
0,151,invalid_same_bar,"[(1177, 761)]",[],[1],[0.5333333333333333],vertical,"(390.0, 262.0)",1.3833333333333333,0.494,1,867.21,1,0.0,same
0,152,valid,"[(1170, 764)]",[],[1],[0.5166666666666666],vertical,"(890.0, 762.0)",1.5,0.476,1,872.844,1,0.0,same
0,153,catch,"[(1200, 781)]",[],[1],[],horizontal,"(890.0, 762.0)",1.7,nan,1,878.534,2,0.0,same
0,154,catch,"[(1172, 807)]",[],[1],[],horizontal,"(390.0, 762.0)",1.7,nan,1,883.934,2,0.0,same
0,155,catch,"[(1200, 798)]",[],[1],[],vertical,"(890.0, 762.0)",1.7,nan,1,889.862,2,0.0,same
0,156,valid,"[(1199, 792)]",[],[1],[0.5333333333333333],horizontal,"(890.0, 262.0)",1.3833333333333333,0.492,1,895.976,3,0.0,same
0,157,valid,"[(1170, 781)]",[],[1],[0.4666666666666667],vertical,"(890.0, 262.0)",1.5,0.434,1,902.261,3,0.0,same
0,158,catch,"[(1185, 791)]",[],[1],[],vertical,"(890.0, 262.0)",1.7,nan,1,908.511,3,0.0,same
0,159,valid,"[(1190, 779)]",[],[1],[0.5833333333333334],horizontal,"(390.0, 262.0)",0.5666666666666667,0.536,1,914.34,3,0.0,same
0,160,valid,"[(1175, 781)]",[],[1],[0.7],horizontal,"(390.0, 762.0)",0.9666666666666667,0.66,1,919.571,3,0.0,same
0,161,valid,"[(1172, 772)]",[],[1],[0.7],horizontal,"(890.0, 762.0)",0.5333333333333333,0.648,1,925.606,3,0.0,same
0,162,catch,"[(1195, 769)]",[],[1],[],vertical,"(890.0, 262.0)",1.7,nan,1,931.264,3,0.0,same
0,163,catch,"[(1179, 792)]",[],[1],[],vertical,"(390.0, 262.0)",1.7,nan,1,937.541,3,0.0,same
0,164,catch,"[(1175, 772)]",[],[1],[],horizontal,"(390.0, 762.0)",1.7,nan,1,943.265,3,0.0,same
0,165,invalid_adjacent_other_bar,"[(1170, 758)]",[],[1],[0.6666666666666666],vertical,"(890.0, 762.0)",0.5333333333333333,0.627,1,949.298,3,0.0,other
0,166,valid,"[(1170, 778)]",[],[1],[0.85],horizontal,"(890.0, 762.0)",1.0,nan,0,954.795,0,0.0,same
0,167,catch,"[(1160, 768)]",[],[1],[],vertical,"(890.0, 262.0)",1.7,nan,1,959.454,1,0.0,same
0,168,valid,"[(1186, 776)]",[],[1],[0.55],horizontal,"(890.0, 262.0)",0.5166666666666666,0.51,1,964.461,1,0.0,same
0,169,invalid_adjacent_other_bar,"[(1186, 791)]",[],[1],[0.5833333333333334],vertical,"(390.0, 762.0)",0.5166666666666666,0.543,1,968.581,1,0.0,other
0,170,valid,"[(1202, 779)]",[],[1],[0.5833333333333334],vertical,"(890.0, 262.0)",1.0,0.542,1,973.228,2,0.0,same
0,171,valid,"[(1201, 782)]",[],[1],[0.5166666666666666],horizontal,"(890.0, 262.0)",0.4166666666666667,0.481,1,978.846,2,0.0,same
0,172,catch,"[(1201, 790)]",[],[1],[],horizontal,"(890.0, 262.0)",1.7,nan,1,983.38,2,0.0,same
0,173,catch,"[(1170, 797)]",[],[1],[],horizontal,"(390.0, 262.0)",1.7,nan,1,988.852,3,0.0,same
0,174,invalid_same_bar,"[(1199, 791)]",[],[1],[0.5833333333333334],horizontal,"(390.0, 262.0)",0.36666666666666664,0.548,1,995.245,3,0.0,same
0,175,valid,"[(1197, 802)]",[],[1],[0.4166666666666667],vertical,"(390.0, 762.0)",1.4666666666666666,0.385,1,1000.128,3,0.0,same
0,176,valid,"[(1182, 792)]",[],[1],[0.5333333333333333],vertical,"(890.0, 262.0)",0.7666666666666666,0.495,1,1006.312,3,0.0,same
0,177,valid,"[(1166, 773)]",[],[1],[0.5],vertical,"(890.0, 262.0)",0.85,0.462,1,1012.05,3,0.0,same
0,178,valid,"[(1199, 775)]",[],[1],[0.48333333333333334],vertical,"(390.0, 262.0)",0.4166666666666667,0.443,1,1017.598,3,0.0,same
0,179,catch,"[(1173, 782)]",[],[1],[],vertical,"(390.0, 262.0)",1.7,nan,1,1022.577,3,0.0,same
0,180,valid,"[(1167, 776)]",[],[1],[0.5333333333333333],vertical,"(390.0, 262.0)",0.8166666666666667,0.49,1,1028.579,3,0.0,same
0,181,catch,"[(1174, 774)]",[],[1],[],vertical,"(390.0, 262.0)",1.7,nan,1,1034.002,3,0.0,same
0,182,invalid_adjacent_other_bar,"[(1186, 775)]",[],[1],[0.6166666666666667],horizontal,"(390.0, 262.0)",0.8666666666666667,0.575,1,1040.313,3,0.0,other
0,183,valid,"[(1192, 778)]",[],[1],[0.5],horizontal,"(390.0, 262.0)",0.9166666666666666,0.461,1,1046.044,3,0.0,same
0,184,valid,"[(1184, 759)]",[],[1],[0.6166666666666667],vertical,"(890.0, 762.0)",0.3833333333333333,0.574,1,1051.594,3,0.0,same
0,185,invalid_adjacent_other_bar,"[(1176, 774)]",[],[1],[0.6166666666666667],horizontal,"(390.0, 762.0)",0.5,0.59,1,1056.517,3,0.0,other
0,186,invalid_same_bar,"[(1182, 794)]",[],[1],[0.5666666666666667],horizontal,"(890.0, 262.0)",1.0,0.529,1,1061.489,3,0.0,same
0,187,catch,"[(1180, 786)]",[],[1],[],horizontal,"(390.0, 262.0)",1.7,nan,1,1067.633,3,0.0,same
0,188,catch,"[(1176, 782)]",[],[1],[],horizontal,"(890.0, 262.0)",,"('cti', 1.655),nan",0,1073.328,0,0.02,same
0,189,invalid_adjacent_other_bar,"[(1155, 801)]",[],[1],[0.5166666666666666],horizontal,"(390.0, 262.0)",0.5166666666666666,0.483,1,1078.546,1,0.02,other
0,190,valid,"[(1201, 785)]",[],[1],[0.5166666666666666],horizontal,"(890.0, 262.0)",1.1833333333333333,0.475,1,1083.14,1,0.02,same
0,191,valid,"[(1189, 790)]",[],[1],[0.5833333333333334],horizontal,"(390.0, 762.0)",0.9833333333333333,0.543,1,1088.533,1,0.02,same
0,192,valid,"[(1193, 769)]",[],[1],[0.6166666666666667],horizontal,"(390.0, 262.0)",0.7833333333333333,0.578,1,1093.795,2,0.02,same
0,193,valid,"[(1188, 787)]",[],[1],[0.5666666666666667],horizontal,"(890.0, 762.0)",1.25,0.525,1,1099.08,2,0.02,same
0,194,invalid_adjacent_other_bar,"[(1170, 802)]",[],[1],[0.6],horizontal,"(390.0, 762.0)",0.6333333333333333,0.56,1,1104.879,2,0.02,other
0,195,valid,"[(1199, 788)]",[],[1],[0.13333333333333333],horizontal,"(890.0, 262.0)",1.4166666666666667,0.101,0,1110.483,0,0.02,same
0,196,valid,"[(1165, 773)]",[],[1],[0.5333333333333333],horizontal,"(390.0, 262.0)",0.5333333333333333,0.507,1,1115.528,1,0.02,same
0,197,invalid_same_bar,"[(1202, 771)]",[],[1],[0.6833333333333333],vertical,"(890.0, 762.0)",1.05,0.644,1,1120.078,1,0.02,same
0,198,invalid_adjacent_other_bar,"[(1188, 793)]",[],[1],[0.5333333333333333],horizontal,"(390.0, 262.0)",0.5333333333333333,0.498,1,1124.978,1,0.02,other
0,199,valid,"[(1204, 779)]",[],[1],[0.05],vertical,"(390.0, 762.0)",1.1666666666666667,0.019,0,1129.706,0,0.02,same
0,200,valid,"[(1166, 791)]",[],[1],[0.55],vertical,"(390.0, 762.0)",1.4833333333333334,0.506,1,1134.429,1,0.02,same
0,201,invalid_adjacent_other_bar,"[(1202, 793)]",[],[1],[0.6833333333333333],vertical,"(390.0, 762.0)",1.2333333333333334,0.641,1,1140.099,1,0.02,other
0,202,valid,"[(1166, 795)]",[],[1],[0.6166666666666667],horizontal,"(890.0, 762.0)",0.95,0.572,1,1145.295,1,0.02,same
0,203,catch,"[(1167, 790)]",[],[1],[],horizontal,"(890.0, 762.0)",1.7,"('cti', 1.695),nan",0,1150.279,0,0.04,same
0,204,invalid_same_bar,"[(1160, 797)]",[],[1],[0.45],vertical,"(890.0, 262.0)",1.4833333333333334,0.413,1,1155.294,1,0.04,same
0,205,valid,"[(1204, 797)]",[],[1],[0.5],horizontal,"(390.0, 262.0)",1.0,0.464,1,1160.739,1,0.04,same
0,206,valid,"[(1181, 778)]",[],[1],[0.7],horizontal,"(390.0, 762.0)",0.5666666666666667,0.667,1,1165.278,1,0.04,same
0,207,valid,"[(1199, 768)]",[],[1],[0.85],vertical,"(890.0, 762.0)",1.3,nan,0,1170.055,0,0.04,same
0,208,catch,"[(1165, 793)]",[],[1],[],horizontal,"(390.0, 762.0)",1.7,nan,1,1174.858,1,0.04,same
0,209,valid,"[(1195, 773)]",[],[1],[0.65],vertical,"(390.0, 762.0)",1.2,0.611,1,1180.347,1,0.04,same
0,210,valid,"[(1200, 786)]",[],[1],[0.55],horizontal,"(390.0, 762.0)",1.5333333333333332,0.518,1,1185.477,1,0.04,same
0,211,invalid_same_bar,"[(1169, 791)]",[],[1],[0.5],vertical,"(890.0, 762.0)",0.5666666666666667,0.459,1,1191.435,2,0.04,same
0,212,valid,"[(1200, 787)]",[],[1],[0.5166666666666666],vertical,"(890.0, 262.0)",1.4,0.473,1,1196.679,2,0.04,same
0,213,valid,"[(1199, 789)]",[],[1],[0.5333333333333333],vertical,"(390.0, 262.0)",0.4166666666666667,0.5,1,1202.663,2,0.04,same
0,214,valid,"[(1173, 786)]",[],[1],[0.6333333333333333],vertical,"(890.0, 262.0)",0.75,0.587,1,1208.179,3,0.04,same
0,215,catch,"[(1200, 780)]",[],[1],[],vertical,"(390.0, 262.0)",,"('cti', 1.687),nan",0,1214.229,0,0.06,same
0,216,catch,"[(1134, 790)]",[],[1],[],horizontal,"(390.0, 762.0)",1.7,nan,1,1219.196,1,0.06,same
0,217,valid,"[(1197, 772)]",[],[1],[0.5333333333333333],vertical,"(890.0, 762.0)",1.4333333333333333,0.491,1,1224.729,1,0.06,same
0,218,valid,"[(1179, 787)]",[],[1],[0.48333333333333334],vertical,"(890.0, 262.0)",0.7666666666666666,0.442,1,1229.657,1,0.06,same
0,219,catch,"[(1209, 768)]",[],[1],[],vertical,"(890.0, 262.0)",1.7,nan,1,1234.362,2,0.06,same
0,220,valid,"[(1172, 778)]",[],[1],[0.6666666666666666],horizontal,"(890.0, 762.0)",0.9833333333333333,0.633,1,1239.827,2,0.06,same
0,221,valid,"[(1174, 764)]",[],[1],[0.5666666666666667],horizontal,"(390.0, 262.0)",0.9,0.537,1,1244.971,2,0.06,same
0,222,valid,"[(1192, 786)]",[],[1],[0.5833333333333334],vertical,"(890.0, 262.0)",0.3833333333333333,0.551,1,1250.194,3,0.06,same
0,223,catch,"[(1203, 789)]",[],[1],[],vertical,"(390.0, 262.0)",1.7,nan,1,1255.262,3,0.06,same
0,224,valid,"[(1170, 788)]",[],[1],[0.85],horizontal,"(890.0, 762.0)",0.5833333333333334,nan,0,1261.039,0,0.06,same
0,225,invalid_adjacent_other_bar,"[(1160, 773)]",[],[1],[0.5166666666666666],horizontal,"(890.0, 262.0)",0.4666666666666667,0.477,1,1265.446,1,0.06,other
0,226,valid,"[(1200, 787)]",[],[1],[0.8],horizontal,"(390.0, 262.0)",1.0,0.756,1,1269.783,1,0.06,same
0,227,catch,"[(1198, 769)]",[],[1],[],vertical,"(890.0, 262.0)",1.7,nan,1,1275.295,1,0.06,same
0,228,valid,"[(1188, 782)]",[],[1],[0.5166666666666666],vertical,"(390.0, 762.0)",0.7666666666666666,0.477,1,1280.829,2,0.06,same
0,229,catch,"[(1171, 797)]",[],[1],[],vertical,"(890.0, 762.0)",1.7,nan,1,1285.93,2,0.06,same
0,230,catch,"[(1175, 787)]",[],[1],[],vertical,"(890.0, 262.0)",1.7,nan,1,1291.525,2,0.06,same
0,231,catch,"[(1171, 793)]",[],[1],[],vertical,"(390.0, 762.0)",1.7,nan,1,1297.094,3,0.06,same
0,232,valid,"[(1197, 778)]",[],[1],[0.5166666666666666],horizontal,"(390.0, 262.0)",0.5833333333333334,0.475,1,1303.412,3,0.06,same
0,233,valid,"[(1200, 788)]",[],[1],[0.5166666666666666],horizontal,"(890.0, 262.0)",0.8833333333333333,0.479,1,1308.681,3,0.06,same
0,234,valid,"[(1201, 787)]",[],[1],[0.5333333333333333],vertical,"(390.0, 262.0)",0.5166666666666666,0.491,1,1314.246,3,0.06,same
0,235,invalid_same_bar,"[(1180, 785)]",[],[1],[0.48333333333333334],vertical,"(890.0, 262.0)",0.7666666666666666,0.451,1,1319.723,3,0.06,same
0,236,valid,"[(1190, 768)]",[],[1],[0.85],horizontal,"(890.0, 762.0)",0.4166666666666667,nan,0,1325.129,0,0.06,same
0,237,catch,"[(1155, 786)]",[],[1],[],vertical,"(390.0, 762.0)",1.7,nan,1,1329.24,1,0.06,same
0,238,valid,"[(1179, 773)]",[],[1],[0.5666666666666667],vertical,"(890.0, 262.0)",0.9666666666666667,0.526,1,1334.669,1,0.04,same
0,239,valid,"[(1179, 779)]",[],[1],[0.6166666666666667],vertical,"(390.0, 762.0)",1.1333333333333333,0.577,1,1339.999,1,0.04,same
0,240,catch,"[(1180, 768)]",[],[1],[],vertical,"(390.0, 762.0)",1.7,nan,1,1345.23,2,0.04,same
0,241,invalid_adjacent_other_bar,"[(1175, 770)]",[],[1],[0.7],vertical,"(890.0, 762.0)",0.45,0.656,1,1351.123,2,0.04,other
0,242,valid,"[(1179, 768)]",[],[1],[0.5833333333333334],vertical,"(390.0, 262.0)",1.0333333333333332,0.545,1,1356.25,2,0.04,same
0,243,valid,"[(1205, 792)]",[],[1],[0.85],horizontal,"(390.0, 262.0)",0.7666666666666666,nan,0,1362.263,0,0.04,same
0,244,valid,"[(1156, 766)]",[],[1],[0.6166666666666667],vertical,"(390.0, 262.0)",1.0833333333333333,0.577,1,1366.814,1,0.04,same
0,245,valid,"[(1167, 804)]",[],[1],[0.55],vertical,"(390.0, 762.0)",1.45,0.51,1,1372.434,1,0.04,same
0,246,invalid_same_bar,"[(1170, 794)]",[],[1],[0.5833333333333334],vertical,"(390.0, 762.0)",0.45,0.542,1,1377.579,1,0.04,same
0,247,valid,"[(1201, 778)]",[],[1],[0.6833333333333333],vertical,"(890.0, 762.0)",1.1833333333333333,0.638,1,1382.361,2,0.04,same
0,248,valid,"[(1198, 781)]",[],[1],[0.85],vertical,"(390.0, 762.0)",0.3833333333333333,nan,0,1388.663,0,0.04,same
0,249,catch,"[(1148, 779)]",[],[1],[],vertical,"(890.0, 262.0)",1.7,nan,1,1393.029,1,0.04,same
0,250,valid,"[(1200, 775)]",[],[1],[0.55],vertical,"(890.0, 262.0)",1.3333333333333333,0.516,1,1398.28,1,0.04,same
0,251,valid,"[(1200, 787)]",[],[1],[0.5833333333333334],vertical,"(890.0, 762.0)",1.2833333333333332,0.539,1,1403.396,1,0.04,same
0,252,invalid_same_bar,"[(1179, 778)]",[],[1],[0.65],vertical,"(890.0, 262.0)",1.05,0.607,1,1409.011,2,0.04,same
0,253,valid,"[(1180, 782)]",[],[1],[0.6833333333333333],horizontal,"(890.0, 262.0)",0.6666666666666666,0.651,1,1414.765,2,0.02,same
0,254,catch,"[(1175, 786)]",[],[1],[],horizontal,"(890.0, 762.0)",1.7,nan,1,1420.313,2,0.02,same
0,255,catch,"[(1165, 785)]",[],[1],[],vertical,"(390.0, 262.0)",1.7,nan,1,1425.767,3,0.02,same
0,256,valid,"[(1175, 778)]",[],[1],[0.5166666666666666],horizontal,"(390.0, 762.0)",1.3833333333333333,0.476,1,1431.884,3,0.02,same
0,257,catch,"[(1177, 783)]",[],[1],[],horizontal,"(890.0, 762.0)",1.7,nan,1,1438.329,3,0.02,same
0,258,valid,"[(1202, 782)]",[],[1],[0.5166666666666666],horizontal,"(890.0, 762.0)",1.3833333333333333,0.476,1,1444.352,3,0.02,same
0,259,catch,"[(1170, 785)]",[],[1],[],vertical,"(890.0, 262.0)",1.7,nan,1,1450.412,3,0.02,same
0,260,valid,"[(1170, 782)]",[],[1],[0.5833333333333334],vertical,"(890.0, 762.0)",1.3333333333333333,0.54,1,1456.629,3,0.02,same
0,261,catch,"[(1172, 778)]",[],[1],[],horizontal,"(390.0, 262.0)",1.7,nan,1,1462.963,3,0.02,same
0,262,catch,"[(1186, 770)]",[],[1],[],horizontal,"(890.0, 262.0)",1.7,nan,1,1468.579,3,0.02,same
0,263,valid,"[(1171, 777)]",[],[1],[0.48333333333333334],horizontal,"(890.0, 262.0)",1.5,0.453,1,1474.529,3,0.02,same
0,264,invalid_same_bar,"[(1200, 800)]",[],[1],[0.5666666666666667],horizontal,"(390.0, 762.0)",0.36666666666666664,0.528,1,1480.48,3,0.02,same
0,265,catch,"[(1170, 783)]",[],[1],[],horizontal,"(390.0, 262.0)",1.7,nan,1,1485.492,3,0.0,same
0,266,valid,"[(1188, 801)]",[],[1],[0.5333333333333333],vertical,"(390.0, 762.0)",0.7333333333333333,0.495,1,1491.614,3,0.0,same
0,267,invalid_same_bar,"[(1155, 794)]",[],[1],[0.7333333333333333],vertical,"(890.0, 762.0)",0.3833333333333333,0.69,1,1497.256,3,0.0,same
0,268,catch,"[(1170, 774)]",[],[1],[],vertical,"(890.0, 262.0)",1.7,nan,1,1502.879,3,0.0,same
0,269,valid,"[(1173, 786)]",[],[1],[0.5666666666666667],horizontal,"(390.0, 762.0)",1.2666666666666666,0.53,1,1509.113,3,0.0,same
0,270,valid,"[(1172, 772)]",[],[1],[0.5333333333333333],vertical,"(890.0, 762.0)",0.5833333333333334,0.494,1,1515.413,3,0.0,same
0,271,invalid_adjacent_other_bar,"[(1185, 785)]",[],[1],[0.7333333333333333],vertical,"(890.0, 262.0)",0.3833333333333333,0.687,1,1520.746,3,0.0,other
0,272,valid,"[(1182, 777)]",[],[1],[0.7166666666666667],vertical,"(390.0, 262.0)",0.45,0.668,1,1526.023,3,0.0,same
0,273,valid,"[(1178, 781)]",[],[1],[0.5],vertical,"(890.0, 762.0)",0.8,0.461,1,1531.63,3,0.0,same
0,274,valid,"[(1174, 779)]",[],[1],[0.5],horizontal,"(890.0, 262.0)",1.0333333333333332,0.46,1,1537.242,3,0.0,same
0,275,catch,"[(1176, 784)]",[],[1],[],vertical,"(390.0, 262.0)",1.7,nan,1,1543.039,3,0.0,same
0,276,valid,"[(1175, 778)]",[],[1],[0.6166666666666667],horizontal,"(390.0, 762.0)",0.8,0.576,1,1549.111,3,0.0,same
0,277,valid,"[(1199, 770)]",[],[1],[0.6333333333333333],vertical,"(390.0, 762.0)",0.6166666666666667,0.585,1,1555.077,3,0.0,same
0,278,valid,"[(1200, 781)]",[],[1],[0.5833333333333334],vertical,"(390.0, 762.0)",0.6833333333333333,0.54,1,1560.647,3,0.0,same
0,279,catch,"[(1162, 762)]",[],[1],[],vertical,"(890.0, 762.0)",1.7,nan,1,1565.713,3,0.0,same
0,280,invalid_adjacent_other_bar,"[(1141, 802)]",[],[1],[0.5],vertical,"(890.0, 262.0)",1.2666666666666666,0.453,1,1571.496,3,0.0,other
0,281,valid,"[(1171, 767)]",[],[1],[0.5833333333333334],horizontal,"(390.0, 762.0)",0.75,0.543,1,1577.581,3,0.0,same
0,282,valid,"[(1185, 781)]",[],[1],[0.7],vertical,"(390.0, 262.0)",0.6333333333333333,0.661,1,1583.535,3,0.0,same
0,283,catch,"[(1169, 776)]",[],[1],[],horizontal,"(390.0, 262.0)",,"('cti', 1.234),nan",0,1588.946,0,0.02,same
0,284,catch,"[(1174, 792)]",[],[1],[],horizontal,"(890.0, 262.0)",1.7,nan,1,1593.422,1,0.02,same
0,285,valid,"[(1181, 760)]",[],[1],[0.5],horizontal,"(390.0, 762.0)",1.3666666666666667,0.461,1,1598.628,1,0.02,same
0,286,valid,"[(1203, 777)]",[],[1],[0.5333333333333333],horizontal,"(390.0, 762.0)",1.3,0.493,1,1603.997,1,0.02,same
0,287,catch,"[(1183, 767)]",[],[1],[],horizontal,"(890.0, 762.0)",1.7,nan,1,1609.781,2,0.02,same
0,288,catch,"[(1171, 766)]",[],[1],[],vertical,"(890.0, 762.0)",1.7,nan,1,1615.314,2,0.02,same
0,289,valid,"[(1165, 799)]",[],[1],[0.5833333333333334],horizontal,"(390.0, 762.0)",1.1666666666666667,0.545,1,1620.714,2,0.02,same
0,290,catch,"[(1203, 794)]",[],[1],[],horizontal,"(390.0, 262.0)",1.7,nan,1,1626.631,3,0.02,same
0,291,valid,"[(1200, 774)]",[],[1],[0.25],horizontal,"(890.0, 262.0)",1.5333333333333332,0.216,1,1632.83,3,0.02,same
0,292,valid,"[(1171, 776)]",[],[1],[0.55],horizontal,"(390.0, 762.0)",1.2666666666666666,0.513,1,1638.946,3,0.02,same
0,293,invalid_same_bar,"[(1188, 775)]",[],[1],[0.55],vertical,"(390.0, 762.0)",1.3666666666666667,0.505,1,1645.148,3,0.02,same
0,294,catch,"[(1161, 778)]",[],[1],[],vertical,"(890.0, 762.0)",1.7,nan,1,1650.999,3,0.02,same
0,295,valid,"[(1204, 793)]",[],[1],[0.5833333333333334],vertical,"(890.0, 262.0)",1.1333333333333333,0.543,1,1657.247,3,0.02,same
0,296,valid,"[(1175, 781)]",[],[1],[0.5333333333333333],horizontal,"(890.0, 762.0)",0.7166666666666667,0.497,1,1663.014,3,0.02,same
0,297,valid,"[(1170, 787)]",[],[1],[0.08333333333333333],horizontal,"(890.0, 762.0)",1.5,0.05,0,1668.366,0,0.02,same
0,298,invalid_adjacent_other_bar,"[(1150, 791)]",[],[1],[0.6],horizontal,"(390.0, 262.0)",0.4666666666666667,0.559,1,1672.714,1,0.02,other
0,299,valid,"[(1180, 774)]",[],[1],[0.5],vertical,"(390.0, 762.0)",1.3333333333333333,0.456,1,1677.231,1,0.02,same
0,300,catch,"[(1176, 775)]",[],[1],[],vertical,"(890.0, 262.0)",1.7,nan,1,1682.564,1,0.02,same
0,301,invalid_adjacent_other_bar,"[(1202, 783)]",[],[1],[0.55],horizontal,"(390.0, 262.0)",0.7,0.512,1,1688.164,2,0.02,other
0,302,valid,"[(1197, 781)]",[],[1],[0.6],vertical,"(390.0, 262.0)",0.7666666666666666,0.564,1,1693.812,2,0.02,same
0,303,valid,"[(1180, 787)]",[],[1],[0.5],horizontal,"(890.0, 762.0)",1.55,0.462,1,1699.531,2,0.02,same
0,304,catch,"[(1171, 776)]",[],[1],[],horizontal,"(890.0, 262.0)",1.7,nan,1,1705.598,3,0.02,same
0,305,valid,"[(1171, 778)]",[],[1],[0.48333333333333334],vertical,"(390.0, 762.0)",0.9333333333333333,0.445,1,1712.222,3,0.02,same
0,306,valid,"[(1170, 774)]",[],[1],[0.5],vertical,"(890.0, 762.0)",1.4,0.457,1,1717.47,3,0.02,same
0,307,valid,"[(1170, 826)]",[],[1],[0.55],vertical,"(390.0, 762.0)",0.6333333333333333,0.511,1,1723.565,3,0.02,same
0,308,catch,"[(1172, 773)]",[],[1],[],horizontal,"(390.0, 262.0)",1.7,nan,1,1729.181,3,0.02,same
0,309,valid,"[(1176, 777)]",[],[1],[0.65],horizontal,"(390.0, 762.0)",0.35,0.603,1,1734.821,3,0.02,same
0,310,valid,"[(1166, 782)]",[],[1],[0.5833333333333334],horizontal,"(890.0, 762.0)",0.9166666666666666,0.542,1,1740.319,3,0.02,same
0,311,valid,"[(1195, 763)]",[],[1],[0.7166666666666667],vertical,"(390.0, 762.0)",0.95,0.677,1,1746.081,3,0.02,same
0,312,catch,"[(1176, 778)]",[],[1],[],horizontal,"(390.0, 762.0)",1.7,nan,1,1752.181,3,0.02,same
0,313,catch,"[(1179, 787)]",[],[1],[],vertical,"(890.0, 762.0)",1.7,nan,1,1757.982,3,0.02,same
0,314,invalid_adjacent_other_bar,"[(1198, 777)]",[],[1],[0.5833333333333334],vertical,"(390.0, 262.0)",0.65,0.542,1,1764.031,3,0.02,other
0,315,catch,"[(1200, 780)]",[],[1],[],horizontal,"(890.0, 262.0)",1.7,nan,1,1769.781,3,0.02,same
0,316,valid,"[(1200, 767)]",[],[1],[0.5333333333333333],horizontal,"(890.0, 762.0)",1.3666666666666667,0.503,1,1775.695,3,0.02,same
0,317,catch,"[(1207, 766)]",[],[1],[],horizontal,"(390.0, 762.0)",1.7,nan,1,1781.745,3,0.02,same
0,318,catch,"[(1170, 778)]",[],[1],[],horizontal,"(390.0, 762.0)",1.7,nan,1,1787.512,3,0.02,same
0,319,catch,"[(1179, 778)]",[],[1],[],vertical,"(890.0, 262.0)",1.7,nan,1,1793.083,3,0.02,same
0,320,valid,"[(1152, 797)]",[],[1],[0.5833333333333334],horizontal,"(390.0, 262.0)",0.9833333333333333,0.549,1,1798.919,3,0.02,same
0,321,valid,"[(1167, 787)]",[],[1],[0.55],horizontal,"(390.0, 762.0)",0.8166666666666667,0.512,1,1804.96,3,0.02,same
0,322,valid,"[(1170, 786)]",[],[1],[0.5],horizontal,"(390.0, 262.0)",0.6666666666666666,0.461,1,1810.815,3,0.02,same
0,323,catch,"[(1178, 773)]",[],[1],[],vertical,"(890.0, 262.0)",1.7,nan,1,1816.297,3,0.02,same
0,324,valid,"[(1200, 780)]",[],[1],[0.6833333333333333],horizontal,"(390.0, 262.0)",1.0333333333333332,0.642,1,1822.072,3,0.02,same
0,325,valid,"[(1177, 782)]",[],[1],[0.6166666666666667],vertical,"(890.0, 762.0)",1.4833333333333334,0.573,1,1828.184,3,0.02,same
0,326,valid,"[(1183, 779)]",[],[1],[0.5833333333333334],horizontal,"(890.0, 762.0)",0.5833333333333334,0.54,1,1834.438,3,0.02,same
0,327,invalid_same_bar,"[(1173, 792)]",[],[1],[0.75],vertical,"(390.0, 262.0)",0.4,0.711,1,1839.995,3,0.02,same
0,328,catch,"[(1170, 793)]",[],[1],[],vertical,"(890.0, 762.0)",1.7,nan,1,1845.397,3,0.02,same
0,329,valid,"[(1202, 786)]",[],[1],[0.5333333333333333],horizontal,"(890.0, 762.0)",0.7333333333333333,0.497,1,1851.529,3,0.02,same
0,330,valid,"[(1176, 784)]",[],[1],[0.6833333333333333],vertical,"(390.0, 762.0)",0.48333333333333334,0.638,1,1857.13,3,0.02,same
0,331,catch,"[(1184, 772)]",[],[1],[],horizontal,"(390.0, 762.0)",1.7,nan,1,1862.265,3,0.02,same
0,332,invalid_adjacent_other_bar,"[(1179, 774)]",[],[1],[0.5333333333333333],vertical,"(890.0, 762.0)",1.45,0.492,1,1867.864,3,0.02,other
0,333,catch,"[(1175, 769)]",[],[1],[],vertical,"(390.0, 262.0)",1.7,nan,1,1874.081,3,0.0,same
0,334,valid,"[(1184, 792)]",[],[1],[0.6333333333333333],vertical,"(890.0, 762.0)",0.48333333333333334,0.585,1,1879.648,3,0.0,same
0,335,valid,"[(1179, 773)]",[],[1],[0.6166666666666667],vertical,"(390.0, 762.0)",1.3666666666666667,0.577,1,1885.298,3,0.0,same
0,336,valid,"[(1172, 783)]",[],[1],[0.85],horizontal,"(390.0, 262.0)",0.8833333333333333,nan,0,1891.856,0,0.0,same
0,337,valid,"[(1137, 787)]",[],[1],[0.5833333333333334],horizontal,"(390.0, 262.0)",0.6,0.546,1,1896.498,1,0.0,same
0,338,valid,"[(1169, 783)]",[],[1],[0.5],vertical,"(390.0, 762.0)",1.45,0.463,1,1901.112,1,0.0,same
0,339,catch,"[(1172, 759)]",[],[1],[],horizontal,"(390.0, 262.0)",1.7,nan,1,1906.682,1,0.0,same
0,340,valid,"[(1190, 775)]",[],[1],[0.5833333333333334],vertical,"(390.0, 262.0)",0.9,0.543,1,1912.064,2,0.0,same
0,341,catch,"[(1186, 778)]",[],[1],[],vertical,"(890.0, 762.0)",1.7,nan,1,1917.732,2,0.0,same
0,342,valid,"[(1205, 773)]",[],[1],[0.6666666666666666],horizontal,"(890.0, 262.0)",1.0,0.623,1,1923.465,2,0.0,same
0,343,valid,"[(1178, 793)]",[],[1],[0.55],horizontal,"(390.0, 762.0)",0.8166666666666667,0.513,1,1928.965,3,0.0,same
0,344,valid,"[(1169, 782)]",[],[1],[0.7833333333333333],vertical,"(890.0, 262.0)",0.9666666666666667,0.737,1,1934.732,3,0.0,same
0,345,catch,"[(1160, 788)]",[],[1],[],horizontal,"(390.0, 762.0)",1.7,nan,1,1940.965,3,0.0,same
0,346,valid,"[(1200, 778)]",[],[1],[0.55],horizontal,"(890.0, 262.0)",0.48333333333333334,0.508,1,1947.598,3,0.0,same
0,347,valid,"[(1175, 777)]",[],[1],[0.5],vertical,"(390.0, 262.0)",0.95,0.459,1,1952.798,3,0.0,same
0,348,valid,"[(1176, 773)]",[],[1],[0.6333333333333333],vertical,"(890.0, 762.0)",1.3666666666666667,0.589,1,1958.685,3,0.0,same
0,349,invalid_adjacent_other_bar,"[(1186, 780)]",[],[1],[0.55],vertical,"(890.0, 762.0)",1.3333333333333333,0.509,1,1964.611,3,0.0,other
0,350,valid,"[(1160, 789)]",[],[1],[0.6166666666666667],vertical,"(890.0, 262.0)",0.3833333333333333,0.576,1,1971.215,3,0.0,same
0,351,valid,"[(1183, 784)]",[],[1],[0.5166666666666666],horizontal,"(390.0, 262.0)",1.1666666666666667,0.475,1,1976.38,3,0.0,same
0,352,valid,"[(1186, 782)]",[],[1],[0.6333333333333333],horizontal,"(390.0, 262.0)",1.2166666666666666,0.593,1,1982.216,3,0.0,same
0,353,catch,"[(1202, 776)]",[],[1],[],vertical,"(890.0, 762.0)",1.7,nan,1,1988.199,3,0.0,same
0,354,valid,"[(1158, 769)]",[],[1],[0.5833333333333334],vertical,"(390.0, 262.0)",1.1833333333333333,0.538,1,1993.835,3,0.0,same
0,355,valid,"[(1167, 779)]",[],[1],[0.6333333333333333],vertical,"(890.0, 262.0)",0.75,0.585,1,1999.582,3,0.0,same
0,356,valid,"[(1169, 789)]",[],[1],[0.6666666666666666],horizontal,"(390.0, 262.0)",0.9166666666666666,0.628,1,2005.006,3,0.0,same
0,357,valid,"[(1164, 796)]",[],[1],[0.6666666666666666],horizontal,"(890.0, 762.0)",0.4,0.624,1,2011.063,3,0.0,same
0,358,catch,"[(1166, 785)]",[],[1],[],horizontal,"(390.0, 262.0)",1.7,nan,1,2016.732,3,0.0,same
0,359,valid,"[(1169, 790)]",[],[1],[0.5],horizontal,"(390.0, 262.0)",0.5,0.459,1,2022.565,3,0.0,same
0,360,valid,"[(1169, 786)]",[],[1],[0.55],horizontal,"(390.0, 262.0)",0.6833333333333333,0.509,1,2027.949,3,0.0,same
0,361,catch,"[(1169, 768)]",[],[1],[],horizontal,"(390.0, 262.0)",1.7,nan,1,2033.666,3,0.0,same
0,362,valid,"[(1170, 787)]",[],[1],[0.8],horizontal,"(390.0, 762.0)",0.5833333333333334,0.753,1,2039.422,3,0.0,same
0,363,valid,"[(1167, 800)]",[],[1],[0.65],horizontal,"(890.0, 762.0)",1.0833333333333333,0.603,1,2045.252,3,0.0,same
0,364,valid,"[(1170, 779)]",[],[1],[0.4666666666666667],horizontal,"(890.0, 262.0)",0.7833333333333333,0.426,1,2051.532,3,0.0,same
0,365,valid,"[(1204, 791)]",[],[1],[0.6833333333333333],vertical,"(390.0, 262.0)",1.2166666666666666,0.64,1,2057.105,3,0.0,same
0,366,catch,"[(1174, 771)]",[],[1],[],horizontal,"(390.0, 262.0)",,"('cti', 1.574),nan",0,2063.004,0,0.02,same
0,367,valid,"[(1136, 781)]",[],[1],[0.6333333333333333],horizontal,"(890.0, 262.0)",0.4,0.588,1,2067.71,1,0.02,same
0,368,catch,"[(1184, 779)]",[],[1],[],horizontal,"(390.0, 262.0)",1.7,nan,1,2072.249,1,0.02,same
0,369,catch,"[(1166, 792)]",[],[1],[],vertical,"(390.0, 762.0)",,"('cti', 1.387),nan",0,2077.129,0,0.04,same
0,370,catch,"[(1132, 789)]",[],[1],[],vertical,"(390.0, 262.0)",1.7,nan,1,2082.332,1,0.04,same
0,371,valid,"[(1131, 782)]",[],[1],[0.5666666666666667],horizontal,"(890.0, 762.0)",0.9166666666666666,0.53,1,2091.021,1,0.04,same
0,372,catch,"[(1175, 802)]",[],[1],[],horizontal,"(390.0, 762.0)",1.7,nan,1,2097.616,1,0.04,same
0,373,valid,"[(1179, 760)]",[],[1],[0.55],vertical,"(390.0, 262.0)",0.75,0.504,1,2102.797,2,0.04,same
0,374,valid,"[(1186, 787)]",[],[1],[0.6666666666666666],horizontal,"(390.0, 262.0)",0.4666666666666667,0.619,1,2107.847,2,0.04,same
0,375,valid,"[(1197, 777)]",[],[1],[0.5],vertical,"(890.0, 762.0)",0.45,0.458,1,2113.16,2,0.04,same
0,376,valid,"[(1175, 792)]",[],[1],[0.5166666666666666],vertical,"(390.0, 262.0)",1.3666666666666667,0.476,1,2117.831,3,0.04,same
0,377,valid,"[(1190, 782)]",[],[1],[0.65],vertical,"(890.0, 262.0)",0.9833333333333333,0.613,1,2123.916,3,0.04,same
0,378,valid,"[(1186, 781)]",[],[1],[0.6],vertical,"(890.0, 762.0)",0.5166666666666666,0.555,1,2129.826,3,0.04,same
0,379,invalid_same_bar,"[(1174, 782)]",[],[1],[0.6833333333333333],horizontal,"(890.0, 262.0)",1.0166666666666666,0.64,1,2135.05,3,0.04,same
0,380,valid,"[(1183, 779)]",[],[1],[0.48333333333333334],horizontal,"(390.0, 262.0)",1.3833333333333333,0.44,1,2141.225,3,0.04,same
0,381,valid,"[(1171, 782)]",[],[1],[0.55],horizontal,"(390.0, 762.0)",1.5,0.506,1,2147.222,3,0.04,same
0,382,invalid_same_bar,"[(1170, 776)]",[],[1],[0.5333333333333333],vertical,"(390.0, 762.0)",0.85,0.49,1,2153.128,3,0.04,same
0,383,valid,"[(1201, 787)]",[],[1],[0.7],vertical,"(390.0, 262.0)",0.9666666666666667,0.657,1,2158.465,3,0.04,same
0,384,valid,"[(1199, 768)]",[],[1],[0.7166666666666667],horizontal,"(890.0, 762.0)",0.95,0.673,1,2164.482,3,0.04,same
0,385,valid,"[(1205, 789)]",[],[1],"[0.85, 0.85]",horizontal,"(890.0, 762.0)",1.3333333333333333,"0.8,nan",0,2170.066,0,0.04,same
0,386,catch,"[(1086, 782)]",[],[1],[],horizontal,"(890.0, 262.0)",1.7,nan,1,2175.121,1,0.04,same
0,387,catch,"[(1192, 787)]",[],[1],[],horizontal,"(390.0, 762.0)",1.7,nan,1,2180.406,1,0.04,same
0,388,valid,"[(1175, 782)]",[],[1],[0.5],horizontal,"(890.0, 762.0)",1.0833333333333333,0.466,1,2185.616,1,0.04,same
0,389,valid,"[(1169, 773)]",[],[1],[0.5833333333333334],vertical,"(390.0, 762.0)",0.36666666666666664,0.544,1,2190.715,2,0.04,same
0,390,valid,"[(1166, 782)]",[],[1],[0.5833333333333334],horizontal,"(890.0, 262.0)",0.95,0.539,1,2195.673,2,0.04,same
0,391,catch,"[(1175, 800)]",[],[1],[],vertical,"(390.0, 762.0)",1.7,nan,1,2201.222,2,0.04,same
0,392,valid,"[(1163, 815)]",[],[1],[0.85],horizontal,"(890.0, 262.0)",0.35,nan,0,2206.62,0,0.04,same
0,393,catch,"[(1156, 767)]",[],[1],[],horizontal,"(390.0, 762.0)",1.7,nan,1,2210.815,1,0.04,same
0,394,valid,"[(1164, 792)]",[],[1],[0.5333333333333333],vertical,"(390.0, 262.0)",1.5,0.493,1,2216.098,1,0.04,same
0,395,valid,"[(1190, 779)]",[],[1],[0.5166666666666666],vertical,"(890.0, 262.0)",0.45,0.483,1,2221.15,1,0.04,same
0,396,valid,"[(1155, 797)]",[],[1],[0.6833333333333333],horizontal,"(890.0, 762.0)",0.85,0.634,1,2225.568,2,0.04,same
0,397,valid,"[(1171, 778)]",[],[1],[0.48333333333333334],horizontal,"(390.0, 762.0)",1.45,0.437,1,2232.255,2,0.04,same
0,398,catch,"[(1171, 768)]",[],[1],[],vertical,"(890.0, 762.0)",1.7,nan,1,2238.365,2,0.04,same
0,399,valid,"[(1155, 807)]",[],[1],[0.7],horizontal,"(390.0, 262.0)",0.4166666666666667,0.652,1,2244.648,3,0.04,same
0,400,invalid_adjacent_other_bar,"[(1170, 772)]",[],[1],[0.5666666666666667],vertical,"(390.0, 762.0)",1.25,0.526,1,2258.016,3,0.04,other
0,401,valid,"[(1175, 771)]",[],[1],[0.85],vertical,"(390.0, 762.0)",0.7833333333333333,nan,0,2264.361,0,0.04,same
0,402,valid,"[(1142, 775)]",[],[1],[0.6],vertical,"(890.0, 762.0)",0.35,0.559,1,2268.904,1,0.04,same
0,403,valid,"[(1178, 775)]",[],[1],[0.6],horizontal,"(390.0, 762.0)",0.48333333333333334,0.559,1,2273.828,1,0.04,same
0,404,catch,"[(1172, 798)]",[],[1],[],vertical,"(890.0, 262.0)",1.7,nan,1,2278.648,1,0.04,same
0,405,valid,"[(1202, 799)]",[],[1],[0.6666666666666666],horizontal,"(890.0, 762.0)",0.48333333333333334,0.617,1,2283.881,2,0.04,same
0,406,valid,"[(1172, 779)]",[],[1],[0.5333333333333333],horizontal,"(390.0, 262.0)",0.8833333333333333,0.489,1,2288.847,2,0.04,same
0,407,valid,"[(1171, 807)]",[],[1],[0.5166666666666666],horizontal,"(390.0, 762.0)",1.4,0.472,1,2294.149,2,0.04,same
0,408,catch,"[(1199, 803)]",[],[1],[],vertical,"(890.0, 762.0)",1.7,nan,1,2299.838,3,0.04,same
0,409,catch,"[(1197, 793)]",[],[1],[],horizontal,"(390.0, 262.0)",1.7,nan,1,2306.565,3,0.04,same
0,410,valid,"[(1165, 799)]",[],[1],[0.85],horizontal,"(890.0, 762.0)",0.7,nan,0,2312.516,0,0.04,same
0,411,valid,"[(1141, 819)]",[],[1],[0.6666666666666666],vertical,"(890.0, 762.0)",1.2166666666666666,0.614,1,2317.226,1,0.04,same
0,412,valid,"[(1168, 778)]",[],[1],[0.55],vertical,"(390.0, 262.0)",1.2333333333333334,0.506,1,2322.953,1,0.04,same
0,413,valid,"[(1183, 777)]",[],[1],[0.55],horizontal,"(890.0, 762.0)",0.45,0.505,1,2328.383,1,0.04,same
0,414,valid,"[(1201, 780)]",[],[1],[0.85],horizontal,"(390.0, 762.0)",1.35,nan,0,2333.099,0,0.04,same
0,415,valid,"[(1158, 778)]",[],[1],[0.5166666666666666],horizontal,"(890.0, 262.0)",0.5833333333333334,0.476,1,2338.367,1,0.04,same
0,416,valid,"[(1200, 765)]",[],[1],[0.6],horizontal,"(390.0, 262.0)",0.7,0.559,1,2342.75,1,0.02,same
0,417,valid,"[(1172, 790)]",[],[1],[0.5],horizontal,"(390.0, 762.0)",1.25,0.453,1,2347.466,1,0.02,same
0,418,invalid_adjacent_other_bar,"[(1201, 784)]",[],[1],[0.4],vertical,"(890.0, 262.0)",1.4333333333333333,0.358,1,2352.888,2,0.02,other
0,419,catch,"[(1197, 792)]",[],[1],[],horizontal,"(890.0, 262.0)",,"('cti', 1.581),nan",0,2358.76,0,0.02,same
0,420,valid,"[(1145, 787)]",[],[1],[0.85],horizontal,"(390.0, 762.0)",0.5333333333333333,nan,0,2363.65,0,0.02,same
0,421,invalid_same_bar,"[(1170, 797)]",[],[1],[0.55],vertical,"(390.0, 762.0)",0.4,0.501,1,2367.849,1,0.02,same
0,422,valid,"[(1199, 768)]",[],[1],[0.5333333333333333],vertical,"(390.0, 762.0)",1.3166666666666667,0.491,1,2372.8,1,0.02,same
0,423,valid,"[(1200, 792)]",[],[1],[0.7],horizontal,"(890.0, 762.0)",1.25,0.657,1,2377.797,1,0.02,same
0,424,catch,"[(1175, 803)]",[],[1],[],horizontal,"(890.0, 262.0)",1.7,nan,1,2383.083,2,0.02,same
0,425,valid,"[(1200, 789)]",[],[1],[0.6333333333333333],vertical,"(890.0, 262.0)",1.15,0.594,1,2389.185,2,0.02,same
0,426,valid,"[(1200, 792)]",[],[1],[0.55],vertical,"(890.0, 762.0)",0.36666666666666664,0.506,1,2394.449,2,0.02,same
0,427,catch,"[(1172, 782)]",[],[1],[],vertical,"(890.0, 762.0)",1.7,nan,1,2399.434,3,0.02,same
0,428,valid,"[(1170, 783)]",[],[1],[0.65],horizontal,"(890.0, 262.0)",1.15,0.604,1,2405.45,3,0.02,same
0,429,valid,"[(1172, 787)]",[],[1],[0.5333333333333333],horizontal,"(390.0, 262.0)",0.6833333333333333,0.489,1,2411.416,3,0.02,same
0,430,invalid_same_bar,"[(1200, 783)]",[],[1],[0.85],horizontal,"(890.0, 262.0)",0.4166666666666667,nan,0,2416.726,0,0.02,same
0,431,valid,"[(1165, 790)]",[],[1],[0.5333333333333333],vertical,"(390.0, 262.0)",0.6166666666666667,0.49,1,2420.444,1,0.02,same
0,432,valid,"[(1185, 787)]",[],[1],[0.6166666666666667],horizontal,"(890.0, 262.0)",0.36666666666666664,0.576,1,2425.141,1,0.02,same
0,433,valid,"[(1169, 800)]",[],[1],[0.5],vertical,"(890.0, 262.0)",0.8833333333333333,0.453,1,2429.324,1,0.02,same
0,434,invalid_adjacent_other_bar,"[(1198, 796)]",[],[1],[0.7333333333333333],vertical,"(390.0, 262.0)",1.15,0.695,1,2434.349,2,0.02,other
0,435,catch,"[(1195, 771)]",[],[1],[],horizontal,"(890.0, 762.0)",1.7,nan,1,2440.072,2,0.02,same
0,436,valid,"[(1171, 799)]",[],[1],[0.43333333333333335],vertical,"(890.0, 262.0)",1.5166666666666666,0.39,1,2445.834,2,0.02,same
0,437,valid,"[(1188, 774)]",[],[1],[0.6],vertical,"(390.0, 762.0)",1.1166666666666667,0.553,1,2452.083,3,0.02,same
0,438,valid,"[(1135, 820)]",[],[1],[0.6333333333333333],vertical,"(890.0, 762.0)",0.7,0.587,1,2458.823,3,0.02,same
0,439,catch,"[(1198, 777)]",[],[1],[],horizontal,"(390.0, 262.0)",1.7,nan,1,2464.408,3,0.02,same
0,440,invalid_adjacent_other_bar,"[(1187, 787)]",[],[1],[0.5833333333333334],horizontal,"(390.0, 262.0)",0.9666666666666667,0.536,1,2470.483,3,0.02,other
0,441,valid,"[(1188, 793)]",[],[1],[0.65],vertical,"(890.0, 262.0)",0.55,0.602,1,2476.183,3,0.02,same
0,442,valid,"[(1185, 787)]",[],[1],[0.5666666666666667],vertical,"(890.0, 762.0)",0.5833333333333334,0.523,1,2481.35,3,0.02,same
0,443,valid,"[(1175, 786)]",[],[1],[0.5],horizontal,"(890.0, 262.0)",1.05,0.456,1,2486.916,3,0.02,same
0,444,valid,"[(1195, 778)]",[],[1],[0.65],vertical,"(390.0, 762.0)",0.5333333333333333,0.603,1,2492.533,3,0.02,same
0,445,invalid_same_bar,"[(1175, 778)]",[],[1],[0.7833333333333333],vertical,"(390.0, 262.0)",1.4333333333333333,0.735,1,2497.766,3,0.02,same
0,446,catch,"[(1176, 786)]",[],[1],[],vertical,"(390.0, 762.0)",1.7,nan,1,2504.383,3,0.02,same
0,447,valid,"[(1137, 819)]",[],[1],[0.5],horizontal,"(890.0, 262.0)",1.0333333333333332,0.461,1,2510.518,3,0.02,same
0,448,valid,"[(1186, 791)]",[],[1],[0.48333333333333334],vertical,"(890.0, 262.0)",1.4666666666666666,0.445,1,2546.395,3,0.02,same
0,449,valid,"[(1172, 787)]",[],[1],[0.6666666666666666],vertical,"(390.0, 262.0)",0.36666666666666664,0.624,1,2552.684,3,0.02,same
0,450,valid,"[(1188, 786)]",[],[1],[0.5666666666666667],horizontal,"(890.0, 262.0)",1.3333333333333333,0.525,1,2558.016,3,0.02,same
0,451,catch,"[(1183, 785)]",[],[1],[],vertical,"(390.0, 262.0)",1.7,nan,1,2564.457,3,0.02,same
0,452,valid,"[(1190, 786)]",[],[1],[0.7],horizontal,"(890.0, 762.0)",0.43333333333333335,0.655,1,2570.424,3,0.02,same
0,453,valid,"[(1199, 771)]",[],[1],[0.7166666666666667],vertical,"(890.0, 762.0)",1.1666666666666667,0.667,1,2575.384,3,0.02,same
0,454,valid,"[(1172, 780)]",[],[1],[0.6166666666666667],horizontal,"(890.0, 262.0)",1.0166666666666666,0.572,1,2581.387,3,0.02,same
0,455,invalid_adjacent_other_bar,"[(1188, 792)]",[],[1],[0.35],horizontal,"(390.0, 762.0)",1.45,0.31,1,2587.117,3,0.02,other
0,456,invalid_same_bar,"[(1200, 787)]",[],[1],[0.7],horizontal,"(390.0, 262.0)",1.1,0.653,1,2592.708,3,0.02,same
0,457,valid,"[(1200, 770)]",[],[1],[0.55],vertical,"(390.0, 762.0)",0.7333333333333333,0.506,1,2598.92,3,0.02,same
0,458,valid,"[(1188, 784)]",[],[1],[0.5666666666666667],horizontal,"(890.0, 262.0)",0.75,0.521,1,2604.41,3,0.02,same
0,459,valid,"[(1185, 777)]",[],[1],[0.5666666666666667],horizontal,"(890.0, 262.0)",1.45,0.526,1,2609.716,3,0.02,same
0,460,valid,"[(1176, 776)]",[],[1],[0.5166666666666666],vertical,"(390.0, 762.0)",0.8333333333333334,0.484,1,2615.911,3,0.02,same
0,461,valid,"[(1193, 778)]",[],[1],[0.5666666666666667],vertical,"(890.0, 762.0)",1.5333333333333332,0.53,1,2621.078,3,0.02,same
0,462,invalid_same_bar,"[(1170, 810)]",[],[1],[0.5166666666666666],horizontal,"(890.0, 262.0)",0.8333333333333334,0.475,1,2627.179,3,0.02,same
0,463,valid,"[(1195, 787)]",[],[1],[0.5333333333333333],horizontal,"(390.0, 762.0)",0.55,0.487,1,2633.124,3,0.02,same
0,464,invalid_same_bar,"[(1200, 787)]",[],[1],[0.6166666666666667],vertical,"(890.0, 262.0)",1.0666666666666667,0.573,1,2638.868,3,0.02,same
0,465,valid,"[(1180, 792)]",[],[1],[0.6],vertical,"(890.0, 262.0)",1.3333333333333333,0.554,1,2644.706,3,0.02,same
0,466,valid,"[(1155, 818)]",[],[1],[0.6166666666666667],vertical,"(890.0, 262.0)",1.0666666666666667,0.574,1,2651.117,3,0.02,same
0,467,valid,"[(1170, 829)]",[],[1],[0.6333333333333333],vertical,"(890.0, 262.0)",0.36666666666666664,0.592,1,2658.632,3,0.02,same
0,468,valid,"[(1096, 856)]",[],[1],[0.85],vertical,"(890.0, 762.0)",0.5333333333333333,nan,0,2664.265,0,0.02,same
0,469,valid,"[(1128, 809)]",[],[1],[0.55],vertical,"(890.0, 262.0)",0.5,0.51,1,2673.259,1,0.0,same
0,470,valid,"[(1172, 786)]",[],[1],[0.65],vertical,"(390.0, 762.0)",0.4,0.605,1,2677.466,1,0.0,same
0,471,valid,"[(1131, 796)]",[],[1],[0.5166666666666666],vertical,"(390.0, 762.0)",1.3,0.471,1,2682.294,1,0.0,same
0,472,valid,"[(1161, 792)]",[],[1],[0.48333333333333334],vertical,"(390.0, 762.0)",1.5333333333333332,0.442,1,2701.561,2,0.0,same
0,473,valid,"[(1170, 780)]",[],[1],[0.55],horizontal,"(890.0, 262.0)",1.3166666666666667,0.509,1,2707.884,2,0.0,same
0,474,valid,"[(1190, 771)]",[],[1],[0.55],vertical,"(890.0, 262.0)",1.1833333333333333,0.506,1,2713.418,2,0.0,same
0,475,valid,"[(1201, 777)]",[],[1],[0.7333333333333333],horizontal,"(390.0, 262.0)",0.9,0.688,1,2718.576,3,0.0,same
0,476,catch,"[(1175, 787)]",[],[1],[],vertical,"(890.0, 262.0)",1.7,nan,1,2724.693,3,0.0,same
0,477,valid,"[(1175, 768)]",[],[1],[0.75],horizontal,"(390.0, 762.0)",1.2166666666666666,0.712,1,2730.451,3,0.0,same
0,478,valid,"[(1176, 768)]",[],[1],[0.6],vertical,"(890.0, 262.0)",0.9333333333333333,0.556,1,2736.558,3,0.0,same
0,479,valid,"[(1189, 777)]",[],[1],[0.55],vertical,"(390.0, 762.0)",0.5666666666666667,0.516,1,2742.171,3,0.0,same
0,480,valid,"[(1200, 784)]",[],[1],[0.6666666666666666],horizontal,"(390.0, 762.0)",0.5,0.626,1,2747.333,3,0.0,same
0,481,valid,"[(1171, 773)]",[],[1],[0.11666666666666667],horizontal,"(390.0, 762.0)",1.1333333333333333,0.085,0,2752.524,0,0.0,same
0,482,catch,"[(1152, 790)]",[],[1],[],horizontal,"(390.0, 262.0)",1.7,nan,1,2756.517,1,0.0,same
0,483,catch,"[(1197, 765)]",[],[1],[],horizontal,"(890.0, 262.0)",1.7,nan,1,2761.973,1,0.0,same
0,484,valid,"[(1200, 782)]",[],[1],[0.48333333333333334],horizontal,"(890.0, 762.0)",0.5666666666666667,0.443,1,2767.099,1,0.0,same
0,485,catch,"[(1192, 778)]",[],[1],[],vertical,"(890.0, 762.0)",1.7,nan,1,2771.45,2,0.0,same
0,486,valid,"[(1188, 772)]",[],[1],[0.55],horizontal,"(890.0, 762.0)",1.0166666666666666,0.511,1,2776.65,2,0.0,same
0,487,invalid_same_bar,"[(1176, 772)]",[],[1],[0.85],vertical,"(890.0, 762.0)",1.3666666666666667,nan,0,2781.984,0,0.0,same
0,488,invalid_adjacent_other_bar,"[(1161, 763)]",[],[1],[0.6333333333333333],horizontal,"(890.0, 762.0)",1.1166666666666667,0.593,1,2786.968,1,0.0,other
0,489,valid,"[(1190, 778)]",[],[1],[0.85],horizontal,"(390.0, 762.0)",0.5666666666666667,nan,0,2792.3,0,0.0,same
0,490,catch,"[(1144, 798)]",[],[1],[],vertical,"(390.0, 762.0)",1.7,nan,1,2796.95,1,0.0,same
0,491,invalid_same_bar,"[(1163, 802)]",[],[1],[0.55],vertical,"(890.0, 762.0)",1.4666666666666666,0.505,1,2802.0,1,0.0,same
0,492,invalid_adjacent_other_bar,"[(1213, 783)]",[],[1],[0.85],horizontal,"(890.0, 262.0)",1.0166666666666666,nan,0,2807.184,0,0.0,other
0,493,valid,"[(1159, 802)]",[],[1],[0.3833333333333333],horizontal,"(390.0, 762.0)",1.3833333333333333,0.342,1,2812.267,1,0.0,same
0,494,valid,"[(1195, 773)]",[],[1],[0.5],vertical,"(890.0, 262.0)",0.5333333333333333,0.459,1,2817.162,1,0.0,same
0,495,catch,"[(1175, 786)]",[],[1],[],horizontal,"(390.0, 762.0)",1.7,nan,1,2821.618,1,0.0,same
0,496,valid,"[(1194, 769)]",[],[1],[0.8],vertical,"(390.0, 762.0)",1.3333333333333333,0.747,1,2827.017,2,0.0,same
0,497,valid,"[(1175, 784)]",[],[1],[0.65],horizontal,"(390.0, 262.0)",0.5333333333333333,0.609,1,2832.651,2,0.0,same
0,498,catch,"[(1170, 784)]",[],[1],[],horizontal,"(390.0, 762.0)",1.7,nan,1,2837.867,2,0.0,same
0,499,valid,"[(1157, 769)]",[],[1],[0.5833333333333334],vertical,"(390.0, 762.0)",1.4666666666666666,0.543,1,2843.511,3,0.0,same
0,500,valid,"[(1175, 788)]",[],[1],[0.6166666666666667],horizontal,"(390.0, 262.0)",1.1833333333333333,0.573,1,2849.983,3,0.0,same
0,501,valid,"[(1164, 786)]",[],[1],[0.5],horizontal,"(390.0, 262.0)",1.2833333333333332,0.459,1,2855.951,3,0.0,same
0,502,valid,"[(1179, 770)]",[],[1],[0.5166666666666666],vertical,"(390.0, 762.0)",1.0833333333333333,0.479,1,2861.951,3,0.0,same
0,503,valid,"[(1195, 784)]",[],[1],[0.6],horizontal,"(390.0, 262.0)",1.1166666666666667,0.564,1,2867.439,3,0.0,same
0,504,catch,"[(1167, 781)]",[],[1],[],vertical,"(390.0, 262.0)",1.7,nan,1,2873.351,3,0.0,same
0,505,invalid_adjacent_other_bar,"[(1170, 794)]",[],[1],[0.85],vertical,"(390.0, 262.0)",1.2333333333333334,nan,0,2879.093,0,0.0,other
0,506,invalid_same_bar,"[(1168, 783)]",[],[1],[0.5833333333333334],vertical,"(890.0, 762.0)",1.2833333333333332,0.538,1,2884.318,1,0.0,same
0,507,catch,"[(1194, 783)]",[],[1],[],horizontal,"(390.0, 262.0)",1.7,nan,1,2889.584,1,0.0,same
0,508,valid,"[(1200, 783)]",[],[1],[0.6166666666666667],horizontal,"(890.0, 762.0)",1.5166666666666666,0.571,1,2894.851,1,0.0,same
0,509,catch,"[(1200, 794)]",[],[1],[],horizontal,"(390.0, 262.0)",1.7,nan,1,2900.168,2,0.0,same
0,510,catch,"[(1170, 783)]",[],[1],[],horizontal,"(890.0, 762.0)",1.7,nan,1,2905.718,2,0.0,same
0,511,valid,"[(1169, 768)]",[],[1],[0.7166666666666667],horizontal,"(890.0, 262.0)",0.4666666666666667,0.67,1,2910.932,2,0.0,same
0,512,catch,"[(1195, 775)]",[],[1],[],horizontal,"(390.0, 262.0)",1.7,nan,1,2915.762,3,0.0,same
0,513,valid,"[(1195, 798)]",[],[1],[0.6666666666666666],horizontal,"(390.0, 262.0)",0.4,0.622,1,2921.718,3,0.0,same
0,514,valid,"[(1185, 782)]",[],[1],[0.85],horizontal,"(890.0, 762.0)",1.2,nan,0,2926.952,0,0.0,same
0,515,valid,"[(1157, 779)]",[],[1],[0.6166666666666667],vertical,"(890.0, 762.0)",1.2166666666666666,0.586,1,2931.652,1,0.0,same
0,516,valid,"[(1173, 774)]",[],[1],[0.5833333333333334],horizontal,"(390.0, 262.0)",1.1833333333333333,0.544,1,2936.99,1,0.0,same
0,517,valid,"[(1195, 784)]",[],[1],[0.7166666666666667],horizontal,"(390.0, 262.0)",1.15,0.677,1,2942.502,1,0.0,same
0,518,invalid_same_bar,"[(1198, 797)]",[],[1],[0.7166666666666667],horizontal,"(890.0, 262.0)",0.55,0.673,1,2947.884,2,0.0,same
0,519,valid,"[(1200, 773)]",[],[1],[0.85],vertical,"(890.0, 262.0)",0.6333333333333333,nan,0,2952.964,0,0.0,same
0,520,valid,"[(1164, 777)]",[],[1],[0.6666666666666666],horizontal,"(890.0, 262.0)",0.9,0.62,1,2957.309,1,0.0,same
0,521,catch,"[(1170, 778)]",[],[1],[],vertical,"(390.0, 262.0)",1.7,nan,1,2962.47,1,0.0,same
0,522,invalid_same_bar,"[(1169, 778)]",[],[1],[0.6166666666666667],vertical,"(390.0, 762.0)",0.7833333333333333,0.573,1,2967.463,1,0.0,same
0,523,catch,"[(1195, 797)]",[],[1],[],vertical,"(890.0, 762.0)",1.7,nan,1,2972.002,2,0.0,same
0,524,valid,"[(1172, 779)]",[],[1],[0.5166666666666666],horizontal,"(390.0, 262.0)",0.75,0.471,1,2977.762,2,0.0,same
0,525,valid,"[(1190, 768)]",[],[1],[0.6166666666666667],horizontal,"(890.0, 762.0)",0.7166666666666667,0.574,1,2983.108,2,0.0,same
0,526,valid,"[(1167, 787)]",[],[1],[0.5666666666666667],horizontal,"(890.0, 762.0)",1.4,0.523,1,2987.914,3,0.0,same
0,527,invalid_adjacent_other_bar,"[(1183, 787)]",[],[1],[0.85],horizontal,"(890.0, 762.0)",1.2333333333333334,nan,0,2994.17,0,0.0,other
0,528,valid,"[(1165, 779)]",[],[1],[0.6833333333333333],vertical,"(390.0, 762.0)",0.45,0.639,1,2998.971,1,0.0,same
0,529,valid,"[(1170, 819)]",[],[1],[0.4166666666666667],vertical,"(390.0, 262.0)",1.4333333333333333,0.377,1,3003.817,1,0.0,same
0,530,invalid_same_bar,"[(1170, 795)]",[],[1],[0.6],horizontal,"(890.0, 262.0)",1.1833333333333333,0.556,1,3009.502,1,0.0,same
0,531,valid,"[(1190, 777)]",[],[1],[0.5833333333333334],horizontal,"(390.0, 262.0)",1.15,0.538,1,3014.574,2,0.0,same
0,532,valid,"[(1172, 768)]",[],[1],[0.5333333333333333],horizontal,"(390.0, 762.0)",0.8333333333333334,0.489,1,3019.971,2,0.0,same
0,533,valid,"[(1199, 773)]",[],[1],[0.55],horizontal,"(890.0, 762.0)",1.45,0.509,1,3025.378,2,0.0,same
0,534,valid,"[(1169, 779)]",[],[1],[0.7333333333333333],vertical,"(890.0, 762.0)",1.1,0.688,1,3031.169,3,0.0,same
0,535,valid,"[(1191, 782)]",[],[1],[0.6333333333333333],horizontal,"(890.0, 262.0)",0.8666666666666667,0.593,1,3037.551,3,0.0,same
0,536,valid,"[(1190, 792)]",[],[1],[0.5833333333333334],vertical,"(890.0, 262.0)",0.45,0.545,1,3043.085,3,0.0,same
0,537,catch,"[(1176, 783)]",[],[1],[],vertical,"(390.0, 762.0)",1.7,nan,1,3048.419,3,0.0,same
0,538,valid,"[(1170, 778)]",[],[1],[0.5333333333333333],horizontal,"(390.0, 262.0)",0.9666666666666667,0.493,1,3054.435,3,0.0,same
0,539,valid,"[(1200, 778)]",[],[1],[0.6166666666666667],vertical,"(890.0, 262.0)",1.05,0.579,1,3060.052,3,0.0,same
0,540,valid,"[(1200, 782)]",[],[1],[0.6],horizontal,"(890.0, 262.0)",0.8333333333333334,0.554,1,3065.89,3,0.0,same
0,541,valid,"[(1176, 782)]",[],[1],[0.7],vertical,"(390.0, 262.0)",0.9,0.65,1,3072.194,3,0.0,same
0,542,valid,"[(1192, 792)]",[],[1],[0.5833333333333334],vertical,"(890.0, 262.0)",0.7666666666666666,0.541,1,3077.953,3,0.0,same
0,543,valid,"[(1170, 797)]",[],[1],[0.6666666666666666],vertical,"(890.0, 762.0)",0.5833333333333334,0.624,1,3083.431,3,0.0,same
0,544,catch,"[(1190, 784)]",[],[1],[],horizontal,"(390.0, 262.0)",1.7,nan,1,3089.071,3,0.0,same
0,545,valid,"[(1167, 778)]",[],[1],[0.6333333333333333],horizontal,"(390.0, 262.0)",0.75,0.599,1,3094.785,3,0.0,same
0,546,valid,"[(1196, 778)]",[],[1],[0.55],horizontal,"(390.0, 262.0)",1.5166666666666666,0.506,1,3100.469,3,0.0,same
0,547,valid,"[(1171, 781)]",[],[1],[0.6166666666666667],horizontal,"(890.0, 762.0)",1.1666666666666667,0.574,1,3106.829,3,0.0,same
0,548,catch,"[(1168, 768)]",[],[1],[],vertical,"(390.0, 262.0)",1.7,nan,1,3112.634,3,0.0,same
0,549,catch,"[(1185, 781)]",[],[1],[],horizontal,"(390.0, 262.0)",,"('fix', 0.575),nan",0,3118.903,0,0.02,same
0,550,invalid_same_bar,"[(1170, 780)]",[],[1],[0.6333333333333333],horizontal,"(390.0, 262.0)",0.8166666666666667,0.59,1,3121.047,1,0.02,same
0,551,valid,"[(1197, 768)]",[],[1],[0.6666666666666666],vertical,"(890.0, 762.0)",0.4,0.624,1,3125.926,1,0.02,same
0,552,valid,"[(1200, 773)]",[],[1],[0.85],horizontal,"(890.0, 262.0)",0.9,nan,0,3130.518,0,0.02,same
0,553,invalid_adjacent_other_bar,"[(1170, 782)]",[],[1],[0.6833333333333333],horizontal,"(890.0, 762.0)",0.7666666666666666,0.64,1,3135.518,1,0.02,other
0,554,valid,"[(1215, 785)]",[],[1],[0.85],horizontal,"(890.0, 762.0)",0.65,nan,0,3140.447,0,0.02,same
0,555,valid,"[(1160, 771)]",[],[1],[0.7166666666666667],vertical,"(390.0, 762.0)",1.1833333333333333,0.681,1,3145.206,1,0.02,same
0,556,valid,"[(1166, 777)]",[],[1],[0.6666666666666666],vertical,"(390.0, 762.0)",0.95,0.623,1,3150.219,1,0.02,same
0,557,valid,"[(1191, 771)]",[],[1],[0.85],vertical,"(390.0, 762.0)",0.9666666666666667,nan,0,3155.29,0,0.02,same
0,558,valid,"[(1164, 778)]",[],[1],[0.8333333333333334],vertical,"(390.0, 762.0)",0.7,0.791,1,3160.053,1,0.02,same
0,559,valid,"[(1167, 782)]",[],[1],[0.55],vertical,"(890.0, 762.0)",1.15,0.508,1,3164.969,1,0.02,same
0,560,valid,"[(1172, 780)]",[],[1],[0.45],horizontal,"(390.0, 262.0)",1.1333333333333333,0.412,1,3169.852,1,0.02,same
0,561,valid,"[(1183, 769)]",[],[1],[0.6166666666666667],vertical,"(390.0, 262.0)",0.9666666666666667,0.58,1,3175.153,2,0.02,same
0,562,catch,"[(1188, 768)]",[],[1],[],vertical,"(890.0, 762.0)",1.7,nan,1,3180.525,2,0.02,same
0,563,valid,"[(1195, 773)]",[],[1],[0.5166666666666666],horizontal,"(890.0, 262.0)",0.36666666666666664,0.476,1,3186.244,2,0.02,same
0,564,catch,"[(1185, 789)]",[],[1],[],horizontal,"(890.0, 262.0)",1.7,nan,1,3191.396,3,0.02,same
0,565,valid,"[(1200, 777)]",[],[1],[0.6166666666666667],horizontal,"(390.0, 262.0)",1.1833333333333333,0.581,1,3197.668,3,0.02,same
0,566,valid,"[(1186, 779)]",[],[1],[0.5833333333333334],vertical,"(390.0, 762.0)",0.8333333333333334,0.54,1,3204.035,3,0.02,same
0,567,catch,"[(1161, 770)]",[],[1],[],vertical,"(390.0, 262.0)",1.7,nan,1,3209.62,3,0.02,same
0,568,valid,"[(1189, 789)]",[],[1],[0.5333333333333333],horizontal,"(890.0, 262.0)",1.2666666666666666,0.51,1,3215.468,3,0.02,same
0,569,valid,"[(1185, 773)]",[],[1],[0.6],vertical,"(390.0, 762.0)",1.2166666666666666,0.564,1,3221.388,3,0.02,same
0,570,valid,"[(1200, 784)]",[],[1],[0.5666666666666667],vertical,"(890.0, 762.0)",0.95,0.527,1,3227.836,3,0.02,same
0,571,valid,"[(1202, 783)]",[],[1],[0.85],vertical,"(890.0, 262.0)",0.8666666666666667,nan,0,3233.826,0,0.02,same
0,572,valid,"[(1131, 846)]",[],[1],[0.4],vertical,"(890.0, 262.0)",1.0,0.363,1,3238.17,1,0.02,same
0,573,valid,"[(1172, 803)]",[],[1],[0.5166666666666666],vertical,"(890.0, 762.0)",1.1,0.476,1,3369.96,1,0.02,same
0,574,catch,"[(1160, 837)]",[],[1],[],horizontal,"(890.0, 762.0)",1.7,nan,1,3375.435,1,0.02,same
0,575,valid,"[(1177, 789)]",[],[1],[0.6833333333333333],vertical,"(390.0, 762.0)",1.3166666666666667,0.639,1,3381.053,2,0.02,same
0,576,catch,"[(1172, 786)]",[],[1],[],vertical,"(390.0, 762.0)",1.7,nan,1,3386.655,2,0.02,same
0,577,valid,"[(1170, 788)]",[],[1],[0.5333333333333333],vertical,"(390.0, 762.0)",1.5,0.496,1,3392.469,2,0.02,same
0,578,valid,"[(1188, 787)]",[],[1],[0.5166666666666666],vertical,"(890.0, 262.0)",0.7,0.478,1,3398.257,3,0.02,same
0,579,valid,"[(1189, 783)]",[],[1],[0.7],vertical,"(890.0, 262.0)",1.1,0.651,1,3404.036,3,0.02,same
0,580,valid,"[(1184, 785)]",[],[1],[0.5833333333333334],horizontal,"(890.0, 262.0)",0.6666666666666666,0.546,1,3409.764,3,0.02,same
0,581,valid,"[(1180, 785)]",[],[1],[0.55],vertical,"(390.0, 762.0)",1.0166666666666666,0.504,1,3415.499,3,0.02,same
0,582,valid,"[(1170, 790)]",[],[1],[0.65],vertical,"(890.0, 762.0)",0.4666666666666667,0.606,1,3421.27,3,0.02,same
0,583,valid,"[(1172, 787)]",[],[1],[0.5333333333333333],vertical,"(390.0, 762.0)",0.9166666666666666,0.503,1,3426.859,3,0.02,same
0,584,catch,"[(1171, 787)]",[],[1],[],vertical,"(390.0, 762.0)",1.7,nan,1,3432.137,3,0.02,same
0,585,valid,"[(1200, 791)]",[],[1],[0.3833333333333333],vertical,"(390.0, 262.0)",1.2,0.347,1,3438.403,3,0.02,same
0,586,valid,"[(1175, 794)]",[],[1],[0.4666666666666667],horizontal,"(890.0, 762.0)",1.5333333333333332,0.425,1,3444.787,3,0.02,same
0,587,valid,"[(1205, 800)]",[],[1],[0.55],vertical,"(390.0, 262.0)",1.3333333333333333,0.508,1,3451.362,3,0.02,same
0,588,valid,"[(1201, 785)]",[],[1],[0.5166666666666666],vertical,"(890.0, 262.0)",1.5333333333333332,0.476,1,3457.37,3,0.02,same
0,589,valid,"[(1197, 772)]",[],[1],[0.6166666666666667],vertical,"(390.0, 762.0)",1.35,0.581,1,3463.425,3,0.02,same
0,590,valid,"[(1183, 768)]",[],[1],[0.48333333333333334],vertical,"(890.0, 262.0)",0.4,0.443,1,3469.415,3,0.02,same
0,591,catch,"[(1170, 782)]",[],[1],[],vertical,"(890.0, 762.0)",1.7,nan,1,3474.386,3,0.02,same
0,592,catch,"[(1167, 797)]",[],[1],[],horizontal,"(390.0, 762.0)",1.7,nan,1,3480.354,3,0.02,same
0,593,catch,"[(1190, 782)]",[],[1],[],vertical,"(890.0, 762.0)",1.7,nan,1,3486.14,3,0.02,same
0,594,catch,"[(1206, 794)]",[],[1],[],vertical,"(890.0, 262.0)",1.7,nan,1,3492.254,3,0.02,same
0,595,valid,"[(1208, 795)]",[],[1],[0.3],vertical,"(390.0, 262.0)",1.4833333333333334,0.265,1,3497.819,3,0.02,same
0,596,valid,"[(1179, 782)]",[],[1],[0.5333333333333333],horizontal,"(390.0, 262.0)",0.4166666666666667,0.493,1,3504.07,3,0.02,same
0,597,invalid_adjacent_other_bar,"[(1185, 777)]",[],[1],[0.6333333333333333],horizontal,"(890.0, 262.0)",0.6666666666666666,0.592,1,3508.903,3,0.02,other
0,598,catch,"[(1190, 781)]",[],[1],[],horizontal,"(890.0, 262.0)",1.7,nan,1,3514.62,3,0.02,same
0,599,catch,"[(1175, 773)]",[],[1],[],horizontal,"(390.0, 262.0)",1.7,nan,1,3520.419,3,0.0,same
0,600,valid,"[(1172, 777)]",[],[1],[0.48333333333333334],vertical,"(890.0, 262.0)",1.4833333333333334,0.44,1,3526.439,3,0.0,same
0,601,invalid_adjacent_other_bar,"[(1173, 787)]",[],[1],[0.55],vertical,"(390.0, 762.0)",0.5166666666666666,0.508,1,3532.786,3,0.0,other
0,602,invalid_same_bar,"[(1172, 782)]",[],[1],[0.4666666666666667],vertical,"(390.0, 262.0)",1.5333333333333332,0.424,1,3537.883,3,0.0,same
0,603,valid,"[(1180, 786)]",[],[1],[0.5666666666666667],vertical,"(890.0, 262.0)",0.7333333333333333,0.527,1,3544.285,3,0.0,same
0,604,catch,"[(1181, 776)]",[],[1],[],horizontal,"(890.0, 762.0)",1.7,nan,1,3549.719,3,0.0,same
0,605,valid,"[(1178, 773)]",[],[1],[0.5166666666666666],horizontal,"(390.0, 262.0)",1.1666666666666667,0.479,1,3555.766,3,0.0,same
0,606,catch,"[(1185, 792)]",[],[1],[],vertical,"(390.0, 762.0)",1.7,nan,1,3561.259,3,0.0,same
0,607,valid,"[(1181, 780)]",[],[1],[0.48333333333333334],horizontal,"(890.0, 262.0)",0.7833333333333333,0.443,1,3567.205,3,0.0,same
0,608,catch,"[(1193, 777)]",[],[1],[],horizontal,"(390.0, 262.0)",1.7,nan,1,3572.835,3,0.0,same
0,609,valid,"[(1200, 802)]",[],[1],[0.5333333333333333],horizontal,"(390.0, 262.0)",0.4666666666666667,0.494,1,3578.76,3,0.0,same
0,610,invalid_adjacent_other_bar,"[(1165, 797)]",[],[1],[0.5333333333333333],vertical,"(390.0, 262.0)",0.36666666666666664,0.491,1,3583.671,3,0.0,other
0,611,valid,"[(1202, 792)]",[],[1],[0.05],vertical,"(890.0, 262.0)",1.5333333333333332,0.019,0,3588.538,0,0.0,same
0,612,valid,"[(1170, 784)]",[],[1],[0.5833333333333334],vertical,"(390.0, 762.0)",1.1,0.541,1,3593.403,1,0.0,same
0,613,valid,"[(1200, 768)]",[],[1],[0.55],horizontal,"(390.0, 262.0)",0.45,0.505,1,3598.536,1,0.0,same
0,614,valid,"[(1195, 769)]",[],[1],[0.21666666666666667],vertical,"(390.0, 262.0)",1.55,0.179,0,3603.21,0,0.0,same
0,615,valid,"[(1158, 768)]",[],[1],[0.6],horizontal,"(390.0, 762.0)",1.2833333333333332,0.563,1,3608.054,1,0.0,same
0,616,valid,"[(1203, 768)]",[],[1],[0.85],horizontal,"(390.0, 762.0)",0.6666666666666666,nan,0,3613.303,0,0.0,same
0,617,invalid_adjacent_other_bar,"[(1170, 773)]",[],[1],[0.5],vertical,"(390.0, 262.0)",0.5833333333333334,0.467,1,3617.532,1,0.0,other
0,618,catch,"[(1204, 785)]",[],[1],[],horizontal,"(390.0, 262.0)",1.7,"('cti', 1.704),nan",0,3622.425,0,0.02,same
0,619,catch,"[(1172, 801)]",[],[1],[],horizontal,"(890.0, 762.0)",1.7,nan,1,3627.37,1,0.02,same
0,620,valid,"[(1191, 794)]",[],[1],[0.55],vertical,"(890.0, 762.0)",0.8833333333333333,0.508,1,3632.679,1,0.02,same
0,621,invalid_adjacent_other_bar,"[(1170, 776)]",[],[1],[0.5833333333333334],vertical,"(890.0, 762.0)",0.6166666666666667,0.54,1,3637.419,1,0.02,other
0,622,valid,"[(1181, 794)]",[],[1],[0.85],vertical,"(390.0, 762.0)",1.0,nan,0,3642.204,0,0.02,same
0,623,invalid_adjacent_other_bar,"[(1164, 782)]",[],[1],[0.36666666666666664],horizontal,"(890.0, 762.0)",1.35,0.329,1,3646.805,1,0.02,other
0,624,valid,"[(1180, 765)]",[],[1],[0.6166666666666667],vertical,"(390.0, 762.0)",1.0333333333333332,0.582,1,3651.788,1,0.02,same
0,625,valid,"[(1176, 778)]",[],[1],[0.65],horizontal,"(390.0, 262.0)",1.15,0.613,1,3656.987,1,0.02,same
0,626,valid,"[(1200, 786)]",[],[1],[0.5666666666666667],horizontal,"(890.0, 762.0)",1.3666666666666667,0.525,1,3661.735,2,0.02,same
0,627,valid,"[(1202, 770)]",[],[1],[0.5833333333333334],horizontal,"(390.0, 762.0)",0.5166666666666666,0.541,1,3667.727,2,0.02,same
0,628,valid,"[(1190, 785)]",[],[1],[0.31666666666666665],horizontal,"(890.0, 762.0)",1.4833333333333334,0.279,1,3672.537,2,0.02,same
0,629,valid,"[(1170, 782)]",[],[1],[0.6166666666666667],vertical,"(390.0, 262.0)",0.7166666666666667,0.574,1,3678.349,3,0.02,same
0,630,catch,"[(1186, 783)]",[],[1],[],horizontal,"(890.0, 762.0)",1.7,nan,1,3684.399,3,0.02,same
0,631,valid,"[(1204, 798)]",[],[1],[0.3833333333333333],horizontal,"(890.0, 262.0)",1.2833333333333332,0.344,1,3689.704,3,0.02,same
0,632,valid,"[(1172, 787)]",[],[1],[0.5166666666666666],vertical,"(890.0, 262.0)",1.4666666666666666,0.476,1,3696.004,3,0.02,same
0,633,catch,"[(1165, 789)]",[],[1],[],vertical,"(390.0, 262.0)",1.7,nan,1,3702.322,3,0.02,same
0,634,valid,"[(1192, 792)]",[],[1],[0.5333333333333333],horizontal,"(390.0, 262.0)",1.0,0.488,1,3708.137,3,0.02,same
0,635,valid,"[(1191, 784)]",[],[1],[0.65],vertical,"(890.0, 762.0)",1.1,0.613,1,3713.737,3,0.02,same
0,636,valid,"[(1192, 800)]",[],[1],[0.5333333333333333],horizontal,"(390.0, 262.0)",0.6333333333333333,0.493,1,3719.937,3,0.02,same
0,637,catch,"[(1185, 791)]",[],[1],[],vertical,"(890.0, 762.0)",1.7,nan,1,3725.404,3,0.02,same
0,638,valid,"[(1190, 787)]",[],[1],[0.5333333333333333],horizontal,"(390.0, 262.0)",0.45,0.491,1,3731.664,3,0.02,same
0,639,catch,"[(1170, 776)]",[],[1],[],horizontal,"(890.0, 762.0)",1.7,nan,1,3736.921,3,0.02,same
0,640,valid,"[(1188, 790)]",[],[1],[0.7666666666666666],vertical,"(890.0, 762.0)",1.0333333333333332,0.724,1,3742.588,3,0.02,same
0,641,valid,"[(1170, 787)]",[],[1],[0.5666666666666667],horizontal,"(390.0, 262.0)",0.45,0.52,1,3748.937,3,0.02,same
0,642,invalid_same_bar,"[(1202, 776)]",[],[1],[0.5833333333333334],horizontal,"(890.0, 262.0)",1.1666666666666667,0.555,1,3754.437,3,0.02,same
0,643,valid,"[(1171, 776)]",[],[1],[0.5333333333333333],vertical,"(890.0, 762.0)",0.35,0.501,1,3760.437,3,0.02,same
0,644,catch,"[(1175, 770)]",[],[1],[],horizontal,"(390.0, 762.0)",1.7,nan,1,3765.505,3,0.02,same
0,645,invalid_adjacent_other_bar,"[(1172, 774)]",[],[1],[0.48333333333333334],vertical,"(390.0, 262.0)",1.5166666666666666,0.443,1,3771.494,3,0.02,other
0,646,invalid_adjacent_other_bar,"[(1189, 797)]",[],[1],[0.7833333333333333],horizontal,"(390.0, 262.0)",1.05,0.736,1,3777.517,3,0.02,other
0,647,valid,"[(1182, 781)]",[],[1],[0.7666666666666666],vertical,"(390.0, 762.0)",1.05,0.724,1,3783.739,3,0.02,same
0,648,valid,"[(1195, 791)]",[],[1],[0.5166666666666666],horizontal,"(890.0, 262.0)",1.05,0.478,1,3789.83,3,0.02,same
0,649,valid,"[(1187, 778)]",[],[1],[0.5333333333333333],horizontal,"(890.0, 262.0)",0.55,0.494,1,3795.827,3,0.02,same
0,650,valid,"[(1179, 777)]",[],[1],[0.6833333333333333],vertical,"(390.0, 762.0)",1.2666666666666666,0.64,1,3801.411,3,0.02,same
0,651,valid,"[(1170, 770)]",[],[1],[0.5166666666666666],horizontal,"(890.0, 762.0)",1.15,0.485,1,3807.305,3,0.02,same
0,652,valid,"[(1172, 775)]",[],[1],[0.5166666666666666],vertical,"(390.0, 262.0)",1.0833333333333333,0.472,1,3813.071,3,0.02,same
0,653,invalid_same_bar,"[(1182, 768)]",[],[1],[0.48333333333333334],vertical,"(890.0, 262.0)",0.6833333333333333,0.452,1,3818.685,3,0.02,same
0,654,valid,"[(1193, 778)]",[],[1],[0.6333333333333333],vertical,"(390.0, 262.0)",0.85,0.594,1,3823.637,3,0.02,same
0,655,valid,"[(1180, 786)]",[],[1],[0.5333333333333333],vertical,"(890.0, 262.0)",1.3,0.492,1,3829.586,3,0.02,same
0,656,valid,"[(1171, 792)]",[],[1],[0.65],horizontal,"(890.0, 262.0)",0.7,0.609,1,3835.941,3,0.02,same
0,657,invalid_adjacent_other_bar,"[(1176, 774)]",[],[1],[0.85],horizontal,"(390.0, 762.0)",0.3833333333333333,nan,0,3842.036,0,0.02,other
0,658,valid,"[(1136, 788)]",[],[1],[0.65],horizontal,"(890.0, 762.0)",0.8333333333333334,0.616,1,3845.856,1,0.02,same
0,659,catch,"[(1172, 778)]",[],[1],[],horizontal,"(390.0, 762.0)",,"('cti', 1.607),nan",0,3850.932,0,0.04,same
0,660,valid,"[(1174, 771)]",[],[1],[0.6],horizontal,"(390.0, 762.0)",1.1333333333333333,0.569,1,3855.254,1,0.04,same
0,661,catch,"[(1175, 761)]",[],[1],[],horizontal,"(890.0, 762.0)",1.7,nan,1,3860.555,1,0.04,same
0,662,catch,"[(1175, 776)]",[],[1],[],horizontal,"(890.0, 262.0)",1.7,nan,1,3865.595,1,0.04,same
0,663,invalid_same_bar,"[(1171, 786)]",[],[1],[0.5833333333333334],vertical,"(390.0, 262.0)",0.75,0.543,1,3870.804,2,0.04,same
0,664,valid,"[(1191, 786)]",[],[1],[0.85],vertical,"(390.0, 762.0)",0.35,nan,0,3876.504,0,0.04,same
0,665,valid,"[(1167, 778)]",[],[1],[0.48333333333333334],horizontal,"(390.0, 262.0)",1.4,0.438,1,3880.233,1,0.04,same
0,666,catch,"[(1168, 782)]",[],[1],[],vertical,"(890.0, 762.0)",1.7,nan,1,3886.195,1,0.04,same
0,667,invalid_adjacent_other_bar,"[(1204, 787)]",[],[1],[0.7333333333333333],vertical,"(890.0, 762.0)",1.1666666666666667,0.692,1,3891.062,1,0.04,other
0,668,valid,"[(1198, 796)]",[],[1],[0.55],horizontal,"(390.0, 262.0)",1.1666666666666667,0.507,1,3896.305,2,0.02,same
0,669,valid,"[(1170, 792)]",[],[1],[0.7],vertical,"(890.0, 762.0)",1.05,0.657,1,3901.997,2,0.02,same
0,670,valid,"[(1201, 779)]",[],[1],[0.6833333333333333],horizontal,"(390.0, 262.0)",0.95,0.639,1,3907.808,2,0.02,same
0,671,invalid_adjacent_other_bar,"[(1200, 783)]",[],[1],[0.85],horizontal,"(890.0, 762.0)",0.5666666666666667,nan,0,3913.571,0,0.02,other
0,672,valid,"[(1155, 792)]",[],[1],[0.5166666666666666],vertical,"(890.0, 762.0)",1.4166666666666667,0.48,1,3917.938,1,0.02,same
0,673,valid,"[(1204, 776)]",[],[1],[0.5],horizontal,"(890.0, 262.0)",0.7666666666666666,0.465,1,3923.349,1,0.02,same
0,674,valid,"[(1171, 786)]",[],[1],[0.5333333333333333],vertical,"(390.0, 262.0)",0.6166666666666667,0.497,1,3928.004,1,0.02,same
0,675,valid,"[(1188, 786)]",[],[1],[0.2],horizontal,"(390.0, 262.0)",1.5166666666666666,0.167,0,3932.871,0,0.02,same
0,676,catch,"[(1161, 801)]",[],[1],[],vertical,"(390.0, 762.0)",1.7,nan,1,3937.641,1,0.02,same
0,677,valid,"[(1192, 778)]",[],[1],[0.55],vertical,"(390.0, 762.0)",0.6833333333333333,0.508,1,3943.096,1,0.02,same
0,678,valid,"[(1201, 790)]",[],[1],[0.6333333333333333],vertical,"(390.0, 762.0)",0.8333333333333334,0.6,1,3948.104,1,0.02,same
0,679,catch,"[(1174, 765)]",[],[1],[],horizontal,"(890.0, 262.0)",1.7,nan,1,3953.012,2,0.02,same
0,680,valid,"[(1170, 785)]",[],[1],[0.5333333333333333],vertical,"(890.0, 262.0)",1.1,0.491,1,3958.721,2,0.02,same
0,681,valid,"[(1170, 789)]",[],[1],[0.5333333333333333],vertical,"(890.0, 262.0)",0.6,0.498,1,3964.297,2,0.02,same
0,682,valid,"[(1203, 776)]",[],[1],[0.35],vertical,"(890.0, 262.0)",1.4666666666666666,0.313,1,3969.617,3,0.02,same
0,683,catch,"[(1192, 785)]",[],[1],[],vertical,"(890.0, 762.0)",1.7,nan,1,3976.105,3,0.02,same
0,684,catch,"[(1187, 789)]",[],[1],[],vertical,"(890.0, 762.0)",1.7,nan,1,3981.907,3,0.02,same
0,685,valid,"[(1170, 776)]",[],[1],[0.5166666666666666],vertical,"(890.0, 762.0)",0.4666666666666667,0.479,1,3987.771,3,0.02,same
0,686,valid,"[(1180, 787)]",[],[1],[0.6666666666666666],horizontal,"(390.0, 762.0)",0.8666666666666667,0.63,1,3992.917,3,0.02,same
0,687,valid,"[(1192, 786)]",[],[1],[0.5],horizontal,"(890.0, 762.0)",1.4666666666666666,0.462,1,3998.922,3,0.02,same
0,688,valid,"[(1190, 782)]",[],[1],[0.6333333333333333],horizontal,"(890.0, 762.0)",0.5833333333333334,0.593,1,4004.688,3,0.02,same
0,689,catch,"[(1193, 798)]",[],[1],[],vertical,"(390.0, 262.0)",1.7,nan,1,4009.932,3,0.02,same
0,690,catch,"[(1194, 787)]",[],[1],[],vertical,"(390.0, 262.0)",1.7,nan,1,4016.138,3,0.02,same
0,691,valid,"[(1170, 778)]",[],[1],[0.75],horizontal,"(890.0, 762.0)",0.6333333333333333,0.708,1,4022.066,3,0.02,same
0,692,catch,"[(1180, 770)]",[],[1],[],horizontal,"(890.0, 762.0)",1.7,nan,1,4027.755,3,0.02,same
0,693,catch,"[(1175, 795)]",[],[1],[],horizontal,"(390.0, 762.0)",1.7,nan,1,4033.38,3,0.02,same
0,694,catch,"[(1170, 778)]",[],[1],[],vertical,"(890.0, 762.0)",1.7,nan,1,4039.501,3,0.02,same
0,695,valid,"[(1172, 773)]",[],[1],[0.5666666666666667],vertical,"(890.0, 262.0)",0.9,0.525,1,4045.255,3,0.02,same
0,696,valid,"[(1180, 779)]",[],[1],[0.6666666666666666],horizontal,"(890.0, 262.0)",1.3833333333333333,0.623,1,4050.672,3,0.02,same
0,697,valid,"[(1201, 786)]",[],[1],[0.55],vertical,"(390.0, 262.0)",1.3,0.51,1,4056.999,3,0.02,same
0,698,catch,"[(1200, 782)]",[],[1],[],horizontal,"(390.0, 262.0)",1.7,nan,1,4063.062,3,0.02,same
0,699,valid,"[(1170, 773)]",[],[1],[0.5166666666666666],vertical,"(390.0, 762.0)",0.35,0.476,1,4069.256,3,0.02,same
0,700,valid,"[(1170, 776)]",[],[1],[0.5833333333333334],vertical,"(390.0, 262.0)",1.15,0.544,1,4074.239,3,0.02,same
0,701,invalid_adjacent_other_bar,"[(1185, 791)]",[],[1],[0.55],vertical,"(390.0, 762.0)",1.3333333333333333,0.503,1,4080.404,3,0.02,other
0,702,valid,"[(1204, 767)]",[],[1],[0.85],horizontal,"(390.0, 762.0)",1.0833333333333333,nan,0,4086.721,0,0.02,same
0,703,valid,"[(1158, 775)]",[],[1],[0.7166666666666667],vertical,"(390.0, 762.0)",1.4,0.668,1,4091.257,1,0.02,same
0,704,valid,"[(1170, 776)]",[],[1],[0.5666666666666667],horizontal,"(390.0, 762.0)",0.4166666666666667,0.53,1,4096.813,1,0.02,same
0,705,invalid_adjacent_other_bar,"[(1174, 773)]",[],[1],[0.65],vertical,"(890.0, 262.0)",1.2166666666666666,0.602,1,4101.739,1,0.02,other
0,706,catch,"[(1186, 807)]",[],[1],[],vertical,"(390.0, 262.0)",1.7,nan,1,4107.161,2,0.02,same
0,707,invalid_adjacent_other_bar,"[(1190, 773)]",[],[1],[0.85],vertical,"(390.0, 262.0)",0.43333333333333335,nan,0,4112.606,0,0.02,other
0,708,valid,"[(1171, 779)]",[],[1],[0.6666666666666666],horizontal,"(390.0, 262.0)",1.5166666666666666,0.622,1,4116.773,1,0.02,same
0,709,valid,"[(1200, 790)]",[],[1],[0.5166666666666666],vertical,"(390.0, 762.0)",1.4666666666666666,0.479,1,4122.325,1,0.0,same
0,710,valid,"[(1186, 794)]",[],[1],[0.7],horizontal,"(390.0, 262.0)",0.48333333333333334,0.662,1,4128.122,1,0.0,same
0,711,valid,"[(1172, 794)]",[],[1],[0.55],horizontal,"(390.0, 262.0)",0.9666666666666667,0.51,1,4132.673,2,0.0,same
0,712,valid,"[(1202, 784)]",[],[1],[0.85],horizontal,"(390.0, 262.0)",0.4,nan,0,4138.388,0,0.0,same
0,713,catch,"[(1157, 779)]",[],[1],[],horizontal,"(390.0, 262.0)",1.7,nan,1,4142.588,1,0.0,same
0,714,valid,"[(1199, 766)]",[],[1],[0.5],horizontal,"(390.0, 262.0)",1.4,0.459,1,4147.543,1,0.0,same
0,715,valid,"[(1175, 778)]",[],[1],[0.45],horizontal,"(890.0, 762.0)",1.4666666666666666,0.412,1,4152.905,1,0.0,same
0,716,valid,"[(1195, 802)]",[],[1],[0.5666666666666667],horizontal,"(890.0, 762.0)",1.1833333333333333,0.525,1,4158.349,2,0.0,same
0,717,valid,"[(1198, 799)]",[],[1],[0.6333333333333333],vertical,"(890.0, 262.0)",0.9333333333333333,0.591,1,4164.355,2,0.0,same
0,718,invalid_adjacent_other_bar,"[(1186, 792)]",[],[1],[0.5833333333333334],vertical,"(390.0, 262.0)",0.6333333333333333,0.544,1,4169.789,2,0.0,other
0,719,catch,"[(1175, 800)]",[],[1],[],horizontal,"(890.0, 762.0)",1.7,nan,1,4175.207,3,0.0,same
0,720,valid,"[(1170, 784)]",[],[1],[0.5666666666666667],vertical,"(390.0, 762.0)",1.45,0.529,1,4181.661,3,0.0,same
0,721,catch,"[(1192, 781)]",[],[1],[],vertical,"(890.0, 262.0)",1.7,nan,1,4187.873,3,0.0,same
0,722,invalid_same_bar,"[(1174, 799)]",[],[1],[0.55],horizontal,"(390.0, 262.0)",1.3333333333333333,0.508,1,4193.896,3,0.0,same
0,723,valid,"[(1170, 781)]",[],[1],[0.5166666666666666],horizontal,"(390.0, 262.0)",1.0166666666666666,0.477,1,4199.755,3,0.0,same
0,724,valid,"[(1170, 781)]",[],[1],[0.7],vertical,"(390.0, 762.0)",1.3333333333333333,0.656,1,4205.338,3,0.0,same
0,725,valid,"[(1174, 774)]",[],[1],[0.6],vertical,"(890.0, 262.0)",1.3333333333333333,0.558,1,4211.304,3,0.0,same
0,726,valid,"[(1176, 778)]",[],[1],[0.5333333333333333],vertical,"(390.0, 762.0)",0.9,0.493,1,4217.292,3,0.0,same
0,727,valid,"[(1190, 777)]",[],[1],[0.5666666666666667],vertical,"(890.0, 262.0)",1.25,0.527,1,4223.057,3,0.0,same
0,728,valid,"[(1200, 786)]",[],[1],[0.55],horizontal,"(390.0, 762.0)",0.48333333333333334,0.511,1,4228.939,3,0.0,same
0,729,valid,"[(1175, 781)]",[],[1],[0.85],horizontal,"(890.0, 262.0)",0.55,nan,0,4234.505,0,0.0,same
0,730,valid,"[(1141, 781)]",[],[1],[0.55],vertical,"(890.0, 762.0)",1.4166666666666667,0.509,1,4239.074,1,0.0,same
0,731,valid,"[(1176, 789)]",[],[1],[0.5],horizontal,"(390.0, 762.0)",1.1833333333333333,0.467,1,4244.922,1,0.0,same
0,732,catch,"[(1175, 771)]",[],[1],[],vertical,"(390.0, 762.0)",1.7,nan,1,4250.24,1,0.0,same
0,733,catch,"[(1203, 798)]",[],[1],[],vertical,"(890.0, 762.0)",1.7,nan,1,4255.481,2,0.0,same
0,734,valid,"[(1198, 782)]",[],[1],[0.55],vertical,"(390.0, 262.0)",0.7,0.508,1,4261.422,2,0.0,same
0,735,invalid_adjacent_other_bar,"[(1195, 791)]",[],[1],[0.5833333333333334],vertical,"(390.0, 262.0)",0.75,0.543,1,4266.871,2,0.0,other
0,736,valid,"[(1201, 803)]",[],[1],[0.6833333333333333],vertical,"(390.0, 262.0)",0.65,0.641,1,4272.254,3,0.0,same
0,737,valid,"[(1200, 793)]",[],[1],[0.55],vertical,"(390.0, 262.0)",0.4,0.511,1,4278.306,3,0.0,same
0,738,valid,"[(1191, 770)]",[],[1],[0.55],vertical,"(890.0, 762.0)",1.3333333333333333,0.518,1,4283.174,3,0.0,same
0,739,catch,"[(1179, 799)]",[],[1],[],vertical,"(890.0, 262.0)",1.7,nan,1,4288.972,3,0.0,same
0,740,catch,"[(1168, 782)]",[],[1],[],horizontal,"(890.0, 262.0)",,"('cti', 1.4),nan",0,4294.74,0,0.02,same
0,741,valid,"[(1160, 787)]",[],[1],[0.7666666666666666],vertical,"(890.0, 262.0)",0.85,0.72,1,4299.362,1,0.02,same
0,742,valid,"[(1196, 773)]",[],[1],[0.25],horizontal,"(390.0, 262.0)",1.45,0.216,1,4304.689,1,0.02,same
0,743,catch,"[(1195, 797)]",[],[1],[],vertical,"(390.0, 762.0)",1.7,nan,1,4310.29,1,0.02,same
0,744,valid,"[(1197, 782)]",[],[1],[0.55],vertical,"(390.0, 262.0)",1.0333333333333332,0.513,1,4315.89,2,0.02,same
0,745,valid,"[(1204, 792)]",[],[1],[0.5833333333333334],horizontal,"(390.0, 762.0)",0.6166666666666667,0.538,1,4321.54,2,0.02,same
0,746,valid,"[(1180, 782)]",[],[1],[0.6333333333333333],horizontal,"(390.0, 762.0)",0.7166666666666667,0.59,1,4326.469,2,0.02,same
0,747,valid,"[(1200, 796)]",[],[1],[0.6666666666666666],vertical,"(890.0, 262.0)",1.15,0.625,1,4331.556,3,0.02,same
0,748,valid,"[(1172, 782)]",[],[1],[0.5833333333333334],horizontal,"(390.0, 762.0)",1.3666666666666667,0.545,1,4337.593,3,0.02,same
0,749,valid,"[(1176, 789)]",[],[1],[0.5333333333333333],vertical,"(390.0, 262.0)",0.9666666666666667,0.491,1,4343.314,3,0.02,same
0,750,valid,"[(1171, 781)]",[],[1],[0.55],horizontal,"(390.0, 262.0)",1.35,0.5,1,4349.272,3,0.02,same
0,751,valid,"[(1190, 797)]",[],[1],[0.7333333333333333],vertical,"(890.0, 762.0)",1.1666666666666667,0.699,1,4355.239,3,0.02,same
0,752,valid,"[(1186, 786)]",[],[1],[0.6666666666666666],horizontal,"(890.0, 262.0)",0.45,0.623,1,4361.424,3,0.02,same
0,753,catch,"[(1167, 777)]",[],[1],[],horizontal,"(890.0, 762.0)",1.7,nan,1,4366.622,3,0.02,same
0,754,valid,"[(1162, 802)]",[],[1],[0.5666666666666667],horizontal,"(890.0, 262.0)",1.1833333333333333,0.526,1,4372.825,3,0.02,same
0,755,catch,"[(1190, 802)]",[],[1],[],vertical,"(390.0, 262.0)",1.7,nan,1,4378.59,3,0.02,same
0,756,valid,"[(1194, 789)]",[],[1],[0.5333333333333333],vertical,"(390.0, 262.0)",1.4333333333333333,0.493,1,4384.657,3,0.02,same
0,757,catch,"[(1192, 795)]",[],[1],[],vertical,"(890.0, 262.0)",1.7,nan,1,4390.907,3,0.02,same
0,758,catch,"[(1197, 807)]",[],[1],[],horizontal,"(890.0, 262.0)",1.7,nan,1,4397.021,3,0.02,same
0,759,valid,"[(1171, 773)]",[],[1],[0.7333333333333333],vertical,"(890.0, 762.0)",1.1666666666666667,0.696,1,4402.756,3,0.02,same
0,760,valid,"[(1198, 789)]",[],[1],[0.55],horizontal,"(890.0, 262.0)",0.43333333333333335,0.513,1,4408.89,3,0.02,same
0,761,catch,"[(1185, 787)]",[],[1],[],vertical,"(390.0, 762.0)",1.7,nan,1,4414.1,3,0.02,same
0,762,catch,"[(1200, 787)]",[],[1],[],vertical,"(890.0, 762.0)",1.7,nan,1,4420.323,3,0.02,same
0,763,valid,"[(1172, 781)]",[],[1],[0.75],vertical,"(390.0, 262.0)",0.45,0.704,1,4425.979,3,0.02,same
0,764,catch,"[(1176, 787)]",[],[1],[],vertical,"(890.0, 262.0)",1.7,nan,1,4431.589,3,0.02,same
0,765,valid,"[(1191, 784)]",[],[1],[0.3833333333333333],vertical,"(890.0, 762.0)",1.5166666666666666,0.341,1,4437.247,3,0.02,same
0,766,catch,"[(1185, 797)]",[],[1],[],horizontal,"(390.0, 762.0)",1.7,nan,1,4443.603,3,0.02,same
0,767,invalid_adjacent_other_bar,"[(1201, 793)]",[],[1],[0.85],horizontal,"(890.0, 762.0)",1.1,nan,0,4449.106,0,0.02,other
0,768,invalid_same_bar,"[(1167, 790)]",[],[1],[0.5333333333333333],vertical,"(390.0, 262.0)",0.7,0.493,1,4454.107,1,0.02,same
0,769,valid,"[(1179, 806)]",[],[1],[0.48333333333333334],horizontal,"(390.0, 262.0)",1.45,0.449,1,4459.073,1,0.02,same
0,770,valid,"[(1202, 800)]",[],[1],[0.5333333333333333],horizontal,"(890.0, 262.0)",1.0666666666666667,0.495,1,4464.324,1,0.02,same
0,771,valid,"[(1195, 797)]",[],[1],[0.5166666666666666],horizontal,"(890.0, 762.0)",1.3666666666666667,0.477,1,4469.507,2,0.02,same
0,772,valid,"[(1201, 787)]",[],[1],[0.5833333333333334],vertical,"(890.0, 262.0)",1.15,0.56,1,4474.936,2,0.02,same
0,773,valid,"[(1197, 776)]",[],[1],[0.6],vertical,"(390.0, 262.0)",0.95,0.555,1,4480.239,2,0.02,same
0,774,catch,"[(1179, 781)]",[],[1],[],horizontal,"(390.0, 262.0)",1.7,nan,1,4485.373,3,0.02,same
0,775,valid,"[(1183, 773)]",[],[1],[0.5],vertical,"(890.0, 762.0)",1.5333333333333332,0.46,1,4491.64,3,0.02,same
0,776,valid,"[(1185, 794)]",[],[1],[0.6166666666666667],horizontal,"(890.0, 762.0)",0.75,0.572,1,4497.822,3,0.02,same
0,777,catch,"[(1167, 785)]",[],[1],[],horizontal,"(890.0, 762.0)",1.7,nan,1,4503.508,3,0.02,same
0,778,valid,"[(1170, 786)]",[],[1],[0.65],horizontal,"(390.0, 262.0)",0.36666666666666664,0.604,1,4509.406,3,0.02,same
0,779,catch,"[(1173, 762)]",[],[1],[],vertical,"(390.0, 762.0)",1.7,nan,1,4514.791,3,0.02,same
0,780,valid,"[(1200, 786)]",[],[1],[0.5666666666666667],vertical,"(390.0, 262.0)",0.5666666666666667,0.523,1,4520.441,3,0.02,same
0,781,valid,"[(1206, 801)]",[],[1],[0.5833333333333334],horizontal,"(390.0, 762.0)",1.55,0.541,1,4525.859,3,0.02,same
0,782,valid,"[(1171, 781)]",[],[1],[0.5333333333333333],horizontal,"(890.0, 262.0)",0.8833333333333333,0.494,1,4531.856,3,0.02,same
0,783,catch,"[(1165, 783)]",[],[1],[],vertical,"(890.0, 762.0)",1.7,nan,1,4537.406,3,0.02,same
0,784,catch,"[(1197, 791)]",[],[1],[],horizontal,"(890.0, 762.0)",1.7,nan,1,4543.08,3,0.02,same
0,785,valid,"[(1205, 785)]",[],[1],[0.5833333333333334],vertical,"(890.0, 262.0)",0.7833333333333333,0.542,1,4549.09,3,0.02,same
0,786,valid,"[(1170, 772)]",[],[1],[0.5666666666666667],horizontal,"(390.0, 262.0)",1.1833333333333333,0.526,1,4554.453,3,0.02,same
0,787,valid,"[(1202, 792)]",[],[1],[0.5333333333333333],horizontal,"(390.0, 262.0)",0.6,0.492,1,4560.307,3,0.02,same
0,788,valid,"[(1198, 790)]",[],[1],[0.6166666666666667],horizontal,"(390.0, 262.0)",1.4,0.574,1,4565.941,3,0.02,same
0,789,valid,"[(1175, 769)]",[],[1],[0.6666666666666666],vertical,"(390.0, 762.0)",0.5833333333333334,0.622,1,4572.158,3,0.02,same
0,790,valid,"[(1168, 769)]",[],[1],[0.6],vertical,"(890.0, 762.0)",1.4666666666666666,0.556,1,4577.424,3,0.0,same
0,791,valid,"[(1167, 773)]",[],[1],[0.5666666666666667],vertical,"(390.0, 262.0)",0.4166666666666667,0.53,1,4583.47,3,0.0,same
0,792,invalid_adjacent_other_bar,"[(1170, 768)]",[],[1],[0.5333333333333333],vertical,"(390.0, 762.0)",1.0333333333333332,0.483,1,4588.791,3,0.0,other
0,793,valid,"[(1195, 782)]",[],[1],[0.5833333333333334],vertical,"(390.0, 262.0)",0.9,0.557,1,4594.841,3,0.0,same
0,794,valid,"[(1193, 782)]",[],[1],[0.48333333333333334],vertical,"(390.0, 762.0)",0.7,0.445,1,4601.145,3,0.0,same
0,795,valid,"[(1167, 766)]",[],[1],[0.55],vertical,"(390.0, 262.0)",0.8666666666666667,0.505,1,4606.887,3,0.0,same
0,796,catch,"[(1176, 785)]",[],[1],[],vertical,"(890.0, 262.0)",1.7,nan,1,4612.574,3,0.0,same
0,797,valid,"[(1197, 787)]",[],[1],[0.5666666666666667],vertical,"(390.0, 762.0)",0.9333333333333333,0.519,1,4618.69,3,0.0,same
0,798,valid,"[(1190, 774)]",[],[1],[0.5833333333333334],vertical,"(890.0, 762.0)",1.2333333333333334,0.538,1,4624.491,3,0.0,same
0,799,catch,"[(1205, 773)]",[],[1],[],vertical,"(390.0, 762.0)",1.7,nan,1,4630.408,3,0.0,same
0,800,catch,"[(1185, 794)]",[],[1],[],vertical,"(390.0, 762.0)",1.7,nan,1,4636.723,3,0.0,same
0,801,valid,"[(1190, 785)]",[],[1],[0.5833333333333334],horizontal,"(390.0, 262.0)",0.4,0.542,1,4642.69,3,0.0,same
0,802,catch,"[(1170, 797)]",[],[1],[],vertical,"(890.0, 762.0)",1.7,nan,1,4647.975,3,0.0,same
0,803,valid,"[(1175, 775)]",[],[1],[0.6333333333333333],vertical,"(390.0, 762.0)",0.5666666666666667,0.589,1,4653.64,3,0.0,same
0,804,valid,"[(1167, 778)]",[],[1],[0.5833333333333334],vertical,"(890.0, 762.0)",1.5333333333333332,0.537,1,4659.231,3,0.0,same
0,805,valid,"[(1165, 766)]",[],[1],[0.7666666666666666],horizontal,"(890.0, 762.0)",1.2666666666666666,0.718,1,4665.478,3,0.0,same
0,806,valid,"[(1180, 763)]",[],[1],[0.5333333333333333],horizontal,"(890.0, 762.0)",0.7,0.493,1,4671.524,3,0.0,same
0,807,valid,"[(1170, 769)]",[],[1],[0.5333333333333333],vertical,"(890.0, 762.0)",0.65,0.49,1,4676.99,3,0.0,same
0,808,valid,"[(1207, 800)]",[],[1],[0.6],horizontal,"(390.0, 262.0)",0.5333333333333333,0.551,1,4682.683,3,0.0,same
0,809,valid,"[(1204, 792)]",[],[1],[0.75],vertical,"(890.0, 762.0)",0.6,0.701,1,4688.275,3,0.0,same
0,810,valid,"[(1207, 783)]",[],[1],[0.85],horizontal,"(890.0, 762.0)",0.9333333333333333,nan,0,4693.958,0,0.0,same
0,811,invalid_same_bar,"[(1154, 795)]",[],[1],[0.7],horizontal,"(890.0, 262.0)",0.6833333333333333,0.65,1,4698.809,1,0.0,same
0,812,catch,"[(1182, 780)]",[],[1],[],horizontal,"(390.0, 262.0)",,"('cti', 1.554),nan",0,4703.479,0,0.02,same
0,813,catch,"[(1136, 853)]",[],[1],[],horizontal,"(390.0, 262.0)",,"('cti', 1.657),nan",0,4708.303,0,0.04,same
0,814,catch,"[(1157, 794)]",[],[1],[],horizontal,"(890.0, 262.0)",1.7,nan,1,4743.308,1,0.04,same
0,815,valid,"[(1156, 802)]",[],[1],[0.5833333333333334],horizontal,"(390.0, 262.0)",1.4,0.539,1,4748.399,1,0.04,same
0,816,valid,"[(1175, 781)]",[],[1],[0.6166666666666667],horizontal,"(390.0, 762.0)",0.65,0.568,1,4753.974,1,0.04,same
0,817,invalid_same_bar,"[(1186, 782)]",[],[1],[0.6333333333333333],vertical,"(390.0, 762.0)",1.5,0.59,1,4758.838,2,0.04,same
0,818,catch,"[(1193, 779)]",[],[1],[],horizontal,"(390.0, 262.0)",1.7,nan,1,4764.473,2,0.04,same
0,819,valid,"[(1171, 772)]",[],[1],[0.5333333333333333],vertical,"(890.0, 762.0)",0.9833333333333333,0.491,1,4770.458,2,0.04,same
0,820,valid,"[(1175, 796)]",[],[1],[0.5333333333333333],horizontal,"(890.0, 762.0)",0.7833333333333333,0.495,1,4776.157,3,0.04,same
0,821,valid,"[(1170, 800)]",[],[1],[0.43333333333333335],horizontal,"(890.0, 262.0)",1.35,0.391,1,4781.794,3,0.04,same
0,822,catch,"[(1156, 787)]",[],[1],[],horizontal,"(390.0, 762.0)",1.7,nan,1,4789.225,3,0.04,same
0,823,valid,"[(1196, 780)]",[],[1],[0.6666666666666666],vertical,"(890.0, 762.0)",0.6833333333333333,0.621,1,4795.007,3,0.04,same
0,824,valid,"[(1200, 792)]",[],[1],[0.5166666666666666],horizontal,"(890.0, 262.0)",1.1333333333333333,0.478,1,4800.342,3,0.04,same
0,825,valid,"[(1200, 791)]",[],[1],[0.85],horizontal,"(390.0, 762.0)",0.36666666666666664,nan,0,4806.277,0,0.04,same
0,826,valid,"[(1143, 787)]",[],[1],[0.85],vertical,"(390.0, 762.0)",0.6333333333333333,nan,0,4810.706,0,0.04,same
0,827,valid,"[(1166, 791)]",[],[1],[0.85],horizontal,"(390.0, 762.0)",0.4,nan,0,4815.108,0,0.04,same
0,828,valid,"[(1146, 821)]",[],[1],[0.5666666666666667],vertical,"(390.0, 762.0)",0.6333333333333333,0.524,1,4819.606,1,0.04,same
0,829,catch,"[(1170, 783)]",[],[1],[],horizontal,"(890.0, 762.0)",1.7,nan,1,4830.374,1,0.04,same
0,830,catch,"[(1204, 787)]",[],[1],[],vertical,"(390.0, 762.0)",1.7,nan,1,4835.808,1,0.04,same
0,831,valid,"[(1200, 778)]",[],[1],[0.55],horizontal,"(390.0, 762.0)",0.7833333333333333,0.512,1,4841.273,2,0.04,same
0,832,catch,"[(1204, 785)]",[],[1],[],horizontal,"(890.0, 762.0)",1.7,nan,1,4846.375,2,0.04,same
0,833,valid,"[(1205, 787)]",[],[1],[0.5166666666666666],vertical,"(890.0, 762.0)",1.3333333333333333,0.475,1,4852.159,2,0.04,same
0,834,invalid_same_bar,"[(1202, 778)]",[],[1],[0.5166666666666666],vertical,"(390.0, 762.0)",0.7333333333333333,0.477,1,4858.11,3,0.04,same
0,835,valid,"[(1172, 763)]",[],[1],[0.6],horizontal,"(890.0, 262.0)",0.5666666666666667,0.56,1,4863.424,3,0.04,same
0,836,catch,"[(1200, 797)]",[],[1],[],horizontal,"(890.0, 762.0)",1.7,nan,1,4869.068,3,0.04,same
0,837,valid,"[(1201, 782)]",[],[1],[0.5],vertical,"(390.0, 762.0)",0.5,0.459,1,4874.933,3,0.04,same
0,838,valid,"[(1199, 792)]",[],[1],[0.5833333333333334],horizontal,"(890.0, 262.0)",0.7,0.537,1,4879.761,3,0.04,same
0,839,catch,"[(1209, 772)]",[],[1],[],vertical,"(890.0, 762.0)",1.7,nan,1,4885.167,3,0.04,same
0,840,valid,"[(1200, 778)]",[],[1],[0.5],horizontal,"(890.0, 262.0)",0.7666666666666666,0.459,1,4890.973,3,0.04,same
0,841,valid,"[(1202, 780)]",[],[1],[0.65],vertical,"(890.0, 762.0)",1.05,0.608,1,4896.853,3,0.04,same
0,842,invalid_same_bar,"[(1203, 789)]",[],[1],[0.85],horizontal,"(390.0, 762.0)",0.55,nan,0,4902.991,0,0.04,same
0,843,catch,"[(1160, 791)]",[],[1],[],horizontal,"(890.0, 762.0)",1.7,nan,1,4907.186,1,0.04,same
0,844,valid,"[(1191, 771)]",[],[1],[0.6833333333333333],horizontal,"(890.0, 762.0)",0.55,0.637,1,4912.124,1,0.04,same
0,845,valid,"[(1211, 771)]",[],[1],[],vertical,"(890.0, 762.0)",,"('fix', 0.445)",0,4916.709,0,0.04,same
0,846,valid,"[(1157, 792)]",[],[1],[0.5666666666666667],horizontal,"(390.0, 262.0)",0.9833333333333333,0.52,1,4918.701,1,0.04,same
0,847,valid,"[(1191, 761)]",[],[1],[0.5833333333333334],horizontal,"(890.0, 262.0)",1.2166666666666666,0.538,1,4923.524,1,0.04,same
0,848,valid,"[(1195, 763)]",[],[1],[0.6],horizontal,"(890.0, 762.0)",0.6833333333333333,0.558,1,4928.617,1,0.04,same
0,849,valid,"[(1192, 769)]",[],[1],[0.75],horizontal,"(890.0, 262.0)",0.7666666666666666,0.706,1,4933.431,2,0.04,same
0,850,valid,"[(1202, 787)]",[],[1],[0.5166666666666666],horizontal,"(390.0, 262.0)",0.48333333333333334,0.474,1,4938.536,2,0.04,same
0,851,invalid_same_bar,"[(1199, 782)]",[],[1],[0.6],vertical,"(890.0, 262.0)",1.3333333333333333,0.561,1,4943.517,2,0.04,same
0,852,catch,"[(1186, 782)]",[],[1],[],vertical,"(890.0, 262.0)",1.7,nan,1,4949.124,3,0.04,same
0,853,valid,"[(1200, 792)]",[],[1],[0.5],horizontal,"(890.0, 262.0)",1.4166666666666667,0.465,1,4955.574,3,0.04,same
0,854,valid,"[(1175, 777)]",[],[1],[0.65],vertical,"(890.0, 762.0)",1.0,0.606,1,4961.26,3,0.04,same
0,855,invalid_adjacent_other_bar,"[(1185, 768)]",[],[1],[0.55],vertical,"(390.0, 762.0)",1.4166666666666667,0.51,1,4967.492,3,0.04,other
0,856,valid,"[(1201, 784)]",[],[1],[0.5166666666666666],vertical,"(390.0, 762.0)",1.4666666666666666,0.472,1,4973.208,3,0.04,same
0,857,valid,"[(1170, 772)]",[],[1],[0.65],vertical,"(890.0, 262.0)",0.65,0.606,1,4979.581,3,0.04,same
0,858,valid,"[(1176, 773)]",[],[1],[0.5666666666666667],horizontal,"(890.0, 262.0)",1.4166666666666667,0.522,1,4985.308,3,0.04,same
0,859,valid,"[(1172, 782)]",[],[1],[0.5333333333333333],horizontal,"(890.0, 762.0)",0.65,0.491,1,4991.326,3,0.04,same
0,860,valid,"[(1185, 775)]",[],[1],[0.85],horizontal,"(390.0, 262.0)",0.3833333333333333,nan,0,4996.427,0,0.04,same
0,861,catch,"[(1155, 773)]",[],[1],[],horizontal,"(390.0, 262.0)",1.7,nan,1,5000.432,1,0.04,same
0,862,catch,"[(1186, 780)]",[],[1],[],horizontal,"(890.0, 262.0)",1.7,nan,1,5005.909,1,0.02,same
0,863,valid,"[(1188, 777)]",[],[1],[0.85],vertical,"(890.0, 762.0)",1.0166666666666666,nan,0,5011.112,0,0.0,same
0,864,catch,"[(1167, 769)]",[],[1],[],vertical,"(890.0, 262.0)",1.7,nan,1,5016.028,1,0.0,same
0,865,valid,"[(1200, 780)]",[],[1],[0.5],horizontal,"(390.0, 262.0)",0.5,0.455,1,5020.949,1,0.0,same
0,866,valid,"[(1199, 788)]",[],[1],[0.5666666666666667],vertical,"(390.0, 762.0)",1.4666666666666666,0.524,1,5025.537,1,0.0,same
