block,practice,trial,change_interval_s,change_interval_frames,taps_start_time_during_fix,taps_end_time_during_fix,taps_start_loc_during_fix,taps_end_loc_during_fix,taps_on_lever_during_fix,taps_on_lever_frame_during_fix,taps_on_lever_s_during_fix,fix_xy,bar_orientation,target_xy,cti,rt,acc,time
1,True,1,1.01,60,[],[],"[(1199, 893)]",[],[1],[38],[0.6333333333333333],"[640.0, 512.0]",horizontal,"(390.0, 262.0)",[0.6666666666666666],[0.59],1,0.358
1,True,2,0.972,58,[],[],"[(1104, 873)]",[],[1],[37],[0.6166666666666667],"[640.0, 512.0]",horizontal,"(890.0, 262.0)",[1.2333333333333334],[0.576],1,61.678
1,True,3,1.178,70,[],[],"[(1148, 885)]",[],[1],[19],[0.31666666666666665],"[640.0, 512.0]",horizontal,"(890.0, 262.0)",[1.5333333333333332],[0.282],1,66.511
1,True,4,0.764,45,[],[],"[(1022, 835), (1113, 894)]",[],"[0, 1]",[],[],"[640.0, 512.0]",horizontal,"(390.0, 262.0)",[],[0],0,71.512
1,False,1,0.952,57,[],[],"[(1008, 908), (1074, 692), (965, 841), (1254, 884), (836, 923), (1020, 697), (1210, 889)]",[],"[0, 0, 0, 0, 0, 0, 1]",[],[],"[640.0, 512.0]",vertical,"(390.0, 762.0)",[],[0],0,74.451
1,False,2,1.184,71,[],[],"[(1219, 913)]",[],[1],[51],[0.85],"[640.0, 512.0]",vertical,"(890.0, 262.0)",[0.9666666666666667],[0.804],0,97.43
1,False,3,1.196,71,[],[],"[(812, 919), (916, 923), (898, 905), (901, 773), (855, 908), (1144, 937)]",[],"[0, 0, 0, 0, 0, 1]",[40],[0.6666666666666666],"[640.0, 512.0]",horizontal,"(390.0, 762.0)",[0.7333333333333333],[0.627],1,102.778
1,False,4,1.15,69,[],[],"[(1148, 882)]",[],[1],[34],[0.5666666666666667],"[640.0, 512.0]",vertical,"(890.0, 262.0)",[0.6833333333333333],[0.526],1,158.995
1,False,5,0.668,40,[],[],"[(1172, 878)]",[],[1],[51],[0.85],"[640.0, 512.0]",horizontal,"(890.0, 262.0)",[0.85],[0.798],0,163.232
1,False,6,1.162,69,[],[],"[(1080, 877)]",[],[1],[],[],"[640.0, 512.0]",horizontal,"(390.0, 262.0)",[],[0],0,167.56
1,False,7,0.592,35,[],[],"[(1160, 870)]",[],[1],[51],[0.85],"[640.0, 512.0]",horizontal,"(390.0, 262.0)",[0.8],[0.802],0,171.435
1,False,8,0.62,37,[],[],"[(1181, 868)]",[],[1],[48],[0.8],"[640.0, 512.0]",horizontal,"(890.0, 262.0)",[0.65],[0.758],1,175.68
1,False,9,0.671,40,[],[],"[(1148, 892)]",[],[1],[],[],"[640.0, 512.0]",vertical,"(890.0, 762.0)",[],[0],0,180.136
1,False,10,0.64,38,[],[],"[(1160, 871)]",[],[1],[51],[0.85],"[640.0, 512.0]",horizontal,"(890.0, 762.0)",[1.5166666666666666],[0.814],0,183.856
1,False,11,0.635,38,[],[],"[(1164, 863)]",[],[1],[51],[0.85],"[640.0, 512.0]",vertical,"(890.0, 262.0)",[1.3],[0.808],0,188.998
1,False,12,0.804,48,[],[],"[(1133, 860)]",[],[1],[51],[0.85],"[640.0, 512.0]",horizontal,"(390.0, 762.0)",[0.8166666666666667],[0.803],0,194.397
1,False,13,0.994,59,[],[],"[(1156, 876)]",[],[1],[33],[0.55],"[640.0, 512.0]",vertical,"(390.0, 262.0)",[0.8833333333333333],[0.508],1,200.268
1,False,14,0.929,55,[],[],"[(1115, 876)]",[],[1],[48],[0.8],"[640.0, 512.0]",horizontal,"(890.0, 262.0)",[1.3333333333333333],[0.761],1,204.601
1,False,15,0.604,36,[],[],"[(1157, 880)]",[],[1],[51],[0.85],"[640.0, 512.0]",vertical,"(890.0, 762.0)",[0.6666666666666666],[0.807],0,209.628
1,False,16,0.564,33,[],[],"[(1201, 876)]",[],[1],[51],[0.85],"[640.0, 512.0]",vertical,"(890.0, 762.0)",[1.1166666666666667],[0.806],0,215.047
1,False,17,1.042,62,[],[],"[(1157, 883)]",[],[1],[51],[0.85],"[640.0, 512.0]",vertical,"(890.0, 762.0)",[0.8166666666666667],[0.81],0,219.414
1,False,18,1.016,60,[],[],"[(1110, 847)]",[],[1],[51],[0.85],"[640.0, 512.0]",vertical,"(390.0, 262.0)",[1.5166666666666666],[0.801],0,224.077
1,False,19,0.739,44,[],[],"[(1148, 875)]",[],[1],[51],[0.85],"[640.0, 512.0]",horizontal,"(890.0, 762.0)",[0.7833333333333333],[0.803],0,230.947
1,False,20,0.639,38,[],[],"[(1103, 864)]",[],[1],[50],[0.8333333333333334],"[640.0, 512.0]",vertical,"(390.0, 762.0)",[0.8833333333333333],[0.791],1,235.25
1,False,21,0.848,50,[],[],"[(1118, 872)]",[],[1],[47],[0.7833333333333333],"[640.0, 512.0]",vertical,"(390.0, 262.0)",[0.85],[0.747],1,239.7
1,False,22,0.975,58,[],[],"[(1123, 865)]",[],[1],[47],[0.7833333333333333],"[640.0, 512.0]",vertical,"(390.0, 262.0)",[1.65],[0.734],1,244.068
1,False,23,0.834,50,[],[],"[(1142, 865)]",[],[1],[33],[0.55],"[640.0, 512.0]",vertical,"(390.0, 762.0)",[0.8833333333333333],[0.512],1,249.46
1,False,24,0.656,39,[],[],"[(1121, 870)]",[],[1],[32],[0.5333333333333333],"[640.0, 512.0]",vertical,"(390.0, 762.0)",[0.7],[0.486],1,253.649
1,False,25,0.609,36,[],[],"[(1120, 886)]",[],[1],[45],[0.75],"[640.0, 512.0]",vertical,"(390.0, 262.0)",[0.5],[0.7],1,257.346
1,False,26,0.769,46,[],[],"[(1112, 882)]",[],[1],[32],[0.5333333333333333],"[640.0, 512.0]",vertical,"(890.0, 262.0)",[1.2],[0.488],1,261.069
1,False,27,0.504,30,[],[],"[(1155, 874)]",[],[1],[51],[0.85],"[640.0, 512.0]",horizontal,"(890.0, 762.0)",[0.75],[0.8],0,265.753
1,False,28,0.567,34,[],[],"[(1154, 877)]",[],[1],[34],[0.5666666666666667],"[640.0, 512.0]",vertical,"(890.0, 762.0)",[0.75],[0.529],1,269.718
1,False,29,0.862,51,[],[],"[(1160, 874)]",[],[1],[51],[0.85],"[640.0, 512.0]",horizontal,"(890.0, 762.0)",[1.35],[0.808],0,273.585
1,False,30,1.191,71,[],[],"[(1111, 869)]",[],[1],[35],[0.5833333333333334],"[640.0, 512.0]",vertical,"(390.0, 262.0)",[0.7166666666666667],[0.543],1,279.164
1,False,31,0.945,56,[],[],"[(1139, 880)]",[],[1],[51],[0.85],"[640.0, 512.0]",vertical,"(890.0, 762.0)",[0.5666666666666667],[0.799],0,283.712
1,False,32,0.849,50,[],[],"[(1172, 873)]",[],[1],[51],[0.85],"[640.0, 512.0]",vertical,"(390.0, 762.0)",[1.3333333333333333],[0.807],0,287.895
1,False,33,0.546,32,[],[],"[(1130, 875)]",[],[1],[40],[0.6666666666666666],"[640.0, 512.0]",vertical,"(890.0, 762.0)",[0.6333333333333333],[0.619],1,292.752
1,False,34,0.755,45,[],[],"[(1155, 876)]",[],[1],[35],[0.5833333333333334],"[640.0, 512.0]",horizontal,"(390.0, 262.0)",[0.5166666666666666],[0.54],1,297.283
1,False,35,0.998,59,[],[],"[(1159, 884)]",[],[1],[38],[0.6333333333333333],"[640.0, 512.0]",vertical,"(390.0, 762.0)",[0.8333333333333334],[0.585],1,301.122
1,False,36,0.654,39,[],[],"[(1118, 874)]",[],[1],[51],[0.85],"[640.0, 512.0]",vertical,"(890.0, 762.0)",[1.5],[0.799],0,305.444
1,False,37,1.191,71,[],[],"[(1202, 870)]",[],[1],[33],[0.55],"[640.0, 512.0]",horizontal,"(890.0, 262.0)",[1.4333333333333333],[0.508],1,310.358
1,False,38,1.033,61,[],[],"[(1157, 868)]",[],[1],[34],[0.5666666666666667],"[640.0, 512.0]",vertical,"(390.0, 262.0)",[0.95],[0.526],1,315.365
1,False,39,1.134,68,[],[],"[(1119, 853)]",[],[1],[32],[0.5333333333333333],"[640.0, 512.0]",vertical,"(390.0, 262.0)",[1.1833333333333333],[0.49],1,319.898
1,False,40,0.879,52,[],[],"[(1152, 875)]",[],[1],[33],[0.55],"[640.0, 512.0]",vertical,"(890.0, 762.0)",[1.4666666666666666],[0.51],1,324.569
1,False,41,0.866,51,[],[],"[(1156, 866)]",[],[1],[33],[0.55],"[640.0, 512.0]",horizontal,"(890.0, 762.0)",[1.2166666666666666],[0.506],1,329.327
1,False,42,0.896,53,[],[],"[(1130, 875)]",[],[1],[44],[0.7333333333333333],"[640.0, 512.0]",horizontal,"(890.0, 262.0)",[1.2833333333333332],[0.691],1,333.717
1,False,43,0.961,57,[],[],"[(1120, 858)]",[],[1],[32],[0.5333333333333333],"[640.0, 512.0]",vertical,"(390.0, 762.0)",[1.2333333333333334],[0.492],1,338.449
1,False,44,0.53,31,[],[],"[(1130, 855)]",[],[1],[34],[0.5666666666666667],"[640.0, 512.0]",horizontal,"(890.0, 262.0)",[0.7833333333333333],[0.523],1,343.096
1,False,45,1.031,61,[],[],"[(1155, 883)]",[],[1],[51],[0.85],"[640.0, 512.0]",horizontal,"(390.0, 762.0)",[0.7166666666666667],[0.798],0,346.895
1,False,46,0.93,55,[],[],"[(1165, 876)]",[],[1],[33],[0.55],"[640.0, 512.0]",horizontal,"(890.0, 762.0)",[0.5],[0.514],1,351.417
1,False,47,1.088,65,[],[],"[(1122, 872)]",[],[1],[31],[0.5166666666666666],"[640.0, 512.0]",horizontal,"(890.0, 762.0)",[1.6166666666666667],[0.474],1,355.331
1,False,48,1.12,67,[],[],"[(1092, 850)]",[],[1],[37],[0.6166666666666667],"[640.0, 512.0]",vertical,"(390.0, 762.0)",[1.1833333333333333],[0.572],1,360.408
1,False,49,0.987,59,[],[],"[(1145, 875)]",[],[1],[35],[0.5833333333333334],"[640.0, 512.0]",horizontal,"(390.0, 762.0)",[0.5833333333333334],[0.54],1,365.35
1,False,50,1.048,62,[],[],"[(1117, 876)]",[],[1],[34],[0.5666666666666667],"[640.0, 512.0]",vertical,"(890.0, 262.0)",[1.15],[0.526],1,369.714
1,False,51,0.6,36,[],[],"[(1148, 864)]",[],[1],[51],[0.85],"[640.0, 512.0]",vertical,"(390.0, 262.0)",[1.0666666666666667],[0.804],0,374.279
1,False,52,0.557,33,[],[],"[(1153, 864)]",[],[1],[33],[0.55],"[640.0, 512.0]",horizontal,"(890.0, 262.0)",[0.5666666666666667],[0.505],1,378.666
1,False,53,0.811,48,[],[],"[(1159, 875)]",[],[1],[45],[0.75],"[640.0, 512.0]",horizontal,"(890.0, 262.0)",[1.5],[0.706],1,382.269
1,False,54,0.752,45,[],[],"[(1133, 861)]",[],[1],[34],[0.5666666666666667],"[640.0, 512.0]",vertical,"(890.0, 262.0)",[0.5333333333333333],[0.523],1,387.198
1,False,55,0.865,51,[],[],"[(1172, 906)]",[],[1],[36],[0.6],"[640.0, 512.0]",vertical,"(390.0, 262.0)",[0.7666666666666666],[0.563],1,392.335
1,False,56,0.641,38,[],[],"[(1165, 862)]",[],[1],[35],[0.5833333333333334],"[640.0, 512.0]",vertical,"(390.0, 762.0)",[0.7166666666666667],[0.547],1,422.084
1,False,57,0.918,55,[],[],"[(1200, 903)]",[],[1],[51],[0.85],"[640.0, 512.0]",vertical,"(890.0, 762.0)",[0.8166666666666667],[0.806],0,425.91
1,False,58,1.005,60,[],[],"[(1171, 885)]",[],[1],[34],[0.5666666666666667],"[640.0, 512.0]",horizontal,"(890.0, 762.0)",[0.7166666666666667],[0.527],1,593.468
1,False,59,0.803,48,[],[],"[(1113, 875)]",[],[1],[51],[0.85],"[640.0, 512.0]",vertical,"(890.0, 262.0)",[1.4166666666666667],[0.804],0,609.236
1,False,60,0.669,40,[],[],"[(1096, 865)]",[],[1],[42],[0.7],"[640.0, 512.0]",horizontal,"(890.0, 762.0)",[1.5],[0.66],1,614.25
2,False,61,0.994,59,[],[],"[(1107, 860)]",[],[1],[51],[0.85],"[640.0, 512.0]",horizontal,"(390.0, 762.0)",[1.1833333333333333],[0.808],0,619.281
2,False,62,1.123,67,[],[],"[(1098, 863)]",[],[1],[44],[0.7333333333333333],"[640.0, 512.0]",horizontal,"(390.0, 762.0)",[1.65],[0.689],1,624.248
2,False,63,0.834,50,[],[],"[(1155, 863)]",[],[1],[51],[0.85],"[640.0, 512.0]",vertical,"(390.0, 762.0)",[1.3833333333333333],[0.807],0,629.616
2,False,64,0.804,48,[],[],"[(1093, 853)]",[],[1],[35],[0.5833333333333334],"[640.0, 512.0]",vertical,"(890.0, 762.0)",[1.6166666666666667],[0.546],1,634.62
2,False,65,0.955,57,[],[],"[(1111, 862)]",[],[1],[34],[0.5666666666666667],"[640.0, 512.0]",horizontal,"(390.0, 762.0)",[0.9],[0.534],1,641.053
2,False,66,0.695,41,[],[],"[(1106, 868)]",[],[1],[34],[0.5666666666666667],"[640.0, 512.0]",horizontal,"(390.0, 762.0)",[1.2333333333333334],[0.526],1,645.442
2,False,67,0.742,44,[],[],"[(1116, 884)]",[],[1],[33],[0.55],"[640.0, 512.0]",horizontal,"(390.0, 762.0)",[1.0833333333333333],[0.511],1,649.784
2,False,68,1.193,71,[],[],"[(1114, 873)]",[],[1],[29],[0.48333333333333334],"[640.0, 512.0]",vertical,"(390.0, 262.0)",[0.8333333333333334],[0.449],1,653.935
2,False,69,1.127,67,[],[],"[(1152, 878)]",[],[1],[31],[0.5166666666666666],"[640.0, 512.0]",horizontal,"(390.0, 262.0)",[1.1666666666666667],[0.477],1,658.696
2,False,70,0.835,50,[],[],"[(1175, 861)]",[],[1],[35],[0.5833333333333334],"[640.0, 512.0]",vertical,"(390.0, 262.0)",[0.8666666666666667],[0.547],1,663.448
2,False,71,0.964,57,[],[],"[(1086, 859)]",[],[1],[32],[0.5333333333333333],"[640.0, 512.0]",horizontal,"(390.0, 262.0)",[1.2],[0.498],1,667.666
2,False,72,1.2,72,[],[],"[(1080, 884)]",[],[1],[33],[0.55],"[640.0, 512.0]",vertical,"(390.0, 762.0)",[1.6166666666666667],[0.513],1,674.613
2,False,73,0.66,39,[],[],"[(1109, 859)]",[],[1],[33],[0.55],"[640.0, 512.0]",vertical,"(890.0, 762.0)",[0.8166666666666667],[0.509],1,679.789
2,False,74,0.507,30,[],[],"[(1150, 873)]",[],[1],[35],[0.5833333333333334],"[640.0, 512.0]",vertical,"(390.0, 262.0)",[0.95],[0.545],1,683.673
2,False,75,0.812,48,[],[],"[(1123, 865)]",[],[1],[34],[0.5666666666666667],"[640.0, 512.0]",vertical,"(890.0, 762.0)",[1.5],[0.528],1,687.529
2,False,76,0.666,39,[],[],"[(1128, 865)]",[],[1],[34],[0.5666666666666667],"[640.0, 512.0]",vertical,"(390.0, 262.0)",[0.6666666666666666],[0.524],1,692.237
2,False,77,0.782,46,[],[],"[(1111, 861)]",[],[1],[38],[0.6333333333333333],"[640.0, 512.0]",horizontal,"(890.0, 262.0)",[1.0666666666666667],[0.592],1,695.975
2,False,78,0.558,33,[],[],"[(1147, 875)]",[],[1],[34],[0.5666666666666667],"[640.0, 512.0]",vertical,"(390.0, 762.0)",[1.5166666666666666],[0.541],1,700.336
2,False,79,0.764,45,[],[],"[(1145, 881)]",[],[1],[36],[0.6],"[640.0, 512.0]",horizontal,"(890.0, 262.0)",[1.6],[0.558],1,704.786
2,False,80,1.068,64,[],[],"[(1118, 861)]",[],[1],[33],[0.55],"[640.0, 512.0]",vertical,"(890.0, 762.0)",[1.0],[0.515],1,709.659
2,False,81,1.067,64,[],[],"[(1148, 860)]",[],[1],[21],[0.35],"[640.0, 512.0]",vertical,"(390.0, 262.0)",[1.3666666666666667],[0.316],1,714.245
2,False,82,0.73,43,[],[],"[(1117, 857)]",[],[1],[29],[0.48333333333333334],"[640.0, 512.0]",vertical,"(390.0, 262.0)",[0.9833333333333333],[0.443],1,718.832
2,False,83,0.968,58,[],[],"[(1128, 877)]",[],[1],[51],[0.85],"[640.0, 512.0]",horizontal,"(390.0, 262.0)",[1.05],[0.805],0,722.794
2,False,84,0.913,54,[],[],"[(1156, 870)]",[],[1],[38],[0.6333333333333333],"[640.0, 512.0]",vertical,"(890.0, 262.0)",[0.5833333333333334],[0.6],1,727.551
2,False,85,0.957,57,[],[],"[(1134, 859)]",[],[1],[35],[0.5833333333333334],"[640.0, 512.0]",vertical,"(890.0, 262.0)",[1.3],[0.539],1,731.667
2,False,86,0.575,34,[],[],"[(1153, 859)]",[],[1],[37],[0.6166666666666667],"[640.0, 512.0]",horizontal,"(890.0, 762.0)",[1.1666666666666667],[0.579],1,736.337
2,False,87,1.153,69,[],[],"[(1153, 858)]",[],[1],[33],[0.55],"[640.0, 512.0]",horizontal,"(390.0, 762.0)",[0.9833333333333333],[0.51],1,740.554
2,False,88,0.597,35,[],[],"[(1126, 861)]",[],[1],[37],[0.6166666666666667],"[640.0, 512.0]",vertical,"(390.0, 762.0)",[1.2666666666666666],[0.573],1,745.146
2,False,89,0.604,36,[],[],"[(1116, 862)]",[],[1],[38],[0.6333333333333333],"[640.0, 512.0]",vertical,"(890.0, 762.0)",[1.6833333333333333],[0.595],1,749.478
2,False,90,1.078,64,[],[],"[(1105, 864)]",[],[1],[35],[0.5833333333333334],"[640.0, 512.0]",vertical,"(890.0, 762.0)",[0.9],[0.539],1,754.376
2,False,91,1.084,65,[],[],"[(1148, 866)]",[],[1],[51],[0.85],"[640.0, 512.0]",vertical,"(390.0, 262.0)",[1.4666666666666666],[0.808],0,758.692
2,False,92,1.17,70,[],[],"[(1138, 860)]",[],[1],[32],[0.5333333333333333],"[640.0, 512.0]",vertical,"(890.0, 762.0)",[1.6],[0.489],1,763.965
2,False,93,0.521,31,[],[],"[(1143, 873)]",[],[1],[35],[0.5833333333333334],"[640.0, 512.0]",vertical,"(390.0, 762.0)",[1.0166666666666666],[0.543],1,769.465
2,False,94,1.106,66,[],[],"[(1142, 863)]",[],[1],[41],[0.6833333333333333],"[640.0, 512.0]",horizontal,"(390.0, 762.0)",[1.1],[0.638],1,773.452
2,False,95,1.101,66,[],[],"[(1078, 871)]",[],[1],[44],[0.7333333333333333],"[640.0, 512.0]",vertical,"(890.0, 262.0)",[0.7],[0.69],1,778.077
2,False,96,0.838,50,[],[],"[(1153, 872)]",[],[1],[51],[0.85],"[640.0, 512.0]",horizontal,"(890.0, 262.0)",[0.55],[0.8],0,784.171
2,False,97,0.84,50,[],[],"[(1130, 856)]",[],[1],[34],[0.5666666666666667],"[640.0, 512.0]",vertical,"(890.0, 762.0)",[0.6],[0.522],1,788.218
2,False,98,0.704,42,[],[],"[(1128, 866)]",[],[1],[32],[0.5333333333333333],"[640.0, 512.0]",horizontal,"(890.0, 262.0)",[0.8666666666666667],[0.49],1,792.576
2,False,99,0.764,45,[],[],"[(1114, 874)]",[],[1],[51],[0.85],"[640.0, 512.0]",vertical,"(390.0, 762.0)",[0.9333333333333333],[0.801],0,796.484
2,False,100,0.924,55,[],[],"[(1157, 868)]",[],[1],[37],[0.6166666666666667],"[640.0, 512.0]",vertical,"(890.0, 762.0)",[0.9666666666666667],[0.571],1,800.875
2,False,101,0.984,59,[],[],"[(1105, 879)]",[],[1],[32],[0.5333333333333333],"[640.0, 512.0]",vertical,"(390.0, 262.0)",[1.5833333333333333],[0.491],1,807.297
2,False,102,0.574,34,[],[],"[(1166, 856)]",[],[1],[32],[0.5333333333333333],"[640.0, 512.0]",horizontal,"(390.0, 762.0)",[1.65],[0.488],1,812.31
2,False,103,0.74,44,[],[],"[(1164, 875)]",[],[1],[51],[0.85],"[640.0, 512.0]",vertical,"(390.0, 262.0)",[1.1666666666666667],[0.81],0,816.959
2,False,104,1.182,70,[],[],"[(1156, 871)]",[],[1],[51],[0.85],"[640.0, 512.0]",vertical,"(390.0, 262.0)",[0.95],[0.806],0,821.6
2,False,105,0.522,31,[],[],"[(1153, 867)]",[],[1],[34],[0.5666666666666667],"[640.0, 512.0]",horizontal,"(890.0, 762.0)",[1.35],[0.524],1,833.996
2,False,106,1.162,69,[],[],"[(1143, 859)]",[],[1],[33],[0.55],"[640.0, 512.0]",vertical,"(890.0, 762.0)",[1.3333333333333333],[0.507],1,846.588
2,False,107,0.673,40,[],[],"[(1155, 861)]",[],[1],[51],[0.85],"[640.0, 512.0]",vertical,"(390.0, 762.0)",[0.6333333333333333],[0.799],0,851.623
2,False,108,0.909,54,[],[],"[(1251, 875), (1146, 897)]",[],"[0, 1]",[44],[0.7333333333333333],"[640.0, 512.0]",horizontal,"(390.0, 262.0)",[1.5666666666666667],[0.686],1,855.886
2,False,109,0.631,37,[],[],"[(1109, 898)]",[],[1],[46],[0.7666666666666666],"[640.0, 512.0]",vertical,"(390.0, 762.0)",[1.3666666666666667],[0.719],1,1791.17
2,False,110,0.694,41,[],[],"[(1111, 876)]",[],[1],[34],[0.5666666666666667],"[640.0, 512.0]",vertical,"(890.0, 262.0)",[1.35],[0.521],1,1795.894
2,False,111,0.746,44,[],[],"[(1149, 882)]",[],[1],[48],[0.8],"[640.0, 512.0]",horizontal,"(390.0, 762.0)",[0.5],[0.752],1,1800.339
2,False,112,0.954,57,[],[],"[(1118, 903)]",[],[1],[40],[0.6666666666666666],"[640.0, 512.0]",horizontal,"(390.0, 762.0)",[1.0666666666666667],[0.623],1,1804.32
2,False,113,0.758,45,[],[],"[(1160, 876)]",[],[1],[34],[0.5666666666666667],"[640.0, 512.0]",horizontal,"(890.0, 762.0)",[0.9],[0.526],1,1808.904
2,False,114,1.15,69,[],[],"[(1123, 889)]",[],[1],[32],[0.5333333333333333],"[640.0, 512.0]",horizontal,"(390.0, 762.0)",[0.7166666666666667],[0.493],1,1812.917
2,False,115,0.819,49,[],[1827450],"[(1098, 869)]","[(1082, 874)]",[1],[6],[0.1],"[640.0, 512.0]",vertical,"(390.0, 262.0)",[],[0],0,1817.235
2,False,116,0.943,56,[],[],"[(1189, 876)]",[],[1],[34],[0.5666666666666667],"[640.0, 512.0]",horizontal,"(890.0, 762.0)",[1.6833333333333333],[0.524],1,1819.438
2,False,117,1.169,70,[],[],"[(1180, 857)]",[],[1],[39],[0.65],"[640.0, 512.0]",vertical,"(890.0, 762.0)",[0.5833333333333334],[0.608],1,1839.754
2,False,118,1.098,65,[],[],"[(1186, 865)]",[],[1],[38],[0.6333333333333333],"[640.0, 512.0]",horizontal,"(890.0, 762.0)",[1.6833333333333333],[0.589],1,1844.134
2,False,119,0.904,54,[],[],"[(1147, 864)]",[],[1],[34],[0.5666666666666667],"[640.0, 512.0]",horizontal,"(390.0, 762.0)",[1.55],[0.523],1,1849.284
2,False,120,1.194,71,[],[],"[(1115, 877)]",[],[1],[37],[0.6166666666666667],"[640.0, 512.0]",vertical,"(390.0, 762.0)",[1.5333333333333332],[0.568],1,1856.993
3,False,121,0.782,46,[],[],"[(1130, 863)]",[],[1],[35],[0.5833333333333334],"[640.0, 512.0]",vertical,"(390.0, 762.0)",[1.3666666666666667],[0.536],1,1862.232
3,False,122,0.552,33,[],[],"[(1192, 851)]",[],[1],[34],[0.5666666666666667],"[640.0, 512.0]",horizontal,"(390.0, 262.0)",[1.55],[0.519],1,1866.82
3,False,123,0.571,34,[],[],"[(1111, 884)]",[],[1],[36],[0.6],"[640.0, 512.0]",horizontal,"(890.0, 262.0)",[0.5666666666666667],[0.555],1,1871.338
3,False,124,1.134,68,[],[],"[(1145, 881)]",[],[1],[34],[0.5666666666666667],"[640.0, 512.0]",vertical,"(890.0, 762.0)",[1.3166666666666667],[0.522],1,1874.983
3,False,125,1.129,67,[],[],"[(1194, 903)]",[],[1],[44],[0.7333333333333333],"[640.0, 512.0]",vertical,"(890.0, 262.0)",[1.6666666666666667],[0.685],1,1879.895
3,False,126,1.055,63,[],[],"[(1153, 883)]",[],[1],[37],[0.6166666666666667],"[640.0, 512.0]",vertical,"(890.0, 262.0)",[1.2833333333333332],[0.575],1,1886.58
3,False,127,0.987,59,[],[],"[(1150, 876)]",[],[1],[47],[0.7833333333333333],"[640.0, 512.0]",vertical,"(890.0, 762.0)",[0.9833333333333333],[0.732],1,1894.373
3,False,128,0.681,40,[],[],"[(1160, 881)]",[],[1],[35],[0.5833333333333334],"[640.0, 512.0]",vertical,"(890.0, 262.0)",[0.6833333333333333],[0.538],1,1898.982
3,False,129,1.182,70,[],[],"[(1149, 867)]",[],[1],[34],[0.5666666666666667],"[640.0, 512.0]",vertical,"(390.0, 262.0)",[1.5666666666666667],[0.523],1,1902.857
3,False,130,0.934,56,[],[],"[(1159, 859)]",[],[1],[37],[0.6166666666666667],"[640.0, 512.0]",vertical,"(390.0, 262.0)",[0.9333333333333333],[0.575],1,1908.045
3,False,131,0.521,31,[],[],"[(1117, 864)]",[],[1],[45],[0.75],"[640.0, 512.0]",vertical,"(890.0, 762.0)",[1.0833333333333333],[0.7],1,1912.283
3,False,132,1.2,72,[],[],"[(1143, 892)]",[],[1],[37],[0.6166666666666667],"[640.0, 512.0]",vertical,"(890.0, 762.0)",[1.4166666666666667],[0.567],1,1916.56
3,False,133,0.844,50,[],[],"[(1149, 864)]",[],[1],[35],[0.5833333333333334],"[640.0, 512.0]",vertical,"(890.0, 262.0)",[1.25],[0.536],1,1922.075
3,False,134,0.803,48,[],[],"[(1138, 873)]",[],[1],[34],[0.5666666666666667],"[640.0, 512.0]",horizontal,"(390.0, 762.0)",[0.9166666666666666],[0.531],1,1927.521
3,False,135,0.839,50,[],[],"[(1147, 873)]",[],[1],[34],[0.5666666666666667],"[640.0, 512.0]",vertical,"(390.0, 262.0)",[1.5833333333333333],[0.525],1,1931.729
3,False,136,0.644,38,[],[],"[(1159, 885)]",[],[1],[42],[0.7],"[640.0, 512.0]",horizontal,"(890.0, 262.0)",[0.5333333333333333],[0.655],1,1936.571
3,False,137,0.833,49,[],[],"[(1153, 877)]",[],[1],[40],[0.6666666666666666],"[640.0, 512.0]",horizontal,"(390.0, 262.0)",[1.35],[0.621],1,1940.266
3,False,138,0.537,32,[],[],"[(1142, 873)]",[],[1],[51],[0.85],"[640.0, 512.0]",horizontal,"(390.0, 262.0)",[1.2833333333333332],[0.803],0,1944.962
3,False,139,0.91,54,[],[],"[(1190, 897)]",[],[1],[38],[0.6333333333333333],"[640.0, 512.0]",horizontal,"(390.0, 762.0)",[1.4],[0.586],1,1960.351
3,False,140,1.069,64,[],[],"[(1149, 885)]",[],[1],[41],[0.6833333333333333],"[640.0, 512.0]",horizontal,"(890.0, 262.0)",[1.55],[0.644],1,1966.55
3,False,141,0.605,36,[],[],"[(1151, 883)]",[],[1],[37],[0.6166666666666667],"[640.0, 512.0]",vertical,"(390.0, 762.0)",[1.5166666666666666],[0.568],1,1971.668
3,False,142,0.675,40,[],[],"[(1140, 890)]",[],[1],[51],[0.85],"[640.0, 512.0]",horizontal,"(890.0, 762.0)",[0.95],[0.802],0,1976.303
3,False,143,0.689,41,[],[],"[(1124, 883)]",[],[1],[49],[0.8166666666666667],"[640.0, 512.0]",vertical,"(390.0, 762.0)",[0.6333333333333333],[0.771],1,1980.605
3,False,144,0.61,36,[],[],"[(1114, 876)]",[],[1],[44],[0.7333333333333333],"[640.0, 512.0]",vertical,"(390.0, 762.0)",[0.7333333333333333],[0.696],1,1985.111
3,False,145,1.14,68,[],[],"[(1129, 867)]",[],[1],[44],[0.7333333333333333],"[640.0, 512.0]",horizontal,"(390.0, 262.0)",[0.7],[0.69],1,1989.185
3,False,146,0.807,48,[],[],"[(1130, 871)]",[],[1],[33],[0.55],"[640.0, 512.0]",horizontal,"(390.0, 762.0)",[1.1333333333333333],[0.51],1,1993.733
3,False,147,0.734,44,[],[],"[(1156, 874)]",[],[1],[34],[0.5666666666666667],"[640.0, 512.0]",horizontal,"(890.0, 262.0)",[1.6833333333333333],[0.524],1,1998.089
3,False,148,0.982,58,[],[],"[(1153, 852)]",[],[1],[],[],"[640.0, 512.0]",horizontal,"(890.0, 262.0)",[],[0],0,2003.018
3,False,149,0.984,59,[],[],"[(1178, 880)]",[],[1],[29],[0.48333333333333334],"[640.0, 512.0]",horizontal,"(890.0, 262.0)",[1.65],[0.441],1,2006.499
3,False,150,0.909,54,[],[],"[(1172, 880)]",[],[1],[39],[0.65],"[640.0, 512.0]",vertical,"(890.0, 262.0)",[1.6333333333333333],[0.607],1,2011.589
3,False,151,0.668,40,[],[],"[(1179, 894)]",[],[1],[38],[0.6333333333333333],"[640.0, 512.0]",vertical,"(390.0, 762.0)",[1.3333333333333333],[0.591],1,2016.603
3,False,152,0.591,35,[],[],"[(1148, 860)]",[],[1],[34],[0.5666666666666667],"[640.0, 512.0]",horizontal,"(390.0, 762.0)",[0.8166666666666667],[0.528],1,2022.513
3,False,153,0.824,49,[],[],"[(1126, 883)]",[],[1],[34],[0.5666666666666667],"[640.0, 512.0]",vertical,"(390.0, 762.0)",[0.8666666666666667],[0.53],1,2026.451
3,False,154,0.704,42,[],[],"[(1149, 876)]",[],[1],[36],[0.6],"[640.0, 512.0]",vertical,"(890.0, 762.0)",[1.3666666666666667],[0.561],1,2030.565
3,False,155,1.025,61,[],[],"[(1158, 878)]",[],[1],[34],[0.5666666666666667],"[640.0, 512.0]",horizontal,"(390.0, 262.0)",[1.35],[0.525],1,2035.189
3,False,156,0.971,58,[],[],"[(1117, 887)]",[],[1],[44],[0.7333333333333333],"[640.0, 512.0]",vertical,"(390.0, 262.0)",[0.85],[0.694],1,2039.94
3,False,157,0.946,56,[],[],"[(1148, 880)]",[],[1],[35],[0.5833333333333334],"[640.0, 512.0]",vertical,"(890.0, 762.0)",[0.5666666666666667],[0.539],1,2044.404
3,False,158,1.157,69,[],[],"[(1165, 893)]",[],[1],[35],[0.5833333333333334],"[640.0, 512.0]",vertical,"(390.0, 762.0)",[1.4833333333333334],[0.543],1,2048.492
3,False,159,0.72,43,[],[],"[(1106, 884)]",[],[1],[34],[0.5666666666666667],"[640.0, 512.0]",horizontal,"(390.0, 762.0)",[0.8],[0.525],1,2053.588
3,False,160,0.691,41,[],[],"[(1119, 895)]",[],[1],[33],[0.55],"[640.0, 512.0]",horizontal,"(390.0, 762.0)",[0.8],[0.509],1,2057.728
3,False,161,0.986,59,[],[],"[(1146, 877)]",[],[1],[42],[0.7],"[640.0, 512.0]",vertical,"(390.0, 262.0)",[0.95],[0.656],1,2061.559
3,False,162,0.983,58,[],[],"[(1146, 876)]",[],[1],[44],[0.7333333333333333],"[640.0, 512.0]",vertical,"(890.0, 262.0)",[1.3833333333333333],[0.689],1,2066.062
3,False,163,0.763,45,[],[],"[(1111, 887)]",[],[1],[39],[0.65],"[640.0, 512.0]",vertical,"(890.0, 762.0)",[1.0333333333333332],[0.609],1,2071.103
3,False,164,0.822,49,[],[],"[(1123, 878)]",[],[1],[35],[0.5833333333333334],"[640.0, 512.0]",horizontal,"(890.0, 762.0)",[1.2166666666666666],[0.541],1,2075.399
3,False,165,1.008,60,[],[],"[(1156, 872)]",[],[1],[40],[0.6666666666666666],"[640.0, 512.0]",vertical,"(890.0, 762.0)",[0.9833333333333333],[0.629],1,2079.989
3,False,166,0.606,36,[],[],"[(1117, 881)]",[],[1],[51],[0.85],"[640.0, 512.0]",horizontal,"(390.0, 262.0)",[0.5],[0.805],0,2084.541
3,False,167,0.899,53,[],[],"[(1183, 895)]",[],[1],[34],[0.5666666666666667],"[640.0, 512.0]",horizontal,"(390.0, 262.0)",[1.2666666666666666],[0.523],1,2088.455
3,False,168,0.804,48,[],[],"[(1111, 871)]",[],[1],[35],[0.5833333333333334],"[640.0, 512.0]",vertical,"(390.0, 762.0)",[1.2833333333333332],[0.55],1,2102.562
3,False,169,1.182,70,[],[],"[(1116, 870)]",[],[1],[32],[0.5333333333333333],"[640.0, 512.0]",vertical,"(390.0, 262.0)",[1.5],[0.496],1,2107.236
3,False,170,0.763,45,[],[],"[(1153, 889)]",[],[1],[34],[0.5666666666666667],"[640.0, 512.0]",horizontal,"(390.0, 262.0)",[0.85],[0.53],1,2112.267
3,False,171,1.111,66,[],[],"[(1143, 878)]",[],[1],[51],[0.85],"[640.0, 512.0]",vertical,"(890.0, 262.0)",[1.6166666666666667],[0.809],0,2118.057
3,False,172,0.914,54,[],[],"[(1172, 889)]",[],[1],[36],[0.6],"[640.0, 512.0]",vertical,"(390.0, 762.0)",[1.2],[0.565],1,2123.539
3,False,173,1.198,71,[],[],"[(1160, 864)]",[],[1],[38],[0.6333333333333333],"[640.0, 512.0]",horizontal,"(390.0, 762.0)",[1.65],[0.598],1,2128.266
3,False,174,0.5,30,[],[],"[(1117, 864)]",[],[1],[33],[0.55],"[640.0, 512.0]",vertical,"(390.0, 262.0)",[1.1833333333333333],[0.508],1,2133.579
3,False,175,0.74,44,[],[],"[(1144, 886)]",[],[1],[34],[0.5666666666666667],"[640.0, 512.0]",vertical,"(390.0, 762.0)",[0.9833333333333333],[0.527],1,2137.752
3,False,176,0.531,31,[],[],"[(1164, 883)]",[],[1],[33],[0.55],"[640.0, 512.0]",horizontal,"(390.0, 262.0)",[1.6833333333333333],[0.511],1,2142.372
3,False,177,0.863,51,[],[],"[(1118, 880)]",[],[1],[33],[0.55],"[640.0, 512.0]",vertical,"(390.0, 262.0)",[0.6333333333333333],[0.512],1,2147.063
3,False,178,0.977,58,[],[],"[(1122, 875)]",[],[1],[36],[0.6],"[640.0, 512.0]",vertical,"(890.0, 762.0)",[1.5666666666666667],[0.562],1,2150.985
3,False,179,0.734,44,[],[],"[(1130, 879)]",[],[1],[33],[0.55],"[640.0, 512.0]",vertical,"(390.0, 762.0)",[1.45],[0.516],1,2156.072
3,False,180,0.673,40,[],[],"[(1153, 868)]",[],[1],[33],[0.55],"[640.0, 512.0]",vertical,"(890.0, 262.0)",[0.85],[0.51],1,2160.805
4,False,181,1.186,71,[],[],"[(1143, 866)]",[],[1],[31],[0.5166666666666666],"[640.0, 512.0]",horizontal,"(390.0, 762.0)",[1.3333333333333333],[0.476],1,2164.687
4,False,182,1.146,68,[],[],"[(1114, 870)]",[],[1],[35],[0.5833333333333334],"[640.0, 512.0]",horizontal,"(890.0, 262.0)",[1.5833333333333333],[0.548],1,2169.582
4,False,183,0.864,51,[],[],"[(1174, 874)]",[],[1],[35],[0.5833333333333334],"[640.0, 512.0]",horizontal,"(890.0, 262.0)",[1.1833333333333333],[0.546],1,2174.783
4,False,184,0.672,40,[],[],"[(1173, 880)]",[],[1],[41],[0.6833333333333333],"[640.0, 512.0]",horizontal,"(890.0, 762.0)",[1.4],[0.641],1,2179.352
4,False,185,1.02,61,[],[],"[(1146, 874)]",[],[1],[28],[0.4666666666666667],"[640.0, 512.0]",vertical,"(390.0, 262.0)",[1.6],[0.427],1,2184.034
4,False,186,1.161,69,[],[],"[(1136, 876)]",[],[1],[35],[0.5833333333333334],"[640.0, 512.0]",horizontal,"(390.0, 762.0)",[0.5666666666666667],[0.545],1,2189.02
4,False,187,0.941,56,[],[],"[(1117, 872)]",[],[1],[38],[0.6333333333333333],"[640.0, 512.0]",horizontal,"(390.0, 262.0)",[1.05],[0.595],1,2193.377
4,False,188,0.866,51,[],[],"[(1097, 879)]",[],[1],[40],[0.6666666666666666],"[640.0, 512.0]",horizontal,"(390.0, 762.0)",[0.5833333333333334],[0.624],1,2197.918
4,False,189,0.859,51,[],[],"[(1124, 879)]",[],[1],[47],[0.7833333333333333],"[640.0, 512.0]",horizontal,"(390.0, 762.0)",[0.7666666666666666],[0.747],1,2201.918
4,False,190,0.588,35,[],[],"[(1105, 888)]",[],[1],[33],[0.55],"[640.0, 512.0]",horizontal,"(890.0, 262.0)",[0.95],[0.508],1,2206.383
4,False,191,0.547,32,[],[],"[(1143, 884)]",[],[1],[38],[0.6333333333333333],"[640.0, 512.0]",vertical,"(890.0, 762.0)",[0.8333333333333334],[0.598],1,2210.351
4,False,192,0.608,36,[],[],"[(1142, 876)]",[],[1],[33],[0.55],"[640.0, 512.0]",horizontal,"(390.0, 762.0)",[1.3],[0.507],1,2214.319
4,False,193,1.08,64,[],[],"[(1118, 877)]",[],[1],[35],[0.5833333333333334],"[640.0, 512.0]",vertical,"(890.0, 762.0)",[1.45],[0.553],1,2218.785
4,False,194,0.595,35,[],[],"[(1093, 880)]",[],[1],[34],[0.5666666666666667],"[640.0, 512.0]",horizontal,"(890.0, 762.0)",[1.0333333333333332],[0.529],1,2223.757
4,False,195,1.165,69,[],[],"[(1121, 867)]",[],[1],[33],[0.55],"[640.0, 512.0]",vertical,"(890.0, 762.0)",[0.8],[0.51],1,2227.815
4,False,196,0.908,54,[],[],"[(1137, 882)]",[],[1],[35],[0.5833333333333334],"[640.0, 512.0]",vertical,"(890.0, 762.0)",[1.4333333333333333],[0.543],1,2232.134
4,False,197,0.74,44,[],[],"[(1142, 876)]",[],[1],[34],[0.5666666666666667],"[640.0, 512.0]",horizontal,"(890.0, 262.0)",[1.2],[0.53],1,2236.985
4,False,198,0.672,40,[],[],"[(1118, 869)]",[],[1],[35],[0.5833333333333334],"[640.0, 512.0]",vertical,"(890.0, 762.0)",[1.5166666666666666],[0.548],1,2241.492
4,False,199,0.844,50,[],[],"[(1144, 884)]",[],[1],[34],[0.5666666666666667],"[640.0, 512.0]",vertical,"(890.0, 762.0)",[0.55],[0.529],1,2246.22
4,False,200,0.611,36,[],[],"[(1144, 874)]",[],[1],[34],[0.5666666666666667],"[640.0, 512.0]",horizontal,"(390.0, 762.0)",[1.35],[0.526],1,2250.05
4,False,201,1.079,64,[],[],"[(1143, 872)]",[],[1],[32],[0.5333333333333333],"[640.0, 512.0]",vertical,"(890.0, 762.0)",[0.8],[0.495],1,2254.531
4,False,202,0.555,33,[],[],"[(1121, 866)]",[],[1],[35],[0.5833333333333334],"[640.0, 512.0]",horizontal,"(390.0, 762.0)",[1.0833333333333333],[0.542],1,2258.85
4,False,203,0.787,47,[],[],"[(1153, 884)]",[],[1],[34],[0.5666666666666667],"[640.0, 512.0]",vertical,"(390.0, 762.0)",[1.2166666666666666],[0.527],1,2262.963
4,False,204,1.037,62,[],[],"[(1151, 874)]",[],[1],[35],[0.5833333333333334],"[640.0, 512.0]",vertical,"(890.0, 762.0)",[1.2333333333333334],[0.542],1,2267.489
4,False,205,1.123,67,[],[],"[(1142, 869)]",[],[1],[39],[0.65],"[640.0, 512.0]",vertical,"(890.0, 262.0)",[1.1166666666666667],[0.608],1,2272.251
4,False,206,0.853,51,[],[],"[(1141, 876)]",[],[1],[45],[0.75],"[640.0, 512.0]",horizontal,"(890.0, 262.0)",[1.05],[0.705],1,2277.118
4,False,207,1.009,60,[],[],"[(1115, 868)]",[],[1],[35],[0.5833333333333334],"[640.0, 512.0]",vertical,"(890.0, 262.0)",[0.6166666666666667],[0.544],1,2281.647
4,False,208,0.56,33,[],[],"[(1156, 880)]",[],[1],[36],[0.6],"[640.0, 512.0]",horizontal,"(890.0, 762.0)",[0.75],[0.558],1,2285.725
4,False,209,0.869,52,[],[],"[(1121, 879)]",[],[1],[40],[0.6666666666666666],"[640.0, 512.0]",horizontal,"(890.0, 262.0)",[1.0],[0.622],1,2289.553
4,False,210,1.074,64,[],[],"[(1148, 872)]",[],[1],[34],[0.5666666666666667],"[640.0, 512.0]",horizontal,"(890.0, 762.0)",[1.2],[0.533],1,2294.097
4,False,211,1.039,62,[],[],"[(1118, 884)]",[],[1],[39],[0.65],"[640.0, 512.0]",vertical,"(890.0, 762.0)",[1.0833333333333333],[0.613],1,2299.536
4,False,212,0.579,34,[],[],"[(1105, 854)]",[],[1],[36],[0.6],"[640.0, 512.0]",horizontal,"(890.0, 762.0)",[1.4333333333333333],[0.563],1,2304.344
4,False,213,0.66,39,[],[],"[(1153, 851)]",[],[1],[33],[0.55],"[640.0, 512.0]",horizontal,"(390.0, 262.0)",[1.55],[0.514],1,2308.819
4,False,214,0.857,51,[],[],"[(1158, 872)]",[],[1],[33],[0.55],"[640.0, 512.0]",horizontal,"(390.0, 762.0)",[0.7333333333333333],[0.509],1,2313.505
4,False,215,1.021,61,[],[],"[(1105, 857)]",[],[1],[35],[0.5833333333333334],"[640.0, 512.0]",vertical,"(390.0, 762.0)",[0.65],[0.546],1,2317.592
4,False,216,1.01,60,[],[],"[(1123, 857)]",[],[1],[37],[0.6166666666666667],"[640.0, 512.0]",horizontal,"(890.0, 762.0)",[1.1166666666666667],[0.571],1,2321.793
4,False,217,1.068,64,[],[],"[(1113, 884)]",[],[1],[35],[0.5833333333333334],"[640.0, 512.0]",vertical,"(890.0, 762.0)",[0.5333333333333333],[0.542],1,2326.403
4,False,218,0.597,35,[],[],"[(1105, 884)]",[],[1],[40],[0.6666666666666666],"[640.0, 512.0]",vertical,"(890.0, 762.0)",[1.1166666666666667],[0.625],1,2330.447
4,False,219,0.749,44,[],[],"[(1105, 864)]",[],[1],[33],[0.55],"[640.0, 512.0]",horizontal,"(890.0, 262.0)",[1.4333333333333333],[0.515],1,2334.821
4,False,220,0.907,54,[],[],"[(1155, 862)]",[],[1],[35],[0.5833333333333334],"[640.0, 512.0]",vertical,"(390.0, 262.0)",[1.1],[0.539],1,2339.415
4,False,221,0.556,33,[],[],"[(1110, 866)]",[],[1],[34],[0.5666666666666667],"[640.0, 512.0]",horizontal,"(890.0, 762.0)",[0.5833333333333334],[0.525],1,2343.902
4,False,222,0.824,49,[],[],"[(1110, 859)]",[],[1],[44],[0.7333333333333333],"[640.0, 512.0]",horizontal,"(390.0, 762.0)",[1.1333333333333333],[0.685],1,2347.457
4,False,223,1.064,63,[],[],"[(1099, 870)]",[],[1],[35],[0.5833333333333334],"[640.0, 512.0]",horizontal,"(890.0, 762.0)",[0.9666666666666667],[0.543],1,2352.072
4,False,224,0.786,47,[],[],"[(1153, 878)]",[],[1],[36],[0.6],"[640.0, 512.0]",vertical,"(390.0, 762.0)",[1.25],[0.554],1,2356.508
4,False,225,0.725,43,[],[],"[(1143, 884)]",[],[1],[34],[0.5666666666666667],"[640.0, 512.0]",horizontal,"(890.0, 762.0)",[0.6833333333333333],[0.522],1,2360.984
4,False,226,0.541,32,[],[],"[(1107, 861)]",[],[1],[31],[0.5166666666666666],"[640.0, 512.0]",horizontal,"(890.0, 262.0)",[0.9833333333333333],[0.474],1,2364.835
4,False,227,1.17,70,[],[],"[(1154, 879)]",[],[1],[51],[0.85],"[640.0, 512.0]",horizontal,"(390.0, 262.0)",[1.6666666666666667],[0.803],0,2368.738
4,False,228,0.73,43,[],[],"[(1184, 903)]",[],[1],[35],[0.5833333333333334],"[640.0, 512.0]",vertical,"(390.0, 262.0)",[0.9666666666666667],[0.542],1,2374.259
4,False,229,1.14,68,[],[],"[(1105, 854)]",[],[1],[40],[0.6666666666666666],"[640.0, 512.0]",vertical,"(890.0, 762.0)",[1.0],[0.615],1,2391.289
4,False,230,0.688,41,[],[],"[(1151, 862)]",[],[1],[34],[0.5666666666666667],"[640.0, 512.0]",vertical,"(890.0, 262.0)",[0.9],[0.525],1,2395.987
4,False,231,0.955,57,[],[],"[(1166, 888)]",[],[1],[34],[0.5666666666666667],"[640.0, 512.0]",horizontal,"(390.0, 262.0)",[1.25],[0.523],1,2400.019
4,False,232,1.066,63,[],[],"[(1111, 880)]",[],[1],[33],[0.55],"[640.0, 512.0]",horizontal,"(390.0, 262.0)",[1.2166666666666666],[0.507],1,2404.629
4,False,233,1.15,69,[],[],"[(1130, 884)]",[],[1],[33],[0.55],"[640.0, 512.0]",horizontal,"(390.0, 262.0)",[0.5833333333333334],[0.509],1,2409.272
4,False,234,1.139,68,[],[],"[(1141, 888)]",[],[1],[51],[0.85],"[640.0, 512.0]",vertical,"(390.0, 262.0)",[0.5833333333333334],[0.799],0,2413.432
4,False,235,0.529,31,[],[],"[(1160, 868)]",[],[1],[38],[0.6333333333333333],"[640.0, 512.0]",vertical,"(890.0, 762.0)",[1.4666666666666666],[0.591],1,2418.07
4,False,236,1.139,68,[],[],"[(1134, 887)]",[],[1],[35],[0.5833333333333334],"[640.0, 512.0]",horizontal,"(890.0, 762.0)",[0.5333333333333333],[0.543],1,2422.617
4,False,237,0.559,33,[],[],"[(1128, 886)]",[],[1],[37],[0.6166666666666667],"[640.0, 512.0]",vertical,"(890.0, 762.0)",[1.5333333333333332],[0.575],1,2428.002
4,False,238,1.047,62,[],[],"[(1099, 860)]",[],[1],[35],[0.5833333333333334],"[640.0, 512.0]",vertical,"(890.0, 762.0)",[0.5833333333333334],[0.537],1,2432.634
4,False,239,0.831,49,[],[],"[(1124, 888)]",[],[1],[35],[0.5833333333333334],"[640.0, 512.0]",horizontal,"(890.0, 762.0)",[1.1166666666666667],[0.551],1,2436.715
4,False,240,0.777,46,[],[],"[(1105, 888)]",[],[1],[34],[0.5666666666666667],"[640.0, 512.0]",vertical,"(890.0, 762.0)",[0.75],[0.533],1,2441.251
5,False,241,1.084,65,[],[],"[(1099, 876)]",[],[1],[36],[0.6],"[640.0, 512.0]",vertical,"(390.0, 262.0)",[0.5],[0.557],1,2445.349
5,False,242,0.547,32,[],[],"[(1103, 876)]",[],[1],[30],[0.5],"[640.0, 512.0]",vertical,"(890.0, 262.0)",[1.6],[0.46],1,2449.468
5,False,243,0.983,58,[],[],"[(1087, 911)]",[],[1],[46],[0.7666666666666666],"[640.0, 512.0]",horizontal,"(390.0, 762.0)",[1.0666666666666667],[0.72],1,2454.012
5,False,244,0.566,33,[],[],"[(1100, 872)]",[],[1],[39],[0.65],"[640.0, 512.0]",horizontal,"(890.0, 262.0)",[0.7],[0.605],1,2458.818
5,False,245,0.564,33,[],[],"[(1101, 882)]",[],[1],[33],[0.55],"[640.0, 512.0]",vertical,"(390.0, 762.0)",[0.9],[0.512],1,2462.735
5,False,246,0.971,58,[],[],"[(1105, 881)]",[],[1],[32],[0.5333333333333333],"[640.0, 512.0]",horizontal,"(390.0, 262.0)",[1.1],[0.494],1,2466.787
5,False,247,0.952,57,[],[],"[(1100, 876)]",[],[1],[35],[0.5833333333333334],"[640.0, 512.0]",vertical,"(890.0, 762.0)",[1.5],[0.539],1,2472.603
5,False,248,0.739,44,[],[],"[(1123, 879)]",[],[1],[37],[0.6166666666666667],"[640.0, 512.0]",vertical,"(390.0, 262.0)",[0.9666666666666667],[0.576],1,2477.546
5,False,249,0.925,55,[],[],"[(1099, 870)]",[],[1],[44],[0.7333333333333333],"[640.0, 512.0]",vertical,"(890.0, 762.0)",[1.4],[0.687],1,2481.759
5,False,250,0.575,34,[],[],"[(1099, 885)]",[],[1],[35],[0.5833333333333334],"[640.0, 512.0]",vertical,"(390.0, 762.0)",[0.5],[0.542],1,2486.734
5,False,251,0.659,39,[],[],"[(1093, 884)]",[],[1],[39],[0.65],"[640.0, 512.0]",horizontal,"(390.0, 262.0)",[0.8333333333333334],[0.608],1,2490.271
5,False,252,0.792,47,[],[],"[(1124, 888)]",[],[1],[36],[0.6],"[640.0, 512.0]",horizontal,"(390.0, 762.0)",[1.1],[0.558],1,2494.273
5,False,253,0.638,38,[],[],"[(1081, 898)]",[],[1],[42],[0.7],"[640.0, 512.0]",vertical,"(390.0, 762.0)",[1.1833333333333333],[0.66],1,2498.604
5,False,254,0.602,36,[],[],"[(1142, 891)]",[],[1],[35],[0.5833333333333334],"[640.0, 512.0]",horizontal,"(390.0, 262.0)",[1.6166666666666667],[0.536],1,2502.955
5,False,255,0.755,45,[],[],"[(1098, 876)]",[],[1],[35],[0.5833333333333334],"[640.0, 512.0]",vertical,"(390.0, 262.0)",[0.6833333333333333],[0.541],1,2507.822
5,False,256,0.6,36,[],[],"[(1088, 892)]",[],[1],[34],[0.5666666666666667],"[640.0, 512.0]",horizontal,"(390.0, 762.0)",[1.1],[0.528],1,2511.7
5,False,257,0.868,52,[],[],"[(1148, 895)]",[],[1],[34],[0.5666666666666667],"[640.0, 512.0]",horizontal,"(890.0, 262.0)",[0.6666666666666666],[0.525],1,2515.959
5,False,258,0.615,36,[],[],"[(1118, 873)]",[],[1],[35],[0.5833333333333334],"[640.0, 512.0]",vertical,"(390.0, 262.0)",[0.7833333333333333],[0.547],1,2519.846
5,False,259,1.022,61,[],[],"[(1094, 910)]",[],[1],[42],[0.7],"[640.0, 512.0]",vertical,"(890.0, 762.0)",[1.25],[0.657],1,2523.812
5,False,260,0.926,55,[],[],"[(1096, 855)]",[],[1],[33],[0.55],"[640.0, 512.0]",vertical,"(390.0, 762.0)",[1.3166666666666667],[0.511],1,2528.795
5,False,261,1.022,61,[],[],"[(1104, 872)]",[],[1],[33],[0.55],"[640.0, 512.0]",vertical,"(390.0, 262.0)",[1.6833333333333333],[0.507],1,2533.444
5,False,262,0.629,37,[],[],"[(1103, 864)]",[],[1],[34],[0.5666666666666667],"[640.0, 512.0]",vertical,"(390.0, 262.0)",[1.2166666666666666],[0.529],1,2538.485
5,False,263,0.779,46,[],[],"[(1105, 880)]",[],[1],[34],[0.5666666666666667],"[640.0, 512.0]",horizontal,"(890.0, 262.0)",[1.4833333333333334],[0.524],1,2542.849
5,False,264,0.532,31,[],[],"[(1100, 879)]",[],[1],[41],[0.6833333333333333],"[640.0, 512.0]",vertical,"(390.0, 762.0)",[1.1666666666666667],[0.646],1,2547.645
5,False,265,0.931,55,[],[],"[(1099, 879)]",[],[1],[34],[0.5666666666666667],"[640.0, 512.0]",horizontal,"(890.0, 262.0)",[1.35],[0.523],1,2551.947
5,False,266,0.515,30,[],[],"[(1098, 865)]",[],[1],[35],[0.5833333333333334],"[640.0, 512.0]",horizontal,"(390.0, 262.0)",[0.8166666666666667],[0.537],1,2556.679
5,False,267,1.07,64,[],[],"[(1099, 864)]",[],[1],[39],[0.65],"[640.0, 512.0]",vertical,"(390.0, 762.0)",[1.2833333333333332],[0.62],1,2560.557
5,False,268,1.159,69,[],[],"[(1114, 893)]",[],[1],[44],[0.7333333333333333],"[640.0, 512.0]",horizontal,"(890.0, 262.0)",[1.6666666666666667],[0.69],1,2565.514
5,False,269,1.028,61,[],[],"[(1109, 874)]",[],[1],[38],[0.6333333333333333],"[640.0, 512.0]",horizontal,"(890.0, 762.0)",[0.9666666666666667],[0.597],1,2570.834
5,False,270,0.764,45,[],[],"[(1119, 863)]",[],[1],[34],[0.5666666666666667],"[640.0, 512.0]",horizontal,"(390.0, 762.0)",[1.35],[0.525],1,2575.402
5,False,271,0.555,33,[],[],"[(1121, 875)]",[],[1],[35],[0.5833333333333334],"[640.0, 512.0]",horizontal,"(890.0, 762.0)",[0.6666666666666666],[0.541],1,2580.01
5,False,272,1.051,63,[],[],"[(1116, 878)]",[],[1],[32],[0.5333333333333333],"[640.0, 512.0]",horizontal,"(390.0, 762.0)",[1.3166666666666667],[0.493],1,2583.67
5,False,273,0.732,43,[],[],"[(1120, 874)]",[],[1],[33],[0.55],"[640.0, 512.0]",horizontal,"(890.0, 762.0)",[1.6666666666666667],[0.511],1,2588.484
5,False,274,1.147,68,[],[],"[(1076, 898)]",[],[1],[33],[0.55],"[640.0, 512.0]",horizontal,"(890.0, 762.0)",[0.7333333333333333],[0.508],1,2593.456
5,False,275,1.104,66,[],[],"[(1164, 872)]",[],[1],[31],[0.5166666666666666],"[640.0, 512.0]",vertical,"(890.0, 262.0)",[0.7166666666666667],[0.478],1,2598.033
5,False,276,0.601,36,[],[],"[(1117, 879)]",[],[1],[33],[0.55],"[640.0, 512.0]",vertical,"(890.0, 262.0)",[0.5833333333333334],[0.51],1,2638.378
5,False,277,0.799,47,[],[],"[(1105, 873)]",[],[1],[35],[0.5833333333333334],"[640.0, 512.0]",horizontal,"(390.0, 262.0)",[1.4833333333333334],[0.541],1,2642.065
5,False,278,0.88,52,[],[],"[(1105, 881)]",[],[1],[46],[0.7666666666666666],"[640.0, 512.0]",vertical,"(390.0, 262.0)",[0.6666666666666666],[0.721],1,2646.77
5,False,279,0.604,36,[],[],"[(1105, 880)]",[],[1],[36],[0.6],"[640.0, 512.0]",vertical,"(890.0, 762.0)",[1.4666666666666666],[0.559],1,2650.984
5,False,280,0.576,34,[],[],"[(1147, 889)]",[],[1],[40],[0.6666666666666666],"[640.0, 512.0]",horizontal,"(390.0, 762.0)",[1.0833333333333333],[0.624],1,2655.458
5,False,281,0.824,49,[],[],"[(1095, 892)]",[],[1],[36],[0.6],"[640.0, 512.0]",horizontal,"(890.0, 262.0)",[1.0666666666666667],[0.563],1,2659.65
5,False,282,0.586,35,[],[],"[(1143, 890)]",[],[1],[34],[0.5666666666666667],"[640.0, 512.0]",vertical,"(390.0, 762.0)",[1.2],[0.525],1,2663.948
5,False,283,0.794,47,[],[],"[(1115, 869)]",[],[1],[44],[0.7333333333333333],"[640.0, 512.0]",horizontal,"(390.0, 262.0)",[0.9],[0.695],1,2668.1
5,False,284,0.829,49,[],[],"[(1099, 885)]",[],[1],[41],[0.6833333333333333],"[640.0, 512.0]",vertical,"(890.0, 262.0)",[1.0166666666666666],[0.642],1,2672.445
5,False,285,0.703,42,[],[],"[(1098, 866)]",[],[1],[33],[0.55],"[640.0, 512.0]",vertical,"(890.0, 262.0)",[0.7333333333333333],[0.508],1,2677.031
5,False,286,0.741,44,[],[],"[(1158, 869)]",[],[1],[51],[0.85],"[640.0, 512.0]",horizontal,"(390.0, 262.0)",[1.4166666666666667],[0.816],0,2680.929
5,False,287,0.584,35,[],[],"[(1168, 896)]",[],[1],[33],[0.55],"[640.0, 512.0]",horizontal,"(890.0, 262.0)",[1.5833333333333333],[0.509],1,2685.804
5,False,288,1.045,62,[],[],"[(1130, 872)]",[],[1],[36],[0.6],"[640.0, 512.0]",vertical,"(390.0, 762.0)",[0.5833333333333334],[0.561],1,2691.264
5,False,289,0.55,33,[],[],"[(1136, 850)]",[],[1],[38],[0.6333333333333333],"[640.0, 512.0]",vertical,"(890.0, 262.0)",[0.9166666666666666],[0.593],1,2695.472
5,False,290,0.765,45,[],[],"[(1112, 874)]",[],[1],[31],[0.5166666666666666],"[640.0, 512.0]",horizontal,"(890.0, 262.0)",[1.55],[0.474],1,2699.501
5,False,291,0.711,42,[],[],"[(1148, 884)]",[],[1],[31],[0.5166666666666666],"[640.0, 512.0]",vertical,"(390.0, 762.0)",[1.3833333333333333],[0.476],1,2704.236
5,False,292,0.645,38,[],[],"[(1130, 872)]",[],[1],[35],[0.5833333333333334],"[640.0, 512.0]",vertical,"(390.0, 762.0)",[1.35],[0.542],1,2708.7
5,False,293,0.539,32,[],[],"[(1110, 883)]",[],[1],[33],[0.55],"[640.0, 512.0]",vertical,"(890.0, 762.0)",[0.5333333333333333],[0.517],1,2713.284
5,False,294,1.008,60,[],[],"[(1156, 867)]",[],[1],[31],[0.5166666666666666],"[640.0, 512.0]",horizontal,"(890.0, 262.0)",[1.2833333333333332],[0.479],1,2716.817
5,False,295,0.96,57,[],[],"[(1151, 860)]",[],[1],[36],[0.6],"[640.0, 512.0]",horizontal,"(390.0, 762.0)",[0.8833333333333333],[0.556],1,2721.668
5,False,296,0.712,42,[],[],"[(1120, 866)]",[],[1],[35],[0.5833333333333334],"[640.0, 512.0]",vertical,"(890.0, 262.0)",[1.2833333333333332],[0.544],1,2726.023
5,False,297,0.866,51,[],[],"[(1095, 874)]",[],[1],[42],[0.7],"[640.0, 512.0]",horizontal,"(890.0, 762.0)",[1.4333333333333333],[0.661],1,2730.59
5,False,298,1.19,71,[],[],"[(1121, 882)]",[],[1],[35],[0.5833333333333334],"[640.0, 512.0]",horizontal,"(390.0, 762.0)",[0.95],[0.54],1,2735.633
5,False,299,0.668,40,[],[],"[(1136, 884)]",[],[1],[35],[0.5833333333333334],"[640.0, 512.0]",horizontal,"(890.0, 762.0)",[0.9833333333333333],[0.554],1,2740.261
5,False,300,0.924,55,[],[],"[(1109, 854)]",[],[1],[37],[0.6166666666666667],"[640.0, 512.0]",horizontal,"(390.0, 762.0)",[1.6833333333333333],[0.574],1,2744.437
6,False,301,0.696,41,[],[],"[(1158, 888)]",[],[1],[51],[0.85],"[640.0, 512.0]",vertical,"(390.0, 762.0)",[1.1333333333333333],[0.802],0,2749.514
6,False,302,0.822,49,[],[],"[(1136, 853)]",[],[1],[34],[0.5666666666666667],"[640.0, 512.0]",vertical,"(390.0, 762.0)",[1.0166666666666666],[0.533],1,2757.173
6,False,303,0.737,44,[],[],"[(1142, 876)]",[],[1],[33],[0.55],"[640.0, 512.0]",horizontal,"(890.0, 262.0)",[1.05],[0.508],1,2761.845
6,False,304,0.539,32,[],[],"[(1123, 869)]",[],[1],[32],[0.5333333333333333],"[640.0, 512.0]",horizontal,"(890.0, 262.0)",[0.7833333333333333],[0.491],1,2766.122
6,False,305,0.526,31,[],[],"[(1110, 874)]",[],[1],[36],[0.6],"[640.0, 512.0]",vertical,"(390.0, 762.0)",[1.1666666666666667],[0.558],1,2769.876
6,False,306,1.142,68,[],[],"[(1133, 884)]",[],[1],[39],[0.65],"[640.0, 512.0]",horizontal,"(890.0, 762.0)",[1.6],[0.617],1,2774.033
6,False,307,0.529,31,[],[],"[(1168, 855)]",[],[1],[33],[0.55],"[640.0, 512.0]",horizontal,"(890.0, 262.0)",[0.85],[0.512],1,2779.336
6,False,308,0.663,39,[],[],"[(1179, 873)]",[],[1],[36],[0.6],"[640.0, 512.0]",vertical,"(390.0, 262.0)",[1.4833333333333334],[0.556],1,2783.133
6,False,309,1.022,61,[],[],"[(1172, 872)]",[],[1],[43],[0.7166666666666667],"[640.0, 512.0]",horizontal,"(390.0, 262.0)",[0.7333333333333333],[0.68],1,2787.88
6,False,310,1.11,66,[],[],"[(1118, 888)]",[],[1],[30],[0.5],"[640.0, 512.0]",horizontal,"(890.0, 262.0)",[0.8166666666666667],[0.461],1,2792.353
6,False,311,0.704,42,[],[],"[(1153, 879)]",[],[1],[34],[0.5666666666666667],"[640.0, 512.0]",vertical,"(890.0, 762.0)",[1.2333333333333334],[0.531],1,2798.109
6,False,312,0.701,42,[],[],"[(1131, 876)]",[],[1],[35],[0.5833333333333334],"[640.0, 512.0]",horizontal,"(890.0, 762.0)",[1.6333333333333333],[0.539],1,2802.619
6,False,313,0.609,36,[],[],"[(1128, 876)]",[],[1],[35],[0.5833333333333334],"[640.0, 512.0]",horizontal,"(390.0, 262.0)",[1.3],[0.548],1,2807.501
6,False,314,0.794,47,[],[],"[(1122, 866)]",[],[1],[32],[0.5333333333333333],"[640.0, 512.0]",horizontal,"(390.0, 262.0)",[1.1166666666666667],[0.494],1,2811.887
6,False,315,1.108,66,[],[],"[(1184, 877)]",[],[1],[34],[0.5666666666666667],"[640.0, 512.0]",horizontal,"(390.0, 262.0)",[1.2333333333333334],[0.524],1,2816.165
6,False,316,1.087,65,[],[],"[(1175, 864)]",[],[1],[36],[0.6],"[640.0, 512.0]",horizontal,"(390.0, 262.0)",[1.0166666666666666],[0.558],1,2820.924
6,False,317,0.986,59,[],[],"[(1154, 844)]",[],[1],[35],[0.5833333333333334],"[640.0, 512.0]",horizontal,"(390.0, 762.0)",[1.5166666666666666],[0.537],1,2825.622
6,False,318,0.89,53,[],[],"[(1184, 885)]",[],[1],[33],[0.55],"[640.0, 512.0]",vertical,"(390.0, 762.0)",[1.6833333333333333],[0.508],1,2830.666
6,False,319,0.621,37,[],[],"[(1160, 873)]",[],[1],[34],[0.5666666666666667],"[640.0, 512.0]",horizontal,"(890.0, 762.0)",[0.9666666666666667],[0.529],1,2835.74
6,False,320,0.845,50,[],[],"[(1148, 860)]",[],[1],[35],[0.5833333333333334],"[640.0, 512.0]",vertical,"(390.0, 262.0)",[1.05],[0.539],1,2839.735
6,False,321,1.022,61,[],[],"[(1177, 889)]",[],[1],[40],[0.6666666666666666],"[640.0, 512.0]",vertical,"(890.0, 762.0)",[0.5333333333333333],[0.623],1,2844.243
6,False,322,1.122,67,[],[],"[(1182, 867)]",[],[1],[42],[0.7],"[640.0, 512.0]",vertical,"(890.0, 262.0)",[0.6],[0.653],1,2848.405
6,False,323,0.646,38,[],[],"[(1153, 862)]",[],[1],[42],[0.7],"[640.0, 512.0]",vertical,"(390.0, 762.0)",[0.6333333333333333],[0.651],1,2853.768
6,False,324,0.744,44,[],[],"[(1136, 858)]",[],[1],[38],[0.6333333333333333],"[640.0, 512.0]",horizontal,"(390.0, 762.0)",[0.8833333333333333],[0.594],1,2857.612
6,False,325,0.94,56,[],[],"[(1117, 882)]",[],[1],[34],[0.5666666666666667],"[640.0, 512.0]",vertical,"(390.0, 262.0)",[0.6],[0.529],1,2861.77
6,False,326,0.586,35,[],[],"[(1136, 872)]",[],[1],[35],[0.5833333333333334],"[640.0, 512.0]",horizontal,"(890.0, 262.0)",[0.5],[0.536],1,2865.887
6,False,327,0.557,33,[],[],"[(1172, 890)]",[],[1],[39],[0.65],"[640.0, 512.0]",horizontal,"(390.0, 262.0)",[0.6666666666666666],[0.607],1,2869.449
6,False,328,0.528,31,[],[],"[(1152, 879)]",[],[1],[35],[0.5833333333333334],"[640.0, 512.0]",horizontal,"(390.0, 762.0)",[1.5833333333333333],[0.537],1,2873.327
6,False,329,0.945,56,[],[],"[(1178, 882)]",[],[1],[31],[0.5166666666666666],"[640.0, 512.0]",vertical,"(390.0, 262.0)",[0.65],[0.481],1,2878.019
6,False,330,0.506,30,[],[],"[(1153, 881)]",[],[1],[36],[0.6],"[640.0, 512.0]",vertical,"(390.0, 262.0)",[0.7666666666666666],[0.554],1,2881.945
6,False,331,0.768,46,[],[],"[(1118, 876)]",[],[1],[38],[0.6333333333333333],"[640.0, 512.0]",vertical,"(390.0, 262.0)",[0.9666666666666667],[0.59],1,2885.669
6,False,332,0.912,54,[],[],"[(1142, 891)]",[],[1],[33],[0.55],"[640.0, 512.0]",vertical,"(390.0, 762.0)",[1.1666666666666667],[0.513],1,2890.001
6,False,333,0.718,43,[],[],"[(1172, 868)]",[],[1],[36],[0.6],"[640.0, 512.0]",horizontal,"(390.0, 762.0)",[1.65],[0.555],1,2894.568
6,False,334,1.088,65,[],[],"[(1126, 879)]",[],[1],[35],[0.5833333333333334],"[640.0, 512.0]",vertical,"(390.0, 262.0)",[0.6166666666666667],[0.541],1,2899.382
6,False,335,0.674,40,[],[],"[(1170, 872)]",[],[1],[34],[0.5666666666666667],"[640.0, 512.0]",horizontal,"(890.0, 762.0)",[1.2833333333333332],[0.524],1,2903.488
6,False,336,0.71,42,[],[],"[(1168, 884)]",[],[1],[32],[0.5333333333333333],"[640.0, 512.0]",vertical,"(890.0, 262.0)",[1.3],[0.493],1,2907.962
6,False,337,0.641,38,[],[],"[(1196, 875)]",[],[1],[32],[0.5333333333333333],"[640.0, 512.0]",vertical,"(390.0, 262.0)",[1.4],[0.49],1,2912.441
6,False,338,0.895,53,[],[],"[(1190, 875)]",[],[1],[34],[0.5666666666666667],"[640.0, 512.0]",vertical,"(890.0, 762.0)",[0.7166666666666667],[0.53],1,2916.953
6,False,339,0.776,46,[],[],"[(1151, 860)]",[],[1],[35],[0.5833333333333334],"[640.0, 512.0]",vertical,"(890.0, 762.0)",[0.95],[0.555],1,2920.988
6,False,340,1.183,70,[],[],"[(1152, 858)]",[],[1],[37],[0.6166666666666667],"[640.0, 512.0]",vertical,"(890.0, 262.0)",[1.2666666666666666],[0.571],1,2925.106
6,False,341,0.972,58,[],[],"[(1150, 859)]",[],[1],[40],[0.6666666666666666],"[640.0, 512.0]",vertical,"(890.0, 762.0)",[0.55],[0.621],1,2929.969
6,False,342,0.696,41,[],[],"[(1160, 858)]",[],[1],[43],[0.7166666666666667],"[640.0, 512.0]",horizontal,"(890.0, 762.0)",[1.5666666666666667],[0.67],1,2934.089
6,False,343,0.717,43,[],[],"[(1152, 858)]",[],[1],[31],[0.5166666666666666],"[640.0, 512.0]",vertical,"(390.0, 262.0)",[1.4],[0.478],1,2938.988
6,False,344,1.04,62,[],[],"[(1165, 862)]",[],[1],[34],[0.5666666666666667],"[640.0, 512.0]",horizontal,"(890.0, 262.0)",[1.6166666666666667],[0.526],1,2943.548
6,False,345,0.584,35,[],[],"[(1166, 857)]",[],[1],[40],[0.6666666666666666],"[640.0, 512.0]",vertical,"(890.0, 262.0)",[0.5666666666666667],[0.621],1,2948.718
6,False,346,0.967,58,[],[],"[(1186, 876)]",[],[1],[34],[0.5666666666666667],"[640.0, 512.0]",horizontal,"(390.0, 762.0)",[0.8666666666666667],[0.528],1,2952.431
6,False,347,0.734,44,[],[],"[(1170, 850)]",[],[1],[34],[0.5666666666666667],"[640.0, 512.0]",horizontal,"(890.0, 762.0)",[1.2666666666666666],[0.523],1,2956.704
6,False,348,1.013,60,[],[],"[(1133, 853)]",[],[1],[36],[0.6],"[640.0, 512.0]",vertical,"(890.0, 762.0)",[0.9166666666666666],[0.555],1,2961.165
6,False,349,0.871,52,[],[],"[(1148, 866)]",[],[1],[40],[0.6666666666666666],"[640.0, 512.0]",horizontal,"(390.0, 762.0)",[0.6833333333333333],[0.623],1,2965.544
6,False,350,0.824,49,[],[],"[(1105, 853)]",[],[1],[33],[0.55],"[640.0, 512.0]",horizontal,"(390.0, 262.0)",[1.2333333333333334],[0.51],1,2969.69
6,False,351,0.616,36,[],[],"[(1153, 862)]",[],[1],[33],[0.55],"[640.0, 512.0]",horizontal,"(890.0, 262.0)",[1.3666666666666667],[0.504],1,2974.168
6,False,352,0.799,47,[],[],"[(1150, 859)]",[],[1],[31],[0.5166666666666666],"[640.0, 512.0]",vertical,"(390.0, 762.0)",[0.8333333333333334],[0.478],1,2978.597
6,False,353,1.191,71,[],[],"[(1105, 877)]",[],[1],[36],[0.6],"[640.0, 512.0]",horizontal,"(390.0, 762.0)",[1.15],[0.559],1,2982.558
6,False,354,0.688,41,[],[],"[(1173, 871)]",[],[1],[33],[0.55],"[640.0, 512.0]",vertical,"(890.0, 262.0)",[0.7833333333333333],[0.508],1,2987.429
6,False,355,0.94,56,[],[],"[(1154, 866)]",[],[1],[32],[0.5333333333333333],"[640.0, 512.0]",vertical,"(890.0, 262.0)",[1.5833333333333333],[0.493],1,2991.47
6,False,356,0.669,40,[],[],"[(1123, 867)]",[],[1],[44],[0.7333333333333333],"[640.0, 512.0]",vertical,"(890.0, 762.0)",[0.55],[0.687],1,2996.539
6,False,357,1.188,71,[],[],"[(1165, 855)]",[],[1],[33],[0.55],"[640.0, 512.0]",horizontal,"(890.0, 262.0)",[1.25],[0.512],1,3000.375
6,False,358,0.539,32,[],[],"[(1125, 879)]",[],[1],[32],[0.5333333333333333],"[640.0, 512.0]",vertical,"(890.0, 262.0)",[1.3166666666666667],[0.489],1,3005.295
6,False,359,1.005,60,[],[],"[(1122, 871)]",[],[1],[34],[0.5666666666666667],"[640.0, 512.0]",vertical,"(390.0, 762.0)",[1.2666666666666666],[0.53],1,3009.487
6,False,360,0.592,35,[],[],"[(1153, 861)]",[],[1],[35],[0.5833333333333334],"[640.0, 512.0]",horizontal,"(390.0, 762.0)",[0.9833333333333333],[0.537],1,3014.297
7,False,361,1.147,68,[],[],"[(1154, 861)]",[],[1],[34],[0.5666666666666667],"[640.0, 512.0]",horizontal,"(390.0, 262.0)",[1.0333333333333332],[0.533],1,3018.4
7,False,362,0.548,32,[],[],"[(1136, 882)]",[],[1],[32],[0.5333333333333333],"[640.0, 512.0]",vertical,"(890.0, 262.0)",[0.8666666666666667],[0.495],1,3023.157
7,False,363,1.102,66,[],[],"[(1122, 872)]",[],[1],[36],[0.6],"[640.0, 512.0]",vertical,"(390.0, 262.0)",[0.8666666666666667],[0.559],1,3026.947
7,False,364,0.603,36,[],[],"[(1162, 860)]",[],[1],[34],[0.5666666666666667],"[640.0, 512.0]",horizontal,"(890.0, 762.0)",[0.7166666666666667],[0.522],1,3031.365
7,False,365,0.565,33,[],[],"[(1101, 890)]",[],[1],[34],[0.5666666666666667],"[640.0, 512.0]",horizontal,"(390.0, 762.0)",[0.8666666666666667],[0.526],1,3035.141
7,False,366,0.573,34,[],[],"[(1111, 870)]",[],[1],[33],[0.55],"[640.0, 512.0]",vertical,"(390.0, 262.0)",[1.1833333333333333],[0.508],1,3039.096
7,False,367,0.845,50,[],[],"[(1142, 863)]",[],[1],[42],[0.7],"[640.0, 512.0]",vertical,"(890.0, 762.0)",[0.85],[0.653],1,3043.225
7,False,368,1.007,60,[],[],"[(1149, 864)]",[],[1],[11],[0.18333333333333332],"[640.0, 512.0]",horizontal,"(890.0, 762.0)",[1.3666666666666667],[0.151],1,3047.575
7,False,369,0.841,50,[],[],"[(1166, 863)]",[],[1],[39],[0.65],"[640.0, 512.0]",vertical,"(390.0, 762.0)",[1.1833333333333333],[0.6],1,3051.998
7,False,370,0.739,44,[],[],"[(1158, 859)]",[],[1],[40],[0.6666666666666666],"[640.0, 512.0]",vertical,"(390.0, 262.0)",[1.35],[0.624],1,3056.738
7,False,371,1.163,69,[],[],"[(1194, 852)]",[],[1],[34],[0.5666666666666667],"[640.0, 512.0]",horizontal,"(390.0, 762.0)",[1.25],[0.526],1,3061.432
7,False,372,1.194,71,[],[],"[(1113, 876)]",[],[1],[33],[0.55],"[640.0, 512.0]",vertical,"(390.0, 262.0)",[1.5],[0.511],1,3067.355
7,False,373,1.082,64,[],[],"[(1118, 862)]",[],[1],[],[],"[640.0, 512.0]",vertical,"(390.0, 262.0)",[],[0],0,3072.516
7,False,374,1.045,62,[],[],"[(1183, 872)]",[],[1],[33],[0.55],"[640.0, 512.0]",vertical,"(890.0, 262.0)",[1.4333333333333333],[0.515],1,3076.768
7,False,375,0.508,30,[],[],"[(1168, 866)]",[],[1],[32],[0.5333333333333333],"[640.0, 512.0]",horizontal,"(890.0, 262.0)",[1.5],[0.497],1,3081.821
7,False,376,0.867,52,[],[],"[(1148, 861)]",[],[1],[40],[0.6666666666666666],"[640.0, 512.0]",horizontal,"(390.0, 762.0)",[1.5666666666666667],[0.62],1,3086.29
7,False,377,1.067,64,[],[],"[(1158, 859)]",[],[1],[33],[0.55],"[640.0, 512.0]",horizontal,"(890.0, 762.0)",[0.6333333333333333],[0.513],1,3091.382
7,False,378,0.751,45,[],[],"[(1136, 888)]",[],[1],[33],[0.55],"[640.0, 512.0]",vertical,"(890.0, 762.0)",[0.55],[0.515],1,3095.645
7,False,379,0.608,36,[],[],"[(1146, 891)]",[],[1],[33],[0.55],"[640.0, 512.0]",horizontal,"(390.0, 262.0)",[1.3166666666666667],[0.512],1,3099.549
7,False,380,0.643,38,[],[],"[(1167, 861)]",[],[1],[32],[0.5333333333333333],"[640.0, 512.0]",horizontal,"(890.0, 762.0)",[1.6833333333333333],[0.495],1,3104.076
7,False,381,0.579,34,[],[],"[(1154, 864)]",[],[1],[34],[0.5666666666666667],"[640.0, 512.0]",horizontal,"(890.0, 762.0)",[0.9166666666666666],[0.524],1,3108.884
7,False,382,0.735,44,[],[],"[(1158, 868)]",[],[1],[30],[0.5],"[640.0, 512.0]",vertical,"(390.0, 762.0)",[0.8333333333333334],[0.463],1,3112.844
7,False,383,0.764,45,[],[],"[(1152, 864)]",[],[1],[33],[0.55],"[640.0, 512.0]",horizontal,"(390.0, 262.0)",[0.5],[0.511],1,3116.751
7,False,384,0.743,44,[],[],"[(1113, 884)]",[],[1],[42],[0.7],"[640.0, 512.0]",horizontal,"(390.0, 262.0)",[0.5833333333333334],[0.658],1,3120.544
7,False,385,1.198,71,[],[],"[(1117, 888)]",[],[1],[32],[0.5333333333333333],"[640.0, 512.0]",vertical,"(390.0, 262.0)",[1.55],[0.489],1,3124.436
7,False,386,1.034,62,[],[],"[(1148, 842)]",[],[1],[33],[0.55],"[640.0, 512.0]",horizontal,"(390.0, 762.0)",[0.8166666666666667],[0.51],1,3129.784
7,False,387,1.011,60,[],[],"[(1116, 883)]",[],[1],[33],[0.55],"[640.0, 512.0]",vertical,"(390.0, 762.0)",[1.0166666666666666],[0.509],1,3134.205
7,False,388,0.508,30,[],[],"[(1130, 873)]",[],[1],[39],[0.65],"[640.0, 512.0]",horizontal,"(890.0, 262.0)",[1.0333333333333332],[0.617],1,3139.474
7,False,389,0.668,40,[],[],"[(1146, 868)]",[],[1],[32],[0.5333333333333333],"[640.0, 512.0]",horizontal,"(390.0, 762.0)",[1.2666666666666666],[0.492],1,3143.557
7,False,390,0.744,44,[],[],"[(1150, 859)]",[],[1],[34],[0.5666666666666667],"[640.0, 512.0]",horizontal,"(390.0, 762.0)",[0.8333333333333334],[0.521],1,3148.033
7,False,391,0.671,40,[],[],"[(1142, 869)]",[],[1],[35],[0.5833333333333334],"[640.0, 512.0]",vertical,"(390.0, 762.0)",[1.25],[0.541],1,3152.09
7,False,392,1.184,71,[],[],"[(1157, 866)]",[],[1],[34],[0.5666666666666667],"[640.0, 512.0]",horizontal,"(890.0, 762.0)",[1.4333333333333333],[0.527],1,3156.527
7,False,393,0.931,55,[],[],"[(1148, 872)]",[],[1],[32],[0.5333333333333333],"[640.0, 512.0]",horizontal,"(390.0, 762.0)",[0.9166666666666666],[0.499],1,3161.707
7,False,394,1.047,62,[],[],"[(1155, 873)]",[],[1],[36],[0.6],"[640.0, 512.0]",vertical,"(890.0, 762.0)",[1.35],[0.561],1,3166.06
7,False,395,1.148,68,[],[],"[(1143, 873)]",[],[1],[32],[0.5333333333333333],"[640.0, 512.0]",horizontal,"(890.0, 262.0)",[1.6666666666666667],[0.492],1,3170.989
7,False,396,0.6,36,[],[],"[(1123, 868)]",[],[1],[39],[0.65],"[640.0, 512.0]",vertical,"(390.0, 262.0)",[0.6166666666666667],[0.607],1,3176.221
7,False,397,0.786,47,[],[],"[(1128, 882)]",[],[1],[38],[0.6333333333333333],"[640.0, 512.0]",vertical,"(390.0, 762.0)",[0.6666666666666666],[0.595],1,3179.954
7,False,398,1.124,67,[],[],"[(1117, 868)]",[],[1],[33],[0.55],"[640.0, 512.0]",vertical,"(890.0, 262.0)",[1.1166666666666667],[0.51],1,3184.041
7,False,399,0.87,52,[],[],"[(1151, 873)]",[],[1],[37],[0.6166666666666667],"[640.0, 512.0]",vertical,"(390.0, 262.0)",[0.8166666666666667],[0.577],1,3188.821
7,False,400,0.891,53,[],[],"[(1163, 871)]",[],[1],[38],[0.6333333333333333],"[640.0, 512.0]",vertical,"(390.0, 762.0)",[0.85],[0.587],1,3193.118
7,False,401,0.935,56,[],[],"[(1149, 874)]",[],[1],[35],[0.5833333333333334],"[640.0, 512.0]",vertical,"(390.0, 762.0)",[1.1833333333333333],[0.55],1,3197.342
7,False,402,0.746,44,[],[],"[(1130, 882)]",[],[1],[33],[0.55],"[640.0, 512.0]",vertical,"(390.0, 762.0)",[1.5],[0.512],1,3201.956
7,False,403,1.131,67,[],[],"[(1103, 873)]",[],[1],[33],[0.55],"[640.0, 512.0]",horizontal,"(890.0, 262.0)",[1.15],[0.513],1,3206.622
7,False,404,0.575,34,[],[],"[(1123, 873)]",[],[1],[40],[0.6666666666666666],"[640.0, 512.0]",vertical,"(890.0, 262.0)",[1.5166666666666666],[0.624],1,3212.059
7,False,405,0.82,49,[],[],"[(1124, 867)]",[],[1],[35],[0.5833333333333334],"[640.0, 512.0]",horizontal,"(390.0, 262.0)",[0.6],[0.539],1,3216.871
7,False,406,0.677,40,[],[],"[(1142, 870)]",[],[1],[35],[0.5833333333333334],"[640.0, 512.0]",horizontal,"(390.0, 762.0)",[1.3],[0.546],1,3220.785
7,False,407,0.868,52,[],[],"[(1153, 854)]",[],[1],[35],[0.5833333333333334],"[640.0, 512.0]",horizontal,"(890.0, 762.0)",[0.7],[0.54],1,3225.491
7,False,408,0.909,54,[],[],"[(1113, 875)]",[],[1],[41],[0.6833333333333333],"[640.0, 512.0]",horizontal,"(890.0, 262.0)",[1.2166666666666666],[0.638],1,3229.556
7,False,409,1.013,60,[],[],"[(1182, 863)]",[],[1],[36],[0.6],"[640.0, 512.0]",horizontal,"(390.0, 262.0)",[1.45],[0.56],1,3234.283
7,False,410,0.52,31,[],[],"[(1111, 867)]",[],[1],[],[],"[640.0, 512.0]",vertical,"(890.0, 262.0)",[],[0],0,3239.197
7,False,411,0.556,33,[],[],"[(1190, 874)]",[],[1],[33],[0.55],"[640.0, 512.0]",horizontal,"(890.0, 262.0)",[1.55],[0.509],1,3243.041
7,False,412,1.061,63,[],[],"[(1188, 869)]",[],[1],[30],[0.5],"[640.0, 512.0]",vertical,"(890.0, 262.0)",[0.9833333333333333],[0.46],1,3247.625
7,False,413,1.1,66,[],[],"[(1198, 870)]",[],[1],[33],[0.55],"[640.0, 512.0]",horizontal,"(890.0, 262.0)",[1.25],[0.507],1,3252.054
7,False,414,0.58,34,[],[],"[(1148, 876)]",[],[1],[34],[0.5666666666666667],"[640.0, 512.0]",vertical,"(390.0, 762.0)",[0.7],[0.529],1,3256.851
7,False,415,0.9,54,[],[],"[(1166, 876)]",[],[1],[42],[0.7],"[640.0, 512.0]",horizontal,"(390.0, 762.0)",[0.8666666666666667],[0.652],1,3260.571
7,False,416,1.092,65,[],[],"[(1110, 886)]",[],[1],[12],[0.2],"[640.0, 512.0]",horizontal,"(890.0, 762.0)",[1.1166666666666667],[0.167],1,3265.057
7,False,417,0.529,31,[],[],"[(1148, 864)]",[],[1],[36],[0.6],"[640.0, 512.0]",vertical,"(390.0, 262.0)",[0.9166666666666666],[0.557],1,3270.376
7,False,418,0.766,45,[],[],"[(1172, 861)]",[],[1],[33],[0.55],"[640.0, 512.0]",vertical,"(890.0, 762.0)",[0.8666666666666667],[0.511],1,3274.394
7,False,419,0.617,37,[],[],"[(1138, 859)]",[],[1],[35],[0.5833333333333334],"[640.0, 512.0]",horizontal,"(390.0, 762.0)",[1.0833333333333333],[0.545],1,3278.463
7,False,420,1.163,69,[],[],"[(1153, 875)]",[],[1],[36],[0.6],"[640.0, 512.0]",vertical,"(390.0, 762.0)",[1.45],[0.561],1,3282.621
8,False,421,0.932,55,[],[],"[(1183, 864)]",[],[1],[42],[0.7],"[640.0, 512.0]",vertical,"(390.0, 762.0)",[1.2166666666666666],[0.66],1,3287.835
8,False,422,1.164,69,[],[],"[(1124, 869)]",[],[1],[27],[0.45],"[640.0, 512.0]",vertical,"(390.0, 262.0)",[1.4166666666666667],[0.417],1,3292.658
8,False,423,0.973,58,[],[],"[(1160, 860)]",[],[1],[33],[0.55],"[640.0, 512.0]",horizontal,"(390.0, 762.0)",[0.9333333333333333],[0.513],1,3297.541
8,False,424,0.584,35,[],[],"[(1166, 860)]",[],[1],[33],[0.55],"[640.0, 512.0]",vertical,"(390.0, 262.0)",[0.6166666666666667],[0.512],1,3301.963
8,False,425,0.93,55,[],[],"[(1149, 878)]",[],[1],[22],[0.36666666666666664],"[640.0, 512.0]",horizontal,"(890.0, 762.0)",[0.8166666666666667],[0.331],1,3305.694
8,False,426,0.808,48,[],[],"[(1148, 862)]",[],[1],[32],[0.5333333333333333],"[640.0, 512.0]",vertical,"(890.0, 262.0)",[0.8166666666666667],[0.488],1,3309.819
8,False,427,1.039,62,[],[],"[(1183, 847)]",[],[1],[31],[0.5166666666666666],"[640.0, 512.0]",horizontal,"(390.0, 762.0)",[1.0333333333333332],[0.476],1,3313.911
8,False,428,0.589,35,[],[],"[(1149, 872)]",[],[1],[24],[0.4],"[640.0, 512.0]",vertical,"(390.0, 262.0)",[1.4666666666666666],[0.361],1,3318.352
8,False,429,1.167,70,[],[],"[(1144, 866)]",[],[1],[36],[0.6],"[640.0, 512.0]",horizontal,"(890.0, 762.0)",[0.75],[0.56],1,3322.785
8,False,430,0.691,41,[],[],"[(1135, 864)]",[],[1],[35],[0.5833333333333334],"[640.0, 512.0]",vertical,"(390.0, 262.0)",[1.0666666666666667],[0.541],1,3327.188
8,False,431,0.714,42,[],[],"[(1172, 865)]",[],[1],[33],[0.55],"[640.0, 512.0]",vertical,"(890.0, 262.0)",[1.45],[0.508],1,3331.561
8,False,432,0.957,57,[],[],"[(1116, 864)]",[],[1],[41],[0.6833333333333333],"[640.0, 512.0]",vertical,"(390.0, 262.0)",[1.2],[0.638],1,3336.224
8,False,433,0.82,49,[],[],"[(1166, 848)]",[],[1],[34],[0.5666666666666667],"[640.0, 512.0]",vertical,"(390.0, 262.0)",[0.7833333333333333],[0.543],1,3341.042
8,False,434,0.645,38,[],[],"[(1153, 870)]",[],[1],[32],[0.5333333333333333],"[640.0, 512.0]",horizontal,"(390.0, 262.0)",[1.0333333333333332],[0.494],1,3345.261
8,False,435,0.823,49,[],[],"[(1156, 883)]",[],[1],[36],[0.6],"[640.0, 512.0]",horizontal,"(890.0, 762.0)",[0.7666666666666666],[0.558],1,3349.408
8,False,436,1.117,67,[],[],"[(1136, 864)]",[],[1],[14],[0.23333333333333334],"[640.0, 512.0]",vertical,"(890.0, 262.0)",[1.4166666666666667],[0.195],1,3353.591
8,False,437,0.688,41,[],[],"[(1166, 862)]",[],[1],[32],[0.5333333333333333],"[640.0, 512.0]",vertical,"(890.0, 762.0)",[0.7666666666666666],[0.49],1,3358.229
8,False,438,0.566,33,[],[],"[(1148, 886)]",[],[1],[34],[0.5666666666666667],"[640.0, 512.0]",vertical,"(890.0, 762.0)",[1.0833333333333333],[0.526],1,3362.114
8,False,439,0.753,45,[],[],"[(1150, 879)]",[],[1],[37],[0.6166666666666667],"[640.0, 512.0]",vertical,"(390.0, 762.0)",[1.2],[0.57],1,3366.188
8,False,440,0.865,51,[],[],"[(1142, 869)]",[],[1],[33],[0.55],"[640.0, 512.0]",horizontal,"(890.0, 262.0)",[0.5833333333333334],[0.508],1,3370.615
8,False,441,0.68,40,[],[],"[(1173, 882)]",[],[1],[34],[0.5666666666666667],"[640.0, 512.0]",horizontal,"(890.0, 762.0)",[1.1666666666666667],[0.527],1,3374.527
8,False,442,0.642,38,[],[],"[(1142, 880)]",[],[1],[44],[0.7333333333333333],"[640.0, 512.0]",vertical,"(890.0, 762.0)",[1.2333333333333334],[0.688],1,3378.892
8,False,443,0.684,41,[],[],"[(1184, 854)]",[],[1],[42],[0.7],"[640.0, 512.0]",vertical,"(390.0, 762.0)",[1.0333333333333332],[0.656],1,3383.368
8,False,444,1.091,65,[],[],"[(1146, 857)]",[],[1],[38],[0.6333333333333333],"[640.0, 512.0]",vertical,"(890.0, 762.0)",[0.5],[0.589],1,3387.726
8,False,445,0.578,34,[],[],"[(1166, 874)]",[],[1],[36],[0.6],"[640.0, 512.0]",horizontal,"(390.0, 762.0)",[0.85],[0.55],1,3391.795
8,False,446,0.701,42,[],[],"[(1150, 889)]",[],[1],[30],[0.5],"[640.0, 512.0]",horizontal,"(890.0, 262.0)",[1.2666666666666666],[0.459],1,3395.702
8,False,447,1.192,71,[],[],"[(1150, 874)]",[],[1],[35],[0.5833333333333334],"[640.0, 512.0]",horizontal,"(890.0, 762.0)",[1.4833333333333334],[0.561],1,3400.045
8,False,448,1.181,70,[],[],"[(1148, 867)]",[],[1],[42],[0.7],"[640.0, 512.0]",vertical,"(890.0, 762.0)",[1.1],[0.651],1,3405.285
8,False,449,0.61,36,[],[],"[(1157, 871)]",[],[1],[37],[0.6166666666666667],"[640.0, 512.0]",horizontal,"(390.0, 762.0)",[1.2],[0.567],1,3410.163
8,False,450,0.963,57,[],[],"[(1117, 859)]",[],[1],[33],[0.55],"[640.0, 512.0]",horizontal,"(890.0, 762.0)",[1.6666666666666667],[0.501],1,3414.43
8,False,451,0.611,36,[],[],"[(1123, 875)]",[],[1],[44],[0.7333333333333333],"[640.0, 512.0]",horizontal,"(390.0, 762.0)",[1.3166666666666667],[0.687],1,3419.523
8,False,452,0.827,49,[],[],"[(1129, 848)]",[],[1],[34],[0.5666666666666667],"[640.0, 512.0]",vertical,"(390.0, 262.0)",[0.5],[0.52],1,3423.981
8,False,453,0.581,34,[],[],"[(1148, 879)]",[],[1],[31],[0.5166666666666666],"[640.0, 512.0]",horizontal,"(890.0, 262.0)",[1.5],[0.477],1,3427.832
8,False,454,0.57,34,[],[],"[(1148, 855)]",[],[1],[35],[0.5833333333333334],"[640.0, 512.0]",horizontal,"(890.0, 762.0)",[1.0833333333333333],[0.54],1,3432.37
8,False,455,0.85,51,[],[],"[(1145, 871)]",[],[1],[33],[0.55],"[640.0, 512.0]",horizontal,"(390.0, 262.0)",[0.7166666666666667],[0.507],1,3436.566
8,False,456,1.105,66,[],[],"[(1153, 881)]",[],[1],[33],[0.55],"[640.0, 512.0]",vertical,"(390.0, 262.0)",[1.2166666666666666],[0.512],1,3440.583
8,False,457,0.704,42,[],[],"[(1172, 868)]",[],[1],[35],[0.5833333333333334],"[640.0, 512.0]",horizontal,"(890.0, 762.0)",[1.2833333333333332],[0.537],1,3445.324
8,False,458,0.51,30,[],[],"[(1153, 876)]",[],[1],[33],[0.55],"[640.0, 512.0]",horizontal,"(890.0, 762.0)",[0.6666666666666666],[0.506],1,3449.77
8,False,459,0.894,53,[],[],"[(1164, 876)]",[],[1],[33],[0.55],"[640.0, 512.0]",vertical,"(390.0, 762.0)",[1.4],[0.509],1,3453.374
8,False,460,0.678,40,[],[],"[(1151, 879)]",[],[1],[35],[0.5833333333333334],"[640.0, 512.0]",vertical,"(390.0, 262.0)",[1.15],[0.54],1,3458.141
8,False,461,1.17,70,[],[],"[(1153, 860)]",[],[1],[30],[0.5],"[640.0, 512.0]",vertical,"(390.0, 262.0)",[1.15],[0.46],1,3462.391
8,False,462,0.981,58,[],[],"[(1156, 859)]",[],[1],[],[],"[640.0, 512.0]",horizontal,"(890.0, 762.0)",[],[0],0,3467.268
8,False,463,0.829,49,[],[],"[(1180, 876)]",[],[1],[35],[0.5833333333333334],"[640.0, 512.0]",vertical,"(390.0, 762.0)",[1.6],[0.538],1,3471.403
8,False,464,0.661,39,[],[],"[(1162, 856)]",[],[1],[],[],"[640.0, 512.0]",horizontal,"(890.0, 762.0)",[],[0],0,3476.359
8,False,465,1.126,67,[],[],"[(1220, 855)]",[],[1],[32],[0.5333333333333333],"[640.0, 512.0]",vertical,"(390.0, 262.0)",[1.2166666666666666],[0.493],1,3480.173
8,False,466,1.121,67,[],[],"[(1136, 860)]",[],[1],[42],[0.7],"[640.0, 512.0]",horizontal,"(890.0, 262.0)",[0.6333333333333333],[0.653],1,3484.925
8,False,467,0.588,35,[],[],"[(1168, 884)]",[],[1],[34],[0.5666666666666667],"[640.0, 512.0]",vertical,"(890.0, 762.0)",[0.95],[0.524],1,3489.362
8,False,468,1.073,64,[],[],"[(1151, 860)]",[],[1],[33],[0.55],"[640.0, 512.0]",vertical,"(890.0, 762.0)",[1.3833333333333333],[0.509],1,3493.435
8,False,469,0.641,38,[],[],"[(1148, 888)]",[],[1],[34],[0.5666666666666667],"[640.0, 512.0]",vertical,"(390.0, 762.0)",[1.0333333333333332],[0.526],1,3498.287
8,False,470,1.181,70,[],[],"[(1167, 868)]",[],[1],[34],[0.5666666666666667],"[640.0, 512.0]",horizontal,"(390.0, 762.0)",[0.6],[0.528],1,3502.567
8,False,471,1.181,70,[],[],"[(1153, 882)]",[],[1],[29],[0.48333333333333334],"[640.0, 512.0]",horizontal,"(390.0, 262.0)",[1.1],[0.443],1,3506.865
8,False,472,0.787,47,[],[],"[(1125, 879)]",[],[1],[30],[0.5],"[640.0, 512.0]",horizontal,"(390.0, 262.0)",[0.75],[0.461],1,3511.654
8,False,473,1.171,70,[],[],"[(1150, 859)]",[],[1],[35],[0.5833333333333334],"[640.0, 512.0]",horizontal,"(890.0, 762.0)",[1.2833333333333332],[0.539],1,3515.8
8,False,474,0.592,35,[],[],"[(1193, 880)]",[],[1],[45],[0.75],"[640.0, 512.0]",vertical,"(390.0, 262.0)",[1.2333333333333334],[0.724],1,3520.855
8,False,475,0.664,39,[],[],"[(1120, 891)]",[],[1],[36],[0.6],"[640.0, 512.0]",vertical,"(390.0, 762.0)",[1.6166666666666667],[0.563],1,3525.379
8,False,476,1.099,65,[],[],"[(1120, 871)]",[],[1],[33],[0.55],"[640.0, 512.0]",vertical,"(390.0, 762.0)",[1.2333333333333334],[0.504],1,3530.145
8,False,477,0.661,39,[],[],"[(1105, 877)]",[],[1],[13],[0.21666666666666667],"[640.0, 512.0]",vertical,"(390.0, 262.0)",[0.8833333333333333],[0.181],1,3534.938
8,False,478,0.776,46,[],[],"[(1130, 868)]",[],[1],[35],[0.5833333333333334],"[640.0, 512.0]",vertical,"(390.0, 262.0)",[1.05],[0.54],1,3538.689
8,False,479,0.601,36,[],[],"[(1117, 866)]",[],[1],[28],[0.4666666666666667],"[640.0, 512.0]",vertical,"(890.0, 262.0)",[1.5333333333333332],[0.424],1,3544.251
8,False,480,0.952,57,[],[],"[(1129, 884)]",[],[1],[33],[0.55],"[640.0, 512.0]",vertical,"(390.0, 762.0)",[1.4666666666666666],[0.512],1,3548.856
9,False,481,0.576,34,[],[],"[(1116, 869)]",[],[1],[33],[0.55],"[640.0, 512.0]",horizontal,"(390.0, 262.0)",[1.4],[0.505],1,3553.807
9,False,482,1.145,68,[],[],"[(1139, 846)]",[],[1],[36],[0.6],"[640.0, 512.0]",horizontal,"(390.0, 762.0)",[1.1166666666666667],[0.56],1,3558.237
9,False,483,0.833,49,[],[],"[(1120, 877)]",[],[1],[38],[0.6333333333333333],"[640.0, 512.0]",vertical,"(390.0, 262.0)",[1.2166666666666666],[0.591],1,3562.923
9,False,484,0.779,46,[],[],"[(1120, 849)]",[],[1],[33],[0.55],"[640.0, 512.0]",horizontal,"(390.0, 262.0)",[1.3333333333333333],[0.511],1,3567.592
9,False,485,1.118,67,[],[],"[(1158, 874)]",[],[1],[31],[0.5166666666666666],"[640.0, 512.0]",horizontal,"(890.0, 262.0)",[1.0333333333333332],[0.479],1,3572.235
9,False,486,0.649,38,[],[],"[(1178, 869)]",[],[1],[43],[0.7166666666666667],"[640.0, 512.0]",vertical,"(890.0, 262.0)",[0.95],[0.669],1,3576.959
9,False,487,0.967,58,[],[],"[(1148, 856)]",[],[1],[31],[0.5166666666666666],"[640.0, 512.0]",vertical,"(890.0, 262.0)",[0.9666666666666667],[0.478],1,3581.283
9,False,488,0.545,32,[],[],"[(1148, 868)]",[],[1],[32],[0.5333333333333333],"[640.0, 512.0]",vertical,"(390.0, 762.0)",[1.2666666666666666],[0.503],1,3585.806
9,False,489,0.713,42,[],[],"[(1148, 884)]",[],[1],[37],[0.6166666666666667],"[640.0, 512.0]",vertical,"(390.0, 262.0)",[0.8166666666666667],[0.575],1,3593.608
9,False,490,0.79,47,[],[],"[(1140, 874)]",[],[1],[33],[0.55],"[640.0, 512.0]",vertical,"(390.0, 762.0)",[1.5666666666666667],[0.513],1,3600.135
9,False,491,0.539,32,[],[],"[(1141, 880)]",[],[1],[10],[0.16666666666666666],"[640.0, 512.0]",vertical,"(390.0, 262.0)",[1.5666666666666667],[0.132],1,3605.066
9,False,492,1.157,69,[],[],"[(1120, 876)]",[],[1],[46],[0.7666666666666666],"[640.0, 512.0]",vertical,"(390.0, 762.0)",[1.1833333333333333],[0.724],1,3609.264
9,False,493,0.684,41,[],[],"[(1120, 864)]",[],[1],[33],[0.55],"[640.0, 512.0]",horizontal,"(890.0, 262.0)",[1.1666666666666667],[0.507],1,3614.28
9,False,494,1.189,71,[],[],"[(1140, 895)]",[],[1],[29],[0.48333333333333334],"[640.0, 512.0]",horizontal,"(890.0, 262.0)",[0.6333333333333333],[0.443],1,3618.622
9,False,495,0.521,31,[],[],"[(1140, 866)]",[],[1],[33],[0.55],"[640.0, 512.0]",horizontal,"(890.0, 762.0)",[0.5],[0.512],1,3622.809
9,False,496,1.075,64,[],[],"[(1117, 893)]",[],[1],[33],[0.55],"[640.0, 512.0]",vertical,"(390.0, 262.0)",[1.2666666666666666],[0.513],1,3626.391
9,False,497,0.534,32,[],[],"[(1117, 879)]",[],[1],[33],[0.55],"[640.0, 512.0]",vertical,"(890.0, 762.0)",[0.6],[0.51],1,3631.586
9,False,498,0.878,52,[],[],"[(1115, 891)]",[],[1],[32],[0.5333333333333333],"[640.0, 512.0]",vertical,"(390.0, 262.0)",[1.2833333333333332],[0.492],1,3635.204
9,False,499,1.087,65,[],[],"[(1146, 865)]",[],[1],[35],[0.5833333333333334],"[640.0, 512.0]",vertical,"(890.0, 262.0)",[1.2],[0.544],1,3639.746
9,False,500,1.01,60,[],[],"[(1117, 859)]",[],[1],[35],[0.5833333333333334],"[640.0, 512.0]",vertical,"(390.0, 762.0)",[1.3833333333333333],[0.548],1,3644.551
9,False,501,1.02,61,[],[],"[(1115, 861)]",[],[1],[35],[0.5833333333333334],"[640.0, 512.0]",horizontal,"(390.0, 762.0)",[1.0666666666666667],[0.538],1,3649.383
9,False,502,0.901,54,[],[],"[(1117, 863)]",[],[1],[32],[0.5333333333333333],"[640.0, 512.0]",vertical,"(890.0, 262.0)",[0.8166666666666667],[0.49],1,3654.049
9,False,503,1.06,63,[],[],"[(1117, 893)]",[],[1],[32],[0.5333333333333333],"[640.0, 512.0]",vertical,"(890.0, 262.0)",[0.8],[0.489],1,3658.171
9,False,504,1.125,67,[],[],"[(1105, 885)]",[],[1],[36],[0.6],"[640.0, 512.0]",horizontal,"(890.0, 762.0)",[1.25],[0.554],1,3662.525
9,False,505,1.196,71,[],[],"[(1115, 869)]",[],[1],[32],[0.5333333333333333],"[640.0, 512.0]",horizontal,"(390.0, 762.0)",[0.9],[0.496],1,3667.465
9,False,506,1.048,62,[],[],"[(1146, 860)]",[],[1],[30],[0.5],"[640.0, 512.0]",horizontal,"(390.0, 262.0)",[1.6166666666666667],[0.462],1,3672.026
9,False,507,0.732,43,[],[],"[(1160, 860)]",[],[1],[34],[0.5666666666666667],"[640.0, 512.0]",horizontal,"(890.0, 262.0)",[0.85],[0.524],1,3677.029
9,False,508,1.066,63,[],[],"[(1152, 861)]",[],[1],[29],[0.48333333333333334],"[640.0, 512.0]",horizontal,"(390.0, 762.0)",[1.0666666666666667],[0.441],1,3681.009
9,False,509,1.005,60,[],[],"[(1114, 863)]",[],[1],[45],[0.75],"[640.0, 512.0]",vertical,"(890.0, 762.0)",[1.0666666666666667],[0.707],1,3685.658
9,False,510,0.777,46,[],[],"[(1148, 875)]",[],[1],[38],[0.6333333333333333],"[640.0, 512.0]",vertical,"(890.0, 262.0)",[1.2166666666666666],[0.588],1,3690.304
9,False,511,0.582,34,[],[],"[(1148, 873)]",[],[1],[35],[0.5833333333333334],"[640.0, 512.0]",horizontal,"(890.0, 262.0)",[0.5333333333333333],[0.542],1,3694.806
9,False,512,0.85,51,[],[],"[(1153, 864)]",[],[1],[41],[0.6833333333333333],"[640.0, 512.0]",horizontal,"(390.0, 262.0)",[0.85],[0.643],1,3698.404
9,False,513,0.85,51,[],[],"[(1114, 869)]",[],[1],[36],[0.6],"[640.0, 512.0]",vertical,"(390.0, 262.0)",[0.7833333333333333],[0.557],1,3702.669
9,False,514,0.624,37,[],[],"[(1119, 893)]",[],[1],[41],[0.6833333333333333],"[640.0, 512.0]",vertical,"(890.0, 762.0)",[0.5166666666666666],[0.645],1,3706.933
9,False,515,0.591,35,[],[],"[(1148, 867)]",[],[1],[33],[0.55],"[640.0, 512.0]",vertical,"(890.0, 762.0)",[1.5333333333333332],[0.514],1,3710.751
9,False,516,0.813,48,[],[],"[(1118, 872)]",[],[1],[36],[0.6],"[640.0, 512.0]",vertical,"(890.0, 762.0)",[0.6666666666666666],[0.554],1,3715.301
9,False,517,1.054,63,[],[],"[(1117, 884)]",[],[1],[30],[0.5],"[640.0, 512.0]",vertical,"(390.0, 262.0)",[1.3333333333333333],[0.461],1,3719.304
9,False,518,0.627,37,[],[],"[(1150, 865)]",[],[1],[40],[0.6666666666666666],"[640.0, 512.0]",vertical,"(390.0, 762.0)",[0.6],[0.627],1,3724.062
9,False,519,0.891,53,[],[],"[(1105, 869)]",[],[1],[32],[0.5333333333333333],"[640.0, 512.0]",horizontal,"(390.0, 262.0)",[1.6166666666666667],[0.493],1,3727.816
9,False,520,0.641,38,[],[],"[(1118, 855)]",[],[1],[32],[0.5333333333333333],"[640.0, 512.0]",horizontal,"(890.0, 762.0)",[1.15],[0.495],1,3732.725
9,False,521,1.099,65,[],[],"[(1152, 870)]",[],[1],[36],[0.6],"[640.0, 512.0]",horizontal,"(390.0, 262.0)",[0.7166666666666667],[0.56],1,3736.953
9,False,522,0.566,33,[],[],"[(1110, 860)]",[],[1],[31],[0.5166666666666666],"[640.0, 512.0]",vertical,"(890.0, 262.0)",[1.5333333333333332],[0.479],1,3741.323
9,False,523,0.574,34,[],[],"[(1127, 862)]",[],[1],[35],[0.5833333333333334],"[640.0, 512.0]",vertical,"(390.0, 762.0)",[1.1166666666666667],[0.543],1,3745.942
9,False,524,1.049,62,[],[],"[(1121, 880)]",[],[1],[34],[0.5666666666666667],"[640.0, 512.0]",horizontal,"(890.0, 262.0)",[1.3833333333333333],[0.522],1,3751.404
9,False,525,1.058,63,[],[],"[(1111, 869)]",[],[1],[36],[0.6],"[640.0, 512.0]",horizontal,"(890.0, 762.0)",[1.2333333333333334],[0.564],1,3757.153
9,False,526,1.161,69,[],[],"[(1113, 894)]",[],[1],[39],[0.65],"[640.0, 512.0]",vertical,"(390.0, 762.0)",[1.35],[0.612],1,3762.038
9,False,527,1.045,62,[],[],"[(1137, 860)]",[],[1],[36],[0.6],"[640.0, 512.0]",vertical,"(890.0, 262.0)",[1.3833333333333333],[0.561],1,3767.192
9,False,528,0.669,40,[],[],"[(1123, 864)]",[],[1],[33],[0.55],"[640.0, 512.0]",horizontal,"(890.0, 262.0)",[0.65],[0.514],1,3772.135
9,False,529,1.133,67,[],[],"[(1115, 875)]",[],[1],[32],[0.5333333333333333],"[640.0, 512.0]",horizontal,"(390.0, 262.0)",[0.7],[0.491],1,3775.841
9,False,530,0.976,58,[],[],"[(1150, 888)]",[],[1],[37],[0.6166666666666667],"[640.0, 512.0]",vertical,"(390.0, 762.0)",[0.5],[0.569],1,3780.169
9,False,531,1.108,66,[],[],"[(1115, 889)]",[],[1],[34],[0.5666666666666667],"[640.0, 512.0]",horizontal,"(890.0, 762.0)",[1.5666666666666667],[0.528],1,3784.076
9,False,532,0.977,58,[],[],"[(1124, 855)]",[],[1],[32],[0.5333333333333333],"[640.0, 512.0]",vertical,"(890.0, 762.0)",[0.95],[0.495],1,3789.354
9,False,533,0.685,41,[],[],"[(1148, 866)]",[],[1],[39],[0.65],"[640.0, 512.0]",horizontal,"(890.0, 262.0)",[0.6],[0.611],1,3793.704
9,False,534,0.986,59,[],[],"[(1155, 869)]",[],[1],[29],[0.48333333333333334],"[640.0, 512.0]",horizontal,"(390.0, 262.0)",[1.0833333333333333],[0.446],1,3797.647
9,False,535,0.541,32,[],[],"[(1142, 869)]",[],[1],[36],[0.6],"[640.0, 512.0]",horizontal,"(890.0, 262.0)",[1.2166666666666666],[0.557],1,3802.052
9,False,536,0.536,32,[],[],"[(1156, 860)]",[],[1],[34],[0.5666666666666667],"[640.0, 512.0]",vertical,"(890.0, 762.0)",[0.75],[0.53],1,3806.292
9,False,537,1.016,60,[],[],"[(1134, 889)]",[],[1],[30],[0.5],"[640.0, 512.0]",horizontal,"(890.0, 262.0)",[1.4833333333333334],[0.46],1,3810.059
9,False,538,0.691,41,[],[],"[(1141, 871)]",[],[1],[35],[0.5833333333333334],"[640.0, 512.0]",vertical,"(390.0, 262.0)",[1.65],[0.543],1,3815.029
9,False,539,0.842,50,[],[],"[(1141, 871)]",[],[1],[36],[0.6],"[640.0, 512.0]",vertical,"(890.0, 762.0)",[1.0833333333333333],[0.561],1,3819.806
9,False,540,0.815,48,[],[],"[(1178, 860)]",[],[1],[36],[0.6],"[640.0, 512.0]",horizontal,"(390.0, 762.0)",[1.0833333333333333],[0.554],1,3824.37
10,False,541,0.959,57,[],[],"[(1117, 865)]",[],[1],[32],[0.5333333333333333],"[640.0, 512.0]",vertical,"(890.0, 262.0)",[1.4333333333333333],[0.493],1,3828.824
10,False,542,0.578,34,[],[],"[(1148, 885)]",[],[1],[35],[0.5833333333333334],"[640.0, 512.0]",horizontal,"(390.0, 762.0)",[1.0666666666666667],[0.539],1,3833.75
10,False,543,0.541,32,[],[],"[(1143, 864)]",[],[1],[33],[0.55],"[640.0, 512.0]",vertical,"(390.0, 262.0)",[1.2333333333333334],[0.51],1,3837.917
10,False,544,0.983,58,[],[],"[(1121, 888)]",[],[1],[43],[0.7166666666666667],"[640.0, 512.0]",horizontal,"(890.0, 762.0)",[1.1333333333333333],[0.668],1,3842.258
10,False,545,0.859,51,[],[],"[(1148, 869)]",[],[1],[32],[0.5333333333333333],"[640.0, 512.0]",vertical,"(390.0, 262.0)",[1.1833333333333333],[0.494],1,3846.899
10,False,546,0.506,30,[],[],"[(1118, 888)]",[],[1],[34],[0.5666666666666667],"[640.0, 512.0]",horizontal,"(390.0, 762.0)",[0.9333333333333333],[0.523],1,3851.457
10,False,547,0.858,51,[],[],"[(1120, 883)]",[],[1],[41],[0.6833333333333333],"[640.0, 512.0]",horizontal,"(890.0, 262.0)",[0.7333333333333333],[0.641],1,3855.31
10,False,548,1.179,70,[],[],"[(1156, 867)]",[],[1],[36],[0.6],"[640.0, 512.0]",vertical,"(390.0, 762.0)",[0.65],[0.558],1,3859.622
10,False,549,1.1,66,[],[],"[(1116, 879)]",[],[1],[37],[0.6166666666666667],"[640.0, 512.0]",vertical,"(890.0, 262.0)",[0.65],[0.581],1,3864.026
10,False,550,0.731,43,[],[],"[(1170, 871)]",[],[1],[39],[0.65],"[640.0, 512.0]",vertical,"(390.0, 762.0)",[0.5166666666666666],[0.616],1,3868.511
10,False,551,0.814,48,[],[],"[(1098, 868)]",[],[1],[34],[0.5666666666666667],"[640.0, 512.0]",vertical,"(390.0, 262.0)",[0.75],[0.522],1,3872.277
10,False,552,0.918,55,[],[],"[(1139, 862)]",[],[1],[38],[0.6333333333333333],"[640.0, 512.0]",horizontal,"(890.0, 762.0)",[1.4166666666666667],[0.592],1,3876.427
10,False,553,0.714,42,[],[],"[(1190, 871)]",[],[1],[37],[0.6166666666666667],"[640.0, 512.0]",vertical,"(390.0, 262.0)",[0.9666666666666667],[0.58],1,3881.316
10,False,554,1.091,65,[],[],"[(1146, 877)]",[],[1],[34],[0.5666666666666667],"[640.0, 512.0]",vertical,"(890.0, 262.0)",[0.6833333333333333],[0.527],1,3885.469
10,False,555,0.657,39,[],[],"[(1118, 876)]",[],[1],[4],[0.06666666666666667],"[640.0, 512.0]",horizontal,"(890.0, 762.0)",[1.3333333333333333],[0.036],1,3889.765
10,False,556,0.517,31,[],[],"[(1123, 866)]",[],[1],[33],[0.55],"[640.0, 512.0]",vertical,"(390.0, 762.0)",[0.8833333333333333],[0.509],1,3893.711
10,False,557,1.064,63,[],[],"[(1116, 874)]",[],[1],[35],[0.5833333333333334],"[640.0, 512.0]",vertical,"(390.0, 762.0)",[0.5333333333333333],[0.534],1,3897.542
10,False,558,1.193,71,[],[],"[(1130, 863)]",[],[1],[35],[0.5833333333333334],"[640.0, 512.0]",vertical,"(890.0, 762.0)",[1.0333333333333332],[0.539],1,3901.621
10,False,559,1.128,67,[],[],"[(1113, 865)]",[],[1],[36],[0.6],"[640.0, 512.0]",horizontal,"(890.0, 762.0)",[1.1],[0.558],1,3906.455
10,False,560,0.661,39,[],[],"[(1148, 869)]",[],[1],[37],[0.6166666666666667],"[640.0, 512.0]",horizontal,"(890.0, 762.0)",[1.45],[0.571],1,3911.225
10,False,561,0.843,50,[],[],"[(1117, 863)]",[],[1],[33],[0.55],"[640.0, 512.0]",vertical,"(890.0, 262.0)",[0.5833333333333334],[0.507],1,3915.829
10,False,562,0.548,32,[],[],"[(1137, 861)]",[],[1],[41],[0.6833333333333333],"[640.0, 512.0]",horizontal,"(890.0, 762.0)",[0.6166666666666667],[0.638],1,3919.72
10,False,563,0.753,45,[],[],"[(1148, 879)]",[],[1],[31],[0.5166666666666666],"[640.0, 512.0]",horizontal,"(390.0, 262.0)",[1.3666666666666667],[0.478],1,3923.621
10,False,564,0.912,54,[],[],"[(1183, 860)]",[],[1],[35],[0.5833333333333334],"[640.0, 512.0]",vertical,"(890.0, 762.0)",[0.65],[0.543],1,3928.175
10,False,565,0.659,39,[],[],"[(1148, 892)]",[],[1],[38],[0.6333333333333333],"[640.0, 512.0]",vertical,"(890.0, 762.0)",[1.1666666666666667],[0.588],1,3932.212
10,False,566,0.69,41,[],[],"[(1120, 883)]",[],[1],[36],[0.6],"[640.0, 512.0]",horizontal,"(390.0, 262.0)",[1.0],[0.563],1,3936.671
10,False,567,0.558,33,[],[],"[(1152, 877)]",[],[1],[33],[0.55],"[640.0, 512.0]",horizontal,"(890.0, 762.0)",[0.6666666666666666],[0.519],1,3940.868
10,False,568,0.787,47,[],[],"[(1142, 867)]",[],[1],[36],[0.6],"[640.0, 512.0]",vertical,"(890.0, 762.0)",[1.3],[0.56],1,3944.694
10,False,569,0.569,34,[],[],"[(1142, 879)]",[],[1],[33],[0.55],"[640.0, 512.0]",horizontal,"(390.0, 762.0)",[1.4333333333333333],[0.51],1,3949.285
10,False,570,1.034,62,[],[],"[(1096, 863)]",[],[1],[33],[0.55],"[640.0, 512.0]",horizontal,"(890.0, 262.0)",[1.5333333333333332],[0.507],1,3953.888
10,False,571,1.149,68,[],[],"[(1123, 876)]",[],[1],[33],[0.55],"[640.0, 512.0]",vertical,"(890.0, 262.0)",[1.2],[0.508],1,3959.005
10,False,572,1.069,64,[],[],"[(1154, 860)]",[],[1],[9],[0.15],"[640.0, 512.0]",horizontal,"(390.0, 762.0)",[1.4666666666666666],[0.121],1,3963.987
10,False,573,0.695,41,[],[],"[(1121, 860)]",[],[1],[34],[0.5666666666666667],"[640.0, 512.0]",vertical,"(390.0, 262.0)",[1.1833333333333333],[0.522],1,3968.602
10,False,574,0.784,47,[],[],"[(1172, 858)]",[],[1],[39],[0.65],"[640.0, 512.0]",horizontal,"(890.0, 262.0)",[0.5],[0.604],1,3973.249
10,False,575,0.55,33,[],[],"[(1098, 869)]",[],[1],[35],[0.5833333333333334],"[640.0, 512.0]",vertical,"(390.0, 262.0)",[0.9833333333333333],[0.544],1,3977.237
10,False,576,0.791,47,[],[],"[(1102, 864)]",[],[1],[35],[0.5833333333333334],"[640.0, 512.0]",horizontal,"(390.0, 262.0)",[1.0333333333333332],[0.541],1,3981.435
10,False,577,0.996,59,[],[],"[(1161, 859)]",[],[1],[36],[0.6],"[640.0, 512.0]",vertical,"(890.0, 762.0)",[0.75],[0.562],1,3985.783
10,False,578,1.168,70,[],[],"[(1143, 858)]",[],[1],[33],[0.55],"[640.0, 512.0]",horizontal,"(890.0, 762.0)",[0.5],[0.508],1,3990.242
10,False,579,1.164,69,[],[],"[(1150, 887)]",[],[1],[32],[0.5333333333333333],"[640.0, 512.0]",horizontal,"(390.0, 262.0)",[1.5333333333333332],[0.489],1,3994.392
10,False,580,1.145,68,[],[],"[(1102, 882)]",[],[1],[36],[0.6],"[640.0, 512.0]",horizontal,"(890.0, 762.0)",[1.0666666666666667],[0.56],1,3999.541
10,False,581,0.616,36,[],[],"[(1116, 860)]",[],[1],[34],[0.5666666666666667],"[640.0, 512.0]",vertical,"(390.0, 262.0)",[0.55],[0.525],1,4004.383
10,False,582,0.809,48,[],[],"[(1148, 868)]",[],[1],[32],[0.5333333333333333],"[640.0, 512.0]",vertical,"(390.0, 262.0)",[1.3],[0.491],1,4008.158
10,False,583,0.569,34,[],[],"[(1153, 879)]",[],[1],[28],[0.4666666666666667],"[640.0, 512.0]",horizontal,"(890.0, 762.0)",[0.75],[0.423],1,4012.818
10,False,584,0.803,48,[],[],"[(1152, 887)]",[],[1],[29],[0.48333333333333334],"[640.0, 512.0]",vertical,"(390.0, 262.0)",[0.6],[0.441],1,4016.467
10,False,585,0.96,57,[],[],"[(1105, 859)]",[],[1],[38],[0.6333333333333333],"[640.0, 512.0]",horizontal,"(390.0, 762.0)",[1.15],[0.59],1,4020.492
10,False,586,0.791,47,[],[],"[(1120, 863)]",[],[1],[33],[0.55],"[640.0, 512.0]",horizontal,"(390.0, 762.0)",[0.9],[0.507],1,4025.186
10,False,587,0.683,40,[],[],"[(1160, 863)]",[],[1],[36],[0.6],"[640.0, 512.0]",horizontal,"(890.0, 762.0)",[0.55],[0.559],1,4029.355
10,False,588,0.705,42,[],[],"[(1126, 862)]",[],[1],[37],[0.6166666666666667],"[640.0, 512.0]",horizontal,"(390.0, 762.0)",[1.15],[0.578],1,4033.236
10,False,589,1.031,61,[],[],"[(1116, 885)]",[],[1],[36],[0.6],"[640.0, 512.0]",horizontal,"(390.0, 262.0)",[0.6166666666666667],[0.559],1,4037.635
10,False,590,0.914,54,[],[],"[(1142, 883)]",[],[1],[32],[0.5333333333333333],"[640.0, 512.0]",horizontal,"(890.0, 262.0)",[1.5166666666666666],[0.489],1,4041.775
10,False,591,0.618,37,[],[],"[(1120, 866)]",[],[1],[49],[0.8166666666666667],"[640.0, 512.0]",vertical,"(390.0, 762.0)",[0.7666666666666666],[0.77],1,4046.537
10,False,592,0.653,39,[],[],"[(1099, 882)]",[],[1],[38],[0.6333333333333333],"[640.0, 512.0]",horizontal,"(890.0, 262.0)",[1.1333333333333333],[0.594],1,4050.725
10,False,593,0.906,54,[],[],"[(1143, 863)]",[],[1],[32],[0.5333333333333333],"[640.0, 512.0]",horizontal,"(390.0, 762.0)",[1.6166666666666667],[0.494],1,4055.12
10,False,594,1.133,67,[],[],"[(1129, 868)]",[],[1],[32],[0.5333333333333333],"[640.0, 512.0]",horizontal,"(390.0, 262.0)",[1.2166666666666666],[0.502],1,4060.189
10,False,595,0.534,32,[],[],"[(1142, 879)]",[],[1],[32],[0.5333333333333333],"[640.0, 512.0]",vertical,"(890.0, 262.0)",[1.2333333333333334],[0.492],1,4065.027
10,False,596,0.612,36,[],[],"[(1146, 874)]",[],[1],[35],[0.5833333333333334],"[640.0, 512.0]",horizontal,"(390.0, 762.0)",[1.0333333333333332],[0.537],1,4069.182
10,False,597,0.748,44,[],[],"[(1112, 869)]",[],[1],[33],[0.55],"[640.0, 512.0]",vertical,"(890.0, 762.0)",[0.9833333333333333],[0.512],1,4073.38
10,False,598,0.525,31,[],[],"[(1091, 884)]",[],[1],[34],[0.5666666666666667],"[640.0, 512.0]",horizontal,"(390.0, 262.0)",[0.7333333333333333],[0.523],1,4077.58
10,False,599,1.114,66,[],[],"[(1140, 880)]",[],[1],[36],[0.6],"[640.0, 512.0]",horizontal,"(890.0, 262.0)",[1.4833333333333334],[0.556],1,4081.39
10,False,600,0.634,38,[],[],"[(1172, 864)]",[],[1],[44],[0.7333333333333333],"[640.0, 512.0]",vertical,"(890.0, 762.0)",[0.7166666666666667],[0.68],1,4086.503
11,False,601,0.654,39,[],[],"[(1142, 879)]",[],[1],[33],[0.55],"[640.0, 512.0]",horizontal,"(890.0, 262.0)",[1.0666666666666667],[0.513],1,4090.526
11,False,602,0.991,59,[],[],"[(1148, 885)]",[],[1],[36],[0.6],"[640.0, 512.0]",horizontal,"(390.0, 762.0)",[1.0833333333333333],[0.556],1,4094.773
11,False,603,1.012,60,[],[],"[(1120, 871)]",[],[1],[39],[0.65],"[640.0, 512.0]",vertical,"(890.0, 762.0)",[0.55],[0.614],1,4099.44
11,False,604,0.837,50,[],[],"[(1144, 869)]",[],[1],[35],[0.5833333333333334],"[640.0, 512.0]",horizontal,"(390.0, 762.0)",[1.4333333333333333],[0.543],1,4103.709
11,False,605,1.132,67,[],[],"[(1133, 873)]",[],[1],[33],[0.55],"[640.0, 512.0]",horizontal,"(890.0, 262.0)",[0.9666666666666667],[0.505],1,4108.46
11,False,606,0.538,32,[],[],"[(1142, 848)]",[],[1],[35],[0.5833333333333334],"[640.0, 512.0]",vertical,"(390.0, 762.0)",[1.2833333333333332],[0.545],1,4113.026
11,False,607,0.763,45,[],[],"[(1156, 859)]",[],[1],[36],[0.6],"[640.0, 512.0]",vertical,"(890.0, 262.0)",[0.55],[0.556],1,4117.348
11,False,608,0.905,54,[],[],"[(1188, 852)]",[],[1],[37],[0.6166666666666667],"[640.0, 512.0]",vertical,"(890.0, 762.0)",[0.5333333333333333],[0.582],1,4121.117
11,False,609,0.5,30,[],[],"[(1160, 865)]",[],[1],[31],[0.5166666666666666],"[640.0, 512.0]",vertical,"(390.0, 762.0)",[1.4666666666666666],[0.479],1,4125.159
11,False,610,1.154,69,[],[],"[(1123, 876)]",[],[1],[36],[0.6],"[640.0, 512.0]",vertical,"(390.0, 762.0)",[0.9833333333333333],[0.562],1,4129.639
11,False,611,0.745,44,[],[],"[(1142, 877)]",[],[1],[36],[0.6],"[640.0, 512.0]",vertical,"(390.0, 762.0)",[0.55],[0.559],1,4134.372
11,False,612,1.011,60,[],[],"[(1130, 857)]",[],[1],[36],[0.6],"[640.0, 512.0]",horizontal,"(390.0, 762.0)",[1.4166666666666667],[0.561],1,4138.31
11,False,613,0.912,54,[],[],"[(1105, 862)]",[],[1],[34],[0.5666666666666667],"[640.0, 512.0]",vertical,"(890.0, 762.0)",[1.5333333333333332],[0.524],1,4143.189
11,False,614,0.982,58,[],[],"[(1145, 869)]",[],[1],[36],[0.6],"[640.0, 512.0]",horizontal,"(890.0, 762.0)",[0.9],[0.559],1,4148.125
11,False,615,0.709,42,[],[],"[(1119, 869)]",[],[1],[36],[0.6],"[640.0, 512.0]",vertical,"(390.0, 262.0)",[0.8666666666666667],[0.566],1,4152.693
11,False,616,0.717,43,[],[],"[(1142, 870)]",[],[1],[36],[0.6],"[640.0, 512.0]",horizontal,"(890.0, 762.0)",[0.7666666666666666],[0.557],1,4156.924
11,False,617,0.695,41,[],[],"[(1148, 865)]",[],[1],[34],[0.5666666666666667],"[640.0, 512.0]",horizontal,"(390.0, 262.0)",[0.7166666666666667],[0.526],1,4161.283
11,False,618,0.869,52,[],[],"[(1179, 861)]",[],[1],[39],[0.65],"[640.0, 512.0]",horizontal,"(390.0, 262.0)",[1.15],[0.609],1,4165.322
11,False,619,0.769,46,[],[],"[(1092, 848)]",[],[1],[34],[0.5666666666666667],"[640.0, 512.0]",vertical,"(390.0, 762.0)",[1.2833333333333332],[0.524],1,4170.003
11,False,620,0.515,30,[],[],"[(1143, 872)]",[],[1],[33],[0.55],"[640.0, 512.0]",vertical,"(390.0, 262.0)",[1.2666666666666666],[0.51],1,4174.69
11,False,621,0.648,38,[],[],"[(1148, 857)]",[],[1],[36],[0.6],"[640.0, 512.0]",horizontal,"(390.0, 262.0)",[1.1833333333333333],[0.553],1,4178.923
11,False,622,1.017,61,[],[],"[(1142, 865)]",[],[1],[34],[0.5666666666666667],"[640.0, 512.0]",vertical,"(890.0, 262.0)",[1.5],[0.527],1,4183.354
11,False,623,0.971,58,[],[],"[(1142, 855)]",[],[1],[34],[0.5666666666666667],"[640.0, 512.0]",vertical,"(890.0, 262.0)",[1.15],[0.523],1,4189.236
11,False,624,1.047,62,[],[],"[(1148, 879)]",[],[1],[43],[0.7166666666666667],"[640.0, 512.0]",horizontal,"(890.0, 762.0)",[1.5333333333333332],[0.676],1,4193.845
11,False,625,0.598,35,[],[],"[(1123, 850)]",[],[1],[34],[0.5666666666666667],"[640.0, 512.0]",horizontal,"(390.0, 262.0)",[1.6166666666666667],[0.522],1,4199.07
11,False,626,1.129,67,[],[],"[(1163, 862)]",[],[1],[28],[0.4666666666666667],"[640.0, 512.0]",vertical,"(890.0, 262.0)",[1.4333333333333333],[0.427],1,4204.034
11,False,627,0.673,40,[],[],"[(1147, 844)]",[],[1],[35],[0.5833333333333334],"[640.0, 512.0]",horizontal,"(890.0, 762.0)",[0.9333333333333333],[0.539],1,4238.344
11,False,628,0.864,51,[],[],"[(1166, 845)]",[],[1],[35],[0.5833333333333334],"[640.0, 512.0]",vertical,"(890.0, 262.0)",[0.5333333333333333],[0.546],1,4242.509
11,False,629,0.902,54,[],[],"[(1148, 856)]",[],[1],[35],[0.5833333333333334],"[640.0, 512.0]",vertical,"(390.0, 762.0)",[1.3166666666666667],[0.541],1,4246.464
11,False,630,1.014,60,[],[],"[(1177, 899)]",[],[1],[33],[0.55],"[640.0, 512.0]",vertical,"(390.0, 262.0)",[1.5],[0.506],1,4251.31
11,False,631,0.795,47,[],[],"[(1129, 858)]",[],[1],[35],[0.5833333333333334],"[640.0, 512.0]",vertical,"(390.0, 262.0)",[0.85],[0.544],1,4273.106
11,False,632,0.546,32,[],[],"[(1146, 879)]",[],[1],[33],[0.55],"[640.0, 512.0]",horizontal,"(890.0, 262.0)",[0.65],[0.517],1,4277.489
11,False,633,0.735,44,[],[],"[(1113, 890)]",[],[1],[34],[0.5666666666666667],"[640.0, 512.0]",horizontal,"(890.0, 262.0)",[0.55],[0.526],1,4281.123
11,False,634,0.622,37,[],[],"[(1144, 874)]",[],[1],[19],[0.31666666666666665],"[640.0, 512.0]",horizontal,"(390.0, 262.0)",[1.35],[0.281],1,4284.951
11,False,635,1.102,66,[],[],"[(1123, 867)]",[],[1],[],[],"[640.0, 512.0]",horizontal,"(890.0, 762.0)",[],[0],0,4289.155
11,False,636,1.082,64,[],[],"[(1177, 871)]",[],[1],[35],[0.5833333333333334],"[640.0, 512.0]",vertical,"(890.0, 262.0)",[1.3166666666666667],[0.544],1,4293.408
11,False,637,1.108,66,[],[],"[(1148, 882)]",[],[1],[33],[0.55],"[640.0, 512.0]",vertical,"(390.0, 262.0)",[1.4833333333333334],[0.511],1,4298.455
11,False,638,0.526,31,[],[],"[(1148, 877)]",[],[1],[33],[0.55],"[640.0, 512.0]",horizontal,"(890.0, 262.0)",[0.6166666666666667],[0.507],1,4303.703
11,False,639,0.711,42,[],[],"[(1170, 879)]",[],[1],[31],[0.5166666666666666],"[640.0, 512.0]",vertical,"(390.0, 262.0)",[1.1],[0.477],1,4307.367
11,False,640,0.773,46,[],[],"[(1140, 873)]",[],[1],[8],[0.13333333333333333],"[640.0, 512.0]",horizontal,"(890.0, 762.0)",[1.2666666666666666],[0.101],1,4311.737
11,False,641,0.643,38,[],[],"[(1181, 860)]",[],[1],[37],[0.6166666666666667],"[640.0, 512.0]",vertical,"(390.0, 262.0)",[0.75],[0.575],1,4315.974
11,False,642,0.639,38,[],[],"[(1141, 870)]",[],[1],[33],[0.55],"[640.0, 512.0]",horizontal,"(390.0, 762.0)",[1.1166666666666667],[0.513],1,4320.11
11,False,643,0.953,57,[],[],"[(1142, 871)]",[],[1],[41],[0.6833333333333333],"[640.0, 512.0]",horizontal,"(890.0, 762.0)",[1.4],[0.645],1,4324.489
11,False,644,0.894,53,[],[],"[(1150, 860)]",[],[1],[33],[0.55],"[640.0, 512.0]",horizontal,"(390.0, 262.0)",[0.9166666666666666],[0.512],1,4329.569
11,False,645,1.111,66,[],[],"[(1143, 875)]",[],[1],[44],[0.7333333333333333],"[640.0, 512.0]",horizontal,"(390.0, 262.0)",[0.7333333333333333],[0.686],1,4333.939
11,False,646,0.855,51,[],[],"[(1175, 851)]",[],[1],[33],[0.55],"[640.0, 512.0]",horizontal,"(390.0, 762.0)",[0.8666666666666667],[0.51],1,4338.509
11,False,647,1.118,67,[],[],"[(1090, 859)]",[],[1],[33],[0.55],"[640.0, 512.0]",vertical,"(390.0, 262.0)",[1.1166666666666667],[0.512],1,4342.893
11,False,648,0.851,51,[],[],"[(1157, 869)]",[],[1],[37],[0.6166666666666667],"[640.0, 512.0]",horizontal,"(390.0, 762.0)",[0.9],[0.571],1,4347.788
11,False,649,0.574,34,[],[],"[(1146, 854)]",[],[1],[42],[0.7],"[640.0, 512.0]",vertical,"(890.0, 762.0)",[1.05],[0.656],1,4352.292
11,False,650,0.781,46,[],[],"[(1188, 863)]",[],[1],[35],[0.5833333333333334],"[640.0, 512.0]",vertical,"(390.0, 762.0)",[1.3666666666666667],[0.537],1,4356.644
11,False,651,0.631,37,[],[],"[(1109, 874)]",[],[1],[32],[0.5333333333333333],"[640.0, 512.0]",horizontal,"(890.0, 262.0)",[1.5333333333333332],[0.494],1,4361.323
11,False,652,0.589,35,[],[],"[(1179, 865)]",[],[1],[32],[0.5333333333333333],"[640.0, 512.0]",vertical,"(890.0, 762.0)",[0.5333333333333333],[0.495],1,4366.089
11,False,653,1.198,71,[],[],"[(1153, 871)]",[],[1],[20],[0.3333333333333333],"[640.0, 512.0]",vertical,"(390.0, 262.0)",[1.6666666666666667],[0.295],1,4369.756
11,False,654,0.993,59,[],[],"[(1154, 871)]",[],[1],[33],[0.55],"[640.0, 512.0]",vertical,"(390.0, 262.0)",[1.6333333333333333],[0.511],1,4374.943
11,False,655,0.509,30,[],[],"[(1148, 861)]",[],[1],[31],[0.5166666666666666],"[640.0, 512.0]",vertical,"(890.0, 262.0)",[0.8666666666666667],[0.475],1,4380.185
11,False,656,0.658,39,[],[],"[(1113, 874)]",[],[1],[35],[0.5833333333333334],"[640.0, 512.0]",vertical,"(390.0, 262.0)",[1.1833333333333333],[0.536],1,4384.056
11,False,657,0.575,34,[],[],"[(1175, 894)]",[],[1],[35],[0.5833333333333334],"[640.0, 512.0]",vertical,"(390.0, 262.0)",[0.55],[0.539],1,4388.523
11,False,658,0.543,32,[],[],"[(1143, 891)]",[],[1],[35],[0.5833333333333334],"[640.0, 512.0]",vertical,"(890.0, 762.0)",[1.2166666666666666],[0.546],1,4423.77
11,False,659,0.798,47,[],[],"[(1148, 891)]",[],[1],[44],[0.7333333333333333],"[640.0, 512.0]",vertical,"(890.0, 762.0)",[1.1166666666666667],[0.694],1,4428.171
11,False,660,1.109,66,[],[],"[(1119, 895)]",[],[1],[51],[0.85],"[640.0, 512.0]",horizontal,"(390.0, 262.0)",[0.55],[0.798],0,4432.725
12,False,661,1.094,65,[],[],"[(1159, 898)]",[],[1],[35],[0.5833333333333334],"[640.0, 512.0]",vertical,"(390.0, 262.0)",[0.9333333333333333],[0.544],1,4437.372
12,False,662,1.121,67,[],[],"[(1130, 888)]",[],[1],[33],[0.55],"[640.0, 512.0]",horizontal,"(390.0, 262.0)",[1.4166666666666667],[0.509],1,4442.96
12,False,663,0.697,41,[],[],"[(1142, 881)]",[],[1],[14],[0.23333333333333334],"[640.0, 512.0]",vertical,"(390.0, 262.0)",[1.3833333333333333],[0.202],1,4448.133
12,False,664,0.569,34,[],[],"[(1121, 862)]",[],[1],[51],[0.85],"[640.0, 512.0]",vertical,"(390.0, 762.0)",[1.4333333333333333],[0.803],0,4452.488
12,False,665,0.768,46,[],[],"[(1136, 855)]",[],[1],[37],[0.6166666666666667],"[640.0, 512.0]",vertical,"(390.0, 262.0)",[0.5],[0.571],1,4457.287
12,False,666,1.143,68,[],[],"[(1161, 861)]",[],[1],[32],[0.5333333333333333],"[640.0, 512.0]",vertical,"(890.0, 262.0)",[1.5166666666666666],[0.491],1,4461.156
