block,practice,trial,change_interval_s,change_interval_frames,taps_start_time_during_fix,taps_end_time_during_fix,taps_start_loc_during_fix,taps_end_loc_during_fix,taps_on_lever_during_fix,taps_on_lever_frame_during_fix,taps_on_lever_s_during_fix,fix_xy,bar_orientation,target_xy,cti,rt,acc,time
1,TRUE,1,0.875,52,,,"(1084, 799)",,1,24,0.4,"640.0, 512.0",vertical,"(390.0, 262.0)",1.666666667,0.367,1,0.461
1,TRUE,2,0.834,50,,,"(1166, 906)",,1,33,0.55,"640.0, 512.0",vertical,"(890.0, 262.0)",1.583333333,0.516,1,11.52
1,TRUE,3,0.858,51,,,"(1113, 877)",,1,31,0.516666667,"640.0, 512.0",vertical,"(890.0, 262.0)",1.583333333,0.48,1,67.453
1,TRUE,4,0.851,51,,,"(1088, 897)",,1,35,0.583333333,"640.0, 512.0",vertical,"(890.0, 762.0)",1.6,0.541,1,72.671
1,FALSE,1,0.528,31,,,"(1095, 865)",,1,35,0.583333333,"640.0, 512.0",horizontal,"(890.0, 762.0)",0.85,0.54,1,77.83
1,FALSE,2,1.168,70,,,"(1119, 884)",,1,37,0.616666667,"640.0, 512.0",vertical,"(890.0, 762.0)",0.65,0.576,1,81.982
1,FALSE,3,0.751,45,,,"(1114, 889)",,1,33,0.55,"640.0, 512.0",vertical,"(390.0, 762.0)",1.133333333,0.514,1,86.463
1,FALSE,4,0.58,34,,,"(1093, 855)",,1,36,0.6,"640.0, 512.0",vertical,"(890.0, 262.0)",0.516666667,0.554,1,90.894
1,FALSE,5,0.761,45,,,"(1093, 865)",,1,34,0.566666667,"640.0, 512.0",vertical,"(890.0, 762.0)",0.65,0.528,1,94.541
1,FALSE,6,0.784,47,,,"(1114, 860)",,1,37,0.616666667,"640.0, 512.0",horizontal,"(890.0, 262.0)",0.9,0.577,1,98.53
1,FALSE,7,0.611,36,,,"(1105, 879)",,1,37,0.616666667,"640.0, 512.0",vertical,"(390.0, 762.0)",0.683333333,0.576,1,102.711
1,FALSE,8,1.063,63,,,"(1092, 871)",,1,,,"640.0, 512.0",horizontal,"(390.0, 762.0)",,0,0,108.369
1,FALSE,9,1.162,69,,,"(1146, 870)",,1,37,0.616666667,"640.0, 512.0",vertical,"(890.0, 262.0)",1.2,0.573,1,113.454
1,FALSE,10,0.86,51,,,"(1083, 847)",,1,51,0.85,"640.0, 512.0",vertical,"(390.0, 762.0)",1.116666667,0.803,0,118.904
1,FALSE,11,0.948,56,,,"(1093, 872)",,1,41,0.683333333,"640.0, 512.0",horizontal,"(390.0, 762.0)",1.433333333,0.642,1,123.639
1,FALSE,12,1.11,66,,,"(1087, 889)",,1,35,0.583333333,"640.0, 512.0",vertical,"(390.0, 262.0)",1.033333333,0.545,1,131.94
1,FALSE,13,1.029,61,,,"(1116, 856)",,1,33,0.55,"640.0, 512.0",horizontal,"(390.0, 762.0)",1.683333333,0.512,1,172.69
1,FALSE,14,0.944,56,,,"(1088, 858)",,1,37,0.616666667,"640.0, 512.0",horizontal,"(390.0, 262.0)",1.016666667,0.58,1,177.938
1,FALSE,15,0.849,50,,,"(1087, 846)",,1,37,0.616666667,"640.0, 512.0",horizontal,"(390.0, 262.0)",0.633333333,0.573,1,182.494
1,FALSE,16,1.043,62,,,"(1122, 874)",,1,36,0.6,"640.0, 512.0",horizontal,"(890.0, 762.0)",1.05,0.559,1,191.41
1,FALSE,17,1.009,60,,,"(1093, 870)",,1,37,0.616666667,"640.0, 512.0",vertical,"(390.0, 262.0)",0.7,0.573,1,196.033
1,FALSE,18,0.581,34,,,"(1093, 854)",,1,32,0.533333333,"640.0, 512.0",vertical,"(890.0, 262.0)",0.6,0.496,1,200.412
1,FALSE,19,0.654,39,,,"(1099, 876)",,1,34,0.566666667,"640.0, 512.0",vertical,"(890.0, 762.0)",0.783333333,0.528,1,204.173
1,FALSE,20,1.037,62,,,"(1108, 847)",,1,37,0.616666667,"640.0, 512.0",horizontal,"(390.0, 762.0)",1.433333333,0.575,1,208.164
1,FALSE,21,1.179,70,,,"(1123, 864)",,1,37,0.616666667,"640.0, 512.0",vertical,"(390.0, 262.0)",1.133333333,0.575,1,217.256
1,FALSE,22,0.966,57,,,"(1123, 860)",,1,36,0.6,"640.0, 512.0",vertical,"(890.0, 762.0)",1.316666667,0.551,1,221.943
1,FALSE,23,0.843,50,,,"(1119, 854)",,1,38,0.633333333,"640.0, 512.0",vertical,"(890.0, 762.0)",1.4,0.585,1,226.73
1,FALSE,24,1.049,62,,,"(1118, 855)",,1,39,0.65,"640.0, 512.0",horizontal,"(890.0, 262.0)",1.366666667,0.611,1,231.443
1,FALSE,25,0.815,48,,,"(1123, 855)",,1,36,0.6,"640.0, 512.0",vertical,"(890.0, 262.0)",1.2,0.564,1,236.502
1,FALSE,26,0.884,53,,,"(1105, 855)",,1,34,0.566666667,"640.0, 512.0",vertical,"(390.0, 762.0)",0.983333333,0.534,1,241.012
1,FALSE,27,0.609,36,,,"(1089, 847)",,1,45,0.75,"640.0, 512.0",horizontal,"(390.0, 762.0)",0.583333333,0.705,1,245.411
1,FALSE,28,0.619,37,,,"(1096, 868)",,1,39,0.65,"640.0, 512.0",vertical,"(390.0, 262.0)",0.783333333,0.603,1,249.291
1,FALSE,29,0.778,46,,,"(1043, 836)",,1,40,0.666666667,"640.0, 512.0",horizontal,"(890.0, 262.0)",0.516666667,0.625,1,253.243
1,FALSE,30,0.523,31,,,"(1074, 858)",,1,39,0.65,"640.0, 512.0",vertical,"(890.0, 762.0)",1.283333333,0.613,1,257.326
1,FALSE,31,0.652,39,,,"(1118, 865)",,1,34,0.566666667,"640.0, 512.0",horizontal,"(890.0, 262.0)",0.766666667,0.524,1,261.744
1,FALSE,32,0.579,34,,,"(1123, 862)",,1,38,0.633333333,"640.0, 512.0",horizontal,"(890.0, 262.0)",0.633333333,0.59,1,265.825
1,FALSE,33,0.81,48,,,"(1094, 859)",,1,35,0.583333333,"640.0, 512.0",vertical,"(890.0, 262.0)",1.583333333,0.54,1,269.514
1,FALSE,34,0.729,43,,,"(1115, 850)",,1,34,0.566666667,"640.0, 512.0",vertical,"(890.0, 762.0)",1.266666667,0.522,1,274.446
1,FALSE,35,0.714,42,,,"(1110, 884)",,1,44,0.733333333,"640.0, 512.0",vertical,"(890.0, 762.0)",1.433333333,0.696,1,280.913
1,FALSE,36,0.953,57,,,"(1099, 908)",,1,33,0.55,"640.0, 512.0",vertical,"(890.0, 262.0)",0.916666667,0.509,1,285.708
1,FALSE,37,0.978,58,,,"(1120, 866)",,1,33,0.55,"640.0, 512.0",horizontal,"(390.0, 262.0)",0.7,0.511,1,640.54
1,FALSE,38,1.07,64,,,"(1103, 869)",,1,35,0.583333333,"640.0, 512.0",horizontal,"(390.0, 762.0)",1.35,0.54,1,644.587
1,FALSE,39,0.857,51,,,"(1114, 867)",,1,37,0.616666667,"640.0, 512.0",horizontal,"(890.0, 262.0)",0.733333333,0.573,1,649.564
1,FALSE,40,0.961,57,,,"(1123, 874)",,1,39,0.65,"640.0, 512.0",horizontal,"(890.0, 262.0)",0.633333333,0.606,1,653.728
1,FALSE,41,0.761,45,,,"(1080, 874)",,1,31,0.516666667,"640.0, 512.0",vertical,"(890.0, 262.0)",1.466666667,0.478,1,657.919
1,FALSE,42,1.045,62,,,"(1086, 853)",,1,34,0.566666667,"640.0, 512.0",horizontal,"(390.0, 262.0)",0.916666667,0.526,1,662.747
1,FALSE,43,0.784,47,,,"(1148, 860)",,1,33,0.55,"640.0, 512.0",horizontal,"(390.0, 262.0)",0.766666667,0.51,1,667.197
1,FALSE,44,0.807,48,,,"(1087, 860)",,1,36,0.6,"640.0, 512.0",horizontal,"(890.0, 762.0)",1.233333333,0.563,1,671.217
1,FALSE,45,1.127,67,,,"(1093, 866)",,1,34,0.566666667,"640.0, 512.0",horizontal,"(890.0, 762.0)",1.3,0.52,1,675.851
1,FALSE,46,0.651,39,,,"(1105, 842)",,1,33,0.55,"640.0, 512.0",horizontal,"(890.0, 762.0)",1.666666667,0.51,1,680.796
1,FALSE,47,0.994,59,,,"(1107, 869)",,1,36,0.6,"640.0, 512.0",vertical,"(890.0, 762.0)",1.633333333,0.555,1,685.625
1,FALSE,48,0.771,46,,,"(1086, 884)",,1,35,0.583333333,"640.0, 512.0",vertical,"(890.0, 262.0)",1.166666667,0.543,1,690.822
1,FALSE,49,0.9,54,,,"(1088, 854)",,1,39,0.65,"640.0, 512.0",horizontal,"(890.0, 262.0)",0.683333333,0.607,1,695.449
1,FALSE,50,0.512,30,,,"(1136, 850)",,1,39,0.65,"640.0, 512.0",horizontal,"(390.0, 262.0)",0.983333333,0.606,1,699.725
1,FALSE,51,0.675,40,,,"(1109, 871)",,1,35,0.583333333,"640.0, 512.0",vertical,"(390.0, 262.0)",0.966666667,0.544,1,703.903
1,FALSE,52,1.136,68,,,"(1133, 854)",,1,34,0.566666667,"640.0, 512.0",vertical,"(390.0, 262.0)",1.35,0.524,1,708.164
1,FALSE,53,0.842,50,,,"(1137, 865)",,1,43,0.716666667,"640.0, 512.0",horizontal,"(890.0, 262.0)",0.816666667,0.669,1,713.224
1,FALSE,54,0.832,49,,,"(1134, 859)",,1,35,0.583333333,"640.0, 512.0",horizontal,"(890.0, 262.0)",0.8,0.538,1,717.596
1,FALSE,55,0.871,52,,,"(1138, 867)",,1,37,0.616666667,"640.0, 512.0",horizontal,"(390.0, 762.0)",0.7,0.576,1,721.708
1,FALSE,56,1.004,60,,,"(1113, 865)",,1,35,0.583333333,"640.0, 512.0",horizontal,"(390.0, 762.0)",1.1,0.542,1,725.777
1,FALSE,57,0.573,34,,,"(1148, 875)",,1,36,0.6,"640.0, 512.0",vertical,"(390.0, 262.0)",1.133333333,0.555,1,736.01
1,FALSE,58,0.748,44,,,"(1113, 855)",,1,35,0.583333333,"640.0, 512.0",vertical,"(890.0, 762.0)",0.7,0.546,1,740.352
1,FALSE,59,0.87,52,,,"(1131, 902)",,1,51,0.85,"640.0, 512.0",horizontal,"(890.0, 262.0)",0.983333333,0.801,0,744.378
1,FALSE,60,0.743,44,,,"(1069, 882)",,1,37,0.616666667,"640.0, 512.0",horizontal,"(890.0, 762.0)",0.666666667,0.577,1,1027.214
2,FALSE,61,0.572,34,,,"(1118, 874)",,1,45,0.75,"640.0, 512.0",horizontal,"(890.0, 262.0)",1.033333333,0.706,1,1040.597
2,FALSE,62,0.612,36,,,"(1117, 865)",,1,35,0.583333333,"640.0, 512.0",vertical,"(390.0, 262.0)",1.466666667,0.539,1,1044.953
2,FALSE,63,1.044,62,,,"(1116, 865)",,1,31,0.516666667,"640.0, 512.0",vertical,"(890.0, 262.0)",1.45,0.481,1,1051.392
2,FALSE,64,0.972,58,,,"(1109, 867)",,1,17,0.283333333,"640.0, 512.0",horizontal,"(890.0, 262.0)",1.566666667,0.248,1,1056.294
2,FALSE,65,0.992,59,,,"(1142, 868)",,1,35,0.583333333,"640.0, 512.0",horizontal,"(390.0, 762.0)",1.583333333,0.542,1,1061.061
2,FALSE,66,0.584,35,,,"(1110, 849)",,1,35,0.583333333,"640.0, 512.0",vertical,"(890.0, 762.0)",1.033333333,0.542,1,1066.092
2,FALSE,67,0.821,49,,,"(1111, 866)",,1,30,0.5,"640.0, 512.0",horizontal,"(890.0, 262.0)",0.983333333,0.463,1,1070.948
2,FALSE,68,0.527,31,,,"(1090, 869)",,1,47,0.783333333,"640.0, 512.0",horizontal,"(390.0, 262.0)",0.55,0.737,1,1075.289
2,FALSE,69,0.978,58,,,"(1112, 865)",,1,34,0.566666667,"640.0, 512.0",horizontal,"(390.0, 762.0)",0.95,0.526,1,1079.077
2,FALSE,70,0.832,49,,,"(1111, 872)",,1,33,0.55,"640.0, 512.0",horizontal,"(390.0, 262.0)",1.383333333,0.506,1,1083.637
2,FALSE,71,0.631,37,,,"(1142, 870)",,1,34,0.566666667,"640.0, 512.0",vertical,"(890.0, 262.0)",1.1,0.534,1,1088.431
2,FALSE,72,0.799,47,,,"(1133, 864)",,1,34,0.566666667,"640.0, 512.0",vertical,"(390.0, 262.0)",1.016666667,0.531,1,1092.764
2,FALSE,73,1.111,66,,,"(1142, 851)",,1,34,0.566666667,"640.0, 512.0",horizontal,"(890.0, 262.0)",0.716666667,0.53,1,1097.049
2,FALSE,74,0.763,45,,,"(1138, 863)",,1,38,0.633333333,"640.0, 512.0",horizontal,"(390.0, 762.0)",1.233333333,0.596,1,1101.515
2,FALSE,75,0.848,50,,,"(1115, 863)",,1,34,0.566666667,"640.0, 512.0",vertical,"(390.0, 762.0)",0.8,0.532,1,1106.127
2,FALSE,76,0.992,59,,,"(1096, 843)",,1,51,0.85,"640.0, 512.0",horizontal,"(390.0, 262.0)",0.8,0.801,0,1118.856
2,FALSE,77,0.698,41,,,"(1105, 861)",,1,49,0.816666667,"640.0, 512.0",vertical,"(890.0, 262.0)",1.583333333,0.773,1,1123.611
2,FALSE,78,1.003,60,,,"(1111, 858)",,1,36,0.6,"640.0, 512.0",vertical,"(390.0, 262.0)",1.083333333,0.561,1,1129.558
2,FALSE,79,1.189,71,,,"(1080, 850)",,1,40,0.666666667,"640.0, 512.0",horizontal,"(390.0, 762.0)",0.85,0.626,1,1134.364
2,FALSE,80,0.735,44,,,"(1118, 867)",,1,37,0.616666667,"640.0, 512.0",vertical,"(390.0, 262.0)",0.666666667,0.578,1,1139.159
2,FALSE,81,0.961,57,,,"(1142, 861)",,1,35,0.583333333,"640.0, 512.0",horizontal,"(390.0, 262.0)",1.033333333,0.542,1,1143.124
2,FALSE,82,0.812,48,,,"(1117, 855)",,1,43,0.716666667,"640.0, 512.0",vertical,"(890.0, 762.0)",0.566666667,0.679,1,1147.677
2,FALSE,83,0.884,53,,,"(1111, 857)",,1,37,0.616666667,"640.0, 512.0",horizontal,"(890.0, 762.0)",1.15,0.584,1,1151.775
2,FALSE,84,1.071,64,,,"(1113, 847)",,1,35,0.583333333,"640.0, 512.0",horizontal,"(890.0, 762.0)",1.266666667,0.553,1,1156.353
2,FALSE,85,0.699,41,,,"(1111, 872)",,1,33,0.55,"640.0, 512.0",vertical,"(890.0, 262.0)",0.766666667,0.519,1,1161.286
2,FALSE,86,0.931,55,,,"(1096, 847)",,1,33,0.55,"640.0, 512.0",horizontal,"(390.0, 762.0)",0.85,0.519,1,1165.43
2,FALSE,87,0.669,40,,,"(1089, 847)",,1,45,0.75,"640.0, 512.0",horizontal,"(890.0, 262.0)",1,0.718,1,1173.089
2,FALSE,88,0.693,41,,,"(1152, 869)",,1,35,0.583333333,"640.0, 512.0",horizontal,"(890.0, 762.0)",1.483333333,0.551,1,1177.618
2,FALSE,89,0.861,51,,,"(1105, 862)",,1,32,0.533333333,"640.0, 512.0",horizontal,"(390.0, 262.0)",1.666666667,0.499,1,1182.444
2,FALSE,90,0.658,39,,,"(1105, 858)",,1,32,0.533333333,"640.0, 512.0",vertical,"(390.0, 762.0)",1.366666667,0.505,1,1187.576
2,FALSE,91,0.908,54,,,"(1114, 855)",,1,51,0.85,"640.0, 512.0",horizontal,"(890.0, 762.0)",1.25,0.82,0,1192.246
2,FALSE,92,1.136,68,,,"(1111, 865)",,1,35,0.583333333,"640.0, 512.0",vertical,"(890.0, 262.0)",0.583333333,0.552,1,1197.262
2,FALSE,93,1.177,70,,,"(1142, 876)",,1,51,0.85,"640.0, 512.0",horizontal,"(890.0, 762.0)",0.733333333,0.811,0,1201.643
2,FALSE,94,1.192,71,,,"(1129, 865)",,1,34,0.566666667,"640.0, 512.0",vertical,"(390.0, 262.0)",0.683333333,0.526,1,1206.471
2,FALSE,95,0.989,59,,,"(1124, 860)",,1,34,0.566666667,"640.0, 512.0",vertical,"(890.0, 262.0)",1.166666667,0.54,1,1228.136
2,FALSE,96,0.534,32,,,"(1123, 857)",,1,35,0.583333333,"640.0, 512.0",horizontal,"(390.0, 762.0)",0.866666667,0.543,1,1232.852
2,FALSE,97,0.79,47,,,"(1093, 847)",,1,38,0.633333333,"640.0, 512.0",vertical,"(890.0, 762.0)",1.2,0.593,1,1236.808
2,FALSE,98,1.099,65,,,"(1130, 860)",,1,34,0.566666667,"640.0, 512.0",vertical,"(890.0, 762.0)",1.65,0.528,1,1241.41
2,FALSE,99,0.815,48,,,"(1102, 867)",,1,45,0.75,"640.0, 512.0",horizontal,"(890.0, 262.0)",1.55,0.706,1,1246.672
2,FALSE,100,0.652,39,,,"(1123, 862)",,1,39,0.65,"640.0, 512.0",horizontal,"(890.0, 762.0)",0.716666667,0.604,1,1251.764
2,FALSE,101,1.06,63,,,"(1105, 858)",,1,3,0.05,"640.0, 512.0",vertical,"(890.0, 762.0)",1.216666667,0.019,1,1255.874
2,FALSE,102,1.145,68,,,"(1117, 899)",,1,33,0.55,"640.0, 512.0",horizontal,"(390.0, 262.0)",1.383333333,0.519,1,1260.275
2,FALSE,103,0.916,54,,,"(1142, 859)",,1,33,0.55,"640.0, 512.0",horizontal,"(390.0, 262.0)",1.166666667,0.514,1,1267.059
2,FALSE,104,0.986,59,,,"(1107, 871)",,1,36,0.6,"640.0, 512.0",horizontal,"(890.0, 762.0)",0.666666667,0.558,1,1271.651
2,FALSE,105,0.557,33,,,"(1136, 865)",,1,38,0.633333333,"640.0, 512.0",vertical,"(390.0, 262.0)",0.7,0.592,1,1275.744
2,FALSE,106,0.68,40,,,"(1112, 893)",,1,33,0.55,"640.0, 512.0",horizontal,"(890.0, 762.0)",0.8,0.513,1,1279.633
2,FALSE,107,0.997,59,,,"(1119, 850)",,1,35,0.583333333,"640.0, 512.0",horizontal,"(390.0, 762.0)",0.883333333,0.543,1,1283.537
2,FALSE,108,0.5,30,,,"(1123, 858)",,1,38,0.633333333,"640.0, 512.0",vertical,"(390.0, 262.0)",0.7,0.591,1,1288.068
2,FALSE,109,0.595,35,,,"(1105, 872)",,1,16,0.266666667,"640.0, 512.0",vertical,"(390.0, 262.0)",0.766666667,0.233,1,1291.992
2,FALSE,110,0.503,30,,,"(1093, 875)",,1,35,0.583333333,"640.0, 512.0",horizontal,"(390.0, 262.0)",0.95,0.538,1,1295.674
2,FALSE,111,0.758,45,,,"(1087, 854)",,1,33,0.55,"640.0, 512.0",horizontal,"(890.0, 262.0)",1.05,0.512,1,1299.677
2,FALSE,112,1.064,63,,,"(1131, 847)",,1,38,0.633333333,"640.0, 512.0",horizontal,"(390.0, 762.0)",1.2,0.587,1,1303.981
2,FALSE,113,0.682,40,,,"(1118, 865)",,1,34,0.566666667,"640.0, 512.0",horizontal,"(890.0, 762.0)",1.183333333,0.526,1,1308.737
2,FALSE,114,0.856,51,,,"(1124, 850)",,1,41,0.683333333,"640.0, 512.0",horizontal,"(890.0, 762.0)",1.466666667,0.638,1,1313.112
2,FALSE,115,0.838,50,,,"(1136, 865)",,1,23,0.383333333,"640.0, 512.0",vertical,"(390.0, 262.0)",0.75,0.345,1,1318.19
2,FALSE,116,0.654,39,,,"(1113, 891)",,1,32,0.533333333,"640.0, 512.0",horizontal,"(890.0, 262.0)",0.733333333,0.492,1,1322.178
2,FALSE,117,0.853,51,,,"(1129, 848)",,1,33,0.55,"640.0, 512.0",vertical,"(390.0, 262.0)",1.033333333,0.508,1,1361.499
2,FALSE,118,0.818,49,,,"(1136, 847)",,1,36,0.6,"640.0, 512.0",horizontal,"(390.0, 262.0)",0.6,0.559,1,1365.98
2,FALSE,119,1.096,65,,,"(1112, 846)",,1,33,0.55,"640.0, 512.0",vertical,"(890.0, 762.0)",1.683333333,0.511,1,1370.023
2,FALSE,120,1.118,67,,,"(1115, 851)",,1,37,0.616666667,"640.0, 512.0",horizontal,"(390.0, 262.0)",1.033333333,0.579,1,1378.032
3,FALSE,121,1.124,67,,,"(1117, 854)",,1,35,0.583333333,"640.0, 512.0",horizontal,"(890.0, 762.0)",0.816666667,0.538,1,1382.749
3,FALSE,122,1.1,66,,,"(1196, 851)",,1,36,0.6,"640.0, 512.0",vertical,"(390.0, 262.0)",1.65,0.557,1,1387.2
3,FALSE,123,0.754,45,,,"(1117, 860)",,1,33,0.55,"640.0, 512.0",vertical,"(390.0, 262.0)",0.716666667,0.51,1,1392.634
3,FALSE,124,0.626,37,,,"(1153, 846)",,1,37,0.616666667,"640.0, 512.0",horizontal,"(390.0, 762.0)",0.766666667,0.578,1,1396.584
3,FALSE,125,0.863,51,,,"(1167, 864)",,1,35,0.583333333,"640.0, 512.0",horizontal,"(390.0, 762.0)",0.633333333,0.536,1,1400.576
3,FALSE,126,0.694,41,,,"(1117, 847)",,1,41,0.683333333,"640.0, 512.0",vertical,"(890.0, 262.0)",1.683333333,0.638,1,1404.611
3,FALSE,127,0.649,38,,,"(1093, 841)",,1,32,0.533333333,"640.0, 512.0",horizontal,"(890.0, 262.0)",0.9,0.494,1,1409.612
3,FALSE,128,0.85,51,,,"(1160, 860)",,1,40,0.666666667,"640.0, 512.0",vertical,"(390.0, 762.0)",0.65,0.621,1,1413.881
3,FALSE,129,0.968,58,,,"(1129, 887)",,1,46,0.766666667,"640.0, 512.0",vertical,"(890.0, 262.0)",0.783333333,0.726,1,1418.021
3,FALSE,130,0.72,43,,,"(1147, 866)",,1,34,0.566666667,"640.0, 512.0",vertical,"(890.0, 262.0)",1.533333333,0.526,1,1437.547
3,FALSE,131,0.891,53,,,"(1117, 872)",,1,51,0.85,"640.0, 512.0",vertical,"(890.0, 262.0)",1.233333333,0.804,0,1442.299
3,FALSE,132,0.912,54,,,"(1169, 859)",,1,38,0.633333333,"640.0, 512.0",horizontal,"(890.0, 762.0)",1.616666667,0.592,1,1447.184
3,FALSE,133,0.949,56,,,"(1166, 873)",,1,33,0.55,"640.0, 512.0",vertical,"(390.0, 262.0)",1.65,0.51,1,1452.277
3,FALSE,134,0.91,54,,,"(1124, 867)",,1,34,0.566666667,"640.0, 512.0",horizontal,"(890.0, 262.0)",1.183333333,0.523,1,1457.327
3,FALSE,135,0.567,34,,,"(1136, 875)",,1,30,0.5,"640.0, 512.0",vertical,"(890.0, 262.0)",1.233333333,0.463,1,1461.828
3,FALSE,136,1.049,62,,,"(1146, 864)",,1,39,0.65,"640.0, 512.0",vertical,"(390.0, 762.0)",1.35,0.609,1,1466.193
3,FALSE,137,0.578,34,,,"(1144, 861)",,1,43,0.716666667,"640.0, 512.0",horizontal,"(890.0, 762.0)",1.2,0.674,1,1471.212
3,FALSE,138,0.788,47,,,"(1130, 864)",,1,35,0.583333333,"640.0, 512.0",horizontal,"(890.0, 762.0)",1.35,0.544,1,1475.727
3,FALSE,139,0.744,44,,,"(1142, 862)",,1,36,0.6,"640.0, 512.0",horizontal,"(390.0, 762.0)",0.6,0.56,1,1480.465
3,FALSE,140,0.942,56,,,"(1099, 884)",,1,35,0.583333333,"640.0, 512.0",vertical,"(890.0, 762.0)",1.433333333,0.542,1,1484.371
3,FALSE,141,0.88,52,,,"(1129, 855)",,1,35,0.583333333,"640.0, 512.0",vertical,"(890.0, 262.0)",0.866666667,0.541,1,1489.28
3,FALSE,142,0.597,35,,,"(1129, 879)",,1,41,0.683333333,"640.0, 512.0",horizontal,"(390.0, 262.0)",1.466666667,0.64,1,1493.671
3,FALSE,143,0.752,45,,,"(1117, 869)",,1,35,0.583333333,"640.0, 512.0",vertical,"(390.0, 762.0)",0.75,0.544,1,1498.505
3,FALSE,144,1.014,60,,,"(1125, 872)",,1,36,0.6,"640.0, 512.0",vertical,"(890.0, 262.0)",0.883333333,0.557,1,1502.799
3,FALSE,145,0.762,45,,,"(1099, 887)",,1,39,0.65,"640.0, 512.0",vertical,"(390.0, 762.0)",0.783333333,0.605,1,1507.289
3,FALSE,146,1.192,71,,,"(1113, 884)",,1,33,0.55,"640.0, 512.0",vertical,"(390.0, 762.0)",0.783333333,0.506,1,1511.355
3,FALSE,147,1.149,68,,,"(1080, 863)",,1,36,0.6,"640.0, 512.0",vertical,"(890.0, 262.0)",0.733333333,0.56,1,1515.951
3,FALSE,148,1.103,66,,,"(1112, 847)",,1,33,0.55,"640.0, 512.0",horizontal,"(890.0, 762.0)",0.566666667,0.507,1,1520.285
3,FALSE,149,1.035,62,,,"(1117, 875)",,1,35,0.583333333,"640.0, 512.0",horizontal,"(890.0, 762.0)",1.3,0.545,1,1524.403
3,FALSE,150,0.833,49,,,"(1136, 870)",,1,43,0.716666667,"640.0, 512.0",vertical,"(390.0, 762.0)",0.6,0.676,1,1529.344
3,FALSE,151,0.918,55,,,"(1150, 880)",,1,37,0.616666667,"640.0, 512.0",vertical,"(390.0, 762.0)",1.016666667,0.575,1,1533.402
3,FALSE,152,0.526,31,,,"(1123, 861)",,1,34,0.566666667,"640.0, 512.0",vertical,"(890.0, 262.0)",1.15,0.523,1,1538.067
3,FALSE,153,1.194,71,,,"(1142, 881)",,1,36,0.6,"640.0, 512.0",horizontal,"(890.0, 762.0)",1.616666667,0.559,1,1542.293
3,FALSE,154,1.183,70,,,"(1105, 880)",,1,35,0.583333333,"640.0, 512.0",horizontal,"(390.0, 262.0)",1.533333333,0.545,1,1547.607
3,FALSE,155,0.872,52,,,"(1112, 865)",,1,38,0.633333333,"640.0, 512.0",horizontal,"(390.0, 262.0)",1.683333333,0.591,1,1552.912
3,FALSE,156,1.044,62,,,"(1108, 873)",,1,40,0.666666667,"640.0, 512.0",horizontal,"(890.0, 262.0)",1.283333333,0.621,1,1558.107
3,FALSE,157,0.952,57,,,"(1112, 865)",,1,37,0.616666667,"640.0, 512.0",vertical,"(390.0, 262.0)",0.983333333,0.578,1,1563.076
3,FALSE,158,0.764,45,,,"(1105, 888)",,1,30,0.5,"640.0, 512.0",horizontal,"(890.0, 262.0)",0.983333333,0.457,1,1567.52
3,FALSE,159,0.808,48,,,"(1132, 866)",,1,32,0.533333333,"640.0, 512.0",vertical,"(890.0, 262.0)",1.666666667,0.491,1,1832.18
3,FALSE,160,1.131,67,,,"(1130, 867)",,1,46,0.766666667,"640.0, 512.0",vertical,"(390.0, 262.0)",1.566666667,0.718,1,1837.126
3,FALSE,161,1.01,60,,,"(1130, 880)",,1,37,0.616666667,"640.0, 512.0",horizontal,"(890.0, 762.0)",1.6,0.568,1,1842.322
3,FALSE,162,0.724,43,,,"(1136, 867)",,1,34,0.566666667,"640.0, 512.0",horizontal,"(890.0, 762.0)",0.533333333,0.524,1,1847.511
3,FALSE,163,0.871,52,,,"(1123, 867)",,1,34,0.566666667,"640.0, 512.0",vertical,"(390.0, 762.0)",1.45,0.526,1,1851.158
3,FALSE,164,0.959,57,,,"(1136, 869)",,1,34,0.566666667,"640.0, 512.0",horizontal,"(890.0, 762.0)",0.75,0.525,1,1856.044
3,FALSE,165,0.78,46,,,"(1137, 860)",,1,36,0.6,"640.0, 512.0",horizontal,"(890.0, 262.0)",1.633333333,0.557,1,1860.183
3,FALSE,166,0.569,34,,,"(1130, 875)",,1,34,0.566666667,"640.0, 512.0",vertical,"(390.0, 262.0)",0.833333333,0.52,1,1865.048
3,FALSE,167,0.685,41,,,"(1135, 889)",,1,34,0.566666667,"640.0, 512.0",vertical,"(390.0, 762.0)",1.533333333,0.521,1,1869.017
3,FALSE,168,0.723,43,,,"(1125, 865)",,1,36,0.6,"640.0, 512.0",horizontal,"(890.0, 262.0)",1.083333333,0.559,1,1873.732
3,FALSE,169,1,60,,,"(1136, 860)",,1,32,0.533333333,"640.0, 512.0",vertical,"(890.0, 262.0)",0.966666667,0.489,1,1878.045
3,FALSE,170,0.783,46,,,"(1142, 878)",,1,33,0.55,"640.0, 512.0",vertical,"(890.0, 762.0)",0.866666667,0.506,1,1882.428
3,FALSE,171,1.13,67,,,"(1129, 915)",,1,30,0.5,"640.0, 512.0",vertical,"(890.0, 262.0)",0.733333333,0.46,1,1886.68
3,FALSE,172,1.164,69,,,"(1111, 886)",,1,35,0.583333333,"640.0, 512.0",horizontal,"(890.0, 762.0)",1.25,0.541,1,2149.985
3,FALSE,173,0.73,43,,,"(1102, 866)",,1,39,0.65,"640.0, 512.0",vertical,"(390.0, 762.0)",0.983333333,0.61,1,2154.922
3,FALSE,174,0.868,52,,,"(1111, 879)",,1,34,0.566666667,"640.0, 512.0",horizontal,"(390.0, 262.0)",0.766666667,0.524,1,2159.07
3,FALSE,175,1.067,64,,,"(1080, 871)",,1,38,0.633333333,"640.0, 512.0",horizontal,"(390.0, 762.0)",0.983333333,0.592,1,2163.364
3,FALSE,176,1.028,61,,,"(1142, 879)",,1,32,0.533333333,"640.0, 512.0",vertical,"(390.0, 762.0)",1.166666667,0.493,1,2167.958
3,FALSE,177,0.72,43,,,"(1104, 889)",,1,31,0.516666667,"640.0, 512.0",horizontal,"(390.0, 762.0)",1.066666667,0.477,1,2172.76
3,FALSE,178,1.051,63,,,"(1105, 866)",,1,35,0.583333333,"640.0, 512.0",horizontal,"(390.0, 262.0)",0.933333333,0.539,1,2178.343
3,FALSE,179,0.8,48,,,"(1130, 878)",,1,42,0.7,"640.0, 512.0",vertical,"(890.0, 262.0)",0.716666667,0.654,1,2182.757
3,FALSE,180,1.189,71,,,"(1105, 859)",,1,41,0.683333333,"640.0, 512.0",vertical,"(890.0, 262.0)",1.516666667,0.639,1,2186.978
4,FALSE,181,1.016,60,,,"(1121, 875)",,1,35,0.583333333,"640.0, 512.0",horizontal,"(890.0, 262.0)",1.066666667,0.538,1,2194.613
4,FALSE,182,0.785,47,,,"(1150, 860)",,1,35,0.583333333,"640.0, 512.0",horizontal,"(390.0, 262.0)",1.316666667,0.54,1,2199.207
4,FALSE,183,1.001,60,,,"(1112, 882)",,1,37,0.616666667,"640.0, 512.0",vertical,"(390.0, 762.0)",1.65,0.573,1,2205.996
4,FALSE,184,1.059,63,,,"(1111, 863)",,1,44,0.733333333,"640.0, 512.0",vertical,"(390.0, 762.0)",1.216666667,0.698,1,2211.059
4,FALSE,185,0.536,32,,,"(1135, 865)",,1,39,0.65,"640.0, 512.0",horizontal,"(390.0, 262.0)",1.433333333,0.608,1,2219.969
4,FALSE,186,0.52,31,,,"(1091, 875)",,1,51,0.85,"640.0, 512.0",vertical,"(390.0, 762.0)",1.55,0.801,0,2224.612
4,FALSE,187,0.919,55,,,"(1105, 836)",,1,32,0.533333333,"640.0, 512.0",horizontal,"(890.0, 262.0)",0.616666667,0.494,1,2229.457
4,FALSE,188,0.659,39,,,"(1130, 866)",,1,37,0.616666667,"640.0, 512.0",horizontal,"(390.0, 762.0)",1.566666667,0.576,1,2245.764
4,FALSE,189,0.551,33,,,"(1113, 859)",,1,33,0.55,"640.0, 512.0",horizontal,"(890.0, 262.0)",1.366666667,0.51,1,2250.629
4,FALSE,190,0.988,59,,,"(1104, 865)",,1,37,0.616666667,"640.0, 512.0",horizontal,"(890.0, 762.0)",1.316666667,0.57,1,2255.084
4,FALSE,191,0.543,32,,,"(1125, 848)",,1,43,0.716666667,"640.0, 512.0",vertical,"(390.0, 262.0)",1.283333333,0.67,1,2259.818
4,FALSE,192,0.805,48,,,"(1105, 894)",,1,31,0.516666667,"640.0, 512.0",horizontal,"(890.0, 262.0)",1.366666667,0.477,1,2265.998
4,FALSE,193,0.575,34,,,"(1100, 879)",,1,37,0.616666667,"640.0, 512.0",horizontal,"(890.0, 262.0)",0.933333333,0.579,1,2270.598
4,FALSE,194,0.751,45,,,"(1161, 890)",,1,32,0.533333333,"640.0, 512.0",horizontal,"(890.0, 762.0)",0.583333333,0.498,1,2274.55
4,FALSE,195,0.709,42,,,"(1099, 848)",,1,32,0.533333333,"640.0, 512.0",horizontal,"(890.0, 262.0)",1.2,0.503,1,2279.415
4,FALSE,196,1.137,68,,,"(1127, 862)",,1,40,0.666666667,"640.0, 512.0",horizontal,"(890.0, 762.0)",1.166666667,0.626,1,2284.817
4,FALSE,197,0.624,37,,,"(1117, 868)",,1,44,0.733333333,"640.0, 512.0",vertical,"(390.0, 262.0)",0.983333333,0.69,1,2289.663
4,FALSE,198,1.042,62,,,"(1080, 865)",,1,34,0.566666667,"640.0, 512.0",horizontal,"(390.0, 762.0)",1.133333333,0.526,1,2293.951
4,FALSE,199,0.8,48,,,"(1106, 865)",,1,51,0.85,"640.0, 512.0",horizontal,"(390.0, 262.0)",1.15,0.806,0,2298.767
4,FALSE,200,0.691,41,,,"(1092, 855)",,1,37,0.616666667,"640.0, 512.0",vertical,"(390.0, 262.0)",1.566666667,0.59,1,2303.651
4,FALSE,201,1.061,63,,,"(1142, 856)",,1,39,0.65,"640.0, 512.0",vertical,"(890.0, 262.0)",1,0.61,1,2313.319
4,FALSE,202,1.07,64,,,"(1111, 863)",,1,32,0.533333333,"640.0, 512.0",horizontal,"(390.0, 762.0)",1.666666667,0.501,1,2317.998
4,FALSE,203,0.714,42,,,"(1118, 867)",,1,33,0.55,"640.0, 512.0",vertical,"(890.0, 262.0)",1.583333333,0.507,1,2325.245
4,FALSE,204,1.088,65,,,"(1154, 884)",,1,34,0.566666667,"640.0, 512.0",horizontal,"(390.0, 762.0)",0.8,0.524,1,2330.093
4,FALSE,205,0.627,37,,,"(1105, 876)",,1,35,0.583333333,"640.0, 512.0",vertical,"(390.0, 762.0)",0.95,0.539,1,2334.498
4,FALSE,206,0.851,51,,,"(1122, 871)",,1,32,0.533333333,"640.0, 512.0",vertical,"(390.0, 762.0)",1.633333333,0.496,1,2346.824
4,FALSE,207,1.075,64,,,"(1118, 858)",,1,33,0.55,"640.0, 512.0",horizontal,"(890.0, 762.0)",1.316666667,0.511,1,2351.818
4,FALSE,208,0.698,41,,,"(1136, 864)",,1,42,0.7,"640.0, 512.0",vertical,"(890.0, 262.0)",0.883333333,0.654,1,2356.717
4,FALSE,209,0.627,37,,,"(1106, 880)",,1,37,0.616666667,"640.0, 512.0",vertical,"(390.0, 762.0)",0.933333333,0.578,1,2361.109
4,FALSE,210,1.196,71,,,"(1166, 896)",,1,48,0.8,"640.0, 512.0",vertical,"(390.0, 262.0)",0.833333333,0.762,1,2365.085
4,FALSE,211,0.821,49,,,"(1129, 868)",,1,34,0.566666667,"640.0, 512.0",horizontal,"(890.0, 762.0)",0.65,0.536,1,2428.782
4,FALSE,212,0.69,41,,,"(1121, 868)",,1,40,0.666666667,"640.0, 512.0",vertical,"(390.0, 262.0)",1.15,0.626,1,2432.772
4,FALSE,213,0.853,51,,,"(1161, 875)",,1,35,0.583333333,"640.0, 512.0",horizontal,"(890.0, 762.0)",1.216666667,0.55,1,2437.134
4,FALSE,214,0.733,43,,,"(1128, 875)",,1,37,0.616666667,"640.0, 512.0",vertical,"(890.0, 762.0)",1.583333333,0.583,1,2441.685
4,FALSE,215,0.5,30,,,"(1123, 881)",,1,35,0.583333333,"640.0, 512.0",vertical,"(390.0, 762.0)",0.916666667,0.542,1,2446.516
4,FALSE,216,0.514,30,,,"(1142, 879)",,1,51,0.85,"640.0, 512.0",vertical,"(890.0, 762.0)",0.5,0.803,0,2450.379
4,FALSE,217,1.062,63,,,"(1142, 870)",,1,8,0.133333333,"640.0, 512.0",vertical,"(390.0, 762.0)",1.483333333,0.102,1,2454.198
4,FALSE,218,0.654,39,,,"(1094, 892)",,1,34,0.566666667,"640.0, 512.0",horizontal,"(890.0, 762.0)",0.566666667,0.524,1,2458.844
4,FALSE,219,0.867,52,,,"(1136, 876)",,1,32,0.533333333,"640.0, 512.0",horizontal,"(890.0, 762.0)",1.2,0.495,1,2462.631
4,FALSE,220,1.106,66,,,"(1156, 870)",,1,31,0.516666667,"640.0, 512.0",vertical,"(890.0, 762.0)",0.766666667,0.478,1,2467.085
4,FALSE,221,1.033,61,,,"(1143, 863)",,1,35,0.583333333,"640.0, 512.0",horizontal,"(390.0, 762.0)",1.433333333,0.541,1,2471.346
4,FALSE,222,0.884,53,,,"(1157, 864)",,1,34,0.566666667,"640.0, 512.0",vertical,"(390.0, 262.0)",1.383333333,0.526,1,2476.406
4,FALSE,223,0.502,30,,,"(1148, 870)",,1,33,0.55,"640.0, 512.0",vertical,"(890.0, 762.0)",1.183333333,0.51,1,2481.152
4,FALSE,224,0.579,34,,,"(1196, 889)",,1,41,0.683333333,"640.0, 512.0",horizontal,"(890.0, 762.0)",0.6,0.639,1,2485.463
4,FALSE,225,0.769,46,,,"(1133, 877)",,1,34,0.566666667,"640.0, 512.0",vertical,"(890.0, 762.0)",0.833333333,0.528,1,2489.215
4,FALSE,226,0.674,40,,,"(1136, 932)",,1,31,0.516666667,"640.0, 512.0",horizontal,"(390.0, 262.0)",1.333333333,0.476,1,2709.085
4,FALSE,227,0.557,33,,,"(1107, 872)",,1,34,0.566666667,"640.0, 512.0",horizontal,"(390.0, 762.0)",1.25,0.527,1,2931.578
4,FALSE,228,1.055,63,,,"(1153, 860)",,1,34,0.566666667,"640.0, 512.0",vertical,"(390.0, 262.0)",0.95,0.523,1,2935.955
4,FALSE,229,0.676,40,,,"(1117, 884)",,1,33,0.55,"640.0, 512.0",horizontal,"(890.0, 762.0)",0.533333333,0.507,1,2940.376
4,FALSE,230,1.003,60,,,"(1140, 873)",,1,32,0.533333333,"640.0, 512.0",horizontal,"(890.0, 762.0)",0.533333333,0.487,1,2943.937
4,FALSE,231,0.711,42,,,"(1116, 863)",,1,37,0.616666667,"640.0, 512.0",horizontal,"(390.0, 762.0)",0.8,0.572,1,2947.992
4,FALSE,232,0.969,58,,,"(1126, 871)",,1,34,0.566666667,"640.0, 512.0",horizontal,"(390.0, 762.0)",1.616666667,0.53,1,2953.574
4,FALSE,233,1.188,71,,,"(1140, 889)",,1,37,0.616666667,"640.0, 512.0",horizontal,"(890.0, 262.0)",1.566666667,0.576,1,2958.713
4,FALSE,234,0.614,36,,,"(1130, 879)",,1,32,0.533333333,"640.0, 512.0",horizontal,"(890.0, 762.0)",0.6,0.493,1,2964.13
4,FALSE,235,1.007,60,,,"(1152, 867)",,1,34,0.566666667,"640.0, 512.0",horizontal,"(390.0, 262.0)",1.366666667,0.534,1,2967.752
4,FALSE,236,0.765,45,,,"(1137, 883)",,1,34,0.566666667,"640.0, 512.0",vertical,"(390.0, 262.0)",1.516666667,0.521,1,2972.554
4,FALSE,237,0.835,50,,,"(1136, 872)",,1,38,0.633333333,"640.0, 512.0",horizontal,"(890.0, 762.0)",1.183333333,0.592,1,2977.358
4,FALSE,238,0.845,50,,,"(1100, 859)",,1,34,0.566666667,"640.0, 512.0",vertical,"(890.0, 262.0)",1.35,0.528,1,2981.983
4,FALSE,239,0.575,34,,,"(1125, 878)",,1,37,0.616666667,"640.0, 512.0",vertical,"(890.0, 762.0)",0.666666667,0.575,1,2986.721
4,FALSE,240,0.647,38,,,"(1155, 874)",,1,42,0.7,"640.0, 512.0",vertical,"(390.0, 762.0)",0.55,0.649,1,2990.514
5,FALSE,241,1.123,67,,,"(1142, 859)",,1,34,0.566666667,"640.0, 512.0",horizontal,"(890.0, 262.0)",0.533333333,0.52,1,2994.293
5,FALSE,242,1.011,60,,,"(1123, 870)",,1,34,0.566666667,"640.0, 512.0",horizontal,"(390.0, 262.0)",0.666666667,0.528,1,2998.598
5,FALSE,243,1.095,65,,,"(1144, 869)",,1,34,0.566666667,"640.0, 512.0",vertical,"(390.0, 262.0)",1.166666667,0.525,1,3002.72
5,FALSE,244,0.944,56,,,"(1142, 863)",,1,35,0.583333333,"640.0, 512.0",horizontal,"(390.0, 262.0)",1.5,0.548,1,3007.384
5,FALSE,245,0.523,31,,,"(1096, 895)",,1,34,0.566666667,"640.0, 512.0",horizontal,"(890.0, 762.0)",0.733333333,0.526,1,3012.424
5,FALSE,246,0.853,51,,,"(1125, 877)",,1,34,0.566666667,"640.0, 512.0",vertical,"(390.0, 762.0)",1.183333333,0.527,1,3124.92
5,FALSE,247,0.824,49,,,"(1087, 900)",,1,32,0.533333333,"640.0, 512.0",vertical,"(890.0, 262.0)",0.7,0.493,1,3129.388
5,FALSE,248,0.72,43,,,"(1096, 889)",,1,35,0.583333333,"640.0, 512.0",horizontal,"(890.0, 762.0)",1.266666667,0.546,1,3278.162
5,FALSE,249,0.647,38,,,"(1106, 874)",,1,34,0.566666667,"640.0, 512.0",horizontal,"(390.0, 762.0)",1,0.526,1,3283.969
5,FALSE,250,0.526,31,,,"(1050, 881)",,1,42,0.7,"640.0, 512.0",horizontal,"(890.0, 762.0)",0.966666667,0.657,1,3288.738
5,FALSE,251,0.848,50,,,"(1088, 888)",,1,38,0.633333333,"640.0, 512.0",vertical,"(390.0, 262.0)",1.283333333,0.589,1,3293.011
5,FALSE,252,1.076,64,,,"(1113, 884)",,1,42,0.7,"640.0, 512.0",vertical,"(390.0, 762.0)",1.45,0.658,1,3297.804
5,FALSE,253,0.78,46,,,"(1107, 860)",,1,37,0.616666667,"640.0, 512.0",vertical,"(390.0, 262.0)",0.65,0.578,1,3302.854
5,FALSE,254,1.014,60,,,"(1097, 889)",,1,34,0.566666667,"640.0, 512.0",horizontal,"(390.0, 762.0)",1.05,0.527,1,3306.924
5,FALSE,255,0.749,44,,,"(1080, 897)",,1,35,0.583333333,"640.0, 512.0",horizontal,"(390.0, 262.0)",0.916666667,0.542,1,3311.453
5,FALSE,256,0.728,43,,,"(1099, 859)",,1,35,0.583333333,"640.0, 512.0",vertical,"(890.0, 262.0)",1.516666667,0.537,1,3315.709
5,FALSE,257,0.882,52,,,"(1093, 868)",,1,37,0.616666667,"640.0, 512.0",vertical,"(890.0, 762.0)",1.05,0.573,1,3320.359
5,FALSE,258,0.916,54,,,"(1148, 899)",,1,39,0.65,"640.0, 512.0",horizontal,"(390.0, 762.0)",0.816666667,0.607,1,3324.723
5,FALSE,259,0.505,30,,,"(1127, 851)",,1,34,0.566666667,"640.0, 512.0",horizontal,"(390.0, 762.0)",1,0.528,1,3338.84
5,FALSE,260,0.947,56,,,"(1121, 867)",,1,35,0.583333333,"640.0, 512.0",horizontal,"(890.0, 762.0)",0.883333333,0.539,1,3342.96
5,FALSE,261,0.715,42,,,"(1129, 874)",,1,37,0.616666667,"640.0, 512.0",horizontal,"(390.0, 762.0)",0.566666667,0.572,1,3347.212
5,FALSE,262,0.871,52,,,"(1104, 842)",,1,36,0.6,"640.0, 512.0",vertical,"(390.0, 762.0)",0.566666667,0.557,1,3351.032
5,FALSE,263,0.757,45,,,"(1113, 875)",,1,35,0.583333333,"640.0, 512.0",horizontal,"(890.0, 262.0)",1.3,0.54,1,3354.955
5,FALSE,264,0.805,48,,,"(1129, 885)",,1,36,0.6,"640.0, 512.0",vertical,"(890.0, 762.0)",1,0.558,1,3359.554
5,FALSE,265,0.835,50,,,"(1136, 876)",,1,33,0.55,"640.0, 512.0",horizontal,"(890.0, 762.0)",1.3,0.51,1,3363.862
5,FALSE,266,0.652,39,,,"(1124, 888)",,1,37,0.616666667,"640.0, 512.0",horizontal,"(390.0, 762.0)",0.95,0.57,1,3368.538
5,FALSE,267,0.888,53,,,"(1123, 879)",,1,51,0.85,"640.0, 512.0",horizontal,"(390.0, 262.0)",0.533333333,0.805,0,3372.656
5,FALSE,268,0.577,34,,,"(1147, 850)",,1,44,0.733333333,"640.0, 512.0",horizontal,"(890.0, 262.0)",1.2,0.689,1,3376.861
5,FALSE,269,0.964,57,,,"(1134, 863)",,1,37,0.616666667,"640.0, 512.0",horizontal,"(890.0, 762.0)",1.183333333,0.577,1,3381.444
5,FALSE,270,0.619,37,,,"(1142, 851)",,1,36,0.6,"640.0, 512.0",vertical,"(890.0, 262.0)",1.016666667,0.561,1,3386.168
5,FALSE,271,0.968,58,,,"(1117, 889)",,1,32,0.533333333,"640.0, 512.0",vertical,"(890.0, 262.0)",0.533333333,0.491,1,3390.397
5,FALSE,272,1.054,63,,,"(1105, 841)",,1,36,0.6,"640.0, 512.0",horizontal,"(390.0, 262.0)",0.966666667,0.556,1,3394.446
5,FALSE,273,0.743,44,,,"(1133, 860)",,1,32,0.533333333,"640.0, 512.0",horizontal,"(890.0, 262.0)",1.616666667,0.497,1,3398.951
5,FALSE,274,1.191,71,,,"(1136, 859)",,1,33,0.55,"640.0, 512.0",horizontal,"(890.0, 762.0)",0.9,0.51,1,3403.733
5,FALSE,275,0.516,30,,,"(1136, 851)",,1,37,0.616666667,"640.0, 512.0",horizontal,"(390.0, 762.0)",1.133333333,0.572,1,3408.355
5,FALSE,276,1.06,63,,,"(1117, 870)",,1,40,0.666666667,"640.0, 512.0",horizontal,"(390.0, 762.0)",1.5,0.622,1,3412.7
5,FALSE,277,1,60,,,"(1166, 875)",,1,,,"640.0, 512.0",horizontal,"(890.0, 262.0)",,0,0,3417.853
5,FALSE,278,0.892,53,,,"(1123, 868)",,1,41,0.683333333,"640.0, 512.0",vertical,"(890.0, 262.0)",1.016666667,0.634,1,3422.236
5,FALSE,279,1.116,66,,,"(1117, 866)",,1,35,0.583333333,"640.0, 512.0",horizontal,"(390.0, 762.0)",1.333333333,0.542,1,3427.152
5,FALSE,280,0.955,57,,,"(1112, 861)",,1,35,0.583333333,"640.0, 512.0",vertical,"(890.0, 762.0)",0.516666667,0.538,1,3432.156
5,FALSE,281,0.754,45,,,"(1132, 855)",,1,34,0.566666667,"640.0, 512.0",horizontal,"(390.0, 762.0)",1.2,0.522,1,3436.139
5,FALSE,282,0.673,40,,,"(1117, 854)",,1,50,0.833333333,"640.0, 512.0",horizontal,"(390.0, 262.0)",1.083333333,0.787,1,3440.604
5,FALSE,283,1.007,60,,,"(1173, 863)",,1,34,0.566666667,"640.0, 512.0",vertical,"(890.0, 262.0)",0.75,0.524,1,3445.064
5,FALSE,284,0.708,42,,,"(1139, 852)",,1,34,0.566666667,"640.0, 512.0",vertical,"(390.0, 762.0)",1.133333333,0.532,1,3449.353
5,FALSE,285,0.565,33,,,"(1107, 846)",,1,34,0.566666667,"640.0, 512.0",horizontal,"(890.0, 762.0)",1.15,0.523,1,3453.825
5,FALSE,286,0.512,30,,,"(1118, 872)",,1,35,0.583333333,"640.0, 512.0",vertical,"(890.0, 762.0)",1.2,0.541,1,3457.986
5,FALSE,287,0.547,32,,,"(1136, 869)",,1,34,0.566666667,"640.0, 512.0",horizontal,"(390.0, 262.0)",1.583333333,0.524,1,3462.249
5,FALSE,288,1.167,70,,,"(1123, 868)",,1,36,0.6,"640.0, 512.0",vertical,"(390.0, 762.0)",1.583333333,0.556,1,3466.892
5,FALSE,289,1.069,64,,,"(1113, 850)",,1,34,0.566666667,"640.0, 512.0",horizontal,"(890.0, 262.0)",0.683333333,0.528,1,3472.238
5,FALSE,290,0.778,46,,,"(1080, 842)",,1,33,0.55,"640.0, 512.0",vertical,"(890.0, 262.0)",1.1,0.516,1,3476.552
5,FALSE,291,0.708,42,,,"(1117, 860)",,1,39,0.65,"640.0, 512.0",vertical,"(890.0, 262.0)",0.6,0.614,1,3483.873
5,FALSE,292,0.785,47,,,"(1118, 863)",,1,36,0.6,"640.0, 512.0",vertical,"(390.0, 762.0)",1.216666667,0.556,1,3487.772
5,FALSE,293,1.04,62,,,"(1142, 858)",,1,46,0.766666667,"640.0, 512.0",vertical,"(890.0, 262.0)",1.25,0.724,1,3492.386
5,FALSE,294,0.965,57,,,"(1119, 870)",,1,30,0.5,"640.0, 512.0",vertical,"(390.0, 262.0)",1.566666667,0.457,1,3497.335
5,FALSE,295,1.196,71,,,"(1148, 885)",,1,51,0.85,"640.0, 512.0",vertical,"(390.0, 262.0)",1.316666667,0.799,0,3502.282
5,FALSE,296,1.008,60,,,"(1142, 846)",,1,37,0.616666667,"640.0, 512.0",horizontal,"(890.0, 762.0)",1.25,0.581,1,3507.64
5,FALSE,297,0.969,58,,,"(1142, 869)",,1,38,0.633333333,"640.0, 512.0",horizontal,"(890.0, 762.0)",1.233333333,0.598,1,3513.14
5,FALSE,298,0.519,31,,,"(1175, 869)",,1,38,0.633333333,"640.0, 512.0",vertical,"(390.0, 762.0)",1.033333333,0.589,1,3517.971
5,FALSE,299,1.07,64,,,"(1126, 862)",,1,45,0.75,"640.0, 512.0",vertical,"(890.0, 762.0)",1.25,0.707,1,3522.138
5,FALSE,300,0.95,57,,,"(1136, 850)",,1,33,0.55,"640.0, 512.0",horizontal,"(890.0, 762.0)",0.533333333,0.507,1,3527.183
6,FALSE,301,0.75,45,,,"(1136, 868)",,1,44,0.733333333,"640.0, 512.0",vertical,"(390.0, 262.0)",1.233333333,0.69,1,3531.984
6,FALSE,302,0.801,48,,,"(1117, 868)",,1,42,0.7,"640.0, 512.0",horizontal,"(890.0, 762.0)",1.216666667,0.657,1,3536.699
6,FALSE,303,0.903,54,,,"(1136, 854)",,1,41,0.683333333,"640.0, 512.0",vertical,"(390.0, 762.0)",1.466666667,0.642,1,3541.439
6,FALSE,304,0.853,51,,,"(1136, 860)",,1,38,0.633333333,"640.0, 512.0",vertical,"(890.0, 262.0)",0.733333333,0.592,1,3546.372
6,FALSE,305,0.574,34,,,"(1148, 860)",,1,34,0.566666667,"640.0, 512.0",horizontal,"(890.0, 762.0)",1.4,0.526,1,3550.547
6,FALSE,306,0.62,37,,,"(1137, 859)",,1,33,0.55,"640.0, 512.0",horizontal,"(890.0, 262.0)",1.35,0.507,1,3555.04
6,FALSE,307,0.728,43,,,"(1136, 854)",,1,37,0.616666667,"640.0, 512.0",vertical,"(390.0, 262.0)",1.116666667,0.573,1,3559.512
6,FALSE,308,0.817,49,,,"(1158, 857)",,1,41,0.683333333,"640.0, 512.0",horizontal,"(390.0, 762.0)",0.75,0.646,1,3563.947
6,FALSE,309,1.087,65,,,"(1105, 856)",,1,33,0.55,"640.0, 512.0",vertical,"(890.0, 262.0)",1.316666667,0.522,1,3568.255
6,FALSE,310,0.896,53,,,"(1099, 860)",,1,32,0.533333333,"640.0, 512.0",vertical,"(890.0, 262.0)",0.9,0.491,1,3573.252
6,FALSE,311,0.878,52,,,"(1136, 850)",,1,34,0.566666667,"640.0, 512.0",horizontal,"(890.0, 762.0)",0.6,0.524,1,3577.472
6,FALSE,312,0.568,34,,,"(1137, 868)",,1,43,0.716666667,"640.0, 512.0",vertical,"(890.0, 262.0)",1.216666667,0.673,1,3581.436
6,FALSE,313,0.693,41,,,"(1127, 849)",,1,36,0.6,"640.0, 512.0",horizontal,"(390.0, 762.0)",1.466666667,0.556,1,3585.824
6,FALSE,314,1.198,71,,,"(1099, 862)",,1,51,0.85,"640.0, 512.0",horizontal,"(890.0, 262.0)",1.2,0.795,0,3591.752
6,FALSE,315,0.922,55,,,"(1129, 865)",,1,36,0.6,"640.0, 512.0",vertical,"(390.0, 762.0)",0.7,0.561,1,3597.002
6,FALSE,316,0.816,48,,,"(1130, 881)",,1,35,0.583333333,"640.0, 512.0",horizontal,"(390.0, 762.0)",0.8,0.544,1,3601.325
6,FALSE,317,0.955,57,,,"(1136, 876)",,1,40,0.666666667,"640.0, 512.0",horizontal,"(890.0, 762.0)",0.733333333,0.624,1,3605.463
6,FALSE,318,0.928,55,,,"(1135, 860)",,1,39,0.65,"640.0, 512.0",vertical,"(390.0, 762.0)",1.65,0.607,1,3609.898
6,FALSE,319,0.749,44,,,"(1136, 871)",,1,51,0.85,"640.0, 512.0",horizontal,"(390.0, 262.0)",0.533333333,0.8,0,3615.232
6,FALSE,320,0.663,39,,,"(1123, 903)",,1,31,0.516666667,"640.0, 512.0",horizontal,"(390.0, 262.0)",0.933333333,0.481,1,3619.408
6,FALSE,321,0.916,54,,,"(1160, 867)",,1,33,0.55,"640.0, 512.0",vertical,"(890.0, 262.0)",1.55,0.508,1,3696.392
6,FALSE,322,0.879,52,,,"(1151, 876)",,1,35,0.583333333,"640.0, 512.0",horizontal,"(890.0, 762.0)",1.166666667,0.541,1,3701.302
6,FALSE,323,0.748,44,,,"(1109, 856)",,1,38,0.633333333,"640.0, 512.0",vertical,"(890.0, 762.0)",1.183333333,0.592,1,3705.745
6,FALSE,324,0.748,44,,,"(1131, 858)",,1,33,0.55,"640.0, 512.0",horizontal,"(390.0, 262.0)",0.666666667,0.51,1,3711.019
6,FALSE,325,0.503,30,,,"(1153, 863)",,1,30,0.5,"640.0, 512.0",horizontal,"(390.0, 262.0)",0.9,0.459,1,3714.919
6,FALSE,326,0.66,39,,,"(1173, 886)",,1,36,0.6,"640.0, 512.0",vertical,"(890.0, 762.0)",1.15,0.554,1,3718.855
6,FALSE,327,0.673,40,,,"(1193, 860)",,1,31,0.516666667,"640.0, 512.0",vertical,"(890.0, 262.0)",0.65,0.476,1,3723.2
6,FALSE,328,0.564,33,,,"(1142, 884)",,1,38,0.633333333,"640.0, 512.0",vertical,"(390.0, 762.0)",0.55,0.589,1,3727.015
6,FALSE,329,1.11,66,,,"(1150, 873)",,1,36,0.6,"640.0, 512.0",horizontal,"(890.0, 762.0)",1.6,0.554,1,3730.726
6,FALSE,330,0.908,54,,,"(1178, 928)",,1,45,0.75,"640.0, 512.0",vertical,"(890.0, 262.0)",1.45,0.699,1,3736.018
6,FALSE,331,1.033,61,,,"(1115, 879)",,1,35,0.583333333,"640.0, 512.0",horizontal,"(390.0, 262.0)",1.033333333,0.541,1,4058.038
6,FALSE,332,0.736,44,,,"(1087, 860)",,1,38,0.633333333,"640.0, 512.0",horizontal,"(890.0, 762.0)",0.7,0.587,1,4062.551
6,FALSE,333,0.888,53,,,"(1113, 863)",,1,33,0.55,"640.0, 512.0",vertical,"(890.0, 762.0)",0.7,0.51,1,4067.244
6,FALSE,334,0.523,31,,,"(1137, 866)",,1,51,0.85,"640.0, 512.0",horizontal,"(890.0, 762.0)",1.516666667,0.804,0,4071.33
6,FALSE,335,0.691,41,,,"(1117, 874)",,1,39,0.65,"640.0, 512.0",vertical,"(890.0, 762.0)",1.233333333,0.604,1,4076.318
6,FALSE,336,1.088,65,,,"(1139, 888)",,1,33,0.55,"640.0, 512.0",horizontal,"(890.0, 762.0)",1.683333333,0.509,1,4082.44
6,FALSE,337,0.99,59,,,"(1120, 866)",,1,35,0.583333333,"640.0, 512.0",vertical,"(890.0, 762.0)",0.666666667,0.543,1,4087.687
6,FALSE,338,0.622,37,,,"(1092, 888)",,1,33,0.55,"640.0, 512.0",vertical,"(390.0, 262.0)",0.8,0.508,1,4091.892
6,FALSE,339,0.951,57,,,"(1137, 868)",,1,33,0.55,"640.0, 512.0",horizontal,"(890.0, 762.0)",1.333333333,0.519,1,4096.238
6,FALSE,340,0.694,41,,,"(1105, 868)",,1,31,0.516666667,"640.0, 512.0",horizontal,"(890.0, 262.0)",1.55,0.478,1,4100.95
6,FALSE,341,0.742,44,,,"(1146, 863)",,1,35,0.583333333,"640.0, 512.0",vertical,"(890.0, 762.0)",1.1,0.547,1,4105.723
6,FALSE,342,0.59,35,,,"(1113, 852)",,1,39,0.65,"640.0, 512.0",horizontal,"(890.0, 762.0)",1.416666667,0.61,1,4110.158
6,FALSE,343,0.718,43,,,"(1154, 883)",,1,36,0.6,"640.0, 512.0",vertical,"(890.0, 762.0)",0.75,0.562,1,4114.856
6,FALSE,344,0.638,38,,,"(1099, 882)",,1,33,0.55,"640.0, 512.0",horizontal,"(390.0, 762.0)",0.716666667,0.507,1,4119.023
6,FALSE,345,1.033,61,,,"(1133, 879)",,1,35,0.583333333,"640.0, 512.0",horizontal,"(390.0, 262.0)",0.8,0.537,1,4122.852
6,FALSE,346,0.648,38,,,"(1156, 868)",,1,33,0.55,"640.0, 512.0",vertical,"(890.0, 762.0)",0.533333333,0.514,1,4127.274
6,FALSE,347,0.661,39,,,"(1146, 889)",,1,42,0.7,"640.0, 512.0",vertical,"(390.0, 262.0)",1.25,0.652,1,4131.172
6,FALSE,348,0.717,43,,,"(1190, 881)",,1,31,0.516666667,"640.0, 512.0",vertical,"(390.0, 262.0)",1.416666667,0.484,1,4135.841
6,FALSE,349,0.597,35,,,"(1138, 877)",,1,34,0.566666667,"640.0, 512.0",horizontal,"(390.0, 262.0)",1.233333333,0.526,1,4140.658
6,FALSE,350,0.977,58,,,"(1125, 863)",,1,41,0.683333333,"640.0, 512.0",horizontal,"(390.0, 762.0)",0.566666667,0.64,1,4145.022
6,FALSE,351,1.068,64,,,"(1143, 876)",,1,36,0.6,"640.0, 512.0",horizontal,"(390.0, 762.0)",1.533333333,0.556,1,4149.09
6,FALSE,352,0.76,45,,,"(1136, 871)",,1,33,0.55,"640.0, 512.0",vertical,"(890.0, 262.0)",1.566666667,0.507,1,4154.378
6,FALSE,353,0.695,41,,,"(1142, 862)",,1,32,0.533333333,"640.0, 512.0",horizontal,"(890.0, 262.0)",1,0.494,1,4159.307
6,FALSE,354,0.982,58,,,"(1126, 876)",,1,33,0.55,"640.0, 512.0",vertical,"(390.0, 262.0)",0.516666667,0.509,1,4163.421
6,FALSE,355,0.861,51,,,"(1159, 878)",,1,33,0.55,"640.0, 512.0",horizontal,"(390.0, 762.0)",1.516666667,0.516,1,4167.433
6,FALSE,356,0.665,39,,,"(1118, 846)",,1,35,0.583333333,"640.0, 512.0",horizontal,"(390.0, 762.0)",0.883333333,0.539,1,4172.353
6,FALSE,357,0.752,45,,,"(1142, 857)",,1,37,0.616666667,"640.0, 512.0",vertical,"(890.0, 762.0)",0.866666667,0.574,1,4176.349
6,FALSE,358,0.529,31,,,"(1128, 855)",,1,39,0.65,"640.0, 512.0",vertical,"(390.0, 262.0)",1.5,0.607,1,4180.64
6,FALSE,359,0.89,53,,,"(1105, 862)",,1,32,0.533333333,"640.0, 512.0",vertical,"(890.0, 262.0)",1.033333333,0.489,1,4185.356
6,FALSE,360,0.556,33,,,"(1093, 897)",,1,36,0.6,"640.0, 512.0",vertical,"(890.0, 262.0)",0.55,0.563,1,4189.765
7,FALSE,361,0.952,57,,,"(1099, 858)",,1,35,0.583333333,"640.0, 512.0",horizontal,"(890.0, 762.0)",0.7,0.542,1,4231.165
7,FALSE,362,1.171,70,,,"(1111, 860)",,1,32,0.533333333,"640.0, 512.0",vertical,"(890.0, 762.0)",0.933333333,0.496,1,4235.413
7,FALSE,363,0.688,41,,,"(1153, 889)",,1,36,0.6,"640.0, 512.0",vertical,"(890.0, 762.0)",1.333333333,0.559,1,4239.946
7,FALSE,364,0.704,42,,,"(1142, 866)",,1,36,0.6,"640.0, 512.0",vertical,"(890.0, 762.0)",0.75,0.555,1,4244.535
7,FALSE,365,0.611,36,,,"(1117, 879)",,1,39,0.65,"640.0, 512.0",vertical,"(390.0, 762.0)",1.666666667,0.611,1,4248.513
7,FALSE,366,0.939,56,,,"(1105, 866)",,1,35,0.583333333,"640.0, 512.0",vertical,"(890.0, 262.0)",0.866666667,0.541,1,4253.284
7,FALSE,367,0.915,54,,,"(1137, 843)",,1,31,0.516666667,"640.0, 512.0",vertical,"(890.0, 262.0)",0.583333333,0.481,1,4257.685
7,FALSE,368,0.961,57,,,"(1105, 874)",,1,35,0.583333333,"640.0, 512.0",horizontal,"(390.0, 762.0)",1.283333333,0.545,1,4261.725
7,FALSE,369,0.922,55,,,"(1142, 850)",,1,36,0.6,"640.0, 512.0",horizontal,"(890.0, 762.0)",0.816666667,0.562,1,4266.439
7,FALSE,370,0.626,37,,,"(1133, 858)",,1,40,0.666666667,"640.0, 512.0",horizontal,"(890.0, 762.0)",1,0.625,1,4270.717
7,FALSE,371,1.009,60,,,"(1113, 868)",,1,33,0.55,"640.0, 512.0",vertical,"(890.0, 262.0)",1.433333333,0.509,1,4274.941
7,FALSE,372,1.151,69,,,"(1129, 884)",,1,35,0.583333333,"640.0, 512.0",vertical,"(390.0, 762.0)",1.683333333,0.54,1,4288.852
7,FALSE,373,0.932,55,,,"(1119, 870)",,1,32,0.533333333,"640.0, 512.0",horizontal,"(390.0, 262.0)",0.983333333,0.496,1,4294.187
7,FALSE,374,1.124,67,,,"(1108, 893)",,1,36,0.6,"640.0, 512.0",horizontal,"(390.0, 262.0)",1.166666667,0.553,1,4298.702
7,FALSE,375,0.875,52,,,"(1170, 875)",,1,41,0.683333333,"640.0, 512.0",horizontal,"(890.0, 762.0)",1.233333333,0.642,1,4303.513
7,FALSE,376,1.029,61,,,"(1196, 866)",,1,36,0.6,"640.0, 512.0",horizontal,"(890.0, 262.0)",1.15,0.563,1,4308.201
7,FALSE,377,0.58,34,,,"(1116, 864)",,1,39,0.65,"640.0, 512.0",vertical,"(390.0, 762.0)",0.65,0.604,1,4312.903
7,FALSE,378,0.533,31,,,"(1115, 868)",,1,33,0.55,"640.0, 512.0",horizontal,"(890.0, 262.0)",0.833333333,0.505,1,4583.44
7,FALSE,379,0.671,40,,,"(1101, 875)",,1,38,0.633333333,"640.0, 512.0",vertical,"(890.0, 762.0)",1.45,0.586,1,4587.226
7,FALSE,380,0.829,49,,,"(1130, 851)",,1,34,0.566666667,"640.0, 512.0",vertical,"(390.0, 262.0)",0.583333333,0.525,1,4592.18
7,FALSE,381,0.893,53,,,"(1154, 854)",,1,33,0.55,"640.0, 512.0",vertical,"(890.0, 262.0)",0.55,0.503,1,4602.871
7,FALSE,382,0.937,56,,,"(1099, 849)",,1,35,0.583333333,"640.0, 512.0",vertical,"(890.0, 262.0)",0.85,0.537,1,4607.892
7,FALSE,383,0.778,46,,,"(1153, 879)",,1,41,0.683333333,"640.0, 512.0",horizontal,"(890.0, 762.0)",0.6,0.634,1,4612.158
7,FALSE,384,0.788,47,,,"(1130, 885)",,1,42,0.7,"640.0, 512.0",vertical,"(890.0, 262.0)",1.466666667,0.65,1,4616.158
7,FALSE,385,1.032,61,,,"(1153, 873)",,1,33,0.55,"640.0, 512.0",vertical,"(390.0, 262.0)",1.2,0.506,1,4621.039
7,FALSE,386,0.79,47,,,"(1078, 859)",,1,34,0.566666667,"640.0, 512.0",vertical,"(390.0, 262.0)",1.516666667,0.519,1,4625.824
7,FALSE,387,0.521,31,,,"(1136, 879)",,1,43,0.716666667,"640.0, 512.0",vertical,"(890.0, 762.0)",1.35,0.667,1,4630.57
7,FALSE,388,0.572,34,,,"(1183, 907)",,1,33,0.55,"640.0, 512.0",vertical,"(890.0, 762.0)",0.616666667,0.506,1,4649.089
7,FALSE,389,0.887,53,,,"(1129, 885)",,1,37,0.616666667,"640.0, 512.0",horizontal,"(890.0, 262.0)",0.833333333,0.574,1,4853.238
7,FALSE,390,0.582,34,,,"(1075, 868)",,1,34,0.566666667,"640.0, 512.0",vertical,"(890.0, 762.0)",1.083333333,0.522,1,4857.606
7,FALSE,391,0.655,39,,,"(1125, 858)",,1,44,0.733333333,"640.0, 512.0",vertical,"(890.0, 262.0)",1.6,0.687,1,4861.776
7,FALSE,392,1.161,69,,,"(1093, 886)",,1,34,0.566666667,"640.0, 512.0",horizontal,"(390.0, 762.0)",0.616666667,0.524,1,4866.828
7,FALSE,393,0.812,48,,,"(1117, 886)",,1,34,0.566666667,"640.0, 512.0",horizontal,"(890.0, 262.0)",0.616666667,0.522,1,4871.171
7,FALSE,394,0.544,32,,,"(1116, 879)",,1,35,0.583333333,"640.0, 512.0",vertical,"(890.0, 762.0)",0.766666667,0.541,1,4875.203
7,FALSE,395,1.051,63,,,"(1101, 878)",,1,37,0.616666667,"640.0, 512.0",vertical,"(390.0, 762.0)",1.2,0.575,1,4879.115
7,FALSE,396,1.004,60,,,"(1126, 864)",,1,33,0.55,"640.0, 512.0",vertical,"(890.0, 762.0)",0.833333333,0.508,1,4884.564
7,FALSE,397,0.541,32,,,"(1106, 886)",,1,35,0.583333333,"640.0, 512.0",horizontal,"(390.0, 262.0)",1.316666667,0.54,1,4890.452
7,FALSE,398,0.782,46,,,"(1107, 887)",,1,38,0.633333333,"640.0, 512.0",horizontal,"(890.0, 262.0)",0.65,0.591,1,4894.846
7,FALSE,399,0.537,32,,,"(1100, 886)",,1,38,0.633333333,"640.0, 512.0",horizontal,"(890.0, 262.0)",0.7,0.593,1,4898.843
7,FALSE,400,1.078,64,,,"(1117, 861)",,1,37,0.616666667,"640.0, 512.0",horizontal,"(390.0, 762.0)",1.616666667,0.575,1,4902.67
7,FALSE,401,1.136,68,,,"(1153, 857)",,1,38,0.633333333,"640.0, 512.0",horizontal,"(390.0, 762.0)",0.9,0.588,1,4909.276
7,FALSE,402,0.755,45,,,"(1134, 876)",,1,33,0.55,"640.0, 512.0",vertical,"(390.0, 262.0)",0.866666667,0.509,1,4915.057
7,FALSE,403,0.606,36,,,"(1110, 850)",,1,35,0.583333333,"640.0, 512.0",vertical,"(890.0, 762.0)",0.783333333,0.54,1,4919.199
7,FALSE,404,0.525,31,,,"(1158, 888)",,1,38,0.633333333,"640.0, 512.0",horizontal,"(890.0, 762.0)",0.9,0.589,1,4924.992
7,FALSE,405,0.88,52,,,"(1117, 873)",,1,37,0.616666667,"640.0, 512.0",horizontal,"(390.0, 762.0)",1.3,0.575,1,4928.969
7,FALSE,406,1.077,64,,,"(1145, 866)",,1,35,0.583333333,"640.0, 512.0",vertical,"(390.0, 762.0)",0.916666667,0.545,1,4933.693
7,FALSE,407,1.024,61,,,"(1144, 868)",,1,32,0.533333333,"640.0, 512.0",vertical,"(390.0, 262.0)",1.066666667,0.495,1,4938.175
7,FALSE,408,0.594,35,,,"(1143, 864)",,1,35,0.583333333,"640.0, 512.0",vertical,"(890.0, 262.0)",1.583333333,0.544,1,4942.703
7,FALSE,409,0.833,49,,,"(1130, 872)",,1,35,0.583333333,"640.0, 512.0",vertical,"(390.0, 262.0)",1.25,0.541,1,4947.33
7,FALSE,410,0.928,55,,,"(1154, 874)",,1,34,0.566666667,"640.0, 512.0",horizontal,"(390.0, 762.0)",1.616666667,0.523,1,4951.94
7,FALSE,411,1.011,60,,,"(1129, 871)",,1,35,0.583333333,"640.0, 512.0",vertical,"(890.0, 762.0)",0.7,0.542,1,4957.076
7,FALSE,412,0.725,43,,,"(1132, 884)",,1,38,0.633333333,"640.0, 512.0",horizontal,"(390.0, 762.0)",1.233333333,0.595,1,4961.191
7,FALSE,413,0.992,59,,,"(1122, 881)",,1,36,0.6,"640.0, 512.0",horizontal,"(390.0, 762.0)",0.683333333,0.56,1,4965.707
7,FALSE,414,0.782,46,,,"(1123, 857)",,1,37,0.616666667,"640.0, 512.0",vertical,"(390.0, 262.0)",1.083333333,0.574,1,4969.985
7,FALSE,415,0.957,57,,,"(1129, 899)",,1,38,0.633333333,"640.0, 512.0",vertical,"(890.0, 262.0)",0.8,0.593,1,4974.371
7,FALSE,416,0.714,42,,,"(1133, 865)",,1,32,0.533333333,"640.0, 512.0",vertical,"(390.0, 762.0)",1.633333333,0.498,1,4992.416
7,FALSE,417,1.19,71,,,"(1123, 870)",,1,32,0.533333333,"640.0, 512.0",vertical,"(890.0, 262.0)",1.366666667,0.49,1,4997.296
7,FALSE,418,0.705,42,,,"(1087, 852)",,1,33,0.55,"640.0, 512.0",vertical,"(890.0, 262.0)",0.816666667,0.509,1,5002.304
7,FALSE,419,1.13,67,,,"(1118, 879)",,1,34,0.566666667,"640.0, 512.0",vertical,"(390.0, 262.0)",1.1,0.524,1,5006.258
7,FALSE,420,0.898,53,,,"(1123, 873)",,1,35,0.583333333,"640.0, 512.0",vertical,"(390.0, 762.0)",0.75,0.54,1,5010.987
8,FALSE,421,0.63,37,,,"(1138, 868)",,1,34,0.566666667,"640.0, 512.0",horizontal,"(890.0, 762.0)",0.566666667,0.526,1,5015.121
8,FALSE,422,0.584,35,,,"(1097, 871)",,1,51,0.85,"640.0, 512.0",vertical,"(390.0, 762.0)",1.666666667,0.801,0,5018.726
8,FALSE,423,1.171,70,,,"(1159, 850)",,1,36,0.6,"640.0, 512.0",vertical,"(890.0, 762.0)",1.033333333,0.56,1,5023.812
8,FALSE,424,0.925,55,,,"(1160, 858)",,1,34,0.566666667,"640.0, 512.0",vertical,"(890.0, 262.0)",0.633333333,0.529,1,5029.391
8,FALSE,425,1.082,64,,,"(1138, 883)",,1,32,0.533333333,"640.0, 512.0",vertical,"(890.0, 262.0)",0.516666667,0.494,1,5033.427
8,FALSE,426,0.891,53,,,"(1186, 877)",,1,33,0.55,"640.0, 512.0",vertical,"(390.0, 262.0)",1.1,0.511,1,5037.441
8,FALSE,427,1.143,68,,,"(1148, 857)",,1,40,0.666666667,"640.0, 512.0",vertical,"(890.0, 762.0)",1.066666667,0.626,1,5041.999
8,FALSE,428,1.001,60,,,"(1144, 881)",,1,40,0.666666667,"640.0, 512.0",horizontal,"(890.0, 262.0)",1.3,0.626,1,5046.91
8,FALSE,429,0.837,50,,,"(1164, 863)",,1,35,0.583333333,"640.0, 512.0",vertical,"(890.0, 262.0)",1.066666667,0.542,1,5051.708
8,FALSE,430,1.135,68,,,"(1148, 846)",,1,35,0.583333333,"640.0, 512.0",vertical,"(390.0, 762.0)",0.666666667,0.545,1,5056.113
8,FALSE,431,0.784,47,,,"(1160, 867)",,1,35,0.583333333,"640.0, 512.0",vertical,"(390.0, 262.0)",1.416666667,0.541,1,5061.926
8,FALSE,432,0.937,56,,,"(1199, 877)",,1,35,0.583333333,"640.0, 512.0",vertical,"(890.0, 762.0)",1.35,0.543,1,5066.684
8,FALSE,433,0.525,31,,,"(1122, 858)",,1,35,0.583333333,"640.0, 512.0",horizontal,"(390.0, 262.0)",1.4,0.541,1,5071.639
8,FALSE,434,0.715,42,,,"(1188, 868)",,1,36,0.6,"640.0, 512.0",vertical,"(390.0, 762.0)",1.183333333,0.558,1,5076.055
8,FALSE,435,1.013,60,,,"(1117, 887)",,1,34,0.566666667,"640.0, 512.0",vertical,"(890.0, 762.0)",1.666666667,0.532,1,5080.408
8,FALSE,436,0.662,39,,,"(1153, 883)",,1,35,0.583333333,"640.0, 512.0",horizontal,"(890.0, 762.0)",0.7,0.541,1,5085.555
8,FALSE,437,0.791,47,,,"(1138, 879)",,1,34,0.566666667,"640.0, 512.0",vertical,"(390.0, 762.0)",0.9,0.53,1,5089.411
8,FALSE,438,1.107,66,,,"(1116, 855)",,1,42,0.7,"640.0, 512.0",horizontal,"(890.0, 762.0)",1.216666667,0.667,1,5093.583
8,FALSE,439,0.918,55,,,"(1144, 872)",,1,32,0.533333333,"640.0, 512.0",vertical,"(890.0, 262.0)",0.883333333,0.493,1,5098.59
8,FALSE,440,0.679,40,,,"(1148, 856)",,1,38,0.633333333,"640.0, 512.0",horizontal,"(390.0, 262.0)",0.633333333,0.591,1,5103
8,FALSE,441,0.927,55,,,"(1130, 885)",,1,33,0.55,"640.0, 512.0",horizontal,"(390.0, 262.0)",1.65,0.51,1,5106.938
8,FALSE,442,1.085,65,,,"(1113, 855)",,1,43,0.716666667,"640.0, 512.0",vertical,"(890.0, 762.0)",0.933333333,0.68,1,5112.163
8,FALSE,443,1.021,61,,,"(1105, 859)",,1,38,0.633333333,"640.0, 512.0",vertical,"(890.0, 762.0)",0.983333333,0.602,1,5118.683
8,FALSE,444,0.855,51,,,"(1130, 889)",,1,31,0.516666667,"640.0, 512.0",horizontal,"(890.0, 262.0)",1.3,0.48,1,5141.847
8,FALSE,445,0.823,49,,,"(1136, 868)",,1,38,0.633333333,"640.0, 512.0",vertical,"(390.0, 762.0)",1.083333333,0.592,1,5146.56
8,FALSE,446,0.568,34,,,"(1153, 884)",,1,35,0.583333333,"640.0, 512.0",vertical,"(390.0, 762.0)",1.066666667,0.545,1,5151.12
8,FALSE,447,0.731,43,,,"(1153, 860)",,1,,,"640.0, 512.0",vertical,"(390.0, 262.0)",,0,0,5155.273
8,FALSE,448,0.92,55,,,"(1152, 873)",,1,32,0.533333333,"640.0, 512.0",horizontal,"(890.0, 262.0)",0.583333333,0.506,1,5159.036
8,FALSE,449,0.704,42,,,"(1130, 872)",,1,37,0.616666667,"640.0, 512.0",vertical,"(390.0, 262.0)",0.55,0.58,1,5163.803
8,FALSE,450,0.926,55,,,"(1177, 875)",,1,35,0.583333333,"640.0, 512.0",vertical,"(890.0, 762.0)",1.366666667,0.549,1,5167.675
8,FALSE,451,1.103,66,,,"(1165, 884)",,1,43,0.716666667,"640.0, 512.0",vertical,"(390.0, 262.0)",1.183333333,0.68,1,5172.684
8,FALSE,452,0.911,54,,,"(1184, 884)",,1,33,0.55,"640.0, 512.0",vertical,"(890.0, 262.0)",0.633333333,0.509,1,5177.666
8,FALSE,453,0.725,43,,,"(1131, 866)",,1,35,0.583333333,"640.0, 512.0",vertical,"(390.0, 262.0)",1.116666667,0.556,1,5181.787
8,FALSE,454,0.783,46,,,"(1145, 882)",,1,32,0.533333333,"640.0, 512.0",vertical,"(390.0, 262.0)",1.666666667,0.492,1,5186.239
8,FALSE,455,0.773,46,,,"(1169, 855)",,1,34,0.566666667,"640.0, 512.0",horizontal,"(890.0, 762.0)",1.133333333,0.528,1,5191.241
8,FALSE,456,1.18,70,,,"(1123, 892)",,1,34,0.566666667,"640.0, 512.0",horizontal,"(890.0, 762.0)",1.616666667,0.526,1,5195.791
8,FALSE,457,0.564,33,,,"(1129, 875)",,1,33,0.55,"640.0, 512.0",horizontal,"(890.0, 762.0)",0.516666667,0.506,1,5421.54
8,FALSE,458,1.001,60,,,"(1153, 868)",,1,35,0.583333333,"640.0, 512.0",horizontal,"(390.0, 762.0)",1,0.542,1,5425.174
8,FALSE,459,0.816,48,,,"(1117, 875)",,1,31,0.516666667,"640.0, 512.0",vertical,"(390.0, 262.0)",1.116666667,0.485,1,5429.723
8,FALSE,460,1.11,66,,,"(1138, 881)",,1,40,0.666666667,"640.0, 512.0",horizontal,"(890.0, 762.0)",1.666666667,0.62,1,5434.007
8,FALSE,461,0.622,37,,,"(1129, 867)",,1,34,0.566666667,"640.0, 512.0",vertical,"(890.0, 262.0)",0.533333333,0.528,1,5439.343
8,FALSE,462,0.675,40,,,"(1136, 873)",,1,36,0.6,"640.0, 512.0",horizontal,"(890.0, 262.0)",1.1,0.558,1,5443.039
8,FALSE,463,0.781,46,,,"(1145, 884)",,1,43,0.716666667,"640.0, 512.0",vertical,"(890.0, 262.0)",1.616666667,0.671,1,5447.257
8,FALSE,464,0.787,47,,,"(1123, 884)",,1,,,"640.0, 512.0",vertical,"(390.0, 262.0)",,0,0,5452.358
8,FALSE,465,0.794,47,,,"(1166, 868)",,1,37,0.616666667,"640.0, 512.0",vertical,"(390.0, 762.0)",1.516666667,0.573,1,5456.488
8,FALSE,466,0.854,51,,,"(1128, 857)",,1,35,0.583333333,"640.0, 512.0",vertical,"(390.0, 762.0)",1.533333333,0.544,1,6096.594
8,FALSE,467,0.991,59,,,"(1129, 863)",,1,35,0.583333333,"640.0, 512.0",horizontal,"(890.0, 762.0)",0.9,0.545,1,6101.7
8,FALSE,468,0.736,44,,,"(1196, 865)",,1,35,0.583333333,"640.0, 512.0",vertical,"(390.0, 762.0)",1.1,0.541,1,6106.256
8,FALSE,469,1.034,62,,,"(1132, 879)",,1,33,0.55,"640.0, 512.0",vertical,"(390.0, 262.0)",1.266666667,0.508,1,6110.709
8,FALSE,470,1.108,66,,,"(1140, 879)",,1,45,0.75,"640.0, 512.0",vertical,"(390.0, 262.0)",0.516666667,0.703,1,6115.574
8,FALSE,471,0.947,56,,,"(1160, 855)",,1,36,0.6,"640.0, 512.0",vertical,"(890.0, 762.0)",0.883333333,0.557,1,6119.823
8,FALSE,472,0.544,32,,,"(1123, 840)",,1,42,0.7,"640.0, 512.0",vertical,"(890.0, 262.0)",1.15,0.652,1,6125.146
8,FALSE,473,1.173,70,,,"(1136, 855)",,1,37,0.616666667,"640.0, 512.0",vertical,"(390.0, 262.0)",0.633333333,0.575,1,6133.814
8,FALSE,474,1.071,64,,,"(1148, 881)",,1,37,0.616666667,"640.0, 512.0",horizontal,"(890.0, 762.0)",1.566666667,0.578,1,6138.213
8,FALSE,475,0.789,47,,6843593,"(1136, 912)","(1135, 932)",1,1,0.016666667,"640.0, 512.0",horizontal,"(890.0, 262.0)",,0,0,6143.536
8,FALSE,476,0.634,38,,,"(1180, 959), (1188, 869)",,"0, 1",,,"640.0, 512.0",vertical,"(890.0, 262.0)",,0,0,6726.13
8,FALSE,477,0.789,47,,,"(1156, 908)",,1,35,0.583333333,"640.0, 512.0",vertical,"(890.0, 762.0)",1.216666667,0.542,1,6774.589
8,FALSE,478,1.112,66,,,"(1148, 861)",,1,35,0.583333333,"640.0, 512.0",horizontal,"(890.0, 762.0)",0.866666667,0.546,1,6782.964
8,FALSE,479,0.792,47,,,"(1147, 879)",,1,44,0.733333333,"640.0, 512.0",vertical,"(890.0, 262.0)",0.75,0.682,1,6787.419
8,FALSE,480,0.802,48,,,"(1136, 889)",,1,35,0.583333333,"640.0, 512.0",horizontal,"(890.0, 762.0)",0.883333333,0.538,1,6792.342
9,FALSE,481,1.181,70,,,"(1105, 870)",,1,37,0.616666667,"640.0, 512.0",horizontal,"(390.0, 262.0)",1.3,0.571,1,6796.509
9,FALSE,482,1.008,60,,,"(1117, 850)",,1,51,0.85,"640.0, 512.0",horizontal,"(390.0, 262.0)",1.366666667,0.796,0,6801.558
9,FALSE,483,0.865,51,,,"(1189, 875)",,1,33,0.55,"640.0, 512.0",vertical,"(390.0, 262.0)",1.533333333,0.509,1,6809.191
9,FALSE,484,0.728,43,,,"(1172, 906)",,1,34,0.566666667,"640.0, 512.0",horizontal,"(890.0, 262.0)",1.283333333,0.526,1,6814.697
9,FALSE,485,0.814,48,,,"(1115, 893)",,1,38,0.633333333,"640.0, 512.0",vertical,"(890.0, 762.0)",0.7,0.588,1,7257.477
9,FALSE,486,1.186,71,,,"(1105, 863)",,1,32,0.533333333,"640.0, 512.0",vertical,"(890.0, 762.0)",1.35,0.492,1,7261.581
9,FALSE,487,0.613,36,,,"(1142, 874)",,1,32,0.533333333,"640.0, 512.0",vertical,"(890.0, 262.0)",0.6,0.489,1,7266.629
9,FALSE,488,0.923,55,,,"(1136, 865)",,1,37,0.616666667,"640.0, 512.0",vertical,"(890.0, 262.0)",1.55,0.574,1,7270.21
9,FALSE,489,0.696,41,,,"(1123, 880)",,1,34,0.566666667,"640.0, 512.0",horizontal,"(890.0, 762.0)",1.45,0.526,1,7275.279
9,FALSE,490,0.829,49,,,"(1129, 876)",,1,36,0.6,"640.0, 512.0",horizontal,"(390.0, 262.0)",0.816666667,0.557,1,7280.003
9,FALSE,491,0.651,39,,,"(1142, 865)",,1,32,0.533333333,"640.0, 512.0",vertical,"(390.0, 262.0)",1.316666667,0.492,1,7284.062
9,FALSE,492,1.078,64,,,"(1136, 866)",,1,32,0.533333333,"640.0, 512.0",horizontal,"(390.0, 262.0)",1.15,0.503,1,7288.458
9,FALSE,493,0.832,49,,,"(1142, 861)",,1,51,0.85,"640.0, 512.0",horizontal,"(390.0, 262.0)",1.016666667,0.813,0,7293.397
9,FALSE,494,0.735,44,,,"(1142, 865)",,1,37,0.616666667,"640.0, 512.0",vertical,"(890.0, 762.0)",1.1,0.571,1,7298.006
9,FALSE,495,0.586,35,,,"(1136, 871)",,1,36,0.6,"640.0, 512.0",horizontal,"(390.0, 762.0)",0.616666667,0.556,1,7303.473
9,FALSE,496,1.05,63,,,"(1136, 881)",,1,36,0.6,"640.0, 512.0",vertical,"(390.0, 762.0)",1.516666667,0.559,1,7307.261
9,FALSE,497,1.035,62,,,"(1136, 836)",,1,34,0.566666667,"640.0, 512.0",vertical,"(890.0, 762.0)",0.516666667,0.527,1,7312.44
9,FALSE,498,1.179,70,,,"(1157, 866)",,1,35,0.583333333,"640.0, 512.0",horizontal,"(390.0, 762.0)",0.8,0.544,1,7316.603
9,FALSE,499,0.595,35,,,"(1153, 860)",,1,40,0.666666667,"640.0, 512.0",horizontal,"(890.0, 762.0)",1.283333333,0.626,1,7321.114
9,FALSE,500,0.705,42,,,"(1181, 861)",,1,50,0.833333333,"640.0, 512.0",vertical,"(390.0, 262.0)",0.7,0.792,1,7325.726
9,FALSE,501,1.042,62,,,"(1100, 855)",,1,37,0.616666667,"640.0, 512.0",horizontal,"(390.0, 762.0)",1.216666667,0.575,1,7329.887
9,FALSE,502,0.656,39,,,"(1136, 865)",,1,38,0.633333333,"640.0, 512.0",vertical,"(390.0, 262.0)",0.85,0.595,1,7335.804
9,FALSE,503,0.64,38,,,"(1123, 864)",,1,32,0.533333333,"640.0, 512.0",horizontal,"(390.0, 262.0)",1.216666667,0.495,1,7339.965
9,FALSE,504,0.546,32,,,"(1192, 871)",,1,41,0.683333333,"640.0, 512.0",vertical,"(390.0, 762.0)",1.233333333,0.639,1,7344.7
9,FALSE,505,0.591,35,,,"(1148, 870)",,1,34,0.566666667,"640.0, 512.0",vertical,"(890.0, 762.0)",1.15,0.532,1,7348.985
9,FALSE,506,0.638,38,,,"(1136, 859)",,1,30,0.5,"640.0, 512.0",vertical,"(390.0, 262.0)",0.75,0.464,1,7353.23
9,FALSE,507,0.695,41,,,"(1136, 864)",,1,31,0.516666667,"640.0, 512.0",vertical,"(390.0, 262.0)",1.5,0.476,1,7357.245
9,FALSE,508,0.965,57,,,"(1167, 863)",,1,34,0.566666667,"640.0, 512.0",horizontal,"(390.0, 762.0)",1.066666667,0.531,1,7361.942
9,FALSE,509,1.146,68,,,"(1172, 866)",,1,51,0.85,"640.0, 512.0",vertical,"(390.0, 262.0)",1.133333333,0.816,0,7366.572
9,FALSE,510,0.643,38,,,"(1194, 903)",,1,36,0.6,"640.0, 512.0",horizontal,"(890.0, 262.0)",0.816666667,0.551,1,7371.623
9,FALSE,511,0.987,59,,,"(1180, 872)",,1,44,0.733333333,"640.0, 512.0",horizontal,"(890.0, 262.0)",1.583333333,0.695,1,7378.109
9,FALSE,512,0.896,53,,,"(855, 773), (855, 754), (1196, 908)",,"0, 0, 1",31,0.516666667,"640.0, 512.0",horizontal,"(390.0, 262.0)",0.916666667,0.471,1,7383.459
9,FALSE,513,0.869,52,,,"(1160, 880)",,1,35,0.583333333,"640.0, 512.0",horizontal,"(390.0, 262.0)",1.466666667,0.559,1,7528.467
9,FALSE,514,0.939,56,,,"(1160, 871)",,1,36,0.6,"640.0, 512.0",horizontal,"(890.0, 762.0)",1.466666667,0.555,1,7533.428
9,FALSE,515,0.554,33,,,"(1142, 863)",,1,36,0.6,"640.0, 512.0",horizontal,"(890.0, 762.0)",1.016666667,0.554,1,7538.3
9,FALSE,516,0.841,50,,,"(1178, 877)",,1,39,0.65,"640.0, 512.0",vertical,"(890.0, 762.0)",1.633333333,0.607,1,7542.334
9,FALSE,517,0.741,44,,,"(1142, 846)",,1,35,0.583333333,"640.0, 512.0",vertical,"(390.0, 762.0)",1.466666667,0.547,1,7547.233
9,FALSE,518,0.777,46,,,"(1148, 865)",,1,39,0.65,"640.0, 512.0",vertical,"(890.0, 762.0)",1.25,0.607,1,7552.031
9,FALSE,519,1.108,66,,,"(1105, 862)",,1,34,0.566666667,"640.0, 512.0",vertical,"(390.0, 762.0)",1.283333333,0.526,1,7556.549
9,FALSE,520,1.058,63,,,"(1184, 862)",,1,33,0.55,"640.0, 512.0",vertical,"(390.0, 762.0)",1.6,0.509,1,7561.651
9,FALSE,521,0.604,36,,,"(1172, 860)",,1,39,0.65,"640.0, 512.0",horizontal,"(390.0, 762.0)",1.2,0.611,1,7568.28
9,FALSE,522,0.953,57,,,"(1139, 869)",,1,33,0.55,"640.0, 512.0",horizontal,"(890.0, 262.0)",0.866666667,0.513,1,7572.73
9,FALSE,523,0.885,53,,,"(1160, 861)",,1,39,0.65,"640.0, 512.0",vertical,"(390.0, 262.0)",0.766666667,0.604,1,7577.012
9,FALSE,524,1.156,69,,,"(1166, 864)",,1,37,0.616666667,"640.0, 512.0",horizontal,"(390.0, 262.0)",0.966666667,0.573,1,7581.216
9,FALSE,525,0.691,41,,,"(1226, 858)",,1,35,0.583333333,"640.0, 512.0",vertical,"(890.0, 762.0)",0.5,0.543,1,7585.983
9,FALSE,526,0.779,46,,,"(1195, 860)",,1,37,0.616666667,"640.0, 512.0",vertical,"(890.0, 262.0)",1.166666667,0.571,1,7589.921
9,FALSE,527,0.744,44,,,"(1182, 878)",,1,35,0.583333333,"640.0, 512.0",horizontal,"(390.0, 762.0)",1.233333333,0.539,1,7594.505
9,FALSE,528,0.878,52,,,"(1161, 865)",,1,24,0.4,"640.0, 512.0",horizontal,"(390.0, 262.0)",1.45,0.358,1,7599.048
9,FALSE,529,0.721,43,,,"(1196, 874)",,1,34,0.566666667,"640.0, 512.0",vertical,"(390.0, 762.0)",0.666666667,0.524,1,7603.644
9,FALSE,530,0.837,50,,,"(1189, 852)",,1,35,0.583333333,"640.0, 512.0",vertical,"(390.0, 262.0)",1.366666667,0.539,1,7607.55
9,FALSE,531,0.988,59,,,"(1140, 859)",,1,36,0.6,"640.0, 512.0",vertical,"(890.0, 762.0)",1.316666667,0.555,1,7612.316
9,FALSE,532,0.746,44,,,"(1182, 853)",,1,,,"640.0, 512.0",vertical,"(390.0, 262.0)",,0,0,7617.201
9,FALSE,533,0.517,31,,,"(1174, 927)",,1,34,0.566666667,"640.0, 512.0",vertical,"(890.0, 262.0)",1.633333333,0.522,1,7620.763
9,FALSE,534,0.604,36,,,"(1171, 852)",,1,34,0.566666667,"640.0, 512.0",vertical,"(890.0, 762.0)",0.633333333,0.53,1,7649.96
9,FALSE,535,0.881,52,,,"(1188, 870)",,1,34,0.566666667,"640.0, 512.0",horizontal,"(890.0, 762.0)",1.05,0.524,1,7653.794
9,FALSE,536,0.567,34,,,"(1140, 865)",,1,35,0.583333333,"640.0, 512.0",vertical,"(390.0, 762.0)",1.483333333,0.544,1,7658.245
9,FALSE,537,0.553,33,,,"(1129, 859)",,1,41,0.683333333,"640.0, 512.0",horizontal,"(390.0, 762.0)",0.666666667,0.634,1,7662.837
9,FALSE,538,0.936,56,,,"(1171, 883)",,1,33,0.55,"640.0, 512.0",horizontal,"(890.0, 262.0)",1.083333333,0.51,1,7666.832
9,FALSE,539,0.671,40,,,"(1124, 870)",,1,34,0.566666667,"640.0, 512.0",horizontal,"(890.0, 262.0)",1.016666667,0.52,1,7671.239
9,FALSE,540,0.665,39,,,"(1169, 862)",,1,35,0.583333333,"640.0, 512.0",vertical,"(890.0, 262.0)",1.183333333,0.539,1,7675.592
10,FALSE,541,0.926,55,,,"(1166, 874)",,1,36,0.6,"640.0, 512.0",vertical,"(390.0, 762.0)",0.883333333,0.56,1,7680.008
10,FALSE,542,0.683,40,,,"(1148, 886)",,1,44,0.733333333,"640.0, 512.0",horizontal,"(390.0, 262.0)",0.566666667,0.685,1,7684.407
10,FALSE,543,0.793,47,,,"(1158, 858)",,1,31,0.516666667,"640.0, 512.0",horizontal,"(890.0, 262.0)",1.683333333,0.475,1,7688.377
10,FALSE,544,0.653,39,,,"(1146, 865)",,1,35,0.583333333,"640.0, 512.0",horizontal,"(390.0, 262.0)",1.083333333,0.541,1,7693.381
10,FALSE,545,0.853,51,,,"(1177, 873)",,1,35,0.583333333,"640.0, 512.0",vertical,"(390.0, 762.0)",1.25,0.54,1,7697.594
10,FALSE,546,0.918,55,,,"(1177, 865)",,1,35,0.583333333,"640.0, 512.0",horizontal,"(390.0, 262.0)",1.333333333,0.538,1,7702.364
10,FALSE,547,0.514,30,,,"(1190, 869)",,1,34,0.566666667,"640.0, 512.0",horizontal,"(890.0, 262.0)",1,0.524,1,7707.259
10,FALSE,548,0.789,47,,,"(1142, 866)",,1,35,0.583333333,"640.0, 512.0",horizontal,"(390.0, 262.0)",0.733333333,0.543,1,7711.27
10,FALSE,549,0.814,48,,,"(1172, 866)",,1,33,0.55,"640.0, 512.0",vertical,"(390.0, 262.0)",1.4,0.505,1,7715.414
10,FALSE,550,0.767,46,,,"(1166, 878)",,1,35,0.583333333,"640.0, 512.0",horizontal,"(890.0, 262.0)",0.95,0.537,1,7720.043
10,FALSE,551,0.551,33,,,"(1178, 872)",,1,40,0.666666667,"640.0, 512.0",vertical,"(390.0, 762.0)",1.233333333,0.623,1,7724.157
10,FALSE,552,0.666,39,,,"(1178, 884)",,1,36,0.6,"640.0, 512.0",horizontal,"(890.0, 762.0)",0.766666667,0.559,1,7728.575
10,FALSE,553,1,60,,,"(1190, 858)",,1,40,0.666666667,"640.0, 512.0",vertical,"(890.0, 762.0)",1.383333333,0.619,1,7732.623
10,FALSE,554,1.023,61,,,"(1172, 885)",,1,36,0.6,"640.0, 512.0",vertical,"(390.0, 762.0)",1.066666667,0.563,1,7737.542
10,FALSE,555,0.651,39,,,"(1177, 866)",,1,36,0.6,"640.0, 512.0",horizontal,"(890.0, 762.0)",0.85,0.558,1,7742.235
10,FALSE,556,0.702,42,,,"(1182, 863)",,1,34,0.566666667,"640.0, 512.0",horizontal,"(890.0, 262.0)",0.65,0.521,1,7746.233
10,FALSE,557,1.15,69,,,"(1168, 877)",,1,35,0.583333333,"640.0, 512.0",vertical,"(390.0, 262.0)",1.166666667,0.539,1,7750.267
10,FALSE,558,0.808,48,,,"(1172, 869)",,1,42,0.7,"640.0, 512.0",vertical,"(390.0, 762.0)",0.966666667,0.651,1,7755.23
10,FALSE,559,1.018,61,,,"(1128, 873)",,1,34,0.566666667,"640.0, 512.0",vertical,"(890.0, 262.0)",0.783333333,0.526,1,7759.812
10,FALSE,560,1.125,67,,,"(1116, 855)",,1,36,0.6,"640.0, 512.0",horizontal,"(890.0, 262.0)",1.616666667,0.566,1,7764.197
10,FALSE,561,0.569,34,,,"(1142, 865)",,1,40,0.666666667,"640.0, 512.0",horizontal,"(890.0, 762.0)",0.683333333,0.62,1,7773.018
10,FALSE,562,0.675,40,,,"(1166, 860)",,1,34,0.566666667,"640.0, 512.0",horizontal,"(890.0, 262.0)",0.7,0.526,1,7776.83
10,FALSE,563,0.712,42,,,"(1145, 884)",,1,34,0.566666667,"640.0, 512.0",horizontal,"(390.0, 762.0)",1.55,0.525,1,7780.749
10,FALSE,564,0.898,53,,,"(1142, 850)",,1,35,0.583333333,"640.0, 512.0",vertical,"(390.0, 262.0)",1.383333333,0.541,1,7785.619
10,FALSE,565,1.06,63,,,"(1169, 858)",,1,35,0.583333333,"640.0, 512.0",horizontal,"(390.0, 762.0)",0.616666667,0.536,1,7790.52
10,FALSE,566,1.126,67,,,"(1169, 859)",,1,35,0.583333333,"640.0, 512.0",horizontal,"(390.0, 262.0)",1.183333333,0.545,1,7812.675
10,FALSE,567,1.105,66,,,"(1148, 886)",,1,37,0.616666667,"640.0, 512.0",vertical,"(890.0, 262.0)",1.633333333,0.57,1,7817.498
10,FALSE,568,0.585,35,,,"(1143, 860)",,1,37,0.616666667,"640.0, 512.0",horizontal,"(890.0, 262.0)",1.683333333,0.575,1,7822.747
10,FALSE,569,0.952,57,,,"(1159, 863)",,1,40,0.666666667,"640.0, 512.0",vertical,"(890.0, 762.0)",1.233333333,0.624,1,7829.448
10,FALSE,570,1.093,65,,,"(1148, 867)",,1,35,0.583333333,"640.0, 512.0",vertical,"(890.0, 762.0)",1.216666667,0.542,1,7834.333
10,FALSE,571,0.57,34,,,"(1178, 861)",,1,36,0.6,"640.0, 512.0",vertical,"(390.0, 762.0)",1.65,0.556,1,7839.267
10,FALSE,572,1.049,62,,,"(1148, 864)",,1,33,0.55,"640.0, 512.0",horizontal,"(390.0, 262.0)",1.183333333,0.507,1,7844.073
10,FALSE,573,1.196,71,,,"(1130, 873)",,1,35,0.583333333,"640.0, 512.0",vertical,"(890.0, 262.0)",1.583333333,0.544,1,7848.721
10,FALSE,574,1.155,69,,,"(1191, 860)",,1,42,0.7,"640.0, 512.0",vertical,"(890.0, 762.0)",0.916666667,0.655,1,7854.13
10,FALSE,575,0.558,33,,,"(1190, 882)",,1,44,0.733333333,"640.0, 512.0",horizontal,"(890.0, 762.0)",0.633333333,0.681,1,7858.9
10,FALSE,576,0.761,45,,,"(1148, 888)",,1,41,0.683333333,"640.0, 512.0",vertical,"(390.0, 762.0)",1.2,0.638,1,8477.789
10,FALSE,577,0.912,54,,,"(1136, 877)",,1,37,0.616666667,"640.0, 512.0",horizontal,"(890.0, 762.0)",0.7,0.57,1,8482.36
10,FALSE,578,0.967,58,,,"(1092, 889)",,1,35,0.583333333,"640.0, 512.0",horizontal,"(390.0, 762.0)",0.516666667,0.541,1,8486.427
10,FALSE,579,1.02,61,,,"(1196, 856)",,1,40,0.666666667,"640.0, 512.0",vertical,"(890.0, 762.0)",0.766666667,0.616,1,8490.698
10,FALSE,580,0.863,51,,,"(1105, 860)",,1,50,0.833333333,"640.0, 512.0",horizontal,"(390.0, 262.0)",1.416666667,0.786,1,8495.196
10,FALSE,581,0.59,35,,,"(1140, 864)",,1,37,0.616666667,"640.0, 512.0",horizontal,"(890.0, 262.0)",0.55,0.578,1,8500.212
10,FALSE,582,0.676,40,,,"(1137, 870)",,1,33,0.55,"640.0, 512.0",horizontal,"(890.0, 262.0)",0.666666667,0.504,1,8503.995
10,FALSE,583,1.129,67,,,"(1153, 860)",,1,40,0.666666667,"640.0, 512.0",horizontal,"(390.0, 762.0)",1.616666667,0.62,1,8507.924
10,FALSE,584,0.626,37,,,"(1154, 892)",,1,36,0.6,"640.0, 512.0",vertical,"(390.0, 762.0)",1.483333333,0.557,1,8513.342
10,FALSE,585,0.517,31,,,"(1136, 862)",,1,38,0.633333333,"640.0, 512.0",horizontal,"(890.0, 762.0)",0.6,0.584,1,8518.092
10,FALSE,586,0.66,39,,,"(1166, 857)",,1,33,0.55,"640.0, 512.0",horizontal,"(390.0, 262.0)",1.5,0.511,1,8521.982
10,FALSE,587,1.142,68,,,"(1162, 861)",,1,45,0.75,"640.0, 512.0",horizontal,"(390.0, 762.0)",1.25,0.701,1,8526.686
10,FALSE,588,0.985,59,,,"(1196, 897)",,1,40,0.666666667,"640.0, 512.0",vertical,"(890.0, 262.0)",1.583333333,0.625,1,8531.833
10,FALSE,589,0.607,36,,,"(1136, 881)",,1,38,0.633333333,"640.0, 512.0",vertical,"(390.0, 262.0)",0.883333333,0.591,1,8536.941
10,FALSE,590,0.779,46,,,"(1140, 853)",,1,38,0.633333333,"640.0, 512.0",horizontal,"(390.0, 762.0)",0.533333333,0.585,1,8541.042
10,FALSE,591,0.512,30,,,"(1136, 850)",,1,35,0.583333333,"640.0, 512.0",horizontal,"(390.0, 762.0)",0.933333333,0.54,1,8545.124
10,FALSE,592,0.807,48,,,"(1148, 858)",,1,35,0.583333333,"640.0, 512.0",vertical,"(890.0, 762.0)",0.683333333,0.544,1,8549.186
10,FALSE,593,0.654,39,,,"(1105, 859)",,1,35,0.583333333,"640.0, 512.0",horizontal,"(390.0, 262.0)",0.833333333,0.545,1,8553.306
10,FALSE,594,1.069,64,,,"(1168, 872)",,1,39,0.65,"640.0, 512.0",horizontal,"(890.0, 262.0)",0.65,0.601,1,8557.336
10,FALSE,595,0.817,49,,,"(1202, 877)",,1,36,0.6,"640.0, 512.0",vertical,"(390.0, 762.0)",1,0.555,1,8561.72
10,FALSE,596,0.877,52,,,"(1142, 851)",,1,44,0.733333333,"640.0, 512.0",vertical,"(890.0, 762.0)",1.2,0.69,1,8566.159
10,FALSE,597,0.887,53,,,"(1155, 892)",,1,51,0.85,"640.0, 512.0",vertical,"(890.0, 262.0)",1.433333333,0.801,0,8570.917
10,FALSE,598,0.758,45,,,"(1134, 882)",,1,41,0.683333333,"640.0, 512.0",horizontal,"(390.0, 262.0)",0.666666667,0.637,1,8666.904
10,FALSE,599,1.1,66,,,"(1151, 859)",,1,38,0.633333333,"640.0, 512.0",vertical,"(890.0, 762.0)",0.666666667,0.593,1,11292.953
10,FALSE,600,1.116,66,,,"(1147, 881)",,1,51,0.85,"640.0, 512.0",vertical,"(390.0, 262.0)",1.233333333,0.8,0,11297.359
11,FALSE,601,1.098,65,,,"(1113, 897)",,1,51,0.85,"640.0, 512.0",horizontal,"(890.0, 262.0)",1,0.804,0,11962.022
11,FALSE,602,0.982,58,,,"(1148, 870)",,1,51,0.85,"640.0, 512.0",vertical,"(890.0, 262.0)",1.15,0.815,0,11976.742
11,FALSE,603,1.062,63,,,"(1190, 846)",,1,36,0.6,"640.0, 512.0",vertical,"(390.0, 762.0)",1.366666667,0.557,1,11981.699
11,FALSE,604,1.123,67,,,"(1136, 866)",,1,45,0.75,"640.0, 512.0",horizontal,"(890.0, 762.0)",1.083333333,0.714,1,11987.644
11,FALSE,605,0.895,53,,,"(1178, 859)",,1,42,0.7,"640.0, 512.0",horizontal,"(390.0, 262.0)",1.5,0.652,1,11992.57
11,FALSE,606,0.64,38,,,"(1177, 897)",,1,38,0.633333333,"640.0, 512.0",horizontal,"(390.0, 262.0)",1.566666667,0.592,1,11997.695
11,FALSE,607,1.08,64,,,"(1133, 867)",,1,35,0.583333333,"640.0, 512.0",horizontal,"(390.0, 262.0)",1.55,0.547,1,12010.098
11,FALSE,608,0.71,42,,,"(1145, 865)",,1,36,0.6,"640.0, 512.0",vertical,"(390.0, 762.0)",1.383333333,0.552,1,12015.509
11,FALSE,609,0.745,44,,,"(1136, 865)",,1,39,0.65,"640.0, 512.0",vertical,"(890.0, 762.0)",0.983333333,0.61,1,12020.292
11,FALSE,610,0.576,34,,,"(1141, 870)",,1,40,0.666666667,"640.0, 512.0",horizontal,"(390.0, 762.0)",0.833333333,0.628,1,12024.649
11,FALSE,611,1.192,71,,,"(1239, 865), (1177, 859)",,"0, 1",34,0.566666667,"640.0, 512.0",horizontal,"(890.0, 262.0)",1.366666667,0.533,1,12028.774
11,FALSE,612,0.838,50,,,"(1203, 877)",,1,35,0.583333333,"640.0, 512.0",horizontal,"(890.0, 762.0)",1.5,0.549,1,12035.787
11,FALSE,613,0.944,56,,,"(1133, 858)",,1,41,0.683333333,"640.0, 512.0",horizontal,"(390.0, 762.0)",1.633333333,0.65,1,12040.858
11,FALSE,614,0.985,59,,,"(1120, 846)",,1,38,0.633333333,"640.0, 512.0",horizontal,"(390.0, 762.0)",1.1,0.601,1,12046.152
11,FALSE,615,0.845,50,,,"(1195, 881)",,1,34,0.566666667,"640.0, 512.0",vertical,"(390.0, 762.0)",1.383333333,0.528,1,12051.027
11,FALSE,616,0.649,38,,,"(1196, 855)",,1,37,0.616666667,"640.0, 512.0",horizontal,"(390.0, 762.0)",0.9,0.576,1,12056.006
11,FALSE,617,0.539,32,,,"(1184, 845)",,1,39,0.65,"640.0, 512.0",horizontal,"(890.0, 762.0)",0.683333333,0.609,1,12060.312
11,FALSE,618,0.64,38,,,"(1195, 841)",,1,37,0.616666667,"640.0, 512.0",horizontal,"(390.0, 762.0)",0.65,0.574,1,12064.259
11,FALSE,619,1.033,61,,,"(1142, 896)",,1,36,0.6,"640.0, 512.0",vertical,"(390.0, 762.0)",1.216666667,0.563,1,12068.332
11,FALSE,620,1.149,68,,,"(1176, 847)",,1,37,0.616666667,"640.0, 512.0",horizontal,"(890.0, 262.0)",0.516666667,0.582,1,12073.32
11,FALSE,621,1.195,71,,,"(1117, 864)",,1,42,0.7,"640.0, 512.0",vertical,"(890.0, 762.0)",1.516666667,0.666,1,12077.595
11,FALSE,622,0.506,30,,,"(1143, 849)",,1,36,0.6,"640.0, 512.0",vertical,"(390.0, 762.0)",0.833333333,0.557,1,12082.904
11,FALSE,623,0.649,38,,,"(1136, 863)",,1,46,0.766666667,"640.0, 512.0",vertical,"(890.0, 262.0)",0.716666667,0.719,1,12086.89
11,FALSE,624,1.114,66,,,"(1117, 878)",,1,33,0.55,"640.0, 512.0",horizontal,"(390.0, 762.0)",1.616666667,0.508,1,12091.063
11,FALSE,625,0.832,49,,,"(1131, 862)",,1,37,0.616666667,"640.0, 512.0",vertical,"(890.0, 762.0)",0.933333333,0.574,1,12654.897
11,FALSE,626,1.099,65,,,"(1117, 888)",,1,32,0.533333333,"640.0, 512.0",vertical,"(390.0, 262.0)",0.716666667,0.493,1,12659.458
11,FALSE,627,0.978,58,,,"(1120, 875)",,1,37,0.616666667,"640.0, 512.0",horizontal,"(390.0, 762.0)",0.733333333,0.573,1,12663.814
11,FALSE,628,0.869,52,,,"(1153, 865)",,1,45,0.75,"640.0, 512.0",vertical,"(390.0, 262.0)",0.5,0.706,1,12668.149
11,FALSE,629,1.2,72,,,"(1129, 865)",,1,35,0.583333333,"640.0, 512.0",horizontal,"(890.0, 262.0)",0.816666667,0.547,1,12672.244
11,FALSE,630,0.782,46,,,"(1129, 871)",,1,33,0.55,"640.0, 512.0",vertical,"(390.0, 262.0)",1.15,0.51,1,12676.764
11,FALSE,631,1.05,63,,,"(1180, 859)",,1,37,0.616666667,"640.0, 512.0",vertical,"(390.0, 762.0)",1.233333333,0.573,1,12681.248
11,FALSE,632,1.138,68,,,"(1144, 846)",,1,35,0.583333333,"640.0, 512.0",horizontal,"(890.0, 762.0)",0.516666667,0.544,1,12686.084
11,FALSE,633,0.94,56,,,"(1195, 841)",,1,34,0.566666667,"640.0, 512.0",horizontal,"(390.0, 262.0)",1.616666667,0.526,1,12695.971
11,FALSE,634,1.083,64,,,"(1168, 871)",,1,36,0.6,"640.0, 512.0",horizontal,"(890.0, 762.0)",1.216666667,0.558,1,12701.091
11,FALSE,635,0.936,56,,,"(1158, 862)",,1,35,0.583333333,"640.0, 512.0",horizontal,"(390.0, 262.0)",1.333333333,0.539,1,12706.025
11,FALSE,636,0.547,32,,,"(1117, 850)",,1,38,0.633333333,"640.0, 512.0",vertical,"(890.0, 262.0)",0.6,0.587,1,12710.892
11,FALSE,637,0.772,46,,,"(1190, 842)",,1,35,0.583333333,"640.0, 512.0",horizontal,"(390.0, 762.0)",1.45,0.542,1,12717.047
11,FALSE,638,0.819,49,,,"(1080, 855)",,1,38,0.633333333,"640.0, 512.0",vertical,"(890.0, 762.0)",1.466666667,0.593,1,12721.915
11,FALSE,639,0.748,44,,,"(1196, 858)",,1,43,0.716666667,"640.0, 512.0",horizontal,"(890.0, 262.0)",1.116666667,0.673,1,12728.248
11,FALSE,640,0.836,50,,,"(1148, 873)",,1,33,0.55,"640.0, 512.0",horizontal,"(890.0, 262.0)",1.433333333,0.511,1,12732.927
11,FALSE,641,0.953,57,,,"(1135, 855)",,1,35,0.583333333,"640.0, 512.0",vertical,"(390.0, 262.0)",1.433333333,0.539,1,12737.808
11,FALSE,642,1.199,71,,,"(1129, 866)",,1,51,0.85,"640.0, 512.0",vertical,"(390.0, 762.0)",1.05,0.803,0,12742.928
11,FALSE,643,0.697,41,,,"(1129, 898)",,1,36,0.6,"640.0, 512.0",vertical,"(390.0, 262.0)",0.583333333,0.563,1,12748.125
11,FALSE,644,0.982,58,,,"(1104, 852)",,1,32,0.533333333,"640.0, 512.0",vertical,"(390.0, 262.0)",1.366666667,0.489,1,12760.646
11,FALSE,645,0.646,38,,,"(1115, 866)",,1,34,0.566666667,"640.0, 512.0",vertical,"(390.0, 762.0)",1.466666667,0.525,1,12765.496
11,FALSE,646,1.186,71,,,"(1130, 870)",,1,11,0.183333333,"640.0, 512.0",vertical,"(390.0, 262.0)",1.533333333,0.152,1,14079.119
11,FALSE,647,1.083,64,,,"(1164, 873)",,1,38,0.633333333,"640.0, 512.0",horizontal,"(390.0, 762.0)",1.066666667,0.596,1,14083.959
11,FALSE,648,0.869,52,,,"(1196, 936)",,1,37,0.616666667,"640.0, 512.0",vertical,"(390.0, 762.0)",1.083333333,0.573,1,14088.61
11,FALSE,649,0.957,57,,,"(1105, 882)",,1,36,0.6,"640.0, 512.0",horizontal,"(390.0, 262.0)",1.4,0.556,1,14180.429
11,FALSE,650,0.941,56,,,"(1188, 882)",,1,35,0.583333333,"640.0, 512.0",horizontal,"(390.0, 262.0)",1.466666667,0.539,1,14185.718
11,FALSE,651,0.735,44,,,"(1141, 884)",,1,36,0.6,"640.0, 512.0",vertical,"(890.0, 762.0)",0.75,0.562,1,14190.851
11,FALSE,652,0.705,42,,,"(1129, 871)",,1,35,0.583333333,"640.0, 512.0",vertical,"(390.0, 262.0)",1.633333333,0.536,1,14194.794
11,FALSE,653,0.655,39,,,"(1129, 859)",,1,51,0.85,"640.0, 512.0",horizontal,"(390.0, 262.0)",0.85,0.806,0,14199.65
11,FALSE,654,0.743,44,,,"(1105, 874)",,1,36,0.6,"640.0, 512.0",horizontal,"(890.0, 762.0)",1.233333333,0.558,1,14203.919
11,FALSE,655,0.582,34,,,"(1105, 849)",,1,43,0.716666667,"640.0, 512.0",horizontal,"(390.0, 762.0)",0.766666667,0.674,1,14208.664
11,FALSE,656,0.524,31,,,"(1172, 871)",,1,35,0.583333333,"640.0, 512.0",vertical,"(390.0, 262.0)",1.116666667,0.54,1,14212.702
11,FALSE,657,0.701,42,,,"(1113, 867)",,1,48,0.8,"640.0, 512.0",vertical,"(890.0, 262.0)",1.583333333,0.76,1,14217.034
11,FALSE,658,0.571,34,,,"(1156, 855)",,1,36,0.6,"640.0, 512.0",horizontal,"(890.0, 762.0)",1.416666667,0.557,1,14222.042
11,FALSE,659,0.659,39,,,"(1178, 870)",,1,35,0.583333333,"640.0, 512.0",vertical,"(390.0, 262.0)",1.016666667,0.538,1,14226.552
11,FALSE,660,0.531,31,,,"(1087, 869)",,1,37,0.616666667,"640.0, 512.0",horizontal,"(890.0, 262.0)",1.65,0.574,1,14230.786
12,FALSE,661,0.843,50,,,"(1129, 871)",,1,38,0.633333333,"640.0, 512.0",vertical,"(890.0, 762.0)",1.183333333,0.597,1,14235.742
12,FALSE,662,0.928,55,,,"(1129, 852)",,1,47,0.783333333,"640.0, 512.0",horizontal,"(890.0, 262.0)",0.816666667,0.738,1,14240.579
12,FALSE,663,0.651,39,,,"(1156, 850)",,1,33,0.55,"640.0, 512.0",vertical,"(890.0, 262.0)",1.35,0.511,1,14245.099
12,FALSE,664,1.025,61,,,"(1166, 878)",,1,35,0.583333333,"640.0, 512.0",horizontal,"(890.0, 762.0)",0.816666667,0.554,1,14249.629
12,FALSE,665,0.567,34,,,"(1153, 879)",,1,38,0.633333333,"640.0, 512.0",vertical,"(390.0, 762.0)",1.633333333,0.601,1,14254.244
12,FALSE,666,1.107,66,,,"(1104, 860)",,1,42,0.7,"640.0, 512.0",horizontal,"(890.0, 762.0)",0.733333333,0.656,1,14259.066
12,FALSE,667,0.522,31,,,"(1117, 866)",,1,37,0.616666667,"640.0, 512.0",horizontal,"(890.0, 762.0)",0.683333333,0.572,1,14263.686
12,FALSE,668,0.737,44,,,"(1147, 868)",,1,46,0.766666667,"640.0, 512.0",horizontal,"(890.0, 762.0)",1.45,0.725,1,14267.599
12,FALSE,669,0.855,51,,,"(1148, 901)",,1,44,0.733333333,"640.0, 512.0",horizontal,"(390.0, 262.0)",0.666666667,0.693,1,14272.533
12,FALSE,670,0.927,55,,,"(1123, 867)",,1,34,0.566666667,"640.0, 512.0",vertical,"(390.0, 762.0)",1.583333333,0.522,1,14825.951
12,FALSE,671,0.977,58,,,"(1128, 875)",,1,41,0.683333333,"640.0, 512.0",vertical,"(890.0, 262.0)",1.183333333,0.643,1,14831.02
12,FALSE,672,1.049,62,,,"(1123, 884)",,1,33,0.55,"640.0, 512.0",vertical,"(890.0, 762.0)",0.516666667,0.517,1,14835.848
12,FALSE,673,1.147,68,,,"(1136, 869)",,1,35,0.583333333,"640.0, 512.0",horizontal,"(390.0, 762.0)",1.166666667,0.542,1,14839.969
12,FALSE,674,0.822,49,,,"(1137, 891)",,1,32,0.533333333,"640.0, 512.0",horizontal,"(390.0, 762.0)",0.783333333,0.494,1,14844.771
12,FALSE,675,1.167,70,,,"(1133, 873)",,1,36,0.6,"640.0, 512.0",vertical,"(390.0, 262.0)",1.65,0.556,1,14851.283
12,FALSE,676,0.548,32,,,"(1099, 869)",,1,35,0.583333333,"640.0, 512.0",horizontal,"(890.0, 262.0)",1.216666667,0.54,1,14856.837
12,FALSE,677,1.03,61,,,"(1136, 874)",,1,33,0.55,"640.0, 512.0",vertical,"(890.0, 762.0)",0.65,0.507,1,14861.2
12,FALSE,678,1.115,66,,,"(1136, 878)",,1,35,0.583333333,"640.0, 512.0",vertical,"(390.0, 262.0)",0.616666667,0.543,1,14865.515
12,FALSE,679,0.781,46,,,"(1172, 865)",,1,36,0.6,"640.0, 512.0",vertical,"(390.0, 762.0)",0.966666667,0.554,1,14869.852
12,FALSE,680,0.819,49,,,"(1129, 855)",,1,37,0.616666667,"640.0, 512.0",vertical,"(890.0, 762.0)",0.716666667,0.579,1,14874.131
12,FALSE,681,0.643,38,,,"(1137, 866)",,1,45,0.75,"640.0, 512.0",horizontal,"(390.0, 762.0)",1.283333333,0.702,1,14878.398
12,FALSE,682,0.78,46,,,"(1136, 872)",,1,35,0.583333333,"640.0, 512.0",horizontal,"(890.0, 762.0)",0.666666667,0.541,1,14883.232
12,FALSE,683,0.95,57,,,"(1142, 876)",,1,34,0.566666667,"640.0, 512.0",vertical,"(390.0, 262.0)",1.366666667,0.525,1,14887.284
12,FALSE,684,0.586,35,,,"(1153, 861)",,1,36,0.6,"640.0, 512.0",horizontal,"(390.0, 762.0)",0.75,0.555,1,14892.235
12,FALSE,685,0.607,36,,,"(1118, 867)",,1,37,0.616666667,"640.0, 512.0",vertical,"(890.0, 262.0)",1.233333333,0.576,1,14896.245
12,FALSE,686,0.518,31,,,"(1136, 851)",,1,36,0.6,"640.0, 512.0",horizontal,"(390.0, 762.0)",0.883333333,0.556,1,14900.645
12,FALSE,687,0.999,59,,,"(1133, 869)",,1,38,0.633333333,"640.0, 512.0",vertical,"(390.0, 262.0)",1.05,0.585,1,14925.954
12,FALSE,688,0.572,34,,,"(1160, 868)",,1,35,0.583333333,"640.0, 512.0",horizontal,"(390.0, 262.0)",0.833333333,0.541,1,14930.686
12,FALSE,689,0.834,50,,,"(1130, 859)",,1,37,0.616666667,"640.0, 512.0",horizontal,"(890.0, 262.0)",0.5,0.575,1,14934.679
12,FALSE,690,0.988,59,,,"(1148, 884)",,1,32,0.533333333,"640.0, 512.0",horizontal,"(390.0, 262.0)",1.383333333,0.497,1,14938.754
12,FALSE,691,0.968,58,,,"(1146, 864)",,1,34,0.566666667,"640.0, 512.0",vertical,"(890.0, 762.0)",1.083333333,0.525,1,14943.573
12,FALSE,692,0.659,39,,,"(1172, 875)",,1,40,0.666666667,"640.0, 512.0",horizontal,"(890.0, 762.0)",1.383333333,0.625,1,14948.204
12,FALSE,693,0.907,54,,,"(1172, 873)",,1,34,0.566666667,"640.0, 512.0",horizontal,"(390.0, 762.0)",0.85,0.53,1,14953.048
12,FALSE,694,1.084,65,,,"(1098, 868)",,1,34,0.566666667,"640.0, 512.0",horizontal,"(890.0, 762.0)",1.116666667,0.526,1,14957.458
12,FALSE,695,0.578,34,,,"(1102, 885)",,1,38,0.633333333,"640.0, 512.0",vertical,"(390.0, 762.0)",0.6,0.589,1,14962.48
12,FALSE,696,0.521,31,,,"(1118, 855)",,1,34,0.566666667,"640.0, 512.0",vertical,"(890.0, 262.0)",0.783333333,0.524,1,15054.869
12,FALSE,697,0.714,42,,,"(1161, 874)",,1,37,0.616666667,"640.0, 512.0",vertical,"(890.0, 262.0)",0.516666667,0.573,1,15058.729
12,FALSE,698,0.638,38,,,"(1142, 884)",,1,35,0.583333333,"640.0, 512.0",horizontal,"(890.0, 762.0)",0.683333333,0.546,1,15062.43
12,FALSE,699,0.964,57,,,"(1160, 889)",,1,39,0.65,"640.0, 512.0",vertical,"(890.0, 262.0)",0.633333333,0.608,1,15066.347
12,FALSE,700,0.603,36,,,"(1142, 883)",,1,36,0.6,"640.0, 512.0",vertical,"(890.0, 762.0)",0.8,0.557,1,15070.536
12,FALSE,701,0.69,41,,,"(1123, 868)",,1,35,0.583333333,"640.0, 512.0",horizontal,"(390.0, 262.0)",1.5,0.544,1,15074.498
12,FALSE,702,0.705,42,,,"(1111, 883)",,1,34,0.566666667,"640.0, 512.0",horizontal,"(890.0, 262.0)",1.65,0.527,1,15080.465
12,FALSE,703,0.635,38,,,"(1156, 901)",,1,35,0.583333333,"640.0, 512.0",vertical,"(890.0, 262.0)",1.45,0.541,1,15085.303
12,FALSE,704,0.503,30,,,"(1148, 873)",,1,37,0.616666667,"640.0, 512.0",vertical,"(890.0, 762.0)",1.366666667,0.588,1,15089.8
12,FALSE,705,0.964,57,,,"(1189, 859)",,1,33,0.55,"640.0, 512.0",horizontal,"(390.0, 262.0)",1.1,0.513,1,15094.155
12,FALSE,706,1.025,61,,,"(1142, 884)",,1,45,0.75,"640.0, 512.0",horizontal,"(390.0, 262.0)",0.516666667,0.706,1,15098.755
12,FALSE,707,0.716,42,,,"(1140, 870)",,1,38,0.633333333,"640.0, 512.0",horizontal,"(890.0, 762.0)",1.25,0.592,1,15103.143
12,FALSE,708,1.17,70,,,"(1129, 864)",,1,37,0.616666667,"640.0, 512.0",horizontal,"(890.0, 762.0)",0.816666667,0.577,1,15107.675
12,FALSE,709,0.766,45,,,"(1119, 869)",,1,34,0.566666667,"640.0, 512.0",horizontal,"(390.0, 262.0)",0.55,0.529,1,15112.367
12,FALSE,710,0.509,30,,,"(1116, 873)",,1,36,0.6,"640.0, 512.0",horizontal,"(890.0, 762.0)",0.816666667,0.557,1,15116.385
12,FALSE,711,0.541,32,,,"(1146, 884)",,1,44,0.733333333,"640.0, 512.0",horizontal,"(890.0, 762.0)",1.25,0.691,1,15120.372
12,FALSE,712,0.544,32,,,"(1130, 873)",,1,34,0.566666667,"640.0, 512.0",horizontal,"(390.0, 262.0)",1.4,0.522,1,15124.9
12,FALSE,713,0.802,48,,,"(1177, 872)",,1,37,0.616666667,"640.0, 512.0",horizontal,"(390.0, 762.0)",0.516666667,0.584,1,15129.57
12,FALSE,714,0.789,47,,,"(1136, 868)",,1,40,0.666666667,"640.0, 512.0",vertical,"(390.0, 762.0)",0.766666667,0.631,1,15133.542
12,FALSE,715,1.134,68,,,"(1148, 862)",,1,35,0.583333333,"640.0, 512.0",vertical,"(390.0, 262.0)",0.566666667,0.54,1,15137.689
12,FALSE,716,0.782,46,,,"(1188, 879)",,1,37,0.616666667,"640.0, 512.0",vertical,"(890.0, 762.0)",0.966666667,0.578,1,15143.266
12,FALSE,717,0.613,36,,,"(1123, 865)",,1,37,0.616666667,"640.0, 512.0",horizontal,"(390.0, 762.0)",1.083333333,0.576,1,15147.83
12,FALSE,718,1.016,60,,,"(1080, 885)",,1,51,0.85,"640.0, 512.0",vertical,"(390.0, 262.0)",1.3,0.803,0,15152.181
12,FALSE,719,1.103,66,,,"(1129, 875)",,1,36,0.6,"640.0, 512.0",horizontal,"(890.0, 262.0)",0.9,0.559,1,15157.421
12,FALSE,720,0.81,48,,,"(1142, 872)",,1,40,0.666666667,"640.0, 512.0",vertical,"(390.0, 762.0)",0.516666667,0.622,1,15162.051
13,FALSE,721,0.677,40,,,"(1136, 855)",,1,42,0.7,"640.0, 512.0",vertical,"(390.0, 262.0)",1.216666667,0.659,1,15166.107
13,FALSE,722,0.864,51,,,"(1105, 872)",,1,32,0.533333333,"640.0, 512.0",vertical,"(390.0, 262.0)",1.466666667,0.495,1,15170.684
13,FALSE,723,0.523,31,,,"(1087, 834)",,1,35,0.583333333,"640.0, 512.0",vertical,"(390.0, 762.0)",1.433333333,0.548,1,15175.767
13,FALSE,724,1.033,61,,,"(1108, 858)",,1,37,0.616666667,"640.0, 512.0",horizontal,"(390.0, 762.0)",1.033333333,0.582,1,15180.586
13,FALSE,725,0.982,58,,,"(1143, 857)",,1,37,0.616666667,"640.0, 512.0",vertical,"(390.0, 262.0)",1.483333333,0.579,1,15185.229
13,FALSE,726,0.54,32,,,"(1167, 878)",,1,29,0.483333333,"640.0, 512.0",vertical,"(890.0, 262.0)",1.666666667,0.44,1,15190.277
13,FALSE,727,0.861,51,,,"(1142, 855)",,1,39,0.65,"640.0, 512.0",horizontal,"(890.0, 762.0)",1.45,0.602,1,15194.895
13,FALSE,728,0.837,50,,,"(1147, 885)",,1,36,0.6,"640.0, 512.0",horizontal,"(390.0, 262.0)",1.683333333,0.561,1,15200.954
13,FALSE,729,0.806,48,,,"(1166, 887)",,1,34,0.566666667,"640.0, 512.0",vertical,"(390.0, 262.0)",0.8,0.528,1,15206.104
13,FALSE,730,0.606,36,,,"(1160, 876)",,1,33,0.55,"640.0, 512.0",vertical,"(890.0, 762.0)",1.3,0.511,1,15210.234
13,FALSE,731,0.501,30,,,"(1136, 879)",,1,36,0.6,"640.0, 512.0",horizontal,"(890.0, 262.0)",0.733333333,0.559,1,15214.638
13,FALSE,732,0.929,55,,,"(1160, 857)",,1,37,0.616666667,"640.0, 512.0",vertical,"(390.0, 262.0)",0.633333333,0.571,1,15218.487
13,FALSE,733,1.07,64,,,"(1123, 871)",,1,32,0.533333333,"640.0, 512.0",horizontal,"(390.0, 262.0)",1.083333333,0.504,1,15222.537
13,FALSE,734,1.022,61,,,"(1163, 883)",,1,,,"640.0, 512.0",horizontal,"(890.0, 262.0)",,0,0,15227.233
13,FALSE,735,0.89,53,,,"(1153, 879)",,1,39,0.65,"640.0, 512.0",vertical,"(890.0, 262.0)",1.383333333,0.604,1,15231.597
13,FALSE,736,0.563,33,,,"(1143, 885)",,1,34,0.566666667,"640.0, 512.0",vertical,"(890.0, 762.0)",1.6,0.528,1,15237.07
13,FALSE,737,0.655,39,,,"(1184, 872)",,1,37,0.616666667,"640.0, 512.0",vertical,"(390.0, 762.0)",1.383333333,0.577,1,15241.807
13,FALSE,738,1.115,66,,,"(1166, 869)",,1,36,0.6,"640.0, 512.0",horizontal,"(390.0, 762.0)",0.683333333,0.56,1,15246.566
13,FALSE,739,0.556,33,,,"(1156, 868)",,1,36,0.6,"640.0, 512.0",horizontal,"(890.0, 262.0)",0.566666667,0.557,1,15250.878
13,FALSE,740,0.756,45,,,"(1153, 879)",,1,38,0.633333333,"640.0, 512.0",horizontal,"(890.0, 262.0)",1.566666667,0.593,1,15254.486
13,FALSE,741,1.131,67,,,"(1142, 852)",,1,34,0.566666667,"640.0, 512.0",horizontal,"(390.0, 262.0)",1.333333333,0.521,1,15259.338
13,FALSE,742,1.14,68,,,"(1119, 873)",,1,10,0.166666667,"640.0, 512.0",horizontal,"(890.0, 262.0)",1.65,0.132,1,15265.699
13,FALSE,743,0.934,56,,,"(1172, 853)",,1,45,0.75,"640.0, 512.0",horizontal,"(390.0, 262.0)",0.5,0.722,1,15270.551
13,FALSE,744,0.587,35,,,"(1123, 848)",,1,35,0.583333333,"640.0, 512.0",horizontal,"(890.0, 262.0)",1.25,0.541,1,15274.7
13,FALSE,745,1.134,68,,,"(1160, 873)",,1,39,0.65,"640.0, 512.0",vertical,"(890.0, 262.0)",1.25,0.61,1,15278.999
13,FALSE,746,1.042,62,,,"(1182, 870)",,1,32,0.533333333,"640.0, 512.0",vertical,"(890.0, 762.0)",0.516666667,0.493,1,15284.085
13,FALSE,747,1.093,65,,,"(450, 815), (1153, 895)",,"0, 1",37,0.616666667,"640.0, 512.0",vertical,"(390.0, 262.0)",1.516666667,0.576,1,15288.196
13,FALSE,748,0.678,40,,,"(1139, 875)",,1,33,0.55,"640.0, 512.0",horizontal,"(890.0, 262.0)",1.466666667,0.514,1,15301.083
13,FALSE,749,1.047,62,,,"(1195, 871)",,1,36,0.6,"640.0, 512.0",horizontal,"(890.0, 262.0)",0.55,0.556,1,15305.885
13,FALSE,750,0.76,45,,,"(1148, 877)",,1,37,0.616666667,"640.0, 512.0",vertical,"(390.0, 262.0)",1.6,0.577,1,15310.017
13,FALSE,751,1.153,69,,,"(1146, 875)",,1,36,0.6,"640.0, 512.0",vertical,"(890.0, 762.0)",1.3,0.555,1,15314.887
13,FALSE,752,0.572,34,,,"(1162, 873)",,1,33,0.55,"640.0, 512.0",vertical,"(890.0, 262.0)",1.2,0.511,1,15319.783
13,FALSE,753,0.656,39,,,"(1153, 874)",,1,40,0.666666667,"640.0, 512.0",horizontal,"(890.0, 762.0)",0.866666667,0.614,1,15324.019
13,FALSE,754,0.918,55,,,"(762, 315), (271, 427), (806, 321), (19, 303), (261, 317), (266, 307), (440, 309), (1126, 886)",,"0, 0, 0, 0, 0, 0, 0, 1",35,0.583333333,"640.0, 512.0",vertical,"(890.0, 762.0)",1.166666667,0.536,1,15328.036
13,FALSE,755,0.948,56,,,"(1180, 877)",,1,38,0.633333333,"640.0, 512.0",horizontal,"(390.0, 762.0)",1.683333333,0.589,1,15552.868
13,FALSE,756,0.506,30,,,"(1188, 886)",,1,38,0.633333333,"640.0, 512.0",horizontal,"(890.0, 262.0)",0.7,0.588,1,15558.139
13,FALSE,757,1.126,67,,,"(1186, 879)",,1,33,0.55,"640.0, 512.0",horizontal,"(890.0, 762.0)",1.616666667,0.515,1,15561.85
13,FALSE,758,0.745,44,,,"(1171, 877)",,1,36,0.6,"640.0, 512.0",vertical,"(390.0, 262.0)",0.9,0.559,1,15567.172
13,FALSE,759,0.517,31,,,"(1155, 869)",,1,33,0.55,"640.0, 512.0",vertical,"(390.0, 262.0)",0.583333333,0.51,1,15571.52
13,FALSE,760,0.843,50,,,"(1198, 884)",,1,29,0.483333333,"640.0, 512.0",vertical,"(390.0, 262.0)",1.683333333,0.442,1,15575.071
13,FALSE,761,0.654,39,,,"(1198, 868)",,1,34,0.566666667,"640.0, 512.0",horizontal,"(390.0, 262.0)",0.933333333,0.525,1,15579.983
13,FALSE,762,0.879,52,,,"(1196, 894)",,1,35,0.583333333,"640.0, 512.0",vertical,"(890.0, 762.0)",1.416666667,0.541,1,15584.086
13,FALSE,763,1.009,60,,,"(1203, 873)",,1,32,0.533333333,"640.0, 512.0",horizontal,"(390.0, 262.0)",1.35,0.489,1,15588.955
13,FALSE,764,0.655,39,,,"(1138, 886)",,1,35,0.583333333,"640.0, 512.0",horizontal,"(890.0, 262.0)",0.616666667,0.542,1,15593.831
13,FALSE,765,0.555,33,,,"(1178, 866)",,1,32,0.533333333,"640.0, 512.0",horizontal,"(390.0, 262.0)",1.4,0.492,1,15598.002
13,FALSE,766,0.765,45,,,"(1183, 871)",,1,47,0.783333333,"640.0, 512.0",vertical,"(890.0, 762.0)",1.15,0.732,1,15602.562
13,FALSE,767,0.591,35,,,"(1196, 880)",,1,35,0.583333333,"640.0, 512.0",horizontal,"(890.0, 762.0)",1.033333333,0.543,1,15608.432
13,FALSE,768,1.021,61,,,"(1184, 877)",,1,34,0.566666667,"640.0, 512.0",horizontal,"(390.0, 762.0)",1.183333333,0.53,1,15612.643
13,FALSE,769,1.015,60,,,"(1130, 885)",,1,35,0.583333333,"640.0, 512.0",horizontal,"(890.0, 762.0)",1.366666667,0.542,1,15617.339
13,FALSE,770,0.781,46,,,"(1106, 899)",,1,34,0.566666667,"640.0, 512.0",horizontal,"(890.0, 762.0)",1.583333333,0.524,1,15622.407
13,FALSE,771,1.076,64,,,"(1133, 870)",,1,32,0.533333333,"640.0, 512.0",horizontal,"(890.0, 262.0)",0.5,0.493,1,15699.931
13,FALSE,772,0.692,41,,,"(1117, 885)",,1,33,0.55,"640.0, 512.0",vertical,"(890.0, 762.0)",0.516666667,0.509,1,15704.119
13,FALSE,773,0.905,54,,,"(1142, 881)",,1,40,0.666666667,"640.0, 512.0",vertical,"(890.0, 262.0)",0.683333333,0.617,1,15707.767
13,FALSE,774,0.725,43,,,"(1148, 879)",,1,39,0.65,"640.0, 512.0",vertical,"(390.0, 262.0)",0.883333333,0.607,1,15711.919
13,FALSE,775,0.669,40,,,"(1125, 892)",,1,41,0.683333333,"640.0, 512.0",horizontal,"(890.0, 262.0)",0.683333333,0.641,1,15716.219
13,FALSE,776,0.683,40,,,"(1196, 874)",,1,35,0.583333333,"640.0, 512.0",vertical,"(890.0, 262.0)",0.8,0.541,1,15721.015
13,FALSE,777,1.005,60,,,"(1154, 869)",,1,35,0.583333333,"640.0, 512.0",vertical,"(890.0, 262.0)",0.833333333,0.543,1,15725.056
