block,trial,trial_type,taps_start_loc_during_fix,taps_end_loc_during_fix,taps_on_lever_during_fix,taps_on_lever_s_during_fix,bar_orientation,target_xy,cti,rt,acc,time,pulses,fa_rate_recent100,actual_invalid_type
0,1,catch,"[(1146, 878)]",[],[1],[],horizontal,"(390.0, 262.0)",1.7,nan,1,0.418,1,0.0,same
0,2,valid,"[(1083, 862)]",[],[1],[0.85],horizontal,"(390.0, 762.0)",1.0,nan,0,56.202,0,0.0,same
0,3,valid,"[(1038, 826)]",[],[1],[],vertical,"(390.0, 762.0)",,"('cti', 0.134)",0,87.07,0,0.0,same
0,4,catch,"[(1021, 839)]",[],[1],[],vertical,"(890.0, 262.0)",,"('fix', 0.188),nan",0,97.159,0,0.25,same
0,5,valid,"[(1010, 925)]",[],[1],[],vertical,"(390.0, 762.0)",,"('fix', 0.418)",0,99.566,0,0.2,same
0,6,valid,"[(1143, 836)]",[],[1],[],horizontal,"(890.0, 762.0)",,"('fix', 0.369)",0,124.326,0,0.16666666666666666,same
0,7,valid,"[(1063, 856)]",[],[1],[],vertical,"(390.0, 262.0)",,"('fix', 0.217)",0,126.275,0,0.14285714285714285,same
0,8,valid,"[(1091, 826)]",[],[1],[],horizontal,"(890.0, 762.0)",,"('cti', 0.033)",0,130.299,0,0.125,same
0,9,catch,"[(1077, 793)]",[],[1],[],vertical,"(390.0, 762.0)",1.7,nan,1,134.539,1,0.1111111111111111,same
0,10,valid,"[(1134, 837)]",[],[1],[0.6333333333333333],horizontal,"(390.0, 762.0)",1.05,0.61,1,139.799,1,0.1,same
0,11,catch,"[(1127, 835)]",[],[1],[],horizontal,"(390.0, 262.0)",1.7,nan,1,144.669,1,0.09090909090909091,same
0,12,invalid_adjacent_other_bar,"[(1152, 825)]",[],[1],[0.75],horizontal,"(390.0, 262.0)",0.8833333333333333,0.71,1,150.172,2,0.08333333333333333,other
0,13,valid,"[(1158, 821)]",[],[1],[0.18333333333333332],horizontal,"(390.0, 262.0)",1.4666666666666666,0.15,0,156.314,0,0.07692307692307693,same
0,14,valid,"[(1119, 794)]",[],[1],[0.85],horizontal,"(890.0, 762.0)",0.3833333333333333,nan,0,161.1,0,0.07142857142857142,same
0,15,valid,"[(1115, 782)]",[],[1],[0.85],horizontal,"(890.0, 762.0)",0.5166666666666666,nan,0,165.65,0,0.06666666666666667,same
0,16,valid,"[(1150, 784)]",[],[1],[0.48333333333333334],vertical,"(390.0, 262.0)",1.2333333333333334,0.456,1,170.049,1,0.0625,same
0,17,valid,"[(1136, 843)]",[],[1],[0.6666666666666666],vertical,"(390.0, 762.0)",0.48333333333333334,0.64,1,175.563,1,0.058823529411764705,same
0,18,valid,"[(1111, 802)]",[],[1],[],horizontal,"(390.0, 262.0)",,"('fix', 0.086)",0,180.368,0,0.05555555555555555,same
0,19,catch,"[(1114, 818)]",[],[1],[],horizontal,"(390.0, 762.0)",,"('cti', 0.627),nan",0,184.271,0,0.10526315789473684,same
0,20,valid,"[(1132, 821)]",[],[1],[0.85],horizontal,"(890.0, 262.0)",0.65,nan,0,1081.317,0,0.1,same
0,21,catch,"[(1130, 812)]",[],[1],[],horizontal,"(890.0, 762.0)",1.7,nan,1,1085.784,1,0.09523809523809523,same
0,22,catch,"[(1156, 790)]",[],[1],[],horizontal,"(390.0, 762.0)",1.7,nan,1,1104.102,1,0.09090909090909091,same
0,23,valid,"[(1177, 800)]",[],[1],[0.5166666666666666],vertical,"(890.0, 262.0)",1.0833333333333333,0.477,1,1109.372,1,0.08695652173913043,same
0,24,valid,"[(1158, 779)]",[],[1],[0.5833333333333334],horizontal,"(890.0, 762.0)",0.7666666666666666,0.546,1,1114.717,2,0.08333333333333333,same
0,25,catch,"[(1159, 792)]",[],[1],[],vertical,"(390.0, 762.0)",1.7,nan,1,1119.658,2,0.08,same
0,26,valid,"[(1177, 793)]",[],[1],[0.48333333333333334],horizontal,"(390.0, 762.0)",1.5166666666666666,0.442,1,1125.25,2,0.07692307692307693,same
0,27,valid,"[(1178, 779)]",[],[1],[0.6],vertical,"(890.0, 262.0)",0.45,0.562,1,1130.79,3,0.07407407407407407,same
0,28,catch,"[(1170, 779)]",[],[1],[],horizontal,"(890.0, 262.0)",1.7,nan,1,1136.118,3,0.07142857142857142,same
0,29,invalid_same_bar,"[(1175, 783)]",[],[1],[0.5333333333333333],vertical,"(890.0, 262.0)",0.5666666666666667,0.495,1,1142.385,3,0.06896551724137931,same
0,30,valid,"[(1152, 791)]",[],[1],[0.5333333333333333],horizontal,"(890.0, 762.0)",0.4166666666666667,0.491,1,1147.595,3,0.06666666666666667,same
0,31,valid,"[(1170, 799)]",[],[1],[0.5166666666666666],horizontal,"(890.0, 762.0)",1.1333333333333333,0.477,1,1152.851,3,0.06451612903225806,same
0,32,valid,"[(1167, 782)]",[],[1],[0.5166666666666666],vertical,"(390.0, 262.0)",0.75,0.48,1,1158.868,3,0.0625,same
0,33,valid,"[(1159, 787)]",[],[1],[0.5666666666666667],horizontal,"(890.0, 762.0)",1.5,0.524,1,1163.918,3,0.06060606060606061,same
0,34,catch,"[(1166, 785)]",[],[1],[],vertical,"(890.0, 262.0)",1.7,nan,1,1170.3,3,0.058823529411764705,same
0,35,catch,"[(1156, 781)]",[],[1],[],vertical,"(890.0, 762.0)",1.7,nan,1,1176.35,3,0.05714285714285714,same
0,36,catch,"[(1172, 781)]",[],[1],[],vertical,"(390.0, 262.0)",1.7,nan,1,1182.562,3,0.05555555555555555,same
0,37,catch,"[(1175, 783)]",[],[1],[],vertical,"(390.0, 262.0)",1.7,nan,1,1188.232,3,0.05405405405405406,same
0,38,valid,"[(1151, 785)]",[],[1],[0.85],vertical,"(890.0, 762.0)",0.9666666666666667,nan,0,1193.952,0,0.05263157894736842,same
0,39,catch,"[(1131, 820)]",[],[1],[],vertical,"(890.0, 262.0)",1.7,nan,1,1198.518,1,0.05128205128205128,same
0,40,valid,"[(1157, 788)]",[],[1],[0.48333333333333334],horizontal,"(890.0, 262.0)",0.4666666666666667,0.445,1,1203.816,1,0.05,same
0,41,catch,"[(1185, 783)]",[],[1],[],vertical,"(390.0, 762.0)",1.7,nan,1,1208.317,1,0.04878048780487805,same
0,42,catch,"[(1161, 786)]",[],[1],[],horizontal,"(890.0, 762.0)",1.7,nan,1,1213.437,2,0.047619047619047616,same
0,43,catch,"[(1189, 772)]",[],[1],[],horizontal,"(890.0, 762.0)",1.7,nan,1,1219.049,2,0.046511627906976744,same
0,44,catch,"[(1174, 786)]",[],[1],[],vertical,"(890.0, 762.0)",1.7,nan,1,1224.436,2,0.045454545454545456,same
0,45,valid,"[(1175, 804)]",[],[1],[0.5333333333333333],horizontal,"(390.0, 262.0)",0.5666666666666667,0.492,1,1230.077,3,0.044444444444444446,same
0,46,catch,"[(1170, 787)]",[],[1],[],horizontal,"(890.0, 262.0)",1.7,nan,1,1235.783,3,0.043478260869565216,same
0,47,valid,"[(1190, 798)]","[(1173, 816)]",[1],[0.06666666666666667],vertical,"(890.0, 762.0)",,"('bar', 0.085)",0,1241.634,0,0.0425531914893617,same
0,48,catch,"[(1146, 811)]",[],[1],[],vertical,"(390.0, 762.0)",1.7,nan,1,1243.917,1,0.041666666666666664,same
0,49,valid,"[(1175, 821)]",[],[1],[0.85],vertical,"(390.0, 262.0)",0.8,nan,0,1248.935,0,0.04081632653061224,same
0,50,valid,"[(1127, 809)]",[],[1],[0.5333333333333333],horizontal,"(890.0, 262.0)",1.1,0.498,1,1253.652,1,0.04,same
0,51,catch,"[(1188, 800)]",[],[1],[],vertical,"(390.0, 762.0)",1.7,nan,1,1258.879,1,0.04,same
0,52,valid,"[(1173, 785)]",[],[1],[0.5333333333333333],horizontal,"(890.0, 262.0)",0.9833333333333333,0.5,1,1263.983,1,0.04,same
0,53,valid,"[(1170, 766)]",[],[1],[0.4],horizontal,"(890.0, 262.0)",1.1666666666666667,0.363,1,1269.201,2,0.04,same
0,54,invalid_same_bar,"[(1171, 790)]",[],[1],[0.55],vertical,"(890.0, 262.0)",0.45,0.506,1,1274.526,2,0.02,same
0,55,catch,"[(1155, 792)]",[],[1],[],horizontal,"(390.0, 762.0)",1.7,nan,1,1279.316,2,0.02,same
0,56,catch,"[(1165, 799)]",[],[1],[],horizontal,"(890.0, 262.0)",1.7,nan,1,1284.818,3,0.02,same
0,57,catch,"[(1170, 802)]",[],[1],[],vertical,"(390.0, 762.0)",1.7,nan,1,1290.828,3,0.02,same
0,58,valid,"[(1160, 775)]",[],[1],[0.5833333333333334],vertical,"(890.0, 762.0)",0.35,0.543,1,1296.668,3,0.02,same
0,59,invalid_same_bar,"[(1160, 798)]",[],[1],[0.5166666666666666],horizontal,"(890.0, 262.0)",1.4666666666666666,0.478,1,1301.559,3,0.02,same
0,60,valid,"[(1159, 770)]",[],[1],[0.5333333333333333],vertical,"(890.0, 762.0)",0.9,0.495,1,1307.535,3,0.02,same
0,61,valid,"[(1162, 788)]",[],[1],[0.6166666666666667],horizontal,"(890.0, 762.0)",0.5,0.579,1,1313.105,3,0.02,same
0,62,valid,"[(1157, 775)]",[],[1],[0.5333333333333333],horizontal,"(890.0, 762.0)",0.7666666666666666,0.498,1,1318.571,3,0.02,same
0,63,invalid_adjacent_other_bar,"[(1164, 773)]",[],[1],[0.85],vertical,"(390.0, 762.0)",0.7833333333333333,nan,0,1323.902,0,0.02,other
0,64,invalid_adjacent_other_bar,"[(1155, 786)]",[],[1],[0.5833333333333334],horizontal,"(390.0, 762.0)",0.7833333333333333,0.543,1,1328.556,1,0.02,other
0,65,invalid_adjacent_other_bar,"[(1170, 792)]",[],[1],[0.6333333333333333],vertical,"(890.0, 262.0)",0.7333333333333333,0.596,1,1333.652,1,0.02,other
0,66,invalid_same_bar,"[(1174, 791)]",[],[1],[0.65],horizontal,"(890.0, 262.0)",1.1166666666666667,0.609,1,1338.547,1,0.02,same
0,67,valid,"[(1165, 786)]",[],[1],[0.5],vertical,"(390.0, 762.0)",1.2,0.461,1,1343.577,2,0.02,same
0,68,valid,"[(1175, 787)]",[],[1],[0.3833333333333333],horizontal,"(890.0, 762.0)",1.3666666666666667,0.345,1,1349.015,2,0.02,same
0,69,valid,"[(1159, 786)]",[],[1],[0.6166666666666667],horizontal,"(890.0, 262.0)",0.6666666666666666,0.575,1,1354.452,2,0.0,same
0,70,invalid_same_bar,"[(1165, 783)]",[],[1],[0.85],horizontal,"(890.0, 762.0)",0.7,nan,0,1359.951,0,0.0,same
0,71,valid,"[(1157, 765)]",[],[1],[0.6666666666666666],horizontal,"(890.0, 262.0)",1.2166666666666666,0.622,1,1364.702,1,0.0,same
0,72,catch,"[(1186, 782)]",[],[1],[],vertical,"(890.0, 762.0)",1.7,nan,1,1369.93,1,0.0,same
0,73,valid,"[(1178, 782)]",[],[1],[0.5166666666666666],horizontal,"(390.0, 262.0)",0.7666666666666666,0.476,1,1375.101,1,0.0,same
0,74,invalid_same_bar,"[(1172, 783)]",[],[1],[0.4666666666666667],horizontal,"(890.0, 262.0)",1.45,0.429,1,1380.051,2,0.0,same
0,75,catch,"[(1168, 776)]",[],[1],[],vertical,"(390.0, 762.0)",1.7,nan,1,1385.678,2,0.0,same
0,76,catch,"[(1166, 786)]",[],[1],[],vertical,"(390.0, 762.0)",1.7,nan,1,1390.86,2,0.0,same
0,77,valid,"[(1171, 788)]",[],[1],[0.5833333333333334],vertical,"(890.0, 262.0)",1.0,0.549,1,1396.468,3,0.0,same
0,78,valid,"[(1170, 789)]",[],[1],[0.5166666666666666],horizontal,"(890.0, 262.0)",0.6666666666666666,0.479,1,1402.519,3,0.0,same
0,79,valid,"[(1164, 794)]",[],[1],[0.6],horizontal,"(890.0, 262.0)",0.36666666666666664,0.562,1,1408.029,3,0.0,same
0,80,valid,"[(1165, 791)]",[],[1],[0.48333333333333334],vertical,"(890.0, 262.0)",0.7666666666666666,0.446,1,1413.768,3,0.0,same
0,81,valid,"[(1158, 787)]",[],[1],[0.5333333333333333],horizontal,"(390.0, 262.0)",0.8,0.494,1,1419.119,3,0.0,same
0,82,valid,"[(1175, 785)]",[],[1],[0.5666666666666667],horizontal,"(390.0, 762.0)",1.35,0.525,1,1424.701,3,0.0,same
0,83,valid,"[(1159, 777)]",[],[1],[0.6333333333333333],vertical,"(390.0, 262.0)",0.95,0.598,1,1430.952,3,0.0,same
0,84,valid,"[(1170, 793)]",[],[1],[0.6166666666666667],horizontal,"(390.0, 262.0)",1.5166666666666666,0.578,1,1436.603,3,0.0,same
0,85,invalid_adjacent_other_bar,"[(1172, 797)]",[],[1],[0.6666666666666666],horizontal,"(390.0, 762.0)",0.7666666666666666,0.624,1,1442.868,3,0.0,other
0,86,valid,"[(1166, 779)]",[],[1],[0.85],vertical,"(890.0, 762.0)",1.0166666666666666,nan,0,1448.569,0,0.0,same
0,87,catch,"[(1160, 785)]",[],[1],[],horizontal,"(890.0, 762.0)",1.7,nan,1,1453.559,1,0.0,same
0,88,valid,"[(1172, 784)]",[],[1],[0.5166666666666666],horizontal,"(390.0, 762.0)",1.0333333333333332,0.479,1,1459.118,1,0.0,same
0,89,valid,"[(1166, 780)]",[],[1],[0.5833333333333334],horizontal,"(890.0, 762.0)",1.1166666666666667,0.549,1,1464.269,1,0.0,same
0,90,catch,"[(1174, 769)]",[],[1],[],vertical,"(890.0, 762.0)",1.7,nan,1,1469.184,2,0.0,same
0,91,valid,"[(1186, 782)]","[(1165, 827)]",[1],[0.0],horizontal,"(390.0, 762.0)",,"('bar', 0.017)",0,1474.658,0,0.0,same
0,92,valid,"[(1148, 789)]",[],[1],[0.45],vertical,"(390.0, 762.0)",0.9333333333333333,0.414,1,1476.951,1,0.0,same
0,93,invalid_same_bar,"[(1171, 781)]",[],[1],[0.43333333333333335],horizontal,"(390.0, 762.0)",1.1833333333333333,0.393,1,1482.202,1,0.0,same
0,94,invalid_adjacent_other_bar,"[(1167, 775)]",[],[1],[0.55],vertical,"(890.0, 762.0)",1.0166666666666666,0.511,1,1487.451,1,0.0,other
0,95,valid,"[(1168, 802)]",[],[1],[0.6666666666666666],vertical,"(890.0, 262.0)",0.8333333333333334,0.629,1,1492.468,2,0.0,same
0,96,catch,"[(1174, 792)]",[],[1],[],horizontal,"(890.0, 262.0)",1.7,nan,1,1497.831,2,0.0,same
0,97,catch,"[(1170, 804)]",[],[1],[],vertical,"(390.0, 762.0)",1.7,nan,1,1503.226,2,0.0,same
0,98,valid,"[(1160, 790)]",[],[1],[0.36666666666666664],vertical,"(390.0, 762.0)",1.5,0.331,1,1509.236,3,0.0,same
0,99,catch,"[(1170, 782)]",[],[1],[],vertical,"(890.0, 262.0)",1.7,nan,1,1515.528,3,0.0,same
0,100,valid,"[(1169, 783)]",[],[1],[0.5166666666666666],vertical,"(890.0, 762.0)",0.6,0.481,1,1521.453,3,0.0,same
0,101,valid,"[(1163, 773)]",[],[1],[0.5],vertical,"(390.0, 762.0)",0.95,0.458,1,1526.928,3,0.0,same
0,102,valid,"[(1156, 792)]",[],[1],[0.5833333333333334],vertical,"(890.0, 762.0)",1.1,0.546,1,1532.665,3,0.0,same
0,103,catch,"[(1175, 800)]",[],[1],[],vertical,"(390.0, 262.0)",1.7,nan,1,1538.493,3,0.0,same
0,104,catch,"[(1166, 797)]","[(1165, 822)]",[1],[0.2],vertical,"(890.0, 262.0)",,"('bar', 0.214),nan",0,1544.686,0,0.02,same
0,105,valid,"[(1160, 797)]",[],[1],[0.5166666666666666],horizontal,"(390.0, 762.0)",1.3166666666666667,0.474,1,1546.968,1,0.02,same
0,106,invalid_same_bar,"[(1183, 766)]",[],[1],[0.6833333333333333],horizontal,"(390.0, 762.0)",0.6666666666666666,0.651,1,1552.603,1,0.02,same
0,107,valid,"[(1160, 781)]",[],[1],[0.6333333333333333],vertical,"(390.0, 762.0)",0.5,0.597,1,1557.202,1,0.02,same
0,108,catch,"[(1170, 784)]",[],[1],[],vertical,"(890.0, 762.0)",1.7,nan,1,1561.835,2,0.02,same
0,109,valid,"[(1189, 781)]",[],[1],[0.55],vertical,"(890.0, 262.0)",1.0833333333333333,0.511,1,1567.735,2,0.02,same
0,110,catch,"[(1167, 774)]",[],[1],[],horizontal,"(890.0, 262.0)",1.7,nan,1,1573.27,2,0.02,same
0,111,valid,"[(1170, 796)]",[],[1],[0.48333333333333334],vertical,"(390.0, 262.0)",0.75,0.444,1,1578.792,3,0.02,same
0,112,valid,"[(1173, 792)]",[],[1],[0.6],vertical,"(390.0, 762.0)",1.05,0.558,1,1584.452,3,0.02,same
0,113,catch,"[(1172, 782)]",[],[1],[],horizontal,"(890.0, 762.0)",1.7,nan,1,1590.502,3,0.02,same
0,114,valid,"[(1166, 782)]",[],[1],[0.4666666666666667],vertical,"(890.0, 262.0)",1.5166666666666666,0.43,1,1596.631,3,0.02,same
0,115,valid,"[(1170, 786)]",[],[1],[0.55],vertical,"(890.0, 762.0)",1.4666666666666666,0.514,1,1602.427,3,0.02,same
0,116,valid,"[(1165, 784)]",[],[1],[0.5666666666666667],horizontal,"(890.0, 262.0)",1.2,0.526,1,1608.896,3,0.02,same
0,117,valid,"[(1171, 792)]",[],[1],[0.55],horizontal,"(890.0, 262.0)",0.8666666666666667,0.509,1,1614.821,3,0.02,same
0,118,valid,"[(1170, 802)]",[],[1],[0.4],horizontal,"(890.0, 262.0)",1.4166666666666667,0.363,1,1620.834,3,0.02,same
0,119,catch,"[(1165, 781)]",[],[1],[],vertical,"(890.0, 762.0)",1.7,nan,1,1626.836,3,0.02,same
0,120,valid,"[(1170, 793)]",[],[1],[0.85],horizontal,"(890.0, 262.0)",0.45,nan,0,1632.381,0,0.02,same
0,121,valid,"[(1154, 832)]",[],[1],[0.6],vertical,"(390.0, 762.0)",0.75,0.568,1,1636.362,1,0.02,same
0,122,valid,"[(1157, 803)]",[],[1],[0.7166666666666667],horizontal,"(890.0, 262.0)",0.8166666666666667,0.675,1,1875.671,1,0.02,same
0,123,valid,"[(1131, 838)]",[],[1],[0.6333333333333333],horizontal,"(890.0, 762.0)",0.95,0.591,1,1880.995,1,0.02,same
0,124,valid,"[(1161, 821)]",[],[1],[0.5833333333333334],vertical,"(890.0, 262.0)",1.35,0.541,1,1888.264,2,0.02,same
0,125,valid,"[(1191, 797)]",[],[1],[0.85],vertical,"(390.0, 762.0)",1.1166666666666667,nan,0,1894.32,0,0.02,same
0,126,invalid_same_bar,"[(1143, 770)]",[],[1],[0.6666666666666666],vertical,"(390.0, 262.0)",0.7166666666666667,0.622,1,1898.841,1,0.02,same
0,127,valid,"[(1174, 775)]",[],[1],[0.6333333333333333],horizontal,"(390.0, 262.0)",1.35,0.586,1,1904.155,1,0.02,same
0,128,valid,"[(1166, 783)]",[],[1],[0.85],horizontal,"(390.0, 762.0)",0.6166666666666667,nan,0,1909.238,0,0.02,same
0,129,valid,"[(1114, 821)]",[],[1],[0.6833333333333333],horizontal,"(890.0, 762.0)",1.0333333333333332,0.641,1,1913.856,1,0.02,same
0,130,invalid_adjacent_other_bar,"[(1180, 793)]",[],[1],[0.85],horizontal,"(890.0, 262.0)",1.5166666666666666,nan,0,1951.087,0,0.02,other
0,131,valid,"[(1160, 797)]",[],[1],[0.7166666666666667],horizontal,"(390.0, 762.0)",1.15,0.678,1,1956.686,1,0.02,same
0,132,valid,"[(1166, 794)]",[],[1],[0.85],horizontal,"(390.0, 262.0)",0.6166666666666667,nan,0,1962.083,0,0.02,same
0,133,invalid_adjacent_other_bar,"[(1167, 795)]",[],[1],[0.5166666666666666],vertical,"(890.0, 262.0)",0.8833333333333333,0.471,1,1966.026,1,0.02,other
0,134,valid,"[(1179, 795)]",[],[1],[0.5833333333333334],vertical,"(890.0, 762.0)",1.0666666666666667,0.54,1,1970.62,1,0.02,same
0,135,valid,"[(1200, 813)]","[(1171, 844)]",[1],[0.05],vertical,"(890.0, 762.0)",,"('bar', 0.067)",0,1975.953,0,0.02,same
0,136,invalid_same_bar,"[(1134, 818)]",[],[1],[0.5833333333333334],horizontal,"(390.0, 762.0)",1.4666666666666666,0.538,1,1978.27,1,0.02,same
0,137,valid,"[(1201, 782)]",[],[1],[0.5333333333333333],horizontal,"(390.0, 762.0)",0.5,0.497,1,1983.774,1,0.02,same
0,138,catch,"[(1203, 786)]",[],[1],[],vertical,"(390.0, 262.0)",1.7,nan,1,1988.77,1,0.02,same
0,139,invalid_same_bar,"[(1186, 777)]",[],[1],[0.6],horizontal,"(890.0, 762.0)",1.1,0.562,1,1993.889,2,0.02,same
0,140,valid,"[(1171, 795)]",[],[1],[0.55],horizontal,"(890.0, 762.0)",1.3333333333333333,0.51,1,1999.287,2,0.02,same
0,141,catch,"[(1181, 782)]",[],[1],[],horizontal,"(390.0, 762.0)",1.7,nan,1,2004.715,2,0.02,same
0,142,catch,"[(1188, 795)]",[],[1],[],horizontal,"(390.0, 262.0)",1.7,nan,1,2010.254,3,0.02,same
0,143,valid,"[(1175, 782)]",[],[1],[0.5666666666666667],vertical,"(890.0, 762.0)",1.35,0.524,1,2016.21,3,0.02,same
0,144,catch,"[(1170, 779)]",[],[1],[],vertical,"(390.0, 262.0)",1.7,nan,1,2022.047,3,0.02,same
0,145,valid,"[(1167, 762)]",[],[1],[0.48333333333333334],vertical,"(890.0, 262.0)",0.9166666666666666,0.441,1,2028.003,3,0.02,same
0,146,catch,"[(1175, 788)]",[],[1],[],vertical,"(390.0, 762.0)",,"('cti', 1.628),nan",0,2033.886,0,0.04,same
0,147,valid,"[(1157, 768)]",[],[1],[0.5],horizontal,"(390.0, 262.0)",1.1666666666666667,0.461,1,2038.052,1,0.04,same
0,148,valid,"[(1164, 772)]",[],[1],[0.5],vertical,"(890.0, 762.0)",0.8666666666666667,0.459,1,2043.368,1,0.04,same
0,149,valid,"[(1172, 769)]",[],[1],[0.5333333333333333],horizontal,"(890.0, 262.0)",1.5333333333333332,0.494,1,2048.403,1,0.04,same
0,150,catch,"[(1174, 773)]",[],[1],[],vertical,"(390.0, 762.0)",1.7,nan,1,2053.687,2,0.04,same
0,151,valid,"[(1203, 803)]",[],[1],[0.5166666666666666],vertical,"(390.0, 762.0)",0.9166666666666666,0.479,1,2059.321,2,0.04,same
0,152,valid,"[(1172, 768)]",[],[1],[0.55],vertical,"(390.0, 262.0)",1.2333333333333334,0.509,1,2064.221,2,0.04,same
0,153,valid,"[(1181, 796)]",[],[1],[0.2833333333333333],horizontal,"(890.0, 262.0)",1.3833333333333333,0.244,1,2069.832,3,0.04,same
0,154,invalid_adjacent_other_bar,"[(1170, 774)]",[],[1],[0.5833333333333334],horizontal,"(390.0, 762.0)",0.5333333333333333,0.542,1,2076.297,3,0.02,other
0,155,valid,"[(1195, 799)]",[],[1],[0.5166666666666666],vertical,"(390.0, 262.0)",0.5333333333333333,0.478,1,2081.887,3,0.02,same
0,156,valid,"[(1175, 773)]",[],[1],[0.6166666666666667],vertical,"(890.0, 262.0)",0.9333333333333333,0.57,1,2086.955,3,0.02,same
0,157,catch,"[(1182, 785)]",[],[1],[],horizontal,"(390.0, 262.0)",1.7,nan,1,2092.823,3,0.02,same
0,158,valid,"[(1175, 787)]",[],[1],[0.5],horizontal,"(890.0, 762.0)",0.5666666666666667,0.456,1,2098.969,3,0.02,same
0,159,valid,"[(1170, 787)]",[],[1],[0.48333333333333334],vertical,"(890.0, 262.0)",1.2166666666666666,0.441,1,2104.255,3,0.02,same
0,160,valid,"[(1170, 792)]",[],[1],[0.45],horizontal,"(390.0, 762.0)",1.45,0.414,1,2109.755,3,0.02,same
0,161,catch,"[(1170, 767)]",[],[1],[],horizontal,"(390.0, 762.0)",1.7,nan,1,2115.97,3,0.02,same
0,162,valid,"[(1175, 787)]",[],[1],[0.55],vertical,"(390.0, 762.0)",1.3333333333333333,0.504,1,2121.771,3,0.02,same
0,163,invalid_same_bar,"[(1175, 778)]",[],[1],[0.85],horizontal,"(390.0, 262.0)",0.6166666666666667,nan,0,2127.638,0,0.02,same
0,164,catch,"[(1160, 788)]",[],[1],[],horizontal,"(890.0, 762.0)",1.7,nan,1,2132.039,1,0.02,same
0,165,valid,"[(1179, 780)]",[],[1],[0.5833333333333334],vertical,"(390.0, 762.0)",0.65,0.548,1,2137.405,1,0.02,same
0,166,valid,"[(1173, 777)]",[],[1],[0.4666666666666667],horizontal,"(890.0, 262.0)",1.2833333333333332,0.427,1,2141.997,1,0.02,same
0,167,valid,"[(1177, 793)]",[],[1],[0.5833333333333334],horizontal,"(890.0, 262.0)",1.2,0.545,1,2147.343,2,0.02,same
0,168,valid,"[(1175, 792)]",[],[1],[0.85],vertical,"(890.0, 762.0)",0.9166666666666666,nan,0,2152.963,0,0.02,same
0,169,catch,"[(1158, 789)]",[],[1],[],vertical,"(390.0, 762.0)",1.7,nan,1,2157.865,1,0.02,same
0,170,valid,"[(1200, 788)]",[],[1],[0.5],vertical,"(390.0, 262.0)",1.1,0.465,1,2162.989,1,0.02,same
0,171,catch,"[(1175, 793)]",[],[1],[],vertical,"(390.0, 262.0)",1.7,nan,1,2168.328,1,0.02,same
0,172,catch,"[(1160, 761)]",[],[1],[],vertical,"(890.0, 762.0)",1.7,nan,1,2173.678,2,0.02,same
0,173,valid,"[(1174, 772)]",[],[1],[0.75],vertical,"(390.0, 762.0)",1.1833333333333333,0.699,1,2179.155,2,0.02,same
0,174,invalid_same_bar,"[(1177, 787)]",[],[1],[],vertical,"(890.0, 762.0)",,"('fix', 0.72)",0,2184.637,0,0.02,same
0,175,catch,"[(1160, 796)]",[],[1],[],horizontal,"(890.0, 262.0)",1.7,nan,1,2187.005,1,0.02,same
0,176,valid,"[(1175, 789)]",[],[1],[0.6166666666666667],vertical,"(390.0, 262.0)",0.6833333333333333,0.574,1,2192.738,1,0.02,same
0,177,valid,"[(1175, 779)]",[],[1],[0.6166666666666667],horizontal,"(390.0, 762.0)",0.6,0.569,1,2197.787,1,0.02,same
0,178,valid,"[(1167, 774)]",[],[1],[0.85],horizontal,"(890.0, 762.0)",1.0,nan,0,2202.887,0,0.02,same
0,179,valid,"[(1170, 784)]",[],[1],[0.65],horizontal,"(890.0, 262.0)",1.0666666666666667,0.614,1,2207.988,1,0.02,same
0,180,valid,"[(1176, 782)]",[],[1],[0.4666666666666667],horizontal,"(890.0, 262.0)",0.6833333333333333,0.428,1,2213.41,1,0.02,same
0,181,valid,"[(1190, 797)]","[(1170, 845)]",[1],[0.26666666666666666],horizontal,"(890.0, 762.0)",,"('bar', 0.28)",0,2217.855,0,0.02,same
0,182,catch,"[(1157, 787)]",[],[1],[],horizontal,"(390.0, 262.0)",1.7,nan,1,2220.488,1,0.02,same
0,183,valid,"[(1170, 785)]",[],[1],[0.5],vertical,"(890.0, 262.0)",0.9666666666666667,0.463,1,2225.749,1,0.02,same
0,184,valid,"[(1169, 773)]",[],[1],[0.5],vertical,"(390.0, 762.0)",1.2666666666666666,0.465,1,2230.772,1,0.02,same
0,185,valid,"[(1191, 797)]",[],[1],[0.6166666666666667],vertical,"(390.0, 762.0)",1.1,0.577,1,2236.036,2,0.02,same
0,186,valid,"[(1177, 780)]",[],[1],[0.7333333333333333],horizontal,"(390.0, 762.0)",0.4,0.681,1,2242.187,2,0.02,same
0,187,invalid_same_bar,"[(1152, 804)]",[],[1],[0.55],horizontal,"(890.0, 762.0)",1.5333333333333332,0.505,1,2247.171,2,0.02,same
0,188,invalid_adjacent_other_bar,"[(1167, 777)]",[],[1],[0.6666666666666666],vertical,"(390.0, 262.0)",1.0666666666666667,0.627,1,2252.919,3,0.02,other
0,189,valid,"[(1175, 770)]",[],[1],[0.5666666666666667],vertical,"(890.0, 762.0)",0.5833333333333334,0.523,1,2258.821,3,0.02,same
0,190,catch,"[(1170, 793)]",[],[1],[],vertical,"(890.0, 762.0)",1.7,nan,1,2263.854,3,0.02,same
0,191,valid,"[(1168, 808)]",[],[1],[0.7],horizontal,"(890.0, 262.0)",1.0833333333333333,0.653,1,2269.672,3,0.02,same
0,192,valid,"[(1159, 788)]",[],[1],[0.5666666666666667],horizontal,"(390.0, 762.0)",1.35,0.522,1,2275.737,3,0.02,same
0,193,catch,"[(1170, 787)]",[],[1],[],vertical,"(890.0, 762.0)",1.7,nan,1,2281.746,3,0.02,same
0,194,valid,"[(1172, 778)]",[],[1],[0.55],vertical,"(390.0, 262.0)",0.5333333333333333,0.507,1,2287.82,3,0.02,same
0,195,valid,"[(1165, 783)]",[],[1],[0.45],horizontal,"(890.0, 262.0)",1.3833333333333333,0.409,1,2292.971,3,0.02,same
0,196,valid,"[(1171, 793)]",[],[1],[0.6333333333333333],vertical,"(890.0, 762.0)",0.6166666666666667,0.588,1,2299.471,3,0.0,same
0,197,catch,"[(1160, 807)]",[],[1],[],horizontal,"(890.0, 762.0)",1.7,nan,1,2304.988,3,0.0,same
0,198,valid,"[(1131, 815)]",[],[1],[0.65],vertical,"(390.0, 262.0)",0.65,0.61,1,2311.07,3,0.0,same
0,199,catch,"[(1160, 796)]",[],[1],[],horizontal,"(390.0, 262.0)",1.7,nan,1,2345.104,3,0.0,same
0,200,valid,"[(1172, 783)]",[],[1],[0.5833333333333334],vertical,"(890.0, 762.0)",0.48333333333333334,0.546,1,2350.8,3,0.0,same
0,201,invalid_adjacent_other_bar,"[(1155, 804)]",[],[1],[0.85],vertical,"(390.0, 762.0)",0.5166666666666666,nan,0,2355.62,0,0.0,other
0,202,valid,"[(1175, 795)]",[],[1],[0.4666666666666667],horizontal,"(890.0, 262.0)",0.8666666666666667,0.426,1,2360.113,1,0.0,same
0,203,valid,"[(1175, 790)]","[(1165, 821)]",[1],[0.18333333333333332],horizontal,"(890.0, 262.0)",,"('bar', 0.196)",0,2365.182,0,0.0,same
0,204,valid,"[(1157, 786)]",[],[1],[0.5],vertical,"(390.0, 262.0)",1.45,0.458,1,2367.489,1,0.0,same
0,205,valid,"[(1175, 792)]",[],[1],[0.55],horizontal,"(390.0, 262.0)",0.7166666666666667,0.502,1,2373.088,1,0.0,same
0,206,catch,"[(1198, 792)]",[],[1],[],horizontal,"(390.0, 762.0)",1.7,nan,1,2377.604,1,0.0,same
0,207,valid,"[(1175, 780)]",[],[1],[0.5],horizontal,"(390.0, 762.0)",0.35,0.454,1,2382.721,2,0.0,same
0,208,catch,"[(1175, 789)]",[],[1],[],horizontal,"(890.0, 762.0)",,"('cti', 1.629),nan",0,2387.688,0,0.02,same
0,209,valid,"[(1165, 787)]",[],[1],[0.3333333333333333],vertical,"(890.0, 762.0)",0.8833333333333333,0.291,1,2392.441,1,0.02,same
0,210,valid,"[(1174, 792)]",[],[1],[0.5166666666666666],vertical,"(890.0, 762.0)",1.3666666666666667,0.475,1,2396.972,1,0.02,same
0,211,valid,"[(1199, 789)]",[],[1],[0.5833333333333334],horizontal,"(890.0, 262.0)",1.1,0.537,1,2401.989,1,0.02,same
0,212,valid,"[(1190, 779)]","[(1172, 832)]",[1],[0.55],horizontal,"(390.0, 262.0)",,"('bar', 0.559)",0,2407.137,0,0.02,same
0,213,valid,"[(1159, 792)]",[],[1],[0.45],vertical,"(390.0, 762.0)",1.3166666666666667,0.414,1,2409.871,1,0.02,same
0,214,valid,"[(1170, 788)]","[(1145, 845)]",[1],[0.6],vertical,"(890.0, 262.0)",,"('bar', 0.608)",0,2415.362,0,0.02,same
0,215,catch,"[(1164, 764)]",[],[1],[],horizontal,"(390.0, 762.0)",1.7,nan,1,2418.061,1,0.02,same
0,216,valid,"[(1181, 786)]",[],[1],[0.5166666666666666],vertical,"(890.0, 762.0)",0.8,0.474,1,2423.515,1,0.02,same
0,217,valid,"[(1176, 780)]","[(1159, 813)]",[1],[0.15],vertical,"(390.0, 262.0)",,"('bar', 0.169)",0,2428.303,0,0.02,same
0,218,valid,"[(1146, 795)]",[],[1],[],vertical,"(890.0, 262.0)",,"('cti', 0.522)",0,2430.723,0,0.02,same
0,219,valid,"[(1175, 802)]",[],[1],[0.3],horizontal,"(390.0, 262.0)",1.2333333333333334,0.262,1,2434.406,1,0.02,same
0,220,catch,"[(1174, 782)]",[],[1],[],horizontal,"(890.0, 262.0)",1.7,nan,1,2439.613,1,0.02,same
0,221,catch,"[(1175, 790)]","[(1170, 809)]",[1],[0.13333333333333333],vertical,"(390.0, 762.0)",,"('bar', 0.15),nan",0,2444.867,0,0.04,same
0,222,invalid_same_bar,"[(1097, 783)]",[],[1],[0.65],horizontal,"(890.0, 762.0)",1.35,0.605,1,2447.027,1,0.04,same
0,223,catch,"[(1167, 775)]",[],[1],[],horizontal,"(890.0, 762.0)",1.7,nan,1,2452.889,1,0.04,same
0,224,catch,"[(1169, 782)]",[],[1],[],vertical,"(390.0, 762.0)",1.7,nan,1,2457.972,1,0.04,same
0,225,invalid_same_bar,"[(1177, 783)]","[(1164, 808)]",[1],[0.016666666666666666],vertical,"(390.0, 262.0)",,"('bar', 0.037)",0,2463.124,0,0.04,same
0,226,valid,"[(1131, 783)]",[],[1],[0.35],vertical,"(390.0, 762.0)",1.4333333333333333,0.314,1,2465.461,1,0.04,same
0,227,valid,"[(1200, 787)]",[],[1],[0.55],vertical,"(390.0, 762.0)",0.65,0.508,1,2471.199,1,0.04,same
0,228,valid,"[(1175, 782)]",[],[1],[0.7],horizontal,"(890.0, 262.0)",1.1333333333333333,0.651,1,2475.627,1,0.04,same
0,229,valid,"[(1180, 781)]",[],[1],[0.55],vertical,"(890.0, 762.0)",0.4666666666666667,0.51,1,2480.954,2,0.04,same
0,230,valid,"[(1170, 785)]",[],[1],[0.5666666666666667],horizontal,"(890.0, 762.0)",0.8333333333333334,0.529,1,2486.168,2,0.04,same
0,231,catch,"[(1176, 785)]",[],[1],[],vertical,"(890.0, 262.0)",1.7,nan,1,2491.231,2,0.04,same
0,232,valid,"[(1174, 789)]",[],[1],[0.55],vertical,"(390.0, 762.0)",1.1833333333333333,0.505,1,2496.52,3,0.04,same
0,233,valid,"[(1175, 787)]",[],[1],[0.5],vertical,"(890.0, 262.0)",0.85,0.461,1,2502.365,3,0.04,same
0,234,valid,"[(1175, 777)]",[],[1],[0.5333333333333333],horizontal,"(390.0, 262.0)",0.6833333333333333,0.494,1,2507.944,3,0.04,same
0,235,catch,"[(1171, 781)]",[],[1],[],vertical,"(890.0, 762.0)",1.7,nan,1,2513.317,3,0.04,same
0,236,valid,"[(1188, 792)]","[(1104, 854)]",[1],[0.48333333333333334],horizontal,"(890.0, 762.0)",,"('bar', 0.486)",0,2518.988,0,0.04,same
0,237,valid,"[(1154, 770)]",[],[1],[0.4166666666666667],vertical,"(890.0, 262.0)",1.3166666666666667,0.38,1,2521.721,1,0.04,same
0,238,invalid_same_bar,"[(1186, 787)]",[],[1],[0.65],horizontal,"(890.0, 762.0)",0.9333333333333333,0.604,1,2526.806,1,0.04,same
0,239,catch,"[(1170, 781)]",[],[1],[],horizontal,"(890.0, 262.0)",1.7,nan,1,2532.122,1,0.04,same
0,240,catch,"[(1166, 782)]",[],[1],[],vertical,"(890.0, 762.0)",1.7,nan,1,2537.49,2,0.04,same
0,241,catch,"[(1176, 793)]",[],[1],[],vertical,"(390.0, 762.0)",1.7,nan,1,2543.514,2,0.04,same
0,242,catch,"[(1167, 785)]",[],[1],[],horizontal,"(390.0, 262.0)",1.7,nan,1,2549.357,2,0.04,same
0,243,valid,"[(1167, 797)]",[],[1],[0.5166666666666666],vertical,"(890.0, 262.0)",1.0666666666666667,0.475,1,2555.222,3,0.04,same
0,244,valid,"[(1171, 770)]",[],[1],[0.4],vertical,"(390.0, 762.0)",1.5,0.359,1,2561.439,3,0.04,same
0,245,catch,"[(1170, 789)]",[],[1],[],horizontal,"(890.0, 762.0)",1.7,nan,1,2567.539,3,0.04,same
0,246,valid,"[(1172, 795)]",[],[1],[0.6166666666666667],vertical,"(890.0, 262.0)",0.65,0.572,1,2573.306,3,0.04,same
0,247,valid,"[(1169, 796)]",[],[1],[0.5833333333333334],vertical,"(890.0, 762.0)",0.9833333333333333,0.538,1,2578.984,3,0.04,same
0,248,valid,"[(1164, 785)]",[],[1],[0.5833333333333334],vertical,"(390.0, 762.0)",1.2166666666666666,0.54,1,2584.772,3,0.04,same
0,249,valid,"[(1173, 784)]",[],[1],[0.48333333333333334],vertical,"(890.0, 262.0)",0.6833333333333333,0.44,1,2590.561,3,0.04,same
0,250,valid,"[(1167, 787)]",[],[1],[0.6333333333333333],horizontal,"(890.0, 262.0)",0.6833333333333333,0.585,1,2595.912,3,0.04,same
0,251,invalid_adjacent_other_bar,"[(1170, 787)]","[(1095, 857)]",[1],[0.4],vertical,"(890.0, 262.0)",,"('bar', 0.417)",0,2601.257,0,0.04,other
0,252,valid,"[(1161, 781)]",[],[1],[0.6166666666666667],horizontal,"(890.0, 262.0)",1.25,0.572,1,2603.847,1,0.04,same
0,253,valid,"[(1171, 776)]",[],[1],[0.5],vertical,"(890.0, 262.0)",1.0833333333333333,0.458,1,2609.459,1,0.04,same
0,254,valid,"[(1200, 778)]",[],[1],[0.5666666666666667],vertical,"(890.0, 762.0)",0.8833333333333333,0.523,1,2614.888,1,0.04,same
0,255,valid,"[(1177, 787)]","[(1168, 814)]",[1],[0.2],vertical,"(890.0, 762.0)",,"('bar', 0.211)",0,2620.213,0,0.04,same
0,256,valid,"[(1161, 802)]",[],[1],[0.5166666666666666],vertical,"(390.0, 762.0)",0.85,0.473,1,2622.456,1,0.04,same
0,257,valid,"[(1170, 802)]",[],[1],[0.55],horizontal,"(390.0, 762.0)",0.8166666666666667,0.506,1,2627.715,1,0.04,same
0,258,valid,"[(1197, 794)]",[],[1],[0.5],vertical,"(890.0, 762.0)",1.5,0.462,1,2632.205,1,0.02,same
0,259,invalid_adjacent_other_bar,"[(1192, 784)]",[],[1],[0.6333333333333333],horizontal,"(390.0, 262.0)",1.3,0.596,1,2637.789,2,0.02,other
0,260,catch,"[(1205, 788)]",[],[1],[],vertical,"(390.0, 762.0)",,"('fix', 0.613),nan",0,2643.238,0,0.04,same
0,261,valid,"[(1149, 791)]",[],[1],[0.55],vertical,"(890.0, 762.0)",0.9166666666666666,0.506,1,2645.373,1,0.04,same
0,262,catch,"[(1177, 785)]",[],[1],[],vertical,"(890.0, 762.0)",1.7,nan,1,2650.222,1,0.04,same
0,263,catch,"[(1201, 783)]",[],[1],[],vertical,"(390.0, 262.0)",1.7,nan,1,2655.989,1,0.04,same
0,264,valid,"[(1204, 801)]",[],[1],[0.5],horizontal,"(890.0, 262.0)",1.0833333333333333,0.466,1,2661.264,2,0.04,same
0,265,invalid_adjacent_other_bar,"[(1174, 769)]",[],[1],[0.6666666666666666],vertical,"(390.0, 262.0)",1.4,0.618,1,2666.984,2,0.04,other
0,266,catch,"[(1205, 774)]",[],[1],[],horizontal,"(390.0, 762.0)",1.7,nan,1,2672.783,2,0.04,same
0,267,catch,"[(1201, 781)]",[],[1],[],vertical,"(390.0, 762.0)",1.7,nan,1,2678.607,3,0.04,same
0,268,invalid_adjacent_other_bar,"[(1180, 779)]",[],[1],[0.5166666666666666],vertical,"(890.0, 762.0)",1.05,0.475,1,2684.914,3,0.04,other
0,269,invalid_same_bar,"[(1170, 818)]",[],[1],[0.48333333333333334],horizontal,"(890.0, 762.0)",1.35,0.442,1,2690.666,3,0.04,same
0,270,invalid_adjacent_other_bar,"[(1200, 787)]",[],[1],[0.48333333333333334],horizontal,"(890.0, 262.0)",0.6166666666666667,0.442,1,3050.73,3,0.04,other
0,271,valid,"[(1203, 796)]",[],[1],[0.4666666666666667],vertical,"(890.0, 762.0)",1.55,0.423,1,3055.757,3,0.02,same
0,272,valid,"[(1184, 783)]",[],[1],[0.4666666666666667],vertical,"(890.0, 262.0)",0.8333333333333334,0.435,1,3061.958,3,0.02,same
0,273,valid,"[(1194, 788)]",[],[1],[0.5333333333333333],vertical,"(890.0, 762.0)",0.36666666666666664,0.492,1,3067.494,3,0.02,same
0,274,valid,"[(1174, 789)]",[],[1],[0.5333333333333333],horizontal,"(390.0, 262.0)",1.2666666666666666,0.493,1,3072.89,3,0.02,same
0,275,valid,"[(1160, 779)]",[],[1],[0.5166666666666666],vertical,"(890.0, 262.0)",0.5,0.478,1,3079.242,3,0.02,same
0,276,valid,"[(1200, 788)]",[],[1],[0.5],vertical,"(390.0, 762.0)",1.3,0.456,1,3084.325,3,0.02,same
0,277,valid,"[(1210, 816)]",[],[1],[0.55],vertical,"(390.0, 262.0)",0.75,0.511,1,3090.507,3,0.02,same
0,278,invalid_same_bar,"[(1190, 782)]",[],[1],[0.5666666666666667],horizontal,"(890.0, 762.0)",0.4,0.527,1,3095.709,3,0.02,same
0,279,catch,"[(1172, 782)]",[],[1],[],horizontal,"(390.0, 762.0)",1.7,nan,1,3101.375,3,0.02,same
0,280,valid,"[(1172, 791)]",[],[1],[0.6833333333333333],horizontal,"(890.0, 762.0)",0.6666666666666666,0.644,1,3107.262,3,0.02,same
0,281,valid,"[(1191, 787)]",[],[1],[0.5833333333333334],vertical,"(390.0, 262.0)",1.2166666666666666,0.54,1,3112.773,3,0.02,same
0,282,catch,"[(1156, 778)]",[],[1],[],vertical,"(390.0, 262.0)",1.7,nan,1,3119.057,3,0.02,same
0,283,valid,"[(1167, 783)]",[],[1],[0.5666666666666667],vertical,"(890.0, 762.0)",1.2666666666666666,0.528,1,3125.358,3,0.02,same
0,284,valid,"[(1168, 779)]",[],[1],[0.4166666666666667],vertical,"(890.0, 262.0)",1.2666666666666666,0.376,1,3131.419,3,0.02,same
0,285,invalid_adjacent_other_bar,"[(1175, 775)]",[],[1],[0.55],horizontal,"(390.0, 262.0)",0.3833333333333333,0.509,1,3137.475,3,0.02,other
0,286,invalid_adjacent_other_bar,"[(1166, 781)]",[],[1],[0.85],vertical,"(390.0, 762.0)",0.48333333333333334,nan,0,3142.919,0,0.02,other
0,287,valid,"[(1157, 787)]",[],[1],[0.5166666666666666],vertical,"(390.0, 262.0)",0.5166666666666666,0.476,1,3147.39,1,0.02,same
0,288,catch,"[(1188, 788)]","[(1143, 813)]",[1],[0.0],vertical,"(390.0, 762.0)",,"('bar', 0.018),nan",0,3152.274,0,0.04,same
0,289,catch,"[(1133, 788)]",[],[1],[],vertical,"(390.0, 762.0)",,"('cti', 1.489),nan",0,3154.391,0,0.06,same
0,290,invalid_same_bar,"[(1171, 786)]",[],[1],[0.55],vertical,"(890.0, 262.0)",1.1666666666666667,0.509,1,3158.967,1,0.06,same
0,291,invalid_adjacent_other_bar,"[(1206, 787)]",[],[1],[0.55],horizontal,"(890.0, 762.0)",0.6,0.51,1,3164.04,1,0.06,other
0,292,valid,"[(1175, 799)]",[],[1],[0.5166666666666666],horizontal,"(890.0, 762.0)",1.3166666666666667,0.478,1,3168.957,1,0.06,same
0,293,valid,"[(1171, 786)]",[],[1],[0.48333333333333334],vertical,"(390.0, 262.0)",0.65,0.444,1,3174.074,2,0.06,same
0,294,valid,"[(1175, 774)]",[],[1],[0.5166666666666666],vertical,"(390.0, 762.0)",0.36666666666666664,0.473,1,3178.754,2,0.06,same
0,295,valid,"[(1182, 781)]",[],[1],[0.5],horizontal,"(390.0, 262.0)",1.0666666666666667,0.458,1,3183.304,2,0.06,same
0,296,invalid_adjacent_other_bar,"[(1182, 789)]",[],[1],[0.5],horizontal,"(890.0, 262.0)",1.1833333333333333,0.464,1,3188.875,3,0.06,other
0,297,invalid_adjacent_other_bar,"[(1175, 772)]",[],[1],[0.5666666666666667],horizontal,"(890.0, 762.0)",0.8666666666666667,0.524,1,3194.902,3,0.06,other
0,298,valid,"[(1174, 780)]",[],[1],[0.43333333333333335],vertical,"(890.0, 262.0)",1.35,0.394,1,3200.245,3,0.06,same
0,299,valid,"[(1175, 769)]",[],[1],[0.85],horizontal,"(390.0, 762.0)",0.8166666666666667,nan,0,3206.226,0,0.06,same
0,300,valid,"[(1156, 786)]",[],[1],[0.65],vertical,"(890.0, 762.0)",0.7333333333333333,0.608,1,3210.925,1,0.06,same
0,301,catch,"[(1204, 790)]",[],[1],[],horizontal,"(390.0, 762.0)",1.7,nan,1,3216.267,1,0.06,same
0,302,valid,"[(1171, 765)]",[],[1],[0.7333333333333333],vertical,"(390.0, 762.0)",1.0833333333333333,0.686,1,3221.524,1,0.06,same
0,303,catch,"[(1202, 782)]","[(1170, 826)]",[1],[0.06666666666666667],horizontal,"(390.0, 762.0)",,"('bar', 0.083),nan",0,3226.624,0,0.08,same
0,304,catch,"[(1142, 798)]",[],[1],[],vertical,"(890.0, 762.0)",1.7,nan,1,3228.942,1,0.08,same
0,305,catch,"[(1185, 804)]",[],[1],[],vertical,"(890.0, 762.0)",1.7,nan,1,3234.075,1,0.08,same
0,306,invalid_same_bar,"[(1178, 788)]",[],[1],[0.5166666666666666],horizontal,"(390.0, 262.0)",0.6166666666666667,0.474,1,3239.373,1,0.08,same
0,307,valid,"[(1195, 777)]",[],[1],[0.6333333333333333],vertical,"(890.0, 262.0)",0.5666666666666667,0.589,1,3243.609,2,0.08,same
0,308,catch,"[(1191, 786)]",[],[1],[],vertical,"(890.0, 762.0)",1.7,nan,1,3248.617,2,0.08,same
0,309,catch,"[(1175, 774)]",[],[1],[],horizontal,"(890.0, 762.0)",1.7,nan,1,3254.284,2,0.08,same
0,310,valid,"[(1175, 802)]",[],[1],[0.6],vertical,"(390.0, 262.0)",0.4666666666666667,0.557,1,3259.907,3,0.06,same
0,311,catch,"[(1196, 774)]",[],[1],[],horizontal,"(890.0, 762.0)",1.7,nan,1,3265.361,3,0.06,same
0,312,valid,"[(1177, 773)]",[],[1],[0.65],horizontal,"(390.0, 762.0)",0.9333333333333333,0.613,1,3271.325,3,0.06,same
0,313,catch,"[(1176, 771)]",[],[1],[],vertical,"(390.0, 262.0)",1.7,nan,1,3277.154,3,0.06,same
0,314,valid,"[(1180, 775)]",[],[1],[0.85],horizontal,"(390.0, 762.0)",0.36666666666666664,nan,0,3282.956,0,0.06,same
0,315,valid,"[(1159, 770)]",[],[1],[0.5333333333333333],horizontal,"(890.0, 262.0)",0.7166666666666667,0.493,1,3286.909,1,0.06,same
0,316,catch,"[(1199, 786)]",[],[1],[],vertical,"(390.0, 762.0)",,"('fix', 0.473),nan",0,3291.481,0,0.08,same
0,317,valid,"[(1135, 802)]",[],[1],[0.6833333333333333],vertical,"(390.0, 762.0)",1.0666666666666667,0.642,1,3293.551,1,0.08,same
0,318,valid,"[(1175, 783)]",[],[1],[0.5333333333333333],horizontal,"(890.0, 762.0)",0.9833333333333333,0.498,1,3298.724,1,0.08,same
0,319,valid,"[(1175, 795)]",[],[1],[0.6],horizontal,"(890.0, 762.0)",0.7,0.566,1,3303.972,1,0.08,same
0,320,valid,"[(1175, 772)]",[],[1],[0.5166666666666666],vertical,"(890.0, 262.0)",1.0666666666666667,0.48,1,3309.054,2,0.08,same
0,321,valid,"[(1175, 775)]","[(1163, 797)]",[1],[0.3333333333333333],horizontal,"(890.0, 762.0)",,"('bar', 0.346)",0,3314.838,0,0.08,same
0,322,invalid_adjacent_other_bar,"[(1159, 792)]",[],[1],[0.55],vertical,"(890.0, 762.0)",0.85,0.513,1,3317.309,1,0.08,other
0,323,invalid_same_bar,"[(1174, 778)]",[],[1],[0.6],horizontal,"(390.0, 262.0)",1.55,0.555,1,3321.925,1,0.08,same
0,324,invalid_adjacent_other_bar,"[(1200, 781)]",[],[1],[0.6333333333333333],horizontal,"(390.0, 262.0)",0.8666666666666667,0.599,1,3327.465,1,0.08,other
0,325,valid,"[(1205, 792)]",[],[1],[0.6333333333333333],vertical,"(890.0, 762.0)",0.5,0.59,1,3332.875,2,0.08,same
0,326,valid,"[(1171, 764)]",[],[1],[0.5166666666666666],vertical,"(390.0, 262.0)",0.9,0.477,1,3338.518,2,0.08,same
0,327,valid,"[(1166, 785)]",[],[1],[0.7666666666666666],horizontal,"(890.0, 262.0)",0.6833333333333333,0.725,1,3343.798,2,0.08,same
0,328,valid,"[(1193, 794)]",[],[1],[0.5333333333333333],horizontal,"(390.0, 762.0)",0.43333333333333335,0.495,1,3349.444,3,0.08,same
0,329,valid,"[(1171, 778)]",[],[1],[0.5],horizontal,"(890.0, 262.0)",1.3166666666666667,0.461,1,3355.025,3,0.08,same
0,330,valid,"[(1180, 778)]",[],[1],[0.5],vertical,"(890.0, 262.0)",1.2166666666666666,0.458,1,3361.265,3,0.08,same
0,331,invalid_same_bar,"[(1192, 777)]",[],[1],[0.5166666666666666],vertical,"(890.0, 262.0)",0.9333333333333333,0.478,1,3367.323,3,0.08,same
0,332,valid,"[(1202, 792)]",[],[1],[0.48333333333333334],vertical,"(890.0, 262.0)",0.6,0.448,1,3373.071,3,0.08,same
0,333,valid,"[(1181, 772)]",[],[1],[0.5666666666666667],horizontal,"(890.0, 762.0)",1.1166666666666667,0.533,1,3378.552,3,0.08,same
0,334,valid,"[(1195, 785)]",[],[1],[0.5166666666666666],vertical,"(390.0, 762.0)",1.2666666666666666,0.475,1,3384.591,3,0.08,same
0,335,catch,"[(1176, 769)]",[],[1],[],vertical,"(390.0, 262.0)",1.7,nan,1,3390.413,3,0.08,same
0,336,valid,"[(1178, 785)]",[],[1],[0.5666666666666667],horizontal,"(390.0, 762.0)",0.7666666666666666,0.523,1,3396.359,3,0.08,same
0,337,valid,"[(1175, 774)]",[],[1],[0.5166666666666666],vertical,"(890.0, 262.0)",1.2833333333333332,0.476,1,3402.288,3,0.08,same
0,338,valid,"[(1204, 778)]",[],[1],[0.6333333333333333],vertical,"(390.0, 762.0)",0.7666666666666666,0.589,1,3408.494,3,0.06,same
0,339,valid,"[(1171, 788)]",[],[1],[0.6],vertical,"(890.0, 762.0)",1.1833333333333333,0.558,1,3414.191,3,0.04,same
0,340,valid,"[(1204, 792)]",[],[1],[0.55],vertical,"(890.0, 262.0)",1.2,0.515,1,3420.073,3,0.04,same
0,341,valid,"[(1197, 784)]",[],[1],[0.85],horizontal,"(890.0, 262.0)",0.3833333333333333,nan,0,3426.208,0,0.04,same
0,342,valid,"[(1159, 764)]",[],[1],[0.48333333333333334],horizontal,"(390.0, 262.0)",0.5333333333333333,0.448,1,3430.579,1,0.04,same
0,343,invalid_same_bar,"[(1205, 781)]",[],[1],[0.55],horizontal,"(390.0, 762.0)",0.8,0.511,1,3434.891,1,0.04,same
0,344,invalid_same_bar,"[(1195, 795)]",[],[1],[0.5833333333333334],horizontal,"(890.0, 262.0)",1.05,0.539,1,3439.991,1,0.04,same
0,345,catch,"[(1197, 773)]",[],[1],[],vertical,"(390.0, 262.0)",1.7,nan,1,3444.942,2,0.04,same
0,346,valid,"[(1168, 775)]",[],[1],[0.5166666666666666],vertical,"(390.0, 762.0)",0.95,0.477,1,3450.4,2,0.04,same
0,347,valid,"[(1184, 795)]",[],[1],[0.6166666666666667],vertical,"(890.0, 762.0)",0.75,0.572,1,3455.615,2,0.04,same
0,348,valid,"[(1169, 782)]",[],[1],[0.6333333333333333],vertical,"(390.0, 262.0)",1.2666666666666666,0.592,1,3460.981,3,0.04,same
0,349,valid,"[(1200, 784)]",[],[1],[0.5833333333333334],vertical,"(390.0, 262.0)",0.85,0.54,1,3467.087,3,0.04,same
0,350,valid,"[(1194, 784)]",[],[1],[0.7333333333333333],horizontal,"(890.0, 262.0)",1.5,0.693,1,3473.091,3,0.04,same
0,351,valid,"[(1172, 775)]",[],[1],[0.5333333333333333],vertical,"(390.0, 762.0)",0.48333333333333334,0.492,1,3479.229,3,0.04,same
0,352,valid,"[(1171, 779)]",[],[1],[0.4666666666666667],horizontal,"(890.0, 262.0)",0.4166666666666667,0.428,1,3484.264,3,0.04,same
0,353,valid,"[(1170, 778)]",[],[1],[0.6666666666666666],horizontal,"(390.0, 762.0)",1.2666666666666666,0.624,1,3489.257,3,0.02,same
0,354,valid,"[(1166, 781)]",[],[1],[0.5333333333333333],horizontal,"(390.0, 262.0)",0.36666666666666664,0.494,1,3495.452,3,0.02,same
0,355,valid,"[(1187, 791)]",[],[1],[0.5666666666666667],horizontal,"(390.0, 762.0)",0.85,0.525,1,3500.246,3,0.02,same
0,356,valid,"[(1202, 800)]",[],[1],[0.5166666666666666],horizontal,"(890.0, 762.0)",1.2666666666666666,0.478,1,3506.372,3,0.02,same
0,357,catch,"[(1171, 767)]",[],[1],[],horizontal,"(390.0, 262.0)",1.7,nan,1,3512.126,3,0.02,same
0,358,valid,"[(1196, 783)]",[],[1],[0.7166666666666667],vertical,"(390.0, 762.0)",0.9833333333333333,0.674,1,3518.008,3,0.02,same
0,359,valid,"[(1174, 773)]",[],[1],[0.55],vertical,"(390.0, 262.0)",1.1833333333333333,0.511,1,3523.679,3,0.02,same
0,360,valid,"[(1171, 780)]",[],[1],[0.5166666666666666],horizontal,"(890.0, 262.0)",1.1333333333333333,0.473,1,3529.968,3,0.02,same
0,361,valid,"[(1180, 786)]",[],[1],[0.5833333333333334],horizontal,"(390.0, 762.0)",0.6166666666666667,0.543,1,3535.809,3,0.02,same
0,362,valid,"[(1170, 779)]",[],[1],[0.5],horizontal,"(390.0, 262.0)",1.4333333333333333,0.468,1,3540.842,3,0.02,same
0,363,valid,"[(1196, 795)]",[],[1],[0.48333333333333334],vertical,"(390.0, 262.0)",0.5666666666666667,0.451,1,3546.692,3,0.02,same
0,364,valid,"[(1190, 786)]",[],[1],[0.5666666666666667],horizontal,"(890.0, 762.0)",0.7666666666666666,0.531,1,3551.692,3,0.02,same
0,365,catch,"[(1171, 792)]",[],[1],[],horizontal,"(890.0, 762.0)",1.7,nan,1,3557.112,3,0.02,same
0,366,valid,"[(1171, 781)]",[],[1],[0.48333333333333334],horizontal,"(890.0, 262.0)",1.0333333333333332,0.445,1,3562.704,3,0.0,same
0,367,invalid_adjacent_other_bar,"[(1176, 773)]",[],[1],[0.85],vertical,"(390.0, 762.0)",0.4666666666666667,nan,0,3568.24,0,0.0,other
0,368,catch,"[(1170, 788)]",[],[1],[],vertical,"(390.0, 262.0)",1.7,nan,1,3572.679,1,0.0,same
0,369,valid,"[(1170, 783)]",[],[1],[0.6666666666666666],vertical,"(890.0, 762.0)",1.2,0.626,1,3577.975,1,0.0,same
0,370,catch,"[(1186, 795)]",[],[1],[],vertical,"(390.0, 762.0)",1.7,nan,1,3583.576,1,0.0,same
0,371,valid,"[(1203, 779)]",[],[1],[0.26666666666666666],vertical,"(890.0, 262.0)",1.4666666666666666,0.232,1,3589.025,2,0.0,same
0,372,catch,"[(1207, 798)]",[],[1],[],horizontal,"(890.0, 762.0)",1.7,nan,1,3594.86,2,0.0,same
0,373,valid,"[(1185, 775)]",[],[1],[0.48333333333333334],vertical,"(390.0, 262.0)",1.4333333333333333,0.445,1,3600.227,2,0.0,same
0,374,valid,"[(1171, 788)]",[],[1],[0.5166666666666666],vertical,"(390.0, 262.0)",0.6333333333333333,0.478,1,3606.091,3,0.0,same
0,375,valid,"[(1180, 797)]",[],[1],[0.5],vertical,"(390.0, 262.0)",0.5833333333333334,0.459,1,3611.678,3,0.0,same
0,376,valid,"[(1175, 772)]",[],[1],[0.5],vertical,"(890.0, 262.0)",0.9166666666666666,0.465,1,3616.957,3,0.0,same
0,377,valid,"[(1203, 791)]",[],[1],[0.5833333333333334],horizontal,"(890.0, 262.0)",0.45,0.542,1,3622.474,3,0.0,same
0,378,valid,"[(1181, 784)]",[],[1],[0.85],vertical,"(890.0, 262.0)",1.4,"('cti', 1.399),nan",0,3627.992,0,0.0,same
0,379,invalid_adjacent_other_bar,"[(1161, 783)]",[],[1],[0.5166666666666666],vertical,"(890.0, 762.0)",0.85,0.481,1,3633.451,1,0.0,other
0,380,valid,"[(1204, 790)]",[],[1],[0.5],horizontal,"(890.0, 262.0)",1.4333333333333333,0.461,1,3638.283,1,0.0,same
0,381,catch,"[(1202, 797)]",[],[1],[],horizontal,"(890.0, 262.0)",1.7,nan,1,3643.907,1,0.0,same
0,382,catch,"[(1191, 789)]",[],[1],[],horizontal,"(890.0, 262.0)",,"('cti', 1.553),nan",0,3649.102,0,0.02,same
0,383,valid,"[(1161, 781)]",[],[1],[0.5],vertical,"(890.0, 762.0)",0.5166666666666666,0.459,1,3653.742,1,0.02,same
0,384,valid,"[(1195, 785)]",[],[1],[0.55],vertical,"(390.0, 262.0)",1.1166666666666667,0.514,1,3658.175,1,0.02,same
0,385,valid,"[(1199, 785)]",[],[1],[0.5666666666666667],horizontal,"(390.0, 762.0)",0.5166666666666666,0.529,1,3663.424,1,0.02,same
0,386,valid,"[(1195, 776)]",[],[1],[0.5333333333333333],horizontal,"(390.0, 262.0)",0.8333333333333334,0.491,1,3668.171,2,0.02,same
0,387,valid,"[(1205, 791)]",[],[1],[0.7333333333333333],vertical,"(390.0, 262.0)",0.75,0.686,1,3673.275,2,0.02,same
0,388,valid,"[(1174, 789)]",[],[1],[0.6833333333333333],vertical,"(390.0, 762.0)",0.4166666666666667,0.637,1,3678.962,2,0.02,same
0,389,valid,"[(1171, 789)]",[],[1],[0.7166666666666667],horizontal,"(890.0, 262.0)",1.0833333333333333,0.674,1,3683.949,3,0.02,same
0,390,valid,"[(1170, 773)]",[],[1],[0.5],vertical,"(890.0, 262.0)",0.65,0.462,1,3690.086,3,0.02,same
0,391,valid,"[(1172, 775)]",[],[1],[0.5666666666666667],horizontal,"(390.0, 762.0)",0.43333333333333335,0.523,1,3695.579,3,0.02,same
0,392,valid,"[(1176, 775)]",[],[1],[0.5833333333333334],horizontal,"(390.0, 762.0)",0.7,0.545,1,3700.693,3,0.02,same
0,393,valid,"[(1191, 776)]",[],[1],[0.7],vertical,"(890.0, 762.0)",0.3833333333333333,0.659,1,3706.592,3,0.02,same
0,394,valid,"[(1174, 774)]",[],[1],[0.6],horizontal,"(890.0, 262.0)",0.5833333333333334,0.562,1,3711.726,3,0.02,same
0,395,valid,"[(1172, 774)]",[],[1],[0.7],vertical,"(390.0, 262.0)",1.0,0.656,1,3716.795,3,0.02,same
0,396,valid,"[(1176, 793)]",[],[1],[0.55],horizontal,"(390.0, 262.0)",1.0,0.509,1,3722.884,3,0.02,same
0,397,invalid_same_bar,"[(1171, 773)]",[],[1],[0.6666666666666666],horizontal,"(390.0, 262.0)",1.15,0.623,1,3728.976,3,0.02,same
0,398,valid,"[(1174, 781)]",[],[1],[0.48333333333333334],vertical,"(390.0, 762.0)",1.35,0.446,1,3734.845,3,0.02,same
0,399,valid,"[(1211, 786)]",[],[1],[0.5333333333333333],vertical,"(890.0, 762.0)",1.2833333333333332,0.493,1,3740.882,3,0.02,same
0,400,catch,"[(1188, 771)]",[],[1],[],vertical,"(890.0, 262.0)",1.7,nan,1,3747.21,3,0.02,same
0,401,valid,"[(1170, 787)]",[],[1],[0.5333333333333333],vertical,"(890.0, 762.0)",1.2833333333333332,0.493,1,3753.176,3,0.02,same
0,402,valid,"[(1195, 786)]",[],[1],[0.5333333333333333],horizontal,"(890.0, 762.0)",0.6833333333333333,0.492,1,3759.026,3,0.02,same
0,403,valid,"[(1204, 792)]",[],[1],[0.85],horizontal,"(890.0, 762.0)",0.55,nan,0,3764.323,0,0.02,same
0,404,valid,"[(1156, 789)]",[],[1],[0.65],vertical,"(390.0, 262.0)",0.6833333333333333,0.61,1,3768.877,1,0.02,same
0,405,valid,"[(1203, 764)]",[],[1],[0.5333333333333333],horizontal,"(890.0, 262.0)",0.9,0.493,1,3773.792,1,0.02,same
0,406,valid,"[(1186, 776)]",[],[1],[],horizontal,"(890.0, 762.0)",,"('fix', 0.513)",0,3778.654,0,0.02,same
0,407,catch,"[(1166, 785)]",[],[1],[],horizontal,"(890.0, 762.0)",1.7,nan,1,3780.744,1,0.02,same
0,408,valid,"[(1186, 779)]",[],[1],[0.48333333333333334],vertical,"(890.0, 762.0)",0.6833333333333333,0.443,1,3785.876,1,0.02,same
0,409,valid,"[(1202, 800)]",[],[1],[0.55],horizontal,"(890.0, 762.0)",0.7166666666666667,0.509,1,3790.194,1,0.02,same
0,410,invalid_same_bar,"[(1200, 782)]",[],[1],[0.65],vertical,"(890.0, 762.0)",1.2,0.606,1,3794.723,2,0.02,same
0,411,valid,"[(1182, 781)]",[],[1],[0.6],horizontal,"(390.0, 262.0)",1.0333333333333332,0.561,1,3800.426,2,0.02,same
0,412,valid,"[(1174, 782)]",[],[1],[0.5333333333333333],vertical,"(890.0, 762.0)",1.1333333333333333,0.494,1,3805.977,2,0.02,same
0,413,valid,"[(1171, 790)]",[],[1],[0.85],vertical,"(390.0, 762.0)",0.35,nan,0,3811.925,0,0.02,same
0,414,catch,"[(1165, 782)]",[],[1],[],horizontal,"(390.0, 262.0)",,"('cti', 1.584),nan",0,3816.494,0,0.04,same
0,415,valid,"[(1170, 788)]",[],[1],[],vertical,"(890.0, 762.0)",,"('cti', 1.302)",0,3821.268,0,0.04,same
0,416,invalid_adjacent_other_bar,"[(1176, 771)]",[],[1],[0.4666666666666667],vertical,"(890.0, 262.0)",0.65,0.427,1,3825.71,1,0.04,other
0,417,valid,"[(1201, 774)]","[(1121, 820)]",[1],[0.13333333333333333],horizontal,"(890.0, 262.0)",,"('bar', 0.15)",0,3830.218,0,0.04,same
0,418,catch,"[(1135, 771)]",[],[1],[],vertical,"(890.0, 262.0)",,"('cti', 1.674),nan",0,3832.476,0,0.06,same
0,419,valid,"[(1171, 791)]",[],[1],[0.55],vertical,"(390.0, 262.0)",1.2166666666666666,0.509,1,3837.311,1,0.06,same
0,420,valid,"[(1197, 791)]",[],[1],[0.65],vertical,"(390.0, 262.0)",1.2,0.61,1,3842.43,1,0.06,same
0,421,catch,"[(1136, 804)]",[],[1],[],horizontal,"(890.0, 262.0)",1.7,nan,1,3847.276,1,0.06,same
0,422,catch,"[(1173, 777)]",[],[1],[],horizontal,"(390.0, 762.0)",1.7,nan,1,3852.798,2,0.06,same
0,423,catch,"[(1203, 795)]",[],[1],[],vertical,"(390.0, 762.0)",1.7,nan,1,3857.97,2,0.06,same
0,424,valid,"[(1171, 776)]",[],[1],[0.5833333333333334],horizontal,"(390.0, 262.0)",1.2666666666666666,0.542,1,3863.618,2,0.06,same
0,425,valid,"[(1174, 785)]",[],[1],[0.5],horizontal,"(890.0, 262.0)",0.5333333333333333,0.463,1,3869.244,3,0.06,same
0,426,valid,"[(1172, 782)]",[],[1],[0.55],horizontal,"(390.0, 762.0)",0.8666666666666667,0.507,1,3874.576,3,0.06,same
0,427,catch,"[(1179, 787)]",[],[1],[],vertical,"(890.0, 762.0)",1.7,nan,1,3880.127,3,0.06,same
0,428,invalid_adjacent_other_bar,"[(1170, 795)]",[],[1],[],horizontal,"(390.0, 262.0)",,"('fix', 0.659)",0,3886.444,0,0.06,other
0,429,valid,"[(1136, 791)]",[],[1],[0.55],vertical,"(390.0, 262.0)",0.5166666666666666,0.514,1,3888.559,1,0.06,same
0,430,valid,"[(1172, 785)]",[],[1],[0.85],horizontal,"(890.0, 262.0)",0.3833333333333333,nan,0,3893.227,0,0.06,same
0,431,valid,"[(1141, 789)]",[],[1],[0.5333333333333333],horizontal,"(390.0, 762.0)",0.7333333333333333,0.497,1,3897.627,1,0.06,same
0,432,catch,"[(1195, 795)]",[],[1],[],vertical,"(890.0, 262.0)",,"('cti', 1.373),nan",0,3903.592,0,0.06,same
0,433,catch,"[(1127, 807)]",[],[1],[],vertical,"(890.0, 262.0)",1.7,nan,1,3908.46,1,0.06,same
0,434,catch,"[(1175, 787)]",[],[1],[],horizontal,"(890.0, 762.0)",1.7,nan,1,4018.894,1,0.06,same
0,435,catch,"[(1166, 779)]",[],[1],[],horizontal,"(390.0, 262.0)",1.7,nan,1,4024.188,1,0.06,same
0,436,valid,"[(1171, 783)]",[],[1],[0.4666666666666667],vertical,"(890.0, 262.0)",0.5166666666666666,0.423,1,4029.294,2,0.06,same
0,437,valid,"[(1172, 771)]",[],[1],[0.5166666666666666],horizontal,"(890.0, 762.0)",0.9,0.475,1,4033.728,2,0.06,same
0,438,valid,"[(1175, 768)]",[],[1],[0.65],vertical,"(890.0, 262.0)",0.8333333333333334,0.612,1,4038.994,2,0.06,same
0,439,catch,"[(1181, 780)]",[],[1],[],horizontal,"(390.0, 762.0)",1.7,nan,1,4044.546,3,0.06,same
0,440,valid,"[(1175, 787)]",[],[1],[0.5166666666666666],horizontal,"(890.0, 262.0)",0.9166666666666666,0.477,1,4050.971,3,0.06,same
0,441,valid,"[(1170, 795)]",[],[1],[0.48333333333333334],horizontal,"(890.0, 262.0)",0.7,0.444,1,4056.482,3,0.06,same
0,442,valid,"[(1177, 796)]",[],[1],[0.5166666666666666],horizontal,"(390.0, 762.0)",1.4333333333333333,0.477,1,4061.643,3,0.06,same
0,443,valid,"[(1202, 785)]",[],[1],[0.5],vertical,"(890.0, 762.0)",1.2666666666666666,0.459,1,4067.911,3,0.06,same
0,444,invalid_same_bar,"[(1174, 786)]",[],[1],[0.5166666666666666],horizontal,"(390.0, 262.0)",1.4166666666666667,0.478,1,4074.201,3,0.06,same
0,445,valid,"[(1137, 808)]",[],[1],[0.5166666666666666],vertical,"(890.0, 762.0)",0.8833333333333333,0.476,1,4080.742,3,0.06,same
0,446,valid,"[(1170, 779)]",[],[1],[0.5],vertical,"(890.0, 262.0)",0.55,0.459,1,4103.677,3,0.06,same
0,447,valid,"[(1171, 784)]",[],[1],[0.4666666666666667],vertical,"(390.0, 762.0)",1.5333333333333332,0.428,1,4109.227,3,0.06,same
0,448,invalid_same_bar,"[(1170, 787)]",[],[1],[0.5333333333333333],horizontal,"(390.0, 762.0)",0.7833333333333333,0.489,1,4115.461,3,0.06,same
0,449,valid,"[(1175, 782)]",[],[1],[0.5833333333333334],horizontal,"(890.0, 262.0)",1.45,0.544,1,4120.695,3,0.06,same
0,450,valid,"[(1175, 792)]",[],[1],[0.5666666666666667],vertical,"(890.0, 262.0)",1.15,0.523,1,4126.827,3,0.06,same
0,451,valid,"[(1186, 773)]",[],[1],[0.5],horizontal,"(890.0, 762.0)",0.3833333333333333,0.46,1,4132.752,3,0.06,same
0,452,catch,"[(1200, 803)]",[],[1],[],horizontal,"(390.0, 762.0)",1.7,nan,1,4137.977,3,0.06,same
0,453,valid,"[(1204, 792)]",[],[1],[0.48333333333333334],horizontal,"(390.0, 262.0)",0.7666666666666666,0.441,1,4144.015,3,0.06,same
0,454,invalid_same_bar,"[(1214, 798)]",[],[1],[0.5333333333333333],horizontal,"(390.0, 762.0)",1.0333333333333332,0.492,1,4149.34,3,0.06,same
0,455,valid,"[(1170, 778)]",[],[1],[0.6166666666666667],vertical,"(390.0, 262.0)",0.65,0.573,1,4154.946,3,0.06,same
0,456,valid,"[(1175, 838)]",[],[1],[0.5833333333333334],horizontal,"(390.0, 762.0)",1.0666666666666667,0.546,1,4160.046,3,0.06,same
0,457,valid,"[(1195, 786)]",[],[1],[0.5166666666666666],horizontal,"(390.0, 262.0)",0.48333333333333334,0.475,1,4166.095,3,0.06,same
0,458,catch,"[(1170, 792)]","[(1170, 809)]",[1],[0.05],vertical,"(890.0, 262.0)",,"('bar', 0.068),nan",0,4171.529,0,0.08,same
0,459,catch,"[(1150, 891)]",[],[1],[],horizontal,"(390.0, 762.0)",1.7,nan,1,4173.544,1,0.08,same
0,460,valid,"[(1175, 797)]",[],[1],[0.6666666666666666],horizontal,"(890.0, 262.0)",0.43333333333333335,0.617,1,4178.412,1,0.08,same
0,461,invalid_same_bar,"[(1178, 787)]",[],[1],[0.5666666666666667],vertical,"(890.0, 762.0)",1.1833333333333333,0.525,1,4182.878,1,0.08,same
0,462,valid,"[(1201, 792)]",[],[1],[0.3833333333333333],vertical,"(890.0, 762.0)",0.8833333333333333,0.347,1,4187.845,2,0.08,same
0,463,valid,"[(1197, 796)]",[],[1],[],horizontal,"(390.0, 262.0)",,"('fix', 0.589)",0,4193.522,0,0.08,same
0,464,valid,"[(1118, 792)]",[],[1],[0.45],vertical,"(890.0, 262.0)",0.35,0.415,1,4195.871,1,0.06,same
0,465,catch,"[(1175, 769)]",[],[1],[],horizontal,"(890.0, 262.0)",1.7,nan,1,4200.413,1,0.06,same
0,466,catch,"[(1181, 780)]",[],[1],[],horizontal,"(390.0, 262.0)",,"('fix', 0.444),nan",0,4205.695,0,0.08,same
0,467,valid,"[(1158, 808)]",[],[1],[0.5333333333333333],horizontal,"(390.0, 262.0)",1.0333333333333332,0.495,1,4207.895,1,0.08,same
0,468,catch,"[(1186, 799)]",[],[1],[],vertical,"(390.0, 262.0)",1.7,nan,1,4212.845,1,0.06,same
0,469,valid,"[(1171, 770)]",[],[1],[],horizontal,"(390.0, 762.0)",,"('fix', 0.545)",0,4217.888,0,0.06,same
0,470,invalid_same_bar,"[(1146, 781)]",[],[1],[0.85],horizontal,"(890.0, 262.0)",0.36666666666666664,nan,0,4219.979,0,0.06,same
0,471,valid,"[(1151, 791)]",[],[1],[0.5666666666666667],horizontal,"(390.0, 262.0)",0.36666666666666664,0.524,1,4224.14,1,0.06,same
0,472,valid,"[(1172, 782)]",[],[1],[0.7333333333333333],horizontal,"(390.0, 262.0)",0.7,0.688,1,4228.745,1,0.06,same
0,473,catch,"[(1170, 771)]",[],[1],[],horizontal,"(890.0, 762.0)",1.7,nan,1,4233.496,1,0.06,same
0,474,valid,"[(1170, 776)]",[],[1],[0.5333333333333333],vertical,"(890.0, 762.0)",0.5666666666666667,0.488,1,4238.695,2,0.06,same
0,475,valid,"[(1158, 778)]",[],[1],[],vertical,"(390.0, 262.0)",,"('cti', 0.56)",0,4243.216,0,0.06,same
0,476,valid,"[(1155, 763)]",[],[1],[0.7333333333333333],vertical,"(890.0, 762.0)",0.5833333333333334,0.696,1,4247.094,1,0.06,same
0,477,valid,"[(1169, 787)]",[],[1],[0.5333333333333333],horizontal,"(890.0, 262.0)",1.2333333333333334,0.496,1,4251.698,1,0.06,same
0,478,valid,"[(1204, 804)]",[],[1],[0.48333333333333334],horizontal,"(890.0, 762.0)",0.5333333333333333,0.447,1,4256.799,1,0.06,same
0,479,valid,"[(1204, 800)]",[],[1],[0.5333333333333333],vertical,"(390.0, 262.0)",1.4166666666666667,0.49,1,4261.294,2,0.06,same
0,480,catch,"[(1131, 828)]",[],[1],[],horizontal,"(390.0, 262.0)",1.7,nan,1,4267.574,2,0.06,same
0,481,invalid_same_bar,"[(1178, 787)]",[],[1],[0.6166666666666667],vertical,"(890.0, 762.0)",0.95,0.579,1,4278.514,2,0.06,same
0,482,valid,"[(1199, 787)]",[],[1],[0.45],horizontal,"(890.0, 762.0)",1.3,0.412,1,4284.28,3,0.04,same
0,483,valid,"[(1201, 776)]",[],[1],[0.55],vertical,"(890.0, 762.0)",1.4166666666666667,0.506,1,4290.863,3,0.04,same
0,484,valid,"[(1185, 778)]",[],[1],[0.5833333333333334],horizontal,"(390.0, 262.0)",0.8166666666666667,0.541,1,4297.148,3,0.04,same
0,485,valid,"[(1180, 781)]",[],[1],[0.6333333333333333],horizontal,"(890.0, 262.0)",0.6833333333333333,0.595,1,4303.201,3,0.04,same
0,486,catch,"[(1202, 795)]","[(1127, 828)]",[1],[0.25],horizontal,"(390.0, 262.0)",,"('bar', 0.263),nan",0,4308.979,0,0.06,same
0,487,invalid_adjacent_other_bar,"[(1157, 769)]",[],[1],[0.6333333333333333],vertical,"(390.0, 762.0)",0.5833333333333334,0.591,1,4311.328,1,0.06,other
0,488,invalid_adjacent_other_bar,"[(1180, 803)]","[(1152, 836)]",[1],[0.13333333333333333],horizontal,"(390.0, 262.0)",,"('bar', 0.147)",0,4316.162,0,0.06,other
0,489,catch,"[(1126, 812)]",[],[1],[],vertical,"(390.0, 762.0)",1.7,nan,1,4318.715,1,0.06,same
0,490,invalid_adjacent_other_bar,"[(1170, 791)]",[],[1],[0.43333333333333335],horizontal,"(390.0, 762.0)",1.1666666666666667,0.395,1,4472.8,1,0.06,other
0,491,valid,"[(1170, 775)]",[],[1],[0.6833333333333333],vertical,"(390.0, 762.0)",1.0166666666666666,0.641,1,4478.096,1,0.06,same
0,492,valid,"[(1180, 800)]",[],[1],[0.6333333333333333],vertical,"(390.0, 762.0)",0.6666666666666666,0.594,1,4483.051,2,0.06,same
0,493,valid,"[(1172, 795)]",[],[1],[0.6166666666666667],horizontal,"(390.0, 262.0)",0.7,0.573,1,4488.175,2,0.06,same
0,494,catch,"[(1160, 810)]",[],[1],[],vertical,"(390.0, 262.0)",,"('cti', 1.668),nan",0,4493.048,0,0.08,same
0,495,valid,"[(1165, 789)]",[],[1],[0.7833333333333333],horizontal,"(390.0, 262.0)",0.65,0.736,1,4497.746,1,0.08,same
0,496,valid,"[(1170, 795)]",[],[1],[0.5666666666666667],vertical,"(390.0, 262.0)",0.55,0.526,1,4503.045,1,0.08,same
0,497,valid,"[(1165, 819)]",[],[1],[0.5166666666666666],horizontal,"(390.0, 762.0)",1.4166666666666667,0.476,1,4507.708,1,0.08,same
0,498,catch,"[(1172, 802)]",[],[1],[],horizontal,"(890.0, 762.0)",1.7,nan,1,4513.313,2,0.08,same
0,499,catch,"[(1171, 794)]",[],[1],[],horizontal,"(390.0, 262.0)",,"('cti', 1.58),nan",0,4519.096,0,0.1,same
0,500,catch,"[(1158, 778)]",[],[1],[],vertical,"(890.0, 262.0)",1.7,nan,1,4523.913,1,0.1,same
0,501,valid,"[(1222, 795)]",[],[1],[0.48333333333333334],horizontal,"(890.0, 762.0)",1.3166666666666667,0.444,1,4528.829,1,0.1,same
0,502,invalid_same_bar,"[(1200, 798)]",[],[1],[0.5],vertical,"(390.0, 762.0)",0.8,0.459,1,4534.378,1,0.1,same
0,503,catch,"[(1195, 806)]",[],[1],[],vertical,"(390.0, 762.0)",,"('fix', 0.518),nan",0,4538.722,0,0.12,same
0,504,valid,"[(1123, 807)]",[],[1],[0.55],vertical,"(890.0, 262.0)",0.8,0.508,1,4540.896,1,0.12,same
0,505,valid,"[(1174, 789)]",[],[1],[0.5833333333333334],horizontal,"(890.0, 262.0)",0.5333333333333333,0.551,1,4546.654,1,0.12,same
0,506,catch,"[(1167, 789)]",[],[1],[],vertical,"(890.0, 762.0)",1.7,nan,1,4551.447,1,0.12,same
0,507,valid,"[(1172, 782)]","[(1161, 807)]",[1],[0.08333333333333333],horizontal,"(890.0, 262.0)",,"('bar', 0.097)",0,4556.729,0,0.12,same
0,508,valid,"[(1137, 789)]",[],[1],[0.5333333333333333],vertical,"(390.0, 762.0)",0.7166666666666667,0.495,1,4559.013,1,0.1,same
0,509,valid,"[(1175, 800)]",[],[1],[0.6833333333333333],vertical,"(390.0, 762.0)",0.6166666666666667,0.635,1,4563.616,1,0.1,same
0,510,valid,"[(1202, 796)]",[],[1],[0.7],vertical,"(890.0, 262.0)",0.9833333333333333,0.65,1,4568.778,1,0.1,same
0,511,catch,"[(1172, 782)]",[],[1],[],vertical,"(390.0, 762.0)",1.7,nan,1,4573.821,2,0.1,same
0,512,valid,"[(1176, 759)]",[],[1],[],vertical,"(390.0, 762.0)",,"('fix', 0.576)",0,4579.758,0,0.1,same
0,513,invalid_adjacent_other_bar,"[(1148, 799)]",[],[1],[0.6333333333333333],vertical,"(890.0, 762.0)",0.3833333333333333,0.589,1,4581.879,1,0.1,other
0,514,catch,"[(1180, 797)]","[(1174, 857)]",[1],[0.25],horizontal,"(390.0, 762.0)",,"('bar', 0.262),nan",0,4586.909,0,0.12,same
0,515,valid,"[(1130, 810)]",[],[1],[0.55],vertical,"(390.0, 262.0)",1.3333333333333333,0.507,1,4589.336,1,0.12,same
0,516,valid,"[(1200, 792)]",[],[1],[0.55],horizontal,"(390.0, 262.0)",1.5,0.509,1,4596.745,1,0.1,same
0,517,valid,"[(1177, 790)]",[],[1],[0.6833333333333333],horizontal,"(390.0, 262.0)",1.0833333333333333,0.639,1,4602.095,1,0.1,same
0,518,invalid_adjacent_other_bar,"[(1170, 789)]",[],[1],[0.5833333333333334],horizontal,"(890.0, 262.0)",1.2,0.543,1,4607.159,2,0.1,other
0,519,catch,"[(1172, 785)]",[],[1],[],horizontal,"(390.0, 262.0)",1.7,nan,1,4612.97,2,0.1,same
0,520,catch,"[(1198, 778)]",[],[1],[],horizontal,"(890.0, 762.0)",1.7,nan,1,4618.362,2,0.1,same
0,521,valid,"[(1157, 787)]",[],[1],[0.85],vertical,"(890.0, 762.0)",0.85,nan,0,4624.365,0,0.1,same
0,522,catch,"[(1171, 782)]",[],[1],[],horizontal,"(890.0, 262.0)",1.7,nan,1,4629.177,1,0.1,same
0,523,catch,"[(1157, 786)]",[],[1],[],horizontal,"(890.0, 762.0)",1.7,nan,1,4634.531,1,0.1,same
0,524,valid,"[(1192, 797)]",[],[1],[0.5666666666666667],vertical,"(890.0, 262.0)",1.1666666666666667,0.529,1,4639.829,1,0.1,same
0,525,catch,"[(1197, 789)]",[],[1],[],vertical,"(890.0, 762.0)",1.7,nan,1,4644.762,2,0.1,same
0,526,valid,"[(1168, 787)]",[],[1],[0.6166666666666667],horizontal,"(390.0, 762.0)",1.4833333333333334,0.579,1,4650.561,2,0.1,same
0,527,valid,"[(1197, 798)]",[],[1],[0.55],horizontal,"(390.0, 262.0)",1.4333333333333333,0.51,1,4656.713,2,0.1,same
0,528,invalid_adjacent_other_bar,"[(1175, 773)]",[],[1],[0.6],vertical,"(890.0, 762.0)",1.3,0.553,1,4662.51,3,0.1,other
0,529,catch,"[(1157, 774)]",[],[1],[],vertical,"(890.0, 262.0)",1.7,nan,1,4668.661,3,0.1,same
0,530,valid,"[(1176, 787)]",[],[1],[],vertical,"(890.0, 762.0)",,"('fix', 0.609)",0,4674.726,0,0.1,same
0,531,catch,"[(1149, 804)]",[],[1],[],horizontal,"(390.0, 762.0)",1.7,nan,1,4676.859,1,0.1,same
0,532,valid,"[(1180, 790)]","[(1173, 832)]",[1],[0.0],horizontal,"(390.0, 762.0)",,"('bar', 0.017)",0,4682.4,0,0.1,same
0,533,valid,"[(1155, 787)]",[],[1],[0.55],vertical,"(390.0, 262.0)",0.8833333333333333,0.508,1,4684.807,1,0.1,same
0,534,valid,"[(1205, 782)]","[(1174, 807)]",[1],[0.06666666666666667],horizontal,"(390.0, 762.0)",,"('bar', 0.084)",0,4689.713,0,0.1,same
0,535,valid,"[(1156, 772)]",[],[1],[0.7],vertical,"(390.0, 762.0)",0.9666666666666667,0.648,1,4692.12,1,0.1,same
0,536,catch,"[(1202, 795)]","[(1175, 856)]",[1],[0.4666666666666667],horizontal,"(890.0, 762.0)",,"('bar', 0.476),nan",0,4697.496,0,0.1,same
0,537,valid,"[(1156, 787)]",[],[1],[0.6833333333333333],vertical,"(390.0, 262.0)",0.6666666666666666,0.636,1,4699.939,1,0.1,same
0,538,invalid_same_bar,"[(1203, 776)]",[],[1],[0.55],horizontal,"(890.0, 262.0)",1.2833333333333332,0.501,1,4705.095,1,0.1,same
0,539,catch,"[(1203, 781)]",[],[1],[],horizontal,"(890.0, 762.0)",,"('cti', 0.655),nan",0,4710.007,0,0.12,same
0,540,invalid_adjacent_other_bar,"[(1170, 778)]","[(1169, 804)]",[1],[0.13333333333333333],horizontal,"(390.0, 762.0)",,"('bar', 0.147)",0,4713.774,0,0.12,other
0,541,valid,"[(1135, 783)]",[],[1],[0.85],horizontal,"(390.0, 262.0)",0.6333333333333333,nan,0,4716.189,0,0.12,same
0,542,invalid_same_bar,"[(1156, 797)]",[],[1],[0.7],vertical,"(390.0, 762.0)",0.5666666666666667,0.654,1,4722.347,1,0.12,same
0,543,valid,"[(1172, 797)]",[],[1],[0.6],vertical,"(390.0, 762.0)",1.5,0.554,1,4728.234,1,0.12,same
0,544,valid,"[(1174, 779)]",[],[1],[0.85],horizontal,"(890.0, 762.0)",0.6,nan,0,4733.655,0,0.1,same
0,545,catch,"[(1158, 779)]",[],[1],[],vertical,"(890.0, 262.0)",1.7,nan,1,4737.663,1,0.1,same
0,546,valid,"[(1179, 780)]",[],[1],[0.55],vertical,"(890.0, 262.0)",0.4666666666666667,0.508,1,4743.211,1,0.1,same
0,547,invalid_adjacent_other_bar,"[(1166, 789)]",[],[1],[0.55],vertical,"(890.0, 762.0)",0.85,0.507,1,4747.847,1,0.1,other
0,548,valid,"[(1167, 780)]",[],[1],[0.5833333333333334],horizontal,"(390.0, 762.0)",1.05,0.54,1,4752.263,2,0.1,same
0,549,valid,"[(1175, 787)]",[],[1],[0.6333333333333333],horizontal,"(890.0, 762.0)",1.3833333333333333,0.589,1,4758.011,2,0.08,same
0,550,catch,"[(1177, 784)]",[],[1],[],vertical,"(390.0, 262.0)",1.7,nan,1,4764.18,2,0.08,same
0,551,valid,"[(1172, 792)]",[],[1],[0.5833333333333334],vertical,"(390.0, 762.0)",0.6333333333333333,0.537,1,4769.364,3,0.08,same
0,552,catch,"[(1175, 790)]",[],[1],[],horizontal,"(890.0, 762.0)",1.7,nan,1,4774.614,3,0.08,same
0,553,valid,"[(1175, 787)]",[],[1],[0.5166666666666666],horizontal,"(390.0, 262.0)",1.4666666666666666,0.477,1,4780.198,3,0.06,same
0,554,valid,"[(1175, 785)]",[],[1],[0.85],vertical,"(890.0, 762.0)",0.8666666666666667,nan,0,4786.131,0,0.06,same
0,555,catch,"[(1136, 777)]",[],[1],[],horizontal,"(890.0, 262.0)",1.7,nan,1,4790.587,1,0.06,same
0,556,valid,"[(1173, 773)]",[],[1],[0.48333333333333334],vertical,"(390.0, 262.0)",0.45,0.45,1,4795.715,1,0.06,same
0,557,valid,"[(1175, 787)]",[],[1],[0.5166666666666666],horizontal,"(890.0, 262.0)",1.5333333333333332,0.482,1,4800.063,1,0.06,same
0,558,valid,"[(1187, 795)]",[],[1],[0.5833333333333334],vertical,"(390.0, 762.0)",0.55,0.546,1,4805.38,2,0.06,same
0,559,valid,"[(1164, 782)]",[],[1],[0.5166666666666666],vertical,"(390.0, 262.0)",1.1333333333333333,0.469,1,4810.322,2,0.06,same
0,560,valid,"[(1175, 797)]",[],[1],[0.5],horizontal,"(390.0, 262.0)",0.55,0.459,1,4815.506,2,0.06,same
0,561,invalid_same_bar,"[(1173, 772)]",[],[1],[0.85],horizontal,"(390.0, 762.0)",1.0666666666666667,nan,0,4820.146,0,0.06,same
