block,trial,trial_type,taps_start_loc_during_fix,taps_end_loc_during_fix,taps_on_lever_during_fix,taps_on_lever_s_during_fix,bar_orientation,target_xy,cti,rt,acc,time,pulses,fa_rate_recent100,actual_invalid_type
0,1,valid,"[(1172, 863)]",[],[1],[0.45],vertical,"(890.0, 262.0)",0.3833333333333333,0.408,1,0.56,1,0.0,same
0,2,valid,"[(1080, 843)]",[],[1],[0.4666666666666667],vertical,"(890.0, 762.0)",1.4333333333333333,0.425,1,91.653,1,0.0,same
0,3,valid,"[(1157, 794)]",[],[1],[0.85],horizontal,"(390.0, 762.0)",0.8666666666666667,nan,0,741.848,0,0.0,same
0,4,valid,"[(1129, 829)]",[],[1],[0.5833333333333334],horizontal,"(890.0, 762.0)",0.9333333333333333,0.537,1,746.099,1,0.0,same
0,5,valid,"[(1170, 787)]",[],[1],[0.6833333333333333],horizontal,"(390.0, 262.0)",1.0,0.639,1,884.116,1,0.0,same
0,6,catch,"[(1159, 793)]",[],[1],[],horizontal,"(890.0, 762.0)",1.7,nan,1,889.583,1,0.0,same
0,7,catch,"[(1155, 799)]",[],[1],[],vertical,"(390.0, 762.0)",1.7,nan,1,895.333,2,0.0,same
0,8,catch,"[(1175, 804)]",[],[1],[],horizontal,"(390.0, 762.0)",1.7,nan,1,900.932,2,0.0,same
0,9,valid,"[(1171, 795)]",[],[1],[0.85],vertical,"(390.0, 262.0)",0.5166666666666666,nan,0,906.05,0,0.0,same
0,10,valid,"[(1160, 766)]",[],[1],[0.85],horizontal,"(390.0, 262.0)",1.1666666666666667,nan,0,910.953,0,0.0,same
0,11,invalid_adjacent_other_bar,"[(1132, 796)]",[],[1],[0.85],horizontal,"(890.0, 762.0)",0.5333333333333333,nan,0,916.028,0,0.0,other
0,12,catch,"[(1090, 807)]",[],[1],[],vertical,"(890.0, 762.0)",1.7,nan,1,920.317,1,0.0,same
0,13,valid,"[(1176, 798)]",[],[1],[0.4666666666666667],vertical,"(890.0, 262.0)",0.4166666666666667,0.429,1,926.201,1,0.0,same
0,14,catch,"[(1164, 796)]",[],[1],[],horizontal,"(390.0, 762.0)",1.7,nan,1,930.52,1,0.0,same
0,15,catch,"[(1176, 806)]",[],[1],[],vertical,"(390.0, 762.0)",1.7,nan,1,935.789,2,0.0,same
0,16,valid,"[(1178, 804)]",[],[1],[0.65],vertical,"(390.0, 762.0)",1.2833333333333332,0.603,1,941.84,2,0.0,same
0,17,valid,"[(1158, 782)]",[],[1],[0.4666666666666667],vertical,"(890.0, 762.0)",1.45,0.428,1,947.789,2,0.0,same
0,18,valid,"[(1164, 802)]",[],[1],[0.55],horizontal,"(890.0, 262.0)",1.4,0.509,1,953.649,2,0.0,same
0,19,valid,"[(1163, 776)]",[],[1],[0.85],vertical,"(390.0, 262.0)",1.4,nan,0,959.549,0,0.0,same
0,20,valid,"[(1132, 768)]",[],[1],[0.5166666666666666],horizontal,"(890.0, 262.0)",0.5,0.483,1,964.461,1,0.0,same
0,21,valid,"[(1191, 780)]",[],[1],[0.55],vertical,"(390.0, 262.0)",0.9666666666666667,0.508,1,969.075,1,0.0,same
0,22,catch,"[(1185, 792)]",[],[1],[],vertical,"(390.0, 762.0)",1.7,nan,1,973.932,1,0.0,same
0,23,valid,"[(1160, 803)]",[],[1],[0.5166666666666666],horizontal,"(390.0, 762.0)",0.7,0.472,1,979.282,2,0.0,same
0,24,valid,"[(1160, 786)]",[],[1],[0.85],vertical,"(390.0, 762.0)",0.85,nan,0,984.51,0,0.0,same
0,25,invalid_adjacent_other_bar,"[(1162, 768)]",[],[1],[0.5166666666666666],horizontal,"(890.0, 262.0)",0.55,0.477,1,988.731,1,0.0,other
0,26,valid,"[(1156, 789)]",[],[1],[0.5166666666666666],horizontal,"(890.0, 762.0)",0.4166666666666667,0.474,1,993.165,1,0.0,same
0,27,catch,"[(1163, 795)]",[],[1],[],vertical,"(890.0, 262.0)",1.7,nan,1,997.649,1,0.0,same
0,28,valid,"[(1173, 793)]",[],[1],[0.5166666666666666],horizontal,"(890.0, 262.0)",1.4166666666666667,0.474,1,1002.526,2,0.0,same
0,29,catch,"[(1180, 804)]",[],[1],[],vertical,"(890.0, 262.0)",1.7,nan,1,1008.609,2,0.0,same
0,30,catch,"[(1144, 789)]",[],[1],[],vertical,"(390.0, 262.0)",1.7,nan,1,1014.45,2,0.0,same
0,31,catch,"[(1160, 811)]",[],[1],[],horizontal,"(890.0, 262.0)",1.7,nan,1,1020.466,2,0.0,same
0,32,valid,"[(1162, 796)]",[],[1],[0.6333333333333333],vertical,"(890.0, 762.0)",0.9,0.592,1,1026.097,3,0.0,same
0,33,invalid_adjacent_other_bar,"[(1176, 778)]",[],[1],[0.6333333333333333],vertical,"(390.0, 762.0)",0.6666666666666666,0.595,1,1031.873,3,0.0,other
0,34,valid,"[(1160, 778)]",[],[1],[0.5666666666666667],vertical,"(390.0, 262.0)",1.1833333333333333,0.526,1,1037.464,3,0.0,same
0,35,valid,"[(1185, 787)]",[],[1],[0.43333333333333335],vertical,"(390.0, 762.0)",1.05,0.403,1,1043.265,3,0.0,same
0,36,invalid_adjacent_other_bar,"[(1160, 785)]",[],[1],[0.43333333333333335],vertical,"(890.0, 762.0)",1.4333333333333333,0.398,1,1048.849,3,0.0,other
0,37,valid,"[(1132, 792)]",[],[1],[0.5833333333333334],horizontal,"(390.0, 262.0)",1.4,0.544,1,1055.08,3,0.0,same
0,38,valid,"[(1157, 768)]",[],[1],[0.5166666666666666],horizontal,"(390.0, 262.0)",1.1333333333333333,0.481,1,1575.533,3,0.0,same
0,39,catch,"[(1156, 793)]",[],[1],[],vertical,"(390.0, 262.0)",1.7,nan,1,1581.334,3,0.0,same
0,40,valid,"[(1166, 808)]",[],[1],[0.75],horizontal,"(890.0, 762.0)",0.8,0.708,1,1587.049,3,0.0,same
0,41,valid,"[(1157, 787)]",[],[1],[0.48333333333333334],horizontal,"(390.0, 262.0)",0.55,0.448,1,1592.65,3,0.0,same
0,42,valid,"[(1156, 796)]",[],[1],[0.85],horizontal,"(390.0, 262.0)",0.7833333333333333,nan,0,1597.849,0,0.0,same
0,43,valid,"[(1131, 777)]",[],[1],[0.5333333333333333],horizontal,"(390.0, 262.0)",0.6166666666666667,0.493,1,1602.303,1,0.0,same
0,44,valid,"[(1134, 774)]",[],[1],[0.6],horizontal,"(390.0, 262.0)",1.3333333333333333,0.556,1,1606.7,1,0.0,same
0,45,valid,"[(1157, 763)]",[],[1],[0.85],vertical,"(890.0, 262.0)",0.35,nan,0,1611.981,0,0.0,same
0,46,valid,"[(1129, 806)]",[],[1],[0.5166666666666666],vertical,"(390.0, 762.0)",0.7666666666666666,0.479,1,1616.117,1,0.0,same
0,47,catch,"[(1165, 799)]",[],[1],[],horizontal,"(890.0, 762.0)",,"('cti', 1.607),nan",0,1620.617,0,0.02127659574468085,same
0,48,catch,"[(1132, 787)]",[],[1],[],horizontal,"(890.0, 262.0)",1.7,nan,1,1625.494,1,0.020833333333333332,same
0,49,valid,"[(1158, 796)]",[],[1],[0.6333333333333333],horizontal,"(390.0, 762.0)",0.43333333333333335,0.598,1,1630.866,1,0.02040816326530612,same
0,50,valid,"[(1158, 789)]",[],[1],[0.85],vertical,"(890.0, 762.0)",0.5333333333333333,nan,0,1635.421,0,0.02,same
0,51,valid,"[(1131, 769)]",[],[1],[0.55],vertical,"(390.0, 762.0)",0.9333333333333333,0.513,1,1639.715,1,0.02,same
0,52,valid,"[(1158, 803)]",[],[1],[0.4666666666666667],vertical,"(890.0, 262.0)",0.5166666666666666,0.426,1,1645.016,1,0.02,same
0,53,catch,"[(1154, 786)]",[],[1],[],vertical,"(390.0, 762.0)",1.7,nan,1,1649.798,1,0.02,same
0,54,invalid_adjacent_other_bar,"[(1171, 781)]",[],[1],[0.6166666666666667],horizontal,"(390.0, 762.0)",1.3333333333333333,0.579,1,1655.3,2,0.02,other
0,55,valid,"[(1172, 794)]",[],[1],[0.5],vertical,"(890.0, 262.0)",0.4666666666666667,0.454,1,1660.885,2,0.02,same
0,56,valid,"[(1161, 778)]",[],[1],[0.5],horizontal,"(890.0, 262.0)",0.5166666666666666,0.459,1,1665.867,2,0.02,same
0,57,valid,"[(1157, 782)]",[],[1],[0.65],horizontal,"(890.0, 262.0)",1.2166666666666666,0.613,1,1670.616,2,0.02,same
0,58,valid,"[(1156, 785)]",[],[1],[0.5166666666666666],horizontal,"(390.0, 762.0)",0.55,0.476,1,1676.866,3,0.02,same
0,59,valid,"[(1160, 782)]",[],[1],[0.85],vertical,"(890.0, 762.0)",0.5,nan,0,1682.492,0,0.02,same
0,60,catch,"[(1135, 797)]",[],[1],[],vertical,"(390.0, 762.0)",1.7,nan,1,1686.765,1,0.02,same
0,61,valid,"[(1161, 795)]",[],[1],[0.6],horizontal,"(390.0, 762.0)",1.2333333333333334,0.559,1,1692.083,1,0.02,same
0,62,valid,"[(1135, 770)]",[],[1],[0.7166666666666667],vertical,"(390.0, 762.0)",0.7666666666666666,0.675,1,1697.049,1,0.02,same
0,63,valid,"[(1162, 789)]",[],[1],[0.6666666666666666],horizontal,"(890.0, 262.0)",0.8833333333333333,0.629,1,1702.045,2,0.02,same
0,64,valid,"[(1158, 791)]",[],[1],[0.7333333333333333],vertical,"(390.0, 262.0)",0.9333333333333333,0.687,1,1707.65,2,0.02,same
0,65,valid,"[(1160, 795)]",[],[1],[0.5166666666666666],horizontal,"(390.0, 262.0)",1.2,0.474,1,1713.1,2,0.02,same
0,66,catch,"[(1172, 800)]",[],[1],[],vertical,"(890.0, 262.0)",1.7,nan,1,1718.951,2,0.02,same
0,67,valid,"[(1168, 800)]",[],[1],[0.5333333333333333],vertical,"(390.0, 262.0)",0.8666666666666667,0.488,1,1724.471,3,0.02,same
0,68,valid,"[(1155, 780)]",[],[1],[0.85],vertical,"(390.0, 262.0)",1.1666666666666667,nan,0,1730.086,0,0.02,same
0,69,valid,"[(1137, 774)]",[],[1],[0.5166666666666666],horizontal,"(390.0, 262.0)",1.3333333333333333,0.481,1,1735.351,1,0.02,same
0,70,valid,"[(1161, 774)]",[],[1],[0.5],vertical,"(390.0, 262.0)",0.85,0.465,1,1740.684,1,0.02,same
0,71,valid,"[(1160, 801)]",[],[1],[0.65],horizontal,"(390.0, 762.0)",1.5166666666666666,0.604,1,1745.728,1,0.02,same
0,72,invalid_adjacent_other_bar,"[(1135, 799)]",[],[1],[0.5333333333333333],vertical,"(890.0, 762.0)",1.5333333333333332,0.493,1,1751.001,2,0.02,other
0,73,valid,"[(1160, 796)]",[],[1],[0.4666666666666667],vertical,"(890.0, 262.0)",1.0,0.43,1,1756.9,2,0.02,same
0,74,invalid_same_bar,"[(1166, 791)]",[],[1],[0.6],vertical,"(890.0, 762.0)",1.4666666666666666,0.558,1,1761.767,2,0.02,same
0,75,catch,"[(1146, 790)]",[],[1],[],horizontal,"(390.0, 262.0)",1.7,nan,1,1767.963,2,0.02,same
0,76,valid,"[(1136, 796)]",[],[1],[0.5],vertical,"(890.0, 262.0)",1.4333333333333333,0.46,1,1773.534,3,0.02,same
0,77,catch,"[(1136, 776)]",[],[1],[],vertical,"(390.0, 762.0)",1.7,nan,1,1780.336,3,0.02,same
0,78,valid,"[(1159, 779)]",[],[1],[0.5],horizontal,"(890.0, 762.0)",1.5333333333333332,0.455,1,1786.666,3,0.02,same
0,79,catch,"[(1160, 789)]",[],[1],[],vertical,"(390.0, 262.0)",1.7,nan,1,1793.116,3,0.02,same
0,80,catch,"[(1156, 787)]",[],[1],[],vertical,"(890.0, 762.0)",1.7,nan,1,1799.299,3,0.02,same
0,81,catch,"[(1165, 786)]",[],[1],[],horizontal,"(390.0, 762.0)",1.7,nan,1,1805.182,3,0.02,same
0,82,valid,"[(1150, 783)]",[],[1],[0.5],horizontal,"(390.0, 262.0)",1.0166666666666666,0.46,1,1810.841,3,0.02,same
0,83,valid,"[(1163, 786)]",[],[1],[0.85],vertical,"(890.0, 762.0)",1.4333333333333333,nan,0,1816.569,0,0.02,same
0,84,valid,"[(1159, 796)]",[],[1],[0.5166666666666666],horizontal,"(890.0, 262.0)",1.3666666666666667,0.475,1,1821.515,1,0.02,same
0,85,valid,"[(1160, 792)]",[],[1],[0.85],horizontal,"(390.0, 262.0)",0.8666666666666667,nan,0,1827.083,0,0.02,same
0,86,valid,"[(1132, 796)]",[],[1],[0.5833333333333334],vertical,"(390.0, 262.0)",1.5,0.541,1,1831.794,1,0.02,same
0,87,valid,"[(1164, 786)]",[],[1],[0.7],horizontal,"(890.0, 762.0)",1.1833333333333333,0.655,1,1837.033,1,0.02,same
0,88,valid,"[(1162, 783)]",[],[1],[0.5666666666666667],horizontal,"(390.0, 762.0)",0.8333333333333334,0.527,1,1842.017,1,0.02,same
0,89,valid,"[(1161, 764)]",[],[1],[0.5333333333333333],vertical,"(890.0, 762.0)",1.2166666666666666,0.49,1,1846.867,2,0.02,same
0,90,catch,"[(1160, 794)]",[],[1],[],vertical,"(890.0, 762.0)",1.7,nan,1,1852.41,2,0.02,same
0,91,catch,"[(1151, 787)]",[],[1],[],vertical,"(390.0, 762.0)",1.7,nan,1,1857.921,2,0.02,same
0,92,valid,"[(1160, 796)]",[],[1],[0.55],horizontal,"(890.0, 262.0)",1.0166666666666666,0.522,1,1863.873,2,0.02,same
0,93,catch,"[(1160, 807)]",[],[1],[],vertical,"(390.0, 762.0)",1.7,nan,1,1869.384,3,0.02,same
0,94,valid,"[(1161, 801)]",[],[1],[0.6833333333333333],horizontal,"(890.0, 262.0)",0.48333333333333334,0.636,1,1875.433,3,0.02,same
0,95,catch,"[(1131, 772)]",[],[1],[],vertical,"(890.0, 762.0)",1.7,nan,1,1880.9,3,0.02,same
0,96,valid,"[(1160, 773)]",[],[1],[0.55],horizontal,"(390.0, 262.0)",1.0833333333333333,0.505,1,1886.993,3,0.02,same
0,97,catch,"[(1160, 777)]",[],[1],[],horizontal,"(890.0, 762.0)",1.7,nan,1,1893.133,3,0.0,same
0,98,valid,"[(1159, 785)]",[],[1],[0.5],horizontal,"(890.0, 762.0)",0.6666666666666666,0.457,1,1899.467,3,0.0,same
0,99,catch,"[(1161, 795)]",[],[1],[],horizontal,"(890.0, 762.0)",1.7,nan,1,1904.733,3,0.0,same
0,100,valid,"[(1160, 796)]",[],[1],[0.5],horizontal,"(390.0, 762.0)",0.4666666666666667,0.455,1,1910.433,3,0.0,same
0,101,catch,"[(1132, 778)]",[],[1],[],horizontal,"(890.0, 762.0)",1.7,nan,1,1915.533,3,0.0,same
0,102,valid,"[(1161, 799)]",[],[1],[0.85],horizontal,"(890.0, 262.0)",0.7833333333333333,nan,0,1921.023,0,0.0,same
0,103,catch,"[(1141, 779)]",[],[1],[],horizontal,"(890.0, 262.0)",1.7,nan,1,1925.905,1,0.0,same
0,104,valid,"[(1133, 795)]",[],[1],[0.48333333333333334],vertical,"(890.0, 762.0)",1.5333333333333332,0.443,1,1931.391,1,0.0,same
0,105,valid,"[(1160, 804)]",[],[1],[0.55],vertical,"(890.0, 262.0)",1.0666666666666667,0.51,1,1937.103,1,0.0,same
0,106,valid,"[(1150, 784)]",[],[1],[0.5666666666666667],horizontal,"(390.0, 262.0)",1.5,0.526,1,1942.294,2,0.0,same
0,107,catch,"[(1156, 796)]",[],[1],[],vertical,"(890.0, 262.0)",1.7,nan,1,1948.001,2,0.0,same
0,108,catch,"[(1165, 794)]",[],[1],[],vertical,"(390.0, 262.0)",1.7,nan,1,1953.762,2,0.0,same
0,109,valid,"[(1143, 798)]",[],[1],[0.5],horizontal,"(390.0, 262.0)",0.5666666666666667,0.465,1,1959.377,2,0.0,same
0,110,invalid_same_bar,"[(1126, 798)]",[],[1],[0.5166666666666666],horizontal,"(890.0, 762.0)",1.3833333333333333,0.478,1,1964.459,3,0.0,same
0,111,valid,"[(1161, 791)]",[],[1],[0.5],vertical,"(390.0, 262.0)",0.9166666666666666,0.464,1,1971.343,3,0.0,same
0,112,valid,"[(1165, 795)]",[],[1],[0.5],horizontal,"(390.0, 262.0)",0.7833333333333333,0.461,1,1976.491,3,0.0,same
0,113,catch,"[(1161, 799)]",[],[1],[],vertical,"(390.0, 762.0)",1.7,nan,1,1981.939,3,0.0,same
0,114,valid,"[(1160, 795)]",[],[1],[0.4666666666666667],horizontal,"(390.0, 262.0)",0.95,0.425,1,1987.517,3,0.0,same
0,115,valid,"[(1158, 796)]",[],[1],[0.5666666666666667],horizontal,"(890.0, 262.0)",1.3166666666666667,0.531,1,1993.1,3,0.0,same
0,116,invalid_same_bar,"[(1170, 788)]",[],[1],[0.5833333333333334],vertical,"(890.0, 262.0)",0.5,0.546,1,1999.129,3,0.0,same
0,117,valid,"[(1174, 799)]",[],[1],[0.55],horizontal,"(390.0, 762.0)",0.8833333333333333,0.505,1,2004.151,3,0.0,same
0,118,catch,"[(1165, 781)]",[],[1],[],vertical,"(890.0, 762.0)",1.7,nan,1,2010.0,3,0.0,same
0,119,catch,"[(1165, 799)]",[],[1],[],horizontal,"(390.0, 762.0)",1.7,nan,1,2015.884,3,0.0,same
0,120,valid,"[(1165, 791)]",[],[1],[0.5333333333333333],horizontal,"(890.0, 762.0)",0.5166666666666666,0.49,1,2021.866,3,0.0,same
0,121,valid,"[(1160, 777)]",[],[1],[0.5],horizontal,"(890.0, 762.0)",1.25,0.458,1,2026.933,3,0.0,same
0,122,valid,"[(1136, 779)]",[],[1],[0.5833333333333334],horizontal,"(390.0, 262.0)",0.7666666666666666,0.547,1,2033.334,3,0.0,same
0,123,valid,"[(1151, 786)]",[],[1],[0.5166666666666666],horizontal,"(390.0, 762.0)",1.2833333333333332,0.48,1,2038.597,3,0.0,same
0,124,catch,"[(1136, 818)]",[],[1],[],vertical,"(890.0, 262.0)",1.7,nan,1,2044.751,3,0.0,same
0,125,valid,"[(1146, 799)]",[],[1],[0.85],horizontal,"(890.0, 762.0)",0.8166666666666667,nan,0,2051.059,0,0.0,same
0,126,valid,"[(1132, 778)]",[],[1],[0.55],horizontal,"(390.0, 762.0)",1.4833333333333334,0.513,1,2055.837,1,0.0,same
0,127,invalid_adjacent_other_bar,"[(1160, 764)]",[],[1],[0.5333333333333333],horizontal,"(390.0, 262.0)",1.5,0.496,1,2061.5,1,0.0,other
0,128,valid,"[(1161, 798)]",[],[1],[0.7833333333333333],vertical,"(390.0, 262.0)",0.9333333333333333,0.742,1,2066.748,1,0.0,same
0,129,catch,"[(1163, 777)]",[],[1],[],vertical,"(390.0, 762.0)",1.7,nan,1,2072.1,2,0.0,same
0,130,catch,"[(1146, 786)]",[],[1],[],vertical,"(390.0, 762.0)",1.7,nan,1,2077.477,2,0.0,same
0,131,valid,"[(1172, 802)]",[],[1],[0.5333333333333333],vertical,"(890.0, 762.0)",1.15,0.497,1,2083.13,2,0.0,same
0,132,catch,"[(1172, 794)]",[],[1],[],vertical,"(390.0, 762.0)",1.7,nan,1,2089.007,2,0.0,same
0,133,valid,"[(1172, 800)]",[],[1],[0.6],horizontal,"(890.0, 762.0)",0.7166666666666667,0.555,1,2094.667,3,0.0,same
0,134,valid,"[(1160, 797)]",[],[1],[0.48333333333333334],horizontal,"(890.0, 262.0)",0.7166666666666667,0.444,1,2100.701,3,0.0,same
0,135,valid,"[(1172, 803)]",[],[1],[0.65],vertical,"(390.0, 262.0)",1.2166666666666666,0.604,1,2106.166,3,0.0,same
0,136,valid,"[(1164, 772)]",[],[1],[0.85],vertical,"(890.0, 762.0)",0.6,nan,0,2112.217,0,0.0,same
0,137,valid,"[(1158, 786)]",[],[1],[0.65],horizontal,"(890.0, 762.0)",0.55,0.611,1,2116.7,1,0.0,same
0,138,valid,"[(1156, 782)]",[],[1],[0.75],vertical,"(890.0, 762.0)",0.6166666666666667,0.701,1,2121.605,1,0.0,same
0,139,catch,"[(1160, 789)]",[],[1],[],horizontal,"(890.0, 262.0)",1.7,nan,1,2126.517,1,0.0,same
0,140,valid,"[(1141, 782)]",[],[1],[0.5333333333333333],horizontal,"(890.0, 262.0)",1.25,0.492,1,2131.751,2,0.0,same
0,141,invalid_same_bar,"[(1165, 789)]",[],[1],[0.85],horizontal,"(890.0, 262.0)",0.5333333333333333,nan,0,2137.718,0,0.0,same
0,142,catch,"[(1138, 772)]",[],[1],[],horizontal,"(890.0, 762.0)",1.7,nan,1,2141.868,1,0.0,same
0,143,valid,"[(1164, 772)]",[],[1],[0.5333333333333333],vertical,"(890.0, 262.0)",0.8333333333333334,0.495,1,2147.13,1,0.0,same
0,144,catch,"[(1171, 796)]",[],[1],[],horizontal,"(390.0, 262.0)",1.7,nan,1,2152.051,1,0.0,same
0,145,catch,"[(1175, 794)]",[],[1],[],vertical,"(390.0, 262.0)",1.7,nan,1,2157.372,2,0.0,same
0,146,valid,"[(1166, 791)]",[],[1],[0.5333333333333333],vertical,"(390.0, 262.0)",1.1666666666666667,0.491,1,2162.786,2,0.0,same
0,147,catch,"[(1175, 795)]",[],[1],[],vertical,"(390.0, 262.0)",1.7,nan,1,2168.168,2,0.0,same
0,148,valid,"[(1156, 794)]",[],[1],[0.5333333333333333],horizontal,"(890.0, 762.0)",1.4166666666666667,0.498,1,2174.185,2,0.0,same
0,149,valid,"[(1156, 801)]",[],[1],[0.48333333333333334],vertical,"(390.0, 762.0)",0.6166666666666667,0.441,1,2180.1,3,0.0,same
0,150,valid,"[(1156, 792)]",[],[1],[0.5666666666666667],vertical,"(890.0, 262.0)",1.45,0.523,1,2186.051,3,0.0,same
0,151,valid,"[(1146, 795)]",[],[1],[0.45],horizontal,"(890.0, 762.0)",1.4,0.409,1,2192.034,3,0.0,same
0,152,valid,"[(1160, 790)]",[],[1],[0.48333333333333334],horizontal,"(890.0, 262.0)",1.2333333333333334,0.442,1,2197.876,3,0.0,same
0,153,valid,"[(1133, 791)]",[],[1],[0.5833333333333334],vertical,"(390.0, 762.0)",0.8,0.536,1,2203.985,3,0.0,same
0,154,valid,"[(1160, 783)]",[],[1],[0.6333333333333333],vertical,"(390.0, 262.0)",1.0,0.592,1,2209.652,3,0.0,same
0,155,catch,"[(1131, 816)]",[],[1],[],horizontal,"(890.0, 262.0)",1.7,nan,1,2215.685,3,0.0,same
0,156,valid,"[(1143, 786)]",[],[1],[0.55],horizontal,"(390.0, 762.0)",0.9833333333333333,0.519,1,2222.985,3,0.0,same
0,157,catch,"[(1155, 771)]",[],[1],[],vertical,"(390.0, 262.0)",1.7,nan,1,2228.704,3,0.0,same
0,158,valid,"[(1157, 782)]",[],[1],[0.5333333333333333],vertical,"(890.0, 262.0)",1.0,0.484,1,2235.116,3,0.0,same
0,159,invalid_adjacent_other_bar,"[(1156, 796)]",[],[1],[0.48333333333333334],vertical,"(390.0, 262.0)",0.5333333333333333,0.448,1,2241.184,3,0.0,other
0,160,invalid_same_bar,"[(1161, 762)]",[],[1],[0.45],horizontal,"(390.0, 762.0)",1.1833333333333333,0.412,1,2246.217,3,0.0,same
0,161,valid,"[(1167, 795)]",[],[1],[0.6333333333333333],vertical,"(390.0, 262.0)",1.2833333333333332,0.589,1,2252.367,3,0.0,same
0,162,valid,"[(1162, 796)]",[],[1],[0.35],vertical,"(890.0, 762.0)",1.4666666666666666,0.309,1,2258.334,3,0.0,same
0,163,catch,"[(1166, 796)]",[],[1],[],vertical,"(890.0, 262.0)",1.7,nan,1,2264.734,3,0.0,same
0,164,catch,"[(1160, 787)]",[],[1],[],horizontal,"(390.0, 762.0)",1.7,nan,1,2270.483,3,0.0,same
0,165,catch,"[(1169, 783)]",[],[1],[],vertical,"(890.0, 762.0)",1.7,nan,1,2276.316,3,0.0,same
0,166,invalid_adjacent_other_bar,"[(1164, 797)]",[],[1],[0.5],horizontal,"(890.0, 762.0)",0.9833333333333333,0.458,1,2282.104,3,0.0,other
0,167,valid,"[(1153, 792)]",[],[1],[0.6],vertical,"(390.0, 262.0)",1.1666666666666667,0.554,1,2287.859,3,0.0,same
0,168,valid,"[(1160, 790)]",[],[1],[0.5333333333333333],horizontal,"(890.0, 262.0)",1.2333333333333334,0.495,1,2293.87,3,0.0,same
0,169,valid,"[(1160, 789)]",[],[1],[0.7333333333333333],vertical,"(390.0, 262.0)",0.6,0.688,1,2299.96,3,0.0,same
0,170,valid,"[(1161, 799)]",[],[1],[0.5],horizontal,"(390.0, 262.0)",0.6166666666666667,0.454,1,2305.866,3,0.0,same
0,171,valid,"[(1160, 794)]",[],[1],[0.5],horizontal,"(390.0, 262.0)",0.6833333333333333,0.458,1,2311.501,3,0.0,same
0,172,valid,"[(1159, 775)]",[],[1],[0.08333333333333333],horizontal,"(390.0, 762.0)",0.95,0.051,0,2317.133,0,0.0,same
0,173,valid,"[(1139, 799)]",[],[1],[0.65],horizontal,"(890.0, 762.0)",0.5166666666666666,0.612,1,2321.45,1,0.0,same
0,174,invalid_adjacent_other_bar,"[(1131, 787)]",[],[1],[0.45],horizontal,"(890.0, 262.0)",0.7,0.41,1,2326.166,1,0.0,other
0,175,valid,"[(1157, 768)]",[],[1],[0.65],vertical,"(890.0, 262.0)",0.8166666666666667,0.613,1,2331.089,1,0.0,same
0,176,catch,"[(1157, 786)]",[],[1],[],horizontal,"(390.0, 762.0)",1.7,nan,1,2335.749,2,0.0,same
0,177,valid,"[(1156, 792)]",[],[1],[0.5666666666666667],horizontal,"(390.0, 262.0)",1.3833333333333333,0.527,1,2341.162,2,0.0,same
0,178,valid,"[(1151, 792)]",[],[1],[0.5],vertical,"(390.0, 762.0)",1.3166666666666667,0.455,1,2346.8,2,0.0,same
0,179,valid,"[(1131, 835)]",[],[1],[0.31666666666666665],horizontal,"(390.0, 762.0)",1.4,0.278,1,2352.022,2,0.0,same
0,180,catch,"[(1156, 808)]",[],[1],[],vertical,"(390.0, 762.0)",1.7,nan,1,2357.603,3,0.0,same
0,181,valid,"[(1162, 805)]",[],[1],[0.4],horizontal,"(390.0, 762.0)",1.0166666666666666,0.363,1,2363.623,3,0.0,same
0,182,valid,"[(1158, 792)]",[],[1],[0.85],horizontal,"(890.0, 762.0)",0.75,nan,0,2369.4,0,0.0,same
0,183,catch,"[(1163, 772)]",[],[1],[],vertical,"(890.0, 262.0)",1.7,nan,1,2373.906,1,0.0,same
0,184,invalid_same_bar,"[(1155, 775)]",[],[1],[0.55],vertical,"(390.0, 762.0)",1.0666666666666667,0.509,1,2379.301,1,0.0,same
0,185,valid,"[(1161, 812)]",[],[1],[0.16666666666666666],horizontal,"(890.0, 762.0)",1.3833333333333333,0.134,0,2384.461,0,0.0,same
0,186,invalid_adjacent_other_bar,"[(1155, 791)]",[],[1],[0.5666666666666667],horizontal,"(890.0, 762.0)",0.35,0.528,1,2389.601,1,0.0,other
0,187,catch,"[(1156, 773)]",[],[1],[],horizontal,"(890.0, 262.0)",1.7,nan,1,2393.718,1,0.0,same
0,188,valid,"[(1171, 779)]",[],[1],[0.6666666666666666],horizontal,"(890.0, 762.0)",0.75,0.629,1,2398.846,1,0.0,same
0,189,valid,"[(1161, 804)]",[],[1],[0.55],horizontal,"(390.0, 262.0)",0.48333333333333334,0.52,1,2403.346,2,0.0,same
0,190,invalid_same_bar,"[(1169, 799)]",[],[1],[0.5666666666666667],horizontal,"(890.0, 762.0)",1.05,0.524,1,2408.567,2,0.0,same
0,191,catch,"[(1136, 789)]",[],[1],[],vertical,"(890.0, 262.0)",1.7,nan,1,2414.002,2,0.0,same
0,192,invalid_adjacent_other_bar,"[(1160, 808)]",[],[1],[0.45],horizontal,"(890.0, 762.0)",1.3,0.407,1,2419.263,2,0.0,other
0,193,invalid_adjacent_other_bar,"[(1161, 811)]",[],[1],[0.7666666666666666],vertical,"(890.0, 262.0)",1.0333333333333332,0.726,1,2425.457,3,0.0,other
0,194,valid,"[(1160, 793)]",[],[1],[0.85],horizontal,"(890.0, 762.0)",0.6166666666666667,nan,0,2432.101,0,0.0,same
0,195,valid,"[(1132, 787)]",[],[1],[0.5166666666666666],vertical,"(890.0, 262.0)",0.6833333333333333,0.481,1,2436.474,1,0.0,same
0,196,invalid_same_bar,"[(1155, 769)]",[],[1],[0.6666666666666666],vertical,"(390.0, 762.0)",0.8833333333333333,0.622,1,2441.318,1,0.0,same
0,197,valid,"[(1175, 788)]",[],[1],[0.5833333333333334],horizontal,"(390.0, 762.0)",0.45,0.544,1,2446.161,1,0.0,same
0,198,valid,"[(1157, 805)]",[],[1],[0.45],horizontal,"(390.0, 762.0)",1.3166666666666667,0.413,1,2450.734,2,0.0,same
0,199,invalid_same_bar,"[(1154, 791)]",[],[1],[0.5833333333333334],vertical,"(390.0, 762.0)",1.4,0.541,1,2456.568,2,0.0,same
0,200,valid,"[(1160, 808)]",[],[1],[0.5833333333333334],vertical,"(390.0, 762.0)",1.1666666666666667,0.546,1,2462.418,2,0.0,same
0,201,valid,"[(1176, 769)]",[],[1],[0.55],horizontal,"(390.0, 762.0)",1.2,0.506,1,2468.199,2,0.0,same
0,202,catch,"[(1181, 781)]",[],[1],[],vertical,"(890.0, 762.0)",1.7,nan,1,2473.952,3,0.0,same
0,203,catch,"[(1159, 806)]",[],[1],[],horizontal,"(890.0, 762.0)",1.7,nan,1,2480.084,3,0.0,same
0,204,catch,"[(1165, 786)]",[],[1],[],horizontal,"(390.0, 762.0)",,"('cti', 1.62),nan",0,2486.051,0,0.02,same
0,205,catch,"[(1146, 806)]",[],[1],[],horizontal,"(890.0, 262.0)",1.7,nan,1,2490.797,1,0.02,same
0,206,valid,"[(1157, 791)]",[],[1],[0.5333333333333333],vertical,"(890.0, 262.0)",0.9833333333333333,0.492,1,2496.323,1,0.02,same
0,207,valid,"[(1161, 785)]",[],[1],[0.55],vertical,"(890.0, 262.0)",1.4,0.509,1,2501.401,1,0.02,same
0,208,invalid_adjacent_other_bar,"[(1150, 779)]",[],[1],[0.5166666666666666],vertical,"(890.0, 262.0)",0.95,0.476,1,2506.717,2,0.02,other
0,209,catch,"[(1159, 799)]",[],[1],[],vertical,"(890.0, 262.0)",1.7,nan,1,2512.034,2,0.02,same
0,210,invalid_same_bar,"[(1159, 799)]",[],[1],[0.5333333333333333],horizontal,"(390.0, 262.0)",0.9333333333333333,0.495,1,2517.416,2,0.02,same
0,211,valid,"[(1157, 803)]",[],[1],[0.5166666666666666],vertical,"(890.0, 262.0)",1.4,0.474,1,2522.85,2,0.02,same
0,212,catch,"[(1162, 799)]",[],[1],[],vertical,"(890.0, 762.0)",1.7,nan,1,2528.408,3,0.02,same
0,213,catch,"[(1162, 791)]",[],[1],[],vertical,"(390.0, 762.0)",1.7,nan,1,2534.169,3,0.02,same
0,214,valid,"[(1160, 790)]",[],[1],[0.5],horizontal,"(890.0, 762.0)",1.35,0.468,1,2539.951,3,0.02,same
0,215,valid,"[(1155, 801)]",[],[1],[0.85],horizontal,"(390.0, 762.0)",1.3,nan,0,2546.343,0,0.02,same
0,216,valid,"[(1105, 842)]",[],[1],[0.5666666666666667],horizontal,"(890.0, 762.0)",0.5666666666666667,0.52,1,2551.439,1,0.02,same
0,217,valid,"[(1158, 791)]",[],[1],[0.85],vertical,"(890.0, 762.0)",1.1833333333333333,nan,0,2770.41,0,0.02,same
0,218,valid,"[(1087, 835)]",[],[1],[0.55],horizontal,"(390.0, 262.0)",0.75,0.508,1,2775.819,1,0.02,same
0,219,valid,"[(1176, 805)]",[],[1],[0.5333333333333333],horizontal,"(390.0, 762.0)",1.0333333333333332,0.49,1,2783.93,1,0.02,same
0,220,catch,"[(1160, 782)]",[],[1],[],horizontal,"(390.0, 262.0)",1.7,nan,1,2789.106,1,0.02,same
0,221,valid,"[(1161, 791)]",[],[1],[0.6666666666666666],horizontal,"(890.0, 762.0)",0.75,0.623,1,2794.379,2,0.02,same
0,222,valid,"[(1166, 803)]",[],[1],[0.4666666666666667],vertical,"(390.0, 262.0)",1.35,0.426,1,2800.254,2,0.02,same
0,223,valid,"[(1177, 802)]",[],[1],[0.43333333333333335],horizontal,"(390.0, 262.0)",1.3333333333333333,0.4,1,2806.085,2,0.02,same
0,224,catch,"[(1158, 816)]",[],[1],[],horizontal,"(890.0, 762.0)",1.7,nan,1,2811.884,2,0.02,same
0,225,valid,"[(1166, 817)]",[],[1],[0.7],vertical,"(390.0, 762.0)",0.7,0.664,1,2817.402,3,0.02,same
0,226,catch,"[(1163, 800)]",[],[1],[],vertical,"(890.0, 262.0)",1.7,nan,1,2823.377,3,0.02,same
0,227,valid,"[(1165, 795)]",[],[1],[0.5666666666666667],horizontal,"(890.0, 262.0)",0.9,0.52,1,2829.317,3,0.02,same
0,228,invalid_same_bar,"[(1159, 797)]",[],[1],[0.5833333333333334],vertical,"(890.0, 262.0)",0.8833333333333333,0.541,1,2834.736,3,0.02,same
0,229,valid,"[(1176, 799)]",[],[1],[0.5166666666666666],vertical,"(890.0, 262.0)",1.2666666666666666,0.472,1,2839.984,3,0.02,same
0,230,valid,"[(1167, 787)]",[],[1],[0.45],horizontal,"(390.0, 762.0)",0.35,0.408,1,2845.651,3,0.02,same
0,231,valid,"[(1193, 795)]","[(1167, 844)]",[1],[0.0],horizontal,"(390.0, 262.0)",,"('bar', 0.017)",0,2850.615,0,0.02,same
0,232,valid,"[(1126, 813)]",[],[1],[0.4666666666666667],vertical,"(890.0, 262.0)",1.2,0.431,1,2852.857,1,0.02,same
0,233,valid,"[(1172, 807)]",[],[1],[0.4666666666666667],horizontal,"(890.0, 262.0)",1.1333333333333333,0.427,1,2857.762,1,0.02,same
0,234,valid,"[(1169, 791)]",[],[1],[0.5333333333333333],vertical,"(390.0, 262.0)",1.1166666666666667,0.495,1,2862.678,1,0.02,same
0,235,valid,"[(1162, 792)]",[],[1],[0.55],horizontal,"(890.0, 762.0)",0.4666666666666667,0.501,1,2867.836,2,0.02,same
0,236,valid,"[(1175, 793)]",[],[1],[0.48333333333333334],horizontal,"(890.0, 762.0)",1.0666666666666667,0.448,1,2872.536,2,0.02,same
0,237,valid,"[(1175, 785)]",[],[1],[0.4666666666666667],horizontal,"(390.0, 762.0)",1.3666666666666667,0.43,1,2877.901,2,0.02,same
0,238,valid,"[(1160, 789)]",[],[1],[0.5666666666666667],horizontal,"(390.0, 762.0)",0.55,0.524,1,2883.242,2,0.02,same
0,239,valid,"[(1175, 801)]",[],[1],[0.48333333333333334],vertical,"(390.0, 762.0)",1.3833333333333333,0.44,1,2887.924,3,0.02,same
0,240,valid,"[(1160, 795)]",[],[1],[0.7333333333333333],vertical,"(390.0, 262.0)",1.0833333333333333,0.692,1,2894.589,3,0.02,same
0,241,valid,"[(1144, 799)]",[],[1],[0.48333333333333334],vertical,"(890.0, 762.0)",0.4666666666666667,0.45,1,2900.775,3,0.02,same
0,242,invalid_adjacent_other_bar,"[(1160, 785)]",[],[1],[0.5],vertical,"(390.0, 262.0)",1.3666666666666667,0.464,1,2906.278,3,0.02,other
0,243,valid,"[(1172, 782)]",[],[1],[0.5],horizontal,"(390.0, 762.0)",1.1666666666666667,0.459,1,2912.55,3,0.02,same
0,244,valid,"[(1158, 785)]",[],[1],[0.6166666666666667],vertical,"(890.0, 262.0)",0.5833333333333334,0.574,1,2918.75,3,0.02,same
0,245,valid,"[(1159, 782)]",[],[1],[0.5333333333333333],vertical,"(890.0, 262.0)",0.3833333333333333,0.49,1,2924.318,3,0.02,same
0,246,catch,"[(1156, 792)]",[],[1],[],horizontal,"(890.0, 262.0)",,"('cti', 0.423),nan",0,2929.565,0,0.04,same
0,247,valid,"[(1160, 792)]",[],[1],[0.48333333333333334],horizontal,"(390.0, 262.0)",0.6166666666666667,0.44,1,2933.018,1,0.04,same
0,248,valid,"[(1169, 791)]",[],[1],[0.85],vertical,"(390.0, 762.0)",0.43333333333333335,nan,0,2937.236,0,0.04,same
0,249,valid,"[(1141, 772)]",[],[1],[0.65],horizontal,"(890.0, 762.0)",0.9666666666666667,0.607,1,2941.335,1,0.04,same
0,250,valid,"[(1176, 785)]",[],[1],[0.5166666666666666],vertical,"(390.0, 762.0)",1.3,0.479,1,2946.834,1,0.04,same
0,251,invalid_adjacent_other_bar,"[(1162, 796)]",[],[1],[0.3833333333333333],horizontal,"(890.0, 262.0)",1.3833333333333333,0.346,1,2952.37,1,0.04,other
0,252,catch,"[(1175, 785)]",[],[1],[],vertical,"(390.0, 262.0)",,"('cti', 1.485),nan",0,2957.792,0,0.06,same
0,253,valid,"[(1175, 768)]",[],[1],[0.5],horizontal,"(390.0, 762.0)",1.2166666666666666,0.457,1,2962.503,1,0.06,same
0,254,valid,"[(1156, 779)]",[],[1],[0.5],vertical,"(890.0, 262.0)",0.7833333333333333,0.458,1,2967.902,1,0.04,same
0,255,valid,"[(1177, 785)]",[],[1],[0.6166666666666667],vertical,"(890.0, 262.0)",1.3833333333333333,0.576,1,2972.611,1,0.04,same
0,256,invalid_same_bar,"[(1174, 785)]",[],[1],[0.85],vertical,"(390.0, 762.0)",0.8666666666666667,nan,0,2977.701,0,0.04,same
0,257,valid,"[(1149, 777)]",[],[1],[0.6],vertical,"(390.0, 262.0)",0.7,0.556,1,2982.635,1,0.04,same
0,258,valid,"[(1159, 781)]",[],[1],[0.85],horizontal,"(390.0, 762.0)",0.6,nan,0,2987.618,0,0.04,same
0,259,catch,"[(1146, 776)]",[],[1],[],vertical,"(390.0, 262.0)",1.7,nan,1,2992.185,1,0.04,same
0,260,valid,"[(1159, 787)]",[],[1],[0.45],horizontal,"(890.0, 262.0)",0.85,0.417,1,2997.418,1,0.04,same
0,261,valid,"[(1163, 795)]",[],[1],[0.7166666666666667],vertical,"(390.0, 762.0)",0.4666666666666667,0.672,1,3002.222,1,0.04,same
0,262,valid,"[(1175, 787)]",[],[1],[0.85],vertical,"(390.0, 762.0)",1.0166666666666666,nan,0,3006.584,0,0.04,same
0,263,invalid_same_bar,"[(1141, 792)]",[],[1],[0.5166666666666666],horizontal,"(390.0, 762.0)",0.35,0.484,1,3011.636,1,0.04,same
0,264,valid,"[(1168, 816)]",[],[1],[0.6166666666666667],vertical,"(890.0, 262.0)",1.4166666666666667,0.58,1,3016.203,1,0.04,same
0,265,valid,"[(1172, 796)]",[],[1],[0.5666666666666667],vertical,"(390.0, 262.0)",0.8166666666666667,0.524,1,3022.319,1,0.04,same
0,266,valid,"[(1166, 778)]",[],[1],[0.55],vertical,"(390.0, 262.0)",1.0666666666666667,0.508,1,3027.285,2,0.04,same
0,267,valid,"[(1158, 786)]",[],[1],[0.5166666666666666],horizontal,"(390.0, 262.0)",0.9666666666666667,0.479,1,3032.453,2,0.04,same
0,268,valid,"[(1173, 793)]",[],[1],[0.7333333333333333],horizontal,"(890.0, 762.0)",1.1,0.689,1,3037.553,2,0.04,same
0,269,valid,"[(1156, 783)]",[],[1],[0.5833333333333334],vertical,"(890.0, 262.0)",1.1333333333333333,0.544,1,3043.268,2,0.04,same
0,270,valid,"[(1174, 790)]",[],[1],[0.5],horizontal,"(390.0, 762.0)",1.3333333333333333,0.458,1,3048.753,3,0.04,same
0,271,valid,"[(1162, 794)]",[],[1],[0.4666666666666667],vertical,"(890.0, 262.0)",1.55,0.429,1,3055.353,3,0.04,same
0,272,catch,"[(1159, 792)]",[],[1],[],horizontal,"(390.0, 762.0)",1.7,nan,1,3061.424,3,0.04,same
0,273,invalid_adjacent_other_bar,"[(1158, 760)]",[],[1],[0.5833333333333334],vertical,"(390.0, 262.0)",0.8833333333333333,0.541,1,3067.622,3,0.04,other
0,274,valid,"[(1151, 772)]",[],[1],[0.6333333333333333],horizontal,"(890.0, 762.0)",0.7833333333333333,0.596,1,3073.468,3,0.04,same
0,275,valid,"[(1161, 773)]",[],[1],[0.8],horizontal,"(890.0, 762.0)",1.05,0.751,1,3078.836,3,0.04,same
0,276,catch,"[(1132, 772)]",[],[1],[],horizontal,"(890.0, 762.0)",1.7,nan,1,3084.878,3,0.04,same
0,277,valid,"[(1162, 782)]",[],[1],[0.4666666666666667],horizontal,"(890.0, 262.0)",0.36666666666666664,0.423,1,3090.808,3,0.04,same
0,278,invalid_same_bar,"[(1165, 786)]",[],[1],[0.65],vertical,"(890.0, 262.0)",1.35,0.611,1,3095.601,3,0.04,same
0,279,valid,"[(1159, 796)]",[],[1],[0.6],vertical,"(390.0, 762.0)",1.1,0.557,1,3101.518,3,0.04,same
0,280,valid,"[(1161, 775)]",[],[1],[0.48333333333333334],vertical,"(390.0, 762.0)",0.7666666666666666,0.442,1,3107.79,3,0.04,same
0,281,valid,"[(1159, 783)]",[],[1],[0.2],horizontal,"(890.0, 262.0)",1.4833333333333334,0.167,0,3113.136,0,0.04,same
0,282,valid,"[(1136, 791)]",[],[1],[0.5166666666666666],horizontal,"(890.0, 262.0)",0.8,0.474,1,3118.028,1,0.04,same
0,283,valid,"[(1169, 783)]",[],[1],[0.6166666666666667],horizontal,"(390.0, 262.0)",1.2666666666666666,0.571,1,3122.485,1,0.04,same
0,284,catch,"[(1160, 791)]",[],[1],[],vertical,"(890.0, 262.0)",1.7,nan,1,3127.586,1,0.04,same
0,285,catch,"[(1158, 789)]",[],[1],[],horizontal,"(890.0, 762.0)",1.7,nan,1,3132.853,2,0.04,same
0,286,catch,"[(1174, 786)]",[],[1],[],vertical,"(390.0, 762.0)",1.7,nan,1,3138.636,2,0.04,same
0,287,valid,"[(1147, 779)]",[],[1],[0.6333333333333333],horizontal,"(390.0, 262.0)",0.4,0.592,1,3144.386,2,0.04,same
0,288,valid,"[(1166, 820)]",[],[1],[0.7833333333333333],horizontal,"(890.0, 762.0)",1.0666666666666667,0.732,1,3149.251,2,0.04,same
0,289,valid,"[(1151, 800)]",[],[1],[0.5833333333333334],vertical,"(390.0, 762.0)",0.5666666666666667,0.539,1,3155.001,3,0.04,same
0,290,valid,"[(1167, 795)]",[],[1],[0.48333333333333334],horizontal,"(890.0, 262.0)",0.45,0.438,1,3160.556,3,0.04,same
0,291,valid,"[(1159, 783)]",[],[1],[0.5833333333333334],vertical,"(890.0, 262.0)",1.3166666666666667,0.532,1,3165.436,3,0.04,same
0,292,catch,"[(1176, 797)]",[],[1],[],vertical,"(890.0, 262.0)",1.7,nan,1,3171.762,3,0.04,same
0,293,valid,"[(1161, 767)]",[],[1],[0.5166666666666666],horizontal,"(890.0, 762.0)",1.3666666666666667,0.471,1,3177.544,3,0.04,same
0,294,catch,"[(1160, 791)]",[],[1],[],vertical,"(390.0, 762.0)",1.7,nan,1,3183.299,3,0.04,same
0,295,valid,"[(1173, 791)]",[],[1],[0.5],horizontal,"(390.0, 762.0)",1.3666666666666667,0.463,1,3189.248,3,0.04,same
0,296,valid,"[(1161, 775)]",[],[1],[0.7],vertical,"(390.0, 262.0)",0.5666666666666667,0.654,1,3195.152,3,0.02,same
0,297,invalid_same_bar,"[(1177, 799)]",[],[1],[0.5],horizontal,"(890.0, 262.0)",1.1333333333333333,0.456,1,3200.652,3,0.02,same
0,298,valid,"[(1161, 791)]",[],[1],[0.6333333333333333],vertical,"(390.0, 262.0)",0.4666666666666667,0.589,1,3206.441,3,0.02,same
0,299,catch,"[(1160, 792)]",[],[1],[],horizontal,"(390.0, 262.0)",,"('cti', 1.638),nan",0,3211.872,0,0.04,same
0,300,valid,"[(1131, 791)]",[],[1],[0.7833333333333333],vertical,"(390.0, 262.0)",0.8666666666666667,0.736,1,3216.278,1,0.04,same
0,301,valid,"[(1170, 791)]",[],[1],[0.55],vertical,"(390.0, 762.0)",1.15,0.505,1,3221.835,1,0.04,same
0,302,valid,"[(1155, 770)]",[],[1],[0.6666666666666666],horizontal,"(890.0, 262.0)",0.36666666666666664,0.624,1,3226.97,1,0.02,same
0,303,invalid_same_bar,"[(1160, 791)]",[],[1],[0.55],vertical,"(390.0, 762.0)",1.25,0.508,1,3231.69,2,0.02,same
0,304,catch,"[(1172, 798)]",[],[1],[],vertical,"(390.0, 762.0)",1.7,nan,1,3237.54,2,0.02,same
0,305,catch,"[(1166, 806)]",[],[1],[],vertical,"(890.0, 762.0)",1.7,nan,1,3243.446,2,0.02,same
0,306,invalid_adjacent_other_bar,"[(1175, 794)]",[],[1],[0.65],vertical,"(390.0, 262.0)",1.5,0.604,1,3248.956,2,0.02,other
0,307,catch,"[(1175, 805)]",[],[1],[],vertical,"(890.0, 262.0)",1.7,nan,1,3254.986,3,0.02,same
0,308,valid,"[(1160, 783)]",[],[1],[0.6833333333333333],vertical,"(890.0, 262.0)",1.4,0.643,1,3260.921,3,0.02,same
0,309,valid,"[(1175, 798)]",[],[1],[0.55],horizontal,"(890.0, 762.0)",0.3833333333333333,0.516,1,3266.786,3,0.02,same
0,310,catch,"[(1166, 782)]",[],[1],[],vertical,"(390.0, 762.0)",1.7,nan,1,3271.959,3,0.02,same
0,311,valid,"[(1161, 798)]",[],[1],[0.5333333333333333],vertical,"(890.0, 262.0)",1.4,0.495,1,3278.179,3,0.02,same
0,312,valid,"[(1161, 796)]",[],[1],[0.4666666666666667],horizontal,"(890.0, 262.0)",0.7166666666666667,0.428,1,3284.508,3,0.02,same
0,313,catch,"[(1173, 787)]",[],[1],[],horizontal,"(390.0, 762.0)",1.7,nan,1,3290.269,3,0.02,same
0,314,valid,"[(1159, 782)]",[],[1],[0.55],vertical,"(390.0, 262.0)",1.4,0.505,1,3296.236,3,0.02,same
0,315,catch,"[(1161, 790)]",[],[1],[],vertical,"(890.0, 762.0)",1.7,nan,1,3302.752,3,0.02,same
0,316,valid,"[(1148, 785)]",[],[1],[0.4666666666666667],vertical,"(390.0, 262.0)",0.5166666666666666,0.427,1,3308.537,3,0.02,same
0,317,catch,"[(1159, 778)]",[],[1],[],horizontal,"(390.0, 262.0)",1.7,nan,1,3313.435,3,0.02,same
0,318,valid,"[(1177, 782)]",[],[1],[0.5],vertical,"(890.0, 762.0)",0.4666666666666667,0.458,1,3319.835,3,0.02,same
0,319,catch,"[(1166, 763)]",[],[1],[],vertical,"(890.0, 762.0)",1.7,nan,1,3324.886,3,0.02,same
0,320,invalid_same_bar,"[(1161, 778)]",[],[1],[0.45],horizontal,"(390.0, 762.0)",1.4166666666666667,0.42,1,3331.04,3,0.02,same
0,321,valid,"[(1155, 769)]",[],[1],[0.48333333333333334],vertical,"(390.0, 762.0)",0.48333333333333334,0.445,1,3337.402,3,0.02,same
0,322,catch,"[(1158, 795)]",[],[1],[],vertical,"(390.0, 262.0)",1.7,nan,1,3342.514,3,0.02,same
0,323,valid,"[(1171, 788)]",[],[1],[0.6166666666666667],vertical,"(890.0, 762.0)",0.8833333333333333,0.575,1,3348.813,3,0.02,same
0,324,catch,"[(1148, 777)]",[],[1],[],vertical,"(890.0, 762.0)",1.7,nan,1,3354.657,3,0.02,same
0,325,catch,"[(1171, 790)]",[],[1],[],vertical,"(390.0, 262.0)",1.7,nan,1,3360.985,3,0.02,same
0,326,valid,"[(1159, 804)]",[],[1],[0.5333333333333333],horizontal,"(890.0, 762.0)",1.2333333333333334,0.499,1,3366.534,3,0.02,same
0,327,valid,"[(1176, 792)]",[],[1],[0.65],horizontal,"(890.0, 262.0)",0.9666666666666667,0.616,1,3372.458,3,0.02,same
0,328,valid,"[(1175, 777)]",[],[1],[0.48333333333333334],vertical,"(390.0, 262.0)",0.6833333333333333,0.443,1,3378.336,3,0.02,same
0,329,valid,"[(1146, 786)]",[],[1],[0.65],vertical,"(390.0, 262.0)",0.8333333333333334,0.607,1,3383.52,3,0.02,same
0,330,catch,"[(1146, 832)]",[],[1],[],vertical,"(890.0, 762.0)",1.7,nan,1,3389.369,3,0.02,same
0,331,catch,"[(1164, 793)]",[],[1],[],vertical,"(390.0, 762.0)",1.7,nan,1,3395.642,3,0.02,same
0,332,valid,"[(1158, 786)]",[],[1],[0.5],horizontal,"(890.0, 762.0)",1.1666666666666667,0.46,1,3401.298,3,0.02,same
0,333,valid,"[(1160, 783)]",[],[1],[0.45],horizontal,"(890.0, 262.0)",0.43333333333333335,0.409,1,3407.402,3,0.02,same
0,334,valid,"[(1157, 783)]",[],[1],[0.48333333333333334],vertical,"(890.0, 262.0)",1.4,0.443,1,3412.477,3,0.02,same
0,335,valid,"[(1168, 782)]",[],[1],[0.6166666666666667],horizontal,"(890.0, 762.0)",1.1166666666666667,0.578,1,3418.373,3,0.02,same
0,336,valid,"[(1165, 791)]",[],[1],[0.5333333333333333],vertical,"(890.0, 262.0)",0.5833333333333334,0.498,1,3424.562,3,0.02,same
0,337,invalid_same_bar,"[(1160, 786)]",[],[1],[0.6],vertical,"(890.0, 762.0)",0.6,0.559,1,3430.218,3,0.02,same
0,338,valid,"[(1161, 786)]",[],[1],[0.75],horizontal,"(390.0, 262.0)",1.0166666666666666,0.708,1,3435.472,3,0.02,same
0,339,valid,"[(1168, 798)]",[],[1],[0.6333333333333333],vertical,"(390.0, 762.0)",0.65,0.587,1,3441.503,3,0.02,same
0,340,valid,"[(1168, 779)]",[],[1],[0.45],vertical,"(890.0, 262.0)",0.6166666666666667,0.413,1,3447.403,3,0.02,same
0,341,invalid_adjacent_other_bar,"[(1170, 778)]",[],[1],[0.48333333333333334],vertical,"(390.0, 262.0)",0.43333333333333335,0.447,1,3453.305,3,0.02,other
0,342,valid,"[(1157, 779)]",[],[1],[0.31666666666666665],horizontal,"(890.0, 262.0)",1.45,0.282,1,3458.752,3,0.02,same
0,343,valid,"[(1175, 793)]",[],[1],[0.4666666666666667],horizontal,"(390.0, 762.0)",1.4166666666666667,0.431,1,3464.987,3,0.02,same
0,344,valid,"[(1161, 770)]",[],[1],[0.5166666666666666],vertical,"(390.0, 262.0)",1.1166666666666667,0.483,1,3470.717,3,0.02,same
0,345,invalid_same_bar,"[(1174, 797)]",[],[1],[0.45],horizontal,"(890.0, 262.0)",1.0833333333333333,0.413,1,3476.203,3,0.02,same
0,346,valid,"[(1157, 773)]",[],[1],[0.55],vertical,"(390.0, 262.0)",1.0,0.517,1,3481.702,3,0.02,same
0,347,catch,"[(1161, 782)]",[],[1],[],horizontal,"(890.0, 262.0)",,"('cti', 1.575),nan",0,3487.956,0,0.04,same
0,348,valid,"[(1156, 792)]",[],[1],[0.5166666666666666],vertical,"(890.0, 762.0)",0.9333333333333333,0.477,1,3492.675,1,0.04,same
0,349,valid,"[(1176, 792)]",[],[1],[0.5333333333333333],vertical,"(890.0, 262.0)",1.2,0.49,1,3497.194,1,0.02,same
0,350,invalid_adjacent_other_bar,"[(1171, 781)]",[],[1],[0.35],vertical,"(890.0, 262.0)",1.25,0.313,1,3502.818,1,0.02,other
0,351,invalid_adjacent_other_bar,"[(1165, 773)]",[],[1],[0.5833333333333334],horizontal,"(390.0, 762.0)",1.0166666666666666,0.537,1,3508.035,2,0.02,other
0,352,valid,"[(1106, 844)]",[],[1],[0.85],vertical,"(390.0, 762.0)",0.36666666666666664,nan,0,3513.703,0,0.02,same
0,353,valid,"[(1126, 820)]",[],[1],[0.6333333333333333],horizontal,"(390.0, 262.0)",0.9166666666666666,0.592,1,3518.602,1,0.02,same
0,354,valid,"[(1136, 815)]",[],[1],[0.5333333333333333],vertical,"(890.0, 762.0)",0.5333333333333333,0.49,1,3524.152,1,0.02,same
0,355,valid,"[(1159, 787)]",[],[1],[0.55],horizontal,"(890.0, 262.0)",0.48333333333333334,0.517,1,3529.035,1,0.02,same
0,356,catch,"[(1166, 791)]",[],[1],[],horizontal,"(390.0, 262.0)",,"('cti', 0.906),nan",0,3533.613,0,0.04,same
0,357,valid,"[(1121, 821)]",[],[1],[0.45],vertical,"(390.0, 262.0)",1.45,0.409,1,3537.786,1,0.04,same
0,358,catch,"[(1176, 779)]",[],[1],[],horizontal,"(390.0, 262.0)",1.7,nan,1,3543.036,1,0.04,same
0,359,catch,"[(1171, 800)]",[],[1],[],horizontal,"(390.0, 262.0)",1.7,nan,1,3548.664,1,0.04,same
0,360,valid,"[(1161, 791)]",[],[1],[],horizontal,"(890.0, 762.0)",,"('cti', 0.538)",0,3553.868,0,0.04,same
0,361,catch,"[(1156, 787)]",[],[1],[],horizontal,"(890.0, 762.0)",1.7,nan,1,3557.703,1,0.04,same
0,362,valid,"[(1173, 790)]",[],[1],[0.5],horizontal,"(390.0, 762.0)",0.9166666666666666,0.461,1,3563.053,1,0.04,same
0,363,catch,"[(1170, 803)]",[],[1],[],vertical,"(390.0, 762.0)",1.7,nan,1,3568.021,1,0.04,same
0,364,valid,"[(1174, 771)]",[],[1],[0.75],vertical,"(390.0, 762.0)",1.1666666666666667,0.701,1,3573.336,2,0.04,same
0,365,valid,"[(1166, 770)]",[],[1],[0.85],horizontal,"(890.0, 762.0)",0.7333333333333333,nan,0,3578.953,0,0.04,same
0,366,catch,"[(1144, 771)]",[],[1],[],horizontal,"(390.0, 762.0)",1.7,nan,1,3583.369,1,0.04,same
0,367,valid,"[(1175, 791)]",[],[1],[0.5833333333333334],horizontal,"(390.0, 762.0)",0.6333333333333333,0.542,1,3588.453,1,0.04,same
0,368,valid,"[(1175, 791)]",[],[1],[0.5333333333333333],vertical,"(390.0, 262.0)",0.48333333333333334,0.498,1,3593.002,1,0.04,same
0,369,catch,"[(1146, 796)]",[],[1],[],vertical,"(390.0, 762.0)",1.7,nan,1,3597.136,2,0.04,same
0,370,invalid_same_bar,"[(1147, 799)]",[],[1],[0.48333333333333334],vertical,"(890.0, 262.0)",0.5166666666666666,0.441,1,3602.686,2,0.04,same
0,371,catch,"[(1175, 784)]",[],[1],[],vertical,"(890.0, 762.0)",1.7,nan,1,3607.782,2,0.04,same
0,372,invalid_adjacent_other_bar,"[(1156, 796)]",[],[1],[0.85],vertical,"(390.0, 262.0)",1.1,nan,0,3613.204,0,0.04,other
0,373,valid,"[(1158, 771)]",[],[1],[0.45],vertical,"(890.0, 262.0)",0.3833333333333333,0.409,1,3618.161,1,0.04,same
0,374,valid,"[(1161, 789)]",[],[1],[0.5166666666666666],horizontal,"(890.0, 262.0)",1.15,0.479,1,3622.304,1,0.04,same
0,375,invalid_same_bar,"[(1081, 885)]",[],[1],[0.16666666666666666],horizontal,"(890.0, 762.0)",1.4,0.133,0,3627.086,0,0.04,same
0,376,valid,"[(1160, 781)]",[],[1],[0.6333333333333333],vertical,"(890.0, 762.0)",1.5,0.589,1,3632.162,1,0.04,same
0,377,valid,"[(1118, 812)]",[],[1],[0.65],horizontal,"(890.0, 262.0)",0.5333333333333333,0.603,1,3637.546,1,0.04,same
0,378,valid,"[(1163, 777)]",[],[1],[],vertical,"(390.0, 262.0)",,"('cti', 1.44)",0,3672.887,0,0.04,same
0,379,valid,"[(1160, 799)]",[],[1],[0.6],vertical,"(890.0, 262.0)",0.5666666666666667,0.556,1,3677.678,1,0.04,same
0,380,catch,"[(1159, 770)]",[],[1],[],vertical,"(390.0, 262.0)",1.7,nan,1,3682.102,1,0.04,same
0,381,invalid_adjacent_other_bar,"[(1174, 773)]",[],[1],[0.5166666666666666],horizontal,"(390.0, 762.0)",0.36666666666666664,0.471,1,3687.094,1,0.04,other
0,382,valid,"[(1206, 795)]",[],[1],[0.36666666666666664],vertical,"(390.0, 762.0)",1.3166666666666667,0.332,1,3691.602,2,0.04,same
0,383,valid,"[(1171, 776)]",[],[1],[0.7333333333333333],vertical,"(390.0, 262.0)",1.3166666666666667,0.689,1,3697.375,2,0.04,same
0,384,valid,"[(1179, 801)]",[],[1],[0.6333333333333333],vertical,"(390.0, 762.0)",0.4666666666666667,0.589,1,3703.076,2,0.04,same
0,385,catch,"[(1160, 785)]",[],[1],[],horizontal,"(390.0, 762.0)",1.7,nan,1,3708.136,2,0.04,same
0,386,valid,"[(1174, 799)]",[],[1],[0.6666666666666666],horizontal,"(390.0, 762.0)",1.25,0.626,1,3714.04,3,0.04,same
0,387,valid,"[(1172, 791)]",[],[1],[0.5],horizontal,"(390.0, 762.0)",0.7,0.458,1,3720.152,3,0.04,same
0,388,valid,"[(1175, 807)]",[],[1],[0.5833333333333334],vertical,"(390.0, 262.0)",0.85,0.538,1,3725.748,3,0.04,same
0,389,invalid_same_bar,"[(1166, 791)]",[],[1],[0.85],vertical,"(890.0, 262.0)",1.4666666666666666,nan,0,3731.639,0,0.04,same
0,390,valid,"[(1142, 806)]",[],[1],[0.4666666666666667],vertical,"(390.0, 262.0)",0.55,0.428,1,3736.929,1,0.04,same
0,391,valid,"[(1161, 776)]",[],[1],[0.5833333333333334],horizontal,"(390.0, 762.0)",0.3833333333333333,0.54,1,3741.411,1,0.04,same
0,392,valid,"[(1202, 773)]",[],[1],[0.6333333333333333],vertical,"(890.0, 262.0)",1.1333333333333333,0.591,1,3745.437,1,0.04,same
0,393,valid,"[(1160, 782)]",[],[1],[0.85],horizontal,"(390.0, 262.0)",1.3,nan,0,3750.922,0,0.04,same
0,394,catch,"[(1151, 781)]",[],[1],[],horizontal,"(890.0, 262.0)",1.7,nan,1,3755.627,1,0.04,same
0,395,valid,"[(1153, 785)]",[],[1],[0.6166666666666667],horizontal,"(890.0, 762.0)",0.5833333333333334,0.576,1,3760.473,1,0.04,same
0,396,valid,"[(1161, 798)]",[],[1],[0.5166666666666666],vertical,"(390.0, 262.0)",1.45,0.476,1,3764.706,1,0.04,same
0,397,invalid_same_bar,"[(1174, 772)]",[],[1],[0.6],horizontal,"(890.0, 262.0)",0.85,0.559,1,3770.337,2,0.02,same
0,398,invalid_adjacent_other_bar,"[(1170, 811)]",[],[1],[0.48333333333333334],vertical,"(390.0, 762.0)",0.7833333333333333,0.443,1,3775.752,2,0.02,other
0,399,catch,"[(1174, 802)]",[],[1],[],horizontal,"(890.0, 762.0)",1.7,nan,1,3780.549,2,0.02,same
0,400,catch,"[(1156, 791)]",[],[1],[],vertical,"(390.0, 262.0)",1.7,nan,1,3786.099,2,0.02,same
0,401,valid,"[(1171, 794)]",[],[1],[0.55],vertical,"(890.0, 262.0)",1.3666666666666667,0.508,1,3791.702,3,0.02,same
0,402,valid,"[(1172, 781)]",[],[1],[0.48333333333333334],vertical,"(890.0, 762.0)",0.48333333333333334,0.442,1,3798.08,3,0.02,same
0,403,catch,"[(1165, 803)]",[],[1],[0.03333333333333333],horizontal,"(890.0, 262.0)",1.7,"0.02,nan",0,3803.037,0,0.04,same
0,404,valid,"[(1131, 808)]",[],[1],[0.5833333333333334],horizontal,"(390.0, 762.0)",0.5666666666666667,0.543,1,3807.798,1,0.04,same
0,405,valid,"[(1155, 791)]",[],[1],[0.85],vertical,"(390.0, 262.0)",1.5,nan,0,3812.386,0,0.04,same
0,406,invalid_same_bar,"[(1131, 804)]",[],[1],[0.4666666666666667],horizontal,"(390.0, 762.0)",0.45,0.424,1,3817.437,1,0.02,same
0,407,valid,"[(1151, 791)]",[],[1],[0.5333333333333333],vertical,"(890.0, 762.0)",1.0333333333333332,0.491,1,3821.796,1,0.02,same
0,408,valid,"[(1133, 805)]",[],[1],[0.55],vertical,"(390.0, 762.0)",1.35,0.51,1,3827.469,1,0.02,same
0,409,invalid_same_bar,"[(1168, 783)]",[],[1],[0.5],horizontal,"(890.0, 762.0)",0.6833333333333333,0.468,1,3833.166,2,0.02,same
0,410,valid,"[(1172, 790)]",[],[1],[0.5],vertical,"(890.0, 262.0)",0.5166666666666666,0.464,1,3838.515,2,0.02,same
0,411,valid,"[(1162, 786)]",[],[1],[0.5833333333333334],horizontal,"(890.0, 262.0)",0.9,0.556,1,3843.743,2,0.02,same
0,412,valid,"[(1180, 787)]",[],[1],[0.85],vertical,"(890.0, 262.0)",0.43333333333333335,nan,0,3848.853,0,0.02,same
0,413,invalid_adjacent_other_bar,"[(1132, 778)]",[],[1],[0.11666666666666667],horizontal,"(390.0, 762.0)",1.4833333333333334,0.085,0,3853.245,0,0.02,other
0,414,catch,"[(1131, 816)]",[],[1],[],horizontal,"(890.0, 762.0)",1.7,"('cti', 1.696),nan",0,3858.33,0,0.04,same
0,415,valid,"[(1119, 836)]",[],[1],[0.55],horizontal,"(890.0, 762.0)",0.6833333333333333,0.505,1,3862.871,1,0.04,same
0,416,valid,"[(1160, 790)]",[],[1],[0.48333333333333334],horizontal,"(890.0, 262.0)",1.0,0.443,1,3868.053,1,0.04,same
0,417,valid,"[(1160, 792)]",[],[1],[0.5166666666666666],vertical,"(890.0, 762.0)",0.6166666666666667,0.478,1,3872.654,1,0.04,same
0,418,valid,"[(1175, 788)]",[],[1],[0.85],horizontal,"(390.0, 762.0)",1.2666666666666666,nan,0,3877.082,0,0.04,same
0,419,catch,"[(1091, 807)]",[],[1],[],vertical,"(890.0, 762.0)",1.7,nan,1,3882.12,1,0.04,same
0,420,valid,"[(1181, 786)]",[],[1],[0.5],horizontal,"(390.0, 262.0)",1.2333333333333334,0.456,1,3887.787,1,0.04,same
0,421,valid,"[(1159, 815)]",[],[1],[0.5666666666666667],vertical,"(390.0, 762.0)",1.3166666666666667,0.524,1,3892.941,1,0.04,same
0,422,valid,"[(1170, 791)]",[],[1],[0.85],horizontal,"(890.0, 762.0)",0.6166666666666667,nan,0,3898.508,0,0.04,same
0,423,valid,"[(1131, 782)]",[],[1],[0.6166666666666667],horizontal,"(390.0, 762.0)",0.6666666666666666,0.572,1,3902.675,1,0.04,same
0,424,catch,"[(1168, 795)]",[],[1],[],horizontal,"(890.0, 762.0)",1.7,nan,1,3907.393,1,0.04,same
0,425,invalid_adjacent_other_bar,"[(1134, 792)]",[],[1],[0.85],horizontal,"(890.0, 262.0)",0.43333333333333335,nan,0,3912.421,0,0.04,other
0,426,valid,"[(1149, 792)]",[],[1],[0.6],horizontal,"(890.0, 262.0)",1.3166666666666667,0.557,1,3916.472,1,0.04,same
0,427,valid,"[(1156, 760)]",[],[1],[0.5166666666666666],vertical,"(890.0, 262.0)",1.0166666666666666,0.477,1,3921.672,1,0.04,same
0,428,valid,"[(1171, 797)]",[],[1],[0.55],horizontal,"(890.0, 262.0)",1.3,0.509,1,3926.402,1,0.04,same
0,429,valid,"[(1180, 805)]",[],[1],[0.85],vertical,"(390.0, 262.0)",1.0166666666666666,nan,0,3931.603,0,0.04,same
0,430,valid,"[(1108, 818)]",[],[1],[0.5833333333333334],horizontal,"(890.0, 262.0)",0.45,0.539,1,3936.174,1,0.04,same
0,431,valid,"[(1162, 776)]",[],[1],[0.7333333333333333],vertical,"(390.0, 262.0)",1.2166666666666666,0.69,1,3949.437,1,0.04,same
0,432,invalid_adjacent_other_bar,"[(1170, 777)]",[],[1],[0.48333333333333334],horizontal,"(890.0, 762.0)",1.2333333333333334,0.445,1,3954.836,1,0.04,other
0,433,valid,"[(1168, 792)]",[],[1],[0.5166666666666666],horizontal,"(390.0, 262.0)",0.4666666666666667,0.475,1,3959.803,2,0.04,same
0,434,valid,"[(1180, 795)]",[],[1],[0.4666666666666667],horizontal,"(890.0, 262.0)",0.8333333333333334,0.433,1,3964.561,2,0.04,same
0,435,catch,"[(1160, 812)]",[],[1],[],horizontal,"(890.0, 762.0)",1.7,nan,1,3969.553,2,0.04,same
0,436,valid,"[(1190, 812)]",[],[1],[0.55],vertical,"(890.0, 762.0)",1.4,0.506,1,3974.79,2,0.04,same
0,437,valid,"[(1200, 796)]",[],[1],[0.48333333333333334],vertical,"(890.0, 262.0)",1.45,0.44,1,3980.488,3,0.04,same
0,438,valid,"[(1175, 784)]",[],[1],[0.5833333333333334],vertical,"(890.0, 762.0)",0.9333333333333333,0.542,1,3986.771,3,0.04,same
0,439,catch,"[(1171, 806)]",[],[1],[],horizontal,"(390.0, 762.0)",1.7,nan,1,3992.65,3,0.04,same
0,440,valid,"[(1159, 782)]",[],[1],[0.4666666666666667],vertical,"(890.0, 262.0)",0.5666666666666667,0.423,1,3998.837,3,0.04,same
0,441,invalid_same_bar,"[(1168, 789)]",[],[1],[0.55],horizontal,"(390.0, 262.0)",0.9333333333333333,0.506,1,4004.303,3,0.04,same
0,442,valid,"[(1159, 801)]",[],[1],[0.45],vertical,"(890.0, 262.0)",1.3833333333333333,0.413,1,4009.953,3,0.04,same
0,443,valid,"[(1160, 769)]",[],[1],[0.5666666666666667],vertical,"(390.0, 262.0)",0.4666666666666667,0.52,1,4016.105,3,0.04,same
0,444,valid,"[(1126, 823)]",[],[1],[0.5],vertical,"(390.0, 762.0)",1.5333333333333332,0.458,1,4021.369,3,0.04,same
0,445,catch,"[(1175, 792)]",[],[1],[],horizontal,"(390.0, 762.0)",1.7,nan,1,4028.471,3,0.04,same
0,446,valid,"[(1172, 792)]",[],[1],[0.5166666666666666],vertical,"(390.0, 762.0)",0.5666666666666667,0.475,1,4034.008,3,0.04,same
0,447,catch,"[(1176, 773)]",[],[1],[],horizontal,"(890.0, 262.0)",1.7,nan,1,4039.318,3,0.04,same
0,448,valid,"[(1169, 787)]",[],[1],[0.4666666666666667],vertical,"(390.0, 762.0)",0.55,0.424,1,4045.269,3,0.04,same
0,449,catch,"[(1162, 785)]",[],[1],[],vertical,"(390.0, 262.0)",1.7,nan,1,4050.7,3,0.04,same
0,450,valid,"[(1176, 772)]",[],[1],[0.5],vertical,"(890.0, 262.0)",0.8166666666666667,0.46,1,4056.828,3,0.04,same
0,451,valid,"[(1174, 787)]",[],[1],[0.85],horizontal,"(390.0, 262.0)",0.9166666666666666,nan,0,4062.296,0,0.04,same
0,452,invalid_adjacent_other_bar,"[(1140, 780)]",[],[1],[0.6],vertical,"(890.0, 762.0)",0.4666666666666667,0.56,1,4067.302,1,0.04,other
0,453,invalid_adjacent_other_bar,"[(1160, 790)]",[],[1],[0.5333333333333333],vertical,"(890.0, 262.0)",0.3833333333333333,0.489,1,4072.115,1,0.02,other
0,454,invalid_adjacent_other_bar,"[(1155, 792)]",[],[1],[0.5],horizontal,"(390.0, 262.0)",0.75,0.456,1,4076.644,1,0.02,other
0,455,valid,"[(1175, 778)]",[],[1],[0.5],vertical,"(890.0, 262.0)",0.7333333333333333,0.459,1,4081.203,2,0.02,same
0,456,valid,"[(1159, 766)]",[],[1],[0.6],vertical,"(390.0, 762.0)",0.7333333333333333,0.554,1,4086.141,2,0.02,same
0,457,valid,"[(1177, 777)]",[],[1],[0.85],horizontal,"(390.0, 262.0)",1.3666666666666667,nan,0,4091.583,0,0.02,same
0,458,valid,"[(1146, 780)]",[],[1],[0.48333333333333334],horizontal,"(890.0, 262.0)",1.35,0.443,1,4096.601,1,0.02,same
0,459,valid,"[(1155, 786)]",[],[1],[0.85],horizontal,"(890.0, 262.0)",0.45,nan,0,4101.524,0,0.02,same
0,460,catch,"[(1137, 800)]",[],[1],[],horizontal,"(890.0, 762.0)",,"('cti', 1.629),nan",0,4105.644,0,0.04,same
0,461,valid,"[(1142, 815)]",[],[1],[0.85],horizontal,"(390.0, 262.0)",0.6,nan,0,4110.038,0,0.04,same
0,462,catch,"[(1158, 804)]",[],[1],[],vertical,"(390.0, 762.0)",1.7,nan,1,4114.055,1,0.04,same
0,463,valid,"[(1170, 796)]",[],[1],[0.5333333333333333],vertical,"(390.0, 262.0)",1.3,0.486,1,4119.737,1,0.04,same
0,464,catch,"[(1156, 783)]",[],[1],[],horizontal,"(890.0, 762.0)",1.7,"('cti', 1.677),nan",0,4125.092,0,0.04,same
0,465,invalid_adjacent_other_bar,"[(1165, 790)]",[],[1],[0.85],vertical,"(890.0, 762.0)",0.9166666666666666,nan,0,4129.738,0,0.04,other
0,466,valid,"[(1127, 786)]",[],[1],[0.85],vertical,"(390.0, 262.0)",1.1833333333333333,nan,0,4134.246,0,0.04,same
0,467,invalid_same_bar,"[(1135, 786)]",[],[1],[0.5833333333333334],vertical,"(890.0, 762.0)",0.9,0.539,1,4139.104,1,0.04,same
0,468,valid,"[(1161, 791)]",[],[1],[0.5166666666666666],horizontal,"(890.0, 262.0)",1.1666666666666667,0.489,1,4143.971,1,0.04,same
0,469,valid,"[(1165, 786)]",[],[1],[0.5333333333333333],horizontal,"(390.0, 762.0)",0.9333333333333333,0.488,1,4148.98,1,0.04,same
0,470,valid,"[(1162, 777)]",[],[1],[0.4666666666666667],vertical,"(390.0, 262.0)",0.6166666666666667,0.43,1,4153.906,2,0.04,same
0,471,catch,"[(1164, 783)]",[],[1],[],horizontal,"(390.0, 262.0)",1.7,nan,1,4158.68,2,0.04,same
0,472,valid,"[(1160, 775)]",[],[1],[0.5833333333333334],vertical,"(390.0, 262.0)",1.2,0.541,1,4164.203,2,0.04,same
0,473,valid,"[(1170, 774)]",[],[1],[0.5333333333333333],vertical,"(890.0, 762.0)",1.2666666666666666,0.493,1,4169.82,2,0.04,same
0,474,catch,"[(1172, 797)]",[],[1],[],vertical,"(390.0, 762.0)",1.7,nan,1,4175.299,3,0.04,same
0,475,invalid_same_bar,"[(1163, 787)]",[],[1],[0.5333333333333333],vertical,"(890.0, 762.0)",1.2833333333333332,0.489,1,4181.52,3,0.04,same
0,476,valid,"[(1156, 786)]",[],[1],[0.06666666666666667],horizontal,"(390.0, 262.0)",1.5,0.037,0,4187.637,0,0.04,same
0,477,valid,"[(1131, 782)]",[],[1],[0.6],vertical,"(390.0, 262.0)",0.45,0.56,1,4192.167,1,0.04,same
0,478,valid,"[(1131, 801)]",[],[1],[0.5],vertical,"(890.0, 762.0)",0.85,0.46,1,4196.837,1,0.04,same
0,479,valid,"[(1157, 782)]",[],[1],[0.5666666666666667],horizontal,"(390.0, 262.0)",0.6833333333333333,0.528,1,4201.853,1,0.04,same
0,480,valid,"[(1170, 794)]",[],[1],[0.5666666666666667],vertical,"(390.0, 262.0)",1.0333333333333332,0.527,1,4206.418,2,0.04,same
0,481,valid,"[(1169, 786)]",[],[1],[0.6833333333333333],vertical,"(390.0, 762.0)",1.4666666666666666,0.641,1,4212.287,2,0.04,same
0,482,valid,"[(1132, 801)]",[],[1],[0.5166666666666666],vertical,"(890.0, 262.0)",1.4166666666666667,0.476,1,4218.369,2,0.04,same
0,483,valid,"[(1148, 802)]",[],[1],[0.85],vertical,"(390.0, 762.0)",0.75,nan,0,4224.471,0,0.04,same
0,484,valid,"[(1133, 791)]",[],[1],[0.5166666666666666],vertical,"(390.0, 262.0)",0.43333333333333335,0.474,1,4229.12,1,0.04,same
0,485,valid,"[(1140, 811)]",[],[1],[0.5],vertical,"(890.0, 762.0)",1.1333333333333333,0.459,1,4234.187,1,0.04,same
0,486,valid,"[(1170, 793)]",[],[1],[0.5666666666666667],horizontal,"(890.0, 262.0)",0.65,0.524,1,4239.82,1,0.04,same
0,487,valid,"[(1116, 796)]",[],[1],[0.48333333333333334],horizontal,"(890.0, 262.0)",0.5166666666666666,0.442,1,4244.387,2,0.04,same
0,488,invalid_adjacent_other_bar,"[(1154, 793)]",[],[1],[0.65],horizontal,"(890.0, 262.0)",0.9,0.611,1,4256.414,2,0.04,other
0,489,catch,"[(1170, 786)]",[],[1],[],horizontal,"(890.0, 762.0)",1.7,nan,1,4262.004,2,0.04,same
0,490,valid,"[(1132, 821)]",[],[1],[0.7333333333333333],horizontal,"(390.0, 762.0)",1.3,0.695,1,4267.505,2,0.04,same
0,491,valid,"[(1158, 801)]",[],[1],[0.48333333333333334],vertical,"(890.0, 262.0)",1.25,0.445,1,4273.771,3,0.04,same
0,492,catch,"[(1127, 813)]",[],[1],[],vertical,"(890.0, 262.0)",1.7,nan,1,4279.988,3,0.04,same
0,493,valid,"[(1183, 811)]",[],[1],[0.5],vertical,"(390.0, 262.0)",1.4333333333333333,0.459,1,4309.238,3,0.04,same
0,494,catch,"[(1176, 791)]",[],[1],[],horizontal,"(890.0, 762.0)",1.7,nan,1,4315.087,3,0.04,same
0,495,valid,"[(1174, 799)]",[],[1],[0.5333333333333333],vertical,"(390.0, 262.0)",0.36666666666666664,0.494,1,4321.122,3,0.04,same
0,496,invalid_adjacent_other_bar,"[(1155, 799)]",[],[1],[0.5],horizontal,"(890.0, 262.0)",0.9166666666666666,0.456,1,4326.111,3,0.04,other
0,497,valid,"[(1155, 795)]",[],[1],[0.5333333333333333],vertical,"(890.0, 762.0)",0.6833333333333333,0.5,1,4331.996,3,0.04,same
0,498,catch,"[(1120, 816)]",[],[1],[],horizontal,"(390.0, 262.0)",1.7,nan,1,4337.79,3,0.04,same
0,499,catch,"[(1178, 805)]",[],[1],[],horizontal,"(890.0, 762.0)",1.7,nan,1,4344.445,3,0.04,same
0,500,catch,"[(1156, 796)]",[],[1],[],vertical,"(890.0, 262.0)",1.7,nan,1,4349.955,3,0.04,same
0,501,valid,"[(1169, 798)]",[],[1],[0.4666666666666667],horizontal,"(390.0, 262.0)",0.55,0.427,1,4355.721,3,0.04,same
0,502,valid,"[(1176, 796)]",[],[1],[0.85],horizontal,"(890.0, 762.0)",1.0166666666666666,nan,0,4360.804,0,0.04,same
0,503,valid,"[(1153, 798)]",[],[1],[0.6166666666666667],vertical,"(890.0, 262.0)",0.8666666666666667,0.582,1,4365.555,1,0.04,same
0,504,invalid_same_bar,"[(1160, 782)]",[],[1],[0.48333333333333334],horizontal,"(890.0, 262.0)",1.45,0.447,1,4370.142,1,0.04,same
0,505,valid,"[(1180, 782)]",[],[1],[0.5833333333333334],vertical,"(890.0, 262.0)",0.7833333333333333,0.542,1,4375.42,1,0.04,same
0,506,valid,"[(1155, 796)]",[],[1],[0.7333333333333333],vertical,"(890.0, 762.0)",0.9166666666666666,0.692,1,4380.181,2,0.04,same
0,507,invalid_adjacent_other_bar,"[(1172, 801)]",[],[1],[0.5166666666666666],vertical,"(390.0, 762.0)",0.45,0.477,1,4385.783,2,0.04,other
0,508,catch,"[(1171, 779)]",[],[1],[],horizontal,"(890.0, 762.0)",1.7,nan,1,4390.744,2,0.04,same
0,509,valid,"[(1160, 801)]",[],[1],[0.4666666666666667],horizontal,"(390.0, 262.0)",1.05,0.427,1,4396.639,2,0.04,same
0,510,valid,"[(1158, 795)]",[],[1],[0.85],horizontal,"(390.0, 262.0)",0.4166666666666667,nan,0,4401.82,0,0.02,same
0,511,valid,"[(1157, 794)]",[],[1],[0.5333333333333333],vertical,"(890.0, 762.0)",0.4166666666666667,0.491,1,4406.271,1,0.02,same
0,512,valid,"[(1157, 813)]",[],[1],[0.5166666666666666],vertical,"(390.0, 262.0)",1.4666666666666666,0.48,1,4410.849,1,0.02,same
0,513,catch,"[(1155, 786)]",[],[1],[],horizontal,"(890.0, 262.0)",1.7,nan,1,4416.806,1,0.02,same
0,514,valid,"[(1157, 795)]",[],[1],[0.45],horizontal,"(390.0, 262.0)",1.4666666666666666,0.411,1,4421.979,2,0.0,same
0,515,valid,"[(1175, 817)]",[],[1],[0.5],vertical,"(390.0, 762.0)",0.5166666666666666,0.462,1,4427.904,2,0.0,same
0,516,valid,"[(1174, 796)]",[],[1],[0.5],vertical,"(390.0, 262.0)",1.3166666666666667,0.461,1,4432.471,2,0.0,same
0,517,valid,"[(1173, 808)]",[],[1],[0.6],vertical,"(890.0, 762.0)",1.3166666666666667,0.555,1,4437.954,2,0.0,same
0,518,invalid_adjacent_other_bar,"[(1159, 791)]",[],[1],[0.5],horizontal,"(390.0, 762.0)",0.8,0.468,1,4443.688,3,0.0,other
0,519,catch,"[(1155, 817)]",[],[1],[],horizontal,"(390.0, 262.0)",1.7,nan,1,4449.32,3,0.0,same
0,520,catch,"[(1157, 792)]",[],[1],[],horizontal,"(890.0, 262.0)",1.7,nan,1,4455.952,3,0.0,same
0,521,catch,"[(1185, 783)]",[],[1],[],vertical,"(890.0, 762.0)",1.7,nan,1,4461.805,3,0.0,same
0,522,valid,"[(1156, 783)]",[],[1],[0.5],vertical,"(890.0, 762.0)",1.1333333333333333,0.459,1,4467.738,3,0.0,same
0,523,valid,"[(1161, 779)]",[],[1],[0.4666666666666667],horizontal,"(390.0, 262.0)",0.55,0.428,1,4473.605,3,0.0,same
0,524,valid,"[(1161, 806)]",[],[1],[0.5],vertical,"(390.0, 762.0)",0.7833333333333333,0.462,1,4478.733,3,0.0,same
0,525,valid,"[(1177, 797)]",[],[1],[0.5],horizontal,"(890.0, 262.0)",0.85,0.458,1,4484.172,3,0.0,same
0,526,catch,"[(1159, 791)]",[],[1],[],vertical,"(890.0, 262.0)",1.7,nan,1,4489.738,3,0.0,same
0,527,valid,"[(1175, 791)]",[],[1],[0.6333333333333333],vertical,"(390.0, 762.0)",0.48333333333333334,0.598,1,4495.712,3,0.0,same
0,528,invalid_adjacent_other_bar,"[(1157, 791)]",[],[1],[0.5],horizontal,"(890.0, 262.0)",0.7666666666666666,0.457,1,4500.971,3,0.0,other
0,529,valid,"[(1161, 772)]",[],[1],[0.75],horizontal,"(890.0, 262.0)",0.8833333333333333,0.702,1,4506.117,3,0.0,same
0,530,valid,"[(1156, 795)]",[],[1],[0.4166666666666667],horizontal,"(890.0, 262.0)",1.3666666666666667,0.377,1,4511.94,3,0.0,same
0,531,catch,"[(1166, 802)]",[],[1],[],vertical,"(390.0, 262.0)",1.7,nan,1,4518.131,3,0.0,same
0,532,valid,"[(1158, 797)]",[],[1],[0.55],horizontal,"(390.0, 762.0)",1.25,0.505,1,4523.753,3,0.0,same
0,533,valid,"[(1160, 784)]",[],[1],[0.55],horizontal,"(390.0, 762.0)",0.9333333333333333,0.507,1,4530.238,3,0.0,same
0,534,catch,"[(1156, 782)]",[],[1],[],horizontal,"(890.0, 262.0)",1.7,nan,1,4535.921,3,0.0,same
0,535,catch,"[(1166, 798)]",[],[1],[],vertical,"(890.0, 262.0)",1.7,nan,1,4541.913,3,0.0,same
0,536,valid,"[(1177, 778)]",[],[1],[0.55],horizontal,"(890.0, 262.0)",0.4,0.512,1,4548.037,3,0.0,same
0,537,valid,"[(1172, 784)]",[],[1],[0.4666666666666667],vertical,"(390.0, 262.0)",0.4166666666666667,0.426,1,4553.598,3,0.0,same
0,538,valid,"[(1153, 792)]",[],[1],[0.85],vertical,"(890.0, 262.0)",0.5333333333333333,nan,0,4558.737,0,0.0,same
0,539,valid,"[(1144, 777)]",[],[1],[0.6166666666666667],vertical,"(390.0, 262.0)",0.6333333333333333,0.578,1,4562.937,1,0.0,same
0,540,catch,"[(1161, 795)]",[],[1],[],vertical,"(390.0, 762.0)",1.7,nan,1,4567.987,1,0.0,same
0,541,valid,"[(1161, 787)]",[],[1],[0.7],horizontal,"(890.0, 762.0)",1.15,0.65,1,4573.075,1,0.0,same
0,542,valid,"[(1160, 790)]",[],[1],[0.65],vertical,"(390.0, 262.0)",0.9166666666666666,0.608,1,4578.454,2,0.0,same
0,543,invalid_same_bar,"[(1164, 799)]",[],[1],[0.5],horizontal,"(390.0, 762.0)",0.6333333333333333,0.457,1,4584.355,2,0.0,same
0,544,invalid_adjacent_other_bar,"[(1155, 805)]",[],[1],[0.5],vertical,"(890.0, 762.0)",0.8166666666666667,0.455,1,4589.403,2,0.0,other
0,545,valid,"[(1160, 791)]",[],[1],[0.3],horizontal,"(890.0, 262.0)",1.4833333333333334,0.264,1,4594.739,2,0.0,same
0,546,valid,"[(1153, 786)]",[],[1],[0.5166666666666666],horizontal,"(890.0, 262.0)",0.7666666666666666,0.471,1,4600.737,3,0.0,same
0,547,invalid_same_bar,"[(1168, 772)]",[],[1],[0.6833333333333333],vertical,"(890.0, 262.0)",0.95,0.64,1,4606.849,3,0.0,same
0,548,valid,"[(1161, 777)]",[],[1],[0.5333333333333333],vertical,"(890.0, 762.0)",1.4166666666666667,0.493,1,4612.521,3,0.0,same
0,549,valid,"[(1159, 788)]",[],[1],[0.3833333333333333],horizontal,"(390.0, 762.0)",1.55,0.346,1,4618.588,3,0.0,same
0,550,valid,"[(1159, 787)]",[],[1],[0.5],vertical,"(890.0, 762.0)",0.43333333333333335,0.461,1,4624.988,3,0.0,same
0,551,valid,"[(1174, 786)]",[],[1],[0.48333333333333334],vertical,"(890.0, 262.0)",0.4166666666666667,0.442,1,4630.248,3,0.0,same
0,552,valid,"[(1171, 779)]",[],[1],[0.85],vertical,"(390.0, 262.0)",0.4,nan,0,4635.369,0,0.0,same
0,553,catch,"[(1135, 778)]",[],[1],[],vertical,"(890.0, 262.0)",1.7,nan,1,4639.47,1,0.0,same
0,554,valid,"[(1158, 782)]",[],[1],[0.5666666666666667],horizontal,"(390.0, 762.0)",1.0333333333333332,0.526,1,4645.144,1,0.0,same
0,555,valid,"[(1161, 785)]",[],[1],[0.5],vertical,"(890.0, 262.0)",0.8166666666666667,0.457,1,4650.248,1,0.0,same
0,556,valid,"[(1160, 791)]",[],[1],[0.85],vertical,"(890.0, 762.0)",0.6166666666666667,nan,0,4654.825,0,0.0,same
0,557,valid,"[(1131, 795)]",[],[1],[0.5333333333333333],vertical,"(890.0, 762.0)",0.35,0.494,1,4659.587,1,0.0,same
0,558,valid,"[(1171, 790)]",[],[1],[0.5166666666666666],horizontal,"(890.0, 262.0)",1.05,0.475,1,4664.161,1,0.0,same
0,559,valid,"[(1171, 796)]",[],[1],[0.5166666666666666],horizontal,"(890.0, 262.0)",1.05,0.472,1,4669.039,1,0.0,same
0,560,valid,"[(1159, 784)]",[],[1],[0.5166666666666666],horizontal,"(390.0, 262.0)",1.4,0.472,1,4674.155,2,0.0,same
0,561,valid,"[(1110, 822)]",[],[1],[0.5666666666666667],vertical,"(390.0, 762.0)",0.6833333333333333,0.521,1,4680.179,2,0.0,same
0,562,valid,"[(1159, 813)]",[],[1],[0.6166666666666667],horizontal,"(890.0, 762.0)",0.7333333333333333,0.577,1,4735.054,2,0.0,same
0,563,valid,"[(1167, 793)]",[],[1],[0.6166666666666667],horizontal,"(390.0, 262.0)",0.9833333333333333,0.58,1,4740.437,2,0.0,same
0,564,catch,"[(1174, 790)]",[],[1],[],vertical,"(390.0, 262.0)",1.7,nan,1,4745.661,3,0.0,same
0,565,catch,"[(1170, 795)]",[],[1],[],horizontal,"(390.0, 262.0)",1.7,nan,1,4751.854,3,0.0,same
0,566,valid,"[(1162, 799)]",[],[1],[0.5],vertical,"(390.0, 262.0)",0.3833333333333333,0.46,1,4757.528,3,0.0,same
0,567,valid,"[(1175, 794)]",[],[1],[0.4666666666666667],horizontal,"(890.0, 262.0)",0.45,0.424,1,4762.572,3,0.0,same
0,568,valid,"[(1170, 789)]",[],[1],[0.8333333333333334],horizontal,"(890.0, 762.0)",0.95,0.786,1,4767.454,3,0.0,same
0,569,valid,"[(1173, 787)]",[],[1],[0.65],vertical,"(890.0, 762.0)",0.95,0.606,1,4773.739,3,0.0,same
0,570,catch,"[(1136, 836)]",[],[1],[],horizontal,"(390.0, 262.0)",1.7,nan,1,4779.087,3,0.0,same
0,571,valid,"[(1164, 782)]",[],[1],[0.65],horizontal,"(890.0, 262.0)",0.4,0.609,1,4785.739,3,0.0,same
0,572,catch,"[(1165, 806)]",[],[1],[],vertical,"(390.0, 262.0)",1.7,nan,1,4791.055,3,0.0,same
0,573,invalid_adjacent_other_bar,"[(1160, 786)]",[],[1],[0.85],horizontal,"(390.0, 762.0)",1.0666666666666667,nan,0,4796.774,0,0.0,other
0,574,valid,"[(1131, 792)]",[],[1],[0.55],horizontal,"(890.0, 762.0)",1.3166666666666667,0.51,1,4801.589,1,0.0,same
0,575,catch,"[(1099, 858)]",[],[1],[],horizontal,"(390.0, 762.0)",1.7,nan,1,4806.861,1,0.0,same
0,576,valid,"[(1150, 806)]",[],[1],[0.85],vertical,"(890.0, 762.0)",1.5166666666666666,nan,0,4958.261,0,0.0,same
0,577,catch,"[(1113, 805)]",[],[1],[],horizontal,"(890.0, 762.0)",1.7,nan,1,4964.072,1,0.0,same
0,578,catch,"[(1131, 802)]",[],[1],[],horizontal,"(390.0, 762.0)",,"('cti', 0.986),nan",0,4975.313,0,0.02,same
0,579,valid,"[(1108, 818)]",[],[1],[0.6333333333333333],vertical,"(390.0, 762.0)",0.7333333333333333,0.594,1,4979.788,1,0.02,same
0,580,valid,"[(1175, 807)]",[],[1],[0.85],horizontal,"(890.0, 262.0)",0.4166666666666667,nan,0,4985.355,0,0.02,same
0,581,valid,"[(1159, 825)]",[],[1],[0.55],vertical,"(390.0, 762.0)",1.3333333333333333,0.501,1,4989.13,1,0.02,same
0,582,valid,"[(1160, 809)]",[],[1],[0.7],vertical,"(390.0, 262.0)",1.0333333333333332,0.656,1,4994.622,1,0.02,same
0,583,catch,"[(1171, 821)]",[],[1],[],horizontal,"(890.0, 262.0)",1.7,nan,1,4999.574,1,0.02,same
0,584,valid,"[(1167, 810)]",[],[1],[0.85],horizontal,"(390.0, 262.0)",0.7833333333333333,nan,0,5004.627,0,0.02,same
0,585,valid,"[(1117, 802)]",[],[1],[0.85],vertical,"(390.0, 762.0)",0.4,nan,0,5009.571,0,0.02,same
0,586,valid,"[(1133, 790)]",[],[1],[0.55],vertical,"(890.0, 262.0)",1.5,0.511,1,5015.928,1,0.02,same
0,587,valid,"[(1162, 809)]",[],[1],[0.3833333333333333],vertical,"(890.0, 262.0)",1.2666666666666666,0.348,1,5021.622,1,0.02,same
0,588,valid,"[(1170, 784)]",[],[1],[0.55],horizontal,"(890.0, 762.0)",0.55,0.508,1,5026.901,1,0.02,same
0,589,valid,"[(1167, 784)]",[],[1],[0.6166666666666667],horizontal,"(390.0, 262.0)",1.0,0.569,1,5031.458,2,0.02,same
0,590,valid,"[(1169, 765)]",[],[1],[0.5166666666666666],horizontal,"(390.0, 262.0)",0.65,0.474,1,5036.393,2,0.02,same
0,591,catch,"[(1160, 801)]",[],[1],[],vertical,"(390.0, 762.0)",1.7,nan,1,5041.173,2,0.02,same
0,592,invalid_adjacent_other_bar,"[(1171, 773)]",[],[1],[0.65],horizontal,"(890.0, 262.0)",1.1833333333333333,0.607,1,5046.438,2,0.02,other
0,593,catch,"[(1157, 788)]",[],[1],[],vertical,"(390.0, 262.0)",1.7,nan,1,5052.355,3,0.02,same
0,594,catch,"[(1165, 789)]",[],[1],[],vertical,"(890.0, 262.0)",1.7,nan,1,5058.768,3,0.02,same
0,595,valid,"[(1164, 785)]",[],[1],"[0.85, 0.85]",horizontal,"(390.0, 762.0)",0.8333333333333334,"0.807,nan",0,5064.606,0,0.02,same
0,596,catch,"[(1160, 783)]",[],[1],[],horizontal,"(890.0, 762.0)",1.7,nan,1,5069.388,1,0.02,same
0,597,invalid_same_bar,"[(1169, 778)]",[],[1],[0.5333333333333333],horizontal,"(390.0, 762.0)",1.4666666666666666,0.488,1,5074.628,1,0.02,same
0,598,valid,"[(1202, 776)]",[],[1],[0.6],vertical,"(890.0, 762.0)",1.4166666666666667,0.556,1,5080.038,1,0.02,same
0,599,valid,"[(1160, 817)]",[],[1],[0.5333333333333333],vertical,"(390.0, 262.0)",1.2166666666666666,0.498,1,5085.689,2,0.02,same
0,600,valid,"[(1131, 824)]",[],[1],[0.5833333333333334],horizontal,"(890.0, 762.0)",1.0333333333333332,0.543,1,5091.205,2,0.02,same
0,601,valid,"[(1160, 800)]",[],[1],[0.6333333333333333],horizontal,"(890.0, 262.0)",0.9166666666666666,0.598,1,5098.906,2,0.02,same
0,602,valid,"[(1161, 786)]",[],[1],[0.85],vertical,"(390.0, 762.0)",0.5666666666666667,nan,0,5104.406,0,0.02,same
0,603,valid,"[(1158, 792)]",[],[1],[0.5],vertical,"(390.0, 262.0)",1.1,0.461,1,5108.941,1,0.02,same
0,604,valid,"[(1166, 777)]",[],[1],[0.45],horizontal,"(890.0, 262.0)",0.65,0.412,1,5113.826,1,0.02,same
0,605,valid,"[(1116, 814)]",[],[1],[0.85],horizontal,"(890.0, 762.0)",1.05,nan,0,5118.822,0,0.02,same
0,606,valid,"[(1124, 843)]",[],[1],[0.6166666666666667],vertical,"(390.0, 262.0)",0.7833333333333333,0.58,1,5591.834,1,0.02,same
0,607,valid,"[(1156, 795)]",[],[1],[0.35],horizontal,"(390.0, 262.0)",1.45,0.314,1,7089.008,1,0.02,same
0,608,catch,"[(1156, 827)]",[],[1],[],horizontal,"(390.0, 262.0)",1.7,nan,1,7094.458,1,0.02,same
0,609,catch,"[(1161, 777)]",[],[1],[],vertical,"(390.0, 762.0)",1.7,nan,1,7099.81,2,0.02,same
0,610,catch,"[(1165, 796)]",[],[1],[],vertical,"(390.0, 762.0)",1.7,"('cti', 1.68),nan",0,7105.26,0,0.04,same
0,611,catch,"[(1130, 791)]",[],[1],[],vertical,"(390.0, 762.0)",1.7,nan,1,7110.276,1,0.04,same
0,612,valid,"[(1170, 811)]",[],[1],[0.85],horizontal,"(390.0, 262.0)",0.9166666666666666,nan,0,7120.927,0,0.04,same
0,613,valid,"[(1126, 810)]",[],[1],[0.5333333333333333],vertical,"(890.0, 762.0)",0.6666666666666666,0.493,1,7125.926,1,0.04,same
0,614,valid,"[(1158, 806)]",[],[1],[0.65],horizontal,"(890.0, 262.0)",1.5333333333333332,0.615,1,7136.375,1,0.04,same
0,615,valid,"[(1141, 806)]",[],[1],[0.7],horizontal,"(390.0, 262.0)",0.5333333333333333,0.657,1,7142.149,1,0.04,same
0,616,valid,"[(1158, 792)]",[],[1],[0.5166666666666666],vertical,"(890.0, 262.0)",0.75,0.473,1,7146.84,2,0.04,same
0,617,valid,"[(1136, 792)]",[],[1],[0.5666666666666667],horizontal,"(890.0, 262.0)",1.0833333333333333,0.521,1,7152.025,2,0.04,same
0,618,valid,"[(1157, 777)]",[],[1],[0.7166666666666667],vertical,"(390.0, 262.0)",1.1166666666666667,0.673,1,7157.824,2,0.04,same
0,619,valid,"[(1160, 797)]",[],[1],[0.5333333333333333],horizontal,"(890.0, 262.0)",1.2,0.494,1,7163.647,2,0.04,same
0,620,catch,"[(1139, 791)]",[],[1],[],vertical,"(890.0, 262.0)",1.7,nan,1,7169.165,3,0.04,same
0,621,valid,"[(1155, 797)]",[],[1],[0.5833333333333334],vertical,"(390.0, 762.0)",0.6333333333333333,0.54,1,7175.351,3,0.04,same
0,622,valid,"[(1169, 796)]",[],[1],[0.85],vertical,"(390.0, 262.0)",0.9333333333333333,nan,0,7181.053,0,0.04,same
0,623,catch,"[(1134, 787)]",[],[1],[],vertical,"(890.0, 262.0)",1.7,nan,1,7185.508,1,0.04,same
0,624,catch,"[(1135, 811)]",[],[1],[],vertical,"(890.0, 262.0)",1.7,nan,1,7190.803,1,0.04,same
0,625,valid,"[(1136, 782)]",[],[1],[0.5666666666666667],vertical,"(390.0, 262.0)",1.35,0.525,1,7196.091,1,0.04,same
0,626,valid,"[(1165, 792)]",[],[1],[0.6166666666666667],vertical,"(890.0, 262.0)",1.05,0.573,1,7201.05,2,0.04,same
0,627,valid,"[(1155, 799)]",[],[1],[0.55],vertical,"(890.0, 762.0)",1.2166666666666666,0.509,1,7206.613,2,0.04,same
0,628,valid,"[(1180, 782)]",[],[1],[0.85],horizontal,"(390.0, 262.0)",0.4,nan,0,7212.031,0,0.02,same
0,629,valid,"[(1116, 806)]",[],[1],[0.6333333333333333],vertical,"(390.0, 262.0)",1.4333333333333333,0.588,1,7216.352,1,0.02,same
0,630,valid,"[(1155, 793)]",[],[1],[0.85],vertical,"(890.0, 262.0)",1.1,nan,0,7222.867,0,0.02,same
0,631,catch,"[(1127, 821)]",[],[1],[],vertical,"(390.0, 262.0)",1.7,nan,1,7227.909,1,0.02,same
0,632,valid,"[(1083, 795)]",[],[1],[0.7666666666666666],vertical,"(390.0, 762.0)",0.55,0.722,1,7235.109,1,0.02,same
0,633,invalid_adjacent_other_bar,"[(1172, 782)]",[],[1],[0.5333333333333333],vertical,"(390.0, 262.0)",0.4166666666666667,0.491,1,7239.913,1,0.02,other
0,634,catch,"[(1157, 775)]",[],[1],[],vertical,"(890.0, 262.0)",1.7,nan,1,7244.093,2,0.02,same
0,635,catch,"[(1154, 777)]",[],[1],[],vertical,"(890.0, 262.0)",1.7,nan,1,7249.592,2,0.02,same
0,636,valid,"[(1154, 787)]",[],[1],[0.85],horizontal,"(890.0, 762.0)",0.7166666666666667,nan,0,7255.045,0,0.02,same
0,637,catch,"[(1134, 840)]",[],[1],[],vertical,"(390.0, 262.0)",1.7,nan,1,7259.626,1,0.02,same
0,638,valid,"[(1116, 818)]",[],[1],[0.5333333333333333],horizontal,"(390.0, 762.0)",1.3,0.489,1,7265.292,1,0.02,same
0,639,valid,"[(1158, 807)]",[],[1],[0.6166666666666667],horizontal,"(890.0, 262.0)",0.7333333333333333,0.576,1,7273.058,1,0.02,same
0,640,invalid_adjacent_other_bar,"[(1174, 791)]",[],[1],[0.55],vertical,"(390.0, 762.0)",1.0333333333333332,0.508,1,7277.674,2,0.02,other
0,641,valid,"[(1140, 787)]",[],[1],[0.6333333333333333],horizontal,"(890.0, 262.0)",1.1,0.598,1,7282.942,2,0.02,same
0,642,catch,"[(1169, 787)]",[],[1],[],horizontal,"(890.0, 762.0)",1.7,nan,1,7288.772,2,0.02,same
0,643,invalid_adjacent_other_bar,"[(1170, 811)]",[],[1],[0.5333333333333333],horizontal,"(390.0, 262.0)",0.65,0.494,1,7294.264,2,0.02,other
0,644,valid,"[(1158, 794)]",[],[1],[0.6666666666666666],vertical,"(390.0, 262.0)",1.3,0.615,1,7299.291,3,0.02,same
0,645,valid,"[(1161, 787)]",[],[1],[0.6666666666666666],horizontal,"(890.0, 262.0)",1.0833333333333333,0.626,1,7305.758,3,0.02,same
0,646,valid,"[(1169, 796)]",[],[1],[0.5333333333333333],vertical,"(390.0, 762.0)",1.4666666666666666,0.489,1,7311.665,3,0.02,same
0,647,valid,"[(1160, 800)]",[],[1],[0.5166666666666666],horizontal,"(890.0, 762.0)",1.05,0.476,1,7318.087,3,0.02,same
0,648,invalid_adjacent_other_bar,"[(1160, 787)]",[],[1],[0.7833333333333333],horizontal,"(390.0, 262.0)",1.4666666666666666,0.741,1,7323.876,3,0.02,other
0,649,invalid_adjacent_other_bar,"[(1147, 788)]",[],[1],[0.85],vertical,"(390.0, 762.0)",1.2833333333333332,nan,0,7330.594,0,0.02,other
0,650,catch,"[(1161, 815)]",[],[1],[],vertical,"(390.0, 262.0)",1.7,nan,1,7335.908,1,0.02,same
0,651,valid,"[(1087, 802)]",[],[1],[0.6666666666666666],vertical,"(890.0, 762.0)",0.95,0.626,1,7341.246,1,0.02,same
0,652,catch,"[(1171, 772)]",[],[1],[],horizontal,"(390.0, 262.0)",1.7,nan,1,7348.043,1,0.02,same
0,653,valid,"[(1156, 781)]",[],[1],[0.6333333333333333],vertical,"(390.0, 762.0)",0.5166666666666666,0.593,1,7353.136,2,0.02,same
0,654,catch,"[(1161, 809)]",[],[1],[],horizontal,"(390.0, 762.0)",1.7,nan,1,7358.207,2,0.02,same
0,655,valid,"[(1161, 772)]",[],[1],[0.6],vertical,"(890.0, 762.0)",1.2,0.558,1,7363.588,2,0.02,same
0,656,invalid_adjacent_other_bar,"[(1163, 807)]",[],[1],[0.7666666666666666],horizontal,"(390.0, 262.0)",0.8666666666666667,0.717,1,7369.558,2,0.02,other
0,657,valid,"[(1172, 796)]",[],[1],[0.5333333333333333],horizontal,"(390.0, 262.0)",1.2333333333333334,0.492,1,7374.76,3,0.02,same
0,658,catch,"[(1176, 788)]",[],[1],[],horizontal,"(390.0, 262.0)",1.7,nan,1,7381.057,3,0.02,same
0,659,catch,"[(1163, 782)]",[],[1],[],horizontal,"(390.0, 762.0)",1.7,nan,1,7386.907,3,0.02,same
0,660,valid,"[(1141, 788)]",[],[1],[0.55],horizontal,"(890.0, 262.0)",0.6,0.511,1,7393.175,3,0.0,same
0,661,valid,"[(1170, 778)]",[],[1],[0.5333333333333333],vertical,"(390.0, 262.0)",1.2666666666666666,0.489,1,7398.167,3,0.0,same
0,662,valid,"[(1162, 785)]",[],[1],[0.48333333333333334],vertical,"(890.0, 262.0)",1.0166666666666666,0.445,1,7404.36,3,0.0,same
0,663,invalid_adjacent_other_bar,"[(1161, 807)]",[],[1],[0.85],horizontal,"(390.0, 762.0)",0.6666666666666666,nan,0,7409.883,0,0.0,other
0,664,valid,"[(1132, 801)]",[],[1],[0.6333333333333333],vertical,"(390.0, 262.0)",0.48333333333333334,0.589,1,7414.508,1,0.0,same
0,665,invalid_same_bar,"[(1161, 784)]",[],[1],[0.65],horizontal,"(890.0, 762.0)",0.7166666666666667,0.614,1,7419.176,1,0.0,same
0,666,valid,"[(1160, 796)]",[],[1],[0.85],horizontal,"(390.0, 262.0)",1.05,nan,0,7424.277,0,0.0,same
0,667,invalid_same_bar,"[(1118, 808)]",[],[1],[0.55],horizontal,"(890.0, 262.0)",1.4166666666666667,0.509,1,7429.209,1,0.0,same
0,668,catch,"[(1159, 805)]",[],[1],[],vertical,"(390.0, 762.0)",1.7,nan,1,7435.509,1,0.0,same
0,669,catch,"[(1135, 816)]",[],[1],[],vertical,"(390.0, 262.0)",1.7,nan,1,7440.876,1,0.0,same
0,670,catch,"[(1164, 812)]",[],[1],[],vertical,"(890.0, 262.0)",1.7,nan,1,7446.39,2,0.0,same
0,671,valid,"[(1158, 772)]",[],[1],[0.7333333333333333],vertical,"(390.0, 762.0)",0.6833333333333333,0.688,1,7452.126,2,0.0,same
0,672,valid,"[(1157, 794)]",[],[1],[0.65],vertical,"(390.0, 762.0)",0.7833333333333333,0.607,1,7457.876,2,0.0,same
0,673,valid,"[(1160, 802)]",[],[1],[0.6166666666666667],vertical,"(390.0, 762.0)",0.6166666666666667,0.571,1,7463.298,2,0.0,same
0,674,valid,"[(1162, 782)]",[],[1],[0.6],horizontal,"(890.0, 762.0)",1.3666666666666667,0.558,1,7469.076,3,0.0,same
0,675,catch,"[(1161, 808)]",[],[1],[],vertical,"(890.0, 762.0)",1.7,nan,1,7475.527,3,0.0,same
0,676,valid,"[(1136, 784)]",[],[1],[0.6333333333333333],horizontal,"(890.0, 262.0)",0.65,0.592,1,7481.943,3,0.0,same
0,677,catch,"[(1161, 779)]",[],[1],[],vertical,"(390.0, 262.0)",1.7,nan,1,7487.292,3,0.0,same
0,678,valid,"[(1160, 784)]",[],[1],[0.5666666666666667],horizontal,"(390.0, 262.0)",1.25,0.522,1,7492.977,3,0.0,same
0,679,invalid_same_bar,"[(1166, 807)]",[],[1],[0.5333333333333333],horizontal,"(890.0, 262.0)",1.1833333333333333,0.495,1,7499.193,3,0.0,same
0,680,invalid_adjacent_other_bar,"[(1116, 839)]",[],[1],[0.85],vertical,"(890.0, 762.0)",0.43333333333333335,nan,0,7505.293,0,0.0,other
0,681,valid,"[(1086, 793)]",[],[1],[0.7],horizontal,"(890.0, 262.0)",0.45,0.652,1,7555.36,1,0.0,same
0,682,valid,"[(1169, 801)]",[],[1],[0.7],horizontal,"(390.0, 762.0)",1.4666666666666666,0.657,1,7560.314,1,0.0,same
0,683,catch,"[(1169, 801)]",[],[1],[],vertical,"(390.0, 262.0)",1.7,nan,1,7565.654,1,0.0,same
0,684,catch,"[(1163, 815)]",[],[1],[],horizontal,"(390.0, 762.0)",1.7,nan,1,7570.959,2,0.0,same
0,685,invalid_same_bar,"[(1159, 811)]",[],[1],[0.5333333333333333],vertical,"(890.0, 762.0)",0.6166666666666667,0.491,1,7576.295,2,0.0,same
0,686,valid,"[(1175, 804)]",[],[1],[0.7833333333333333],horizontal,"(390.0, 262.0)",0.7833333333333333,0.744,1,7580.993,2,0.0,same
0,687,catch,"[(1154, 794)]",[],[1],[],horizontal,"(390.0, 262.0)",1.7,nan,1,7586.409,2,0.0,same
0,688,valid,"[(1165, 801)]",[],[1],[0.6166666666666667],vertical,"(390.0, 762.0)",1.5333333333333332,0.569,1,7591.791,3,0.0,same
0,689,valid,"[(1179, 788)]",[],[1],[0.5333333333333333],vertical,"(890.0, 262.0)",1.2166666666666666,0.493,1,7598.709,3,0.0,same
0,690,valid,"[(1173, 816)]",[],[1],[0.8166666666666667],vertical,"(390.0, 262.0)",0.5333333333333333,0.761,1,7604.53,3,0.0,same
0,691,catch,"[(1165, 761)]",[],[1],[],vertical,"(390.0, 262.0)",1.7,nan,1,7610.442,3,0.0,same
0,692,invalid_adjacent_other_bar,"[(1159, 791)]",[],[1],[0.5],vertical,"(890.0, 262.0)",0.5666666666666667,0.46,1,7616.794,3,0.0,other
0,693,valid,"[(1151, 776)]",[],[1],[0.7],horizontal,"(890.0, 262.0)",1.3,0.651,1,7622.158,3,0.0,same
0,694,valid,"[(1175, 795)]",[],[1],[0.6],vertical,"(390.0, 262.0)",0.65,0.553,1,7628.526,3,0.0,same
0,695,invalid_same_bar,"[(1160, 796)]",[],[1],[0.85],vertical,"(390.0, 762.0)",0.85,nan,0,7633.998,0,0.0,same
0,696,valid,"[(1141, 791)]",[],[1],[0.6833333333333333],horizontal,"(390.0, 262.0)",1.4666666666666666,0.635,1,7638.424,1,0.0,same
0,697,valid,"[(1170, 800)]",[],[1],[0.5333333333333333],horizontal,"(390.0, 762.0)",0.6166666666666667,0.495,1,7643.992,1,0.0,same
0,698,catch,"[(1164, 783)]",[],[1],[],vertical,"(890.0, 762.0)",1.7,nan,1,7648.61,1,0.0,same
0,699,invalid_same_bar,"[(1161, 787)]",[],[1],[0.6],horizontal,"(890.0, 762.0)",1.3333333333333333,0.552,1,7653.817,2,0.0,same
0,700,catch,"[(1169, 794)]",[],[1],[],vertical,"(390.0, 762.0)",1.7,nan,1,7659.742,2,0.0,same
0,701,valid,"[(1169, 786)]",[],[1],[0.5833333333333334],horizontal,"(890.0, 762.0)",0.9833333333333333,0.542,1,7665.526,2,0.0,same
0,702,valid,"[(1136, 800)]",[],[1],[0.5833333333333334],horizontal,"(390.0, 762.0)",1.3,0.54,1,7670.626,2,0.0,same
0,703,valid,"[(1165, 790)]",[],[1],[0.85],horizontal,"(390.0, 262.0)",1.2666666666666666,nan,0,7676.677,0,0.0,same
0,704,valid,"[(1167, 776)]",[],[1],[0.65],horizontal,"(390.0, 762.0)",0.7,0.609,1,7681.643,1,0.0,same
0,705,valid,"[(1160, 779)]",[],[1],[0.85],horizontal,"(390.0, 762.0)",1.2333333333333334,nan,0,7687.024,0,0.0,same
0,706,catch,"[(1161, 784)]",[],[1],[],horizontal,"(390.0, 762.0)",1.7,nan,1,7691.96,1,0.0,same
0,707,valid,"[(1166, 791)]",[],[1],[0.5333333333333333],horizontal,"(890.0, 262.0)",1.1,0.492,1,7696.76,1,0.0,same
0,708,valid,"[(1166, 771)]",[],[1],[0.6333333333333333],vertical,"(890.0, 762.0)",0.48333333333333334,0.594,1,7701.793,1,0.0,same
0,709,catch,"[(1174, 783)]",[],[1],[],vertical,"(390.0, 262.0)",1.7,nan,1,7705.994,2,0.0,same
0,710,valid,"[(1176, 806)]",[],[1],[0.5333333333333333],horizontal,"(890.0, 262.0)",0.4666666666666667,0.493,1,7711.875,2,0.0,same
0,711,valid,"[(1161, 785)]",[],[1],[0.6166666666666667],horizontal,"(390.0, 762.0)",0.5,0.574,1,7716.539,2,0.0,same
0,712,valid,"[(1174, 785)]",[],[1],[0.5666666666666667],horizontal,"(390.0, 762.0)",0.85,0.523,1,7721.797,2,0.0,same
0,713,valid,"[(1166, 816)]",[],[1],[0.7333333333333333],horizontal,"(390.0, 762.0)",0.9166666666666666,0.692,1,7727.352,3,0.0,same
0,714,valid,"[(1169, 781)]",[],[1],[0.5166666666666666],horizontal,"(890.0, 262.0)",0.5333333333333333,0.473,1,7733.824,3,0.0,same
0,715,valid,"[(1160, 774)]",[],[1],[0.55],vertical,"(390.0, 262.0)",1.1666666666666667,0.504,1,7739.264,3,0.0,same
0,716,invalid_same_bar,"[(1065, 841)]",[],[1],[0.6333333333333333],horizontal,"(890.0, 262.0)",1.1,0.591,1,7745.189,3,0.0,same
0,717,invalid_same_bar,"[(1149, 800)]",[],[1],[0.85],vertical,"(390.0, 262.0)",0.6666666666666666,nan,0,7751.56,0,0.0,same
0,718,valid,"[(1132, 787)]",[],[1],[0.85],vertical,"(390.0, 262.0)",1.3833333333333333,nan,0,7756.358,0,0.0,same
0,719,valid,"[(1131, 842)]",[],[1],[0.8],horizontal,"(390.0, 262.0)",1.3666666666666667,0.758,1,7761.399,1,0.0,same
0,720,valid,"[(1127, 826)]",[],[1],[0.8],vertical,"(390.0, 762.0)",1.2833333333333332,0.754,1,7901.361,1,0.0,same
0,721,valid,"[(1156, 835)]",[],[1],[0.85],vertical,"(890.0, 762.0)",1.2833333333333332,nan,0,7906.986,0,0.0,same
0,722,invalid_same_bar,"[(1077, 812)]",[],[1],[0.85],vertical,"(890.0, 262.0)",0.48333333333333334,nan,0,7912.319,0,0.0,same
0,723,invalid_adjacent_other_bar,"[(1081, 833)]",[],[1],[],horizontal,"(890.0, 762.0)",,"('cti', 0.412)",0,7923.346,0,0.0,other
0,724,catch,"[(1089, 819)]",[],[1],[],horizontal,"(390.0, 262.0)",1.7,nan,1,7927.81,1,0.0,same
0,725,catch,"[(1152, 820)]",[],[1],[],vertical,"(390.0, 262.0)",1.7,nan,1,7933.827,1,0.0,same
0,726,invalid_adjacent_other_bar,"[(1161, 819)]",[],[1],[0.85],horizontal,"(890.0, 762.0)",0.6166666666666667,nan,0,7938.845,0,0.0,other
0,727,valid,"[(1155, 806)]",[],[1],[0.6166666666666667],vertical,"(890.0, 262.0)",0.65,0.573,1,7943.444,1,0.0,same
0,728,catch,"[(1155, 800)]",[],[1],[],horizontal,"(390.0, 262.0)",1.7,nan,1,7948.392,1,0.0,same
0,729,catch,"[(1156, 786)]",[],[1],[],vertical,"(390.0, 762.0)",1.7,nan,1,7953.477,1,0.0,same
0,730,valid,"[(1127, 811)]",[],[1],[0.8166666666666667],vertical,"(390.0, 762.0)",0.3833333333333333,0.773,1,7958.828,2,0.0,same
0,731,catch,"[(1159, 809)]",[],[1],[],horizontal,"(890.0, 262.0)",1.7,nan,1,7963.626,2,0.0,same
0,732,valid,"[(1179, 794)]",[],[1],[0.6333333333333333],vertical,"(890.0, 762.0)",1.2166666666666666,0.589,1,7969.144,2,0.0,same
0,733,catch,"[(1195, 801)]",[],[1],[],horizontal,"(390.0, 262.0)",1.7,nan,1,7974.583,2,0.0,same
0,734,valid,"[(1181, 812)]",[],[1],[0.6166666666666667],horizontal,"(390.0, 262.0)",0.7166666666666667,0.574,1,7980.549,3,0.0,same
0,735,invalid_adjacent_other_bar,"[(1185, 818)]",[],[1],[0.85],vertical,"(390.0, 262.0)",1.25,nan,0,7986.61,0,0.0,other
0,736,catch,"[(1200, 805)]",[],[1],[],horizontal,"(890.0, 762.0)",1.7,nan,1,7991.643,1,0.0,same
0,737,catch,"[(1193, 796)]",[],[1],[],vertical,"(890.0, 262.0)",1.7,nan,1,7996.791,1,0.0,same
0,738,catch,"[(1165, 792)]",[],[1],[],vertical,"(890.0, 762.0)",1.7,nan,1,8002.022,1,0.0,same
0,739,valid,"[(1179, 788)]",[],[1],[0.5666666666666667],horizontal,"(890.0, 762.0)",0.9166666666666666,0.532,1,8007.443,2,0.0,same
0,740,valid,"[(1131, 805)]",[],[1],[0.6166666666666667],vertical,"(890.0, 262.0)",1.2,0.57,1,8012.661,2,0.0,same
0,741,invalid_adjacent_other_bar,"[(1179, 818)]",[],[1],[0.6666666666666666],horizontal,"(390.0, 262.0)",1.1666666666666667,0.623,1,8018.468,2,0.0,other
0,742,valid,"[(1177, 821)]",[],[1],[0.6333333333333333],horizontal,"(390.0, 762.0)",1.45,0.595,1,8024.143,2,0.0,same
0,743,valid,"[(1172, 796)]",[],[1],[0.7833333333333333],horizontal,"(890.0, 762.0)",1.3833333333333333,0.732,1,8030.311,3,0.0,same
0,744,valid,"[(1158, 802)]",[],[1],[0.85],vertical,"(390.0, 762.0)",1.25,nan,0,8036.773,0,0.0,same
0,745,valid,"[(1153, 780)]",[],[1],[0.55],horizontal,"(390.0, 262.0)",0.5666666666666667,0.505,1,8041.477,1,0.0,same
0,746,valid,"[(1198, 812)]",[],[1],[0.55],vertical,"(390.0, 262.0)",0.48333333333333334,0.503,1,8046.353,1,0.0,same
0,747,valid,"[(1162, 786)]",[],[1],[0.5833333333333334],vertical,"(890.0, 762.0)",0.5166666666666666,0.538,1,8050.949,1,0.0,same
0,748,valid,"[(1171, 795)]",[],[1],[0.6333333333333333],horizontal,"(390.0, 762.0)",0.5166666666666666,0.589,1,8055.259,2,0.0,same
0,749,catch,"[(1177, 785)]",[],[1],[],horizontal,"(890.0, 262.0)",1.7,nan,1,8060.476,2,0.0,same
0,750,valid,"[(1175, 799)]",[],[1],[0.6],horizontal,"(390.0, 762.0)",1.4166666666666667,0.552,1,8066.437,2,0.0,same
0,751,valid,"[(1170, 785)]",[],[1],[0.85],vertical,"(390.0, 762.0)",0.8,nan,0,8072.187,0,0.0,same
0,752,valid,"[(1123, 799)]",[],[1],[0.85],horizontal,"(390.0, 762.0)",0.35,nan,0,8076.639,0,0.0,same
0,753,catch,"[(1123, 799)]",[],[1],[],horizontal,"(390.0, 262.0)",1.7,nan,1,8080.594,1,0.0,same
0,754,catch,"[(1180, 800)]",[],[1],[],vertical,"(890.0, 262.0)",1.7,nan,1,8085.667,1,0.0,same
0,755,valid,"[(1149, 808)]",[],[1],[0.85],vertical,"(390.0, 262.0)",1.4333333333333333,nan,0,8090.876,0,0.0,same
0,756,catch,"[(1126, 788)]",[],[1],[],vertical,"(390.0, 762.0)",1.7,nan,1,8095.942,1,0.0,same
0,757,catch,"[(1156, 774)]",[],[1],[],vertical,"(890.0, 762.0)",1.7,nan,1,8101.407,1,0.0,same
0,758,catch,"[(1183, 787)]",[],[1],[],vertical,"(890.0, 262.0)",1.7,nan,1,8106.784,1,0.0,same
0,759,valid,"[(1157, 774)]",[],[1],[0.5666666666666667],vertical,"(890.0, 762.0)",0.5,0.52,1,8112.035,2,0.0,same
0,760,catch,"[(1161, 794)]",[],[1],[],horizontal,"(390.0, 762.0)",1.7,nan,1,8117.049,2,0.0,same
0,761,valid,"[(1145, 773)]",[],[1],[0.55],vertical,"(390.0, 262.0)",0.9833333333333333,0.507,1,8122.326,2,0.0,same
0,762,valid,"[(1157, 811)]",[],[1],[0.85],horizontal,"(890.0, 762.0)",0.3833333333333333,nan,0,8127.494,0,0.0,same
0,763,valid,"[(1131, 804)]",[],[1],[0.7166666666666667],vertical,"(890.0, 762.0)",0.85,0.674,1,8131.365,1,0.0,same
0,764,valid,"[(1171, 796)]",[],[1],[0.5166666666666666],horizontal,"(390.0, 762.0)",1.15,0.481,1,8136.609,1,0.0,same
0,765,invalid_same_bar,"[(1160, 796)]",[],[1],[0.6333333333333333],vertical,"(390.0, 262.0)",0.5,0.587,1,8142.144,1,0.0,same
0,766,valid,"[(1160, 804)]",[],[1],[0.8],horizontal,"(390.0, 262.0)",1.0833333333333333,0.754,1,8146.721,2,0.0,same
0,767,catch,"[(1160, 791)]",[],[1],[],vertical,"(390.0, 762.0)",1.7,nan,1,8152.86,2,0.0,same
0,768,valid,"[(1165, 794)]",[],[1],[0.65],vertical,"(890.0, 262.0)",1.15,0.604,1,8158.281,2,0.0,same
0,769,catch,"[(1170, 792)]",[],[1],[],horizontal,"(890.0, 762.0)",1.7,nan,1,8163.96,2,0.0,same
0,770,invalid_adjacent_other_bar,"[(1175, 816)]",[],[1],[0.55],vertical,"(890.0, 762.0)",0.6666666666666666,0.507,1,8169.64,3,0.0,other
0,771,valid,"[(1176, 782)]",[],[1],[0.6833333333333333],vertical,"(390.0, 262.0)",0.7666666666666666,0.638,1,8175.126,3,0.0,same
0,772,valid,"[(1158, 781)]",[],[1],[0.5333333333333333],vertical,"(890.0, 262.0)",0.6666666666666666,0.494,1,8181.121,3,0.0,same
0,773,valid,"[(1161, 782)]",[],[1],[0.5],horizontal,"(890.0, 262.0)",0.7333333333333333,0.458,1,8186.699,3,0.0,same
0,774,valid,"[(1150, 786)]",[],[1],[0.65],vertical,"(390.0, 762.0)",0.8166666666666667,0.604,1,8192.493,3,0.0,same
0,775,catch,"[(1156, 778)]",[],[1],[],vertical,"(390.0, 762.0)",1.7,nan,1,8197.893,3,0.0,same
0,776,valid,"[(1155, 785)]",[],[1],[0.85],horizontal,"(390.0, 762.0)",0.4166666666666667,nan,0,8203.477,0,0.0,same
0,777,catch,"[(1131, 783)]",[],[1],[],vertical,"(890.0, 262.0)",1.7,nan,1,8207.277,1,0.0,same
0,778,valid,"[(1165, 788)]",[],[1],[0.5166666666666666],horizontal,"(390.0, 762.0)",1.45,0.479,1,8212.693,1,0.0,same
0,779,valid,"[(1155, 791)]",[],[1],[0.85],horizontal,"(890.0, 762.0)",0.6666666666666666,nan,0,8218.554,0,0.0,same
0,780,valid,"[(1132, 795)]",[],[1],[0.5166666666666666],vertical,"(390.0, 762.0)",1.2,0.485,1,8222.844,1,0.0,same
0,781,invalid_adjacent_other_bar,"[(1155, 809)]",[],[1],[0.6],vertical,"(890.0, 262.0)",0.8,0.558,1,8228.36,1,0.0,other
0,782,valid,"[(1153, 786)]",[],[1],[0.65],vertical,"(890.0, 762.0)",1.3333333333333333,0.607,1,8233.01,1,0.0,same
0,783,valid,"[(1173, 794)]",[],[1],[0.65],vertical,"(390.0, 262.0)",1.4666666666666666,0.609,1,8238.868,2,0.0,same
0,784,valid,"[(1177, 775)]",[],[1],[0.8],vertical,"(890.0, 762.0)",0.5666666666666667,0.757,1,8244.827,2,0.0,same
0,785,valid,"[(1155, 781)]",[],[1],[0.65],horizontal,"(390.0, 262.0)",0.8666666666666667,0.607,1,8249.961,2,0.0,same
0,786,valid,"[(1136, 804)]",[],[1],[0.85],vertical,"(390.0, 762.0)",0.36666666666666664,nan,0,8255.362,0,0.0,same
0,787,valid,"[(1141, 804)]",[],[1],[0.6166666666666667],horizontal,"(890.0, 762.0)",1.25,0.575,1,8259.981,1,0.0,same
0,788,valid,"[(1158, 781)]",[],[1],[0.6],horizontal,"(390.0, 762.0)",0.6666666666666666,0.559,1,8265.144,1,0.0,same
0,789,valid,"[(1155, 791)]",[],[1],[0.6333333333333333],horizontal,"(890.0, 762.0)",1.5166666666666666,0.589,1,8269.635,1,0.0,same
0,790,valid,"[(1160, 787)]",[],[1],[0.55],vertical,"(890.0, 262.0)",1.4333333333333333,0.508,1,8275.478,2,0.0,same
0,791,valid,"[(1170, 802)]",[],[1],[0.65],horizontal,"(390.0, 262.0)",0.8,0.607,1,8281.493,2,0.0,same
0,792,valid,"[(1155, 803)]",[],[1],[0.6],horizontal,"(890.0, 762.0)",0.4166666666666667,0.561,1,8287.16,2,0.0,same
0,793,catch,"[(1197, 807)]",[],[1],[],vertical,"(890.0, 762.0)",,"('fix', 0.294),nan",0,8291.958,0,0.02,same
0,794,catch,"[(1116, 821)]",[],[1],[],horizontal,"(390.0, 762.0)",1.7,nan,1,8293.829,1,0.02,same
0,795,valid,"[(1166, 788)]",[],[1],[0.85],horizontal,"(390.0, 262.0)",0.6666666666666666,nan,0,8299.428,0,0.02,same
0,796,valid,"[(1160, 784)]",[],[1],[0.2],vertical,"(390.0, 262.0)",0.8333333333333334,0.172,0,8304.278,0,0.02,same
0,797,valid,"[(1131, 792)]",[],[1],[0.5666666666666667],vertical,"(890.0, 762.0)",1.4333333333333333,0.524,1,8308.444,1,0.02,same
0,798,valid,"[(1185, 804)]",[],[1],[0.5666666666666667],horizontal,"(890.0, 262.0)",1.3833333333333333,0.531,1,8314.093,1,0.02,same
0,799,valid,"[(1170, 806)]",[],[1],[0.7],vertical,"(890.0, 262.0)",1.4,0.657,1,8319.443,1,0.02,same
0,800,valid,"[(1155, 781)]",[],[1],[],vertical,"(390.0, 262.0)",,"('cti', 0.6)",0,8324.895,0,0.02,same
0,801,valid,"[(1097, 845)]",[],[1],[0.5666666666666667],vertical,"(890.0, 262.0)",0.43333333333333335,0.533,1,8328.228,1,0.02,same
0,802,valid,"[(1155, 825)]",[],[1],[0.85],vertical,"(890.0, 262.0)",0.5833333333333334,nan,0,8377.51,0,0.02,same
0,803,catch,"[(1136, 786)]",[],[1],[],vertical,"(890.0, 262.0)",1.7,nan,1,8381.694,1,0.02,same
0,804,valid,"[(1153, 800)]",[],[1],[0.7333333333333333],horizontal,"(390.0, 262.0)",1.4833333333333334,0.69,1,8386.893,1,0.02,same
0,805,valid,"[(1163, 792)]",[],[1],[0.6],vertical,"(390.0, 762.0)",1.3333333333333333,0.553,1,8392.695,1,0.02,same
0,806,catch,"[(1171, 769)]",[],[1],[],horizontal,"(390.0, 762.0)",1.7,nan,1,8398.128,2,0.02,same
0,807,valid,"[(1174, 809)]",[],[1],[0.85],vertical,"(890.0, 262.0)",0.5166666666666666,nan,0,8403.904,0,0.02,same
0,808,valid,"[(1131, 801)]",[],[1],[0.85],horizontal,"(390.0, 262.0)",0.7833333333333333,nan,0,8408.111,0,0.02,same
0,809,valid,"[(1083, 826)]",[],[1],[0.5333333333333333],vertical,"(890.0, 762.0)",1.2333333333333334,0.495,1,8412.293,1,0.02,same
0,810,catch,"[(1132, 803)]",[],[1],[],horizontal,"(390.0, 762.0)",1.7,nan,1,8418.056,1,0.02,same
0,811,valid,"[(1161, 801)]",[],[1],[0.7],horizontal,"(390.0, 762.0)",1.0333333333333332,0.656,1,8423.238,1,0.02,same
0,812,valid,"[(1165, 803)]",[],[1],[0.55],horizontal,"(890.0, 262.0)",0.4166666666666667,0.51,1,8428.271,2,0.02,same
0,813,catch,"[(1156, 789)]",[],[1],[],vertical,"(390.0, 762.0)",1.7,nan,1,8432.745,2,0.02,same
0,814,valid,"[(1164, 796)]",[],[1],[0.48333333333333334],horizontal,"(890.0, 762.0)",1.5,0.443,1,8438.286,2,0.02,same
0,815,valid,"[(1178, 799)]",[],[1],[0.4],horizontal,"(390.0, 762.0)",0.8,0.36,1,8444.247,2,0.02,same
0,816,valid,"[(1178, 817)]",[],[1],[0.65],horizontal,"(890.0, 262.0)",0.8,0.606,1,8449.766,3,0.02,same
0,817,catch,"[(1177, 796)]",[],[1],[],vertical,"(890.0, 262.0)",1.7,nan,1,8455.888,3,0.02,same
0,818,invalid_same_bar,"[(1190, 794)]",[],[1],[0.5],vertical,"(890.0, 262.0)",1.5333333333333332,0.457,1,8461.952,3,0.02,same
0,819,valid,"[(1157, 775)]",[],[1],[0.55],vertical,"(890.0, 762.0)",1.45,0.508,1,8468.193,3,0.02,same
0,820,catch,"[(1160, 796)]",[],[1],[],horizontal,"(390.0, 762.0)",1.7,nan,1,8474.428,3,0.02,same
0,821,valid,"[(1183, 790)]",[],[1],[0.5166666666666666],horizontal,"(390.0, 262.0)",0.9166666666666666,0.48,1,8480.378,3,0.02,same
0,822,valid,"[(1160, 782)]",[],[1],[0.5],horizontal,"(390.0, 262.0)",1.15,0.455,1,8486.08,3,0.02,same
0,823,catch,"[(1171, 796)]",[],[1],[],horizontal,"(390.0, 762.0)",1.7,nan,1,8491.693,3,0.02,same
0,824,catch,"[(1176, 784)]",[],[1],[],horizontal,"(390.0, 262.0)",1.7,nan,1,8497.845,3,0.02,same
0,825,catch,"[(1172, 801)]",[],[1],[],vertical,"(890.0, 262.0)",1.7,nan,1,8504.085,3,0.02,same
0,826,invalid_same_bar,"[(1185, 802)]",[],[1],[0.7],vertical,"(890.0, 762.0)",0.8,0.658,1,8510.41,3,0.02,same
0,827,catch,"[(1182, 815)]",[],[1],[],horizontal,"(390.0, 762.0)",1.7,nan,1,8516.611,3,0.02,same
0,828,catch,"[(1163, 785)]",[],[1],[],vertical,"(890.0, 262.0)",1.7,nan,1,8522.494,3,0.02,same
0,829,invalid_same_bar,"[(1181, 791)]",[],[1],[0.5166666666666666],vertical,"(890.0, 762.0)",0.7,0.472,1,8528.144,3,0.02,same
0,830,catch,"[(1180, 785)]",[],[1],[],vertical,"(390.0, 262.0)",1.7,nan,1,8533.845,3,0.02,same
0,831,catch,"[(1180, 796)]",[],[1],[],vertical,"(390.0, 762.0)",1.7,nan,1,8539.7,3,0.02,same
0,832,valid,"[(1169, 807)]",[],[1],[0.55],horizontal,"(390.0, 262.0)",1.1666666666666667,0.507,1,8545.759,3,0.02,same
0,833,invalid_same_bar,"[(1156, 799)]",[],[1],[0.5166666666666666],vertical,"(890.0, 262.0)",0.36666666666666664,0.479,1,8551.862,3,0.02,same
0,834,valid,"[(1164, 789)]",[],[1],[0.6166666666666667],vertical,"(390.0, 262.0)",1.3,0.573,1,8556.977,3,0.02,same
0,835,valid,"[(1166, 784)]",[],[1],[0.6166666666666667],vertical,"(390.0, 262.0)",1.25,0.58,1,8563.128,3,0.02,same
0,836,valid,"[(1177, 796)]",[],[1],[0.5333333333333333],vertical,"(890.0, 762.0)",1.0166666666666666,0.496,1,8569.377,3,0.02,same
0,837,valid,"[(1165, 791)]",[],[1],[0.6333333333333333],horizontal,"(890.0, 762.0)",0.6166666666666667,0.591,1,8575.11,3,0.02,same
0,838,catch,"[(1167, 786)]",[],[1],[],horizontal,"(890.0, 262.0)",1.7,nan,1,8580.344,3,0.02,same
0,839,valid,"[(1156, 787)]",[],[1],[0.5166666666666666],horizontal,"(390.0, 262.0)",0.6666666666666666,0.482,1,8586.381,3,0.02,same
0,840,invalid_same_bar,"[(1185, 774)]",[],[1],[0.6],horizontal,"(390.0, 762.0)",1.2666666666666666,0.555,1,8591.528,3,0.02,same
0,841,invalid_adjacent_other_bar,"[(1160, 782)]",[],[1],[0.5166666666666666],horizontal,"(390.0, 762.0)",1.5,0.477,1,8597.276,3,0.02,other
0,842,valid,"[(1162, 776)]",[],[1],[0.5666666666666667],vertical,"(390.0, 262.0)",0.85,0.526,1,8603.537,3,0.02,same
0,843,valid,"[(1159, 773)]",[],[1],[0.55],vertical,"(390.0, 262.0)",1.5333333333333332,0.506,1,8608.944,3,0.0,same
0,844,catch,"[(1168, 808)]",[],[1],[],horizontal,"(890.0, 262.0)",1.7,nan,1,8615.194,3,0.0,same
0,845,valid,"[(1174, 783)]",[],[1],[0.55],horizontal,"(890.0, 262.0)",0.9,0.516,1,8621.154,3,0.0,same
0,846,invalid_adjacent_other_bar,"[(1161, 791)]",[],[1],[0.5166666666666666],vertical,"(390.0, 262.0)",0.4166666666666667,0.476,1,8626.561,3,0.0,other
0,847,valid,"[(1160, 777)]",[],[1],[0.6666666666666666],vertical,"(390.0, 262.0)",1.5166666666666666,0.622,1,8632.194,3,0.0,same
0,848,catch,"[(1156, 783)]",[],[1],[],horizontal,"(890.0, 762.0)",1.7,nan,1,8638.528,3,0.0,same
0,849,valid,"[(1167, 786)]",[],[1],[0.85],horizontal,"(390.0, 262.0)",0.3833333333333333,nan,0,8644.564,0,0.0,same
0,850,valid,"[(1116, 825)]",[],[1],[0.65],vertical,"(390.0, 262.0)",1.1,0.606,1,8648.621,1,0.0,same
0,851,catch,"[(1155, 792)]",[],[1],[],horizontal,"(890.0, 762.0)",1.7,nan,1,8771.723,1,0.0,same
0,852,catch,"[(1153, 790)]",[],[1],[],vertical,"(890.0, 762.0)",1.7,nan,1,8776.997,1,0.0,same
0,853,valid,"[(1156, 786)]",[],[1],[0.6666666666666666],vertical,"(890.0, 262.0)",0.7333333333333333,0.628,1,8782.329,2,0.0,same
0,854,catch,"[(1157, 815)]",[],[1],[],vertical,"(890.0, 762.0)",1.7,nan,1,8787.894,2,0.0,same
0,855,invalid_same_bar,"[(1159, 803)]",[],[1],[0.6],horizontal,"(890.0, 762.0)",0.8833333333333333,0.558,1,8793.579,2,0.0,same
0,856,catch,"[(1158, 817)]",[],[1],[],vertical,"(390.0, 262.0)",1.7,nan,1,8798.561,2,0.0,same
0,857,valid,"[(1163, 790)]",[],[1],[0.5833333333333334],vertical,"(390.0, 262.0)",0.8666666666666667,0.543,1,8804.362,3,0.0,same
0,858,valid,"[(1132, 769)]",[],[1],[0.85],vertical,"(390.0, 262.0)",1.3333333333333333,nan,0,8810.61,0,0.0,same
0,859,valid,"[(1154, 792)]",[],[1],[0.5],vertical,"(890.0, 262.0)",1.05,0.462,1,8815.912,1,0.0,same
0,860,valid,"[(1171, 784)]",[],[1],[0.55],vertical,"(390.0, 762.0)",0.8833333333333333,0.508,1,8820.929,1,0.0,same
0,861,catch,"[(1169, 820)]",[],[1],[],vertical,"(390.0, 262.0)",1.7,nan,1,8825.911,1,0.0,same
0,862,catch,"[(1141, 770)]",[],[1],[],vertical,"(390.0, 762.0)",1.7,nan,1,8830.895,2,0.0,same
0,863,valid,"[(1195, 784)]",[],[1],[0.55],vertical,"(890.0, 262.0)",0.4166666666666667,0.506,1,8836.395,2,0.0,same
0,864,invalid_adjacent_other_bar,"[(1165, 803)]",[],[1],[0.85],horizontal,"(390.0, 262.0)",1.4333333333333333,nan,0,8841.045,0,0.0,other
0,865,catch,"[(1149, 791)]",[],[1],[],vertical,"(890.0, 762.0)",1.7,nan,1,8846.045,1,0.0,same
0,866,catch,"[(1176, 799)]",[],[1],[],horizontal,"(390.0, 262.0)",1.7,nan,1,8850.962,1,0.0,same
0,867,valid,"[(1173, 786)]",[],[1],[0.5833333333333334],vertical,"(890.0, 762.0)",0.9,0.541,1,8856.416,1,0.0,same
0,868,catch,"[(1160, 791)]",[],[1],[],horizontal,"(890.0, 762.0)",1.7,nan,1,8861.47,2,0.0,same
0,869,valid,"[(1178, 773)]",[],[1],[0.7],vertical,"(390.0, 262.0)",1.2166666666666666,0.66,1,8867.447,2,0.0,same
