block,practice,trial,trial_type,taps_start_loc_during_fix,taps_end_loc_during_fix,taps_on_lever_during_fix,taps_on_lever_s_during_fix,bar_orientation,target_xy,cti,rt,acc,time
1,True,1,target,"[(1134, 836)]",[],[1],[0.4666666666666667],vertical,"(890.0, 262.0)",0.5333333333333333,0.427,1,0.046
1,True,2,target,"[(1134, 834)]",[],[1],[0.4666666666666667],horizontal,"(890.0, 762.0)",1.6666666666666667,0.421,1,4.629
1,True,3,target,"[(1128, 887)]",[],[1],[0.48333333333333334],horizontal,"(890.0, 762.0)",0.8166666666666667,0.449,1,15.754
1,True,4,target,"[(1077, 910)]",[],[1],[],vertical,"(390.0, 762.0)",,cti_phase,0,20.592
1,False,1,catch,"[(1081, 892)]",[],[1],[0.6166666666666667],vertical,"(390.0, 262.0)",1.2833333333333332,0.577,0,63.09
1,False,2,target,"[(1074, 896)]",[],[1],[0.5166666666666666],vertical,"(890.0, 762.0)",0.9833333333333333,0.469,1,67.689
1,False,3,target,"[(1063, 897)]",[],[1],[0.13333333333333333],vertical,"(390.0, 762.0)",1.6833333333333333,0.099,1,112.416
1,False,4,target,"[(1091, 906)]",[],[1],[0.85],horizontal,"(390.0, 262.0)",0.9166666666666666,nan,0,117.468
1,False,5,target,"[(1091, 886)]",[],[1],[0.55],vertical,"(890.0, 762.0)",0.6166666666666667,0.508,1,122.679
1,False,6,target,"[(1071, 910)]",[],[1],[0.5],horizontal,"(890.0, 262.0)",1.4666666666666666,0.46,1,131.288
1,False,7,target,"[(1095, 881)]",[],[1],[0.48333333333333334],horizontal,"(390.0, 762.0)",1.3833333333333333,0.442,1,136.594
1,False,8,target,"[(1072, 886)]",[],[1],[0.7],vertical,"(390.0, 762.0)",1.25,0.655,1,141.735
1,False,9,target,"[(1095, 897)]",[],[1],[0.55],vertical,"(390.0, 762.0)",0.5833333333333334,0.512,1,146.556
1,False,10,target,"[(1075, 896)]",[],[1],[0.4],horizontal,"(390.0, 762.0)",1.1833333333333333,0.365,1,150.641
1,False,11,target,"[(1081, 876)]",[],[1],[0.5166666666666666],horizontal,"(390.0, 762.0)",1.3,0.473,1,155.017
1,False,12,target,"[(1071, 885)]",[],[1],[0.4666666666666667],horizontal,"(390.0, 262.0)",1.1833333333333333,0.429,1,159.694
1,False,13,target,"[(1100, 886)]",[],[1],[0.5166666666666666],vertical,"(890.0, 762.0)",1.2,0.483,1,164.312
1,False,14,target,"[(1095, 888)]",[],[1],[0.6],vertical,"(890.0, 762.0)",0.7666666666666666,0.565,1,169.092
1,False,15,catch,"[(1074, 892)]",[],[1],[0.85],vertical,"(890.0, 262.0)",0.8333333333333334,nan,1,173.855
1,False,16,target,"[(1081, 896)]",[],[1],[0.5833333333333334],horizontal,"(890.0, 762.0)",0.7833333333333333,0.543,1,178.434
1,False,17,target,"[(1091, 878)]",[],[1],[0.5166666666666666],horizontal,"(890.0, 762.0)",1.1166666666666667,0.477,1,183.527
1,False,18,target,"[(1086, 892)]",[],[1],[0.1],vertical,"(890.0, 762.0)",1.4833333333333334,0.069,1,187.828
1,False,19,target,"[(1089, 899)]",[],[1],[0.6833333333333333],horizontal,"(390.0, 262.0)",0.7333333333333333,0.636,1,192.839
1,False,20,target,"[(537, 758), (742, 713), (620, 739), (616, 741), (1192, 724), (544, 767), (399, 731), (727, 643), (785, 743), (790, 728), (388, 556), (606, 733), (1095, 876)]","[(1079, 887)]","[0, 0, 0, 0, 0, 0, 0, 0, 0, 0, 0, 0, 1]",[0.3],horizontal,"(390.0, 262.0)",,bar_phase,0,197.227
1,False,21,target,"[(732, 805), (548, 752), (726, 753), (722, 805), (231, 662), (553, 752), (676, 605), (388, 772), (761, 585), (513, 748), (373, 414), (393, 741), (525, 628), (727, 760), (698, 816), (1158, 738), (1114, 705), (1182, 629), (601, 713), (548, 839), (1104, 745), (732, 423), (589, 435), (673, 421), (567, 315), (756, 473), (553, 776), (327, 333), (272, 146), (1148, 708), (945, 441), (854, 696), (747, 772), (1012, 719), (1027, 797)]",[],"[0, 0, 0, 0, 0, 0, 0, 0, 0, 0, 0, 0, 0, 0, 0, 0, 0, 0, 0, 0, 0, 0, 0, 0, 0, 0, 0, 0, 0, 0, 0, 0, 0, 0, 1]",[],horizontal,"(890.0, 262.0)",,fix_phase,0,204.491
1,False,22,target,"[(1008, 714), (968, 811), (1163, 718), (1235, 833), (1105, 805)]","[(1112, 785)]","[0, 0, 0, 0, 1]",[0.4666666666666667],vertical,"(390.0, 262.0)",,bar_phase,0,224.079
1,False,23,target,"[(1158, 805)]",[],[1],[],horizontal,"(390.0, 262.0)",,fix_phase,0,235.12
1,False,24,catch,"[(1167, 727), (1158, 830)]",[],"[0, 1]",[0.85],vertical,"(390.0, 762.0)",0.7666666666666666,nan,1,238.876
1,False,25,target,"[(1138, 723), (1167, 738), (1058, 902)]",[],"[0, 0, 1]",[0.5166666666666666],vertical,"(890.0, 762.0)",0.65,0.472,1,250.477
1,False,26,target,"[(1082, 885)]",[],[1],[0.5],horizontal,"(390.0, 762.0)",1.1166666666666667,0.458,1,271.479
1,False,27,target,"[(1078, 907)]",[],[1],[0.85],horizontal,"(890.0, 762.0)",1.5833333333333333,nan,0,275.936
1,False,28,target,"[(1089, 889)]","[(1072, 900)]",[1],[0.8],horizontal,"(390.0, 262.0)",,bar_phase,0,281.584
1,False,29,target,"[(1148, 757)]",[],[1],[0.55],horizontal,"(390.0, 262.0)",0.8666666666666667,0.506,1,285.999
1,False,30,target,"[(1057, 879)]",[],[1],"[0.85, 0.85]",horizontal,"(390.0, 762.0)",1.25,"0.802,nan",0,291.607
1,False,31,target,"[(1059, 884)]",[],[1],[],horizontal,"(390.0, 262.0)",,cti_phase,0,296.677
1,False,32,target,"[(1056, 877)]",[],[1],[0.85],vertical,"(890.0, 762.0)",0.5833333333333334,nan,0,301.941
1,False,33,target,"[(1052, 899)]",[],[1],[0.85],horizontal,"(890.0, 762.0)",1.5666666666666667,nan,0,311.05
1,False,34,target,"[(930, 848), (879, 772), (1003, 945), (872, 590), (959, 246), (1074, 911)]",[],"[0, 0, 0, 0, 0, 1]",[0.13333333333333333],vertical,"(390.0, 762.0)",1.4,0.101,1,319.4
1,False,35,catch,"[(1071, 895)]",[],[1],[0.85],vertical,"(390.0, 262.0)",1.1833333333333333,nan,1,385.902
1,False,36,catch,"[(1027, 892)]",[],[1],[0.2833333333333333],vertical,"(390.0, 762.0)",1.3333333333333333,0.247,0,390.979
1,False,37,target,"[(1071, 901)]",[],[1],[0.55],vertical,"(390.0, 762.0)",0.5333333333333333,0.507,1,395.974
1,False,38,target,"[(1066, 901)]",[],[1],[0.06666666666666667],vertical,"(890.0, 762.0)",1.5666666666666667,0.036,1,423.269
1,False,39,target,"[(1073, 892)]",[],[1],[0.6],horizontal,"(890.0, 762.0)",1.2,0.555,1,428.288
1,False,40,target,"[(1076, 903)]",[],[1],[0.15],horizontal,"(390.0, 262.0)",0.8333333333333334,0.117,1,433.376
1,False,41,target,"[(1074, 896)]",[],[1],[0.48333333333333334],horizontal,"(890.0, 262.0)",1.65,0.441,1,437.379
1,False,42,target,"[(1075, 894)]",[],[1],[],vertical,"(890.0, 262.0)",,cti_phase,0,443.04
1,False,43,catch,"[(1056, 883)]",[],[1],[0.85],horizontal,"(390.0, 262.0)",0.9333333333333333,nan,1,446.695
1,False,44,target,"[(1060, 893)]",[],[1],[],vertical,"(390.0, 762.0)",,cti_phase,0,484.158
1,False,45,target,"[(1126, 904)]",[],[1],"[0.85, 0.85]",horizontal,"(890.0, 762.0)",0.6833333333333333,"0.808,nan",0,488.878
1,False,46,target,"[(1063, 896)]",[],[1],[0.5833333333333334],vertical,"(390.0, 262.0)",1.0666666666666667,0.545,1,495.428
1,False,47,target,"[(1073, 907)]",[],[1],[0.85],vertical,"(390.0, 762.0)",1.55,nan,0,502.53
1,False,48,target,"[(1092, 906)]",[],[1],[0.85],vertical,"(890.0, 262.0)",0.6666666666666666,nan,0,508.244
1,False,49,target,"[(1072, 880)]",[],[1],[0.5833333333333334],horizontal,"(890.0, 262.0)",0.5333333333333333,0.537,1,514.27
1,False,50,target,"[(1086, 889)]",[],[1],[0.5333333333333333],vertical,"(890.0, 262.0)",1.5333333333333332,0.489,1,519.279
1,False,51,target,"[(1074, 881)]",[],[1],[0.7333333333333333],vertical,"(390.0, 262.0)",0.5666666666666667,0.685,1,524.94
1,False,52,target,"[(1088, 895)]",[],[1],[0.08333333333333333],horizontal,"(890.0, 262.0)",1.5166666666666666,0.052,1,529.683
1,False,53,target,"[(1173, 903)]",[],[1],[0.7],vertical,"(390.0, 762.0)",1.1833333333333333,0.657,1,534.204
1,False,54,target,"[(1063, 896)]",[],[1],[0.75],vertical,"(390.0, 262.0)",0.6833333333333333,0.705,1,539.485
1,False,55,target,"[(1084, 888)]",[],[1],[0.7333333333333333],vertical,"(390.0, 262.0)",0.6,0.699,1,544.529
1,False,56,catch,"[(1095, 899)]",[],[1],[0.5333333333333333],horizontal,"(890.0, 762.0)",0.7833333333333333,0.497,0,549.427
1,False,57,target,"[(1100, 897)]",[],[1],[0.5166666666666666],horizontal,"(890.0, 762.0)",1.2166666666666666,0.47,1,553.729
1,False,58,catch,"[(1094, 902)]",[],[1],[0.8333333333333334],vertical,"(390.0, 262.0)",0.7166666666666667,0.785,0,558.743
1,False,59,target,"[(1100, 901)]",[],[1],[0.5166666666666666],vertical,"(390.0, 262.0)",0.9166666666666666,0.482,1,563.307
1,False,60,target,"[(1125, 898)]",[],[1],[0.55],horizontal,"(390.0, 762.0)",0.75,0.512,1,568.522
2,False,61,target,"[(1075, 905)]",[],[1],[0.4666666666666667],vertical,"(890.0, 762.0)",1.4166666666666667,0.428,1,573.22
2,False,62,target,"[(1079, 901)]",[],[1],[0.5333333333333333],horizontal,"(390.0, 762.0)",0.9166666666666666,0.493,1,578.037
2,False,63,catch,"[(1079, 897)]",[],[1],[0.85],vertical,"(890.0, 262.0)",1.0666666666666667,nan,1,582.806
2,False,64,target,"[(1056, 909)]",[],[1],[],horizontal,"(390.0, 762.0)",,cti_phase,0,587.473
2,False,65,target,"[(1056, 881)]",[],[1],[0.3],horizontal,"(390.0, 262.0)",1.35,0.264,1,612.078
2,False,66,target,"[(1074, 876)]",[],[1],[0.5333333333333333],horizontal,"(390.0, 262.0)",0.7166666666666667,0.494,1,616.801
2,False,67,target,"[(1088, 879)]",[],[1],[0.4166666666666667],vertical,"(890.0, 762.0)",0.8833333333333333,0.376,1,621.6
2,False,68,target,"[(1095, 909)]",[],[1],[],vertical,"(890.0, 262.0)",,cti_phase,0,625.768
2,False,69,target,"[(1058, 885)]",[],[1],[0.5333333333333333],vertical,"(390.0, 262.0)",1.1,0.489,1,630.278
2,False,70,target,"[(1069, 885)]",[],[1],[0.6],horizontal,"(890.0, 262.0)",0.85,0.555,1,639.503
2,False,71,target,"[(1087, 895)]",[],[1],[0.4166666666666667],vertical,"(390.0, 262.0)",1.0666666666666667,0.374,1,645.178
2,False,72,target,"[(1081, 893)]",[],[1],[0.5166666666666666],vertical,"(890.0, 762.0)",0.5666666666666667,0.47,1,649.527
2,False,73,target,"[(1074, 886)]",[],[1],[0.5666666666666667],horizontal,"(390.0, 762.0)",0.5,0.525,1,653.373
2,False,74,target,"[(1081, 877)]",[],[1],[0.08333333333333333],horizontal,"(390.0, 762.0)",1.2,0.053,1,657.354
2,False,75,target,"[(1095, 883)]",[],[1],[0.3833333333333333],vertical,"(890.0, 262.0)",1.2833333333333332,0.344,1,662.486
2,False,76,target,"[(1104, 909)]",[],[1],[0.5166666666666666],vertical,"(390.0, 262.0)",1.0333333333333332,0.473,1,667.272
2,False,77,target,"[(1072, 914)]",[],[1],[],vertical,"(390.0, 262.0)",,cti_phase,0,671.669
2,False,78,target,"[(1100, 887)]",[],[1],[0.43333333333333335],horizontal,"(390.0, 762.0)",1.2,0.394,1,676.216
2,False,79,target,"[(1107, 902)]",[],[1],[],vertical,"(390.0, 262.0)",,cti_phase,0,680.656
2,False,80,target,"[(1081, 882)]",[],[1],[0.21666666666666667],vertical,"(390.0, 762.0)",1.2166666666666666,0.183,1,684.914
2,False,81,target,"[(1081, 892)]",[],[1],[0.13333333333333333],horizontal,"(390.0, 762.0)",1.1166666666666667,0.101,1,689.228
2,False,82,target,"[(1088, 889)]",[],[1],[0.6833333333333333],vertical,"(890.0, 262.0)",0.75,0.636,1,693.675
2,False,83,target,"[(1091, 881)]",[],[1],[0.48333333333333334],vertical,"(390.0, 262.0)",1.1666666666666667,0.44,1,698.56
2,False,84,target,"[(1098, 890)]",[],[1],[0.48333333333333334],horizontal,"(890.0, 262.0)",1.1333333333333333,0.442,1,703.473
2,False,85,target,"[(1098, 895)]",[],[1],[0.05],vertical,"(890.0, 762.0)",1.3166666666666667,0.02,1,707.827
2,False,86,target,"[(1129, 881)]",[],[1],[0.5166666666666666],vertical,"(890.0, 262.0)",0.8166666666666667,0.474,1,712.133
2,False,87,target,"[(1104, 885)]",[],[1],[0.11666666666666667],vertical,"(890.0, 262.0)",1.6833333333333333,0.083,1,716.686
2,False,88,target,"[(1079, 894)]",[],[1],[0.2],horizontal,"(390.0, 262.0)",1.3666666666666667,0.168,1,721.508
2,False,89,target,"[(1098, 889)]",[],[1],[0.16666666666666666],vertical,"(890.0, 762.0)",1.0333333333333332,0.134,1,725.824
2,False,90,target,"[(1121, 887)]",[],[1],[],horizontal,"(390.0, 262.0)",,cti_phase,0,729.938
2,False,91,target,"[(1109, 877)]",[],[1],[],horizontal,"(390.0, 762.0)",,cti_phase,0,734.228
2,False,92,target,"[(1098, 881)]",[],[1],[0.48333333333333334],vertical,"(890.0, 762.0)",1.0666666666666667,0.44,1,738.282
2,False,93,target,"[(1107, 902)]",[],[1],[0.4666666666666667],vertical,"(390.0, 262.0)",0.9,0.423,1,747.76
2,False,94,target,"[(1110, 892)]",[],[1],[0.5],vertical,"(390.0, 762.0)",0.9333333333333333,0.458,1,752.646
2,False,95,target,"[(1104, 893)]",[],[1],[0.5],vertical,"(890.0, 762.0)",0.85,0.463,1,756.873
2,False,96,target,"[(1114, 881)]",[],[1],[],horizontal,"(890.0, 762.0)",,cti_phase,0,761.041
2,False,97,target,"[(1100, 881)]",[],[1],[0.3],horizontal,"(390.0, 762.0)",1.1666666666666667,0.267,1,765.045
2,False,98,target,"[(1094, 890)]",[],[1],[0.31666666666666665],vertical,"(390.0, 762.0)",0.7166666666666667,0.277,1,769.912
2,False,99,target,"[(1104, 887)]",[],[1],[0.3],vertical,"(890.0, 262.0)",1.5666666666666667,0.263,1,774.274
2,False,100,target,"[(1092, 883)]",[],[1],[],vertical,"(390.0, 762.0)",,cti_phase,0,779.278
2,False,101,target,"[(1100, 889)]",[],[1],[0.85],vertical,"(390.0, 262.0)",1.4333333333333333,"cti_phase,nan",0,783.718
2,False,102,catch,"[(1090, 875)]",[],[1],[0.85],vertical,"(390.0, 262.0)",0.5666666666666667,nan,1,790.195
2,False,103,target,"[(1095, 909)]",[],[1],[0.5166666666666666],horizontal,"(890.0, 262.0)",1.2333333333333334,0.476,1,794.743
2,False,104,target,"[(1098, 869)]",[],[1],[0.35],horizontal,"(890.0, 762.0)",1.45,0.312,1,800.98
2,False,105,target,"[(1081, 886)]",[],[1],[],vertical,"(390.0, 762.0)",,cti_phase,0,805.907
2,False,106,target,"[(1086, 878)]",[],[1],[0.5],horizontal,"(390.0, 262.0)",1.2166666666666666,0.462,1,810.576
2,False,107,target,"[(1093, 875)]",[],[1],[0.6],horizontal,"(390.0, 262.0)",0.9,0.56,1,815.376
2,False,108,target,"[(1082, 875)]",[],[1],[],horizontal,"(390.0, 262.0)",,cti_phase,0,819.907
2,False,109,target,"[(1103, 876)]",[],[1],[0.5333333333333333],vertical,"(390.0, 262.0)",0.7333333333333333,0.499,1,824.578
2,False,110,target,"[(1082, 883)]",[],[1],[0.05],vertical,"(390.0, 762.0)",1.4666666666666666,0.019,1,829.465
2,False,111,target,"[(1105, 885)]",[],[1],[0.4],horizontal,"(390.0, 262.0)",1.0666666666666667,0.369,1,834.007
2,False,112,target,"[(1096, 889)]",[],[1],[0.55],vertical,"(890.0, 262.0)",0.5666666666666667,0.504,1,838.692
2,False,113,target,"[(1097, 895)]",[],[1],[],vertical,"(890.0, 762.0)",,cti_phase,0,843.279
2,False,114,target,"[(1083, 859)]",[],[1],[0.5333333333333333],horizontal,"(390.0, 262.0)",1.0833333333333333,0.493,1,847.783
2,False,115,target,"[(1075, 890)]",[],[1],[0.3],vertical,"(890.0, 762.0)",0.9166666666666666,0.271,1,852.858
2,False,116,target,"[(1090, 874)]",[],[1],[],horizontal,"(890.0, 762.0)",,cti_phase,0,856.914
2,False,117,target,"[(1077, 906)]",[],[1],[],horizontal,"(890.0, 762.0)",,cti_phase,0,861.545
2,False,118,target,"[(1105, 884)]",[],[1],[0.5833333333333334],vertical,"(890.0, 762.0)",0.6666666666666666,0.538,1,872.156
2,False,119,catch,"[(1098, 876)]",[],[1],[0.85],vertical,"(390.0, 262.0)",0.6833333333333333,nan,1,876.112
2,False,120,catch,"[(1100, 889)]",[],[1],[0.08333333333333333],horizontal,"(390.0, 762.0)",1.3666666666666667,0.052,0,880.561
3,False,121,catch,"[(1079, 888)]",[],[1],[0.3833333333333333],horizontal,"(390.0, 262.0)",1.05,0.347,0,884.795
3,False,122,target,"[(1100, 862)]",[],[1],[],horizontal,"(890.0, 262.0)",,cti_phase,0,888.966
3,False,123,target,"[(1104, 868)]",[],[1],[0.1],horizontal,"(390.0, 262.0)",1.5333333333333332,0.067,1,894.012
3,False,124,target,"[(1075, 890)]",[],[1],[0.4666666666666667],vertical,"(890.0, 262.0)",1.4833333333333334,0.425,1,899.066
3,False,125,catch,"[(1104, 893)]",[],[1],[],vertical,"(390.0, 762.0)",,cti_phase,0,904.376
3,False,126,target,"[(1061, 882)]",[],[1],[0.7],horizontal,"(390.0, 762.0)",1.4333333333333333,0.661,1,908.673
3,False,127,target,"[(1086, 887)]",[],[1],[],vertical,"(890.0, 262.0)",,cti_phase,0,913.812
3,False,128,catch,"[(1085, 875)]",[],[1],[0.6166666666666667],horizontal,"(390.0, 762.0)",0.5333333333333333,0.573,0,918.508
3,False,129,target,"[(1080, 870)]",[],[1],[0.5333333333333333],horizontal,"(390.0, 262.0)",0.7833333333333333,0.489,1,922.575
3,False,130,catch,"[(1095, 898)]",[],[1],[],vertical,"(390.0, 762.0)",,cti_phase,0,927.279
3,False,131,target,"[(1104, 872)]",[],[1],[0.35],horizontal,"(890.0, 762.0)",1.4833333333333334,0.318,1,931.94
3,False,132,target,"[(1104, 894)]",[],[1],[0.25],vertical,"(390.0, 762.0)",0.95,0.218,1,936.691
3,False,133,target,"[(1075, 891)]",[],[1],[0.5166666666666666],horizontal,"(890.0, 762.0)",0.8833333333333333,0.482,1,941.311
3,False,134,target,"[(1104, 884)]",[],[1],[0.5833333333333334],horizontal,"(890.0, 262.0)",0.7666666666666666,0.535,1,945.679
3,False,135,target,"[(1102, 879)]",[],[1],[0.5666666666666667],horizontal,"(890.0, 762.0)",0.5333333333333333,0.521,1,949.763
3,False,136,target,"[(1104, 890)]",[],[1],[0.18333333333333332],horizontal,"(890.0, 762.0)",1.4166666666666667,0.147,1,953.961
3,False,137,target,"[(1077, 903)]",[],[1],[0.55],vertical,"(890.0, 262.0)",0.7833333333333333,0.511,1,958.823
3,False,138,target,"[(1093, 867)]",[],[1],[0.48333333333333334],vertical,"(890.0, 762.0)",1.0833333333333333,0.446,1,963.393
3,False,139,target,"[(1092, 876)]",[],[1],[0.3333333333333333],vertical,"(390.0, 762.0)",0.9666666666666667,0.298,1,968.039
3,False,140,target,"[(1093, 886)]",[],[1],[0.3333333333333333],horizontal,"(390.0, 262.0)",1.1833333333333333,0.295,1,972.496
3,False,141,target,"[(1084, 881)]",[],[1],[0.5],horizontal,"(890.0, 262.0)",1.0,0.454,1,976.768
3,False,142,target,"[(1075, 888)]",[],[1],[0.1],horizontal,"(890.0, 762.0)",1.2,0.067,1,980.978
3,False,143,target,"[(1098, 883)]",[],[1],[0.5666666666666667],vertical,"(890.0, 262.0)",0.9333333333333333,0.521,1,985.276
3,False,144,target,"[(1090, 883)]",[],[1],[0.55],vertical,"(390.0, 262.0)",1.15,0.512,1,989.898
3,False,145,target,"[(1082, 884)]",[],[1],[0.5166666666666666],horizontal,"(390.0, 762.0)",0.5833333333333334,0.484,1,994.514
3,False,146,target,"[(1077, 886)]",[],[1],[0.15],vertical,"(890.0, 262.0)",1.1333333333333333,0.117,1,998.913
3,False,147,target,"[(1092, 884)]",[],[1],[0.4666666666666667],horizontal,"(390.0, 762.0)",0.55,0.425,1,1003.478
3,False,148,target,"[(1105, 893)]",[],[1],[0.3],vertical,"(890.0, 262.0)",1.6166666666666667,0.266,1,1007.905
3,False,149,target,"[(1104, 883)]",[],[1],[0.16666666666666666],vertical,"(390.0, 762.0)",1.45,0.134,1,1012.676
3,False,150,target,"[(1129, 893)]",[],[1],[0.6],vertical,"(890.0, 262.0)",0.55,0.556,1,1017.038
3,False,151,target,"[(1090, 871)]",[],[1],[],vertical,"(390.0, 762.0)",,cti_phase,0,1021.628
3,False,152,target,"[(1108, 861)]",[],[1],[0.5166666666666666],horizontal,"(390.0, 762.0)",0.65,0.476,1,1026.006
3,False,153,target,"[(1077, 892)]",[],[1],[0.23333333333333334],vertical,"(390.0, 762.0)",1.2333333333333334,0.197,1,1030.727
3,False,154,target,"[(1104, 896)]",[],[1],[0.55],vertical,"(890.0, 262.0)",0.8,0.508,1,1035.461
3,False,155,target,"[(1103, 891)]",[],[1],[0.5333333333333333],horizontal,"(390.0, 262.0)",0.8,0.488,1,1039.8
3,False,156,target,"[(1109, 886)]",[],[1],[0.5333333333333333],vertical,"(890.0, 262.0)",0.65,0.497,1,1044.523
3,False,157,catch,"[(1088, 889)]",[],[1],[],horizontal,"(390.0, 262.0)",,cti_phase,0,1048.412
3,False,158,target,"[(1104, 876)]",[],[1],[0.13333333333333333],vertical,"(390.0, 762.0)",1.6666666666666667,0.098,1,1052.378
3,False,159,target,"[(1113, 885)]",[],[1],[0.16666666666666666],horizontal,"(890.0, 262.0)",1.45,0.135,1,1057.511
3,False,160,target,"[(1085, 887)]",[],[1],[0.5666666666666667],vertical,"(890.0, 262.0)",0.5333333333333333,0.522,1,1061.867
3,False,161,target,"[(1077, 880)]",[],[1],[0.5666666666666667],horizontal,"(390.0, 262.0)",0.7666666666666666,0.522,1,1066.426
3,False,162,target,"[(1047, 880)]",[],[1],[],vertical,"(890.0, 262.0)",,cti_phase,0,1071.858
3,False,163,target,"[(1074, 872)]",[],[1],[0.5666666666666667],horizontal,"(890.0, 262.0)",0.5666666666666667,0.524,1,1075.593
3,False,164,catch,"[(1076, 885)]",[],[1],[0.85],vertical,"(390.0, 262.0)",0.9166666666666666,nan,1,1081.257
3,False,165,target,"[(1103, 889)]",[],[1],[],vertical,"(390.0, 762.0)",,cti_phase,0,1086.399
3,False,166,target,"[(1095, 872)]",[],[1],[0.5],horizontal,"(390.0, 262.0)",0.8666666666666667,0.452,1,1090.924
3,False,167,target,"[(1088, 893)]",[],[1],[0.5166666666666666],vertical,"(890.0, 262.0)",1.1833333333333333,0.478,1,1095.612
3,False,168,target,"[(1111, 889)]",[],[1],[0.1],vertical,"(390.0, 262.0)",1.5,0.068,1,1100.134
3,False,169,target,"[(1095, 896)]",[],[1],[0.2833333333333333],vertical,"(890.0, 762.0)",1.45,0.249,1,1105.066
3,False,170,target,"[(1090, 884)]",[],[1],[0.36666666666666664],vertical,"(390.0, 762.0)",0.8333333333333334,0.329,1,1109.676
3,False,171,target,"[(1076, 887)]",[],[1],[0.3],vertical,"(390.0, 762.0)",0.8,0.262,1,1114.645
3,False,172,target,"[(1088, 885)]",[],[1],[0.3833333333333333],horizontal,"(890.0, 262.0)",1.3166666666666667,0.343,1,1118.341
3,False,173,target,"[(1101, 898)]",[],[1],[0.5],horizontal,"(890.0, 762.0)",1.0166666666666666,0.459,1,1123.505
3,False,174,target,"[(1104, 880)]",[],[1],[0.48333333333333334],horizontal,"(890.0, 262.0)",0.8333333333333334,0.447,1,1128.253
3,False,175,target,"[(1087, 888)]",[],[1],[0.35],horizontal,"(390.0, 762.0)",0.8166666666666667,0.315,1,1132.554
3,False,176,target,"[(1077, 888)]",[],[1],[],vertical,"(390.0, 762.0)",,cti_phase,0,1136.532
3,False,177,target,"[(1088, 877)]",[],[1],[0.08333333333333333],vertical,"(890.0, 262.0)",1.5333333333333332,0.051,1,1140.6
3,False,178,target,"[(1075, 895)]",[],[1],[0.3833333333333333],vertical,"(890.0, 762.0)",1.4166666666666667,0.345,1,1145.285
3,False,179,catch,"[(1076, 878)]",[],[1],[0.85],horizontal,"(390.0, 762.0)",0.5,nan,1,1150.278
3,False,180,target,"[(1100, 901)]",[],[1],[0.1],vertical,"(890.0, 762.0)",1.1,0.066,1,1154.911
4,False,181,target,"[(1082, 883)]",[],[1],[0.7333333333333333],horizontal,"(390.0, 762.0)",0.6666666666666666,0.683,1,1159.497
4,False,182,catch,"[(1071, 881)]",[],[1],[0.7333333333333333],vertical,"(390.0, 762.0)",0.55,0.699,0,1163.714
4,False,183,target,"[(1103, 887)]",[],[1],[0.5166666666666666],horizontal,"(890.0, 762.0)",0.5333333333333333,0.476,1,1167.842
4,False,184,target,"[(1095, 893)]",[],[1],[0.48333333333333334],vertical,"(890.0, 762.0)",0.7,0.444,1,1172.285
4,False,185,target,"[(1076, 890)]",[],[1],[],horizontal,"(390.0, 762.0)",,cti_phase,0,1176.48
4,False,186,target,"[(1075, 879)]",[],[1],[0.3],vertical,"(890.0, 262.0)",1.2166666666666666,0.265,1,1180.607
4,False,187,target,"[(1079, 886)]",[],[1],[0.18333333333333332],horizontal,"(390.0, 762.0)",0.9833333333333333,0.15,1,1185.607
4,False,188,target,"[(1078, 882)]",[],[1],[0.55],horizontal,"(890.0, 262.0)",0.6666666666666666,0.506,1,1189.957
4,False,189,target,"[(1089, 880)]",[],[1],[0.11666666666666667],vertical,"(390.0, 762.0)",1.0166666666666666,0.085,1,1194.529
4,False,190,target,"[(1087, 885)]",[],[1],[0.21666666666666667],horizontal,"(390.0, 762.0)",1.0,0.182,1,1198.587
4,False,191,target,"[(1074, 876)]",[],[1],[],horizontal,"(390.0, 762.0)",,cti_phase,0,1202.647
4,False,192,target,"[(1101, 880)]",[],[1],[0.85],horizontal,"(890.0, 762.0)",1.6166666666666667,"cti_phase,nan",0,1207.006
4,False,193,target,"[(1078, 888)]",[],[1],[],horizontal,"(890.0, 762.0)",,cti_phase,0,1213.019
4,False,194,target,"[(1109, 891)]",[],[1],[0.85],horizontal,"(390.0, 762.0)",1.0833333333333333,"cti_phase,nan",0,1218.14
4,False,195,target,"[(1102, 876)]",[],[1],[0.5166666666666666],horizontal,"(390.0, 262.0)",0.8,0.477,1,1223.669
4,False,196,target,"[(1100, 895)]",[],[1],[],horizontal,"(390.0, 262.0)",,cti_phase,0,1228.112
4,False,197,target,"[(1110, 877)]",[],[1],[],vertical,"(890.0, 762.0)",,cti_phase,0,1232.43
4,False,198,target,"[(1114, 862)]",[],[1],[],vertical,"(390.0, 762.0)",,cti_phase,0,1237.132
4,False,199,target,"[(1088, 876)]",[],[1],[0.2833333333333333],vertical,"(890.0, 762.0)",1.2333333333333334,0.248,1,1241.391
4,False,200,target,"[(1104, 894)]",[],[1],[0.5333333333333333],horizontal,"(890.0, 762.0)",0.5166666666666666,0.49,1,1245.85
4,False,201,target,"[(1122, 895)]",[],[1],[0.5],vertical,"(890.0, 262.0)",0.6833333333333333,0.461,1,1250.058
4,False,202,target,"[(1100, 888)]",[],[1],[0.55],vertical,"(390.0, 262.0)",1.0833333333333333,0.51,1,1254.229
4,False,203,target,"[(1081, 879)]",[],[1],[],vertical,"(390.0, 762.0)",,cti_phase,0,1259.009
4,False,204,target,"[(1085, 871)]",[],[1],[0.5666666666666667],vertical,"(390.0, 262.0)",0.5666666666666667,0.525,1,1263.288
4,False,205,catch,"[(1078, 894)]",[],[1],[0.5833333333333334],vertical,"(390.0, 262.0)",1.05,0.54,0,1267.607
4,False,206,target,"[(1079, 872)]",[],[1],[],horizontal,"(890.0, 262.0)",,cti_phase,0,1271.964
4,False,207,target,"[(1081, 881)]",[],[1],[0.5],vertical,"(890.0, 262.0)",1.0333333333333332,0.456,1,1278.092
4,False,208,target,"[(1107, 889)]",[],[1],[],horizontal,"(390.0, 262.0)",,cti_phase,0,1282.612
4,False,209,catch,"[(1104, 870)]",[],[1],[0.85],vertical,"(890.0, 262.0)",0.7833333333333333,nan,1,1287.01
4,False,210,target,"[(1104, 886)]",[],[1],[],horizontal,"(890.0, 762.0)",,cti_phase,0,1291.733
4,False,211,target,"[(1084, 880)]",[],[1],[],vertical,"(890.0, 762.0)",,cti_phase,0,1296.015
4,False,212,target,"[(1109, 879)]",[],[1],[0.55],vertical,"(390.0, 762.0)",0.7833333333333333,0.504,1,1300.588
4,False,213,target,"[(1079, 880)]",[],[1],[0.5333333333333333],horizontal,"(890.0, 262.0)",0.6833333333333333,0.494,1,1304.752
4,False,214,target,"[(1104, 892)]",[],[1],[0.5166666666666666],horizontal,"(890.0, 262.0)",0.9666666666666667,0.478,1,1308.943
4,False,215,target,"[(1085, 878)]",[],[1],[0.4],vertical,"(390.0, 762.0)",0.7333333333333333,0.362,1,1313.398
4,False,216,catch,"[(1080, 899)]",[],[1],[0.43333333333333335],vertical,"(890.0, 762.0)",1.2666666666666666,0.393,0,1317.379
4,False,217,target,"[(1101, 868)]",[],[1],[0.5166666666666666],vertical,"(390.0, 762.0)",0.7833333333333333,0.476,1,1322.029
4,False,218,catch,"[(1089, 900)]",[],[1],[0.6833333333333333],horizontal,"(890.0, 262.0)",1.2166666666666666,0.644,0,1327.089
4,False,219,target,"[(1086, 880)]",[],[1],[0.5],vertical,"(390.0, 762.0)",0.7833333333333333,0.462,1,1332.249
4,False,220,target,"[(1082, 888)]",[],[1],[0.6166666666666667],horizontal,"(390.0, 262.0)",0.6833333333333333,0.573,1,1337.244
4,False,221,target,"[(1082, 880)]",[],[1],[0.5166666666666666],horizontal,"(390.0, 262.0)",1.0833333333333333,0.472,1,1341.929
4,False,222,target,"[(1092, 885)]",[],[1],[0.4666666666666667],vertical,"(890.0, 762.0)",1.2166666666666666,0.426,1,1346.745
4,False,223,target,"[(1088, 878)]",[],[1],[],horizontal,"(390.0, 762.0)",,cti_phase,0,1351.32
4,False,224,catch,"[(1104, 883)]",[],[1],[0.6333333333333333],vertical,"(390.0, 762.0)",1.5666666666666667,0.591,0,1355.57
4,False,225,target,"[(1088, 868)]",[],[1],[0.05],vertical,"(890.0, 762.0)",1.5666666666666667,0.02,1,1360.569
4,False,226,target,"[(1109, 879)]",[],[1],[0.5666666666666667],vertical,"(890.0, 762.0)",1.1833333333333333,0.534,1,1365.48
4,False,227,target,"[(1101, 902)]",[],[1],[0.5833333333333334],horizontal,"(390.0, 762.0)",0.9,0.545,1,1370.143
4,False,228,target,"[(1085, 890)]",[],[1],[0.5833333333333334],horizontal,"(890.0, 762.0)",0.7333333333333333,0.54,1,1374.374
4,False,229,target,"[(1104, 900)]",[],[1],[0.4166666666666667],horizontal,"(390.0, 762.0)",1.5666666666666667,0.378,1,1378.725
4,False,230,target,"[(1103, 879)]",[],[1],[0.5833333333333334],horizontal,"(390.0, 762.0)",0.5333333333333333,0.546,1,1383.82
4,False,231,target,"[(1085, 888)]",[],[1],[0.65],horizontal,"(390.0, 762.0)",0.55,0.608,1,1387.907
4,False,232,target,"[(1099, 895)]",[],[1],[0.55],horizontal,"(890.0, 762.0)",1.2,0.506,1,1392.227
4,False,233,target,"[(1115, 895)]",[],[1],[0.5],vertical,"(390.0, 762.0)",0.9,0.456,1,1396.828
4,False,234,target,"[(1082, 867)]",[],[1],[],vertical,"(890.0, 762.0)",,cti_phase,0,1401.099
4,False,235,target,"[(1104, 904)]",[],[1],[],vertical,"(890.0, 762.0)",,cti_phase,0,1405.267
4,False,236,target,"[(1101, 883)]",[],[1],[0.55],vertical,"(890.0, 762.0)",0.6666666666666666,0.504,1,1409.39
4,False,237,target,"[(1107, 893)]",[],[1],[0.4],vertical,"(390.0, 762.0)",0.6333333333333333,0.359,1,1413.335
4,False,238,target,"[(1103, 873)]",[],[1],[0.5166666666666666],vertical,"(890.0, 762.0)",0.6666666666666666,0.471,1,1417.13
4,False,239,target,"[(1092, 893)]",[],[1],[0.5166666666666666],horizontal,"(890.0, 262.0)",1.0,0.476,1,1421.514
4,False,240,target,"[(1105, 891)]",[],[1],[0.48333333333333334],vertical,"(890.0, 262.0)",0.6333333333333333,0.442,1,1426.474
5,False,241,target,"[(1102, 891)]",[],[1],[0.55],vertical,"(390.0, 262.0)",0.9333333333333333,0.517,1,1430.429
5,False,242,target,"[(1118, 886)]",[],[1],[0.5166666666666666],vertical,"(890.0, 262.0)",0.6166666666666667,0.474,1,1434.804
5,False,243,target,"[(1084, 869)]",[],[1],[0.45],horizontal,"(390.0, 762.0)",1.45,0.412,1,1438.94
5,False,244,catch,"[(1107, 904)]",[],[1],[0.85],horizontal,"(890.0, 262.0)",0.8333333333333334,nan,1,1444.159
5,False,245,catch,"[(1106, 906)]",[],[1],[],horizontal,"(390.0, 262.0)",,cti_phase,0,1449.042
5,False,246,target,"[(1109, 881)]",[],[1],[0.5166666666666666],vertical,"(390.0, 762.0)",1.4,0.476,1,1453.757
5,False,247,target,"[(1101, 891)]",[],[1],[0.45],horizontal,"(390.0, 262.0)",1.0666666666666667,0.404,1,1458.575
5,False,248,target,"[(1094, 899)]",[],[1],[0.5166666666666666],vertical,"(390.0, 762.0)",1.0166666666666666,0.477,1,1462.86
5,False,249,target,"[(1112, 888)]",[],[1],[0.5166666666666666],vertical,"(890.0, 762.0)",0.7666666666666666,0.477,1,1467.66
5,False,250,target,"[(1110, 906)]",[],[1],[0.5333333333333333],vertical,"(390.0, 262.0)",0.7833333333333333,0.494,1,1471.879
5,False,251,target,"[(1100, 868)]",[],[1],[0.23333333333333334],vertical,"(890.0, 762.0)",1.0,0.201,1,1476.756
5,False,252,target,"[(1101, 887)]",[],[1],[0.2833333333333333],horizontal,"(890.0, 262.0)",1.6,0.248,1,1480.887
5,False,253,target,"[(1149, 906)]",[],[1],[],vertical,"(390.0, 762.0)",,cti_phase,0,1485.739
5,False,254,target,"[(1082, 880)]",[],[1],[0.5],horizontal,"(390.0, 762.0)",0.7333333333333333,0.457,1,1489.719
5,False,255,target,"[(1105, 885)]",[],[1],[0.85],horizontal,"(890.0, 262.0)",1.6166666666666667,"cti_phase,nan",0,1493.85
5,False,256,catch,"[(1109, 877)]",[],[1],[0.55],vertical,"(390.0, 262.0)",0.95,0.508,0,1499.041
5,False,257,target,"[(1104, 876)]",[],[1],[0.11666666666666667],horizontal,"(390.0, 762.0)",1.3,0.085,1,1503.448
5,False,258,target,"[(1104, 894)]",[],[1],[0.4166666666666667],vertical,"(390.0, 262.0)",1.6666666666666667,0.375,1,1507.827
5,False,259,target,"[(1095, 889)]",[],[1],[0.13333333333333333],vertical,"(890.0, 262.0)",1.3,0.102,1,1513.41
5,False,260,catch,"[(1113, 885)]",[],[1],[0.11666666666666667],horizontal,"(390.0, 762.0)",1.45,0.083,0,1517.841
5,False,261,catch,"[(1085, 876)]",[],[1],[0.18333333333333332],horizontal,"(890.0, 262.0)",1.3,0.148,0,1522.863
5,False,262,target,"[(1095, 866)]",[],[1],[0.85],horizontal,"(390.0, 262.0)",1.6666666666666667,"cti_phase,nan",0,1527.514
5,False,263,target,"[(1129, 870)]",[],[1],[0.55],horizontal,"(390.0, 262.0)",1.3333333333333333,0.507,1,1533.016
5,False,264,target,"[(1106, 897)]",[],[1],[0.48333333333333334],vertical,"(390.0, 762.0)",1.0333333333333332,0.448,1,1537.685
5,False,265,target,"[(1104, 884)]",[],[1],[],vertical,"(890.0, 762.0)",,cti_phase,0,1542.338
5,False,266,target,"[(1106, 881)]",[],[1],[0.23333333333333334],horizontal,"(890.0, 762.0)",1.15,0.202,1,1546.512
5,False,267,target,"[(1094, 906)]",[],[1],[0.5833333333333334],horizontal,"(390.0, 762.0)",0.5833333333333334,0.541,1,1550.615
5,False,268,target,"[(1081, 878)]",[],[1],[0.5333333333333333],vertical,"(390.0, 762.0)",0.5666666666666667,0.486,1,1555.3
5,False,269,target,"[(1118, 887)]",[],[1],[0.5333333333333333],horizontal,"(390.0, 262.0)",0.95,0.488,1,1558.959
5,False,270,catch,"[(1107, 881)]",[],[1],[0.5833333333333334],horizontal,"(390.0, 762.0)",0.55,0.542,0,1563.358
5,False,271,target,"[(1081, 878)]",[],[1],[0.85],horizontal,"(890.0, 762.0)",1.4,"cti_phase,nan",0,1567.241
5,False,272,target,"[(1087, 884)]",[],[1],[0.7166666666666667],horizontal,"(390.0, 262.0)",0.8166666666666667,0.673,1,1572.91
5,False,273,catch,"[(1107, 892)]",[],[1],[0.85],horizontal,"(890.0, 262.0)",0.5166666666666666,nan,1,1578.113
5,False,274,target,"[(616, 782), (870, 686), (564, 538), (613, 781), (587, 814), (562, 528), (1079, 895)]",[],"[0, 0, 0, 0, 0, 0, 1]",[0.85],horizontal,"(890.0, 762.0)",1.35,nan,0,1582.459
5,False,275,target,"[(1085, 876)]",[],[1],"[0.85, 0.85]",vertical,"(890.0, 262.0)",0.85,"0.801,nan",0,1616.496
5,False,276,catch,"[(1100, 885)]",[],[1],[0.43333333333333335],horizontal,"(390.0, 762.0)",0.6666666666666666,0.396,0,1621.608
5,False,277,target,"[(1123, 877)]",[],[1],[0.5166666666666666],vertical,"(390.0, 262.0)",1.0333333333333332,0.475,1,1625.841
5,False,278,target,"[(1082, 881)]",[],[1],[0.18333333333333332],vertical,"(890.0, 262.0)",1.2166666666666666,0.15,1,1630.742
5,False,279,target,"[(1104, 884)]",[],[1],[],horizontal,"(390.0, 262.0)",,cti_phase,0,1635.566
5,False,280,target,"[(1087, 868)]",[],[1],[0.4666666666666667],vertical,"(390.0, 262.0)",1.1166666666666667,0.424,1,1639.7
5,False,281,target,"[(1124, 874)]",[],[1],[0.3833333333333333],vertical,"(890.0, 262.0)",0.9,0.346,1,1644.463
5,False,282,target,"[(1113, 875)]",[],[1],[],vertical,"(390.0, 762.0)",,cti_phase,0,1648.763
5,False,283,target,"[(1114, 862)]",[],[1],[],horizontal,"(390.0, 762.0)",,cti_phase,0,1653.263
5,False,284,target,"[(1095, 873)]",[],[1],[0.5333333333333333],vertical,"(390.0, 762.0)",0.7166666666666667,0.493,1,1657.373
5,False,285,target,"[(1086, 893)]",[],[1],[],horizontal,"(390.0, 762.0)",,cti_phase,0,1661.769
5,False,286,target,"[(1108, 872)]",[],[1],[0.3],horizontal,"(890.0, 262.0)",1.3166666666666667,0.264,1,1666.161
5,False,287,target,"[(1085, 891)]",[],[1],[],horizontal,"(390.0, 762.0)",,cti_phase,0,1671.131
5,False,288,target,"[(1104, 881)]",[],[1],[0.6666666666666666],vertical,"(890.0, 762.0)",0.5333333333333333,0.62,1,1675.378
5,False,289,target,"[(1119, 896)]",[],[1],[0.15],vertical,"(890.0, 262.0)",1.25,0.117,1,1679.914
5,False,290,target,"[(1079, 889)]",[],[1],[0.5166666666666666],horizontal,"(390.0, 262.0)",1.0,0.489,1,1684.42
5,False,291,target,"[(1090, 882)]",[],[1],[0.5333333333333333],horizontal,"(890.0, 262.0)",1.0333333333333332,0.494,1,1688.981
5,False,292,target,"[(1104, 880)]",[],[1],[0.45],horizontal,"(890.0, 762.0)",1.2666666666666666,0.406,1,1693.372
5,False,293,target,"[(1109, 896)]",[],[1],[],vertical,"(890.0, 762.0)",,cti_phase,0,1698.081
5,False,294,target,"[(1080, 871)]",[],[1],[0.2833333333333333],vertical,"(390.0, 262.0)",1.15,0.245,1,1702.594
5,False,295,target,"[(1100, 865)]",[],[1],[0.6166666666666667],horizontal,"(390.0, 762.0)",0.9333333333333333,0.576,1,1707.718
5,False,296,target,"[(1092, 878)]",[],[1],[],vertical,"(390.0, 262.0)",,cti_phase,0,1712.141
5,False,297,target,"[(1075, 876)]",[],[1],[0.36666666666666664],horizontal,"(390.0, 262.0)",1.6166666666666667,0.331,1,1716.482
5,False,298,target,"[(1101, 892)]",[],[1],[],vertical,"(890.0, 762.0)",,cti_phase,0,1722.504
5,False,299,target,"[(1089, 872)]",[],[1],[0.55],vertical,"(890.0, 762.0)",0.8,0.511,1,1726.73
5,False,300,target,"[(1110, 876)]",[],[1],[0.18333333333333332],horizontal,"(390.0, 262.0)",1.3166666666666667,0.151,1,1731.325
6,False,301,target,"[(1077, 891)]",[],[1],[0.55],vertical,"(390.0, 262.0)",0.9166666666666666,0.51,1,1736.053
6,False,302,target,"[(1098, 876)]",[],[1],[0.5666666666666667],vertical,"(390.0, 762.0)",0.5833333333333334,0.523,1,1740.918
6,False,303,target,"[(1109, 886)]",[],[1],[],vertical,"(390.0, 262.0)",,cti_phase,0,1745.123
6,False,304,target,"[(1109, 875)]",[],[1],[0.5166666666666666],vertical,"(890.0, 762.0)",1.05,0.475,1,1749.506
6,False,305,target,"[(1103, 890)]",[],[1],[],vertical,"(390.0, 762.0)",,cti_phase,0,1753.689
6,False,306,target,"[(1088, 864)]",[],[1],[],horizontal,"(390.0, 262.0)",,cti_phase,0,1757.964
6,False,307,target,"[(1079, 868)]",[],[1],[0.65],vertical,"(390.0, 762.0)",1.35,0.601,1,1762.456
6,False,308,target,"[(1086, 877)]",[],[1],[0.5333333333333333],vertical,"(390.0, 762.0)",0.8,0.495,1,1767.602
6,False,309,catch,"[(1096, 884)]",[],[1],[0.16666666666666666],vertical,"(890.0, 762.0)",1.2166666666666666,0.135,0,1772.337
6,False,310,target,"[(1103, 862)]",[],[1],[0.6833333333333333],horizontal,"(890.0, 262.0)",0.9666666666666667,0.64,1,1777.089
6,False,311,target,"[(1101, 893)]",[],[1],[0.55],vertical,"(390.0, 262.0)",1.0166666666666666,0.506,1,1781.898
6,False,312,catch,"[(1088, 865)]","[(1032, 868)]",[1],[0.21666666666666667],vertical,"(890.0, 762.0)",,bar_phase,0,1786.136
6,False,313,target,"[(1105, 881)]",[],[1],[],horizontal,"(390.0, 762.0)",,cti_phase,0,1788.685
6,False,314,target,"[(1090, 862)]",[],[1],[0.55],horizontal,"(890.0, 262.0)",0.5333333333333333,0.505,1,1798.379
6,False,315,target,"[(1121, 870)]",[],[1],[0.05],horizontal,"(390.0, 762.0)",1.4666666666666666,0.018,1,1802.908
6,False,316,target,"[(1108, 886)]",[],[1],[0.5833333333333334],vertical,"(890.0, 762.0)",0.7,0.541,1,1807.607
6,False,317,target,"[(1077, 886)]",[],[1],[0.48333333333333334],horizontal,"(890.0, 262.0)",1.6166666666666667,0.438,1,1811.78
6,False,318,target,"[(1109, 882)]",[],[1],[0.5833333333333334],horizontal,"(390.0, 262.0)",0.5,0.547,1,1816.846
6,False,319,target,"[(1112, 882)]",[],[1],[0.43333333333333335],vertical,"(890.0, 762.0)",0.8166666666666667,0.393,1,1820.791
6,False,320,target,"[(1120, 890)]",[],[1],[0.55],vertical,"(390.0, 262.0)",1.4666666666666666,0.511,1,1825.174
6,False,321,target,"[(1106, 883)]",[],[1],[0.5],vertical,"(890.0, 762.0)",0.7833333333333333,0.459,1,1830.368
6,False,322,target,"[(1079, 887)]",[],[1],[0.55],vertical,"(890.0, 762.0)",0.6166666666666667,0.511,1,1834.805
6,False,323,target,"[(1095, 890)]",[],[1],[],vertical,"(390.0, 762.0)",,cti_phase,0,1839.375
6,False,324,target,"[(1076, 858)]",[],[1],[0.5666666666666667],horizontal,"(390.0, 262.0)",0.9333333333333333,0.53,1,1843.679
6,False,325,target,"[(1075, 888)]",[],[1],[0.6333333333333333],horizontal,"(390.0, 762.0)",1.4333333333333333,0.584,1,1848.18
6,False,326,target,"[(1109, 881)]",[],[1],[0.5333333333333333],horizontal,"(390.0, 762.0)",1.0,0.49,1,1853.297
6,False,327,target,"[(1098, 886)]",[],[1],[0.5833333333333334],vertical,"(390.0, 762.0)",0.95,0.544,1,1857.926
6,False,328,target,"[(1100, 886)]",[],[1],[0.5],vertical,"(390.0, 262.0)",1.1666666666666667,0.456,1,1862.76
6,False,329,target,"[(1086, 890)]",[],[1],[],horizontal,"(390.0, 762.0)",,cti_phase,0,1867.976
6,False,330,catch,"[(1116, 875)]",[],[1],[0.85],vertical,"(390.0, 262.0)",1.2833333333333332,nan,1,1872.629
6,False,331,target,"[(1102, 882)]",[],[1],[0.3333333333333333],vertical,"(890.0, 262.0)",1.4,0.294,1,1877.806
6,False,332,target,"[(1086, 886)]",[],[1],[0.55],vertical,"(390.0, 762.0)",0.8166666666666667,0.504,1,1882.685
6,False,333,target,"[(1109, 885)]",[],[1],[0.5166666666666666],horizontal,"(890.0, 262.0)",1.1666666666666667,0.479,1,1886.928
6,False,334,target,"[(1085, 888)]",[],[1],[0.4666666666666667],horizontal,"(390.0, 762.0)",1.0166666666666666,0.426,1,1891.589
6,False,335,target,"[(1105, 909)]",[],[1],[0.45],vertical,"(390.0, 762.0)",1.1,0.408,1,1896.098
6,False,336,target,"[(1104, 891)]",[],[1],[],horizontal,"(390.0, 262.0)",,cti_phase,0,1900.902
6,False,337,target,"[(1110, 881)]",[],[1],[0.45],vertical,"(390.0, 762.0)",1.6666666666666667,0.413,1,1905.597
6,False,338,target,"[(1077, 877)]",[],[1],[0.48333333333333334],horizontal,"(890.0, 262.0)",0.8666666666666667,0.442,1,1910.629
6,False,339,target,"[(1120, 886)]",[],[1],[0.21666666666666667],horizontal,"(890.0, 762.0)",1.6833333333333333,0.181,1,1914.952
6,False,340,target,"[(1077, 901)]",[],[1],[0.4666666666666667],horizontal,"(390.0, 762.0)",1.2,0.428,1,1920.07
6,False,341,target,"[(1109, 882)]",[],[1],[0.5166666666666666],horizontal,"(390.0, 762.0)",0.85,0.48,1,1924.847
6,False,342,target,"[(1090, 885)]",[],[1],[0.6333333333333333],vertical,"(390.0, 762.0)",0.9833333333333333,0.59,1,1929.53
6,False,343,target,"[(1104, 885)]",[],[1],[0.7],horizontal,"(890.0, 262.0)",0.9666666666666667,0.662,1,1934.563
6,False,344,target,"[(1105, 876)]",[],[1],[0.65],vertical,"(390.0, 762.0)",0.8833333333333333,0.61,1,1939.381
6,False,345,target,"[(1103, 886)]",[],[1],[0.5666666666666667],vertical,"(390.0, 762.0)",0.5666666666666667,0.521,1,1943.803
6,False,346,target,"[(1090, 866)]",[],[1],[0.11666666666666667],vertical,"(390.0, 762.0)",1.0666666666666667,0.085,1,1947.775
6,False,347,target,"[(1090, 889)]",[],[1],[0.5666666666666667],horizontal,"(890.0, 262.0)",0.6166666666666667,0.521,1,1951.696
6,False,348,target,"[(1068, 876)]",[],[1],[0.5666666666666667],vertical,"(390.0, 762.0)",0.8333333333333334,0.526,1,1955.769
6,False,349,target,"[(1077, 896)]",[],[1],[0.5333333333333333],horizontal,"(890.0, 262.0)",1.25,0.49,1,1960.036
6,False,350,target,"[(1105, 891)]",[],[1],[0.45],horizontal,"(390.0, 262.0)",1.35,0.408,1,1965.05
6,False,351,target,"[(1077, 872)]",[],[1],[0.5666666666666667],horizontal,"(890.0, 262.0)",0.5333333333333333,0.524,1,1969.98
6,False,352,target,"[(1109, 883)]",[],[1],[0.5],vertical,"(390.0, 762.0)",1.1166666666666667,0.461,1,1973.897
6,False,353,target,"[(1098, 889)]",[],[1],[0.3],vertical,"(390.0, 762.0)",1.45,0.266,1,1978.835
6,False,354,target,"[(1114, 887)]",[],[1],[0.55],horizontal,"(890.0, 262.0)",0.8333333333333334,0.506,1,1983.676
6,False,355,target,"[(1104, 894)]",[],[1],[0.4166666666666667],horizontal,"(390.0, 262.0)",1.6333333333333333,0.376,1,1988.121
6,False,356,catch,"[(1114, 881)]",[],[1],[],vertical,"(390.0, 762.0)",,cti_phase,0,1993.047
6,False,357,target,"[(1104, 876)]",[],[1],[0.5166666666666666],horizontal,"(890.0, 262.0)",1.1666666666666667,0.479,1,1997.378
6,False,358,target,"[(1110, 887)]",[],[1],[0.5833333333333334],vertical,"(390.0, 262.0)",0.8,0.538,1,2002.278
6,False,359,target,"[(1105, 881)]",[],[1],[],horizontal,"(890.0, 262.0)",,cti_phase,0,2006.873
6,False,360,target,"[(1105, 874)]",[],[1],[0.5166666666666666],vertical,"(390.0, 762.0)",1.1666666666666667,0.474,1,2011.005
7,False,361,target,"[(1092, 892)]",[],[1],[0.5166666666666666],horizontal,"(390.0, 262.0)",1.0,0.481,1,2015.424
7,False,362,target,"[(1104, 885)]",[],[1],[0.55],horizontal,"(890.0, 762.0)",1.1333333333333333,0.504,1,2019.843
7,False,363,catch,"[(1075, 876)]",[],[1],[0.7833333333333333],horizontal,"(390.0, 262.0)",1.1166666666666667,0.746,0,2024.729
7,False,364,target,"[(1106, 879)]",[],[1],[0.55],horizontal,"(890.0, 762.0)",0.7,0.512,1,2031.628
7,False,365,target,"[(1105, 890)]",[],[1],[0.6],horizontal,"(890.0, 762.0)",0.7,0.558,1,2035.811
7,False,366,target,"[(1103, 876)]",[],[1],[0.5666666666666667],horizontal,"(390.0, 262.0)",0.5,0.531,1,2040.374
7,False,367,target,"[(1095, 888)]",[],[1],[0.5166666666666666],vertical,"(390.0, 762.0)",0.8833333333333333,0.474,1,2044.585
7,False,368,target,"[(1095, 885)]",[],[1],[0.5],vertical,"(390.0, 262.0)",1.2,0.459,1,2050.584
7,False,369,target,"[(1100, 881)]",[],[1],[0.5166666666666666],vertical,"(890.0, 762.0)",0.9,0.476,1,2055.28
7,False,370,target,"[(1107, 891)]",[],[1],[0.43333333333333335],vertical,"(890.0, 262.0)",1.4,0.395,1,2059.994
7,False,371,target,"[(1114, 901)]",[],[1],[0.5],vertical,"(890.0, 262.0)",0.7166666666666667,0.465,1,2064.691
7,False,372,target,"[(1098, 886)]",[],[1],[0.06666666666666667],vertical,"(390.0, 762.0)",1.65,0.035,1,2068.914
7,False,373,target,"[(1106, 885)]",[],[1],[0.7166666666666667],vertical,"(390.0, 262.0)",0.8666666666666667,0.671,1,2073.781
7,False,374,catch,"[(1106, 881)]",[],[1],[0.7],horizontal,"(390.0, 262.0)",1.0666666666666667,0.653,0,2078.576
7,False,375,target,"[(1104, 890)]",[],[1],[0.55],horizontal,"(890.0, 262.0)",0.65,0.511,1,2083.258
7,False,376,target,"[(1090, 881)]",[],[1],[0.3],vertical,"(890.0, 262.0)",1.35,0.267,1,2088.164
7,False,377,target,"[(1114, 879)]",[],[1],[0.2],horizontal,"(390.0, 762.0)",1.0,0.166,1,2092.919
7,False,378,target,"[(1098, 884)]",[],[1],[0.5666666666666667],horizontal,"(390.0, 762.0)",1.3333333333333333,0.525,1,2097.178
7,False,379,target,"[(1088, 872)]",[],[1],[0.5833333333333334],horizontal,"(890.0, 762.0)",0.7666666666666666,0.539,1,2102.811
7,False,380,target,"[(1104, 889)]",[],[1],[0.6],horizontal,"(890.0, 762.0)",0.5333333333333333,0.559,1,2107.511
7,False,381,target,"[(1075, 879)]",[],[1],[0.48333333333333334],vertical,"(390.0, 262.0)",1.0333333333333332,0.444,1,2111.53
7,False,382,target,"[(1083, 865)]",[],[1],[0.5833333333333334],horizontal,"(390.0, 762.0)",0.6333333333333333,0.541,1,2115.846
7,False,383,target,"[(1076, 886)]",[],[1],[0.35],horizontal,"(390.0, 762.0)",1.4,0.315,1,2119.51
7,False,384,target,"[(1081, 881)]",[],[1],[0.2],horizontal,"(390.0, 262.0)",1.3833333333333333,0.164,1,2124.214
7,False,385,target,"[(1083, 889)]",[],[1],[0.3333333333333333],vertical,"(890.0, 262.0)",1.5166666666666666,0.295,1,2129.198
7,False,386,catch,"[(1094, 885)]",[],[1],[0.85],horizontal,"(390.0, 762.0)",0.5,nan,1,2134.23
7,False,387,target,"[(1090, 917)]",[],[1],[0.5666666666666667],horizontal,"(890.0, 262.0)",0.6333333333333333,0.52,1,2138.497
7,False,388,catch,"[(1089, 875)]",[],[1],[0.8333333333333334],horizontal,"(890.0, 762.0)",1.0833333333333333,0.799,0,2142.614
7,False,389,target,"[(1079, 876)]",[],[1],[0.5166666666666666],horizontal,"(890.0, 262.0)",1.2833333333333332,0.478,1,2147.585
7,False,390,catch,"[(1109, 887)]",[],[1],[0.85],vertical,"(890.0, 762.0)",0.6833333333333333,nan,1,2152.247
7,False,391,target,"[(1090, 885)]",[],[1],[0.43333333333333335],vertical,"(390.0, 762.0)",1.6666666666666667,0.4,1,2156.595
7,False,392,target,"[(1081, 885)]",[],[1],[0.4],vertical,"(890.0, 262.0)",1.5333333333333332,0.358,1,2161.532
7,False,393,catch,"[(1085, 894)]",[],[1],[0.85],horizontal,"(890.0, 262.0)",1.1166666666666667,nan,1,2166.527
7,False,394,target,"[(659, 605), (390, 809), (1017, 643), (1017, 552), (170, 585), (1090, 585), (1080, 906)]",[],"[0, 0, 0, 0, 0, 0, 1]",[0.85],horizontal,"(890.0, 762.0)",0.6666666666666666,nan,0,2171.238
7,False,395,catch,"[(1062, 909)]",[],[1],[0.85],vertical,"(890.0, 262.0)",0.5333333333333333,nan,1,2238.822
7,False,396,target,"[(486, 605), (1107, 889)]",[],"[0, 1]",[0.85],horizontal,"(890.0, 262.0)",1.2666666666666666,nan,0,2243.119
7,False,397,catch,"[(1095, 884)]",[],[1],[0.85],horizontal,"(890.0, 262.0)",1.2833333333333332,nan,1,2347.992
7,False,398,target,"[(1073, 913)]",[],[1],[0.45],horizontal,"(390.0, 262.0)",1.0,0.411,1,2379.149
7,False,399,target,"[(1066, 891)]",[],[1],[0.5],vertical,"(390.0, 762.0)",0.6166666666666667,0.462,1,2848.596
7,False,400,target,"[(1061, 928)]",[],[1],[0.5666666666666667],horizontal,"(390.0, 262.0)",0.5333333333333333,0.53,1,2852.824
7,False,401,target,"[(1092, 903)]",[],[1],[0.6],vertical,"(390.0, 262.0)",0.5166666666666666,0.565,1,2859.155
7,False,402,target,"[(1080, 897)]",[],[1],[],horizontal,"(390.0, 262.0)",,cti_phase,0,2863.235
7,False,403,target,"[(1100, 909)]",[],[1],[0.36666666666666664],vertical,"(890.0, 262.0)",1.4833333333333334,0.333,1,2867.364
7,False,404,target,"[(1092, 883)]",[],[1],[],vertical,"(890.0, 262.0)",,cti_phase,0,2872.276
7,False,405,target,"[(1109, 876)]",[],[1],[0.3333333333333333],horizontal,"(390.0, 262.0)",1.1,0.296,1,2876.863
7,False,406,target,"[(1110, 872)]",[],[1],[],horizontal,"(390.0, 262.0)",,cti_phase,0,2881.656
7,False,407,catch,"[(1107, 874)]",[],[1],[0.55],vertical,"(390.0, 262.0)",1.1,0.51,0,2886.081
7,False,408,target,"[(1109, 877)]",[],[1],[0.05],horizontal,"(390.0, 262.0)",1.4166666666666667,0.02,1,2891.231
7,False,409,target,"[(1076, 896)]",[],[1],[0.48333333333333334],horizontal,"(890.0, 762.0)",1.4,0.443,1,2896.141
7,False,410,target,"[(1078, 892)]",[],[1],[0.25],horizontal,"(390.0, 762.0)",1.2666666666666666,0.219,1,2901.403
7,False,411,target,"[(1082, 897)]",[],[1],[0.5333333333333333],horizontal,"(390.0, 762.0)",0.6833333333333333,0.495,1,2906.266
7,False,412,target,"[(1085, 886)]",[],[1],[],horizontal,"(390.0, 762.0)",,cti_phase,0,2910.267
7,False,413,target,"[(1088, 885)]",[],[1],[0.45],vertical,"(390.0, 762.0)",1.25,0.415,1,2914.125
7,False,414,target,"[(1102, 893)]",[],[1],[0.5333333333333333],horizontal,"(890.0, 762.0)",0.6,0.501,1,2919.287
7,False,415,target,"[(1104, 880)]",[],[1],[0.5166666666666666],vertical,"(890.0, 762.0)",0.5333333333333333,0.476,1,2923.054
7,False,416,target,"[(1115, 885)]",[],[1],[0.55],horizontal,"(890.0, 262.0)",0.55,0.507,1,2926.939
7,False,417,catch,"[(1083, 854)]",[],[1],[0.85],vertical,"(390.0, 262.0)",0.8666666666666667,nan,1,2930.833
7,False,418,target,"[(1104, 880)]",[],[1],[],vertical,"(890.0, 762.0)",,cti_phase,0,2935.781
7,False,419,target,"[(1082, 872)]",[],[1],[0.4666666666666667],vertical,"(890.0, 762.0)",1.1,0.428,1,2940.059
7,False,420,target,"[(1081, 889)]",[],[1],[0.5333333333333333],vertical,"(890.0, 762.0)",0.5,0.503,1,2944.636
8,False,421,target,"[(1107, 888)]",[],[1],[0.3],vertical,"(890.0, 262.0)",1.25,0.268,1,2948.464
8,False,422,target,"[(1086, 901)]",[],[1],[0.4666666666666667],vertical,"(390.0, 262.0)",1.55,0.431,1,2953.148
8,False,423,catch,"[(1081, 892)]",[],[1],[],vertical,"(390.0, 262.0)",,cti_phase,0,2958.002
8,False,424,target,"[(1095, 863)]",[],[1],[0.5],horizontal,"(890.0, 762.0)",1.45,0.462,1,2962.765
8,False,425,target,"[(1092, 910)]",[],[1],[0.48333333333333334],vertical,"(890.0, 262.0)",0.7333333333333333,0.445,1,2967.636
8,False,426,target,"[(1108, 888)]",[],[1],[],horizontal,"(390.0, 262.0)",,cti_phase,0,2972.237
8,False,427,catch,"[(1119, 867)]",[],[1],[0.85],horizontal,"(890.0, 262.0)",1.05,nan,1,2977.029
8,False,428,target,"[(1082, 881)]",[],[1],[0.16666666666666666],horizontal,"(390.0, 262.0)",1.1666666666666667,0.132,1,2981.801
8,False,429,target,"[(1109, 892)]",[],[1],[0.26666666666666666],vertical,"(890.0, 262.0)",1.65,0.24,1,2986.533
8,False,430,target,"[(1102, 889)]",[],[1],[0.5166666666666666],vertical,"(390.0, 262.0)",0.9666666666666667,0.472,1,2991.909
8,False,431,target,"[(1110, 870)]",[],[1],[0.3333333333333333],vertical,"(890.0, 762.0)",0.9666666666666667,0.294,1,2996.762
8,False,432,target,"[(1081, 891)]",[],[1],[0.25],horizontal,"(890.0, 262.0)",1.65,0.217,1,3001.286
8,False,433,target,"[(1088, 893)]",[],[1],[0.4],vertical,"(890.0, 262.0)",1.5,0.357,1,3005.899
8,False,434,target,"[(1084, 881)]",[],[1],[0.45],vertical,"(890.0, 762.0)",1.3166666666666667,0.411,1,3010.618
8,False,435,target,"[(1081, 885)]",[],[1],[0.5],vertical,"(890.0, 762.0)",0.75,0.463,1,3015.519
8,False,436,target,"[(1100, 898)]",[],[1],[0.26666666666666666],horizontal,"(390.0, 762.0)",1.2833333333333332,0.233,1,3019.756
8,False,437,target,"[(1108, 889)]",[],[1],[0.31666666666666665],vertical,"(390.0, 762.0)",0.85,0.277,1,3024.082
8,False,438,target,"[(1091, 882)]",[],[1],[0.4666666666666667],horizontal,"(890.0, 262.0)",1.7,0.428,1,3028.431
8,False,439,target,"[(1090, 899)]",[],[1],[0.25],horizontal,"(390.0, 762.0)",0.9166666666666666,0.217,1,3033.437
8,False,440,target,"[(1082, 884)]",[],[1],[0.4],horizontal,"(890.0, 762.0)",1.5333333333333332,0.359,1,3037.875
8,False,441,target,"[(1090, 901)]",[],[1],[0.31666666666666665],horizontal,"(890.0, 262.0)",1.3666666666666667,0.279,1,3042.912
8,False,442,target,"[(1102, 880)]",[],[1],[0.45],horizontal,"(390.0, 762.0)",1.1,0.411,1,3047.893
8,False,443,target,"[(1081, 868)]",[],[1],[0.5],horizontal,"(890.0, 762.0)",1.2,0.457,1,3052.145
8,False,444,target,"[(1128, 906)]",[],[1],[0.3],vertical,"(390.0, 762.0)",0.8166666666666667,0.269,1,3056.947
8,False,445,target,"[(1102, 904)]",[],[1],[],horizontal,"(390.0, 762.0)",,cti_phase,0,3061.417
8,False,446,target,"[(1098, 892)]",[],[1],[0.35],vertical,"(890.0, 762.0)",1.4833333333333334,0.31,1,3066.238
8,False,447,target,"[(1082, 886)]",[],[1],[0.3833333333333333],horizontal,"(390.0, 262.0)",1.3833333333333333,0.35,1,3071.265
8,False,448,target,"[(1081, 919)]",[],[1],[0.5166666666666666],vertical,"(390.0, 262.0)",1.0333333333333332,0.478,1,3075.746
8,False,449,target,"[(1061, 880)]",[],[1],[0.2833333333333333],vertical,"(390.0, 762.0)",0.7666666666666666,0.248,1,3080.629
8,False,450,target,"[(1083, 866)]",[],[1],[],vertical,"(390.0, 762.0)",,cti_phase,0,3084.83
8,False,451,target,"[(1119, 861)]",[],[1],[0.2],vertical,"(390.0, 762.0)",1.5666666666666667,0.17,1,3089.705
8,False,452,target,"[(1082, 896)]",[],[1],[],vertical,"(890.0, 262.0)",,cti_phase,0,3094.731
8,False,453,target,"[(1107, 870)]",[],[1],[0.85],horizontal,"(890.0, 262.0)",1.55,"cti_phase,nan",0,3099.68
8,False,454,catch,"[(1086, 872)]",[],[1],[0.85],horizontal,"(390.0, 762.0)",0.8666666666666667,nan,1,3105.111
8,False,455,target,"[(1095, 876)]",[],[1],[],horizontal,"(390.0, 262.0)",,cti_phase,0,3110.245
8,False,456,target,"[(1082, 881)]",[],[1],[0.5833333333333334],horizontal,"(890.0, 762.0)",0.9166666666666666,0.537,1,3125.68
8,False,457,catch,"[(1100, 888)]",[],[1],[0.45],vertical,"(890.0, 762.0)",0.65,0.41,0,3130.441
8,False,458,catch,"[(1076, 875)]",[],[1],[0.7833333333333333],horizontal,"(390.0, 262.0)",0.7333333333333333,0.739,0,3134.344
8,False,459,target,"[(1109, 871)]",[],[1],[0.55],horizontal,"(890.0, 262.0)",1.0333333333333332,0.507,1,3139.227
8,False,460,target,"[(1082, 886)]",[],[1],[0.5666666666666667],horizontal,"(890.0, 762.0)",0.7333333333333333,0.519,1,3143.915
8,False,461,target,"[(1082, 862)]",[],[1],[0.5166666666666666],horizontal,"(890.0, 762.0)",0.6166666666666667,0.482,1,3148.039
8,False,462,target,"[(1081, 881)]",[],[1],[0.5],vertical,"(390.0, 262.0)",1.3,0.458,1,3152.325
8,False,463,target,"[(1081, 877)]",[],[1],[],vertical,"(890.0, 262.0)",,cti_phase,0,3156.925
8,False,464,target,"[(1114, 869)]",[],[1],[0.43333333333333335],horizontal,"(890.0, 762.0)",1.4833333333333334,0.393,1,3161.778
8,False,465,target,"[(1105, 885)]",[],[1],[0.45],horizontal,"(890.0, 262.0)",1.6,0.415,1,3167.141
8,False,466,target,"[(1081, 898)]",[],[1],[0.5833333333333334],horizontal,"(890.0, 262.0)",0.5833333333333334,0.542,1,3172.42
8,False,467,target,"[(1104, 886)]",[],[1],[0.48333333333333334],horizontal,"(890.0, 262.0)",1.2666666666666666,0.443,1,3176.31
8,False,468,target,"[(1120, 877)]",[],[1],[],horizontal,"(390.0, 262.0)",,cti_phase,0,3181.527
8,False,469,catch,"[(1107, 855)]",[],[1],[0.85],horizontal,"(890.0, 262.0)",0.6666666666666666,nan,1,3186.423
8,False,470,target,"[(727, 415), (596, 671), (751, 423), (785, 689), (737, 667), (743, 690), (867, 727), (747, 716), (414, 724), (588, 675), (577, 698), (741, 447), (412, 452), (891, 544), (746, 491), (708, 447), (407, 456), (711, 757), (795, 471), (1085, 881)]",[],"[0, 0, 0, 0, 0, 0, 0, 0, 0, 0, 0, 0, 0, 0, 0, 0, 0, 0, 0, 1]",[],horizontal,"(890.0, 762.0)",,cti_phase,0,3190.474
8,False,471,catch,"[(412, 461), (1104, 886)]",[],"[0, 1]",[0.36666666666666664],vertical,"(390.0, 262.0)",1.5333333333333332,0.328,0,3211.945
8,False,472,target,"[(775, 719), (582, 662), (587, 805), (1068, 880)]",[],"[0, 0, 0, 1]",[0.35],horizontal,"(390.0, 262.0)",0.9666666666666667,0.309,1,3216.732
8,False,473,catch,"[(1092, 893)]",[],[1],[0.5333333333333333],vertical,"(390.0, 262.0)",1.2833333333333332,0.491,0,3228.768
8,False,474,target,"[(1081, 875)]",[],[1],[0.85],vertical,"(390.0, 762.0)",1.0166666666666666,nan,0,3233.451
8,False,475,target,"[(1078, 879)]",[],[1],"[0.85, 0.85]",horizontal,"(390.0, 262.0)",0.8333333333333334,"0.804,nan",0,3238.192
8,False,476,target,"[(1107, 862)]",[],[1],[0.85],vertical,"(390.0, 262.0)",1.4833333333333334,"cti_phase,nan",0,3243.982
8,False,477,target,"[(1095, 891)]",[],[1],[0.85],horizontal,"(390.0, 762.0)",0.65,nan,0,3249.568
8,False,478,target,"[(616, 533), (1086, 899)]",[],"[0, 1]",[],vertical,"(390.0, 262.0)",,cti_phase,0,3253.983
8,False,479,target,"[(1100, 877)]",[],[1],[0.5166666666666666],vertical,"(390.0, 262.0)",0.8833333333333333,0.48,1,3285.092
8,False,480,target,"[(1105, 884)]",[],[1],[0.85],horizontal,"(390.0, 262.0)",0.8333333333333334,nan,0,3289.915
9,False,481,target,"[(1100, 851)]",[],[1],[0.85],horizontal,"(890.0, 762.0)",1.3333333333333333,nan,0,3294.952
9,False,482,target,"[(1109, 876)]",[],[1],[0.85],horizontal,"(390.0, 762.0)",1.55,"cti_phase,nan",0,3301.848
9,False,483,target,"[(1071, 889)]",[],[1],[0.85],vertical,"(390.0, 262.0)",1.05,nan,0,3306.927
9,False,484,target,"[(1079, 895)]",[],[1],[0.85],vertical,"(390.0, 762.0)",1.1166666666666667,nan,0,3312.845
9,False,485,target,"[(1104, 858)]",[],[1],[0.48333333333333334],horizontal,"(890.0, 262.0)",0.8666666666666667,0.449,1,3321.729
9,False,486,target,"[(1096, 896)]",[],[1],[0.85],horizontal,"(890.0, 262.0)",1.3666666666666667,nan,0,3325.844
9,False,487,target,"[(1102, 883)]",[],[1],[0.85],horizontal,"(890.0, 762.0)",1.4333333333333333,nan,0,3330.932
9,False,488,target,"[(1086, 859)]",[],[1],[0.15],horizontal,"(390.0, 762.0)",1.2833333333333332,0.116,1,3336.495
9,False,489,target,"[(1104, 897)]",[],[1],[],vertical,"(390.0, 262.0)",,cti_phase,0,3340.697
9,False,490,target,"[(1115, 872)]",[],[1],[0.85],horizontal,"(890.0, 262.0)",1.25,nan,0,3345.71
9,False,491,target,"[(1094, 871)]",[],[1],[0.5333333333333333],vertical,"(390.0, 262.0)",1.2333333333333334,0.493,1,3350.982
9,False,492,catch,"[(1104, 882)]",[],[1],[0.85],horizontal,"(890.0, 262.0)",1.0,nan,1,3356.828
9,False,493,catch,"[(1104, 896)]",[],[1],[],vertical,"(390.0, 762.0)",,cti_phase,0,3361.544
9,False,494,target,"[(1100, 880)]",[],[1],[0.55],horizontal,"(890.0, 762.0)",0.7666666666666666,0.502,1,3366.293
9,False,495,target,"[(1100, 889)]",[],[1],[0.85],horizontal,"(890.0, 262.0)",1.2666666666666666,nan,0,3370.917
9,False,496,target,"[(1093, 873)]",[],[1],[],vertical,"(390.0, 762.0)",,cti_phase,0,3376.133
9,False,497,target,"[(1081, 874)]",[],[1],[0.2833333333333333],vertical,"(390.0, 762.0)",0.95,0.25,1,3380.583
9,False,498,target,"[(1093, 897)]",[],[1],[0.21666666666666667],vertical,"(390.0, 762.0)",1.2166666666666666,0.184,1,3385.46
9,False,499,target,"[(1081, 890)]",[],[1],[0.85],vertical,"(390.0, 762.0)",1.6333333333333333,nan,0,3390.031
9,False,500,target,"[(1095, 881)]",[],[1],[0.7166666666666667],horizontal,"(890.0, 762.0)",0.6333333333333333,0.669,1,3395.695
9,False,501,target,"[(1103, 896)]",[],[1],[0.85],horizontal,"(890.0, 262.0)",1.2666666666666666,nan,0,3399.63
9,False,502,target,"[(1071, 880)]",[],[1],[0.48333333333333334],horizontal,"(390.0, 762.0)",1.4833333333333334,0.443,1,3404.742
9,False,503,target,"[(1090, 890)]",[],[1],[0.85],vertical,"(890.0, 262.0)",1.0166666666666666,nan,0,3410.497
9,False,504,target,"[(1112, 875)]",[],[1],[0.85],vertical,"(890.0, 762.0)",0.7666666666666666,nan,0,3415.121
9,False,505,target,"[(1119, 890)]",[],[1],[0.85],vertical,"(890.0, 262.0)",0.8833333333333333,nan,0,3419.366
9,False,506,target,"[(1102, 872)]",[],[1],[0.5666666666666667],horizontal,"(890.0, 262.0)",0.6833333333333333,0.538,1,3423.799
9,False,507,target,"[(1130, 893)]",[],[1],[],horizontal,"(890.0, 262.0)",,cti_phase,0,3428.951
9,False,508,target,"[(1114, 872)]",[],[1],[0.85],horizontal,"(390.0, 262.0)",0.6166666666666667,nan,0,3433.395
9,False,509,target,"[(1080, 883)]",[],[1],[0.45],horizontal,"(390.0, 262.0)",1.25,0.412,1,3437.571
9,False,510,target,"[(1109, 891)]",[],[1],[0.3833333333333333],horizontal,"(390.0, 762.0)",1.5166666666666666,0.344,1,3442.854
9,False,511,target,"[(1098, 886)]",[],[1],[0.8166666666666667],vertical,"(390.0, 262.0)",0.7166666666666667,0.765,1,3447.562
9,False,512,target,"[(1103, 881)]",[],[1],[0.85],vertical,"(390.0, 762.0)",1.5666666666666667,nan,0,3452.283
9,False,513,target,"[(1073, 876)]",[],[1],[0.85],horizontal,"(390.0, 262.0)",1.3166666666666667,nan,0,3458.175
9,False,514,target,"[(1081, 862)]",[],[1],[0.55],vertical,"(390.0, 762.0)",1.0,0.504,1,3463.554
9,False,515,target,"[(1100, 887)]",[],[1],[0.85],vertical,"(890.0, 762.0)",0.6,nan,0,3468.39
9,False,516,catch,"[(1081, 870)]",[],[1],[0.85],horizontal,"(390.0, 762.0)",1.3166666666666667,nan,1,3472.963
9,False,517,target,"[(630, 757), (1063, 885)]",[],"[0, 1]",[0.5166666666666666],horizontal,"(890.0, 762.0)",1.3,0.473,1,3478.933
9,False,518,target,"[(1068, 894)]",[],[1],[0.45],horizontal,"(390.0, 262.0)",1.1,0.409,1,3542.576
9,False,519,target,"[(1101, 901)]",[],[1],[0.43333333333333335],horizontal,"(390.0, 762.0)",1.0,0.393,1,3547.373
9,False,520,target,"[(1068, 889)]",[],[1],[0.21666666666666667],horizontal,"(890.0, 762.0)",1.4166666666666667,0.186,1,3551.589
9,False,521,target,"[(1071, 901)]",[],[1],[0.5],vertical,"(390.0, 762.0)",0.6333333333333333,0.458,1,3556.082
9,False,522,target,"[(1078, 891)]",[],[1],[],vertical,"(390.0, 762.0)",,cti_phase,0,3560.411
9,False,523,target,"[(1107, 888)]",[],[1],[0.5333333333333333],horizontal,"(890.0, 762.0)",0.5333333333333333,0.49,1,3564.732
9,False,524,target,"[(1077, 888)]",[],[1],[0.3],vertical,"(890.0, 262.0)",1.4833333333333334,0.265,1,3568.656
9,False,525,target,"[(1088, 891)]",[],[1],[0.4666666666666667],vertical,"(890.0, 262.0)",0.8666666666666667,0.424,1,3573.627
9,False,526,target,"[(1104, 900)]",[],[1],[0.2833333333333333],vertical,"(890.0, 262.0)",1.4333333333333333,0.251,1,3578.444
9,False,527,target,"[(1081, 887)]",[],[1],[0.5],horizontal,"(390.0, 262.0)",1.0833333333333333,0.459,1,3583.115
9,False,528,target,"[(1095, 876)]",[],[1],[0.5],vertical,"(390.0, 262.0)",1.1666666666666667,0.456,1,3587.761
9,False,529,target,"[(1118, 897)]",[],[1],[0.5833333333333334],vertical,"(890.0, 762.0)",0.8833333333333333,0.538,1,3592.269
9,False,530,target,"[(1081, 878)]",[],[1],[0.5333333333333333],horizontal,"(390.0, 262.0)",0.65,0.491,1,3597.044
9,False,531,target,"[(1092, 884)]",[],[1],[0.5666666666666667],vertical,"(390.0, 262.0)",0.9166666666666666,0.531,1,3601.594
9,False,532,target,"[(1071, 889)]",[],[1],[0.48333333333333334],horizontal,"(390.0, 762.0)",0.6166666666666667,0.44,1,3606.191
9,False,533,target,"[(1104, 897)]",[],[1],[0.5333333333333333],horizontal,"(890.0, 262.0)",1.1166666666666667,0.486,1,3610.887
9,False,534,target,"[(1104, 886)]",[],[1],[0.45],horizontal,"(890.0, 762.0)",1.2166666666666666,0.413,1,3615.879
9,False,535,target,"[(1104, 884)]",[],[1],[0.5666666666666667],vertical,"(390.0, 762.0)",0.5666666666666667,0.522,1,3620.827
9,False,536,target,"[(1090, 888)]",[],[1],[0.5333333333333333],horizontal,"(390.0, 762.0)",0.8666666666666667,0.497,1,3625.214
9,False,537,catch,"[(1100, 898)]",[],[1],[],horizontal,"(890.0, 762.0)",,cti_phase,0,3629.506
9,False,538,catch,"[(1084, 874)]",[],[1],[0.85],horizontal,"(890.0, 262.0)",0.85,nan,1,3633.698
9,False,539,target,"[(1100, 908)]",[],[1],[0.23333333333333334],vertical,"(890.0, 762.0)",1.2833333333333332,0.201,1,3638.294
9,False,540,target,"[(1104, 884)]",[],[1],[0.43333333333333335],vertical,"(390.0, 762.0)",1.4333333333333333,0.396,1,3645.133
10,False,541,target,"[(1089, 890)]",[],[1],[0.6166666666666667],vertical,"(890.0, 262.0)",0.8666666666666667,0.571,1,3650.298
10,False,542,target,"[(1105, 887)]",[],[1],[0.05],vertical,"(390.0, 262.0)",1.4166666666666667,0.019,1,3655.319
10,False,543,target,"[(1106, 907)]",[],[1],[0.65],vertical,"(890.0, 762.0)",0.6833333333333333,0.605,1,3660.154
10,False,544,target,"[(1100, 884)]",[],[1],[],vertical,"(390.0, 762.0)",,cti_phase,0,3664.56
10,False,545,target,"[(1081, 884)]",[],[1],[0.6166666666666667],horizontal,"(890.0, 262.0)",0.6166666666666667,0.58,1,3669.041
10,False,546,target,"[(1114, 876)]",[],[1],[],horizontal,"(390.0, 762.0)",,cti_phase,0,3672.978
10,False,547,catch,"[(1107, 868)]",[],[1],[0.85],vertical,"(890.0, 762.0)",0.8333333333333334,nan,1,3677.544
10,False,548,target,"[(1082, 888)]",[],[1],[0.5166666666666666],vertical,"(890.0, 762.0)",0.8666666666666667,0.477,1,3682.283
10,False,549,target,"[(1081, 887)]",[],[1],[],vertical,"(390.0, 762.0)",,cti_phase,0,3686.733
10,False,550,target,"[(1108, 865)]",[],[1],[],vertical,"(390.0, 262.0)",,cti_phase,0,3691.415
10,False,551,catch,"[(1104, 881)]",[],[1],[0.7166666666666667],horizontal,"(890.0, 262.0)",1.3333333333333333,0.681,0,3695.94
10,False,552,target,"[(1090, 859)]",[],[1],[0.5666666666666667],vertical,"(390.0, 262.0)",1.25,0.525,1,3701.133
10,False,553,target,"[(1081, 881)]",[],[1],[0.5],vertical,"(890.0, 762.0)",1.0333333333333332,0.46,1,3706.075
10,False,554,target,"[(1095, 887)]",[],[1],[0.5666666666666667],vertical,"(890.0, 262.0)",0.9666666666666667,0.524,1,3710.429
10,False,555,target,"[(1081, 867)]",[],[1],[0.4666666666666667],vertical,"(890.0, 262.0)",0.8166666666666667,0.43,1,3715.184
10,False,556,target,"[(1081, 877)]",[],[1],[],vertical,"(890.0, 762.0)",,cti_phase,0,3719.414
10,False,557,target,"[(1066, 872)]",[],[1],[0.5666666666666667],horizontal,"(390.0, 762.0)",0.55,0.535,1,3724.207
10,False,558,target,"[(1081, 881)]",[],[1],[0.3833333333333333],horizontal,"(890.0, 262.0)",1.2666666666666666,0.344,1,3729.498
10,False,559,target,"[(1109, 881)]",[],[1],[0.48333333333333334],horizontal,"(890.0, 262.0)",0.95,0.44,1,3734.351
10,False,560,target,"[(1104, 868)]",[],[1],[0.15],horizontal,"(890.0, 762.0)",1.45,0.116,1,3738.974
10,False,561,target,"[(1108, 886)]",[],[1],[0.55],vertical,"(890.0, 762.0)",0.9,0.515,1,3743.583
10,False,562,target,"[(1098, 875)]",[],[1],[0.4666666666666667],horizontal,"(890.0, 762.0)",1.4166666666666667,0.432,1,3748.448
10,False,563,target,"[(1086, 882)]",[],[1],[],vertical,"(890.0, 762.0)",,cti_phase,0,3753.445
10,False,564,target,"[(1051, 901)]",[],[1],[0.6166666666666667],vertical,"(390.0, 762.0)",0.8,0.573,1,3758.119
10,False,565,target,"[(1079, 883)]",[],[1],[],horizontal,"(390.0, 762.0)",,cti_phase,0,3769.395
10,False,566,target,"[(1070, 890)]",[],[1],[0.3333333333333333],horizontal,"(390.0, 762.0)",1.6833333333333333,0.294,1,3773.692
10,False,567,target,"[(1080, 901)]",[],[1],[0.5333333333333333],horizontal,"(390.0, 262.0)",0.7,0.498,1,3779.225
10,False,568,target,"[(1086, 905)]",[],[1],[0.5166666666666666],horizontal,"(890.0, 762.0)",0.6833333333333333,0.476,1,3784.024
10,False,569,target,"[(1087, 879)]",[],[1],[0.55],horizontal,"(390.0, 762.0)",1.15,0.505,1,3788.602
10,False,570,target,"[(1081, 901)]",[],[1],[0.4],vertical,"(390.0, 262.0)",1.3,0.359,1,3793.357
10,False,571,target,"[(1103, 883)]",[],[1],[0.5666666666666667],vertical,"(890.0, 762.0)",0.8666666666666667,0.524,1,3798.332
10,False,572,target,"[(1081, 889)]",[],[1],[0.11666666666666667],horizontal,"(390.0, 262.0)",1.5666666666666667,0.086,1,3802.633
10,False,573,target,"[(1105, 882)]",[],[1],[0.65],vertical,"(890.0, 762.0)",0.6666666666666666,0.609,1,3807.054
10,False,574,target,"[(1081, 874)]",[],[1],[],vertical,"(390.0, 762.0)",,cti_phase,0,3811.224
10,False,575,target,"[(1077, 878)]",[],[1],[0.6333333333333333],horizontal,"(390.0, 262.0)",0.8333333333333334,0.59,1,3815.902
10,False,576,target,"[(1084, 893)]",[],[1],[0.5333333333333333],horizontal,"(890.0, 262.0)",1.4166666666666667,0.49,1,3821.372
10,False,577,target,"[(1081, 887)]",[],[1],[0.43333333333333335],vertical,"(890.0, 262.0)",1.0833333333333333,0.393,1,3826.01
10,False,578,target,"[(1069, 885)]",[],[1],[0.5666666666666667],horizontal,"(890.0, 762.0)",0.5666666666666667,0.521,1,3835.682
10,False,579,target,"[(1105, 886)]",[],[1],[0.5833333333333334],horizontal,"(390.0, 262.0)",1.0333333333333332,0.544,1,3839.677
10,False,580,target,"[(1108, 886)]",[],[1],[0.3],horizontal,"(890.0, 762.0)",1.5666666666666667,0.269,1,3844.181
10,False,581,target,"[(1110, 884)]",[],[1],[0.18333333333333332],horizontal,"(390.0, 762.0)",0.9,0.153,1,3848.743
10,False,582,target,"[(1092, 896)]",[],[1],[0.45],vertical,"(890.0, 262.0)",1.2166666666666666,0.412,1,3852.769
10,False,583,catch,"[(1083, 873)]",[],[1],[],horizontal,"(390.0, 762.0)",,cti_phase,0,3857.267
10,False,584,target,"[(1080, 887)]",[],[1],[0.5333333333333333],vertical,"(390.0, 262.0)",0.6333333333333333,0.499,1,3861.534
10,False,585,target,"[(1075, 891)]",[],[1],[0.23333333333333334],vertical,"(390.0, 262.0)",1.65,0.198,1,3866.231
10,False,586,target,"[(1086, 903)]",[],[1],[],horizontal,"(390.0, 762.0)",,cti_phase,0,3870.866
10,False,587,target,"[(1069, 883)]",[],[1],[0.21666666666666667],horizontal,"(890.0, 762.0)",1.5666666666666667,0.185,1,3875.323
10,False,588,target,"[(1097, 883)]",[],[1],[0.4166666666666667],horizontal,"(390.0, 262.0)",0.8666666666666667,0.379,1,3891.098
10,False,589,target,"[(1099, 898)]",[],[1],[0.5333333333333333],horizontal,"(390.0, 762.0)",0.7166666666666667,0.494,1,3895.59
10,False,590,target,"[(1105, 874)]",[],[1],[],vertical,"(890.0, 762.0)",,cti_phase,0,3899.807
10,False,591,target,"[(1082, 879)]",[],[1],[0.55],vertical,"(390.0, 762.0)",0.7166666666666667,0.516,1,3904.229
10,False,592,target,"[(1093, 891)]",[],[1],[0.5833333333333334],vertical,"(890.0, 262.0)",1.0166666666666666,0.537,1,3908.532
10,False,593,target,"[(1087, 888)]",[],[1],[0.11666666666666667],vertical,"(890.0, 262.0)",1.6,0.083,1,3913.494
10,False,594,catch,"[(1078, 895)]",[],[1],[0.5333333333333333],horizontal,"(890.0, 262.0)",1.15,0.496,0,3918.41
10,False,595,target,"[(1075, 859)]",[],[1],[0.6333333333333333],vertical,"(390.0, 762.0)",1.0333333333333332,0.587,1,3923.116
10,False,596,target,"[(1104, 886)]",[],[1],[0.5166666666666666],horizontal,"(890.0, 262.0)",0.9833333333333333,0.477,1,3951.462
10,False,597,target,"[(1111, 886)]",[],[1],[0.5333333333333333],horizontal,"(890.0, 762.0)",0.6666666666666666,0.492,1,3955.882
10,False,598,target,"[(1078, 890)]",[],[1],[0.5],horizontal,"(890.0, 262.0)",1.5666666666666667,0.456,1,3960.244
10,False,599,catch,"[(1113, 885)]",[],[1],[0.3833333333333333],horizontal,"(890.0, 762.0)",1.55,0.345,0,3964.947
10,False,600,target,"[(1112, 892)]",[],[1],[0.55],horizontal,"(890.0, 762.0)",0.5,0.506,1,3970.128
11,False,601,target,"[(1111, 885)]",[],[1],[0.16666666666666666],horizontal,"(890.0, 762.0)",1.4166666666666667,0.135,1,3974.444
11,False,602,target,"[(1100, 895)]",[],[1],[0.45],vertical,"(890.0, 762.0)",1.05,0.41,1,3979.05
11,False,603,target,"[(1081, 879)]",[],[1],[0.2],vertical,"(390.0, 762.0)",1.25,0.166,1,3984.044
11,False,604,target,"[(1104, 889)]",[],[1],[0.5333333333333333],vertical,"(890.0, 262.0)",1.15,0.499,1,3988.417
11,False,605,catch,"[(1100, 862)]",[],[1],[0.85],vertical,"(390.0, 262.0)",0.6166666666666667,nan,1,3993.554
11,False,606,target,"[(1110, 890)]",[],[1],[0.6666666666666666],horizontal,"(390.0, 762.0)",0.5333333333333333,0.617,1,3997.745
11,False,607,target,"[(1098, 898)]",[],[1],[0.25],horizontal,"(890.0, 762.0)",1.65,0.216,1,4002.084
11,False,608,target,"[(1081, 879)]",[],[1],[],vertical,"(890.0, 262.0)",,cti_phase,0,4007.368
11,False,609,target,"[(1114, 874)]",[],[1],[0.5333333333333333],horizontal,"(390.0, 262.0)",0.6166666666666667,0.495,1,4012.096
11,False,610,catch,"[(1119, 903)]",[],[1],[0.5],vertical,"(890.0, 262.0)",1.2166666666666666,0.459,0,4016.66
11,False,611,target,"[(1078, 879)]",[],[1],[0.5333333333333333],horizontal,"(890.0, 762.0)",0.5833333333333334,0.499,1,4021.551
11,False,612,target,"[(1079, 902)]",[],[1],[0.5666666666666667],horizontal,"(890.0, 762.0)",0.8333333333333334,0.53,1,4028.544
11,False,613,target,"[(1081, 872)]",[],[1],[0.21666666666666667],horizontal,"(890.0, 762.0)",1.6833333333333333,0.184,1,4032.979
11,False,614,target,"[(1086, 910)]",[],[1],[0.48333333333333334],vertical,"(890.0, 762.0)",0.5666666666666667,0.441,1,4037.948
11,False,615,target,"[(1078, 905)]",[],[1],[0.08333333333333333],horizontal,"(390.0, 762.0)",1.1333333333333333,0.052,1,4042.172
11,False,616,target,"[(1114, 895)]",[],[1],[0.6166666666666667],vertical,"(390.0, 262.0)",0.5333333333333333,0.574,1,4046.441
11,False,617,target,"[(1084, 881)]",[],[1],[0.5333333333333333],vertical,"(890.0, 762.0)",0.9666666666666667,0.494,1,4050.499
11,False,618,target,"[(1090, 898)]",[],[1],[0.5],vertical,"(390.0, 262.0)",1.1333333333333333,0.465,1,4054.931
11,False,619,target,"[(1100, 888)]",[],[1],[0.2833333333333333],horizontal,"(390.0, 262.0)",0.8166666666666667,0.25,1,4059.844
11,False,620,target,"[(1067, 889)]",[],[1],[0.08333333333333333],vertical,"(390.0, 262.0)",1.2,0.052,1,4063.961
11,False,621,target,"[(1089, 897)]",[],[1],[0.6],vertical,"(390.0, 262.0)",1.5333333333333332,0.558,1,4068.745
11,False,622,target,"[(1109, 890)]",[],[1],[0.5666666666666667],vertical,"(890.0, 762.0)",0.7666666666666666,0.519,1,4074.144
11,False,623,target,"[(1109, 893)]",[],[1],[0.5833333333333334],vertical,"(890.0, 762.0)",0.95,0.542,1,4078.673
11,False,624,catch,"[(1082, 880)]",[],[1],[],vertical,"(890.0, 762.0)",,cti_phase,0,4083.381
11,False,625,target,"[(1071, 887)]",[],[1],[0.5333333333333333],vertical,"(390.0, 762.0)",0.6666666666666666,0.492,1,4088.011
11,False,626,catch,"[(1081, 887)]",[],[1],[0.45],vertical,"(890.0, 262.0)",1.4166666666666667,0.417,0,4092.743
11,False,627,target,"[(1067, 873)]",[],[1],[0.5],horizontal,"(890.0, 262.0)",1.5166666666666666,0.461,1,4097.722
11,False,628,target,"[(1099, 885)]",[],[1],[0.6166666666666667],vertical,"(890.0, 262.0)",0.85,0.577,1,4103.265
11,False,629,target,"[(1108, 901)]",[],[1],[0.4666666666666667],vertical,"(890.0, 262.0)",1.5,0.425,1,4108.067
11,False,630,target,"[(1100, 871)]",[],[1],[],vertical,"(390.0, 762.0)",,cti_phase,0,4113.025
11,False,631,target,"[(1069, 889)]",[],[1],[0.5666666666666667],horizontal,"(890.0, 762.0)",0.5,0.531,1,4117.452
11,False,632,target,"[(1085, 903)]",[],[1],[0.5833333333333334],horizontal,"(390.0, 262.0)",0.85,0.543,1,4122.066
11,False,633,target,"[(1080, 897)]",[],[1],[0.5],horizontal,"(890.0, 262.0)",0.9,0.462,1,4126.55
11,False,634,target,"[(1082, 888)]",[],[1],[0.5166666666666666],horizontal,"(890.0, 762.0)",0.8833333333333333,0.476,1,4134.278
11,False,635,target,"[(1085, 890)]",[],[1],[0.5],vertical,"(890.0, 262.0)",1.1666666666666667,0.465,1,4138.989
11,False,636,target,"[(1101, 900)]",[],[1],[0.55],horizontal,"(390.0, 262.0)",0.6,0.52,1,4144.216
11,False,637,target,"[(1071, 891)]",[],[1],[0.5333333333333333],vertical,"(890.0, 762.0)",1.0,0.494,1,4148.529
11,False,638,target,"[(1108, 893)]",[],[1],[0.23333333333333334],vertical,"(890.0, 762.0)",1.0,0.203,1,4152.832
11,False,639,target,"[(1106, 901)]",[],[1],[0.5666666666666667],vertical,"(390.0, 762.0)",1.3333333333333333,0.531,1,4157.001
11,False,640,catch,"[(1111, 897)]",[],[1],[0.55],horizontal,"(390.0, 262.0)",0.6833333333333333,0.515,0,4161.824
11,False,641,target,"[(1076, 861)]",[],[1],[0.6333333333333333],vertical,"(890.0, 262.0)",0.6833333333333333,0.589,1,4166.377
11,False,642,target,"[(1100, 886)]",[],[1],[0.4],horizontal,"(390.0, 762.0)",1.4666666666666666,0.362,1,4171.283
11,False,643,target,"[(1088, 904)]",[],[1],[],horizontal,"(390.0, 762.0)",,cti_phase,0,4175.994
11,False,644,target,"[(1085, 878)]",[],[1],[0.75],vertical,"(890.0, 262.0)",0.6666666666666666,0.711,1,4180.336
11,False,645,target,"[(1093, 898)]",[],[1],[0.45],horizontal,"(890.0, 762.0)",1.3833333333333333,0.408,1,4184.774
11,False,646,target,"[(1109, 909)]",[],[1],[0.5666666666666667],horizontal,"(890.0, 262.0)",0.65,0.524,1,4189.952
11,False,647,target,"[(1119, 888)]",[],[1],[0.16666666666666666],horizontal,"(890.0, 262.0)",1.4833333333333334,0.137,1,4194.245
11,False,648,target,"[(1098, 898)]",[],[1],[0.5333333333333333],horizontal,"(390.0, 762.0)",0.7333333333333333,0.499,1,4199.196
11,False,649,target,"[(1103, 895)]",[],[1],[0.3833333333333333],vertical,"(890.0, 262.0)",1.2,0.349,1,4203.627
11,False,650,target,"[(1084, 907)]",[],[1],[0.11666666666666667],horizontal,"(890.0, 262.0)",1.45,0.083,1,4208.446
11,False,651,target,"[(1081, 888)]",[],[1],[0.3],horizontal,"(890.0, 762.0)",1.55,0.263,1,4213.211
11,False,652,target,"[(1079, 903)]",[],[1],[0.6166666666666667],horizontal,"(890.0, 262.0)",0.7333333333333333,0.573,1,4217.948
11,False,653,target,"[(1090, 880)]",[],[1],[0.8],horizontal,"(390.0, 262.0)",0.6,0.758,1,4221.991
11,False,654,target,"[(1085, 890)]",[],[1],[0.43333333333333335],vertical,"(390.0, 262.0)",1.2333333333333334,0.394,1,4226.198
11,False,655,target,"[(1084, 894)]",[],[1],[0.5333333333333333],vertical,"(390.0, 762.0)",1.0333333333333332,0.492,1,4230.967
11,False,656,target,"[(1108, 888)]",[],[1],[0.55],vertical,"(890.0, 762.0)",0.7666666666666666,0.512,1,4235.811
11,False,657,target,"[(1114, 890)]",[],[1],[0.43333333333333335],horizontal,"(390.0, 762.0)",1.1,0.395,1,4239.98
11,False,658,target,"[(1081, 912)]",[],[1],[0.5166666666666666],horizontal,"(890.0, 262.0)",0.8833333333333333,0.474,1,4244.382
11,False,659,target,"[(1101, 894)]",[],[1],[0.5666666666666667],horizontal,"(890.0, 262.0)",0.7333333333333333,0.527,1,4249.159
11,False,660,target,"[(1110, 892)]",[],[1],[0.3],vertical,"(390.0, 762.0)",1.2833333333333332,0.267,1,4253.646
12,False,661,target,"[(1110, 901)]",[],[1],[0.6],vertical,"(390.0, 762.0)",0.9,0.563,1,4258.075
12,False,662,target,"[(1066, 901)]",[],[1],[],horizontal,"(390.0, 762.0)",,cti_phase,0,4263.173
12,False,663,target,"[(1080, 891)]",[],[1],[0.4166666666666667],vertical,"(890.0, 762.0)",0.9666666666666667,0.377,1,4268.142
12,False,664,target,"[(1090, 888)]",[],[1],[0.48333333333333334],horizontal,"(890.0, 762.0)",1.3166666666666667,0.447,1,4273.35
12,False,665,target,"[(1095, 883)]",[],[1],[0.55],horizontal,"(390.0, 762.0)",1.1,0.507,1,4278.281
12,False,666,target,"[(1109, 890)]",[],[1],[0.3833333333333333],horizontal,"(390.0, 262.0)",1.1166666666666667,0.343,1,4283.106
12,False,667,target,"[(1084, 882)]",[],[1],[0.4666666666666667],horizontal,"(390.0, 762.0)",1.5666666666666667,0.425,1,4287.395
12,False,668,target,"[(1081, 909)]",[],[1],[],horizontal,"(390.0, 762.0)",,cti_phase,0,4292.323
12,False,669,target,"[(1090, 873)]",[],[1],[0.65],horizontal,"(390.0, 762.0)",0.8833333333333333,0.606,1,4296.701
12,False,670,target,"[(1085, 877)]",[],[1],[0.36666666666666664],vertical,"(890.0, 762.0)",1.2166666666666666,0.33,1,4302.522
12,False,671,target,"[(1106, 888)]",[],[1],[],vertical,"(890.0, 762.0)",,cti_phase,0,4306.901
12,False,672,target,"[(1074, 858)]",[],[1],[0.6666666666666666],vertical,"(390.0, 762.0)",1.3666666666666667,0.622,1,4311.615
12,False,673,target,"[(1071, 901)]",[],[1],[0.08333333333333333],vertical,"(390.0, 262.0)",1.5166666666666666,0.052,1,4318.182
12,False,674,target,"[(1080, 888)]",[],[1],[0.5333333333333333],horizontal,"(390.0, 262.0)",1.1833333333333333,0.489,1,4323.037
12,False,675,target,"[(1100, 892)]",[],[1],[0.5833333333333334],vertical,"(890.0, 762.0)",0.6833333333333333,0.539,1,4328.078
12,False,676,target,"[(1100, 899)]",[],[1],[0.3333333333333333],vertical,"(890.0, 262.0)",1.5833333333333333,0.29,1,4332.448
12,False,677,target,"[(1105, 894)]",[],[1],[0.5666666666666667],vertical,"(390.0, 262.0)",0.7833333333333333,0.523,1,4337.467
12,False,678,catch,"[(1098, 892)]",[],[1],[],horizontal,"(390.0, 262.0)",,cti_phase,0,4341.99
12,False,679,target,"[(1107, 886)]",[],[1],[0.6166666666666667],vertical,"(390.0, 262.0)",0.5,0.575,1,4346.446
12,False,680,target,"[(1081, 893)]",[],[1],[0.6333333333333333],vertical,"(390.0, 262.0)",0.5333333333333333,0.59,1,4350.65
12,False,681,target,"[(1087, 890)]",[],[1],[0.55],vertical,"(890.0, 762.0)",0.7833333333333333,0.51,1,4355.334
12,False,682,target,"[(1090, 896)]",[],[1],[0.5666666666666667],vertical,"(390.0, 762.0)",0.55,0.526,1,4359.8
12,False,683,target,"[(1101, 896)]",[],[1],[0.85],horizontal,"(390.0, 262.0)",1.5333333333333332,"cti_phase,nan",0,4364.118
12,False,684,target,"[(1100, 886)]",[],[1],[0.23333333333333334],vertical,"(390.0, 762.0)",1.0166666666666666,0.197,1,4369.444
12,False,685,catch,"[(1118, 899)]",[],[1],[0.6666666666666666],vertical,"(890.0, 762.0)",0.7666666666666666,0.622,0,4376.114
12,False,686,target,"[(1104, 886)]",[],[1],[],horizontal,"(890.0, 762.0)",,cti_phase,0,4381.098
12,False,687,target,"[(1082, 886)]",[],[1],[0.5666666666666667],horizontal,"(390.0, 762.0)",1.4166666666666667,0.528,1,4385.572
12,False,688,catch,"[(1100, 897)]",[],[1],[0.85],vertical,"(890.0, 262.0)",0.55,nan,1,4390.732
12,False,689,catch,"[(1085, 901)]",[],[1],[0.85],vertical,"(390.0, 262.0)",0.5833333333333334,nan,1,4395.325
12,False,690,target,"[(1066, 876)]",[],[1],[0.3833333333333333],horizontal,"(890.0, 762.0)",1.3,0.344,1,4409.794
12,False,691,target,"[(1081, 888)]",[],[1],[0.5833333333333334],vertical,"(390.0, 762.0)",0.6833333333333333,0.543,1,4415.601
12,False,692,target,"[(1081, 890)]",[],[1],[],horizontal,"(390.0, 262.0)",,cti_phase,0,4420.044
12,False,693,target,"[(1088, 876)]",[],[1],[0.48333333333333334],horizontal,"(890.0, 762.0)",1.1,0.448,1,4424.501
12,False,694,target,"[(1109, 907)]",[],[1],[0.5666666666666667],horizontal,"(890.0, 762.0)",0.5666666666666667,0.526,1,4429.082
12,False,695,target,"[(1101, 905)]",[],[1],[0.11666666666666667],vertical,"(890.0, 762.0)",1.4833333333333334,0.082,1,4433.097
12,False,696,target,"[(1105, 903)]",[],[1],[0.23333333333333334],vertical,"(390.0, 262.0)",1.6166666666666667,0.2,1,4437.627
12,False,697,target,"[(1104, 886)]",[],[1],[0.3833333333333333],horizontal,"(890.0, 262.0)",1.2,0.346,1,4442.55
12,False,698,target,"[(1082, 893)]",[],[1],[0.55],horizontal,"(390.0, 262.0)",0.6666666666666666,0.509,1,4447.031
12,False,699,target,"[(1086, 886)]",[],[1],[0.1],horizontal,"(890.0, 762.0)",1.1,0.069,1,4451.35
12,False,700,target,"[(1095, 905)]",[],[1],[0.5333333333333333],vertical,"(390.0, 762.0)",0.6333333333333333,0.494,1,4456.11
12,False,701,target,"[(1103, 876)]",[],[1],[],vertical,"(390.0, 762.0)",,cti_phase,0,4460.108
12,False,702,target,"[(1101, 895)]",[],[1],[0.6166666666666667],vertical,"(390.0, 262.0)",0.55,0.578,1,4464.23
12,False,703,target,"[(1104, 892)]",[],[1],[0.11666666666666667],vertical,"(390.0, 762.0)",1.4333333333333333,0.082,1,4468.701
12,False,704,target,"[(1071, 892)]",[],[1],[],horizontal,"(390.0, 262.0)",,cti_phase,0,4472.968
12,False,705,target,"[(1102, 880)]",[],[1],[],horizontal,"(890.0, 762.0)",,cti_phase,0,4477.425
12,False,706,catch,"[(1086, 888)]",[],[1],[0.7],horizontal,"(390.0, 262.0)",1.0,0.664,0,4481.995
12,False,707,target,"[(1081, 864)]",[],[1],[0.35],horizontal,"(390.0, 762.0)",1.2833333333333332,0.312,1,4487.162
12,False,708,target,"[(1099, 902)]",[],[1],[0.08333333333333333],horizontal,"(390.0, 762.0)",1.05,0.052,1,4492.208
12,False,709,target,"[(1108, 880)]",[],[1],[0.5],horizontal,"(890.0, 262.0)",0.7166666666666667,0.458,1,4496.582
12,False,710,catch,"[(1084, 881)]",[],[1],[0.85],vertical,"(390.0, 762.0)",0.55,nan,1,4501.05
12,False,711,catch,"[(1100, 901)]",[],[1],[0.4666666666666667],vertical,"(890.0, 262.0)",1.0333333333333332,0.434,0,4505.14
12,False,712,target,"[(1082, 879)]",[],[1],[0.4666666666666667],vertical,"(890.0, 262.0)",1.25,0.427,1,4537.692
12,False,713,target,"[(1086, 893)]",[],[1],[0.6333333333333333],horizontal,"(890.0, 762.0)",0.6666666666666666,0.589,1,4542.581
12,False,714,target,"[(1081, 884)]",[],[1],[0.55],vertical,"(390.0, 262.0)",1.3833333333333333,0.504,1,4546.934
12,False,715,target,"[(1083, 894)]",[],[1],[0.55],horizontal,"(890.0, 262.0)",0.9166666666666666,0.511,1,4551.742
12,False,716,target,"[(1110, 884)]",[],[1],[0.3333333333333333],horizontal,"(390.0, 262.0)",1.1833333333333333,0.301,1,4556.021
12,False,717,target,"[(1090, 889)]",[],[1],[],vertical,"(390.0, 762.0)",,cti_phase,0,4560.281
12,False,718,target,"[(1091, 895)]",[],[1],[0.4666666666666667],horizontal,"(390.0, 762.0)",1.1166666666666667,0.435,1,4564.257
12,False,719,target,"[(1090, 905)]",[],[1],[0.43333333333333335],vertical,"(890.0, 262.0)",1.1,0.394,1,4569.196
12,False,720,target,"[(1090, 893)]",[],[1],[0.55],horizontal,"(890.0, 262.0)",0.6166666666666667,0.507,1,4573.683
13,False,721,target,"[(1099, 881)]",[],[1],[0.21666666666666667],horizontal,"(390.0, 762.0)",1.4833333333333334,0.185,1,4577.812
13,False,722,target,"[(1126, 888)]",[],[1],[0.5],vertical,"(890.0, 762.0)",1.35,0.461,1,4582.369
13,False,723,target,"[(1087, 886)]",[],[1],[0.43333333333333335],vertical,"(890.0, 762.0)",1.4166666666666667,0.398,1,4587.522
13,False,724,target,"[(1095, 904)]",[],[1],[0.5333333333333333],horizontal,"(890.0, 762.0)",1.0,0.501,1,4592.18
13,False,725,target,"[(1115, 905)]",[],[1],[0.5333333333333333],horizontal,"(890.0, 762.0)",0.6166666666666667,0.493,1,4596.814
13,False,726,target,"[(1104, 890)]",[],[1],[0.26666666666666666],horizontal,"(390.0, 262.0)",1.5333333333333332,0.231,1,4600.914
13,False,727,target,"[(1104, 882)]",[],[1],[0.3333333333333333],horizontal,"(390.0, 762.0)",1.2166666666666666,0.298,1,4605.679
13,False,728,target,"[(1119, 894)]",[],[1],[0.5666666666666667],horizontal,"(890.0, 762.0)",0.8833333333333333,0.522,1,4610.142
13,False,729,target,"[(1110, 888)]",[],[1],[0.35],horizontal,"(890.0, 762.0)",0.9833333333333333,0.311,1,4614.397
13,False,730,target,"[(1114, 899)]",[],[1],[0.5666666666666667],horizontal,"(390.0, 762.0)",0.5833333333333334,0.521,1,4618.846
13,False,731,target,"[(1122, 897)]",[],[1],[0.48333333333333334],horizontal,"(390.0, 262.0)",1.15,0.448,1,4623.299
13,False,732,target,"[(1090, 901)]",[],[1],[0.5333333333333333],vertical,"(890.0, 262.0)",0.6666666666666666,0.491,1,4627.845
13,False,733,target,"[(1109, 872)]",[],[1],[0.23333333333333334],vertical,"(390.0, 762.0)",1.5166666666666666,0.197,1,4632.261
13,False,734,target,"[(1081, 896)]",[],[1],[0.5166666666666666],vertical,"(890.0, 262.0)",0.6833333333333333,0.478,1,4637.039
13,False,735,target,"[(1105, 906)]",[],[1],[0.5666666666666667],vertical,"(390.0, 262.0)",0.75,0.523,1,4641.617
13,False,736,target,"[(1085, 889)]",[],[1],[0.6],horizontal,"(890.0, 262.0)",0.65,0.555,1,4646.352
13,False,737,target,"[(1081, 896)]",[],[1],[0.11666666666666667],horizontal,"(390.0, 262.0)",1.4333333333333333,0.085,1,4650.864
13,False,738,target,"[(1085, 876)]",[],[1],[0.5333333333333333],horizontal,"(890.0, 762.0)",0.8,0.489,1,4655.874
13,False,739,target,"[(1104, 878)]",[],[1],[0.5333333333333333],vertical,"(890.0, 262.0)",0.65,0.502,1,4660.458
13,False,740,target,"[(1115, 898)]",[],[1],[0.85],horizontal,"(390.0, 762.0)",1.3,nan,0,4664.802
13,False,741,target,"[(1069, 926)]",[],[1],[0.5166666666666666],horizontal,"(390.0, 762.0)",0.6666666666666666,0.478,1,4670.201
13,False,742,catch,"[(1095, 894)]",[],[1],[0.6166666666666667],vertical,"(390.0, 762.0)",1.3333333333333333,0.574,0,4891.452
13,False,743,target,"[(1109, 880)]",[],[1],[0.5333333333333333],horizontal,"(890.0, 262.0)",1.55,0.498,1,4896.182
13,False,744,target,"[(1110, 889)]",[],[1],[0.6333333333333333],vertical,"(390.0, 262.0)",0.5833333333333334,0.588,1,4900.985
13,False,745,target,"[(1093, 916)]",[],[1],[0.5166666666666666],horizontal,"(890.0, 762.0)",1.15,0.473,1,4905.096
13,False,746,target,"[(1085, 887)]",[],[1],[0.05],horizontal,"(390.0, 262.0)",1.5,0.02,1,4909.962
13,False,747,target,"[(1086, 888)]",[],[1],[0.5666666666666667],horizontal,"(390.0, 762.0)",1.25,0.532,1,4914.309
13,False,748,target,"[(1083, 891)]",[],[1],[0.5166666666666666],vertical,"(890.0, 262.0)",1.05,0.475,1,4988.552
13,False,749,catch,"[(1075, 887)]",[],[1],[0.85],horizontal,"(390.0, 762.0)",1.4333333333333333,nan,1,4993.169
13,False,750,target,"[(1093, 890)]",[],[1],[0.5333333333333333],horizontal,"(890.0, 762.0)",0.8666666666666667,0.493,1,4998.581
13,False,751,target,"[(1074, 901)]",[],[1],[0.85],horizontal,"(890.0, 762.0)",1.3166666666666667,nan,0,9091.021
13,False,752,catch,"[(1098, 909)]",[],[1],[0.85],vertical,"(890.0, 262.0)",1.5833333333333333,nan,1,9096.04
13,False,753,catch,"[(1056, 743), (941, 329), (1099, 393), (1206, 542), (1109, 469), (1020, 427), (1138, 404), (950, 441), (1032, 438), (993, 429), (727, 547), (1147, 457), (1124, 478), (1154, 400), (926, 509), (1165, 512), (898, 528), (983, 533), (1163, 453), (940, 590), (1172, 547), (945, 628), (1116, 557), (988, 387), (1158, 568), (897, 585), (1108, 700), (1116, 380), (877, 581), (959, 610), (1177, 554), (1201, 647), (1206, 609), (1226, 351), (1134, 342), (1095, 340), (1186, 519), (1143, 347), (1167, 495), (1075, 313), (1148, 590), (1143, 437), (1245, 369), (1128, 366), (1185, 605), (1235, 676), (1138, 625), (1184, 638), (1096, 562), (897, 485), (1109, 389), (1192, 658), (1187, 402), (1037, 672), (1008, 396), (945, 601), (950, 485), (974, 724), (1177, 704), (959, 676), (1153, 513), (1042, 328), (1158, 539), (1177, 770)]","[(1192, 771)]","[0, 0, 0, 0, 0, 0, 0, 0, 0, 0, 0, 0, 0, 0, 0, 0, 0, 0, 0, 0, 0, 0, 0, 0, 0, 0, 0, 0, 0, 0, 0, 0, 0, 0, 0, 0, 0, 0, 0, 0, 0, 0, 0, 0, 0, 0, 0, 0, 0, 0, 0, 0, 0, 0, 0, 0, 0, 0, 0, 0, 0, 0, 0, 1]",[0.8],vertical,"(890.0, 262.0)",,bar_phase,0,9393.24
13,False,754,target,"[(1201, 576), (1191, 919)]",[],"[0, 1]",[0.08333333333333333],horizontal,"(390.0, 262.0)",1.1333333333333333,0.053,1,9449.234
13,False,755,target,"[(1148, 805)]",[],[1],[0.85],vertical,"(890.0, 762.0)",0.5833333333333334,nan,0,9477.347
13,False,756,target,"[(1167, 753), (959, 929), (1071, 910)]",[],"[0, 0, 1]",[0.85],vertical,"(390.0, 762.0)",1.05,nan,0,9484.151
13,False,757,target,"[(1071, 876)]",[],[1],[0.85],horizontal,"(890.0, 762.0)",0.75,nan,0,9885.269
13,False,758,target,"[(1071, 883)]",[],[1],[0.85],vertical,"(890.0, 262.0)",1.05,nan,0,9890.382
13,False,759,target,"[(1074, 878)]",[],[1],[0.85],vertical,"(890.0, 262.0)",0.5166666666666666,nan,0,9895.774
13,False,760,target,"[(1084, 892)]",[],[1],[],vertical,"(390.0, 762.0)",,cti_phase,0,9908.909
13,False,761,target,"[(1056, 911)]",[],[1],[0.6666666666666666],vertical,"(890.0, 262.0)",0.9833333333333333,0.623,1,10263.168
13,False,762,target,"[(1071, 911)]",[],[1],[0.85],horizontal,"(890.0, 262.0)",1.45,nan,0,10268.421
13,False,763,target,"[(1037, 851)]",[],[1],[0.35],horizontal,"(390.0, 262.0)",0.7333333333333333,0.309,1,10274.127
13,False,764,target,"[(1014, 901)]",[],[1],[],horizontal,"(390.0, 262.0)",,fix_phase,0,11224.426
13,False,765,target,"[(499, 335), (930, 953), (484, 766), (926, 646), (640, 782), (630, 779), (1084, 904)]",[],"[0, 0, 0, 0, 0, 0, 1]",[0.5],vertical,"(390.0, 762.0)",0.7,0.459,1,11254.924
13,False,766,target,"[(1095, 895)]",[],[1],[0.5166666666666666],horizontal,"(390.0, 762.0)",0.5666666666666667,0.473,1,11778.322
13,False,767,target,"[(1114, 891)]",[],[1],[0.7833333333333333],vertical,"(890.0, 762.0)",1.0666666666666667,0.745,1,11782.691
13,False,768,catch,"[(1075, 884)]",[],[1],[0.85],vertical,"(390.0, 262.0)",0.9333333333333333,nan,1,11787.544
13,False,769,catch,"[(1039, 907)]",[],[1],[0.85],vertical,"(390.0, 762.0)",1.45,nan,1,11793.074
13,False,770,catch,"[(1072, 913)]",[],[1],[0.31666666666666665],horizontal,"(890.0, 762.0)",1.6166666666666667,0.281,0,11798.742
13,False,771,target,"[(1104, 886)]",[],[1],[0.45],vertical,"(890.0, 762.0)",1.6333333333333333,0.412,1,11804.052
13,False,772,target,"[(1111, 883)]",[],[1],[0.5166666666666666],vertical,"(390.0, 262.0)",1.0666666666666667,0.477,1,11809.106
13,False,773,target,"[(1104, 882)]",[],[1],[0.5833333333333334],horizontal,"(890.0, 762.0)",1.0333333333333332,0.542,1,11813.16
13,False,774,target,"[(1072, 874)]",[],[1],[0.5],vertical,"(890.0, 262.0)",1.0333333333333332,0.456,1,11817.594
13,False,775,catch,"[(1100, 888)]",[],[1],[0.8],vertical,"(890.0, 762.0)",0.9,0.761,0,11822.374
13,False,776,target,"[(1100, 880)]",[],[1],[0.5833333333333334],vertical,"(390.0, 762.0)",0.6166666666666667,0.546,1,11827.184
13,False,777,target,"[(1128, 894)]",[],[1],[0.5],horizontal,"(890.0, 762.0)",1.6833333333333333,0.465,1,11831.384
13,False,778,target,"[(1108, 887)]",[],[1],[0.5833333333333334],horizontal,"(390.0, 262.0)",0.8,0.551,1,11836.461
13,False,779,catch,"[(1107, 890)]",[],[1],[0.48333333333333334],vertical,"(890.0, 262.0)",1.55,0.445,0,11840.644
13,False,780,target,"[(1124, 862)]",[],[1],[0.5],horizontal,"(890.0, 762.0)",1.6166666666666667,0.457,1,11845.54
14,False,781,target,"[(1097, 890)]",[],[1],[0.5666666666666667],horizontal,"(390.0, 762.0)",0.75,0.524,1,11850.6
14,False,782,target,"[(1112, 883)]",[],[1],[0.6666666666666666],horizontal,"(390.0, 262.0)",0.7,0.621,1,11854.627
14,False,783,target,"[(1119, 892)]",[],[1],[0.4166666666666667],horizontal,"(890.0, 262.0)",1.4,0.372,1,11858.778
14,False,784,target,"[(1116, 881)]",[],[1],[0.43333333333333335],vertical,"(390.0, 762.0)",1.4166666666666667,0.397,1,11863.736
14,False,785,target,"[(1124, 889)]",[],[1],[0.5],vertical,"(390.0, 762.0)",1.1,0.461,1,11868.544
14,False,786,target,"[(1120, 892)]",[],[1],[0.3833333333333333],horizontal,"(890.0, 762.0)",1.6333333333333333,0.347,1,11872.916
14,False,787,catch,"[(1090, 891)]",[],[1],[0.85],horizontal,"(890.0, 762.0)",1.0666666666666667,nan,1,11877.835
14,False,788,target,"[(102, 624), (1076, 898)]",[],"[0, 1]",[0.5666666666666667],vertical,"(890.0, 262.0)",1.2166666666666666,0.523,1,11882.497
14,False,789,target,"[(1077, 893)]",[],[1],[],vertical,"(390.0, 762.0)",,cti_phase,0,12091.777
14,False,790,catch,"[(1063, 897)]",[],[1],[0.85],horizontal,"(390.0, 262.0)",1.6,nan,1,12095.01
14,False,791,catch,"[(1071, 908)]",[],[1],[0.85],vertical,"(890.0, 762.0)",1.5833333333333333,nan,1,12100.441
14,False,792,target,"[(1067, 892)]",[],[1],[0.5],horizontal,"(390.0, 262.0)",0.8333333333333334,0.466,1,12106.206
14,False,793,target,"[(1079, 919)]",[],[1],[0.5],vertical,"(390.0, 762.0)",1.6,0.461,1,12396.107
14,False,794,target,"[(1075, 910)]",[],[1],[0.5],horizontal,"(390.0, 262.0)",1.2,0.459,1,12401.316
14,False,795,target,"[(1071, 905)]",[],[1],[0.5333333333333333],horizontal,"(390.0, 762.0)",1.5333333333333332,0.49,1,12405.732
14,False,796,target,"[(1071, 900)]",[],[1],[0.2],horizontal,"(390.0, 262.0)",1.6333333333333333,0.167,1,12410.837
14,False,797,target,"[(1114, 892)]",[],[1],[0.5],horizontal,"(390.0, 762.0)",0.9666666666666667,0.455,1,12415.637
14,False,798,target,"[(1102, 888)]",[],[1],[0.55],horizontal,"(890.0, 762.0)",0.5166666666666666,0.509,1,12420.628
14,False,799,catch,"[(1109, 915)]",[],[1],[0.85],horizontal,"(390.0, 762.0)",0.95,nan,1,12424.846
14,False,800,target,"[(1091, 890)]",[],[1],[0.48333333333333334],vertical,"(390.0, 762.0)",1.5,0.448,1,12429.645
14,False,801,target,"[(1106, 889)]",[],[1],[0.45],vertical,"(390.0, 762.0)",1.3,0.411,1,12434.641
14,False,802,catch,"[(1078, 889)]",[],[1],[0.85],horizontal,"(890.0, 762.0)",0.95,nan,1,12439.256
14,False,803,target,"[(1100, 914)]",[],[1],[0.5833333333333334],vertical,"(890.0, 762.0)",1.0666666666666667,0.539,1,12443.864
14,False,804,target,"[(1109, 896)]",[],[1],[0.36666666666666664],vertical,"(390.0, 762.0)",1.6166666666666667,0.328,1,12448.524
14,False,805,target,"[(1100, 901)]",[],[1],[0.43333333333333335],horizontal,"(390.0, 262.0)",1.4833333333333334,0.393,1,12453.405
14,False,806,target,"[(1104, 890)]",[],[1],[0.48333333333333334],horizontal,"(890.0, 762.0)",1.5833333333333333,0.443,1,12458.159
14,False,807,target,"[(1133, 883)]",[],[1],[0.5333333333333333],horizontal,"(390.0, 762.0)",0.9166666666666666,0.487,1,12463.672
14,False,808,target,"[(1109, 890)]",[],[1],[0.55],horizontal,"(390.0, 762.0)",0.6166666666666667,0.509,1,12468.33
14,False,809,target,"[(1129, 894)]",[],[1],[0.48333333333333334],vertical,"(890.0, 762.0)",1.4666666666666666,0.437,1,12472.206
14,False,810,target,"[(1085, 888)]",[],[1],[0.5666666666666667],vertical,"(390.0, 262.0)",1.6833333333333333,0.529,1,12477.362
14,False,811,target,"[(1107, 886)]",[],[1],[0.5333333333333333],vertical,"(390.0, 762.0)",0.6666666666666666,0.489,1,12482.789
14,False,812,target,"[(1107, 892)]",[],[1],[0.5166666666666666],horizontal,"(890.0, 262.0)",1.0833333333333333,0.481,1,12487.382
14,False,813,target,"[(1075, 880)]",[],[1],[0.06666666666666667],horizontal,"(390.0, 262.0)",1.3666666666666667,0.035,1,12492.054
14,False,814,target,"[(1143, 892)]",[],[1],[0.5666666666666667],horizontal,"(390.0, 762.0)",0.6666666666666666,0.525,1,12496.318
14,False,815,target,"[(1081, 907)]",[],[1],[0.5166666666666666],vertical,"(890.0, 762.0)",1.0666666666666667,0.474,1,12500.681
14,False,816,target,"[(1095, 886)]",[],[1],[0.06666666666666667],vertical,"(890.0, 262.0)",1.4833333333333334,0.036,1,12505.667
14,False,817,target,"[(1114, 884)]",[],[1],[0.4166666666666667],horizontal,"(890.0, 762.0)",1.4666666666666666,0.38,1,12510.264
14,False,818,target,"[(1109, 887)]",[],[1],[0.25],vertical,"(390.0, 262.0)",1.5166666666666666,0.216,1,12514.955
14,False,819,target,"[(1114, 885)]",[],[1],[0.5166666666666666],vertical,"(890.0, 262.0)",1.2166666666666666,0.473,1,12519.87
14,False,820,catch,"[(1085, 886)]",[],[1],[0.21666666666666667],vertical,"(390.0, 262.0)",1.3833333333333333,0.183,0,12524.673
14,False,821,target,"[(1109, 872)]",[],[1],[0.5166666666666666],vertical,"(390.0, 762.0)",0.8666666666666667,0.475,1,12529.425
14,False,822,catch,"[(1085, 901)]",[],[1],[0.35],horizontal,"(390.0, 262.0)",1.55,0.315,0,12535.494
14,False,823,target,"[(1091, 873)]",[],[1],[],horizontal,"(390.0, 762.0)",,cti_phase,0,12540.285
14,False,824,target,"[(1104, 872)]",[],[1],[0.7333333333333333],vertical,"(390.0, 262.0)",0.75,0.7,1,12544.524
14,False,825,target,"[(1130, 910)]",[],[1],[0.55],horizontal,"(390.0, 762.0)",0.5666666666666667,0.506,1,12549.197
14,False,826,target,"[(1113, 889)]",[],[1],[],horizontal,"(890.0, 262.0)",,cti_phase,0,12553.313
14,False,827,target,"[(1099, 877)]",[],[1],[0.5166666666666666],vertical,"(390.0, 762.0)",0.55,0.481,1,12558.178
14,False,828,target,"[(1085, 887)]",[],[1],[0.5833333333333334],horizontal,"(890.0, 762.0)",0.5166666666666666,0.537,1,12562.113
14,False,829,target,"[(1114, 895)]",[],[1],[0.5833333333333334],horizontal,"(390.0, 262.0)",0.5,0.541,1,12566.288
14,False,830,target,"[(1106, 886)]",[],[1],[0.18333333333333332],vertical,"(890.0, 762.0)",0.7833333333333333,0.152,1,12570.347
14,False,831,catch,"[(1098, 896)]",[],[1],[0.6166666666666667],horizontal,"(890.0, 262.0)",1.1833333333333333,0.578,0,12574.538
14,False,832,target,"[(1110, 864)]",[],[1],[0.55],vertical,"(390.0, 762.0)",0.5333333333333333,0.515,1,12579.179
14,False,833,target,"[(1091, 886)]",[],[1],[0.48333333333333334],vertical,"(890.0, 762.0)",1.15,0.439,1,12585.507
14,False,834,catch,"[(1092, 906)]",[],[1],[0.7666666666666666],vertical,"(390.0, 762.0)",0.6333333333333333,0.718,0,12590.049
14,False,835,target,"[(1082, 888)]",[],[1],[0.13333333333333333],vertical,"(890.0, 762.0)",1.5333333333333332,0.101,1,12594.828
14,False,836,target,"[(1074, 888)]",[],[1],[0.7166666666666667],vertical,"(390.0, 762.0)",0.9833333333333333,0.679,1,12599.508
14,False,837,target,"[(1090, 873)]",[],[1],[0.21666666666666667],vertical,"(890.0, 762.0)",1.6333333333333333,0.185,1,12604.327
14,False,838,target,"[(1075, 898)]",[],[1],[0.5333333333333333],horizontal,"(890.0, 262.0)",1.1666666666666667,0.488,1,12609.027
14,False,839,target,"[(1085, 881)]",[],[1],[0.18333333333333332],horizontal,"(890.0, 262.0)",1.3,0.149,1,12613.797
14,False,840,target,"[(1128, 886)]",[],[1],[0.6166666666666667],horizontal,"(390.0, 762.0)",0.85,0.577,1,12618.647
15,False,841,target,"[(1111, 872)]",[],[1],[0.7],horizontal,"(890.0, 762.0)",0.9666666666666667,0.651,1,12623.19
15,False,842,target,"[(1103, 889)]",[],[1],[0.5833333333333334],vertical,"(390.0, 262.0)",0.55,0.541,1,12627.835
15,False,843,catch,"[(1090, 891)]",[],[1],[],vertical,"(390.0, 762.0)",,cti_phase,0,12631.769
15,False,844,target,"[(1119, 884)]",[],[1],[0.11666666666666667],horizontal,"(390.0, 762.0)",1.45,0.085,1,12635.859
15,False,845,target,"[(1128, 891)]",[],[1],[],horizontal,"(890.0, 262.0)",,cti_phase,0,12640.656
15,False,846,target,"[(1104, 880)]",[],[1],[0.5333333333333333],horizontal,"(890.0, 762.0)",0.75,0.5,1,12644.965
15,False,847,target,"[(1090, 888)]",[],[1],[0.5666666666666667],vertical,"(890.0, 262.0)",0.7166666666666667,0.522,1,12649.457
15,False,848,target,"[(1100, 881)]",[],[1],[0.55],horizontal,"(890.0, 762.0)",1.2166666666666666,0.503,1,12654.147
15,False,849,target,"[(1099, 891)]",[],[1],[0.5166666666666666],vertical,"(890.0, 262.0)",0.95,0.478,1,12658.84
15,False,850,catch,"[(1098, 887)]",[],[1],[0.3],vertical,"(390.0, 762.0)",1.35,0.269,0,12663.337
15,False,851,target,"[(1083, 888)]",[],[1],[0.5166666666666666],horizontal,"(890.0, 762.0)",0.6,0.486,1,12668.091
15,False,852,target,"[(1105, 883)]",[],[1],[],vertical,"(390.0, 762.0)",,cti_phase,0,12672.435
15,False,853,target,"[(1107, 858)]",[],[1],[0.5666666666666667],vertical,"(890.0, 762.0)",0.8166666666666667,0.523,1,12676.807
15,False,854,target,"[(1105, 888)]",[],[1],[0.3],horizontal,"(390.0, 762.0)",1.6666666666666667,0.267,1,12681.16
15,False,855,target,"[(1114, 884)]",[],[1],[0.55],vertical,"(890.0, 262.0)",0.7333333333333333,0.509,1,12685.963
15,False,856,target,"[(1090, 876)]",[],[1],[],vertical,"(890.0, 262.0)",,cti_phase,0,12690.27
15,False,857,target,"[(1119, 858)]",[],[1],[0.7833333333333333],horizontal,"(890.0, 262.0)",0.5,0.732,1,12694.879
15,False,858,target,"[(1098, 877)]",[],[1],[0.5166666666666666],horizontal,"(890.0, 762.0)",0.8833333333333333,0.474,1,12700.407
