block,trial,trial_type,taps_start_loc_during_fix,taps_end_loc_during_fix,taps_on_lever_during_fix,taps_on_lever_s_during_fix,bar_orientation,target_xy,cti,rt,acc,time,pulses,fa_rate_recent100,p_catch
0,1,catch,"[(1064, 889)]",[],[1],[],horizontal,"(890.0, 762.0)",1.6,nan,1,0.461,1,0.0,0.25
0,2,catch,"[(1127, 839)]",[],[1],[],vertical,"(390.0, 762.0)",1.6,nan,1,11.688,1,0.0,0.25
0,3,target,"[(1132, 846)]",[],[1],[0.85],horizontal,"(390.0, 262.0)",0.9666666666666667,nan,0,45.324,0,0.0,0.25
0,4,target,"[(1121, 845)]",[],[1],[0.85],horizontal,"(890.0, 262.0)",0.7666666666666666,nan,0,49.977,0,0.0,0.25
0,5,target,"[(1127, 836)]",[],[1],[0.85],vertical,"(390.0, 262.0)",0.7833333333333333,nan,0,60.662,0,0.0,0.25
0,6,target,"[(1129, 833)]",[],[1],[0.6833333333333333],vertical,"(390.0, 262.0)",0.5666666666666667,0.659,1,65.509,1,0.0,0.25
0,7,catch,"[(1150, 799)]",[],[1],[],horizontal,"(890.0, 762.0)",1.6,nan,1,70.385,1,0.0,0.25
0,8,target,"[(1184, 800)]",[],[1],[0.85],vertical,"(890.0, 262.0)",0.4666666666666667,nan,0,75.496,0,0.0,0.25
0,9,catch,"[(1165, 799)]",[],[1],[],vertical,"(390.0, 262.0)",1.6,nan,1,80.108,1,0.0,0.25
0,10,target,"[(1157, 785)]",[],[1],[0.6166666666666667],horizontal,"(390.0, 762.0)",1.2166666666666666,0.585,1,86.044,1,0.0,0.25
0,11,target,"[(1176, 792)]",[],[1],[0.5],horizontal,"(890.0, 262.0)",1.4166666666666667,0.476,1,91.356,1,0.0,0.25
0,12,target,"[(1175, 772)]",[],[1],[0.5],vertical,"(390.0, 762.0)",1.4166666666666667,0.473,1,97.426,2,0.0,0.25
0,13,target,"[(1147, 751), (1155, 818)]",[],"[0, 1]",[0.5333333333333333],horizontal,"(890.0, 762.0)",1.2166666666666666,0.491,1,103.607,2,0.0,0.25
0,14,catch,"[(1149, 769)]",[],[1],[],vertical,"(390.0, 762.0)",1.6,nan,1,110.13,2,0.0,0.25
0,15,target,"[(1175, 775)]",[],[1],[0.45],horizontal,"(890.0, 762.0)",1.3666666666666667,0.422,1,115.824,2,0.0,0.25
0,16,catch,"[(1160, 763)]",[],[1],[],horizontal,"(390.0, 762.0)",1.6,nan,1,121.36,3,0.0,0.25
0,17,target,"[(1167, 767)]",[],[1],[0.6666666666666666],horizontal,"(890.0, 762.0)",1.0,0.632,1,127.382,3,0.0,0.25
0,18,catch,"[(1165, 771)]",[],[1],[],horizontal,"(390.0, 762.0)",1.6,nan,1,133.428,3,0.0,0.25
0,19,target,"[(1175, 778)]",[],[1],[0.36666666666666664],horizontal,"(890.0, 762.0)",0.8,0.333,1,139.179,3,0.0,0.25
0,20,target,"[(1172, 789)]",[],[1],[0.55],vertical,"(890.0, 262.0)",0.8666666666666667,0.521,1,144.959,3,0.0,0.25
0,21,target,"[(1160, 765)]",[],[1],[0.6166666666666667],vertical,"(890.0, 762.0)",0.4,0.59,1,150.302,3,0.0,0.25
0,22,catch,"[(1180, 748), (1162, 796)]",[],"[0, 1]",[],horizontal,"(390.0, 262.0)",1.6,nan,1,155.802,3,0.0,0.25
0,23,target,"[(1172, 766)]",[],[1],[0.5333333333333333],horizontal,"(390.0, 262.0)",1.2,0.504,1,162.844,3,0.0,0.25
0,24,catch,"[(1162, 763)]",[],[1],[],horizontal,"(390.0, 762.0)",1.6,nan,1,168.682,3,0.0,0.25
0,25,target,"[(1158, 781)]",[],[1],[0.85],horizontal,"(890.0, 262.0)",0.65,nan,0,174.35,0,0.0,0.25
0,26,target,"[(1161, 789)]",[],[1],[0.5666666666666667],horizontal,"(890.0, 762.0)",1.0666666666666667,0.544,1,178.504,1,0.0,0.25
0,27,catch,"[(1185, 767)]",[],[1],[],horizontal,"(390.0, 262.0)",1.6,nan,1,183.535,1,0.0,0.25
0,28,target,"[(1170, 767)]",[],[1],[0.5166666666666666],vertical,"(890.0, 762.0)",0.95,0.479,1,188.83,1,0.0,0.25
0,29,target,"[(1180, 792)]",[],[1],[0.85],horizontal,"(890.0, 762.0)",0.36666666666666664,nan,0,194.055,0,0.0,0.25
0,30,target,"[(1180, 759)]",[],[1],[0.4666666666666667],vertical,"(390.0, 262.0)",1.1166666666666667,0.436,1,198.555,1,0.0,0.25
0,31,catch,"[(1184, 781)]",[],[1],[],horizontal,"(390.0, 762.0)",1.6,nan,1,203.374,1,0.0,0.25
0,32,target,"[(1151, 795)]",[],[1],[0.85],vertical,"(890.0, 762.0)",0.4166666666666667,nan,0,208.545,0,0.0,0.25
0,33,target,"[(1153, 789)]",[],[1],[0.5333333333333333],horizontal,"(890.0, 262.0)",0.43333333333333335,0.502,1,213.08,1,0.0,0.25
0,34,target,"[(1180, 789)]",[],[1],[0.4666666666666667],horizontal,"(390.0, 262.0)",1.0666666666666667,0.443,1,217.72,1,0.0,0.25
0,35,target,"[(1188, 790)]",[],[1],[0.6166666666666667],vertical,"(390.0, 262.0)",0.4166666666666667,0.59,1,223.288,1,0.0,0.25
0,36,catch,"[(1179, 766)]",[],[1],[],horizontal,"(390.0, 762.0)",1.6,nan,1,227.887,2,0.0,0.25
0,37,target,"[(1179, 768)]",[],[1],[0.5],vertical,"(890.0, 262.0)",0.35,0.467,1,233.492,2,0.0,0.25
0,38,target,"[(1180, 762)]",[],[1],[0.4],vertical,"(390.0, 262.0)",1.2666666666666666,0.369,1,238.645,2,0.0,0.25
0,39,target,"[(1181, 779)]",[],[1],[0.5],vertical,"(390.0, 762.0)",1.1833333333333333,0.467,1,244.193,2,0.0,0.25
0,40,target,"[(1180, 767)]",[],[1],[0.5],horizontal,"(890.0, 262.0)",0.85,0.464,1,250.045,3,0.0,0.25
0,41,catch,"[(1176, 756)]",[],[1],[],horizontal,"(890.0, 762.0)",1.6,nan,1,255.767,3,0.0,0.25
0,42,target,"[(1179, 765)]",[],[1],[0.4666666666666667],horizontal,"(890.0, 262.0)",0.6833333333333333,0.429,1,261.855,3,0.0,0.25
0,43,target,"[(1180, 765)]",[],[1],[0.5166666666666666],vertical,"(890.0, 262.0)",0.8333333333333334,0.49,1,267.337,3,0.0,0.25
0,44,target,"[(1171, 760)]",[],[1],[0.16666666666666666],horizontal,"(890.0, 762.0)",1.0,0.135,0,273.14,0,0.0,0.25
0,45,target,"[(1180, 786)]","[(1143, 833)]",[1],[0.6666666666666666],vertical,"(890.0, 262.0)",,"('bar', 0.675)",0,277.494,0,0.0,0.25
0,46,target,"[(1145, 803)]",[],[1],[0.85],vertical,"(890.0, 762.0)",0.9666666666666667,nan,0,280.504,0,0.0,0.25
0,47,target,"[(1155, 780)]",[],[1],[0.5],vertical,"(390.0, 762.0)",0.9833333333333333,0.461,1,284.957,1,0.0,0.25
0,48,catch,"[(1178, 751), (1154, 816)]",[],"[0, 1]",[],vertical,"(390.0, 762.0)",1.6,nan,1,289.797,1,0.0,0.25
0,49,target,"[(1178, 779)]",[],[1],[0.5833333333333334],vertical,"(890.0, 762.0)",0.7,0.542,1,295.879,1,0.0,0.25
0,50,target,"[(1147, 760)]",[],[1],[0.6],vertical,"(390.0, 762.0)",1.2166666666666666,0.564,1,300.869,2,0.0,0.25
0,51,target,"[(1183, 787)]",[],[1],[],vertical,"(390.0, 262.0)",,"('cti', 1.243)",0,306.39,0,0.02,0.25
0,52,target,"[(1180, 772)]",[],[1],[0.6333333333333333],horizontal,"(890.0, 762.0)",0.75,0.598,1,311.11,1,0.02,0.25
0,53,catch,"[(1158, 763)]",[],[1],[],vertical,"(890.0, 262.0)",1.6,nan,1,315.743,1,0.02,0.25
0,54,target,"[(1173, 772)]",[],[1],[0.7166666666666667],vertical,"(890.0, 762.0)",1.05,0.675,1,320.735,1,0.02,0.25
0,55,target,"[(1175, 785)]",[],[1],[0.48333333333333334],horizontal,"(390.0, 762.0)",1.25,0.445,1,326.244,2,0.02,0.25
0,56,target,"[(1180, 763)]",[],[1],[0.2],horizontal,"(890.0, 762.0)",1.4666666666666666,0.17,0,332.236,0,0.02,0.25
0,57,target,"[(1162, 791)]",[],[1],[0.4166666666666667],vertical,"(890.0, 262.0)",1.4166666666666667,0.377,1,337.045,1,0.02,0.25
0,58,target,"[(1176, 759)]",[],[1],[0.5666666666666667],horizontal,"(890.0, 762.0)",1.1166666666666667,0.523,1,342.874,1,0.02,0.25
0,59,catch,"[(1178, 774)]",[],[1],[],horizontal,"(890.0, 762.0)",1.6,nan,1,348.292,1,0.02,0.25
0,60,target,"[(1181, 776)]",[],[1],[0.5166666666666666],horizontal,"(390.0, 762.0)",0.9166666666666666,0.474,1,353.284,2,0.02,0.25
0,61,catch,"[(1152, 777)]",[],[1],[],horizontal,"(390.0, 762.0)",1.6,nan,1,358.559,2,0.02,0.25
0,62,target,"[(1163, 778)]",[],[1],[0.55],horizontal,"(390.0, 762.0)",0.6666666666666666,0.508,1,364.823,2,0.02,0.25
0,63,target,"[(1179, 764)]",[],[1],[0.85],horizontal,"(890.0, 262.0)",0.45,nan,0,370.36,0,0.02,0.25
0,64,target,"[(1170, 787)]",[],[1],[0.6166666666666667],vertical,"(890.0, 262.0)",0.85,0.58,1,374.668,1,0.02,0.25
0,65,target,"[(1177, 789)]",[],[1],[0.5666666666666667],horizontal,"(890.0, 762.0)",0.5666666666666667,0.523,1,379.699,1,0.02,0.25
0,66,target,"[(1186, 756)]",[],[1],[0.5833333333333334],horizontal,"(890.0, 762.0)",1.0333333333333332,0.537,1,384.26,1,0.02,0.25
0,67,target,"[(1180, 789)]",[],[1],[0.48333333333333334],horizontal,"(390.0, 262.0)",0.95,0.445,1,389.196,2,0.02,0.25
0,68,target,"[(1180, 769)]",[],[1],[0.5666666666666667],horizontal,"(390.0, 262.0)",0.7833333333333333,0.525,1,395.026,2,0.02,0.25
0,69,target,"[(1180, 780)]",[],[1],[0.4666666666666667],vertical,"(890.0, 262.0)",1.45,0.425,1,400.676,2,0.02,0.25
0,70,target,"[(1149, 797)]",[],[1],[0.6166666666666667],horizontal,"(890.0, 262.0)",0.45,0.57,1,406.36,2,0.02,0.25
0,71,target,"[(1180, 777)]",[],[1],[0.5],horizontal,"(890.0, 262.0)",1.2333333333333334,0.46,1,411.334,3,0.02,0.25
0,72,target,"[(1160, 785)]",[],[1],[0.5166666666666666],vertical,"(390.0, 262.0)",1.1666666666666667,0.477,1,417.076,3,0.02,0.25
0,73,target,"[(1170, 770)]",[],[1],[0.2833333333333333],horizontal,"(890.0, 762.0)",1.5333333333333332,0.244,1,422.6,3,0.02,0.25
0,74,target,"[(1181, 775)]",[],[1],[0.5666666666666667],vertical,"(390.0, 762.0)",0.6666666666666666,0.523,1,428.909,3,0.02,0.25
0,75,catch,"[(1175, 785)]",[],[1],[],horizontal,"(890.0, 762.0)",1.6,nan,1,434.843,3,0.02,0.25
0,76,target,"[(1179, 765)]",[],[1],[0.6],horizontal,"(390.0, 762.0)",0.5833333333333334,0.555,1,440.609,3,0.02,0.25
0,77,target,"[(1161, 757)]",[],[1],[0.5],vertical,"(890.0, 262.0)",1.2666666666666666,0.462,1,446.387,3,0.02,0.25
0,78,catch,"[(1179, 770)]",[],[1],[],horizontal,"(390.0, 762.0)",1.6,nan,1,452.152,3,0.02,0.25
0,79,target,"[(1179, 772)]",[],[1],[0.75],horizontal,"(390.0, 262.0)",0.55,0.705,1,457.812,3,0.02,0.25
0,80,target,"[(1175, 764)]",[],[1],[0.6666666666666666],vertical,"(890.0, 262.0)",1.1666666666666667,0.624,1,463.176,3,0.02,0.25
0,81,target,"[(1179, 770)]",[],[1],[0.48333333333333334],horizontal,"(890.0, 262.0)",0.8166666666666667,0.445,1,468.844,3,0.02,0.25
0,82,target,"[(1180, 785)]",[],[1],[0.4666666666666667],horizontal,"(890.0, 762.0)",1.4833333333333334,0.426,1,474.51,3,0.02,0.25
0,83,catch,"[(1182, 786)]","[(1099, 853)]",[1],[0.5833333333333334],vertical,"(390.0, 762.0)",,"('bar', 0.593),nan",0,480.75,0,0.04,0.25
0,84,catch,"[(1162, 798)]",[],[1],[],horizontal,"(890.0, 762.0)",1.6,nan,1,483.572,1,0.04,0.25
0,85,target,"[(1174, 792)]",[],[1],[0.7166666666666667],vertical,"(890.0, 762.0)",0.35,0.671,1,489.178,1,0.04,0.25
0,86,target,"[(1178, 792)]",[],[1],[0.45],horizontal,"(390.0, 262.0)",1.3166666666666667,0.409,1,494.012,1,0.04,0.25
0,87,catch,"[(1175, 782)]",[],[1],[],horizontal,"(890.0, 762.0)",1.6,nan,1,499.753,2,0.04,0.25
0,88,target,"[(1178, 781)]",[],[1],[0.48333333333333334],vertical,"(890.0, 262.0)",1.1833333333333333,0.455,1,505.307,2,0.04,0.25
0,89,catch,"[(1180, 763)]",[],[1],[],vertical,"(390.0, 262.0)",1.6,nan,1,511.291,2,0.04,0.25
0,90,target,"[(1182, 776)]",[],[1],[0.5166666666666666],vertical,"(890.0, 262.0)",0.6333333333333333,0.492,1,516.909,2,0.04,0.25
0,91,target,"[(1180, 785)]",[],[1],[0.5],vertical,"(390.0, 262.0)",0.9166666666666666,0.473,1,522.491,3,0.04,0.25
0,92,target,"[(1177, 761)]",[],[1],[0.85],horizontal,"(390.0, 262.0)",0.48333333333333334,nan,0,528.574,0,0.04,0.25
0,93,target,"[(1130, 767)]",[],[1],[0.85],horizontal,"(890.0, 762.0)",0.4,nan,0,533.264,0,0.04,0.25
0,94,target,"[(1139, 776)]",[],[1],[0.48333333333333334],horizontal,"(890.0, 762.0)",1.2,0.443,1,537.706,1,0.04,0.25
0,95,target,"[(1165, 779)]",[],[1],[0.5],vertical,"(890.0, 762.0)",0.6,0.467,1,543.308,1,0.04,0.25
0,96,target,"[(1175, 776)]",[],[1],[0.5666666666666667],horizontal,"(390.0, 762.0)",1.1166666666666667,0.521,1,548.454,1,0.04,0.25
0,97,target,"[(1185, 774)]",[],[1],[0.3333333333333333],vertical,"(390.0, 762.0)",1.4833333333333334,0.3,1,553.885,2,0.04,0.25
0,98,target,"[(1185, 781)]",[],[1],[0.5],vertical,"(890.0, 762.0)",0.95,0.456,1,559.39,2,0.04,0.25
0,99,target,"[(1182, 773)]",[],[1],[0.48333333333333334],horizontal,"(890.0, 262.0)",0.6666666666666666,0.438,1,564.626,2,0.04,0.25
0,100,target,"[(1183, 778)]",[],[1],[0.5],horizontal,"(390.0, 762.0)",1.3333333333333333,0.458,1,569.78,2,0.04,0.25
0,101,target,"[(1187, 785)]",[],[1],[0.85],vertical,"(890.0, 762.0)",0.5166666666666666,nan,0,575.477,0,0.02,0.25
0,102,target,"[(1154, 779)]",[],[1],[0.48333333333333334],horizontal,"(390.0, 262.0)",0.4666666666666667,0.45,1,579.811,1,0.02,0.25
0,103,target,"[(1175, 776)]",[],[1],[0.55],horizontal,"(390.0, 762.0)",0.85,0.51,1,584.243,1,0.02,0.25
0,104,target,"[(1177, 786)]",[],[1],[0.6333333333333333],horizontal,"(890.0, 262.0)",0.75,0.589,1,588.826,1,0.02,0.25
0,105,target,"[(1175, 774)]",[],[1],[0.5],vertical,"(890.0, 762.0)",0.9166666666666666,0.458,1,593.561,2,0.02,0.25
0,106,catch,"[(1178, 760)]",[],[1],[],vertical,"(390.0, 262.0)",1.6,nan,1,598.944,2,0.02,0.25
0,107,target,"[(1180, 789)]",[],[1],[0.55],horizontal,"(890.0, 262.0)",0.7166666666666667,0.509,1,604.283,2,0.02,0.25
0,108,target,"[(1180, 778)]",[],[1],[0.6],horizontal,"(890.0, 762.0)",0.5333333333333333,0.561,1,609.538,2,0.02,0.25
0,109,target,"[(1180, 780)]",[],[1],[0.5333333333333333],horizontal,"(390.0, 262.0)",1.1166666666666667,0.494,1,614.76,3,0.02,0.25
0,110,target,"[(1158, 816)]",[],[1],[0.6],horizontal,"(390.0, 762.0)",0.9,0.559,1,621.128,3,0.02,0.25
0,111,target,"[(1157, 783)]",[],[1],[0.4166666666666667],horizontal,"(890.0, 262.0)",1.4666666666666666,0.381,1,627.526,3,0.02,0.25
0,112,target,"[(1176, 776)]",[],[1],[0.6666666666666666],vertical,"(390.0, 762.0)",0.9166666666666666,0.626,1,633.759,3,0.02,0.25
0,113,target,"[(1178, 774)]",[],[1],[0.6666666666666666],vertical,"(390.0, 262.0)",0.3833333333333333,0.621,1,639.394,3,0.02,0.25
0,114,target,"[(1168, 765)]",[],[1],[0.48333333333333334],horizontal,"(890.0, 262.0)",0.9666666666666667,0.443,1,644.761,3,0.02,0.25
0,115,target,"[(1180, 770)]",[],[1],[0.35],vertical,"(890.0, 762.0)",1.2666666666666666,0.312,1,650.094,3,0.02,0.25
0,116,target,"[(1177, 759)]",[],[1],[0.6833333333333333],horizontal,"(390.0, 262.0)",1.1666666666666667,0.64,1,655.795,3,0.02,0.25
0,117,target,"[(1182, 789)]",[],[1],[0.2],vertical,"(390.0, 262.0)",1.3833333333333333,0.163,0,661.596,0,0.02,0.25
0,118,target,"[(1155, 770)]",[],[1],[0.5833333333333334],vertical,"(890.0, 762.0)",1.3666666666666667,0.539,1,666.426,1,0.02,0.25
0,119,target,"[(1176, 762)]",[],[1],[0.85],vertical,"(890.0, 762.0)",0.55,nan,0,671.96,0,0.02,0.25
0,120,catch,"[(1154, 774)]",[],[1],[],vertical,"(890.0, 762.0)",1.6,nan,1,676.378,1,0.02,0.25
0,121,target,"[(1165, 769)]",[],[1],[0.5166666666666666],horizontal,"(890.0, 762.0)",0.8,0.48,1,681.543,1,0.02,0.25
0,122,target,"[(1181, 774)]",[],[1],[0.5333333333333333],vertical,"(390.0, 262.0)",1.2333333333333334,0.494,1,686.578,1,0.02,0.25
0,123,target,"[(1174, 776)]",[],[1],[0.55],vertical,"(390.0, 762.0)",1.3833333333333333,0.511,1,691.556,2,0.02,0.25
0,124,target,"[(1158, 789)]",[],[1],[0.45],vertical,"(390.0, 762.0)",1.2166666666666666,0.411,1,697.235,2,0.02,0.25
0,125,catch,"[(1180, 776)]",[],[1],[],vertical,"(890.0, 762.0)",1.6,nan,1,702.976,2,0.02,0.25
0,126,target,"[(1154, 780)]",[],[1],[0.5166666666666666],vertical,"(890.0, 762.0)",0.7,0.477,1,708.276,2,0.02,0.25
0,127,target,"[(1180, 778)]",[],[1],[0.55],horizontal,"(890.0, 762.0)",0.6666666666666666,0.513,1,713.776,3,0.02,0.25
0,128,target,"[(1160, 786)]",[],[1],[0.5],horizontal,"(890.0, 762.0)",0.75,0.46,1,719.375,3,0.02,0.25
0,129,catch,"[(1159, 792)]",[],[1],[],vertical,"(890.0, 262.0)",,"('cti', 1.544),nan",0,724.811,0,0.04,0.25
0,130,target,"[(1160, 796)]",[],[1],[0.5666666666666667],vertical,"(390.0, 762.0)",0.6,0.528,1,729.528,1,0.04,0.25
0,131,target,"[(1154, 770)]",[],[1],[0.45],horizontal,"(890.0, 262.0)",1.4,0.41,1,734.311,1,0.04,0.25
0,132,catch,"[(1176, 781)]",[],[1],[],vertical,"(390.0, 762.0)",1.6,nan,1,739.692,1,0.04,0.25
0,133,target,"[(1179, 771)]",[],[1],[0.48333333333333334],horizontal,"(390.0, 762.0)",0.9166666666666666,0.449,1,744.961,2,0.02,0.25
0,134,catch,"[(1176, 765)]",[],[1],[],vertical,"(890.0, 762.0)",,"('cti', 1.594),nan",0,750.293,0,0.04,0.25
0,135,target,"[(1168, 794)]",[],[1],[0.6333333333333333],horizontal,"(890.0, 762.0)",0.6333333333333333,0.593,1,754.981,1,0.04,0.25
0,136,target,"[(1176, 767)]",[],[1],[0.31666666666666665],vertical,"(390.0, 762.0)",1.4166666666666667,0.279,1,759.649,1,0.04,0.25
0,137,target,"[(1171, 766)]",[],[1],[0.85],horizontal,"(390.0, 262.0)",0.5,nan,0,765.144,0,0.04,0.25
0,138,target,"[(1154, 788)]",[],[1],[0.55],vertical,"(890.0, 762.0)",0.7333333333333333,0.516,1,769.44,1,0.04,0.25
0,139,catch,"[(1153, 784)]",[],[1],[],horizontal,"(390.0, 262.0)",1.6,nan,1,774.514,1,0.04,0.25
0,140,target,"[(1186, 769)]",[],[1],[0.48333333333333334],vertical,"(390.0, 262.0)",0.35,0.448,1,779.755,1,0.04,0.25
0,141,target,"[(1156, 786)]",[],[1],[0.6166666666666667],horizontal,"(890.0, 262.0)",1.4,0.581,1,784.093,2,0.04,0.25
0,142,catch,"[(1173, 782)]",[],[1],[],vertical,"(390.0, 762.0)",1.6,nan,1,789.777,2,0.04,0.25
0,143,catch,"[(1174, 785)]",[],[1],[],vertical,"(390.0, 762.0)",1.6,nan,1,795.405,2,0.04,0.25
0,144,target,"[(1175, 798)]",[],[1],[0.85],horizontal,"(890.0, 262.0)",0.6833333333333333,nan,0,801.138,0,0.04,0.25
0,145,target,"[(1170, 789)]",[],[1],[0.6833333333333333],vertical,"(390.0, 762.0)",0.4166666666666667,0.648,1,805.719,1,0.04,0.25
0,146,target,"[(1180, 769)]",[],[1],[0.85],horizontal,"(890.0, 762.0)",0.9,nan,0,810.409,0,0.04,0.25
0,147,target,"[(1161, 796)]",[],[1],[0.43333333333333335],vertical,"(890.0, 762.0)",1.3,0.4,1,814.727,1,0.04,0.25
0,148,target,"[(1180, 764)]",[],[1],[0.5166666666666666],horizontal,"(390.0, 262.0)",1.3333333333333333,0.475,1,819.944,1,0.04,0.25
0,149,target,"[(1219, 782)]",[],[1],[0.5333333333333333],horizontal,"(890.0, 762.0)",1.2166666666666666,0.498,1,825.536,1,0.04,0.25
0,150,catch,"[(1199, 779)]",[],[1],[],horizontal,"(890.0, 262.0)",1.6,nan,1,830.787,2,0.04,0.25
0,151,target,"[(1181, 754)]",[],[1],[0.5166666666666666],vertical,"(390.0, 762.0)",0.36666666666666664,0.474,1,836.257,2,0.04,0.25
0,152,catch,"[(1183, 769)]",[],[1],[],horizontal,"(390.0, 262.0)",1.6,nan,1,840.973,2,0.04,0.25
0,153,target,"[(1177, 788)]",[],[1],[0.13333333333333333],horizontal,"(390.0, 762.0)",1.4666666666666666,0.101,0,846.294,0,0.04,0.25
0,154,catch,"[(1159, 798)]",[],[1],[],vertical,"(390.0, 262.0)",1.6,nan,1,850.73,1,0.04,0.25
0,155,target,"[(1183, 774)]",[],[1],[0.45],horizontal,"(890.0, 262.0)",1.3166666666666667,0.418,1,856.292,1,0.04,0.25
0,156,target,"[(1175, 760)]",[],[1],[0.6166666666666667],vertical,"(890.0, 262.0)",1.0333333333333332,0.575,1,861.716,1,0.04,0.25
0,157,target,"[(1184, 763)]",[],[1],[0.65],horizontal,"(890.0, 762.0)",0.6833333333333333,0.607,1,867.177,2,0.04,0.25
0,158,catch,"[(1180, 764)]",[],[1],[],vertical,"(390.0, 762.0)",,"('cti', 1.549),nan",0,872.517,0,0.06,0.25
0,159,catch,"[(1181, 794)]",[],[1],[],horizontal,"(890.0, 762.0)",1.6,nan,1,877.505,1,0.06,0.25
0,160,catch,"[(1180, 760)]",[],[1],[],horizontal,"(890.0, 762.0)",1.6,nan,1,882.392,1,0.06,0.25
0,161,target,"[(1190, 772)]",[],[1],[0.4666666666666667],vertical,"(890.0, 762.0)",0.8166666666666667,0.424,1,887.139,1,0.06,0.25
0,162,target,"[(1172, 765)]",[],[1],[0.4666666666666667],vertical,"(390.0, 262.0)",0.9,0.427,1,891.979,2,0.06,0.25
0,163,target,"[(1179, 765)]",[],[1],[0.4666666666666667],vertical,"(890.0, 762.0)",0.35,0.429,1,897.227,2,0.06,0.25
0,164,target,"[(1186, 793)]",[],[1],[0.4],vertical,"(390.0, 762.0)",1.5,0.365,1,902.138,2,0.06,0.25
0,165,target,"[(1179, 774)]",[],[1],[0.6833333333333333],vertical,"(890.0, 762.0)",1.0166666666666666,0.642,1,907.81,2,0.06,0.25
0,166,target,"[(1172, 765)]",[],[1],[0.5],horizontal,"(890.0, 762.0)",0.7333333333333333,0.457,1,914.042,3,0.06,0.25
0,167,target,"[(1189, 793)]",[],[1],[0.48333333333333334],horizontal,"(890.0, 262.0)",1.4,0.441,1,920.044,3,0.06,0.25
0,168,target,"[(1158, 764)]",[],[1],[0.48333333333333334],horizontal,"(390.0, 262.0)",0.43333333333333335,0.451,1,926.295,3,0.06,0.25
0,169,target,"[(1164, 759)]",[],[1],[0.6666666666666666],horizontal,"(390.0, 262.0)",1.3333333333333333,0.621,1,931.542,3,0.06,0.25
0,170,target,"[(1170, 769)]",[],[1],[0.5166666666666666],vertical,"(390.0, 762.0)",1.1833333333333333,0.476,1,937.844,3,0.06,0.25
0,171,target,"[(1178, 760)]",[],[1],[0.7],vertical,"(890.0, 762.0)",0.9333333333333333,0.651,1,943.601,3,0.06,0.25
0,172,target,"[(1170, 762)]",[],[1],[0.5333333333333333],vertical,"(390.0, 762.0)",0.4,0.497,1,949.279,3,0.06,0.25
0,173,target,"[(1180, 795)]",[],[1],[0.48333333333333334],horizontal,"(390.0, 262.0)",1.3333333333333333,0.445,1,954.562,3,0.06,0.25
0,174,catch,"[(1167, 760)]",[],[1],[],horizontal,"(390.0, 762.0)",,"('cti', 1.505),nan",0,960.312,0,0.08,0.25
0,175,target,"[(1176, 792)]",[],[1],[0.55],horizontal,"(390.0, 762.0)",1.0666666666666667,0.509,1,965.338,1,0.08,0.25
0,176,target,"[(1165, 764)]",[],[1],[0.55],horizontal,"(890.0, 762.0)",1.2166666666666666,0.515,1,970.378,1,0.08,0.25
0,177,target,"[(1179, 763)]",[],[1],[0.85],vertical,"(890.0, 762.0)",0.6833333333333333,nan,0,975.825,0,0.08,0.25
0,178,target,"[(1162, 788)]",[],[1],[0.6833333333333333],vertical,"(890.0, 262.0)",0.7666666666666666,0.643,1,980.278,1,0.08,0.25
0,179,catch,"[(1174, 768)]",[],[1],[],vertical,"(390.0, 762.0)",1.6,nan,1,985.477,1,0.06,0.25
0,180,target,"[(1174, 766)]",[],[1],[0.5],vertical,"(890.0, 762.0)",1.3333333333333333,0.459,1,990.631,1,0.06,0.25
0,181,target,"[(1180, 791)]",[],[1],[0.5],horizontal,"(390.0, 262.0)",1.2666666666666666,0.461,1,996.161,2,0.06,0.25
0,182,target,"[(1179, 778)]",[],[1],[0.5666666666666667],vertical,"(890.0, 762.0)",0.75,0.525,1,1001.962,2,0.06,0.25
0,183,catch,"[(1180, 798)]",[],[1],[],vertical,"(390.0, 262.0)",1.6,nan,1,1007.293,2,0.06,0.25
0,184,catch,"[(1165, 765)]",[],[1],[],horizontal,"(390.0, 762.0)",1.6,nan,1,1012.553,2,0.04,0.25
0,185,target,"[(1176, 790)]",[],[1],[0.5],vertical,"(390.0, 762.0)",0.9833333333333333,0.457,1,1018.512,3,0.04,0.25
0,186,catch,"[(1170, 755)]",[],[1],[],horizontal,"(890.0, 762.0)",1.6,nan,1,1024.462,3,0.04,0.25
0,187,target,"[(1165, 760)]",[],[1],[0.5],vertical,"(390.0, 762.0)",0.7666666666666666,0.459,1,1030.599,3,0.04,0.25
0,188,catch,"[(1176, 756)]",[],[1],[],horizontal,"(390.0, 262.0)",1.6,nan,1,1036.395,3,0.04,0.25
0,189,target,"[(1178, 761)]",[],[1],[0.23333333333333334],vertical,"(890.0, 262.0)",1.4166666666666667,0.196,0,1042.329,0,0.04,0.25
0,190,target,"[(1159, 773)]",[],[1],[0.5166666666666666],horizontal,"(890.0, 262.0)",1.1166666666666667,0.481,1,1047.144,1,0.04,0.25
0,191,target,"[(1178, 780)]",[],[1],[0.4166666666666667],vertical,"(390.0, 762.0)",1.4666666666666666,0.378,1,1052.269,1,0.04,0.25
0,192,target,"[(1177, 756)]",[],[1],[0.5166666666666666],vertical,"(890.0, 262.0)",0.65,0.476,1,1057.762,1,0.04,0.25
0,193,target,"[(1161, 760)]",[],[1],[0.6],horizontal,"(390.0, 762.0)",0.7666666666666666,0.562,1,1062.676,2,0.04,0.25
0,194,target,"[(1170, 760)]",[],[1],[0.5333333333333333],vertical,"(390.0, 262.0)",1.15,0.49,1,1067.827,2,0.04,0.25
0,195,target,"[(1178, 770)]",[],[1],[0.5666666666666667],horizontal,"(390.0, 262.0)",0.36666666666666664,0.526,1,1073.754,2,0.04,0.25
0,196,catch,"[(1139, 806)]",[],[1],[],vertical,"(890.0, 762.0)",1.6,nan,1,1078.811,2,0.04,0.25
0,197,target,"[(1164, 803)]",[],[1],[0.5666666666666667],horizontal,"(390.0, 262.0)",1.25,0.521,1,1085.378,3,0.04,0.25
0,198,catch,"[(1175, 776)]",[],[1],[],vertical,"(890.0, 262.0)",1.6,nan,1,1091.697,3,0.04,0.25
0,199,target,"[(1165, 764)]",[],[1],[0.5666666666666667],vertical,"(390.0, 262.0)",0.9,0.524,1,1097.739,3,0.04,0.25
0,200,catch,"[(1181, 782)]",[],[1],[],vertical,"(390.0, 262.0)",1.6,nan,1,1103.495,3,0.04,0.25
0,201,target,"[(1177, 773)]",[],[1],[0.5333333333333333],horizontal,"(390.0, 262.0)",1.3166666666666667,0.493,1,1109.379,3,0.04,0.25
0,202,target,"[(1170, 761)]",[],[1],[0.6166666666666667],horizontal,"(390.0, 762.0)",0.7,0.574,1,1115.294,3,0.04,0.25
0,203,target,"[(1165, 774)]",[],[1],[0.6166666666666667],horizontal,"(390.0, 762.0)",0.9166666666666666,0.571,1,1120.946,3,0.04,0.25
0,204,target,"[(1153, 761)]",[],[1],[0.5],horizontal,"(390.0, 762.0)",1.3666666666666667,0.458,1,1126.803,3,0.04,0.25
0,205,target,"[(1170, 760)]",[],[1],[0.55],vertical,"(390.0, 762.0)",0.7,0.507,1,1132.966,3,0.04,0.25
0,206,target,"[(1170, 780)]",[],[1],[0.5166666666666666],vertical,"(390.0, 762.0)",0.8333333333333334,0.479,1,1138.777,3,0.04,0.25
0,207,target,"[(1145, 772)]",[],[1],[0.6166666666666667],vertical,"(390.0, 262.0)",1.0666666666666667,0.572,1,1144.271,3,0.04,0.25
0,208,target,"[(1176, 764)]",[],[1],[0.6],horizontal,"(890.0, 762.0)",0.65,0.553,1,1150.551,3,0.02,0.25
0,209,target,"[(1190, 777)]",[],[1],[0.2833333333333333],vertical,"(390.0, 762.0)",1.4666666666666666,0.247,1,1156.009,3,0.02,0.25
0,210,catch,"[(1179, 749), (1169, 820)]",[],"[0, 1]",[],horizontal,"(890.0, 262.0)",1.6,nan,1,1162.233,3,0.02,0.25
0,211,target,"[(1193, 796)]",[],[1],[0.6166666666666667],vertical,"(890.0, 262.0)",0.4,0.571,1,1168.634,3,0.02,0.25
0,212,target,"[(1180, 766)]",[],[1],[0.26666666666666666],vertical,"(390.0, 262.0)",1.4833333333333334,0.234,1,1174.163,3,0.02,0.25
0,213,target,"[(1169, 774)]",[],[1],[0.5833333333333334],horizontal,"(890.0, 762.0)",1.1,0.542,1,1180.328,3,0.02,0.25
0,214,target,"[(1177, 794)]",[],[1],[0.5166666666666666],vertical,"(890.0, 762.0)",0.85,0.476,1,1186.004,3,0.02,0.25
0,215,target,"[(1174, 772)]",[],[1],[0.6],horizontal,"(390.0, 762.0)",0.5166666666666666,0.554,1,1191.73,3,0.02,0.25
0,216,catch,"[(1164, 775)]",[],[1],[],vertical,"(890.0, 262.0)",1.6,nan,1,1196.979,3,0.02,0.25
0,217,target,"[(1172, 762)]",[],[1],[0.5],vertical,"(890.0, 262.0)",1.3,0.464,1,1202.587,3,0.02,0.25
0,218,target,"[(1165, 785)]",[],[1],[0.2833333333333333],vertical,"(890.0, 262.0)",0.8333333333333334,0.249,1,1208.244,3,0.02,0.25
0,219,catch,"[(1165, 759)]",[],[1],[],vertical,"(890.0, 762.0)",1.6,nan,1,1213.969,3,0.02,0.25
0,220,target,"[(1178, 755)]",[],[1],[0.5666666666666667],vertical,"(890.0, 262.0)",0.5833333333333334,0.528,1,1220.045,3,0.02,0.25
0,221,catch,"[(1176, 810)]",[],[1],[],vertical,"(390.0, 262.0)",1.6,nan,1,1225.353,3,0.02,0.25
0,222,catch,"[(1178, 780)]",[],[1],[],vertical,"(390.0, 262.0)",1.6,nan,1,1231.669,3,0.02,0.25
0,223,target,"[(1189, 794)]",[],[1],[0.5166666666666666],vertical,"(890.0, 762.0)",0.8,0.478,1,1237.948,3,0.02,0.25
0,224,target,"[(1180, 774)]",[],[1],[0.6666666666666666],vertical,"(890.0, 262.0)",1.1333333333333333,0.621,1,1243.211,3,0.0,0.25
0,225,catch,"[(1177, 775)]",[],[1],[],horizontal,"(890.0, 262.0)",1.6,nan,1,1249.278,3,0.0,0.25
0,226,target,"[(1178, 774)]",[],[1],[0.7],horizontal,"(390.0, 262.0)",0.95,0.654,1,1255.028,3,0.0,0.25
0,227,target,"[(1165, 765)]",[],[1],[0.5333333333333333],horizontal,"(890.0, 762.0)",1.2833333333333332,0.495,1,1261.207,3,0.0,0.25
0,228,target,"[(1169, 790)]",[],[1],[0.5],horizontal,"(390.0, 262.0)",1.2,0.453,1,1267.128,3,0.0,0.25
0,229,target,"[(1180, 778)]",[],[1],[0.6666666666666666],vertical,"(390.0, 762.0)",1.5166666666666666,0.62,1,1273.278,3,0.0,0.25
0,230,target,"[(1180, 770)]",[],[1],[0.45],horizontal,"(390.0, 262.0)",1.4166666666666667,0.406,1,1279.511,3,0.0,0.25
0,231,target,"[(1180, 798)]",[],[1],[0.5666666666666667],vertical,"(390.0, 762.0)",1.05,0.524,1,1285.827,3,0.0,0.25
0,232,target,"[(1181, 788)]",[],[1],[0.5],vertical,"(890.0, 762.0)",1.35,0.458,1,1291.815,3,0.0,0.25
0,233,target,"[(1181, 763)]",[],[1],[0.55],vertical,"(890.0, 762.0)",0.6666666666666666,0.507,1,1297.811,3,0.0,0.25
0,234,target,"[(1155, 788)]",[],[1],[0.7],horizontal,"(890.0, 762.0)",1.15,0.658,1,1303.644,3,0.0,0.25
0,235,target,"[(1153, 776)]",[],[1],[0.6833333333333333],vertical,"(890.0, 262.0)",1.1,0.636,1,1309.6,3,0.0,0.25
0,236,catch,"[(1180, 761)]",[],[1],[],horizontal,"(890.0, 762.0)",1.6,nan,1,1315.711,3,0.0,0.25
0,237,catch,"[(1180, 785)]",[],[1],[],vertical,"(390.0, 762.0)",1.6,nan,1,1321.518,3,0.0,0.25
0,238,target,"[(1175, 765)]",[],[1],[0.5],vertical,"(890.0, 262.0)",0.4666666666666667,0.462,1,1327.643,3,0.0,0.25
0,239,catch,"[(1182, 784)]",[],[1],[],vertical,"(890.0, 762.0)",1.6,nan,1,1332.878,3,0.0,0.25
0,240,target,"[(1175, 773)]",[],[1],[0.48333333333333334],vertical,"(890.0, 262.0)",0.8333333333333334,0.446,1,1339.21,3,0.0,0.25
0,241,target,"[(1180, 794)]",[],[1],[0.6666666666666666],horizontal,"(890.0, 762.0)",0.55,0.625,1,1344.896,3,0.0,0.25
0,242,target,"[(1181, 780)]",[],[1],[0.5666666666666667],horizontal,"(390.0, 762.0)",0.6833333333333333,0.528,1,1350.683,3,0.0,0.25
0,243,target,"[(1180, 779)]",[],[1],[0.4166666666666667],vertical,"(890.0, 762.0)",1.5,0.381,1,1356.395,3,0.0,0.25
0,244,catch,"[(1192, 799)]",[],[1],[],horizontal,"(890.0, 262.0)",1.6,nan,1,1362.983,3,0.0,0.25
0,245,target,"[(1178, 775)]",[],[1],[0.55],vertical,"(890.0, 762.0)",0.8833333333333333,0.513,1,1369.145,3,0.0,0.25
0,246,target,"[(1173, 774)]",[],[1],[0.5],horizontal,"(890.0, 262.0)",1.3166666666666667,0.46,1,1374.666,3,0.0,0.25
0,247,target,"[(1190, 780)]",[],[1],[0.55],horizontal,"(890.0, 762.0)",0.8166666666666667,0.503,1,1381.01,3,0.0,0.25
0,248,catch,"[(1176, 785)]",[],[1],[],horizontal,"(390.0, 262.0)",1.6,nan,1,1386.679,3,0.0,0.25
0,249,target,"[(1177, 778)]",[],[1],[0.5166666666666666],horizontal,"(890.0, 262.0)",0.4666666666666667,0.489,1,1392.589,3,0.0,0.25
0,250,catch,"[(1159, 828)]",[],[1],[],horizontal,"(890.0, 262.0)",1.6,nan,1,1398.145,3,0.0,0.25
0,251,target,"[(1187, 785)]",[],[1],[0.5],vertical,"(890.0, 262.0)",0.5333333333333333,0.458,1,2050.94,3,0.0,0.25
0,252,catch,"[(1173, 774)]",[],[1],[],horizontal,"(890.0, 762.0)",1.6,nan,1,2056.161,3,0.0,0.25
0,253,target,"[(1191, 771)]",[],[1],[0.4666666666666667],vertical,"(390.0, 762.0)",1.3333333333333333,0.433,1,2061.93,3,0.0,0.25
0,254,target,"[(1173, 777)]",[],[1],[0.36666666666666664],vertical,"(890.0, 262.0)",1.5166666666666666,0.333,1,2067.822,3,0.0,0.25
0,255,target,"[(1175, 777)]",[],[1],[0.85],vertical,"(390.0, 762.0)",0.4,nan,0,2073.813,0,0.0,0.25
0,256,target,"[(1155, 785)]",[],[1],[0.6333333333333333],vertical,"(390.0, 262.0)",0.7166666666666667,0.585,1,2077.764,1,0.0,0.25
0,257,target,"[(1182, 786)]",[],[1],[0.7333333333333333],vertical,"(390.0, 262.0)",0.65,0.693,1,2082.82,1,0.0,0.25
0,258,target,"[(1174, 774)]",[],[1],[0.4166666666666667],vertical,"(890.0, 762.0)",1.4166666666666667,0.379,1,2087.93,1,0.0,0.25
0,259,catch,"[(1190, 774)]",[],[1],[],horizontal,"(390.0, 262.0)",1.6,nan,1,2093.039,2,0.0,0.25
0,260,target,"[(1175, 775)]",[],[1],[0.6666666666666666],vertical,"(390.0, 762.0)",1.05,0.627,1,2099.077,2,0.0,0.25
0,261,catch,"[(1175, 768)]",[],[1],[],horizontal,"(890.0, 762.0)",1.6,nan,1,2104.756,2,0.0,0.25
0,262,catch,"[(1174, 791)]",[],[1],[],vertical,"(390.0, 262.0)",1.6,nan,1,2109.947,2,0.0,0.25
0,263,target,"[(1174, 773)]",[],[1],[0.6333333333333333],vertical,"(890.0, 262.0)",1.1166666666666667,0.59,1,2115.546,3,0.0,0.25
0,264,catch,"[(1175, 770)]",[],[1],[],horizontal,"(390.0, 762.0)",1.6,nan,1,2121.798,3,0.0,0.25
0,265,target,"[(1150, 757)]",[],[1],[],horizontal,"(390.0, 262.0)",,"('cti', 1.066)",0,2127.714,0,0.02,0.25
0,266,target,"[(1130, 764)]",[],[1],[0.5166666666666666],vertical,"(390.0, 762.0)",0.5,0.479,1,2131.721,1,0.02,0.25
0,267,target,"[(1140, 778)]",[],[1],[0.36666666666666664],vertical,"(390.0, 762.0)",1.4666666666666666,0.329,1,2136.563,1,0.02,0.25
0,268,target,"[(1152, 779)]",[],[1],[0.5333333333333333],horizontal,"(890.0, 262.0)",1.2,0.489,1,2142.068,1,0.02,0.25
0,269,catch,"[(1173, 794)]",[],[1],[],horizontal,"(390.0, 262.0)",1.6,nan,1,2147.675,2,0.02,0.25
0,270,target,"[(1176, 779)]",[],[1],[0.85],horizontal,"(390.0, 762.0)",0.5,nan,0,2153.314,0,0.02,0.25
0,271,catch,"[(1177, 780)]",[],[1],[],vertical,"(890.0, 262.0)",1.6,nan,1,2157.497,1,0.02,0.25
0,272,target,"[(1155, 816)]",[],[1],[0.6333333333333333],vertical,"(890.0, 762.0)",0.8833333333333333,0.589,1,2162.867,1,0.02,0.25
0,273,target,"[(1190, 781)]",[],[1],[0.55],vertical,"(390.0, 262.0)",0.5,0.506,1,2179.64,1,0.02,0.25
0,274,target,"[(1174, 781)]",[],[1],[0.5833333333333334],horizontal,"(890.0, 262.0)",0.7833333333333333,0.543,1,2184.351,2,0.02,0.25
0,275,target,"[(1178, 778)]",[],[1],[0.4666666666666667],horizontal,"(390.0, 262.0)",0.5166666666666666,0.43,1,2189.947,2,0.02,0.25
0,276,catch,"[(1182, 764)]",[],[1],[],vertical,"(390.0, 262.0)",1.6,nan,1,2194.88,2,0.02,0.25
0,277,target,"[(1180, 779)]",[],[1],[0.21666666666666667],horizontal,"(390.0, 762.0)",1.5,0.182,0,2200.097,0,0.02,0.25
0,278,target,"[(1192, 774)]",[],[1],[0.85],horizontal,"(890.0, 262.0)",0.7833333333333333,nan,0,2204.921,0,0.02,0.25
0,279,target,"[(1169, 828)]",[],[1],[0.6],vertical,"(390.0, 762.0)",0.6666666666666666,0.557,1,2209.526,1,0.02,0.25
0,280,catch,"[(1170, 781)]",[],[1],[],horizontal,"(890.0, 262.0)",1.6,nan,1,2506.298,1,0.02,0.25
0,281,target,"[(1158, 788)]",[],[1],[0.6],vertical,"(390.0, 262.0)",0.8166666666666667,0.554,1,2511.315,1,0.02,0.25
0,282,target,"[(1150, 791)]",[],[1],[0.6333333333333333],vertical,"(390.0, 262.0)",1.2333333333333334,0.593,1,2516.465,2,0.02,0.25
0,283,target,"[(1152, 763)]",[],[1],[0.55],vertical,"(890.0, 262.0)",0.65,0.505,1,2521.935,2,0.02,0.25
0,284,catch,"[(1179, 760)]",[],[1],[],vertical,"(890.0, 762.0)",1.6,nan,1,2526.881,2,0.02,0.25
0,285,catch,"[(1180, 773)]",[],[1],[],vertical,"(390.0, 262.0)",1.6,nan,1,2532.644,2,0.02,0.25
0,286,target,"[(1176, 761)]",[],[1],[0.85],horizontal,"(890.0, 262.0)",1.1333333333333333,nan,0,2538.481,0,0.02,0.25
0,287,target,"[(1181, 772)]",[],[1],[0.55],vertical,"(890.0, 262.0)",0.95,0.507,1,2543.249,1,0.02,0.25
0,288,target,"[(1180, 772)]",[],[1],[0.5],vertical,"(390.0, 262.0)",0.6833333333333333,0.463,1,2548.449,1,0.02,0.25
0,289,target,"[(1180, 769)]",[],[1],[0.6166666666666667],vertical,"(390.0, 262.0)",1.0833333333333333,0.57,1,2552.881,1,0.02,0.25
0,290,target,"[(1153, 753), (1150, 791)]",[],"[0, 1]",[0.6833333333333333],horizontal,"(890.0, 262.0)",1.3166666666666667,0.641,1,2557.809,2,0.02,0.25
0,291,catch,"[(1179, 773)]",[],[1],[],vertical,"(890.0, 262.0)",1.6,nan,1,2565.249,2,0.02,0.25
0,292,target,"[(1185, 782)]",[],[1],[0.48333333333333334],horizontal,"(390.0, 262.0)",1.0333333333333332,0.442,1,2570.559,2,0.02,0.25
0,293,target,"[(1167, 762)]",[],[1],[0.5333333333333333],vertical,"(390.0, 762.0)",0.8666666666666667,0.496,1,2575.896,2,0.02,0.25
0,294,target,"[(1192, 769)]",[],[1],[0.6],horizontal,"(890.0, 262.0)",1.0833333333333333,0.556,1,2581.116,3,0.02,0.25
0,295,catch,"[(1179, 781)]",[],[1],[],horizontal,"(890.0, 762.0)",1.6,nan,1,2587.148,3,0.02,0.25
0,296,target,"[(1182, 773)]",[],[1],[0.55],vertical,"(390.0, 262.0)",0.3833333333333333,0.514,1,2593.032,3,0.02,0.25
0,297,catch,"[(1180, 760)]",[],[1],[],horizontal,"(390.0, 762.0)",1.6,nan,1,2597.865,3,0.02,0.25
0,298,target,"[(1146, 774)]",[],[1],[0.85],horizontal,"(390.0, 262.0)",0.6833333333333333,nan,0,2603.998,0,0.02,0.25
0,299,target,"[(1154, 768)]",[],[1],[0.5333333333333333],vertical,"(390.0, 262.0)",0.5666666666666667,0.497,1,2608.798,1,0.02,0.25
0,300,catch,"[(1138, 764)]",[],[1],[],vertical,"(390.0, 762.0)",1.6,nan,1,2613.692,1,0.02,0.25
0,301,target,"[(1171, 768)]",[],[1],[0.85],vertical,"(390.0, 262.0)",0.7666666666666666,nan,0,2619.498,0,0.02,0.25
0,302,target,"[(1135, 789)]",[],[1],[],horizontal,"(890.0, 262.0)",,"('cti', 0.634)",0,2624.38,0,0.04,0.25
0,303,target,"[(1106, 827)]",[],[1],[0.48333333333333334],vertical,"(390.0, 262.0)",0.8333333333333334,0.448,1,2628.099,1,0.04,0.25
0,304,catch,"[(1144, 786)]",[],[1],[],horizontal,"(390.0, 762.0)",1.6,nan,1,2855.698,1,0.04,0.25
0,305,target,"[(1179, 789)]",[],[1],[0.4166666666666667],horizontal,"(390.0, 262.0)",1.4833333333333334,0.377,1,2860.731,1,0.04,0.25
0,306,target,"[(1160, 803)]",[],[1],[0.5833333333333334],vertical,"(390.0, 262.0)",0.75,0.544,1,2866.588,2,0.04,0.25
0,307,target,"[(1179, 788)]",[],[1],[0.6166666666666667],horizontal,"(890.0, 762.0)",0.7166666666666667,0.58,1,2872.438,2,0.04,0.25
0,308,target,"[(1150, 779)]",[],[1],[0.5666666666666667],horizontal,"(390.0, 762.0)",1.1166666666666667,0.533,1,2877.399,2,0.04,0.25
0,309,target,"[(1177, 781)]",[],[1],[0.8166666666666667],horizontal,"(390.0, 762.0)",0.43333333333333335,0.768,1,2882.856,2,0.04,0.25
0,310,target,"[(1176, 780)]",[],[1],[0.5166666666666666],vertical,"(890.0, 262.0)",0.6666666666666666,0.484,1,2888.371,3,0.04,0.25
0,311,catch,"[(1180, 770)]",[],[1],[],horizontal,"(890.0, 262.0)",1.6,nan,1,2893.715,3,0.04,0.25
0,312,target,"[(1160, 765)]",[],[1],[0.6],vertical,"(390.0, 262.0)",1.4333333333333333,0.558,1,2899.267,3,0.04,0.25
0,313,target,"[(1159, 756)]",[],[1],[0.5333333333333333],vertical,"(890.0, 762.0)",0.5166666666666666,0.497,1,2905.66,3,0.04,0.25
0,314,catch,"[(1174, 787)]",[],[1],[],vertical,"(890.0, 762.0)",1.6,nan,1,2911.186,3,0.04,0.25
0,315,target,"[(1179, 757)]",[],[1],[0.6333333333333333],horizontal,"(390.0, 762.0)",1.4166666666666667,0.596,1,2917.365,3,0.02,0.25
0,316,target,"[(1180, 770)]",[],[1],[0.5333333333333333],horizontal,"(890.0, 262.0)",0.9333333333333333,0.493,1,2923.493,3,0.02,0.25
0,317,catch,"[(1153, 764)]",[],[1],[],horizontal,"(890.0, 762.0)",1.6,nan,1,2928.886,3,0.02,0.25
0,318,target,"[(1180, 778)]",[],[1],[0.55],horizontal,"(890.0, 262.0)",1.45,0.509,1,2934.87,3,0.02,0.25
0,319,target,"[(1180, 787)]",[],[1],[0.6333333333333333],horizontal,"(390.0, 262.0)",1.1333333333333333,0.593,1,2940.865,3,0.02,0.25
0,320,target,"[(1178, 755)]",[],[1],[0.31666666666666665],horizontal,"(390.0, 762.0)",1.45,0.285,1,2946.732,3,0.02,0.25
0,321,catch,"[(1175, 774)]",[],[1],[],vertical,"(890.0, 762.0)",1.6,nan,1,2952.783,3,0.02,0.25
0,322,target,"[(1191, 779)]",[],[1],[0.5333333333333333],horizontal,"(890.0, 262.0)",0.9833333333333333,0.496,1,2958.636,3,0.02,0.25
0,323,target,"[(1188, 770)]",[],[1],[0.43333333333333335],horizontal,"(890.0, 762.0)",1.55,0.394,1,2964.4,3,0.02,0.25
0,324,target,"[(1174, 755)]",[],[1],[0.45],horizontal,"(890.0, 262.0)",0.6166666666666667,0.408,1,2970.349,3,0.02,0.25
0,325,target,"[(1156, 785)]",[],[1],[0.5833333333333334],horizontal,"(890.0, 762.0)",0.4,0.539,1,2975.931,3,0.02,0.25
0,326,target,"[(1167, 789)]",[],[1],[0.5333333333333333],horizontal,"(390.0, 762.0)",1.0166666666666666,0.499,1,2981.579,3,0.02,0.25
0,327,target,"[(1174, 786)]",[],[1],[0.35],horizontal,"(390.0, 762.0)",1.3,0.318,1,2987.549,3,0.02,0.25
0,328,target,"[(1176, 769)]",[],[1],[0.36666666666666664],horizontal,"(390.0, 762.0)",1.45,0.327,1,2993.733,3,0.02,0.25
0,329,catch,"[(1171, 790)]",[],[1],[],horizontal,"(390.0, 762.0)",,"('cti', 1.374),nan",0,2999.926,0,0.04,0.25
0,330,target,"[(1176, 783)]",[],[1],[0.5666666666666667],horizontal,"(390.0, 262.0)",1.0,0.527,1,3004.738,1,0.04,0.25
0,331,target,"[(1178, 774)]",[],[1],[0.48333333333333334],vertical,"(390.0, 262.0)",1.35,0.445,1,3009.564,1,0.04,0.25
0,332,target,"[(1175, 769)]",[],[1],[0.6166666666666667],vertical,"(390.0, 262.0)",1.0166666666666666,0.574,1,3014.93,1,0.04,0.25
0,333,target,"[(1172, 782)]",[],[1],[0.48333333333333334],vertical,"(890.0, 262.0)",1.0,0.444,1,3019.85,2,0.04,0.25
0,334,target,"[(1190, 785)]",[],[1],[0.5333333333333333],horizontal,"(890.0, 762.0)",0.7666666666666666,0.5,1,3025.059,2,0.04,0.25
0,335,target,"[(1121, 795)]",[],[1],[0.85],vertical,"(390.0, 762.0)",1.3333333333333333,nan,0,3030.058,0,0.04,0.25
0,336,target,"[(1130, 763)]",[],[1],[0.6333333333333333],vertical,"(890.0, 262.0)",0.6,0.596,1,3036.268,1,0.04,0.25
0,337,target,"[(1180, 793)]",[],[1],[0.4666666666666667],horizontal,"(390.0, 262.0)",0.5166666666666666,0.428,1,3040.972,1,0.04,0.25
0,338,target,"[(1175, 769)]",[],[1],[0.6],horizontal,"(390.0, 262.0)",0.8166666666666667,0.559,1,3046.05,1,0.04,0.25
0,339,target,"[(1174, 767)]",[],[1],[0.4],vertical,"(390.0, 262.0)",1.4333333333333333,0.367,1,3050.699,2,0.04,0.25
0,340,target,"[(1178, 769)]",[],[1],[0.7666666666666666],horizontal,"(890.0, 762.0)",0.8666666666666667,0.723,1,3056.116,2,0.04,0.25
0,341,catch,"[(1147, 779)]",[],[1],[],horizontal,"(390.0, 262.0)",1.6,nan,1,3061.516,2,0.04,0.25
0,342,target,"[(1179, 779)]",[],[1],[0.6833333333333333],horizontal,"(390.0, 762.0)",1.5333333333333332,0.643,1,3067.567,2,0.04,0.25
0,343,target,"[(1181, 805)]",[],[1],[],vertical,"(390.0, 762.0)",,"('cti', 1.32)",0,3073.549,0,0.06,0.25
0,344,target,"[(1137, 775)]",[],[1],[0.55],vertical,"(390.0, 262.0)",0.9,0.504,1,3078.0,1,0.06,0.25
0,345,target,"[(1146, 787)]",[],[1],[0.5],vertical,"(390.0, 262.0)",0.9166666666666666,0.461,1,3083.204,1,0.06,0.25
0,346,catch,"[(1147, 783)]",[],[1],[],vertical,"(390.0, 262.0)",1.6,nan,1,3088.0,1,0.06,0.25
0,347,catch,"[(1178, 762)]",[],[1],[],vertical,"(390.0, 762.0)",1.6,nan,1,3093.548,2,0.06,0.25
0,348,target,"[(1180, 771)]",[],[1],[0.6],horizontal,"(890.0, 262.0)",0.6333333333333333,0.561,1,3099.349,2,0.06,0.25
0,349,target,"[(1181, 774)]",[],[1],[0.5666666666666667],horizontal,"(890.0, 262.0)",0.6666666666666666,0.527,1,3104.451,2,0.06,0.25
0,350,target,"[(1193, 784)]",[],[1],[0.5833333333333334],horizontal,"(890.0, 762.0)",0.9,0.54,1,3109.706,2,0.06,0.25
0,351,target,"[(1181, 789)]",[],[1],[0.5],vertical,"(890.0, 262.0)",1.0666666666666667,0.46,1,3115.128,3,0.06,0.25
0,352,target,"[(1180, 785)]",[],[1],[0.5166666666666666],horizontal,"(390.0, 762.0)",0.5833333333333334,0.476,1,3120.95,3,0.04,0.25
0,353,target,"[(1180, 787)]",[],[1],[0.6833333333333333],vertical,"(890.0, 762.0)",1.05,0.637,1,3126.299,3,0.04,0.25
0,354,target,"[(1180, 764)]",[],[1],[0.5],vertical,"(890.0, 762.0)",0.8833333333333333,0.458,1,3132.556,3,0.04,0.25
0,355,target,"[(1180, 765)]",[],[1],[0.48333333333333334],horizontal,"(890.0, 262.0)",0.6666666666666666,0.451,1,3137.882,3,0.04,0.25
0,356,target,"[(1180, 799)]",[],[1],[0.6333333333333333],horizontal,"(390.0, 262.0)",0.5166666666666666,0.591,1,3143.085,3,0.04,0.25
0,357,target,"[(1171, 784)]",[],[1],[0.48333333333333334],horizontal,"(390.0, 262.0)",0.7833333333333333,0.442,1,3148.366,3,0.04,0.25
0,358,target,"[(1150, 757)]",[],[1],[0.85],vertical,"(390.0, 262.0)",0.6,nan,0,3153.544,0,0.04,0.25
0,359,target,"[(1180, 779)]",[],[1],[0.5],horizontal,"(390.0, 262.0)",1.3666666666666667,0.457,1,3158.157,1,0.04,0.25
0,360,target,"[(1183, 779)]",[],[1],[0.55],vertical,"(890.0, 762.0)",0.6333333333333333,0.508,1,3163.454,1,0.04,0.25
0,361,target,"[(1155, 751), (1139, 779)]",[],"[0, 1]",[0.6],vertical,"(890.0, 262.0)",0.5166666666666666,0.555,1,3168.135,1,0.04,0.25
0,362,target,"[(1150, 747), (1146, 804)]",[],"[0, 1]",[0.5166666666666666],vertical,"(390.0, 762.0)",0.8666666666666667,0.479,1,3174.195,2,0.04,0.25
0,363,target,"[(1180, 781)]",[],[1],[0.85],horizontal,"(890.0, 762.0)",0.5166666666666666,nan,0,3180.108,0,0.04,0.25
0,364,target,"[(1129, 773)]",[],[1],[0.5666666666666667],horizontal,"(890.0, 762.0)",0.8666666666666667,0.525,1,3184.264,1,0.04,0.25
0,365,target,"[(1185, 786)]",[],[1],[0.5166666666666666],horizontal,"(390.0, 762.0)",1.3666666666666667,0.473,1,3189.622,1,0.04,0.25
0,366,target,"[(1180, 786)]",[],[1],[0.5166666666666666],horizontal,"(390.0, 262.0)",0.8333333333333334,0.475,1,3195.133,1,0.04,0.25
0,367,target,"[(1180, 786)]",[],[1],[0.48333333333333334],horizontal,"(390.0, 262.0)",0.48333333333333334,0.441,1,3200.416,2,0.04,0.25
0,368,target,"[(1183, 786)]",[],[1],[0.5],horizontal,"(890.0, 762.0)",1.05,0.466,1,3205.783,2,0.04,0.25
0,369,target,"[(1140, 779)]",[],[1],[0.4666666666666667],vertical,"(890.0, 262.0)",0.43333333333333335,0.422,1,3211.116,2,0.04,0.25
0,370,catch,"[(1179, 793)]",[],[1],[],horizontal,"(890.0, 762.0)",1.6,"('cti', 1.579),nan",0,3216.03,0,0.06,0.25
0,371,target,"[(1160, 779)]",[],[1],[0.55],horizontal,"(390.0, 262.0)",0.8333333333333334,0.505,1,3220.866,1,0.06,0.25
0,372,target,"[(1169, 760)]",[],[1],[0.6666666666666666],vertical,"(390.0, 762.0)",0.3833333333333333,0.615,1,3225.716,1,0.06,0.25
0,373,target,"[(1141, 792)]",[],[1],[0.5666666666666667],horizontal,"(390.0, 262.0)",1.05,0.525,1,3230.451,1,0.06,0.25
0,374,target,"[(1170, 762)]",[],[1],[0.23333333333333334],vertical,"(890.0, 762.0)",1.5333333333333332,0.195,0,3247.939,0,0.06,0.25
0,375,target,"[(1134, 751), (1127, 794)]",[],"[0, 1]",[],vertical,"(890.0, 262.0)",,"('fix', 0.253)",0,3252.644,0,0.06,0.25
0,376,target,"[(1176, 803)]",[],[1],[0.6],vertical,"(390.0, 762.0)",0.5166666666666666,0.56,1,3257.084,1,0.06,0.25
0,377,target,"[(1176, 779)]",[],[1],[0.6666666666666666],vertical,"(890.0, 262.0)",1.0833333333333333,0.623,1,3474.5,1,0.06,0.25
0,378,target,"[(1179, 770)]",[],[1],[0.4666666666666667],vertical,"(390.0, 262.0)",1.1333333333333333,0.432,1,3479.544,1,0.06,0.25
0,379,catch,"[(1178, 779)]",[],[1],[],horizontal,"(890.0, 262.0)",1.6,nan,1,3485.069,2,0.04,0.25
0,380,target,"[(1176, 779)]",[],[1],[0.85],horizontal,"(390.0, 762.0)",1.3166666666666667,nan,0,3490.751,0,0.04,0.25
0,381,catch,"[(1135, 799)]",[],[1],[],vertical,"(890.0, 762.0)",1.6,nan,1,3495.712,1,0.04,0.25
0,382,target,"[(1150, 812)]",[],[1],[0.3333333333333333],vertical,"(890.0, 762.0)",1.5,0.294,1,3501.123,1,0.04,0.25
0,383,target,"[(1175, 782)]",[],[1],[0.85],vertical,"(390.0, 762.0)",0.55,nan,0,3506.749,0,0.04,0.25
0,384,target,"[(1150, 779)]",[],[1],[0.5666666666666667],vertical,"(390.0, 762.0)",1.0333333333333332,0.524,1,3510.869,1,0.04,0.25
0,385,catch,"[(1141, 787)]",[],[1],[],vertical,"(390.0, 262.0)",,"('cti', 0.922),nan",0,3515.917,0,0.06,0.25
0,386,target,"[(1164, 788)]",[],[1],[0.5333333333333333],vertical,"(890.0, 262.0)",1.3333333333333333,0.491,1,3519.818,1,0.06,0.25
0,387,target,"[(1181, 761)]",[],[1],[0.5166666666666666],horizontal,"(390.0, 262.0)",0.7166666666666667,0.478,1,3525.667,1,0.06,0.25
0,388,target,"[(1180, 786)]",[],[1],[0.85],vertical,"(890.0, 762.0)",0.6333333333333333,nan,0,3530.209,0,0.06,0.25
0,389,target,"[(1165, 769)]",[],[1],[0.7166666666666667],horizontal,"(890.0, 262.0)",1.0166666666666666,0.677,1,3534.684,1,0.06,0.25
0,390,catch,"[(1180, 776)]",[],[1],[],vertical,"(390.0, 262.0)",1.6,nan,1,3539.963,1,0.06,0.25
0,391,catch,"[(1182, 759)]",[],[1],[],horizontal,"(890.0, 762.0)",1.6,nan,1,3544.995,1,0.06,0.25
0,392,catch,"[(1154, 769)]",[],[1],[],vertical,"(890.0, 262.0)",1.6,nan,1,3549.825,2,0.06,0.25
0,393,target,"[(1172, 774)]",[],[1],[0.6333333333333333],horizontal,"(890.0, 262.0)",1.3833333333333333,0.59,1,3554.947,2,0.04,0.25
0,394,target,"[(1172, 766)]",[],[1],[0.55],vertical,"(390.0, 262.0)",1.2833333333333332,0.515,1,3560.678,2,0.04,0.25
0,395,catch,"[(1190, 779)]",[],[1],[],vertical,"(890.0, 262.0)",1.6,nan,1,3566.75,2,0.04,0.25
0,396,target,"[(1180, 789)]",[],[1],[0.55],vertical,"(890.0, 762.0)",0.8833333333333333,0.508,1,3572.483,3,0.04,0.25
0,397,target,"[(1183, 786)]",[],[1],[0.5666666666666667],vertical,"(890.0, 262.0)",0.8166666666666667,0.524,1,3578.45,3,0.04,0.25
0,398,target,"[(1162, 758)]",[],[1],[0.55],horizontal,"(390.0, 762.0)",1.0166666666666666,0.507,1,3584.23,3,0.04,0.25
0,399,target,"[(1181, 762)]",[],[1],[0.5166666666666666],vertical,"(390.0, 762.0)",0.9,0.475,1,3589.873,3,0.04,0.25
0,400,catch,"[(1159, 765)]",[],[1],[],horizontal,"(390.0, 762.0)",1.6,nan,1,3595.701,3,0.04,0.25
0,401,target,"[(1184, 794)]",[],[1],[0.7166666666666667],vertical,"(390.0, 762.0)",1.0333333333333332,0.671,1,3601.385,3,0.04,0.25
0,402,target,"[(1160, 755)]",[],[1],[0.5],horizontal,"(390.0, 262.0)",0.6833333333333333,0.459,1,3607.65,3,0.04,0.25
0,403,target,"[(1189, 754)]",[],[1],[0.6],horizontal,"(890.0, 762.0)",1.0166666666666666,0.57,1,3612.749,3,0.04,0.25
0,404,target,"[(1145, 774)]",[],[1],[0.4166666666666667],vertical,"(890.0, 762.0)",1.4,0.378,1,3618.502,3,0.04,0.25
0,405,target,"[(1185, 760)]",[],[1],[0.5333333333333333],vertical,"(390.0, 262.0)",0.4666666666666667,0.494,1,3624.467,3,0.04,0.25
0,406,target,"[(1182, 756)]",[],[1],[0.3833333333333333],vertical,"(390.0, 762.0)",1.3833333333333333,0.347,1,3629.85,3,0.04,0.25
0,407,target,"[(1124, 794)]",[],[1],[0.31666666666666665],horizontal,"(890.0, 262.0)",1.2833333333333332,0.279,1,3635.979,3,0.04,0.25
0,408,target,"[(1135, 795)]",[],[1],[0.6166666666666667],horizontal,"(890.0, 262.0)",0.8,0.577,1,3642.4,3,0.04,0.25
0,409,target,"[(1183, 768)]",[],[1],[0.5333333333333333],vertical,"(890.0, 262.0)",0.36666666666666664,0.501,1,3647.863,3,0.04,0.25
0,410,target,"[(1160, 772)]",[],[1],[0.6333333333333333],vertical,"(390.0, 762.0)",1.1166666666666667,0.596,1,3652.853,3,0.04,0.25
0,411,catch,"[(1181, 790)]",[],[1],[],vertical,"(390.0, 262.0)",1.6,nan,1,3659.135,3,0.04,0.25
0,412,target,"[(929, 174), (994, 185), (998, 819), (1118, 842)]",[],"[0, 0, 0, 1]",[],vertical,"(390.0, 762.0)",,"('fix', 0.153)",0,3665.368,0,0.04,0.25
0,413,target,"[(999, 789), (608, 509), (1187, 808)]",[],"[0, 0, 1]",[],horizontal,"(390.0, 762.0)",,"('cti', 1.243)",0,3675.436,0,0.06,0.25
0,414,catch,"[(1155, 789)]",[],[1],[],vertical,"(890.0, 262.0)",1.6,nan,1,3681.035,1,0.06,0.25
0,415,target,"[(1184, 774)]",[],[1],[0.65],horizontal,"(890.0, 262.0)",1.1,0.619,1,3686.251,1,0.06,0.25
0,416,catch,"[(1184, 798)]",[],[1],[],horizontal,"(390.0, 262.0)",1.6,nan,1,3691.863,1,0.06,0.25
0,417,catch,"[(1178, 816)]",[],[1],[],horizontal,"(390.0, 762.0)",1.6,nan,1,3696.78,2,0.06,0.25
0,418,target,"[(1179, 786)]",[],[1],[0.85],vertical,"(890.0, 262.0)",1.1,nan,0,3702.345,0,0.06,0.25
0,419,target,"[(1145, 790)]",[],[1],[0.5],horizontal,"(390.0, 762.0)",1.5,0.466,1,3707.484,1,0.06,0.25
0,420,target,"[(1145, 809)]",[],[1],[0.6166666666666667],horizontal,"(390.0, 762.0)",0.9,0.584,1,3713.408,1,0.04,0.25
0,421,catch,"[(1159, 786)]",[],[1],[],vertical,"(890.0, 262.0)",1.6,nan,1,3722.028,1,0.04,0.25
0,422,target,"[(1179, 782)]",[],[1],[0.7333333333333333],horizontal,"(390.0, 762.0)",0.9833333333333333,0.693,1,3727.434,2,0.04,0.25
0,423,target,"[(1175, 782)]",[],[1],[0.5333333333333333],horizontal,"(390.0, 262.0)",0.7166666666666667,0.501,1,3732.985,2,0.04,0.25
0,424,catch,"[(1154, 761)]",[],[1],[],horizontal,"(890.0, 262.0)",1.6,nan,1,3738.168,2,0.04,0.25
0,425,target,"[(1169, 773)]",[],[1],[0.5333333333333333],vertical,"(890.0, 762.0)",1.0166666666666666,0.499,1,3743.7,2,0.04,0.25
0,426,target,"[(1150, 770)]",[],[1],[0.5333333333333333],vertical,"(390.0, 262.0)",0.9666666666666667,0.496,1,3749.176,3,0.04,0.25
0,427,target,"[(1165, 775)]",[],[1],[0.5],vertical,"(890.0, 262.0)",0.5166666666666666,0.467,1,3754.837,3,0.04,0.25
0,428,target,"[(1152, 759)]",[],[1],[0.4666666666666667],horizontal,"(390.0, 262.0)",0.4166666666666667,0.432,1,3760.277,3,0.04,0.25
0,429,catch,"[(1151, 762)]",[],[1],[],vertical,"(890.0, 262.0)",1.6,nan,1,3765.534,3,0.04,0.25
0,430,target,"[(1165, 762)]",[],[1],[0.48333333333333334],horizontal,"(890.0, 762.0)",0.7166666666666667,0.443,1,3771.428,3,0.04,0.25
0,431,target,"[(1155, 771)]",[],[1],[0.85],vertical,"(390.0, 262.0)",0.43333333333333335,nan,0,3776.771,0,0.04,0.25
0,432,target,"[(1151, 757)]",[],[1],[0.5],horizontal,"(890.0, 262.0)",1.0666666666666667,0.468,1,3781.039,1,0.04,0.25
0,433,target,"[(1154, 760)]",[],[1],[0.5833333333333334],vertical,"(890.0, 762.0)",1.0833333333333333,0.55,1,3786.402,1,0.04,0.25
0,434,catch,"[(1176, 774)]",[],[1],[],horizontal,"(390.0, 262.0)",1.6,nan,1,3791.44,1,0.04,0.25
0,435,target,"[(1180, 784)]",[],[1],[0.5],horizontal,"(390.0, 762.0)",1.0833333333333333,0.462,1,3796.283,2,0.02,0.25
0,436,catch,"[(1167, 803)]",[],[1],[],vertical,"(390.0, 762.0)",1.6,nan,1,3802.051,2,0.02,0.25
0,437,target,"[(1160, 795)]",[],[1],[0.3333333333333333],vertical,"(890.0, 262.0)",1.0666666666666667,0.295,1,3807.401,2,0.02,0.25
0,438,target,"[(1154, 781)]",[],[1],[0.5166666666666666],horizontal,"(390.0, 762.0)",1.0,0.478,1,3813.071,2,0.02,0.25
0,439,target,"[(1172, 786)]",[],[1],[0.6],horizontal,"(890.0, 262.0)",0.6833333333333333,0.562,1,3819.072,3,0.02,0.25
0,440,catch,"[(1183, 765)]",[],[1],[],horizontal,"(390.0, 262.0)",1.6,nan,1,3824.569,3,0.02,0.25
0,441,target,"[(1177, 772)]",[],[1],[0.3833333333333333],horizontal,"(390.0, 262.0)",1.2833333333333332,0.347,1,3830.685,3,0.02,0.25
0,442,target,"[(1162, 786)]",[],[1],[0.7833333333333333],horizontal,"(890.0, 762.0)",1.0333333333333332,0.743,1,3836.919,3,0.02,0.25
0,443,target,"[(1178, 765)]",[],[1],[0.5],horizontal,"(890.0, 762.0)",0.8,0.459,1,3843.16,3,0.02,0.25
0,444,catch,"[(1154, 760)]",[],[1],[],horizontal,"(890.0, 262.0)",1.6,nan,1,3848.701,3,0.02,0.25
0,445,catch,"[(1149, 759)]",[],[1],[],vertical,"(390.0, 262.0)",1.6,nan,1,3854.961,3,0.02,0.25
0,446,target,"[(1151, 779)]",[],[1],[0.7666666666666666],horizontal,"(890.0, 762.0)",0.4,0.719,1,3860.727,3,0.02,0.25
0,447,catch,"[(1159, 762)]",[],[1],[],vertical,"(890.0, 262.0)",,"('cti', 1.458),nan",0,3866.27,0,0.04,0.25
0,448,target,"[(1154, 783)]",[],[1],[0.85],vertical,"(390.0, 762.0)",0.9833333333333333,nan,0,3871.134,0,0.04,0.25
0,449,target,"[(1135, 761)]",[],[1],[0.7333333333333333],vertical,"(890.0, 762.0)",0.5166666666666666,0.687,1,3875.795,1,0.04,0.25
0,450,target,"[(1155, 774)]",[],[1],[0.5333333333333333],vertical,"(390.0, 262.0)",1.0,0.49,1,3880.775,1,0.04,0.25
0,451,target,"[(1140, 762)]",[],[1],[0.7333333333333333],horizontal,"(390.0, 262.0)",0.7,0.686,1,3885.733,1,0.04,0.25
0,452,catch,"[(1160, 783)]",[],[1],[],vertical,"(890.0, 262.0)",1.6,nan,1,3890.605,2,0.04,0.25
0,453,target,"[(1165, 782)]",[],[1],[0.6333333333333333],horizontal,"(890.0, 262.0)",1.2333333333333334,0.591,1,3896.568,2,0.04,0.25
0,454,target,"[(1153, 758)]",[],[1],[0.4666666666666667],vertical,"(890.0, 762.0)",0.48333333333333334,0.428,1,3902.419,2,0.04,0.25
0,455,target,"[(1148, 786)]",[],[1],[0.43333333333333335],vertical,"(390.0, 762.0)",1.4333333333333333,0.4,1,3907.302,2,0.04,0.25
0,456,target,"[(1176, 756)]",[],[1],[0.5666666666666667],vertical,"(390.0, 762.0)",0.3833333333333333,0.538,1,3913.09,3,0.04,0.25
0,457,target,"[(1156, 779)]",[],[1],[0.5833333333333334],vertical,"(390.0, 762.0)",0.9166666666666666,0.544,1,3918.184,3,0.04,0.25
0,458,catch,"[(1139, 805)]",[],[1],[],horizontal,"(890.0, 262.0)",1.6,nan,1,3924.153,3,0.04,0.25
0,459,target,"[(869, 648), (447, 877), (1165, 836)]",[],"[0, 0, 1]",[0.35],vertical,"(390.0, 762.0)",1.3,0.307,1,3930.296,3,0.04,0.25
0,460,target,"[(1164, 786)]",[],[1],[0.4],vertical,"(890.0, 262.0)",1.45,0.361,1,4085.856,3,0.04,0.25
0,461,target,"[(1174, 785)]",[],[1],[0.5166666666666666],horizontal,"(390.0, 262.0)",0.4,0.477,1,4091.985,3,0.04,0.25
0,462,catch,"[(1174, 793)]",[],[1],[],horizontal,"(890.0, 262.0)",1.6,nan,1,4096.649,3,0.04,0.25
0,463,target,"[(1177, 779)]",[],[1],[0.48333333333333334],horizontal,"(890.0, 262.0)",0.65,0.445,1,4102.556,3,0.02,0.25
0,464,target,"[(1159, 785)]",[],[1],[0.48333333333333334],horizontal,"(890.0, 262.0)",1.3,0.441,1,4107.634,3,0.02,0.25
0,465,catch,"[(1177, 774)]",[],[1],[],horizontal,"(890.0, 762.0)",1.6,nan,1,4113.886,3,0.02,0.25
0,466,target,"[(1176, 786)]",[],[1],[0.5333333333333333],vertical,"(890.0, 262.0)",1.0166666666666666,0.491,1,4119.569,3,0.02,0.25
0,467,target,"[(1150, 753), (1134, 774)]",[],"[0, 1]",[0.5],horizontal,"(390.0, 762.0)",0.36666666666666664,0.455,1,4125.16,3,0.02,0.25
0,468,target,"[(1177, 765)]",[],[1],[0.3],vertical,"(390.0, 262.0)",1.4666666666666666,0.262,1,4132.519,3,0.02,0.25
0,469,target,"[(1175, 779)]",[],[1],[0.5],vertical,"(390.0, 262.0)",1.2,0.46,1,4138.836,3,0.02,0.25
0,470,target,"[(1161, 753), (1161, 749), (1151, 800)]",[],"[0, 0, 1]",[0.5666666666666667],horizontal,"(390.0, 262.0)",1.2666666666666666,0.524,1,4144.268,3,0.02,0.25
0,471,target,"[(1165, 770)]",[],[1],[0.4666666666666667],vertical,"(890.0, 262.0)",0.7833333333333333,0.437,1,4152.885,3,0.02,0.25
0,472,target,"[(1172, 759)]",[],[1],[0.5166666666666666],horizontal,"(890.0, 762.0)",0.3833333333333333,0.479,1,4158.469,3,0.02,0.25
0,473,target,"[(1160, 765)]",[],[1],[0.6],vertical,"(890.0, 262.0)",1.0666666666666667,0.556,1,4163.803,3,0.02,0.25
0,474,target,"[(1169, 762)]",[],[1],[0.5],horizontal,"(390.0, 262.0)",1.4166666666666667,0.457,1,4169.655,3,0.02,0.25
0,475,target,"[(1175, 756)]",[],[1],[0.48333333333333334],vertical,"(890.0, 262.0)",1.2666666666666666,0.442,1,4175.668,3,0.02,0.25
0,476,catch,"[(1151, 784)]",[],[1],[],vertical,"(390.0, 262.0)",1.6,nan,1,4182.035,3,0.02,0.25
0,477,target,"[(1158, 768)]",[],[1],[0.36666666666666664],horizontal,"(890.0, 262.0)",1.4,0.325,1,4188.319,3,0.02,0.25
0,478,catch,"[(1154, 755)]",[],[1],[],vertical,"(890.0, 262.0)",1.6,nan,1,4194.469,3,0.02,0.25
0,479,target,"[(1179, 762)]",[],[1],[0.3],vertical,"(390.0, 762.0)",1.2833333333333332,0.262,1,4200.155,3,0.02,0.25
0,480,target,"[(1165, 762)]",[],[1],[0.45],vertical,"(890.0, 262.0)",1.0833333333333333,0.41,1,4206.386,3,0.02,0.25
0,481,target,"[(1179, 779)]",[],[1],[0.55],horizontal,"(390.0, 262.0)",0.7,0.51,1,4211.936,3,0.02,0.25
0,482,catch,"[(1173, 751), (1156, 789)]",[],"[0, 1]",[],vertical,"(390.0, 762.0)",1.6,nan,1,4217.431,3,0.02,0.25
0,483,target,"[(1165, 760)]",[],[1],[0.55],vertical,"(390.0, 262.0)",0.3833333333333333,0.511,1,4225.036,3,0.02,0.25
0,484,target,"[(1177, 751), (1155, 786)]",[],"[0, 1]",[],vertical,"(890.0, 262.0)",,"('cti', 1.098)",0,4229.951,0,0.04,0.25
0,485,target,"[(1160, 794)]",[],[1],[0.3333333333333333],horizontal,"(390.0, 262.0)",1.4333333333333333,0.293,1,4235.463,1,0.04,0.25
0,486,target,"[(1181, 753), (1148, 784)]",[],"[0, 1]",[0.6166666666666667],horizontal,"(890.0, 762.0)",0.65,0.577,1,4240.937,1,0.04,0.25
0,487,target,"[(1147, 751), (1150, 782)]",[],"[0, 1]",[0.55],vertical,"(390.0, 262.0)",1.0666666666666667,0.518,1,4246.588,1,0.04,0.25
0,488,target,"[(1150, 756)]",[],[1],[0.6],horizontal,"(890.0, 262.0)",0.7833333333333333,0.561,1,4253.253,2,0.04,0.25
0,489,target,"[(1158, 755)]",[],[1],[],horizontal,"(390.0, 762.0)",,"('cti', 1.164)",0,4258.306,0,0.06,0.25
0,490,catch,"[(1171, 784)]",[],[1],[],vertical,"(390.0, 762.0)",1.6,nan,1,4262.219,1,0.06,0.25
0,491,target,"[(1173, 779)]",[],[1],[0.6166666666666667],vertical,"(390.0, 762.0)",1.0666666666666667,0.574,1,4268.442,1,0.06,0.25
0,492,target,"[(1151, 759)]",[],[1],[0.5833333333333334],vertical,"(390.0, 262.0)",0.7333333333333333,0.544,1,4273.731,1,0.06,0.25
0,493,catch,"[(1178, 762)]",[],[1],[],vertical,"(390.0, 262.0)",1.6,nan,1,4278.967,2,0.06,0.25
0,494,target,"[(1158, 792)]",[],[1],[0.7],horizontal,"(890.0, 262.0)",1.0333333333333332,0.653,1,4284.906,2,0.06,0.25
0,495,target,"[(1180, 799)]",[],[1],[0.55],horizontal,"(390.0, 262.0)",1.3,0.506,1,4290.753,2,0.06,0.25
0,496,target,"[(1180, 817)]",[],[1],[0.5833333333333334],horizontal,"(390.0, 262.0)",1.25,0.538,1,4296.652,2,0.06,0.25
0,497,target,"[(1178, 785)]",[],[1],[0.55],vertical,"(390.0, 262.0)",0.7166666666666667,0.513,1,4302.87,3,0.04,0.25
0,498,target,"[(1182, 757)]",[],[1],[0.55],vertical,"(390.0, 762.0)",0.7666666666666666,0.513,1,4308.496,3,0.04,0.25
0,499,target,"[(1156, 760)]",[],[1],[0.4666666666666667],vertical,"(890.0, 262.0)",0.5833333333333334,0.425,1,4313.778,3,0.04,0.25
0,500,target,"[(1150, 763)]",[],[1],[0.5833333333333334],vertical,"(390.0, 762.0)",1.2,0.541,1,4319.032,3,0.04,0.25
0,501,target,"[(1175, 745), (1153, 789)]",[],"[0, 1]",[0.3833333333333333],horizontal,"(890.0, 762.0)",1.3,0.355,1,4324.808,3,0.04,0.25
0,502,catch,"[(1172, 754)]",[],[1],[],vertical,"(390.0, 262.0)",1.6,nan,1,4339.13,3,0.04,0.25
0,503,target,"[(1179, 775)]",[],[1],[0.4666666666666667],vertical,"(390.0, 762.0)",0.9666666666666667,0.426,1,4344.962,3,0.04,0.25
0,504,target,"[(1183, 754)]",[],[1],[0.6166666666666667],vertical,"(390.0, 262.0)",0.55,0.567,1,4350.737,3,0.04,0.25
0,505,target,"[(1177, 764)]",[],[1],[0.6],vertical,"(890.0, 762.0)",0.9666666666666667,0.557,1,4355.704,3,0.04,0.25
0,506,target,"[(1180, 784)]",[],[1],[0.55],vertical,"(890.0, 262.0)",0.8166666666666667,0.508,1,4361.726,3,0.04,0.25
0,507,catch,"[(1158, 755)]",[],[1],[],horizontal,"(390.0, 262.0)",1.6,nan,1,4367.336,3,0.04,0.25
0,508,target,"[(1180, 767)]",[],[1],[0.55],vertical,"(890.0, 762.0)",0.8,0.509,1,4373.315,3,0.04,0.25
0,509,catch,"[(1170, 751), (1158, 782)]",[],"[0, 1]",[],vertical,"(890.0, 762.0)",1.6,nan,1,4379.015,3,0.04,0.25
0,510,catch,"[(1161, 755)]",[],[1],[0.03333333333333333],horizontal,"(890.0, 262.0)",1.6,"0.019,nan",0,4386.153,0,0.06,0.25
0,511,target,"[(1177, 782)]",[],[1],[0.48333333333333334],vertical,"(890.0, 262.0)",1.4166666666666667,0.445,1,4391.103,1,0.06,0.25
0,512,target,"[(1154, 743), (1145, 807)]",[],"[0, 1]",[0.5166666666666666],horizontal,"(890.0, 262.0)",1.4666666666666666,0.476,1,4396.836,1,0.06,0.25
0,513,target,"[(1175, 774)]",[],[1],[0.5833333333333334],horizontal,"(890.0, 262.0)",0.9166666666666666,0.54,1,4402.886,1,0.06,0.25
0,514,target,"[(1188, 774)]",[],[1],[0.5333333333333333],horizontal,"(890.0, 762.0)",1.1833333333333333,0.493,1,4408.302,2,0.06,0.25
0,515,target,"[(1185, 774)]",[],[1],[0.4666666666666667],horizontal,"(890.0, 262.0)",0.7333333333333333,0.429,1,4414.103,2,0.06,0.25
0,516,target,"[(1162, 788)]",[],[1],[0.5833333333333334],horizontal,"(890.0, 762.0)",0.8666666666666667,0.544,1,4419.003,2,0.06,0.25
0,517,target,"[(1170, 782)]",[],[1],[0.55],horizontal,"(890.0, 262.0)",0.8666666666666667,0.509,1,4424.487,2,0.06,0.25
0,518,target,"[(1155, 785)]",[],[1],[0.55],horizontal,"(890.0, 762.0)",1.1166666666666667,0.511,1,4429.719,3,0.06,0.25
0,519,catch,"[(1178, 782)]",[],[1],[],horizontal,"(890.0, 262.0)",1.6,nan,1,4436.156,3,0.06,0.25
0,520,catch,"[(1180, 784)]",[],[1],[],vertical,"(390.0, 762.0)",1.6,nan,1,4442.252,3,0.06,0.25
0,521,target,"[(1176, 782)]",[],[1],[0.48333333333333334],horizontal,"(890.0, 262.0)",0.4,0.441,1,4447.758,3,0.06,0.25
0,522,target,"[(1171, 784)]",[],[1],[0.35],vertical,"(890.0, 262.0)",1.3166666666666667,0.316,1,4452.902,3,0.06,0.25
0,523,target,"[(1173, 766)]",[],[1],[0.5333333333333333],vertical,"(890.0, 262.0)",1.25,0.494,1,4458.854,3,0.06,0.25
0,524,catch,"[(1181, 783)]",[],[1],[],horizontal,"(390.0, 262.0)",1.6,nan,1,4464.87,3,0.06,0.25
0,525,target,"[(1190, 785)]",[],[1],[0.65],horizontal,"(890.0, 762.0)",1.0,0.611,1,4470.402,3,0.06,0.25
0,526,target,"[(1155, 761)]",[],[1],[0.5833333333333334],horizontal,"(890.0, 762.0)",1.1166666666666667,0.543,1,4476.219,3,0.06,0.25
0,527,target,"[(1149, 760)]",[],[1],[0.6166666666666667],vertical,"(890.0, 262.0)",0.45,0.57,1,4482.037,3,0.06,0.25
0,528,catch,"[(1160, 765)]",[],[1],[],horizontal,"(390.0, 762.0)",1.6,nan,1,4487.151,3,0.06,0.25
0,529,target,"[(1180, 777)]",[],[1],[0.3],horizontal,"(890.0, 762.0)",1.4666666666666666,0.266,1,4492.937,3,0.06,0.25
0,530,catch,"[(1169, 803)]",[],[1],[],horizontal,"(890.0, 262.0)",1.6,nan,1,4498.985,3,0.06,0.25
0,531,catch,"[(1147, 763)]",[],[1],[],horizontal,"(890.0, 762.0)",1.6,nan,1,4505.253,3,0.06,0.25
0,532,target,"[(1170, 761)]",[],[1],[0.6333333333333333],vertical,"(890.0, 262.0)",1.2333333333333334,0.591,1,4511.337,3,0.06,0.25
0,533,target,"[(1158, 794)]",[],[1],[0.5],horizontal,"(390.0, 262.0)",0.43333333333333335,0.46,1,4517.586,3,0.06,0.25
0,534,target,"[(1174, 791)]",[],[1],[0.48333333333333334],vertical,"(390.0, 762.0)",1.3166666666666667,0.442,1,4524.474,3,0.04,0.25
0,535,target,"[(1150, 782)]",[],[1],[0.4166666666666667],vertical,"(890.0, 762.0)",1.3833333333333333,0.381,1,4530.419,3,0.04,0.25
0,536,target,"[(1182, 782)]",[],[1],[0.5666666666666667],vertical,"(390.0, 762.0)",0.48333333333333334,0.526,1,4536.487,3,0.04,0.25
0,537,target,"[(1177, 785)]",[],[1],[0.4],vertical,"(890.0, 762.0)",1.5,0.358,1,4541.587,3,0.04,0.25
0,538,catch,"[(1166, 782)]",[],[1],[],horizontal,"(390.0, 762.0)",1.6,nan,1,4547.353,3,0.04,0.25
0,539,target,"[(1158, 766)]",[],[1],[0.5166666666666666],horizontal,"(390.0, 762.0)",0.5666666666666667,0.47,1,4553.087,3,0.02,0.25
0,540,target,"[(1165, 781)]",[],[1],[0.3833333333333333],horizontal,"(390.0, 762.0)",1.4666666666666666,0.343,1,4558.67,3,0.02,0.25
0,541,target,"[(1174, 772)]",[],[1],[0.2],vertical,"(390.0, 262.0)",1.4833333333333334,0.167,0,4564.726,0,0.02,0.25
0,542,catch,"[(1165, 784)]",[],[1],[],vertical,"(390.0, 762.0)",1.6,nan,1,4569.304,1,0.02,0.25
0,543,target,"[(1174, 786)]",[],[1],[0.5833333333333334],horizontal,"(390.0, 262.0)",0.8,0.542,1,4574.116,1,0.02,0.25
0,544,target,"[(1191, 781)]",[],[1],[0.5333333333333333],vertical,"(890.0, 762.0)",0.7,0.489,1,4579.276,1,0.02,0.25
0,545,catch,"[(1174, 784)]",[],[1],[],vertical,"(890.0, 262.0)",1.6,nan,1,4583.736,2,0.02,0.25
0,546,catch,"[(1174, 783)]",[],[1],[],horizontal,"(390.0, 262.0)",1.6,nan,1,4588.938,2,0.02,0.25
0,547,target,"[(1182, 787)]",[],[1],[0.4666666666666667],vertical,"(390.0, 762.0)",0.9,0.422,1,4594.298,2,0.02,0.25
0,548,target,"[(1160, 783)]",[],[1],[0.48333333333333334],vertical,"(390.0, 762.0)",0.8833333333333333,0.444,1,4599.304,2,0.02,0.25
0,549,catch,"[(1142, 796)]",[],[1],[],horizontal,"(890.0, 762.0)",1.6,nan,1,4604.622,3,0.02,0.25
0,550,catch,"[(1183, 786)]",[],[1],[],horizontal,"(390.0, 262.0)",1.6,nan,1,4610.306,3,0.02,0.25
0,551,target,"[(1169, 778)]",[],[1],[0.48333333333333334],horizontal,"(390.0, 762.0)",0.7833333333333333,0.447,1,4616.037,3,0.02,0.25
0,552,target,"[(1153, 777)]",[],[1],[0.5333333333333333],horizontal,"(890.0, 262.0)",0.8166666666666667,0.487,1,4621.729,3,0.02,0.25
0,553,target,"[(1155, 770)]",[],[1],[0.55],vertical,"(390.0, 762.0)",0.5833333333333334,0.506,1,4627.142,3,0.02,0.25
0,554,target,"[(1167, 769)]",[],[1],[0.5],vertical,"(890.0, 262.0)",0.9166666666666666,0.47,1,4632.828,3,0.02,0.25
0,555,target,"[(1174, 774)]",[],[1],[0.8333333333333334],vertical,"(390.0, 262.0)",1.05,0.787,1,4638.462,3,0.02,0.25
0,556,target,"[(1179, 758)]","[(1112, 849)]",[1],[0.5833333333333334],horizontal,"(390.0, 762.0)",,"('bar', 0.589)",0,4644.559,0,0.02,0.25
0,557,target,"[(1145, 785)]",[],[1],[0.4166666666666667],horizontal,"(890.0, 262.0)",1.3166666666666667,0.381,1,4647.306,1,0.02,0.25
0,558,target,"[(1163, 787)]",[],[1],[0.85],vertical,"(390.0, 762.0)",0.55,nan,0,4652.722,0,0.02,0.25
0,559,target,"[(1145, 797)]",[],[1],[0.6],horizontal,"(890.0, 262.0)",0.3833333333333333,0.56,1,4657.539,1,0.02,0.25
0,560,target,"[(1180, 779)]",[],[1],[0.5666666666666667],horizontal,"(890.0, 762.0)",1.0166666666666666,0.522,1,4662.488,1,0.0,0.25
0,561,target,"[(1169, 780)]",[],[1],[0.5166666666666666],horizontal,"(890.0, 762.0)",0.7833333333333333,0.476,1,4667.371,1,0.0,0.25
0,562,target,"[(1160, 790)]",[],[1],[0.6333333333333333],horizontal,"(390.0, 262.0)",0.6333333333333333,0.59,1,4672.053,2,0.0,0.25
0,563,target,"[(1172, 765)]",[],[1],[0.65],horizontal,"(390.0, 762.0)",0.65,0.602,1,4677.12,2,0.0,0.25
0,564,target,"[(1151, 757)]",[],[1],[0.75],vertical,"(890.0, 762.0)",0.9833333333333333,0.699,1,4682.153,2,0.0,0.25
0,565,target,"[(1174, 785)]",[],[1],[0.4666666666666667],horizontal,"(390.0, 262.0)",1.2333333333333334,0.429,1,4687.737,2,0.0,0.25
0,566,target,"[(1147, 794)]",[],[1],[0.5166666666666666],horizontal,"(390.0, 262.0)",1.0833333333333333,0.474,1,4693.061,3,0.0,0.25
0,567,target,"[(1179, 787)]",[],[1],[0.5833333333333334],vertical,"(890.0, 762.0)",1.1666666666666667,0.537,1,4699.636,3,0.0,0.25
0,568,target,"[(1151, 786)]",[],[1],[0.5666666666666667],vertical,"(390.0, 262.0)",0.85,0.524,1,4705.145,3,0.0,0.25
0,569,target,"[(1150, 777)]",[],[1],[0.55],horizontal,"(890.0, 762.0)",0.5666666666666667,0.507,1,4711.038,3,0.0,0.25
0,570,target,"[(1174, 777)]",[],[1],[0.2833333333333333],vertical,"(890.0, 762.0)",1.4833333333333334,0.247,1,4716.67,3,0.0,0.25
0,571,target,"[(1139, 793)]",[],[1],[0.2833333333333333],vertical,"(890.0, 762.0)",1.3333333333333333,0.246,1,4722.529,3,0.0,0.25
0,572,catch,"[(1151, 774)]",[],[1],[],horizontal,"(890.0, 762.0)",1.6,nan,1,4728.803,3,0.0,0.25
0,573,catch,"[(1176, 784)]",[],[1],[],horizontal,"(390.0, 762.0)",1.6,nan,1,4734.488,3,0.0,0.25
0,574,catch,"[(1154, 789)]",[],[1],[],horizontal,"(390.0, 762.0)",1.6,nan,1,4740.537,3,0.0,0.25
0,575,catch,"[(1156, 782)]",[],[1],[],horizontal,"(890.0, 762.0)",1.6,nan,1,4746.64,3,0.0,0.25
0,576,catch,"[(1179, 781)]",[],[1],[],vertical,"(390.0, 762.0)",1.6,nan,1,4752.286,3,0.0,0.25
0,577,target,"[(1177, 786)]",[],[1],[0.45],horizontal,"(390.0, 262.0)",0.8833333333333333,0.412,1,4758.018,3,0.0,0.25
0,578,catch,"[(1178, 776)]",[],[1],[],vertical,"(390.0, 262.0)",1.6,nan,1,4763.61,3,0.0,0.25
0,579,target,"[(1177, 775)]",[],[1],[0.5166666666666666],vertical,"(390.0, 262.0)",0.43333333333333335,0.481,1,4769.27,3,0.0,0.25
0,580,target,"[(1174, 772)]",[],[1],[0.5333333333333333],horizontal,"(890.0, 262.0)",1.4,0.491,1,4774.354,3,0.0,0.25
0,581,target,"[(1155, 758)]",[],[1],[0.6666666666666666],vertical,"(390.0, 762.0)",0.5166666666666666,0.621,1,4780.299,3,0.0,0.25
0,582,target,"[(1154, 755)]",[],[1],[0.5333333333333333],vertical,"(390.0, 762.0)",0.43333333333333335,0.494,1,4786.104,3,0.0,0.25
0,583,target,"[(1153, 787)]",[],[1],[0.36666666666666664],vertical,"(890.0, 262.0)",1.45,0.328,1,4791.225,3,0.0,0.25
0,584,target,"[(1152, 756)]",[],[1],[0.25],vertical,"(390.0, 762.0)",1.5,0.215,1,4797.275,3,0.0,0.25
0,585,target,"[(1135, 756)]",[],[1],[0.4666666666666667],vertical,"(390.0, 262.0)",1.4666666666666666,0.425,1,4803.347,3,0.0,0.25
0,586,catch,"[(1155, 757)]",[],[1],[],horizontal,"(890.0, 762.0)",1.6,nan,1,4809.475,3,0.0,0.25
0,587,target,"[(1175, 749), (1145, 788)]",[],"[0, 1]",[0.5166666666666666],vertical,"(890.0, 762.0)",0.8666666666666667,0.476,1,4815.167,3,0.0,0.25
0,588,target,"[(1169, 774)]",[],[1],[0.5166666666666666],vertical,"(390.0, 762.0)",0.9,0.477,1,4822.641,3,0.0,0.25
0,589,target,"[(1174, 785)]",[],[1],[0.5333333333333333],horizontal,"(890.0, 262.0)",1.2833333333333332,0.492,1,4828.236,3,0.0,0.25
0,590,target,"[(1180, 779)]",[],[1],[0.48333333333333334],vertical,"(890.0, 262.0)",1.0833333333333333,0.447,1,4834.604,3,0.0,0.25
0,591,target,"[(1152, 768)]",[],[1],[0.55],horizontal,"(890.0, 262.0)",1.15,0.506,1,4840.028,3,0.0,0.25
0,592,target,"[(1158, 781)]",[],[1],[0.4666666666666667],horizontal,"(890.0, 262.0)",1.3,0.43,1,4846.353,3,0.0,0.25
0,593,catch,"[(1148, 784)]",[],[1],[],horizontal,"(390.0, 762.0)",1.6,nan,1,4851.991,3,0.0,0.25
0,594,target,"[(1177, 786)]",[],[1],[0.5166666666666666],vertical,"(890.0, 762.0)",1.1833333333333333,0.478,1,4857.979,3,0.0,0.25
0,595,target,"[(1175, 773)]",[],[1],"[0.85, 0.85]",vertical,"(890.0, 262.0)",1.0166666666666666,"0.804,nan",0,4863.995,0,0.0,0.25
0,596,catch,"[(1151, 788)]",[],[1],[],horizontal,"(890.0, 262.0)",1.6,nan,1,4868.954,1,0.0,0.25
0,597,catch,"[(1167, 774)]",[],[1],[],horizontal,"(390.0, 262.0)",1.6,nan,1,4873.837,1,0.0,0.25
0,598,catch,"[(1158, 794)]",[],[1],[],horizontal,"(890.0, 262.0)",1.6,nan,1,4878.628,1,0.0,0.25
0,599,target,"[(1179, 774)]",[],[1],[0.6833333333333333],horizontal,"(890.0, 262.0)",1.0166666666666666,0.642,1,4884.02,2,0.0,0.25
0,600,target,"[(1175, 777)]",[],[1],[0.5666666666666667],vertical,"(390.0, 262.0)",0.7833333333333333,0.521,1,4889.923,2,0.0,0.25
0,601,target,"[(1160, 789)]",[],[1],[0.4666666666666667],vertical,"(390.0, 262.0)",1.1333333333333333,0.427,1,4895.402,2,0.0,0.25
0,602,target,"[(1154, 787)]",[],[1],[0.48333333333333334],vertical,"(890.0, 262.0)",0.8333333333333334,0.442,1,4900.364,2,0.0,0.25
0,603,target,"[(1146, 793)]",[],[1],[0.7],horizontal,"(890.0, 762.0)",0.65,0.658,1,4906.021,3,0.0,0.25
0,604,target,"[(1177, 779)]",[],[1],[0.55],vertical,"(890.0, 262.0)",1.2666666666666666,0.519,1,4911.987,3,0.0,0.25
0,605,target,"[(1153, 777)]",[],[1],[0.5166666666666666],vertical,"(890.0, 762.0)",0.6,0.476,1,4918.005,3,0.0,0.25
0,606,catch,"[(1170, 772)]",[],[1],[],vertical,"(890.0, 262.0)",1.6,nan,1,4923.693,3,0.0,0.25
0,607,catch,"[(1158, 767)]",[],[1],[],horizontal,"(390.0, 262.0)",1.6,nan,1,4930.055,3,0.0,0.25
0,608,target,"[(1162, 779)]",[],[1],[0.3333333333333333],vertical,"(890.0, 762.0)",1.2833333333333332,0.295,1,4936.004,3,0.0,0.25
0,609,catch,"[(1160, 774)]",[],[1],[],vertical,"(890.0, 262.0)",1.6,nan,1,4942.237,3,0.0,0.25
0,610,catch,"[(1150, 758)]",[],[1],[],horizontal,"(390.0, 262.0)",1.6,nan,1,4948.021,3,0.0,0.25
0,611,target,"[(1178, 765)]",[],[1],[0.6666666666666666],vertical,"(390.0, 262.0)",1.4166666666666667,0.619,1,4953.804,3,0.0,0.25
0,612,target,"[(1180, 773)]",[],[1],[0.6],horizontal,"(890.0, 262.0)",1.25,0.553,1,4960.121,3,0.0,0.25
0,613,catch,"[(1174, 781)]",[],[1],[],horizontal,"(390.0, 762.0)",1.6,nan,1,4966.153,3,0.0,0.25
0,614,catch,"[(1159, 775)]",[],[1],[],horizontal,"(390.0, 262.0)",1.6,nan,1,4972.371,3,0.0,0.25
0,615,target,"[(1150, 778)]",[],[1],[0.5833333333333334],vertical,"(890.0, 762.0)",1.3333333333333333,0.546,1,4978.182,3,0.0,0.25
0,616,target,"[(1156, 769)]",[],[1],[0.7166666666666667],horizontal,"(890.0, 262.0)",0.7666666666666666,0.669,1,4984.162,3,0.0,0.25
0,617,target,"[(1181, 765)]",[],[1],[0.5],vertical,"(890.0, 262.0)",0.8,0.466,1,4989.921,3,0.0,0.25
0,618,target,"[(1152, 760)]",[],[1],[0.5333333333333333],horizontal,"(390.0, 262.0)",0.7166666666666667,0.495,1,4995.133,3,0.0,0.25
0,619,target,"[(1162, 771)]",[],[1],[0.5333333333333333],horizontal,"(390.0, 762.0)",1.4833333333333334,0.495,1,5000.488,3,0.0,0.25
0,620,target,"[(1172, 773)]",[],[1],[0.5166666666666666],horizontal,"(390.0, 762.0)",0.5,0.474,1,5006.653,3,0.0,0.25
0,621,target,"[(1160, 815)]",[],[1],[0.5166666666666666],vertical,"(390.0, 762.0)",1.05,0.477,1,5011.588,3,0.0,0.25
0,622,target,"[(1154, 783)]",[],[1],[0.6333333333333333],vertical,"(890.0, 762.0)",0.6333333333333333,0.593,1,5017.214,3,0.0,0.25
0,623,target,"[(1135, 771)]",[],[1],[0.6333333333333333],horizontal,"(390.0, 262.0)",1.3166666666666667,0.595,1,5022.721,3,0.0,0.25
0,624,target,"[(1149, 779)]",[],[1],[0.5166666666666666],horizontal,"(390.0, 762.0)",0.9333333333333333,0.475,1,5028.804,3,0.0,0.25
0,625,target,"[(1157, 812)]",[],[1],[0.48333333333333334],vertical,"(390.0, 762.0)",0.5333333333333333,0.444,1,5034.628,3,0.0,0.25
0,626,target,"[(1179, 828)]",[],[1],[0.85],vertical,"(890.0, 262.0)",0.6,nan,0,5040.232,0,0.0,0.25
0,627,catch,"[(1140, 799)]",[],[1],[],vertical,"(390.0, 262.0)",1.6,nan,1,6390.457,1,0.0,0.25
0,628,catch,"[(1152, 784)]",[],[1],[],horizontal,"(890.0, 262.0)",,"('cti', 1.583),nan",0,6396.034,0,0.02,0.25
0,629,catch,"[(1153, 780)]",[],[1],[],horizontal,"(390.0, 262.0)",,"('cti', 1.485),nan",0,6400.816,0,0.04,0.25
0,630,target,"[(1130, 776)]",[],[1],[0.65],horizontal,"(390.0, 762.0)",1.2833333333333332,0.615,1,6405.977,1,0.04,0.25
0,631,catch,"[(1155, 782)]",[],[1],[],vertical,"(890.0, 762.0)",1.6,nan,1,6412.006,1,0.04,0.25
0,632,target,"[(1176, 780)]",[],[1],[0.6],vertical,"(890.0, 762.0)",1.0833333333333333,0.564,1,6417.144,1,0.04,0.25
0,633,target,"[(1180, 786)]",[],[1],[0.65],vertical,"(890.0, 762.0)",0.35,0.606,1,6422.274,2,0.04,0.25
0,634,catch,"[(1170, 769)]",[],[1],[],vertical,"(890.0, 262.0)",1.6,nan,1,6426.882,2,0.04,0.25
0,635,target,"[(1156, 779)]",[],[1],[0.7],vertical,"(390.0, 262.0)",0.95,0.673,1,6432.257,2,0.04,0.25
0,636,target,"[(1183, 777)]",[],[1],[0.7],vertical,"(390.0, 762.0)",0.75,0.656,1,6437.674,2,0.04,0.25
0,637,target,"[(1160, 779)]",[],[1],[0.65],horizontal,"(390.0, 262.0)",0.5,0.612,1,6442.987,3,0.04,0.25
0,638,catch,"[(1160, 759)]",[],[1],[],vertical,"(390.0, 762.0)",,"('cti', 1.498),nan",0,6448.09,0,0.06,0.25
0,639,catch,"[(1155, 821)]",[],[1],[],vertical,"(390.0, 762.0)",1.6,nan,1,6452.644,1,0.06,0.25
0,640,target,"[(1186, 799)]",[],[1],[0.5666666666666667],vertical,"(390.0, 262.0)",0.4666666666666667,0.522,1,6457.637,1,0.06,0.25
0,641,target,"[(1179, 782)]",[],[1],[0.7333333333333333],vertical,"(890.0, 762.0)",1.05,0.689,1,6462.124,1,0.06,0.25
0,642,target,"[(1174, 774)]",[],[1],[0.5],vertical,"(890.0, 262.0)",1.2333333333333334,0.459,1,6467.38,2,0.06,0.25
0,643,target,"[(1176, 781)]",[],[1],[0.6166666666666667],horizontal,"(390.0, 762.0)",0.65,0.572,1,6473.441,2,0.06,0.25
0,644,target,"[(1164, 771)]",[],[1],[0.5333333333333333],vertical,"(390.0, 262.0)",0.5166666666666666,0.494,1,6478.308,2,0.06,0.25
0,645,catch,"[(1184, 781)]",[],[1],[],vertical,"(390.0, 262.0)",1.6,nan,1,6483.418,2,0.06,0.25
0,646,catch,"[(1151, 761)]",[],[1],[],horizontal,"(390.0, 762.0)",1.6,nan,1,6488.932,3,0.06,0.25
0,647,target,"[(1151, 776)]",[],[1],[0.7],horizontal,"(890.0, 762.0)",0.9,0.664,1,6494.755,3,0.06,0.25
0,648,catch,"[(1171, 776)]",[],[1],[],horizontal,"(390.0, 262.0)",,"('cti', 1.394),nan",0,6500.453,0,0.08,0.25
0,649,target,"[(1182, 821)]",[],[1],[0.6166666666666667],horizontal,"(390.0, 762.0)",1.0666666666666667,0.576,1,6504.956,1,0.08,0.25
0,650,target,"[(1166, 777)]",[],[1],[0.55],vertical,"(390.0, 262.0)",0.8333333333333334,0.507,1,6512.135,1,0.08,0.25
0,651,target,"[(1178, 782)]",[],[1],[0.65],vertical,"(390.0, 762.0)",0.95,0.615,1,6517.208,1,0.08,0.25
0,652,target,"[(1150, 785)]",[],[1],[0.6333333333333333],horizontal,"(390.0, 262.0)",0.9166666666666666,0.602,1,6522.707,2,0.08,0.25
0,653,target,"[(1175, 779)]",[],[1],[0.6333333333333333],vertical,"(890.0, 762.0)",1.25,0.593,1,6529.05,2,0.08,0.25
0,654,catch,"[(1154, 776)]",[],[1],[],vertical,"(890.0, 262.0)",,"('cti', 1.582),nan",0,6535.141,0,0.1,0.25
0,655,target,"[(1150, 784)]",[],[1],[0.85],vertical,"(890.0, 762.0)",0.5833333333333334,nan,0,6540.068,0,0.1,0.25
0,656,catch,"[(1161, 792)]",[],[1],[],vertical,"(390.0, 762.0)",1.6,nan,1,6547.97,1,0.1,0.25
0,657,catch,"[(1172, 805)]",[],[1],[],vertical,"(890.0, 762.0)",1.6,nan,1,6553.09,1,0.1,0.25
0,658,catch,"[(1172, 780)]",[],[1],[],horizontal,"(390.0, 262.0)",,"('cti', 1.476),nan",0,6557.833,0,0.12,0.25
0,659,catch,"[(1165, 784)]",[],[1],[],horizontal,"(890.0, 762.0)",1.6,nan,1,6562.582,1,0.12,0.25
0,660,target,"[(1149, 790)]",[],[1],[0.8],vertical,"(390.0, 262.0)",0.6,0.757,1,6567.856,1,0.12,0.25
0,661,target,"[(1174, 780)]",[],[1],[0.6666666666666666],horizontal,"(390.0, 762.0)",1.1333333333333333,0.63,1,6573.415,1,0.12,0.25
0,662,target,"[(1175, 780)]",[],[1],[0.6833333333333333],vertical,"(390.0, 762.0)",1.0,0.642,1,6578.496,2,0.12,0.25
0,663,target,"[(1159, 783)]",[],[1],[0.75],horizontal,"(390.0, 762.0)",0.8333333333333334,0.716,1,6584.021,2,0.12,0.25
0,664,catch,"[(1193, 781)]",[],[1],[],horizontal,"(890.0, 762.0)",1.6,nan,1,6589.239,2,0.12,0.25
0,665,target,"[(1174, 779)]",[],[1],[0.5833333333333334],vertical,"(390.0, 762.0)",0.55,0.541,1,6594.642,2,0.12,0.25
0,666,catch,"[(1184, 784)]",[],[1],[],horizontal,"(390.0, 762.0)",,"('cti', 1.402),nan",0,6599.924,0,0.14,0.25
0,667,target,"[(1149, 784)]",[],[1],[0.7333333333333333],vertical,"(390.0, 762.0)",0.4,0.69,1,6604.491,1,0.14,0.25
0,668,target,"[(1160, 782)]",[],[1],[0.43333333333333335],horizontal,"(890.0, 762.0)",1.4833333333333334,0.397,1,6614.325,1,0.14,0.25
0,669,catch,"[(1176, 774)]",[],[1],[],horizontal,"(890.0, 262.0)",1.6,nan,1,6619.992,1,0.14,0.25
0,670,target,"[(1154, 789)]",[],[1],[0.5166666666666666],vertical,"(890.0, 262.0)",0.8833333333333333,0.471,1,6625.009,2,0.14,0.25
0,671,target,"[(1175, 799)]",[],[1],[0.6666666666666666],vertical,"(390.0, 262.0)",0.5166666666666666,0.634,1,6630.959,2,0.14,0.25
0,672,target,"[(1177, 784)]",[],[1],[0.7],vertical,"(890.0, 762.0)",0.65,0.652,1,6635.792,2,0.14,0.25
0,673,catch,"[(1179, 785)]",[],[1],[],vertical,"(890.0, 762.0)",1.6,nan,1,6641.885,2,0.14,0.25
0,674,catch,"[(1176, 779)]",[],[1],[],horizontal,"(390.0, 262.0)",1.6,nan,1,6647.709,3,0.14,0.25
0,675,catch,"[(1187, 780)]",[],[1],[],vertical,"(390.0, 262.0)",1.6,nan,1,6653.724,3,0.14,0.25
0,676,target,"[(1182, 792)]",[],[1],[0.6666666666666666],vertical,"(390.0, 262.0)",1.0166666666666666,0.622,1,6659.525,3,0.14,0.25
0,677,target,"[(1181, 789)]",[],[1],[0.65],vertical,"(890.0, 762.0)",0.8166666666666667,0.607,1,6665.558,3,0.14,0.25
0,678,target,"[(1159, 760)]",[],[1],[0.85],vertical,"(890.0, 762.0)",0.5166666666666666,nan,0,6671.558,0,0.12,0.25
0,679,target,"[(1182, 794)]",[],[1],[0.48333333333333334],horizontal,"(390.0, 762.0)",1.3333333333333333,0.444,1,6676.039,1,0.1,0.25
0,680,catch,"[(1180, 804)]",[],[1],[],horizontal,"(890.0, 262.0)",1.6,nan,1,6681.425,1,0.1,0.25
0,681,target,"[(1183, 779)]",[],[1],[0.6333333333333333],vertical,"(390.0, 262.0)",1.25,0.591,1,6688.339,1,0.1,0.25
0,682,target,"[(1179, 790)]","[(1173, 864)]",[1],[0.48333333333333334],vertical,"(890.0, 762.0)",,"('bar', 0.494)",0,6693.575,0,0.1,0.25
0,683,catch,"[(1157, 808)]",[],[1],[],vertical,"(390.0, 762.0)",1.6,nan,1,6696.49,1,0.1,0.25
0,684,target,"[(1161, 785)]",[],[1],[0.6],vertical,"(390.0, 262.0)",0.5166666666666666,0.558,1,6765.544,1,0.1,0.25
0,685,target,"[(1177, 785)]",[],[1],[0.55],vertical,"(390.0, 262.0)",0.55,0.508,1,6770.442,1,0.1,0.25
0,686,target,"[(1170, 799)]",[],[1],[0.55],horizontal,"(890.0, 762.0)",0.43333333333333335,0.507,1,6774.742,2,0.1,0.25
0,687,target,"[(1178, 786)]",[],[1],[0.7833333333333333],horizontal,"(390.0, 262.0)",0.7666666666666666,0.733,1,6779.758,2,0.1,0.25
0,688,target,"[(1183, 778)]",[],[1],[0.6333333333333333],vertical,"(390.0, 762.0)",0.5,0.587,1,6785.474,2,0.08,0.25
0,689,target,"[(1169, 789)]",[],[1],[0.5166666666666666],horizontal,"(890.0, 762.0)",0.75,0.472,1,6790.764,2,0.08,0.25
0,690,catch,"[(1160, 784)]",[],[1],[],horizontal,"(890.0, 762.0)",,"('cti', 1.193),nan",0,6796.685,0,0.1,0.25
0,691,catch,"[(1169, 794)]",[],[1],[],horizontal,"(390.0, 762.0)",1.6,nan,1,6801.391,1,0.1,0.25
0,692,target,"[(1178, 793)]",[],[1],[0.55],horizontal,"(390.0, 762.0)",0.5,0.503,1,6816.377,1,0.1,0.25
0,693,target,"[(1146, 794)]",[],[1],[0.5333333333333333],horizontal,"(890.0, 762.0)",0.9333333333333333,0.491,1,6820.909,1,0.1,0.25
0,694,target,"[(1137, 852)]",[],[1],[0.55],vertical,"(890.0, 262.0)",1.2166666666666666,0.505,1,6833.021,2,0.1,0.25
0,695,target,"[(1153, 841)]",[],[1],[0.06666666666666667],vertical,"(890.0, 262.0)",1.4166666666666667,0.037,0,6840.464,0,0.1,0.25
0,696,target,"[(1131, 843)]",[],[1],[0.6833333333333333],vertical,"(390.0, 762.0)",0.85,0.639,1,6845.901,1,0.1,0.25
0,697,target,"[(1174, 794)]",[],[1],[0.5333333333333333],horizontal,"(390.0, 262.0)",0.6666666666666666,0.487,1,6851.799,1,0.1,0.25
0,698,target,"[(1185, 779)]",[],[1],[0.7166666666666667],vertical,"(390.0, 762.0)",0.85,0.665,1,6856.534,1,0.08,0.25
0,699,target,"[(1170, 771)]",[],[1],[0.6],vertical,"(890.0, 762.0)",1.05,0.556,1,6861.738,2,0.08,0.25
0,700,target,"[(1189, 798)]",[],[1],[0.5],horizontal,"(890.0, 262.0)",0.7,0.454,1,6867.271,2,0.08,0.25
0,701,catch,"[(1154, 794)]",[],[1],[],horizontal,"(390.0, 262.0)",1.6,nan,1,6872.153,2,0.08,0.25
0,702,target,"[(1177, 806)]",[],[1],[0.3833333333333333],horizontal,"(390.0, 762.0)",0.9166666666666666,0.343,1,6877.725,2,0.08,0.25
0,703,catch,"[(1177, 790)]",[],[1],[0.03333333333333333],horizontal,"(890.0, 762.0)",1.6,"0.021,nan",0,6883.34,0,0.1,0.25
0,704,target,"[(1133, 794)]",[],[1],[0.55],vertical,"(390.0, 762.0)",0.7,0.505,1,6887.79,1,0.08,0.25
0,705,target,"[(1179, 764)]",[],[1],[0.5666666666666667],vertical,"(890.0, 262.0)",0.7666666666666666,0.531,1,6894.131,1,0.08,0.25
0,706,catch,"[(1139, 803)]",[],[1],[],horizontal,"(390.0, 262.0)",1.6,nan,1,6899.242,1,0.08,0.25
0,707,target,"[(1165, 805)]",[],[1],[0.55],horizontal,"(390.0, 762.0)",0.95,0.507,1,6909.007,2,0.08,0.25
0,708,target,"[(1179, 784)]",[],[1],[0.23333333333333334],vertical,"(390.0, 262.0)",1.4833333333333334,0.196,0,6914.58,0,0.06,0.25
0,709,target,"[(1184, 791)]",[],[1],[0.5833333333333334],vertical,"(390.0, 262.0)",1.1166666666666667,0.542,1,6919.363,1,0.06,0.25
0,710,target,"[(1154, 803)]",[],[1],[0.6333333333333333],vertical,"(390.0, 262.0)",1.0666666666666667,0.592,1,6924.376,1,0.06,0.25
0,711,target,"[(1145, 787)]",[],[1],[0.3333333333333333],vertical,"(890.0, 762.0)",1.4333333333333333,0.295,1,6929.793,1,0.06,0.25
0,712,target,"[(1179, 789)]",[],[1],[0.5333333333333333],vertical,"(390.0, 262.0)",0.55,0.488,1,6936.035,2,0.06,0.25
0,713,target,"[(1179, 786)]",[],[1],[0.5166666666666666],horizontal,"(890.0, 762.0)",1.2666666666666666,0.482,1,6941.04,2,0.06,0.25
0,714,catch,"[(1178, 789)]",[],[1],[],vertical,"(890.0, 262.0)",1.6,nan,1,6946.284,2,0.06,0.25
0,715,target,"[(1150, 791)]",[],[1],[0.55],vertical,"(890.0, 762.0)",1.0666666666666667,0.521,1,6951.891,2,0.06,0.25
0,716,target,"[(1182, 793)]",[],[1],[0.35],horizontal,"(390.0, 762.0)",1.4,0.318,1,6957.924,3,0.04,0.25
0,717,target,"[(1179, 790)]",[],[1],[0.5666666666666667],horizontal,"(890.0, 262.0)",1.3833333333333333,0.52,1,6964.21,3,0.04,0.25
0,718,target,"[(1175, 789)]",[],[1],[0.5333333333333333],horizontal,"(390.0, 262.0)",0.7833333333333333,0.493,1,6970.342,3,0.04,0.25
0,719,catch,"[(1169, 785)]",[],[1],[],horizontal,"(890.0, 262.0)",1.6,nan,1,6976.01,3,0.04,0.25
0,720,target,"[(1172, 783)]",[],[1],[0.7333333333333333],vertical,"(390.0, 762.0)",1.1833333333333333,0.692,1,6981.992,3,0.04,0.25
0,721,target,"[(1180, 773)]",[],[1],[0.5833333333333334],vertical,"(390.0, 762.0)",1.2166666666666666,0.538,1,6987.942,3,0.04,0.25
0,722,catch,"[(1178, 770)]",[],[1],[],horizontal,"(890.0, 762.0)",1.6,nan,1,6994.174,3,0.04,0.25
0,723,catch,"[(1179, 790)]",[],[1],[],vertical,"(390.0, 762.0)",1.6,nan,1,7000.026,3,0.04,0.25
0,724,target,"[(1155, 785)]",[],[1],[0.36666666666666664],horizontal,"(390.0, 262.0)",1.4833333333333334,0.332,1,7006.137,3,0.04,0.25
0,725,target,"[(1168, 779)]",[],[1],[0.7],horizontal,"(390.0, 762.0)",1.3833333333333333,0.659,1,7012.442,3,0.04,0.25
0,726,target,"[(1174, 796)]",[],[1],[0.55],horizontal,"(890.0, 262.0)",0.36666666666666664,0.51,1,7018.779,3,0.04,0.25
0,727,catch,"[(1163, 821)]",[],[1],[],horizontal,"(890.0, 762.0)",1.6,nan,1,7024.042,3,0.04,0.25
0,728,target,"[(1172, 789)]",[],[1],[0.43333333333333335],vertical,"(890.0, 762.0)",1.4833333333333334,0.399,1,7030.453,3,0.04,0.25
0,729,catch,"[(1174, 821)]",[],[1],[],vertical,"(890.0, 762.0)",1.6,nan,1,7037.185,3,0.04,0.25
0,730,target,"[(1183, 786)]",[],[1],[0.5333333333333333],vertical,"(890.0, 262.0)",0.5166666666666666,0.492,1,7043.309,3,0.04,0.25
0,731,target,"[(1178, 775)]",[],[1],[0.5],horizontal,"(390.0, 762.0)",1.3166666666666667,0.461,1,7048.426,3,0.04,0.25
0,732,target,"[(1180, 784)]",[],[1],[0.6833333333333333],horizontal,"(890.0, 762.0)",0.6,0.637,1,7054.492,3,0.04,0.25
0,733,target,"[(1180, 798)]",[],[1],[0.5833333333333334],horizontal,"(390.0, 262.0)",0.45,0.539,1,7060.159,3,0.04,0.25
0,734,target,"[(1178, 788)]",[],[1],[0.55],horizontal,"(390.0, 262.0)",0.6833333333333333,0.515,1,7065.476,3,0.04,0.25
0,735,target,"[(1174, 807)]",[],[1],[0.6666666666666666],horizontal,"(890.0, 262.0)",0.48333333333333334,0.625,1,7070.843,3,0.04,0.25
0,736,catch,"[(1164, 770)]",[],[1],[],horizontal,"(390.0, 262.0)",1.6,nan,1,7075.925,3,0.04,0.25
0,737,catch,"[(1176, 779)]",[],[1],[],horizontal,"(390.0, 262.0)",1.6,nan,1,7081.993,3,0.04,0.25
0,738,target,"[(1176, 784)]",[],[1],[0.85],horizontal,"(890.0, 762.0)",0.45,nan,0,7088.026,0,0.04,0.25
0,739,catch,"[(1130, 785)]",[],[1],[],vertical,"(890.0, 262.0)",1.6,nan,1,7092.242,1,0.04,0.25
0,740,target,"[(1170, 841)]",[],[1],[0.4666666666666667],vertical,"(390.0, 762.0)",1.2166666666666666,0.421,1,7097.541,1,0.02,0.25
0,741,target,"[(1169, 812)]",[],[1],[0.85],vertical,"(390.0, 762.0)",1.5333333333333332,"('cti', 1.52),nan",0,7257.06,0,0.04,0.25
0,742,catch,"[(1150, 814)]",[],[1],[],horizontal,"(390.0, 762.0)",1.6,nan,1,7262.948,1,0.04,0.25
0,743,target,"[(1167, 799)]",[],[1],[0.85],vertical,"(390.0, 762.0)",0.8666666666666667,nan,0,7268.694,0,0.04,0.25
0,744,target,"[(1142, 792)]",[],[1],[0.6333333333333333],vertical,"(390.0, 762.0)",1.0833333333333333,0.602,1,7273.5,1,0.04,0.25
0,745,target,"[(1170, 776)]",[],[1],[0.5333333333333333],vertical,"(890.0, 262.0)",0.8666666666666667,0.499,1,7283.681,1,0.04,0.25
0,746,target,"[(1172, 769)]",[],[1],[0.7333333333333333],horizontal,"(890.0, 762.0)",1.0,0.688,1,7288.331,1,0.04,0.25
0,747,catch,"[(1150, 793)]",[],[1],[],horizontal,"(390.0, 762.0)",1.6,nan,1,7293.826,2,0.04,0.25
0,748,target,"[(1175, 789)]",[],[1],[0.5833333333333334],vertical,"(890.0, 762.0)",0.45,0.541,1,7299.26,2,0.04,0.25
0,749,target,"[(1143, 790)]",[],[1],[0.7166666666666667],vertical,"(390.0, 762.0)",1.0833333333333333,0.677,1,7303.893,2,0.04,0.25
0,750,target,"[(1176, 799)]",[],[1],[],vertical,"(390.0, 262.0)",,"('cti', 0.969)",0,7309.744,0,0.06,0.25
0,751,target,"[(1162, 814)]",[],[1],[0.5833333333333334],vertical,"(390.0, 262.0)",1.2833333333333332,0.541,1,7314.424,1,0.06,0.25
0,752,target,"[(1162, 773)]",[],[1],[0.6333333333333333],vertical,"(390.0, 762.0)",1.25,0.593,1,7320.146,1,0.06,0.25
0,753,target,"[(1155, 790)]",[],[1],[0.6],horizontal,"(390.0, 262.0)",0.85,0.558,1,7326.243,1,0.04,0.25
0,754,target,"[(1165, 790)]",[],[1],[0.55],horizontal,"(890.0, 262.0)",1.1166666666666667,0.514,1,7331.405,2,0.04,0.25
0,755,target,"[(1180, 794)]",[],[1],[0.75],horizontal,"(390.0, 262.0)",1.0333333333333332,0.705,1,7337.244,2,0.04,0.25
0,756,catch,"[(1159, 766)]",[],[1],[],horizontal,"(890.0, 262.0)",1.6,nan,1,7343.294,2,0.04,0.25
0,757,target,"[(1152, 816)]",[],[1],[0.85],horizontal,"(890.0, 262.0)",0.5666666666666667,nan,0,7348.726,0,0.04,0.25
0,758,target,"[(1154, 774)]",[],[1],[0.5833333333333334],vertical,"(890.0, 762.0)",0.9833333333333333,0.54,1,7353.309,1,0.04,0.25
0,759,catch,"[(1175, 779)]",[],[1],[],horizontal,"(890.0, 262.0)",1.6,nan,1,7358.277,1,0.04,0.25
0,760,target,"[(1195, 775)]",[],[1],[0.6166666666666667],horizontal,"(890.0, 762.0)",0.5,0.577,1,7363.418,1,0.04,0.25
0,761,target,"[(1150, 845)]",[],[1],[0.5166666666666666],horizontal,"(890.0, 262.0)",1.2333333333333334,0.477,1,7367.961,2,0.04,0.25
0,762,target,"[(1155, 821)]",[],[1],[0.5833333333333334],horizontal,"(890.0, 762.0)",0.8833333333333333,0.541,1,7374.11,2,0.04,0.25
0,763,target,"[(1154, 795)]",[],[1],[0.6],vertical,"(390.0, 262.0)",1.4833333333333334,0.556,1,7379.777,2,0.04,0.25
0,764,target,"[(1149, 792)]",[],[1],[0.7166666666666667],horizontal,"(890.0, 262.0)",1.4166666666666667,0.68,1,7385.585,2,0.04,0.25
0,765,target,"[(1178, 793)]",[],[1],[0.6],horizontal,"(890.0, 762.0)",1.5333333333333332,0.561,1,7391.382,3,0.04,0.25
0,766,catch,"[(1183, 794)]",[],[1],[],vertical,"(390.0, 262.0)",1.6,nan,1,7397.797,3,0.04,0.25
0,767,target,"[(1181, 794)]",[],[1],[0.6],horizontal,"(890.0, 762.0)",1.15,0.551,1,7404.144,3,0.04,0.25
0,768,target,"[(1177, 775)]",[],[1],[0.6333333333333333],vertical,"(390.0, 762.0)",0.5,0.586,1,7409.944,3,0.04,0.25
0,769,catch,"[(1165, 755)]",[],[1],[],horizontal,"(890.0, 262.0)",1.6,nan,1,7415.043,3,0.04,0.25
0,770,target,"[(1144, 793)]",[],[1],[0.5166666666666666],vertical,"(390.0, 262.0)",1.3333333333333333,0.476,1,7421.069,3,0.04,0.25
0,771,target,"[(1155, 774)]",[],[1],[0.5166666666666666],vertical,"(890.0, 262.0)",0.5,0.477,1,7427.328,3,0.04,0.25
0,772,target,"[(1183, 789)]",[],[1],[0.4666666666666667],vertical,"(390.0, 262.0)",1.4833333333333334,0.429,1,7432.506,3,0.04,0.25
0,773,target,"[(1160, 791)]",[],[1],[0.6333333333333333],vertical,"(890.0, 262.0)",0.8333333333333334,0.589,1,7438.594,3,0.04,0.25
0,774,catch,"[(1180, 778)]",[],[1],[],horizontal,"(390.0, 762.0)",1.6,nan,1,7444.094,3,0.04,0.25
0,775,target,"[(1180, 762)]",[],[1],[0.4666666666666667],vertical,"(390.0, 262.0)",1.5333333333333332,0.426,1,7449.877,3,0.04,0.25
0,776,target,"[(1179, 793)]",[],[1],[0.65],vertical,"(890.0, 762.0)",1.2,0.606,1,7456.074,3,0.04,0.25
0,777,catch,"[(1178, 790)]",[],[1],[],vertical,"(890.0, 762.0)",1.6,nan,1,7462.011,3,0.04,0.25
0,778,target,"[(1183, 768)]",[],[1],[0.5833333333333334],vertical,"(890.0, 262.0)",1.1833333333333333,0.541,1,7467.895,3,0.04,0.25
0,779,catch,"[(1160, 791)]",[],[1],[],horizontal,"(390.0, 762.0)",1.6,nan,1,7473.956,3,0.04,0.25
0,780,target,"[(1155, 756)]",[],[1],[0.5833333333333334],vertical,"(390.0, 262.0)",0.9,0.538,1,7480.262,3,0.04,0.25
0,781,target,"[(1173, 784)]",[],[1],[0.5333333333333333],vertical,"(890.0, 262.0)",0.8666666666666667,0.492,1,7486.362,3,0.04,0.25
0,782,target,"[(1172, 791)]",[],[1],[0.5833333333333334],horizontal,"(890.0, 762.0)",0.9666666666666667,0.541,1,7492.162,3,0.04,0.25
0,783,target,"[(1183, 778)]",[],[1],[0.6666666666666666],horizontal,"(390.0, 262.0)",0.6,0.63,1,7497.923,3,0.04,0.25
0,784,target,"[(1179, 768)]",[],[1],[0.6],horizontal,"(390.0, 762.0)",0.9166666666666666,0.553,1,7503.356,3,0.04,0.25
0,785,target,"[(1188, 789)]",[],[1],[0.7333333333333333],vertical,"(390.0, 262.0)",0.55,0.684,1,7508.826,3,0.04,0.25
0,786,catch,"[(1163, 796)]",[],[1],[],vertical,"(890.0, 262.0)",1.6,nan,1,7514.625,3,0.04,0.25
0,787,target,"[(1148, 773)]",[],[1],[0.55],horizontal,"(390.0, 262.0)",0.5333333333333333,0.507,1,7520.544,3,0.04,0.25
0,788,target,"[(1175, 803)]",[],[1],[0.5],vertical,"(890.0, 262.0)",1.1166666666666667,0.456,1,7525.943,3,0.04,0.25
0,789,target,"[(1189, 792)]",[],[1],[0.5166666666666666],vertical,"(390.0, 762.0)",0.9833333333333333,0.476,1,7531.685,3,0.04,0.25
0,790,catch,"[(1180, 788)]",[],[1],[],vertical,"(390.0, 762.0)",1.6,nan,1,7537.311,3,0.04,0.25
0,791,catch,"[(1178, 779)]",[],[1],[],horizontal,"(390.0, 762.0)",1.6,nan,1,7543.01,3,0.02,0.25
0,792,catch,"[(1165, 795)]",[],[1],[],horizontal,"(390.0, 762.0)",1.6,nan,1,7548.611,3,0.02,0.25
0,793,catch,"[(1157, 789)]",[],[1],[],horizontal,"(890.0, 762.0)",1.6,nan,1,7554.535,3,0.02,0.25
0,794,target,"[(1180, 790)]",[],[1],[0.6666666666666666],vertical,"(890.0, 762.0)",0.5833333333333334,0.628,1,7560.111,3,0.02,0.25
0,795,target,"[(1153, 757)]",[],[1],[0.55],horizontal,"(390.0, 262.0)",0.7333333333333333,0.506,1,7565.338,3,0.02,0.25
0,796,target,"[(1183, 792)]",[],[1],[0.5833333333333334],vertical,"(890.0, 262.0)",0.48333333333333334,0.538,1,7571.07,3,0.02,0.25
0,797,target,"[(1156, 778)]",[],[1],[0.5333333333333333],vertical,"(390.0, 762.0)",1.4833333333333334,0.49,1,7576.819,3,0.02,0.25
0,798,catch,"[(1151, 779)]",[],[1],[],horizontal,"(390.0, 762.0)",1.6,nan,1,7583.011,3,0.02,0.25
0,799,target,"[(1180, 770)]",[],[1],[0.5333333333333333],vertical,"(390.0, 762.0)",0.75,0.491,1,7588.878,3,0.02,0.25
0,800,target,"[(1173, 779)]",[],[1],[0.7666666666666666],vertical,"(390.0, 762.0)",0.9666666666666667,0.721,1,7594.343,3,0.0,0.25
0,801,target,"[(1175, 794)]",[],[1],[0.5166666666666666],horizontal,"(890.0, 262.0)",0.7166666666666667,0.48,1,7600.448,3,0.0,0.25
0,802,target,"[(1164, 752), (1141, 786)]",[],"[0, 1]",[0.6333333333333333],horizontal,"(390.0, 262.0)",0.75,0.598,1,7606.311,3,0.0,0.25
0,803,target,"[(1160, 803)]",[],[1],[0.4666666666666667],horizontal,"(390.0, 262.0)",0.7166666666666667,0.423,1,7613.237,3,0.0,0.25
0,804,target,"[(1163, 813)]",[],[1],[],horizontal,"(390.0, 762.0)",,"('cti', 1.262)",0,7619.068,0,0.02,0.25
0,805,target,"[(1150, 816)]",[],[1],[0.65],vertical,"(390.0, 262.0)",0.3833333333333333,0.606,1,7623.462,1,0.02,0.25
0,806,target,"[(1156, 807)]",[],[1],[0.2833333333333333],vertical,"(890.0, 762.0)",1.5333333333333332,0.242,1,7634.593,1,0.02,0.25
0,807,target,"[(1178, 802)]",[],[1],[0.5],horizontal,"(890.0, 262.0)",1.4333333333333333,0.455,1,7640.054,1,0.02,0.25
0,808,catch,"[(1180, 788)]",[],[1],[],horizontal,"(390.0, 762.0)",1.6,nan,1,7645.593,2,0.02,0.25
0,809,target,"[(1154, 808)]",[],[1],[0.7166666666666667],vertical,"(390.0, 762.0)",0.43333333333333335,0.674,1,7650.944,2,0.02,0.25
0,810,target,"[(1151, 798)]",[],[1],[0.5666666666666667],vertical,"(390.0, 262.0)",1.3,0.525,1,7656.212,2,0.02,0.25
0,811,target,"[(1172, 786)]",[],[1],[0.45],vertical,"(890.0, 262.0)",1.5,0.412,1,7662.202,2,0.02,0.25
0,812,target,"[(1174, 788)]",[],[1],[0.21666666666666667],horizontal,"(390.0, 262.0)",1.4,0.182,0,7668.349,0,0.02,0.25
0,813,catch,"[(1151, 790)]",[],[1],[],vertical,"(890.0, 762.0)",1.6,nan,1,7673.555,1,0.02,0.25
0,814,target,"[(1180, 776)]",[],[1],[0.7666666666666666],vertical,"(890.0, 762.0)",0.55,0.716,1,7679.111,1,0.02,0.25
0,815,target,"[(1155, 791)]",[],[1],[0.5833333333333334],horizontal,"(890.0, 762.0)",0.85,0.546,1,7683.893,1,0.02,0.25
0,816,target,"[(1154, 803)]",[],[1],[0.5666666666666667],vertical,"(890.0, 262.0)",1.3166666666666667,0.525,1,7689.299,2,0.02,0.25
0,817,target,"[(1155, 777)]",[],[1],[0.6666666666666666],vertical,"(390.0, 262.0)",0.8333333333333334,0.621,1,7695.529,2,0.02,0.25
0,818,target,"[(1180, 799)]",[],[1],[0.4666666666666667],horizontal,"(390.0, 762.0)",1.2666666666666666,0.428,1,7701.095,2,0.02,0.25
0,819,target,"[(1153, 780)]",[],[1],[0.48333333333333334],vertical,"(390.0, 262.0)",1.4333333333333333,0.444,1,7707.063,2,0.02,0.25
0,820,target,"[(1150, 790)]",[],[1],[0.5666666666666667],horizontal,"(890.0, 762.0)",0.9166666666666666,0.524,1,7712.91,3,0.02,0.25
0,821,target,"[(1175, 790)]",[],[1],[0.65],vertical,"(390.0, 262.0)",0.9666666666666667,0.608,1,7718.678,3,0.02,0.25
0,822,target,"[(1153, 788)]",[],[1],[0.55],vertical,"(390.0, 262.0)",0.4166666666666667,0.515,1,7724.554,3,0.02,0.25
0,823,catch,"[(1151, 759)]",[],[1],[],vertical,"(390.0, 262.0)",1.6,nan,1,7730.17,3,0.02,0.25
0,824,target,"[(1157, 803)]",[],[1],[0.5166666666666666],vertical,"(890.0, 262.0)",0.6666666666666666,0.473,1,7735.814,3,0.02,0.25
0,825,target,"[(1160, 803)]",[],[1],[0.6166666666666667],vertical,"(890.0, 762.0)",0.5833333333333334,0.574,1,7741.428,3,0.02,0.25
0,826,target,"[(1178, 789)]",[],[1],[0.5666666666666667],vertical,"(890.0, 762.0)",1.3666666666666667,0.529,1,7747.093,3,0.02,0.25
0,827,target,"[(1158, 764)]",[],[1],[0.6666666666666666],horizontal,"(890.0, 262.0)",0.8833333333333333,0.64,1,7753.073,3,0.02,0.25
0,828,catch,"[(1151, 778)]",[],[1],[],horizontal,"(890.0, 262.0)",1.6,nan,1,7758.827,3,0.02,0.25
0,829,catch,"[(1180, 758)]",[],[1],[],horizontal,"(390.0, 762.0)",1.6,nan,1,7764.343,3,0.02,0.25
0,830,catch,"[(1155, 789)]",[],[1],[],horizontal,"(890.0, 262.0)",1.6,nan,1,7770.337,3,0.02,0.25
0,831,catch,"[(1151, 782)]",[],[1],[],vertical,"(390.0, 262.0)",1.6,nan,1,7775.993,3,0.02,0.25
0,832,target,"[(1144, 774)]",[],[1],[0.7],vertical,"(390.0, 762.0)",1.3333333333333333,0.657,1,7781.684,3,0.02,0.25
0,833,target,"[(1175, 779)]",[],[1],[0.55],vertical,"(390.0, 262.0)",0.45,0.508,1,7787.81,3,0.02,0.25
0,834,catch,"[(1158, 783)]",[],[1],[],horizontal,"(390.0, 762.0)",1.6,nan,1,7793.178,3,0.02,0.25
0,835,target,"[(1152, 789)]",[],[1],[0.5666666666666667],vertical,"(890.0, 262.0)",1.1166666666666667,0.532,1,7798.909,3,0.02,0.25
0,836,target,"[(1170, 792)]",[],[1],[0.6166666666666667],vertical,"(390.0, 262.0)",1.05,0.577,1,7805.077,3,0.02,0.25
0,837,target,"[(1160, 788)]",[],[1],[0.5166666666666666],horizontal,"(390.0, 762.0)",1.25,0.476,1,7810.861,3,0.02,0.25
0,838,target,"[(1154, 774)]",[],[1],[0.7],vertical,"(390.0, 762.0)",1.0833333333333333,0.656,1,7816.911,3,0.02,0.25
0,839,target,"[(1174, 786)]",[],[1],[0.7833333333333333],horizontal,"(890.0, 762.0)",1.05,0.746,1,7823.036,3,0.02,0.25
0,840,target,"[(1179, 788)]",[],[1],[0.5666666666666667],horizontal,"(390.0, 262.0)",0.8166666666666667,0.529,1,7829.132,3,0.02,0.25
0,841,catch,"[(1159, 792)]",[],[1],[],vertical,"(890.0, 262.0)",1.6,nan,1,7834.37,3,0.02,0.25
0,842,target,"[(1170, 791)]",[],[1],[0.75],horizontal,"(390.0, 762.0)",0.8166666666666667,0.712,1,7840.645,3,0.02,0.25
0,843,catch,"[(1154, 799)]",[],[1],[],horizontal,"(890.0, 762.0)",1.6,nan,1,7846.477,3,0.02,0.25
0,844,target,"[(1175, 786)]",[],[1],[0.4166666666666667],vertical,"(890.0, 762.0)",1.4166666666666667,0.377,1,7852.628,3,0.02,0.25
0,845,target,"[(1153, 790)]",[],[1],[0.85],horizontal,"(390.0, 262.0)",0.3833333333333333,nan,0,7859.178,0,0.02,0.25
0,846,catch,"[(1142, 789)]",[],[1],[],vertical,"(890.0, 762.0)",1.6,nan,1,7863.227,1,0.02,0.25
0,847,catch,"[(1180, 794)]",[],[1],[],vertical,"(890.0, 762.0)",1.6,nan,1,7868.277,1,0.02,0.25
0,848,target,"[(1176, 805)]",[],[1],[0.5333333333333333],horizontal,"(890.0, 762.0)",1.0,0.488,1,7873.167,1,0.02,0.25
0,849,target,"[(1130, 791)]",[],[1],[0.65],horizontal,"(890.0, 262.0)",1.4,0.605,1,7883.694,2,0.02,0.25
0,850,catch,"[(1148, 813)]",[],[1],[],horizontal,"(890.0, 762.0)",1.6,nan,1,7890.762,2,0.02,0.25
0,851,target,"[(1153, 807)]",[],[1],[0.65],vertical,"(390.0, 262.0)",1.1333333333333333,0.608,1,7896.444,2,0.02,0.25
0,852,catch,"[(1154, 803)]",[],[1],[],horizontal,"(390.0, 262.0)",1.6,nan,1,7902.227,2,0.02,0.25
0,853,target,"[(1177, 780)]",[],[1],[0.5333333333333333],horizontal,"(390.0, 262.0)",1.05,0.497,1,7907.869,3,0.02,0.25
0,854,target,"[(1170, 795)]",[],[1],[0.55],horizontal,"(890.0, 762.0)",1.3,0.511,1,7913.636,3,0.0,0.25
0,855,target,"[(1150, 786)]",[],[1],[0.7166666666666667],vertical,"(890.0, 262.0)",0.6166666666666667,0.676,1,7919.77,3,0.0,0.25
0,856,target,"[(1176, 789)]",[],[1],[0.35],vertical,"(890.0, 262.0)",1.5166666666666666,0.31,1,7925.227,3,0.0,0.25
0,857,catch,"[(1150, 786)]",[],[1],[],horizontal,"(390.0, 262.0)",1.6,nan,1,7931.561,3,0.0,0.25
0,858,target,"[(1166, 826)]",[],[1],[0.5833333333333334],vertical,"(890.0, 762.0)",0.5,0.543,1,7939.579,3,0.0,0.25
0,859,target,"[(1170, 817)]",[],[1],[0.6333333333333333],horizontal,"(390.0, 762.0)",0.5,0.59,1,7944.556,3,0.0,0.25
0,860,target,"[(1161, 791)]",[],[1],[0.6333333333333333],horizontal,"(390.0, 762.0)",0.7666666666666666,0.593,1,7950.245,3,0.0,0.25
0,861,target,"[(1153, 786)]",[],[1],[0.85],horizontal,"(890.0, 262.0)",0.4666666666666667,nan,0,7956.245,0,0.0,0.25
0,862,target,"[(1125, 798)]",[],[1],[0.48333333333333334],horizontal,"(890.0, 262.0)",1.5,0.446,1,7960.637,1,0.0,0.25
0,863,target,"[(1149, 794)]",[],[1],[0.6333333333333333],vertical,"(890.0, 262.0)",0.9333333333333333,0.585,1,7966.281,1,0.0,0.25
