block,trial,trial_type,taps_start_loc_during_fix,taps_end_loc_during_fix,taps_on_lever_during_fix,taps_on_lever_s_during_fix,bar_orientation,target_xy,cti,rt,acc,time
1,1,target,"[(1088, 833)]",[],[1],[0.4166666666666667],vertical,"(890.0, 262.0)",1.2333333333333334,0.38,1,0.02
1,2,target,"[(1086, 830)]",[],[1],[0.4166666666666667],vertical,"(390.0, 762.0)",0.5166666666666666,0.381,1,5.632
1,3,target,"[(204, 778), (296, 795), (218, 822), (277, 946), (507, 803), (875, 953), (194, 803), (854, 808), (295, 832), (691, 842), (155, 859), (170, 879), (487, 876), (151, 794), (228, 895), (208, 905), (213, 919), (228, 961), (184, 967), (204, 943), (720, 962), (700, 140), (392, 976), (854, 991), (850, 1000), (1005, 905)]",[],"[0, 0, 0, 0, 0, 0, 0, 0, 0, 0, 0, 0, 0, 0, 0, 0, 0, 0, 0, 0, 0, 0, 0, 0, 0, 1]",[],vertical,"(390.0, 762.0)",,cti_phase,0,15.384
1,4,target,"[(1078, 894)]",[],[1],[0.5166666666666666],horizontal,"(890.0, 762.0)",0.8166666666666667,0.474,1,101.233
1,5,target,"[(1062, 898)]",[],[1],[0.7166666666666667],horizontal,"(890.0, 762.0)",1.5333333333333332,0.691,1,105.434
1,6,target,"[(1049, 904)]",[],[1],[],vertical,"(890.0, 262.0)",,cti_phase,0,110.779
1,7,target,"[(1062, 883)]",[],[1],[0.4],vertical,"(890.0, 262.0)",1.0833333333333333,0.361,1,115.884
1,8,target,"[(1070, 915)]",[],[1],[0.08333333333333333],horizontal,"(890.0, 762.0)",1.6333333333333333,0.053,1,121.76
1,9,target,"[(1063, 896)]",[],[1],[0.5666666666666667],vertical,"(390.0, 262.0)",1.3666666666666667,0.525,1,126.25
1,10,target,"[(1073, 901)]",[],[1],[0.5166666666666666],horizontal,"(390.0, 762.0)",1.2166666666666666,0.475,1,131.698
2,11,target,"[(1072, 909)]",[],[1],[0.5833333333333334],vertical,"(390.0, 262.0)",1.2,0.544,1,136.321
2,12,target,"[(1070, 911)]",[],[1],[0.5333333333333333],vertical,"(390.0, 762.0)",0.7833333333333333,0.495,1,140.822
2,13,target,"[(1099, 924)]",[],[1],[0.5166666666666666],vertical,"(390.0, 262.0)",0.95,0.478,1,144.844
2,14,target,"[(1033, 905)]",[],[1],[0.5166666666666666],horizontal,"(390.0, 762.0)",0.75,0.476,1,149.249
2,15,target,"[(1095, 913)]",[],[1],[0.5166666666666666],horizontal,"(890.0, 762.0)",1.5,0.478,1,153.308
2,16,target,"[(1070, 913)]",[],[1],[0.5666666666666667],horizontal,"(890.0, 262.0)",0.8,0.529,1,158.683
2,17,target,"[(1067, 900)]",[],[1],[0.5666666666666667],vertical,"(390.0, 262.0)",1.1166666666666667,0.521,1,163.144
2,18,target,"[(1065, 893)]",[],[1],[0.5166666666666666],horizontal,"(390.0, 262.0)",1.05,0.477,1,168.3
2,19,catch,"[(1089, 893)]",[],[1],[0.85],horizontal,"(390.0, 262.0)",0.6166666666666667,nan,1,172.818
2,20,target,"[(1062, 885)]",[],[1],[0.6],horizontal,"(890.0, 762.0)",0.85,0.56,1,177.245
3,21,target,"[(1073, 907)]",[],[1],[0.7333333333333333],horizontal,"(390.0, 262.0)",0.8833333333333333,0.69,1,181.967
3,22,target,"[(1082, 916)]",[],[1],[0.6833333333333333],horizontal,"(390.0, 762.0)",1.1166666666666667,0.641,1,186.6
3,23,catch,"[(1085, 906)]",[],[1],[0.85],horizontal,"(390.0, 762.0)",1.45,nan,1,191.524
3,24,target,"[(1083, 899)]",[],[1],[0.5333333333333333],horizontal,"(390.0, 262.0)",1.5666666666666667,0.491,1,196.866
3,25,target,"[(1090, 892)]",[],[1],[0.5833333333333334],horizontal,"(390.0, 262.0)",0.9666666666666667,0.55,1,202.068
3,26,catch,"[(1086, 897)]",[],[1],[0.85],vertical,"(890.0, 762.0)",1.05,nan,1,206.685
3,27,target,"[(1091, 904)]",[],[1],[0.48333333333333334],vertical,"(890.0, 262.0)",1.5166666666666666,0.44,1,211.283
3,28,target,"[(1101, 905)]",[],[1],[0.55],horizontal,"(890.0, 262.0)",1.25,0.508,1,216.435
3,29,target,"[(1086, 909)]","[(1063, 904)]",[1],[0.25],vertical,"(890.0, 762.0)",,bar_phase,0,221.528
3,30,catch,"[(1105, 915)]",[],[1],[0.4166666666666667],horizontal,"(390.0, 262.0)",1.3666666666666667,0.38,0,224.126
4,31,catch,"[(1129, 872)]","[(1129, 889)]",[1],[0.4666666666666667],horizontal,"(390.0, 262.0)",,bar_phase,0,228.874
4,32,target,"[(1070, 893)]",[],[1],[0.5],horizontal,"(390.0, 262.0)",0.8666666666666667,0.457,1,231.56
4,33,target,"[(1092, 902)]",[],[1],[0.5],horizontal,"(390.0, 762.0)",1.4166666666666667,0.468,1,236.152
4,34,catch,"[(1095, 907)]",[],[1],[0.85],vertical,"(390.0, 262.0)",0.55,nan,1,240.683
4,35,target,"[(1105, 896)]",[],[1],[],vertical,"(890.0, 262.0)",,cti_phase,0,245.409
4,36,target,"[(1082, 881)]",[],[1],[0.48333333333333334],horizontal,"(390.0, 762.0)",1.1833333333333333,0.44,1,249.311
4,37,target,"[(1074, 899)]",[],[1],[0.5166666666666666],horizontal,"(890.0, 262.0)",1.15,0.475,1,257.451
4,38,target,"[(1071, 910)]",[],[1],[0.5],vertical,"(890.0, 262.0)",1.1833333333333333,0.46,1,262.426
4,39,target,"[(1071, 907)]",[],[1],[0.5333333333333333],vertical,"(390.0, 262.0)",1.1,0.493,1,274.298
4,40,target,"[(1072, 913)]",[],[1],[0.8],horizontal,"(390.0, 262.0)",0.85,0.755,1,278.95
5,41,catch,"[(1091, 910)]",[],[1],[0.85],horizontal,"(390.0, 762.0)",1.2333333333333334,nan,1,284.05
5,42,catch,"[(1104, 903)]",[],[1],[0.7333333333333333],vertical,"(390.0, 262.0)",1.3666666666666667,0.685,0,289.182
5,43,target,"[(1110, 883)]",[],[1],[0.45],vertical,"(390.0, 262.0)",1.4166666666666667,0.408,1,294.485
5,44,target,"[(1094, 914)]",[],[1],[0.5166666666666666],horizontal,"(390.0, 262.0)",1.5333333333333332,0.479,1,299.05
5,45,target,"[(1100, 900)]",[],[1],[0.43333333333333335],horizontal,"(390.0, 762.0)",1.2333333333333334,0.394,1,304.106
5,46,target,"[(1100, 890)]",[],[1],[0.5666666666666667],horizontal,"(390.0, 762.0)",1.45,0.532,1,308.484
5,47,target,"[(1075, 889)]",[],[1],[0.6],vertical,"(890.0, 262.0)",0.5166666666666666,0.559,1,313.128
5,48,catch,"[(1067, 898)]",[],[1],[0.5166666666666666],vertical,"(890.0, 262.0)",1.35,0.478,0,317.493
5,49,target,"[(1100, 881)]",[],[1],[0.6166666666666667],vertical,"(390.0, 262.0)",1.0,0.58,1,322.223
5,50,target,"[(1096, 915)]",[],[1],[0.48333333333333334],horizontal,"(890.0, 262.0)",1.6166666666666667,0.442,1,327.171
6,51,target,"[(1076, 909)]",[],[1],[0.5166666666666666],horizontal,"(890.0, 262.0)",1.2,0.482,1,332.349
6,52,target,"[(1086, 907)]",[],[1],[0.5],horizontal,"(390.0, 262.0)",1.2,0.463,1,337.175
6,53,target,"[(1086, 880)]",[],[1],[0.4666666666666667],vertical,"(890.0, 762.0)",1.3166666666666667,0.428,1,341.916
6,54,target,"[(1067, 899)]",[],[1],[0.3833333333333333],vertical,"(390.0, 762.0)",1.35,0.345,1,346.652
6,55,catch,"[(1069, 902)]",[],[1],[0.48333333333333334],vertical,"(890.0, 762.0)",1.2666666666666666,0.445,0,351.518
6,56,target,"[(1081, 890)]",[],[1],[0.5666666666666667],vertical,"(890.0, 262.0)",1.4666666666666666,0.532,1,356.584
6,57,target,"[(1067, 897)]",[],[1],[0.5],horizontal,"(390.0, 262.0)",0.95,0.463,1,361.297
6,58,target,"[(1072, 910)]",[],[1],[0.6333333333333333],vertical,"(390.0, 262.0)",0.65,0.586,1,365.927
6,59,target,"[(1072, 903)]",[],[1],[0.5333333333333333],horizontal,"(890.0, 262.0)",0.6833333333333333,0.493,1,369.984
6,60,target,"[(1105, 869)]",[],[1],[0.48333333333333334],vertical,"(390.0, 262.0)",1.5166666666666666,0.442,1,373.901
7,61,target,"[(1099, 904)]",[],[1],[0.55],vertical,"(890.0, 262.0)",1.0333333333333332,0.51,1,378.989
7,62,catch,"[(1096, 893)]",[],[1],[0.85],vertical,"(890.0, 762.0)",0.6666666666666666,nan,1,383.684
7,63,target,"[(1100, 910)]",[],[1],[0.55],vertical,"(390.0, 262.0)",0.9666666666666667,0.509,1,388.285
7,64,target,"[(1070, 915)]",[],[1],[0.5333333333333333],vertical,"(890.0, 762.0)",0.6333333333333333,0.493,1,393.15
7,65,target,"[(1062, 919)]",[],[1],[0.55],horizontal,"(390.0, 762.0)",1.5,0.509,1,397.6
7,66,catch,"[(1076, 891)]",[],[1],[0.85],vertical,"(390.0, 762.0)",1.5333333333333332,nan,1,403.11
7,67,target,"[(1082, 912)]",[],[1],[0.4666666666666667],horizontal,"(390.0, 762.0)",1.6166666666666667,0.427,1,408.501
7,68,target,"[(1072, 907)]",[],[1],[0.5333333333333333],vertical,"(890.0, 762.0)",0.5833333333333334,0.497,1,413.6
7,69,target,"[(1062, 884)]",[],[1],[0.6666666666666666],horizontal,"(390.0, 762.0)",1.0666666666666667,0.625,1,417.668
7,70,target,"[(1068, 904)]",[],[1],[0.65],horizontal,"(390.0, 762.0)",0.8166666666666667,0.607,1,422.968
8,71,target,"[(1067, 893)]",[],[1],[0.5833333333333334],vertical,"(890.0, 262.0)",0.6833333333333333,0.542,1,427.216
8,72,target,"[(1068, 903)]",[],[1],[0.5166666666666666],horizontal,"(390.0, 762.0)",1.1166666666666667,0.476,1,442.792
8,73,catch,"[(1062, 907)]",[],[1],[0.5666666666666667],vertical,"(390.0, 262.0)",1.6,0.53,0,447.603
8,74,target,"[(1091, 898)]",[],[1],[0.5166666666666666],vertical,"(890.0, 262.0)",1.0666666666666667,0.478,1,452.613
8,75,target,"[(1068, 900)]",[],[1],[0.48333333333333334],horizontal,"(890.0, 262.0)",1.3833333333333333,0.442,1,457.034
8,76,target,"[(1095, 908)]",[],[1],[0.55],vertical,"(890.0, 262.0)",1.1166666666666667,0.509,1,461.984
8,77,target,"[(1081, 906)]",[],[1],[0.5166666666666666],horizontal,"(890.0, 262.0)",0.8,0.474,1,466.669
8,78,target,"[(1088, 892)]",[],[1],[0.8],vertical,"(390.0, 262.0)",0.85,0.751,1,471.335
8,79,target,"[(1075, 898)]",[],[1],[0.4666666666666667],vertical,"(890.0, 262.0)",1.5833333333333333,0.425,1,475.966
8,80,catch,"[(1081, 901)]",[],[1],[0.85],horizontal,"(390.0, 262.0)",1.1166666666666667,nan,1,481.26
9,81,target,"[(1075, 911)]",[],[1],[0.85],vertical,"(890.0, 262.0)",0.8666666666666667,nan,0,486.091
9,82,target,"[(1097, 900)]",[],[1],[0.5666666666666667],vertical,"(390.0, 262.0)",0.5166666666666666,0.531,1,490.812
9,83,target,"[(1069, 910)]",[],[1],[0.6666666666666666],vertical,"(390.0, 262.0)",1.05,0.624,1,494.875
9,84,catch,"[(1115, 900)]",[],[1],[0.16666666666666666],vertical,"(390.0, 762.0)",1.65,0.134,0,500.016
9,85,target,"[(1115, 875)]",[],[1],[0.5666666666666667],vertical,"(390.0, 262.0)",1.15,0.527,1,505.151
9,86,target,"[(1096, 909)]",[],[1],[0.5666666666666667],horizontal,"(390.0, 262.0)",1.5,0.533,1,510.186
9,87,target,"[(1064, 917)]",[],[1],[0.6166666666666667],vertical,"(390.0, 262.0)",0.7166666666666667,0.572,1,515.152
9,88,target,"[(1086, 910)]",[],[1],[0.55],horizontal,"(390.0, 762.0)",0.5333333333333333,0.51,1,519.319
9,89,target,"[(1084, 899)]",[],[1],[0.55],horizontal,"(390.0, 262.0)",0.8333333333333334,0.511,1,523.619
9,90,target,"[(1080, 903)]",[],[1],[0.5166666666666666],horizontal,"(890.0, 262.0)",1.2,0.479,1,528.419
10,91,target,"[(1068, 891)]",[],[1],[0.5333333333333333],vertical,"(890.0, 762.0)",1.25,0.491,1,533.268
10,92,target,"[(1100, 885)]",[],[1],[0.6333333333333333],horizontal,"(890.0, 762.0)",1.1166666666666667,0.596,1,538.049
10,93,target,"[(1098, 901)]",[],[1],[0.11666666666666667],vertical,"(390.0, 762.0)",1.4333333333333333,0.085,1,543.269
10,94,target,"[(1067, 911)]",[],[1],[0.5333333333333333],horizontal,"(890.0, 262.0)",0.8833333333333333,0.492,1,547.508
10,95,target,"[(1108, 900)]",[],[1],[0.5666666666666667],vertical,"(890.0, 762.0)",1.3,0.526,1,551.94
10,96,target,"[(1086, 894)]",[],[1],[0.55],horizontal,"(390.0, 762.0)",1.05,0.509,1,557.203
10,97,target,"[(1120, 888)]",[],[1],[0.55],vertical,"(890.0, 262.0)",0.6166666666666667,0.51,1,561.59
10,98,target,"[(1082, 900)]",[],[1],[0.26666666666666666],horizontal,"(390.0, 762.0)",1.4833333333333334,0.232,1,565.794
10,99,target,"[(1081, 917)]",[],[1],[0.5833333333333334],horizontal,"(390.0, 762.0)",1.3666666666666667,0.547,1,570.554
10,100,target,"[(1082, 906)]",[],[1],[0.5666666666666667],vertical,"(390.0, 262.0)",0.8,0.529,1,576.199
11,101,target,"[(1072, 896)]",[],[1],[0.2],vertical,"(890.0, 762.0)",1.5666666666666667,0.166,1,580.582
11,102,target,"[(1072, 895)]",[],[1],[0.6],vertical,"(890.0, 762.0)",1.1166666666666667,0.557,1,585.75
11,103,target,"[(1082, 910)]",[],[1],[0.5166666666666666],horizontal,"(890.0, 762.0)",0.5,0.476,1,590.851
11,104,target,"[(1072, 906)]",[],[1],[0.5166666666666666],horizontal,"(390.0, 762.0)",1.4666666666666666,0.473,1,594.818
11,105,target,"[(1105, 895)]",[],[1],[0.5333333333333333],horizontal,"(890.0, 762.0)",1.4,0.492,1,599.868
11,106,catch,"[(1076, 900)]",[],[1],[0.85],vertical,"(890.0, 262.0)",0.9166666666666666,nan,1,605.287
11,107,target,"[(1076, 892)]",[],[1],[0.5166666666666666],horizontal,"(890.0, 762.0)",1.5666666666666667,0.475,1,610.541
11,108,target,"[(1089, 890)]",[],[1],[0.5833333333333334],horizontal,"(390.0, 762.0)",0.75,0.55,1,615.302
11,109,target,"[(1100, 906)]",[],[1],[0.7],vertical,"(890.0, 762.0)",0.9666666666666667,0.671,1,619.906
11,110,target,"[(1100, 903)]",[],[1],[],horizontal,"(390.0, 762.0)",,cti_phase,0,624.502
12,111,catch,"[(1126, 886)]",[],[1],[0.85],vertical,"(890.0, 762.0)",0.8666666666666667,nan,1,629.426
12,112,catch,"[(1081, 889)]",[],[1],[0.85],vertical,"(890.0, 762.0)",1.1166666666666667,nan,1,634.044
12,113,target,"[(1107, 903)]",[],[1],[0.5166666666666666],vertical,"(890.0, 262.0)",0.75,0.478,1,638.909
12,114,target,"[(1102, 902)]",[],[1],[0.5666666666666667],horizontal,"(390.0, 762.0)",0.9833333333333333,0.523,1,643.452
12,115,catch,"[(1070, 896)]",[],[1],[0.7],horizontal,"(390.0, 762.0)",1.2166666666666666,0.667,0,648.102
12,116,target,"[(1115, 876)]",[],[1],[0.5666666666666667],horizontal,"(890.0, 262.0)",1.5,0.522,1,653.352
12,117,target,"[(1097, 906)]",[],[1],[0.5666666666666667],vertical,"(890.0, 262.0)",0.6,0.527,1,658.635
12,118,target,"[(1100, 903)]",[],[1],[0.5333333333333333],vertical,"(890.0, 262.0)",1.0333333333333332,0.496,1,662.796
12,119,target,"[(1087, 895)]",[],[1],[0.5833333333333334],vertical,"(890.0, 262.0)",1.1,0.545,1,667.01
12,120,target,"[(1099, 902)]",[],[1],[0.48333333333333334],vertical,"(890.0, 762.0)",1.6166666666666667,0.445,1,671.985
13,121,target,"[(1115, 912)]",[],[1],[0.5333333333333333],horizontal,"(390.0, 262.0)",0.5333333333333333,0.498,1,677.338
13,122,target,"[(1079, 910)]",[],[1],[0.48333333333333334],vertical,"(890.0, 262.0)",0.9666666666666667,0.449,1,681.182
13,123,target,"[(1096, 911)]",[],[1],[0.5333333333333333],horizontal,"(890.0, 762.0)",0.8666666666666667,0.5,1,685.719
13,124,target,"[(1095, 900)]",[],[1],[0.5333333333333333],horizontal,"(390.0, 262.0)",0.75,0.491,1,690.425
13,125,target,"[(1071, 905)]",[],[1],[0.48333333333333334],vertical,"(390.0, 762.0)",1.1666666666666667,0.451,1,695.041
13,126,target,"[(1065, 907)]",[],[1],[0.5],horizontal,"(390.0, 262.0)",1.0,0.47,1,699.934
13,127,target,"[(1090, 895)]",[],[1],[0.5333333333333333],vertical,"(890.0, 762.0)",0.8333333333333334,0.489,1,704.817
13,128,target,"[(1100, 909)]",[],[1],[0.4666666666666667],horizontal,"(890.0, 262.0)",0.95,0.427,1,709.303
13,129,target,"[(1072, 896)]",[],[1],[0.55],vertical,"(890.0, 762.0)",0.6,0.51,1,714.122
13,130,target,"[(1072, 888)]",[],[1],[0.5833333333333334],horizontal,"(890.0, 262.0)",0.6833333333333333,0.547,1,718.018
14,131,target,"[(1072, 912)]",[],[1],[0.3],vertical,"(390.0, 262.0)",1.6166666666666667,0.268,1,722.111
14,132,target,"[(1048, 887)]",[],[1],[0.5833333333333334],vertical,"(890.0, 762.0)",0.75,0.543,1,727.153
14,133,target,"[(1072, 888)]",[],[1],[0.5166666666666666],horizontal,"(390.0, 262.0)",0.75,0.481,1,731.151
14,134,target,"[(1070, 898)]",[],[1],[0.55],vertical,"(890.0, 762.0)",0.5833333333333334,0.509,1,735.853
14,135,target,"[(1105, 916)]",[],[1],[0.48333333333333334],horizontal,"(890.0, 762.0)",1.3333333333333333,0.443,1,740.218
14,136,target,"[(1082, 910)]",[],[1],[0.5166666666666666],horizontal,"(890.0, 762.0)",1.5333333333333332,0.477,1,744.834
14,137,target,"[(1072, 901)]",[],[1],[0.6],vertical,"(890.0, 262.0)",0.5333333333333333,0.559,1,750.335
14,138,target,"[(1072, 905)]",[],[1],[0.5],vertical,"(390.0, 262.0)",1.1833333333333333,0.463,1,754.453
14,139,target,"[(1077, 906)]",[],[1],[0.5],horizontal,"(890.0, 262.0)",1.2333333333333334,0.469,1,759.141
14,140,target,"[(1067, 901)]",[],[1],[0.55],vertical,"(390.0, 762.0)",0.95,0.515,1,763.637
15,141,target,"[(1070, 885)]",[],[1],[0.5333333333333333],vertical,"(390.0, 762.0)",0.9166666666666666,0.497,1,768.45
15,142,target,"[(1075, 884)]",[],[1],[0.48333333333333334],horizontal,"(390.0, 262.0)",0.9666666666666667,0.446,1,777.425
15,143,target,"[(1047, 891)]",[],[1],[0.5333333333333333],horizontal,"(390.0, 762.0)",0.7833333333333333,0.493,1,781.879
15,144,target,"[(1068, 907)]",[],[1],[0.5166666666666666],vertical,"(890.0, 762.0)",1.45,0.48,1,786.426
15,145,target,"[(1075, 908)]",[],[1],[0.45],horizontal,"(390.0, 762.0)",1.6333333333333333,0.415,1,791.184
15,146,target,"[(1074, 914)]",[],[1],[0.5166666666666666],horizontal,"(890.0, 762.0)",1.6166666666666667,0.475,1,796.536
15,147,target,"[(1098, 894)]",[],[1],[0.43333333333333335],horizontal,"(890.0, 762.0)",1.6333333333333333,0.396,1,801.886
15,148,target,"[(1067, 882)]",[],[1],[0.6333333333333333],horizontal,"(890.0, 262.0)",0.9166666666666666,0.591,1,806.82
15,149,target,"[(1098, 898)]",[],[1],[0.6166666666666667],horizontal,"(390.0, 762.0)",0.95,0.578,1,813.485
15,150,target,"[(1072, 905)]",[],[1],[0.5333333333333333],horizontal,"(890.0, 762.0)",0.5,0.496,1,817.845
16,151,target,"[(1072, 915)]",[],[1],[0.55],horizontal,"(390.0, 762.0)",1.0,0.503,1,822.307
16,152,target,"[(1077, 919)]",[],[1],[0.55],horizontal,"(890.0, 762.0)",0.8333333333333334,0.505,1,826.936
16,153,target,"[(1072, 905)]",[],[1],[0.5333333333333333],vertical,"(390.0, 262.0)",1.05,0.493,1,831.448
16,154,target,"[(1069, 884)]",[],[1],[0.4],horizontal,"(890.0, 262.0)",1.6666666666666667,0.362,1,836.231
16,155,catch,"[(1074, 908)]",[],[1],[0.5666666666666667],vertical,"(890.0, 762.0)",1.6166666666666667,0.534,0,841.328
16,156,target,"[(1094, 881)]",[],[1],[0.5833333333333334],horizontal,"(890.0, 262.0)",0.5666666666666667,0.552,1,846.818
16,157,target,"[(1072, 898)]",[],[1],[0.5166666666666666],vertical,"(890.0, 262.0)",1.5,0.474,1,850.658
16,158,target,"[(1072, 899)]",[],[1],[0.4166666666666667],horizontal,"(890.0, 762.0)",1.3333333333333333,0.378,1,855.892
16,159,target,"[(1090, 888)]",[],[1],[0.6666666666666666],horizontal,"(890.0, 762.0)",0.6333333333333333,0.631,1,860.886
16,160,target,"[(1105, 908)]",[],[1],[0.6],vertical,"(390.0, 262.0)",1.4166666666666667,0.558,1,865.462
17,161,target,"[(1073, 893)]",[],[1],[0.43333333333333335],vertical,"(890.0, 262.0)",1.4,0.392,1,870.338
17,162,catch,"[(1082, 919)]",[],[1],[0.85],horizontal,"(890.0, 262.0)",1.1166666666666667,nan,1,875.234
17,163,target,"[(1075, 871)]",[],[1],[0.5833333333333334],horizontal,"(390.0, 762.0)",0.9666666666666667,0.547,1,880.532
17,164,target,"[(1082, 889)]",[],[1],[0.7],horizontal,"(890.0, 762.0)",0.75,0.663,1,885.047
17,165,target,"[(1105, 899)]",[],[1],[0.5666666666666667],vertical,"(390.0, 762.0)",1.0,0.529,1,889.636
17,166,target,"[(1075, 893)]",[],[1],[0.5],vertical,"(890.0, 762.0)",1.5333333333333332,0.462,1,894.196
17,167,target,"[(1086, 906)]",[],[1],[0.43333333333333335],horizontal,"(390.0, 262.0)",1.5666666666666667,0.392,1,899.018
17,168,target,"[(1105, 894)]",[],[1],[0.55],vertical,"(890.0, 262.0)",1.6166666666666667,0.512,1,904.475
17,169,target,"[(1075, 882)]",[],[1],[0.7833333333333333],vertical,"(890.0, 762.0)",1.6666666666666667,0.74,1,910.07
17,170,target,"[(1082, 896)]",[],[1],[0.55],vertical,"(390.0, 762.0)",0.8333333333333334,0.511,1,915.57
18,171,target,"[(1077, 889)]",[],[1],[0.5666666666666667],horizontal,"(890.0, 762.0)",0.5166666666666666,0.528,1,920.119
18,172,target,"[(1072, 901)]",[],[1],[0.5833333333333334],horizontal,"(390.0, 262.0)",1.4166666666666667,0.554,1,923.959
18,173,target,"[(1070, 880)]",[],[1],[0.5333333333333333],vertical,"(390.0, 262.0)",0.6333333333333333,0.499,1,929.202
18,174,target,"[(1071, 885)]",[],[1],[0.5166666666666666],horizontal,"(890.0, 762.0)",0.9333333333333333,0.484,1,936.483
18,175,target,"[(1105, 897)]",[],[1],[0.43333333333333335],horizontal,"(390.0, 262.0)",1.1,0.4,1,940.951
18,176,target,"[(1058, 894)]",[],[1],[0.5],horizontal,"(390.0, 762.0)",0.7666666666666666,0.472,1,945.77
18,177,target,"[(1072, 908)]",[],[1],[0.5333333333333333],vertical,"(890.0, 762.0)",1.6666666666666667,0.494,1,950.787
18,178,target,"[(1072, 915)]",[],[1],[0.5166666666666666],horizontal,"(890.0, 262.0)",0.75,0.479,1,956.004
18,179,target,"[(1072, 910)]",[],[1],[0.5666666666666667],vertical,"(390.0, 262.0)",1.2166666666666666,0.527,1,960.562
18,180,target,"[(1110, 919)]",[],[1],[0.45],vertical,"(390.0, 262.0)",1.2666666666666666,0.413,1,965.354
19,181,target,"[(1082, 908)]",[],[1],[0.3],horizontal,"(390.0, 262.0)",1.3,0.265,1,970.403
19,182,target,"[(1081, 911)]",[],[1],[0.5666666666666667],horizontal,"(890.0, 262.0)",0.7166666666666667,0.528,1,975.197
19,183,target,"[(1077, 906)]",[],[1],[0.6],vertical,"(890.0, 762.0)",1.2,0.558,1,980.103
19,184,target,"[(1091, 902)]",[],[1],[0.48333333333333334],vertical,"(390.0, 262.0)",1.1833333333333333,0.444,1,985.245
19,185,target,"[(1067, 905)]",[],[1],[0.5166666666666666],horizontal,"(390.0, 762.0)",1.0166666666666666,0.479,1,990.02
19,186,target,"[(1072, 907)]",[],[1],[0.55],vertical,"(890.0, 762.0)",0.7,0.508,1,995.053
19,187,target,"[(1067, 911)]",[],[1],[0.5333333333333333],vertical,"(390.0, 762.0)",1.2666666666666666,0.496,1,999.399
19,188,target,"[(1101, 899)]",[],[1],[],vertical,"(390.0, 262.0)",,cti_phase,0,1004.453
19,189,target,"[(1082, 879)]",[],[1],[0.55],vertical,"(890.0, 762.0)",1.4833333333333334,0.506,1,1009.191
19,190,target,"[(1067, 892)]",[],[1],[0.55],horizontal,"(390.0, 262.0)",0.5166666666666666,0.508,1,1015.427
20,191,target,"[(1071, 894)]",[],[1],[0.6],vertical,"(390.0, 762.0)",0.9666666666666667,0.559,1,1019.615
20,192,target,"[(1078, 914)]",[],[1],[0.5],vertical,"(390.0, 762.0)",1.4666666666666666,0.463,1,1024.186
20,193,target,"[(1077, 906)]",[],[1],[0.5833333333333334],horizontal,"(390.0, 262.0)",1.3833333333333333,0.539,1,1029.086
20,194,target,"[(1072, 890)]",[],[1],[0.7333333333333333],vertical,"(890.0, 262.0)",0.5166666666666666,0.69,1,1034.103
20,195,target,"[(1072, 913)]",[],[1],[0.55],horizontal,"(890.0, 762.0)",1.3,0.51,1,1038.468
20,196,target,"[(1091, 893)]",[],[1],[0.6166666666666667],vertical,"(890.0, 762.0)",1.45,0.57,1,1043.146
20,197,target,"[(1100, 901)]",[],[1],[0.6],vertical,"(390.0, 762.0)",0.9666666666666667,0.559,1,1048.119
20,198,target,"[(1072, 898)]",[],[1],[0.6],vertical,"(390.0, 762.0)",0.9333333333333333,0.559,1,1052.343
20,199,catch,"[(1105, 897)]",[],[1],[0.85],vertical,"(890.0, 262.0)",1.0666666666666667,nan,1,1056.978
20,200,target,"[(1110, 883)]",[],[1],[0.6333333333333333],vertical,"(890.0, 762.0)",0.6666666666666666,0.595,1,1062.02
21,201,target,"[(1105, 885)]",[],[1],[0.5333333333333333],horizontal,"(890.0, 262.0)",1.0666666666666667,0.51,1,1066.398
21,202,target,"[(1091, 905)]",[],[1],[0.5333333333333333],horizontal,"(390.0, 262.0)",0.9,0.489,1,1070.794
21,203,target,"[(1067, 890)]",[],[1],[0.5833333333333334],vertical,"(890.0, 762.0)",1.3833333333333333,0.541,1,1075.17
21,204,target,"[(1069, 907)]",[],[1],[0.65],vertical,"(390.0, 762.0)",0.8333333333333334,0.609,1,1080.122
21,205,target,"[(1095, 902)]",[],[1],[0.55],horizontal,"(390.0, 762.0)",1.1166666666666667,0.511,1,1084.409
21,206,target,"[(1091, 891)]",[],[1],[0.3333333333333333],horizontal,"(890.0, 262.0)",1.4333333333333333,0.295,1,1089.269
21,207,target,"[(1078, 894)]",[],[1],[0.4666666666666667],vertical,"(390.0, 262.0)",1.5166666666666666,0.42,1,1094.371
21,208,target,"[(1070, 895)]",[],[1],[0.5666666666666667],vertical,"(890.0, 762.0)",0.8333333333333334,0.529,1,1099.587
21,209,target,"[(1050, 907)]",[],[1],[0.5833333333333334],horizontal,"(390.0, 262.0)",1.05,0.541,1,1104.116
21,210,target,"[(1067, 885)]",[],[1],[0.55],horizontal,"(890.0, 762.0)",0.75,0.515,1,1111.806
22,211,target,"[(1054, 893)]",[],[1],[0.6166666666666667],vertical,"(890.0, 262.0)",0.7833333333333333,0.571,1,1116.075
22,212,target,"[(1072, 889)]",[],[1],[0.5166666666666666],vertical,"(890.0, 762.0)",1.2833333333333332,0.478,1,1120.436
22,213,catch,"[(1072, 901)]",[],[1],[0.85],vertical,"(890.0, 762.0)",0.6166666666666667,nan,1,1126.426
22,214,target,"[(1110, 877)]",[],[1],[0.5666666666666667],vertical,"(890.0, 262.0)",0.5,0.527,1,1131.016
22,215,target,"[(1125, 902)]",[],[1],[0.5],vertical,"(890.0, 262.0)",0.8833333333333333,0.46,1,1135.434
22,216,target,"[(1072, 898)]",[],[1],[0.55],horizontal,"(390.0, 762.0)",0.9666666666666667,0.503,1,1140.238
22,217,target,"[(1100, 909)]",[],[1],[0.25],vertical,"(890.0, 762.0)",1.4333333333333333,0.215,1,1145.087
22,218,target,"[(1094, 903)]",[],[1],[0.5833333333333334],horizontal,"(390.0, 762.0)",1.0333333333333332,0.543,1,1149.96
22,219,target,"[(1072, 899)]",[],[1],[0.5166666666666666],horizontal,"(890.0, 262.0)",1.4333333333333333,0.474,1,1154.732
22,220,target,"[(1072, 915)]",[],[1],[0.6],horizontal,"(890.0, 262.0)",0.9833333333333333,0.555,1,1159.621
23,221,target,"[(1075, 907)]",[],[1],[0.6333333333333333],vertical,"(390.0, 762.0)",0.65,0.59,1,1164.358
23,222,target,"[(1096, 897)]",[],[1],[0.4166666666666667],horizontal,"(390.0, 262.0)",1.5,0.374,1,1168.919
23,223,target,"[(1075, 897)]",[],[1],[0.5],horizontal,"(890.0, 262.0)",1.5666666666666667,0.459,1,1173.693
23,224,target,"[(1077, 894)]",[],[1],[0.48333333333333334],vertical,"(890.0, 262.0)",1.2,0.452,1,1178.929
23,225,target,"[(1096, 911)]",[],[1],[0.5333333333333333],horizontal,"(390.0, 762.0)",0.75,0.491,1,1183.403
23,226,target,"[(1075, 902)]",[],[1],[0.45],vertical,"(890.0, 262.0)",1.2166666666666666,0.412,1,1187.637
23,227,target,"[(1072, 894)]",[],[1],[0.4666666666666667],horizontal,"(890.0, 262.0)",0.9666666666666667,0.427,1,1192.503
23,228,target,"[(1072, 914)]",[],[1],[0.6],vertical,"(890.0, 262.0)",0.8833333333333333,0.566,1,1196.933
23,229,target,"[(1083, 893)]",[],[1],[0.5333333333333333],horizontal,"(890.0, 262.0)",0.9833333333333333,0.493,1,1201.436
23,230,target,"[(1072, 894)]",[],[1],[0.5666666666666667],horizontal,"(890.0, 262.0)",1.1833333333333333,0.535,1,1206.095
24,231,target,"[(1082, 900)]",[],[1],[0.6666666666666666],vertical,"(890.0, 762.0)",0.85,0.624,1,1211.152
24,232,target,"[(1071, 911)]",[],[1],[0.5],horizontal,"(390.0, 262.0)",1.05,0.466,1,1215.607
24,233,target,"[(1072, 917)]",[],[1],[0.5],vertical,"(390.0, 762.0)",1.4833333333333334,0.459,1,1225.953
24,234,target,"[(1077, 906)]",[],[1],[0.48333333333333334],horizontal,"(890.0, 762.0)",1.3833333333333333,0.446,1,1230.671
24,235,target,"[(1072, 906)]",[],[1],[0.4666666666666667],horizontal,"(890.0, 262.0)",1.5333333333333332,0.427,1,1236.026
24,236,target,"[(1105, 899)]",[],[1],[0.5],vertical,"(390.0, 262.0)",1.4,0.456,1,1241.404
24,237,catch,"[(1052, 914)]",[],[1],[0.6166666666666667],vertical,"(390.0, 762.0)",1.2,0.592,0,1246.222
24,238,catch,"[(1110, 884)]",[],[1],[0.85],vertical,"(390.0, 262.0)",0.65,nan,1,1251.303
24,239,target,"[(1096, 894)]",[],[1],[0.7166666666666667],horizontal,"(890.0, 762.0)",0.9833333333333333,0.679,1,1255.654
24,240,target,"[(1072, 856)]",[],[1],[0.5833333333333334],vertical,"(390.0, 262.0)",0.65,0.548,1,1260.938
25,241,target,"[(1084, 909)]",[],[1],[0.4666666666666667],horizontal,"(390.0, 262.0)",1.3,0.425,1,1265.527
25,242,target,"[(1072, 911)]",[],[1],[],vertical,"(390.0, 262.0)",,cti_phase,0,1270.324
25,243,target,"[(1094, 890)]",[],[1],[0.45],vertical,"(890.0, 262.0)",1.55,0.405,1,1275.166
25,244,target,"[(1072, 898)]",[],[1],[0.5],vertical,"(890.0, 262.0)",1.4166666666666667,0.459,1,1280.374
25,245,target,"[(1077, 890)]",[],[1],[0.5333333333333333],horizontal,"(890.0, 262.0)",0.5,0.496,1,1285.276
25,246,target,"[(1108, 898)]",[],[1],[0.4666666666666667],horizontal,"(390.0, 262.0)",1.5166666666666666,0.441,1,1289.77
25,247,target,"[(1091, 896)]",[],[1],[0.6333333333333333],horizontal,"(890.0, 262.0)",0.5166666666666666,0.594,1,1294.619
25,248,target,"[(1073, 906)]",[],[1],[0.5833333333333334],vertical,"(390.0, 762.0)",0.9333333333333333,0.543,1,1299.038
25,249,target,"[(1093, 910)]",[],[1],[0.5166666666666666],vertical,"(890.0, 762.0)",1.25,0.472,1,1303.314
25,250,target,"[(1072, 900)]",[],[1],[0.65],vertical,"(390.0, 762.0)",1.3833333333333333,0.605,1,1308.131
26,251,target,"[(1072, 896)]",[],[1],[0.21666666666666667],horizontal,"(390.0, 262.0)",1.4666666666666666,0.185,1,1312.907
26,252,target,"[(1086, 906)]",[],[1],[0.5333333333333333],horizontal,"(390.0, 262.0)",0.85,0.495,1,1317.937
26,253,target,"[(1077, 906)]",[],[1],[0.6166666666666667],vertical,"(390.0, 262.0)",0.75,0.578,1,1322.355
26,254,target,"[(1083, 914)]",[],[1],[0.48333333333333334],horizontal,"(390.0, 262.0)",1.5333333333333332,0.446,1,1326.598
26,255,target,"[(1090, 915)]",[],[1],[0.6],vertical,"(390.0, 262.0)",0.75,0.56,1,1331.688
26,256,target,"[(1107, 892)]",[],[1],[0.55],vertical,"(390.0, 262.0)",0.8166666666666667,0.512,1,1335.896
26,257,target,"[(1062, 901)]",[],[1],[0.5666666666666667],horizontal,"(390.0, 762.0)",1.1666666666666667,0.525,1,1340.022
26,258,catch,"[(1081, 897)]",[],[1],[0.85],vertical,"(890.0, 262.0)",1.5833333333333333,nan,1,1344.655
26,259,target,"[(1072, 891)]",[],[1],[0.5166666666666666],vertical,"(390.0, 762.0)",1.0,0.478,1,1349.969
26,260,target,"[(1074, 899)]",[],[1],[0.48333333333333334],horizontal,"(390.0, 262.0)",0.9666666666666667,0.444,1,1354.403
27,261,target,"[(1072, 902)]",[],[1],[],horizontal,"(390.0, 762.0)",,cti_phase,0,1359.37
27,262,target,"[(1085, 895)]",[],[1],[0.5666666666666667],horizontal,"(890.0, 262.0)",0.8,0.526,1,1363.637
27,263,target,"[(1086, 910)]",[],[1],[0.5666666666666667],horizontal,"(890.0, 262.0)",0.5833333333333334,0.527,1,1367.72
27,264,catch,"[(1072, 909)]",[],[1],[],vertical,"(890.0, 262.0)",,cti_phase,0,1371.806
27,265,target,"[(1085, 876)]",[],[1],[0.7333333333333333],horizontal,"(390.0, 262.0)",1.0166666666666666,0.687,1,1376.76
27,266,target,"[(1072, 916)]",[],[1],[0.55],horizontal,"(890.0, 262.0)",1.35,0.506,1,1382.256
27,267,target,"[(1070, 905)]",[],[1],[0.11666666666666667],horizontal,"(390.0, 262.0)",1.5166666666666666,0.082,1,1387.453
27,268,target,"[(1072, 911)]",[],[1],[0.85],vertical,"(390.0, 762.0)",0.55,nan,0,1392.321
27,269,target,"[(1071, 904)]",[],[1],[0.48333333333333334],horizontal,"(390.0, 762.0)",1.5833333333333333,0.448,1,1396.326
27,270,target,"[(1054, 909)]",[],[1],[0.5166666666666666],vertical,"(390.0, 262.0)",0.75,0.474,1,1402.046
28,271,target,"[(1072, 898)]",[],[1],[0.5],horizontal,"(390.0, 262.0)",0.8333333333333334,0.462,1,1406.354
28,272,target,"[(1094, 903)]",[],[1],[0.5],horizontal,"(890.0, 762.0)",1.3333333333333333,0.457,1,1411.054
28,273,target,"[(1091, 907)]",[],[1],[0.3],horizontal,"(390.0, 762.0)",1.2666666666666666,0.269,1,1416.054
28,274,target,"[(1077, 901)]",[],[1],[0.5],vertical,"(890.0, 262.0)",0.8333333333333334,0.462,1,1420.68
28,275,target,"[(1115, 903)]",[],[1],[0.7333333333333333],horizontal,"(390.0, 262.0)",0.75,0.69,1,1425.353
28,276,target,"[(1071, 893)]",[],[1],[0.5333333333333333],vertical,"(390.0, 262.0)",0.5666666666666667,0.484,1,1429.62
28,277,target,"[(1092, 893)]",[],[1],[0.2833333333333333],vertical,"(390.0, 762.0)",1.45,0.252,1,1433.786
28,278,target,"[(1067, 895)]",[],[1],[],horizontal,"(390.0, 762.0)",,cti_phase,0,1438.384
28,279,target,"[(1101, 890)]",[],[1],[0.5166666666666666],vertical,"(390.0, 262.0)",0.7666666666666666,0.477,1,1443.4
28,280,target,"[(1078, 919)]",[],[1],[0.5],vertical,"(890.0, 762.0)",1.6833333333333333,0.461,1,1447.581
29,281,target,"[(1098, 903)]",[],[1],[0.16666666666666666],horizontal,"(890.0, 762.0)",1.5833333333333333,0.133,1,1452.504
29,282,target,"[(1072, 896)]",[],[1],[0.48333333333333334],horizontal,"(890.0, 262.0)",1.35,0.443,1,1457.406
29,283,target,"[(1082, 909)]",[],[1],[0.5166666666666666],horizontal,"(890.0, 262.0)",0.8333333333333334,0.477,1,1462.07
29,284,target,"[(1100, 919)]",[],[1],[0.5],horizontal,"(890.0, 262.0)",1.1166666666666667,0.459,1,1466.522
29,285,target,"[(1084, 891)]",[],[1],[0.48333333333333334],vertical,"(390.0, 262.0)",1.6833333333333333,0.447,1,1471.448
29,286,target,"[(1111, 905)]",[],[1],[0.5666666666666667],horizontal,"(890.0, 262.0)",0.5333333333333333,0.525,1,1476.922
29,287,target,"[(1100, 920)]",[],[1],[0.5333333333333333],horizontal,"(390.0, 262.0)",0.6166666666666667,0.501,1,1481.106
29,288,target,"[(1082, 892)]",[],[1],[0.5333333333333333],horizontal,"(890.0, 762.0)",0.6166666666666667,0.495,1,1484.933
29,289,target,"[(1102, 902)]",[],[1],[0.5333333333333333],horizontal,"(390.0, 762.0)",0.6,0.491,1,1489.369
29,290,target,"[(1062, 884)]",[],[1],[0.55],vertical,"(390.0, 762.0)",0.55,0.507,1,1493.791
30,291,target,"[(1067, 889)]",[],[1],[0.4666666666666667],horizontal,"(390.0, 262.0)",1.1666666666666667,0.432,1,1497.899
30,292,target,"[(1072, 909)]",[],[1],[0.5166666666666666],horizontal,"(890.0, 762.0)",0.7333333333333333,0.477,1,1502.769
30,293,target,"[(1062, 884)]",[],[1],[0.5],horizontal,"(390.0, 262.0)",1.35,0.459,1,1507.478
30,294,target,"[(1076, 919)]",[],[1],[0.85],vertical,"(890.0, 762.0)",0.6,nan,0,1632.954
30,295,target,"[(1118, 883)]",[],[1],[0.5333333333333333],horizontal,"(390.0, 762.0)",0.65,0.496,1,1637.839
30,296,target,"[(1065, 905)]",[],[1],[0.55],vertical,"(890.0, 262.0)",1.2166666666666666,0.508,1,1642.538
30,297,target,"[(1101, 919)]",[],[1],[0.6333333333333333],horizontal,"(890.0, 762.0)",1.0333333333333332,0.591,1,1647.105
30,298,target,"[(1082, 890)]",[],[1],[0.5833333333333334],horizontal,"(390.0, 762.0)",0.8666666666666667,0.54,1,1651.923
30,299,target,"[(1097, 906)]",[],[1],[0.5333333333333333],vertical,"(390.0, 262.0)",0.9833333333333333,0.493,1,1656.164
30,300,target,"[(1093, 907)]",[],[1],[0.5333333333333333],horizontal,"(390.0, 762.0)",1.5666666666666667,0.489,1,1660.898
31,301,target,"[(1101, 892)]",[],[1],[0.5],vertical,"(390.0, 762.0)",0.9666666666666667,0.472,1,1665.967
31,302,target,"[(1089, 914)]",[],[1],[0.55],vertical,"(890.0, 762.0)",1.5,0.507,1,1670.756
31,303,target,"[(1072, 899)]",[],[1],[0.55],horizontal,"(390.0, 262.0)",0.6666666666666666,0.51,1,1675.723
31,304,target,"[(1097, 890)]",[],[1],[0.5333333333333333],vertical,"(390.0, 762.0)",1.1666666666666667,0.495,1,1679.792
31,305,target,"[(1100, 919)]",[],[1],[0.6166666666666667],horizontal,"(390.0, 762.0)",0.55,0.573,1,1684.187
31,306,target,"[(1082, 892)]",[],[1],[0.5833333333333334],horizontal,"(390.0, 762.0)",0.8333333333333334,0.542,1,1688.272
31,307,target,"[(1072, 913)]",[],[1],[0.55],horizontal,"(890.0, 262.0)",1.1333333333333333,0.514,1,1692.762
31,308,target,"[(1093, 899)]",[],[1],[0.5166666666666666],horizontal,"(890.0, 262.0)",0.6333333333333333,0.474,1,1697.34
31,309,target,"[(1120, 918)]",[],[1],[0.5333333333333333],vertical,"(390.0, 762.0)",1.0666666666666667,0.49,1,1701.82
31,310,target,"[(1111, 895)]",[],[1],[0.4166666666666667],vertical,"(390.0, 262.0)",1.5666666666666667,0.376,1,1706.091
32,311,target,"[(1105, 887)]",[],[1],[0.5833333333333334],vertical,"(390.0, 762.0)",1.45,0.548,1,1711.377
32,312,target,"[(1111, 897)]",[],[1],[0.7833333333333333],vertical,"(390.0, 262.0)",0.9333333333333333,0.735,1,1716.205
32,313,catch,"[(1080, 885)]",[],[1],[0.85],vertical,"(390.0, 762.0)",0.7666666666666666,nan,1,1721.221
32,314,catch,"[(1084, 922)]",[],[1],[0.45],horizontal,"(890.0, 762.0)",1.6666666666666667,0.422,0,1725.611
32,315,target,"[(1100, 892)]",[],[1],[0.55],vertical,"(390.0, 762.0)",0.8833333333333333,0.51,1,1730.738
32,316,catch,"[(1100, 922)]",[],[1],[0.85],vertical,"(890.0, 262.0)",0.7,nan,1,1735.311
32,317,target,"[(1082, 895)]",[],[1],[0.5666666666666667],horizontal,"(890.0, 762.0)",1.0,0.524,1,1740.111
32,318,target,"[(1104, 902)]",[],[1],[0.5666666666666667],horizontal,"(390.0, 762.0)",0.6166666666666667,0.525,1,1744.857
32,319,target,"[(1072, 909)]",[],[1],[0.5166666666666666],horizontal,"(390.0, 262.0)",0.8833333333333333,0.472,1,1748.989
32,320,target,"[(1092, 913)]",[],[1],[0.5166666666666666],vertical,"(890.0, 762.0)",1.5333333333333332,0.472,1,1753.545
33,321,target,"[(1082, 919)]",[],[1],[0.5],horizontal,"(890.0, 762.0)",1.5166666666666666,0.46,1,1758.323
33,322,catch,"[(1098, 899)]",[],[1],[0.85],vertical,"(890.0, 262.0)",0.5666666666666667,nan,1,1763.871
33,323,target,"[(1107, 880)]",[],[1],[0.5166666666666666],vertical,"(890.0, 262.0)",1.0833333333333333,0.479,1,1767.99
33,324,target,"[(1109, 899)]",[],[1],[0.6833333333333333],horizontal,"(890.0, 262.0)",0.6,0.633,1,1772.538
33,325,target,"[(1094, 897)]",[],[1],[0.5333333333333333],vertical,"(890.0, 762.0)",0.9166666666666666,0.492,1,1776.528
33,326,target,"[(1078, 897)]",[],[1],[0.55],horizontal,"(890.0, 262.0)",1.1333333333333333,0.512,1,1781.406
33,327,catch,"[(1100, 895)]",[],[1],[0.35],horizontal,"(390.0, 762.0)",1.6166666666666667,0.316,0,1786.29
33,328,target,"[(1105, 871)]",[],[1],[0.5166666666666666],vertical,"(890.0, 262.0)",1.0,0.475,1,1791.274
33,329,target,"[(1095, 907)]",[],[1],[0.55],vertical,"(390.0, 262.0)",0.5333333333333333,0.503,1,1799.005
33,330,target,"[(1091, 898)]",[],[1],[0.43333333333333335],horizontal,"(390.0, 762.0)",1.5833333333333333,0.394,1,1803.034
34,331,target,"[(1098, 909)]",[],[1],[0.65],horizontal,"(890.0, 762.0)",1.0,0.61,1,1808.445
34,332,target,"[(1102, 922)]",[],[1],[0.5333333333333333],horizontal,"(390.0, 762.0)",1.6666666666666667,0.496,1,1812.964
34,333,target,"[(1086, 904)]",[],[1],[0.6166666666666667],horizontal,"(890.0, 262.0)",1.55,0.576,1,1818.39
34,334,target,"[(1090, 894)]",[],[1],[0.5166666666666666],horizontal,"(890.0, 262.0)",1.4833333333333334,0.477,1,1823.639
34,335,target,"[(1120, 883)]",[],[1],[0.5666666666666667],horizontal,"(890.0, 762.0)",1.65,0.523,1,1829.04
34,336,target,"[(1082, 904)]",[],[1],[0.5666666666666667],horizontal,"(890.0, 262.0)",0.5,0.524,1,1834.082
34,337,catch,"[(1089, 898)]",[],[1],[0.85],horizontal,"(890.0, 762.0)",1.0333333333333332,nan,1,1837.873
34,338,catch,"[(1111, 888)]",[],[1],[0.85],vertical,"(390.0, 762.0)",1.2833333333333332,nan,1,1842.883
34,339,catch,"[(1123, 903)]",[],[1],[0.85],vertical,"(890.0, 262.0)",1.3166666666666667,nan,1,1847.823
34,340,target,"[(1124, 892)]",[],[1],[0.5333333333333333],horizontal,"(890.0, 262.0)",0.55,0.492,1,1853.024
35,341,target,"[(1115, 895)]",[],[1],[0.5666666666666667],vertical,"(890.0, 262.0)",0.7333333333333333,0.527,1,1857.404
35,342,target,"[(1100, 898)]",[],[1],[0.48333333333333334],horizontal,"(890.0, 262.0)",1.2333333333333334,0.446,1,1861.722
35,343,target,"[(1105, 898)]",[],[1],[0.6333333333333333],vertical,"(390.0, 262.0)",0.95,0.593,1,1866.479
35,344,catch,"[(1076, 908)]",[],[1],[0.85],vertical,"(890.0, 762.0)",0.6166666666666667,nan,1,1871.111
35,345,target,"[(1117, 885)]",[],[1],[0.5666666666666667],horizontal,"(390.0, 762.0)",0.7166666666666667,0.528,1,1875.485
35,346,target,"[(1097, 898)]",[],[1],[0.45],vertical,"(890.0, 262.0)",1.6833333333333333,0.411,1,1880.185
35,347,target,"[(1073, 898)]",[],[1],[0.6333333333333333],horizontal,"(390.0, 762.0)",1.05,0.59,1,1885.182
35,348,target,"[(1067, 890)]",[],[1],[0.5666666666666667],vertical,"(890.0, 762.0)",0.6333333333333333,0.526,1,1890.407
35,349,target,"[(1114, 895)]",[],[1],[0.5166666666666666],horizontal,"(890.0, 262.0)",1.45,0.485,1,1894.822
35,350,target,"[(1082, 892)]",[],[1],[0.5166666666666666],horizontal,"(390.0, 262.0)",1.2833333333333332,0.475,1,1899.583
36,351,target,"[(1091, 895)]",[],[1],[0.5333333333333333],horizontal,"(890.0, 762.0)",1.5,0.491,1,1904.063
36,352,catch,"[(1077, 909)]",[],[1],[0.85],vertical,"(390.0, 762.0)",0.6166666666666667,nan,1,1908.938
36,353,target,"[(1072, 889)]",[],[1],[0.7833333333333333],horizontal,"(390.0, 762.0)",0.8166666666666667,0.741,1,1913.474
36,354,target,"[(1055, 882)]",[],[1],[0.5333333333333333],vertical,"(890.0, 262.0)",0.75,0.491,1,1918.237
36,355,target,"[(1104, 893)]",[],[1],[0.5333333333333333],horizontal,"(890.0, 762.0)",1.0333333333333332,0.49,1,1922.844
36,356,target,"[(1091, 894)]",[],[1],[0.48333333333333334],vertical,"(890.0, 262.0)",1.3833333333333333,0.445,1,1927.29
36,357,target,"[(1098, 889)]",[],[1],[0.85],vertical,"(890.0, 262.0)",0.6833333333333333,nan,0,1932.555
36,358,target,"[(1084, 870)]",[],[1],[0.7166666666666667],horizontal,"(390.0, 762.0)",1.6666666666666667,0.675,1,1937.14
36,359,target,"[(1114, 892)]",[],[1],[0.6833333333333333],horizontal,"(390.0, 262.0)",0.6833333333333333,0.641,1,1942.796
36,360,target,"[(1082, 889)]",[],[1],[0.5333333333333333],horizontal,"(890.0, 762.0)",0.6333333333333333,0.494,1,1947.506
37,361,target,"[(1101, 921)]",[],[1],[0.43333333333333335],horizontal,"(890.0, 762.0)",1.3833333333333333,0.391,1,1951.763
37,362,target,"[(1105, 890)]",[],[1],[0.6],vertical,"(890.0, 762.0)",0.6,0.563,1,1956.889
37,363,target,"[(1105, 887)]",[],[1],[0.5833333333333334],vertical,"(890.0, 762.0)",0.8166666666666667,0.544,1,1960.92
37,364,target,"[(1096, 892)]",[],[1],[0.5833333333333334],vertical,"(890.0, 262.0)",1.2,0.543,1,1965.44
37,365,target,"[(1105, 909)]",[],[1],[0.55],horizontal,"(890.0, 262.0)",1.2,0.51,1,1970.078
37,366,target,"[(1117, 895)]",[],[1],[0.55],vertical,"(390.0, 762.0)",0.6333333333333333,0.509,1,1974.857
37,367,target,"[(1086, 894)]",[],[1],[0.6],horizontal,"(390.0, 762.0)",0.5,0.556,1,1979.124
37,368,target,"[(1093, 902)]",[],[1],[0.55],vertical,"(890.0, 262.0)",0.5833333333333334,0.505,1,1983.308
37,369,catch,"[(1115, 895)]",[],[1],[0.36666666666666664],vertical,"(390.0, 762.0)",1.5166666666666666,0.33,0,1987.84
37,370,target,"[(1112, 874)]",[],[1],[0.48333333333333334],vertical,"(390.0, 262.0)",1.65,0.445,1,1992.848
38,371,target,"[(1096, 901)]",[],[1],[0.5333333333333333],vertical,"(890.0, 762.0)",0.5166666666666666,0.494,1,1997.996
38,372,target,"[(1077, 893)]",[],[1],[0.48333333333333334],horizontal,"(890.0, 262.0)",1.6166666666666667,0.444,1,2001.923
38,373,target,"[(1091, 902)]",[],[1],[0.5],horizontal,"(890.0, 262.0)",1.3166666666666667,0.459,1,2006.751
38,374,target,"[(1098, 892)]","[(1120, 886)]",[1],[0.3],horizontal,"(390.0, 262.0)",,bar_phase,0,2011.566
38,375,target,"[(1082, 891)]",[],[1],[0.3333333333333333],horizontal,"(390.0, 762.0)",1.3666666666666667,0.299,1,2014.251
38,376,target,"[(1076, 898)]",[],[1],[0.5833333333333334],vertical,"(890.0, 262.0)",0.5666666666666667,0.538,1,2018.908
38,377,target,"[(1075, 889)]",[],[1],[0.55],horizontal,"(390.0, 762.0)",0.9333333333333333,0.517,1,2023.241
38,378,catch,"[(1067, 886)]",[],[1],[0.85],vertical,"(390.0, 262.0)",0.55,nan,1,2027.586
38,379,target,"[(1066, 893)]",[],[1],[0.5666666666666667],horizontal,"(890.0, 762.0)",0.5833333333333334,0.528,1,2032.262
38,380,target,"[(1073, 910)]",[],[1],[0.85],horizontal,"(890.0, 262.0)",1.15,nan,0,2263.476
39,381,target,"[(1069, 909)]",[],[1],[0.55],horizontal,"(890.0, 262.0)",0.7166666666666667,0.505,1,2268.969
39,382,catch,"[(1078, 909)]",[],[1],[0.85],vertical,"(890.0, 262.0)",1.3,nan,1,2273.665
39,383,catch,"[(1096, 902)]",[],[1],[0.7],horizontal,"(890.0, 762.0)",1.4,0.656,0,2278.917
39,384,target,"[(1107, 898)]",[],[1],[0.55],vertical,"(890.0, 262.0)",0.9333333333333333,0.509,1,2283.897
39,385,catch,"[(1105, 909)]",[],[1],[0.85],horizontal,"(890.0, 262.0)",1.0666666666666667,nan,1,2288.575
39,386,target,"[(1099, 905)]",[],[1],[0.55],vertical,"(390.0, 762.0)",1.6333333333333333,0.504,1,2293.924
39,387,catch,"[(1105, 910)]",[],[1],[0.85],horizontal,"(390.0, 262.0)",0.7833333333333333,nan,1,2299.308
39,388,target,"[(1105, 885)]",[],[1],[0.4666666666666667],horizontal,"(390.0, 262.0)",1.1166666666666667,0.424,1,2304.024
39,389,target,"[(1100, 912)]",[],[1],[0.6166666666666667],horizontal,"(890.0, 762.0)",1.15,0.574,1,2308.816
39,390,target,"[(1070, 896)]",[],[1],[0.48333333333333334],horizontal,"(890.0, 262.0)",1.6833333333333333,0.443,1,2313.392
40,391,target,"[(1068, 909)]",[],[1],[0.5833333333333334],vertical,"(890.0, 762.0)",0.9666666666666667,0.541,1,2319.552
40,392,target,"[(1100, 892)]",[],[1],[0.5833333333333334],horizontal,"(390.0, 762.0)",1.1,0.542,1,2324.468
40,393,target,"[(1109, 910)]",[],[1],[0.5166666666666666],horizontal,"(390.0, 262.0)",0.75,0.473,1,2329.237
40,394,catch,"[(1091, 905)]",[],[1],[0.85],vertical,"(390.0, 262.0)",1.0333333333333332,nan,1,2333.101
40,395,target,"[(1091, 896)]",[],[1],[0.5833333333333334],vertical,"(390.0, 762.0)",0.55,0.535,1,2338.113
40,396,target,"[(1096, 898)]",[],[1],[0.48333333333333334],horizontal,"(890.0, 762.0)",1.15,0.44,1,2343.574
40,397,target,"[(1074, 902)]",[],[1],[0.55],vertical,"(390.0, 262.0)",1.1,0.507,1,2347.978
40,398,target,"[(1073, 886)]",[],[1],[0.5666666666666667],vertical,"(390.0, 762.0)",1.1666666666666667,0.523,1,2352.876
40,399,target,"[(1091, 901)]",[],[1],[0.5833333333333334],horizontal,"(890.0, 262.0)",1.0833333333333333,0.534,1,2357.776
40,400,target,"[(1112, 887)]",[],[1],[0.5],horizontal,"(390.0, 262.0)",1.3166666666666667,0.457,1,2362.713
41,401,target,"[(1072, 905)]",[],[1],[0.5333333333333333],vertical,"(890.0, 262.0)",0.95,0.493,1,2367.776
41,402,target,"[(1089, 902)]",[],[1],[0.5333333333333333],horizontal,"(390.0, 762.0)",1.6,0.491,1,2372.131
41,403,target,"[(1072, 899)]",[],[1],[0.8],vertical,"(890.0, 262.0)",0.5333333333333333,0.755,1,2377.141
41,404,target,"[(1096, 899)]",[],[1],[0.5333333333333333],vertical,"(390.0, 762.0)",1.0,0.49,1,2381.441
41,405,target,"[(1096, 893)]",[],[1],[0.48333333333333334],vertical,"(890.0, 262.0)",1.0333333333333332,0.458,1,2386.25
41,406,target,"[(1100, 909)]",[],[1],[0.55],horizontal,"(890.0, 262.0)",0.7333333333333333,0.506,1,2390.643
41,407,target,"[(1075, 888)]",[],[1],[0.5],vertical,"(390.0, 262.0)",1.4166666666666667,0.461,1,2394.624
41,408,target,"[(1086, 907)]",[],[1],[0.7],vertical,"(890.0, 262.0)",0.85,0.653,1,2400.041
41,409,target,"[(1096, 899)]",[],[1],[0.5333333333333333],horizontal,"(390.0, 762.0)",1.1333333333333333,0.492,1,2404.812
41,410,target,"[(1096, 903)]",[],[1],[0.6],vertical,"(890.0, 262.0)",1.3833333333333333,0.56,1,2409.664
42,411,target,"[(1092, 915)]",[],[1],[0.6],horizontal,"(890.0, 762.0)",0.8,0.555,1,2414.731
42,412,target,"[(1103, 899)]",[],[1],[0.6],horizontal,"(390.0, 762.0)",0.75,0.554,1,2419.364
42,413,target,"[(1091, 899)]",[],[1],[0.5666666666666667],vertical,"(890.0, 762.0)",1.4166666666666667,0.523,1,2423.992
42,414,target,"[(1076, 889)]",[],[1],[0.5666666666666667],horizontal,"(890.0, 262.0)",1.0333333333333332,0.524,1,2429.121
42,415,catch,"[(1092, 919)]",[],[1],[0.85],vertical,"(390.0, 262.0)",0.6666666666666666,nan,1,2433.786
42,416,target,"[(1100, 876)]",[],[1],[0.6333333333333333],vertical,"(390.0, 262.0)",1.1166666666666667,0.59,1,2438.775
42,417,target,"[(1072, 903)]",[],[1],[0.75],horizontal,"(390.0, 762.0)",0.8666666666666667,0.702,1,2443.807
42,418,catch,"[(1067, 901)]",[],[1],[0.5],vertical,"(390.0, 262.0)",1.45,0.46,0,2448.208
42,419,target,"[(1072, 909)]",[],[1],[0.6333333333333333],vertical,"(890.0, 262.0)",1.4666666666666666,0.59,1,2453.271
42,420,target,"[(1077, 901)]",[],[1],[0.5666666666666667],vertical,"(390.0, 262.0)",0.6166666666666667,0.524,1,2458.585
43,421,target,"[(1078, 903)]",[],[1],[0.4666666666666667],horizontal,"(390.0, 262.0)",1.45,0.422,1,2462.522
43,422,target,"[(1076, 909)]",[],[1],[0.5833333333333334],horizontal,"(390.0, 262.0)",0.65,0.541,1,2467.242
43,423,target,"[(1095, 906)]",[],[1],[0.7],vertical,"(890.0, 762.0)",0.7833333333333333,0.653,1,2471.126
43,424,target,"[(1086, 902)]",[],[1],[0.55],vertical,"(390.0, 762.0)",0.5833333333333334,0.509,1,2475.74
43,425,catch,"[(1067, 910)]",[],[1],[0.85],vertical,"(390.0, 762.0)",0.5166666666666666,nan,1,2480.308
43,426,catch,"[(1086, 892)]",[],[1],[0.85],vertical,"(890.0, 262.0)",0.5,nan,1,2484.708
43,427,target,"[(1100, 895)]",[],[1],[0.5333333333333333],vertical,"(390.0, 762.0)",0.8333333333333334,0.49,1,2489.042
43,428,target,"[(1096, 898)]",[],[1],[0.65],vertical,"(890.0, 762.0)",1.4,0.607,1,2493.291
43,429,target,"[(1077, 899)]",[],[1],[0.4666666666666667],vertical,"(890.0, 762.0)",0.7333333333333333,0.426,1,2498.53
43,430,target,"[(1086, 905)]",[],[1],[0.2],vertical,"(390.0, 762.0)",1.5,0.165,1,2503.024
44,431,target,"[(1082, 893)]",[],[1],[0.5166666666666666],vertical,"(890.0, 262.0)",0.5833333333333334,0.475,1,2507.719
44,432,target,"[(1064, 893)]",[],[1],[0.2833333333333333],horizontal,"(390.0, 262.0)",1.3833333333333333,0.249,1,2512.227
44,433,target,"[(1096, 900)]",[],[1],[0.55],horizontal,"(890.0, 262.0)",1.25,0.509,1,2516.858
44,434,target,"[(1068, 907)]",[],[1],[0.4666666666666667],horizontal,"(890.0, 262.0)",1.5833333333333333,0.431,1,2522.124
44,435,target,"[(1076, 904)]",[],[1],[0.5666666666666667],vertical,"(890.0, 262.0)",0.9833333333333333,0.523,1,2527.218
44,436,target,"[(1100, 868)]",[],[1],[0.5666666666666667],vertical,"(890.0, 262.0)",0.5666666666666667,0.52,1,2531.745
44,437,target,"[(1088, 912)]",[],[1],[0.06666666666666667],horizontal,"(390.0, 762.0)",1.2833333333333332,0.037,1,2535.815
44,438,target,"[(1072, 901)]",[],[1],[0.4666666666666667],horizontal,"(890.0, 762.0)",1.2666666666666666,0.424,1,2540.317
44,439,target,"[(1077, 884)]",[],[1],[0.5333333333333333],vertical,"(890.0, 762.0)",0.5333333333333333,0.491,1,2544.824
44,440,target,"[(1074, 897)]",[],[1],[0.11666666666666667],horizontal,"(390.0, 762.0)",1.3666666666666667,0.085,1,2548.892
45,441,target,"[(1072, 896)]",[],[1],[0.6],horizontal,"(890.0, 762.0)",1.3,0.557,1,2553.698
45,442,target,"[(1089, 892)]",[],[1],[0.5333333333333333],horizontal,"(390.0, 762.0)",1.0333333333333332,0.49,1,2559.142
45,443,target,"[(1072, 912)]",[],[1],[0.6],horizontal,"(390.0, 262.0)",0.7,0.561,1,2564.093
45,444,target,"[(1104, 893)]",[],[1],[0.5],vertical,"(390.0, 762.0)",1.5833333333333333,0.457,1,2568.758
45,445,target,"[(1104, 909)]",[],[1],[0.43333333333333335],horizontal,"(390.0, 262.0)",1.4333333333333333,0.391,1,2573.759
45,446,target,"[(1120, 905)]",[],[1],[0.4666666666666667],horizontal,"(390.0, 262.0)",1.2833333333333332,0.427,1,2578.802
45,447,target,"[(1100, 899)]",[],[1],[0.5333333333333333],vertical,"(890.0, 762.0)",0.7833333333333333,0.491,1,2583.215
45,448,target,"[(1096, 914)]",[],[1],[0.85],vertical,"(890.0, 262.0)",1.05,nan,0,2587.537
45,449,target,"[(1096, 882)]",[],[1],[0.5666666666666667],vertical,"(390.0, 762.0)",1.5166666666666666,0.528,1,2592.095
45,450,target,"[(1095, 899)]",[],[1],[0.25],vertical,"(390.0, 762.0)",1.35,0.214,1,2597.292
46,451,target,"[(1076, 903)]",[],[1],[0.5666666666666667],horizontal,"(390.0, 762.0)",0.6333333333333333,0.523,1,2602.138
46,452,catch,"[(1083, 893)]",[],[1],[0.5333333333333333],horizontal,"(890.0, 762.0)",1.2666666666666666,0.487,0,2606.342
46,453,target,"[(1115, 897)]",[],[1],[0.05],vertical,"(890.0, 762.0)",1.6,0.02,1,2611.06
46,454,target,"[(1125, 895)]",[],[1],[0.5166666666666666],vertical,"(390.0, 262.0)",1.0666666666666667,0.474,1,2615.761
46,455,target,"[(1096, 904)]",[],[1],[0.5],vertical,"(390.0, 262.0)",1.1,0.465,1,2620.211
46,456,catch,"[(1077, 906)]",[],[1],[0.6],horizontal,"(390.0, 262.0)",1.2666666666666666,0.566,0,2625.091
46,457,target,"[(1105, 888)]",[],[1],[0.6],horizontal,"(890.0, 762.0)",1.6,0.556,1,2630.225
46,458,target,"[(1084, 906)]",[],[1],[0.5],vertical,"(890.0, 762.0)",1.3,0.465,1,2635.193
46,459,target,"[(1121, 909)]",[],[1],[0.5333333333333333],horizontal,"(890.0, 262.0)",0.9833333333333333,0.487,1,2639.987
46,460,target,"[(1082, 900)]",[],[1],[0.5],horizontal,"(390.0, 762.0)",1.1833333333333333,0.46,1,2644.229
47,461,target,"[(1072, 902)]",[],[1],[0.65],horizontal,"(890.0, 762.0)",0.7166666666666667,0.615,1,2649.003
47,462,target,"[(1072, 899)]",[],[1],[0.5333333333333333],vertical,"(890.0, 262.0)",1.1,0.489,1,2653.64
47,463,target,"[(1115, 909)]",[],[1],[0.6],vertical,"(390.0, 762.0)",0.7166666666666667,0.56,1,2658.526
47,464,target,"[(1091, 895)]",[],[1],[0.5833333333333334],horizontal,"(890.0, 262.0)",0.6,0.542,1,2662.96
47,465,target,"[(1087, 899)]",[],[1],[0.5666666666666667],vertical,"(890.0, 262.0)",1.1,0.521,1,2666.892
47,466,target,"[(1120, 918)]",[],[1],[0.5166666666666666],horizontal,"(890.0, 262.0)",0.5833333333333334,0.474,1,2671.318
47,467,catch,"[(1091, 906)]",[],[1],[0.85],vertical,"(890.0, 262.0)",0.9666666666666667,nan,1,2675.693
47,468,target,"[(1088, 896)]",[],[1],[0.55],horizontal,"(890.0, 262.0)",0.55,0.515,1,2680.653
47,469,target,"[(1075, 906)]",[],[1],[0.6],horizontal,"(890.0, 262.0)",0.5166666666666666,0.553,1,2684.637
47,470,target,"[(1110, 890)]",[],[1],[0.6166666666666667],horizontal,"(390.0, 762.0)",0.8,0.572,1,2689.004
48,471,target,"[(1091, 900)]",[],[1],[0.5333333333333333],vertical,"(890.0, 262.0)",0.6166666666666667,0.49,1,2693.252
48,472,target,"[(1100, 890)]",[],[1],[0.5333333333333333],vertical,"(390.0, 262.0)",0.8833333333333333,0.492,1,2697.608
48,473,target,"[(1090, 896)]",[],[1],[0.5166666666666666],vertical,"(390.0, 262.0)",1.1,0.478,1,2701.981
48,474,target,"[(1110, 878)]",[],[1],[0.31666666666666665],horizontal,"(890.0, 762.0)",1.6333333333333333,0.277,1,2706.825
48,475,target,"[(1087, 890)]",[],[1],[0.6],vertical,"(890.0, 262.0)",0.9666666666666667,0.554,1,2711.663
48,476,target,"[(1102, 899)]",[],[1],[0.43333333333333335],horizontal,"(390.0, 262.0)",1.5333333333333332,0.393,1,2716.01
48,477,target,"[(1078, 893)]",[],[1],[0.5333333333333333],vertical,"(890.0, 262.0)",1.0833333333333333,0.488,1,2721.387
48,478,target,"[(1086, 899)]",[],[1],[0.5],vertical,"(890.0, 262.0)",1.65,0.468,1,2726.227
48,479,target,"[(1100, 875)]",[],[1],[0.5166666666666666],vertical,"(390.0, 762.0)",1.6,0.48,1,2731.291
48,480,target,"[(1063, 911)]",[],[1],[0.6333333333333333],vertical,"(890.0, 262.0)",0.8833333333333333,0.591,1,2736.276
49,481,catch,"[(1082, 911)]",[],[1],[0.85],vertical,"(390.0, 762.0)",0.9,nan,1,2741.424
49,482,target,"[(1080, 895)]",[],[1],[0.5166666666666666],horizontal,"(390.0, 262.0)",0.8666666666666667,0.485,1,2745.943
49,483,target,"[(1085, 897)]",[],[1],[0.48333333333333334],horizontal,"(890.0, 762.0)",1.4666666666666666,0.437,1,2750.745
49,484,target,"[(1073, 895)]",[],[1],[0.55],vertical,"(890.0, 262.0)",0.9,0.505,1,2755.56
49,485,target,"[(1078, 897)]",[],[1],[0.5666666666666667],vertical,"(390.0, 762.0)",0.9,0.524,1,2759.726
49,486,target,"[(1095, 903)]",[],[1],[0.6333333333333333],horizontal,"(890.0, 762.0)",0.85,0.587,1,2764.23
49,487,target,"[(1081, 889)]",[],[1],[0.5166666666666666],vertical,"(390.0, 262.0)",1.3166666666666667,0.476,1,2768.826
49,488,target,"[(1086, 915)]",[],[1],[0.3],horizontal,"(390.0, 262.0)",1.2333333333333334,0.266,1,2773.982
49,489,target,"[(1075, 907)]",[],[1],[0.3833333333333333],vertical,"(890.0, 762.0)",1.5666666666666667,0.343,1,2778.667
49,490,target,"[(1086, 884)]",[],[1],[0.23333333333333334],vertical,"(890.0, 762.0)",1.4833333333333334,0.202,1,2783.719
50,491,target,"[(1068, 903)]",[],[1],[0.5166666666666666],horizontal,"(890.0, 262.0)",1.1666666666666667,0.474,1,2788.618
50,492,target,"[(1074, 894)]",[],[1],[0.6333333333333333],vertical,"(390.0, 262.0)",1.1333333333333333,0.593,1,2793.46
50,493,target,"[(1052, 908)]",[],[1],[0.5666666666666667],horizontal,"(390.0, 762.0)",0.6833333333333333,0.524,1,2798.176
50,494,target,"[(1096, 878)]",[],[1],[0.6],vertical,"(390.0, 762.0)",0.95,0.556,1,2802.753
50,495,target,"[(1072, 913)]",[],[1],[0.7333333333333333],horizontal,"(390.0, 262.0)",0.7,0.684,1,2807.492
50,496,target,"[(1072, 910)]",[],[1],[0.6833333333333333],vertical,"(890.0, 262.0)",0.8666666666666667,0.639,1,2812.243
50,497,target,"[(1098, 867)]",[],[1],[0.3833333333333333],horizontal,"(890.0, 762.0)",1.5166666666666666,0.345,1,2816.633
50,498,target,"[(1079, 876)]",[],[1],[0.6666666666666666],vertical,"(390.0, 762.0)",0.9833333333333333,0.626,1,2823.127
50,499,target,"[(1069, 902)]",[],[1],[0.48333333333333334],horizontal,"(890.0, 762.0)",1.35,0.44,1,2827.62
50,500,target,"[(1086, 912)]",[],[1],[0.23333333333333334],vertical,"(390.0, 762.0)",1.4333333333333333,0.198,1,2832.955
51,501,target,"[(1115, 885)]",[],[1],[0.6166666666666667],vertical,"(890.0, 262.0)",0.8,0.568,1,2837.876
51,502,target,"[(1102, 907)]",[],[1],[0.5666666666666667],horizontal,"(390.0, 762.0)",0.65,0.519,1,2842.243
51,503,target,"[(1090, 906)]",[],[1],[0.5333333333333333],vertical,"(890.0, 262.0)",1.4,0.491,1,2846.398
51,504,target,"[(1081, 895)]",[],[1],[0.5166666666666666],horizontal,"(390.0, 262.0)",0.65,0.478,1,2850.978
51,505,target,"[(1096, 905)]",[],[1],[],vertical,"(390.0, 262.0)",,cti_phase,0,2855.461
51,506,target,"[(1061, 879)]",[],[1],[0.35],vertical,"(390.0, 262.0)",1.6,0.312,1,2859.616
51,507,target,"[(1093, 904)]",[],[1],[0.85],horizontal,"(390.0, 262.0)",0.55,nan,0,2864.548
51,508,target,"[(1072, 885)]",[],[1],[0.5833333333333334],horizontal,"(890.0, 762.0)",0.75,0.538,1,2869.049
51,509,target,"[(1077, 909)]",[],[1],[],horizontal,"(390.0, 762.0)",,cti_phase,0,2873.543
51,510,target,"[(1062, 896)]",[],[1],[0.5166666666666666],horizontal,"(390.0, 262.0)",1.45,0.473,1,2877.772
52,511,target,"[(1075, 913)]",[],[1],[0.85],horizontal,"(390.0, 262.0)",0.5333333333333333,nan,0,2883.038
52,512,target,"[(1082, 895)]",[],[1],[0.2833333333333333],horizontal,"(890.0, 762.0)",1.6833333333333333,0.243,1,2887.31
52,513,target,"[(1077, 910)]",[],[1],[0.5333333333333333],horizontal,"(890.0, 762.0)",0.9833333333333333,0.499,1,2892.493
52,514,target,"[(1073, 893)]",[],[1],[0.55],horizontal,"(890.0, 762.0)",1.1833333333333333,0.52,1,2897.442
52,515,target,"[(1075, 905)]",[],[1],[0.5833333333333334],vertical,"(890.0, 262.0)",0.7833333333333333,0.552,1,2902.993
52,516,target,"[(1087, 893)]",[],[1],[0.5],vertical,"(890.0, 762.0)",1.2,0.461,1,2907.356
52,517,target,"[(1065, 887)]",[],[1],[0.3333333333333333],vertical,"(390.0, 762.0)",1.3666666666666667,0.302,1,2911.929
52,518,target,"[(1072, 913)]",[],[1],[0.55],horizontal,"(390.0, 262.0)",1.5,0.506,1,2916.888
52,519,target,"[(1091, 913)]",[],[1],[0.48333333333333334],horizontal,"(890.0, 262.0)",1.25,0.441,1,2921.639
52,520,target,"[(1097, 900)]",[],[1],[0.3833333333333333],horizontal,"(890.0, 762.0)",1.2666666666666666,0.348,1,2926.182
53,521,target,"[(1096, 905)]",[],[1],[0.05],horizontal,"(390.0, 762.0)",1.4333333333333333,0.019,1,2930.648
53,522,target,"[(1073, 912)]",[],[1],[0.08333333333333333],horizontal,"(390.0, 762.0)",1.6166666666666667,0.054,1,2935.379
53,523,target,"[(1088, 899)]",[],[1],[0.4666666666666667],vertical,"(890.0, 762.0)",1.45,0.424,1,2940.01
53,524,target,"[(1112, 895)]",[],[1],[0.5],vertical,"(390.0, 262.0)",1.35,0.459,1,2945.143
53,525,target,"[(1077, 887)]",[],[1],[0.5833333333333334],horizontal,"(890.0, 262.0)",0.5833333333333334,0.541,1,2950.855
53,526,catch,"[(1082, 891)]",[],[1],[0.85],vertical,"(890.0, 762.0)",1.1666666666666667,nan,1,2955.205
53,527,target,"[(1082, 901)]",[],[1],[0.5833333333333334],horizontal,"(890.0, 262.0)",0.8166666666666667,0.543,1,2960.311
53,528,target,"[(1055, 918)]",[],[1],[0.5833333333333334],vertical,"(890.0, 762.0)",0.9166666666666666,0.539,1,2964.895
53,529,catch,"[(1120, 894)]",[],[1],[0.85],vertical,"(390.0, 262.0)",1.1833333333333333,nan,1,2969.74
53,530,target,"[(1100, 906)]",[],[1],[0.3833333333333333],horizontal,"(390.0, 262.0)",1.25,0.354,1,2974.926
54,531,target,"[(1074, 892)]",[],[1],[0.6166666666666667],vertical,"(390.0, 762.0)",1.2833333333333332,0.573,1,2979.636
54,532,target,"[(1082, 896)]",[],[1],[0.11666666666666667],horizontal,"(390.0, 262.0)",1.65,0.084,1,2984.602
54,533,target,"[(1088, 904)]",[],[1],[0.5666666666666667],vertical,"(390.0, 762.0)",0.5666666666666667,0.522,1,2989.426
54,534,target,"[(1096, 910)]",[],[1],[0.6166666666666667],horizontal,"(890.0, 262.0)",0.6333333333333333,0.572,1,2993.569
54,535,target,"[(1096, 894)]",[],[1],[0.55],horizontal,"(890.0, 762.0)",1.0666666666666667,0.52,1,2997.484
54,536,target,"[(1096, 910)]",[],[1],[0.6],horizontal,"(390.0, 262.0)",0.6833333333333333,0.558,1,3001.834
54,537,target,"[(1078, 885)]",[],[1],[0.11666666666666667],horizontal,"(390.0, 262.0)",1.4833333333333334,0.085,1,3005.934
54,538,target,"[(1086, 906)]",[],[1],[0.6166666666666667],horizontal,"(390.0, 262.0)",0.5833333333333334,0.57,1,3010.879
54,539,target,"[(1068, 880)]",[],[1],[0.7833333333333333],vertical,"(390.0, 262.0)",1.0666666666666667,0.734,1,3014.738
54,540,target,"[(1082, 905)]",[],[1],[0.5833333333333334],vertical,"(890.0, 762.0)",0.7833333333333333,0.54,1,3019.621
55,541,target,"[(1082, 876)]",[],[1],[0.5333333333333333],horizontal,"(390.0, 262.0)",0.65,0.496,1,3023.891
55,542,catch,"[(1082, 886)]",[],[1],[],horizontal,"(390.0, 762.0)",,cti_phase,0,3028.211
55,543,target,"[(1111, 890)]",[],[1],[0.5333333333333333],vertical,"(390.0, 762.0)",1.2,0.489,1,3032.671
55,544,target,"[(1087, 895)]",[],[1],[],horizontal,"(390.0, 762.0)",,cti_phase,0,3037.087
55,545,target,"[(1084, 891)]",[],[1],[0.6166666666666667],vertical,"(390.0, 762.0)",1.0666666666666667,0.573,1,3041.897
55,546,target,"[(1085, 910)]",[],[1],[0.6166666666666667],vertical,"(890.0, 762.0)",0.9666666666666667,0.587,1,3046.618
55,547,target,"[(1110, 912)]",[],[1],[0.5],vertical,"(390.0, 262.0)",1.3166666666666667,0.46,1,3051.243
55,548,target,"[(1109, 902)]",[],[1],[0.6333333333333333],vertical,"(890.0, 262.0)",1.0,0.589,1,3056.195
55,549,catch,"[(1073, 889)]",[],[1],[0.2],vertical,"(890.0, 762.0)",1.6666666666666667,0.167,0,3060.645
55,550,target,"[(1100, 886)]",[],[1],[0.6166666666666667],vertical,"(390.0, 262.0)",0.8833333333333333,0.57,1,3066.126
56,551,target,"[(1086, 898)]",[],[1],[0.5],horizontal,"(890.0, 262.0)",1.25,0.456,1,3070.511
56,552,target,"[(1051, 896)]",[],[1],[0.6333333333333333],horizontal,"(390.0, 262.0)",0.75,0.588,1,3074.965
56,553,target,"[(1076, 899)]",[],[1],[0.7333333333333333],vertical,"(890.0, 762.0)",0.7,0.689,1,3079.312
56,554,target,"[(1093, 887)]",[],[1],[0.55],vertical,"(890.0, 762.0)",0.8666666666666667,0.504,1,3083.762
56,555,target,"[(1110, 899)]",[],[1],[0.75],vertical,"(890.0, 762.0)",0.8833333333333333,0.7,1,3088.027
56,556,target,"[(1088, 890)]",[],[1],[0.18333333333333332],vertical,"(890.0, 762.0)",1.5333333333333332,0.152,1,3092.31
56,557,target,"[(1087, 886)]",[],[1],[0.7333333333333333],vertical,"(390.0, 762.0)",0.6166666666666667,0.707,1,3097.188
56,558,target,"[(1086, 896)]",[],[1],[0.48333333333333334],horizontal,"(890.0, 262.0)",1.4333333333333333,0.442,1,3101.81
56,559,target,"[(1081, 906)]",[],[1],[0.85],horizontal,"(890.0, 762.0)",0.9166666666666666,nan,0,3107.108
56,560,catch,"[(1053, 901)]",[],[1],[0.85],horizontal,"(390.0, 262.0)",0.8833333333333333,nan,1,3373.328
57,561,target,"[(1067, 897)]",[],[1],[0.5833333333333334],horizontal,"(890.0, 262.0)",0.55,0.539,1,3382.162
57,562,target,"[(1090, 917)]",[],[1],[0.7333333333333333],horizontal,"(890.0, 762.0)",1.55,0.682,1,3386.839
57,563,target,"[(1091, 898)]",[],[1],[0.5333333333333333],vertical,"(890.0, 262.0)",1.25,0.492,1,3391.846
57,564,target,"[(1096, 906)]",[],[1],[0.5666666666666667],horizontal,"(890.0, 762.0)",0.7666666666666666,0.525,1,3396.679
57,565,catch,"[(1091, 929)]",[],[1],[0.85],vertical,"(890.0, 762.0)",1.5,nan,1,3401.179
57,566,target,"[(1126, 896)]",[],[1],[0.8],horizontal,"(390.0, 262.0)",0.7166666666666667,0.773,1,3406.295
57,567,target,"[(1077, 919)]",[],[1],[0.5833333333333334],vertical,"(890.0, 762.0)",1.2166666666666666,0.538,1,3411.095
57,568,catch,"[(1067, 925)]",[],[1],[0.4],horizontal,"(390.0, 262.0)",1.6833333333333333,0.359,0,3416.096
57,569,catch,"[(1118, 876)]",[],[1],[0.85],vertical,"(890.0, 762.0)",0.9166666666666666,nan,1,3421.223
57,570,target,"[(1096, 895)]",[],[1],[0.55],horizontal,"(890.0, 762.0)",0.5833333333333334,0.512,1,3426.204
58,571,target,"[(1100, 899)]",[],[1],[0.7666666666666666],vertical,"(390.0, 262.0)",0.7333333333333333,0.719,1,3431.158
58,572,target,"[(1066, 892)]",[],[1],[0.5833333333333334],horizontal,"(890.0, 262.0)",1.3,0.541,1,3458.37
58,573,target,"[(1073, 911)]",[],[1],[0.2833333333333333],horizontal,"(390.0, 762.0)",1.6333333333333333,0.246,1,3463.36
58,574,target,"[(1072, 902)]",[],[1],[0.6166666666666667],vertical,"(890.0, 762.0)",1.2833333333333332,0.571,1,3468.32
58,575,target,"[(1092, 912)]",[],[1],[0.6166666666666667],horizontal,"(390.0, 762.0)",1.0333333333333332,0.576,1,3473.007
58,576,target,"[(1067, 907)]",[],[1],[0.5666666666666667],vertical,"(390.0, 762.0)",0.7833333333333333,0.528,1,3477.609
58,577,target,"[(1105, 908)]",[],[1],[0.55],horizontal,"(390.0, 262.0)",1.1333333333333333,0.501,1,3482.266
58,578,target,"[(1096, 894)]",[],[1],[0.5],vertical,"(890.0, 262.0)",0.9666666666666667,0.458,1,3486.651
58,579,target,"[(1102, 894)]",[],[1],[0.5833333333333334],vertical,"(390.0, 762.0)",0.5166666666666666,0.545,1,3491.179
58,580,target,"[(1088, 895)]",[],[1],[0.5166666666666666],horizontal,"(890.0, 762.0)",0.8,0.475,1,3495.58
59,581,target,"[(1102, 893)]",[],[1],[0.7666666666666666],vertical,"(890.0, 762.0)",0.65,0.723,1,3500.037
59,582,target,"[(1121, 897)]",[],[1],[0.3833333333333333],vertical,"(390.0, 262.0)",1.5,0.344,1,3504.554
59,583,catch,"[(1115, 915)]",[],[1],[0.85],horizontal,"(390.0, 762.0)",0.6333333333333333,nan,1,3509.253
59,584,target,"[(1120, 885)]",[],[1],[0.5833333333333334],horizontal,"(890.0, 262.0)",1.3166666666666667,0.54,1,3513.514
59,585,target,"[(1085, 914)]",[],[1],[0.55],horizontal,"(890.0, 762.0)",0.9666666666666667,0.507,1,3518.414
59,586,target,"[(1078, 917)]",[],[1],[0.3],vertical,"(390.0, 262.0)",1.4333333333333333,0.271,1,3523.096
59,587,target,"[(1082, 903)]",[],[1],[0.5666666666666667],vertical,"(390.0, 762.0)",0.8666666666666667,0.524,1,3527.732
59,588,target,"[(1091, 899)]",[],[1],[0.5666666666666667],vertical,"(390.0, 762.0)",1.0833333333333333,0.525,1,3532.031
59,589,target,"[(1083, 910)]",[],[1],[0.7166666666666667],vertical,"(890.0, 262.0)",0.8333333333333334,0.672,1,3536.757
59,590,target,"[(1072, 905)]",[],[1],[0.5833333333333334],vertical,"(890.0, 762.0)",0.9333333333333333,0.534,1,3541.124
60,591,target,"[(1079, 920)]",[],[1],[0.75],horizontal,"(890.0, 262.0)",0.7333333333333333,0.712,1,3545.557
60,592,target,"[(1111, 914)]",[],[1],[0.5],vertical,"(890.0, 762.0)",1.2333333333333334,0.459,1,3550.058
60,593,target,"[(1120, 897)]",[],[1],[0.25],horizontal,"(890.0, 762.0)",1.6666666666666667,0.216,1,3554.563
60,594,target,"[(1082, 911)]",[],[1],[0.5166666666666666],vertical,"(890.0, 262.0)",1.1,0.482,1,3559.664
60,595,target,"[(1108, 897)]",[],[1],[0.5333333333333333],horizontal,"(890.0, 762.0)",1.5,0.491,1,3564.289
60,596,target,"[(1081, 894)]",[],[1],[0.48333333333333334],vertical,"(390.0, 262.0)",1.5,0.447,1,3569.229
60,597,target,"[(1105, 884)]",[],[1],[0.5166666666666666],vertical,"(890.0, 262.0)",1.5166666666666666,0.473,1,3574.363
60,598,target,"[(1105, 892)]",[],[1],[0.5833333333333334],horizontal,"(390.0, 762.0)",0.55,0.541,1,3579.628
60,599,target,"[(1112, 896)]",[],[1],[0.5833333333333334],vertical,"(390.0, 262.0)",0.8,0.539,1,3583.412
60,600,target,"[(1091, 895)]",[],[1],[0.5333333333333333],vertical,"(390.0, 262.0)",0.8333333333333334,0.494,1,3587.892
61,601,target,"[(1086, 905)]",[],[1],[0.5333333333333333],vertical,"(890.0, 762.0)",0.9166666666666666,0.493,1,3592.723
61,602,target,"[(1086, 889)]",[],[1],[0.55],vertical,"(890.0, 762.0)",1.5833333333333333,0.51,1,3597.48
61,603,target,"[(1105, 902)]",[],[1],[0.5666666666666667],vertical,"(390.0, 762.0)",0.6666666666666666,0.525,1,3602.296
61,604,target,"[(1105, 905)]",[],[1],[0.6166666666666667],vertical,"(890.0, 762.0)",0.7833333333333333,0.575,1,3606.796
61,605,target,"[(1072, 907)]",[],[1],[0.55],horizontal,"(390.0, 262.0)",1.2,0.507,1,3611.096
61,606,target,"[(1070, 892)]",[],[1],[0.11666666666666667],vertical,"(390.0, 762.0)",1.5166666666666666,0.084,1,3615.845
61,607,catch,"[(1076, 899)]",[],[1],[],horizontal,"(390.0, 262.0)",,cti_phase,0,4828.801
61,608,target,"[(1087, 906)]",[],[1],[0.7166666666666667],vertical,"(890.0, 762.0)",1.3833333333333333,0.671,1,4833.509
61,609,target,"[(1100, 913)]",[],[1],[0.5166666666666666],vertical,"(890.0, 262.0)",0.7333333333333333,0.476,1,4839.017
61,610,target,"[(1094, 911)]",[],[1],[0.85],horizontal,"(890.0, 762.0)",0.95,nan,0,4843.617
62,611,target,"[(1075, 885)]",[],[1],[0.6166666666666667],vertical,"(390.0, 762.0)",0.5333333333333333,0.574,1,4848.304
62,612,target,"[(1119, 927)]",[],[1],[0.5833333333333334],vertical,"(390.0, 262.0)",1.5166666666666666,0.544,1,4852.191
62,613,target,"[(1078, 888)]",[],[1],[0.85],vertical,"(890.0, 262.0)",1.4333333333333333,nan,0,4857.385
62,614,target,"[(1120, 894)]",[],[1],[0.5833333333333334],vertical,"(390.0, 262.0)",1.3666666666666667,0.546,1,4862.527
62,615,target,"[(1114, 919)]",[],[1],[0.13333333333333333],vertical,"(890.0, 762.0)",1.65,0.101,1,4867.58
62,616,target,"[(1104, 884)]",[],[1],[0.5666666666666667],vertical,"(390.0, 262.0)",1.1666666666666667,0.521,1,4872.567
62,617,target,"[(1076, 899)]",[],[1],[0.5666666666666667],vertical,"(390.0, 262.0)",1.05,0.525,1,4877.098
62,618,target,"[(1077, 909)]",[],[1],[0.85],horizontal,"(890.0, 262.0)",0.7666666666666666,nan,0,4882.024
62,619,target,"[(1120, 914)]",[],[1],[0.7],vertical,"(890.0, 262.0)",0.6,0.653,1,4886.917
62,620,target,"[(1116, 848)]",[],[1],[0.6333333333333333],horizontal,"(890.0, 762.0)",0.85,0.597,1,4891.118
63,621,catch,"[(1072, 914)]",[],[1],[0.85],horizontal,"(890.0, 262.0)",0.6166666666666667,nan,1,4895.914
63,622,target,"[(1076, 906)]",[],[1],[0.55],vertical,"(890.0, 262.0)",1.0333333333333332,0.509,1,4900.566
63,623,target,"[(1120, 884)]",[],[1],[0.5166666666666666],horizontal,"(390.0, 262.0)",1.4166666666666667,0.474,1,4905.067
63,624,target,"[(1081, 885)]",[],[1],[0.5333333333333333],vertical,"(390.0, 262.0)",1.3,0.492,1,4910.017
63,625,target,"[(1119, 915)]",[],[1],[0.5333333333333333],horizontal,"(890.0, 262.0)",0.8333333333333334,0.496,1,4914.913
63,626,target,"[(1076, 899)]",[],[1],[0.5333333333333333],vertical,"(890.0, 262.0)",1.6166666666666667,0.495,1,4919.415
63,627,target,"[(1111, 918)]",[],[1],[0.4666666666666667],vertical,"(890.0, 262.0)",1.5166666666666666,0.422,1,4924.093
63,628,target,"[(1077, 903)]",[],[1],[0.5666666666666667],horizontal,"(890.0, 262.0)",0.75,0.522,1,4929.519
63,629,catch,"[(1097, 924)]",[],[1],[0.85],vertical,"(390.0, 262.0)",0.95,nan,1,4933.9
63,630,target,"[(1115, 880)]",[],[1],[0.65],horizontal,"(390.0, 762.0)",1.1666666666666667,0.606,1,4938.497
64,631,target,"[(1077, 912)]",[],[1],[0.4666666666666667],horizontal,"(890.0, 262.0)",1.5333333333333332,0.425,1,4943.469
64,632,target,"[(1111, 910)]",[],[1],[0.55],vertical,"(890.0, 762.0)",0.75,0.508,1,4948.034
64,633,catch,"[(1091, 892)]",[],[1],[0.4666666666666667],vertical,"(390.0, 262.0)",1.4333333333333333,0.43,0,4952.154
64,634,catch,"[(1115, 895)]",[],[1],[0.3833333333333333],horizontal,"(890.0, 762.0)",1.4333333333333333,0.349,0,4957.111
64,635,target,"[(1072, 888)]",[],[1],[0.55],vertical,"(390.0, 262.0)",1.4833333333333334,0.507,1,4962.668
64,636,target,"[(1078, 888)]",[],[1],[0.55],horizontal,"(390.0, 262.0)",0.8666666666666667,0.511,1,4991.018
64,637,target,"[(1078, 896)]",[],[1],[0.85],vertical,"(390.0, 262.0)",1.1666666666666667,nan,0,4996.118
64,638,target,"[(1110, 889)]",[],[1],[0.6333333333333333],vertical,"(390.0, 762.0)",1.3333333333333333,0.592,1,5001.255
64,639,target,"[(1092, 882)]",[],[1],[],vertical,"(390.0, 762.0)",,cti_phase,0,5006.175
64,640,target,"[(1083, 875)]",[],[1],[0.5833333333333334],vertical,"(890.0, 762.0)",1.2333333333333334,0.543,1,5010.773
65,641,target,"[(1120, 915)]",[],[1],[0.2],horizontal,"(390.0, 762.0)",1.4666666666666666,0.165,1,5015.36
65,642,target,"[(1115, 853)]",[],[1],[0.65],vertical,"(390.0, 762.0)",1.4666666666666666,0.605,1,5020.334
65,643,target,"[(1111, 908)]",[],[1],[0.5],vertical,"(390.0, 262.0)",1.3666666666666667,0.474,1,5025.539
65,644,target,"[(1074, 889)]",[],[1],[0.5666666666666667],vertical,"(390.0, 762.0)",1.15,0.531,1,5030.783
65,645,target,"[(1120, 904)]",[],[1],[0.5166666666666666],horizontal,"(890.0, 262.0)",1.4166666666666667,0.477,1,5035.961
65,646,target,"[(1113, 913)]",[],[1],[0.6],horizontal,"(890.0, 762.0)",1.1333333333333333,0.558,1,5040.726
65,647,target,"[(1080, 900)]",[],[1],[0.6],horizontal,"(890.0, 762.0)",1.6833333333333333,0.561,1,5045.553
65,648,target,"[(1097, 906)]",[],[1],[0.55],vertical,"(390.0, 262.0)",1.1333333333333333,0.512,1,5050.494
65,649,target,"[(1115, 915)]",[],[1],[0.6166666666666667],vertical,"(890.0, 762.0)",1.3333333333333333,0.571,1,5055.535
65,650,target,"[(1072, 909)]",[],[1],[0.5],horizontal,"(890.0, 262.0)",0.9333333333333333,0.472,1,5060.519
66,651,target,"[(1105, 897)]",[],[1],[0.5],horizontal,"(390.0, 262.0)",0.9333333333333333,0.462,1,5064.938
66,652,target,"[(1110, 886)]",[],[1],[0.5333333333333333],horizontal,"(390.0, 262.0)",0.8666666666666667,0.492,1,5069.803
66,653,target,"[(1064, 907)]",[],[1],[0.75],vertical,"(390.0, 762.0)",0.8833333333333333,0.706,1,5074.484
66,654,catch,"[(1103, 885)]",[],[1],[0.85],horizontal,"(890.0, 262.0)",0.9166666666666666,nan,1,5078.963
66,655,target,"[(1114, 893)]",[],[1],[0.55],vertical,"(890.0, 762.0)",0.6833333333333333,0.511,1,5083.601
66,656,target,"[(1072, 912)]",[],[1],[0.15],horizontal,"(890.0, 762.0)",1.65,0.118,1,5087.829
66,657,target,"[(1105, 904)]",[],[1],[0.3],vertical,"(390.0, 262.0)",1.5,0.265,1,5092.634
66,658,target,"[(1083, 906)]",[],[1],[0.7166666666666667],horizontal,"(890.0, 762.0)",0.9166666666666666,0.681,1,5097.33
66,659,target,"[(1088, 898)]",[],[1],[0.25],vertical,"(390.0, 762.0)",1.65,0.213,1,5101.946
66,660,target,"[(1101, 913)]",[],[1],[0.6166666666666667],horizontal,"(390.0, 262.0)",0.8,0.576,1,5107.218
67,661,catch,"[(1096, 911)]",[],[1],[0.2833333333333333],vertical,"(890.0, 262.0)",1.5166666666666666,0.25,0,5111.766
67,662,catch,"[(1122, 897)]",[],[1],[0.85],vertical,"(890.0, 762.0)",0.9666666666666667,nan,1,5116.669
67,663,target,"[(1115, 908)]",[],[1],[0.6166666666666667],horizontal,"(890.0, 262.0)",0.8833333333333333,0.577,1,5121.304
67,664,target,"[(1104, 918)]",[],[1],[0.65],vertical,"(890.0, 762.0)",0.7,0.602,1,5125.536
67,665,target,"[(1082, 910)]",[],[1],[0.55],horizontal,"(890.0, 262.0)",0.9,0.51,1,5129.985
67,666,target,"[(1091, 903)]",[],[1],[0.7],horizontal,"(890.0, 262.0)",0.7666666666666666,0.655,1,5135.051
67,667,target,"[(1105, 911)]",[],[1],[0.55],horizontal,"(890.0, 762.0)",1.0333333333333332,0.51,1,5139.335
67,668,target,"[(1102, 905)]",[],[1],[0.48333333333333334],vertical,"(390.0, 762.0)",1.3333333333333333,0.443,1,5143.802
67,669,target,"[(1115, 896)]",[],[1],[0.5166666666666666],horizontal,"(390.0, 262.0)",1.4833333333333334,0.483,1,5148.535
67,670,target,"[(1073, 894)]",[],[1],[0.5333333333333333],horizontal,"(890.0, 262.0)",1.55,0.494,1,5153.418
68,671,target,"[(1097, 897)]",[],[1],[0.5166666666666666],vertical,"(890.0, 262.0)",1.4,0.481,1,5158.606
68,672,target,"[(1116, 906)]",[],[1],[0.5833333333333334],horizontal,"(390.0, 762.0)",0.8833333333333333,0.539,1,5163.267
68,673,catch,"[(1100, 893)]",[],[1],[0.55],horizontal,"(390.0, 762.0)",0.95,0.519,0,5167.929
68,674,target,"[(1121, 884)]",[],[1],[0.2833333333333333],horizontal,"(390.0, 762.0)",1.6666666666666667,0.252,1,5172.602
68,675,target,"[(1110, 907)]",[],[1],[0.6],vertical,"(890.0, 262.0)",1.0,0.557,1,5177.797
68,676,target,"[(1116, 901)]",[],[1],[0.23333333333333334],horizontal,"(390.0, 762.0)",1.65,0.203,1,5182.247
68,677,target,"[(1097, 902)]",[],[1],[0.5666666666666667],vertical,"(390.0, 262.0)",0.5166666666666666,0.522,1,5187.319
68,678,target,"[(1093, 903)]",[],[1],[0.23333333333333334],vertical,"(390.0, 262.0)",1.6166666666666667,0.197,1,5191.536
68,679,target,"[(1082, 892)]",[],[1],[0.5],horizontal,"(390.0, 762.0)",1.1666666666666667,0.462,1,5196.173
68,680,target,"[(1083, 894)]",[],[1],[0.35],vertical,"(890.0, 762.0)",1.4833333333333334,0.313,1,5200.97
69,681,target,"[(1072, 908)]",[],[1],[0.55],vertical,"(890.0, 762.0)",0.75,0.513,1,5206.114
69,682,target,"[(1055, 894)]",[],[1],[0.5166666666666666],horizontal,"(390.0, 762.0)",1.3333333333333333,0.477,1,5210.292
69,683,target,"[(1082, 887)]",[],[1],[0.4666666666666667],vertical,"(390.0, 762.0)",1.25,0.432,1,5215.033
69,684,target,"[(1100, 901)]",[],[1],[0.5],vertical,"(390.0, 762.0)",0.9,0.46,1,5220.011
69,685,catch,"[(1094, 893)]",[],[1],[0.85],vertical,"(890.0, 262.0)",0.75,nan,1,5224.339
69,686,target,"[(1110, 886)]",[],[1],[0.6],vertical,"(390.0, 262.0)",1.6166666666666667,0.56,1,5228.919
69,687,target,"[(1102, 907)]",[],[1],[0.6166666666666667],vertical,"(890.0, 262.0)",0.8833333333333333,0.573,1,5233.992
69,688,target,"[(1105, 899)]",[],[1],[0.55],horizontal,"(890.0, 262.0)",0.9,0.506,1,5238.892
69,689,target,"[(1056, 895)]",[],[1],[0.5333333333333333],vertical,"(890.0, 262.0)",0.7833333333333333,0.494,1,5243.126
69,690,target,"[(1076, 902)]",[],[1],[0.5666666666666667],horizontal,"(890.0, 762.0)",0.6166666666666667,0.527,1,5247.779
70,691,catch,"[(1120, 919)]",[],[1],[0.7833333333333333],vertical,"(390.0, 762.0)",0.6666666666666666,0.744,0,5252.025
70,692,target,"[(1112, 887)]",[],[1],[0.08333333333333333],vertical,"(890.0, 762.0)",1.3666666666666667,0.053,1,5256.918
70,693,target,"[(1092, 902)]",[],[1],[0.3],horizontal,"(890.0, 262.0)",1.55,0.27,1,5261.367
70,694,target,"[(1096, 900)]",[],[1],[0.5],horizontal,"(890.0, 262.0)",1.1166666666666667,0.467,1,5266.261
70,695,target,"[(1101, 895)]",[],[1],[0.48333333333333334],horizontal,"(890.0, 762.0)",1.1833333333333333,0.448,1,5270.627
70,696,target,"[(1105, 875)]",[],[1],[0.6],vertical,"(390.0, 762.0)",0.9333333333333333,0.557,1,5275.491
70,697,target,"[(1091, 902)]",[],[1],[0.5333333333333333],horizontal,"(890.0, 762.0)",0.9166666666666666,0.5,1,5280.251
70,698,target,"[(1052, 851)]",[],[1],[0.3333333333333333],horizontal,"(390.0, 762.0)",1.5666666666666667,0.297,1,5284.716
70,699,target,"[(1077, 905)]",[],[1],[0.6666666666666666],horizontal,"(390.0, 262.0)",0.8166666666666667,0.624,1,5290.007
70,700,target,"[(1076, 900)]",[],[1],[0.5666666666666667],horizontal,"(890.0, 262.0)",0.5166666666666666,0.526,1,5294.853
71,701,target,"[(1080, 904)]",[],[1],[0.26666666666666666],horizontal,"(890.0, 762.0)",1.45,0.233,1,5299.041
71,702,target,"[(1109, 855)]",[],[1],[0.5],vertical,"(390.0, 762.0)",0.9833333333333333,0.464,1,5304.068
71,703,target,"[(1052, 911)]",[],[1],[0.85],horizontal,"(890.0, 762.0)",1.5,nan,0,5308.341
71,704,target,"[(1115, 887)]",[],[1],[0.85],horizontal,"(390.0, 262.0)",0.5666666666666667,nan,0,5313.769
71,705,target,"[(1093, 889)]",[],[1],[0.5666666666666667],horizontal,"(390.0, 762.0)",0.7833333333333333,0.521,1,5318.185
71,706,target,"[(1113, 906)]",[],[1],[0.16666666666666666],vertical,"(390.0, 262.0)",0.9333333333333333,0.135,1,5322.57
71,707,catch,"[(1108, 892)]",[],[1],[0.31666666666666665],vertical,"(390.0, 762.0)",1.1333333333333333,0.283,0,5326.57
71,708,target,"[(1078, 886)]",[],[1],[0.5666666666666667],vertical,"(890.0, 762.0)",0.5166666666666666,0.525,1,5331.352
71,709,target,"[(1072, 909)]",[],[1],[0.13333333333333333],horizontal,"(390.0, 762.0)",1.4,0.102,1,5335.401
71,710,target,"[(1086, 898)]",[],[1],[0.5666666666666667],vertical,"(890.0, 762.0)",1.0166666666666666,0.534,1,5340.32
72,711,catch,"[(1105, 899)]",[],[1],[0.6833333333333333],vertical,"(890.0, 262.0)",1.2,0.648,0,5344.807
72,712,target,"[(1096, 893)]",[],[1],[0.5666666666666667],vertical,"(390.0, 762.0)",0.5666666666666667,0.532,1,5350.019
72,713,target,"[(1085, 894)]",[],[1],[0.7166666666666667],horizontal,"(890.0, 762.0)",1.0166666666666666,0.674,1,5363.501
72,714,target,"[(1058, 866)]",[],[1],[0.7166666666666667],horizontal,"(890.0, 762.0)",0.8,0.678,1,5368.537
72,715,target,"[(1079, 885)]",[],[1],[0.85],vertical,"(390.0, 262.0)",1.3333333333333333,nan,0,5373.105
72,716,target,"[(1076, 863)]",[],[1],[0.5333333333333333],vertical,"(890.0, 262.0)",1.5166666666666666,0.492,1,5378.953
72,717,target,"[(1100, 903)]",[],[1],[0.4666666666666667],horizontal,"(890.0, 762.0)",1.45,0.422,1,5383.934
72,718,target,"[(1116, 899)]",[],[1],[0.85],horizontal,"(890.0, 262.0)",0.5166666666666666,nan,0,5389.019
72,719,target,"[(1107, 872)]",[],[1],[0.85],horizontal,"(390.0, 262.0)",1.2166666666666666,nan,0,5393.885
72,720,catch,"[(1052, 861)]",[],[1],[0.85],horizontal,"(390.0, 262.0)",1.0166666666666666,nan,1,5398.754
73,721,target,"[(1091, 898)]",[],[1],[0.55],horizontal,"(890.0, 262.0)",0.5666666666666667,0.51,1,5404.476
73,722,target,"[(1082, 911)]",[],[1],[0.5333333333333333],vertical,"(890.0, 262.0)",0.9666666666666667,0.493,1,5408.433
73,723,target,"[(1067, 892)]",[],[1],[0.2833333333333333],horizontal,"(390.0, 762.0)",1.5666666666666667,0.251,1,5413.167
73,724,target,"[(1060, 894)]",[],[1],[0.43333333333333335],vertical,"(890.0, 762.0)",1.0,0.397,1,5419.394
73,725,target,"[(1092, 910)]",[],[1],[0.5],horizontal,"(390.0, 262.0)",1.35,0.463,1,5423.703
73,726,target,"[(1096, 904)]",[],[1],[0.4666666666666667],horizontal,"(890.0, 262.0)",1.5333333333333332,0.424,1,5428.218
73,727,target,"[(1082, 908)]",[],[1],[0.5333333333333333],vertical,"(890.0, 262.0)",1.4333333333333333,0.496,1,5432.853
73,728,target,"[(1078, 895)]",[],[1],[0.55],vertical,"(390.0, 762.0)",0.6666666666666666,0.51,1,5437.819
73,729,target,"[(1086, 904)]",[],[1],[0.5166666666666666],horizontal,"(390.0, 762.0)",1.0,0.476,1,5442.286
73,730,catch,"[(1064, 890)]",[],[1],[0.85],horizontal,"(890.0, 762.0)",0.9833333333333333,nan,1,5446.846
74,731,catch,"[(1086, 898)]",[],[1],[0.8],horizontal,"(890.0, 262.0)",1.25,0.761,0,5451.928
74,732,target,"[(1072, 884)]",[],[1],[0.5666666666666667],horizontal,"(890.0, 262.0)",0.7833333333333333,0.524,1,5456.785
74,733,catch,"[(1076, 904)]",[],[1],[0.85],vertical,"(390.0, 262.0)",0.8666666666666667,nan,1,5461.121
74,734,target,"[(1076, 902)]",[],[1],[0.6166666666666667],horizontal,"(890.0, 762.0)",0.85,0.578,1,5465.899
74,735,target,"[(1100, 907)]",[],[1],[0.6166666666666667],vertical,"(390.0, 262.0)",0.6,0.577,1,5470.356
74,736,target,"[(1107, 909)]",[],[1],[0.4166666666666667],horizontal,"(890.0, 262.0)",1.3,0.374,1,5474.57
74,737,target,"[(1066, 893)]",[],[1],[0.4666666666666667],vertical,"(390.0, 262.0)",1.2166666666666666,0.428,1,5479.057
74,738,target,"[(1080, 899)]",[],[1],[0.2],vertical,"(390.0, 762.0)",1.4333333333333333,0.17,1,5484.619
74,739,target,"[(1070, 897)]",[],[1],[0.18333333333333332],horizontal,"(390.0, 262.0)",1.6333333333333333,0.151,1,5489.313
74,740,target,"[(1086, 903)]",[],[1],[0.5333333333333333],vertical,"(890.0, 262.0)",1.2833333333333332,0.501,1,5494.631
75,741,target,"[(1076, 882)]",[],[1],[0.5166666666666666],vertical,"(390.0, 262.0)",1.0,0.476,1,5499.749
75,742,target,"[(1086, 879)]",[],[1],[0.5666666666666667],horizontal,"(890.0, 762.0)",0.6333333333333333,0.528,1,5504.375
75,743,target,"[(1086, 892)]",[],[1],[0.6],vertical,"(890.0, 262.0)",0.6333333333333333,0.559,1,5508.537
75,744,catch,"[(1086, 902)]",[],[1],[0.7833333333333333],horizontal,"(890.0, 262.0)",1.0833333333333333,0.739,0,5512.7
75,745,target,"[(1078, 857)]",[],[1],[0.23333333333333334],horizontal,"(890.0, 262.0)",1.55,0.197,1,5518.153
75,746,target,"[(1096, 897)]",[],[1],[0.18333333333333332],horizontal,"(390.0, 262.0)",1.5,0.151,1,5522.839
75,747,target,"[(1077, 899)]",[],[1],[0.5833333333333334],horizontal,"(390.0, 762.0)",1.0,0.538,1,5527.709
75,748,target,"[(1072, 893)]",[],[1],[0.5833333333333334],vertical,"(890.0, 262.0)",1.4333333333333333,0.541,1,5532.501
75,749,catch,"[(1079, 903)]",[],[1],[0.7833333333333333],horizontal,"(390.0, 262.0)",0.95,0.743,0,5538.605
75,750,target,"[(1102, 882)]",[],[1],[0.75],vertical,"(890.0, 262.0)",1.0,0.707,1,5543.671
76,751,target,"[(1104, 902)]",[],[1],[0.5333333333333333],horizontal,"(890.0, 762.0)",0.8833333333333333,0.494,1,5548.294
76,752,target,"[(1076, 901)]",[],[1],[0.5333333333333333],vertical,"(890.0, 762.0)",0.9666666666666667,0.495,1,5553.047
76,753,target,"[(1078, 893)]",[],[1],[0.13333333333333333],horizontal,"(390.0, 762.0)",0.9333333333333333,0.099,1,5557.543
76,754,target,"[(1096, 901)]",[],[1],[0.6],vertical,"(890.0, 262.0)",0.7666666666666666,0.559,1,5561.545
76,755,target,"[(1071, 892)]",[],[1],[0.5],vertical,"(890.0, 762.0)",0.95,0.459,1,5566.025
76,756,target,"[(1077, 892)]",[],[1],[0.5666666666666667],horizontal,"(890.0, 262.0)",1.3833333333333333,0.524,1,5572.658
76,757,target,"[(1080, 901)]",[],[1],[0.5333333333333333],vertical,"(890.0, 262.0)",1.3,0.496,1,5577.663
76,758,catch,"[(1075, 901)]",[],[1],[0.4],horizontal,"(890.0, 262.0)",1.6666666666666667,0.361,0,5582.653
76,759,target,"[(1100, 875)]",[],[1],[0.5666666666666667],horizontal,"(890.0, 262.0)",0.7666666666666666,0.527,1,5587.572
76,760,target,"[(1088, 899)]",[],[1],[0.3],vertical,"(390.0, 762.0)",1.3333333333333333,0.265,1,5592.152
77,761,target,"[(1092, 895)]",[],[1],[0.15],horizontal,"(890.0, 762.0)",1.5,0.116,1,5596.552
77,762,target,"[(1078, 877)]",[],[1],[0.7666666666666666],horizontal,"(890.0, 262.0)",0.7666666666666666,0.724,1,5601.184
77,763,target,"[(1072, 902)]",[],[1],[0.55],horizontal,"(890.0, 262.0)",0.7,0.511,1,5606.176
77,764,target,"[(1100, 904)]",[],[1],[0.5333333333333333],horizontal,"(890.0, 262.0)",0.7,0.493,1,5610.752
77,765,target,"[(1104, 880)]",[],[1],[0.5],vertical,"(390.0, 262.0)",0.7166666666666667,0.463,1,5614.903
77,766,target,"[(1100, 910)]",[],[1],[0.5333333333333333],horizontal,"(890.0, 762.0)",0.5833333333333334,0.491,1,5619.105
77,767,target,"[(1093, 897)]",[],[1],[],horizontal,"(390.0, 762.0)",,cti_phase,0,5623.226
77,768,target,"[(1124, 874)]",[],[1],[0.5666666666666667],vertical,"(390.0, 762.0)",1.0666666666666667,0.526,1,5627.555
77,769,target,"[(1076, 884)]",[],[1],[0.5333333333333333],vertical,"(890.0, 762.0)",0.6666666666666666,0.501,1,5632.039
77,770,catch,"[(1077, 889)]",[],[1],[0.5333333333333333],vertical,"(890.0, 262.0)",1.3666666666666667,0.511,0,5636.402
78,771,target,"[(1119, 888)]",[],[1],[0.43333333333333335],horizontal,"(890.0, 262.0)",1.6666666666666667,0.394,1,5641.219
78,772,catch,"[(1104, 902)]",[],[1],[0.85],horizontal,"(890.0, 262.0)",0.9,nan,1,5646.323
78,773,target,"[(1077, 899)]",[],[1],[0.55],horizontal,"(890.0, 762.0)",0.8,0.523,1,5651.164
78,774,target,"[(1079, 905)]",[],[1],[0.7],horizontal,"(390.0, 262.0)",0.65,0.671,1,5655.842
78,775,target,"[(1068, 884)]",[],[1],[0.5166666666666666],vertical,"(890.0, 762.0)",0.9166666666666666,0.477,1,5660.235
78,776,target,"[(1057, 890)]",[],[1],[0.6],horizontal,"(890.0, 762.0)",1.25,0.558,1,5803.987
78,777,target,"[(1105, 893)]",[],[1],[0.6],vertical,"(390.0, 762.0)",0.6,0.556,1,5808.873
78,778,target,"[(1064, 906)]",[],[1],[0.6],vertical,"(390.0, 262.0)",0.8333333333333334,0.57,1,5813.369
78,779,target,"[(1091, 893)]",[],[1],[0.5333333333333333],vertical,"(390.0, 262.0)",0.7,0.492,1,5817.696
78,780,target,"[(1072, 895)]",[],[1],[0.55],horizontal,"(390.0, 262.0)",0.9333333333333333,0.51,1,5822.454
79,781,target,"[(1077, 888)]",[],[1],[],vertical,"(890.0, 762.0)",,cti_phase,0,5827.034
79,782,catch,"[(1105, 893)]",[],[1],[0.3333333333333333],vertical,"(890.0, 762.0)",1.3833333333333333,0.301,0,5831.304
79,783,target,"[(1085, 893)]",[],[1],[0.23333333333333334],horizontal,"(390.0, 262.0)",1.6333333333333333,0.2,1,5836.17
79,784,catch,"[(1089, 886)]",[],[1],[0.05],horizontal,"(390.0, 762.0)",1.3166666666666667,0.02,0,5841.303
79,785,target,"[(1076, 884)]",[],[1],[0.43333333333333335],horizontal,"(390.0, 762.0)",1.5,0.398,1,5846.089
79,786,target,"[(1084, 883)]",[],[1],[0.16666666666666666],vertical,"(390.0, 262.0)",1.6,0.132,1,5851.379
79,787,target,"[(1093, 895)]",[],[1],[0.5166666666666666],horizontal,"(890.0, 262.0)",0.9166666666666666,0.483,1,5856.271
79,788,target,"[(1100, 893)]",[],[1],[0.5333333333333333],vertical,"(390.0, 262.0)",1.15,0.498,1,5860.927
79,789,target,"[(1097, 904)]",[],[1],[],horizontal,"(390.0, 762.0)",,cti_phase,0,5866.044
79,790,target,"[(1105, 892)]",[],[1],[0.5],vertical,"(890.0, 262.0)",1.4333333333333333,0.458,1,5870.321
80,791,target,"[(1105, 893)]",[],[1],[0.5],vertical,"(890.0, 262.0)",0.8166666666666667,0.466,1,5875.125
80,792,target,"[(1097, 897)]",[],[1],[0.6],vertical,"(390.0, 262.0)",1.0833333333333333,0.56,1,5879.864
80,793,target,"[(1093, 890)]",[],[1],[0.26666666666666666],vertical,"(390.0, 762.0)",1.0833333333333333,0.231,1,5884.187
80,794,catch,"[(1100, 892)]",[],[1],[0.85],horizontal,"(890.0, 262.0)",0.7,nan,1,5889.288
80,795,catch,"[(1091, 897)]",[],[1],[0.3333333333333333],vertical,"(390.0, 762.0)",0.8,0.299,0,5894.188
80,796,target,"[(1102, 892)]",[],[1],[0.6166666666666667],vertical,"(890.0, 262.0)",0.6333333333333333,0.583,1,5898.432
80,797,target,"[(1101, 912)]",[],[1],[0.5333333333333333],horizontal,"(390.0, 262.0)",1.1,0.491,1,5902.905
80,798,target,"[(1078, 888)]",[],[1],[0.43333333333333335],horizontal,"(390.0, 762.0)",0.8833333333333333,0.392,1,5907.57
80,799,target,"[(1089, 890)]",[],[1],[],horizontal,"(390.0, 762.0)",,cti_phase,0,5911.863
80,800,target,"[(1096, 869)]",[],[1],[0.5166666666666666],horizontal,"(890.0, 762.0)",0.6,0.476,1,5915.953
81,801,catch,"[(1116, 906)]",[],[1],[],horizontal,"(890.0, 762.0)",,cti_phase,0,5922.336
81,802,target,"[(1120, 889)]",[],[1],[0.4166666666666667],horizontal,"(890.0, 262.0)",1.5,0.381,1,5927.071
81,803,target,"[(1072, 899)]",[],[1],[0.5],vertical,"(390.0, 262.0)",0.6166666666666667,0.461,1,5932.186
81,804,target,"[(1067, 907)]",[],[1],[0.5166666666666666],vertical,"(890.0, 262.0)",0.9666666666666667,0.476,1,5936.459
81,805,target,"[(1076, 899)]",[],[1],[0.3],vertical,"(390.0, 262.0)",1.5333333333333332,0.271,1,5941.048
81,806,target,"[(1091, 884)]",[],[1],[0.6166666666666667],horizontal,"(890.0, 262.0)",0.5666666666666667,0.591,1,5946.373
81,807,target,"[(1091, 907)]",[],[1],[0.36666666666666664],horizontal,"(890.0, 262.0)",1.6166666666666667,0.334,1,5950.878
81,808,target,"[(1076, 861)]",[],[1],[0.6166666666666667],horizontal,"(390.0, 262.0)",1.25,0.582,1,5956.321
81,809,target,"[(1077, 885)]",[],[1],[0.45],vertical,"(890.0, 262.0)",1.45,0.418,1,5960.925
81,810,target,"[(1091, 894)]",[],[1],[0.5],horizontal,"(890.0, 262.0)",1.05,0.467,1,5965.836
82,811,target,"[(1100, 861)]",[],[1],[0.36666666666666664],horizontal,"(390.0, 762.0)",1.3,0.326,1,5970.386
82,812,target,"[(1094, 899)]",[],[1],[0.5833333333333334],vertical,"(390.0, 262.0)",0.6666666666666666,0.542,1,5975.022
82,813,target,"[(1120, 899)]",[],[1],[],horizontal,"(890.0, 262.0)",,cti_phase,0,5979.356
82,814,catch,"[(1105, 872)]",[],[1],[0.85],vertical,"(890.0, 762.0)",1.1,nan,1,5984.032
82,815,target,"[(1082, 890)]",[],[1],[0.5666666666666667],horizontal,"(890.0, 762.0)",0.9666666666666667,0.527,1,5989.151
82,816,target,"[(1076, 889)]",[],[1],[0.5833333333333334],horizontal,"(890.0, 762.0)",0.7333333333333333,0.544,1,5993.812
82,817,catch,"[(1076, 896)]",[],[1],[0.6333333333333333],horizontal,"(890.0, 762.0)",1.2,0.601,0,5998.088
82,818,target,"[(1088, 896)]",[],[1],[0.5166666666666666],horizontal,"(890.0, 262.0)",1.1666666666666667,0.475,1,6003.127
82,819,target,"[(1110, 872)]",[],[1],[0.5],horizontal,"(390.0, 762.0)",0.8166666666666667,0.456,1,6007.555
82,820,target,"[(1100, 899)]",[],[1],[0.31666666666666665],vertical,"(390.0, 762.0)",1.6166666666666667,0.278,1,6012.187
83,821,target,"[(1072, 900)]",[],[1],[0.5],horizontal,"(890.0, 262.0)",0.95,0.46,1,6016.959
83,822,target,"[(1124, 899)]",[],[1],[0.5666666666666667],vertical,"(390.0, 262.0)",0.5666666666666667,0.522,1,6021.739
83,823,target,"[(1066, 880)]",[],[1],[0.5333333333333333],horizontal,"(890.0, 762.0)",0.7,0.493,1,6025.954
83,824,target,"[(1102, 899)]",[],[1],[0.5666666666666667],vertical,"(390.0, 762.0)",0.6,0.519,1,6030.455
83,825,target,"[(1082, 902)]",[],[1],[0.3333333333333333],horizontal,"(390.0, 762.0)",1.05,0.293,1,6034.488
83,826,target,"[(1073, 893)]",[],[1],[0.5166666666666666],horizontal,"(890.0, 262.0)",0.85,0.48,1,6039.287
83,827,target,"[(1076, 895)]",[],[1],[0.05],vertical,"(390.0, 762.0)",1.2666666666666666,0.019,1,6044.172
83,828,target,"[(1072, 886)]",[],[1],[0.5666666666666667],horizontal,"(890.0, 262.0)",1.15,0.526,1,6048.472
83,829,target,"[(1066, 885)]",[],[1],[0.55],horizontal,"(390.0, 762.0)",0.6,0.507,1,6053.157
83,830,target,"[(1071, 890)]",[],[1],[0.6],horizontal,"(890.0, 762.0)",0.7166666666666667,0.557,1,6057.206
84,831,target,"[(1076, 889)]",[],[1],[],horizontal,"(390.0, 762.0)",,cti_phase,0,6061.714
84,832,target,"[(1125, 880)]",[],[1],[0.55],vertical,"(890.0, 262.0)",1.2666666666666666,0.511,1,6066.638
84,833,target,"[(1082, 897)]",[],[1],[0.5],horizontal,"(890.0, 262.0)",1.05,0.459,1,6071.457
84,834,catch,"[(1081, 896)]",[],[1],[0.85],vertical,"(390.0, 262.0)",0.55,nan,1,6075.922
84,835,target,"[(1081, 903)]",[],[1],[0.85],vertical,"(890.0, 762.0)",0.75,nan,0,6080.222
84,836,target,"[(1065, 885)]",[],[1],[0.65],vertical,"(890.0, 762.0)",1.5333333333333332,0.604,1,8601.197
84,837,target,"[(1062, 877)]",[],[1],[0.6],vertical,"(390.0, 262.0)",0.6,0.555,1,8609.064
84,838,target,"[(1036, 881)]",[],[1],[0.48333333333333334],horizontal,"(390.0, 762.0)",1.4166666666666667,0.44,1,8613.581
84,839,target,"[(1057, 892)]",[],[1],[0.55],horizontal,"(890.0, 762.0)",1.0666666666666667,0.51,1,8618.813
84,840,target,"[(1063, 906)]",[],[1],[0.55],vertical,"(390.0, 262.0)",0.85,0.509,1,8623.431
85,841,target,"[(1075, 894)]",[],[1],[0.5],horizontal,"(390.0, 262.0)",1.0,0.456,1,8628.328
85,842,target,"[(1063, 896)]",[],[1],[0.43333333333333335],vertical,"(890.0, 262.0)",1.4833333333333334,0.395,1,8632.701
85,843,target,"[(1096, 892)]",[],[1],[0.5666666666666667],vertical,"(890.0, 262.0)",0.6,0.526,1,8638.133
85,844,target,"[(1096, 885)]",[],[1],[0.55],horizontal,"(390.0, 762.0)",1.2333333333333334,0.508,1,8642.847
85,845,target,"[(1058, 896)]",[],[1],[0.55],horizontal,"(390.0, 762.0)",0.8,0.51,1,8647.627
85,846,catch,"[(1072, 895)]",[],[1],[0.85],vertical,"(890.0, 262.0)",0.7166666666666667,nan,1,8652.048
85,847,target,"[(1100, 896)]",[],[1],[0.5333333333333333],vertical,"(890.0, 262.0)",1.4833333333333334,0.494,1,8656.748
85,848,target,"[(1067, 906)]",[],[1],[0.4],vertical,"(890.0, 762.0)",1.3,0.36,1,8661.548
85,849,target,"[(1076, 899)]",[],[1],[0.43333333333333335],horizontal,"(390.0, 762.0)",1.4333333333333333,0.398,1,8666.47
85,850,target,"[(1072, 909)]",[],[1],[0.5166666666666666],horizontal,"(890.0, 262.0)",1.0,0.481,1,8671.531
86,851,target,"[(1052, 907)]",[],[1],[0.5833333333333334],horizontal,"(390.0, 762.0)",0.5333333333333333,0.546,1,8676.308
86,852,catch,"[(1072, 905)]",[],[1],[0.5333333333333333],horizontal,"(390.0, 262.0)",1.1666666666666667,0.493,0,8680.56
86,853,target,"[(1072, 902)]",[],[1],[0.5166666666666666],horizontal,"(390.0, 762.0)",0.7666666666666666,0.484,1,8685.014
86,854,target,"[(1072, 883)]",[],[1],[0.3833333333333333],horizontal,"(890.0, 762.0)",1.4166666666666667,0.344,1,8689.317
86,855,target,"[(1072, 895)]",[],[1],[0.5166666666666666],horizontal,"(890.0, 762.0)",1.0,0.471,1,8694.897
86,856,target,"[(1070, 880)]",[],[1],[0.2833333333333333],vertical,"(390.0, 262.0)",1.4,0.254,1,8699.754
86,857,target,"[(1068, 861)]",[],[1],[0.36666666666666664],vertical,"(390.0, 262.0)",1.2166666666666666,0.332,1,8705.032
86,858,target,"[(1070, 904)]",[],[1],[0.5],vertical,"(890.0, 762.0)",0.9,0.462,1,8710.123
86,859,target,"[(1042, 901)]",[],[1],[],horizontal,"(390.0, 762.0)",,cti_phase,0,8715.165
86,860,target,"[(1102, 906)]",[],[1],[0.5833333333333334],vertical,"(890.0, 262.0)",0.7,0.547,1,8719.906
87,861,target,"[(1053, 899)]",[],[1],[0.5166666666666666],vertical,"(890.0, 262.0)",0.6333333333333333,0.474,1,8724.328
87,862,target,"[(1097, 917)]",[],[1],[0.48333333333333334],horizontal,"(890.0, 262.0)",0.8,0.446,1,8728.563
87,863,target,"[(1104, 896)]","[(1096, 893)]",[1],[0.03333333333333333],horizontal,"(390.0, 762.0)",,bar_phase,0,8733.182
87,864,catch,"[(1098, 892)]",[],[1],[0.35],horizontal,"(390.0, 262.0)",0.8166666666666667,0.318,0,8735.899
87,865,target,"[(1090, 894)]",[],[1],[0.08333333333333333],horizontal,"(390.0, 762.0)",1.1,0.054,1,8740.483
87,866,target,"[(1077, 887)]",[],[1],[0.31666666666666665],horizontal,"(890.0, 262.0)",1.5333333333333332,0.278,1,8744.533
87,867,target,"[(1066, 888)]",[],[1],[0.5166666666666666],horizontal,"(390.0, 262.0)",0.65,0.482,1,8749.597
87,868,catch,"[(1124, 893)]",[],[1],[0.45],vertical,"(890.0, 762.0)",1.3166666666666667,0.412,0,8754.015
87,869,target,"[(1115, 892)]",[],[1],[0.5333333333333333],vertical,"(890.0, 762.0)",0.8333333333333334,0.497,1,8758.631
87,870,target,"[(1076, 901)]",[],[1],[0.5333333333333333],horizontal,"(390.0, 262.0)",0.6166666666666667,0.489,1,8763.215
88,871,catch,"[(1086, 901)]",[],[1],[0.6833333333333333],horizontal,"(390.0, 262.0)",0.65,0.642,0,8767.993
88,872,target,"[(1087, 880)]",[],[1],[0.6833333333333333],vertical,"(890.0, 762.0)",1.0166666666666666,0.638,1,8772.766
88,873,target,"[(1086, 889)]",[],[1],[0.5333333333333333],horizontal,"(890.0, 262.0)",0.5833333333333334,0.492,1,8777.869
88,874,target,"[(1067, 894)]",[],[1],[0.4],vertical,"(390.0, 262.0)",1.5166666666666666,0.361,1,8782.681
88,875,target,"[(1089, 906)]",[],[1],[0.16666666666666666],vertical,"(390.0, 262.0)",1.3333333333333333,0.135,1,8787.599
88,876,catch,"[(1076, 907)]",[],[1],[0.25],vertical,"(390.0, 762.0)",1.0166666666666666,0.22,0,8792.603
88,877,catch,"[(1092, 899)]",[],[1],[0.85],horizontal,"(390.0, 762.0)",0.8666666666666667,nan,1,8797.532
88,878,target,"[(1096, 905)]",[],[1],[0.5666666666666667],horizontal,"(890.0, 262.0)",0.65,0.524,1,8802.026
88,879,target,"[(1077, 907)]",[],[1],[0.4166666666666667],vertical,"(390.0, 762.0)",1.2333333333333334,0.386,1,8806.218
88,880,target,"[(1062, 904)]",[],[1],[0.3333333333333333],vertical,"(390.0, 762.0)",0.85,0.295,1,8810.998
89,881,target,"[(1076, 895)]",[],[1],[0.5833333333333334],horizontal,"(890.0, 262.0)",0.7833333333333333,0.539,1,8815.304
89,882,target,"[(1083, 897)]",[],[1],[0.5666666666666667],horizontal,"(890.0, 762.0)",1.35,0.522,1,8819.831
89,883,target,"[(1076, 906)]",[],[1],[0.45],horizontal,"(390.0, 262.0)",1.3,0.41,1,8825.014
89,884,target,"[(1091, 889)]",[],[1],[0.11666666666666667],horizontal,"(390.0, 262.0)",1.6666666666666667,0.086,1,8830.031
89,885,target,"[(1062, 894)]",[],[1],[0.16666666666666666],vertical,"(390.0, 762.0)",1.5833333333333333,0.135,1,8834.815
89,886,catch,"[(1067, 894)]",[],[1],[0.85],horizontal,"(890.0, 762.0)",1.1666666666666667,nan,1,8839.63
89,887,target,"[(1083, 899)]",[],[1],[0.6666666666666666],horizontal,"(390.0, 262.0)",1.1333333333333333,0.624,1,8844.354
89,888,target,"[(1076, 905)]",[],[1],[0.6166666666666667],vertical,"(890.0, 262.0)",0.6666666666666666,0.573,1,8849.428
89,889,target,"[(1072, 886)]",[],[1],[0.5666666666666667],horizontal,"(390.0, 262.0)",0.5833333333333334,0.522,1,8853.982
89,890,target,"[(1091, 885)]",[],[1],[0.31666666666666665],horizontal,"(390.0, 262.0)",1.4833333333333334,0.28,1,8858.481
90,891,target,"[(1057, 885)]",[],[1],[0.3833333333333333],horizontal,"(890.0, 262.0)",1.4333333333333333,0.342,1,8864.614
90,892,target,"[(1062, 886)]",[],[1],[0.43333333333333335],vertical,"(890.0, 762.0)",1.5,0.395,1,8869.685
90,893,target,"[(1076, 895)]",[],[1],[0.5333333333333333],horizontal,"(890.0, 762.0)",1.2333333333333334,0.492,1,8875.698
90,894,target,"[(1064, 890)]",[],[1],[],horizontal,"(390.0, 762.0)",,cti_phase,0,8880.65
90,895,target,"[(1096, 885)]",[],[1],[0.6833333333333333],vertical,"(890.0, 262.0)",0.8166666666666667,0.638,1,8885.615
90,896,target,"[(1077, 894)]",[],[1],[0.43333333333333335],vertical,"(390.0, 262.0)",1.2,0.393,1,8890.632
90,897,target,"[(1081, 883)]",[],[1],[0.6666666666666666],horizontal,"(390.0, 262.0)",0.55,0.627,1,8895.73
90,898,target,"[(1076, 895)]",[],[1],[0.6333333333333333],vertical,"(890.0, 262.0)",0.75,0.588,1,8900.05
90,899,target,"[(1095, 914)]",[],[1],[0.55],vertical,"(390.0, 762.0)",0.9833333333333333,0.505,1,8904.349
90,900,target,"[(1067, 909)]",[],[1],[0.4],horizontal,"(890.0, 262.0)",1.2166666666666666,0.361,1,8909.209
91,901,catch,"[(1081, 895)]",[],[1],[0.26666666666666666],vertical,"(390.0, 262.0)",1.5666666666666667,0.232,0,8914.211
91,902,target,"[(1088, 904)]",[],[1],[0.23333333333333334],horizontal,"(390.0, 262.0)",1.5333333333333332,0.201,1,8918.999
91,903,target,"[(1076, 885)]",[],[1],[0.4166666666666667],vertical,"(390.0, 762.0)",1.4666666666666666,0.389,1,8924.0
91,904,target,"[(1124, 905)]",[],[1],[0.35],horizontal,"(890.0, 762.0)",1.5166666666666666,0.309,1,8929.048
91,905,target,"[(1072, 911)]",[],[1],[0.5166666666666666],horizontal,"(890.0, 762.0)",1.4,0.483,1,8933.925
91,906,target,"[(1081, 910)]",[],[1],[0.5333333333333333],vertical,"(890.0, 262.0)",0.8,0.498,1,8938.918
91,907,catch,"[(1076, 906)]",[],[1],[],vertical,"(390.0, 762.0)",,cti_phase,0,8943.681
91,908,target,"[(1101, 909)]",[],[1],[0.23333333333333334],vertical,"(390.0, 762.0)",0.9166666666666666,0.198,1,8948.481
91,909,target,"[(1100, 885)]",[],[1],[0.48333333333333334],horizontal,"(890.0, 262.0)",1.4666666666666666,0.446,1,8952.438
91,910,target,"[(1096, 904)]",[],[1],[0.5666666666666667],vertical,"(390.0, 762.0)",1.0333333333333332,0.522,1,8957.399
