block,trial,trial_type,taps_start_loc_during_fix,taps_end_loc_during_fix,taps_on_lever_during_fix,taps_on_lever_s_during_fix,bar_orientation,target_xy,cti,rt,acc,time,pulses,fa_rate_recent100,p_catch
0,1,target,"[(1139, 831)]",[],[1],[0.5166666666666666],horizontal,"(890.0, 262.0)",0.6333333333333333,0.485,1,0.599,1,0.0,0.25
0,2,catch,"[(1149, 816)]",[],[1],[],horizontal,"(890.0, 762.0)",1.65,nan,1,52.458,1,0.0,0.25
0,3,target,"[(1144, 824)]",[],[1],[],vertical,"(890.0, 262.0)",,"('cti', 0.101)",0,57.627,0,0.3333333333333333,0.25
0,4,target,"[(1146, 786)]",[],[1],[0.2],vertical,"(890.0, 262.0)",0.8166666666666667,0.168,0,64.984,0,0.25,0.25
0,5,catch,"[(1153, 784)]",[],[1],[],horizontal,"(890.0, 262.0)",,"('cti', 1.594),nan",0,69.674,0,0.4,0.25
0,6,target,"[(1154, 796)]",[],[1],[0.43333333333333335],horizontal,"(890.0, 262.0)",0.7666666666666666,0.401,1,74.495,1,0.3333333333333333,0.25
0,7,target,"[(1179, 785)]",[],[1],[0.55],vertical,"(390.0, 262.0)",0.5833333333333334,0.52,1,83.068,1,0.2857142857142857,0.25
0,8,catch,"[(1177, 773)]","[(1170, 833)]",[1],[0.25],vertical,"(890.0, 762.0)",,"('bar', 0.263),nan",0,88.041,0,0.375,0.25
0,9,catch,"[(1180, 800)]",[],[1],[],horizontal,"(390.0, 262.0)",1.65,"('cti', 1.694),nan",0,90.642,0,0.4444444444444444,0.25
0,10,target,"[(1173, 789)]",[],[1],[0.5333333333333333],horizontal,"(390.0, 762.0)",1.05,0.508,1,95.282,1,0.4,0.25
0,11,target,"[(1178, 777)]",[],[1],[0.25],vertical,"(890.0, 762.0)",0.9833333333333333,0.217,1,99.972,1,0.36363636363636365,0.25
0,12,target,"[(1164, 789)]",[],[1],[],vertical,"(890.0, 762.0)",,"('cti', 1.281)",0,105.149,0,0.4166666666666667,0.25
0,13,catch,"[(1165, 794)]",[],[1],[],horizontal,"(890.0, 762.0)",1.65,nan,1,110.001,1,0.38461538461538464,0.25
0,14,target,"[(1174, 786)]",[],[1],[0.6333333333333333],vertical,"(890.0, 262.0)",1.1,0.589,1,115.448,1,0.35714285714285715,0.25
0,15,catch,"[(1159, 767)]",[],[1],[],horizontal,"(390.0, 762.0)",1.65,nan,1,120.655,1,0.3333333333333333,0.25
0,16,target,"[(1179, 792)]",[],[1],[0.55],horizontal,"(390.0, 262.0)",1.0,0.513,1,126.106,2,0.3125,0.25
0,17,target,"[(1176, 774)]",[],[1],[0.85],vertical,"(890.0, 762.0)",0.65,nan,0,131.811,0,0.29411764705882354,0.25
0,18,target,"[(1137, 761)]",[],[1],[0.3333333333333333],vertical,"(890.0, 262.0)",0.6833333333333333,0.302,1,136.042,1,0.2777777777777778,0.25
0,19,target,"[(1170, 769)]",[],[1],[],horizontal,"(390.0, 262.0)",,"('fix', 0.051)",0,141.239,0,0.2631578947368421,0.25
0,20,target,"[(1135, 807)]",[],[1],[0.7],vertical,"(390.0, 762.0)",0.4166666666666667,0.679,1,142.698,1,0.25,0.25
0,21,target,"[(1181, 799)]",[],[1],[0.85],vertical,"(890.0, 762.0)",0.7833333333333333,nan,0,147.548,0,0.23809523809523808,0.25
0,22,target,"[(1102, 817)]",[],[1],[0.85],vertical,"(890.0, 262.0)",0.8166666666666667,nan,0,152.356,0,0.22727272727272727,0.25
0,23,target,"[(1139, 791)]",[],[1],[0.5666666666666667],horizontal,"(890.0, 262.0)",1.5333333333333332,0.531,1,157.248,1,0.21739130434782608,0.25
0,24,target,"[(1149, 770)]",[],[1],[0.55],horizontal,"(890.0, 762.0)",0.6,0.526,1,163.424,1,0.20833333333333334,0.25
0,25,target,"[(1177, 776)]",[],[1],[0.48333333333333334],vertical,"(890.0, 262.0)",0.7833333333333333,0.449,1,168.22,1,0.2,0.25
0,26,catch,"[(1148, 770)]",[],[1],[],horizontal,"(890.0, 262.0)",1.65,"('cti', 1.662),nan",0,173.105,0,0.23076923076923078,0.25
0,27,catch,"[(1166, 798)]",[],[1],[],horizontal,"(390.0, 262.0)",1.65,nan,1,178.08,1,0.2222222222222222,0.25
0,28,target,"[(1156, 781)]",[],[1],[0.5333333333333333],vertical,"(890.0, 762.0)",1.0166666666666666,0.503,1,182.981,1,0.21428571428571427,0.25
0,29,catch,"[(1180, 761)]",[],[1],[],horizontal,"(390.0, 262.0)",1.65,nan,1,187.848,1,0.20689655172413793,0.25
0,30,target,"[(1176, 775)]",[],[1],[0.5666666666666667],vertical,"(890.0, 262.0)",1.2,0.544,1,193.327,2,0.2,0.25
0,31,target,"[(1179, 783)]",[],[1],[0.6],vertical,"(890.0, 762.0)",0.95,0.574,1,198.886,2,0.1935483870967742,0.25
0,32,target,"[(1169, 774)]",[],[1],[0.4],horizontal,"(390.0, 262.0)",1.4166666666666667,0.37,1,204.584,2,0.1875,0.25
0,33,target,"[(1157, 769)]",[],[1],[0.6666666666666666],vertical,"(390.0, 262.0)",0.7666666666666666,0.636,1,210.779,2,0.18181818181818182,0.25
0,34,target,"[(1144, 774)]",[],[1],[0.5333333333333333],horizontal,"(890.0, 262.0)",0.5333333333333333,0.504,1,216.3,3,0.17647058823529413,0.25
0,35,target,"[(1170, 792)]",[],[1],[0.5],vertical,"(890.0, 762.0)",1.05,0.475,1,222.144,3,0.17142857142857143,0.25
0,36,target,"[(1149, 779)]",[],[1],[0.55],horizontal,"(390.0, 762.0)",0.8666666666666667,0.518,1,228.201,3,0.16666666666666666,0.25
0,37,target,"[(1144, 779)]",[],[1],[0.5166666666666666],horizontal,"(390.0, 262.0)",1.0,0.488,1,234.33,3,0.16216216216216217,0.25
0,38,target,"[(1155, 803)]",[],[1],[0.5166666666666666],vertical,"(390.0, 762.0)",0.5333333333333333,0.494,1,239.763,3,0.15789473684210525,0.25
0,39,target,"[(1174, 776)]",[],[1],[0.48333333333333334],vertical,"(890.0, 262.0)",0.5833333333333334,0.449,1,244.826,3,0.15384615384615385,0.25
0,40,target,"[(1170, 783)]",[],[1],[0.85],vertical,"(390.0, 762.0)",1.25,"('cti', 1.271),nan",0,250.292,0,0.175,0.25
0,41,target,"[(1100, 783)]",[],[1],[0.3833333333333333],horizontal,"(390.0, 262.0)",1.3666666666666667,0.35,1,255.731,1,0.17073170731707318,0.25
0,42,target,"[(1148, 777)]",[],[1],[0.26666666666666666],horizontal,"(390.0, 762.0)",1.4666666666666666,0.233,1,261.132,1,0.16666666666666666,0.25
0,43,target,"[(1149, 787)]",[],[1],[0.5166666666666666],horizontal,"(890.0, 262.0)",0.48333333333333334,0.485,1,266.462,1,0.16279069767441862,0.25
0,44,target,"[(1175, 777)]",[],[1],[0.2833333333333333],horizontal,"(890.0, 762.0)",1.4333333333333333,0.254,1,270.912,2,0.1590909090909091,0.25
0,45,target,"[(1174, 807)]",[],[1],[0.85],horizontal,"(390.0, 262.0)",1.1,nan,0,276.508,0,0.15555555555555556,0.25
0,46,catch,"[(1157, 781)]",[],[1],[],horizontal,"(390.0, 762.0)",1.65,nan,1,281.23,1,0.15217391304347827,0.25
0,47,target,"[(1147, 782)]",[],[1],[0.5166666666666666],horizontal,"(890.0, 762.0)",0.4166666666666667,0.484,1,286.545,1,0.14893617021276595,0.25
0,48,target,"[(1175, 785)]",[],[1],[0.5166666666666666],horizontal,"(390.0, 762.0)",0.65,0.476,1,291.177,1,0.14583333333333334,0.25
0,49,target,"[(1178, 781)]",[],[1],[0.48333333333333334],horizontal,"(390.0, 262.0)",1.35,0.45,1,296.234,2,0.14285714285714285,0.25
0,50,target,"[(1179, 779)]",[],[1],[0.5333333333333333],vertical,"(890.0, 262.0)",0.45,0.5,1,301.911,2,0.14,0.25
0,51,target,"[(1159, 779)]",[],[1],[0.5],vertical,"(390.0, 762.0)",1.3833333333333333,0.457,1,306.696,2,0.14,0.25
0,52,target,"[(1150, 786)]",[],[1],[0.35],vertical,"(890.0, 762.0)",1.4666666666666666,0.314,1,312.69,2,0.14,0.25
0,53,target,"[(1157, 768)]",[],[1],[0.5],horizontal,"(890.0, 762.0)",0.8,0.462,1,318.561,3,0.12,0.25
0,54,catch,"[(1150, 753), (1154, 779)]",[],"[0, 1]",[],vertical,"(390.0, 762.0)",1.65,nan,1,324.096,3,0.12,0.25
0,55,target,"[(1149, 782)]",[],[1],[0.5333333333333333],horizontal,"(390.0, 762.0)",1.4,0.491,1,331.398,3,0.1,0.25
0,56,catch,"[(1154, 790)]",[],[1],[],horizontal,"(890.0, 762.0)",1.65,nan,1,337.462,3,0.1,0.25
0,57,target,"[(1158, 779)]",[],[1],[0.5333333333333333],horizontal,"(890.0, 262.0)",0.6333333333333333,0.495,1,343.278,3,0.1,0.25
0,58,catch,"[(1151, 782)]",[],[1],[],horizontal,"(890.0, 262.0)",1.65,nan,1,348.444,3,0.08,0.25
0,59,target,"[(1155, 769)]",[],[1],[0.6],vertical,"(890.0, 762.0)",0.8833333333333333,0.559,1,354.735,3,0.06,0.25
0,60,target,"[(1172, 774)]",[],[1],[0.5333333333333333],vertical,"(890.0, 762.0)",0.7333333333333333,0.498,1,360.462,3,0.06,0.25
0,61,target,"[(1154, 764)]",[],[1],[0.5333333333333333],vertical,"(890.0, 262.0)",1.2666666666666666,0.488,1,366.195,3,0.06,0.25
0,62,target,"[(1153, 770)]",[],[1],[0.6166666666666667],vertical,"(390.0, 762.0)",1.2666666666666666,0.577,1,372.128,3,0.04,0.25
0,63,target,"[(1179, 771)]",[],[1],[0.6166666666666667],horizontal,"(390.0, 762.0)",0.6,0.573,1,378.128,3,0.04,0.25
0,64,target,"[(1179, 791)]",[],[1],[0.48333333333333334],horizontal,"(890.0, 262.0)",0.35,0.444,1,383.292,3,0.04,0.25
0,65,target,"[(1173, 767)]",[],[1],[0.16666666666666666],horizontal,"(890.0, 762.0)",1.4666666666666666,0.134,0,388.076,0,0.04,0.25
0,66,target,"[(1150, 786)]",[],[1],[0.5333333333333333],vertical,"(390.0, 262.0)",0.65,0.488,1,392.495,1,0.04,0.25
0,67,target,"[(1154, 768)]",[],[1],[0.3333333333333333],vertical,"(390.0, 762.0)",1.4833333333333334,0.297,1,397.344,1,0.04,0.25
0,68,catch,"[(1159, 779)]",[],[1],[],horizontal,"(890.0, 762.0)",1.65,nan,1,402.576,1,0.04,0.25
0,69,target,"[(1179, 794)]",[],[1],[0.85],horizontal,"(890.0, 762.0)",0.5333333333333333,nan,0,407.877,0,0.04,0.25
0,70,target,"[(1166, 789)]",[],[1],[0.6333333333333333],horizontal,"(390.0, 262.0)",0.5,0.585,1,412.202,1,0.04,0.25
0,71,target,"[(1160, 761)]",[],[1],[0.6166666666666667],vertical,"(390.0, 762.0)",0.5666666666666667,0.57,1,416.479,1,0.04,0.25
0,72,target,"[(1159, 760)]",[],[1],[0.48333333333333334],horizontal,"(890.0, 262.0)",0.7,0.447,1,420.961,1,0.04,0.25
0,73,target,"[(1179, 778)]",[],[1],[0.85],horizontal,"(890.0, 762.0)",0.6166666666666667,nan,0,425.513,0,0.04,0.25
0,74,target,"[(1151, 786)]",[],[1],[0.7],vertical,"(890.0, 762.0)",1.2,0.653,1,429.877,1,0.04,0.25
0,75,catch,"[(1174, 778)]",[],[1],[],horizontal,"(890.0, 262.0)",1.65,nan,1,435.278,1,0.04,0.25
0,76,target,"[(1181, 777)]",[],[1],[0.5166666666666666],vertical,"(890.0, 762.0)",0.45,0.471,1,440.774,1,0.02,0.25
0,77,target,"[(1142, 747), (1129, 754)]",[],"[0, 1]",[0.5166666666666666],horizontal,"(390.0, 762.0)",0.6333333333333333,0.477,1,445.494,2,0.02,0.25
0,78,catch,"[(1182, 785)]",[],[1],[],vertical,"(390.0, 762.0)",1.65,nan,1,452.078,2,0.02,0.25
0,79,target,"[(1180, 781)]",[],[1],[0.5166666666666666],horizontal,"(390.0, 762.0)",0.5833333333333334,0.474,1,457.435,2,0.02,0.25
0,80,catch,"[(1157, 780)]",[],[1],[],horizontal,"(390.0, 762.0)",1.65,nan,1,462.676,2,0.02,0.25
0,81,target,"[(1193, 751), (1159, 782)]",[],"[0, 1]",[0.26666666666666666],vertical,"(890.0, 262.0)",1.3166666666666667,0.228,1,468.244,3,0.02,0.25
0,82,catch,"[(1169, 779)]",[],[1],[],horizontal,"(390.0, 762.0)",1.65,nan,1,475.41,3,0.02,0.25
0,83,target,"[(1168, 763)]",[],[1],[0.48333333333333334],horizontal,"(890.0, 762.0)",0.9833333333333333,0.44,1,481.439,3,0.02,0.25
0,84,target,"[(1149, 751), (1150, 772)]",[],"[0, 1]",[0.5166666666666666],horizontal,"(390.0, 262.0)",0.8,0.474,1,486.82,3,0.02,0.25
0,85,catch,"[(1169, 771)]",[],[1],[],vertical,"(390.0, 262.0)",1.65,nan,1,494.354,3,0.02,0.25
0,86,target,"[(1159, 789)]",[],[1],[0.55],horizontal,"(390.0, 762.0)",1.2333333333333334,0.523,1,499.953,3,0.02,0.25
0,87,catch,"[(1161, 778)]",[],[1],[],vertical,"(390.0, 262.0)",,"('cti', 1.47),nan",0,505.724,0,0.04,0.25
0,88,catch,"[(1157, 778)]",[],[1],[],vertical,"(890.0, 262.0)",1.65,nan,1,510.218,1,0.04,0.25
0,89,target,"[(1180, 807)]",[],[1],[0.5833333333333334],vertical,"(890.0, 762.0)",0.5833333333333334,0.538,1,515.345,1,0.04,0.25
0,90,target,"[(1149, 773)]",[],[1],[0.85],horizontal,"(890.0, 762.0)",0.55,nan,0,520.32,0,0.02,0.25
0,91,target,"[(1150, 777)]",[],[1],[0.6666666666666666],horizontal,"(890.0, 762.0)",0.6166666666666667,0.62,1,524.479,1,0.02,0.25
0,92,target,"[(1154, 773)]",[],[1],[0.85],horizontal,"(890.0, 262.0)",0.6666666666666666,nan,0,529.56,0,0.02,0.25
0,93,target,"[(1152, 775)]",[],[1],[0.6333333333333333],horizontal,"(890.0, 262.0)",0.7666666666666666,0.589,1,533.911,1,0.02,0.25
0,94,target,"[(1153, 785)]",[],[1],[0.5],vertical,"(390.0, 762.0)",0.6666666666666666,0.464,1,538.879,1,0.02,0.25
0,95,target,"[(1151, 767)]",[],[1],[0.6833333333333333],horizontal,"(890.0, 262.0)",0.4166666666666667,0.64,1,543.345,1,0.02,0.25
0,96,target,"[(1184, 779)]",[],[1],[0.7],vertical,"(390.0, 762.0)",0.6333333333333333,0.652,1,547.7,2,0.02,0.25
0,97,target,"[(1182, 781)]",[],[1],[0.55],horizontal,"(390.0, 762.0)",0.5166666666666666,0.514,1,552.895,2,0.02,0.25
0,98,target,"[(1179, 765)]",[],[1],[0.7],horizontal,"(390.0, 762.0)",1.0,0.656,1,557.714,2,0.02,0.25
0,99,target,"[(1180, 769)]",[],[1],[0.6833333333333333],vertical,"(390.0, 262.0)",0.7166666666666667,0.639,1,562.988,2,0.02,0.25
0,100,target,"[(1157, 775)]",[],[1],[0.36666666666666664],vertical,"(390.0, 762.0)",1.5166666666666666,0.334,1,568.651,3,0.02,0.25
0,101,target,"[(1169, 779)]",[],[1],[0.48333333333333334],vertical,"(890.0, 762.0)",0.8166666666666667,0.445,1,575.129,3,0.02,0.25
0,102,target,"[(1149, 769)]",[],[1],[0.48333333333333334],vertical,"(890.0, 262.0)",0.8833333333333333,0.447,1,581.118,3,0.02,0.25
0,103,catch,"[(1149, 768)]",[],[1],[],horizontal,"(390.0, 762.0)",1.65,nan,1,586.866,3,0.02,0.25
0,104,target,"[(1155, 779)]",[],[1],[0.5333333333333333],vertical,"(390.0, 762.0)",1.2333333333333334,0.491,1,592.612,3,0.02,0.25
0,105,target,"[(1155, 767)]",[],[1],[0.65],vertical,"(890.0, 262.0)",0.8166666666666667,0.607,1,598.726,3,0.02,0.25
0,106,target,"[(1163, 766)]",[],[1],[0.7],vertical,"(890.0, 762.0)",1.25,0.648,1,604.845,3,0.02,0.25
0,107,target,"[(1154, 761)]",[],[1],[0.6],horizontal,"(890.0, 762.0)",1.0166666666666666,0.556,1,610.928,3,0.02,0.25
0,108,target,"[(1178, 766)]",[],[1],[0.5],vertical,"(890.0, 262.0)",1.2333333333333334,0.459,1,617.21,3,0.02,0.25
0,109,target,"[(1155, 755)]",[],[1],[0.6166666666666667],horizontal,"(390.0, 762.0)",1.1333333333333333,0.568,1,623.097,3,0.02,0.25
0,110,target,"[(1153, 763)]",[],[1],[0.65],vertical,"(890.0, 262.0)",1.4833333333333334,0.609,1,629.162,3,0.02,0.25
0,111,target,"[(1159, 772)]",[],[1],[0.6666666666666666],vertical,"(890.0, 762.0)",0.8333333333333334,0.624,1,635.439,3,0.02,0.25
0,112,catch,"[(1153, 781)]",[],[1],[],horizontal,"(390.0, 262.0)",1.65,nan,1,641.204,3,0.02,0.25
0,113,catch,"[(1162, 770)]",[],[1],[],horizontal,"(390.0, 262.0)",1.65,nan,1,647.261,3,0.02,0.25
0,114,target,"[(1156, 776)]",[],[1],[0.55],vertical,"(390.0, 262.0)",0.9833333333333333,0.506,1,653.511,3,0.02,0.25
0,115,catch,"[(1151, 757)]",[],[1],[],horizontal,"(390.0, 262.0)",1.65,nan,1,658.994,3,0.02,0.25
0,116,target,"[(1158, 773)]",[],[1],[0.4666666666666667],vertical,"(390.0, 262.0)",0.8,0.424,1,664.627,3,0.02,0.25
0,117,target,"[(1153, 780)]",[],[1],[0.85],vertical,"(890.0, 762.0)",0.7166666666666667,nan,0,670.051,0,0.02,0.25
0,118,target,"[(1153, 777)]",[],[1],[0.6166666666666667],horizontal,"(890.0, 762.0)",0.75,0.579,1,674.718,1,0.02,0.25
0,119,target,"[(1169, 777)]",[],[1],[0.85],horizontal,"(390.0, 262.0)",0.6666666666666666,nan,0,679.828,0,0.02,0.25
0,120,target,"[(1155, 777)]",[],[1],[0.25],horizontal,"(890.0, 262.0)",1.4,0.212,1,684.431,1,0.02,0.25
0,121,target,"[(1170, 778)]",[],[1],[0.85],horizontal,"(890.0, 762.0)",0.8166666666666667,nan,0,689.738,0,0.02,0.25
0,122,target,"[(1158, 785)]",[],[1],[0.5666666666666667],vertical,"(890.0, 262.0)",0.43333333333333335,0.525,1,694.012,1,0.02,0.25
0,123,target,"[(1132, 778)]",[],[1],[0.5],vertical,"(390.0, 262.0)",1.3333333333333333,0.46,1,698.661,1,0.02,0.25
0,124,catch,"[(1162, 801)]",[],[1],[],vertical,"(390.0, 762.0)",1.65,nan,1,704.179,1,0.02,0.25
0,125,target,"[(1154, 794)]",[],[1],[0.85],horizontal,"(390.0, 762.0)",0.75,nan,0,709.578,0,0.02,0.25
0,126,target,"[(1124, 781)]",[],[1],[0.55],horizontal,"(390.0, 262.0)",1.0,0.51,1,714.595,1,0.02,0.25
0,127,target,"[(1160, 786)]",[],[1],[0.6],vertical,"(890.0, 262.0)",1.2,0.558,1,719.466,1,0.02,0.25
0,128,target,"[(1155, 790)]",[],[1],[0.5833333333333334],horizontal,"(390.0, 762.0)",0.5,0.542,1,724.746,1,0.02,0.25
0,129,target,"[(1149, 775)]",[],[1],[0.5333333333333333],vertical,"(390.0, 762.0)",1.2666666666666666,0.488,1,729.195,2,0.02,0.25
0,130,target,"[(1180, 779)]",[],[1],[0.5333333333333333],vertical,"(390.0, 762.0)",1.3,0.489,1,735.004,2,0.02,0.25
0,131,catch,"[(1152, 763)]",[],[1],[],horizontal,"(390.0, 262.0)",1.65,nan,1,740.346,2,0.02,0.25
0,132,target,"[(1159, 783)]",[],[1],[0.6833333333333333],horizontal,"(390.0, 762.0)",1.1166666666666667,0.652,1,746.179,2,0.02,0.25
0,133,target,"[(1149, 791)]",[],[1],[0.55],horizontal,"(390.0, 262.0)",1.0833333333333333,0.507,1,751.826,3,0.02,0.25
0,134,catch,"[(1155, 764)]",[],[1],[],vertical,"(890.0, 262.0)",1.65,nan,1,758.172,3,0.02,0.25
0,135,target,"[(1151, 787)]",[],[1],[0.85],vertical,"(890.0, 262.0)",0.9333333333333333,nan,0,764.362,0,0.02,0.25
0,136,target,"[(1129, 780)]",[],[1],[0.55],horizontal,"(890.0, 262.0)",0.6333333333333333,0.514,1,769.379,1,0.02,0.25
0,137,target,"[(1153, 783)]",[],[1],[0.55],vertical,"(390.0, 262.0)",0.85,0.516,1,774.229,1,0.0,0.25
0,138,target,"[(1149, 780)]",[],[1],[0.5833333333333334],horizontal,"(390.0, 262.0)",1.1833333333333333,0.541,1,779.332,1,0.0,0.25
0,139,target,"[(1144, 784)]",[],[1],[0.5833333333333334],horizontal,"(390.0, 262.0)",1.2,0.55,1,784.479,2,0.0,0.25
0,140,target,"[(1174, 773)]",[],[1],[0.85],horizontal,"(390.0, 762.0)",0.43333333333333335,nan,0,790.329,0,0.0,0.25
0,141,target,"[(1137, 777)]",[],[1],[0.55],vertical,"(390.0, 762.0)",0.9666666666666667,0.513,1,794.428,1,0.0,0.25
0,142,catch,"[(1126, 769)]",[],[1],[],vertical,"(390.0, 262.0)",1.65,nan,1,799.884,1,0.0,0.25
0,143,target,"[(1148, 758)]",[],[1],[0.6166666666666667],horizontal,"(390.0, 262.0)",0.7166666666666667,0.569,1,805.002,1,0.0,0.25
0,144,target,"[(1144, 779)]",[],[1],[0.6],vertical,"(390.0, 762.0)",1.3833333333333333,0.56,1,810.053,2,0.0,0.25
0,145,target,"[(1173, 773)]",[],[1],[0.5],horizontal,"(890.0, 762.0)",0.5833333333333334,0.461,1,816.161,2,0.0,0.25
0,146,target,"[(1137, 777)]",[],[1],[0.43333333333333335],horizontal,"(890.0, 262.0)",1.0833333333333333,0.401,1,821.007,2,0.0,0.25
0,147,target,"[(1159, 798)]",[],[1],[0.6666666666666666],vertical,"(890.0, 762.0)",1.5,0.622,1,826.91,2,0.0,0.25
0,148,target,"[(1168, 785)]",[],[1],[0.5],vertical,"(390.0, 262.0)",0.8,0.463,1,832.756,3,0.0,0.25
0,149,target,"[(1176, 791)]",[],[1],[0.5],horizontal,"(890.0, 762.0)",0.9333333333333333,0.455,1,838.24,3,0.0,0.25
0,150,target,"[(1145, 791)]",[],[1],[0.48333333333333334],horizontal,"(890.0, 262.0)",0.7166666666666667,0.44,1,843.953,3,0.0,0.25
0,151,target,"[(1153, 779)]",[],[1],[0.55],vertical,"(890.0, 762.0)",0.6666666666666666,0.51,1,849.599,3,0.0,0.25
0,152,target,"[(1151, 771)]",[],[1],[0.5333333333333333],vertical,"(890.0, 262.0)",0.75,0.494,1,855.219,3,0.0,0.25
0,153,catch,"[(1174, 799)]",[],[1],[],horizontal,"(890.0, 762.0)",1.65,nan,1,860.627,3,0.0,0.25
0,154,target,"[(1175, 769)]",[],[1],[0.4],horizontal,"(890.0, 762.0)",1.3,0.361,1,866.468,3,0.0,0.25
0,155,target,"[(1138, 803)]",[],[1],[0.5333333333333333],vertical,"(390.0, 762.0)",0.8833333333333333,0.491,1,872.035,3,0.0,0.25
0,156,target,"[(1144, 764)]",[],[1],[0.85],vertical,"(390.0, 762.0)",0.35,nan,0,877.729,0,0.0,0.25
0,157,target,"[(1145, 773)]",[],[1],[0.6],vertical,"(390.0, 762.0)",0.3833333333333333,0.55,1,882.23,1,0.0,0.25
0,158,target,"[(1153, 769)]",[],[1],[0.3833333333333333],vertical,"(390.0, 762.0)",1.5166666666666666,0.345,1,886.596,1,0.0,0.25
0,159,catch,"[(1172, 782)]",[],[1],[],horizontal,"(890.0, 262.0)",1.65,nan,1,892.01,1,0.0,0.25
0,160,catch,"[(1144, 772)]",[],[1],[],vertical,"(890.0, 762.0)",1.65,nan,1,897.56,2,0.0,0.25
0,161,target,"[(1123, 789)]",[],[1],[0.6333333333333333],horizontal,"(890.0, 262.0)",1.0,0.592,1,903.207,2,0.0,0.25
0,162,target,"[(1150, 778)]",[],[1],[0.5666666666666667],horizontal,"(890.0, 262.0)",1.0666666666666667,0.523,1,910.052,2,0.0,0.25
0,163,catch,"[(1147, 769)]",[],[1],[],horizontal,"(890.0, 262.0)",1.65,nan,1,915.296,2,0.0,0.25
0,164,target,"[(1147, 783)]",[],[1],[0.5666666666666667],vertical,"(890.0, 762.0)",0.36666666666666664,0.522,1,921.263,3,0.0,0.25
0,165,target,"[(1170, 794)]",[],[1],[0.48333333333333334],horizontal,"(890.0, 262.0)",1.3333333333333333,0.442,1,927.028,3,0.0,0.25
0,166,target,"[(1166, 774)]",[],[1],[0.55],horizontal,"(890.0, 262.0)",1.1166666666666667,0.503,1,933.163,3,0.0,0.25
0,167,catch,"[(1152, 776)]",[],[1],[],horizontal,"(390.0, 262.0)",,"('cti', 1.46),nan",0,939.162,0,0.02,0.25
0,168,target,"[(1144, 802)]",[],[1],[0.55],vertical,"(390.0, 262.0)",0.8,0.508,1,943.863,1,0.02,0.25
0,169,catch,"[(1167, 770)]",[],[1],[],horizontal,"(390.0, 262.0)",1.65,nan,1,948.53,1,0.02,0.25
0,170,target,"[(1151, 776)]",[],[1],[0.5833333333333334],vertical,"(890.0, 762.0)",1.3166666666666667,0.54,1,953.9,1,0.02,0.25
0,171,target,"[(1177, 765)]",[],[1],[0.5],vertical,"(890.0, 262.0)",0.3833333333333333,0.467,1,959.018,2,0.02,0.25
0,172,target,"[(1162, 770)]",[],[1],[0.75],vertical,"(390.0, 762.0)",0.7,0.707,1,963.842,2,0.02,0.25
0,173,catch,"[(1139, 769)]",[],[1],[],horizontal,"(890.0, 262.0)",1.65,nan,1,969.398,2,0.02,0.25
0,174,target,"[(1151, 767)]",[],[1],[0.5],vertical,"(890.0, 762.0)",1.1166666666666667,0.459,1,974.724,2,0.02,0.25
0,175,target,"[(1135, 779)]",[],[1],[0.5833333333333334],horizontal,"(890.0, 762.0)",0.5666666666666667,0.549,1,980.329,3,0.02,0.25
0,176,target,"[(1139, 791)]",[],[1],[0.5333333333333333],horizontal,"(390.0, 762.0)",1.2833333333333332,0.492,1,986.228,3,0.02,0.25
0,177,target,"[(1144, 767)]",[],[1],[0.48333333333333334],horizontal,"(390.0, 262.0)",1.4,0.442,1,992.829,3,0.02,0.25
0,178,target,"[(1147, 774)]",[],[1],[0.5666666666666667],vertical,"(890.0, 262.0)",1.2,0.526,1,999.499,3,0.02,0.25
0,179,target,"[(1179, 766)]",[],[1],[0.5],vertical,"(890.0, 262.0)",1.4833333333333334,0.462,1,1005.279,3,0.02,0.25
0,180,target,"[(1165, 776)]",[],[1],[0.5166666666666666],horizontal,"(890.0, 762.0)",0.8333333333333334,0.478,1,1011.446,3,0.02,0.25
0,181,target,"[(1146, 771)]",[],[1],[0.5],horizontal,"(390.0, 762.0)",0.6833333333333333,0.464,1,1016.802,3,0.02,0.25
0,182,target,"[(1177, 780)]",[],[1],[0.5166666666666666],vertical,"(390.0, 262.0)",0.8,0.477,1,1022.562,3,0.02,0.25
0,183,target,"[(1169, 767)]",[],[1],[0.85],vertical,"(390.0, 762.0)",1.1833333333333333,nan,0,1028.527,0,0.02,0.25
0,184,target,"[(1146, 780)]",[],[1],[0.6333333333333333],vertical,"(890.0, 262.0)",0.55,0.591,1,1033.563,1,0.02,0.25
0,185,target,"[(439, 576), (268, 748), (167, 567), (456, 628), (534, 424), (554, 430), (704, 363), (300, 567), (155, 626), (1177, 790)]",[],"[0, 0, 0, 0, 0, 0, 0, 0, 0, 1]",[0.85],horizontal,"(390.0, 262.0)",0.4166666666666667,nan,0,1038.245,0,0.02,0.25
0,186,target,"[(1113, 784)]",[],[1],[0.85],vertical,"(390.0, 262.0)",0.8,nan,0,1085.079,0,0.02,0.25
0,187,target,"[(1160, 803)]",[],[1],[0.5333333333333333],horizontal,"(390.0, 762.0)",0.65,0.487,1,1090.264,1,0.02,0.25
0,188,target,"[(1154, 789)]",[],[1],[0.5833333333333334],vertical,"(390.0, 262.0)",1.5333333333333332,0.55,1,1094.747,1,0.02,0.25
0,189,target,"[(1158, 825)]",[],[1],[0.5],horizontal,"(390.0, 262.0)",1.1333333333333333,0.467,1,1100.401,1,0.02,0.25
0,190,target,"[(1170, 799)]",[],[1],[0.35],vertical,"(890.0, 262.0)",1.5333333333333332,0.318,1,1105.643,2,0.02,0.25
0,191,target,"[(1150, 778)]",[],[1],[0.35],horizontal,"(890.0, 762.0)",1.4666666666666666,0.309,1,1111.474,2,0.02,0.25
0,192,catch,"[(1145, 770)]",[],[1],[],vertical,"(390.0, 262.0)",1.65,nan,1,1117.363,2,0.02,0.25
0,193,target,"[(1173, 790)]",[],[1],[0.6166666666666667],vertical,"(890.0, 762.0)",0.7666666666666666,0.574,1,1122.93,2,0.02,0.25
0,194,target,"[(1146, 767)]",[],[1],[0.5833333333333334],horizontal,"(890.0, 762.0)",1.3666666666666667,0.539,1,1128.551,3,0.02,0.25
0,195,target,"[(1156, 789)]",[],[1],[0.6833333333333333],horizontal,"(390.0, 262.0)",1.0,0.645,1,1134.512,3,0.02,0.25
0,196,catch,"[(1157, 778)]",[],[1],[],vertical,"(890.0, 262.0)",1.65,nan,1,1140.262,3,0.02,0.25
0,197,target,"[(1154, 776)]",[],[1],[0.43333333333333335],horizontal,"(390.0, 762.0)",1.3333333333333333,0.394,1,1145.88,3,0.02,0.25
0,198,target,"[(1159, 785)]",[],[1],[0.5166666666666666],vertical,"(890.0, 262.0)",1.3333333333333333,0.474,1,1152.021,3,0.02,0.25
0,199,target,"[(1179, 796)]",[],[1],[0.85],vertical,"(390.0, 262.0)",1.0166666666666666,nan,0,1158.129,0,0.02,0.25
0,200,target,"[(1160, 804)]",[],[1],[0.5],horizontal,"(890.0, 262.0)",1.1833333333333333,0.458,1,1163.355,1,0.02,0.25
0,201,target,"[(1148, 798)]",[],[1],[0.6333333333333333],horizontal,"(890.0, 762.0)",1.2166666666666666,0.586,1,1168.28,1,0.02,0.25
0,202,target,"[(1158, 785)]",[],[1],[0.5833333333333334],vertical,"(890.0, 762.0)",0.6166666666666667,0.54,1,1173.791,1,0.02,0.25
0,203,target,"[(1168, 799)]",[],[1],[0.5],horizontal,"(890.0, 262.0)",1.2166666666666666,0.455,1,1178.483,2,0.02,0.25
0,204,target,"[(1169, 774)]",[],[1],[0.55],horizontal,"(890.0, 262.0)",1.3833333333333333,0.51,1,1183.765,2,0.02,0.25
0,205,target,"[(1157, 775)]",[],[1],[0.4666666666666667],horizontal,"(390.0, 262.0)",0.4166666666666667,0.427,1,1189.431,2,0.02,0.25
0,206,catch,"[(1168, 779)]",[],[1],[],vertical,"(390.0, 762.0)",1.65,nan,1,1194.464,2,0.02,0.25
0,207,target,"[(1170, 787)]",[],[1],[0.6],horizontal,"(890.0, 262.0)",1.1333333333333333,0.554,1,1199.953,3,0.02,0.25
0,208,target,"[(1169, 787)]",[],[1],[0.5],horizontal,"(890.0, 262.0)",0.5166666666666666,0.458,1,1205.863,3,0.02,0.25
0,209,catch,"[(1149, 769)]",[],[1],[],horizontal,"(890.0, 762.0)",1.65,nan,1,1211.221,3,0.02,0.25
0,210,target,"[(1154, 789)]",[],[1],[0.48333333333333334],horizontal,"(890.0, 262.0)",0.6333333333333333,0.443,1,1216.791,3,0.02,0.25
0,211,target,"[(1150, 787)]",[],[1],[0.48333333333333334],horizontal,"(890.0, 262.0)",0.3833333333333333,0.45,1,1221.93,3,0.02,0.25
0,212,target,"[(1147, 781)]",[],[1],[0.5333333333333333],vertical,"(890.0, 762.0)",0.9833333333333333,0.489,1,1227.08,3,0.02,0.25
0,213,catch,"[(1133, 761)]",[],[1],[],vertical,"(390.0, 262.0)",1.65,nan,1,1232.747,3,0.02,0.25
0,214,target,"[(1164, 782)]",[],[1],[0.5166666666666666],vertical,"(890.0, 262.0)",0.6,0.485,1,1238.93,3,0.02,0.25
0,215,target,"[(1157, 774)]",[],[1],[0.5],vertical,"(390.0, 262.0)",0.6833333333333333,0.456,1,1244.381,3,0.02,0.25
0,216,catch,"[(1141, 801)]",[],[1],[],horizontal,"(890.0, 262.0)",1.65,nan,1,1249.491,3,0.02,0.25
0,217,target,"[(1141, 781)]",[],[1],[0.55],vertical,"(390.0, 762.0)",0.48333333333333334,0.509,1,1255.035,3,0.0,0.25
0,218,target,"[(1155, 786)]",[],[1],[0.85],vertical,"(890.0, 262.0)",0.9333333333333333,nan,0,1260.614,0,0.0,0.25
0,219,catch,"[(1135, 794)]",[],[1],[],vertical,"(890.0, 262.0)",1.65,nan,1,1265.109,1,0.0,0.25
0,220,target,"[(1179, 785)]",[],[1],[0.55],vertical,"(390.0, 262.0)",1.3,0.51,1,1270.165,1,0.0,0.25
0,221,target,"[(1172, 784)]",[],[1],"[0.85, 0.85]",vertical,"(890.0, 262.0)",0.5833333333333334,"0.803,nan",0,1275.713,0,0.0,0.25
0,222,target,"[(1142, 779)]",[],[1],[0.55],vertical,"(390.0, 262.0)",0.35,0.527,1,1280.248,1,0.0,0.25
0,223,target,"[(1174, 794)]",[],[1],[0.5166666666666666],horizontal,"(390.0, 762.0)",1.3,0.477,1,1284.785,1,0.0,0.25
0,224,target,"[(1157, 771)]",[],[1],[0.5],horizontal,"(890.0, 262.0)",0.65,0.463,1,1289.863,1,0.0,0.25
0,225,target,"[(1149, 778)]",[],[1],[0.5833333333333334],horizontal,"(890.0, 762.0)",1.0166666666666666,0.542,1,1294.563,2,0.0,0.25
0,226,target,"[(1154, 790)]",[],[1],[0.5],horizontal,"(390.0, 262.0)",1.2666666666666666,0.463,1,1300.413,2,0.0,0.25
0,227,catch,"[(1146, 786)]",[],[1],[],horizontal,"(390.0, 262.0)",1.65,nan,1,1306.163,2,0.0,0.25
0,228,target,"[(1168, 831)]",[],[1],[0.6166666666666667],horizontal,"(890.0, 262.0)",0.65,0.575,1,1311.78,2,0.0,0.25
0,229,catch,"[(1159, 820)]",[],[1],[],horizontal,"(390.0, 262.0)",1.65,nan,1,1318.947,3,0.0,0.25
0,230,target,"[(1156, 786)]",[],[1],[0.5833333333333334],vertical,"(390.0, 262.0)",1.2166666666666666,0.544,1,1325.08,3,0.0,0.25
0,231,catch,"[(1157, 793)]",[],[1],[],horizontal,"(890.0, 762.0)",1.65,nan,1,1331.473,3,0.0,0.25
0,232,target,"[(1161, 793)]",[],[1],[0.5333333333333333],horizontal,"(890.0, 262.0)",1.5333333333333332,0.493,1,1337.222,3,0.0,0.25
0,233,target,"[(1154, 787)]",[],[1],[0.5833333333333334],horizontal,"(390.0, 762.0)",1.35,0.54,1,1344.029,3,0.0,0.25
0,234,target,"[(1149, 784)]",[],[1],[0.5166666666666666],horizontal,"(890.0, 262.0)",0.8,0.475,1,1350.326,3,0.0,0.25
0,235,target,"[(1159, 782)]",[],[1],[0.65],vertical,"(890.0, 762.0)",0.8,0.606,1,1355.879,3,0.0,0.25
0,236,target,"[(1148, 817)]",[],[1],[0.5166666666666666],horizontal,"(890.0, 762.0)",0.6333333333333333,0.474,1,1361.417,3,0.0,0.25
0,237,target,"[(1150, 769)]",[],[1],[0.6],horizontal,"(390.0, 762.0)",1.1833333333333333,0.556,1,1367.995,3,0.0,0.25
0,238,target,"[(1149, 765)]",[],[1],[0.6666666666666666],vertical,"(890.0, 762.0)",0.8,0.627,1,1373.881,3,0.0,0.25
0,239,catch,"[(1150, 770)]",[],[1],[],vertical,"(890.0, 762.0)",1.65,nan,1,1379.878,3,0.0,0.25
0,240,target,"[(1148, 801)]",[],[1],[0.5333333333333333],vertical,"(890.0, 762.0)",0.5333333333333333,0.49,1,1386.146,3,0.0,0.25
0,241,target,"[(1179, 794)]",[],[1],[0.3833333333333333],vertical,"(390.0, 762.0)",1.45,0.347,1,1391.654,3,0.0,0.25
0,242,target,"[(1158, 791)]",[],[1],[0.5],vertical,"(890.0, 262.0)",0.8166666666666667,0.461,1,1397.933,3,0.0,0.25
0,243,target,"[(1132, 784)]",[],[1],[0.5],horizontal,"(890.0, 262.0)",1.3333333333333333,0.462,1,1403.814,3,0.0,0.25
0,244,target,"[(1123, 798)]",[],[1],[0.5],vertical,"(890.0, 262.0)",1.55,0.461,1,1409.719,3,0.0,0.25
0,245,target,"[(1146, 779)]",[],[1],[0.6],vertical,"(890.0, 262.0)",0.9166666666666666,0.557,1,1417.08,3,0.0,0.25
0,246,catch,"[(1154, 785)]",[],[1],[],horizontal,"(390.0, 762.0)",1.65,nan,1,1422.884,3,0.0,0.25
0,247,target,"[(1163, 776)]",[],[1],[0.6833333333333333],vertical,"(890.0, 262.0)",1.35,0.64,1,1429.101,3,0.0,0.25
0,248,target,"[(1135, 789)]",[],[1],[0.55],horizontal,"(390.0, 762.0)",0.6666666666666666,0.504,1,1435.37,3,0.0,0.25
0,249,catch,"[(1156, 781)]",[],[1],[],horizontal,"(890.0, 762.0)",1.65,nan,1,1440.898,3,0.0,0.25
0,250,target,"[(1150, 778)]",[],[1],[0.5166666666666666],horizontal,"(890.0, 262.0)",1.1333333333333333,0.472,1,1446.58,3,0.0,0.25
0,251,target,"[(1145, 775)]",[],[1],[0.7166666666666667],vertical,"(890.0, 762.0)",1.0166666666666666,0.677,1,1452.887,3,0.0,0.25
0,252,catch,"[(1150, 764)]",[],[1],[],horizontal,"(890.0, 762.0)",1.65,nan,1,1458.746,3,0.0,0.25
0,253,target,"[(1152, 769)]",[],[1],[0.6],vertical,"(390.0, 762.0)",1.1333333333333333,0.561,1,1464.907,3,0.0,0.25
0,254,target,"[(1144, 770)]",[],[1],[0.5166666666666666],vertical,"(890.0, 262.0)",0.6333333333333333,0.477,1,1471.014,3,0.0,0.25
0,255,catch,"[(1150, 784)]",[],[1],[],horizontal,"(390.0, 262.0)",1.65,nan,1,1476.614,3,0.0,0.25
0,256,catch,"[(1154, 766)]",[],[1],[],vertical,"(890.0, 262.0)",1.65,nan,1,1482.419,3,0.0,0.25
0,257,target,"[(1172, 789)]",[],[1],[0.5166666666666666],horizontal,"(890.0, 262.0)",0.75,0.478,1,1488.396,3,0.0,0.25
0,258,target,"[(1153, 761)]",[],[1],[0.55],vertical,"(890.0, 262.0)",1.0333333333333332,0.513,1,1493.943,3,0.0,0.25
0,259,target,"[(1146, 791)]",[],[1],[0.4666666666666667],vertical,"(390.0, 262.0)",1.4666666666666666,0.426,1,1499.78,3,0.0,0.25
0,260,target,"[(1149, 760)]",[],[1],[0.6666666666666666],horizontal,"(390.0, 262.0)",0.9166666666666666,0.626,1,1505.947,3,0.0,0.25
0,261,target,"[(1155, 790)]",[],[1],[0.5333333333333333],horizontal,"(390.0, 262.0)",0.36666666666666664,0.493,1,1511.431,3,0.0,0.25
0,262,target,"[(1135, 774)]",[],[1],[0.48333333333333334],horizontal,"(890.0, 762.0)",1.2,0.444,1,1516.379,3,0.0,0.25
0,263,catch,"[(1175, 774)]",[],[1],[],vertical,"(390.0, 262.0)",1.65,nan,1,1522.495,3,0.0,0.25
0,264,catch,"[(1176, 789)]",[],[1],[],horizontal,"(890.0, 262.0)",1.65,nan,1,1528.514,3,0.0,0.25
0,265,catch,"[(1173, 776)]",[],[1],[],vertical,"(390.0, 762.0)",1.65,nan,1,1534.606,3,0.0,0.25
0,266,target,"[(1188, 801)]",[],[1],[0.5166666666666666],vertical,"(890.0, 762.0)",0.65,0.477,1,1540.616,3,0.0,0.25
0,267,target,"[(1150, 765)]",[],[1],[0.5],horizontal,"(390.0, 262.0)",0.7166666666666667,0.464,1,1546.024,3,0.0,0.25
0,268,target,"[(1139, 789)]",[],[1],[0.85],horizontal,"(390.0, 262.0)",0.95,nan,0,1551.88,0,0.0,0.25
0,269,catch,"[(1137, 789)]",[],[1],[],vertical,"(390.0, 762.0)",1.65,nan,1,1556.547,1,0.0,0.25
0,270,target,"[(1156, 789)]",[],[1],[0.7],vertical,"(890.0, 762.0)",0.43333333333333335,0.653,1,1561.963,1,0.0,0.25
0,271,target,"[(1144, 773)]",[],[1],[0.5666666666666667],vertical,"(390.0, 262.0)",0.55,0.533,1,1566.862,1,0.0,0.25
0,272,catch,"[(1172, 779)]",[],[1],[],vertical,"(890.0, 262.0)",1.65,nan,1,1571.684,2,0.0,0.25
0,273,target,"[(1153, 773)]",[],[1],[0.5333333333333333],vertical,"(890.0, 262.0)",0.7833333333333333,0.496,1,1577.149,2,0.0,0.25
0,274,catch,"[(1144, 793)]",[],[1],[],vertical,"(890.0, 262.0)",1.65,nan,1,1582.038,2,0.0,0.25
0,275,target,"[(1154, 789)]",[],[1],[0.55],horizontal,"(390.0, 762.0)",1.3166666666666667,0.511,1,1587.535,2,0.0,0.25
0,276,catch,"[(1155, 792)]",[],[1],[],vertical,"(890.0, 762.0)",1.65,nan,1,1593.43,3,0.0,0.25
0,277,catch,"[(1147, 777)]",[],[1],[],vertical,"(890.0, 762.0)",1.65,nan,1,1599.164,3,0.0,0.25
0,278,target,"[(1134, 780)]",[],[1],[0.5166666666666666],horizontal,"(390.0, 262.0)",1.0,0.477,1,1604.933,3,0.0,0.25
0,279,target,"[(1138, 823)]",[],[1],[0.85],vertical,"(890.0, 262.0)",0.35,nan,0,1610.763,0,0.0,0.25
0,280,target,"[(1138, 810)]",[],[1],[0.7166666666666667],vertical,"(890.0, 762.0)",0.48333333333333334,0.678,1,1667.834,1,0.0,0.25
0,281,target,"[(1151, 789)]",[],[1],[0.5666666666666667],vertical,"(890.0, 762.0)",1.0333333333333332,0.522,1,1672.668,1,0.0,0.25
0,282,target,"[(1179, 797)]",[],[1],[0.6666666666666666],horizontal,"(890.0, 262.0)",0.9,0.627,1,1678.264,1,0.0,0.25
0,283,target,"[(1141, 789)]",[],[1],[0.5333333333333333],horizontal,"(390.0, 262.0)",0.75,0.488,1,1683.464,2,0.0,0.25
0,284,target,"[(1174, 784)]",[],[1],[0.5],horizontal,"(890.0, 762.0)",1.2,0.458,1,1688.248,2,0.0,0.25
0,285,target,"[(1153, 792)]",[],[1],[0.5333333333333333],horizontal,"(890.0, 762.0)",0.8166666666666667,0.495,1,1693.948,2,0.0,0.25
0,286,catch,"[(1150, 782)]",[],[1],[],horizontal,"(390.0, 762.0)",1.65,nan,1,1699.541,2,0.0,0.25
0,287,target,"[(1164, 778)]",[],[1],[0.8333333333333334],vertical,"(390.0, 762.0)",1.3666666666666667,0.786,1,1704.74,3,0.0,0.25
0,288,target,"[(1144, 776)]",[],[1],[0.55],horizontal,"(390.0, 262.0)",0.6666666666666666,0.518,1,1710.914,3,0.0,0.25
0,289,catch,"[(1101, 793)]",[],[1],[],vertical,"(890.0, 262.0)",1.65,nan,1,1715.953,3,0.0,0.25
0,290,target,"[(1175, 797)]",[],[1],[0.5833333333333334],horizontal,"(390.0, 762.0)",1.0333333333333332,0.543,1,1722.438,3,0.0,0.25
0,291,target,"[(807, 890), (828, 929), (812, 942), (1184, 802)]",[],"[0, 0, 0, 1]",[0.85],vertical,"(890.0, 262.0)",1.1,nan,0,1728.398,0,0.0,0.25
0,292,target,"[(1151, 809)]",[],[1],[0.6],vertical,"(890.0, 262.0)",0.7166666666666667,0.561,1,5113.541,1,0.0,0.25
0,293,target,"[(1175, 782)]",[],[1],[0.6666666666666666],horizontal,"(390.0, 262.0)",0.55,0.624,1,5120.504,1,0.0,0.25
0,294,target,"[(1163, 789)]",[],[1],[0.6833333333333333],vertical,"(890.0, 262.0)",1.0666666666666667,0.644,1,5125.562,1,0.0,0.25
0,295,catch,"[(1164, 779)]",[],[1],[],horizontal,"(890.0, 262.0)",1.65,nan,1,5130.873,2,0.0,0.25
0,296,catch,"[(1174, 769)]",[],[1],[],horizontal,"(890.0, 762.0)",1.65,nan,1,5136.242,2,0.0,0.25
0,297,catch,"[(1172, 765)]",[],[1],[],horizontal,"(890.0, 762.0)",1.65,nan,1,5141.862,2,0.0,0.25
0,298,catch,"[(1154, 794)]",[],[1],[],vertical,"(390.0, 762.0)",1.65,nan,1,5146.973,2,0.0,0.25
0,299,target,"[(1153, 813)]",[],[1],[0.5333333333333333],vertical,"(390.0, 262.0)",1.2333333333333334,0.5,1,5152.431,3,0.0,0.25
0,300,target,"[(1098, 806)]",[],[1],[0.6166666666666667],horizontal,"(390.0, 262.0)",0.5333333333333333,0.569,1,5158.389,3,0.0,0.25
0,301,target,"[(1159, 789)]",[],[1],[0.85],horizontal,"(890.0, 262.0)",0.4,nan,0,5165.465,0,0.0,0.25
0,302,target,"[(1154, 800)]",[],[1],[0.7833333333333333],horizontal,"(390.0, 762.0)",0.6,0.739,1,5169.773,1,0.0,0.25
0,303,target,"[(1169, 795)]",[],[1],[0.31666666666666665],vertical,"(890.0, 762.0)",1.4333333333333333,0.283,1,5175.118,1,0.0,0.25
0,304,target,"[(1152, 771)]",[],[1],[0.5666666666666667],horizontal,"(390.0, 262.0)",0.55,0.531,1,5180.708,1,0.0,0.25
0,305,target,"[(1151, 760)]",[],[1],[0.65],vertical,"(390.0, 262.0)",0.36666666666666664,0.609,1,5185.383,2,0.0,0.25
0,306,target,"[(1158, 761)]",[],[1],[0.15],horizontal,"(390.0, 262.0)",1.3666666666666667,0.118,0,5190.63,0,0.0,0.25
0,307,target,"[(1150, 799)]",[],[1],[0.35],vertical,"(890.0, 262.0)",1.5333333333333332,0.313,1,5195.569,1,0.0,0.25
0,308,catch,"[(1155, 773)]",[],[1],[],horizontal,"(890.0, 262.0)",,"('cti', 1.079),nan",0,5201.856,0,0.02,0.25
0,309,target,"[(1139, 792)]",[],[1],[0.5],horizontal,"(890.0, 262.0)",1.0833333333333333,0.459,1,5206.24,1,0.02,0.25
0,310,target,"[(1174, 802)]",[],[1],[0.5333333333333333],horizontal,"(390.0, 262.0)",1.2666666666666666,0.491,1,5225.223,1,0.02,0.25
0,311,target,"[(1154, 796)]",[],[1],[0.35],vertical,"(890.0, 262.0)",1.5166666666666666,0.314,1,5230.836,1,0.02,0.25
0,312,target,"[(1173, 794)]",[],[1],[0.6166666666666667],horizontal,"(890.0, 762.0)",0.36666666666666664,0.571,1,5236.439,2,0.02,0.25
0,313,target,"[(1156, 798)]",[],[1],[0.5833333333333334],vertical,"(890.0, 762.0)",1.5166666666666666,0.541,1,5241.439,2,0.02,0.25
0,314,target,"[(1158, 789)]",[],[1],[0.85],horizontal,"(390.0, 262.0)",1.15,nan,0,5246.923,0,0.02,0.25
0,315,target,"[(1169, 803)]",[],[1],[0.7],horizontal,"(390.0, 262.0)",0.36666666666666664,0.654,1,5251.725,1,0.02,0.25
0,316,catch,"[(1174, 804)]",[],[1],[],horizontal,"(890.0, 262.0)",1.65,nan,1,5256.34,1,0.02,0.25
0,317,catch,"[(1165, 778)]",[],[1],[],horizontal,"(890.0, 262.0)",1.65,nan,1,5261.456,1,0.02,0.25
0,318,catch,"[(1153, 779)]",[],[1],[],vertical,"(390.0, 262.0)",1.65,nan,1,5267.006,2,0.02,0.25
0,319,target,"[(1152, 743), (1141, 806)]",[],"[0, 1]",[0.5666666666666667],horizontal,"(890.0, 762.0)",1.5333333333333332,0.525,1,5272.574,2,0.02,0.25
0,320,target,"[(1158, 798)]",[],[1],[0.5333333333333333],vertical,"(890.0, 262.0)",0.6666666666666666,0.497,1,5279.44,2,0.02,0.25
0,321,catch,"[(1141, 778)]",[],[1],[],horizontal,"(890.0, 262.0)",1.65,nan,1,5284.323,2,0.02,0.25
0,322,target,"[(1144, 766)]",[],[1],[0.6],vertical,"(390.0, 262.0)",1.1333333333333333,0.554,1,5289.656,3,0.02,0.25
0,323,target,"[(1184, 762)]",[],[1],[0.5166666666666666],vertical,"(390.0, 262.0)",1.0,0.473,1,5295.423,3,0.02,0.25
0,324,target,"[(1139, 781)]",[],[1],[0.5833333333333334],horizontal,"(390.0, 762.0)",0.6666666666666666,0.537,1,5301.225,3,0.02,0.25
0,325,target,"[(1139, 761)]",[],[1],[0.48333333333333334],vertical,"(890.0, 762.0)",1.4666666666666666,0.442,1,5306.539,3,0.02,0.25
0,326,target,"[(1177, 778)]",[],[1],[0.5833333333333334],vertical,"(890.0, 262.0)",1.3833333333333333,0.545,1,5312.724,3,0.02,0.25
0,327,target,"[(1160, 754)]",[],[1],[0.85],horizontal,"(890.0, 762.0)",0.4666666666666667,nan,0,5318.898,0,0.02,0.25
0,328,target,"[(1139, 791)]",[],[1],[0.5833333333333334],horizontal,"(390.0, 762.0)",1.3666666666666667,0.543,1,5323.357,1,0.02,0.25
0,329,catch,"[(1152, 779)]",[],[1],[],vertical,"(390.0, 762.0)",1.65,nan,1,5328.923,1,0.02,0.25
0,330,target,"[(1194, 755)]",[],[1],[0.6333333333333333],vertical,"(390.0, 762.0)",0.8666666666666667,0.59,1,5334.139,1,0.02,0.25
0,331,target,"[(1194, 804)]",[],[1],[0.7],horizontal,"(390.0, 262.0)",0.75,0.65,1,5339.124,2,0.02,0.25
0,332,target,"[(1180, 787)]",[],[1],[0.6166666666666667],vertical,"(390.0, 762.0)",0.4,0.574,1,5344.757,2,0.02,0.25
0,333,target,"[(1154, 779)]",[],[1],[0.45],horizontal,"(390.0, 762.0)",1.4,0.415,1,5349.625,2,0.02,0.25
0,334,catch,"[(1154, 752), (1152, 820)]",[],"[0, 1]",[],vertical,"(390.0, 262.0)",1.65,nan,1,5355.665,2,0.02,0.25
0,335,target,"[(1149, 765)]",[],[1],[0.85],horizontal,"(890.0, 762.0)",0.45,nan,0,5362.538,0,0.02,0.25
0,336,catch,"[(1145, 778)]",[],[1],[],horizontal,"(390.0, 762.0)",1.65,nan,1,5366.639,1,0.02,0.25
0,337,target,"[(1160, 761)]",[],[1],[0.6666666666666666],vertical,"(890.0, 762.0)",1.2166666666666666,0.622,1,5371.956,1,0.02,0.25
0,338,target,"[(1144, 762)]",[],[1],[0.5833333333333334],horizontal,"(890.0, 262.0)",0.65,0.542,1,5377.305,1,0.02,0.25
0,339,catch,"[(1180, 761)]",[],[1],[],horizontal,"(890.0, 762.0)",1.65,nan,1,5381.906,2,0.02,0.25
0,340,target,"[(1162, 762)]",[],[1],[0.6],vertical,"(890.0, 262.0)",0.35,0.553,1,5387.498,2,0.02,0.25
0,341,target,"[(1153, 775)]",[],[1],[0.2],horizontal,"(390.0, 262.0)",1.25,0.167,0,5392.561,0,0.02,0.25
0,342,catch,"[(1140, 765)]",[],[1],[],horizontal,"(390.0, 262.0)",1.65,nan,1,5397.595,1,0.02,0.25
0,343,catch,"[(1149, 754)]",[],[1],[],vertical,"(890.0, 762.0)",1.65,nan,1,5402.457,1,0.02,0.25
0,344,catch,"[(1175, 768)]",[],[1],[],horizontal,"(890.0, 762.0)",1.65,nan,1,5407.236,1,0.02,0.25
0,345,catch,"[(1140, 751), (1144, 777)]",[],"[0, 1]",[],vertical,"(390.0, 262.0)",1.65,nan,1,5412.507,2,0.02,0.25
0,346,target,"[(1177, 789)]",[],[1],[0.85],horizontal,"(890.0, 762.0)",0.9333333333333333,nan,0,5419.269,0,0.02,0.25
0,347,catch,"[(1153, 781)]",[],[1],[],horizontal,"(390.0, 762.0)",,"('cti', 1.181),nan",0,5423.69,0,0.04,0.25
0,348,target,"[(1133, 778)]",[],[1],[0.6333333333333333],vertical,"(390.0, 262.0)",0.65,0.588,1,5428.139,1,0.04,0.25
0,349,target,"[(1145, 774)]",[],[1],[0.55],horizontal,"(390.0, 262.0)",1.2,0.508,1,5440.927,1,0.04,0.25
0,350,target,"[(1134, 766)]",[],[1],[0.6333333333333333],vertical,"(390.0, 762.0)",0.8333333333333334,0.59,1,5445.89,1,0.04,0.25
0,351,target,"[(1139, 765)]",[],[1],[0.5833333333333334],horizontal,"(390.0, 262.0)",1.0666666666666667,0.537,1,5450.96,2,0.04,0.25
0,352,catch,"[(1150, 771)]",[],[1],[],horizontal,"(390.0, 262.0)",1.65,nan,1,5456.823,2,0.04,0.25
0,353,target,"[(1154, 782)]",[],[1],[0.5833333333333334],vertical,"(390.0, 762.0)",0.7833333333333333,0.538,1,5462.697,2,0.04,0.25
0,354,target,"[(1157, 785)]",[],[1],[0.7],horizontal,"(390.0, 762.0)",0.4,0.654,1,5468.324,2,0.04,0.25
0,355,target,"[(1192, 771)]",[],[1],[0.5833333333333334],horizontal,"(890.0, 262.0)",0.8333333333333334,0.543,1,5473.722,3,0.04,0.25
0,356,target,"[(1149, 736), (1136, 842)]",[],"[0, 1]",[0.5833333333333334],horizontal,"(890.0, 762.0)",1.1333333333333333,0.537,1,5479.463,3,0.04,0.25
0,357,catch,"[(1139, 792)]",[],[1],[],vertical,"(890.0, 762.0)",1.65,nan,1,5487.029,3,0.04,0.25
0,358,target,"[(1133, 764)]",[],[1],[0.3833333333333333],vertical,"(890.0, 762.0)",1.45,0.344,1,5493.35,3,0.02,0.25
0,359,target,"[(1138, 776)]",[],[1],[0.7666666666666666],horizontal,"(390.0, 262.0)",1.1333333333333333,0.714,1,5499.49,3,0.02,0.25
0,360,target,"[(1166, 778)]",[],[1],[0.85],vertical,"(390.0, 762.0)",0.6166666666666667,nan,0,5505.916,0,0.02,0.25
0,361,target,"[(1144, 783)]",[],[1],[0.6833333333333333],vertical,"(890.0, 262.0)",0.4,0.638,1,5510.222,1,0.02,0.25
0,362,target,"[(1139, 776)]",[],[1],[0.65],vertical,"(390.0, 762.0)",1.15,0.609,1,5514.641,1,0.02,0.25
0,363,target,"[(1174, 766)]",[],[1],[0.65],horizontal,"(390.0, 762.0)",0.9666666666666667,0.604,1,5519.978,1,0.02,0.25
0,364,target,"[(1148, 764)]",[],[1],[0.48333333333333334],horizontal,"(890.0, 262.0)",1.4166666666666667,0.442,1,5525.006,2,0.02,0.25
0,365,catch,"[(1144, 768)]",[],[1],[],horizontal,"(390.0, 762.0)",1.65,nan,1,5530.534,2,0.02,0.25
0,366,target,"[(1179, 770)]",[],[1],[0.7833333333333333],horizontal,"(390.0, 762.0)",0.6,0.729,1,5535.974,2,0.02,0.25
0,367,target,"[(1151, 781)]",[],[1],[0.5333333333333333],horizontal,"(390.0, 262.0)",0.9,0.486,1,5541.025,2,0.02,0.25
0,368,target,"[(1152, 778)]",[],[1],[0.55],vertical,"(890.0, 262.0)",0.5666666666666667,0.505,1,5546.931,3,0.02,0.25
0,369,target,"[(1183, 786)]",[],[1],[0.5833333333333334],horizontal,"(390.0, 262.0)",1.4333333333333333,0.539,1,5552.292,3,0.02,0.25
0,370,target,"[(1143, 747), (1144, 814)]",[],"[0, 1]",[0.7333333333333333],horizontal,"(390.0, 262.0)",1.0833333333333333,0.687,1,5558.835,3,0.02,0.25
0,371,target,"[(1168, 774)]",[],[1],[0.5833333333333334],horizontal,"(390.0, 762.0)",1.35,0.545,1,5565.787,3,0.02,0.25
0,372,target,"[(1147, 771)]",[],[1],[0.6166666666666667],vertical,"(890.0, 262.0)",1.2,0.579,1,5571.909,3,0.02,0.25
0,373,target,"[(1150, 765)]",[],[1],[0.7333333333333333],vertical,"(390.0, 262.0)",1.0,0.69,1,5578.324,3,0.02,0.25
0,374,target,"[(1154, 781)]",[],[1],[0.5833333333333334],vertical,"(890.0, 762.0)",0.6166666666666667,0.54,1,5584.406,3,0.02,0.25
0,375,target,"[(1159, 784)]",[],[1],[0.5833333333333334],horizontal,"(390.0, 762.0)",0.4666666666666667,0.538,1,5589.675,3,0.02,0.25
0,376,target,"[(1152, 778)]",[],[1],[0.6166666666666667],horizontal,"(890.0, 762.0)",1.5,0.573,1,5595.187,3,0.02,0.25
0,377,target,"[(1168, 803)]",[],[1],[0.6166666666666667],vertical,"(890.0, 262.0)",1.1166666666666667,0.571,1,5601.373,3,0.02,0.25
0,378,target,"[(1149, 776)]",[],[1],[0.7333333333333333],vertical,"(390.0, 262.0)",0.7833333333333333,0.685,1,5607.806,3,0.02,0.25
0,379,target,"[(1149, 769)]",[],[1],[0.65],vertical,"(390.0, 262.0)",1.2666666666666666,0.603,1,5613.507,3,0.02,0.25
0,380,target,"[(1172, 770)]",[],[1],[0.6],horizontal,"(390.0, 262.0)",1.4166666666666667,0.56,1,5619.574,3,0.02,0.25
0,381,catch,"[(1149, 779)]",[],[1],[],horizontal,"(390.0, 762.0)",1.65,nan,1,5625.807,3,0.02,0.25
0,382,target,"[(1176, 760)]",[],[1],[0.5666666666666667],vertical,"(890.0, 262.0)",0.9,0.524,1,5631.491,3,0.02,0.25
0,383,target,"[(1154, 780)]",[],[1],[0.8333333333333334],horizontal,"(890.0, 762.0)",0.7,0.79,1,5637.208,3,0.02,0.25
0,384,target,"[(1169, 769)]",[],[1],[0.45],vertical,"(390.0, 262.0)",1.4833333333333334,0.409,1,5643.406,3,0.02,0.25
0,385,catch,"[(1147, 773)]",[],[1],[],vertical,"(390.0, 262.0)",1.65,nan,1,5649.455,3,0.02,0.25
0,386,catch,"[(1161, 772)]",[],[1],[],horizontal,"(390.0, 762.0)",1.65,nan,1,5655.975,3,0.02,0.25
0,387,target,"[(1154, 762)]",[],[1],[0.55],vertical,"(390.0, 262.0)",1.15,0.511,1,5662.306,3,0.02,0.25
0,388,target,"[(1153, 778)]",[],[1],[0.85],horizontal,"(390.0, 762.0)",1.4833333333333334,nan,0,5668.474,0,0.02,0.25
0,389,target,"[(1172, 779)]",[],[1],[0.8333333333333334],vertical,"(390.0, 762.0)",1.2666666666666666,0.789,1,5673.467,1,0.02,0.25
0,390,target,"[(1164, 847)]",[],[1],[0.6666666666666666],vertical,"(890.0, 262.0)",0.36666666666666664,0.619,1,5679.552,1,0.02,0.25
0,391,catch,"[(1149, 829)]",[],[1],[],vertical,"(890.0, 762.0)",1.65,nan,1,5834.958,1,0.02,0.25
0,392,target,"[(1179, 779)]",[],[1],[0.5],horizontal,"(890.0, 262.0)",1.0666666666666667,0.465,1,5840.507,2,0.02,0.25
0,393,catch,"[(1150, 799)]",[],[1],[],vertical,"(390.0, 262.0)",1.65,nan,1,5846.258,2,0.02,0.25
0,394,target,"[(1139, 785)]",[],[1],[0.4666666666666667],horizontal,"(890.0, 762.0)",1.4666666666666666,0.427,1,5851.909,2,0.02,0.25
0,395,target,"[(1154, 799)]",[],[1],[0.75],horizontal,"(390.0, 762.0)",0.5666666666666667,0.702,1,5858.234,2,0.02,0.25
0,396,target,"[(1144, 767)]",[],[1],[0.5833333333333334],horizontal,"(390.0, 262.0)",0.7833333333333333,0.541,1,5863.459,3,0.02,0.25
0,397,catch,"[(1153, 771)]",[],[1],[],horizontal,"(390.0, 262.0)",1.65,nan,1,5869.196,3,0.0,0.25
0,398,catch,"[(1150, 764)]",[],[1],[],vertical,"(390.0, 262.0)",1.65,nan,1,5874.975,3,0.0,0.25
0,399,target,"[(1155, 768)]",[],[1],[0.5166666666666666],horizontal,"(390.0, 762.0)",1.3666666666666667,0.483,1,5881.062,3,0.0,0.25
0,400,target,"[(1159, 763)]",[],[1],[0.3833333333333333],vertical,"(390.0, 762.0)",1.5166666666666666,0.346,1,5887.242,3,0.0,0.25
0,401,target,"[(1154, 777)]",[],[1],[0.5833333333333334],horizontal,"(890.0, 262.0)",1.4666666666666666,0.54,1,5893.524,3,0.0,0.25
0,402,catch,"[(1155, 770)]",[],[1],[],vertical,"(390.0, 262.0)",1.65,nan,1,5899.924,3,0.0,0.25
0,403,target,"[(1180, 782)]",[],[1],[0.6333333333333333],horizontal,"(390.0, 762.0)",1.05,0.587,1,5906.229,3,0.0,0.25
0,404,catch,"[(1179, 790)]",[],[1],[],vertical,"(890.0, 762.0)",1.65,nan,1,5912.191,3,0.0,0.25
0,405,target,"[(1150, 774)]",[],[1],[0.55],horizontal,"(890.0, 762.0)",1.05,0.507,1,5918.307,3,0.0,0.25
0,406,catch,"[(1150, 768)]",[],[1],[],vertical,"(890.0, 262.0)",1.65,nan,1,5924.14,3,0.0,0.25
0,407,target,"[(1160, 762)]",[],[1],[0.6],horizontal,"(390.0, 762.0)",0.6833333333333333,0.554,1,5930.639,3,0.0,0.25
0,408,target,"[(1189, 803)]",[],[1],[0.85],vertical,"(890.0, 762.0)",0.55,nan,0,5936.479,0,0.0,0.25
0,409,target,"[(1176, 794)]",[],[1],[0.7666666666666666],vertical,"(390.0, 762.0)",0.9833333333333333,0.714,1,5940.697,1,0.0,0.25
0,410,catch,"[(1151, 760)]",[],[1],[],vertical,"(390.0, 762.0)",1.65,nan,1,5946.209,1,0.0,0.25
0,411,catch,"[(1176, 759)]",[],[1],[],horizontal,"(890.0, 762.0)",1.65,nan,1,5950.991,1,0.0,0.25
0,412,catch,"[(1169, 799)]",[],[1],[],horizontal,"(890.0, 762.0)",1.65,nan,1,5956.65,2,0.0,0.25
0,413,catch,"[(1177, 752), (1169, 809)]",[],"[0, 1]",[],horizontal,"(890.0, 262.0)",1.65,nan,1,5962.443,2,0.0,0.25
0,414,target,"[(1149, 786)]",[],[1],[0.85],vertical,"(390.0, 762.0)",0.55,nan,0,5969.516,0,0.0,0.25
0,415,target,"[(1134, 778)]",[],[1],[0.6333333333333333],vertical,"(890.0, 762.0)",1.2666666666666666,0.597,1,5973.464,1,0.0,0.25
0,416,catch,"[(1189, 777)]",[],[1],[],horizontal,"(890.0, 262.0)",,"('cti', 1.472),nan",0,5978.892,0,0.02,0.25
0,417,target,"[(1165, 789)]",[],[1],[0.55],vertical,"(890.0, 762.0)",0.95,0.515,1,5982.958,1,0.02,0.25
0,418,target,"[(1184, 785)]",[],[1],[0.6],horizontal,"(390.0, 262.0)",1.3666666666666667,0.562,1,5993.436,1,0.02,0.25
0,419,catch,"[(1134, 780)]",[],[1],[],horizontal,"(390.0, 262.0)",1.65,nan,1,5999.089,1,0.02,0.25
0,420,catch,"[(1160, 769)]",[],[1],[],horizontal,"(890.0, 262.0)",1.65,nan,1,6004.259,2,0.02,0.25
0,421,target,"[(1144, 775)]","[(1109, 852)]",[1],[0.18333333333333332],vertical,"(390.0, 262.0)",,"('bar', 0.197)",0,6009.942,0,0.02,0.25
0,422,target,"[(1150, 793)]",[],[1],[0.36666666666666664],horizontal,"(890.0, 762.0)",1.4833333333333334,0.328,1,6012.509,1,0.02,0.25
0,423,target,"[(1137, 780)]",[],[1],[0.5833333333333334],horizontal,"(390.0, 762.0)",0.5333333333333333,0.541,1,6017.643,1,0.02,0.25
0,424,target,"[(1129, 779)]",[],[1],[0.6833333333333333],vertical,"(890.0, 762.0)",0.9666666666666667,0.636,1,6022.403,1,0.02,0.25
0,425,catch,"[(1189, 780)]",[],[1],[],vertical,"(390.0, 262.0)",1.65,nan,1,6027.539,2,0.02,0.25
0,426,target,"[(1205, 779)]",[],[1],[0.6666666666666666],vertical,"(390.0, 262.0)",1.3,0.626,1,6033.173,2,0.02,0.25
0,427,target,"[(1179, 778)]",[],[1],[0.6166666666666667],horizontal,"(390.0, 762.0)",1.0166666666666666,0.574,1,6039.452,2,0.02,0.25
0,428,target,"[(1147, 781)]",[],[1],[0.55],vertical,"(890.0, 262.0)",0.75,0.514,1,6045.069,2,0.02,0.25
0,429,catch,"[(1188, 808)]",[],[1],[],horizontal,"(890.0, 262.0)",1.65,nan,1,6050.5,3,0.02,0.25
0,430,target,"[(1185, 772)]",[],[1],[0.55],horizontal,"(890.0, 762.0)",1.0666666666666667,0.513,1,6057.309,3,0.02,0.25
0,431,target,"[(1184, 799)]",[],[1],[0.5166666666666666],vertical,"(890.0, 762.0)",0.5666666666666667,0.477,1,6063.141,3,0.02,0.25
0,432,catch,"[(1189, 798)]",[],[1],[],horizontal,"(390.0, 762.0)",1.65,nan,1,6068.41,3,0.02,0.25
0,433,catch,"[(1172, 795)]",[],[1],[],vertical,"(390.0, 762.0)",1.65,nan,1,6074.691,3,0.02,0.25
0,434,target,"[(1146, 783)]",[],[1],[0.5166666666666666],horizontal,"(890.0, 262.0)",1.1666666666666667,0.479,1,6080.959,3,0.02,0.25
0,435,target,"[(1179, 784)]",[],[1],[0.5833333333333334],horizontal,"(890.0, 262.0)",0.45,0.541,1,6087.053,3,0.02,0.25
0,436,target,"[(1151, 762)]",[],[1],[0.5333333333333333],horizontal,"(890.0, 262.0)",1.05,0.497,1,6092.358,3,0.02,0.25
0,437,target,"[(1156, 773)]",[],[1],[0.85],horizontal,"(390.0, 762.0)",1.0333333333333332,nan,0,6098.458,0,0.02,0.25
0,438,target,"[(1154, 786)]",[],[1],[0.5666666666666667],horizontal,"(390.0, 262.0)",1.1166666666666667,0.523,1,6102.975,1,0.02,0.25
0,439,target,"[(1100, 825)]",[],[1],[0.55],vertical,"(890.0, 262.0)",1.3666666666666667,0.514,1,6109.291,1,0.02,0.25
0,440,target,"[(1146, 782)]",[],[1],[0.5666666666666667],vertical,"(890.0, 262.0)",1.1833333333333333,0.525,1,6114.992,1,0.02,0.25
0,441,target,"[(1174, 771)]",[],[1],[0.6],vertical,"(390.0, 262.0)",0.65,0.557,1,6120.159,2,0.02,0.25
0,442,catch,"[(1154, 792)]",[],[1],[],vertical,"(890.0, 762.0)",1.65,nan,1,6125.559,2,0.02,0.25
0,443,target,"[(1185, 803)]",[],[1],[0.5666666666666667],horizontal,"(390.0, 762.0)",1.2333333333333334,0.523,1,6130.824,2,0.02,0.25
0,444,target,"[(1175, 782)]",[],[1],[0.65],vertical,"(390.0, 762.0)",1.3833333333333333,0.606,1,6136.339,2,0.02,0.25
0,445,target,"[(1188, 786)]",[],[1],[0.7666666666666666],horizontal,"(890.0, 762.0)",1.2,0.716,1,6142.98,3,0.02,0.25
0,446,target,"[(1144, 784)]",[],[1],[0.55],vertical,"(390.0, 762.0)",1.2333333333333334,0.51,1,6149.809,3,0.02,0.25
0,447,target,"[(1154, 774)]",[],[1],[0.5666666666666667],vertical,"(390.0, 262.0)",0.95,0.53,1,6155.909,3,0.02,0.25
0,448,catch,"[(1153, 779)]",[],[1],[],horizontal,"(390.0, 762.0)",1.65,nan,1,6161.432,3,0.02,0.25
0,449,target,"[(1157, 794)]",[],[1],[0.85],vertical,"(390.0, 762.0)",1.3,nan,0,6167.492,0,0.02,0.25
0,450,target,"[(1109, 792)]",[],[1],[0.5166666666666666],horizontal,"(390.0, 262.0)",1.3,0.481,1,6172.376,1,0.02,0.25
0,451,target,"[(1158, 788)]",[],[1],[0.5666666666666667],vertical,"(890.0, 262.0)",1.1,0.528,1,6178.256,1,0.02,0.25
0,452,target,"[(1154, 794)]",[],[1],[0.6333333333333333],vertical,"(890.0, 762.0)",0.6,0.594,1,6183.708,1,0.02,0.25
0,453,target,"[(1159, 775)]",[],[1],[0.65],horizontal,"(390.0, 262.0)",1.1166666666666667,0.6,1,6188.291,2,0.02,0.25
0,454,catch,"[(1142, 782)]",[],[1],[],horizontal,"(390.0, 262.0)",1.65,nan,1,6194.258,2,0.02,0.25
0,455,catch,"[(1182, 784)]",[],[1],[],vertical,"(390.0, 262.0)",1.65,nan,1,6199.676,2,0.02,0.25
0,456,target,"[(1148, 782)]",[],[1],[0.5666666666666667],vertical,"(890.0, 762.0)",1.2666666666666666,0.522,1,6205.175,2,0.02,0.25
0,457,catch,"[(1191, 787)]",[],[1],[],vertical,"(390.0, 262.0)",1.65,nan,1,6210.726,3,0.02,0.25
0,458,catch,"[(1179, 790)]",[],[1],[],vertical,"(890.0, 262.0)",1.65,nan,1,6216.491,3,0.02,0.25
0,459,target,"[(1164, 764)]",[],[1],[0.5],horizontal,"(890.0, 262.0)",1.4666666666666666,0.458,1,6222.722,3,0.02,0.25
0,460,target,"[(1175, 781)]",[],[1],[0.6],horizontal,"(390.0, 262.0)",0.7,0.559,1,6229.141,3,0.02,0.25
0,461,target,"[(1134, 775)]",[],[1],[0.85],horizontal,"(390.0, 762.0)",1.3,nan,0,6234.72,0,0.02,0.25
0,462,catch,"[(1127, 760)]",[],[1],[],horizontal,"(890.0, 262.0)",1.65,nan,1,6239.627,1,0.02,0.25
0,463,catch,"[(1189, 787)]",[],[1],[],vertical,"(390.0, 262.0)",1.65,nan,1,6244.974,1,0.02,0.25
0,464,target,"[(1184, 779)]",[],[1],[0.55],vertical,"(890.0, 762.0)",0.43333333333333335,0.508,1,6250.408,1,0.02,0.25
0,465,catch,"[(1150, 772)]",[],[1],[],vertical,"(890.0, 762.0)",1.65,nan,1,6254.926,2,0.02,0.25
0,466,catch,"[(1214, 786)]",[],[1],[],vertical,"(890.0, 262.0)",1.65,nan,1,6260.675,2,0.0,0.25
0,467,target,"[(1155, 777)]",[],[1],[0.6166666666666667],vertical,"(390.0, 262.0)",0.9666666666666667,0.574,1,6266.104,2,0.0,0.25
0,468,target,"[(1151, 778)]",[],[1],[0.75],vertical,"(390.0, 762.0)",0.5666666666666667,0.708,1,6271.675,2,0.0,0.25
0,469,target,"[(1167, 775)]",[],[1],[0.6166666666666667],horizontal,"(390.0, 762.0)",1.35,0.57,1,6276.801,3,0.0,0.25
0,470,target,"[(1173, 789)]",[],[1],[0.6],horizontal,"(390.0, 762.0)",1.2166666666666666,0.558,1,6283.457,3,0.0,0.25
0,471,target,"[(1151, 766)]",[],[1],[0.6166666666666667],vertical,"(890.0, 262.0)",1.3833333333333333,0.576,1,6289.509,3,0.0,0.25
0,472,target,"[(1150, 765)]",[],[1],[0.6],vertical,"(390.0, 762.0)",1.5333333333333332,0.553,1,6295.891,3,0.0,0.25
0,473,target,"[(1154, 770)]",[],[1],[0.65],vertical,"(890.0, 762.0)",1.1333333333333333,0.605,1,6302.142,3,0.0,0.25
0,474,target,"[(1179, 774)]",[],[1],[0.85],horizontal,"(390.0, 762.0)",0.5333333333333333,nan,0,6308.326,0,0.0,0.25
0,475,target,"[(1158, 794)]",[],[1],[0.6166666666666667],vertical,"(390.0, 262.0)",1.3,0.573,1,6312.893,1,0.0,0.25
0,476,catch,"[(1153, 773)]",[],[1],[],vertical,"(390.0, 762.0)",1.65,nan,1,6322.29,1,0.0,0.25
0,477,target,"[(1157, 772)]",[],[1],[0.55],vertical,"(390.0, 262.0)",1.4166666666666667,0.512,1,6327.626,1,0.0,0.25
0,478,catch,"[(1154, 776)]",[],[1],[],horizontal,"(890.0, 262.0)",1.65,nan,1,6333.352,2,0.0,0.25
0,479,target,"[(1176, 803)]",[],[1],[0.55],vertical,"(890.0, 262.0)",0.35,0.516,1,6339.234,2,0.0,0.25
0,480,target,"[(1183, 792)]",[],[1],[0.7666666666666666],horizontal,"(390.0, 262.0)",1.15,0.726,1,6344.088,2,0.0,0.25
0,481,target,"[(1169, 784)]",[],[1],[0.6],horizontal,"(390.0, 762.0)",0.5666666666666667,0.557,1,6349.853,2,0.0,0.25
0,482,target,"[(1181, 801)]",[],[1],[0.85],vertical,"(390.0, 262.0)",0.7333333333333333,nan,0,6354.859,0,0.0,0.25
0,483,target,"[(1154, 799)]",[],[1],[0.6666666666666666],vertical,"(390.0, 762.0)",0.7833333333333333,0.629,1,6359.588,1,0.0,0.25
0,484,target,"[(1159, 779)]",[],[1],[0.5666666666666667],horizontal,"(390.0, 762.0)",1.2,0.522,1,6364.987,1,0.0,0.25
0,485,catch,"[(1159, 799)]",[],[1],[],vertical,"(390.0, 262.0)",1.65,nan,1,6370.036,1,0.0,0.25
0,486,target,"[(1172, 790)]",[],[1],[0.5333333333333333],vertical,"(890.0, 762.0)",0.6166666666666667,0.497,1,6375.307,2,0.0,0.25
0,487,catch,"[(1164, 782)]",[],[1],[],vertical,"(390.0, 762.0)",1.65,nan,1,6380.05,2,0.0,0.25
0,488,target,"[(1151, 780)]",[],[1],[0.85],vertical,"(390.0, 762.0)",0.5166666666666666,nan,0,6385.343,0,0.0,0.25
0,489,catch,"[(1144, 781)]",[],[1],[],horizontal,"(890.0, 262.0)",1.65,nan,1,6389.759,1,0.0,0.25
0,490,catch,"[(1157, 803)]",[],[1],[],vertical,"(890.0, 762.0)",1.65,nan,1,6394.803,1,0.0,0.25
0,491,target,"[(1143, 785)]",[],[1],[0.7166666666666667],horizontal,"(890.0, 762.0)",0.6333333333333333,0.674,1,6399.972,1,0.0,0.25
0,492,catch,"[(1155, 779)]",[],[1],[],vertical,"(390.0, 262.0)",1.65,nan,1,6405.18,2,0.0,0.25
0,493,target,"[(1149, 786)]",[],[1],[0.55],vertical,"(890.0, 762.0)",0.48333333333333334,0.511,1,6410.942,2,0.0,0.25
0,494,target,"[(1135, 803)]",[],[1],[0.55],horizontal,"(890.0, 762.0)",0.9166666666666666,0.505,1,6416.059,2,0.0,0.25
0,495,catch,"[(1149, 783)]",[],[1],[],vertical,"(390.0, 762.0)",1.65,nan,1,6421.193,2,0.0,0.25
0,496,catch,"[(1155, 766)]",[],[1],[],vertical,"(890.0, 762.0)",1.65,nan,1,6426.726,3,0.0,0.25
0,497,catch,"[(1150, 776)]",[],[1],[],vertical,"(390.0, 262.0)",1.65,nan,1,6432.775,3,0.0,0.25
0,498,target,"[(1154, 771)]",[],[1],[0.85],horizontal,"(390.0, 762.0)",0.85,nan,0,6438.925,0,0.0,0.25
0,499,target,"[(1150, 789)]",[],[1],[0.6666666666666666],vertical,"(390.0, 762.0)",1.4833333333333334,0.627,1,6443.226,1,0.0,0.25
0,500,target,"[(1149, 766)]",[],[1],[0.85],vertical,"(890.0, 762.0)",0.3833333333333333,nan,0,6448.886,0,0.0,0.25
0,501,target,"[(1129, 774)]",[],[1],[0.5833333333333334],vertical,"(890.0, 262.0)",0.7666666666666666,0.542,1,6453.642,1,0.0,0.25
0,502,target,"[(1152, 779)]",[],[1],[0.7333333333333333],vertical,"(390.0, 762.0)",1.2,0.687,1,6458.228,1,0.0,0.25
0,503,target,"[(1153, 769)]",[],[1],[0.55],horizontal,"(390.0, 262.0)",1.4,0.51,1,6463.625,1,0.0,0.25
0,504,target,"[(1146, 779)]",[],[1],[0.5666666666666667],vertical,"(890.0, 262.0)",0.9,0.525,1,6469.276,2,0.0,0.25
0,505,catch,"[(1150, 794)]",[],[1],[],horizontal,"(890.0, 262.0)",1.65,nan,1,6474.543,2,0.0,0.25
0,506,target,"[(1145, 776)]",[],[1],[0.6666666666666666],horizontal,"(890.0, 762.0)",0.75,0.627,1,6480.256,2,0.0,0.25
0,507,target,"[(1159, 782)]",[],[1],[0.5666666666666667],vertical,"(890.0, 762.0)",1.0666666666666667,0.525,1,6485.559,2,0.0,0.25
0,508,target,"[(1164, 808)]",[],[1],[0.85],horizontal,"(390.0, 262.0)",1.3666666666666667,nan,0,6490.993,0,0.0,0.25
0,509,target,"[(1107, 793)]",[],[1],[0.5833333333333334],vertical,"(390.0, 262.0)",0.45,0.546,1,6496.192,1,0.0,0.25
0,510,target,"[(1131, 765)]",[],[1],[0.85],vertical,"(390.0, 762.0)",1.4666666666666666,nan,0,6502.642,0,0.0,0.25
0,511,target,"[(1129, 794)]",[],[1],[0.7],vertical,"(390.0, 762.0)",1.3666666666666667,0.653,1,6507.643,1,0.0,0.25
0,512,target,"[(1149, 790)]",[],[1],[0.5333333333333333],vertical,"(890.0, 262.0)",0.7,0.489,1,6513.222,1,0.0,0.25
0,513,target,"[(1165, 773)]",[],[1],[0.85],vertical,"(890.0, 762.0)",0.5666666666666667,nan,0,6518.203,0,0.0,0.25
0,514,catch,"[(1134, 779)]",[],[1],[],horizontal,"(390.0, 262.0)",1.65,nan,1,6522.874,1,0.0,0.25
0,515,target,"[(1179, 790)]",[],[1],[0.5666666666666667],vertical,"(890.0, 262.0)",1.1166666666666667,0.528,1,6527.824,1,0.0,0.25
0,516,target,"[(1176, 767)]",[],[1],[0.6166666666666667],horizontal,"(890.0, 762.0)",0.35,0.578,1,6533.115,1,0.0,0.25
0,517,target,"[(1174, 769)]",[],[1],[0.5833333333333334],vertical,"(890.0, 262.0)",0.4166666666666667,0.541,1,6537.442,2,0.0,0.25
0,518,target,"[(1146, 773)]",[],[1],[0.5],horizontal,"(890.0, 262.0)",1.0,0.458,1,6542.455,2,0.0,0.25
0,519,catch,"[(1142, 781)]",[],[1],[],vertical,"(390.0, 262.0)",1.65,nan,1,6547.917,2,0.0,0.25
0,520,target,"[(1172, 779)]",[],[1],[0.6],horizontal,"(390.0, 762.0)",1.1333333333333333,0.561,1,6553.291,2,0.0,0.25
0,521,target,"[(1150, 791)]",[],[1],[0.55],horizontal,"(390.0, 262.0)",0.7333333333333333,0.512,1,6558.852,3,0.0,0.25
0,522,catch,"[(1149, 765)]",[],[1],[],vertical,"(390.0, 262.0)",1.65,nan,1,6564.11,3,0.0,0.25
0,523,catch,"[(1149, 785)]",[],[1],[],horizontal,"(890.0, 262.0)",,"('cti', 1.569),nan",0,6569.967,0,0.02,0.25
0,524,target,"[(1174, 798)]",[],[1],[0.85],horizontal,"(390.0, 762.0)",1.1333333333333333,nan,0,6574.933,0,0.02,0.25
0,525,catch,"[(1150, 803)]",[],[1],[],vertical,"(890.0, 762.0)",1.65,nan,1,6579.776,1,0.02,0.25
0,526,target,"[(1178, 799)]",[],[1],[0.7],vertical,"(890.0, 262.0)",0.7333333333333333,0.667,1,6585.359,1,0.02,0.25
0,527,target,"[(1174, 767)]",[],[1],[0.5333333333333333],horizontal,"(890.0, 262.0)",0.7666666666666666,0.497,1,6590.227,1,0.02,0.25
0,528,target,"[(1153, 760)]",[],[1],[0.5666666666666667],horizontal,"(890.0, 262.0)",1.5,0.528,1,6595.016,2,0.02,0.25
0,529,target,"[(1174, 765)]",[],[1],[0.5166666666666666],vertical,"(890.0, 762.0)",0.8333333333333334,0.476,1,6601.026,2,0.02,0.25
0,530,target,"[(1155, 777)]",[],[1],[0.6],vertical,"(890.0, 762.0)",1.1166666666666667,0.561,1,6606.227,2,0.02,0.25
0,531,target,"[(1155, 784)]",[],[1],[0.6],horizontal,"(890.0, 262.0)",1.0666666666666667,0.558,1,6612.21,2,0.02,0.25
0,532,target,"[(1128, 783)]",[],[1],[0.5833333333333334],horizontal,"(390.0, 262.0)",1.0166666666666666,0.541,1,6618.136,3,0.02,0.25
0,533,catch,"[(1145, 798)]",[],[1],[],horizontal,"(890.0, 762.0)",1.65,nan,1,6624.476,3,0.02,0.25
0,534,catch,"[(1156, 788)]",[],[1],[],vertical,"(890.0, 262.0)",1.65,nan,1,6630.397,3,0.02,0.25
0,535,target,"[(1154, 798)]",[],[1],[0.85],horizontal,"(890.0, 262.0)",1.5333333333333332,nan,0,6636.348,0,0.02,0.25
0,536,target,"[(1164, 803)]",[],[1],[0.85],horizontal,"(890.0, 262.0)",0.48333333333333334,nan,0,6641.976,0,0.02,0.25
0,537,target,"[(1143, 827)]",[],[1],[0.85],vertical,"(390.0, 762.0)",1.45,nan,0,6646.525,0,0.02,0.25
0,538,target,"[(1146, 807)]",[],[1],[0.5833333333333334],vertical,"(890.0, 262.0)",1.3333333333333333,0.544,1,6653.44,1,0.02,0.25
0,539,target,"[(1159, 798)]",[],[1],[0.5333333333333333],vertical,"(890.0, 262.0)",1.1833333333333333,0.495,1,6659.155,1,0.02,0.25
0,540,target,"[(1149, 765)]",[],[1],[0.6666666666666666],horizontal,"(890.0, 262.0)",1.05,0.627,1,6664.253,1,0.02,0.25
0,541,target,"[(1135, 774)]",[],[1],[0.6333333333333333],vertical,"(390.0, 762.0)",0.6666666666666666,0.583,1,6669.627,2,0.02,0.25
0,542,target,"[(1149, 785)]",[],[1],[0.6],horizontal,"(390.0, 762.0)",0.8166666666666667,0.556,1,6674.674,2,0.02,0.25
0,543,target,"[(1149, 777)]",[],[1],[0.85],vertical,"(890.0, 262.0)",0.55,nan,0,6680.326,0,0.02,0.25
0,544,target,"[(1119, 822)]",[],[1],[0.6833333333333333],vertical,"(890.0, 262.0)",0.9333333333333333,0.639,1,6684.694,1,0.02,0.25
0,545,target,"[(1155, 798)]",[],[1],[0.55],vertical,"(390.0, 762.0)",1.4666666666666666,0.508,1,6692.244,1,0.02,0.25
0,546,catch,"[(1144, 776)]",[],[1],[],horizontal,"(890.0, 762.0)",1.65,nan,1,6697.642,1,0.02,0.25
0,547,target,"[(1149, 761)]",[],[1],[0.5666666666666667],horizontal,"(890.0, 762.0)",1.2166666666666666,0.521,1,6702.78,2,0.02,0.25
0,548,catch,"[(1185, 774)]",[],[1],[],horizontal,"(390.0, 762.0)",1.65,nan,1,6708.476,2,0.02,0.25
0,549,target,"[(1184, 783)]",[],[1],[0.85],horizontal,"(390.0, 762.0)",0.45,nan,0,6713.86,0,0.02,0.25
0,550,target,"[(1150, 782)]",[],[1],[0.6],horizontal,"(890.0, 262.0)",0.4166666666666667,0.556,1,6718.256,1,0.02,0.25
0,551,target,"[(1198, 784)]",[],[1],[0.5],vertical,"(890.0, 262.0)",0.95,0.466,1,6723.042,1,0.02,0.25
0,552,target,"[(1153, 782)]",[],[1],[0.8],vertical,"(390.0, 762.0)",1.1666666666666667,0.768,1,6727.643,1,0.02,0.25
0,553,catch,"[(1163, 770)]",[],[1],[],vertical,"(390.0, 262.0)",1.65,nan,1,6733.147,2,0.02,0.25
0,554,target,"[(1149, 768)]",[],[1],[0.55],horizontal,"(390.0, 262.0)",1.45,0.516,1,6738.707,2,0.02,0.25
0,555,target,"[(1129, 789)]",[],[1],[0.5666666666666667],horizontal,"(890.0, 762.0)",0.4166666666666667,0.529,1,6744.611,2,0.02,0.25
0,556,target,"[(1157, 785)]",[],[1],[0.43333333333333335],horizontal,"(890.0, 762.0)",1.4666666666666666,0.393,1,6749.709,2,0.02,0.25
0,557,target,"[(1163, 805)]",[],[1],[0.6],vertical,"(390.0, 762.0)",1.0166666666666666,0.555,1,6755.639,3,0.02,0.25
0,558,target,"[(1158, 771)]",[],[1],[0.85],vertical,"(390.0, 262.0)",0.5833333333333334,nan,0,6762.062,0,0.02,0.25
0,559,target,"[(1135, 786)]",[],[1],[0.85],horizontal,"(890.0, 762.0)",0.6166666666666667,nan,0,6766.626,0,0.02,0.25
0,560,target,"[(1134, 785)]",[],[1],[0.7166666666666667],horizontal,"(390.0, 762.0)",1.4833333333333334,0.674,1,6770.993,1,0.02,0.25
0,561,target,"[(1142, 777)]",[],[1],[0.6166666666666667],vertical,"(390.0, 762.0)",0.9166666666666666,0.57,1,6776.511,1,0.02,0.25
0,562,target,"[(1176, 772)]",[],[1],[0.5333333333333333],horizontal,"(390.0, 262.0)",1.0,0.487,1,6781.244,1,0.02,0.25
0,563,target,"[(1155, 774)]",[],[1],[0.5833333333333334],vertical,"(390.0, 762.0)",0.4166666666666667,0.535,1,6786.479,2,0.02,0.25
0,564,target,"[(1174, 765)]",[],[1],[0.5333333333333333],horizontal,"(390.0, 762.0)",1.5166666666666666,0.493,1,6791.162,2,0.02,0.25
0,565,target,"[(1134, 762)]",[],[1],[0.7333333333333333],horizontal,"(890.0, 762.0)",0.5166666666666666,0.692,1,6797.383,2,0.02,0.25
0,566,target,"[(1192, 789)]",[],[1],[0.6],horizontal,"(390.0, 762.0)",0.3833333333333333,0.561,1,6802.722,2,0.02,0.25
0,567,target,"[(1151, 786)]",[],[1],[0.6333333333333333],vertical,"(390.0, 262.0)",1.2666666666666666,0.587,1,6808.0,3,0.02,0.25
0,568,catch,"[(1153, 747), (1153, 803)]",[],"[0, 1]",[],vertical,"(390.0, 762.0)",1.65,nan,1,6814.523,3,0.02,0.25
0,569,target,"[(1148, 758)]",[],[1],[0.5166666666666666],vertical,"(390.0, 262.0)",1.05,0.476,1,6821.758,3,0.02,0.25
0,570,target,"[(1152, 781)]",[],[1],[0.7666666666666666],horizontal,"(890.0, 262.0)",1.3,0.723,1,6827.426,3,0.02,0.25
0,571,catch,"[(1154, 778)]",[],[1],[],horizontal,"(390.0, 762.0)",1.65,nan,1,6833.908,3,0.02,0.25
0,572,catch,"[(1137, 784)]",[],[1],[],horizontal,"(890.0, 262.0)",1.65,nan,1,6840.121,3,0.02,0.25
0,573,target,"[(1178, 769)]",[],[1],[0.65],horizontal,"(390.0, 762.0)",1.2,0.607,1,6846.211,3,0.0,0.25
0,574,target,"[(1174, 781)]",[],[1],[0.6833333333333333],vertical,"(390.0, 262.0)",0.8666666666666667,0.64,1,6852.367,3,0.0,0.25
0,575,catch,"[(1179, 779)]",[],[1],[],vertical,"(890.0, 262.0)",1.65,nan,1,6858.666,3,0.0,0.25
0,576,target,"[(1155, 782)]",[],[1],[0.5333333333333333],vertical,"(390.0, 262.0)",0.4,0.492,1,6864.644,3,0.0,0.25
0,577,target,"[(1155, 779)]",[],[1],[0.6333333333333333],horizontal,"(390.0, 262.0)",1.1666666666666667,0.589,1,6870.16,3,0.0,0.25
0,578,target,"[(1153, 769)]",[],[1],[0.5166666666666666],horizontal,"(390.0, 262.0)",1.4166666666666667,0.471,1,6876.225,3,0.0,0.25
0,579,target,"[(1177, 772)]",[],[1],[0.5833333333333334],vertical,"(390.0, 262.0)",0.36666666666666664,0.543,1,6882.634,3,0.0,0.25
0,580,catch,"[(1149, 773)]",[],[1],[],vertical,"(390.0, 762.0)",1.65,nan,1,6887.997,3,0.0,0.25
0,581,catch,"[(1155, 780)]",[],[1],[],horizontal,"(890.0, 262.0)",1.65,nan,1,6894.237,3,0.0,0.25
0,582,target,"[(1176, 767)]",[],[1],[0.5166666666666666],horizontal,"(890.0, 762.0)",1.5,0.471,1,6899.889,3,0.0,0.25
0,583,target,"[(1169, 771)]",[],[1],[0.36666666666666664],horizontal,"(890.0, 262.0)",1.4666666666666666,0.329,1,6906.194,3,0.0,0.25
0,584,target,"[(1154, 769)]",[],[1],[0.6333333333333333],vertical,"(390.0, 262.0)",1.2666666666666666,0.596,1,6912.643,3,0.0,0.25
0,585,target,"[(1175, 795)]",[],[1],[0.5666666666666667],vertical,"(390.0, 762.0)",1.4,0.54,1,6918.71,3,0.0,0.25
0,586,target,"[(1148, 776)]",[],[1],[0.65],vertical,"(890.0, 762.0)",0.6166666666666667,0.605,1,6925.005,3,0.0,0.25
0,587,catch,"[(1140, 774)]",[],[1],[],vertical,"(390.0, 262.0)",1.65,nan,1,6930.693,3,0.0,0.25
0,588,target,"[(1179, 810)]",[],[1],[0.6166666666666667],horizontal,"(890.0, 262.0)",0.7,0.581,1,6937.035,3,0.0,0.25
0,589,target,"[(1170, 778)]",[],[1],[0.7333333333333333],vertical,"(390.0, 762.0)",1.2333333333333334,0.694,1,6943.071,3,0.0,0.25
0,590,target,"[(1137, 778)]",[],[1],[0.65],horizontal,"(890.0, 762.0)",0.8166666666666667,0.608,1,6949.293,3,0.0,0.25
0,591,catch,"[(1157, 777)]",[],[1],[],vertical,"(390.0, 762.0)",1.65,nan,1,6955.025,3,0.0,0.25
0,592,target,"[(1153, 775)]",[],[1],[0.5333333333333333],vertical,"(890.0, 262.0)",1.3,0.488,1,6960.916,3,0.0,0.25
0,593,target,"[(1148, 783)]",[],[1],[0.6166666666666667],vertical,"(890.0, 262.0)",0.9333333333333333,0.569,1,6967.143,3,0.0,0.25
0,594,target,"[(1161, 787)]",[],[1],[0.85],vertical,"(390.0, 762.0)",0.6,nan,0,6972.823,0,0.0,0.25
0,595,target,"[(1156, 837)]",[],[1],[0.6166666666666667],vertical,"(890.0, 762.0)",0.48333333333333334,0.576,1,6977.595,1,0.0,0.25
0,596,target,"[(1162, 803)]",[],[1],[0.85],vertical,"(390.0, 762.0)",0.5333333333333333,nan,0,7298.794,0,0.0,0.25
0,597,target,"[(1154, 803)]",[],[1],[0.15],vertical,"(890.0, 762.0)",1.2666666666666666,0.12,0,7303.228,0,0.0,0.25
0,598,catch,"[(1132, 779)]",[],[1],[],horizontal,"(890.0, 262.0)",1.65,nan,1,7308.027,1,0.0,0.25
0,599,catch,"[(1160, 769)]",[],[1],[],vertical,"(890.0, 762.0)",1.65,nan,1,7313.718,1,0.0,0.25
0,600,target,"[(1158, 788)]",[],[1],[0.5166666666666666],horizontal,"(390.0, 262.0)",1.2333333333333334,0.476,1,7318.844,1,0.0,0.25
0,601,catch,"[(1149, 764)]",[],[1],[],vertical,"(890.0, 262.0)",1.65,nan,1,7324.355,2,0.0,0.25
0,602,target,"[(1154, 771)]",[],[1],[0.5166666666666666],vertical,"(890.0, 762.0)",0.9,0.478,1,7329.911,2,0.0,0.25
0,603,target,"[(1157, 764)]",[],[1],[0.65],vertical,"(890.0, 762.0)",0.9,0.602,1,7334.877,2,0.0,0.25
0,604,target,"[(1129, 770)]",[],[1],[0.5],vertical,"(890.0, 762.0)",0.7333333333333333,0.471,1,7340.36,2,0.0,0.25
0,605,target,"[(1154, 793)]",[],[1],[0.5333333333333333],horizontal,"(890.0, 762.0)",0.9666666666666667,0.493,1,7345.453,3,0.0,0.25
0,606,target,"[(1180, 778)]",[],[1],[0.7],horizontal,"(890.0, 762.0)",0.7666666666666666,0.659,1,7351.379,3,0.0,0.25
0,607,target,"[(1165, 823)]",[],[1],[0.5333333333333333],vertical,"(890.0, 762.0)",1.2333333333333334,0.494,1,7357.043,3,0.0,0.25
0,608,target,"[(1179, 776)]",[],[1],[0.75],horizontal,"(390.0, 762.0)",0.4,0.701,1,7363.22,3,0.0,0.25
0,609,catch,"[(1161, 796)]",[],[1],[],vertical,"(890.0, 262.0)",1.65,nan,1,7368.995,3,0.0,0.25
0,610,catch,"[(1154, 756)]",[],[1],[],horizontal,"(890.0, 262.0)",1.65,nan,1,7375.311,3,0.0,0.25
0,611,catch,"[(1164, 776)]",[],[1],[],horizontal,"(390.0, 262.0)",1.65,nan,1,7381.617,3,0.0,0.25
0,612,catch,"[(1180, 781)]","[(1105, 850)]",[1],[0.16666666666666666],vertical,"(390.0, 262.0)",,"('bar', 0.183),nan",0,7387.54,0,0.02,0.25
0,613,target,"[(1179, 805)]",[],[1],[0.2833333333333333],horizontal,"(390.0, 262.0)",0.9166666666666666,0.247,1,7390.112,1,0.02,0.25
0,614,target,"[(1151, 756)]",[],[1],[0.6166666666666667],horizontal,"(890.0, 262.0)",0.7833333333333333,0.577,1,7395.228,1,0.02,0.25
0,615,catch,"[(1208, 756)]",[],[1],[],horizontal,"(890.0, 262.0)",1.65,nan,1,7399.786,1,0.02,0.25
0,616,target,"[(1141, 755)]",[],[1],[0.7833333333333333],horizontal,"(390.0, 762.0)",0.36666666666666664,0.736,1,7404.923,2,0.02,0.25
0,617,target,"[(1185, 761)]",[],[1],[0.55],horizontal,"(390.0, 262.0)",1.2666666666666666,0.506,1,7410.562,2,0.02,0.25
0,618,target,"[(1177, 790)]",[],[1],[0.6333333333333333],horizontal,"(890.0, 262.0)",1.2833333333333332,0.593,1,7415.928,2,0.02,0.25
0,619,catch,"[(1161, 777)]",[],[1],[],horizontal,"(390.0, 262.0)",1.65,nan,1,7421.628,2,0.02,0.25
0,620,target,"[(1176, 788)]",[],[1],[0.5166666666666666],horizontal,"(890.0, 262.0)",0.9333333333333333,0.483,1,7427.611,3,0.02,0.25
0,621,catch,"[(1177, 767)]",[],[1],[],vertical,"(890.0, 762.0)",1.65,nan,1,7433.474,3,0.02,0.25
0,622,target,"[(1154, 772)]",[],[1],[0.5833333333333334],vertical,"(890.0, 762.0)",0.95,0.537,1,7439.133,3,0.02,0.25
0,623,target,"[(1177, 782)]",[],[1],[0.6],horizontal,"(390.0, 762.0)",0.55,0.557,1,7444.879,3,0.02,0.25
0,624,target,"[(1172, 755)]",[],[1],[0.5333333333333333],vertical,"(390.0, 262.0)",1.1666666666666667,0.494,1,7450.147,3,0.02,0.25
0,625,target,"[(1165, 770)]",[],[1],[0.55],vertical,"(890.0, 262.0)",0.7,0.512,1,7456.179,3,0.02,0.25
0,626,target,"[(1149, 794)]",[],[1],[0.55],horizontal,"(390.0, 762.0)",1.0166666666666666,0.517,1,7461.812,3,0.02,0.25
0,627,target,"[(1158, 791)]",[],[1],[0.6666666666666666],horizontal,"(890.0, 762.0)",1.4333333333333333,0.621,1,7467.566,3,0.02,0.25
0,628,target,"[(1181, 771)]",[],[1],[0.5666666666666667],vertical,"(890.0, 262.0)",0.8166666666666667,0.525,1,7473.729,3,0.02,0.25
0,629,target,"[(1173, 777)]",[],[1],[0.5666666666666667],vertical,"(390.0, 762.0)",1.0833333333333333,0.53,1,7479.186,3,0.02,0.25
0,630,target,"[(1177, 782)]",[],[1],[0.5166666666666666],horizontal,"(890.0, 762.0)",1.35,0.476,1,7484.93,3,0.02,0.25
0,631,target,"[(1163, 784)]",[],[1],[0.55],vertical,"(890.0, 262.0)",0.45,0.509,1,7491.221,3,0.02,0.25
0,632,target,"[(1164, 768)]",[],[1],[0.6833333333333333],horizontal,"(890.0, 262.0)",1.2166666666666666,0.639,1,7496.793,3,0.02,0.25
0,633,target,"[(1179, 781)]",[],[1],[0.5166666666666666],vertical,"(890.0, 262.0)",1.4666666666666666,0.475,1,7503.128,3,0.02,0.25
0,634,target,"[(1157, 770)]",[],[1],[0.85],horizontal,"(890.0, 262.0)",0.48333333333333334,nan,0,7508.971,0,0.02,0.25
0,635,target,"[(1149, 779)]",[],[1],[0.65],vertical,"(890.0, 762.0)",0.4,0.608,1,7513.145,1,0.02,0.25
0,636,target,"[(1134, 756)]",[],[1],[0.6166666666666667],horizontal,"(890.0, 762.0)",0.9666666666666667,0.585,1,7517.324,1,0.02,0.25
0,637,catch,"[(1179, 765)]",[],[1],[],horizontal,"(390.0, 762.0)",1.65,nan,1,7522.769,1,0.02,0.25
0,638,target,"[(1177, 778)]",[],[1],[0.6],vertical,"(390.0, 762.0)",1.4666666666666666,0.559,1,7528.158,2,0.02,0.25
0,639,target,"[(1178, 779)]",[],[1],[0.5],vertical,"(890.0, 762.0)",1.4833333333333334,0.461,1,7534.245,2,0.02,0.25
0,640,catch,"[(1175, 778)]",[],[1],[],horizontal,"(390.0, 762.0)",1.65,nan,1,7540.055,2,0.02,0.25
0,641,catch,"[(1175, 766)]",[],[1],[],horizontal,"(390.0, 262.0)",1.65,nan,1,7545.296,2,0.02,0.25
0,642,target,"[(1197, 794)]",[],[1],[0.5333333333333333],vertical,"(890.0, 762.0)",0.4,0.498,1,7551.496,3,0.02,0.25
0,643,target,"[(1174, 800)]",[],[1],[0.4166666666666667],horizontal,"(890.0, 762.0)",1.5333333333333332,0.376,1,7557.24,3,0.02,0.25
0,644,target,"[(1163, 777)]",[],[1],[0.55],horizontal,"(390.0, 262.0)",1.2333333333333334,0.503,1,7563.411,3,0.02,0.25
0,645,catch,"[(1166, 761)]",[],[1],[],vertical,"(890.0, 762.0)",1.65,nan,1,7569.497,3,0.02,0.25
0,646,target,"[(1179, 771)]",[],[1],[0.6833333333333333],horizontal,"(390.0, 262.0)",1.1166666666666667,0.639,1,7575.597,3,0.02,0.25
0,647,target,"[(1149, 779)]",[],[1],[0.85],horizontal,"(390.0, 762.0)",0.75,nan,0,7581.428,0,0.02,0.25
0,648,target,"[(1102, 800)]",[],[1],[0.5833333333333334],vertical,"(390.0, 262.0)",1.25,0.542,1,7585.812,1,0.02,0.25
0,649,target,"[(1153, 761)]",[],[1],[0.55],vertical,"(890.0, 762.0)",1.0666666666666667,0.508,1,7595.812,1,0.02,0.25
0,650,target,"[(1159, 767)]",[],[1],[0.55],horizontal,"(390.0, 262.0)",0.48333333333333334,0.504,1,7600.745,1,0.02,0.25
0,651,target,"[(1179, 786)]",[],[1],[0.7],vertical,"(890.0, 762.0)",0.6666666666666666,0.658,1,7605.179,2,0.02,0.25
0,652,target,"[(1162, 795)]",[],[1],[0.5333333333333333],horizontal,"(390.0, 762.0)",0.9333333333333333,0.493,1,7610.696,2,0.02,0.25
0,653,target,"[(1174, 778)]",[],[1],[0.6333333333333333],vertical,"(390.0, 262.0)",1.3666666666666667,0.586,1,7615.761,2,0.02,0.25
0,654,catch,"[(1177, 776)]",[],[1],[],vertical,"(390.0, 262.0)",1.65,nan,1,7621.886,2,0.02,0.25
0,655,target,"[(1177, 772)]",[],[1],[0.6333333333333333],vertical,"(390.0, 262.0)",1.35,0.589,1,7627.211,3,0.02,0.25
0,656,target,"[(1137, 758)]",[],[1],[0.5166666666666666],horizontal,"(390.0, 262.0)",1.1,0.472,1,7633.545,3,0.02,0.25
0,657,target,"[(1175, 774)]",[],[1],[0.5333333333333333],vertical,"(390.0, 762.0)",1.0333333333333332,0.505,1,7639.295,3,0.02,0.25
0,658,target,"[(1177, 778)]","[(1179, 813)]",[1],[0.11666666666666667],vertical,"(390.0, 262.0)",,"('bar', 0.131)",0,7645.211,0,0.02,0.25
0,659,target,"[(1183, 816)]",[],[1],[0.5],vertical,"(390.0, 262.0)",0.7666666666666666,0.461,1,7647.645,1,0.02,0.25
0,660,target,"[(1194, 796)]",[],[1],[0.5333333333333333],horizontal,"(890.0, 262.0)",0.9833333333333333,0.492,1,7652.816,1,0.02,0.25
0,661,target,"[(1151, 778)]",[],[1],[0.65],vertical,"(390.0, 762.0)",0.35,0.61,1,7658.163,1,0.02,0.25
0,662,target,"[(1194, 788)]",[],[1],[0.85],horizontal,"(390.0, 262.0)",0.9,nan,0,7662.529,0,0.0,0.25
0,663,target,"[(1139, 774)]",[],[1],[0.55],vertical,"(890.0, 762.0)",1.0166666666666666,0.508,1,7667.245,1,0.0,0.25
0,664,target,"[(1145, 757)]",[],[1],[0.5666666666666667],horizontal,"(890.0, 262.0)",1.5,0.522,1,7672.129,1,0.0,0.25
0,665,target,"[(1162, 756)]",[],[1],[0.5833333333333334],horizontal,"(390.0, 262.0)",0.35,0.544,1,7677.536,1,0.0,0.25
0,666,target,"[(1169, 757)]",[],[1],[0.5666666666666667],vertical,"(390.0, 262.0)",0.95,0.52,1,7682.146,2,0.0,0.25
0,667,catch,"[(1173, 759)]",[],[1],[],horizontal,"(890.0, 262.0)",1.65,nan,1,7687.657,2,0.0,0.25
0,668,catch,"[(1177, 774)]",[],[1],[],horizontal,"(390.0, 262.0)",1.65,nan,1,7693.21,2,0.0,0.25
0,669,target,"[(1167, 775)]",[],[1],[0.5166666666666666],vertical,"(390.0, 262.0)",0.7,0.474,1,7698.595,2,0.0,0.25
0,670,catch,"[(1176, 776)]",[],[1],[],vertical,"(890.0, 262.0)",1.65,nan,1,7703.707,3,0.0,0.25
0,671,target,"[(1171, 779)]",[],[1],[0.5833333333333334],vertical,"(890.0, 762.0)",1.2666666666666666,0.538,1,7710.232,3,0.0,0.25
0,672,target,"[(1151, 773)]",[],[1],[0.65],vertical,"(390.0, 762.0)",0.9333333333333333,0.61,1,7716.682,3,0.0,0.25
0,673,target,"[(1160, 762)]",[],[1],[0.7],horizontal,"(890.0, 762.0)",0.5333333333333333,0.66,1,7722.582,3,0.0,0.25
0,674,target,"[(1165, 782)]",[],[1],[0.5666666666666667],vertical,"(390.0, 262.0)",1.0833333333333333,0.519,1,7728.129,3,0.0,0.25
0,675,target,"[(1179, 774)]",[],[1],[0.55],vertical,"(890.0, 762.0)",0.9666666666666667,0.507,1,7734.152,3,0.0,0.25
0,676,target,"[(1154, 757)]",[],[1],[0.5666666666666667],vertical,"(890.0, 262.0)",1.5333333333333332,0.523,1,7740.28,3,0.0,0.25
0,677,target,"[(1152, 798)]",[],[1],[0.6],horizontal,"(890.0, 262.0)",0.8,0.554,1,7746.328,3,0.0,0.25
0,678,target,"[(1154, 767)]",[],[1],[0.5],horizontal,"(890.0, 262.0)",0.7166666666666667,0.461,1,7752.261,3,0.0,0.25
0,679,target,"[(1162, 796)]",[],[1],[0.5],horizontal,"(890.0, 262.0)",1.05,0.462,1,7757.78,3,0.0,0.25
0,680,target,"[(1164, 779)]",[],[1],[0.5],vertical,"(890.0, 262.0)",0.5,0.456,1,7763.525,3,0.0,0.25
0,681,catch,"[(1150, 760)]",[],[1],[],horizontal,"(390.0, 262.0)",1.65,nan,1,7768.778,3,0.0,0.25
0,682,target,"[(1149, 779)]",[],[1],[0.7],vertical,"(390.0, 762.0)",0.5666666666666667,0.652,1,7774.846,3,0.0,0.25
0,683,target,"[(1176, 760)]",[],[1],[0.5166666666666666],horizontal,"(390.0, 262.0)",1.4,0.474,1,7780.404,3,0.0,0.25
0,684,target,"[(1172, 778)]",[],[1],[0.5666666666666667],horizontal,"(890.0, 262.0)",1.15,0.523,1,7786.246,3,0.0,0.25
0,685,catch,"[(1178, 784)]",[],[1],[],vertical,"(390.0, 262.0)",1.65,nan,1,7792.185,3,0.0,0.25
0,686,catch,"[(1181, 760)]",[],[1],[],horizontal,"(390.0, 262.0)",1.65,nan,1,7798.266,3,0.0,0.25
0,687,catch,"[(1154, 780)]",[],[1],[],horizontal,"(390.0, 262.0)",1.65,nan,1,7803.829,3,0.0,0.25
0,688,target,"[(1154, 764)]",[],[1],[0.5833333333333334],vertical,"(890.0, 262.0)",1.3666666666666667,0.54,1,7809.761,3,0.0,0.25
0,689,target,"[(1181, 761)]",[],[1],[0.55],horizontal,"(890.0, 262.0)",0.7166666666666667,0.506,1,7815.829,3,0.0,0.25
0,690,target,"[(1170, 776)]",[],[1],[0.85],horizontal,"(890.0, 262.0)",0.9833333333333333,nan,0,7821.35,0,0.0,0.25
0,691,target,"[(1139, 776)]",[],[1],[0.5333333333333333],vertical,"(390.0, 262.0)",0.9,0.493,1,7825.922,1,0.0,0.25
0,692,target,"[(1165, 762)]",[],[1],[0.5333333333333333],horizontal,"(890.0, 762.0)",0.45,0.497,1,7831.122,1,0.0,0.25
0,693,target,"[(1162, 794)]",[],[1],[0.8],vertical,"(890.0, 762.0)",1.0333333333333332,0.755,1,7835.713,1,0.0,0.25
0,694,catch,"[(1169, 769)]",[],[1],[],horizontal,"(390.0, 262.0)",1.65,nan,1,7841.091,2,0.0,0.25
0,695,target,"[(1176, 764)]",[],[1],[0.7166666666666667],horizontal,"(890.0, 262.0)",0.4166666666666667,0.671,1,7846.694,2,0.0,0.25
0,696,target,"[(1139, 766)]",[],[1],[0.5833333333333334],horizontal,"(390.0, 262.0)",1.05,0.544,1,7851.928,2,0.0,0.25
0,697,target,"[(1164, 803)]",[],[1],[0.6333333333333333],horizontal,"(390.0, 762.0)",0.8,0.594,1,7857.53,2,0.0,0.25
0,698,target,"[(1171, 748), (1174, 795)]",[],"[0, 1]",[0.55],vertical,"(390.0, 762.0)",0.3833333333333333,0.514,1,7862.662,3,0.0,0.25
0,699,catch,"[(1165, 771)]",[],[1],[],vertical,"(390.0, 262.0)",1.65,nan,1,7868.951,3,0.0,0.25
0,700,target,"[(1164, 761)]",[],[1],[0.5666666666666667],vertical,"(890.0, 262.0)",0.5833333333333334,0.524,1,7874.961,3,0.0,0.25
0,701,target,"[(1173, 779)]",[],[1],[0.5666666666666667],horizontal,"(390.0, 762.0)",0.6833333333333333,0.525,1,7880.531,3,0.0,0.25
0,702,target,"[(1162, 755)]",[],[1],[0.65],horizontal,"(890.0, 762.0)",1.25,0.606,1,7886.345,3,0.0,0.25
0,703,target,"[(1164, 752), (1155, 781)]",[],"[0, 1]",[0.5833333333333334],horizontal,"(890.0, 762.0)",1.2,0.54,1,7892.463,3,0.0,0.25
0,704,target,"[(1164, 764)]",[],[1],[0.6],horizontal,"(890.0, 262.0)",0.7833333333333333,0.557,1,7899.862,3,0.0,0.25
0,705,target,"[(1156, 773)]",[],[1],[0.5666666666666667],vertical,"(390.0, 762.0)",1.0,0.529,1,7905.75,3,0.0,0.25
0,706,target,"[(1177, 764)]",[],[1],[0.26666666666666666],horizontal,"(390.0, 762.0)",1.5,0.233,1,7911.979,3,0.0,0.25
0,707,target,"[(1154, 788)]",[],[1],[0.43333333333333335],horizontal,"(890.0, 762.0)",1.4166666666666667,0.393,1,7917.989,3,0.0,0.25
0,708,catch,"[(1158, 790)]",[],[1],[],horizontal,"(390.0, 262.0)",1.65,nan,1,7924.029,3,0.0,0.25
0,709,target,"[(1172, 761)]",[],[1],[0.6166666666666667],horizontal,"(390.0, 262.0)",0.9833333333333333,0.576,1,7929.762,3,0.0,0.25
0,710,target,"[(1177, 752), (1142, 797)]",[],"[0, 1]",[0.5333333333333333],vertical,"(890.0, 262.0)",1.2333333333333334,0.492,1,7935.912,3,0.0,0.25
0,711,target,"[(1163, 765)]",[],[1],[0.5833333333333334],vertical,"(390.0, 762.0)",1.1333333333333333,0.541,1,7943.545,3,0.0,0.25
0,712,target,"[(1154, 789)]",[],[1],[0.5666666666666667],horizontal,"(890.0, 762.0)",1.1166666666666667,0.521,1,7949.419,3,0.0,0.25
0,713,target,"[(1128, 799)]",[],[1],[0.5833333333333334],horizontal,"(390.0, 262.0)",0.7833333333333333,0.541,1,7954.946,3,0.0,0.25
0,714,target,"[(1150, 765)]",[],[1],[0.5333333333333333],horizontal,"(390.0, 262.0)",0.4666666666666667,0.49,1,7963.05,3,0.0,0.25
0,715,catch,"[(1193, 797)]",[],[1],[],vertical,"(890.0, 262.0)",1.65,nan,1,7968.412,3,0.0,0.25
0,716,target,"[(1172, 779)]",[],[1],[0.4666666666666667],vertical,"(390.0, 262.0)",0.9,0.422,1,7974.324,3,0.0,0.25
0,717,target,"[(1174, 774)]",[],[1],[0.7333333333333333],vertical,"(390.0, 762.0)",1.0833333333333333,0.691,1,7980.422,3,0.0,0.25
0,718,target,"[(1159, 760)]",[],[1],[0.6166666666666667],horizontal,"(390.0, 762.0)",0.7,0.581,1,7986.647,3,0.0,0.25
0,719,catch,"[(1178, 790)]",[],[1],[],vertical,"(390.0, 262.0)",1.65,nan,1,7992.046,3,0.0,0.25
0,720,target,"[(1155, 762)]",[],[1],[0.6],vertical,"(890.0, 262.0)",0.8333333333333334,0.553,1,7998.246,3,0.0,0.25
0,721,target,"[(1153, 758)]",[],[1],[0.7],vertical,"(890.0, 262.0)",0.8166666666666667,0.656,1,8004.142,3,0.0,0.25
0,722,target,"[(1165, 784)]",[],[1],[0.5833333333333334],vertical,"(390.0, 762.0)",1.2166666666666666,0.538,1,8010.064,3,0.0,0.25
0,723,target,"[(1188, 814)]",[],[1],[0.65],horizontal,"(890.0, 762.0)",0.5,0.605,1,8016.306,3,0.0,0.25
0,724,catch,"[(1149, 799)]",[],[1],[],vertical,"(890.0, 762.0)",1.65,nan,1,8211.729,3,0.0,0.25
0,725,target,"[(1138, 779)]",[],[1],[0.3833333333333333],horizontal,"(390.0, 762.0)",1.4166666666666667,0.344,1,8217.707,3,0.0,0.25
0,726,target,"[(1183, 794)]",[],[1],[0.5333333333333333],vertical,"(390.0, 262.0)",1.5,0.492,1,8223.647,3,0.0,0.25
0,727,target,"[(1158, 760)]",[],[1],[0.6666666666666666],vertical,"(890.0, 262.0)",1.2166666666666666,0.625,1,8229.713,3,0.0,0.25
0,728,catch,"[(1159, 786)]",[],[1],[],horizontal,"(890.0, 762.0)",1.65,nan,1,8235.428,3,0.0,0.25
0,729,target,"[(1154, 793)]",[],[1],[0.6333333333333333],horizontal,"(890.0, 762.0)",0.5333333333333333,0.587,1,8241.748,3,0.0,0.25
0,730,target,"[(1154, 792)]",[],[1],[0.6166666666666667],vertical,"(890.0, 262.0)",1.15,0.569,1,8247.048,3,0.0,0.25
0,731,target,"[(1154, 794)]",[],[1],[0.6833333333333333],horizontal,"(390.0, 762.0)",0.8,0.639,1,8253.459,3,0.0,0.25
0,732,target,"[(1157, 756)]",[],[1],[0.6833333333333333],horizontal,"(390.0, 762.0)",0.5,0.634,1,8259.813,3,0.0,0.25
0,733,target,"[(1178, 786)]",[],[1],[0.8],vertical,"(390.0, 762.0)",0.8833333333333333,0.749,1,8265.262,3,0.0,0.25
0,734,target,"[(1144, 783)]",[],[1],[0.5833333333333334],vertical,"(890.0, 262.0)",0.43333333333333335,0.539,1,8271.496,3,0.0,0.25
0,735,target,"[(1175, 784)]",[],[1],[0.55],horizontal,"(890.0, 762.0)",0.4,0.507,1,8277.263,3,0.0,0.25
0,736,catch,"[(1153, 785)]",[],[1],[],vertical,"(390.0, 762.0)",1.65,nan,1,8282.514,3,0.0,0.25
0,737,target,"[(1153, 764)]",[],[1],[0.23333333333333334],horizontal,"(890.0, 262.0)",1.5166666666666666,0.197,0,8288.825,0,0.0,0.25
0,738,target,"[(1154, 795)]",[],[1],[0.55],horizontal,"(890.0, 262.0)",0.45,0.507,1,8293.847,1,0.0,0.25
0,739,catch,"[(1153, 771)]",[],[1],[],horizontal,"(890.0, 262.0)",,"('cti', 1.519),nan",0,8298.512,0,0.02,0.25
0,740,target,"[(1154, 796)]",[],[1],[0.7],horizontal,"(390.0, 762.0)",1.05,0.652,1,8303.585,1,0.02,0.25
0,741,target,"[(1154, 781)]",[],[1],[0.5666666666666667],horizontal,"(890.0, 262.0)",1.3166666666666667,0.524,1,8309.113,1,0.02,0.25
0,742,target,"[(1150, 750), (1149, 799)]",[],"[0, 1]",[0.7833333333333333],vertical,"(890.0, 762.0)",1.1333333333333333,0.737,1,8314.655,1,0.02,0.25
0,743,catch,"[(1149, 765)]",[],[1],[],vertical,"(890.0, 262.0)",1.65,nan,1,8321.025,2,0.02,0.25
0,744,target,"[(1146, 765)]",[],[1],[0.55],horizontal,"(390.0, 262.0)",0.43333333333333335,0.509,1,8326.643,2,0.02,0.25
0,745,target,"[(1154, 768)]",[],[1],[0.5666666666666667],horizontal,"(890.0, 262.0)",0.5333333333333333,0.524,1,8331.498,2,0.02,0.25
0,746,catch,"[(1150, 768)]",[],[1],[],horizontal,"(390.0, 262.0)",1.65,nan,1,8336.371,2,0.02,0.25
0,747,catch,"[(1148, 792)]",[],[1],[],horizontal,"(390.0, 262.0)",1.65,nan,1,8342.03,3,0.02,0.25
0,748,target,"[(1154, 796)]",[],[1],[0.6],horizontal,"(890.0, 762.0)",1.1666666666666667,0.552,1,8348.413,3,0.02,0.25
0,749,target,"[(1142, 790)]",[],[1],[0.5833333333333334],vertical,"(390.0, 262.0)",0.6166666666666667,0.547,1,8354.24,3,0.02,0.25
0,750,target,"[(1175, 778)]",[],[1],[0.5333333333333333],horizontal,"(390.0, 262.0)",1.05,0.495,1,8359.905,3,0.02,0.25
0,751,target,"[(1159, 774)]",[],[1],[0.5666666666666667],horizontal,"(890.0, 762.0)",0.45,0.529,1,8365.887,3,0.02,0.25
0,752,target,"[(1174, 770)]",[],[1],[0.55],horizontal,"(390.0, 262.0)",1.15,0.509,1,8371.313,3,0.02,0.25
0,753,target,"[(1165, 785)]",[],[1],[0.6],horizontal,"(390.0, 762.0)",1.15,0.557,1,8377.048,3,0.02,0.25
0,754,target,"[(1134, 774)]",[],[1],[0.85],horizontal,"(890.0, 762.0)",1.0,nan,0,8382.697,0,0.02,0.25
0,755,target,"[(1149, 791)]",[],[1],[0.4],vertical,"(890.0, 762.0)",1.4,0.362,1,8387.383,1,0.02,0.25
0,756,target,"[(1151, 772)]",[],[1],[0.5833333333333334],horizontal,"(390.0, 262.0)",0.5666666666666667,0.546,1,8392.997,1,0.02,0.25
0,757,target,"[(1149, 765)]",[],[1],[0.6],horizontal,"(890.0, 262.0)",1.1,0.554,1,8398.121,1,0.02,0.25
0,758,target,"[(1152, 765)]",[],[1],[0.7],horizontal,"(390.0, 762.0)",1.2166666666666666,0.652,1,8403.48,2,0.02,0.25
0,759,target,"[(1154, 778)]",[],[1],[0.5833333333333334],vertical,"(890.0, 262.0)",0.4666666666666667,0.541,1,8409.431,2,0.02,0.25
0,760,target,"[(1154, 743), (1149, 810)]",[],"[0, 1]",[0.45],horizontal,"(890.0, 262.0)",1.5166666666666666,0.416,1,8414.564,2,0.02,0.25
0,761,catch,"[(1149, 797)]",[],[1],[],horizontal,"(890.0, 262.0)",1.65,nan,1,8422.013,2,0.02,0.25
0,762,target,"[(1150, 762)]",[],[1],[0.6833333333333333],vertical,"(390.0, 762.0)",0.9,0.637,1,8427.453,3,0.02,0.25
0,763,target,"[(1150, 771)]",[],[1],[0.5666666666666667],vertical,"(390.0, 262.0)",0.75,0.521,1,8433.347,3,0.02,0.25
0,764,catch,"[(1157, 769)]",[],[1],[],vertical,"(390.0, 262.0)",1.65,nan,1,8438.797,3,0.02,0.25
0,765,target,"[(1151, 766)]",[],[1],[0.5166666666666666],horizontal,"(390.0, 262.0)",1.3666666666666667,0.477,1,8444.838,3,0.02,0.25
0,766,catch,"[(1165, 793)]",[],[1],[],vertical,"(890.0, 262.0)",1.65,nan,1,8451.164,3,0.02,0.25
0,767,target,"[(1164, 783)]",[],[1],[0.6166666666666667],horizontal,"(390.0, 762.0)",0.4666666666666667,0.578,1,8457.297,3,0.02,0.25
0,768,catch,"[(1149, 760)]",[],[1],[],vertical,"(890.0, 262.0)",1.65,nan,1,8462.647,3,0.02,0.25
0,769,target,"[(1149, 769)]",[],[1],[0.6166666666666667],horizontal,"(890.0, 762.0)",1.2833333333333332,0.572,1,8468.81,3,0.02,0.25
0,770,target,"[(1157, 776)]",[],[1],[0.45],vertical,"(890.0, 762.0)",1.45,0.413,1,8475.315,3,0.02,0.25
0,771,target,"[(1174, 787)]",[],[1],[0.5666666666666667],horizontal,"(890.0, 762.0)",1.0166666666666666,0.527,1,8481.398,3,0.02,0.25
0,772,target,"[(1179, 780)]",[],[1],[0.6833333333333333],vertical,"(390.0, 762.0)",1.4333333333333333,0.638,1,8486.98,3,0.02,0.25
0,773,catch,"[(1155, 760)]",[],[1],[],vertical,"(390.0, 762.0)",1.65,nan,1,8493.014,3,0.02,0.25
0,774,target,"[(1159, 774)]",[],[1],[0.5833333333333334],horizontal,"(390.0, 262.0)",0.4,0.538,1,8499.248,3,0.02,0.25
0,775,target,"[(1155, 763)]",[],[1],[0.6833333333333333],horizontal,"(390.0, 262.0)",0.65,0.635,1,8504.513,3,0.02,0.25
0,776,catch,"[(1176, 771)]",[],[1],[],horizontal,"(390.0, 262.0)",1.65,nan,1,8510.431,3,0.02,0.25
0,777,target,"[(1158, 769)]",[],[1],[0.5833333333333334],horizontal,"(890.0, 762.0)",1.0166666666666666,0.54,1,8516.125,3,0.02,0.25
0,778,target,"[(1149, 761)]",[],[1],[0.6333333333333333],vertical,"(390.0, 262.0)",1.4166666666666667,0.597,1,8522.007,3,0.02,0.25
0,779,catch,"[(1156, 813)]",[],[1],[],vertical,"(890.0, 762.0)",1.65,nan,1,8528.274,3,0.02,0.25
0,780,target,"[(1140, 829)]",[],[1],[0.85],vertical,"(890.0, 762.0)",0.8666666666666667,nan,0,9160.116,0,0.02,0.25
0,781,catch,"[(1154, 814)]",[],[1],[],vertical,"(390.0, 262.0)",1.65,nan,1,9165.02,1,0.02,0.25
0,782,target,"[(1145, 768)]",[],[1],[0.85],vertical,"(390.0, 262.0)",1.1333333333333333,nan,0,9170.007,0,0.02,0.25
0,783,target,"[(1145, 855)]",[],[1],[0.5666666666666667],horizontal,"(390.0, 262.0)",0.7833333333333333,0.527,1,9175.065,1,0.02,0.25
0,784,target,"[(1124, 796)]",[],[1],[0.85],horizontal,"(890.0, 762.0)",1.2833333333333332,nan,0,9181.494,0,0.02,0.25
0,785,target,"[(1124, 803)]",[],[1],[0.85],vertical,"(390.0, 762.0)",1.0166666666666666,nan,0,9187.082,0,0.02,0.25
0,786,target,"[(1136, 798)]",[],[1],[0.85],vertical,"(890.0, 762.0)",0.9,nan,0,9191.798,0,0.02,0.25
0,787,target,"[(1144, 790)]",[],[1],[0.5833333333333334],horizontal,"(890.0, 262.0)",0.7166666666666667,0.539,1,9197.083,1,0.02,0.25
0,788,target,"[(1152, 771)]",[],[1],[0.85],horizontal,"(890.0, 262.0)",0.36666666666666664,nan,0,9202.093,0,0.02,0.25
0,789,target,"[(1175, 798)]",[],[1],[0.85],vertical,"(390.0, 762.0)",0.36666666666666664,nan,0,9206.24,0,0.0,0.25
0,790,target,"[(1149, 784)]",[],[1],[0.6],horizontal,"(390.0, 762.0)",0.75,0.557,1,9210.661,1,0.0,0.25
0,791,catch,"[(1174, 779)]",[],[1],[],horizontal,"(890.0, 262.0)",1.65,nan,1,9215.744,1,0.0,0.25
0,792,target,"[(1139, 811)]",[],[1],[0.8333333333333334],vertical,"(890.0, 762.0)",0.65,0.784,1,9220.512,1,0.0,0.25
0,793,catch,"[(1144, 787)]",[],[1],[],vertical,"(390.0, 262.0)",1.65,nan,1,9225.966,2,0.0,0.25
0,794,target,"[(1153, 775)]",[],[1],[0.6333333333333333],vertical,"(890.0, 762.0)",1.2,0.589,1,9231.431,2,0.0,0.25
0,795,target,"[(1179, 760)]",[],[1],[0.6],horizontal,"(390.0, 262.0)",1.0166666666666666,0.564,1,9237.223,2,0.0,0.25
0,796,target,"[(1145, 793)]",[],[1],[0.6],vertical,"(390.0, 762.0)",1.35,0.554,1,9242.666,2,0.0,0.25
0,797,target,"[(1169, 781)]",[],[1],[0.85],horizontal,"(390.0, 262.0)",1.25,nan,0,9248.6,0,0.0,0.25
0,798,target,"[(1174, 786)]",[],[1],[0.85],vertical,"(890.0, 262.0)",0.43333333333333335,nan,0,9253.316,0,0.0,0.25
0,799,catch,"[(1153, 793)]",[],[1],[],horizontal,"(890.0, 762.0)",1.65,nan,1,9257.733,1,0.0,0.25
0,800,target,"[(1158, 774)]",[],[1],[0.35],horizontal,"(390.0, 762.0)",1.45,0.314,1,9262.664,1,0.0,0.25
0,801,target,"[(1197, 766)]",[],[1],[0.7166666666666667],vertical,"(890.0, 262.0)",0.5166666666666666,0.674,1,9267.998,1,0.0,0.25
0,802,catch,"[(1104, 774)]",[],[1],[],horizontal,"(890.0, 262.0)",,"('cti', 1.623),nan",0,9272.532,0,0.02,0.25
0,803,target,"[(1145, 788)]",[],[1],[0.85],vertical,"(390.0, 762.0)",1.0666666666666667,nan,0,9277.523,0,0.02,0.25
0,804,catch,"[(1149, 796)]",[],[1],[],horizontal,"(890.0, 262.0)",1.65,nan,1,9282.882,1,0.02,0.25
0,805,target,"[(1193, 770)]",[],[1],[0.85],horizontal,"(890.0, 762.0)",1.3166666666666667,nan,0,9287.882,0,0.02,0.25
0,806,target,"[(1165, 796)]",[],[1],[0.8],vertical,"(390.0, 262.0)",1.1,0.762,1,9292.758,1,0.02,0.25
0,807,catch,"[(1195, 789)]",[],[1],[],horizontal,"(890.0, 762.0)",1.65,nan,1,9300.316,1,0.02,0.25
0,808,target,"[(1160, 822)]",[],[1],[0.6],horizontal,"(890.0, 762.0)",1.2166666666666666,0.56,1,9305.617,1,0.02,0.25
0,809,catch,"[(1159, 769)]",[],[1],[],vertical,"(890.0, 262.0)",1.65,nan,1,9311.734,2,0.02,0.25
0,810,catch,"[(1162, 780)]",[],[1],[],vertical,"(390.0, 262.0)",1.65,nan,1,9317.799,2,0.02,0.25
0,811,target,"[(1164, 771)]",[],[1],[0.5666666666666667],vertical,"(390.0, 762.0)",1.4,0.533,1,9323.458,2,0.02,0.25
0,812,target,"[(1144, 785)]",[],[1],[0.85],horizontal,"(390.0, 262.0)",1.3166666666666667,nan,0,9329.199,0,0.02,0.25
0,813,target,"[(1148, 795)]",[],[1],[0.6833333333333333],horizontal,"(890.0, 262.0)",1.1166666666666667,0.648,1,9334.619,1,0.02,0.25
0,814,target,"[(1105, 754)]",[],[1],[0.6],horizontal,"(890.0, 262.0)",1.1333333333333333,0.559,1,9339.745,1,0.02,0.25
0,815,catch,"[(1074, 781)]",[],[1],[],vertical,"(890.0, 262.0)",1.65,nan,1,9344.917,1,0.02,0.25
0,816,target,"[(1170, 782)]",[],[1],[0.85],horizontal,"(890.0, 262.0)",0.6833333333333333,nan,0,9350.372,0,0.02,0.25
0,817,target,"[(1167, 800)]",[],[1],[0.35],vertical,"(890.0, 262.0)",1.4666666666666666,0.312,1,9354.966,1,0.02,0.25
0,818,catch,"[(1161, 783)]",[],[1],[],vertical,"(390.0, 262.0)",1.65,nan,1,9360.564,1,0.02,0.25
0,819,catch,"[(1176, 776)]",[],[1],[],horizontal,"(890.0, 262.0)",1.65,nan,1,9365.782,1,0.02,0.25
0,820,target,"[(1159, 765)]",[],[1],[0.6166666666666667],horizontal,"(890.0, 762.0)",1.2333333333333334,0.576,1,9371.319,2,0.02,0.25
0,821,target,"[(1113, 786)]",[],[1],[0.85],vertical,"(390.0, 762.0)",1.4833333333333334,nan,0,9377.216,0,0.02,0.25
0,822,target,"[(1150, 787)]",[],[1],[0.6],horizontal,"(890.0, 262.0)",1.0,0.562,1,9382.431,1,0.02,0.25
0,823,target,"[(1164, 785)]",[],[1],[0.85],vertical,"(890.0, 762.0)",0.8666666666666667,nan,0,9387.762,0,0.02,0.25
0,824,target,"[(1146, 797)]",[],[1],[0.6833333333333333],horizontal,"(390.0, 762.0)",1.4333333333333333,0.644,1,9392.357,1,0.02,0.25
0,825,target,"[(1125, 796)]",[],[1],[0.85],vertical,"(890.0, 262.0)",0.4166666666666667,nan,0,9398.129,0,0.02,0.25
0,826,target,"[(1160, 801)]",[],[1],[0.8],horizontal,"(890.0, 262.0)",1.4833333333333334,0.758,1,9402.85,1,0.02,0.25
0,827,target,"[(1160, 794)]",[],[1],[0.85],horizontal,"(390.0, 762.0)",0.8166666666666667,nan,0,9408.666,0,0.02,0.25
0,828,target,"[(1166, 746), (1154, 790)]",[],"[0, 1]",[0.85],horizontal,"(390.0, 262.0)",0.5,nan,0,9413.412,0,0.02,0.25
0,829,target,"[(1150, 799)]",[],[1],[0.6166666666666667],horizontal,"(390.0, 762.0)",0.7166666666666667,0.582,1,9419.29,1,0.02,0.25
0,830,target,"[(1208, 773)]",[],[1],[0.6166666666666667],vertical,"(890.0, 262.0)",0.3833333333333333,0.578,1,9423.827,1,0.02,0.25
0,831,target,"[(1153, 753), (1147, 804)]",[],"[0, 1]",[0.85],vertical,"(890.0, 762.0)",0.7166666666666667,nan,0,9428.583,0,0.02,0.25
0,832,target,"[(1162, 773)]",[],[1],[0.6166666666666667],vertical,"(390.0, 762.0)",1.0166666666666666,0.573,1,9434.177,1,0.02,0.25
0,833,target,"[(1142, 752), (1144, 800)]",[],"[0, 1]",[0.5666666666666667],vertical,"(890.0, 262.0)",0.7166666666666667,0.527,1,9439.37,1,0.02,0.25
0,834,catch,"[(1183, 752), (1108, 790)]",[],"[0, 1]",[],vertical,"(890.0, 262.0)",1.65,nan,1,9446.234,1,0.02,0.25
0,835,catch,"[(1169, 770)]",[],[1],[],vertical,"(890.0, 762.0)",1.65,nan,1,9452.366,2,0.02,0.25
0,836,target,"[(1183, 773)]",[],[1],[0.6166666666666667],horizontal,"(390.0, 262.0)",1.15,0.572,1,9458.25,2,0.02,0.25
0,837,catch,"[(1119, 780)]",[],[1],[],horizontal,"(890.0, 262.0)",1.65,nan,1,9464.117,2,0.02,0.25
0,838,target,"[(1108, 786)]",[],[1],[0.85],vertical,"(390.0, 762.0)",0.5666666666666667,nan,0,9470.046,0,0.02,0.25
0,839,target,"[(1177, 784)]",[],[1],[0.6],horizontal,"(390.0, 262.0)",1.3,0.555,1,9474.784,1,0.02,0.25
0,840,catch,"[(1156, 751), (387, 910), (1073, 808)]",[],"[0, 0, 1]",[],horizontal,"(890.0, 262.0)",1.65,nan,1,9480.333,1,0.02,0.25
0,841,catch,"[(1149, 779)]",[],[1],[],horizontal,"(890.0, 762.0)",1.65,nan,1,9488.084,1,0.02,0.25
0,842,target,"[(1150, 775)]",[],[1],[0.85],horizontal,"(390.0, 762.0)",1.45,nan,0,9493.74,0,0.02,0.25
0,843,target,"[(1174, 803)]",[],[1],[0.85],vertical,"(890.0, 262.0)",1.3166666666666667,nan,0,9499.443,0,0.02,0.25
0,844,target,"[(494, 573), (1167, 817)]",[],"[0, 1]",[0.6333333333333333],vertical,"(890.0, 762.0)",1.1166666666666667,0.592,1,9504.567,1,0.02,0.25
0,845,target,"[(1171, 775)]",[],[1],[0.5833333333333334],horizontal,"(390.0, 262.0)",1.3333333333333333,0.546,1,9511.756,1,0.02,0.25
0,846,catch,"[(1175, 803)]",[],[1],[],vertical,"(390.0, 262.0)",1.65,nan,1,9517.069,1,0.02,0.25
0,847,target,"[(1169, 768)]",[],[1],[0.6333333333333333],vertical,"(890.0, 262.0)",0.5666666666666667,0.59,1,9522.416,2,0.02,0.25
0,848,target,"[(1169, 769)]",[],[1],[0.5],horizontal,"(890.0, 262.0)",1.5166666666666666,0.456,1,9527.56,2,0.02,0.25
0,849,target,"[(1177, 764)]",[],[1],[0.8333333333333334],horizontal,"(890.0, 762.0)",0.4166666666666667,0.784,1,9533.553,2,0.02,0.25
0,850,target,"[(1171, 760)]",[],[1],[0.48333333333333334],horizontal,"(390.0, 762.0)",0.5666666666666667,0.452,1,9539.044,2,0.02,0.25
0,851,target,"[(1219, 779)]",[],[1],[0.65],vertical,"(390.0, 262.0)",1.5333333333333332,0.612,1,9543.904,3,0.02,0.25
0,852,catch,"[(1155, 770)]",[],[1],[],horizontal,"(890.0, 762.0)",1.65,nan,1,9550.224,3,0.0,0.25
0,853,catch,"[(1100, 786)]",[],[1],[],horizontal,"(390.0, 262.0)",1.65,nan,1,9555.9,3,0.0,0.25
0,854,target,"[(1158, 781)]",[],[1],[0.85],vertical,"(890.0, 762.0)",0.65,nan,0,9561.936,0,0.0,0.25
0,855,target,"[(1153, 779)]",[],[1],[0.7833333333333333],vertical,"(390.0, 262.0)",0.65,0.738,1,9566.509,1,0.0,0.25
0,856,target,"[(1155, 739), (1164, 772)]",[],"[0, 1]",[0.85],horizontal,"(890.0, 262.0)",0.6666666666666666,nan,0,9571.466,0,0.0,0.25
0,857,target,"[(1149, 778)]",[],[1],[0.5833333333333334],vertical,"(390.0, 262.0)",0.5,0.54,1,9576.634,1,0.0,0.25
0,858,catch,"[(1178, 779)]",[],[1],[],horizontal,"(890.0, 262.0)",1.65,nan,1,9581.734,1,0.0,0.25
0,859,target,"[(1176, 767)]",[],[1],[0.6166666666666667],vertical,"(890.0, 762.0)",0.7333333333333333,0.575,1,9587.298,1,0.0,0.25
0,860,target,"[(1177, 768)]",[],[1],[0.5666666666666667],horizontal,"(390.0, 262.0)",0.3833333333333333,0.528,1,9592.303,2,0.0,0.25
0,861,target,"[(1179, 741), (1139, 802)]",[],"[0, 1]",[0.55],horizontal,"(890.0, 762.0)",0.8166666666666667,0.504,1,9597.569,2,0.0,0.25
0,862,target,"[(1149, 760)]",[],[1],[0.6],horizontal,"(890.0, 762.0)",0.75,0.558,1,9604.459,2,0.0,0.25
0,863,catch,"[(1159, 778)]",[],[1],[],vertical,"(890.0, 262.0)",1.65,nan,1,9609.851,2,0.0,0.25
