block,practice,trial,change_interval_s,change_interval_frames,taps_start_time_during_fix,taps_end_time_during_fix,taps_start_loc_during_fix,taps_end_loc_during_fix,taps_on_lever_during_fix,taps_on_lever_frame_during_fix,taps_on_lever_s_during_fix,fix_xy,bar_orientation,target_xy,cti,rt,acc,time
1,True,1,0.329,19,[],[],"[(206, 77), (29, 818), (663, 466), (845, 832), (655, 449), (642, 311), (830, 999), (117, 999), (678, 999), (12, 846), (601, 1005), (621, 932), (282, 456), (147, 430), (336, 341), (141, 434), (1, 512), (470, 298), (21, 852), (296, 851), (593, 622), (524, 741), (623, 870), (519, 325), (543, 408), (341, 402), (1192, 915)]",[],"[0, 0, 0, 0, 0, 0, 0, 0, 0, 0, 0, 0, 0, 0, 0, 0, 0, 0, 0, 0, 0, 0, 0, 0, 0, 0, 1]",[56],[0.9333333333333333],"[640.0, 512.0]",vertical,"(390.0, 762.0)",[0.5833333333333334],[0.592],1,0.106
1,True,2,0.499,29,[],[],"[(1164, 883)]",[],[1],[62],[1.0333333333333332],"[640.0, 512.0]",horizontal,"(390.0, 262.0)",[1.4],[0.525],1,253.887
1,True,3,1.148,68,[],[],"[(1160, 885)]",[],[1],[102],[1.7],"[640.0, 512.0]",horizontal,"(890.0, 262.0)",[1.5],[0.542],1,257.838
1,True,4,1.368,82,[],[],"[(1160, 906)]",[],[1],[121],[2.0166666666666666],"[640.0, 512.0]",horizontal,"(390.0, 762.0)",[1.3166666666666667],[0.621],1,262.503
1,False,1,0.341,20,[],[],"[(1142, 918)]",[],[1],[70],[1.1666666666666667],"[640.0, 512.0]",horizontal,"(890.0, 262.0)",[0.6166666666666667],[0.803],0,267.309
1,False,2,0.829,49,[],[],"[(531, 483), (1146, 913)]",[],"[0, 1]",[99],[1.65],"[640.0, 512.0]",horizontal,"(890.0, 762.0)",[0.8666666666666667],[0.806],0,270.607
1,False,3,1.339,80,[],[],"[(1191, 902)]",[],[1],[130],[2.1666666666666665],"[640.0, 512.0]",vertical,"(390.0, 762.0)",[1.0666666666666667],[0.81],0,319.207
1,False,4,0.687,41,[],[],"[(1142, 908)]",[],[1],[76],[1.2666666666666666],"[640.0, 512.0]",horizontal,"(390.0, 262.0)",[1.2333333333333334],[0.556],1,346.63
1,False,5,0.556,33,[],[],"[(1174, 889)]",[],[1],[68],[1.1333333333333333],"[640.0, 512.0]",horizontal,"(890.0, 262.0)",[1.0333333333333332],[0.56],1,350.847
1,False,6,0.641,38,[],[],"[(1150, 905)]",[],[1],[88],[1.4666666666666666],"[640.0, 512.0]",vertical,"(890.0, 762.0)",[0.95],[0.805],0,354.525
1,False,7,0.347,20,[],[],"[(1147, 885)]",[],[1],[60],[1.0],"[640.0, 512.0]",vertical,"(390.0, 762.0)",[1.3833333333333333],[0.637],1,358.425
1,False,8,0.607,36,[],[],"[(1125, 896)]",[],[1],[69],[1.15],"[640.0, 512.0]",horizontal,"(890.0, 762.0)",[1.5166666666666666],[0.523],1,362.566
1,False,9,1.284,77,[],[],"[(1110, 890)]",[],[1],[118],[1.9666666666666666],"[640.0, 512.0]",horizontal,"(390.0, 262.0)",[0.6166666666666667],[0.652],1,366.685
1,False,10,1.458,87,[],[],"[(1108, 902)]",[],[1],[118],[1.9666666666666666],"[640.0, 512.0]",vertical,"(890.0, 762.0)",[1.0666666666666667],[0.495],1,370.813
1,False,11,0.643,38,[],[],"[(1179, 884)]",[],[1],[76],[1.2666666666666666],"[640.0, 512.0]",vertical,"(390.0, 762.0)",[1.2666666666666666],[0.603],1,375.345
1,False,12,1.22,73,[],[],"[(1117, 892)]",[],[1],[105],[1.75],"[640.0, 512.0]",vertical,"(890.0, 762.0)",[1.2666666666666666],[0.509],1,379.345
1,False,13,1.21,72,[],[],"[(1153, 894)]",[],[1],[122],[2.033333333333333],"[640.0, 512.0]",horizontal,"(390.0, 762.0)",[1.2166666666666666],[0.804],0,383.83
1,False,14,1.473,88,[],[400842],"[(1125, 875)]","[(1112, 897)]",[1],[61],[1.0166666666666666],"[640.0, 512.0]",horizontal,"(890.0, 762.0)",[],[0],0,388.513
1,False,15,1.135,68,[],[],"[(1178, 889)]",[],[1],[103],[1.7166666666666666],"[640.0, 512.0]",horizontal,"(890.0, 762.0)",[1.0],[0.557],1,395.989
1,False,16,0.457,27,[],[],"[(1158, 879)]",[],[1],[61],[1.0166666666666666],"[640.0, 512.0]",vertical,"(890.0, 762.0)",[1.25],[0.541],1,402.92
1,False,17,1.111,66,[],[],"[(1143, 881)]",[],[1],[100],[1.6666666666666667],"[640.0, 512.0]",horizontal,"(890.0, 762.0)",[0.5333333333333333],[0.54],1,406.692
1,False,18,0.687,41,[],[],"[(1157, 899)]",[],[1],[91],[1.5166666666666666],"[640.0, 512.0]",horizontal,"(890.0, 762.0)",[0.6166666666666667],[0.797],0,410.354
1,False,19,1.119,67,[],[],"[(1117, 896)]",[],[1],[99],[1.65],"[640.0, 512.0]",vertical,"(890.0, 262.0)",[1.6833333333333333],[0.511],1,413.951
1,False,20,0.902,54,[],[],"[(1123, 896)]",[],[1],[104],[1.7333333333333334],"[640.0, 512.0]",horizontal,"(390.0, 762.0)",[1.5],[0.802],0,419.147
1,False,21,0.317,19,[],[],"[(1142, 868)]",[],[1],[51],[0.85],"[640.0, 512.0]",horizontal,"(890.0, 262.0)",[0.85],[0.511],1,423.887
1,False,22,1.352,81,[],[],"[(1143, 880)]",[],[1],[113],[1.8833333333333333],"[640.0, 512.0]",horizontal,"(890.0, 762.0)",[1.35],[0.513],1,427.203
1,False,23,1.37,82,[],[],"[(1166, 875)]",[],[1],[121],[2.0166666666666666],"[640.0, 512.0]",horizontal,"(890.0, 262.0)",[1.0666666666666667],[0.629],1,431.887
1,False,24,1.086,65,[],[],"[(1142, 889)]",[],[1],[99],[1.65],"[640.0, 512.0]",vertical,"(890.0, 762.0)",[0.9333333333333333],[0.539],1,436.42
1,False,25,1.196,71,[],[],"[(1162, 903)]",[],[1],[103],[1.7166666666666666],"[640.0, 512.0]",horizontal,"(890.0, 262.0)",[1.4],[0.513],1,440.495
1,False,26,1.14,68,[],[],"[(1120, 882)]",[],[1],[102],[1.7],"[640.0, 512.0]",horizontal,"(390.0, 262.0)",[1.3333333333333333],[0.543],1,445.08
1,False,27,0.449,26,[],[],"[(1138, 890)]",[],[1],[64],[1.0666666666666667],"[640.0, 512.0]",horizontal,"(390.0, 762.0)",[1.5166666666666666],[0.609],1,449.633
1,False,28,0.327,19,[],[],"[(1103, 894)]",[],[1],[60],[1.0],"[640.0, 512.0]",horizontal,"(890.0, 262.0)",[1.5166666666666666],[0.661],1,453.709
1,False,29,0.312,18,[],[],"[(1128, 887)]",[],[1],[49],[0.8166666666666667],"[640.0, 512.0]",vertical,"(890.0, 262.0)",[1.3666666666666667],[0.49],1,457.748
1,False,30,0.588,35,[],[],"[(1115, 893)]",[],[1],[85],[1.4166666666666667],"[640.0, 512.0]",vertical,"(890.0, 762.0)",[1.25],[0.807],0,461.407
1,False,31,0.312,18,[],[],"[(1170, 894)]",[],[1],[68],[1.1333333333333333],"[640.0, 512.0]",horizontal,"(390.0, 262.0)",[0.5333333333333333],[0.802],0,465.576
1,False,32,0.954,57,[],[],"[(1172, 897)]",[],[1],[90],[1.5],"[640.0, 512.0]",horizontal,"(890.0, 762.0)",[0.8333333333333334],[0.526],1,474.485
1,False,33,0.759,45,[],[],"[(1153, 886)]",[],[1],[90],[1.5],"[640.0, 512.0]",horizontal,"(390.0, 262.0)",[1.1166666666666667],[0.721],1,478.594
1,False,34,0.302,18,[],[],"[(1173, 902)]",[],[1],[51],[0.85],"[640.0, 512.0]",vertical,"(390.0, 762.0)",[1.6333333333333333],[0.531],1,482.693
1,False,35,0.9,54,[],[],"[(1154, 881)]",[],[1],[94],[1.5666666666666667],"[640.0, 512.0]",horizontal,"(390.0, 762.0)",[0.5333333333333333],[0.638],1,486.65
1,False,36,0.779,46,[],[],"[(1148, 896)]",[],[1],[78],[1.3],"[640.0, 512.0]",horizontal,"(890.0, 262.0)",[0.8333333333333334],[0.507],1,490.242
1,False,37,0.405,24,[],[],"[(1145, 902)]",[],[1],[64],[1.0666666666666667],"[640.0, 512.0]",vertical,"(890.0, 262.0)",[0.7],[0.652],1,493.859
1,False,38,1.1,66,[],[],"[(1114, 896)]",[],[1],[102],[1.7],"[640.0, 512.0]",horizontal,"(390.0, 262.0)",[1.3333333333333333],[0.579],1,497.12
1,False,39,0.786,47,[],[],"[(1148, 884)]",[],[1],[84],[1.4],"[640.0, 512.0]",vertical,"(890.0, 762.0)",[1.1],[0.59],1,501.631
1,False,40,1.312,78,[],[],"[(1129, 892)]",[],[1],[116],[1.9333333333333333],"[640.0, 512.0]",horizontal,"(890.0, 262.0)",[1.0166666666666666],[0.609],1,505.636
1,False,41,0.894,53,[],[],"[(1117, 892)]",[],[1],[88],[1.4666666666666666],"[640.0, 512.0]",horizontal,"(390.0, 762.0)",[0.8833333333333333],[0.562],1,510.096
1,False,42,1.317,79,[],[],"[(1113, 885)]",[],[1],[111],[1.8499999999999999],"[640.0, 512.0]",vertical,"(890.0, 762.0)",[0.5],[0.511],1,513.963
1,False,43,0.399,23,[],[],"[(1150, 877)]",[],[1],[53],[0.8833333333333333],"[640.0, 512.0]",horizontal,"(890.0, 262.0)",[1.35],[0.482],1,517.894
1,False,44,0.465,27,[],[],"[(1160, 886)]",[],[1],[59],[0.9833333333333333],"[640.0, 512.0]",vertical,"(390.0, 262.0)",[1.2833333333333332],[0.516],1,521.589
1,False,45,0.372,22,[],[],"[(1153, 884)]",[],[1],[54],[0.9],"[640.0, 512.0]",vertical,"(390.0, 762.0)",[1.0666666666666667],[0.511],1,525.343
1,False,46,0.453,27,[],[],"[(1149, 888)]",[],[1],[65],[1.0833333333333333],"[640.0, 512.0]",horizontal,"(390.0, 262.0)",[1.0333333333333332],[0.612],1,528.763
1,False,47,1.021,61,[],[],"[(1135, 909)]",[],[1],[95],[1.5833333333333333],"[640.0, 512.0]",vertical,"(890.0, 762.0)",[1.5],[0.538],1,532.375
1,False,48,0.483,28,[],[],"[(1133, 894)]",[],[1],[56],[0.9333333333333333],"[640.0, 512.0]",vertical,"(890.0, 262.0)",[1.6],[0.451],1,537.001
1,False,49,0.702,42,[],[],"[(1142, 886)]",[],[1],[79],[1.3166666666666667],"[640.0, 512.0]",horizontal,"(390.0, 262.0)",[0.8333333333333334],[0.589],1,540.995
1,False,50,0.685,41,[],[],"[(1108, 893)]",[],[1],[83],[1.3833333333333333],"[640.0, 512.0]",horizontal,"(390.0, 262.0)",[0.5666666666666667],[0.678],1,544.641
1,False,51,0.86,51,[],[],"[(1123, 894)]",[],[1],[84],[1.4],"[640.0, 512.0]",vertical,"(390.0, 762.0)",[1.1],[0.528],1,548.103
1,False,52,0.442,26,[],[],"[(1119, 882)]",[],[1],[68],[1.1333333333333333],"[640.0, 512.0]",horizontal,"(890.0, 262.0)",[0.5833333333333334],[0.676],1,552.082
1,False,53,0.979,58,[],[],"[(1094, 900)]",[],[1],[75],[1.25],"[640.0, 512.0]",vertical,"(390.0, 262.0)",[1.1666666666666667],[0.267],1,555.336
1,False,54,0.953,57,[],[],"[(1146, 881)]",[],[1],[90],[1.5],"[640.0, 512.0]",vertical,"(390.0, 762.0)",[0.8333333333333334],[0.523],1,559.304
1,False,55,1.414,84,[],[],"[(1138, 897)]",[],[1],[117],[1.95],"[640.0, 512.0]",vertical,"(390.0, 762.0)",[1.5333333333333332],[0.526],1,563.147
1,False,56,1.455,87,[],[],"[(1105, 900)]",[],[1],[101],[1.6833333333333333],"[640.0, 512.0]",vertical,"(890.0, 262.0)",[1.65],[0.215],1,568.093
1,False,57,0.58,34,[],[],"[(1137, 894)]",[],[1],[70],[1.1666666666666667],"[640.0, 512.0]",vertical,"(390.0, 262.0)",[0.55],[0.577],1,572.913
1,False,58,0.462,27,[],[],"[(1098, 905)]",[],[1],[60],[1.0],"[640.0, 512.0]",vertical,"(890.0, 762.0)",[1.5166666666666666],[0.527],1,576.17
1,False,59,1.182,70,[],[],"[(1130, 884)]",[],[1],[120],[2.0],"[640.0, 512.0]",vertical,"(390.0, 762.0)",[1.2666666666666666],[0.81],0,580.167
1,False,60,1.34,80,[],[],"[(1148, 880)]",[],[1],[121],[2.0166666666666666],"[640.0, 512.0]",vertical,"(890.0, 762.0)",[0.85],[0.66],1,584.941
2,False,61,0.692,41,[],[],"[(1118, 875)]",[],[1],[91],[1.5166666666666666],"[640.0, 512.0]",vertical,"(890.0, 262.0)",[1.55],[0.808],0,589.596
2,False,62,1.237,74,[],[],"[(1189, 883)]",[],[1],[108],[1.8],"[640.0, 512.0]",vertical,"(890.0, 262.0)",[0.7166666666666667],[0.541],1,594.214
2,False,63,0.615,36,[],[],"[(1106, 884)]",[],[1],[69],[1.15],"[640.0, 512.0]",vertical,"(890.0, 262.0)",[1.0333333333333332],[0.524],1,598.207
2,False,64,1.391,83,[],[],"[(1101, 908)]",[],[1],[114],[1.9],"[640.0, 512.0]",vertical,"(890.0, 762.0)",[1.55],[0.494],1,601.929
2,False,65,0.317,19,[],[],"[(1111, 891)]",[],[1],[55],[0.9166666666666666],"[640.0, 512.0]",vertical,"(390.0, 762.0)",[1.0833333333333333],[0.578],1,606.883
2,False,66,1.046,62,[],[],"[(1107, 898)]",[],[1],[97],[1.6166666666666667],"[640.0, 512.0]",horizontal,"(890.0, 262.0)",[1.5333333333333332],[0.558],1,610.391
2,False,67,0.555,33,[],[],"[(1126, 910)]",[],[1],[73],[1.2166666666666666],"[640.0, 512.0]",vertical,"(890.0, 762.0)",[0.5],[0.641],1,615.048
2,False,68,0.684,41,[],[],"[(1140, 893)]",[],[1],[71],[1.1833333333333333],"[640.0, 512.0]",horizontal,"(390.0, 262.0)",[1.0833333333333333],[0.476],1,618.974
2,False,69,1.369,82,[],[],"[(1140, 899)]",[],[1],[123],[2.05],"[640.0, 512.0]",horizontal,"(390.0, 762.0)",[0.9833333333333333],[0.658],1,622.799
2,False,70,0.554,33,[],[],"[(1123, 902)]",[],[1],[72],[1.2],"[640.0, 512.0]",vertical,"(390.0, 762.0)",[1.35],[0.631],1,627.326
2,False,71,0.416,24,[],[],"[(1092, 902)]",[],[1],[47],[0.7833333333333333],"[640.0, 512.0]",vertical,"(890.0, 262.0)",[1.6666666666666667],[0.359],1,631.417
2,False,72,0.335,20,[],[],"[(1125, 894)]",[],[1],[70],[1.1666666666666667],"[640.0, 512.0]",vertical,"(890.0, 762.0)",[0.85],[0.8],0,635.395
2,False,73,1.241,74,[],[],"[(1105, 885)]",[],[1],[105],[1.75],"[640.0, 512.0]",horizontal,"(390.0, 262.0)",[1.2666666666666666],[0.496],1,638.891
2,False,74,1.489,89,[],[],"[(1105, 894)]",[],[1],[117],[1.95],"[640.0, 512.0]",vertical,"(390.0, 262.0)",[0.9],[0.438],1,643.414
2,False,75,0.712,42,[],[],"[(1128, 896)]",[],[1],[92],[1.5333333333333332],"[640.0, 512.0]",horizontal,"(390.0, 762.0)",[0.6833333333333333],[0.81],0,647.797
2,False,76,0.896,53,[],[],"[(1166, 885)]",[],[1],[86],[1.4333333333333333],"[640.0, 512.0]",vertical,"(890.0, 762.0)",[0.9833333333333333],[0.524],1,651.66
2,False,77,1.323,79,[],[],"[(1181, 880)]",[],[1],[111],[1.8499999999999999],"[640.0, 512.0]",vertical,"(390.0, 762.0)",[1.1333333333333333],[0.508],1,655.578
2,False,78,0.924,55,[],[],"[(1142, 894)]",[],[1],[87],[1.45],"[640.0, 512.0]",horizontal,"(390.0, 262.0)",[0.7833333333333333],[0.511],1,660.025
2,False,79,1.431,85,[],[],"[(1122, 899)]",[],[1],[115],[1.9166666666666667],"[640.0, 512.0]",horizontal,"(890.0, 262.0)",[1.05],[0.48],1,663.754
2,False,80,0.879,52,[],[],"[(1129, 899)]",[],[1],[85],[1.4166666666666667],"[640.0, 512.0]",horizontal,"(890.0, 762.0)",[1.05],[0.528],1,668.224
2,False,81,1.19,71,[],[],"[(1100, 907)]",[],[1],[85],[1.4166666666666667],"[640.0, 512.0]",horizontal,"(890.0, 262.0)",[1.6833333333333333],[0.215],1,672.182
2,False,82,1.45,87,[],[],"[(1160, 865)]",[],[1],[119],[1.9833333333333334],"[640.0, 512.0]",vertical,"(390.0, 762.0)",[1.35],[0.514],1,676.792
2,False,83,0.85,51,[],[],"[(1133, 885)]",[],[1],[85],[1.4166666666666667],"[640.0, 512.0]",horizontal,"(390.0, 762.0)",[1.4833333333333334],[0.542],1,681.59
2,False,84,0.957,57,[],[],"[(1146, 892)]",[],[1],"[107, 107]","[1.7833333333333332, 1.7833333333333332]","[640.0, 512.0]",vertical,"(390.0, 262.0)",[0.5],"[0.808, 0.808]",0,685.963
2,False,85,1.296,77,[],[],"[(1148, 885)]",[],[1],[107],[1.7833333333333332],"[640.0, 512.0]",horizontal,"(890.0, 262.0)",[1.3166666666666667],[0.474],1,689.77
2,False,86,0.4,24,[],[],"[(1143, 898)]",[],[1],[59],[0.9833333333333333],"[640.0, 512.0]",horizontal,"(890.0, 762.0)",[1.05],[0.56],1,695.539
2,False,87,1.37,82,[],[],"[(1083, 903)]",[],[1],[112],[1.8666666666666667],"[640.0, 512.0]",horizontal,"(890.0, 262.0)",[1.1333333333333333],[0.477],1,699.065
2,False,88,0.637,38,[],[],"[(1144, 889)]",[],[1],[75],[1.25],"[640.0, 512.0]",horizontal,"(890.0, 762.0)",[0.7],[0.591],1,703.865
2,False,89,0.982,58,[],[],"[(1131, 892)]",[],[1],[91],[1.5166666666666666],"[640.0, 512.0]",horizontal,"(390.0, 762.0)",[0.9666666666666667],[0.527],1,707.279
2,False,90,0.796,47,[],[],"[(1138, 885)]",[],[1],[82],[1.3666666666666667],"[640.0, 512.0]",horizontal,"(390.0, 262.0)",[0.9333333333333333],[0.561],1,711.237
2,False,91,0.86,51,[],[],"[(1116, 892)]",[],[1],[83],[1.3833333333333333],"[640.0, 512.0]",horizontal,"(390.0, 762.0)",[1.0],[0.507],1,715.008
2,False,92,0.323,19,[],[],"[(1115, 880)]",[],[1],[49],[0.8166666666666667],"[640.0, 512.0]",horizontal,"(390.0, 262.0)",[1.5833333333333333],[0.476],1,718.857
2,False,93,0.602,36,[],[],"[(1128, 901)]",[],[1],[69],[1.15],"[640.0, 512.0]",vertical,"(390.0, 762.0)",[1.6166666666666667],[0.524],1,722.744
2,False,94,0.657,39,[],[],"[(1113, 886)]",[],[1],[71],[1.1833333333333333],"[640.0, 512.0]",vertical,"(890.0, 762.0)",[0.7],[0.508],1,726.979
2,False,95,0.52,31,[],[],"[(1100, 899)]",[],[1],[63],[1.05],"[640.0, 512.0]",vertical,"(890.0, 262.0)",[1.2],[0.514],1,730.383
2,False,96,0.479,28,[],[],"[(1099, 885)]",[],[1],[60],[1.0],"[640.0, 512.0]",vertical,"(890.0, 262.0)",[1.45],[0.506],1,734.164
2,False,97,1.246,74,[],[],"[(1128, 879)]",[],[1],[101],[1.6833333333333333],"[640.0, 512.0]",vertical,"(390.0, 262.0)",[0.6],[0.425],1,738.092
2,False,98,0.423,25,[],[],"[(1093, 894)]",[],[1],[58],[0.9666666666666667],"[640.0, 512.0]",horizontal,"(390.0, 762.0)",[1.4166666666666667],[0.522],1,741.879
2,False,99,1.221,73,[],[],"[(1118, 891)]",[],[1],[80],[1.3333333333333333],"[640.0, 512.0]",vertical,"(390.0, 262.0)",[1.3666666666666667],[0.103],1,747.13
2,False,100,0.376,22,[],[],"[(1120, 899)]",[],[1],[72],[1.2],"[640.0, 512.0]",vertical,"(890.0, 262.0)",[1.1666666666666667],[0.801],0,751.338
2,False,101,1.123,67,[],[],"[(1130, 889)]",[],[1],[109],[1.8166666666666667],"[640.0, 512.0]",vertical,"(890.0, 762.0)",[0.9666666666666667],[0.679],1,755.181
2,False,102,0.928,55,[],[],"[(1131, 894)]",[],[1],[87],[1.45],"[640.0, 512.0]",vertical,"(390.0, 262.0)",[1.1333333333333333],[0.509],1,759.579
2,False,103,1.236,74,[],[],"[(1138, 880)]",[],[1],[107],[1.7833333333333332],"[640.0, 512.0]",horizontal,"(390.0, 262.0)",[0.6833333333333333],[0.527],1,763.66
2,False,104,0.813,48,[],[],"[(1093, 900)]",[],[1],[83],[1.3833333333333333],"[640.0, 512.0]",horizontal,"(390.0, 762.0)",[1.1333333333333333],[0.552],1,767.581
2,False,105,0.622,37,[],[],"[(1102, 888)]",[],[1],[87],[1.45],"[640.0, 512.0]",vertical,"(390.0, 262.0)",[0.5833333333333334],[0.804],0,771.596
2,False,106,0.722,43,[],[],"[(1105, 893)]",[],[1],[83],[1.3833333333333333],"[640.0, 512.0]",horizontal,"(390.0, 262.0)",[0.5333333333333333],[0.639],1,775.125
2,False,107,1.047,62,[],[],"[(1145, 885)]",[],[1],[78],[1.3],"[640.0, 512.0]",horizontal,"(390.0, 762.0)",[1.55],[0.245],1,778.847
2,False,108,0.871,52,[],[],"[(1121, 890)]",[],[1],[83],[1.3833333333333333],"[640.0, 512.0]",vertical,"(890.0, 262.0)",[1.3166666666666667],[0.497],1,783.198
2,False,109,1.137,68,[],[],"[(1112, 890)]",[],[1],[102],[1.7],"[640.0, 512.0]",horizontal,"(390.0, 762.0)",[0.9333333333333333],[0.548],1,787.393
2,False,110,0.635,38,[],[],"[(1127, 881)]",[],[1],[70],[1.1666666666666667],"[640.0, 512.0]",vertical,"(890.0, 762.0)",[1.1666666666666667],[0.515],1,791.622
2,False,111,0.481,28,[],[],"[(1101, 881)]",[],[1],[63],[1.05],"[640.0, 512.0]",horizontal,"(890.0, 762.0)",[0.9166666666666666],[0.561],1,795.509
2,False,112,1.001,60,[],[],"[(1143, 888)]",[],[1],[93],[1.55],"[640.0, 512.0]",horizontal,"(390.0, 762.0)",[1.3833333333333333],[0.535],1,799.147
2,False,113,0.634,38,[],[],"[(1106, 894)]",[],[1],[68],[1.1333333333333333],"[640.0, 512.0]",vertical,"(890.0, 262.0)",[1.0833333333333333],[0.485],1,803.565
2,False,114,1.224,73,[],[],"[(1111, 880)]",[],[1],[],[],"[640.0, 512.0]",horizontal,"(890.0, 762.0)",[],[0],0,807.305
2,False,115,0.577,34,[],[],"[(1099, 875)]",[],[1],[66],[1.1],"[640.0, 512.0]",vertical,"(390.0, 262.0)",[1.4166666666666667],[0.505],1,810.623
2,False,116,0.551,33,[],[],"[(1111, 884)]",[],[1],[65],[1.0833333333333333],"[640.0, 512.0]",horizontal,"(390.0, 262.0)",[1.45],[0.517],1,814.957
2,False,117,1.045,62,[],[],"[(1099, 902)]",[],[1],[65],[1.0833333333333333],"[640.0, 512.0]",horizontal,"(890.0, 262.0)",[1.5166666666666666],[0.036],1,819.029
2,False,118,0.698,41,[],[],"[(1130, 903)]",[],[1],[82],[1.3666666666666667],"[640.0, 512.0]",horizontal,"(890.0, 762.0)",[0.9333333333333333],[0.658],1,823.142
2,False,119,1.332,79,[],[],"[(1137, 899)]",[],[1],[112],[1.8666666666666667],"[640.0, 512.0]",vertical,"(390.0, 762.0)",[1.1166666666666667],[0.525],1,826.982
2,False,120,1.319,79,[],[],"[(1112, 883)]",[],[1],[119],[1.9833333333333334],"[640.0, 512.0]",horizontal,"(390.0, 262.0)",[1.4166666666666667],[0.64],1,831.412
3,False,121,1.434,86,[],[],"[(1142, 870)]",[],[1],[119],[1.9833333333333334],"[640.0, 512.0]",vertical,"(890.0, 762.0)",[1.4166666666666667],[0.53],1,836.291
3,False,122,1.284,77,[],[],"[(1129, 884)]",[],[1],[117],[1.95],"[640.0, 512.0]",vertical,"(390.0, 762.0)",[0.7333333333333333],[0.651],1,842.618
3,False,123,1.043,62,[],[],"[(1129, 885)]",[],[1],[93],[1.55],"[640.0, 512.0]",vertical,"(890.0, 762.0)",[1.05],[0.497],1,846.881
3,False,124,0.67,40,[],[],"[(1112, 906)]",[],[1],[73],[1.2166666666666666],"[640.0, 512.0]",horizontal,"(390.0, 762.0)",[0.8],[0.525],1,850.974
3,False,125,1.31,78,[],[],"[(1140, 885)]",[],[1],[111],[1.8499999999999999],"[640.0, 512.0]",horizontal,"(890.0, 762.0)",[1.5166666666666666],[0.532],1,854.483
3,False,126,0.499,29,[],[],"[(1114, 885)]",[],[1],[60],[1.0],"[640.0, 512.0]",horizontal,"(890.0, 262.0)",[1.3],[0.492],1,859.342
3,False,127,0.368,22,[],[],"[(1148, 872)]",[],[1],[72],[1.2],"[640.0, 512.0]",vertical,"(390.0, 762.0)",[1.0833333333333333],[0.802],0,863.129
3,False,128,0.576,34,[],[],"[(1142, 880)]",[],[1],[63],[1.05],"[640.0, 512.0]",vertical,"(390.0, 762.0)",[1.1833333333333333],[0.468],1,866.943
3,False,129,0.398,23,[],[],"[(1146, 880)]",[],[1],[35],[0.5833333333333334],"[640.0, 512.0]",horizontal,"(390.0, 762.0)",[1.0333333333333332],[0.181],1,870.725
3,False,130,0.898,53,[],[],"[(1099, 884)]",[],[1],[82],[1.3666666666666667],"[640.0, 512.0]",horizontal,"(390.0, 262.0)",[1.4333333333333333],[0.459],1,873.929
3,False,131,0.987,59,[],[],"[(1123, 881)]",[],[1],[87],[1.45],"[640.0, 512.0]",horizontal,"(390.0, 262.0)",[0.5166666666666666],[0.447],1,878.303
3,False,132,0.378,22,[],[],"[(1143, 885)]",[],[1],[59],[0.9833333333333333],"[640.0, 512.0]",vertical,"(890.0, 262.0)",[1.5333333333333332],[0.587],1,881.751
3,False,133,1.463,87,[],[],"[(1149, 886)]",[],[1],[],[],"[640.0, 512.0]",vertical,"(390.0, 262.0)",[],[0],0,885.728
3,False,134,0.687,41,[],[],"[(1099, 899)]",[],[1],[73],[1.2166666666666666],"[640.0, 512.0]",vertical,"(890.0, 762.0)",[1.0],[0.515],1,889.247
3,False,135,0.549,32,[],[],"[(1123, 893)]",[],[1],[64],[1.0666666666666667],"[640.0, 512.0]",horizontal,"(390.0, 262.0)",[0.5833333333333334],[0.517],1,893.381
3,False,136,0.961,57,[],[],"[(1117, 890)]",[],[1],[67],[1.1166666666666667],"[640.0, 512.0]",vertical,"(890.0, 762.0)",[1.55],[0.147],1,896.53
3,False,137,0.563,33,[],[],"[(1117, 899)]",[],[1],[65],[1.0833333333333333],"[640.0, 512.0]",horizontal,"(890.0, 262.0)",[1.55],[0.511],1,900.731
3,False,138,0.323,19,[],[],"[(1154, 881)]",[],[1],[49],[0.8166666666666667],"[640.0, 512.0]",vertical,"(390.0, 262.0)",[1.5666666666666667],[0.478],1,904.993
3,False,139,0.923,55,[],[],"[(1142, 889)]",[],[1],[85],[1.4166666666666667],"[640.0, 512.0]",vertical,"(890.0, 762.0)",[1.5166666666666666],[0.478],1,908.865
3,False,140,0.446,26,[],[],"[(1148, 892)]",[],[1],[59],[0.9833333333333333],"[640.0, 512.0]",horizontal,"(390.0, 262.0)",[0.7],[0.526],1,913.269
3,False,141,0.949,56,[],[],"[(1123, 875)]",[],[1],[69],[1.15],"[640.0, 512.0]",vertical,"(390.0, 262.0)",[1.2833333333333332],[0.202],1,916.423
3,False,142,1.094,65,[],[],"[(1112, 888)]",[],[1],[97],[1.6166666666666667],"[640.0, 512.0]",vertical,"(390.0, 762.0)",[0.7],[0.512],1,920.376
3,False,143,1.35,81,[],[],"[(1099, 896)]",[],[1],[111],[1.8499999999999999],"[640.0, 512.0]",vertical,"(890.0, 762.0)",[0.9166666666666666],[0.483],1,924.183
3,False,144,0.407,24,[],[],"[(1142, 886)]",[],[1],[58],[0.9666666666666667],"[640.0, 512.0]",vertical,"(390.0, 762.0)",[1.2333333333333334],[0.545],1,928.598
3,False,145,1.469,88,[],[],"[(1093, 899)]",[],[1],[118],[1.9666666666666666],"[640.0, 512.0]",horizontal,"(890.0, 262.0)",[1.0666666666666667],[0.48],1,932.295
3,False,146,0.685,41,[],[],"[(1122, 884)]",[],[1],[84],[1.4],"[640.0, 512.0]",horizontal,"(890.0, 262.0)",[1.2166666666666666],[0.685],1,937.032
3,False,147,0.496,29,[],[],"[(1150, 875)]",[],[1],[66],[1.1],"[640.0, 512.0]",horizontal,"(390.0, 762.0)",[0.6333333333333333],[0.592],1,941.125
3,False,148,1.384,83,[],[],"[(1130, 889)]",[],[1],[114],[1.9],"[640.0, 512.0]",vertical,"(390.0, 762.0)",[0.8],[0.494],1,944.363
3,False,149,1.277,76,[],[],"[(1123, 885)]",[],[1],[104],[1.7333333333333334],"[640.0, 512.0]",horizontal,"(390.0, 762.0)",[1.3333333333333333],[0.451],1,948.554
3,False,150,1.074,64,[],[],"[(1099, 894)]",[],[1],[],[],"[640.0, 512.0]",horizontal,"(390.0, 762.0)",[],[0],0,953.142
3,False,151,0.413,24,[],[],"[(1113, 902)]",[],[1],[57],[0.95],"[640.0, 512.0]",vertical,"(390.0, 762.0)",[1.5],[0.526],1,956.298
3,False,152,1.46,87,[],[],"[(1100, 899)]",[],[1],[117],[1.95],"[640.0, 512.0]",horizontal,"(390.0, 262.0)",[1.5333333333333332],[0.474],1,961.069
3,False,153,1.098,65,[],[],"[(1093, 891)]",[],[1],[96],[1.6],"[640.0, 512.0]",horizontal,"(390.0, 262.0)",[0.85],[0.489],1,966.021
3,False,154,0.551,33,[],[],"[(1142, 890)]",[],[1],[66],[1.1],"[640.0, 512.0]",vertical,"(390.0, 262.0)",[0.7833333333333333],[0.528],1,970.044
3,False,155,0.342,20,[],[],"[(1099, 897)]",[],[1],[53],[0.8833333333333333],"[640.0, 512.0]",horizontal,"(890.0, 762.0)",[1.1666666666666667],[0.524],1,973.414
3,False,156,0.747,44,[],[],"[(1138, 880)]",[],[1],[76],[1.2666666666666666],"[640.0, 512.0]",vertical,"(890.0, 762.0)",[0.7666666666666666],[0.518],1,976.965
3,False,157,0.7,42,[],[],"[(1097, 900)]",[],[1],[82],[1.3666666666666667],"[640.0, 512.0]",vertical,"(390.0, 762.0)",[0.95],[0.647],1,980.483
3,False,158,0.547,32,[],[],"[(1131, 893)]",[],[1],[67],[1.1166666666666667],"[640.0, 512.0]",vertical,"(890.0, 262.0)",[0.8833333333333333],[0.562],1,984.58
3,False,159,1.424,85,[],[],"[(1118, 881)]",[],[1],[115],[1.9166666666666667],"[640.0, 512.0]",horizontal,"(890.0, 762.0)",[0.7833333333333333],[0.478],1,988.045
3,False,160,1.448,86,[],[],"[(1121, 891)]",[],[1],[90],[1.5],"[640.0, 512.0]",horizontal,"(890.0, 762.0)",[0.55],[0.05],1,992.218
3,False,161,0.935,56,[],[],"[(1126, 871)]",[],[1],[84],[1.4],"[640.0, 512.0]",vertical,"(890.0, 262.0)",[1.5666666666666667],[0.455],1,995.779
3,False,162,1.386,83,[],[],"[(1153, 885)]",[],[1],[114],[1.9],"[640.0, 512.0]",horizontal,"(890.0, 762.0)",[0.8666666666666667],[0.495],1,1000.292
3,False,163,0.715,42,[],[],"[(1143, 889)]",[],[1],[76],[1.2666666666666666],"[640.0, 512.0]",vertical,"(390.0, 762.0)",[0.9333333333333333],[0.546],1,1004.532
3,False,164,0.846,50,[],[],"[(1112, 886)]",[],[1],[83],[1.3833333333333333],"[640.0, 512.0]",horizontal,"(390.0, 262.0)",[1.6166666666666667],[0.526],1,1008.215
3,False,165,0.833,49,[],[],"[(1123, 876)]",[],[1],[86],[1.4333333333333333],"[640.0, 512.0]",vertical,"(390.0, 762.0)",[1.4833333333333334],[0.587],1,1012.71
3,False,166,1.036,62,[],[],"[(1112, 894)]",[],[1],[96],[1.6],"[640.0, 512.0]",horizontal,"(390.0, 262.0)",[1.4166666666666667],[0.536],1,1017.112
3,False,167,0.505,30,[],[],"[(1123, 889)]",[],[1],[62],[1.0333333333333332],"[640.0, 512.0]",horizontal,"(390.0, 762.0)",[1.1166666666666667],[0.511],1,1021.612
3,False,168,1.371,82,[],[],"[(1116, 886)]",[],[1],[125],[2.0833333333333335],"[640.0, 512.0]",vertical,"(390.0, 762.0)",[1.15],[0.686],1,1025.256
3,False,169,0.341,20,[],[],"[(1121, 883)]",[],[1],[52],[0.8666666666666667],"[640.0, 512.0]",horizontal,"(890.0, 262.0)",[0.65],[0.515],1,1029.906
3,False,170,0.406,24,[],[],"[(1098, 897)]",[],[1],[55],[0.9166666666666666],"[640.0, 512.0]",vertical,"(890.0, 262.0)",[1.2666666666666666],[0.495],1,1032.945
3,False,171,0.91,54,[],[],"[(1119, 893)]",[],[1],[87],[1.45],"[640.0, 512.0]",vertical,"(890.0, 762.0)",[0.7666666666666666],[0.525],1,1036.678
3,False,172,0.409,24,[],[],"[(1148, 857)]",[],[1],[57],[0.95],"[640.0, 512.0]",vertical,"(890.0, 762.0)",[1.0166666666666666],[0.521],1,1040.411
3,False,173,1.308,78,[],[],"[(1114, 896)]",[],[1],[99],[1.65],"[640.0, 512.0]",vertical,"(890.0, 262.0)",[1.1],[0.328],1,1043.876
3,False,174,0.468,28,[],[],"[(1099, 879)]",[],[1],[60],[1.0],"[640.0, 512.0]",horizontal,"(390.0, 262.0)",[0.9833333333333333],[0.517],1,1048.13
3,False,175,1.128,67,[],[],"[(1116, 877)]",[],[1],[94],[1.5666666666666667],"[640.0, 512.0]",vertical,"(890.0, 762.0)",[1.5833333333333333],[0.428],1,1052.165
3,False,176,0.592,35,[],[],"[(1118, 888)]",[],[1],[67],[1.1166666666666667],"[640.0, 512.0]",vertical,"(390.0, 262.0)",[0.5666666666666667],[0.513],1,1056.768
3,False,177,0.581,34,[],[],"[(1100, 890)]",[],[1],[64],[1.0666666666666667],"[640.0, 512.0]",horizontal,"(890.0, 262.0)",[0.9166666666666666],[0.478],1,1059.994
3,False,178,1.094,65,[],[],"[(1158, 868)]",[],[1],[98],[1.6333333333333333],"[640.0, 512.0]",horizontal,"(390.0, 262.0)",[1.5333333333333332],[0.527],1,1063.499
3,False,179,0.823,49,[],[],"[(1145, 892)]",[],[1],[90],[1.5],"[640.0, 512.0]",horizontal,"(390.0, 262.0)",[0.5666666666666667],[0.653],1,1068.118
3,False,180,0.306,18,[],[],"[(1128, 886)]",[],[1],[51],[0.85],"[640.0, 512.0]",horizontal,"(890.0, 762.0)",[0.8],[0.52],1,1071.704
4,False,181,1.032,61,[],[],"[(1122, 889)]",[],[1],[91],[1.5166666666666666],"[640.0, 512.0]",horizontal,"(890.0, 262.0)",[1.45],[0.478],1,1074.858
4,False,182,0.981,58,[],[],"[(1142, 878)]",[],[1],[91],[1.5166666666666666],"[640.0, 512.0]",vertical,"(390.0, 262.0)",[0.9],[0.524],1,1079.31
4,False,183,1.303,78,[],[],"[(1126, 887)]",[],[1],[107],[1.7833333333333332],"[640.0, 512.0]",horizontal,"(890.0, 262.0)",[1.65],[0.463],1,1083.251
4,False,184,0.842,50,[],[],"[(1117, 898)]",[],[1],[82],[1.3666666666666667],"[640.0, 512.0]",vertical,"(890.0, 762.0)",[0.8],[0.511],1,1088.151
4,False,185,0.665,39,[],[],"[(1146, 872)]",[],[1],[71],[1.1833333333333333],"[640.0, 512.0]",horizontal,"(390.0, 762.0)",[0.8],[0.507],1,1091.989
4,False,186,1.15,69,[],[],"[(1117, 894)]",[],[1],[97],[1.6166666666666667],"[640.0, 512.0]",vertical,"(890.0, 762.0)",[1.6833333333333333],[0.439],1,1095.489
4,False,187,0.761,45,[],[],"[(1117, 908)]",[],[1],[74],[1.2333333333333334],"[640.0, 512.0]",horizontal,"(890.0, 262.0)",[1.0166666666666666],[0.462],1,1100.312
4,False,188,1.497,89,[],[],"[(1117, 891)]",[],[1],[123],[2.05],"[640.0, 512.0]",horizontal,"(890.0, 762.0)",[0.7833333333333333],[0.543],1,1104.305
4,False,189,1.39,83,[],[],"[(1148, 895)]",[],[1],[109],[1.8166666666666667],"[640.0, 512.0]",horizontal,"(390.0, 262.0)",[1.0833333333333333],[0.409],1,1108.638
4,False,190,0.379,22,[],[],"[(1097, 901)]",[],[1],[55],[0.9166666666666666],"[640.0, 512.0]",vertical,"(890.0, 262.0)",[0.7166666666666667],[0.53],1,1113.022
4,False,191,1.034,62,[],[],"[(1161, 875)]",[],[1],[92],[1.5333333333333332],"[640.0, 512.0]",horizontal,"(390.0, 262.0)",[0.6666666666666666],[0.485],1,1116.18
4,False,192,0.602,36,[],[],"[(1135, 885)]",[],[1],[68],[1.1333333333333333],"[640.0, 512.0]",horizontal,"(390.0, 262.0)",[1.0333333333333332],[0.507],1,1119.897
4,False,193,1.457,87,[],[],"[(1108, 868)]",[],[1],[119],[1.9833333333333334],"[640.0, 512.0]",horizontal,"(390.0, 262.0)",[0.6333333333333333],[0.506],1,1123.599
4,False,194,0.338,20,[],[],"[(1142, 882)]",[],[1],[53],[0.8833333333333333],"[640.0, 512.0]",vertical,"(390.0, 262.0)",[0.5333333333333333],[0.526],1,1127.742
4,False,195,1.374,82,[],[],"[(1101, 880)]",[],[1],[117],[1.95],"[640.0, 512.0]",vertical,"(890.0, 762.0)",[1.3333333333333333],[0.56],1,1130.678
4,False,196,0.822,49,[],[],"[(1136, 895)]",[],[1],[],[],"[640.0, 512.0]",vertical,"(890.0, 262.0)",[],[0],0,1135.471
4,False,197,0.704,42,[],[],"[(1136, 904)]",[],[1],[79],[1.3166666666666667],"[640.0, 512.0]",horizontal,"(390.0, 762.0)",[0.7333333333333333],[0.595],1,1138.946
4,False,198,1.09,65,[],[],"[(1105, 898)]",[],[1],[99],[1.65],"[640.0, 512.0]",horizontal,"(390.0, 762.0)",[1.0666666666666667],[0.545],1,1142.527
4,False,199,0.508,30,[],[],"[(1102, 903)]",[],[1],[61],[1.0166666666666666],"[640.0, 512.0]",horizontal,"(390.0, 262.0)",[1.5333333333333332],[0.498],1,1146.766
4,False,200,0.834,50,[],[],"[(1113, 893)]",[],[1],[85],[1.4166666666666667],"[640.0, 512.0]",vertical,"(390.0, 762.0)",[0.8833333333333333],[0.556],1,1150.96
4,False,201,0.503,30,[],[],"[(1110, 900)]",[],[1],[64],[1.0666666666666667],"[640.0, 512.0]",horizontal,"(390.0, 762.0)",[0.7833333333333333],[0.542],1,1154.79
4,False,202,1.103,66,[],[],"[(1092, 905)]",[],[1],[100],[1.6666666666666667],"[640.0, 512.0]",horizontal,"(390.0, 762.0)",[0.7166666666666667],[0.542],1,1158.182
4,False,203,0.824,49,[],[],"[(1066, 902)]",[],[1],[99],[1.65],"[640.0, 512.0]",horizontal,"(390.0, 262.0)",[0.5666666666666667],[0.805],0,1163.783
4,False,204,0.319,19,[],[],"[(1153, 872)]",[],[1],[48],[0.8],"[640.0, 512.0]",horizontal,"(390.0, 762.0)",[1.45],[0.464],1,1167.556
4,False,205,1.486,89,[],[],"[(1098, 903)]",[],[1],[118],[1.9666666666666666],"[640.0, 512.0]",vertical,"(890.0, 762.0)",[1.2666666666666666],[0.46],1,1171.308
4,False,206,0.357,21,[],[],"[(1130, 863)]",[],[1],[54],[0.9],"[640.0, 512.0]",vertical,"(890.0, 762.0)",[1.15],[0.536],1,1176.066
4,False,207,1.477,88,[],[],"[(1102, 896)]",[],[1],[118],[1.9666666666666666],"[640.0, 512.0]",horizontal,"(390.0, 762.0)",[0.85],[0.479],1,1179.63
4,False,208,0.673,40,[],[],"[(1102, 895)]",[],[1],[74],[1.2333333333333334],"[640.0, 512.0]",horizontal,"(890.0, 762.0)",[1.6333333333333333],[0.541],1,1184.033
4,False,209,1.21,72,[],[],"[(1153, 872)]",[],[1],[103],[1.7166666666666666],"[640.0, 512.0]",vertical,"(890.0, 762.0)",[1.0833333333333333],[0.491],1,1188.378
4,False,210,1.1,66,[],[],"[(1149, 872)]",[],[1],[103],[1.7166666666666666],"[640.0, 512.0]",horizontal,"(890.0, 262.0)",[1.5333333333333332],[0.593],1,1192.66
4,False,211,1.01,60,[],[],"[(1152, 868)]",[],[1],[93],[1.55],"[640.0, 512.0]",vertical,"(390.0, 762.0)",[0.8],[0.525],1,1197.431
4,False,212,0.562,33,[],[],"[(1142, 873)]",[],[1],[66],[1.1],"[640.0, 512.0]",vertical,"(890.0, 762.0)",[0.7333333333333333],[0.526],1,1201.26
4,False,213,0.512,30,[],[],"[(1137, 887)]",[],[1],[65],[1.0833333333333333],"[640.0, 512.0]",horizontal,"(890.0, 762.0)",[0.6166666666666667],[0.556],1,1204.579
4,False,214,0.937,56,[],[],"[(1129, 878)]",[],[1],[88],[1.4666666666666666],"[640.0, 512.0]",vertical,"(390.0, 762.0)",[1.5666666666666667],[0.51],1,1207.765
4,False,215,0.42,25,[],[],"[(1118, 895)]",[],[1],[60],[1.0],"[640.0, 512.0]",horizontal,"(390.0, 262.0)",[0.5],[0.556],1,1212.281
4,False,216,0.622,37,[],[],"[(1127, 864)]",[],[1],[69],[1.15],"[640.0, 512.0]",horizontal,"(390.0, 762.0)",[1.4666666666666666],[0.516],1,1215.294
4,False,217,1.093,65,[],[],"[(1142, 890)]",[],[1],[97],[1.6166666666666667],"[640.0, 512.0]",vertical,"(390.0, 762.0)",[1.2833333333333332],[0.509],1,1219.43
4,False,218,0.895,53,[],[],"[(1105, 885)]",[],[1],[84],[1.4],"[640.0, 512.0]",horizontal,"(390.0, 262.0)",[0.7333333333333333],[0.493],1,1223.86
4,False,219,0.417,25,[],[],"[(1120, 890)]",[],[1],[60],[1.0],"[640.0, 512.0]",vertical,"(390.0, 762.0)",[0.8166666666666667],[0.56],1,1227.546
4,False,220,0.531,31,[],[],"[(1104, 882)]",[],[1],[62],[1.0333333333333332],"[640.0, 512.0]",vertical,"(890.0, 762.0)",[1.4666666666666666],[0.495],1,1230.884
4,False,221,0.443,26,[],[],"[(1116, 888)]",[],[1],[65],[1.0833333333333333],"[640.0, 512.0]",horizontal,"(890.0, 262.0)",[1.45],[0.621],1,1234.921
4,False,222,0.897,53,[],[],"[(1142, 905)]",[],[1],[86],[1.4333333333333333],"[640.0, 512.0]",horizontal,"(890.0, 762.0)",[1.2333333333333334],[0.526],1,1238.979
4,False,223,1.443,86,[],[],"[(1122, 882)]",[],[1],[],[],"[640.0, 512.0]",vertical,"(390.0, 262.0)",[],[0],0,1248.816
4,False,224,1.425,85,[],[],"[(1155, 884)]",[],[1],[121],[2.0166666666666666],"[640.0, 512.0]",vertical,"(890.0, 762.0)",[0.6],[0.571],1,1252.613
4,False,225,0.642,38,[],[],"[(1121, 888)]",[],[1],[71],[1.1833333333333333],"[640.0, 512.0]",horizontal,"(390.0, 262.0)",[0.9],[0.524],1,1256.739
4,False,226,0.917,55,[],[],"[(1152, 892)]",[],[1],[71],[1.1833333333333333],"[640.0, 512.0]",vertical,"(890.0, 262.0)",[1.6],[0.25],1,1260.315
4,False,227,0.629,37,[],[],"[(1123, 894)]",[],[1],[45],[0.75],"[640.0, 512.0]",vertical,"(390.0, 262.0)",[1.3666666666666667],[0.115],1,1264.547
4,False,228,0.445,26,[],[],"[(1124, 880)]",[],[1],[61],[1.0166666666666666],"[640.0, 512.0]",vertical,"(890.0, 762.0)",[0.7833333333333333],[0.553],1,1268.183
4,False,229,0.98,58,[],[],"[(1120, 879)]",[],[1],[87],[1.45],"[640.0, 512.0]",vertical,"(890.0, 762.0)",[1.1833333333333333],[0.458],1,1271.511
4,False,230,0.371,22,[],[],"[(1126, 893)]",[],[1],[53],[0.8833333333333333],"[640.0, 512.0]",vertical,"(890.0, 262.0)",[1.3],[0.494],1,1275.678
4,False,231,0.858,51,[],[],"[(1143, 898)]",[],[1],[80],[1.3333333333333333],"[640.0, 512.0]",vertical,"(890.0, 762.0)",[1.1],[0.457],1,1279.399
4,False,232,0.746,44,[],[],"[(1100, 888)]",[],[1],[80],[1.3333333333333333],"[640.0, 512.0]",horizontal,"(890.0, 762.0)",[1.2833333333333332],[0.574],1,1283.328
4,False,233,0.565,33,[],[],"[(1133, 894)]",[],[1],[65],[1.0833333333333333],"[640.0, 512.0]",vertical,"(390.0, 262.0)",[1.0833333333333333],[0.512],1,1287.712
4,False,234,1.314,78,[],[],"[(1116, 868)]",[],[1],[111],[1.8499999999999999],"[640.0, 512.0]",horizontal,"(390.0, 762.0)",[1.5],[0.52],1,1291.39
4,False,235,1.447,86,[],[],"[(1136, 861)]",[],[1],[98],[1.6333333333333333],"[640.0, 512.0]",horizontal,"(890.0, 262.0)",[1.1333333333333333],[0.184],1,1296.198
4,False,236,0.6,36,[],[],"[(1153, 859)]",[],[1],[67],[1.1166666666666667],"[640.0, 512.0]",horizontal,"(390.0, 262.0)",[0.9166666666666666],[0.491],1,1300.54
4,False,237,0.94,56,[],[],"[(1130, 872)]",[],[1],[90],[1.5],"[640.0, 512.0]",vertical,"(890.0, 762.0)",[0.7],[0.548],1,1304.046
4,False,238,0.631,37,[],[],"[(1123, 902)]",[],[1],[69],[1.15],"[640.0, 512.0]",vertical,"(390.0, 762.0)",[0.9333333333333333],[0.513],1,1307.76
4,False,239,1.454,87,[],[],"[(1157, 889)]",[],[1],[114],[1.9],"[640.0, 512.0]",horizontal,"(390.0, 262.0)",[0.95],[0.423],1,1311.386
4,False,240,1.42,85,[],[],"[(1128, 885)]",[],[1],[115],[1.9166666666666667],"[640.0, 512.0]",vertical,"(890.0, 762.0)",[0.6833333333333333],[0.474],1,1315.701
5,False,241,1.208,72,[],[],"[(1123, 867)]",[],[1],[111],[1.8499999999999999],"[640.0, 512.0]",vertical,"(890.0, 262.0)",[1.05],[0.624],1,1319.813
5,False,242,0.76,45,[],[],"[(1100, 878)]",[],[1],[74],[1.2333333333333334],"[640.0, 512.0]",horizontal,"(390.0, 262.0)",[1.2666666666666666],[0.46],1,1324.241
5,False,243,1.268,76,[],[],"[(1095, 873)]",[],[1],[109],[1.8166666666666667],"[640.0, 512.0]",horizontal,"(390.0, 262.0)",[0.9],[0.525],1,1328.229
5,False,244,1.37,82,[],[],"[(1148, 876)]",[],[1],[110],[1.8333333333333333],"[640.0, 512.0]",horizontal,"(890.0, 262.0)",[0.7833333333333333],[0.444],1,1332.447
5,False,245,0.369,22,[],[],"[(1142, 884)]",[],[1],[53],[0.8833333333333333],"[640.0, 512.0]",vertical,"(890.0, 762.0)",[1.0166666666666666],[0.498],1,1336.607
5,False,246,0.352,21,[],[],"[(1136, 897)]",[],[1],[54],[0.9],"[640.0, 512.0]",horizontal,"(390.0, 262.0)",[1.5666666666666667],[0.533],1,1340.026
5,False,247,1.442,86,[],[],"[(1151, 890)]",[],[1],[136],[2.2666666666666666],"[640.0, 512.0]",horizontal,"(390.0, 262.0)",[1.5333333333333332],"[0, 0.804]",0,1343.981
5,False,248,0.317,19,[],[],"[(1146, 889)]",[],[1],[53],[0.8833333333333333],"[640.0, 512.0]",vertical,"(890.0, 262.0)",[0.95],[0.543],1,1349.277
5,False,249,0.648,38,[],[],"[(1100, 900)]",[],[1],[74],[1.2333333333333334],"[640.0, 512.0]",horizontal,"(390.0, 262.0)",[1.4166666666666667],[0.579],1,1352.763
5,False,250,1.382,82,[],[],"[(1123, 887)]",[],[1],[95],[1.5833333333333333],"[640.0, 512.0]",horizontal,"(890.0, 262.0)",[1.6333333333333333],[0.2],1,1356.922
5,False,251,0.859,51,[],[],"[(1149, 892)]",[],[1],[84],[1.4],"[640.0, 512.0]",vertical,"(390.0, 762.0)",[1.5666666666666667],[0.525],1,1361.666
5,False,252,1.155,69,[],[],"[(1105, 877)]",[],[1],[73],[1.2166666666666666],"[640.0, 512.0]",vertical,"(890.0, 262.0)",[1.6166666666666667],[0.05],1,1366.113
5,False,253,0.86,51,[],[],"[(1159, 879)]",[],[1],[83],[1.3833333333333333],"[640.0, 512.0]",vertical,"(890.0, 262.0)",[0.7333333333333333],[0.508],1,1370.46
5,False,254,0.754,45,[],[],"[(1130, 891)]",[],[1],[80],[1.3333333333333333],"[640.0, 512.0]",vertical,"(390.0, 762.0)",[1.4],[0.564],1,1374.064
5,False,255,1.058,63,[],[],"[(1129, 888)]",[],[1],[100],[1.6666666666666667],"[640.0, 512.0]",vertical,"(890.0, 762.0)",[0.8333333333333334],[0.586],1,1378.347
5,False,256,0.84,50,[],[],"[(1131, 905)]",[],[1],[82],[1.3666666666666667],"[640.0, 512.0]",horizontal,"(390.0, 262.0)",[1.1166666666666667],[0.507],1,1382.337
5,False,257,1.497,89,[],[],"[(1118, 892)]",[],[1],[],[],"[640.0, 512.0]",vertical,"(890.0, 262.0)",[],[0],0,1386.343
5,False,258,1.473,88,[],[],"[(1093, 891)]",[],[1],[],[],"[640.0, 512.0]",horizontal,"(390.0, 262.0)",[],[0],0,1390.513
5,False,259,0.752,45,[],[],"[(1142, 866)]",[],[1],[84],[1.4],"[640.0, 512.0]",horizontal,"(890.0, 762.0)",[0.5666666666666667],[0.619],1,1394.901
5,False,260,0.516,30,[],[],"[(1175, 855)]",[],[1],[78],[1.3],"[640.0, 512.0]",vertical,"(390.0, 262.0)",[0.55],[0.77],1,1398.47
5,False,261,0.952,57,[],[],"[(1142, 888)]",[],[1],[84],[1.4],"[640.0, 512.0]",vertical,"(890.0, 762.0)",[1.5166666666666666],[0.427],1,1401.853
5,False,262,0.942,56,[],[],"[(1130, 884)]",[],[1],[90],[1.5],"[640.0, 512.0]",horizontal,"(890.0, 762.0)",[0.7],[0.536],1,1406.28
5,False,263,0.832,49,[],[],"[(1154, 859)]",[],[1],[78],[1.3],"[640.0, 512.0]",vertical,"(890.0, 262.0)",[1.2],[0.462],1,1409.959
5,False,264,1.111,66,[],[],"[(1153, 884)]",[],[1],[],[],"[640.0, 512.0]",vertical,"(890.0, 262.0)",[],[0],0,1413.967
5,False,265,0.59,35,[],[],"[(1128, 872)]",[],[1],[67],[1.1166666666666667],"[640.0, 512.0]",vertical,"(390.0, 262.0)",[1.6333333333333333],[0.51],1,1417.924
5,False,266,1.001,60,[],[],"[(1130, 899)]",[],[1],[93],[1.55],"[640.0, 512.0]",vertical,"(890.0, 762.0)",[0.65],[0.522],1,1422.215
5,False,267,0.637,38,[],[],"[(1136, 900)]",[],[1],[73],[1.2166666666666666],"[640.0, 512.0]",horizontal,"(390.0, 762.0)",[1.5666666666666667],[0.556],1,1425.945
5,False,268,1.23,73,[],[],"[(1148, 888)]",[],[1],[105],[1.75],"[640.0, 512.0]",horizontal,"(890.0, 762.0)",[0.5333333333333333],[0.509],1,1430.258
5,False,269,0.714,42,[],[],"[(1142, 893)]",[],[1],[74],[1.2333333333333334],"[640.0, 512.0]",vertical,"(390.0, 262.0)",[0.7333333333333333],[0.508],1,1434.028
5,False,270,0.57,34,[],[],"[(1102, 887)]",[],[1],[74],[1.2333333333333334],"[640.0, 512.0]",horizontal,"(890.0, 262.0)",[1.1333333333333333],[0.636],1,1437.463
5,False,271,0.361,21,[],[],"[(1160, 898)]",[],[1],[54],[0.9],"[640.0, 512.0]",horizontal,"(890.0, 762.0)",[1.1666666666666667],[0.526],1,1441.381
5,False,272,1.257,75,[],[],"[(1156, 889)]",[],[1],[111],[1.8499999999999999],"[640.0, 512.0]",horizontal,"(390.0, 262.0)",[1.3833333333333333],[0.57],1,1444.992
5,False,273,1.422,85,[],[],"[(1128, 883)]",[],[1],[119],[1.9833333333333334],"[640.0, 512.0]",horizontal,"(890.0, 762.0)",[1.0666666666666667],[0.548],1,1449.712
5,False,274,0.546,32,[],[],"[(1141, 884)]",[],[1],[70],[1.1666666666666667],"[640.0, 512.0]",horizontal,"(890.0, 762.0)",[0.6],[0.609],1,1454.284
5,False,275,0.333,19,[],[],"[(1133, 894)]",[],[1],[62],[1.0333333333333332],"[640.0, 512.0]",vertical,"(390.0, 762.0)",[0.75],[0.688],1,1457.545
5,False,276,0.88,52,[],[],"[(1166, 887)]",[],[1],[90],[1.5],"[640.0, 512.0]",horizontal,"(890.0, 262.0)",[0.5666666666666667],[0.61],1,1461.962
5,False,277,1.107,66,[],[],"[(1135, 893)]",[],[1],[102],[1.7],"[640.0, 512.0]",vertical,"(890.0, 762.0)",[1.4],[0.579],1,1467.535
5,False,278,1.268,76,[],[],"[(1130, 888)]",[],[1],[110],[1.8333333333333333],"[640.0, 512.0]",horizontal,"(390.0, 262.0)",[1.3833333333333333],[0.544],1,1472.129
5,False,279,0.984,59,[],[],"[(1110, 880)]",[],[1],[83],[1.3833333333333333],"[640.0, 512.0]",vertical,"(890.0, 262.0)",[0.8666666666666667],[0.379],1,1476.915
5,False,280,0.408,24,[],[],"[(1136, 901)]",[],[1],[56],[0.9333333333333333],"[640.0, 512.0]",horizontal,"(890.0, 762.0)",[1.5],[0.509],1,1480.98
5,False,281,0.852,51,[],[],"[(1150, 868)]",[],[1],[88],[1.4666666666666666],"[640.0, 512.0]",vertical,"(390.0, 762.0)",[0.8833333333333333],[0.592],1,1484.901
5,False,282,0.732,43,[],[],"[(1099, 887)]",[],[1],[77],[1.2833333333333332],"[640.0, 512.0]",horizontal,"(390.0, 762.0)",[1.1166666666666667],[0.539],1,1488.781
5,False,283,0.76,45,[],[],"[(1123, 877)]",[],[1],[78],[1.3],"[640.0, 512.0]",horizontal,"(890.0, 262.0)",[1.2666666666666666],[0.524],1,1493.463
5,False,284,1.375,82,[],[],"[(1151, 883)]",[],[1],[114],[1.9],"[640.0, 512.0]",horizontal,"(390.0, 762.0)",[1.1],[0.507],1,1497.532
5,False,285,0.852,51,[],[],"[(1100, 860)]",[],[1],[82],[1.3666666666666667],"[640.0, 512.0]",horizontal,"(390.0, 262.0)",[0.8666666666666667],[0.489],1,1502.053
5,False,286,0.852,51,[],[],"[(1153, 884)]",[],[1],[77],[1.2833333333333332],"[640.0, 512.0]",vertical,"(890.0, 762.0)",[1.3666666666666667],[0.408],1,1506.863
5,False,287,1.167,70,[],[],"[(1116, 872)]",[],[1],[],[],"[640.0, 512.0]",vertical,"(890.0, 262.0)",[],[0],0,1510.962
5,False,288,1.166,69,[],[],"[(1116, 889)]",[],[1],[101],[1.6833333333333333],"[640.0, 512.0]",horizontal,"(890.0, 262.0)",[1.45],[0.509],1,1515.212
5,False,289,0.321,19,[],[],"[(1155, 898)]",[],[1],[54],[0.9],"[640.0, 512.0]",horizontal,"(390.0, 762.0)",[0.5833333333333334],[0.559],1,1519.917
5,False,290,1.114,66,[],[],"[(1130, 894)]",[],[1],[98],[1.6333333333333333],"[640.0, 512.0]",horizontal,"(890.0, 762.0)",[0.6333333333333333],[0.505],1,1522.951
5,False,291,1.374,82,[],[],"[(1133, 893)]",[],[1],[],[],"[640.0, 512.0]",vertical,"(890.0, 262.0)",[],[0],0,1526.709
5,False,292,0.409,24,[],[],"[(1099, 879)]",[],[1],[57],[0.95],"[640.0, 512.0]",vertical,"(390.0, 262.0)",[0.7333333333333333],[0.526],1,1531.123
5,False,293,1.222,73,[],[],"[(1136, 890)]",[],[1],[108],[1.8],"[640.0, 512.0]",horizontal,"(390.0, 762.0)",[0.5833333333333334],[0.555],1,1534.482
5,False,294,1.112,66,[],[],"[(1098, 899)]",[],[1],[101],[1.6833333333333333],"[640.0, 512.0]",vertical,"(390.0, 262.0)",[1.0333333333333332],[0.558],1,1538.662
5,False,295,1.219,73,[],[],"[(1108, 890)]",[],[1],[105],[1.75],"[640.0, 512.0]",vertical,"(390.0, 762.0)",[1.1333333333333333],[0.51],1,1542.896
5,False,296,0.766,45,[],[],"[(1148, 887)]",[],[1],[78],[1.3],"[640.0, 512.0]",vertical,"(890.0, 762.0)",[1.25],[0.523],1,1547.298
5,False,297,0.92,55,[],[],"[(1144, 888)]",[],[1],[93],[1.55],"[640.0, 512.0]",horizontal,"(390.0, 762.0)",[1.2],[0.61],1,1551.378
5,False,298,0.833,49,[],[],"[(1128, 896)]",[],[1],[81],[1.35],"[640.0, 512.0]",horizontal,"(390.0, 262.0)",[0.6166666666666667],[0.509],1,1557.236
5,False,299,1.271,76,[],[],"[(1114, 890)]",[],[1],[114],[1.9],"[640.0, 512.0]",vertical,"(390.0, 762.0)",[0.7833333333333333],[0.608],1,1560.712
5,False,300,1.112,66,[],[],"[(1136, 893)]",[],[1],[88],[1.4666666666666666],"[640.0, 512.0]",vertical,"(390.0, 262.0)",[1.6166666666666667],[0.344],1,1564.919
6,False,301,0.982,58,[],[],"[(1136, 880)]",[],[1],[94],[1.5666666666666667],"[640.0, 512.0]",vertical,"(390.0, 262.0)",[1.0],[0.574],1,1569.499
6,False,302,0.961,57,[],[],"[(1121, 876)]",[],[1],[87],[1.45],"[640.0, 512.0]",vertical,"(890.0, 262.0)",[1.0333333333333332],[0.48],1,1573.594
6,False,303,0.408,24,[],[],"[(1106, 877)]",[],[1],[54],[0.9],"[640.0, 512.0]",horizontal,"(390.0, 762.0)",[1.1166666666666667],[0.473],1,1577.6
6,False,304,1.493,89,[],[],"[(1123, 894)]",[],[1],[120],[2.0],"[640.0, 512.0]",horizontal,"(390.0, 262.0)",[1.3333333333333333],[0.486],1,1581.168
6,False,305,0.928,55,[],[],"[(1151, 880)]",[],[1],[86],[1.4333333333333333],"[640.0, 512.0]",horizontal,"(890.0, 262.0)",[1.65],[0.493],1,1586.014
6,False,306,1.346,80,[],[],"[(1136, 880)]",[],[1],[111],[1.8499999999999999],"[640.0, 512.0]",vertical,"(390.0, 762.0)",[1.6166666666666667],[0.491],1,1590.546
6,False,307,0.866,51,[],[],"[(1098, 889)]",[],[1],[81],[1.35],"[640.0, 512.0]",vertical,"(890.0, 762.0)",[1.5833333333333333],[0.487],1,1595.498
6,False,308,0.998,59,[],[],"[(1145, 889)]",[],[1],[87],[1.45],"[640.0, 512.0]",horizontal,"(890.0, 262.0)",[1.5],[0.442],1,1599.951
6,False,309,0.585,35,[],[],"[(1142, 886)]",[],[1],[68],[1.1333333333333333],"[640.0, 512.0]",horizontal,"(390.0, 762.0)",[1.25],[0.527],1,1604.347
6,False,310,0.929,55,[],[],"[(1142, 893)]",[],[1],[93],[1.55],"[640.0, 512.0]",horizontal,"(890.0, 762.0)",[1.6666666666666667],[0.605],1,1608.28
6,False,311,0.529,31,[],[],"[(1131, 882)]",[],[1],[69],[1.15],"[640.0, 512.0]",horizontal,"(890.0, 762.0)",[0.6],[0.605],1,1612.981
6,False,312,1.43,85,[],[],"[(1142, 885)]",[],[1],[91],[1.5166666666666666],"[640.0, 512.0]",vertical,"(390.0, 262.0)",[1.0166666666666666],[0.085],1,1616.217
6,False,313,1.196,71,[],[],"[(1172, 902)]",[],[1],[105],[1.75],"[640.0, 512.0]",vertical,"(890.0, 762.0)",[0.7666666666666666],[0.542],1,1620.277
6,False,314,0.325,19,[],[],"[(1099, 891)]",[],[1],[53],[0.8833333333333333],"[640.0, 512.0]",horizontal,"(890.0, 262.0)",[0.6833333333333333],[0.537],1,1625.56
6,False,315,0.776,46,[],[],"[(1107, 885)]",[],[1],[77],[1.2833333333333332],"[640.0, 512.0]",horizontal,"(390.0, 762.0)",[0.7333333333333333],[0.495],1,1628.627
6,False,316,0.539,32,[],[],"[(1123, 898)]",[],[1],[65],[1.0833333333333333],"[640.0, 512.0]",horizontal,"(890.0, 762.0)",[0.5833333333333334],[0.525],1,1632.132
6,False,317,0.471,28,[],[],"[(1160, 882)]",[],[1],[60],[1.0],"[640.0, 512.0]",vertical,"(390.0, 262.0)",[0.9166666666666666],[0.504],1,1635.298
6,False,318,1.235,74,[],[],"[(1130, 894)]",[],[1],[106],[1.7666666666666666],"[640.0, 512.0]",horizontal,"(390.0, 262.0)",[1.2166666666666666],[0.509],1,1638.686
6,False,319,1.111,66,[],[],"[(1158, 866)]",[],[1],[99],[1.65],"[640.0, 512.0]",horizontal,"(890.0, 762.0)",[1.3],[0.523],1,1643.179
6,False,320,1.315,78,[],[],"[(1151, 884)]",[],[1],[110],[1.8333333333333333],"[640.0, 512.0]",horizontal,"(390.0, 762.0)",[1.15],[0.509],1,1647.635
6,False,321,0.508,30,[],[],"[(1158, 888)]",[],[1],[60],[1.0],"[640.0, 512.0]",vertical,"(390.0, 762.0)",[1.3333333333333333],[0.478],1,1652.13
6,False,322,1.241,74,[],[],"[(1116, 884)]",[],[1],[98],[1.6333333333333333],"[640.0, 512.0]",vertical,"(890.0, 762.0)",[1.6166666666666667],[0.379],1,1655.951
6,False,323,1.289,77,[],[],"[(1111, 885)]",[],[1],[107],[1.7833333333333332],"[640.0, 512.0]",vertical,"(390.0, 762.0)",[1.6833333333333333],[0.478],1,1660.765
6,False,324,0.957,57,[],[],"[(1136, 885)]",[],[1],[97],[1.6166666666666667],"[640.0, 512.0]",horizontal,"(890.0, 262.0)",[0.75],[0.639],1,1665.709
6,False,325,0.694,41,[],[],"[(1120, 882)]",[],[1],[73],[1.2166666666666666],"[640.0, 512.0]",horizontal,"(890.0, 262.0)",[1.6666666666666667],[0.508],1,1669.566
6,False,326,1.336,80,[],[],"[(1131, 885)]",[],[1],[111],[1.8499999999999999],"[640.0, 512.0]",horizontal,"(890.0, 762.0)",[1.0666666666666667],[0.488],1,1673.936
6,False,327,0.733,43,[],[],"[(1153, 880)]",[],[1],[73],[1.2166666666666666],"[640.0, 512.0]",vertical,"(390.0, 262.0)",[1.1833333333333333],[0.481],1,1678.341
6,False,328,0.31,18,[],[],"[(1119, 883)]",[],[1],[51],[0.85],"[640.0, 512.0]",vertical,"(890.0, 262.0)",[1.0166666666666666],[0.523],1,1682.305
6,False,329,0.321,19,[],[],"[(1125, 886)]",[],[1],[51],[0.85],"[640.0, 512.0]",vertical,"(890.0, 762.0)",[1.6833333333333333],[0.514],1,1685.651
6,False,330,1.331,79,[],[],"[(1112, 888)]",[],[1],[92],[1.5333333333333332],"[640.0, 512.0]",horizontal,"(890.0, 262.0)",[1.3666666666666667],[0.197],1,1689.677
6,False,331,1.427,85,[],[],"[(1153, 878)]",[],[1],[119],[1.9833333333333334],"[640.0, 512.0]",vertical,"(890.0, 762.0)",[0.8833333333333333],[0.538],1,1694.317
6,False,332,1.239,74,[],[],"[(1150, 885)]",[],[1],[108],[1.8],"[640.0, 512.0]",vertical,"(390.0, 762.0)",[0.9666666666666667],[0.537],1,1698.677
6,False,333,0.461,27,[],[],"[(1130, 868)]",[],[1],[64],[1.0666666666666667],"[640.0, 512.0]",horizontal,"(890.0, 262.0)",[0.5333333333333333],[0.588],1,1702.918
6,False,334,0.751,45,[],[],"[(1143, 885)]",[],[1],[90],[1.5],"[640.0, 512.0]",horizontal,"(390.0, 262.0)",[0.85],[0.712],1,1706.009
6,False,335,1.472,88,[],[],"[(1136, 885)]",[],[1],[],[],"[640.0, 512.0]",vertical,"(890.0, 262.0)",[],[0],0,1709.857
6,False,336,1.474,88,[],[],"[(1075, 885)]",[],[1],[118],[1.9666666666666666],"[640.0, 512.0]",horizontal,"(890.0, 262.0)",[1.2333333333333334],[0.478],1,1714.109
6,False,337,0.474,28,[],[],"[(1180, 870)]",[],[1],[59],[0.9833333333333333],"[640.0, 512.0]",vertical,"(890.0, 762.0)",[1.3333333333333333],[0.491],1,1721.829
6,False,338,1.098,65,[],[1733173],"[(1146, 884)]","[(1186, 891)]",[1],[63],[1.05],"[640.0, 512.0]",horizontal,"(890.0, 762.0)",[],[0],0,1725.63
6,False,339,0.623,37,[],[],"[(1129, 899)]",[],[1],[72],[1.2],"[640.0, 512.0]",vertical,"(390.0, 762.0)",[0.8666666666666667],[0.557],1,1728.306
6,False,340,0.314,18,[],[],"[(1099, 888)]",[],[1],[52],[0.8666666666666667],"[640.0, 512.0]",vertical,"(390.0, 762.0)",[1.5833333333333333],[0.537],1,1755.543
6,False,341,0.552,33,[],[],"[(1120, 889)]",[],[1],[65],[1.0833333333333333],"[640.0, 512.0]",vertical,"(390.0, 762.0)",[0.9833333333333333],[0.509],1,1759.467
6,False,342,0.37,22,[],[],"[(1099, 891)]",[],[1],[54],[0.9],"[640.0, 512.0]",vertical,"(390.0, 262.0)",[1.5],[0.505],1,1763.012
6,False,343,0.842,50,[],[],"[(1118, 898)]",[],[1],[85],[1.4166666666666667],"[640.0, 512.0]",horizontal,"(890.0, 762.0)",[0.5833333333333334],[0.563],1,1766.947
6,False,344,0.307,18,[],[],"[(1099, 888)]",[],[1],[54],[0.9],"[640.0, 512.0]",horizontal,"(890.0, 262.0)",[0.7666666666666666],[0.569],1,1770.467
6,False,345,0.836,50,[],[],"[(1120, 891)]",[],[1],[82],[1.3666666666666667],"[640.0, 512.0]",horizontal,"(390.0, 762.0)",[1.25],[0.506],1,1774.356
6,False,346,1.409,84,[],[],"[(1087, 889)]",[],[1],[],[],"[640.0, 512.0]",horizontal,"(390.0, 762.0)",[],[0],0,1778.48
6,False,347,1.272,76,[],[],"[(1177, 904)]",[],[1],[120],[2.0],"[640.0, 512.0]",vertical,"(890.0, 262.0)",[0.8],[0.702],1,1781.951
6,False,348,0.367,22,[],[],"[(1123, 887)]",[],[1],[55],[0.9166666666666666],"[640.0, 512.0]",vertical,"(890.0, 762.0)",[0.65],[0.521],1,1787.186
6,False,349,0.838,50,[],[],"[(1122, 905)]",[],[1],[73],[1.2166666666666666],"[640.0, 512.0]",vertical,"(390.0, 262.0)",[1.25],[0.356],1,1790.321
6,False,350,0.921,55,[],[],"[(1136, 893)]",[],[1],[64],[1.0666666666666667],"[640.0, 512.0]",vertical,"(890.0, 262.0)",[1.4666666666666666],[0.135],1,1794.324
6,False,351,1.488,89,[],[],"[(1126, 891)]",[],[1],[],[],"[640.0, 512.0]",vertical,"(390.0, 262.0)",[],[0],0,1798.355
6,False,352,0.394,23,[],[],"[(1105, 889)]",[],[1],[56],[0.9333333333333333],"[640.0, 512.0]",horizontal,"(890.0, 262.0)",[0.7666666666666666],[0.518],1,1802.664
6,False,353,1.331,79,[],[],"[(1107, 884)]",[],[1],[],[],"[640.0, 512.0]",vertical,"(390.0, 262.0)",[],[0],0,1806.533
6,False,354,0.981,58,[],[],"[(1111, 888)]",[],[1],[89],[1.4833333333333334],"[640.0, 512.0]",horizontal,"(890.0, 762.0)",[0.5666666666666667],[0.497],1,1810.636
6,False,355,0.806,48,[],[],"[(1136, 890)]",[],[1],[79],[1.3166666666666667],"[640.0, 512.0]",vertical,"(390.0, 762.0)",[1.1166666666666667],[0.496],1,1814.209
6,False,356,1.256,75,[],[],"[(1105, 889)]",[],[1],[105],[1.75],"[640.0, 512.0]",horizontal,"(390.0, 762.0)",[0.6666666666666666],[0.476],1,1818.131
6,False,357,0.605,36,[],[],"[(1117, 889)]",[],[1],[68],[1.1333333333333333],"[640.0, 512.0]",vertical,"(390.0, 762.0)",[0.5666666666666667],[0.511],1,1822.082
6,False,358,0.894,53,[],[],"[(1085, 889)]",[],[1],[84],[1.4],"[640.0, 512.0]",vertical,"(890.0, 262.0)",[0.65],[0.499],1,1825.275
6,False,359,1.473,88,[],[],"[(1123, 890)]",[],[1],[117],[1.95],"[640.0, 512.0]",horizontal,"(390.0, 262.0)",[1.15],[0.462],1,1828.851
6,False,360,1.476,88,[],[],"[(1122, 889)]",[],[1],[119],[1.9833333333333334],"[640.0, 512.0]",horizontal,"(890.0, 262.0)",[1.3333333333333333],[0.494],1,1833.446
7,False,361,0.866,51,[],[],"[(1105, 894)]",[],[1],[85],[1.4166666666666667],"[640.0, 512.0]",horizontal,"(390.0, 262.0)",[1.0],[0.539],1,1838.23
7,False,362,0.353,21,[],[],"[(1142, 892)]",[],[1],[53],[0.8833333333333333],"[640.0, 512.0]",vertical,"(390.0, 762.0)",[1.0833333333333333],[0.509],1,1845.566
7,False,363,0.69,41,[],[],"[(1089, 889)]",[],[1],[80],[1.3333333333333333],"[640.0, 512.0]",vertical,"(890.0, 762.0)",[1.2666666666666666],[0.625],1,1849.048
7,False,364,1.321,79,[],[],"[(1129, 893)]",[],[1],[108],[1.8],"[640.0, 512.0]",vertical,"(390.0, 262.0)",[1.4833333333333334],[0.457],1,1853.216
7,False,365,1.058,63,[],[],"[(1111, 889)]",[],[1],[107],[1.7833333333333332],"[640.0, 512.0]",horizontal,"(390.0, 762.0)",[1.2333333333333334],[0.701],1,1857.948
7,False,366,1.415,84,[],[],"[(1093, 889)]",[],[1],[119],[1.9833333333333334],"[640.0, 512.0]",vertical,"(390.0, 762.0)",[1.2166666666666666],[0.551],1,1862.42
7,False,367,0.578,34,[],[],"[(1148, 891)]",[],[1],[70],[1.1666666666666667],"[640.0, 512.0]",vertical,"(390.0, 262.0)",[0.8666666666666667],[0.571],1,1867.135
7,False,368,0.42,25,[],[],"[(1093, 889)]",[],[1],[61],[1.0166666666666666],"[640.0, 512.0]",vertical,"(390.0, 762.0)",[0.7666666666666666],[0.569],1,1870.616
7,False,369,0.958,57,[],[],"[(1123, 897)]",[],[1],[102],[1.7],"[640.0, 512.0]",vertical,"(390.0, 762.0)",[1.0833333333333333],[0.716],1,1874.085
7,False,370,1.061,63,[],[],"[(1130, 893)]",[],[1],[95],[1.5833333333333333],"[640.0, 512.0]",vertical,"(890.0, 762.0)",[0.5666666666666667],[0.507],1,1878.383
7,False,371,1.411,84,[],[],"[(1122, 888)]",[],[1],[126],[2.1],"[640.0, 512.0]",vertical,"(890.0, 262.0)",[1.15],[0.673],1,1882.036
7,False,372,1.313,78,[],[],"[(1118, 885)]",[],[1],[111],[1.8499999999999999],"[640.0, 512.0]",horizontal,"(890.0, 762.0)",[0.5333333333333333],[0.521],1,1886.785
7,False,373,0.377,22,[],[],"[(1104, 895)]",[],[1],[54],[0.9],"[640.0, 512.0]",vertical,"(390.0, 262.0)",[0.8666666666666667],[0.507],1,1890.68
7,False,374,1.177,70,[],[],"[(1123, 894)]",[],[1],[107],[1.7833333333333332],"[640.0, 512.0]",vertical,"(890.0, 762.0)",[1.4],[0.585],1,1893.966
7,False,375,1.242,74,[],[],"[(1095, 902)]",[],[1],[108],[1.8],"[640.0, 512.0]",vertical,"(390.0, 762.0)",[0.6666666666666666],[0.544],1,1898.599
7,False,376,0.378,22,[],[],"[(1099, 889)]",[],[1],[53],[0.8833333333333333],"[640.0, 512.0]",horizontal,"(890.0, 762.0)",[1.5833333333333333],[0.494],1,1902.971
7,False,377,0.568,34,[],[],"[(1150, 888)]",[],[1],[82],[1.3666666666666667],"[640.0, 512.0]",vertical,"(890.0, 762.0)",[0.9],[0.767],1,1907.012
7,False,378,0.624,37,[],[],"[(1111, 875)]",[],[1],[74],[1.2333333333333334],"[640.0, 512.0]",vertical,"(890.0, 762.0)",[1.3666666666666667],[0.586],1,1910.749
7,False,379,0.911,54,[],[],"[(1160, 907)]",[],[1],[84],[1.4],"[640.0, 512.0]",horizontal,"(390.0, 762.0)",[1.3],[0.474],1,1914.916
7,False,380,1.181,70,[],[],"[(1145, 899)]",[],[1],[102],[1.7],"[640.0, 512.0]",vertical,"(890.0, 262.0)",[0.55],[0.506],1,3121.354
7,False,381,0.685,41,[],[],"[(1081, 893)]",[],[1],[71],[1.1833333333333333],"[640.0, 512.0]",vertical,"(890.0, 262.0)",[0.6833333333333333],[0.476],1,3125.175
7,False,382,0.445,26,[],[],"[(1111, 903)]",[],[1],[59],[0.9833333333333333],"[640.0, 512.0]",vertical,"(390.0, 262.0)",[0.75],[0.523],1,3128.573
7,False,383,0.679,40,[],[],"[(1142, 913)]",[],[1],[74],[1.2333333333333334],"[640.0, 512.0]",vertical,"(390.0, 762.0)",[0.5],[0.541],1,3131.798
7,False,384,0.798,47,[],[],"[(1087, 904)]",[],[1],[81],[1.35],"[640.0, 512.0]",horizontal,"(890.0, 762.0)",[0.5],[0.534],1,3134.992
7,False,385,0.735,44,[],[],"[(1118, 902)]",[],[1],[78],[1.3],"[640.0, 512.0]",vertical,"(890.0, 762.0)",[1.2333333333333334],[0.544],1,3138.321
7,False,386,1.101,66,[],[],"[(1142, 909)]",[],[1],[102],[1.7],"[640.0, 512.0]",horizontal,"(390.0, 762.0)",[1.1],[0.575],1,3142.309
7,False,387,1.157,69,[],[],"[(1122, 911)]",[],[1],[99],[1.65],"[640.0, 512.0]",horizontal,"(890.0, 262.0)",[0.6833333333333333],[0.474],1,3146.553
7,False,388,0.581,34,[],[],"[(1115, 899)]",[],[1],[69],[1.15],"[640.0, 512.0]",horizontal,"(890.0, 762.0)",[0.5166666666666666],[0.558],1,3150.618
7,False,389,0.891,53,[],[],"[(1087, 903)]",[],[1],[83],[1.3833333333333333],"[640.0, 512.0]",horizontal,"(890.0, 762.0)",[0.9166666666666666],[0.48],1,3153.891
7,False,390,1.07,64,[],[],"[(1146, 897)]",[],[1],[96],[1.6],"[640.0, 512.0]",horizontal,"(890.0, 262.0)",[0.5333333333333333],[0.517],1,3157.699
7,False,391,0.689,41,[],[],"[(1135, 893)]",[],[1],[60],[1.0],"[640.0, 512.0]",vertical,"(890.0, 262.0)",[1.0],[0.3],1,3161.35
7,False,392,1.094,65,[],[],"[(1111, 903)]",[],[1],[99],[1.65],"[640.0, 512.0]",horizontal,"(890.0, 762.0)",[1.6666666666666667],[0.541],1,3164.829
7,False,393,0.644,38,[],[],"[(1142, 903)]",[],[1],[73],[1.2166666666666666],"[640.0, 512.0]",horizontal,"(390.0, 262.0)",[1.5666666666666667],[0.556],1,3169.674
7,False,394,0.697,41,[],[],"[(1124, 882)]",[],[1],[77],[1.2833333333333332],"[640.0, 512.0]",horizontal,"(890.0, 762.0)",[0.9333333333333333],[0.571],1,3173.932
7,False,395,0.9,54,[],[],"[(1142, 904)]",[],[1],[88],[1.4666666666666666],"[640.0, 512.0]",vertical,"(890.0, 762.0)",[1.15],[0.542],1,3177.648
7,False,396,0.568,34,[],[],"[(1123, 886)]",[],[1],[46],[0.7666666666666666],"[640.0, 512.0]",vertical,"(890.0, 262.0)",[1.1833333333333333],[0.182],1,3181.736
7,False,397,0.964,57,[],[],"[(1149, 903)]",[],[1],[87],[1.45],"[640.0, 512.0]",horizontal,"(390.0, 262.0)",[0.9],[0.472],1,3185.198
7,False,398,1.181,70,[],[],"[(1124, 898)]",[],[1],[102],[1.7],"[640.0, 512.0]",horizontal,"(890.0, 762.0)",[1.4333333333333333],[0.512],1,3189.005
7,False,399,0.519,31,[],[],"[(1130, 902)]",[],[1],[76],[1.2666666666666666],"[640.0, 512.0]",horizontal,"(890.0, 262.0)",[1.4166666666666667],[0.727],1,3193.601
7,False,400,0.437,26,[],[],"[(1100, 889)]",[],[1],[58],[0.9666666666666667],"[640.0, 512.0]",horizontal,"(890.0, 762.0)",[0.5],[0.512],1,3197.74
7,False,401,1.287,77,[],[],"[(1147, 894)]",[],[1],[92],[1.5333333333333332],"[640.0, 512.0]",vertical,"(890.0, 762.0)",[1.6333333333333333],[0.234],1,3203.069
7,False,402,1.151,69,[],[],"[(1125, 898)]",[],[1],[101],[1.6833333333333333],"[640.0, 512.0]",horizontal,"(390.0, 262.0)",[0.8],[0.506],1,3207.738
7,False,403,0.664,39,[],[],"[(1156, 879)]",[],[1],[70],[1.1666666666666667],"[640.0, 512.0]",vertical,"(390.0, 262.0)",[1.05],[0.498],1,3211.707
7,False,404,0.57,34,[],[],"[(1109, 898)]",[],[1],[65],[1.0833333333333333],"[640.0, 512.0]",horizontal,"(890.0, 262.0)",[1.3166666666666667],[0.493],1,3215.404
7,False,405,1.279,76,[],[],"[(1132, 899)]",[],[1],[114],[1.9],"[640.0, 512.0]",horizontal,"(890.0, 762.0)",[1.3],[0.609],1,3219.308
7,False,406,0.799,47,[],[],"[(1142, 898)]",[],[1],[81],[1.35],"[640.0, 512.0]",horizontal,"(890.0, 762.0)",[0.7666666666666666],[0.537],1,3223.988
7,False,407,1.345,80,[],[],"[(1113, 908)]",[],[1],[113],[1.8833333333333333],"[640.0, 512.0]",vertical,"(390.0, 762.0)",[0.6],[0.526],1,3227.566
7,False,408,0.367,22,[],[],"[(1087, 879)]",[],[1],[57],[0.95],"[640.0, 512.0]",vertical,"(890.0, 762.0)",[1.6333333333333333],[0.558],1,3231.623
7,False,409,1.12,67,[],[],"[(1142, 916)]",[],[1],[99],[1.65],"[640.0, 512.0]",horizontal,"(890.0, 262.0)",[0.9333333333333333],[0.51],1,3235.703
7,False,410,0.866,51,[],[],"[(1099, 889)]",[],[1],[87],[1.45],"[640.0, 512.0]",horizontal,"(890.0, 762.0)",[1.4],[0.574],1,3239.786
7,False,411,1.181,70,[],[],"[(1122, 891)]",[],[1],[],[],"[640.0, 512.0]",horizontal,"(890.0, 762.0)",[],[0],0,3244.109
7,False,412,0.68,40,[],[],"[(1138, 909)]",[],[1],[75],[1.25],"[640.0, 512.0]",vertical,"(890.0, 762.0)",[0.8833333333333333],[0.552],1,3247.47
7,False,413,0.714,42,[],[],"[(1136, 880)]",[],[1],[81],[1.35],"[640.0, 512.0]",vertical,"(390.0, 762.0)",[0.7666666666666666],[0.629],1,3252.491
7,False,414,0.483,28,[],[],"[(1106, 889)]",[],[1],[62],[1.0333333333333332],"[640.0, 512.0]",vertical,"(390.0, 262.0)",[1.4666666666666666],[0.539],1,3256.125
7,False,415,1.447,86,[],[],"[(1139, 875)]",[],[1],[120],[2.0],"[640.0, 512.0]",horizontal,"(890.0, 262.0)",[1.0666666666666667],[0.538],1,3260.234
7,False,416,0.844,50,[],[],"[(1117, 880)]",[],[1],[87],[1.45],"[640.0, 512.0]",horizontal,"(890.0, 762.0)",[0.8],[0.594],1,3265.206
7,False,417,1.011,60,[],[],"[(1118, 901)]",[],[1],[93],[1.55],"[640.0, 512.0]",horizontal,"(390.0, 762.0)",[0.5166666666666666],[0.521],1,3268.958
7,False,418,0.577,34,[],[],"[(1090, 909)]",[],[1],[71],[1.1833333333333333],"[640.0, 512.0]",vertical,"(390.0, 762.0)",[1.4],[0.587],1,3272.481
7,False,419,0.933,55,[],[],"[(1117, 890)]",[],[1],[95],[1.5833333333333333],"[640.0, 512.0]",horizontal,"(890.0, 762.0)",[0.7833333333333333],[0.638],1,3276.554
7,False,420,0.728,43,[],[],"[(1138, 886)]",[],[1],[75],[1.25],"[640.0, 512.0]",horizontal,"(890.0, 262.0)",[1.3],[0.506],1,3280.405
8,False,421,1.317,79,[],[],"[(1116, 902)]",[],[1],[111],[1.8499999999999999],"[640.0, 512.0]",horizontal,"(890.0, 262.0)",[1.2666666666666666],[0.507],1,3284.41
8,False,422,0.897,53,[],[],"[(1114, 881)]",[],[1],[92],[1.5333333333333332],"[640.0, 512.0]",horizontal,"(890.0, 762.0)",[1.2],[0.621],1,3289.009
8,False,423,0.955,57,[],[],"[(1116, 881)]",[],[1],[98],[1.6333333333333333],"[640.0, 512.0]",vertical,"(890.0, 262.0)",[0.5833333333333334],[0.656],1,3293.193
8,False,424,1.089,65,[],[],"[(1083, 896)]",[],[1],[93],[1.55],"[640.0, 512.0]",vertical,"(890.0, 262.0)",[1.1666666666666667],[0.442],1,3297.073
8,False,425,0.899,53,[],[],"[(1118, 898)]",[],[1],[84],[1.4],"[640.0, 512.0]",vertical,"(890.0, 262.0)",[0.8833333333333333],[0.489],1,3301.606
8,False,426,1.375,82,[],[],"[(1107, 896)]",[],[1],[114],[1.9],"[640.0, 512.0]",vertical,"(890.0, 762.0)",[1.4666666666666666],[0.507],1,3305.424
8,False,427,0.714,42,[],[],"[(1112, 898)]",[],[1],[77],[1.2833333333333332],"[640.0, 512.0]",horizontal,"(390.0, 762.0)",[1.45],[0.555],1,3310.286
8,False,428,1.338,80,[],[],"[(1119, 903)]",[],[1],[119],[1.9833333333333334],"[640.0, 512.0]",horizontal,"(890.0, 262.0)",[0.9],[0.623],1,3314.535
8,False,429,1.491,89,[],[],"[(1123, 880)]",[],[1],[125],[2.0833333333333335],"[640.0, 512.0]",horizontal,"(390.0, 262.0)",[1.1833333333333333],[0.574],1,3318.892
8,False,430,0.926,55,[],[],"[(1100, 884)]",[],[1],[88],[1.4666666666666666],"[640.0, 512.0]",vertical,"(390.0, 762.0)",[0.95],[0.526],1,3323.675
8,False,431,0.88,52,[],[],"[(1093, 884)]",[],[1],[86],[1.4333333333333333],"[640.0, 512.0]",vertical,"(890.0, 762.0)",[0.7833333333333333],[0.543],1,3327.623
8,False,432,1.208,72,[],[],"[(1087, 882)]",[],[1],[89],[1.4833333333333334],"[640.0, 512.0]",vertical,"(390.0, 262.0)",[0.8333333333333334],[0.265],1,3331.36
8,False,433,1.412,84,[],[],"[(1117, 884)]",[],[1],[116],[1.9333333333333333],"[640.0, 512.0]",vertical,"(390.0, 762.0)",[1.5833333333333333],[0.508],1,3335.19
8,False,434,0.73,43,[],[],"[(1122, 893)]",[],[1],[76],[1.2666666666666666],"[640.0, 512.0]",horizontal,"(390.0, 262.0)",[1.2166666666666666],[0.525],1,3340.206
8,False,435,0.566,33,[],[],"[(1118, 893)]",[],[1],[78],[1.3],"[640.0, 512.0]",vertical,"(390.0, 262.0)",[1.0166666666666666],[0.723],1,3344.186
8,False,436,0.413,24,[],[],"[(1081, 876)]",[],[1],[57],[0.95],"[640.0, 512.0]",vertical,"(890.0, 762.0)",[1.5166666666666666],[0.529],1,3348.038
8,False,437,0.553,33,[],[],"[(1111, 898)]",[],[1],[66],[1.1],"[640.0, 512.0]",vertical,"(390.0, 762.0)",[1.5833333333333333],[0.525],1,3352.085
8,False,438,0.667,40,[],[],"[(1081, 887)]",[],[1],[74],[1.2333333333333334],"[640.0, 512.0]",horizontal,"(390.0, 762.0)",[1.15],[0.54],1,3356.39
8,False,439,0.466,27,[],[],"[(1090, 884)]",[],[1],[60],[1.0],"[640.0, 512.0]",horizontal,"(390.0, 262.0)",[1.6333333333333333],[0.527],1,3360.298
8,False,440,0.315,18,[],[],"[(1113, 907)]",[],[1],[56],[0.9333333333333333],"[640.0, 512.0]",horizontal,"(890.0, 262.0)",[1.2333333333333334],[0.613],1,3364.419
8,False,441,1.208,72,[],[],"[(1083, 888)]",[],[1],[106],[1.7666666666666666],"[640.0, 512.0]",horizontal,"(390.0, 762.0)",[1.4666666666666666],[0.536],1,3368.061
8,False,442,0.841,50,[],[],"[(1087, 889)]",[],[1],[86],[1.4333333333333333],"[640.0, 512.0]",horizontal,"(890.0, 762.0)",[0.5],[0.572],1,3372.851
8,False,443,0.629,37,[],[],"[(1087, 903)]",[],[1],[70],[1.1666666666666667],"[640.0, 512.0]",vertical,"(890.0, 762.0)",[1.3666666666666667],[0.528],1,3376.322
8,False,444,0.703,42,[],[],"[(1120, 895)]",[],[1],[73],[1.2166666666666666],"[640.0, 512.0]",horizontal,"(890.0, 762.0)",[1.1166666666666667],[0.49],1,3380.376
8,False,445,1.1,66,[],[],"[(1141, 879)]",[],[1],[101],[1.6833333333333333],"[640.0, 512.0]",vertical,"(390.0, 762.0)",[1.6666666666666667],[0.556],1,3384.177
8,False,446,1.375,82,[],[],"[(1099, 879)]",[],[1],[114],[1.9],"[640.0, 512.0]",horizontal,"(890.0, 762.0)",[0.5666666666666667],[0.502],1,3389.04
8,False,447,0.379,22,[],[],"[(1103, 894)]",[],[1],[56],[0.9333333333333333],"[640.0, 512.0]",horizontal,"(390.0, 762.0)",[0.6833333333333333],[0.537],1,3392.996
8,False,448,0.396,23,[],[],"[(1105, 892)]",[],[1],[66],[1.1],"[640.0, 512.0]",vertical,"(390.0, 262.0)",[0.9166666666666666],[0.699],1,3396.14
8,False,449,0.95,57,[],[],"[(1136, 885)]",[],[1],[89],[1.4833333333333334],"[640.0, 512.0]",vertical,"(390.0, 762.0)",[1.1],[0.518],1,3399.714
8,False,450,1.497,89,[],[],"[(1130, 888)]",[],[1],[128],[2.1333333333333333],"[640.0, 512.0]",horizontal,"(390.0, 262.0)",[1.5333333333333332],[0.628],1,3403.914
8,False,451,0.603,36,[],[],"[(1081, 899)]",[],[1],[79],[1.3166666666666667],"[640.0, 512.0]",horizontal,"(390.0, 762.0)",[1.6],[0.683],1,3409.706
8,False,452,0.634,38,[],[],"[(1138, 881)]",[],[1],[72],[1.2],"[640.0, 512.0]",vertical,"(390.0, 762.0)",[0.8833333333333333],[0.545],1,3414.27
8,False,453,0.325,19,[],[],"[(1101, 895)]",[],[1],[63],[1.05],"[640.0, 512.0]",horizontal,"(390.0, 762.0)",[0.8666666666666667],[0.722],1,3417.889
8,False,454,0.997,59,[],[],"[(1120, 893)]",[],[1],[103],[1.7166666666666666],"[640.0, 512.0]",vertical,"(890.0, 262.0)",[0.65],[0.706],1,3421.376
8,False,455,0.404,24,[],[],"[(1110, 888)]",[],[1],[57],[0.95],"[640.0, 512.0]",horizontal,"(890.0, 762.0)",[1.1],[0.522],1,3425.29
8,False,456,0.638,38,[],[],"[(1136, 885)]",[],[1],[72],[1.2],"[640.0, 512.0]",horizontal,"(890.0, 262.0)",[1.0166666666666666],[0.538],1,3428.863
8,False,457,1.064,63,[],[],"[(1151, 903)]",[],[1],[97],[1.6166666666666667],"[640.0, 512.0]",vertical,"(390.0, 262.0)",[1.0333333333333332],[0.537],1,3432.581
8,False,458,0.933,55,[],[],"[(1112, 890)]",[],[1],[87],[1.45],"[640.0, 512.0]",vertical,"(390.0, 762.0)",[1.2333333333333334],[0.504],1,3436.676
8,False,459,0.732,43,[],[],"[(1098, 875)]",[],[1],[79],[1.3166666666666667],"[640.0, 512.0]",horizontal,"(390.0, 262.0)",[1.1666666666666667],[0.573],1,3440.837
8,False,460,1.006,60,[],[],"[(1093, 893)]",[],[1],[93],[1.55],"[640.0, 512.0]",vertical,"(890.0, 762.0)",[1.1166666666666667],[0.523],1,3444.823
8,False,461,0.939,56,[],[],"[(1093, 888)]",[],[1],[91],[1.5166666666666666],"[640.0, 512.0]",horizontal,"(890.0, 762.0)",[0.8],[0.56],1,3448.992
8,False,462,0.364,21,[],[],"[(1110, 889)]",[],[1],[41],[0.6833333333333333],"[640.0, 512.0]",vertical,"(390.0, 262.0)",[1.65],[0.314],1,3452.831
8,False,463,1.049,62,[],[],"[(1087, 884)]",[],[1],[94],[1.5666666666666667],"[640.0, 512.0]",horizontal,"(890.0, 762.0)",[1.3166666666666667],[0.517],1,3456.644
8,False,464,0.957,57,[],[],"[(1110, 901)]",[],[1],[98],[1.6333333333333333],"[640.0, 512.0]",horizontal,"(890.0, 762.0)",[1.1666666666666667],[0.651],1,3461.086
8,False,465,0.398,23,[],[],"[(1116, 889)]",[],[1],[60],[1.0],"[640.0, 512.0]",vertical,"(890.0, 762.0)",[1.6833333333333333],[0.586],1,3465.393
8,False,466,1.458,87,[],[],"[(1087, 873)]",[],[1],[],[],"[640.0, 512.0]",vertical,"(890.0, 762.0)",[],[0],0,3469.594
8,False,467,1.345,80,[],[],"[(1136, 908)]",[],[1],[117],[1.95],"[640.0, 512.0]",horizontal,"(390.0, 762.0)",[1.1833333333333333],[0.591],1,3473.073
8,False,468,1.335,80,[],[],"[(1093, 882)]",[],[1],[110],[1.8333333333333333],"[640.0, 512.0]",horizontal,"(890.0, 262.0)",[1.5166666666666666],[0.476],1,3517.963
8,False,469,0.743,44,[],[],"[(1105, 881)]",[],[1],[78],[1.3],"[640.0, 512.0]",vertical,"(890.0, 762.0)",[0.9166666666666666],[0.545],1,3522.838
8,False,470,0.377,22,[],[],"[(1107, 892)]",[],[1],[60],[1.0],"[640.0, 512.0]",horizontal,"(390.0, 262.0)",[0.5],[0.608],1,3526.558
8,False,471,1.265,75,[],[],"[(1114, 899)]",[],[1],[113],[1.8833333333333333],"[640.0, 512.0]",vertical,"(390.0, 762.0)",[0.6666666666666666],[0.61],1,3529.542
8,False,472,0.469,28,[],[],"[(1054, 911)]",[],[1],[67],[1.1166666666666667],"[640.0, 512.0]",vertical,"(390.0, 762.0)",[1.25],[0.622],1,3533.592
8,False,473,1.381,82,[],[],"[(1093, 877)]",[],[1],[115],[1.9166666666666667],"[640.0, 512.0]",vertical,"(390.0, 762.0)",[0.55],[0.524],1,3537.824
8,False,474,1.124,67,[],[],"[(1085, 890)]",[],[1],[101],[1.6833333333333333],"[640.0, 512.0]",vertical,"(890.0, 762.0)",[0.8],[0.541],1,3541.907
8,False,475,0.788,47,[],[],"[(1080, 884)]",[],[1],[89],[1.4833333333333334],"[640.0, 512.0]",horizontal,"(890.0, 762.0)",[1.1],[0.672],1,3545.877
8,False,476,1.049,62,[],[],"[(1100, 881)]",[],[1],[101],[1.6833333333333333],"[640.0, 512.0]",vertical,"(390.0, 262.0)",[0.5333333333333333],[0.623],1,3549.997
8,False,477,1.094,65,[],[],"[(1098, 876)]",[],[1],[98],[1.6333333333333333],"[640.0, 512.0]",horizontal,"(390.0, 262.0)",[1.5166666666666666],[0.519],1,3553.772
8,False,478,1.188,71,[],[],"[(1095, 890)]",[],[1],[106],[1.7666666666666666],"[640.0, 512.0]",horizontal,"(890.0, 262.0)",[1.55],[0.554],1,3558.411
8,False,479,0.545,32,[],[],"[(1109, 893)]",[],[1],[65],[1.0833333333333333],"[640.0, 512.0]",horizontal,"(890.0, 262.0)",[1.1166666666666667],[0.521],1,3563.31
8,False,480,0.848,50,[],[],"[(1086, 914)]",[],[1],[],[],"[640.0, 512.0]",vertical,"(890.0, 262.0)",[],[0],0,3567.007
9,False,481,1.42,85,[],[],"[(1123, 915)]",[],[1],[116],[1.9333333333333333],"[640.0, 512.0]",horizontal,"(890.0, 262.0)",[1.4],[0.493],1,3570.941
9,False,482,0.401,24,[],[],"[(1176, 877)]",[],[1],[68],[1.1333333333333333],"[640.0, 512.0]",vertical,"(890.0, 262.0)",[0.8],[0.702],1,3575.992
9,False,483,0.526,31,[],[],"[(1142, 888)]",[],[1],[62],[1.0333333333333332],"[640.0, 512.0]",vertical,"(390.0, 262.0)",[1.1666666666666667],[0.507],1,3579.387
9,False,484,0.508,30,[],[],"[(1142, 886)]",[],[1],[63],[1.05],"[640.0, 512.0]",horizontal,"(390.0, 262.0)",[1.45],[0.528],1,3583.095
9,False,485,0.371,22,[],[],"[(1136, 908)]",[],[1],[56],[0.9333333333333333],"[640.0, 512.0]",horizontal,"(890.0, 262.0)",[0.7166666666666667],[0.536],1,3587.055
9,False,486,0.437,26,[],[],"[(1127, 898)]",[],[1],[75],[1.25],"[640.0, 512.0]",horizontal,"(390.0, 262.0)",[1.0166666666666666],[0.779],1,3590.172
9,False,487,0.337,20,[],[],"[(1087, 894)]",[],[1],[53],[0.8833333333333333],"[640.0, 512.0]",vertical,"(390.0, 262.0)",[0.9333333333333333],[0.521],1,3593.915
9,False,488,0.946,56,[],[],"[(1124, 870)]",[],[1],[89],[1.4833333333333334],"[640.0, 512.0]",horizontal,"(890.0, 762.0)",[1.25],[0.528],1,3597.298
9,False,489,0.55,33,[],[],"[(1128, 889)]",[],[1],[65],[1.0833333333333333],"[640.0, 512.0]",vertical,"(890.0, 762.0)",[1.5666666666666667],[0.506],1,3601.491
9,False,490,1.437,86,[],[],"[(1123, 898)]",[],[1],[120],[2.0],"[640.0, 512.0]",horizontal,"(390.0, 762.0)",[1.4333333333333333],[0.546],1,3605.626
9,False,491,0.619,37,[],[],"[(1117, 899)]",[],[1],[69],[1.15],"[640.0, 512.0]",horizontal,"(890.0, 262.0)",[1.4333333333333333],[0.507],1,3610.542
9,False,492,0.712,42,[],[],"[(1141, 894)]",[],[1],[77],[1.2833333333333332],"[640.0, 512.0]",horizontal,"(390.0, 262.0)",[1.5666666666666667],[0.557],1,3614.597
9,False,493,0.978,58,[],[],"[(1133, 903)]",[],[1],[96],[1.6],"[640.0, 512.0]",vertical,"(890.0, 762.0)",[1.3],[0.606],1,3618.908
9,False,494,0.442,26,[],[],"[(1117, 903)]",[],[1],[63],[1.05],"[640.0, 512.0]",horizontal,"(390.0, 262.0)",[1.6833333333333333],[0.591],1,3623.273
9,False,495,1.172,70,[],[],"[(1120, 880)]",[],[1],[114],[1.9],"[640.0, 512.0]",vertical,"(890.0, 762.0)",[0.5666666666666667],[0.706],1,3627.507
9,False,496,1.221,73,[],[],"[(1089, 884)]",[],[1],[108],[1.8],"[640.0, 512.0]",horizontal,"(390.0, 762.0)",[0.55],[0.555],1,3631.506
9,False,497,0.865,51,[],[],"[(1100, 890)]",[],[1],[83],[1.3833333333333333],"[640.0, 512.0]",horizontal,"(890.0, 262.0)",[0.95],[0.508],1,3635.404
9,False,498,0.704,42,[],[],"[(1123, 899)]",[],[1],[79],[1.3166666666666667],"[640.0, 512.0]",horizontal,"(390.0, 262.0)",[0.75],[0.587],1,3639.222
9,False,499,0.508,30,[],[],"[(1095, 884)]",[],[1],[66],[1.1],"[640.0, 512.0]",horizontal,"(390.0, 762.0)",[0.9],[0.569],1,3642.799
9,False,500,1.117,67,[],[],"[(1123, 899)]",[],[1],[101],[1.6833333333333333],"[640.0, 512.0]",horizontal,"(890.0, 262.0)",[1.5666666666666667],[0.543],1,3646.319
9,False,501,0.768,46,[],[],"[(1123, 882)]",[],[1],[87],[1.45],"[640.0, 512.0]",vertical,"(890.0, 262.0)",[0.8333333333333334],[0.652],1,3651.041
9,False,502,1.12,67,[],[],"[(1093, 899)]",[],[1],[98],[1.6333333333333333],"[640.0, 512.0]",vertical,"(890.0, 262.0)",[0.8833333333333333],[0.492],1,3654.792
9,False,503,0.87,52,[],[],"[(1123, 875)]",[],[1],[89],[1.4833333333333334],"[640.0, 512.0]",horizontal,"(890.0, 262.0)",[0.8166666666666667],[0.588],1,3658.824
9,False,504,0.601,36,[],[],"[(1079, 880)]",[],[1],[73],[1.2166666666666666],"[640.0, 512.0]",vertical,"(390.0, 262.0)",[0.5166666666666666],[0.59],1,3662.611
9,False,505,1.328,79,[],[],"[(1116, 898)]",[],[1],[120],[2.0],"[640.0, 512.0]",horizontal,"(390.0, 762.0)",[1.5],[0.659],1,3666.043
9,False,506,0.336,20,[],[],"[(1089, 891)]",[],[1],[51],[0.85],"[640.0, 512.0]",vertical,"(390.0, 262.0)",[1.6333333333333333],[0.488],1,3671.068
9,False,507,0.612,36,[],[],"[(1088, 893)]",[],[1],[66],[1.1],"[640.0, 512.0]",vertical,"(890.0, 262.0)",[0.6],[0.476],1,3675.11
9,False,508,0.469,28,[],[],"[(1140, 913)]",[],[1],[70],[1.1666666666666667],"[640.0, 512.0]",horizontal,"(890.0, 262.0)",[1.6833333333333333],[0.682],1,3678.323
9,False,509,1.399,83,[],[],"[(1105, 895)]",[],[1],[],[],"[640.0, 512.0]",vertical,"(890.0, 262.0)",[],[0],0,3682.695
9,False,510,0.332,19,[],[],"[(1147, 872)]",[],[1],[52],[0.8666666666666667],"[640.0, 512.0]",horizontal,"(890.0, 762.0)",[1.4833333333333334],[0.524],1,3686.84
9,False,511,0.64,38,[],[],"[(1118, 890)]",[],[1],[73],[1.2166666666666666],"[640.0, 512.0]",vertical,"(890.0, 762.0)",[1.55],[0.554],1,3690.693
9,False,512,0.989,59,[],[],"[(1142, 880)]",[],[1],[109],[1.8166666666666667],"[640.0, 512.0]",vertical,"(890.0, 262.0)",[0.5166666666666666],[0.807],0,3694.971
9,False,513,0.51,30,[],[],"[(1143, 904)]",[],[1],[64],[1.0666666666666667],"[640.0, 512.0]",vertical,"(890.0, 262.0)",[1.0],[0.541],1,3698.787
9,False,514,1.248,74,[],[],"[(1088, 905)]",[],[1],[105],[1.75],"[640.0, 512.0]",horizontal,"(890.0, 262.0)",[1.4666666666666666],[0.493],1,3842.694
9,False,515,0.514,30,[],[],"[(1074, 897)]",[],[1],[73],[1.2166666666666666],"[640.0, 512.0]",vertical,"(390.0, 762.0)",[1.5166666666666666],[0.689],1,3847.457
9,False,516,0.642,38,[],[],"[(1105, 902)]",[],[1],[69],[1.15],"[640.0, 512.0]",horizontal,"(890.0, 262.0)",[1.2166666666666666],[0.501],1,3851.732
9,False,517,0.703,42,[],[],"[(1093, 898)]",[],[1],[83],[1.3833333333333333],"[640.0, 512.0]",horizontal,"(890.0, 262.0)",[1.2833333333333332],[0.664],1,3855.621
9,False,518,0.894,53,[],[],"[(1166, 888)]",[],[1],[84],[1.4],"[640.0, 512.0]",horizontal,"(890.0, 262.0)",[1.4333333333333333],[0.495],1,3859.826
9,False,519,0.722,43,[],[],"[(1129, 903)]",[],[1],[79],[1.3166666666666667],"[640.0, 512.0]",vertical,"(390.0, 262.0)",[0.7],[0.578],1,3864.191
9,False,520,0.453,27,[],[],"[(1102, 900)]",[],[1],[63],[1.05],"[640.0, 512.0]",vertical,"(390.0, 762.0)",[0.8],[0.578],1,3867.743
9,False,521,1.409,84,[],[],"[(1123, 918)]",[],[1],[],[],"[640.0, 512.0]",vertical,"(390.0, 262.0)",[],[0],0,3871.64
9,False,522,0.668,40,[],[],"[(1090, 895)]",[],[1],[76],[1.2666666666666666],"[640.0, 512.0]",horizontal,"(890.0, 762.0)",[0.55],[0.581],1,3875.729
9,False,523,1.072,64,[],[],"[(1099, 905)]",[],[1],[114],[1.9],"[640.0, 512.0]",horizontal,"(890.0, 762.0)",[1.05],[0.799],0,3879.472
9,False,524,1.279,76,[],[],"[(1120, 866)]",[],[1],[101],[1.6833333333333333],"[640.0, 512.0]",vertical,"(890.0, 762.0)",[1.4833333333333334],[0.395],1,3883.913
9,False,525,0.615,36,[],[],"[(1113, 886)]",[],[1],[71],[1.1833333333333333],"[640.0, 512.0]",vertical,"(890.0, 762.0)",[1.1333333333333333],[0.558],1,3889.257
9,False,526,0.587,35,[],[],"[(1111, 869)]",[],[1],[],[],"[640.0, 512.0]",vertical,"(390.0, 262.0)",[],[0],0,3893.111
9,False,527,0.921,55,[],[],"[(1177, 902)]",[],[1],[89],[1.4833333333333334],"[640.0, 512.0]",vertical,"(890.0, 762.0)",[0.8833333333333333],[0.542],1,3895.609
9,False,528,0.691,41,[],[],"[(1108, 898)]",[],[1],[76],[1.2666666666666666],"[640.0, 512.0]",horizontal,"(390.0, 762.0)",[0.9166666666666666],[0.559],1,3899.509
9,False,529,1.037,62,[],[],"[(1105, 908)]",[],[1],[102],[1.7],"[640.0, 512.0]",vertical,"(890.0, 762.0)",[1.2333333333333334],[0.641],1,3903.229
9,False,530,0.65,39,[],[],"[(1119, 889)]",[],[1],[69],[1.15],"[640.0, 512.0]",vertical,"(890.0, 262.0)",[1.3166666666666667],[0.479],1,3907.689
9,False,531,0.303,18,[],[],"[(1114, 898)]",[],[1],[51],[0.85],"[640.0, 512.0]",horizontal,"(890.0, 762.0)",[1.4833333333333334],[0.534],1,3911.706
9,False,532,1.079,64,[],[],"[(1113, 893)]",[],[1],[90],[1.5],"[640.0, 512.0]",vertical,"(890.0, 262.0)",[1.1166666666666667],[0.413],1,3915.611
9,False,533,0.967,58,[],[],"[(1130, 903)]",[],[1],[93],[1.55],"[640.0, 512.0]",horizontal,"(390.0, 762.0)",[0.6166666666666667],[0.558],1,3919.845
9,False,534,0.574,34,[],[],"[(1111, 902)]",[],[1],[68],[1.1333333333333333],"[640.0, 512.0]",horizontal,"(390.0, 262.0)",[1.65],[0.542],1,3923.561
9,False,535,1.19,71,[],[],"[(1105, 904)]",[],[1],[113],[1.8833333333333333],"[640.0, 512.0]",horizontal,"(390.0, 762.0)",[1.2333333333333334],[0.681],1,3927.945
9,False,536,0.709,42,[],[],"[(1106, 909)]",[],[1],[74],[1.2333333333333334],"[640.0, 512.0]",horizontal,"(390.0, 262.0)",[1.4333333333333333],[0.507],1,3932.6
9,False,537,0.766,45,[],[],"[(1105, 908)]",[],[1],[82],[1.3666666666666667],"[640.0, 512.0]",vertical,"(890.0, 762.0)",[1.25],[0.606],1,3936.812
9,False,538,0.7,42,[],[],"[(1109, 903)]",[],[1],[77],[1.2833333333333332],"[640.0, 512.0]",horizontal,"(890.0, 262.0)",[0.8666666666666667],[0.566],1,3941.032
9,False,539,1.079,64,[],[],"[(1124, 910)]",[],[1],[103],[1.7166666666666666],"[640.0, 512.0]",horizontal,"(890.0, 262.0)",[1.0166666666666666],[0.627],1,3944.76
9,False,540,1.306,78,[],[],"[(1118, 907)]",[],[1],[113],[1.8833333333333333],"[640.0, 512.0]",horizontal,"(390.0, 762.0)",[1.3833333333333333],[0.556],1,3949.016
10,False,541,0.64,38,[],[],"[(1106, 897)]",[],[1],[78],[1.3],"[640.0, 512.0]",vertical,"(390.0, 762.0)",[1.15],[0.638],1,3953.812
10,False,542,0.402,24,[],[],"[(1117, 908)]",[],[1],[61],[1.0166666666666666],"[640.0, 512.0]",horizontal,"(890.0, 762.0)",[0.5166666666666666],[0.592],1,3957.843
10,False,543,1.347,80,[],[],"[(1112, 896)]",[],[1],[113],[1.8833333333333333],"[640.0, 512.0]",vertical,"(390.0, 762.0)",[1.25],[0.533],1,3960.969
10,False,544,0.736,44,[],[],"[(1121, 887)]",[],[1],[77],[1.2833333333333332],"[640.0, 512.0]",vertical,"(890.0, 762.0)",[0.85],[0.525],1,3965.655
10,False,545,0.694,41,[],[],"[(1083, 900)]",[],[1],[81],[1.35],"[640.0, 512.0]",vertical,"(890.0, 762.0)",[1.2],[0.636],1,3969.289
10,False,546,1.39,83,[],[],"[(1136, 906)]",[],[1],[130],[2.1666666666666665],"[640.0, 512.0]",horizontal,"(390.0, 262.0)",[0.6166666666666667],[0.761],1,3973.38
10,False,547,1.298,77,[],[],"[(1123, 897)]",[],[1],[127],[2.1166666666666667],"[640.0, 512.0]",horizontal,"(390.0, 262.0)",[1.3833333333333333],[0.808],0,3977.678
10,False,548,1.257,75,[],[],"[(1140, 899)]",[],[1],[109],[1.8166666666666667],"[640.0, 512.0]",horizontal,"(390.0, 262.0)",[1.6],[0.547],1,3982.674
10,False,549,0.63,37,[],[],"[(1177, 890)]",[],[1],[71],[1.1833333333333333],"[640.0, 512.0]",horizontal,"(890.0, 762.0)",[1.05],[0.551],1,3987.628
10,False,550,0.68,40,[],[],"[(1148, 902)]",[],[1],[77],[1.2833333333333332],"[640.0, 512.0]",vertical,"(890.0, 762.0)",[0.6],[0.596],1,3991.362
10,False,551,0.324,19,[],[],"[(1118, 908)]",[],[1],[53],[0.8833333333333333],"[640.0, 512.0]",vertical,"(890.0, 262.0)",[1.6833333333333333],[0.551],1,3994.791
10,False,552,1.406,84,[],[],"[(1123, 870)]",[],[1],[],[],"[640.0, 512.0]",vertical,"(890.0, 762.0)",[],[0],0,3999.063
10,False,553,0.441,26,[],[],"[(1160, 875)]",[],[1],[64],[1.0666666666666667],"[640.0, 512.0]",vertical,"(390.0, 762.0)",[0.9],[0.612],1,4002.679
10,False,554,1.064,63,[],[],"[(1098, 899)]",[],[1],[96],[1.6],"[640.0, 512.0]",horizontal,"(890.0, 262.0)",[1.55],[0.525],1,4006.17
10,False,555,1.235,74,[],[],"[(1087, 894)]",[],[1],[108],[1.8],"[640.0, 512.0]",vertical,"(890.0, 762.0)",[0.9833333333333333],[0.543],1,4010.862
10,False,556,0.924,55,[],[],"[(1111, 899)]",[],[1],[91],[1.5166666666666666],"[640.0, 512.0]",horizontal,"(890.0, 762.0)",[0.6666666666666666],[0.578],1,4015.25
10,False,557,0.923,55,[],[],"[(1121, 898)]",[],[1],[],[],"[640.0, 512.0]",vertical,"(390.0, 262.0)",[],[0],0,4019.008
10,False,558,0.401,24,[],[],"[(1121, 880)]",[],[1],[59],[0.9833333333333333],"[640.0, 512.0]",horizontal,"(390.0, 762.0)",[0.7],[0.567],1,4022.826
10,False,559,1.477,88,[],[],"[(1106, 875)]",[],[1],[121],[2.0166666666666666],"[640.0, 512.0]",vertical,"(390.0, 762.0)",[0.8833333333333333],[0.528],1,4026.105
10,False,560,0.715,42,[],[],"[(1080, 897)]",[],[1],[84],[1.4],"[640.0, 512.0]",horizontal,"(890.0, 762.0)",[1.5666666666666667],[0.679],1,4030.537
10,False,561,1.168,70,[],[],"[(1113, 900)]",[],[1],[],[],"[640.0, 512.0]",vertical,"(390.0, 262.0)",[],[0],0,4035.058
10,False,562,1.189,71,[],[],"[(1136, 872)]",[],[1],[102],[1.7],"[640.0, 512.0]",horizontal,"(390.0, 262.0)",[1.05],[0.495],1,4039.244
10,False,563,1.12,67,[],[],"[(1106, 902)]",[],[1],[105],[1.75],"[640.0, 512.0]",horizontal,"(890.0, 762.0)",[0.5333333333333333],[0.613],1,4043.483
10,False,564,0.512,30,[],[],"[(1117, 902)]",[],[1],[64],[1.0666666666666667],"[640.0, 512.0]",horizontal,"(390.0, 262.0)",[0.8333333333333334],[0.545],1,4047.293
10,False,565,1.202,72,[],[],"[(1118, 888)]",[],[1],[105],[1.75],"[640.0, 512.0]",vertical,"(390.0, 762.0)",[1.1666666666666667],[0.524],1,4050.698
10,False,566,1.292,77,[],[],"[(1148, 867)]",[],[1],[],[],"[640.0, 512.0]",vertical,"(390.0, 262.0)",[],[0],0,4055.12
10,False,567,1.076,64,[],[],"[(1099, 900)]",[],[1],[106],[1.7666666666666666],"[640.0, 512.0]",vertical,"(390.0, 762.0)",[1.1333333333333333],[0.686],1,4058.86
10,False,568,1.37,82,[],[],"[(1120, 890)]",[],[1],[115],[1.9166666666666667],"[640.0, 512.0]",vertical,"(390.0, 762.0)",[0.6166666666666667],[0.525],1,4063.292
10,False,569,1.184,71,[],[],"[(1088, 908)]",[],[1],[109],[1.8166666666666667],"[640.0, 512.0]",vertical,"(890.0, 762.0)",[1.4833333333333334],[0.604],1,4067.312
10,False,570,1.326,79,[],[],"[(1148, 897)]",[],[1],[113],[1.8833333333333333],"[640.0, 512.0]",horizontal,"(890.0, 762.0)",[0.5],[0.543],1,4072.125
10,False,571,0.739,44,[],[],"[(1133, 903)]",[],[1],[83],[1.3833333333333333],"[640.0, 512.0]",horizontal,"(890.0, 762.0)",[0.8666666666666667],[0.624],1,4075.98
10,False,572,1.43,85,[],[],"[(1151, 889)]",[],[1],[126],[2.1],"[640.0, 512.0]",horizontal,"(390.0, 262.0)",[1.3],[0.656],1,4079.741
10,False,573,0.404,24,[],[],"[(1168, 884)]",[],[1],[60],[1.0],"[640.0, 512.0]",horizontal,"(890.0, 762.0)",[0.8],[0.578],1,4084.645
10,False,574,1.093,65,[],[],"[(1160, 897)]",[],[1],[110],[1.8333333333333333],"[640.0, 512.0]",horizontal,"(890.0, 262.0)",[0.7],[0.717],1,4087.947
10,False,575,0.332,19,[],[],"[(1152, 872)]",[],[1],[56],[0.9333333333333333],"[640.0, 512.0]",vertical,"(390.0, 762.0)",[1.4],[0.592],1,4091.939
10,False,576,1.067,64,[],[],"[(1088, 899)]",[],[1],[103],[1.7166666666666666],"[640.0, 512.0]",horizontal,"(890.0, 762.0)",[1.1333333333333333],[0.62],1,4095.777
10,False,577,1.388,83,[],[],"[(1114, 876)]",[],[1],[116],[1.9333333333333333],"[640.0, 512.0]",vertical,"(390.0, 762.0)",[0.7833333333333333],[0.523],1,4100.117
10,False,578,1.024,61,[],[],"[(1112, 878)]",[],[1],[95],[1.5833333333333333],"[640.0, 512.0]",vertical,"(390.0, 762.0)",[0.5166666666666666],[0.538],1,4104.387
10,False,579,0.55,33,[],[],"[(1087, 880)]",[],[1],[67],[1.1166666666666667],"[640.0, 512.0]",horizontal,"(890.0, 262.0)",[1.1333333333333333],[0.548],1,4107.997
10,False,580,1.225,73,[],[],"[(1154, 872)]",[],[1],[107],[1.7833333333333332],"[640.0, 512.0]",horizontal,"(390.0, 762.0)",[1.4333333333333333],[0.545],1,4111.847
10,False,581,1.077,64,[],[],"[(1103, 879)]",[],[1],[99],[1.65],"[640.0, 512.0]",horizontal,"(890.0, 262.0)",[1.4166666666666667],[0.559],1,4116.529
10,False,582,0.498,29,[],[],"[(1087, 903)]",[],[1],[62],[1.0333333333333332],"[640.0, 512.0]",vertical,"(890.0, 762.0)",[1.35],[0.523],1,4121.217
10,False,583,0.466,27,[],[],"[(1094, 896)]",[],[1],[58],[0.9666666666666667],"[640.0, 512.0]",vertical,"(890.0, 262.0)",[1.0833333333333333],[0.493],1,4125.14
10,False,584,0.618,37,[],[],"[(1080, 898)]",[],[1],[72],[1.2],"[640.0, 512.0]",vertical,"(390.0, 262.0)",[1.05],[0.559],1,4128.702
10,False,585,1.367,82,[],[],"[(1136, 903)]",[],[1],[113],[1.8833333333333333],"[640.0, 512.0]",horizontal,"(390.0, 762.0)",[1.3],[0.502],1,4132.512
10,False,586,1.107,66,[],[],"[(1113, 881)]",[],[1],[],[],"[640.0, 512.0]",vertical,"(890.0, 262.0)",[],[0],0,4137.158
10,False,587,1.079,64,[],[],"[(1105, 886)]",[],[1],[104],[1.7333333333333334],"[640.0, 512.0]",horizontal,"(890.0, 762.0)",[1.0666666666666667],[0.642],1,4141.156
10,False,588,0.309,18,[],[],"[(1113, 879)]",[],[1],[52],[0.8666666666666667],"[640.0, 512.0]",horizontal,"(890.0, 262.0)",[1.05],[0.541],1,4146.141
10,False,589,1.252,75,[],[],"[(1148, 888)]",[],[1],[87],[1.45],"[640.0, 512.0]",vertical,"(890.0, 262.0)",[1.6166666666666667],[0.185],1,4149.541
10,False,590,0.726,43,[],[],"[(1114, 884)]",[],[1],[75],[1.25],"[640.0, 512.0]",vertical,"(390.0, 762.0)",[1.5333333333333332],[0.512],1,4154.132
10,False,591,1.163,69,[],[],"[(1106, 872)]",[],[1],[101],[1.6833333333333333],"[640.0, 512.0]",vertical,"(390.0, 762.0)",[0.6666666666666666],[0.514],1,4185.876
10,False,592,0.911,54,[],[],"[(1099, 890)]",[],[1],[87],[1.45],"[640.0, 512.0]",horizontal,"(890.0, 762.0)",[0.8],[0.528],1,4189.731
10,False,593,1.202,72,[],[],"[(1101, 898)]",[],[1],[106],[1.7666666666666666],"[640.0, 512.0]",horizontal,"(390.0, 262.0)",[1.2666666666666666],[0.541],1,4193.478
10,False,594,0.828,49,[],[],"[(1127, 897)]",[],[1],[85],[1.4166666666666667],"[640.0, 512.0]",vertical,"(390.0, 262.0)",[0.6166666666666667],[0.574],1,4198.008
10,False,595,0.45,27,[],[],"[(1099, 899)]",[],[1],[60],[1.0],"[640.0, 512.0]",vertical,"(390.0, 762.0)",[1.3],[0.525],1,4201.53
10,False,596,0.342,20,[],[],"[(1100, 892)]",[],[1],[57],[0.95],"[640.0, 512.0]",vertical,"(890.0, 762.0)",[0.5166666666666666],[0.593],1,4205.307
10,False,597,1.196,71,[],[],"[(1099, 893)]",[],[1],[105],[1.75],"[640.0, 512.0]",vertical,"(390.0, 762.0)",[1.0833333333333333],[0.548],1,4208.43
10,False,598,1.108,66,[],[],"[(1080, 865)]",[],[1],[100],[1.6666666666666667],"[640.0, 512.0]",horizontal,"(390.0, 762.0)",[1.25],[0.541],1,4212.779
10,False,599,0.757,45,[],[],"[(1153, 896)]",[],[1],[82],[1.3666666666666667],"[640.0, 512.0]",vertical,"(390.0, 262.0)",[1.6166666666666667],[0.591],1,4217.297
10,False,600,0.628,37,[],[],"[(1080, 893)]",[],[1],[70],[1.1666666666666667],"[640.0, 512.0]",horizontal,"(390.0, 762.0)",[1.4666666666666666],[0.527],1,4221.758
11,False,601,0.858,51,[],[],"[(1110, 875)]",[],[1],[82],[1.3666666666666667],"[640.0, 512.0]",vertical,"(890.0, 262.0)",[1.6333333333333333],[0.498],1,4225.917
11,False,602,0.377,22,[],[],"[(1097, 892)]",[],[1],[58],[0.9666666666666667],"[640.0, 512.0]",vertical,"(390.0, 762.0)",[1.55],[0.576],1,4230.433
11,False,603,0.855,51,[],[],"[(1078, 866)]",[],[1],[91],[1.5166666666666666],"[640.0, 512.0]",vertical,"(390.0, 762.0)",[1.1166666666666667],[0.638],1,4234.44
11,False,604,1.463,87,[],[],"[(1111, 900)]",[],[1],[121],[2.0166666666666666],"[640.0, 512.0]",horizontal,"(890.0, 762.0)",[1.4833333333333334],[0.543],1,4238.64
11,False,605,1.434,86,[],[],"[(1142, 873)]",[],[1],[118],[1.9666666666666666],"[640.0, 512.0]",vertical,"(390.0, 262.0)",[0.7666666666666666],[0.509],1,4243.643
11,False,606,1.482,88,[],[],"[(1148, 899)]",[],[1],[127],[2.1166666666666667],"[640.0, 512.0]",horizontal,"(890.0, 762.0)",[0.5166666666666666],[0.628],1,4247.869
11,False,607,1.304,78,[],[],"[(1149, 888)]",[],[1],[111],[1.8499999999999999],"[640.0, 512.0]",horizontal,"(890.0, 262.0)",[1.6833333333333333],[0.523],1,4252.027
11,False,608,0.811,48,[],[],"[(1148, 901)]",[],[1],[74],[1.2333333333333334],"[640.0, 512.0]",vertical,"(890.0, 262.0)",[1.6666666666666667],[0.409],1,4257.032
11,False,609,0.452,27,[],[],"[(1178, 883)]",[],[1],[77],[1.2833333333333332],"[640.0, 512.0]",horizontal,"(390.0, 262.0)",[1.5833333333333333],[0.81],0,4261.466
11,False,610,1.341,80,[],[],"[(1172, 880)]",[],[1],[117],[1.95],"[640.0, 512.0]",vertical,"(390.0, 762.0)",[0.5833333333333334],[0.59],1,4265.769
11,False,611,1.165,69,[],[],"[(1121, 900)]",[],[1],[101],[1.6833333333333333],"[640.0, 512.0]",horizontal,"(890.0, 262.0)",[1.1166666666666667],[0.506],1,4269.803
11,False,612,0.877,52,[],[],"[(1153, 893)]",[],[1],[87],[1.45],"[640.0, 512.0]",horizontal,"(890.0, 762.0)",[0.7833333333333333],[0.559],1,4274.134
11,False,613,0.496,29,[],[],"[(1105, 897)]",[],[1],[63],[1.05],"[640.0, 512.0]",vertical,"(890.0, 262.0)",[0.5833333333333334],[0.543],1,4277.845
11,False,614,1.188,71,[],[],"[(1113, 903)]",[],[1],[105],[1.75],"[640.0, 512.0]",horizontal,"(890.0, 762.0)",[1.0166666666666666],[0.546],1,4281.071
11,False,615,0.895,53,[],[],"[(1118, 897)]",[],[1],[83],[1.3833333333333333],"[640.0, 512.0]",horizontal,"(890.0, 262.0)",[1.05],[0.48],1,4285.478
11,False,616,1.473,88,[],[],"[(1141, 875)]",[],[1],[120],[2.0],"[640.0, 512.0]",vertical,"(390.0, 762.0)",[1.2],[0.509],1,4289.393
11,False,617,1.391,83,[],[],"[(1087, 881)]",[],[1],[126],[2.1],"[640.0, 512.0]",horizontal,"(890.0, 262.0)",[1.0166666666666666],[0.695],1,4294.082
11,False,618,0.925,55,[],[],"[(1102, 927)]",[],[1],[90],[1.5],"[640.0, 512.0]",horizontal,"(890.0, 762.0)",[1.5166666666666666],[0.558],1,4298.801
11,False,619,0.804,48,[],[],"[(1109, 880)]",[],[1],[81],[1.35],"[640.0, 512.0]",horizontal,"(890.0, 262.0)",[1.2833333333333332],[0.528],1,4303.393
11,False,620,0.543,32,[],[],"[(1138, 873)]",[],[1],[66],[1.1],"[640.0, 512.0]",horizontal,"(890.0, 762.0)",[1.1666666666666667],[0.542],1,4307.573
11,False,621,1.263,75,[],[],"[(1077, 900)]",[],[1],[105],[1.75],"[640.0, 512.0]",vertical,"(890.0, 262.0)",[1.5],[0.481],1,4311.336
11,False,622,0.795,47,[],[],"[(1105, 897)]",[],[1],[80],[1.3333333333333333],"[640.0, 512.0]",vertical,"(390.0, 762.0)",[0.7833333333333333],[0.526],1,4316.179
11,False,623,0.629,37,[],[],"[(1124, 900)]",[],[1],[70],[1.1666666666666667],"[640.0, 512.0]",vertical,"(390.0, 762.0)",[1.3],[0.523],1,4319.799
11,False,624,1.096,65,[],[],"[(1142, 897)]",[],[1],[115],[1.9166666666666667],"[640.0, 512.0]",vertical,"(890.0, 762.0)",[0.7333333333333333],[0.807],0,4323.792
11,False,625,0.638,38,[],[],"[(1138, 896)]",[],[1],[88],[1.4666666666666666],"[640.0, 512.0]",horizontal,"(890.0, 762.0)",[0.5666666666666667],[0.801],0,4327.897
11,False,626,0.876,52,[],[],"[(1160, 894)]",[],[1],[97],[1.6166666666666667],"[640.0, 512.0]",vertical,"(390.0, 762.0)",[1.4],[0.722],1,4350.124
11,False,627,1.125,67,[],[],"[(1130, 889)]",[],[1],[105],[1.75],"[640.0, 512.0]",vertical,"(390.0, 762.0)",[0.85],[0.61],1,4354.691
11,False,628,0.903,54,[],[],"[(1105, 903)]",[],[1],[92],[1.5333333333333332],"[640.0, 512.0]",horizontal,"(890.0, 762.0)",[1.1333333333333333],[0.605],1,4358.807
11,False,629,1.499,89,[],[],"[(1142, 896)]",[],[1],[122],[2.033333333333333],"[640.0, 512.0]",horizontal,"(390.0, 762.0)",[1.6166666666666667],[0.533],1,4363.053
11,False,630,1.104,66,[],[],"[(1123, 892)]",[],[1],[98],[1.6333333333333333],"[640.0, 512.0]",horizontal,"(890.0, 262.0)",[1.25],[0.506],1,4368.247
11,False,631,0.362,21,[],[],"[(1126, 882)]",[],[1],[54],[0.9],"[640.0, 512.0]",vertical,"(390.0, 262.0)",[1.05],[0.528],1,4372.632
11,False,632,0.354,21,[],[],"[(1123, 894)]",[],[1],[53],[0.8833333333333333],"[640.0, 512.0]",vertical,"(890.0, 262.0)",[1.6166666666666667],[0.512],1,4376.098
11,False,633,0.657,39,[],[],"[(1142, 888)]",[],[1],[73],[1.2166666666666666],"[640.0, 512.0]",horizontal,"(390.0, 262.0)",[1.2666666666666666],[0.548],1,4380.128
11,False,634,0.774,46,[],[],"[(1129, 894)]",[],[1],[82],[1.3666666666666667],"[640.0, 512.0]",horizontal,"(890.0, 762.0)",[0.9333333333333333],[0.577],1,4384.109
11,False,635,1.423,85,[],[],"[(1136, 892)]",[],[1],[119],[1.9833333333333334],"[640.0, 512.0]",vertical,"(890.0, 762.0)",[0.6166666666666667],[0.542],1,4387.878
11,False,636,1.119,67,[],[],"[(1133, 893)]",[],[1],[100],[1.6666666666666667],"[640.0, 512.0]",vertical,"(890.0, 762.0)",[0.9833333333333333],[0.524],1,4391.986
11,False,637,0.52,31,[],[],"[(1142, 894)]",[],[1],[67],[1.1166666666666667],"[640.0, 512.0]",vertical,"(390.0, 262.0)",[0.5166666666666666],[0.573],1,4396.13
11,False,638,1.108,66,[],[],"[(1142, 885)]",[],[1],[96],[1.6],"[640.0, 512.0]",vertical,"(890.0, 262.0)",[1.4166666666666667],[0.475],1,4399.264
11,False,639,0.656,39,[],[],"[(1145, 868)]",[],[1],[75],[1.25],"[640.0, 512.0]",horizontal,"(390.0, 262.0)",[1.4166666666666667],[0.577],1,4403.823
11,False,640,1.253,75,[],[],"[(1149, 871)]",[],[1],[106],[1.7666666666666666],"[640.0, 512.0]",vertical,"(890.0, 262.0)",[1.0333333333333332],[0.491],1,4408.01
11,False,641,0.811,48,[],[],"[(1103, 876)]",[],[1],[80],[1.3333333333333333],"[640.0, 512.0]",horizontal,"(890.0, 762.0)",[1.1],[0.512],1,4412.311
11,False,642,1.493,89,[],[],"[(1134, 896)]",[],[1],[122],[2.033333333333333],"[640.0, 512.0]",vertical,"(390.0, 762.0)",[0.5833333333333334],[0.525],1,4416.28
11,False,643,0.784,47,[],[],"[(1113, 885)]",[],[1],[86],[1.4333333333333333],"[640.0, 512.0]",horizontal,"(390.0, 762.0)",[0.5166666666666666],[0.62],1,4420.414
11,False,644,0.667,40,[],[],"[(1138, 893)]",[],[1],[80],[1.3333333333333333],"[640.0, 512.0]",vertical,"(890.0, 762.0)",[0.95],[0.639],1,4423.898
11,False,645,1.041,62,[],[],"[(1135, 902)]",[],[1],[101],[1.6833333333333333],"[640.0, 512.0]",horizontal,"(890.0, 262.0)",[0.7166666666666667],[0.623],1,4427.674
11,False,646,0.818,49,[],[],"[(1136, 893)]",[],[1],[83],[1.3833333333333333],"[640.0, 512.0]",horizontal,"(890.0, 762.0)",[0.6],[0.543],1,4431.557
11,False,647,1.326,79,[],[],"[(1135, 913)]",[],[1],[111],[1.8499999999999999],"[640.0, 512.0]",vertical,"(390.0, 262.0)",[1.2],[0.511],1,4435.064
11,False,648,0.553,33,[],[],"[(1145, 898)]",[],[1],[83],[1.3833333333333333],"[640.0, 512.0]",vertical,"(890.0, 762.0)",[1.5166666666666666],[0.807],0,4439.597
11,False,649,1.364,81,[],[],"[(1117, 875)]",[],[1],[130],[2.1666666666666665],"[640.0, 512.0]",horizontal,"(390.0, 262.0)",[0.6333333333333333],[0.79],1,4443.991
11,False,650,0.996,59,[],[],"[(1095, 874)]",[],[1],[93],[1.55],"[640.0, 512.0]",vertical,"(890.0, 262.0)",[1.3833333333333333],[0.545],1,4448.729
11,False,651,1.416,84,[],[],"[(1130, 889)]",[],[1],[118],[1.9666666666666666],"[640.0, 512.0]",vertical,"(890.0, 762.0)",[1.3666666666666667],[0.537],1,4453.145
11,False,652,0.71,42,[],[],"[(1110, 897)]",[],[1],[80],[1.3333333333333333],"[640.0, 512.0]",horizontal,"(890.0, 762.0)",[1.2166666666666666],[0.603],1,4457.938
11,False,653,1.415,84,[],[],"[(1118, 886)]",[],[1],[134],[2.2333333333333334],"[640.0, 512.0]",horizontal,"(390.0, 262.0)",[0.5],[0.804],0,4462.034
11,False,654,0.808,48,[],[],"[(1184, 877)]",[],[1],[78],[1.3],"[640.0, 512.0]",horizontal,"(890.0, 262.0)",[1.45],[0.474],1,4466.237
11,False,655,0.881,52,[],[],"[(1166, 876)]",[],[1],[91],[1.5166666666666666],"[640.0, 512.0]",horizontal,"(890.0, 762.0)",[1.2],[0.619],1,4470.497
11,False,656,1.181,70,[],[],"[(1160, 876)]",[],[1],[106],[1.7666666666666666],"[640.0, 512.0]",vertical,"(390.0, 762.0)",[0.8333333333333334],[0.568],1,4474.715
11,False,657,1.218,73,[],[],"[(1157, 889)]",[],[1],[106],[1.7666666666666666],"[640.0, 512.0]",vertical,"(390.0, 762.0)",[1.0333333333333332],[0.521],1,4478.824
11,False,658,0.35,21,[],[],"[(1141, 903)]",[],[1],[58],[0.9666666666666667],"[640.0, 512.0]",vertical,"(390.0, 262.0)",[1.6333333333333333],[0.594],1,4483.092
11,False,659,0.917,55,[],[],"[(1140, 869)]",[],[1],[87],[1.45],"[640.0, 512.0]",vertical,"(390.0, 262.0)",[1.6],[0.515],1,4487.256
11,False,660,0.5,30,[],[],"[(1133, 875)]",[],[1],[61],[1.0166666666666666],"[640.0, 512.0]",vertical,"(390.0, 262.0)",[1.2166666666666666],[0.492],1,4491.829
12,False,661,0.38,22,[],[],"[(1123, 886)]",[],[1],[56],[0.9333333333333333],"[640.0, 512.0]",horizontal,"(890.0, 762.0)",[1.0],[0.541],1,4495.565
12,False,662,0.602,36,[],[],"[(1148, 882)]",[],[1],[73],[1.2166666666666666],"[640.0, 512.0]",horizontal,"(390.0, 262.0)",[1.6833333333333333],[0.596],1,4499.027
12,False,663,0.783,46,[],[],"[(1159, 886)]",[],[1],[80],[1.3333333333333333],"[640.0, 512.0]",horizontal,"(890.0, 762.0)",[0.9],[0.541],1,4503.444
12,False,664,0.411,24,[],[],"[(1136, 870)]",[],[1],[59],[0.9833333333333333],"[640.0, 512.0]",horizontal,"(390.0, 262.0)",[1.5833333333333333],[0.557],1,4507.226
