block,trial,trial_type,taps_start_loc_during_fix,taps_end_loc_during_fix,taps_on_lever_during_fix,taps_on_lever_s_during_fix,bar_orientation,target_xy,cti,rt,acc,time,pulses,fa_rate_recent100,actual_invalid_type
0,1,valid,"[(1112, 814)]",[],[1],[0.3833333333333333],horizontal,"(890.0, 762.0)",0.6666666666666666,0.353,1,0.612,1,0.0,same
0,2,valid,"[(1111, 842)]",[],[1],[0.5333333333333333],vertical,"(390.0, 262.0)",1.45,0.49,1,71.653,1,0.0,same
0,3,valid,"[(1137, 769)]",[],[1],[0.85],horizontal,"(890.0, 262.0)",1.3,nan,0,499.164,0,0.0,same
0,4,valid,"[(1085, 860)]",[],[1],[0.85],vertical,"(890.0, 762.0)",0.8666666666666667,nan,0,504.466,0,0.0,same
0,5,valid,"[(1131, 813)]",[],[1],[0.85],horizontal,"(390.0, 762.0)",0.8166666666666667,nan,0,1769.734,0,0.0,same
0,6,valid,"[(1130, 813)]",[],[1],[0.85],horizontal,"(890.0, 762.0)",0.5166666666666666,nan,0,1774.546,0,0.0,same
0,7,catch,"[(1133, 792)]",[],[1],[],horizontal,"(890.0, 762.0)",1.7,nan,1,1779.145,1,0.0,same
0,8,catch,"[(1128, 779)]",[],[1],[],horizontal,"(890.0, 262.0)",1.7,nan,1,1784.019,1,0.0,same
0,9,valid,"[(1161, 784)]",[],[1],[0.7666666666666666],vertical,"(890.0, 262.0)",0.6166666666666667,0.727,1,1789.053,1,0.0,same
0,10,valid,"[(1140, 801)]",[],[1],[0.85],horizontal,"(390.0, 762.0)",0.9666666666666667,nan,0,1794.113,0,0.0,same
0,11,valid,"[(1160, 785)]",[],[1],[0.4666666666666667],horizontal,"(390.0, 262.0)",0.48333333333333334,0.434,1,1799.118,1,0.0,same
0,12,catch,"[(1170, 775)]",[],[1],[],vertical,"(890.0, 762.0)",1.7,nan,1,1804.009,1,0.0,same
0,13,valid,"[(1161, 789)]",[],[1],[0.43333333333333335],vertical,"(890.0, 262.0)",0.5833333333333334,0.397,1,1809.468,1,0.0,same
0,14,valid,"[(1166, 792)]",[],[1],[0.48333333333333334],horizontal,"(890.0, 762.0)",1.35,0.449,1,1814.219,2,0.0,same
0,15,catch,"[(1187, 783)]",[],[1],[],horizontal,"(890.0, 762.0)",1.7,nan,1,1820.335,2,0.0,same
0,16,valid,"[(1125, 804)]",[],[1],[0.45],vertical,"(390.0, 262.0)",1.5166666666666666,0.413,1,1825.988,2,0.0,same
0,17,valid,"[(1150, 789)]",[],[1],[0.5166666666666666],vertical,"(890.0, 262.0)",1.4166666666666667,0.486,1,1832.205,3,0.0,same
0,18,catch,"[(1115, 878)]",[],[1],[],vertical,"(390.0, 262.0)",1.7,nan,1,1838.735,3,0.0,same
0,19,catch,"[(1137, 776)]",[],[1],[],vertical,"(890.0, 262.0)",1.7,nan,1,1845.702,3,0.0,same
0,20,valid,"[(1167, 791)]",[],[1],[0.45],horizontal,"(890.0, 262.0)",1.3833333333333333,0.414,1,1851.552,3,0.0,same
0,21,valid,"[(1165, 777)]",[],[1],[0.4666666666666667],horizontal,"(390.0, 262.0)",0.8166666666666667,0.428,1,1857.464,3,0.0,same
0,22,catch,"[(1169, 774)]",[],[1],[],vertical,"(390.0, 262.0)",1.7,nan,1,1862.742,3,0.0,same
0,23,catch,"[(1135, 785)]",[],[1],[],vertical,"(890.0, 262.0)",,"('cti', 1.475),nan",0,1868.494,0,0.043478260869565216,same
0,24,valid,"[(1166, 800)]",[],[1],[0.7166666666666667],horizontal,"(390.0, 762.0)",1.25,0.676,1,1872.92,1,0.041666666666666664,same
0,25,invalid_same_bar,"[(1165, 790)]","[(1132, 840)]",[1],[0.03333333333333333],vertical,"(390.0, 262.0)",,"('bar', 0.05)",0,1878.137,0,0.04,same
0,26,invalid_same_bar,"[(1102, 803)]",[],[1],[0.5],vertical,"(890.0, 762.0)",0.75,0.46,1,1880.319,1,0.038461538461538464,same
0,27,valid,"[(1125, 798)]",[],[1],[],horizontal,"(390.0, 762.0)",,"('cti', 1.222)",0,1885.328,0,0.037037037037037035,same
0,28,valid,"[(1160, 786)]",[],[1],[0.6],vertical,"(390.0, 762.0)",0.5,0.557,1,1890.094,1,0.03571428571428571,same
0,29,catch,"[(1160, 785)]",[],[1],[],horizontal,"(390.0, 262.0)",1.7,nan,1,1894.481,1,0.034482758620689655,same
0,30,catch,"[(1157, 812)]",[],[1],[],horizontal,"(890.0, 262.0)",1.7,nan,1,1899.737,1,0.03333333333333333,same
0,31,valid,"[(1160, 794)]",[],[1],[0.48333333333333334],vertical,"(390.0, 262.0)",0.7,0.446,1,1904.652,2,0.03225806451612903,same
0,32,valid,"[(1160, 781)]",[],[1],[0.48333333333333334],horizontal,"(390.0, 762.0)",1.1833333333333333,0.438,1,1909.92,2,0.03125,same
0,33,catch,"[(1160, 769)]",[],[1],[],vertical,"(390.0, 762.0)",1.7,nan,1,1915.072,2,0.030303030303030304,same
0,34,valid,"[(1158, 799)]",[],[1],[0.4666666666666667],vertical,"(890.0, 762.0)",0.5166666666666666,0.426,1,1921.086,3,0.029411764705882353,same
0,35,valid,"[(1163, 785)]",[],[1],[0.85],horizontal,"(890.0, 262.0)",0.8,nan,0,1926.961,0,0.02857142857142857,same
0,36,catch,"[(1130, 796)]",[],[1],[],vertical,"(890.0, 262.0)",1.7,nan,1,1931.119,1,0.027777777777777776,same
0,37,valid,"[(1125, 827)]",[],[1],[0.43333333333333335],vertical,"(890.0, 262.0)",1.3666666666666667,0.391,1,1936.635,1,0.02702702702702703,same
0,38,valid,"[(1158, 800)]",[],[1],[0.6333333333333333],vertical,"(890.0, 262.0)",0.9166666666666666,0.592,1,1942.124,1,0.02631578947368421,same
0,39,catch,"[(1170, 789)]",[],[1],[],vertical,"(890.0, 762.0)",1.7,nan,1,1947.447,2,0.02564102564102564,same
0,40,catch,"[(1158, 798)]",[],[1],[],vertical,"(390.0, 262.0)",1.7,nan,1,1952.748,2,0.025,same
0,41,valid,"[(1158, 803)]",[],[1],[0.48333333333333334],vertical,"(390.0, 262.0)",0.6,0.442,1,1958.421,2,0.024390243902439025,same
0,42,invalid_same_bar,"[(1130, 809)]",[],[1],[0.4666666666666667],vertical,"(890.0, 762.0)",1.05,0.429,1,1963.337,3,0.023809523809523808,same
0,43,valid,"[(1144, 782)]",[],[1],[0.7166666666666667],horizontal,"(890.0, 762.0)",0.5833333333333334,0.668,1,1969.403,3,0.023255813953488372,same
0,44,catch,"[(1153, 779)]",[],[1],[],vertical,"(390.0, 262.0)",1.7,nan,1,1974.704,3,0.022727272727272728,same
0,45,valid,"[(1140, 780)]",[],[1],[0.48333333333333334],horizontal,"(390.0, 762.0)",0.5666666666666667,0.446,1,1980.72,3,0.022222222222222223,same
0,46,catch,"[(1136, 770)]",[],[1],[],horizontal,"(390.0, 762.0)",1.7,nan,1,1986.309,3,0.021739130434782608,same
0,47,valid,"[(1150, 770)]",[],[1],[0.45],horizontal,"(890.0, 762.0)",1.5166666666666666,0.409,1,1992.237,3,0.02127659574468085,same
0,48,catch,"[(1158, 773)]",[],[1],[],horizontal,"(890.0, 762.0)",1.7,nan,1,1998.576,3,0.020833333333333332,same
0,49,valid,"[(1150, 772)]",[],[1],[0.6],vertical,"(890.0, 262.0)",0.7,0.568,1,2005.008,3,0.02040816326530612,same
0,50,invalid_adjacent_other_bar,"[(1157, 782)]",[],[1],[0.85],horizontal,"(390.0, 762.0)",0.4,nan,0,2010.253,0,0.02,other
0,51,catch,"[(1089, 834)]",[],[1],[],vertical,"(890.0, 762.0)",1.7,nan,1,2014.586,1,0.02,same
0,52,catch,"[(1135, 806)]",[],[1],[],vertical,"(890.0, 262.0)",1.7,nan,1,2027.42,1,0.02,same
0,53,valid,"[(1155, 791)]",[],[1],[0.5],vertical,"(390.0, 762.0)",0.8,0.464,1,2032.937,1,0.02,same
0,54,catch,"[(1125, 815)]",[],[1],[],vertical,"(390.0, 762.0)",1.7,nan,1,2037.676,2,0.02,same
0,55,valid,"[(1127, 813)]",[],[1],[0.5],horizontal,"(890.0, 762.0)",1.25,0.459,1,2043.566,2,0.02,same
0,56,catch,"[(1120, 812)]",[],[1],[],vertical,"(390.0, 762.0)",1.7,nan,1,2048.874,2,0.02,same
0,57,valid,"[(1127, 793)]",[],[1],[0.5166666666666666],horizontal,"(890.0, 762.0)",1.1,0.478,1,2054.87,3,0.02,same
0,58,valid,"[(1125, 792)]",[],[1],[0.85],horizontal,"(390.0, 262.0)",0.5166666666666666,nan,0,2061.299,0,0.02,same
0,59,valid,"[(1122, 789)]",[],[1],[0.55],horizontal,"(390.0, 762.0)",0.6333333333333333,0.505,1,2065.619,1,0.02,same
0,60,catch,"[(1113, 809)]",[],[1],[],vertical,"(890.0, 262.0)",,"('cti', 1.659),nan",0,2070.203,0,0.04,same
0,61,valid,"[(1123, 791)]",[],[1],[0.5],horizontal,"(890.0, 262.0)",0.6,0.465,1,2104.84,1,0.04,same
0,62,catch,"[(1135, 779)]",[],[1],[],vertical,"(390.0, 262.0)",1.7,nan,1,2109.382,1,0.04,same
0,63,valid,"[(1134, 773)]",[],[1],[0.5],horizontal,"(390.0, 262.0)",1.2333333333333334,0.467,1,2114.553,1,0.04,same
0,64,valid,"[(1134, 773)]",[],[1],[0.55],horizontal,"(390.0, 262.0)",1.45,0.507,1,2119.358,2,0.04,same
0,65,invalid_same_bar,"[(1150, 783)]",[],[1],[0.48333333333333334],horizontal,"(390.0, 262.0)",1.4666666666666666,0.451,1,2125.315,2,0.04,same
0,66,valid,"[(1139, 770)]",[],[1],[0.6],horizontal,"(390.0, 262.0)",1.0833333333333333,0.559,1,2131.037,2,0.04,same
0,67,catch,"[(1148, 776)]",[],[1],[],horizontal,"(890.0, 262.0)",1.7,nan,1,2136.406,3,0.04,same
0,68,valid,"[(1168, 802)]",[],[1],[0.55],vertical,"(890.0, 262.0)",0.85,0.508,1,2142.803,3,0.04,same
0,69,valid,"[(1136, 781)]",[],[1],[0.85],vertical,"(390.0, 262.0)",0.6,nan,0,2148.075,0,0.04,same
0,70,valid,"[(1139, 772)]",[],[1],[0.7],vertical,"(390.0, 262.0)",1.1333333333333333,0.656,1,2152.659,1,0.04,same
0,71,invalid_same_bar,"[(1187, 781)]",[],[1],[0.5666666666666667],vertical,"(390.0, 762.0)",1.45,0.526,1,2158.37,1,0.04,same
0,72,invalid_adjacent_other_bar,"[(1165, 803)]",[],[1],[0.85],horizontal,"(390.0, 762.0)",0.5333333333333333,nan,0,2164.127,0,0.04,other
0,73,valid,"[(1135, 804)]",[],[1],[0.4666666666666667],vertical,"(890.0, 762.0)",0.7833333333333333,0.43,1,2168.571,1,0.02,same
0,74,catch,"[(1165, 792)]",[],[1],[],horizontal,"(890.0, 762.0)",1.7,nan,1,2173.104,1,0.02,same
0,75,invalid_same_bar,"[(1159, 782)]",[],[1],[0.6333333333333333],horizontal,"(390.0, 762.0)",1.4666666666666666,0.584,1,2178.47,1,0.02,same
0,76,valid,"[(1125, 794)]",[],[1],[0.48333333333333334],horizontal,"(890.0, 262.0)",0.6333333333333333,0.441,1,2183.938,2,0.02,same
0,77,catch,"[(1135, 799)]",[],[1],[],vertical,"(390.0, 262.0)",1.7,nan,1,2189.103,2,0.02,same
0,78,valid,"[(1135, 805)]",[],[1],[0.48333333333333334],horizontal,"(890.0, 262.0)",0.8833333333333333,0.446,1,2194.854,2,0.02,same
0,79,catch,"[(1131, 789)]",[],[1],[],vertical,"(390.0, 262.0)",1.7,nan,1,2200.37,3,0.02,same
0,80,valid,"[(1131, 792)]",[],[1],[0.45],horizontal,"(890.0, 762.0)",1.5333333333333332,0.408,1,2206.57,3,0.02,same
0,81,valid,"[(1160, 779)]",[],[1],[0.48333333333333334],vertical,"(890.0, 262.0)",0.8166666666666667,0.442,1,2213.153,3,0.02,same
0,82,valid,"[(1158, 799)]",[],[1],[0.55],horizontal,"(890.0, 262.0)",0.5666666666666667,0.51,1,2218.879,3,0.02,same
0,83,invalid_adjacent_other_bar,"[(1125, 804)]",[],[1],[0.85],vertical,"(890.0, 762.0)",1.35,nan,0,2224.119,0,0.02,other
0,84,valid,"[(1125, 808)]",[],[1],[0.5166666666666666],horizontal,"(890.0, 762.0)",0.65,0.483,1,2229.786,1,0.02,same
0,85,invalid_same_bar,"[(1155, 792)]",[],[1],[0.6],vertical,"(390.0, 762.0)",1.4833333333333334,0.561,1,2234.55,1,0.02,same
0,86,catch,"[(1163, 778)]",[],[1],[],horizontal,"(890.0, 762.0)",,"('fix', 0.506),nan",0,2239.854,0,0.04,same
0,87,invalid_adjacent_other_bar,"[(1090, 794)]",[],[1],[0.4666666666666667],vertical,"(390.0, 262.0)",0.5,0.428,1,2241.688,1,0.04,other
0,88,valid,"[(1166, 806)]",[],[1],[0.5],vertical,"(390.0, 262.0)",1.2666666666666666,0.462,1,2246.337,1,0.04,same
0,89,valid,"[(1160, 779)]",[],[1],[0.48333333333333334],vertical,"(890.0, 262.0)",0.7,0.444,1,2251.749,1,0.04,same
0,90,invalid_adjacent_other_bar,"[(1155, 803)]",[],[1],[0.4666666666666667],vertical,"(890.0, 762.0)",0.6833333333333333,0.425,1,2256.779,2,0.04,other
0,91,valid,"[(1121, 829)]",[],[1],[0.5333333333333333],horizontal,"(390.0, 262.0)",0.7666666666666666,0.491,1,2261.721,2,0.04,same
0,92,catch,"[(1120, 809)]",[],[1],[],horizontal,"(890.0, 762.0)",1.7,nan,1,2267.054,2,0.04,same
0,93,valid,"[(1125, 799)]",[],[1],[0.5],vertical,"(890.0, 762.0)",0.6,0.462,1,2272.62,3,0.04,same
0,94,catch,"[(1165, 779)]",[],[1],[],horizontal,"(890.0, 262.0)",1.7,nan,1,2278.001,3,0.04,same
0,95,catch,"[(1170, 790)]",[],[1],[],horizontal,"(390.0, 262.0)",1.7,nan,1,2284.356,3,0.04,same
0,96,invalid_same_bar,"[(1213, 813)]",[],[1],[],vertical,"(890.0, 262.0)",,"('fix', 0.363)",0,2290.237,0,0.04,same
0,97,valid,"[(1123, 792)]",[],[1],[0.5],vertical,"(890.0, 762.0)",1.5333333333333332,0.463,1,2292.287,1,0.04,same
0,98,invalid_adjacent_other_bar,"[(1165, 796)]",[],[1],[0.85],horizontal,"(390.0, 262.0)",0.3833333333333333,nan,0,2298.108,0,0.04,other
0,99,valid,"[(1165, 791)]",[],[1],[0.4666666666666667],vertical,"(890.0, 762.0)",1.4,0.43,1,2302.153,1,0.04,same
0,100,catch,"[(1156, 798)]",[],[1],[],vertical,"(890.0, 762.0)",1.7,nan,1,2307.205,1,0.04,same
0,101,valid,"[(1165, 809)]",[],[1],[0.5166666666666666],vertical,"(890.0, 262.0)",1.4666666666666666,0.48,1,2312.586,1,0.04,same
0,102,invalid_adjacent_other_bar,"[(1153, 804)]",[],[1],[0.6166666666666667],vertical,"(890.0, 762.0)",1.0166666666666666,0.572,1,2317.85,2,0.04,other
0,103,valid,"[(1120, 808)]",[],[1],[0.6166666666666667],horizontal,"(390.0, 762.0)",1.3666666666666667,0.572,1,2323.267,2,0.04,same
0,104,invalid_adjacent_other_bar,"[(1125, 813)]",[],[1],[0.85],vertical,"(890.0, 262.0)",1.5333333333333332,nan,0,2328.948,0,0.04,other
0,105,valid,"[(1125, 837)]",[],[1],[0.85],vertical,"(890.0, 762.0)",0.8333333333333334,nan,0,2334.194,0,0.04,same
0,106,valid,"[(1155, 811)]",[],[1],[0.5333333333333333],vertical,"(890.0, 762.0)",0.9833333333333333,0.492,1,2434.854,1,0.04,same
0,107,valid,"[(1150, 797)]",[],[1],[0.5833333333333334],vertical,"(390.0, 762.0)",0.36666666666666664,0.538,1,2439.92,1,0.04,same
0,108,invalid_same_bar,"[(1120, 818)]",[],[1],[0.5833333333333334],vertical,"(890.0, 762.0)",1.3833333333333333,0.543,1,2444.506,1,0.04,same
0,109,valid,"[(1155, 803)]",[],[1],[0.55],horizontal,"(390.0, 762.0)",1.1333333333333333,0.505,1,2450.234,2,0.04,same
0,110,valid,"[(1138, 789)]",[],[1],[0.5666666666666667],vertical,"(890.0, 762.0)",1.5166666666666666,0.528,1,2455.867,2,0.02,same
0,111,valid,"[(1159, 803)]",[],[1],[0.5166666666666666],horizontal,"(890.0, 762.0)",0.7,0.472,1,2461.489,2,0.02,same
0,112,valid,"[(1154, 804)]",[],[1],[0.5666666666666667],horizontal,"(390.0, 762.0)",0.75,0.526,1,2466.753,3,0.02,same
0,113,valid,"[(1160, 794)]",[],[1],[0.5166666666666666],horizontal,"(390.0, 762.0)",1.3166666666666667,0.475,1,2472.772,3,0.02,same
0,114,valid,"[(1135, 794)]",[],[1],[0.55],horizontal,"(390.0, 762.0)",1.3,0.51,1,2478.955,3,0.02,same
0,115,valid,"[(1165, 791)]",[],[1],[0.48333333333333334],vertical,"(390.0, 262.0)",0.8666666666666667,0.45,1,2485.308,3,0.02,same
0,116,invalid_same_bar,"[(1165, 801)]",[],[1],[0.5166666666666666],horizontal,"(390.0, 762.0)",1.15,0.484,1,2490.805,3,0.02,same
0,117,catch,"[(1155, 803)]",[],[1],[],horizontal,"(890.0, 762.0)",1.7,nan,1,2496.721,3,0.02,same
0,118,valid,"[(1165, 816)]",[],[1],[0.85],horizontal,"(390.0, 262.0)",0.8,nan,0,2502.77,0,0.02,same
0,119,catch,"[(1109, 816)]",[],[1],[],vertical,"(890.0, 262.0)",1.7,nan,1,2507.005,1,0.02,same
0,120,valid,"[(1165, 794)]",[],[1],[0.48333333333333334],vertical,"(390.0, 762.0)",1.5,0.442,1,2512.668,1,0.02,same
0,121,catch,"[(1125, 842)]",[],[1],[],horizontal,"(390.0, 262.0)",1.7,nan,1,2518.315,1,0.02,same
0,122,valid,"[(1125, 783)]",[],[1],[0.55],horizontal,"(390.0, 762.0)",0.5333333333333333,0.512,1,2523.968,2,0.02,same
0,123,catch,"[(1124, 809)]",[],[1],[],vertical,"(390.0, 262.0)",1.7,nan,1,2528.971,2,0.02,same
0,124,valid,"[(1126, 806)]",[],[1],[0.5333333333333333],horizontal,"(890.0, 762.0)",1.4166666666666667,0.491,1,2534.822,2,0.02,same
0,125,valid,"[(1125, 827)]",[],[1],[0.48333333333333334],vertical,"(890.0, 762.0)",1.2833333333333332,0.444,1,2540.904,3,0.02,same
0,126,catch,"[(1165, 802)]",[],[1],[],horizontal,"(890.0, 262.0)",1.7,nan,1,2547.089,3,0.02,same
0,127,valid,"[(1125, 829)]",[],[1],[0.5166666666666666],horizontal,"(390.0, 262.0)",1.2833333333333332,0.481,1,2553.416,3,0.02,same
0,128,valid,"[(1161, 790)]",[],[1],[0.5166666666666666],horizontal,"(890.0, 762.0)",1.5333333333333332,0.476,1,2559.654,3,0.02,same
0,129,valid,"[(1160, 802)]",[],[1],[0.85],vertical,"(390.0, 262.0)",0.36666666666666664,nan,0,2566.238,0,0.02,same
0,130,invalid_adjacent_other_bar,"[(1141, 809)]",[],[1],[0.85],vertical,"(390.0, 262.0)",1.3166666666666667,nan,0,2570.375,0,0.02,other
0,131,valid,"[(1125, 828)]",[],[1],[0.85],vertical,"(390.0, 262.0)",0.5666666666666667,nan,0,2575.339,0,0.02,same
0,132,catch,"[(1115, 833)]",[],[1],[],vertical,"(890.0, 262.0)",1.7,nan,1,2593.639,1,0.02,same
0,133,valid,"[(1182, 799)]",[],[1],[0.5],vertical,"(890.0, 262.0)",0.7666666666666666,0.467,1,2599.156,1,0.02,same
0,134,catch,"[(1160, 784)]",[],[1],[],vertical,"(390.0, 262.0)",1.7,nan,1,2604.188,1,0.02,same
0,135,valid,"[(1165, 805)]",[],[1],[0.85],vertical,"(890.0, 262.0)",1.1166666666666667,nan,0,2609.571,0,0.02,same
0,136,valid,"[(1080, 794)]",[],[1],[0.6],vertical,"(390.0, 762.0)",0.45,0.562,1,2614.593,1,0.0,same
0,137,valid,"[(1165, 799)]",[],[1],[],vertical,"(390.0, 262.0)",,"('fix', 0.41)",0,2619.335,0,0.0,same
0,138,invalid_same_bar,"[(1156, 785)]",[],[1],[0.48333333333333334],horizontal,"(890.0, 762.0)",1.35,0.44,1,2621.274,1,0.0,same
0,139,invalid_same_bar,"[(1138, 778)]",[],[1],[0.45],horizontal,"(890.0, 262.0)",1.35,0.411,1,2626.556,1,0.0,same
0,140,valid,"[(1165, 794)]",[],[1],[0.5333333333333333],vertical,"(890.0, 762.0)",0.45,0.49,1,2631.894,1,0.0,same
0,141,valid,"[(1155, 809)]",[],[1],[0.4666666666666667],vertical,"(890.0, 762.0)",1.0,0.427,1,2636.483,2,0.0,same
0,142,valid,"[(1147, 793)]",[],[1],[0.5],vertical,"(390.0, 262.0)",0.7833333333333333,0.461,1,2641.885,2,0.0,same
0,143,valid,"[(1135, 792)]",[],[1],[0.5],vertical,"(890.0, 762.0)",1.3333333333333333,0.468,1,2647.007,2,0.0,same
0,144,valid,"[(1150, 828)]",[],[1],[0.5],vertical,"(890.0, 762.0)",1.1166666666666667,0.464,1,2653.12,3,0.0,same
0,145,catch,"[(1161, 776)]",[],[1],[],vertical,"(390.0, 762.0)",1.7,nan,1,2659.689,3,0.0,same
0,146,valid,"[(1133, 795)]",[],[1],[0.5666666666666667],vertical,"(890.0, 762.0)",1.5333333333333332,0.524,1,2665.939,3,0.0,same
0,147,invalid_adjacent_other_bar,"[(1160, 807)]",[],[1],[0.5666666666666667],vertical,"(390.0, 762.0)",0.45,0.535,1,2672.131,3,0.0,other
0,148,valid,"[(1159, 810)]",[],[1],[0.48333333333333334],horizontal,"(890.0, 262.0)",1.0166666666666666,0.451,1,2677.711,3,0.0,same
0,149,catch,"[(1160, 779)]",[],[1],[],vertical,"(890.0, 762.0)",1.7,nan,1,2683.538,3,0.0,same
0,150,valid,"[(1160, 786)]",[],[1],[0.5],horizontal,"(390.0, 762.0)",1.5166666666666666,0.466,1,2689.164,3,0.0,same
0,151,valid,"[(1131, 774)]",[],[1],[0.5833333333333334],horizontal,"(390.0, 262.0)",0.8666666666666667,0.547,1,2695.404,3,0.0,same
0,152,valid,"[(1135, 818)]",[],[1],[0.4666666666666667],vertical,"(390.0, 262.0)",1.1333333333333333,0.428,1,2701.039,3,0.0,same
0,153,valid,"[(1194, 804)]","[(1167, 815)]",[1],[0.05],horizontal,"(390.0, 762.0)",,"('bar', 0.067)",0,2706.614,0,0.0,same
0,154,catch,"[(1140, 819)]",[],[1],[],vertical,"(890.0, 262.0)",1.7,nan,1,2708.805,1,0.0,same
0,155,valid,"[(1141, 798)]",[],[1],[0.45],horizontal,"(390.0, 262.0)",0.6666666666666666,0.418,1,2714.341,1,0.0,same
0,156,invalid_adjacent_other_bar,"[(1164, 783)]",[],[1],[0.6166666666666667],horizontal,"(890.0, 262.0)",0.75,0.585,1,2718.963,1,0.0,other
0,157,valid,"[(1160, 804)]",[],[1],[0.85],horizontal,"(390.0, 762.0)",0.6,nan,0,2723.418,0,0.0,same
0,158,catch,"[(1160, 801)]",[],[1],[],horizontal,"(890.0, 262.0)",1.7,nan,1,2727.805,1,0.0,same
0,159,valid,"[(1150, 774)]",[],[1],[0.5833333333333334],vertical,"(390.0, 762.0)",0.7666666666666666,0.548,1,2732.744,1,0.0,same
0,160,valid,"[(1130, 794)]",[],[1],[0.45],vertical,"(890.0, 262.0)",0.8166666666666667,0.41,1,2737.75,1,0.0,same
0,161,valid,"[(1158, 785)]",[],[1],[0.5666666666666667],vertical,"(390.0, 762.0)",0.5833333333333334,0.533,1,2742.341,2,0.0,same
0,162,catch,"[(1164, 787)]",[],[1],[],horizontal,"(890.0, 262.0)",1.7,nan,1,2747.757,2,0.0,same
0,163,invalid_adjacent_other_bar,"[(1162, 773)]",[],[1],[0.65],horizontal,"(890.0, 762.0)",0.8833333333333333,0.607,1,2753.583,2,0.0,other
0,164,valid,"[(1165, 791)]",[],[1],[0.65],horizontal,"(890.0, 262.0)",0.4666666666666667,0.61,1,2759.184,3,0.0,same
0,165,catch,"[(1169, 799)]",[],[1],[],vertical,"(390.0, 262.0)",1.7,nan,1,2764.74,3,0.0,same
0,166,valid,"[(1165, 795)]",[],[1],[0.43333333333333335],horizontal,"(390.0, 262.0)",0.8166666666666667,0.401,1,2771.022,3,0.0,same
0,167,invalid_adjacent_other_bar,"[(1167, 799)]",[],[1],[0.85],horizontal,"(390.0, 762.0)",0.36666666666666664,nan,0,2776.672,0,0.0,other
0,168,invalid_adjacent_other_bar,"[(1113, 782)]",[],[1],[0.85],horizontal,"(390.0, 762.0)",0.5166666666666666,nan,0,2781.372,0,0.0,other
0,169,valid,"[(1158, 800)]",[],[1],[0.5333333333333333],vertical,"(390.0, 262.0)",0.9333333333333333,0.492,1,2785.514,1,0.0,same
0,170,catch,"[(1169, 801)]",[],[1],[],horizontal,"(890.0, 762.0)",1.7,nan,1,2790.61,1,0.0,same
0,171,valid,"[(1170, 787)]",[],[1],[0.5],horizontal,"(890.0, 762.0)",0.6333333333333333,0.459,1,2795.649,1,0.0,same
0,172,valid,"[(1168, 786)]",[],[1],[0.4666666666666667],horizontal,"(890.0, 762.0)",1.35,0.427,1,2800.194,2,0.0,same
0,173,valid,"[(1155, 785)]",[],[1],[0.85],horizontal,"(890.0, 762.0)",0.4166666666666667,nan,0,2806.127,0,0.0,same
0,174,valid,"[(1116, 801)]",[],[1],[0.48333333333333334],horizontal,"(390.0, 762.0)",0.8833333333333333,0.445,1,2810.222,1,0.0,same
0,175,valid,"[(1169, 784)]",[],[1],[0.48333333333333334],horizontal,"(390.0, 262.0)",0.35,0.45,1,2815.51,1,0.0,same
0,176,invalid_adjacent_other_bar,"[(1160, 775)]",[],[1],[0.5666666666666667],vertical,"(890.0, 262.0)",1.4,0.518,1,2819.789,1,0.0,other
0,177,valid,"[(1169, 799)]",[],[1],[0.45],vertical,"(890.0, 262.0)",0.6666666666666666,0.41,1,2825.447,2,0.0,same
0,178,catch,"[(1163, 791)]",[],[1],[],horizontal,"(890.0, 762.0)",1.7,nan,1,2830.263,2,0.0,same
0,179,valid,"[(1163, 794)]",[],[1],[0.48333333333333334],horizontal,"(890.0, 762.0)",0.55,0.443,1,2836.206,2,0.0,same
0,180,valid,"[(1169, 808)]",[],[1],[0.48333333333333334],vertical,"(390.0, 762.0)",0.5833333333333334,0.442,1,2841.022,3,0.0,same
0,181,valid,"[(1160, 810)]",[],[1],[0.5333333333333333],vertical,"(890.0, 762.0)",0.8166666666666667,0.495,1,2846.607,3,0.0,same
0,182,valid,"[(1175, 824)]",[],[1],[0.48333333333333334],vertical,"(890.0, 762.0)",0.9833333333333333,0.445,1,2852.289,3,0.0,same
0,183,valid,"[(1129, 820)]",[],[1],[0.55],horizontal,"(890.0, 762.0)",1.3,0.512,1,2857.805,3,0.0,same
0,184,invalid_adjacent_other_bar,"[(1160, 787)]",[],[1],[0.48333333333333334],vertical,"(890.0, 262.0)",0.7333333333333333,0.441,1,2864.071,3,0.0,other
0,185,valid,"[(1165, 782)]",[],[1],[0.6833333333333333],vertical,"(390.0, 762.0)",1.2166666666666666,0.634,1,2869.657,3,0.0,same
0,186,valid,"[(1131, 799)]",[],[1],[0.5166666666666666],horizontal,"(390.0, 762.0)",1.3666666666666667,0.474,1,2875.874,3,0.0,same
0,187,valid,"[(1130, 785)]",[],[1],[0.48333333333333334],horizontal,"(890.0, 762.0)",0.5833333333333334,0.444,1,2882.094,3,0.0,same
0,188,valid,"[(1147, 792)]",[],[1],[0.5],horizontal,"(890.0, 262.0)",0.7666666666666666,0.465,1,2887.81,3,0.0,same
0,189,catch,"[(1168, 793)]",[],[1],[],horizontal,"(390.0, 262.0)",1.7,nan,1,2893.757,3,0.0,same
0,190,valid,"[(1165, 798)]",[],[1],[0.48333333333333334],vertical,"(890.0, 762.0)",0.8166666666666667,0.442,1,2900.007,3,0.0,same
0,191,catch,"[(1105, 808)]",[],[1],[],horizontal,"(390.0, 762.0)",1.7,nan,1,2905.619,3,0.0,same
0,192,catch,"[(1168, 790)]",[],[1],[],vertical,"(890.0, 762.0)",1.7,nan,1,2911.555,3,0.0,same
0,193,valid,"[(1138, 828)]",[],[1],[0.5],horizontal,"(890.0, 762.0)",0.8333333333333334,0.46,1,2917.688,3,0.0,same
0,194,catch,"[(1115, 806)]",[],[1],[],horizontal,"(390.0, 762.0)",1.7,nan,1,2925.563,3,0.0,same
0,195,valid,"[(1160, 779)]",[],[1],[0.48333333333333334],horizontal,"(890.0, 262.0)",1.5,0.439,1,2931.766,3,0.0,same
0,196,invalid_adjacent_other_bar,"[(1162, 800)]",[],[1],[0.5333333333333333],vertical,"(390.0, 762.0)",1.25,0.492,1,2938.518,3,0.0,other
0,197,valid,"[(1165, 810)]",[],[1],[0.5333333333333333],horizontal,"(390.0, 762.0)",0.6833333333333333,0.493,1,2944.857,3,0.0,same
0,198,catch,"[(1135, 795)]",[],[1],[],horizontal,"(390.0, 262.0)",1.7,nan,1,2950.251,3,0.0,same
0,199,valid,"[(1129, 799)]",[],[1],[0.5166666666666666],horizontal,"(890.0, 762.0)",0.5166666666666666,0.474,1,2956.36,3,0.0,same
0,200,catch,"[(1165, 823)]",[],[1],[],vertical,"(890.0, 762.0)",,"('cti', 0.25),nan",0,2961.656,0,0.02,same
0,201,valid,"[(1125, 808)]",[],[1],[0.5],horizontal,"(890.0, 762.0)",0.5833333333333334,0.462,1,2964.724,1,0.02,same
0,202,valid,"[(1105, 813)]",[],[1],[0.55],horizontal,"(390.0, 262.0)",1.1,0.512,1,2969.147,1,0.02,same
0,203,valid,"[(1096, 832)]",[],[1],[0.4666666666666667],vertical,"(890.0, 262.0)",0.6166666666666667,0.425,1,3316.959,1,0.02,same
0,204,catch,"[(1129, 818)]",[],[1],[],horizontal,"(390.0, 762.0)",1.7,nan,1,3321.984,2,0.02,same
0,205,valid,"[(1156, 803)]",[],[1],[0.5666666666666667],horizontal,"(390.0, 762.0)",1.1,0.523,1,3327.924,2,0.02,same
0,206,valid,"[(1160, 800)]",[],[1],[0.55],vertical,"(390.0, 762.0)",1.25,0.508,1,3333.369,2,0.02,same
0,207,valid,"[(1131, 792)]",[],[1],[0.55],vertical,"(390.0, 262.0)",0.36666666666666664,0.504,1,3339.549,3,0.02,same
0,208,valid,"[(1132, 812)]",[],[1],[0.4666666666666667],horizontal,"(890.0, 262.0)",0.7166666666666667,0.429,1,3345.157,3,0.02,same
0,209,valid,"[(1135, 813)]",[],[1],[0.48333333333333334],horizontal,"(890.0, 762.0)",1.5166666666666666,0.445,1,3350.841,3,0.02,same
0,210,valid,"[(1143, 805)]",[],[1],[0.5166666666666666],vertical,"(890.0, 762.0)",1.45,0.473,1,3357.526,3,0.02,same
0,211,valid,"[(1159, 797)]",[],[1],[0.5333333333333333],vertical,"(890.0, 262.0)",0.8,0.494,1,3363.909,3,0.02,same
0,212,catch,"[(1146, 787)]",[],[1],[],vertical,"(890.0, 762.0)",1.7,nan,1,3369.958,3,0.02,same
0,213,catch,"[(1134, 779)]",[],[1],[],horizontal,"(390.0, 262.0)",1.7,nan,1,3376.009,3,0.02,same
0,214,valid,"[(1155, 789)]",[],[1],[0.4666666666666667],vertical,"(390.0, 762.0)",0.45,0.43,1,3382.304,3,0.02,same
0,215,valid,"[(1135, 813)]",[],[1],[0.4666666666666667],vertical,"(390.0, 262.0)",0.5666666666666667,0.428,1,3387.5,3,0.02,same
0,216,valid,"[(1154, 788)]",[],[1],[0.45],horizontal,"(890.0, 262.0)",1.5,0.423,1,3392.959,3,0.02,same
0,217,valid,"[(1160, 789)]",[],[1],[0.48333333333333334],vertical,"(890.0, 262.0)",0.36666666666666664,0.447,1,3399.223,3,0.02,same
0,218,catch,"[(1145, 823)]",[],[1],[],horizontal,"(390.0, 762.0)",1.7,nan,1,3404.674,3,0.02,same
0,219,valid,"[(1154, 795)]",[],[1],[0.48333333333333334],horizontal,"(890.0, 262.0)",1.15,0.445,1,3410.942,3,0.02,same
0,220,catch,"[(1160, 779)]",[],[1],[],vertical,"(390.0, 262.0)",1.7,nan,1,3417.132,3,0.02,same
0,221,valid,"[(1130, 820)]",[],[1],[0.55],vertical,"(890.0, 762.0)",1.2,0.507,1,3422.974,3,0.02,same
0,222,catch,"[(1115, 797)]",[],[1],[],horizontal,"(890.0, 762.0)",1.7,nan,1,3429.377,3,0.02,same
0,223,valid,"[(1161, 795)]",[],[1],[0.6333333333333333],vertical,"(890.0, 762.0)",1.2166666666666666,0.593,1,3435.906,3,0.02,same
0,224,valid,"[(1131, 795)]",[],[1],[0.5166666666666666],vertical,"(890.0, 762.0)",1.0833333333333333,0.481,1,3441.741,3,0.02,same
0,225,valid,"[(1160, 791)]",[],[1],[0.5166666666666666],horizontal,"(390.0, 762.0)",1.1,0.477,1,3447.321,3,0.02,same
0,226,invalid_same_bar,"[(1146, 796)]",[],[1],[0.85],vertical,"(390.0, 762.0)",0.9166666666666666,nan,0,3453.349,0,0.02,same
0,227,valid,"[(1134, 803)]",[],[1],[0.5],vertical,"(390.0, 762.0)",0.7833333333333333,0.46,1,3458.372,1,0.02,same
0,228,valid,"[(1105, 833)]",[],[1],[0.85],horizontal,"(390.0, 762.0)",0.7,nan,0,3463.192,0,0.02,same
0,229,catch,"[(1132, 811)]",[],[1],[],vertical,"(890.0, 762.0)",1.7,nan,1,3467.924,1,0.02,same
0,230,valid,"[(1180, 786)]",[],[1],[0.4666666666666667],vertical,"(390.0, 262.0)",0.48333333333333334,0.424,1,3473.508,1,0.02,same
0,231,valid,"[(1160, 783)]",[],[1],[0.5166666666666666],horizontal,"(390.0, 762.0)",1.2833333333333332,0.475,1,3478.091,1,0.02,same
0,232,valid,"[(1120, 804)]",[],[1],[0.65],horizontal,"(890.0, 262.0)",1.3166666666666667,0.61,1,3483.058,2,0.02,same
0,233,valid,"[(1165, 825)]",[],[1],[0.5166666666666666],vertical,"(390.0, 762.0)",1.1166666666666667,0.476,1,3489.541,2,0.02,same
0,234,valid,"[(1165, 792)]",[],[1],[0.5666666666666667],horizontal,"(890.0, 762.0)",1.4166666666666667,0.527,1,3495.341,2,0.02,same
0,235,catch,"[(1162, 778)]",[],[1],[],horizontal,"(890.0, 762.0)",1.7,nan,1,3501.477,3,0.02,same
0,236,valid,"[(1161, 772)]",[],[1],[0.85],vertical,"(390.0, 762.0)",0.7166666666666667,nan,0,3507.61,0,0.02,same
0,237,catch,"[(1160, 788)]",[],[1],[],vertical,"(390.0, 262.0)",1.7,nan,1,3512.35,1,0.02,same
0,238,valid,"[(1165, 808)]",[],[1],[0.5],horizontal,"(390.0, 762.0)",0.7,0.454,1,3517.792,1,0.02,same
0,239,valid,"[(1147, 786)]",[],[1],[0.5],horizontal,"(890.0, 762.0)",0.65,0.461,1,3522.375,1,0.02,same
0,240,catch,"[(1165, 795)]",[],[1],[],horizontal,"(890.0, 762.0)",,"('fix', 0.451),nan",0,3527.409,0,0.04,same
0,241,invalid_same_bar,"[(1118, 799)]",[],[1],[0.75],horizontal,"(890.0, 762.0)",0.6,0.717,1,3529.392,1,0.04,same
0,242,valid,"[(1165, 774)]",[],[1],[0.55],horizontal,"(390.0, 762.0)",1.2666666666666666,0.516,1,3534.501,1,0.04,same
0,243,catch,"[(1166, 818)]",[],[1],[],horizontal,"(390.0, 262.0)",1.7,nan,1,3540.098,1,0.04,same
0,244,valid,"[(1132, 792)]",[],[1],[0.45],vertical,"(390.0, 262.0)",1.5166666666666666,0.412,1,3545.85,2,0.04,same
0,245,valid,"[(1168, 792)]",[],[1],[0.6],horizontal,"(890.0, 762.0)",1.4,0.561,1,3552.074,2,0.04,same
0,246,valid,"[(1170, 789)]",[],[1],[0.5166666666666666],horizontal,"(890.0, 762.0)",0.48333333333333334,0.478,1,3558.274,2,0.04,same
0,247,catch,"[(1168, 798)]",[],[1],[],vertical,"(890.0, 262.0)",1.7,nan,1,3563.341,3,0.04,same
0,248,valid,"[(1125, 793)]",[],[1],[0.5166666666666666],horizontal,"(890.0, 762.0)",0.6666666666666666,0.475,1,3570.313,3,0.04,same
0,249,valid,"[(1180, 771)]",[],[1],[0.5833333333333334],vertical,"(390.0, 762.0)",0.7333333333333333,0.544,1,3576.14,3,0.04,same
0,250,valid,"[(1155, 787)]",[],[1],[0.6166666666666667],horizontal,"(390.0, 762.0)",1.1833333333333333,0.576,1,3581.958,3,0.02,same
0,251,valid,"[(1167, 795)]",[],[1],[0.48333333333333334],vertical,"(390.0, 762.0)",1.2666666666666666,0.44,1,3588.44,3,0.02,same
0,252,valid,"[(1160, 766)]",[],[1],[0.5666666666666667],vertical,"(890.0, 262.0)",0.75,0.522,1,3594.383,3,0.02,same
0,253,valid,"[(1086, 813)]",[],[1],[0.5833333333333334],vertical,"(890.0, 262.0)",1.0,0.547,1,3599.836,3,0.02,same
0,254,valid,"[(1087, 833)]",[],[1],[0.6],vertical,"(390.0, 262.0)",0.6833333333333333,0.559,1,3615.925,3,0.02,same
0,255,valid,"[(1160, 803)]",[],[1],[0.48333333333333334],vertical,"(390.0, 262.0)",1.4166666666666667,0.447,1,3649.709,3,0.02,same
0,256,valid,"[(1161, 794)]",[],[1],[0.5166666666666666],horizontal,"(390.0, 262.0)",0.7333333333333333,0.477,1,3656.642,3,0.02,same
0,257,valid,"[(1125, 817)]",[],[1],[0.5],vertical,"(390.0, 262.0)",1.5166666666666666,0.464,1,3662.992,3,0.02,same
0,258,catch,"[(1120, 821)]",[],[1],[],vertical,"(890.0, 762.0)",1.7,nan,1,3670.275,3,0.02,same
0,259,catch,"[(1160, 796)]",[],[1],[],horizontal,"(390.0, 262.0)",1.7,nan,1,3676.559,3,0.02,same
0,260,valid,"[(1155, 803)]",[],[1],[0.6166666666666667],horizontal,"(890.0, 262.0)",1.3833333333333333,0.574,1,3682.84,3,0.02,same
0,261,catch,"[(1155, 791)]",[],[1],[],horizontal,"(390.0, 262.0)",1.7,nan,1,3689.094,3,0.02,same
0,262,invalid_same_bar,"[(1189, 793)]",[],[1],[0.5333333333333333],vertical,"(890.0, 262.0)",0.5333333333333333,0.492,1,3695.523,3,0.02,same
0,263,valid,"[(1180, 777)]",[],[1],[0.5166666666666666],horizontal,"(390.0, 762.0)",1.45,0.473,1,3700.688,3,0.02,same
0,264,valid,"[(1089, 814)]",[],[1],[0.55],vertical,"(390.0, 262.0)",1.1166666666666667,0.515,1,3707.225,3,0.02,same
0,265,catch,"[(1158, 777)]",[],[1],[],horizontal,"(890.0, 262.0)",1.7,nan,1,3715.676,3,0.02,same
0,266,valid,"[(1172, 794)]",[],[1],[0.4666666666666667],horizontal,"(890.0, 762.0)",0.5666666666666667,0.426,1,3721.859,3,0.02,same
0,267,valid,"[(1107, 805)]",[],[1],[0.4666666666666667],horizontal,"(390.0, 262.0)",0.5333333333333333,0.427,1,3727.677,3,0.02,same
0,268,valid,"[(1180, 784)]",[],[1],[0.4666666666666667],vertical,"(890.0, 262.0)",0.3833333333333333,0.425,1,3734.746,3,0.02,same
0,269,valid,"[(1160, 782)]",[],[1],[0.48333333333333334],horizontal,"(890.0, 262.0)",0.7666666666666666,0.44,1,3739.826,3,0.02,same
0,270,invalid_adjacent_other_bar,"[(1158, 773)]",[],[1],[0.5666666666666667],horizontal,"(390.0, 762.0)",1.5,0.529,1,3745.324,3,0.02,other
0,271,valid,"[(1135, 811)]",[],[1],[0.6166666666666667],vertical,"(890.0, 262.0)",0.9,0.582,1,3752.29,3,0.02,same
0,272,catch,"[(1160, 807)]",[],[1],[],horizontal,"(890.0, 262.0)",1.7,nan,1,3759.508,3,0.02,same
0,273,catch,"[(1155, 768)]",[],[1],[],horizontal,"(890.0, 762.0)",1.7,nan,1,3765.927,3,0.02,same
0,274,valid,"[(1146, 783)]",[],[1],[0.75],vertical,"(890.0, 762.0)",0.6666666666666666,0.702,1,3771.777,3,0.02,same
0,275,catch,"[(1160, 804)]",[],[1],[],vertical,"(390.0, 262.0)",1.7,nan,1,3778.009,3,0.02,same
0,276,valid,"[(1160, 789)]",[],[1],[0.5],vertical,"(390.0, 762.0)",0.43333333333333335,0.461,1,3784.078,3,0.02,same
0,277,valid,"[(1158, 779)]",[],[1],[0.6166666666666667],horizontal,"(890.0, 262.0)",0.5666666666666667,0.575,1,3789.425,3,0.02,same
0,278,invalid_same_bar,"[(1183, 786)]",[],[1],[0.5333333333333333],vertical,"(890.0, 262.0)",1.4,0.493,1,3794.683,3,0.02,same
0,279,valid,"[(1178, 802)]",[],[1],[0.85],vertical,"(390.0, 762.0)",0.3833333333333333,nan,0,3801.394,0,0.02,same
0,280,valid,"[(1140, 820)]",[],[1],[0.55],horizontal,"(890.0, 762.0)",0.95,0.505,1,3807.727,1,0.02,same
0,281,catch,"[(1103, 863)]",[],[1],[],vertical,"(890.0, 262.0)",,"('fix', 0.396),nan",0,3818.288,0,0.04,same
0,282,valid,"[(1086, 828)]","[(1086, 831)]",[1],[0.21666666666666667],vertical,"(890.0, 262.0)",,"('bar', 0.235)",0,3823.41,0,0.04,same
0,283,valid,"[(1086, 851)]",[],[1],[0.48333333333333334],horizontal,"(890.0, 762.0)",1.2333333333333334,0.443,1,3826.277,1,0.04,same
0,284,valid,"[(1155, 782)]",[],[1],[0.4666666666666667],vertical,"(890.0, 262.0)",0.55,0.428,1,5775.643,1,0.04,same
0,285,valid,"[(1132, 784)]",[],[1],[0.65],horizontal,"(390.0, 262.0)",0.9333333333333333,0.608,1,5779.599,1,0.04,same
0,286,valid,"[(1158, 778)]",[],[1],[0.6],horizontal,"(390.0, 262.0)",0.55,0.564,1,5784.458,2,0.04,same
0,287,catch,"[(1160, 799)]",[],[1],[],vertical,"(390.0, 762.0)",1.7,nan,1,5790.068,2,0.04,same
0,288,valid,"[(1155, 801)]",[],[1],[0.5333333333333333],vertical,"(890.0, 762.0)",0.9833333333333333,0.49,1,5795.928,2,0.04,same
0,289,valid,"[(1134, 807)]",[],[1],[0.6],vertical,"(390.0, 762.0)",1.3666666666666667,0.558,1,5801.383,3,0.04,same
0,290,valid,"[(1125, 829)]",[],[1],[0.5666666666666667],horizontal,"(390.0, 762.0)",0.4166666666666667,0.524,1,5807.4,3,0.02,same
0,291,invalid_adjacent_other_bar,"[(1132, 792)]",[],[1],[0.5666666666666667],vertical,"(390.0, 262.0)",0.8666666666666667,0.521,1,6290.768,3,0.02,other
0,292,catch,"[(1144, 776)]",[],[1],[],vertical,"(890.0, 762.0)",1.7,nan,1,6296.4,3,0.02,same
0,293,catch,"[(1165, 780)]",[],[1],[],vertical,"(390.0, 262.0)",1.7,nan,1,6302.593,3,0.02,same
0,294,valid,"[(1160, 809)]",[],[1],[0.5166666666666666],horizontal,"(890.0, 762.0)",0.7333333333333333,0.471,1,6308.734,3,0.02,same
0,295,valid,"[(1160, 796)]",[],[1],[0.5166666666666666],horizontal,"(390.0, 262.0)",0.7666666666666666,0.478,1,6314.301,3,0.02,same
0,296,invalid_adjacent_other_bar,"[(1144, 772)]",[],[1],[0.6333333333333333],vertical,"(390.0, 262.0)",0.8666666666666667,0.591,1,6319.798,3,0.02,other
0,297,valid,"[(1175, 786)]",[],[1],[0.5666666666666667],vertical,"(390.0, 262.0)",0.7333333333333333,0.53,1,6325.683,3,0.02,same
0,298,invalid_same_bar,"[(1143, 774)]",[],[1],[0.4666666666666667],vertical,"(890.0, 262.0)",1.45,0.424,1,6331.285,3,0.02,same
0,299,catch,"[(1130, 799)]",[],[1],[],vertical,"(390.0, 262.0)",1.7,nan,1,6337.703,3,0.02,same
0,300,invalid_adjacent_other_bar,"[(1109, 787)]",[],[1],[0.85],horizontal,"(890.0, 262.0)",0.9166666666666666,nan,0,6344.144,0,0.02,other
0,301,invalid_adjacent_other_bar,"[(1144, 789)]",[],[1],[0.48333333333333334],vertical,"(390.0, 762.0)",0.9333333333333333,0.443,1,6349.301,1,0.02,other
0,302,valid,"[(1143, 782)]",[],[1],[0.5166666666666666],vertical,"(890.0, 762.0)",1.0,0.478,1,6354.54,1,0.02,same
0,303,catch,"[(1140, 779)]",[],[1],[],horizontal,"(390.0, 762.0)",1.7,nan,1,6359.302,1,0.02,same
0,304,catch,"[(1160, 783)]",[],[1],[],horizontal,"(890.0, 762.0)",1.7,nan,1,6364.385,2,0.02,same
0,305,valid,"[(1151, 781)]",[],[1],[0.3],horizontal,"(890.0, 262.0)",0.8,0.263,1,6369.679,2,0.02,same
0,306,valid,"[(1150, 796)]",[],[1],[0.5],vertical,"(890.0, 262.0)",0.5833333333333334,0.458,1,6374.852,2,0.02,same
0,307,catch,"[(1138, 798)]",[],[1],[],vertical,"(890.0, 262.0)",1.7,nan,1,6379.651,3,0.02,same
0,308,catch,"[(1162, 783)]",[],[1],[],vertical,"(390.0, 262.0)",1.7,nan,1,6385.607,3,0.02,same
0,309,valid,"[(1160, 786)]",[],[1],[0.85],vertical,"(390.0, 262.0)",0.8,nan,0,6391.668,0,0.02,same
0,310,catch,"[(1133, 789)]",[],[1],[],horizontal,"(390.0, 262.0)",1.7,nan,1,6396.449,1,0.02,same
0,311,invalid_adjacent_other_bar,"[(1141, 798)]",[],[1],[0.6166666666666667],horizontal,"(890.0, 762.0)",0.7833333333333333,0.581,1,6401.271,1,0.02,other
0,312,valid,"[(1161, 779)]",[],[1],[0.48333333333333334],vertical,"(890.0, 262.0)",0.8666666666666667,0.45,1,6406.094,1,0.02,same
0,313,valid,"[(1090, 779)]",[],[1],[0.85],horizontal,"(890.0, 762.0)",0.5666666666666667,nan,0,6410.947,0,0.02,same
0,314,invalid_adjacent_other_bar,"[(1136, 782)]",[],[1],[0.5833333333333334],horizontal,"(890.0, 762.0)",1.4666666666666666,0.543,1,6415.567,1,0.02,other
0,315,valid,"[(1115, 801)]",[],[1],[0.5166666666666666],vertical,"(890.0, 262.0)",1.0833333333333333,0.474,1,6421.293,1,0.02,same
0,316,valid,"[(1164, 788)]",[],[1],[0.5333333333333333],horizontal,"(390.0, 262.0)",0.8666666666666667,0.491,1,6426.555,1,0.02,same
0,317,valid,"[(1160, 776)]",[],[1],[0.55],vertical,"(890.0, 262.0)",0.6166666666666667,0.506,1,6431.527,2,0.02,same
0,318,valid,"[(1160, 784)]",[],[1],[0.85],horizontal,"(890.0, 762.0)",1.1166666666666667,nan,0,6436.97,0,0.02,same
0,319,valid,"[(1131, 783)]",[],[1],[0.85],horizontal,"(390.0, 762.0)",0.5833333333333334,nan,0,6442.339,0,0.02,same
0,320,catch,"[(1123, 779)]",[],[1],[],vertical,"(390.0, 762.0)",1.7,nan,1,6446.435,1,0.02,same
0,321,valid,"[(1165, 805)]",[],[1],[0.5333333333333333],vertical,"(890.0, 262.0)",0.35,0.495,1,6452.004,1,0.02,same
0,322,catch,"[(1163, 773)]",[],[1],[],horizontal,"(890.0, 762.0)",1.7,nan,1,6456.535,1,0.02,same
0,323,valid,"[(1150, 808)]",[],[1],[0.5833333333333334],vertical,"(890.0, 262.0)",1.3,0.547,1,6462.005,2,0.02,same
0,324,invalid_adjacent_other_bar,"[(1145, 792)]",[],[1],[0.48333333333333334],horizontal,"(890.0, 262.0)",1.0,0.443,1,6467.9,2,0.02,other
0,325,catch,"[(1051, 797)]",[],[1],[],horizontal,"(390.0, 262.0)",1.7,nan,1,6473.155,2,0.02,same
0,326,catch,"[(1150, 823)]",[],[1],[],vertical,"(390.0, 762.0)",1.7,nan,1,6478.919,3,0.02,same
0,327,valid,"[(1161, 785)]",[],[1],[0.5333333333333333],vertical,"(890.0, 762.0)",1.5333333333333332,0.493,1,6485.352,3,0.02,same
0,328,valid,"[(1160, 785)]",[],[1],[0.7],vertical,"(390.0, 762.0)",1.05,0.648,1,6491.832,3,0.02,same
0,329,invalid_adjacent_other_bar,"[(1141, 790)]",[],[1],[0.5666666666666667],horizontal,"(390.0, 762.0)",0.3833333333333333,0.526,1,6498.014,3,0.02,other
0,330,invalid_same_bar,"[(1160, 791)]",[],[1],[0.5333333333333333],horizontal,"(390.0, 262.0)",1.4666666666666666,0.497,1,6503.107,3,0.02,same
0,331,catch,"[(1165, 782)]",[],[1],[],horizontal,"(890.0, 762.0)",1.7,nan,1,6509.003,3,0.0,same
0,332,valid,"[(1159, 790)]",[],[1],[0.5],vertical,"(390.0, 262.0)",1.1166666666666667,0.46,1,6514.739,3,0.0,same
0,333,catch,"[(1165, 801)]",[],[1],[],vertical,"(890.0, 762.0)",1.7,nan,1,6520.585,3,0.0,same
0,334,valid,"[(1160, 790)]",[],[1],[0.5333333333333333],vertical,"(390.0, 262.0)",1.1666666666666667,0.492,1,6526.267,3,0.0,same
0,335,valid,"[(1155, 796)]",[],[1],[0.5],horizontal,"(390.0, 762.0)",1.25,0.462,1,6532.077,3,0.0,same
0,336,valid,"[(1176, 794)]",[],[1],[0.6],vertical,"(890.0, 762.0)",1.4333333333333333,0.557,1,6538.652,3,0.0,same
0,337,valid,"[(1164, 792)]",[],[1],[0.5333333333333333],horizontal,"(390.0, 762.0)",0.3833333333333333,0.491,1,6544.67,3,0.0,same
0,338,invalid_same_bar,"[(1161, 769)]",[],[1],[0.45],vertical,"(890.0, 762.0)",1.3166666666666667,0.409,1,6549.652,3,0.0,same
0,339,catch,"[(1160, 782)]",[],[1],[],horizontal,"(390.0, 262.0)",1.7,nan,1,6555.435,3,0.0,same
0,340,invalid_same_bar,"[(1156, 779)]",[],[1],[0.4666666666666667],horizontal,"(890.0, 762.0)",0.95,0.429,1,6561.721,3,0.0,same
0,341,invalid_same_bar,"[(1140, 812)]",[],[1],[0.4666666666666667],horizontal,"(890.0, 262.0)",0.9333333333333333,0.433,1,6567.273,3,0.0,same
0,342,valid,"[(1166, 804)]",[],[1],[0.48333333333333334],horizontal,"(890.0, 262.0)",0.7,0.455,1,6573.443,3,0.0,same
0,343,valid,"[(1160, 778)]",[],[1],[0.85],vertical,"(890.0, 262.0)",1.4,nan,0,6579.07,0,0.0,same
0,344,valid,"[(1089, 851)]",[],[1],[0.5833333333333334],vertical,"(390.0, 762.0)",1.1333333333333333,0.538,1,6584.22,1,0.0,same
0,345,catch,"[(1160, 783)]",[],[1],[],vertical,"(890.0, 262.0)",1.7,nan,1,6589.703,1,0.0,same
0,346,valid,"[(1160, 794)]",[],[1],[0.6333333333333333],vertical,"(390.0, 262.0)",0.3833333333333333,0.59,1,6594.903,1,0.0,same
0,347,valid,"[(1163, 773)]",[],[1],[0.48333333333333334],horizontal,"(890.0, 262.0)",0.8166666666666667,0.445,1,6599.554,2,0.0,same
0,348,valid,"[(1160, 795)]",[],[1],[0.85],vertical,"(890.0, 762.0)",0.36666666666666664,nan,0,6604.607,0,0.0,same
0,349,invalid_adjacent_other_bar,"[(1125, 791)]",[],[1],[0.5833333333333334],horizontal,"(390.0, 762.0)",1.1833333333333333,0.543,1,6608.828,1,0.0,other
0,350,valid,"[(1160, 782)]",[],[1],[0.5666666666666667],horizontal,"(890.0, 762.0)",0.8666666666666667,0.524,1,6614.27,1,0.0,same
0,351,valid,"[(1125, 807)]",[],[1],[0.6],horizontal,"(890.0, 262.0)",1.4166666666666667,0.558,1,6618.969,1,0.0,same
0,352,valid,"[(1128, 787)]",[],[1],[0.48333333333333334],horizontal,"(390.0, 762.0)",1.4333333333333333,0.441,1,6624.652,2,0.0,same
0,353,valid,"[(1140, 782)]",[],[1],[0.4666666666666667],horizontal,"(890.0, 262.0)",1.3833333333333333,0.426,1,6630.555,2,0.0,same
0,354,invalid_adjacent_other_bar,"[(1160, 784)]",[],[1],[0.5666666666666667],vertical,"(390.0, 262.0)",1.2833333333333332,0.525,1,6636.239,2,0.0,other
0,355,invalid_adjacent_other_bar,"[(1136, 795)]",[],[1],[0.85],vertical,"(390.0, 262.0)",0.8333333333333334,nan,0,6642.57,0,0.0,other
0,356,valid,"[(1088, 775)]",[],[1],[0.85],vertical,"(390.0, 762.0)",0.4166666666666667,nan,0,6647.317,0,0.0,same
0,357,catch,"[(1141, 779)]",[],[1],[],vertical,"(890.0, 262.0)",,"('cti', 1.522),nan",0,6651.627,0,0.02,same
0,358,catch,"[(1145, 796)]",[],[1],[],vertical,"(890.0, 262.0)",1.7,nan,1,6656.353,1,0.02,same
0,359,catch,"[(1165, 773)]",[],[1],[],horizontal,"(390.0, 762.0)",,"('cti', 1.097),nan",0,6661.682,0,0.04,same
0,360,valid,"[(1137, 838)]",[],[1],[0.5166666666666666],horizontal,"(390.0, 262.0)",0.55,0.48,1,6665.737,1,0.04,same
0,361,valid,"[(1163, 803)]",[],[1],[0.85],vertical,"(890.0, 762.0)",0.65,nan,0,6686.22,0,0.04,same
0,362,catch,"[(1111, 803)]",[],[1],[],horizontal,"(890.0, 762.0)",1.7,nan,1,6690.654,1,0.04,same
0,363,invalid_adjacent_other_bar,"[(1165, 813)]",[],[1],[0.3833333333333333],horizontal,"(890.0, 762.0)",0.9166666666666666,0.348,1,6695.751,1,0.04,other
0,364,valid,"[(1136, 795)]",[],[1],[0.4166666666666667],horizontal,"(390.0, 262.0)",1.4833333333333334,0.372,1,6700.809,1,0.04,same
0,365,valid,"[(1160, 803)]",[],[1],[0.85],vertical,"(390.0, 762.0)",1.05,nan,0,6706.285,0,0.04,same
0,366,catch,"[(1163, 801)]",[],[1],[],vertical,"(390.0, 762.0)",1.7,nan,1,6711.137,1,0.04,same
0,367,valid,"[(1141, 791)]",[],[1],[0.5],horizontal,"(890.0, 262.0)",1.2333333333333334,0.466,1,6716.165,1,0.04,same
0,368,valid,"[(1165, 806)]",[],[1],[0.85],horizontal,"(390.0, 262.0)",1.15,nan,0,6721.532,0,0.04,same
0,369,invalid_same_bar,"[(1157, 776)]",[],[1],[0.5833333333333334],horizontal,"(390.0, 262.0)",0.9333333333333333,0.544,1,6726.395,1,0.04,same
0,370,valid,"[(1165, 818)]",[],[1],[0.4666666666666667],horizontal,"(890.0, 262.0)",0.7166666666666667,0.434,1,6731.686,1,0.04,same
0,371,catch,"[(1125, 792)]",[],[1],[],vertical,"(890.0, 762.0)",1.7,nan,1,6736.606,1,0.04,same
0,372,valid,"[(1163, 794)]",[],[1],[0.6666666666666666],horizontal,"(890.0, 262.0)",0.5333333333333333,0.624,1,6742.218,2,0.04,same
0,373,valid,"[(1172, 779)]",[],[1],[0.6166666666666667],horizontal,"(390.0, 262.0)",1.05,0.583,1,6747.504,2,0.04,same
0,374,invalid_same_bar,"[(1194, 808)]",[],[1],[0.48333333333333334],horizontal,"(890.0, 262.0)",0.9833333333333333,0.447,1,6753.284,2,0.04,same
0,375,valid,"[(1163, 785)]",[],[1],[0.75],horizontal,"(390.0, 262.0)",1.5,0.708,1,6758.954,3,0.04,same
0,376,valid,"[(1142, 794)]",[],[1],[0.55],vertical,"(390.0, 762.0)",0.65,0.508,1,6766.105,3,0.04,same
0,377,valid,"[(1160, 796)]",[],[1],[0.5166666666666666],vertical,"(890.0, 262.0)",0.6,0.48,1,6771.504,3,0.04,same
0,378,invalid_same_bar,"[(1161, 794)]",[],[1],[0.48333333333333334],horizontal,"(890.0, 762.0)",0.5,0.444,1,6777.154,3,0.04,same
0,379,valid,"[(1138, 825)]",[],[1],[0.48333333333333334],vertical,"(890.0, 262.0)",0.7833333333333333,0.446,1,6782.832,3,0.04,same
0,380,valid,"[(1130, 845)]",[],[1],[0.31666666666666665],vertical,"(890.0, 262.0)",1.2166666666666666,0.277,1,6788.303,3,0.04,same
0,381,valid,"[(1141, 814)]",[],[1],[],vertical,"(890.0, 262.0)",,"('cti', 0.985)",0,7271.393,0,0.04,same
0,382,catch,"[(1135, 807)]",[],[1],[],vertical,"(890.0, 262.0)",1.7,nan,1,7275.838,1,0.04,same
0,383,valid,"[(1145, 796)]",[],[1],[0.6166666666666667],vertical,"(890.0, 762.0)",0.48333333333333334,0.577,1,7281.343,1,0.04,same
0,384,valid,"[(1159, 781)]",[],[1],[0.6333333333333333],vertical,"(890.0, 762.0)",1.3,0.592,1,7285.762,1,0.04,same
0,385,catch,"[(1152, 784)]",[],[1],[],horizontal,"(390.0, 262.0)",1.7,nan,1,7291.084,2,0.04,same
0,386,valid,"[(1157, 802)]",[],[1],[0.5833333333333334],vertical,"(890.0, 762.0)",1.2166666666666666,0.539,1,7297.1,2,0.04,same
0,387,valid,"[(1138, 789)]",[],[1],[0.5],horizontal,"(390.0, 262.0)",1.45,0.454,1,7303.407,2,0.04,same
0,388,valid,"[(1159, 792)]",[],[1],[0.5],horizontal,"(890.0, 762.0)",1.0166666666666666,0.463,1,7309.203,3,0.04,same
0,389,valid,"[(1154, 795)]",[],[1],[0.5333333333333333],vertical,"(390.0, 762.0)",1.1333333333333333,0.493,1,7315.143,3,0.04,same
0,390,valid,"[(1160, 783)]",[],[1],[0.5],vertical,"(390.0, 762.0)",1.2333333333333334,0.457,1,7320.804,3,0.04,same
0,391,invalid_adjacent_other_bar,"[(1155, 794)]",[],[1],[0.5833333333333334],horizontal,"(390.0, 762.0)",0.6,0.54,1,7327.055,3,0.04,other
0,392,catch,"[(1129, 845)]",[],[1],[],vertical,"(890.0, 762.0)",1.7,nan,1,7332.616,3,0.04,same
0,393,valid,"[(1138, 794)]",[],[1],[0.5166666666666666],horizontal,"(390.0, 762.0)",0.8166666666666667,0.477,1,7338.757,3,0.04,same
0,394,invalid_adjacent_other_bar,"[(1185, 781)]",[],[1],[0.6166666666666667],horizontal,"(390.0, 762.0)",0.8333333333333334,0.575,1,7344.427,3,0.04,other
0,395,catch,"[(1192, 807)]",[],[1],[],vertical,"(890.0, 762.0)",1.7,nan,1,7350.385,3,0.04,same
0,396,valid,"[(1131, 790)]",[],[1],[0.4666666666666667],horizontal,"(890.0, 262.0)",1.3,0.426,1,7356.272,3,0.04,same
0,397,catch,"[(1118, 804)]",[],[1],[],vertical,"(890.0, 262.0)",1.7,nan,1,7362.258,3,0.04,same
0,398,valid,"[(1156, 773)]",[],[1],[0.5],vertical,"(390.0, 262.0)",0.9666666666666667,0.457,1,7368.273,3,0.04,same
0,399,valid,"[(1154, 789)]",[],[1],[0.4666666666666667],vertical,"(890.0, 262.0)",1.0,0.427,1,7373.788,3,0.04,same
0,400,valid,"[(1132, 789)]",[],[1],[0.55],vertical,"(390.0, 762.0)",1.2166666666666666,0.51,1,7379.356,3,0.04,same
0,401,valid,"[(1160, 794)]",[],[1],[0.5166666666666666],vertical,"(890.0, 762.0)",0.45,0.478,1,7385.655,3,0.04,same
0,402,valid,"[(1160, 782)]",[],[1],[0.6166666666666667],vertical,"(390.0, 262.0)",1.2,0.57,1,7391.138,3,0.04,same
0,403,valid,"[(1153, 790)]",[],[1],[0.5833333333333334],vertical,"(390.0, 262.0)",0.35,0.544,1,7397.171,3,0.04,same
0,404,catch,"[(1165, 784)]",[],[1],[],vertical,"(390.0, 762.0)",1.7,nan,1,7402.805,3,0.04,same
0,405,valid,"[(1114, 816)]",[],[1],[0.55],vertical,"(890.0, 762.0)",0.9,0.511,1,7408.975,3,0.04,same
0,406,valid,"[(1135, 809)]",[],[1],[0.5],vertical,"(390.0, 262.0)",1.5,0.459,1,7415.121,3,0.04,same
0,407,valid,"[(1165, 792)]",[],[1],[0.7],vertical,"(890.0, 762.0)",0.5,0.66,1,7421.455,3,0.02,same
0,408,catch,"[(1156, 783)]",[],[1],[],vertical,"(890.0, 762.0)",1.7,nan,1,7426.92,3,0.02,same
0,409,valid,"[(1136, 791)]",[],[1],[0.5166666666666666],vertical,"(890.0, 762.0)",0.5166666666666666,0.475,1,7432.51,3,0.0,same
0,410,valid,"[(1138, 808)]",[],[1],[0.5333333333333333],vertical,"(390.0, 762.0)",1.1333333333333333,0.492,1,7438.096,3,0.0,same
0,411,valid,"[(1160, 811)]",[],[1],[0.5166666666666666],horizontal,"(890.0, 762.0)",1.25,0.484,1,7443.884,3,0.0,same
0,412,valid,"[(1178, 781)]",[],[1],[0.85],vertical,"(390.0, 262.0)",0.5333333333333333,nan,0,7449.713,0,0.0,same
0,413,catch,"[(1121, 787)]",[],[1],[],vertical,"(890.0, 762.0)",1.7,nan,1,7454.388,1,0.0,same
0,414,invalid_adjacent_other_bar,"[(1155, 785)]",[],[1],[0.5166666666666666],horizontal,"(890.0, 262.0)",1.25,0.471,1,7459.422,1,0.0,other
0,415,valid,"[(1166, 798)]",[],[1],[],vertical,"(390.0, 262.0)",,"('cti', 0.559)",0,7464.497,0,0.0,same
0,416,catch,"[(1079, 813)]",[],[1],[],vertical,"(890.0, 262.0)",,"('cti', 1.643),nan",0,7468.363,0,0.02,same
0,417,invalid_adjacent_other_bar,"[(1120, 803)]",[],[1],[0.65],vertical,"(890.0, 762.0)",0.7166666666666667,0.606,1,7473.823,1,0.02,other
0,418,valid,"[(1157, 796)]",[],[1],[0.48333333333333334],vertical,"(890.0, 762.0)",0.6333333333333333,0.445,1,7479.897,1,0.02,same
0,419,catch,"[(1133, 774)]",[],[1],[],horizontal,"(890.0, 762.0)",1.7,nan,1,7484.159,1,0.02,same
0,420,valid,"[(1155, 780)]",[],[1],[0.48333333333333334],vertical,"(390.0, 262.0)",1.3166666666666667,0.443,1,7489.554,2,0.02,same
0,421,valid,"[(1163, 785)]",[],[1],[0.5],horizontal,"(890.0, 262.0)",0.48333333333333334,0.457,1,7495.323,2,0.02,same
0,422,valid,"[(1156, 797)]",[],[1],[0.6666666666666666],vertical,"(390.0, 762.0)",0.7166666666666667,0.626,1,7500.556,2,0.02,same
0,423,valid,"[(1125, 798)]",[],[1],[0.6],vertical,"(890.0, 762.0)",1.1666666666666667,0.559,1,7506.147,3,0.02,same
0,424,valid,"[(1143, 782)]",[],[1],[0.5],vertical,"(890.0, 762.0)",0.5166666666666666,0.46,1,7512.764,3,0.02,same
0,425,catch,"[(1170, 799)]",[],[1],[],vertical,"(390.0, 262.0)",1.7,nan,1,7517.976,3,0.02,same
0,426,valid,"[(1132, 803)]",[],[1],[0.5833333333333334],vertical,"(390.0, 762.0)",0.7833333333333333,0.544,1,7524.139,3,0.02,same
0,427,invalid_same_bar,"[(1160, 776)]",[],[1],[0.5333333333333333],vertical,"(390.0, 262.0)",0.9166666666666666,0.501,1,7529.694,3,0.02,same
0,428,valid,"[(1120, 783)]",[],[1],[0.5833333333333334],horizontal,"(890.0, 762.0)",1.3333333333333333,0.54,1,7535.288,3,0.02,same
0,429,valid,"[(1135, 806)]",[],[1],[0.5166666666666666],vertical,"(890.0, 262.0)",0.6333333333333333,0.473,1,7541.522,3,0.02,same
0,430,valid,"[(1125, 765)]",[],[1],[0.6666666666666666],horizontal,"(390.0, 262.0)",0.5333333333333333,0.625,1,7546.806,3,0.02,same
0,431,valid,"[(1142, 782)]",[],[1],[0.5666666666666667],horizontal,"(390.0, 762.0)",0.43333333333333335,0.528,1,7552.147,3,0.02,same
0,432,catch,"[(1165, 799)]",[],[1],[],vertical,"(390.0, 262.0)",1.7,nan,1,7557.539,3,0.02,same
0,433,catch,"[(1160, 791)]",[],[1],[],horizontal,"(390.0, 762.0)",1.7,nan,1,7563.726,3,0.02,same
0,434,catch,"[(1131, 783)]",[],[1],[],vertical,"(390.0, 262.0)",1.7,nan,1,7569.883,3,0.02,same
0,435,catch,"[(1146, 805)]",[],[1],[],horizontal,"(390.0, 262.0)",1.7,nan,1,7575.538,3,0.02,same
0,436,valid,"[(1170, 787)]",[],[1],[0.5333333333333333],vertical,"(890.0, 262.0)",0.5833333333333334,0.496,1,7582.111,3,0.02,same
0,437,valid,"[(1165, 777)]",[],[1],[0.6],horizontal,"(390.0, 762.0)",1.5,0.558,1,7587.488,3,0.02,same
0,438,valid,"[(1136, 800)]",[],[1],[0.4666666666666667],vertical,"(390.0, 762.0)",0.5166666666666666,0.439,1,7593.564,3,0.02,same
0,439,valid,"[(1156, 781)]",[],[1],[0.5],vertical,"(390.0, 262.0)",0.4666666666666667,0.46,1,7599.118,3,0.02,same
0,440,valid,"[(1120, 772)]",[],[1],[0.5],horizontal,"(390.0, 262.0)",0.9833333333333333,0.458,1,7604.64,3,0.02,same
0,441,catch,"[(1134, 804)]",[],[1],[],vertical,"(390.0, 262.0)",1.7,nan,1,7610.21,3,0.02,same
0,442,catch,"[(1142, 799)]",[],[1],[],vertical,"(390.0, 762.0)",1.7,nan,1,7616.575,3,0.02,same
0,443,valid,"[(1168, 788)]",[],[1],[0.5166666666666666],horizontal,"(390.0, 262.0)",0.5666666666666667,0.478,1,7622.583,3,0.02,same
0,444,valid,"[(1165, 783)]",[],[1],[0.3],vertical,"(890.0, 262.0)",1.5166666666666666,0.259,1,7627.84,3,0.02,same
0,445,valid,"[(1138, 798)]",[],[1],[0.7166666666666667],horizontal,"(390.0, 762.0)",0.9833333333333333,0.671,1,7634.198,3,0.02,same
0,446,valid,"[(1136, 799)]",[],[1],[0.4666666666666667],vertical,"(390.0, 262.0)",1.35,0.427,1,7640.624,3,0.02,same
0,447,valid,"[(1089, 807)]",[],[1],[0.5333333333333333],vertical,"(890.0, 762.0)",0.8666666666666667,0.496,1,7647.138,3,0.02,same
0,448,valid,"[(1140, 795)]",[],[1],[0.5333333333333333],horizontal,"(890.0, 762.0)",1.4,0.509,1,7653.023,3,0.02,same
0,449,valid,"[(1135, 806)]",[],[1],[0.5166666666666666],horizontal,"(890.0, 262.0)",0.43333333333333335,0.474,1,7659.041,3,0.02,same
0,450,invalid_same_bar,"[(1155, 772)]",[],[1],[0.6333333333333333],horizontal,"(390.0, 262.0)",0.6,0.593,1,7664.263,3,0.02,same
0,451,valid,"[(1135, 789)]",[],[1],"[0.85, 0.85]",vertical,"(390.0, 762.0)",1.5166666666666666,"0.801,nan",0,7669.535,0,0.02,same
0,452,valid,"[(1135, 795)]",[],[1],[0.5333333333333333],vertical,"(890.0, 262.0)",1.3666666666666667,0.493,1,7674.747,1,0.02,same
0,453,catch,"[(1135, 773)]",[],[1],[],vertical,"(890.0, 262.0)",1.7,nan,1,7679.933,1,0.02,same
0,454,valid,"[(1165, 791)]",[],[1],[0.5166666666666666],vertical,"(390.0, 262.0)",1.45,0.471,1,7684.922,1,0.02,same
0,455,valid,"[(1164, 784)]",[],[1],[0.5333333333333333],vertical,"(390.0, 262.0)",1.2333333333333334,0.495,1,7690.514,2,0.02,same
0,456,valid,"[(1135, 786)]",[],[1],[0.48333333333333334],horizontal,"(390.0, 762.0)",1.4666666666666666,0.441,1,7696.207,2,0.02,same
0,457,catch,"[(1089, 848)]",[],[1],[],horizontal,"(390.0, 262.0)",1.7,nan,1,7702.49,2,0.02,same
0,458,valid,"[(1075, 811)]",[],[1],[0.5666666666666667],horizontal,"(390.0, 762.0)",1.5,0.518,1,7708.399,3,0.02,same
0,459,catch,"[(1140, 791)]",[],[1],[],vertical,"(390.0, 762.0)",1.7,nan,1,7715.023,3,0.02,same
0,460,valid,"[(1165, 767)]",[],[1],[0.85],vertical,"(890.0, 262.0)",1.1166666666666667,nan,0,7721.139,0,0.02,same
0,461,catch,"[(1086, 774)]",[],[1],[],horizontal,"(890.0, 762.0)",1.7,nan,1,7725.957,1,0.02,same
0,462,valid,"[(1140, 781)]",[],[1],[0.5166666666666666],horizontal,"(890.0, 262.0)",0.7,0.473,1,7731.656,1,0.02,same
0,463,valid,"[(1120, 801)]",[],[1],[0.6333333333333333],horizontal,"(390.0, 262.0)",0.8666666666666667,0.589,1,7736.272,1,0.02,same
0,464,catch,"[(1165, 806)]",[],[1],[],vertical,"(390.0, 762.0)",,"('cti', 1.648),nan",0,7741.706,0,0.04,same
0,465,invalid_adjacent_other_bar,"[(1135, 795)]",[],[1],[0.48333333333333334],horizontal,"(890.0, 262.0)",0.5833333333333334,0.44,1,7746.623,1,0.04,other
0,466,catch,"[(1136, 800)]",[],[1],[],vertical,"(390.0, 762.0)",1.7,nan,1,7751.13,1,0.02,same
0,467,valid,"[(1138, 774)]",[],[1],[0.85],horizontal,"(890.0, 762.0)",1.1666666666666667,nan,0,7756.9,0,0.02,same
0,468,valid,"[(1136, 779)]",[],[1],[0.5833333333333334],vertical,"(390.0, 262.0)",0.36666666666666664,0.539,1,7761.974,1,0.02,same
0,469,valid,"[(1154, 776)]",[],[1],[0.48333333333333334],vertical,"(390.0, 762.0)",0.8666666666666667,0.441,1,7766.366,1,0.02,same
0,470,invalid_same_bar,"[(1155, 778)]",[],[1],[0.5833333333333334],horizontal,"(890.0, 762.0)",1.3666666666666667,0.547,1,7771.406,1,0.02,same
0,471,invalid_same_bar,"[(1120, 783)]",[],[1],[0.6166666666666667],horizontal,"(890.0, 262.0)",0.9833333333333333,0.572,1,7777.156,2,0.02,same
0,472,valid,"[(1140, 801)]",[],[1],[0.6],horizontal,"(390.0, 762.0)",0.3833333333333333,0.559,1,7782.8,2,0.02,same
0,473,valid,"[(1135, 789)]",[],[1],[0.5],vertical,"(890.0, 762.0)",0.85,0.461,1,7787.709,2,0.02,same
0,474,catch,"[(1115, 791)]",[],[1],[],horizontal,"(390.0, 262.0)",1.7,nan,1,7792.865,3,0.02,same
0,475,catch,"[(1146, 782)]",[],[1],[],horizontal,"(390.0, 262.0)",1.7,nan,1,7799.274,3,0.02,same
0,476,catch,"[(1086, 795)]",[],[1],[],horizontal,"(890.0, 262.0)",1.7,nan,1,7805.559,3,0.02,same
0,477,catch,"[(1160, 765)]",[],[1],[],horizontal,"(890.0, 262.0)",1.7,nan,1,7811.289,3,0.02,same
0,478,valid,"[(1141, 794)]",[],[1],[0.5166666666666666],vertical,"(390.0, 762.0)",0.43333333333333335,0.474,1,7817.14,3,0.02,same
0,479,valid,"[(1141, 799)]",[],[1],[0.5],horizontal,"(390.0, 262.0)",0.7833333333333333,0.46,1,7822.293,3,0.02,same
0,480,valid,"[(1141, 804)]",[],[1],[0.6],vertical,"(390.0, 762.0)",0.5666666666666667,0.561,1,7828.185,3,0.02,same
0,481,catch,"[(1121, 776)]",[],[1],[],horizontal,"(890.0, 262.0)",1.7,nan,1,7833.691,3,0.02,same
0,482,catch,"[(1150, 788)]",[],[1],[],horizontal,"(890.0, 762.0)",1.7,nan,1,7839.908,3,0.02,same
0,483,valid,"[(1143, 774)]",[],[1],[0.5833333333333334],horizontal,"(890.0, 262.0)",0.9833333333333333,0.542,1,7845.679,3,0.02,same
0,484,catch,"[(1166, 802)]",[],[1],[],vertical,"(890.0, 262.0)",1.7,nan,1,7851.364,3,0.02,same
0,485,valid,"[(1140, 804)]",[],[1],[0.65],horizontal,"(390.0, 262.0)",0.5166666666666666,0.605,1,7857.441,3,0.02,same
0,486,valid,"[(1145, 785)]",[],[1],[0.65],horizontal,"(390.0, 262.0)",1.1833333333333333,0.605,1,7863.024,3,0.02,same
0,487,valid,"[(1121, 783)]",[],[1],[0.55],horizontal,"(890.0, 762.0)",0.7833333333333333,0.51,1,7869.24,3,0.02,same
0,488,valid,"[(1087, 814)]",[],[1],[0.5666666666666667],horizontal,"(890.0, 762.0)",0.45,0.523,1,7875.347,3,0.02,same
0,489,catch,"[(1093, 842)]",[],[1],[],horizontal,"(390.0, 762.0)",1.7,nan,1,7880.607,3,0.02,same
0,490,valid,"[(1155, 798)]",[],[1],[0.5],vertical,"(890.0, 262.0)",0.7333333333333333,0.47,1,7887.135,3,0.02,same
0,491,valid,"[(1140, 766)]",[],[1],[0.4666666666666667],horizontal,"(890.0, 262.0)",0.48333333333333334,0.426,1,7892.44,3,0.02,same
0,492,valid,"[(1136, 814)]",[],[1],[0.5],vertical,"(390.0, 762.0)",0.85,0.463,1,7897.77,3,0.02,same
0,493,invalid_same_bar,"[(1135, 791)]",[],[1],[0.5],horizontal,"(890.0, 762.0)",0.7166666666666667,0.466,1,7903.514,3,0.02,same
0,494,valid,"[(1155, 804)]",[],[1],[0.85],horizontal,"(390.0, 762.0)",1.1166666666666667,nan,0,7909.068,0,0.02,same
0,495,valid,"[(1120, 799)]",[],[1],[0.5166666666666666],vertical,"(390.0, 262.0)",0.7166666666666667,0.477,1,7914.105,1,0.02,same
0,496,valid,"[(1130, 794)]",[],[1],[0.5],horizontal,"(390.0, 762.0)",0.8,0.459,1,7918.92,1,0.02,same
0,497,valid,"[(1125, 790)]",[],[1],[0.45],horizontal,"(390.0, 262.0)",1.4333333333333333,0.408,1,7923.891,1,0.02,same
0,498,invalid_adjacent_other_bar,"[(1163, 795)]",[],[1],[0.5333333333333333],horizontal,"(390.0, 262.0)",1.2166666666666666,0.5,1,7929.623,2,0.02,other
0,499,catch,"[(1090, 816)]",[],[1],[],vertical,"(890.0, 262.0)",1.7,nan,1,7935.105,2,0.02,same
0,500,valid,"[(1135, 796)]",[],[1],[0.5],horizontal,"(890.0, 262.0)",1.0333333333333332,0.46,1,7940.681,2,0.02,same
0,501,catch,"[(1136, 792)]",[],[1],[],horizontal,"(390.0, 262.0)",1.7,nan,1,7946.193,3,0.02,same
0,502,valid,"[(1150, 789)]",[],[1],[0.48333333333333334],vertical,"(390.0, 262.0)",1.35,0.446,1,7952.062,3,0.02,same
0,503,valid,"[(1150, 792)]",[],[1],[0.5666666666666667],vertical,"(890.0, 762.0)",0.3833333333333333,0.527,1,7958.366,3,0.02,same
0,504,valid,"[(1136, 787)]",[],[1],[0.5166666666666666],vertical,"(890.0, 762.0)",0.85,0.477,1,7963.749,3,0.02,same
0,505,valid,"[(1136, 794)]",[],[1],[0.4666666666666667],vertical,"(890.0, 262.0)",1.4166666666666667,0.423,1,7969.73,3,0.02,same
0,506,catch,"[(1089, 787)]",[],[1],[],horizontal,"(890.0, 762.0)",1.7,nan,1,7976.183,3,0.02,same
0,507,catch,"[(1140, 779)]",[],[1],[],horizontal,"(390.0, 762.0)",1.7,nan,1,7982.639,3,0.02,same
0,508,valid,"[(1150, 788)]",[],[1],[0.5333333333333333],horizontal,"(890.0, 762.0)",0.5333333333333333,0.494,1,7988.662,3,0.02,same
0,509,valid,"[(1138, 792)]",[],[1],[0.48333333333333334],horizontal,"(890.0, 262.0)",1.35,0.441,1,7994.266,3,0.02,same
0,510,catch,"[(1162, 769)]",[],[1],[],vertical,"(890.0, 262.0)",1.7,nan,1,8000.799,3,0.02,same
0,511,catch,"[(1155, 770)]",[],[1],[],vertical,"(890.0, 762.0)",1.7,nan,1,8007.131,3,0.02,same
0,512,valid,"[(1135, 794)]",[],[1],[0.6833333333333333],horizontal,"(890.0, 762.0)",1.1333333333333333,0.648,1,8012.941,3,0.02,same
0,513,catch,"[(1132, 801)]",[],[1],[],horizontal,"(390.0, 262.0)",1.7,nan,1,8019.124,3,0.02,same
0,514,valid,"[(1135, 779)]",[],[1],[0.85],vertical,"(390.0, 762.0)",0.65,nan,0,8025.915,0,0.0,same
0,515,valid,"[(1090, 797)]",[],[1],[0.5666666666666667],horizontal,"(890.0, 762.0)",1.1833333333333333,0.521,1,8030.367,1,0.0,same
0,516,valid,"[(1081, 866)]",[],[1],[0.4166666666666667],horizontal,"(890.0, 762.0)",0.7166666666666667,0.376,1,8035.375,1,0.0,same
0,517,valid,"[(1132, 764)]",[],[1],[0.48333333333333334],horizontal,"(890.0, 262.0)",0.45,0.442,1,8681.377,1,0.0,same
0,518,valid,"[(1125, 800)]",[],[1],[0.5],vertical,"(890.0, 762.0)",0.4166666666666667,0.463,1,8685.993,2,0.0,same
0,519,catch,"[(1163, 769)]",[],[1],[],vertical,"(890.0, 762.0)",1.7,nan,1,8691.203,2,0.0,same
0,520,invalid_same_bar,"[(1160, 782)]",[],[1],[0.48333333333333334],vertical,"(890.0, 262.0)",1.3333333333333333,0.442,1,8696.504,2,0.0,same
0,521,valid,"[(1115, 775)]",[],[1],[0.7],horizontal,"(890.0, 762.0)",1.2,0.66,1,8702.31,3,0.0,same
0,522,valid,"[(1140, 774)]",[],[1],[0.4666666666666667],horizontal,"(890.0, 762.0)",1.0666666666666667,0.431,1,8708.309,3,0.0,same
0,523,catch,"[(1155, 784)]",[],[1],[],horizontal,"(390.0, 762.0)",1.7,nan,1,8714.259,3,0.0,same
0,524,valid,"[(1158, 790)]",[],[1],[0.5333333333333333],vertical,"(390.0, 762.0)",1.3833333333333333,0.491,1,8719.893,3,0.0,same
0,525,catch,"[(1153, 783)]",[],[1],[],horizontal,"(390.0, 762.0)",1.7,nan,1,8726.508,3,0.0,same
0,526,catch,"[(1158, 783)]",[],[1],[],horizontal,"(890.0, 262.0)",1.7,nan,1,8732.344,3,0.0,same
0,527,valid,"[(1160, 797)]",[],[1],[0.55],horizontal,"(890.0, 762.0)",1.5333333333333332,0.51,1,8738.293,3,0.0,same
0,528,valid,"[(1140, 797)]",[],[1],[0.6333333333333333],horizontal,"(890.0, 262.0)",1.05,0.587,1,8744.469,3,0.0,same
0,529,valid,"[(1166, 768)]",[],[1],[0.5166666666666666],horizontal,"(890.0, 762.0)",0.3833333333333333,0.48,1,8750.642,3,0.0,same
0,530,valid,"[(1172, 784)]",[],[1],[0.6],vertical,"(390.0, 262.0)",0.4,0.561,1,8755.434,3,0.0,same
0,531,valid,"[(1171, 793)]",[],[1],[0.4666666666666667],vertical,"(890.0, 262.0)",0.6333333333333333,0.426,1,8760.644,3,0.0,same
0,532,catch,"[(1130, 809)]",[],[1],[],horizontal,"(390.0, 762.0)",1.7,nan,1,8766.01,3,0.0,same
0,533,valid,"[(1163, 799)]",[],[1],[0.6],horizontal,"(890.0, 262.0)",0.8166666666666667,0.559,1,8772.06,3,0.0,same
0,534,valid,"[(1169, 784)]",[],[1],[0.5333333333333333],vertical,"(390.0, 762.0)",0.5,0.492,1,8778.066,3,0.0,same
0,535,catch,"[(1164, 787)]",[],[1],[],horizontal,"(390.0, 262.0)",1.7,nan,1,8783.26,3,0.0,same
0,536,valid,"[(1135, 773)]",[],[1],[0.6333333333333333],horizontal,"(890.0, 262.0)",0.43333333333333335,0.6,1,8789.494,3,0.0,same
0,537,valid,"[(1167, 785)]",[],[1],[0.5],vertical,"(390.0, 762.0)",0.6333333333333333,0.463,1,8794.572,3,0.0,same
0,538,valid,"[(1163, 776)]",[],[1],[0.5833333333333334],vertical,"(390.0, 262.0)",0.7,0.548,1,8799.786,3,0.0,same
0,539,valid,"[(1166, 796)]",[],[1],[0.48333333333333334],vertical,"(890.0, 262.0)",0.9,0.451,1,8805.01,3,0.0,same
0,540,valid,"[(1121, 804)]",[],[1],[0.48333333333333334],vertical,"(890.0, 762.0)",0.7166666666666667,0.451,1,8810.573,3,0.0,same
0,541,catch,"[(1160, 786)]",[],[1],[],horizontal,"(890.0, 262.0)",1.7,nan,1,8816.194,3,0.0,same
0,542,catch,"[(1140, 794)]",[],[1],[],horizontal,"(890.0, 762.0)",1.7,nan,1,8822.081,3,0.0,same
0,543,catch,"[(1150, 794)]",[],[1],[],vertical,"(890.0, 762.0)",1.7,nan,1,8827.91,3,0.0,same
0,544,valid,"[(1130, 803)]",[],[1],[0.5333333333333333],vertical,"(890.0, 762.0)",0.65,0.498,1,8833.639,3,0.0,same
0,545,valid,"[(1155, 776)]",[],[1],[0.5],vertical,"(890.0, 762.0)",0.6166666666666667,0.465,1,8839.451,3,0.0,same
0,546,invalid_adjacent_other_bar,"[(1144, 782)]",[],[1],[0.5166666666666666],horizontal,"(390.0, 762.0)",0.45,0.475,1,8844.861,3,0.0,other
0,547,invalid_adjacent_other_bar,"[(1140, 774)]",[],[1],[0.7],horizontal,"(390.0, 762.0)",0.8166666666666667,0.657,1,8850.408,3,0.0,other
0,548,catch,"[(1138, 779)]",[],[1],[],vertical,"(390.0, 262.0)",1.7,nan,1,8856.327,3,0.0,same
0,549,valid,"[(1137, 773)]",[],[1],[0.5333333333333333],vertical,"(890.0, 762.0)",1.2333333333333334,0.499,1,8862.628,3,0.0,same
0,550,catch,"[(1144, 776)]",[],[1],[],horizontal,"(390.0, 762.0)",1.7,nan,1,8868.477,3,0.0,same
0,551,valid,"[(1163, 802)]",[],[1],[0.48333333333333334],vertical,"(890.0, 262.0)",1.35,0.448,1,8874.577,3,0.0,same
0,552,valid,"[(1160, 777)]",[],[1],[0.5166666666666666],horizontal,"(390.0, 262.0)",1.5333333333333332,0.474,1,8880.682,3,0.0,same
0,553,valid,"[(1150, 788)]",[],[1],[0.5166666666666666],vertical,"(390.0, 762.0)",0.5333333333333333,0.475,1,8886.727,3,0.0,same
0,554,valid,"[(1136, 785)]",[],[1],[0.6166666666666667],horizontal,"(890.0, 262.0)",0.35,0.571,1,8892.192,3,0.0,same
0,555,valid,"[(1165, 772)]",[],[1],[0.7],vertical,"(390.0, 262.0)",1.1333333333333333,0.652,1,8897.632,3,0.0,same
0,556,invalid_adjacent_other_bar,"[(1161, 778)]",[],[1],[0.85],horizontal,"(390.0, 262.0)",1.2666666666666666,nan,0,8903.678,0,0.0,other
0,557,valid,"[(1136, 793)]",[],[1],[0.6666666666666666],vertical,"(890.0, 762.0)",0.95,0.623,1,8908.675,1,0.0,same
0,558,valid,"[(1150, 775)]",[],[1],[0.45],vertical,"(390.0, 762.0)",0.5833333333333334,0.417,1,8914.054,1,0.0,same
0,559,invalid_same_bar,"[(1135, 815)]",[],[1],[0.85],horizontal,"(390.0, 762.0)",0.45,nan,0,8918.641,0,0.0,same
0,560,valid,"[(1090, 878)]",[],[1],[0.48333333333333334],horizontal,"(390.0, 262.0)",0.6166666666666667,0.44,1,8923.26,1,0.0,same
0,561,invalid_same_bar,"[(1131, 794)]",[],[1],[0.85],vertical,"(890.0, 762.0)",1.4166666666666667,nan,0,9921.497,0,0.0,same
0,562,valid,"[(1135, 801)]",[],[1],[0.85],horizontal,"(890.0, 762.0)",0.95,nan,0,9926.531,0,0.0,same
0,563,catch,"[(1095, 829)]",[],[1],[],vertical,"(390.0, 762.0)",1.7,nan,1,9931.464,1,0.0,same
0,564,catch,"[(1135, 814)]",[],[1],[],vertical,"(390.0, 262.0)",1.7,nan,1,9939.007,1,0.0,same
0,565,catch,"[(1161, 793)]",[],[1],[],vertical,"(390.0, 262.0)",1.7,nan,1,9944.165,1,0.0,same
0,566,catch,"[(1141, 813)]",[],[1],[],vertical,"(390.0, 762.0)",1.7,nan,1,9948.952,2,0.0,same
0,567,valid,"[(1155, 799)]",[],[1],[0.5833333333333334],horizontal,"(390.0, 262.0)",0.8666666666666667,0.543,1,9954.705,2,0.0,same
0,568,catch,"[(1160, 806)]",[],[1],[],vertical,"(890.0, 762.0)",1.7,nan,1,9960.069,2,0.0,same
0,569,valid,"[(1142, 800)]",[],[1],[0.4666666666666667],vertical,"(890.0, 762.0)",1.2166666666666666,0.424,1,9965.533,3,0.0,same
0,570,catch,"[(1160, 798)]",[],[1],[],vertical,"(890.0, 262.0)",1.7,nan,1,9971.781,3,0.0,same
0,571,valid,"[(1160, 779)]",[],[1],[0.5833333333333334],horizontal,"(390.0, 262.0)",0.8,0.543,1,9978.114,3,0.0,same
0,572,valid,"[(1087, 851)]",[],[1],[0.5],vertical,"(890.0, 762.0)",1.1666666666666667,0.459,1,9983.897,3,0.0,same
0,573,valid,"[(1082, 907)]",[],[1],[0.85],horizontal,"(890.0, 762.0)",0.6666666666666666,nan,0,9990.114,0,0.0,same
0,574,valid,"[(1093, 822)]",[],[1],[0.55],horizontal,"(390.0, 262.0)",0.9,0.507,1,9994.657,1,0.0,same
0,575,catch,"[(1075, 811)]",[],[1],[],horizontal,"(890.0, 262.0)",,"('cti', 1.654),nan",0,9999.246,0,0.02,same
0,576,catch,"[(1132, 791)]",[],[1],[],horizontal,"(390.0, 262.0)",1.7,nan,1,10307.565,1,0.02,same
0,577,valid,"[(1161, 794)]",[],[1],[0.85],horizontal,"(390.0, 262.0)",0.5666666666666667,nan,0,10312.698,0,0.02,same
0,578,valid,"[(1130, 820)]",[],[1],[0.5166666666666666],vertical,"(390.0, 762.0)",1.3666666666666667,0.478,1,10317.14,1,0.02,same
0,579,valid,"[(1157, 779)]",[],[1],[0.85],vertical,"(390.0, 762.0)",0.85,nan,0,10322.715,0,0.02,same
0,580,catch,"[(1135, 775)]",[],[1],[],horizontal,"(890.0, 762.0)",1.7,nan,1,10327.149,1,0.02,same
0,581,catch,"[(1148, 777)]",[],[1],[],vertical,"(390.0, 762.0)",1.7,nan,1,10332.497,1,0.02,same
0,582,valid,"[(1170, 793)]",[],[1],[0.85],horizontal,"(390.0, 262.0)",0.43333333333333335,nan,0,10337.448,0,0.02,same
0,583,valid,"[(1109, 778)]",[],[1],[0.48333333333333334],vertical,"(890.0, 262.0)",1.3,0.444,1,10341.544,1,0.02,same
0,584,catch,"[(1152, 808)]",[],[1],[],vertical,"(890.0, 262.0)",1.7,nan,1,10346.765,1,0.02,same
0,585,valid,"[(1118, 813)]",[],[1],[0.5],horizontal,"(890.0, 262.0)",0.43333333333333335,0.459,1,10351.583,1,0.02,same
0,586,catch,"[(1181, 789)]",[],[1],[],vertical,"(390.0, 262.0)",1.7,nan,1,10356.076,2,0.02,same
0,587,valid,"[(1175, 789)]",[],[1],[0.55],vertical,"(890.0, 262.0)",0.9333333333333333,0.507,1,10361.731,2,0.02,same
0,588,valid,"[(1156, 789)]",[],[1],[0.5333333333333333],vertical,"(890.0, 762.0)",1.4,0.491,1,10367.032,2,0.02,same
0,589,catch,"[(1140, 782)]",[],[1],[],horizontal,"(890.0, 262.0)",1.7,nan,1,10372.967,3,0.02,same
0,590,catch,"[(1172, 800)]",[],[1],[],vertical,"(890.0, 762.0)",1.7,nan,1,10379.5,3,0.02,same
0,591,valid,"[(1160, 783)]",[],[1],[0.85],horizontal,"(390.0, 262.0)",1.2166666666666666,nan,0,10385.115,0,0.02,same
0,592,valid,"[(1124, 791)]",[],[1],[0.5666666666666667],vertical,"(890.0, 762.0)",0.85,0.524,1,10389.948,1,0.02,same
0,593,catch,"[(1121, 782)]",[],[1],[],horizontal,"(890.0, 762.0)",1.7,nan,1,10394.532,1,0.02,same
0,594,invalid_adjacent_other_bar,"[(1127, 788)]",[],[1],[0.8],horizontal,"(390.0, 262.0)",0.48333333333333334,0.761,1,10399.907,1,0.02,other
0,595,valid,"[(1187, 797)]",[],[1],[0.5166666666666666],vertical,"(390.0, 262.0)",0.5833333333333334,0.477,1,10405.098,2,0.02,same
0,596,valid,"[(1140, 776)]",[],[1],[0.85],vertical,"(390.0, 762.0)",1.4666666666666666,nan,0,10409.649,0,0.02,same
0,597,valid,"[(1140, 798)]",[],[1],[0.48333333333333334],vertical,"(890.0, 262.0)",0.95,0.442,1,10414.8,1,0.02,same
0,598,valid,"[(1151, 789)]",[],[1],[0.5166666666666666],vertical,"(390.0, 262.0)",1.1833333333333333,0.472,1,10419.683,1,0.02,same
0,599,valid,"[(1124, 789)]",[],[1],[0.5],vertical,"(890.0, 262.0)",1.1,0.462,1,10425.055,1,0.02,same
0,600,valid,"[(1170, 786)]",[],[1],[0.85],vertical,"(390.0, 762.0)",1.4666666666666666,nan,0,10430.082,0,0.02,same
0,601,valid,"[(1127, 786)]",[],[1],[0.5],horizontal,"(890.0, 262.0)",1.45,0.456,1,10435.266,1,0.02,same
0,602,valid,"[(1168, 790)]",[],[1],[0.5166666666666666],vertical,"(390.0, 262.0)",0.5666666666666667,0.487,1,10440.416,1,0.02,same
0,603,valid,"[(1120, 804)]",[],[1],[0.85],horizontal,"(390.0, 262.0)",1.2666666666666666,nan,0,10445.073,0,0.02,same
0,604,valid,"[(1130, 803)]",[],[1],[0.65],vertical,"(390.0, 762.0)",0.4166666666666667,0.615,1,10450.816,1,0.02,same
0,605,valid,"[(1132, 787)]",[],[1],[0.5333333333333333],vertical,"(890.0, 762.0)",1.1,0.496,1,10455.557,1,0.02,same
0,606,catch,"[(1165, 804)]",[],[1],[0.03333333333333333],vertical,"(390.0, 262.0)",1.7,"0.02,nan",0,10460.889,0,0.04,same
0,607,invalid_adjacent_other_bar,"[(1125, 789)]",[],[1],[0.85],vertical,"(390.0, 762.0)",0.85,nan,0,10465.849,0,0.04,other
0,608,catch,"[(1086, 803)]",[],[1],[],horizontal,"(390.0, 262.0)",1.7,nan,1,10471.215,1,0.04,same
0,609,valid,"[(1086, 844)]",[],[1],[0.4166666666666667],horizontal,"(890.0, 262.0)",1.0,0.381,1,10476.282,1,0.04,same
0,610,valid,"[(1131, 827)]",[],[1],[0.75],horizontal,"(390.0, 762.0)",1.0666666666666667,0.71,1,10481.27,1,0.04,same
0,611,valid,"[(1111, 793)]",[],[1],[0.55],vertical,"(390.0, 262.0)",0.5,0.506,1,10486.6,2,0.04,same
0,612,valid,"[(1100, 804)]",[],[1],[0.5333333333333333],horizontal,"(390.0, 262.0)",0.4666666666666667,0.492,1,10491.511,2,0.04,same
0,613,valid,"[(1125, 800)]",[],[1],[0.6333333333333333],horizontal,"(890.0, 262.0)",0.7166666666666667,0.591,1,10496.482,2,0.04,same
0,614,invalid_adjacent_other_bar,"[(1127, 796)]",[],[1],[0.7833333333333333],vertical,"(390.0, 262.0)",1.3333333333333333,0.737,1,10501.681,3,0.04,other
0,615,valid,"[(1154, 779)]",[],[1],[0.5333333333333333],vertical,"(390.0, 762.0)",1.25,0.49,1,10508.046,3,0.04,same
0,616,catch,"[(1122, 780)]",[],[1],[],horizontal,"(390.0, 762.0)",1.7,nan,1,10514.206,3,0.04,same
0,617,catch,"[(1168, 793)]",[],[1],[],horizontal,"(890.0, 762.0)",1.7,nan,1,10520.682,3,0.04,same
0,618,catch,"[(1190, 793)]",[],[1],[],horizontal,"(390.0, 762.0)",1.7,nan,1,10526.965,3,0.04,same
0,619,valid,"[(1120, 796)]",[],[1],[0.43333333333333335],horizontal,"(890.0, 262.0)",1.3166666666666667,0.397,1,10532.979,3,0.04,same
0,620,valid,"[(1150, 803)]",[],[1],[0.5],horizontal,"(890.0, 762.0)",0.55,0.461,1,10539.532,3,0.04,same
0,621,invalid_same_bar,"[(1125, 795)]",[],[1],[0.55],vertical,"(390.0, 762.0)",1.5333333333333332,0.506,1,10545.133,3,0.04,same
0,622,valid,"[(1122, 799)]",[],[1],[0.5166666666666666],horizontal,"(390.0, 262.0)",0.7166666666666667,0.474,1,10551.383,3,0.04,same
0,623,catch,"[(1120, 802)]",[],[1],[],horizontal,"(890.0, 762.0)",1.7,nan,1,10557.066,3,0.04,same
0,624,catch,"[(1123, 795)]",[],[1],[],horizontal,"(890.0, 262.0)",1.7,nan,1,10562.966,3,0.04,same
0,625,valid,"[(1121, 790)]",[],[1],[0.55],horizontal,"(390.0, 762.0)",1.05,0.505,1,10568.733,3,0.02,same
0,626,valid,"[(1135, 811)]",[],[1],[0.5333333333333333],vertical,"(890.0, 762.0)",0.5833333333333334,0.493,1,10574.741,3,0.02,same
0,627,valid,"[(1135, 800)]",[],[1],[0.5833333333333334],horizontal,"(890.0, 262.0)",0.4666666666666667,0.537,1,10579.923,3,0.02,same
0,628,valid,"[(1132, 789)]",[],[1],[0.48333333333333334],vertical,"(890.0, 262.0)",0.4666666666666667,0.445,1,10585.024,3,0.02,same
0,629,valid,"[(1174, 779)]",[],[1],[0.5833333333333334],horizontal,"(890.0, 762.0)",0.9166666666666666,0.54,1,10590.533,3,0.02,same
0,630,invalid_adjacent_other_bar,"[(1150, 790)]",[],[1],[0.6166666666666667],horizontal,"(890.0, 262.0)",1.0,0.569,1,10595.913,3,0.02,other
0,631,valid,"[(1140, 793)]",[],[1],[0.55],horizontal,"(390.0, 762.0)",0.65,0.509,1,10602.25,3,0.02,same
0,632,valid,"[(1136, 787)]",[],[1],[0.5166666666666666],horizontal,"(390.0, 762.0)",1.2,0.483,1,10608.226,3,0.02,same
0,633,catch,"[(1131, 781)]",[],[1],[],horizontal,"(890.0, 762.0)",1.7,nan,1,10613.95,3,0.02,same
0,634,valid,"[(1150, 777)]",[],[1],[0.5666666666666667],vertical,"(890.0, 762.0)",0.7833333333333333,0.527,1,10619.856,3,0.02,same
0,635,invalid_adjacent_other_bar,"[(1131, 787)]",[],[1],[0.5166666666666666],vertical,"(390.0, 762.0)",0.9666666666666667,0.471,1,10625.454,3,0.02,other
0,636,catch,"[(1127, 779)]",[],[1],[],vertical,"(390.0, 762.0)",1.7,nan,1,10631.333,3,0.02,same
0,637,valid,"[(1144, 783)]",[],[1],[0.85],vertical,"(890.0, 262.0)",0.35,nan,0,10637.566,0,0.02,same
0,638,valid,"[(1086, 781)]",[],[1],[0.48333333333333334],horizontal,"(890.0, 262.0)",0.9833333333333333,0.445,1,10641.555,1,0.02,same
0,639,valid,"[(1120, 791)]",[],[1],[0.5],horizontal,"(390.0, 762.0)",0.6166666666666667,0.461,1,10646.535,1,0.02,same
0,640,valid,"[(1150, 783)]",[],[1],[0.45],vertical,"(890.0, 262.0)",1.5166666666666666,0.409,1,10650.649,1,0.02,same
0,641,valid,"[(1165, 783)]",[],[1],[0.35],vertical,"(890.0, 262.0)",1.4833333333333334,0.314,1,10655.901,2,0.02,same
0,642,valid,"[(1131, 790)]",[],[1],[0.55],horizontal,"(890.0, 262.0)",0.4166666666666667,0.503,1,10661.86,2,0.02,same
0,643,catch,"[(1145, 816)]",[],[1],[],horizontal,"(890.0, 262.0)",1.7,nan,1,10666.965,2,0.02,same
0,644,valid,"[(1131, 796)]",[],[1],[0.5166666666666666],vertical,"(390.0, 762.0)",1.1666666666666667,0.472,1,10672.508,3,0.02,same
0,645,valid,"[(1135, 791)]",[],[1],[0.7],vertical,"(390.0, 262.0)",0.8833333333333333,0.666,1,10678.168,3,0.02,same
0,646,valid,"[(1120, 799)]",[],[1],[0.5333333333333333],horizontal,"(890.0, 762.0)",0.8666666666666667,0.496,1,10684.19,3,0.02,same
0,647,valid,"[(1116, 775)]",[],[1],[0.5166666666666666],vertical,"(390.0, 762.0)",1.2333333333333334,0.475,1,10690.083,3,0.02,same
0,648,catch,"[(1127, 800)]",[],[1],[],horizontal,"(390.0, 262.0)",1.7,nan,1,10695.801,3,0.02,same
0,649,catch,"[(1125, 811)]",[],[1],[],vertical,"(390.0, 262.0)",1.7,nan,1,10701.734,3,0.02,same
0,650,valid,"[(1133, 798)]",[],[1],[0.85],vertical,"(390.0, 262.0)",0.4666666666666667,nan,0,10707.633,0,0.02,same
0,651,valid,"[(1093, 800)]",[],[1],[0.48333333333333334],vertical,"(890.0, 762.0)",0.8333333333333334,0.447,1,10711.757,1,0.02,same
0,652,catch,"[(1086, 823)]",[],[1],[],vertical,"(390.0, 262.0)",1.7,nan,1,10716.715,1,0.02,same
0,653,valid,"[(1135, 791)]",[],[1],[0.4166666666666667],horizontal,"(890.0, 262.0)",0.7666666666666666,0.38,1,10722.925,1,0.02,same
0,654,valid,"[(1133, 775)]",[],[1],[0.5833333333333334],horizontal,"(890.0, 262.0)",1.3666666666666667,0.544,1,10728.349,2,0.02,same
0,655,invalid_same_bar,"[(1131, 799)]",[],[1],[0.5],horizontal,"(890.0, 762.0)",0.35,0.461,1,10733.735,2,0.02,same
0,656,valid,"[(1135, 775)]",[],[1],[0.48333333333333334],horizontal,"(890.0, 762.0)",1.3666666666666667,0.451,1,10738.466,2,0.0,same
0,657,catch,"[(1130, 815)]",[],[1],[],horizontal,"(890.0, 262.0)",1.7,nan,1,10744.548,3,0.0,same
0,658,valid,"[(1170, 805)]",[],[1],[0.6666666666666666],vertical,"(390.0, 262.0)",0.7833333333333333,0.622,1,10750.905,3,0.0,same
0,659,invalid_same_bar,"[(1132, 790)]",[],[1],[0.6166666666666667],vertical,"(390.0, 262.0)",0.43333333333333335,0.572,1,10757.029,3,0.0,same
0,660,invalid_adjacent_other_bar,"[(1160, 800)]",[],[1],[0.6],vertical,"(390.0, 762.0)",0.8166666666666667,0.561,1,10762.235,3,0.0,other
0,661,valid,"[(1133, 803)]",[],[1],[0.55],horizontal,"(390.0, 762.0)",0.5666666666666667,0.508,1,10768.318,3,0.0,same
0,662,catch,"[(1125, 796)]",[],[1],[],vertical,"(890.0, 762.0)",1.7,nan,1,10773.672,3,0.0,same
0,663,valid,"[(1168, 794)]",[],[1],[0.4666666666666667],vertical,"(890.0, 762.0)",1.4166666666666667,0.429,1,10779.763,3,0.0,same
0,664,valid,"[(1167, 794)]",[],[1],[0.5166666666666666],horizontal,"(890.0, 262.0)",0.6833333333333333,0.478,1,10786.174,3,0.0,same
0,665,valid,"[(1165, 791)]",[],[1],[0.5166666666666666],vertical,"(890.0, 262.0)",0.8166666666666667,0.477,1,10791.75,3,0.0,same
0,666,valid,"[(1132, 799)]",[],[1],[0.5166666666666666],horizontal,"(890.0, 262.0)",0.9666666666666667,0.476,1,10797.483,3,0.0,same
0,667,catch,"[(1148, 787)]",[],[1],[],horizontal,"(390.0, 762.0)",,"('cti', 1.352),nan",0,10803.15,0,0.02,same
0,668,valid,"[(1093, 793)]",[],[1],[0.5],vertical,"(890.0, 262.0)",0.6333333333333333,0.461,1,10807.873,1,0.02,same
0,669,valid,"[(1120, 793)]",[],[1],[0.43333333333333335],vertical,"(890.0, 262.0)",1.4833333333333334,0.399,1,10812.4,1,0.02,same
0,670,catch,"[(1127, 797)]",[],[1],[],horizontal,"(890.0, 262.0)",1.7,nan,1,10817.721,1,0.02,same
0,671,valid,"[(1130, 776)]",[],[1],[0.85],vertical,"(390.0, 762.0)",0.35,nan,0,10823.5,0,0.02,same
0,672,valid,"[(1120, 793)]",[],[1],[0.5],horizontal,"(890.0, 762.0)",1.1,0.462,1,10827.833,1,0.02,same
0,673,catch,"[(1130, 798)]",[],[1],[],vertical,"(390.0, 762.0)",1.7,nan,1,10833.096,1,0.02,same
0,674,valid,"[(1130, 794)]",[],[1],[0.65],horizontal,"(390.0, 262.0)",1.2166666666666666,0.604,1,10838.8,1,0.02,same
0,675,valid,"[(1125, 799)]",[],[1],[0.31666666666666665],vertical,"(890.0, 262.0)",1.5333333333333332,0.278,1,10843.847,2,0.02,same
0,676,valid,"[(1155, 791)]",[],[1],[0.5666666666666667],vertical,"(390.0, 262.0)",1.3333333333333333,0.527,1,10850.107,2,0.02,same
0,677,invalid_same_bar,"[(1121, 807)]",[],[1],[0.45],vertical,"(890.0, 762.0)",1.0166666666666666,0.41,1,10855.8,2,0.02,same
0,678,valid,"[(1122, 799)]",[],[1],[0.5666666666666667],vertical,"(890.0, 762.0)",0.35,0.523,1,10861.421,3,0.02,same
0,679,valid,"[(1135, 781)]",[],[1],[0.5833333333333334],horizontal,"(890.0, 762.0)",1.0333333333333332,0.542,1,10866.985,3,0.02,same
0,680,valid,"[(1130, 796)]",[],[1],[0.48333333333333334],horizontal,"(890.0, 262.0)",1.2333333333333334,0.44,1,10873.051,3,0.02,same
0,681,catch,"[(1122, 795)]",[],[1],[],vertical,"(390.0, 262.0)",1.7,nan,1,10879.367,3,0.02,same
0,682,valid,"[(1135, 800)]",[],[1],[0.4666666666666667],vertical,"(890.0, 262.0)",1.5,0.421,1,10885.775,3,0.02,same
0,683,valid,"[(1131, 799)]",[],[1],[0.85],vertical,"(390.0, 762.0)",1.05,nan,0,10892.267,0,0.02,same
0,684,invalid_adjacent_other_bar,"[(1086, 795)]",[],[1],[0.48333333333333334],horizontal,"(390.0, 262.0)",1.0166666666666666,0.447,1,10897.385,1,0.02,other
0,685,catch,"[(1112, 811)]",[],[1],[],horizontal,"(890.0, 262.0)",1.7,nan,1,10902.833,1,0.02,same
0,686,valid,"[(1106, 824)]",[],[1],[0.5333333333333333],vertical,"(390.0, 262.0)",0.5166666666666666,0.487,1,10908.251,1,0.02,same
