block,trial,trial_type,taps_start_loc_during_fix,taps_end_loc_during_fix,taps_on_lever_during_fix,taps_on_lever_s_during_fix,bar_orientation,target_xy,cti,rt,acc,time,pulses,fa_rate_recent100,actual_invalid_type
0,1,valid,"[(1106, 856)]",[],[1],[0.4166666666666667],vertical,"(890.0, 262.0)",0.5,0.39,1,1.085,1,0.0,same
0,2,catch,"[(1091, 873)]",[],[1],[],vertical,"(890.0, 262.0)",,"('cti', 1.437),nan",0,8.359,0,0.5,same
0,3,valid,"[(1128, 825)]",[],[1],[0.8333333333333334],horizontal,"(390.0, 762.0)",1.0833333333333333,0.816,0,107.896,0,0.3333333333333333,same
0,4,invalid_adjacent_other_bar,"[(1131, 817)]",[],[1],[0.85],horizontal,"(890.0, 762.0)",0.35,nan,0,112.594,0,0.25,other
0,5,valid,"[(1126, 786)]",[],[1],[0.85],vertical,"(890.0, 262.0)",0.8333333333333334,nan,0,116.661,0,0.2,same
0,6,valid,"[(1087, 830)]",[],[1],[0.6833333333333333],vertical,"(390.0, 762.0)",1.3666666666666667,0.647,1,121.599,1,0.16666666666666666,same
0,7,valid,"[(1107, 788)]",[],[1],[0.5166666666666666],horizontal,"(390.0, 762.0)",1.1666666666666667,0.483,1,128.355,1,0.14285714285714285,same
0,8,valid,"[(1091, 795)]",[],[1],[0.5333333333333333],horizontal,"(390.0, 762.0)",0.95,0.509,1,133.613,1,0.125,same
0,9,catch,"[(1158, 807)]",[],[1],[],vertical,"(890.0, 262.0)",1.7,nan,1,138.727,2,0.1111111111111111,same
0,10,valid,"[(1085, 821)]",[],[1],[0.5166666666666666],vertical,"(890.0, 262.0)",0.4666666666666667,0.478,1,144.932,2,0.1,same
0,11,catch,"[(1155, 806)]",[],[1],[],horizontal,"(890.0, 262.0)",1.7,nan,1,150.168,2,0.09090909090909091,same
0,12,valid,"[(1160, 824)]",[],[1],[0.5333333333333333],horizontal,"(390.0, 262.0)",0.7166666666666667,0.508,1,156.067,3,0.08333333333333333,same
0,13,catch,"[(1171, 792)]",[],[1],[],vertical,"(390.0, 262.0)",1.7,nan,1,162.345,3,0.07692307692307693,same
0,14,valid,"[(1156, 781)]",[],[1],[0.48333333333333334],vertical,"(890.0, 262.0)",0.8666666666666667,0.443,1,168.163,3,0.07142857142857142,same
0,15,catch,"[(1185, 790)]",[],[1],[],vertical,"(890.0, 262.0)",1.7,nan,1,173.665,3,0.06666666666666667,same
0,16,catch,"[(1096, 785)]",[],[1],[],vertical,"(890.0, 262.0)",1.7,nan,1,180.01,3,0.0625,same
0,17,valid,"[(1176, 792)]",[],[1],[0.6],horizontal,"(890.0, 762.0)",0.43333333333333335,0.56,1,185.993,3,0.058823529411764705,same
0,18,valid,"[(1185, 803)]",[],[1],[0.5166666666666666],vertical,"(890.0, 762.0)",0.9833333333333333,0.478,1,191.148,3,0.05555555555555555,same
0,19,valid,"[(1114, 792)]",[],[1],[0.7166666666666667],horizontal,"(390.0, 262.0)",1.0333333333333332,0.672,1,196.678,3,0.05263157894736842,same
0,20,valid,"[(1170, 789)]",[],[1],[0.48333333333333334],vertical,"(390.0, 262.0)",0.5666666666666667,0.446,1,203.023,3,0.05,same
0,21,catch,"[(1185, 801)]",[],[1],[],vertical,"(390.0, 262.0)",1.7,nan,1,208.429,3,0.047619047619047616,same
0,22,valid,"[(1166, 793)]",[],[1],[0.85],vertical,"(390.0, 262.0)",1.3333333333333333,nan,0,213.961,0,0.045454545454545456,same
0,23,valid,"[(1165, 791)]",[],[1],[0.48333333333333334],horizontal,"(890.0, 262.0)",0.6666666666666666,0.443,1,218.896,1,0.043478260869565216,same
0,24,valid,"[(1156, 788)]",[],[1],[0.5666666666666667],vertical,"(890.0, 762.0)",0.8,0.52,1,223.56,1,0.041666666666666664,same
0,25,invalid_same_bar,"[(1188, 786)]",[],[1],[0.85],vertical,"(890.0, 762.0)",0.85,nan,0,228.387,0,0.04,same
0,26,catch,"[(1086, 793)]",[],[1],[],horizontal,"(890.0, 262.0)",1.7,nan,1,232.776,1,0.038461538461538464,same
0,27,catch,"[(1080, 786)]",[],[1],[],vertical,"(890.0, 762.0)",1.7,nan,1,238.312,1,0.037037037037037035,same
0,28,invalid_same_bar,"[(1162, 786)]",[],[1],[0.4666666666666667],vertical,"(390.0, 262.0)",1.1833333333333333,0.438,1,243.602,1,0.03571428571428571,same
0,29,catch,"[(1169, 780)]",[],[1],[],horizontal,"(890.0, 262.0)",1.7,nan,1,248.474,2,0.034482758620689655,same
0,30,valid,"[(1161, 781)]",[],[1],[0.5333333333333333],vertical,"(890.0, 762.0)",0.9666666666666667,0.501,1,254.378,2,0.03333333333333333,same
0,31,invalid_same_bar,"[(1160, 790)]",[],[1],[0.48333333333333334],horizontal,"(890.0, 262.0)",0.9,0.454,1,259.99,2,0.03225806451612903,same
0,32,valid,"[(1162, 790)]",[],[1],[0.4666666666666667],vertical,"(390.0, 262.0)",0.5833333333333334,0.438,1,265.33,3,0.03125,same
0,33,valid,"[(1160, 796)]",[],[1],[0.85],vertical,"(890.0, 262.0)",0.85,nan,0,271.162,0,0.030303030303030304,same
0,34,valid,"[(1165, 790)]",[],[1],[0.85],vertical,"(390.0, 762.0)",0.4,nan,0,275.675,0,0.029411764705882353,same
0,35,valid,"[(1076, 796)]",[],[1],[0.48333333333333334],vertical,"(890.0, 262.0)",0.9666666666666667,0.46,1,280.385,1,0.02857142857142857,same
0,36,valid,"[(1185, 793)]",[],[1],[0.5166666666666666],horizontal,"(890.0, 262.0)",0.6833333333333333,0.48,1,285.261,1,0.027777777777777776,same
0,37,valid,"[(1160, 772)]",[],[1],[0.4666666666666667],horizontal,"(390.0, 762.0)",1.45,0.436,1,289.551,1,0.02702702702702703,same
0,38,valid,"[(1185, 773)]",[],[1],[0.4666666666666667],horizontal,"(390.0, 762.0)",0.9166666666666666,0.44,1,295.377,2,0.02631578947368421,same
0,39,valid,"[(1170, 784)]",[],[1],[0.55],vertical,"(890.0, 762.0)",0.45,0.525,1,300.262,2,0.02564102564102564,same
0,40,valid,"[(1164, 774)]",[],[1],[0.5166666666666666],horizontal,"(390.0, 262.0)",1.5,0.492,1,305.091,2,0.025,same
0,41,valid,"[(1165, 796)]",[],[1],[0.55],horizontal,"(890.0, 262.0)",1.1333333333333333,0.523,1,311.063,3,0.024390243902439025,same
0,42,catch,"[(1190, 786)]",[],[1],[],vertical,"(890.0, 262.0)",1.7,nan,1,317.467,3,0.023809523809523808,same
0,43,valid,"[(1167, 783)]",[],[1],[0.65],horizontal,"(890.0, 762.0)",0.9833333333333333,0.629,1,323.458,3,0.023255813953488372,same
0,44,catch,"[(1180, 788)]","[(1135, 878)]",[1],[0.2833333333333333],vertical,"(890.0, 262.0)",,"('bar', 0.305),nan",0,328.979,0,0.045454545454545456,same
0,45,valid,"[(1168, 923)]",[],[1],[],horizontal,"(390.0, 262.0)",,"('fix', 0.117)",0,331.448,0,0.044444444444444446,same
0,46,valid,"[(1079, 780)]",[],[1],[0.85],vertical,"(890.0, 262.0)",0.35,nan,0,333.61,0,0.043478260869565216,same
0,47,valid,"[(1116, 816)]",[],[1],[0.85],horizontal,"(390.0, 262.0)",0.85,nan,0,337.805,0,0.0425531914893617,same
0,48,valid,"[(1164, 814)]",[],[1],[0.85],horizontal,"(390.0, 762.0)",1.0333333333333332,nan,0,344.212,0,0.041666666666666664,same
0,49,valid,"[(1076, 781)]",[],[1],[0.5],horizontal,"(390.0, 262.0)",1.2,0.472,1,349.534,1,0.04081632653061224,same
0,50,valid,"[(1190, 782)]",[],[1],[0.5],vertical,"(390.0, 762.0)",0.5833333333333334,0.476,1,355.086,1,0.04,same
0,51,valid,"[(1165, 779)]",[],[1],[0.5166666666666666],vertical,"(890.0, 762.0)",0.5,0.488,1,359.69,1,0.04,same
0,52,valid,"[(1171, 772)]",[],[1],[0.6666666666666666],vertical,"(390.0, 762.0)",1.3666666666666667,0.641,1,364.141,2,0.02,same
0,53,valid,"[(1160, 783)]",[],[1],[0.6],horizontal,"(390.0, 762.0)",1.2166666666666666,0.569,1,370.474,2,0.02,same
0,54,catch,"[(1138, 776)]",[],[1],[],horizontal,"(390.0, 262.0)",1.7,nan,1,376.568,2,0.02,same
0,55,invalid_adjacent_other_bar,"[(1126, 808)]",[],[1],[0.5333333333333333],vertical,"(390.0, 762.0)",0.8166666666666667,0.495,1,382.778,3,0.02,other
0,56,invalid_same_bar,"[(1179, 786)]",[],[1],[0.5666666666666667],vertical,"(390.0, 262.0)",0.4,0.538,1,388.412,3,0.02,same
0,57,valid,"[(1157, 782)]",[],[1],[0.55],horizontal,"(390.0, 262.0)",1.2,0.522,1,393.767,3,0.02,same
0,58,valid,"[(1142, 794)]",[],[1],[0.5],horizontal,"(890.0, 762.0)",0.9833333333333333,0.458,1,400.169,3,0.02,same
0,59,valid,"[(1160, 789)]",[],[1],[0.5],vertical,"(890.0, 262.0)",0.65,0.468,1,406.182,3,0.02,same
0,60,invalid_same_bar,"[(1165, 784)]",[],[1],[0.5833333333333334],horizontal,"(890.0, 262.0)",0.8333333333333334,0.545,1,411.529,3,0.02,same
0,61,valid,"[(1180, 780)]",[],[1],[0.55],vertical,"(390.0, 762.0)",1.5166666666666666,0.507,1,417.447,3,0.02,same
0,62,valid,"[(1166, 792)]",[],[1],[0.5],vertical,"(390.0, 262.0)",0.43333333333333335,0.458,1,423.147,3,0.02,same
0,63,valid,"[(1157, 785)]",[],[1],[0.5166666666666666],horizontal,"(390.0, 262.0)",0.5333333333333333,0.482,1,428.384,3,0.02,same
0,64,catch,"[(1162, 795)]",[],[1],[],horizontal,"(390.0, 762.0)",1.7,nan,1,433.68,3,0.02,same
0,65,valid,"[(1161, 791)]",[],[1],[0.85],vertical,"(390.0, 262.0)",1.25,nan,0,440.03,0,0.02,same
0,66,valid,"[(1131, 798)]",[],[1],[0.85],vertical,"(890.0, 762.0)",0.6333333333333333,nan,0,445.175,0,0.02,same
0,67,invalid_same_bar,"[(1136, 803)]",[],[1],[0.5],vertical,"(390.0, 262.0)",0.5,0.46,1,450.562,1,0.02,same
0,68,valid,"[(1160, 798)]",[],[1],[0.5166666666666666],horizontal,"(390.0, 762.0)",0.85,0.482,1,454.855,1,0.02,same
0,69,valid,"[(1160, 786)]",[],[1],[0.5],vertical,"(890.0, 762.0)",1.1166666666666667,0.457,1,459.857,1,0.02,same
0,70,valid,"[(1126, 814)]",[],[1],[0.5833333333333334],horizontal,"(890.0, 762.0)",1.1833333333333333,0.539,1,465.147,2,0.02,same
0,71,catch,"[(1132, 782)]",[],[1],[],vertical,"(390.0, 262.0)",1.7,nan,1,472.796,2,0.02,same
0,72,valid,"[(1160, 794)]",[],[1],[0.48333333333333334],horizontal,"(390.0, 762.0)",0.6166666666666667,0.443,1,478.576,2,0.02,same
0,73,catch,"[(1137, 803)]",[],[1],[],horizontal,"(890.0, 262.0)",1.7,nan,1,483.609,3,0.02,same
0,74,catch,"[(1163, 772)]",[],[1],[],vertical,"(390.0, 762.0)",1.7,nan,1,490.347,3,0.02,same
0,75,valid,"[(1162, 787)]",[],[1],[0.85],vertical,"(390.0, 762.0)",0.9833333333333333,nan,0,496.114,0,0.02,same
0,76,invalid_same_bar,"[(1131, 791)]",[],[1],[0.5166666666666666],horizontal,"(890.0, 762.0)",1.05,0.479,1,500.897,1,0.02,same
0,77,valid,"[(1164, 782)]",[],[1],[0.5666666666666667],vertical,"(390.0, 262.0)",0.8166666666666667,0.524,1,506.08,1,0.02,same
0,78,catch,"[(1164, 796)]",[],[1],[],vertical,"(890.0, 262.0)",1.7,nan,1,511.193,1,0.02,same
0,79,catch,"[(1165, 795)]",[],[1],[],horizontal,"(390.0, 762.0)",1.7,nan,1,516.879,2,0.02,same
0,80,valid,"[(1170, 795)]",[],[1],[0.48333333333333334],vertical,"(890.0, 262.0)",1.0666666666666667,0.443,1,522.73,2,0.02,same
0,81,valid,"[(1161, 804)]",[],[1],[0.5],vertical,"(890.0, 262.0)",1.3166666666666667,0.46,1,528.011,2,0.02,same
0,82,valid,"[(1132, 791)]",[],[1],[0.48333333333333334],vertical,"(390.0, 262.0)",1.2,0.444,1,534.481,3,0.02,same
0,83,catch,"[(1116, 812)]",[],[1],[],horizontal,"(890.0, 262.0)",,"('cti', 1.419),nan",0,541.43,0,0.04,same
0,84,valid,"[(1156, 799)]",[],[1],[0.5],vertical,"(890.0, 762.0)",0.7333333333333333,0.457,1,546.214,1,0.04,same
0,85,valid,"[(1161, 774)]",[],[1],[0.7166666666666667],horizontal,"(390.0, 762.0)",0.8333333333333334,0.672,1,550.841,1,0.04,same
0,86,valid,"[(1160, 791)]",[],[1],[0.85],horizontal,"(890.0, 262.0)",0.4,nan,0,556.197,0,0.04,same
0,87,valid,"[(1136, 795)]",[],[1],[0.48333333333333334],horizontal,"(890.0, 762.0)",0.48333333333333334,0.441,1,560.641,1,0.04,same
0,88,catch,"[(1134, 803)]",[],[1],[],horizontal,"(390.0, 762.0)",1.7,nan,1,565.729,1,0.04,same
0,89,catch,"[(1160, 791)]",[],[1],[],horizontal,"(390.0, 762.0)",1.7,nan,1,571.704,1,0.04,same
0,90,valid,"[(1111, 836)]",[],[1],[0.18333333333333332],vertical,"(890.0, 762.0)",1.5333333333333332,0.149,0,577.231,0,0.04,same
0,91,invalid_same_bar,"[(1126, 822)]",[],[1],[0.7166666666666667],horizontal,"(390.0, 762.0)",1.1,0.667,1,582.396,1,0.04,same
0,92,valid,"[(1131, 794)]",[],[1],[0.5],vertical,"(890.0, 762.0)",0.6833333333333333,0.461,1,588.36,1,0.04,same
0,93,valid,"[(1165, 788)]",[],[1],[0.6],vertical,"(890.0, 762.0)",0.4666666666666667,0.554,1,592.905,1,0.04,same
0,94,valid,"[(1123, 785)]",[],[1],[0.5333333333333333],horizontal,"(390.0, 762.0)",1.3666666666666667,0.492,1,597.047,2,0.02,same
0,95,catch,"[(1131, 768)]",[],[1],[],vertical,"(890.0, 762.0)",1.7,nan,1,603.096,2,0.02,same
0,96,valid,"[(1137, 795)]",[],[1],[0.3833333333333333],vertical,"(390.0, 262.0)",0.65,0.346,1,608.63,2,0.02,same
0,97,catch,"[(1131, 806)]",[],[1],[],horizontal,"(390.0, 762.0)",1.7,nan,1,614.291,3,0.02,same
0,98,catch,"[(1126, 798)]",[],[1],[],vertical,"(890.0, 762.0)",1.7,nan,1,620.355,3,0.02,same
0,99,valid,"[(1133, 811)]",[],[1],[0.5833333333333334],horizontal,"(390.0, 262.0)",0.8833333333333333,0.545,1,626.423,3,0.02,same
0,100,catch,"[(1132, 800)]",[],[1],[],vertical,"(890.0, 762.0)",1.7,nan,1,632.032,3,0.02,same
0,101,valid,"[(1160, 794)]",[],[1],[0.85],horizontal,"(390.0, 762.0)",0.6,nan,0,638.428,0,0.02,same
0,102,valid,"[(1116, 801)]",[],[1],[0.7166666666666667],horizontal,"(390.0, 262.0)",0.6666666666666666,0.672,1,642.804,1,0.02,same
0,103,valid,"[(1163, 799)]",[],[1],[0.5333333333333333],vertical,"(890.0, 762.0)",0.5833333333333334,0.496,1,647.365,1,0.02,same
0,104,valid,"[(1133, 816)]",[],[1],[0.5166666666666666],horizontal,"(390.0, 762.0)",0.65,0.474,1,652.021,1,0.02,same
0,105,catch,"[(1162, 791)]",[],[1],[],horizontal,"(390.0, 762.0)",1.7,nan,1,656.613,2,0.02,same
0,106,valid,"[(1111, 842)]",[],[1],[0.85],vertical,"(890.0, 762.0)",0.8,nan,0,662.597,0,0.02,same
0,107,valid,"[(1121, 807)]",[],[1],[0.5666666666666667],horizontal,"(890.0, 762.0)",1.3166666666666667,0.525,1,667.323,1,0.02,same
0,108,valid,"[(1131, 802)]",[],[1],[0.5166666666666666],vertical,"(390.0, 762.0)",1.2666666666666666,0.482,1,672.633,1,0.02,same
0,109,catch,"[(1140, 807)]",[],[1],[],vertical,"(890.0, 762.0)",1.7,nan,1,678.466,1,0.02,same
0,110,valid,"[(1121, 803)]",[],[1],[0.65],vertical,"(890.0, 262.0)",0.4166666666666667,0.601,1,683.448,2,0.02,same
0,111,valid,"[(1116, 837)]",[],[1],[0.55],horizontal,"(890.0, 762.0)",1.1333333333333333,0.507,1,688.392,2,0.02,same
0,112,invalid_adjacent_other_bar,"[(1157, 803)]",[],[1],[0.55],horizontal,"(890.0, 762.0)",0.9833333333333333,0.509,1,1024.133,2,0.02,other
0,113,valid,"[(1151, 825)]",[],[1],[0.55],vertical,"(390.0, 262.0)",1.2333333333333334,0.501,1,1029.601,3,0.02,same
0,114,catch,"[(1170, 803)]",[],[1],[],horizontal,"(890.0, 262.0)",1.7,nan,1,1035.663,3,0.02,same
0,115,catch,"[(1158, 796)]",[],[1],[],horizontal,"(890.0, 262.0)",1.7,nan,1,1041.366,3,0.02,same
0,116,valid,"[(1090, 825)]",[],[1],[0.5666666666666667],vertical,"(390.0, 262.0)",1.2,0.523,1,1047.253,3,0.02,same
0,117,valid,"[(1132, 801)]",[],[1],[0.85],vertical,"(390.0, 262.0)",0.5166666666666666,nan,0,1053.209,0,0.02,same
0,118,valid,"[(1085, 865)]",[],[1],[0.85],vertical,"(390.0, 762.0)",0.75,nan,0,1057.805,0,0.02,same
0,119,valid,"[(1117, 806)]",[],[1],[0.85],horizontal,"(390.0, 762.0)",1.3666666666666667,nan,0,1275.997,0,0.02,same
0,120,valid,"[(1127, 795)]",[],[1],[0.5166666666666666],horizontal,"(390.0, 262.0)",0.9,0.476,1,1281.581,1,0.02,same
0,121,valid,"[(1126, 818)]",[],[1],[0.5166666666666666],horizontal,"(890.0, 262.0)",0.5333333333333333,0.474,1,1287.701,1,0.02,same
0,122,invalid_same_bar,"[(1160, 809)]",[],[1],[0.5333333333333333],horizontal,"(890.0, 262.0)",0.43333333333333335,0.487,1,1292.666,1,0.02,same
0,123,valid,"[(1162, 782)]",[],[1],[0.85],horizontal,"(390.0, 762.0)",1.5,nan,0,1297.415,0,0.02,same
0,124,valid,"[(1081, 834)]",[],[1],[0.55],vertical,"(390.0, 762.0)",1.4333333333333333,0.507,1,1302.846,1,0.02,same
0,125,catch,"[(1167, 811)]",[],[1],[],horizontal,"(890.0, 262.0)",1.7,nan,1,1309.167,1,0.02,same
0,126,valid,"[(1160, 795)]",[],[1],[0.5833333333333334],horizontal,"(390.0, 262.0)",0.8666666666666667,0.539,1,1313.995,1,0.02,same
0,127,invalid_same_bar,"[(1167, 800)]",[],[1],[0.5],horizontal,"(890.0, 262.0)",1.4,0.461,1,1319.087,2,0.02,same
0,128,catch,"[(1161, 792)]",[],[1],[],horizontal,"(890.0, 762.0)",1.7,nan,1,1324.734,2,0.02,same
0,129,valid,"[(1155, 803)]",[],[1],[0.65],horizontal,"(390.0, 262.0)",1.2666666666666666,0.605,1,1330.665,2,0.02,same
0,130,catch,"[(1116, 790)]",[],[1],[],vertical,"(390.0, 262.0)",1.7,nan,1,1336.779,3,0.02,same
0,131,valid,"[(1150, 782)]",[],[1],[0.5333333333333333],vertical,"(890.0, 762.0)",0.9666666666666667,0.491,1,1342.697,3,0.02,same
0,132,catch,"[(1156, 796)]",[],[1],[],horizontal,"(390.0, 762.0)",1.7,nan,1,1348.301,3,0.02,same
0,133,valid,"[(1158, 775)]",[],[1],[0.48333333333333334],vertical,"(890.0, 262.0)",0.9333333333333333,0.44,1,1354.057,3,0.0,same
0,134,valid,"[(1155, 820)]",[],[1],[0.5166666666666666],vertical,"(390.0, 762.0)",0.7166666666666667,0.473,1,1359.828,3,0.0,same
0,135,valid,"[(1141, 794)]",[],[1],[0.85],horizontal,"(890.0, 262.0)",0.9,nan,0,1366.351,0,0.0,same
0,136,valid,"[(1135, 794)]",[],[1],[0.5333333333333333],vertical,"(890.0, 762.0)",1.5166666666666666,0.494,1,1371.267,1,0.0,same
0,137,valid,"[(1113, 808)]",[],[1],[0.5],vertical,"(390.0, 762.0)",1.4666666666666666,0.459,1,1376.676,1,0.0,same
0,138,valid,"[(1141, 800)]",[],[1],[0.6166666666666667],vertical,"(390.0, 762.0)",0.8333333333333334,0.569,1,1381.784,1,0.0,same
0,139,valid,"[(1155, 783)]",[],[1],[0.5],vertical,"(390.0, 262.0)",0.5,0.459,1,1387.101,2,0.0,same
0,140,valid,"[(1132, 771)]",[],[1],[0.4666666666666667],horizontal,"(390.0, 262.0)",0.4666666666666667,0.425,1,1391.65,2,0.0,same
0,141,valid,"[(1132, 788)]",[],[1],[0.5],vertical,"(890.0, 762.0)",1.3,0.456,1,1396.75,2,0.0,same
0,142,catch,"[(1131, 778)]",[],[1],[],horizontal,"(390.0, 762.0)",1.7,nan,1,1402.497,3,0.0,same
0,143,invalid_same_bar,"[(1163, 790)]",[],[1],[0.48333333333333334],vertical,"(390.0, 262.0)",1.2166666666666666,0.437,1,1408.763,3,0.0,same
0,144,valid,"[(1161, 793)]",[],[1],[0.4666666666666667],horizontal,"(890.0, 262.0)",0.6166666666666667,0.424,1,1414.433,3,0.0,same
0,145,valid,"[(1151, 785)]",[],[1],[0.4666666666666667],horizontal,"(390.0, 762.0)",1.4166666666666667,0.428,1,1420.18,3,0.0,same
0,146,valid,"[(1157, 797)]",[],[1],[0.48333333333333334],horizontal,"(890.0, 762.0)",0.8166666666666667,0.444,1,1426.185,3,0.0,same
0,147,valid,"[(1160, 786)]",[],[1],[0.48333333333333334],horizontal,"(390.0, 262.0)",1.2333333333333334,0.441,1,1431.878,3,0.0,same
0,148,valid,"[(1159, 787)]",[],[1],[0.48333333333333334],horizontal,"(390.0, 762.0)",1.1333333333333333,0.446,1,1437.768,3,0.0,same
0,149,valid,"[(1168, 788)]",[],[1],[0.48333333333333334],vertical,"(390.0, 262.0)",1.3,0.443,1,1443.616,3,0.0,same
0,150,valid,"[(1141, 763)]",[],[1],[0.85],horizontal,"(890.0, 762.0)",1.2166666666666666,nan,0,1449.451,0,0.0,same
0,151,catch,"[(1160, 795)]",[],[1],[],horizontal,"(890.0, 262.0)",1.7,nan,1,1454.6,1,0.0,same
0,152,valid,"[(1151, 784)]",[],[1],[0.6],horizontal,"(390.0, 762.0)",1.1833333333333333,0.555,1,1460.01,1,0.0,same
0,153,valid,"[(1155, 783)]",[],[1],[0.6],vertical,"(890.0, 762.0)",1.3166666666666667,0.556,1,1465.55,1,0.0,same
0,154,valid,"[(1164, 772)]",[],[1],[0.5166666666666666],vertical,"(890.0, 762.0)",1.3333333333333333,0.48,1,1471.207,2,0.0,same
0,155,catch,"[(1141, 773)]",[],[1],[],vertical,"(890.0, 762.0)",1.7,nan,1,1476.854,2,0.0,same
0,156,invalid_adjacent_other_bar,"[(1162, 766)]",[],[1],[0.4666666666666667],vertical,"(890.0, 262.0)",1.2833333333333332,0.437,1,1482.668,2,0.0,other
0,157,catch,"[(1164, 791)]",[],[1],[],vertical,"(390.0, 262.0)",1.7,nan,1,1488.232,3,0.0,same
0,158,valid,"[(1134, 786)]",[],[1],[0.6333333333333333],horizontal,"(390.0, 762.0)",0.7833333333333333,0.59,1,1494.447,3,0.0,same
0,159,valid,"[(1153, 782)]",[],[1],[0.5166666666666666],horizontal,"(390.0, 262.0)",0.7666666666666666,0.479,1,1500.469,3,0.0,same
0,160,catch,"[(1082, 811)]",[],[1],[],horizontal,"(390.0, 262.0)",1.7,nan,1,1506.207,3,0.0,same
0,161,valid,"[(1162, 784)]",[],[1],[0.5833333333333334],vertical,"(390.0, 262.0)",0.7333333333333333,0.546,1,1512.399,3,0.0,same
0,162,invalid_adjacent_other_bar,"[(1156, 791)]",[],[1],[0.5166666666666666],vertical,"(390.0, 262.0)",1.3333333333333333,0.48,1,1518.118,3,0.0,other
0,163,invalid_adjacent_other_bar,"[(1163, 789)]",[],[1],[0.5],horizontal,"(390.0, 262.0)",0.6833333333333333,0.461,1,1524.604,3,0.0,other
0,164,catch,"[(1142, 789)]",[],[1],[],vertical,"(890.0, 762.0)",1.7,nan,1,1530.377,3,0.0,same
0,165,valid,"[(1146, 780)]",[],[1],[0.5166666666666666],vertical,"(890.0, 262.0)",1.2,0.477,1,1536.785,3,0.0,same
0,166,catch,"[(1156, 783)]",[],[1],[],horizontal,"(390.0, 262.0)",1.7,nan,1,1542.669,3,0.0,same
0,167,valid,"[(1151, 781)]",[],[1],[0.7],vertical,"(390.0, 262.0)",0.3833333333333333,0.655,1,1548.535,3,0.0,same
0,168,valid,"[(1164, 780)]",[],[1],[0.5],vertical,"(390.0, 262.0)",1.0,0.461,1,1553.535,3,0.0,same
0,169,catch,"[(1128, 783)]",[],[1],[],horizontal,"(890.0, 262.0)",1.7,nan,1,1559.419,3,0.0,same
0,170,catch,"[(1137, 786)]",[],[1],[],vertical,"(890.0, 762.0)",1.7,nan,1,1565.669,3,0.0,same
0,171,valid,"[(1151, 766)]",[],[1],[0.7833333333333333],horizontal,"(890.0, 762.0)",0.9333333333333333,0.741,1,1571.501,3,0.0,same
0,172,invalid_same_bar,"[(1166, 816)]",[],[1],[0.55],horizontal,"(890.0, 762.0)",1.1666666666666667,0.513,1,1577.268,3,0.0,same
0,173,valid,"[(1156, 791)]",[],[1],[0.5833333333333334],horizontal,"(390.0, 262.0)",0.6666666666666666,0.538,1,1583.169,3,0.0,same
0,174,catch,"[(1134, 790)]",[],[1],[],vertical,"(390.0, 762.0)",1.7,nan,1,1588.66,3,0.0,same
0,175,valid,"[(1131, 800)]",[],[1],[0.5],horizontal,"(390.0, 262.0)",1.1333333333333333,0.462,1,1595.119,3,0.0,same
0,176,valid,"[(1127, 778)]",[],[1],[0.5333333333333333],horizontal,"(890.0, 262.0)",1.4666666666666666,0.492,1,1600.836,3,0.0,same
0,177,valid,"[(1146, 791)]",[],[1],[0.5166666666666666],horizontal,"(390.0, 262.0)",1.2,0.476,1,1607.545,3,0.0,same
0,178,valid,"[(1159, 776)]",[],[1],[0.5],vertical,"(390.0, 262.0)",1.0166666666666666,0.467,1,1613.668,3,0.0,same
0,179,valid,"[(1131, 795)]",[],[1],[0.5],vertical,"(890.0, 262.0)",1.0166666666666666,0.458,1,1619.719,3,0.0,same
0,180,valid,"[(1131, 788)]",[],[1],[0.5333333333333333],vertical,"(390.0, 762.0)",1.25,0.491,1,1625.137,3,0.0,same
0,181,valid,"[(1131, 781)]",[],[1],[0.5166666666666666],horizontal,"(390.0, 762.0)",0.4,0.474,1,1630.919,3,0.0,same
0,182,invalid_same_bar,"[(1167, 758)]",[],[1],[0.6166666666666667],vertical,"(890.0, 762.0)",0.95,0.574,1,1636.301,3,0.0,same
0,183,valid,"[(1131, 793)]",[],[1],[0.5333333333333333],vertical,"(890.0, 262.0)",0.5833333333333334,0.493,1,1641.902,3,0.0,same
0,184,valid,"[(1164, 784)]",[],[1],[0.65],vertical,"(390.0, 262.0)",1.1333333333333333,0.604,1,1647.901,3,0.0,same
0,185,valid,"[(1128, 794)]",[],[1],[0.6333333333333333],vertical,"(890.0, 762.0)",0.35,0.583,1,1653.753,3,0.0,same
0,186,valid,"[(1171, 787)]",[],[1],[0.85],vertical,"(390.0, 262.0)",1.1333333333333333,nan,0,1659.386,0,0.0,same
0,187,valid,"[(1116, 830)]",[],[1],[0.85],vertical,"(390.0, 762.0)",0.3833333333333333,nan,0,1663.71,0,0.0,same
0,188,invalid_same_bar,"[(1107, 831)]",[],[1],[0.85],horizontal,"(390.0, 762.0)",0.65,nan,0,1994.769,0,0.0,same
0,189,invalid_adjacent_other_bar,"[(1080, 845)]",[],[1],[0.6333333333333333],horizontal,"(890.0, 762.0)",0.55,0.592,1,1999.447,1,0.0,other
0,190,valid,"[(1121, 794)]",[],[1],[0.75],vertical,"(890.0, 762.0)",1.5,0.705,1,2183.154,1,0.0,same
0,191,catch,"[(1141, 774)]",[],[1],[],horizontal,"(890.0, 762.0)",1.7,nan,1,2188.871,1,0.0,same
0,192,valid,"[(1162, 806)]",[],[1],[0.7333333333333333],horizontal,"(390.0, 262.0)",1.2666666666666666,0.694,1,2194.288,2,0.0,same
0,193,valid,"[(1136, 801)]",[],[1],[0.55],horizontal,"(890.0, 262.0)",1.2333333333333334,0.505,1,2200.605,2,0.0,same
0,194,valid,"[(1164, 813)]",[],[1],[0.7],vertical,"(890.0, 762.0)",1.4166666666666667,0.652,1,2206.004,2,0.0,same
0,195,valid,"[(1124, 798)]",[],[1],[0.85],vertical,"(890.0, 762.0)",0.43333333333333335,nan,0,2212.019,0,0.0,same
0,196,catch,"[(1111, 776)]",[],[1],[],vertical,"(390.0, 262.0)",1.7,nan,1,2216.571,1,0.0,same
0,197,invalid_adjacent_other_bar,"[(1131, 820)]",[],[1],[0.6],horizontal,"(890.0, 262.0)",1.05,0.56,1,2221.353,1,0.0,other
0,198,valid,"[(1159, 814)]",[],[1],[0.31666666666666665],horizontal,"(890.0, 262.0)",1.35,0.282,1,2226.239,1,0.0,same
0,199,valid,"[(1182, 810)]",[],[1],[0.45],horizontal,"(390.0, 262.0)",1.5,0.412,1,2231.621,2,0.0,same
0,200,valid,"[(1170, 799)]",[],[1],[],horizontal,"(890.0, 262.0)",,"('fix', 0.451)",0,2237.188,0,0.0,same
0,201,valid,"[(1140, 790)]",[],[1],[0.7833333333333333],horizontal,"(390.0, 762.0)",0.6666666666666666,0.734,1,2239.182,1,0.0,same
0,202,valid,"[(1136, 811)]",[],[1],[0.85],vertical,"(390.0, 262.0)",0.4666666666666667,nan,0,2244.055,0,0.0,same
0,203,valid,"[(1116, 784)]",[],[1],[0.6833333333333333],vertical,"(890.0, 762.0)",0.9166666666666666,0.647,1,2248.27,1,0.0,same
0,204,invalid_same_bar,"[(1166, 783)]",[],[1],[0.85],vertical,"(390.0, 762.0)",0.5666666666666667,nan,0,2253.677,0,0.0,same
0,205,valid,"[(1119, 806)]",[],[1],[0.4666666666666667],vertical,"(890.0, 762.0)",1.0,0.425,1,2258.105,1,0.0,same
0,206,valid,"[(1131, 806)]",[],[1],[0.55],horizontal,"(390.0, 762.0)",1.45,0.508,1,2263.406,1,0.0,same
0,207,valid,"[(1155, 785)]",[],[1],[0.4666666666666667],vertical,"(390.0, 762.0)",1.0,0.434,1,2268.976,1,0.0,same
0,208,catch,"[(1130, 808)]",[],[1],[],horizontal,"(890.0, 762.0)",1.7,nan,1,2274.521,2,0.0,same
0,209,valid,"[(1143, 809)]",[],[1],[0.48333333333333334],horizontal,"(890.0, 262.0)",0.85,0.439,1,2280.421,2,0.0,same
0,210,invalid_same_bar,"[(1136, 811)]",[],[1],[0.6166666666666667],horizontal,"(390.0, 762.0)",0.55,0.573,1,2285.488,2,0.0,same
0,211,valid,"[(1141, 790)]",[],[1],[0.5333333333333333],vertical,"(390.0, 262.0)",0.6166666666666667,0.496,1,2290.787,3,0.0,same
0,212,valid,"[(1156, 786)]",[],[1],[0.48333333333333334],vertical,"(390.0, 762.0)",1.4833333333333334,0.451,1,2296.854,3,0.0,same
0,213,valid,"[(1178, 783)]",[],[1],[],vertical,"(390.0, 262.0)",,"('fix', 0.46)",0,2302.921,0,0.0,same
0,214,catch,"[(1117, 801)]",[],[1],[],horizontal,"(390.0, 762.0)",1.7,nan,1,2304.912,1,0.0,same
0,215,invalid_same_bar,"[(1129, 797)]",[],[1],[0.48333333333333334],vertical,"(890.0, 762.0)",1.5,0.444,1,2310.004,1,0.0,same
0,216,catch,"[(1157, 790)]",[],[1],[],horizontal,"(890.0, 762.0)",1.7,nan,1,2315.375,1,0.0,same
0,217,valid,"[(1129, 788)]",[],[1],[0.4666666666666667],vertical,"(890.0, 762.0)",0.5666666666666667,0.434,1,2320.496,2,0.0,same
0,218,valid,"[(1141, 803)]",[],[1],[0.45],vertical,"(390.0, 762.0)",0.5333333333333333,0.413,1,2325.732,2,0.0,same
0,219,valid,"[(1131, 777)]",[],[1],[0.65],vertical,"(390.0, 262.0)",1.4333333333333333,0.61,1,2330.497,2,0.0,same
0,220,valid,"[(1156, 798)]",[],[1],[0.5833333333333334],horizontal,"(890.0, 262.0)",0.75,0.544,1,2336.413,3,0.0,same
0,221,invalid_same_bar,"[(1136, 809)]",[],[1],[0.6833333333333333],horizontal,"(390.0, 762.0)",1.5333333333333332,0.645,1,2342.348,3,0.0,same
0,222,valid,"[(1137, 797)]",[],[1],[0.5166666666666666],horizontal,"(890.0, 262.0)",1.3,0.479,1,2349.571,3,0.0,same
0,223,catch,"[(1162, 795)]",[],[1],[],vertical,"(390.0, 262.0)",1.7,nan,1,2355.872,3,0.0,same
0,224,valid,"[(1180, 794)]",[],[1],[0.48333333333333334],vertical,"(390.0, 762.0)",1.0833333333333333,0.445,1,2362.008,3,0.0,same
0,225,valid,"[(1176, 799)]",[],[1],[0.5166666666666666],horizontal,"(390.0, 762.0)",0.6333333333333333,0.478,1,2368.15,3,0.0,same
0,226,valid,"[(1174, 785)]",[],[1],[0.5333333333333333],horizontal,"(890.0, 262.0)",0.36666666666666664,0.49,1,2374.022,3,0.0,same
0,227,valid,"[(1131, 781)]",[],[1],[0.5666666666666667],vertical,"(390.0, 262.0)",1.3833333333333333,0.529,1,2378.702,3,0.0,same
0,228,valid,"[(1137, 782)]",[],[1],[0.5],vertical,"(890.0, 762.0)",0.6,0.457,1,2385.501,3,0.0,same
0,229,invalid_adjacent_other_bar,"[(1137, 782)]",[],[1],[0.55],horizontal,"(890.0, 262.0)",1.2666666666666666,0.507,1,2390.689,3,0.0,other
0,230,valid,"[(1160, 791)]",[],[1],[0.5333333333333333],vertical,"(390.0, 262.0)",1.15,0.487,1,2396.771,3,0.0,same
0,231,valid,"[(1129, 796)]",[],[1],[],horizontal,"(390.0, 762.0)",,"('cti', 1.351)",0,2403.521,0,0.0,same
0,232,valid,"[(1120, 792)]",[],[1],[0.6333333333333333],horizontal,"(390.0, 762.0)",0.7333333333333333,0.594,1,2408.255,1,0.0,same
0,233,valid,"[(1134, 786)]",[],[1],[0.5833333333333334],vertical,"(890.0, 762.0)",0.9666666666666667,0.542,1,2413.447,1,0.0,same
0,234,valid,"[(1161, 787)]",[],[1],[0.5],vertical,"(890.0, 762.0)",1.4333333333333333,0.463,1,2418.524,1,0.0,same
0,235,catch,"[(1155, 775)]",[],[1],[],horizontal,"(390.0, 762.0)",1.7,nan,1,2424.188,2,0.0,same
0,236,valid,"[(1149, 788)]",[],[1],[0.5166666666666666],horizontal,"(390.0, 262.0)",1.2666666666666666,0.474,1,2429.971,2,0.0,same
0,237,valid,"[(1132, 782)]",[],[1],[0.5833333333333334],horizontal,"(390.0, 262.0)",1.0666666666666667,0.544,1,2435.603,2,0.0,same
0,238,catch,"[(1137, 821)]",[],[1],[],horizontal,"(890.0, 262.0)",1.7,nan,1,2441.604,3,0.0,same
0,239,valid,"[(1155, 793)]",[],[1],[0.6166666666666667],vertical,"(390.0, 262.0)",0.35,0.579,1,2448.467,3,0.0,same
0,240,valid,"[(1141, 798)]",[],[1],[0.4666666666666667],vertical,"(390.0, 262.0)",1.1333333333333333,0.426,1,2453.572,3,0.0,same
0,241,valid,"[(1170, 795)]",[],[1],[0.48333333333333334],vertical,"(890.0, 762.0)",0.9833333333333333,0.45,1,2460.237,3,0.0,same
0,242,catch,"[(1158, 789)]",[],[1],[],vertical,"(890.0, 762.0)",1.7,nan,1,2465.419,3,0.0,same
0,243,valid,"[(1126, 797)]",[],[1],[0.4666666666666667],horizontal,"(390.0, 762.0)",1.1833333333333333,0.43,1,2471.738,3,0.0,same
0,244,invalid_same_bar,"[(1160, 791)]",[],[1],[0.6166666666666667],horizontal,"(890.0, 262.0)",0.7833333333333333,0.576,1,2477.438,3,0.0,same
0,245,invalid_adjacent_other_bar,"[(1134, 766)]",[],[1],[0.5833333333333334],vertical,"(390.0, 262.0)",1.1166666666666667,0.542,1,2483.398,3,0.0,other
0,246,valid,"[(1169, 791)]",[],[1],[0.5166666666666666],horizontal,"(390.0, 762.0)",0.8166666666666667,0.472,1,2489.451,3,0.0,same
0,247,valid,"[(1126, 796)]",[],[1],[0.6333333333333333],vertical,"(390.0, 262.0)",1.0,0.589,1,2495.106,3,0.0,same
0,248,catch,"[(1137, 800)]",[],[1],[],horizontal,"(390.0, 762.0)",1.7,nan,1,2501.032,3,0.0,same
0,249,valid,"[(1165, 787)]",[],[1],[0.5166666666666666],horizontal,"(390.0, 762.0)",1.15,0.476,1,2507.522,3,0.0,same
0,250,valid,"[(1070, 832)]",[],[1],[0.5],vertical,"(890.0, 762.0)",1.3833333333333333,0.462,1,2513.5,3,0.0,same
0,251,valid,"[(1135, 799)]",[],[1],[0.55],vertical,"(890.0, 262.0)",1.2666666666666666,0.513,1,2522.005,3,0.0,same
0,252,invalid_adjacent_other_bar,"[(1136, 803)]",[],[1],[0.55],horizontal,"(390.0, 262.0)",1.0,0.512,1,2528.354,3,0.0,other
0,253,valid,"[(1138, 806)]",[],[1],[0.5333333333333333],horizontal,"(890.0, 762.0)",1.05,0.497,1,2533.922,3,0.0,same
0,254,valid,"[(1154, 782)]",[],[1],[0.6166666666666667],vertical,"(390.0, 262.0)",0.9333333333333333,0.574,1,2539.738,3,0.0,same
0,255,catch,"[(1116, 811)]",[],[1],[],horizontal,"(890.0, 262.0)",1.7,nan,1,2545.578,3,0.0,same
0,256,catch,"[(1146, 786)]",[],[1],[],vertical,"(890.0, 262.0)",1.7,nan,1,2551.556,3,0.0,same
0,257,valid,"[(1156, 781)]",[],[1],[0.7],vertical,"(390.0, 762.0)",1.4666666666666666,0.659,1,2557.52,3,0.0,same
0,258,catch,"[(1134, 796)]",[],[1],[],vertical,"(890.0, 262.0)",1.7,"('cti', 1.691),nan",0,2564.088,0,0.02,same
0,259,catch,"[(1081, 813)]",[],[1],[],horizontal,"(390.0, 762.0)",1.7,nan,1,2568.905,1,0.02,same
0,260,valid,"[(1089, 813)]",[],[1],[0.6333333333333333],horizontal,"(390.0, 262.0)",1.3666666666666667,0.592,1,2577.57,1,0.02,same
0,261,catch,"[(1111, 801)]",[],[1],[],vertical,"(390.0, 762.0)",1.7,nan,1,2583.34,1,0.02,same
0,262,valid,"[(1136, 796)]",[],[1],[0.5166666666666666],vertical,"(390.0, 762.0)",1.3166666666666667,0.481,1,2588.757,2,0.02,same
0,263,valid,"[(1134, 791)]",[],[1],[0.5166666666666666],vertical,"(890.0, 262.0)",1.15,0.476,1,2594.406,2,0.02,same
0,264,valid,"[(1131, 799)]",[],[1],[0.5166666666666666],horizontal,"(890.0, 262.0)",0.9666666666666667,0.471,1,2600.273,2,0.02,same
0,265,invalid_same_bar,"[(1159, 782)]",[],[1],[0.6666666666666666],vertical,"(390.0, 762.0)",0.5333333333333333,0.63,1,2605.822,3,0.02,same
0,266,valid,"[(1155, 799)]",[],[1],[0.55],vertical,"(890.0, 262.0)",1.2166666666666666,0.51,1,2611.171,3,0.02,same
0,267,valid,"[(1159, 811)]",[],[1],[0.5333333333333333],horizontal,"(390.0, 262.0)",1.1,0.501,1,2617.373,3,0.02,same
0,268,catch,"[(1161, 804)]",[],[1],[],vertical,"(390.0, 762.0)",1.7,nan,1,2623.705,3,0.02,same
0,269,valid,"[(1131, 800)]",[],[1],[0.85],horizontal,"(890.0, 262.0)",1.5,nan,0,2629.429,0,0.02,same
0,270,valid,"[(1071, 849)]",[],[1],[0.5166666666666666],horizontal,"(890.0, 762.0)",0.7833333333333333,0.482,1,2634.722,1,0.02,same
0,271,valid,"[(1111, 783)]",[],[1],[0.48333333333333334],vertical,"(890.0, 262.0)",1.0833333333333333,0.445,1,2639.711,1,0.02,same
0,272,valid,"[(1153, 803)]",[],[1],[0.85],vertical,"(390.0, 262.0)",1.2833333333333332,nan,0,2644.654,0,0.02,same
0,273,catch,"[(1151, 798)]",[],[1],[],horizontal,"(390.0, 762.0)",1.7,nan,1,2649.885,1,0.02,same
0,274,catch,"[(1137, 804)]",[],[1],[],horizontal,"(390.0, 762.0)",1.7,nan,1,2655.037,1,0.02,same
0,275,valid,"[(1135, 801)]",[],[1],[0.5833333333333334],vertical,"(890.0, 262.0)",0.5333333333333333,0.543,1,2660.313,1,0.02,same
0,276,valid,"[(1116, 799)]",[],[1],[0.6833333333333333],vertical,"(390.0, 262.0)",0.8,0.638,1,2665.104,2,0.02,same
0,277,valid,"[(1155, 799)]",[],[1],[0.6166666666666667],vertical,"(390.0, 262.0)",1.4666666666666666,0.576,1,2670.478,2,0.02,same
0,278,valid,"[(1141, 786)]",[],[1],[0.6],vertical,"(890.0, 762.0)",1.2833333333333332,0.561,1,2676.322,2,0.02,same
0,279,valid,"[(1072, 829)]",[],[1],[0.5666666666666667],vertical,"(390.0, 762.0)",0.8333333333333334,0.529,1,2682.247,3,0.02,same
0,280,catch,"[(1136, 778)]",[],[1],[],horizontal,"(390.0, 762.0)",1.7,nan,1,2688.118,3,0.02,same
0,281,valid,"[(1138, 808)]",[],[1],[0.48333333333333334],vertical,"(890.0, 762.0)",0.7666666666666666,0.449,1,2694.157,3,0.02,same
0,282,valid,"[(1157, 803)]",[],[1],[0.85],horizontal,"(390.0, 762.0)",0.3833333333333333,nan,0,2699.539,0,0.02,same
0,283,valid,"[(1081, 781)]",[],[1],[0.85],vertical,"(390.0, 762.0)",0.8333333333333334,nan,0,2703.632,0,0.02,same
0,284,invalid_adjacent_other_bar,"[(1081, 809)]",[],[1],[0.5],vertical,"(390.0, 762.0)",0.6,0.462,1,2708.52,1,0.02,other
0,285,valid,"[(1156, 806)]",[],[1],[0.6],horizontal,"(890.0, 762.0)",0.8833333333333333,0.56,1,2713.189,1,0.02,same
0,286,catch,"[(1111, 809)]",[],[1],[],vertical,"(390.0, 762.0)",1.7,nan,1,2718.155,1,0.02,same
0,287,valid,"[(1130, 800)]",[],[1],[0.48333333333333334],vertical,"(890.0, 762.0)",1.1,0.447,1,2725.257,2,0.02,same
0,288,invalid_same_bar,"[(1119, 811)]",[],[1],[0.48333333333333334],horizontal,"(890.0, 262.0)",1.4166666666666667,0.44,1,2731.221,2,0.02,same
0,289,catch,"[(1121, 811), (1128, 795)]","[(1128, 807)]","[1, 1]",[0.6333333333333333],horizontal,"(390.0, 262.0)",,"('fix', 0.683),('bar', 0.644),nan",0,2738.173,0,0.04,same
0,290,catch,"[(1136, 812)]",[],[1],[],vertical,"(890.0, 262.0)",1.7,nan,1,2740.921,1,0.04,same
0,291,valid,"[(1137, 809)]",[],[1],[0.5166666666666666],vertical,"(390.0, 262.0)",1.4166666666666667,0.475,1,2746.407,1,0.04,same
0,292,catch,"[(1120, 777)]",[],[1],[],vertical,"(390.0, 262.0)",1.7,nan,1,2751.645,1,0.04,same
0,293,valid,"[(1134, 781)]",[],[1],[0.5333333333333333],horizontal,"(890.0, 262.0)",0.95,0.497,1,2757.339,2,0.04,same
0,294,valid,"[(1111, 806)]",[],[1],[0.5166666666666666],horizontal,"(390.0, 262.0)",0.6333333333333333,0.476,1,2762.707,2,0.04,same
0,295,invalid_same_bar,"[(1157, 808)]",[],[1],[0.5166666666666666],horizontal,"(890.0, 762.0)",1.0833333333333333,0.479,1,2768.261,2,0.04,same
0,296,valid,"[(1131, 813)]",[],[1],[0.48333333333333334],horizontal,"(390.0, 262.0)",1.35,0.442,1,2774.085,3,0.04,same
0,297,invalid_adjacent_other_bar,"[(1156, 809)]",[],[1],[0.5166666666666666],vertical,"(390.0, 762.0)",1.2,0.472,1,2780.589,3,0.04,other
0,298,catch,"[(1159, 786)]",[],[1],[],vertical,"(890.0, 762.0)",1.7,nan,1,2786.288,3,0.04,same
0,299,valid,"[(1161, 765)]",[],[1],[0.5],horizontal,"(890.0, 262.0)",1.2,0.464,1,2792.566,3,0.04,same
0,300,valid,"[(1148, 777)]",[],[1],[0.5833333333333334],horizontal,"(890.0, 762.0)",0.9333333333333333,0.544,1,2798.563,3,0.04,same
0,301,valid,"[(1132, 799)]",[],[1],[0.5666666666666667],vertical,"(390.0, 262.0)",1.4166666666666667,0.533,1,2804.707,3,0.04,same
0,302,valid,"[(1136, 782)]",[],[1],[0.6833333333333333],vertical,"(390.0, 262.0)",1.2666666666666666,0.643,1,2810.539,3,0.04,same
0,303,catch,"[(1156, 786)]",[],[1],[],vertical,"(890.0, 762.0)",1.7,nan,1,2816.523,3,0.04,same
0,304,valid,"[(1160, 767)]",[],[1],[0.65],vertical,"(390.0, 762.0)",1.4,0.612,1,2822.515,3,0.04,same
0,305,catch,"[(1160, 801)]",[],[1],[],vertical,"(390.0, 262.0)",1.7,nan,1,2828.857,3,0.04,same
0,306,valid,"[(1129, 770)]",[],[1],[0.5],vertical,"(890.0, 762.0)",1.0333333333333332,0.468,1,2834.798,3,0.04,same
0,307,valid,"[(1116, 791)]",[],[1],[0.5166666666666666],vertical,"(890.0, 262.0)",0.9833333333333333,0.484,1,2840.839,3,0.04,same
0,308,valid,"[(1126, 807)]",[],[1],[0.5166666666666666],horizontal,"(390.0, 262.0)",1.0166666666666666,0.474,1,2846.842,3,0.02,same
0,309,valid,"[(1126, 806)]",[],[1],[0.4],horizontal,"(890.0, 262.0)",1.4833333333333334,0.366,1,2852.795,3,0.02,same
0,310,valid,"[(1126, 776)]",[],[1],[0.6166666666666667],vertical,"(890.0, 762.0)",0.7333333333333333,0.572,1,2859.328,3,0.02,same
0,311,valid,"[(1152, 811)]",[],[1],[0.5],vertical,"(890.0, 262.0)",0.75,0.465,1,2865.189,3,0.02,same
0,312,valid,"[(1131, 811)]",[],[1],[0.55],horizontal,"(390.0, 762.0)",1.2166666666666666,0.511,1,2870.84,3,0.02,same
0,313,valid,"[(1130, 809)]",[],[1],[0.48333333333333334],vertical,"(390.0, 762.0)",0.6166666666666667,0.452,1,2876.672,3,0.02,same
0,314,invalid_same_bar,"[(1131, 812)]",[],[1],[0.6833333333333333],vertical,"(390.0, 262.0)",0.7,0.642,1,2882.541,3,0.02,same
0,315,valid,"[(1137, 811)]",[],[1],[0.5333333333333333],vertical,"(890.0, 262.0)",0.85,0.493,1,2888.665,3,0.02,same
0,316,valid,"[(1130, 775)]",[],[1],[0.5833333333333334],horizontal,"(390.0, 762.0)",0.6333333333333333,0.541,1,2894.085,3,0.02,same
0,317,catch,"[(1164, 791)]",[],[1],[],vertical,"(890.0, 262.0)",1.7,nan,1,2899.644,3,0.02,same
0,318,valid,"[(1131, 773)]",[],[1],[0.85],horizontal,"(890.0, 762.0)",0.5833333333333334,nan,0,2905.557,0,0.02,same
0,319,valid,"[(1098, 792)]",[],[1],[0.55],horizontal,"(390.0, 762.0)",0.5166666666666666,0.513,1,2910.024,1,0.02,same
0,320,catch,"[(1131, 806)]",[],[1],[],vertical,"(890.0, 762.0)",1.7,nan,1,2914.899,1,0.02,same
0,321,valid,"[(1126, 813)]",[],[1],[0.5],vertical,"(390.0, 762.0)",0.4,0.463,1,2920.275,1,0.02,same
0,322,catch,"[(1155, 809)]",[],[1],[],horizontal,"(890.0, 762.0)",1.7,nan,1,2924.879,2,0.02,same
0,323,catch,"[(1156, 784)]",[],[1],[],vertical,"(390.0, 762.0)",1.7,nan,1,2930.705,2,0.02,same
0,324,catch,"[(1152, 807)]",[],[1],[],vertical,"(390.0, 262.0)",1.7,nan,1,2935.874,2,0.02,same
0,325,valid,"[(1136, 810)]",[],[1],[0.48333333333333334],vertical,"(390.0, 762.0)",1.0333333333333332,0.443,1,2941.398,3,0.02,same
0,326,valid,"[(1156, 810)]",[],[1],[0.5333333333333333],horizontal,"(390.0, 262.0)",0.7166666666666667,0.495,1,2947.413,3,0.02,same
0,327,valid,"[(1155, 771)]",[],[1],[0.7333333333333333],horizontal,"(390.0, 262.0)",0.4,0.687,1,2952.874,3,0.02,same
0,328,valid,"[(1131, 813)]",[],[1],[0.5166666666666666],horizontal,"(390.0, 262.0)",1.0333333333333332,0.473,1,2958.123,3,0.02,same
0,329,valid,"[(1128, 792)]",[],[1],[0.5166666666666666],horizontal,"(890.0, 262.0)",1.4166666666666667,0.483,1,2963.974,3,0.02,same
0,330,catch,"[(1164, 808)]",[],[1],[],horizontal,"(390.0, 762.0)",1.7,nan,1,2969.825,3,0.02,same
0,331,valid,"[(1136, 781)]",[],[1],[0.4666666666666667],horizontal,"(390.0, 762.0)",0.9,0.439,1,2975.674,3,0.02,same
0,332,catch,"[(1139, 781)]",[],[1],[],horizontal,"(890.0, 262.0)",1.7,nan,1,2981.571,3,0.02,same
0,333,valid,"[(1161, 804)]",[],[1],[0.5],horizontal,"(390.0, 262.0)",1.2166666666666666,0.461,1,2987.541,3,0.02,same
0,334,valid,"[(1157, 782)]",[],[1],[0.5333333333333333],vertical,"(390.0, 762.0)",0.4166666666666667,0.492,1,2993.69,3,0.02,same
0,335,catch,"[(1142, 813)]",[],[1],[],horizontal,"(390.0, 262.0)",1.7,"('cti', 1.679),nan",0,2999.269,0,0.04,same
0,336,valid,"[(1143, 786)]",[],[1],[0.5],horizontal,"(390.0, 762.0)",0.8166666666666667,0.456,1,3004.19,1,0.04,same
0,337,valid,"[(1128, 809)]",[],[1],[0.6],horizontal,"(390.0, 262.0)",1.0,0.562,1,3008.739,1,0.04,same
0,338,valid,"[(1160, 773)]",[],[1],[0.5166666666666666],horizontal,"(890.0, 262.0)",0.7333333333333333,0.476,1,3014.05,1,0.04,same
0,339,valid,"[(1132, 772)]",[],[1],[0.5666666666666667],horizontal,"(890.0, 762.0)",0.8,0.524,1,3018.857,2,0.02,same
0,340,catch,"[(1132, 800)]",[],[1],[],horizontal,"(390.0, 262.0)",1.7,nan,1,3024.274,2,0.02,same
0,341,invalid_same_bar,"[(1117, 788)]",[],[1],[0.85],horizontal,"(890.0, 762.0)",0.9,nan,0,3029.891,0,0.02,same
0,342,valid,"[(1128, 805)]",[],[1],[0.6666666666666666],horizontal,"(890.0, 762.0)",1.4,0.628,1,3034.947,1,0.02,same
0,343,invalid_adjacent_other_bar,"[(1123, 812)]",[],[1],[0.85],horizontal,"(390.0, 262.0)",0.7,nan,0,3040.396,0,0.02,other
0,344,valid,"[(1111, 794)]",[],[1],[0.08333333333333333],horizontal,"(890.0, 762.0)",1.45,0.054,0,3045.69,0,0.02,same
0,345,valid,"[(1104, 843)]",[],[1],[0.6333333333333333],horizontal,"(890.0, 762.0)",0.6333333333333333,0.594,1,3050.43,1,0.02,same
0,346,catch,"[(1121, 811)]",[],[1],[],vertical,"(390.0, 762.0)",1.7,nan,1,3116.375,1,0.02,same
0,347,valid,"[(1126, 806)]",[],[1],[0.48333333333333334],horizontal,"(390.0, 762.0)",0.5333333333333333,0.442,1,3121.64,1,0.02,same
0,348,valid,"[(1136, 773)]",[],[1],[0.55],horizontal,"(390.0, 762.0)",0.6333333333333333,0.511,1,3126.542,2,0.02,same
0,349,valid,"[(1137, 772)]",[],[1],[0.5166666666666666],horizontal,"(890.0, 262.0)",0.4166666666666667,0.482,1,3131.458,2,0.02,same
0,350,valid,"[(1156, 798)]",[],[1],[0.48333333333333334],vertical,"(890.0, 762.0)",1.2833333333333332,0.444,1,3136.257,2,0.02,same
0,351,catch,"[(1142, 796)]",[],[1],[],horizontal,"(390.0, 262.0)",1.7,nan,1,3141.723,3,0.02,same
0,352,valid,"[(1155, 792)]",[],[1],[0.5666666666666667],horizontal,"(390.0, 762.0)",1.5333333333333332,0.524,1,3148.11,3,0.02,same
0,353,valid,"[(1178, 795)]",[],[1],[0.6333333333333333],horizontal,"(390.0, 762.0)",0.8166666666666667,0.598,1,3154.739,3,0.02,same
0,354,invalid_same_bar,"[(1153, 775)]",[],[1],[0.48333333333333334],vertical,"(890.0, 762.0)",1.35,0.451,1,3160.574,3,0.02,same
0,355,valid,"[(1163, 769)]",[],[1],[0.65],vertical,"(890.0, 762.0)",0.7,0.612,1,3166.714,3,0.02,same
0,356,valid,"[(1155, 785)]",[],[1],[0.85],horizontal,"(390.0, 762.0)",0.5333333333333333,nan,0,3172.06,0,0.02,same
0,357,valid,"[(1121, 799)]",[],[1],[0.5666666666666667],horizontal,"(890.0, 762.0)",1.5166666666666666,0.526,1,3176.024,1,0.02,same
0,358,valid,"[(1134, 782)]",[],[1],[0.48333333333333334],vertical,"(390.0, 262.0)",1.2666666666666666,0.443,1,3181.808,1,0.02,same
0,359,invalid_same_bar,"[(1160, 775)]",[],[1],[0.5333333333333333],horizontal,"(390.0, 762.0)",0.5666666666666667,0.497,1,3187.007,1,0.02,same
0,360,valid,"[(1134, 800)]",[],[1],[0.48333333333333334],horizontal,"(890.0, 262.0)",0.7166666666666667,0.45,1,3191.674,2,0.02,same
0,361,valid,"[(1133, 792)]",[],[1],[0.5833333333333334],vertical,"(890.0, 262.0)",1.3,0.541,1,3196.824,2,0.02,same
0,362,valid,"[(1136, 792)]",[],[1],[0.5166666666666666],vertical,"(890.0, 262.0)",1.1166666666666667,0.478,1,3202.525,2,0.02,same
0,363,catch,"[(1131, 795)]",[],[1],[],vertical,"(390.0, 262.0)",1.7,nan,1,3208.242,3,0.02,same
0,364,valid,"[(1166, 789)]",[],[1],[0.5166666666666666],vertical,"(390.0, 262.0)",0.6166666666666667,0.477,1,3214.12,3,0.02,same
0,365,invalid_adjacent_other_bar,"[(1157, 782)]",[],[1],[0.5333333333333333],vertical,"(890.0, 262.0)",0.3833333333333333,0.494,1,3219.556,3,0.02,other
0,366,catch,"[(1128, 795)]",[],[1],[],vertical,"(390.0, 762.0)",1.7,nan,1,3224.641,3,0.02,same
0,367,valid,"[(1141, 792)]",[],[1],[0.5666666666666667],horizontal,"(390.0, 262.0)",1.0,0.526,1,3230.724,3,0.02,same
0,368,valid,"[(1157, 777)]",[],[1],[0.5333333333333333],vertical,"(890.0, 762.0)",1.05,0.501,1,3236.724,3,0.02,same
0,369,valid,"[(1152, 797)]",[],[1],[0.55],horizontal,"(390.0, 762.0)",1.0333333333333332,0.508,1,3242.608,3,0.02,same
0,370,valid,"[(1127, 768)]",[],[1],[0.5],vertical,"(890.0, 262.0)",1.4666666666666666,0.458,1,3248.362,3,0.02,same
0,371,valid,"[(1131, 799)]",[],[1],[0.4666666666666667],vertical,"(890.0, 262.0)",1.05,0.428,1,3254.689,3,0.02,same
0,372,catch,"[(1083, 807)]",[],[1],[],vertical,"(390.0, 762.0)",1.7,nan,1,3260.74,3,0.02,same
0,373,valid,"[(1086, 807)]",[],[1],[0.5166666666666666],horizontal,"(890.0, 762.0)",1.3666666666666667,0.481,1,3267.146,3,0.02,same
0,374,valid,"[(1099, 817)]",[],[1],[0.5333333333333333],vertical,"(390.0, 262.0)",1.0,0.493,1,3273.458,3,0.02,same
0,375,valid,"[(1097, 811)]",[],[1],[0.5833333333333334],vertical,"(890.0, 762.0)",1.4666666666666666,0.54,1,3279.069,3,0.02,same
0,376,valid,"[(1131, 803)]",[],[1],[0.5833333333333334],horizontal,"(890.0, 262.0)",0.55,0.545,1,3285.591,3,0.02,same
0,377,valid,"[(1112, 829)]",[],[1],[0.7333333333333333],horizontal,"(390.0, 762.0)",1.4166666666666667,0.689,1,3291.191,3,0.02,same
0,378,valid,"[(1156, 802)]",[],[1],[0.35],horizontal,"(390.0, 262.0)",1.5,0.313,1,3297.306,3,0.02,same
0,379,catch,"[(1093, 819)]",[],[1],[],vertical,"(890.0, 762.0)",1.7,nan,1,3303.605,3,0.02,same
0,380,valid,"[(1126, 793)]",[],[1],[0.5166666666666666],vertical,"(390.0, 262.0)",0.9166666666666666,0.476,1,3310.142,3,0.02,same
0,381,valid,"[(1141, 784)]",[],[1],[0.5666666666666667],horizontal,"(890.0, 762.0)",1.2333333333333334,0.525,1,3315.846,3,0.02,same
0,382,valid,"[(1121, 803)]",[],[1],[0.85],vertical,"(890.0, 762.0)",0.48333333333333334,nan,0,3321.967,0,0.02,same
0,383,valid,"[(1121, 855)]",[],[1],[0.85],horizontal,"(390.0, 762.0)",0.9833333333333333,nan,0,3326.509,0,0.02,same
0,384,valid,"[(1121, 811)]",[],[1],[0.5333333333333333],horizontal,"(390.0, 262.0)",1.3166666666666667,0.49,1,4334.447,1,0.02,same
0,385,valid,"[(1167, 777)]",[],[1],[0.5833333333333334],vertical,"(390.0, 262.0)",1.4833333333333334,0.545,1,4339.814,1,0.0,same
0,386,catch,"[(1159, 797)]",[],[1],[],vertical,"(390.0, 262.0)",1.7,nan,1,4345.243,1,0.0,same
0,387,valid,"[(1131, 809)]",[],[1],[0.5333333333333333],vertical,"(390.0, 762.0)",0.5833333333333334,0.489,1,4350.34,2,0.0,same
0,388,valid,"[(1157, 785)]",[],[1],[0.55],horizontal,"(390.0, 762.0)",0.5333333333333333,0.504,1,4355.545,2,0.0,same
0,389,catch,"[(1136, 807)]",[],[1],[],vertical,"(890.0, 762.0)",1.7,nan,1,4360.476,2,0.0,same
0,390,catch,"[(1086, 892)]",[],[1],[],vertical,"(390.0, 762.0)",1.7,nan,1,4366.584,3,0.0,same
0,391,valid,"[(1155, 796)]",[],[1],[0.5],horizontal,"(390.0, 262.0)",0.9833333333333333,0.467,1,4378.396,3,0.0,same
0,392,catch,"[(1135, 779)]",[],[1],[],vertical,"(390.0, 262.0)",1.7,nan,1,4384.03,3,0.0,same
0,393,invalid_same_bar,"[(1107, 820)]",[],[1],[0.5166666666666666],horizontal,"(390.0, 262.0)",0.5666666666666667,0.473,1,4390.212,3,0.0,same
0,394,valid,"[(1136, 806)]",[],[1],[0.5333333333333333],vertical,"(390.0, 262.0)",0.55,0.495,1,4397.018,3,0.0,same
0,395,valid,"[(1157, 786)]",[],[1],[0.85],vertical,"(890.0, 762.0)",0.7833333333333333,nan,0,4402.98,0,0.0,same
0,396,catch,"[(1117, 777)]",[],[1],[],vertical,"(390.0, 762.0)",1.7,nan,1,4407.625,1,0.0,same
0,397,valid,"[(1158, 786)]",[],[1],[0.5],horizontal,"(890.0, 262.0)",0.8833333333333333,0.461,1,4412.628,1,0.0,same
0,398,valid,"[(1134, 783)]",[],[1],[0.5666666666666667],vertical,"(390.0, 262.0)",0.7333333333333333,0.527,1,4417.428,1,0.0,same
0,399,valid,"[(1155, 776)]",[],[1],[0.85],horizontal,"(390.0, 262.0)",1.4166666666666667,nan,0,4422.512,0,0.0,same
0,400,valid,"[(1116, 783)]",[],[1],[0.85],vertical,"(390.0, 762.0)",1.1166666666666667,nan,0,4427.562,0,0.0,same
0,401,valid,"[(1119, 812)]",[],[1],[0.55],vertical,"(890.0, 262.0)",1.2333333333333334,0.506,1,4432.647,1,0.0,same
0,402,valid,"[(1153, 807)]",[],[1],[0.6666666666666666],vertical,"(390.0, 762.0)",0.9,0.623,1,4438.114,1,0.0,same
0,403,valid,"[(1155, 784)]",[],[1],[0.5666666666666667],vertical,"(390.0, 262.0)",0.7333333333333333,0.523,1,4443.516,1,0.0,same
0,404,valid,"[(1142, 785)]",[],[1],[0.5666666666666667],vertical,"(390.0, 762.0)",1.4,0.523,1,4448.425,2,0.0,same
0,405,valid,"[(1136, 777)]",[],[1],[0.6166666666666667],horizontal,"(890.0, 762.0)",1.3166666666666667,0.57,1,4454.191,2,0.0,same
0,406,valid,"[(1136, 779)]",[],[1],[0.5833333333333334],horizontal,"(890.0, 262.0)",0.4166666666666667,0.544,1,4459.786,2,0.0,same
0,407,valid,"[(1156, 791)]",[],[1],[0.5],vertical,"(390.0, 262.0)",0.9,0.463,1,4464.916,3,0.0,same
0,408,invalid_same_bar,"[(1163, 776)]",[],[1],[0.6166666666666667],horizontal,"(390.0, 262.0)",1.3333333333333333,0.571,1,4470.98,3,0.0,same
0,409,catch,"[(1155, 801)]",[],[1],[],vertical,"(890.0, 262.0)",1.7,"('cti', 1.71),nan",0,4477.079,0,0.02,same
0,410,valid,"[(1069, 822)]",[],[1],[0.45],vertical,"(390.0, 262.0)",1.1333333333333333,0.407,1,4481.862,1,0.02,same
0,411,catch,"[(1158, 788)]",[],[1],[],vertical,"(890.0, 762.0)",1.7,nan,1,4490.296,1,0.02,same
0,412,valid,"[(1156, 795)]",[],[1],[0.5666666666666667],vertical,"(890.0, 762.0)",1.0,0.52,1,4495.779,1,0.02,same
0,413,valid,"[(1158, 777)]",[],[1],[0.5],horizontal,"(890.0, 262.0)",0.6666666666666666,0.465,1,4500.863,2,0.02,same
0,414,valid,"[(1127, 774)]",[],[1],[0.85],horizontal,"(390.0, 762.0)",0.85,nan,0,4506.045,0,0.02,same
0,415,catch,"[(1161, 789)]",[],[1],[],vertical,"(890.0, 262.0)",1.7,nan,1,4510.496,1,0.02,same
0,416,invalid_adjacent_other_bar,"[(1081, 874)]",[],[1],[0.85],vertical,"(890.0, 762.0)",0.7,nan,0,4533.89,0,0.02,other
0,417,valid,"[(1081, 850)]",[],[1],[0.85],vertical,"(890.0, 262.0)",0.6666666666666666,nan,0,4579.637,0,0.02,same
0,418,valid,"[(1111, 828)]",[],[1],[0.85],horizontal,"(390.0, 762.0)",1.2333333333333334,nan,0,4585.05,0,0.02,same
0,419,valid,"[(1096, 819)]",[],[1],[0.6666666666666666],vertical,"(390.0, 262.0)",0.5666666666666667,0.622,1,4590.014,1,0.02,same
0,420,valid,"[(1147, 801)]",[],[1],[0.5666666666666667],horizontal,"(890.0, 262.0)",1.25,0.523,1,4594.747,1,0.02,same
0,421,catch,"[(1132, 798)]",[],[1],[],vertical,"(390.0, 762.0)",1.7,nan,1,4600.214,1,0.02,same
0,422,invalid_adjacent_other_bar,"[(1131, 764)]",[],[1],[0.55],horizontal,"(890.0, 262.0)",0.3833333333333333,0.502,1,4605.795,2,0.02,other
0,423,catch,"[(1139, 777)]",[],[1],[],horizontal,"(890.0, 762.0)",1.7,nan,1,4610.547,2,0.02,same
0,424,valid,"[(1155, 786)]",[],[1],[0.5833333333333334],horizontal,"(890.0, 762.0)",0.7833333333333333,0.539,1,4616.248,2,0.02,same
0,425,invalid_same_bar,"[(1172, 769)]",[],[1],[0.36666666666666664],vertical,"(890.0, 762.0)",1.2333333333333334,0.325,1,4621.748,3,0.02,same
0,426,valid,"[(1159, 780)]",[],[1],[0.5],vertical,"(890.0, 262.0)",1.25,0.459,1,4627.798,3,0.02,same
0,427,valid,"[(1116, 814)]",[],[1],[0.48333333333333334],horizontal,"(890.0, 762.0)",0.9,0.443,1,4633.803,3,0.02,same
0,428,valid,"[(1137, 791)]",[],[1],[0.5],horizontal,"(890.0, 762.0)",1.2666666666666666,0.458,1,4640.048,3,0.02,same
0,429,valid,"[(1126, 774)]",[],[1],[0.85],horizontal,"(390.0, 762.0)",0.5333333333333333,nan,0,4646.113,0,0.02,same
0,430,invalid_adjacent_other_bar,"[(1117, 801)]",[],[1],[0.5166666666666666],horizontal,"(890.0, 762.0)",0.4166666666666667,0.489,1,4650.921,1,0.02,other
0,431,valid,"[(1156, 799)]",[],[1],[0.45],vertical,"(890.0, 762.0)",0.65,0.41,1,4660.646,1,0.02,same
0,432,valid,"[(1157, 805)]",[],[1],[0.48333333333333334],horizontal,"(390.0, 762.0)",1.3666666666666667,0.447,1,4665.598,1,0.02,same
0,433,catch,"[(1134, 801)]",[],[1],[],horizontal,"(390.0, 762.0)",1.7,nan,1,4670.333,2,0.02,same
0,434,valid,"[(1156, 772)]",[],[1],[0.48333333333333334],horizontal,"(890.0, 262.0)",0.4,0.442,1,4676.447,2,0.02,same
0,435,valid,"[(1136, 772)]",[],[1],[0.55],vertical,"(890.0, 262.0)",1.3,0.506,1,4681.54,2,0.02,same
0,436,valid,"[(1126, 782)]",[],[1],[0.5],vertical,"(890.0, 762.0)",0.7,0.457,1,4687.632,3,0.02,same
0,437,valid,"[(1153, 782)]",[],[1],[0.5166666666666666],vertical,"(390.0, 262.0)",1.2833333333333332,0.475,1,4693.532,3,0.02,same
0,438,valid,"[(1150, 773)]",[],[1],[0.55],horizontal,"(890.0, 262.0)",0.7833333333333333,0.509,1,4699.862,3,0.02,same
0,439,valid,"[(1150, 772)]",[],[1],[0.5666666666666667],vertical,"(390.0, 762.0)",1.4666666666666666,0.528,1,4705.041,3,0.02,same
0,440,valid,"[(1151, 777)]",[],[1],[0.5666666666666667],vertical,"(390.0, 262.0)",0.9666666666666667,0.524,1,4711.38,3,0.02,same
0,441,valid,"[(1181, 793)]",[],[1],[0.85],horizontal,"(890.0, 762.0)",0.4166666666666667,nan,0,4716.898,0,0.02,same
0,442,valid,"[(1116, 796)]",[],[1],[0.48333333333333334],horizontal,"(890.0, 762.0)",0.48333333333333334,0.442,1,4721.098,1,0.02,same
0,443,catch,"[(1160, 795)]",[],[1],[],vertical,"(390.0, 762.0)",1.7,nan,1,4725.647,1,0.02,same
0,444,valid,"[(1150, 778)]",[],[1],[0.5],horizontal,"(390.0, 762.0)",0.9,0.457,1,4731.076,1,0.02,same
0,445,catch,"[(1130, 782)]",[],[1],[],horizontal,"(890.0, 762.0)",1.7,nan,1,4735.881,2,0.02,same
0,446,valid,"[(1126, 773)]",[],[1],[0.48333333333333334],vertical,"(390.0, 262.0)",0.9,0.448,1,4741.264,2,0.02,same
0,447,valid,"[(1167, 765)]",[],[1],[0.5833333333333334],horizontal,"(390.0, 262.0)",0.6166666666666667,0.547,1,4746.391,2,0.02,same
0,448,valid,"[(1155, 791)]",[],[1],[0.5666666666666667],vertical,"(890.0, 262.0)",1.0666666666666667,0.527,1,4751.881,3,0.02,same
0,449,valid,"[(1183, 790)]",[],[1],[0.85],vertical,"(390.0, 762.0)",0.7833333333333333,nan,0,4758.03,0,0.02,same
0,450,valid,"[(1111, 773)]",[],[1],[0.48333333333333334],vertical,"(390.0, 262.0)",1.1333333333333333,0.437,1,4762.449,1,0.02,same
0,451,catch,"[(1127, 789)]",[],[1],[],horizontal,"(890.0, 762.0)",1.7,nan,1,4767.362,1,0.02,same
0,452,valid,"[(1152, 786)]",[],[1],[0.48333333333333334],vertical,"(890.0, 762.0)",0.4166666666666667,0.445,1,4772.331,1,0.02,same
0,453,valid,"[(1126, 792)]",[],[1],[0.4666666666666667],horizontal,"(890.0, 262.0)",0.9666666666666667,0.432,1,4776.565,2,0.02,same
0,454,valid,"[(1131, 789)]",[],[1],[0.5],horizontal,"(890.0, 262.0)",1.3166666666666667,0.464,1,4781.934,2,0.02,same
0,455,valid,"[(1121, 783)]",[],[1],[0.48333333333333334],vertical,"(390.0, 762.0)",0.6333333333333333,0.442,1,4787.468,2,0.02,same
0,456,catch,"[(1150, 778)]",[],[1],[],vertical,"(890.0, 262.0)",1.7,nan,1,4792.949,3,0.02,same
0,457,valid,"[(1179, 782)]",[],[1],[0.5333333333333333],vertical,"(390.0, 262.0)",1.1333333333333333,0.491,1,4799.202,3,0.02,same
0,458,invalid_same_bar,"[(1155, 782)]",[],[1],[0.35],vertical,"(390.0, 762.0)",1.3833333333333333,0.311,1,4805.014,3,0.02,same
0,459,invalid_same_bar,"[(1166, 775)]",[],[1],[0.5],vertical,"(890.0, 762.0)",0.7666666666666666,0.46,1,4811.431,3,0.0,same
0,460,catch,"[(1137, 770)]",[],[1],[],vertical,"(390.0, 262.0)",1.7,nan,1,4817.147,3,0.0,same
0,461,valid,"[(1137, 780)]",[],[1],[0.48333333333333334],vertical,"(890.0, 262.0)",1.2,0.442,1,4823.525,3,0.0,same
0,462,invalid_same_bar,"[(1130, 766)]",[],[1],[0.5833333333333334],vertical,"(390.0, 262.0)",0.8333333333333334,0.549,1,4829.249,3,0.0,same
0,463,valid,"[(1111, 822)]",[],[1],[0.6333333333333333],horizontal,"(390.0, 762.0)",1.3833333333333333,0.587,1,4834.763,3,0.0,same
0,464,catch,"[(1159, 782)]",[],[1],[],horizontal,"(890.0, 762.0)",1.7,nan,1,4841.297,3,0.0,same
0,465,catch,"[(1156, 782)]",[],[1],[],horizontal,"(890.0, 262.0)",1.7,nan,1,4847.347,3,0.0,same
0,466,catch,"[(1121, 792)]",[],[1],[0.03333333333333333],horizontal,"(890.0, 762.0)",1.7,"0.018,nan",0,4853.311,0,0.02,same
0,467,valid,"[(1119, 782)]",[],[1],[0.6666666666666666],vertical,"(890.0, 762.0)",1.3166666666666667,0.624,1,4858.431,1,0.02,same
0,468,valid,"[(1148, 786)]",[],[1],[0.65],vertical,"(390.0, 762.0)",0.7166666666666667,0.606,1,4863.55,1,0.02,same
0,469,valid,"[(1162, 782)]",[],[1],[0.5333333333333333],horizontal,"(390.0, 262.0)",0.9666666666666667,0.493,1,4868.788,1,0.02,same
0,470,valid,"[(1126, 785)]",[],[1],[0.5],vertical,"(890.0, 762.0)",1.1666666666666667,0.462,1,4873.649,2,0.02,same
0,471,valid,"[(1126, 784)]",[],[1],[0.5166666666666666],horizontal,"(890.0, 262.0)",0.8,0.475,1,4878.965,2,0.02,same
0,472,invalid_same_bar,"[(1132, 767)]",[],[1],[0.5333333333333333],horizontal,"(390.0, 762.0)",1.1166666666666667,0.489,1,4884.277,2,0.02,same
0,473,invalid_adjacent_other_bar,"[(1134, 767)]",[],[1],[0.5166666666666666],horizontal,"(890.0, 262.0)",1.2,0.48,1,4890.065,3,0.02,other
0,474,invalid_adjacent_other_bar,"[(1112, 806)]",[],[1],[0.48333333333333334],vertical,"(890.0, 262.0)",1.1333333333333333,0.446,1,4896.814,3,0.02,other
0,475,valid,"[(1137, 770)]",[],[1],[0.5833333333333334],horizontal,"(890.0, 262.0)",0.65,0.541,1,4905.899,3,0.02,same
0,476,valid,"[(1175, 795)]",[],[1],[0.05],vertical,"(390.0, 762.0)",1.5166666666666666,0.02,0,4911.293,0,0.02,same
0,477,valid,"[(1131, 803)]",[],[1],[0.7333333333333333],horizontal,"(890.0, 762.0)",1.2333333333333334,0.685,1,4915.988,1,0.02,same
0,478,catch,"[(1155, 801)]",[],[1],[],horizontal,"(890.0, 262.0)",1.7,nan,1,4921.785,1,0.02,same
0,479,valid,"[(1172, 798)]",[],[1],[0.3333333333333333],horizontal,"(890.0, 262.0)",1.0166666666666666,0.294,1,4927.074,1,0.02,same
0,480,valid,"[(1131, 786)]",[],[1],[0.5666666666666667],horizontal,"(390.0, 262.0)",0.7333333333333333,0.526,1,4932.416,2,0.02,same
0,481,catch,"[(1137, 786)]",[],[1],[],vertical,"(890.0, 762.0)",1.7,nan,1,4937.27,2,0.02,same
0,482,valid,"[(1130, 777)]",[],[1],[0.5333333333333333],vertical,"(390.0, 762.0)",0.7833333333333333,0.489,1,4943.082,2,0.02,same
0,483,valid,"[(1076, 855)]",[],[1],[0.85],vertical,"(390.0, 262.0)",0.95,nan,0,4948.269,0,0.02,same
0,484,valid,"[(1116, 791)]",[],[1],[0.43333333333333335],horizontal,"(390.0, 762.0)",1.2833333333333332,0.395,1,4953.705,1,0.02,same
0,485,catch,"[(1157, 793)]",[],[1],[],horizontal,"(890.0, 762.0)",1.7,nan,1,4959.196,1,0.02,same
0,486,invalid_same_bar,"[(1152, 790)]",[],[1],[0.6166666666666667],horizontal,"(890.0, 762.0)",0.43333333333333335,0.576,1,4964.692,1,0.02,same
0,487,catch,"[(1131, 767)]",[],[1],[],vertical,"(890.0, 762.0)",1.7,nan,1,4969.385,2,0.02,same
0,488,catch,"[(1131, 776)]",[],[1],[],horizontal,"(890.0, 762.0)",1.7,nan,1,4975.454,2,0.02,same
0,489,catch,"[(1165, 771)]",[],[1],[],horizontal,"(890.0, 762.0)",1.7,nan,1,4981.191,2,0.02,same
0,490,valid,"[(1164, 803)]",[],[1],[0.5166666666666666],horizontal,"(390.0, 262.0)",1.2833333333333332,0.475,1,4987.167,3,0.02,same
0,491,invalid_adjacent_other_bar,"[(1160, 773)]",[],[1],[0.6166666666666667],horizontal,"(390.0, 762.0)",1.2333333333333334,0.574,1,4993.623,3,0.02,other
0,492,valid,"[(1160, 787)]",[],[1],[0.5333333333333333],horizontal,"(890.0, 762.0)",0.4666666666666667,0.493,1,4999.515,3,0.02,same
0,493,valid,"[(1172, 798)]",[],[1],[0.5333333333333333],horizontal,"(890.0, 762.0)",0.9166666666666666,0.487,1,5004.866,3,0.02,same
0,494,valid,"[(1148, 785)]",[],[1],[0.65],vertical,"(890.0, 262.0)",0.9,0.609,1,5010.738,3,0.02,same
0,495,invalid_same_bar,"[(1138, 816)]",[],[1],[0.85],horizontal,"(890.0, 762.0)",0.5333333333333333,nan,0,5017.113,0,0.02,same
0,496,valid,"[(1131, 783)]",[],[1],[0.6],vertical,"(390.0, 762.0)",1.2333333333333334,0.56,1,5023.15,1,0.02,same
0,497,catch,"[(1165, 786)]",[],[1],[],vertical,"(890.0, 262.0)",1.7,nan,1,5029.001,1,0.02,same
0,498,invalid_same_bar,"[(1161, 764)]",[],[1],[0.5166666666666666],horizontal,"(390.0, 762.0)",0.8666666666666667,0.478,1,5033.915,1,0.02,same
0,499,valid,"[(1161, 785)]",[],[1],[],vertical,"(390.0, 762.0)",,"('fix', 0.349)",0,5038.718,0,0.02,same
0,500,valid,"[(1129, 786)]",[],[1],[0.5333333333333333],vertical,"(390.0, 762.0)",0.9,0.49,1,5040.665,1,0.02,same
0,501,catch,"[(1123, 801)]",[],[1],[],vertical,"(390.0, 762.0)",1.7,nan,1,5045.849,1,0.02,same
0,502,valid,"[(1169, 795)]",[],[1],[0.5166666666666666],horizontal,"(390.0, 762.0)",0.7333333333333333,0.475,1,5051.917,1,0.02,same
0,503,catch,"[(1129, 795)]",[],[1],[],horizontal,"(890.0, 762.0)",1.7,"('cti', 1.694),nan",0,5056.584,0,0.04,same
0,504,valid,"[(1160, 788)]",[],[1],[0.4666666666666667],horizontal,"(890.0, 262.0)",1.1,0.426,1,5061.792,1,0.04,same
0,505,valid,"[(1160, 772)]",[],[1],[0.6333333333333333],horizontal,"(390.0, 762.0)",1.2,0.589,1,5067.116,1,0.04,same
0,506,catch,"[(1170, 785)]",[],[1],[],vertical,"(890.0, 762.0)",1.7,nan,1,5072.691,1,0.04,same
0,507,valid,"[(1127, 768)]",[],[1],[0.5833333333333334],horizontal,"(890.0, 262.0)",0.5666666666666667,0.539,1,5078.191,2,0.04,same
0,508,valid,"[(1152, 782)]",[],[1],[0.6166666666666667],horizontal,"(890.0, 262.0)",0.75,0.571,1,5082.969,2,0.04,same
0,509,valid,"[(1155, 798)]",[],[1],[0.5333333333333333],vertical,"(390.0, 262.0)",1.0666666666666667,0.495,1,5088.116,2,0.04,same
0,510,catch,"[(1072, 808)]",[],[1],[],vertical,"(890.0, 762.0)",1.7,nan,1,5094.073,3,0.04,same
0,511,valid,"[(1136, 778)]",[],[1],[0.55],vertical,"(390.0, 762.0)",1.4,0.508,1,5100.1,3,0.04,same
0,512,valid,"[(1131, 777)]",[],[1],[0.5333333333333333],horizontal,"(390.0, 762.0)",0.5833333333333334,0.494,1,5106.524,3,0.04,same
0,513,invalid_adjacent_other_bar,"[(1135, 766)]",[],[1],[0.55],horizontal,"(890.0, 762.0)",0.5166666666666666,0.507,1,5112.116,3,0.04,other
0,514,valid,"[(1131, 779)]",[],[1],[0.5166666666666666],horizontal,"(390.0, 262.0)",0.4,0.477,1,5117.508,3,0.04,same
0,515,valid,"[(1165, 791)]",[],[1],[0.6],vertical,"(390.0, 262.0)",0.8333333333333334,0.558,1,5122.95,3,0.04,same
0,516,valid,"[(1136, 809)]",[],[1],[0.5166666666666666],vertical,"(390.0, 262.0)",1.3166666666666667,0.472,1,5128.906,3,0.02,same
0,517,valid,"[(1159, 808)]",[],[1],[0.6666666666666666],vertical,"(390.0, 762.0)",1.4833333333333334,0.621,1,5134.75,3,0.02,same
0,518,catch,"[(1160, 784)]",[],[1],[],horizontal,"(390.0, 762.0)",1.7,nan,1,5140.887,3,0.02,same
0,519,valid,"[(1130, 781)]",[],[1],[0.85],horizontal,"(390.0, 762.0)",0.3833333333333333,nan,0,5146.684,0,0.02,same
0,520,valid,"[(1097, 775)]",[],[1],[0.48333333333333334],vertical,"(390.0, 762.0)",0.36666666666666664,0.439,1,5150.667,1,0.02,same
0,521,catch,"[(1135, 773)]",[],[1],[],vertical,"(390.0, 262.0)",1.7,nan,1,5155.116,1,0.02,same
0,522,valid,"[(1165, 787)]",[],[1],[0.25],vertical,"(890.0, 262.0)",1.2,0.216,1,5160.191,1,0.02,same
0,523,valid,"[(1166, 797)]",[],[1],[0.5],vertical,"(390.0, 262.0)",0.7,0.465,1,5165.067,2,0.02,same
0,524,invalid_adjacent_other_bar,"[(1111, 799)]",[],[1],[0.11666666666666667],vertical,"(890.0, 262.0)",1.2333333333333334,0.082,0,5169.966,0,0.02,other
0,525,valid,"[(1052, 875)]",[],[1],[0.48333333333333334],horizontal,"(390.0, 762.0)",1.5333333333333332,0.438,1,5174.59,1,0.02,same
0,526,valid,"[(1170, 801)]",[],[1],[0.5],horizontal,"(890.0, 262.0)",1.4333333333333333,0.46,1,5291.516,1,0.02,same
0,527,catch,"[(1174, 791)]",[],[1],[],vertical,"(390.0, 762.0)",1.7,nan,1,5296.548,1,0.02,same
0,528,valid,"[(1175, 796)]",[],[1],[],horizontal,"(390.0, 762.0)",,"('fix', 0.42)",0,5301.667,0,0.02,same
0,529,valid,"[(1116, 801)]",[],[1],[0.5166666666666666],vertical,"(390.0, 762.0)",1.4166666666666667,0.478,1,5303.918,1,0.02,same
0,530,catch,"[(1163, 813)]",[],[1],[],vertical,"(390.0, 762.0)",,"('fix', 0.379),nan",0,5309.236,0,0.04,same
0,531,valid,"[(1121, 794)]",[],[1],[0.85],horizontal,"(890.0, 762.0)",0.4166666666666667,nan,0,5311.23,0,0.04,same
0,532,valid,"[(1155, 797)]",[],[1],[0.5166666666666666],horizontal,"(390.0, 262.0)",0.5833333333333334,0.479,1,5315.717,1,0.04,same
0,533,invalid_same_bar,"[(1128, 796)]",[],[1],[0.5],vertical,"(390.0, 762.0)",1.1,0.462,1,5320.099,1,0.04,same
0,534,valid,"[(1150, 790)]",[],[1],[0.5333333333333333],vertical,"(890.0, 262.0)",0.5,0.488,1,5324.799,1,0.04,same
0,535,catch,"[(1158, 794)]",[],[1],[],vertical,"(390.0, 262.0)",,"('fix', 0.216),nan",0,5328.963,0,0.06,same
0,536,invalid_same_bar,"[(1112, 794)]",[],[1],[0.5666666666666667],vertical,"(890.0, 262.0)",0.7666666666666666,0.524,1,5330.826,1,0.06,same
0,537,valid,"[(1159, 791)]",[],[1],[0.48333333333333334],vertical,"(890.0, 262.0)",0.9333333333333333,0.445,1,5335.633,1,0.06,same
0,538,valid,"[(1081, 767)]",[],[1],[0.26666666666666666],horizontal,"(890.0, 262.0)",1.3833333333333333,0.236,1,5340.284,1,0.06,same
0,539,catch,"[(1164, 785)]",[],[1],[],vertical,"(390.0, 262.0)",1.7,nan,1,5346.133,2,0.06,same
0,540,invalid_same_bar,"[(1130, 782)]",[],[1],[0.6166666666666667],horizontal,"(390.0, 762.0)",1.5,0.573,1,5351.616,2,0.06,same
0,541,valid,"[(1154, 777)]",[],[1],[0.6166666666666667],vertical,"(390.0, 762.0)",1.3333333333333333,0.57,1,5357.379,2,0.06,same
0,542,valid,"[(1158, 778)]",[],[1],[0.5],horizontal,"(890.0, 762.0)",0.7833333333333333,0.458,1,5363.249,3,0.06,same
0,543,catch,"[(1161, 772)]",[],[1],[],horizontal,"(890.0, 262.0)",1.7,nan,1,5369.316,3,0.06,same
0,544,valid,"[(1165, 787)]",[],[1],[],vertical,"(890.0, 762.0)",,"('fix', 0.418)",0,5374.919,0,0.06,same
0,545,valid,"[(1126, 897)]",[],[1],[],vertical,"(890.0, 762.0)",,"('fix', 0.051)",0,5376.867,0,0.06,same
0,546,catch,"[(1121, 808)]",[],[1],[],horizontal,"(390.0, 762.0)",1.7,nan,1,5378.251,1,0.06,same
0,547,invalid_adjacent_other_bar,"[(1126, 788)]",[],[1],[0.5],vertical,"(890.0, 262.0)",0.6333333333333333,0.463,1,5383.663,1,0.06,other
0,548,catch,"[(1131, 807)]",[],[1],[],vertical,"(390.0, 262.0)",,"('cti', 1.677),nan",0,5388.456,0,0.08,same
0,549,valid,"[(1111, 809)]",[],[1],[0.5166666666666666],vertical,"(390.0, 762.0)",0.4,0.484,1,5393.318,1,0.08,same
0,550,valid,"[(1112, 808)]",[],[1],[0.55],horizontal,"(390.0, 762.0)",1.1333333333333333,0.506,1,5397.849,1,0.08,same
0,551,catch,"[(1131, 781)]",[],[1],[],horizontal,"(390.0, 262.0)",1.7,nan,1,5402.817,1,0.08,same
0,552,valid,"[(1097, 838)]",[],[1],[0.5166666666666666],vertical,"(890.0, 262.0)",1.4833333333333334,0.476,1,5407.892,2,0.08,same
0,553,invalid_adjacent_other_bar,"[(1116, 808)]",[],[1],[0.5166666666666666],horizontal,"(890.0, 262.0)",1.2833333333333332,0.479,1,11321.442,2,0.06,other
0,554,invalid_same_bar,"[(1133, 783)]",[],[1],[0.6],vertical,"(390.0, 262.0)",0.3833333333333333,0.559,1,11327.17,2,0.06,same
0,555,valid,"[(1149, 794)]",[],[1],[0.5333333333333333],horizontal,"(890.0, 262.0)",1.4833333333333334,0.492,1,11332.352,3,0.06,same
0,556,valid,"[(1135, 802)]",[],[1],[0.5666666666666667],vertical,"(890.0, 762.0)",0.6333333333333333,0.529,1,11338.875,3,0.06,same
0,557,invalid_same_bar,"[(1155, 781)]",[],[1],[0.5166666666666666],vertical,"(390.0, 262.0)",0.65,0.475,1,11344.092,3,0.06,same
0,558,catch,"[(1146, 791)]",[],[1],[],horizontal,"(890.0, 262.0)",1.7,nan,1,11349.787,3,0.06,same
0,559,valid,"[(1152, 809)]",[],[1],[0.6],vertical,"(890.0, 762.0)",0.48333333333333334,0.553,1,11355.675,3,0.06,same
0,560,invalid_same_bar,"[(1150, 768)]",[],[1],[0.5333333333333333],horizontal,"(890.0, 762.0)",1.2,0.493,1,11361.258,3,0.06,same
0,561,catch,"[(1127, 797)]",[],[1],[],vertical,"(890.0, 262.0)",1.7,nan,1,11367.175,3,0.06,same
0,562,catch,"[(1155, 794)]",[],[1],[0.03333333333333333],horizontal,"(890.0, 262.0)",1.7,"0.018,nan",0,11373.3,0,0.08,same
0,563,valid,"[(1135, 820)]",[],[1],[0.5],horizontal,"(390.0, 262.0)",1.25,0.459,1,11378.055,1,0.08,same
0,564,valid,"[(1151, 809)]",[],[1],[0.6166666666666667],horizontal,"(890.0, 262.0)",0.8833333333333333,0.575,1,11383.153,1,0.08,same
0,565,catch,"[(1146, 794)]",[],[1],[],vertical,"(390.0, 762.0)",1.7,nan,1,11387.843,1,0.08,same
0,566,valid,"[(1152, 788)]",[],[1],[0.4166666666666667],vertical,"(890.0, 762.0)",1.4,0.375,1,11393.458,2,0.08,same
0,567,catch,"[(1152, 796)]",[],[1],[],vertical,"(890.0, 262.0)",,"('cti', 1.373),nan",0,11399.277,0,0.1,same
0,568,catch,"[(1150, 825)]",[],[1],[],vertical,"(390.0, 262.0)",1.7,nan,1,11404.009,1,0.1,same
0,569,valid,"[(1155, 772)]",[],[1],[0.5],vertical,"(390.0, 262.0)",1.25,0.456,1,11409.344,1,0.1,same
0,570,valid,"[(1161, 784)]",[],[1],[0.5],horizontal,"(390.0, 262.0)",1.1833333333333333,0.459,1,11414.057,1,0.1,same
0,571,catch,"[(1152, 800)]",[],[1],[],vertical,"(890.0, 262.0)",1.7,nan,1,11419.049,2,0.1,same
0,572,catch,"[(1133, 791)]",[],[1],[],vertical,"(890.0, 762.0)",1.7,nan,1,11424.468,2,0.1,same
0,573,valid,"[(1155, 785)]",[],[1],[0.65],vertical,"(890.0, 262.0)",0.6666666666666666,0.613,1,11429.992,2,0.1,same
0,574,valid,"[(1185, 812)]",[],[1],[0.5166666666666666],vertical,"(890.0, 262.0)",1.0333333333333332,0.478,1,11435.378,3,0.1,same
0,575,invalid_adjacent_other_bar,"[(1121, 806)]",[],[1],[0.85],horizontal,"(390.0, 762.0)",0.8666666666666667,nan,0,11441.342,0,0.1,other
0,576,valid,"[(1087, 821)]",[],[1],[0.5],horizontal,"(390.0, 262.0)",0.9333333333333333,0.458,1,11449.926,1,0.1,same
0,577,catch,"[(1125, 787)]",[],[1],[],vertical,"(890.0, 762.0)",1.7,nan,1,11454.793,1,0.1,same
0,578,valid,"[(1149, 766)]",[],[1],[0.48333333333333334],horizontal,"(890.0, 262.0)",0.55,0.443,1,11460.111,1,0.1,same
0,579,valid,"[(1132, 781)]",[],[1],[0.5333333333333333],horizontal,"(390.0, 762.0)",1.45,0.494,1,11464.693,2,0.1,same
0,580,invalid_same_bar,"[(1159, 792)]",[],[1],[0.6],horizontal,"(390.0, 762.0)",0.7166666666666667,0.56,1,11470.684,2,0.08,same
0,581,valid,"[(1151, 777)]",[],[1],[0.65],horizontal,"(390.0, 762.0)",1.05,0.605,1,11475.61,2,0.08,same
0,582,catch,"[(1150, 791)]",[],[1],[0.03333333333333333],horizontal,"(390.0, 262.0)",1.7,"0.019,nan",0,11481.727,0,0.1,same
0,583,valid,"[(1146, 811)]",[],[1],[0.4666666666666667],vertical,"(890.0, 262.0)",1.5,0.428,1,11486.719,1,0.1,same
0,584,invalid_same_bar,"[(1116, 772)]",[],[1],[0.6],horizontal,"(390.0, 762.0)",0.6666666666666666,0.56,1,11492.238,1,0.1,same
0,585,invalid_same_bar,"[(1156, 793)]",[],[1],[0.5166666666666666],horizontal,"(390.0, 762.0)",0.36666666666666664,0.488,1,11497.126,1,0.08,same
0,586,catch,"[(1168, 796)]",[],[1],[],vertical,"(390.0, 762.0)",1.7,nan,1,11501.305,2,0.08,same
0,587,valid,"[(1136, 777)]",[],[1],[0.5],horizontal,"(390.0, 262.0)",0.6666666666666666,0.461,1,11507.21,2,0.08,same
0,588,catch,"[(1175, 803)]",[],[1],[],horizontal,"(890.0, 262.0)",1.7,nan,1,11512.228,2,0.08,same
0,589,valid,"[(1150, 777)]",[],[1],[0.5],vertical,"(890.0, 762.0)",0.5166666666666666,0.464,1,11517.843,3,0.08,same
0,590,valid,"[(1155, 776)]",[],[1],[0.5],vertical,"(390.0, 262.0)",1.3333333333333333,0.464,1,11523.414,3,0.08,same
0,591,invalid_adjacent_other_bar,"[(1146, 777)]",[],[1],[0.6],horizontal,"(890.0, 262.0)",1.3,0.56,1,11529.509,3,0.08,other
0,592,catch,"[(1160, 807)]",[],[1],[],vertical,"(390.0, 762.0)",1.7,nan,1,11535.342,3,0.08,same
0,593,valid,"[(1160, 789)]",[],[1],[0.5333333333333333],vertical,"(390.0, 262.0)",1.4833333333333334,0.493,1,11541.343,3,0.08,same
0,594,valid,"[(1156, 811)]",[],[1],[0.5166666666666666],horizontal,"(390.0, 762.0)",0.6833333333333333,0.479,1,11547.494,3,0.08,same
0,595,valid,"[(1151, 761)]",[],[1],[0.5],horizontal,"(390.0, 262.0)",0.8666666666666667,0.464,1,11552.845,3,0.08,same
0,596,catch,"[(1159, 769)]",[],[1],[],vertical,"(890.0, 262.0)",1.7,nan,1,11558.326,3,0.08,same
0,597,valid,"[(1161, 793)]",[],[1],[0.48333333333333334],horizontal,"(890.0, 762.0)",1.3833333333333333,0.443,1,11564.403,3,0.08,same
0,598,valid,"[(1155, 773)]",[],[1],[0.5166666666666666],horizontal,"(390.0, 262.0)",1.4666666666666666,0.485,1,11570.563,3,0.06,same
0,599,catch,"[(1131, 793)]",[],[1],[],horizontal,"(390.0, 262.0)",,"('cti', 1.582),nan",0,11576.643,0,0.08,same
0,600,valid,"[(1121, 819)]",[],[1],[0.5333333333333333],vertical,"(890.0, 262.0)",1.4333333333333333,0.493,1,11581.476,1,0.08,same
0,601,valid,"[(1158, 766)]",[],[1],[0.5333333333333333],horizontal,"(890.0, 762.0)",0.48333333333333334,0.493,1,11587.842,1,0.08,same
0,602,invalid_same_bar,"[(1160, 781)]",[],[1],[0.6333333333333333],vertical,"(390.0, 262.0)",1.35,0.599,1,11592.522,1,0.08,same
0,603,valid,"[(1157, 777)]",[],[1],[0.6166666666666667],horizontal,"(390.0, 262.0)",1.1333333333333333,0.584,1,11597.91,2,0.08,same
0,604,valid,"[(1146, 796)]",[],[1],"[0.85, 0.85]",horizontal,"(890.0, 762.0)",0.7666666666666666,"0.804,nan",0,11603.393,0,0.08,same
0,605,valid,"[(1124, 815)]",[],[1],[0.48333333333333334],horizontal,"(890.0, 262.0)",0.6166666666666667,0.445,1,11608.226,1,0.08,same
0,606,valid,"[(1133, 773)]",[],[1],[0.6333333333333333],horizontal,"(390.0, 262.0)",1.2333333333333334,0.598,1,11612.857,1,0.08,same
0,607,catch,"[(1160, 782)]",[],[1],[],horizontal,"(890.0, 262.0)",1.7,nan,1,11618.236,1,0.08,same
0,608,valid,"[(1134, 798)]",[],[1],[0.6333333333333333],horizontal,"(390.0, 262.0)",1.15,0.586,1,11623.894,2,0.08,same
0,609,valid,"[(1156, 818)]",[],[1],[0.6],horizontal,"(890.0, 262.0)",0.6833333333333333,0.56,1,11629.642,2,0.08,same
0,610,invalid_adjacent_other_bar,"[(1136, 774)]",[],[1],[0.5333333333333333],vertical,"(390.0, 762.0)",1.15,0.496,1,11634.685,2,0.08,other
0,611,valid,"[(1137, 779)]",[],[1],[0.4666666666666667],vertical,"(890.0, 262.0)",1.3833333333333333,0.431,1,11640.71,3,0.08,same
0,612,valid,"[(1164, 785)]",[],[1],[0.65],vertical,"(890.0, 262.0)",1.2333333333333334,0.607,1,11647.005,3,0.06,same
0,613,valid,"[(1158, 792)]",[],[1],[0.55],vertical,"(890.0, 762.0)",0.4666666666666667,0.51,1,11653.126,3,0.06,same
0,614,valid,"[(1171, 802)]",[],[1],[0.6666666666666666],vertical,"(890.0, 262.0)",1.1833333333333333,0.617,1,11658.008,3,0.06,same
0,615,catch,"[(1150, 791)]",[],[1],[],vertical,"(390.0, 762.0)",1.7,nan,1,11664.527,3,0.06,same
0,616,catch,"[(1155, 769)]",[],[1],[],horizontal,"(890.0, 262.0)",1.7,nan,1,11670.702,3,0.06,same
0,617,valid,"[(1166, 811)]",[],[1],[0.5],vertical,"(890.0, 762.0)",1.0833333333333333,0.472,1,11676.53,3,0.04,same
0,618,catch,"[(1131, 777)]",[],[1],[],horizontal,"(890.0, 262.0)",1.7,nan,1,11682.23,3,0.04,same
0,619,invalid_same_bar,"[(1161, 791)]",[],[1],[0.85],horizontal,"(390.0, 262.0)",1.05,nan,0,11688.577,0,0.04,same
0,620,catch,"[(1116, 815)]",[],[1],[],horizontal,"(890.0, 762.0)",1.7,nan,1,11693.394,1,0.04,same
0,621,valid,"[(1131, 806)]",[],[1],[0.5333333333333333],horizontal,"(390.0, 262.0)",1.4833333333333334,0.49,1,11698.611,1,0.04,same
0,622,catch,"[(1146, 775)]",[],[1],[],vertical,"(390.0, 762.0)",1.7,nan,1,11703.927,1,0.04,same
0,623,invalid_same_bar,"[(1116, 819)]",[],[1],[0.7],vertical,"(890.0, 262.0)",1.35,0.657,1,11709.51,2,0.04,same
0,624,valid,"[(1131, 770)]",[],[1],[0.5],horizontal,"(390.0, 262.0)",0.7833333333333333,0.46,1,11716.327,2,0.04,same
0,625,valid,"[(1131, 772)]",[],[1],[0.5166666666666666],vertical,"(890.0, 262.0)",1.1,0.474,1,11721.561,2,0.04,same
0,626,valid,"[(1126, 815)]",[],[1],[0.55],vertical,"(390.0, 262.0)",1.4833333333333334,0.51,1,11728.211,3,0.04,same
0,627,catch,"[(1087, 816)]",[],[1],[],vertical,"(390.0, 262.0)",1.7,nan,1,11734.838,3,0.04,same
0,628,invalid_adjacent_other_bar,"[(1147, 791)]",[],[1],[0.6333333333333333],vertical,"(390.0, 262.0)",1.3833333333333333,0.595,1,11740.559,3,0.04,other
0,629,valid,"[(1162, 774)]",[],[1],[0.7],vertical,"(390.0, 262.0)",0.9166666666666666,0.664,1,11747.144,3,0.04,same
0,630,valid,"[(1159, 791)]",[],[1],[0.6833333333333333],horizontal,"(890.0, 762.0)",0.35,0.64,1,11753.094,3,0.04,same
0,631,valid,"[(1165, 786)]",[],[1],[0.4666666666666667],vertical,"(390.0, 262.0)",0.6833333333333333,0.431,1,11758.375,3,0.04,same
0,632,valid,"[(1116, 833)]",[],[1],[0.6833333333333333],horizontal,"(890.0, 762.0)",1.1666666666666667,0.639,1,11764.077,3,0.02,same
0,633,invalid_adjacent_other_bar,"[(1133, 806)]",[],[1],[0.6],horizontal,"(390.0, 262.0)",1.5,0.559,1,11770.605,3,0.02,other
0,634,valid,"[(1118, 795)]",[],[1],[0.5],vertical,"(390.0, 762.0)",0.6166666666666667,0.46,1,11776.801,3,0.02,same
0,635,valid,"[(1131, 792)]",[],[1],[0.48333333333333334],vertical,"(390.0, 762.0)",1.5,0.448,1,11781.944,3,0.02,same
0,636,valid,"[(1131, 791)]",[],[1],[0.55],vertical,"(890.0, 762.0)",0.9333333333333333,0.507,1,11788.443,3,0.02,same
0,637,catch,"[(1129, 786)]",[],[1],[],vertical,"(390.0, 262.0)",1.7,nan,1,11794.294,3,0.02,same
0,638,invalid_adjacent_other_bar,"[(1160, 791)]",[],[1],[0.5333333333333333],vertical,"(890.0, 762.0)",1.2666666666666666,0.492,1,11800.273,3,0.02,other
0,639,catch,"[(1157, 790)]",[],[1],[],horizontal,"(890.0, 262.0)",,"('cti', 1.516),nan",0,11806.278,0,0.04,same
0,640,valid,"[(1131, 802)]",[],[1],[0.6166666666666667],horizontal,"(890.0, 762.0)",1.1833333333333333,0.571,1,11811.136,1,0.04,same
0,641,valid,"[(1175, 792)]",[],[1],[],vertical,"(890.0, 262.0)",,"('fix', 0.285)",0,11816.345,0,0.04,same
0,642,valid,"[(1118, 793)]",[],[1],[0.48333333333333334],horizontal,"(390.0, 762.0)",1.5333333333333332,0.446,1,11818.178,1,0.04,same
0,643,catch,"[(1150, 776)]",[],[1],[],vertical,"(890.0, 762.0)",1.7,nan,1,11823.761,1,0.04,same
0,644,valid,"[(1154, 793)]",[],[1],[0.55],vertical,"(390.0, 262.0)",0.6333333333333333,0.509,1,11828.861,1,0.04,same
0,645,catch,"[(1131, 806)]",[],[1],[],horizontal,"(390.0, 762.0)",1.7,nan,1,11833.887,2,0.04,same
0,646,invalid_same_bar,"[(1154, 786)]",[],[1],[0.5333333333333333],vertical,"(390.0, 762.0)",1.2166666666666666,0.492,1,11839.994,2,0.04,same
0,647,valid,"[(1171, 800)]",[],[1],[0.5],vertical,"(890.0, 262.0)",0.48333333333333334,0.458,1,11845.694,2,0.04,same
0,648,catch,"[(1156, 792)]",[],[1],[],horizontal,"(890.0, 762.0)",1.7,nan,1,11850.628,3,0.04,same
0,649,valid,"[(1156, 801)]",[],[1],[0.48333333333333334],vertical,"(890.0, 262.0)",0.9166666666666666,0.444,1,11857.228,3,0.02,same
0,650,valid,"[(1146, 777)]",[],[1],[0.5666666666666667],vertical,"(390.0, 762.0)",1.4333333333333333,0.523,1,11862.97,3,0.02,same
0,651,valid,"[(1159, 802)]",[],[1],[0.6833333333333333],horizontal,"(390.0, 262.0)",0.6666666666666666,0.64,1,11869.43,3,0.02,same
0,652,invalid_adjacent_other_bar,"[(1156, 792)]",[],[1],[0.5],vertical,"(390.0, 262.0)",1.4333333333333333,0.462,1,11875.472,3,0.02,other
0,653,valid,"[(1116, 815)]",[],[1],[0.4666666666666667],vertical,"(890.0, 262.0)",1.5333333333333332,0.431,1,11881.526,3,0.02,same
0,654,valid,"[(1161, 777)]",[],[1],[0.75],horizontal,"(890.0, 762.0)",1.4833333333333334,0.704,1,11889.837,3,0.02,same
0,655,catch,"[(1165, 787)]",[],[1],[],horizontal,"(390.0, 262.0)",1.7,nan,1,11896.488,3,0.02,same
0,656,valid,"[(1160, 791)]",[],[1],[0.85],horizontal,"(390.0, 762.0)",0.4666666666666667,nan,0,11902.836,0,0.02,same
0,657,invalid_same_bar,"[(1081, 792)]",[],[1],[0.5166666666666666],vertical,"(390.0, 762.0)",0.75,0.483,1,11906.884,1,0.02,same
0,658,valid,"[(1150, 791)]",[],[1],[0.6666666666666666],horizontal,"(890.0, 762.0)",0.9333333333333333,0.644,1,11916.32,1,0.02,same
0,659,valid,"[(1151, 800)]",[],[1],[0.5833333333333334],vertical,"(390.0, 762.0)",1.3,0.54,1,11921.453,1,0.02,same
0,660,valid,"[(1158, 806)]",[],[1],[0.5166666666666666],horizontal,"(890.0, 262.0)",1.35,0.481,1,11927.177,2,0.02,same
0,661,catch,"[(1141, 806)]",[],[1],[],vertical,"(390.0, 262.0)",1.7,nan,1,11933.068,2,0.02,same
0,662,valid,"[(1131, 790)]",[],[1],[0.6],vertical,"(390.0, 762.0)",0.7833333333333333,0.563,1,11938.71,2,0.02,same
0,663,catch,"[(1151, 798)]",[],[1],[],vertical,"(890.0, 762.0)",1.7,nan,1,11944.468,3,0.02,same
0,664,valid,"[(1131, 786)]",[],[1],[0.6],horizontal,"(390.0, 262.0)",0.55,0.559,1,11950.767,3,0.02,same
0,665,catch,"[(1129, 806)]",[],[1],[],vertical,"(390.0, 262.0)",1.7,nan,1,11956.195,3,0.02,same
0,666,valid,"[(1157, 794)]",[],[1],[0.48333333333333334],horizontal,"(390.0, 762.0)",0.5333333333333333,0.445,1,11962.228,3,0.02,same
0,667,catch,"[(1142, 794)]",[],[1],[],vertical,"(890.0, 762.0)",1.7,nan,1,11967.645,3,0.02,same
0,668,valid,"[(1152, 786)]",[],[1],[0.5166666666666666],horizontal,"(390.0, 762.0)",1.2333333333333334,0.475,1,11973.978,3,0.02,same
0,669,catch,"[(1159, 812)]",[],[1],[],horizontal,"(390.0, 262.0)",1.7,nan,1,11979.957,3,0.02,same
0,670,valid,"[(1131, 782)]",[],[1],[0.55],vertical,"(890.0, 762.0)",0.6666666666666666,0.514,1,11986.178,3,0.02,same
0,671,valid,"[(1131, 776)]",[],[1],[0.6166666666666667],horizontal,"(890.0, 262.0)",1.0333333333333332,0.579,1,11991.712,3,0.02,same
0,672,catch,"[(1126, 764)]",[],[1],[],vertical,"(390.0, 262.0)",1.7,nan,1,11997.462,3,0.02,same
0,673,valid,"[(1135, 800)]",[],[1],[0.5333333333333333],horizontal,"(390.0, 262.0)",0.48333333333333334,0.489,1,12003.362,3,0.02,same
0,674,valid,"[(1132, 811)]",[],[1],[0.5333333333333333],horizontal,"(390.0, 262.0)",0.9333333333333333,0.492,1,12008.928,3,0.02,same
0,675,valid,"[(1141, 777)]",[],[1],[0.65],horizontal,"(890.0, 262.0)",0.3833333333333333,0.605,1,12014.912,3,0.02,same
0,676,valid,"[(1160, 816)]",[],[1],[0.55],vertical,"(890.0, 762.0)",1.1333333333333333,0.513,1,12020.112,3,0.02,same
0,677,valid,"[(1116, 791)]",[],[1],[0.3],horizontal,"(890.0, 262.0)",1.1166666666666667,0.263,1,12026.06,3,0.02,same
0,678,valid,"[(1116, 798)]",[],[1],[0.5833333333333334],horizontal,"(890.0, 762.0)",1.3166666666666667,0.542,1,12032.494,3,0.02,same
0,679,catch,"[(1160, 798)]",[],[1],[],vertical,"(890.0, 762.0)",1.7,nan,1,12038.794,3,0.02,same
0,680,valid,"[(1131, 816)]",[],[1],[0.5],vertical,"(390.0, 262.0)",0.55,0.461,1,12044.579,3,0.02,same
0,681,catch,"[(1126, 786)]",[],[1],[],vertical,"(390.0, 762.0)",1.7,nan,1,12050.368,3,0.02,same
0,682,catch,"[(1163, 806)]",[],[1],[],horizontal,"(890.0, 762.0)",1.7,nan,1,12056.214,3,0.02,same
0,683,valid,"[(1159, 793)]",[],[1],[0.5333333333333333],horizontal,"(390.0, 762.0)",0.7166666666666667,0.499,1,12062.295,3,0.02,same
0,684,catch,"[(1126, 790)]",[],[1],[],horizontal,"(890.0, 262.0)",1.7,nan,1,12067.762,3,0.02,same
0,685,valid,"[(1121, 789)]",[],[1],[0.5],horizontal,"(890.0, 262.0)",1.1666666666666667,0.465,1,12073.562,3,0.02,same
0,686,valid,"[(1086, 821)]",[],[1],[0.5],horizontal,"(890.0, 762.0)",0.95,0.457,1,12079.528,3,0.02,same
0,687,valid,"[(1137, 816)]",[],[1],[0.6333333333333333],horizontal,"(390.0, 262.0)",1.3166666666666667,0.594,1,12085.632,3,0.02,same
0,688,valid,"[(1160, 800)]",[],[1],[0.6],vertical,"(390.0, 762.0)",0.7,0.568,1,12091.945,3,0.02,same
0,689,catch,"[(1157, 792)]",[],[1],[],vertical,"(390.0, 762.0)",1.7,nan,1,12097.711,3,0.0,same
0,690,valid,"[(1121, 825)]",[],[1],[0.6166666666666667],horizontal,"(390.0, 762.0)",0.8666666666666667,0.581,1,12103.605,3,0.0,same
0,691,invalid_same_bar,"[(1155, 801)]",[],[1],[0.85],horizontal,"(390.0, 262.0)",1.3333333333333333,nan,0,13200.367,0,0.0,same
0,692,invalid_adjacent_other_bar,"[(1136, 803)]",[],[1],[0.5166666666666666],horizontal,"(390.0, 762.0)",1.3666666666666667,0.474,1,13205.583,1,0.0,other
0,693,valid,"[(1151, 786)]",[],[1],[0.55],vertical,"(890.0, 762.0)",0.6666666666666666,0.518,1,13211.049,1,0.0,same
0,694,valid,"[(1155, 791)]",[],[1],[0.55],vertical,"(390.0, 262.0)",1.5333333333333332,0.512,1,13215.791,1,0.0,same
0,695,valid,"[(1135, 770)]",[],[1],[0.55],horizontal,"(390.0, 762.0)",0.36666666666666664,0.51,1,13221.359,2,0.0,same
0,696,valid,"[(1160, 769)]",[],[1],[0.85],vertical,"(390.0, 762.0)",0.6833333333333333,nan,0,13226.15,0,0.0,same
0,697,valid,"[(1126, 766)]",[],[1],[0.48333333333333334],vertical,"(890.0, 762.0)",0.65,0.447,1,13231.032,1,0.0,same
0,698,valid,"[(1159, 765)]",[],[1],[0.6333333333333333],horizontal,"(390.0, 762.0)",1.4166666666666667,0.601,1,13235.916,1,0.0,same
0,699,valid,"[(1143, 787)]",[],[1],[0.5666666666666667],horizontal,"(890.0, 762.0)",1.1,0.531,1,13241.599,1,0.0,same
0,700,catch,"[(1126, 777)]",[],[1],[],vertical,"(890.0, 262.0)",1.7,nan,1,13246.673,2,0.0,same
0,701,catch,"[(1133, 784)]",[],[1],[],horizontal,"(390.0, 262.0)",1.7,nan,1,13252.15,2,0.0,same
0,702,valid,"[(1159, 795)]",[],[1],[0.6666666666666666],horizontal,"(390.0, 262.0)",0.7666666666666666,0.621,1,13257.974,2,0.0,same
0,703,valid,"[(1159, 786)]",[],[1],[0.48333333333333334],horizontal,"(890.0, 762.0)",0.9,0.441,1,13263.432,3,0.0,same
0,704,valid,"[(1157, 780)]",[],[1],[0.5166666666666666],horizontal,"(890.0, 762.0)",1.1,0.477,1,13269.333,3,0.0,same
0,705,valid,"[(1156, 774)]",[],[1],[0.45],horizontal,"(390.0, 762.0)",1.5333333333333332,0.41,1,13275.038,3,0.0,same
0,706,valid,"[(1176, 774)]",[],[1],[0.85],vertical,"(390.0, 762.0)",1.4,nan,0,13281.566,0,0.0,same
0,707,catch,"[(1138, 790)]",[],[1],[],vertical,"(390.0, 762.0)",1.7,nan,1,13286.499,1,0.0,same
0,708,valid,"[(1185, 786)]",[],[1],[0.6166666666666667],vertical,"(390.0, 762.0)",1.45,0.578,1,13291.645,1,0.0,same
0,709,valid,"[(1131, 781)]",[],[1],[0.5166666666666666],horizontal,"(390.0, 262.0)",0.8666666666666667,0.474,1,13297.134,1,0.0,same
0,710,catch,"[(1148, 786)]",[],[1],[],vertical,"(890.0, 762.0)",1.7,nan,1,13302.158,2,0.0,same
0,711,valid,"[(1129, 799)]",[],[1],[0.55],horizontal,"(390.0, 262.0)",0.5,0.509,1,13308.233,2,0.0,same
0,712,valid,"[(1165, 796)]",[],[1],[],vertical,"(890.0, 762.0)",,"('fix', 0.428)",0,13313.167,0,0.0,same
0,713,valid,"[(1130, 814)]",[],[1],[0.5333333333333333],vertical,"(390.0, 262.0)",0.6666666666666666,0.492,1,13315.228,1,0.0,same
0,714,valid,"[(1156, 770)]",[],[1],[0.6333333333333333],horizontal,"(390.0, 262.0)",1.2166666666666666,0.587,1,13320.234,1,0.0,same
0,715,catch,"[(1147, 778)]",[],[1],[],vertical,"(390.0, 262.0)",1.7,nan,1,13325.739,1,0.0,same
0,716,invalid_adjacent_other_bar,"[(1158, 758)]",[],[1],[0.6],horizontal,"(390.0, 262.0)",0.6166666666666667,0.554,1,13330.873,2,0.0,other
0,717,invalid_adjacent_other_bar,"[(1174, 791)]",[],[1],[0.85],vertical,"(390.0, 762.0)",1.35,nan,0,13335.783,0,0.0,other
0,718,catch,"[(1086, 781)]",[],[1],[],horizontal,"(890.0, 762.0)",1.7,nan,1,13341.174,1,0.0,same
0,719,valid,"[(1170, 775)]",[],[1],[0.48333333333333334],vertical,"(390.0, 262.0)",0.7,0.442,1,13346.31,1,0.0,same
0,720,catch,"[(1111, 831)]",[],[1],[],horizontal,"(890.0, 262.0)",1.7,nan,1,13350.843,1,0.0,same
0,721,catch,"[(1164, 786)]",[],[1],[],horizontal,"(890.0, 762.0)",,"('fix', 0.623),nan",0,13360.652,0,0.02,same
0,722,valid,"[(1131, 790)]",[],[1],[0.5333333333333333],horizontal,"(390.0, 762.0)",0.5833333333333334,0.491,1,13362.867,1,0.02,same
0,723,valid,"[(1162, 789)]",[],[1],[0.7166666666666667],horizontal,"(390.0, 262.0)",1.0,0.677,1,13367.884,1,0.02,same
0,724,valid,"[(1136, 789)]",[],[1],[0.6666666666666666],horizontal,"(890.0, 762.0)",1.25,0.621,1,13373.415,1,0.02,same
0,725,valid,"[(1160, 780)]",[],[1],[0.6666666666666666],vertical,"(390.0, 762.0)",0.9666666666666667,0.621,1,13378.967,2,0.02,same
0,726,valid,"[(1156, 775)]",[],[1],[],vertical,"(390.0, 262.0)",,"('fix', 0.573)",0,13384.783,0,0.02,same
0,727,catch,"[(1133, 772)]",[],[1],[],vertical,"(390.0, 262.0)",1.7,nan,1,13386.966,1,0.02,same
0,728,invalid_same_bar,"[(1160, 774)]",[],[1],[0.8166666666666667],vertical,"(390.0, 762.0)",0.7833333333333333,0.764,1,13392.017,1,0.02,same
0,729,valid,"[(1160, 760)]",[],[1],[0.55],vertical,"(390.0, 262.0)",1.2333333333333334,0.518,1,13397.3,1,0.02,same
0,730,catch,"[(1163, 781)]",[],[1],[],horizontal,"(390.0, 262.0)",1.7,nan,1,13403.016,2,0.02,same
0,731,catch,"[(1172, 774)]",[],[1],[],vertical,"(890.0, 762.0)",1.7,nan,1,13409.1,2,0.02,same
0,732,invalid_adjacent_other_bar,"[(1150, 783)]",[],[1],[0.5],vertical,"(390.0, 762.0)",0.36666666666666664,0.458,1,13414.64,2,0.02,other
0,733,catch,"[(1168, 774)]",[],[1],[],vertical,"(890.0, 262.0)",1.7,nan,1,13419.261,3,0.02,same
0,734,catch,"[(1180, 774)]",[],[1],[],horizontal,"(390.0, 262.0)",1.7,nan,1,13425.6,3,0.02,same
0,735,catch,"[(1108, 828)]",[],[1],[],vertical,"(390.0, 762.0)",1.7,nan,1,13431.832,3,0.02,same
0,736,valid,"[(1132, 793)]",[],[1],[0.5166666666666666],vertical,"(390.0, 262.0)",1.4166666666666667,0.476,1,13437.825,3,0.02,same
0,737,valid,"[(1155, 787)]",[],[1],[0.48333333333333334],horizontal,"(390.0, 762.0)",1.4666666666666666,0.444,1,13443.878,3,0.02,same
0,738,valid,"[(1131, 773)]",[],[1],[0.5],horizontal,"(890.0, 762.0)",0.6833333333333333,0.461,1,13450.23,3,0.02,same
0,739,catch,"[(1168, 791)]",[],[1],[],vertical,"(390.0, 262.0)",1.7,nan,1,13455.65,3,0.02,same
0,740,valid,"[(1159, 782)]",[],[1],[0.48333333333333334],horizontal,"(890.0, 262.0)",0.7333333333333333,0.439,1,13461.905,3,0.02,same
0,741,valid,"[(1163, 780)]",[],[1],[0.5166666666666666],vertical,"(390.0, 262.0)",0.8,0.478,1,13467.75,3,0.02,same
0,742,catch,"[(1160, 774)]",[],[1],[],vertical,"(390.0, 262.0)",1.7,nan,1,13473.384,3,0.02,same
0,743,invalid_same_bar,"[(1160, 790)]",[],[1],[0.5],horizontal,"(390.0, 262.0)",0.75,0.459,1,13479.399,3,0.02,same
0,744,invalid_adjacent_other_bar,"[(1175, 776)]","[(1110, 865)]",[1],[0.2],vertical,"(890.0, 762.0)",,"('bar', 0.212)",0,13485.085,0,0.02,other
0,745,valid,"[(1118, 794)]",[],[1],[0.48333333333333334],vertical,"(390.0, 762.0)",0.4666666666666667,0.452,1,13487.511,1,0.02,same
0,746,catch,"[(1166, 765)]",[],[1],[],vertical,"(390.0, 262.0)",1.7,nan,1,13492.015,1,0.02,same
0,747,valid,"[(1131, 769)]",[],[1],[0.5333333333333333],vertical,"(390.0, 262.0)",0.3833333333333333,0.491,1,13497.434,1,0.02,same
0,748,invalid_adjacent_other_bar,"[(1131, 791)]",[],[1],[0.6166666666666667],horizontal,"(390.0, 762.0)",0.7833333333333333,0.574,1,13501.901,2,0.02,other
0,749,valid,"[(1131, 776)]",[],[1],[0.85],vertical,"(890.0, 262.0)",1.1833333333333333,nan,0,13508.017,0,0.02,same
0,750,valid,"[(1137, 782)]",[],[1],[0.6666666666666666],horizontal,"(390.0, 762.0)",1.2166666666666666,0.623,1,13513.168,1,0.02,same
0,751,valid,"[(1160, 776)]",[],[1],[0.48333333333333334],horizontal,"(390.0, 262.0)",0.36666666666666664,0.441,1,13518.751,1,0.02,same
0,752,valid,"[(1165, 802)]",[],[1],[0.55],vertical,"(390.0, 762.0)",1.1333333333333333,0.508,1,13523.353,1,0.02,same
0,753,valid,"[(1126, 782)]",[],[1],[0.5666666666666667],horizontal,"(890.0, 262.0)",0.9833333333333333,0.52,1,13528.75,2,0.02,same
0,754,catch,"[(1159, 772)]",[],[1],[],horizontal,"(890.0, 262.0)",1.7,nan,1,13533.967,2,0.02,same
0,755,catch,"[(1162, 781)]",[],[1],[],vertical,"(890.0, 262.0)",1.7,nan,1,13539.471,2,0.02,same
0,756,catch,"[(1157, 791)]",[],[1],[],horizontal,"(390.0, 762.0)",1.7,nan,1,13545.118,3,0.02,same
0,757,valid,"[(1160, 772)]",[],[1],[0.65],vertical,"(890.0, 762.0)",0.9,0.617,1,13551.5,3,0.02,same
0,758,valid,"[(1163, 765)]",[],[1],[0.6833333333333333],horizontal,"(890.0, 262.0)",1.0166666666666666,0.635,1,13557.551,3,0.02,same
0,759,invalid_same_bar,"[(1163, 776)]","[(1101, 841)]",[1],[0.3333333333333333],vertical,"(890.0, 262.0)",,"('bar', 0.349)",0,13563.293,0,0.02,same
0,760,valid,"[(1135, 806)]",[],[1],[0.48333333333333334],horizontal,"(890.0, 762.0)",0.8166666666666667,0.447,1,13565.784,1,0.02,same
0,761,valid,"[(1159, 790)]",[],[1],[0.5],horizontal,"(390.0, 762.0)",0.9166666666666666,0.459,1,13570.767,1,0.02,same
0,762,catch,"[(1161, 795)]",[],[1],[],horizontal,"(890.0, 262.0)",,"('fix', 0.435),nan",0,13575.368,0,0.04,same
0,763,catch,"[(1123, 793)]",[],[1],[],horizontal,"(890.0, 762.0)",1.7,nan,1,13577.686,1,0.04,same
0,764,valid,"[(1155, 794)]","[(1158, 808)]",[1],[0.0],vertical,"(890.0, 762.0)",,"('bar', 0.017)",0,13582.633,0,0.04,same
0,765,catch,"[(1121, 816)]",[],[1],[],vertical,"(390.0, 262.0)",1.7,nan,1,13584.79,1,0.04,same
0,766,valid,"[(1122, 782)]",[],[1],[0.5],horizontal,"(390.0, 762.0)",0.9666666666666667,0.473,1,13589.906,1,0.04,same
0,767,invalid_same_bar,"[(1156, 779)]",[],[1],[0.48333333333333334],vertical,"(890.0, 262.0)",1.2166666666666666,0.451,1,13595.217,1,0.04,same
0,768,valid,"[(1149, 795)]",[],[1],[0.75],vertical,"(390.0, 262.0)",1.1666666666666667,0.726,1,13600.65,2,0.04,same
0,769,valid,"[(1155, 766)]",[],[1],[0.6333333333333333],vertical,"(390.0, 762.0)",1.3333333333333333,0.599,1,13606.299,2,0.04,same
0,770,catch,"[(1126, 785)]",[],[1],[],vertical,"(390.0, 262.0)",1.7,nan,1,13612.545,2,0.04,same
0,771,valid,"[(1138, 785)]",[],[1],[0.65],vertical,"(390.0, 762.0)",1.4,0.607,1,13618.108,3,0.02,same
0,772,valid,"[(1178, 777)]",[],[1],[0.45],vertical,"(390.0, 762.0)",0.5,0.407,1,13624.846,3,0.02,same
0,773,invalid_same_bar,"[(1172, 781)]",[],[1],[],vertical,"(390.0, 762.0)",,"('fix', 0.229)",0,13630.003,0,0.02,same
0,774,invalid_adjacent_other_bar,"[(1140, 793)]",[],[1],[0.5166666666666666],vertical,"(390.0, 762.0)",1.05,0.472,1,13631.819,1,0.02,other
0,775,catch,"[(1131, 791)]",[],[1],[],horizontal,"(390.0, 262.0)",1.7,nan,1,13637.004,1,0.02,same
0,776,valid,"[(1167, 786)]",[],[1],[0.5166666666666666],vertical,"(390.0, 262.0)",1.3666666666666667,0.477,1,13642.546,1,0.02,same
0,777,valid,"[(1160, 772)]",[],[1],[0.6166666666666667],vertical,"(390.0, 762.0)",1.1333333333333333,0.575,1,13647.785,2,0.02,same
0,778,catch,"[(1136, 792)]",[],[1],[],horizontal,"(890.0, 762.0)",1.7,nan,1,13653.773,2,0.02,same
0,779,valid,"[(1117, 804)]",[],[1],[0.48333333333333334],horizontal,"(390.0, 262.0)",0.8,0.444,1,13659.532,2,0.02,same
0,780,catch,"[(1145, 781)]",[],[1],[],vertical,"(890.0, 762.0)",1.7,nan,1,13664.817,3,0.02,same
0,781,invalid_same_bar,"[(1116, 786)]",[],[1],[0.5333333333333333],horizontal,"(390.0, 762.0)",0.9166666666666666,0.49,1,13671.303,3,0.02,same
0,782,invalid_same_bar,"[(1151, 795)]",[],[1],[0.43333333333333335],horizontal,"(890.0, 762.0)",1.5166666666666666,0.396,1,13677.443,3,0.02,same
0,783,valid,"[(1131, 794)]",[],[1],[0.85],vertical,"(390.0, 762.0)",0.5833333333333334,nan,0,13683.267,0,0.02,same
0,784,invalid_adjacent_other_bar,"[(1126, 804)]",[],[1],[0.65],horizontal,"(890.0, 262.0)",0.45,0.601,1,13687.634,1,0.02,other
0,785,catch,"[(1141, 794)]",[],[1],[],vertical,"(390.0, 262.0)",1.7,nan,1,13694.785,1,0.02,same
0,786,valid,"[(1157, 790)]",[],[1],[0.6166666666666667],horizontal,"(890.0, 262.0)",0.35,0.568,1,13699.862,1,0.02,same
0,787,valid,"[(1131, 816)]",[],[1],[0.5166666666666666],vertical,"(390.0, 762.0)",1.05,0.478,1,13704.442,2,0.02,same
0,788,catch,"[(1167, 811)]",[],[1],[],vertical,"(390.0, 262.0)",1.7,nan,1,13801.436,2,0.02,same
0,789,valid,"[(1158, 790)]",[],[1],[0.6],vertical,"(890.0, 262.0)",1.15,0.562,1,13807.419,2,0.02,same
0,790,valid,"[(1156, 783)]",[],[1],[0.5],vertical,"(890.0, 762.0)",0.43333333333333335,0.456,1,13813.174,3,0.02,same
0,791,valid,"[(1118, 794)]",[],[1],[0.5333333333333333],vertical,"(890.0, 762.0)",1.1833333333333333,0.491,1,13818.368,3,0.02,same
0,792,catch,"[(1160, 778)]",[],[1],[],vertical,"(890.0, 262.0)",1.7,nan,1,13824.302,3,0.02,same
0,793,catch,"[(1169, 787)]",[],[1],[],vertical,"(890.0, 762.0)",,"('fix', 0.429),nan",0,13830.2,0,0.04,same
0,794,invalid_adjacent_other_bar,"[(1131, 791)]",[],[1],[0.5],vertical,"(890.0, 262.0)",0.7166666666666667,0.458,1,13832.252,1,0.04,other
0,795,invalid_same_bar,"[(1126, 792)]",[],[1],[0.5333333333333333],horizontal,"(390.0, 762.0)",1.2333333333333334,0.494,1,13837.044,1,0.04,same
0,796,valid,"[(1152, 766)]",[],[1],[0.4666666666666667],horizontal,"(390.0, 262.0)",0.7166666666666667,0.425,1,13842.361,1,0.04,same
0,797,valid,"[(1160, 781)]",[],[1],[],horizontal,"(390.0, 762.0)",,"('fix', 0.378)",0,13847.277,0,0.04,same
0,798,invalid_adjacent_other_bar,"[(1092, 779)]",[],[1],[0.6833333333333333],vertical,"(390.0, 762.0)",0.4166666666666667,0.636,1,13849.355,1,0.04,other
0,799,catch,"[(1131, 782)]",[],[1],[],vertical,"(890.0, 762.0)",1.7,nan,1,13854.246,1,0.04,same
0,800,invalid_same_bar,"[(1081, 831)]",[],[1],[0.8],horizontal,"(890.0, 762.0)",1.05,0.752,1,13859.67,1,0.04,same
0,801,valid,"[(1132, 792)]",[],[1],[0.5],horizontal,"(890.0, 262.0)",1.2,0.462,1,13865.175,2,0.04,same
0,802,valid,"[(1165, 783)]",[],[1],[0.5166666666666666],vertical,"(890.0, 762.0)",1.1666666666666667,0.475,1,13870.587,2,0.04,same
0,803,invalid_adjacent_other_bar,"[(1119, 833)]",[],[1],[0.5],vertical,"(390.0, 262.0)",0.4166666666666667,0.458,1,13875.936,2,0.04,other
0,804,invalid_same_bar,"[(1160, 805)]",[],[1],[0.85],horizontal,"(390.0, 762.0)",1.2666666666666666,nan,0,13881.103,0,0.04,same
0,805,valid,"[(1116, 817)]",[],[1],[0.5833333333333334],vertical,"(390.0, 762.0)",1.1833333333333333,0.546,1,13886.502,1,0.04,same
0,806,valid,"[(1160, 786)]",[],[1],[0.85],horizontal,"(390.0, 762.0)",0.8166666666666667,nan,0,13891.801,0,0.04,same
0,807,catch,"[(1156, 810)]",[],[1],[],horizontal,"(890.0, 762.0)",1.7,nan,1,13896.103,1,0.04,same
0,808,catch,"[(1131, 816)]",[],[1],[],horizontal,"(390.0, 262.0)",1.7,nan,1,13901.291,1,0.04,same
0,809,valid,"[(1161, 800)]",[],[1],[0.55],vertical,"(390.0, 262.0)",0.9166666666666666,0.51,1,13906.59,1,0.04,same
0,810,catch,"[(1111, 830)]",[],[1],[],horizontal,"(390.0, 262.0)",1.7,nan,1,13911.763,2,0.04,same
0,811,valid,"[(1136, 787)]",[],[1],[0.5666666666666667],vertical,"(390.0, 762.0)",1.1666666666666667,0.527,1,13917.436,2,0.04,same
0,812,catch,"[(1150, 776)]",[],[1],[],vertical,"(390.0, 262.0)",1.7,nan,1,13922.873,2,0.02,same
0,813,catch,"[(1165, 784)]",[],[1],[],vertical,"(890.0, 262.0)",1.7,nan,1,13928.768,3,0.02,same
0,814,valid,"[(1157, 782)]",[],[1],[0.5],vertical,"(890.0, 762.0)",0.9,0.462,1,13934.602,3,0.02,same
0,815,valid,"[(1163, 794)]",[],[1],[0.5833333333333334],vertical,"(390.0, 762.0)",1.4666666666666666,0.545,1,13940.279,3,0.02,same
0,816,valid,"[(1163, 777)]",[],[1],[0.5],vertical,"(890.0, 762.0)",1.1833333333333333,0.462,1,13946.853,3,0.02,same
0,817,catch,"[(1161, 792)]",[],[1],[],vertical,"(890.0, 762.0)",1.7,nan,1,13952.385,3,0.02,same
0,818,valid,"[(1162, 776)]",[],[1],[0.6],vertical,"(390.0, 262.0)",0.95,0.553,1,13958.025,3,0.02,same
0,819,invalid_same_bar,"[(1162, 797)]",[],[1],[0.7333333333333333],horizontal,"(890.0, 762.0)",0.4666666666666667,0.685,1,13963.953,3,0.02,same
0,820,invalid_same_bar,"[(1129, 796)]",[],[1],[0.5166666666666666],horizontal,"(390.0, 762.0)",1.1,0.474,1,13969.788,3,0.02,same
0,821,catch,"[(1115, 822)]",[],[1],[],vertical,"(390.0, 762.0)",1.7,nan,1,13975.819,3,0.02,same
0,822,valid,"[(1137, 795)]",[],[1],[0.6166666666666667],vertical,"(890.0, 762.0)",0.65,0.576,1,13984.183,3,0.02,same
0,823,valid,"[(1164, 778)]",[],[1],[0.3333333333333333],vertical,"(890.0, 762.0)",1.5,0.295,1,13990.22,3,0.02,same
0,824,invalid_adjacent_other_bar,"[(1136, 782)]",[],[1],[0.85],horizontal,"(890.0, 762.0)",1.5,nan,0,13996.534,0,0.02,other
0,825,valid,"[(1131, 777)]",[],[1],[0.5166666666666666],horizontal,"(890.0, 762.0)",0.5666666666666667,0.476,1,14001.869,1,0.02,same
0,826,invalid_adjacent_other_bar,"[(1141, 786)]",[],[1],[0.6166666666666667],horizontal,"(390.0, 762.0)",0.9,0.57,1,14006.761,1,0.02,other
0,827,catch,"[(1138, 796)]",[],[1],[],vertical,"(890.0, 762.0)",1.7,nan,1,14011.651,1,0.02,same
0,828,catch,"[(1163, 791)]",[],[1],[],horizontal,"(890.0, 262.0)",1.7,nan,1,14017.093,2,0.02,same
0,829,valid,"[(1151, 782)]",[],[1],[0.85],horizontal,"(890.0, 762.0)",1.3333333333333333,nan,0,14022.709,0,0.02,same
0,830,valid,"[(1132, 789)]",[],[1],[0.85],vertical,"(890.0, 262.0)",0.45,nan,0,14027.994,0,0.02,same
0,831,catch,"[(1121, 796)]",[],[1],[],horizontal,"(390.0, 262.0)",,"('cti', 1.627),nan",0,14032.243,0,0.04,same
0,832,valid,"[(1151, 785)]",[],[1],[0.5333333333333333],vertical,"(890.0, 762.0)",1.45,0.488,1,14036.82,1,0.04,same
0,833,catch,"[(1136, 784)]",[],[1],[],vertical,"(390.0, 262.0)",1.7,nan,1,14042.023,1,0.04,same
0,834,valid,"[(1165, 806)]",[],[1],[0.5833333333333334],vertical,"(890.0, 262.0)",0.95,0.541,1,14047.404,1,0.04,same
0,835,valid,"[(1151, 791)]",[],[1],[0.5],horizontal,"(390.0, 262.0)",0.9,0.46,1,14052.648,2,0.04,same
0,836,valid,"[(1136, 773)]",[],[1],[0.55],vertical,"(890.0, 262.0)",0.35,0.515,1,14058.343,2,0.04,same
0,837,valid,"[(1160, 766)]",[],[1],[0.6],vertical,"(390.0, 262.0)",0.5833333333333334,0.555,1,14063.579,2,0.04,same
0,838,valid,"[(1161, 787)]",[],[1],[0.48333333333333334],vertical,"(890.0, 762.0)",1.45,0.44,1,14068.552,3,0.04,same
0,839,catch,"[(1165, 773)]",[],[1],[],horizontal,"(390.0, 762.0)",1.7,nan,1,14075.036,3,0.04,same
0,840,valid,"[(1136, 788)]",[],[1],[0.4666666666666667],horizontal,"(890.0, 262.0)",1.5166666666666666,0.424,1,14081.01,3,0.04,same
0,841,invalid_adjacent_other_bar,"[(1165, 778)]",[],[1],[0.5],horizontal,"(390.0, 262.0)",0.9666666666666667,0.462,1,14087.016,3,0.04,other
0,842,invalid_adjacent_other_bar,"[(1160, 776)]",[],[1],[],vertical,"(390.0, 762.0)",,"('fix', 0.412)",0,14093.165,0,0.04,other
0,843,invalid_same_bar,"[(1129, 802)]",[],[1],[0.7166666666666667],vertical,"(390.0, 262.0)",1.45,0.675,1,14095.166,1,0.02,same
0,844,valid,"[(1131, 767)]",[],[1],[0.5],vertical,"(890.0, 262.0)",0.9,0.455,1,14100.814,1,0.02,same
0,845,valid,"[(1156, 769)]",[],[1],[0.6333333333333333],vertical,"(390.0, 262.0)",1.5,0.589,1,14105.394,1,0.02,same
0,846,catch,"[(1160, 772)]",[],[1],[],vertical,"(390.0, 262.0)",1.7,nan,1,14111.352,2,0.02,same
0,847,valid,"[(1156, 787)]",[],[1],[0.4666666666666667],vertical,"(390.0, 762.0)",0.5333333333333333,0.424,1,14117.102,2,0.02,same
0,848,catch,"[(1159, 772)]",[],[1],[],vertical,"(890.0, 262.0)",1.7,nan,1,14122.087,2,0.02,same
0,849,valid,"[(1135, 782)]",[],[1],[0.45],horizontal,"(890.0, 262.0)",0.9666666666666667,0.409,1,14127.56,3,0.02,same
0,850,catch,"[(1156, 792)]",[],[1],[],horizontal,"(390.0, 262.0)",1.7,nan,1,14133.086,3,0.02,same
0,851,valid,"[(1166, 776)]",[],[1],[0.5333333333333333],horizontal,"(890.0, 762.0)",1.0166666666666666,0.487,1,14139.355,3,0.02,same
