block,practice,trial,change_interval_s,change_interval_frames,taps_start_time_during_fix,taps_end_time_during_fix,taps_start_loc_during_fix,taps_end_loc_during_fix,taps_on_lever_during_fix,taps_on_lever_frame_during_fix,taps_on_lever_s_during_fix,fix_xy,bar_orientation,target_xy,cti,rt,acc,time
1,True,1,0.765,45,[],[],"[(1112, 836)]",[],[1],[23],[0.3833333333333333],"[640.0, 512.0]",horizontal,"(390.0, 762.0)",[0.5833333333333334],[0.343],1,0.368
1,True,2,0.564,33,[],[],"[(980, 413), (1129, 184), (971, 414), (1245, 423), (1148, 250), (980, 355), (251, 166), (1212, 907)]",[],"[0, 0, 0, 0, 0, 0, 0, 1]",[35],[0.5833333333333334],"[640.0, 512.0]",horizontal,"(390.0, 262.0)",[0.7166666666666667],[0.543],1,160.474
1,True,3,0.753,45,[],[],"[(1193, 872)]",[],[1],[46],[0.7666666666666666],"[640.0, 512.0]",vertical,"(890.0, 262.0)",[1.2833333333333332],[0.726],1,337.74
1,True,4,1.033,61,[],[],"[(1156, 871)]",[],[1],[37],[0.6166666666666667],"[640.0, 512.0]",horizontal,"(390.0, 762.0)",[0.6],[0.575],1,342.91
1,False,1,1.049,62,[],[],"[(1196, 890)]",[],[1],[36],[0.6],"[640.0, 512.0]",horizontal,"(890.0, 262.0)",[1.2666666666666666],[0.555],1,347.395
1,False,2,0.563,33,[],[],"[(763, 717), (1155, 881)]",[],"[0, 1]",[46],[0.7666666666666666],"[640.0, 512.0]",vertical,"(390.0, 262.0)",[1.4333333333333333],[0.725],1,352.764
1,False,3,0.642,38,[],[],"[(1153, 873)]",[],[1],[39],[0.65],"[640.0, 512.0]",vertical,"(390.0, 762.0)",[0.7333333333333333],[0.606],1,1958.48
1,False,4,1.054,63,[],[],"[(1172, 884)]",[],[1],[31],[0.5166666666666666],"[640.0, 512.0]",horizontal,"(390.0, 262.0)",[1.4166666666666667],[0.477],1,1962.431
1,False,5,1.125,67,[],[],"[(1160, 897)]",[],[1],[35],[0.5833333333333334],"[640.0, 512.0]",vertical,"(890.0, 762.0)",[1.0],[0.536],1,1967.346
1,False,6,0.629,37,[],[],"[(1146, 883)]",[],[1],[36],[0.6],"[640.0, 512.0]",horizontal,"(390.0, 762.0)",[1.5666666666666667],[0.556],1,1972.054
1,False,7,0.732,43,[],[],"[(1154, 893)]",[],[1],[41],[0.6833333333333333],"[640.0, 512.0]",vertical,"(890.0, 262.0)",[0.55],[0.645],1,1976.801
1,False,8,0.507,30,[],[],"[(1153, 890)]",[],[1],[51],[0.85],"[640.0, 512.0]",vertical,"(390.0, 762.0)",[1.1666666666666667],[0.798],0,1980.683
1,False,9,1.071,64,[],[],"[(1153, 884)]",[],[1],[36],[0.6],"[640.0, 512.0]",horizontal,"(390.0, 262.0)",[1.05],[0.555],1,1985.173
1,False,10,0.981,58,[],[],"[(1122, 863)]",[],[1],[40],[0.6666666666666666],"[640.0, 512.0]",vertical,"(390.0, 262.0)",[1.4333333333333333],[0.619],1,1990.02
1,False,11,0.851,51,[],[],"[(1172, 881)]",[],[1],[35],[0.5833333333333334],"[640.0, 512.0]",horizontal,"(390.0, 262.0)",[1.3333333333333333],[0.542],1,1995.103
1,False,12,0.934,56,[],[],"[(1107, 865)]",[],[1],[37],[0.6166666666666667],"[640.0, 512.0]",vertical,"(390.0, 262.0)",[0.9333333333333333],[0.572],1,1999.836
1,False,13,1.075,64,[],[],"[(1151, 884)]",[],[1],[31],[0.5166666666666666],"[640.0, 512.0]",vertical,"(390.0, 762.0)",[1.7],[0.48],1,2004.203
1,False,14,0.683,40,[],[],"[(1148, 878)]",[],[1],[31],[0.5166666666666666],"[640.0, 512.0]",horizontal,"(390.0, 262.0)",[1.0666666666666667],[0.477],1,2009.387
1,False,15,1.031,61,[],[],"[(1145, 876)]",[],[1],[37],[0.6166666666666667],"[640.0, 512.0]",horizontal,"(390.0, 262.0)",[1.1333333333333333],[0.578],1,2013.597
1,False,16,0.965,57,[],[],"[(1160, 879)]",[],[1],[33],[0.55],"[640.0, 512.0]",vertical,"(390.0, 762.0)",[1.1],[0.507],1,2018.314
1,False,17,1.044,62,[],[],"[(1142, 882)]",[],[1],[37],[0.6166666666666667],"[640.0, 512.0]",vertical,"(390.0, 262.0)",[1.0666666666666667],[0.576],1,2022.845
1,False,18,0.572,34,[],[],"[(1185, 898)]",[],[1],[37],[0.6166666666666667],"[640.0, 512.0]",horizontal,"(390.0, 262.0)",[0.8166666666666667],[0.577],1,2027.59
1,False,19,0.612,36,[],[],"[(1148, 863)]",[],[1],[31],[0.5166666666666666],"[640.0, 512.0]",vertical,"(390.0, 262.0)",[1.6],[0.478],1,2031.631
1,False,20,0.686,41,[],[],"[(1153, 879)]",[],[1],[34],[0.5666666666666667],"[640.0, 512.0]",vertical,"(890.0, 762.0)",[1.65],[0.521],1,2036.433
1,False,21,0.556,33,[],[],"[(1190, 889)]",[],[1],[34],[0.5666666666666667],"[640.0, 512.0]",vertical,"(390.0, 762.0)",[0.6666666666666666],[0.523],1,2041.305
1,False,22,0.662,39,[],[],"[(1117, 870)]",[],[1],[34],[0.5666666666666667],"[640.0, 512.0]",vertical,"(390.0, 262.0)",[1.1666666666666667],[0.531],1,2045.149
1,False,23,0.648,38,[],[],"[(1111, 881)]",[],[1],[31],[0.5166666666666666],"[640.0, 512.0]",vertical,"(890.0, 262.0)",[1.5666666666666667],[0.475],1,2049.509
1,False,24,0.573,34,[],[],"[(1130, 870)]",[],[1],[44],[0.7333333333333333],"[640.0, 512.0]",vertical,"(890.0, 262.0)",[0.5],[0.71],1,2058.85
1,False,25,0.732,43,[],[],"[(1153, 845)]",[],[1],[40],[0.6666666666666666],"[640.0, 512.0]",vertical,"(890.0, 762.0)",[0.8166666666666667],[0.624],1,2062.576
1,False,26,1.089,65,[],[],"[(1186, 876)]",[],[1],[37],[0.6166666666666667],"[640.0, 512.0]",horizontal,"(890.0, 762.0)",[0.6166666666666667],[0.573],1,2066.863
1,False,27,0.703,42,[],[],"[(1153, 880)]",[],[1],[36],[0.6],"[640.0, 512.0]",vertical,"(890.0, 762.0)",[1.2166666666666666],[0.561],1,2071.185
1,False,28,0.729,43,[],[],"[(1154, 884)]",[],[1],[34],[0.5666666666666667],"[640.0, 512.0]",vertical,"(390.0, 762.0)",[1.2333333333333334],[0.526],1,2077.606
1,False,29,0.973,58,[],[],"[(1117, 869)]",[],[1],[51],[0.85],"[640.0, 512.0]",vertical,"(390.0, 262.0)",[0.7166666666666667],[0.799],0,2082.212
1,False,30,1.112,66,[],[],"[(1183, 875)]",[],[1],[42],[0.7],"[640.0, 512.0]",vertical,"(390.0, 762.0)",[1.6],[0.652],1,2086.798
1,False,31,0.86,51,[],[],"[(1196, 874)]",[],[1],[33],[0.55],"[640.0, 512.0]",horizontal,"(390.0, 262.0)",[0.95],[0.512],1,2092.23
1,False,32,1.011,60,[],[],"[(1133, 862)]",[],[1],[31],[0.5166666666666666],"[640.0, 512.0]",horizontal,"(390.0, 262.0)",[1.3833333333333333],[0.471],1,2096.621
1,False,33,0.508,30,[],[],"[(1160, 877)]",[],[1],[51],[0.85],"[640.0, 512.0]",horizontal,"(890.0, 262.0)",[0.5],[0.803],0,2101.466
1,False,34,0.565,33,[],[],"[(1172, 872)]",[],[1],[31],[0.5166666666666666],"[640.0, 512.0]",vertical,"(890.0, 262.0)",[1.6333333333333333],[0.477],1,2105.257
1,False,35,0.892,53,[],[],"[(1178, 862)]",[],[1],[35],[0.5833333333333334],"[640.0, 512.0]",horizontal,"(890.0, 762.0)",[1.1],[0.542],1,2109.995
1,False,36,1.147,68,[],[],"[(1183, 869)]",[],[1],[51],[0.85],"[640.0, 512.0]",vertical,"(390.0, 262.0)",[1.6666666666666667],[0.801],0,2114.6
1,False,37,0.843,50,[],[],"[(1123, 886)]",[],[1],[36],[0.6],"[640.0, 512.0]",horizontal,"(890.0, 262.0)",[1.3],[0.563],1,2120.095
1,False,38,0.566,33,[],[],"[(1160, 884)]",[],[1],[35],[0.5833333333333334],"[640.0, 512.0]",horizontal,"(390.0, 762.0)",[1.1833333333333333],[0.544],1,2156.595
1,False,39,1.159,69,[],[],"[(1164, 888)]",[],[1],[45],[0.75],"[640.0, 512.0]",vertical,"(390.0, 762.0)",[0.8333333333333334],[0.702],1,2160.87
1,False,40,1.172,70,[],[],"[(1184, 879)]",[],[1],[32],[0.5333333333333333],"[640.0, 512.0]",horizontal,"(890.0, 762.0)",[0.8833333333333333],[0.499],1,2165.595
1,False,41,1.084,65,[],[],"[(1196, 889)]",[],[1],[33],[0.55],"[640.0, 512.0]",horizontal,"(890.0, 262.0)",[1.35],[0.508],1,2170.122
1,False,42,0.677,40,[],[],"[(1160, 895)]",[],[1],[33],[0.55],"[640.0, 512.0]",vertical,"(390.0, 262.0)",[0.5833333333333334],[0.508],1,2175.168
1,False,43,0.738,44,[],[],"[(1196, 877)]",[],[1],[35],[0.5833333333333334],"[640.0, 512.0]",vertical,"(390.0, 262.0)",[0.75],[0.538],1,2178.948
1,False,44,1.166,69,[],[],"[(1162, 889)]",[],[1],[33],[0.55],"[640.0, 512.0]",vertical,"(890.0, 762.0)",[0.7166666666666667],[0.509],1,2183.12
1,False,45,0.991,59,[],[],"[(1154, 874)]",[],[1],[31],[0.5166666666666666],"[640.0, 512.0]",horizontal,"(390.0, 262.0)",[1.5],[0.477],1,2187.42
1,False,46,0.569,34,[],[],"[(1153, 870)]",[],[1],[44],[0.7333333333333333],"[640.0, 512.0]",vertical,"(890.0, 262.0)",[1.1166666666666667],[0.687],1,2192.466
1,False,47,0.687,41,[],[],"[(1153, 887)]",[],[1],[33],[0.55],"[640.0, 512.0]",horizontal,"(390.0, 762.0)",[1.0166666666666666],[0.51],1,2196.836
1,False,48,0.982,58,[],[],"[(1160, 879)]",[],[1],[36],[0.6],"[640.0, 512.0]",vertical,"(390.0, 262.0)",[0.9166666666666666],[0.551],1,2201.057
1,False,49,1.031,61,[],[],"[(1184, 894)]",[],[1],[33],[0.55],"[640.0, 512.0]",horizontal,"(390.0, 262.0)",[1.5333333333333332],[0.511],1,2205.513
1,False,50,0.751,45,[],[],"[(1158, 890)]",[],[1],[51],[0.85],"[640.0, 512.0]",horizontal,"(390.0, 762.0)",[1.5833333333333333],[0.8],0,2210.554
1,False,51,0.537,32,[],[],"[(1134, 871)]",[],[1],[51],[0.85],"[640.0, 512.0]",horizontal,"(890.0, 262.0)",[0.6833333333333333],[0.802],0,2215.766
1,False,52,0.894,53,[],[],"[(1172, 879)]",[],[1],[34],[0.5666666666666667],"[640.0, 512.0]",vertical,"(390.0, 762.0)",[1.3666666666666667],[0.519],1,2220.135
1,False,53,0.933,55,[],[],"[(1148, 851)]",[],[1],[32],[0.5333333333333333],"[640.0, 512.0]",vertical,"(890.0, 262.0)",[1.25],[0.488],1,2225.003
1,False,54,0.729,43,[],[],"[(1163, 889)]",[],[1],[34],[0.5666666666666667],"[640.0, 512.0]",vertical,"(390.0, 762.0)",[1.6],[0.522],1,2229.766
1,False,55,0.559,33,[],[],"[(1190, 884)]",[],[1],[38],[0.6333333333333333],"[640.0, 512.0]",horizontal,"(390.0, 762.0)",[0.8833333333333333],[0.592],1,2234.642
1,False,56,1.189,71,[],[],"[(1160, 884)]",[],[1],[51],[0.85],"[640.0, 512.0]",horizontal,"(890.0, 762.0)",[1.25],[0.807],0,2238.678
1,False,57,0.873,52,[],[],"[(1117, 862)]",[],[1],[32],[0.5333333333333333],"[640.0, 512.0]",horizontal,"(890.0, 762.0)",[0.6166666666666667],[0.486],1,2243.933
1,False,58,1.107,66,[],[],"[(1196, 869)]",[],[1],[32],[0.5333333333333333],"[640.0, 512.0]",vertical,"(390.0, 262.0)",[1.6],[0.493],1,2248.486
1,False,59,0.778,46,[],[],"[(1190, 884)]",[],[1],[32],[0.5333333333333333],"[640.0, 512.0]",vertical,"(890.0, 262.0)",[1.0166666666666666],[0.491],1,2253.766
1,False,60,0.619,37,[],[],"[(1115, 862)]",[],[1],[31],[0.5166666666666666],"[640.0, 512.0]",vertical,"(890.0, 262.0)",[1.15],[0.478],1,2258.068
2,False,61,0.989,59,[],[],"[(1198, 879)]",[],[1],[34],[0.5666666666666667],"[640.0, 512.0]",horizontal,"(390.0, 762.0)",[0.7166666666666667],[0.525],1,2262.266
2,False,62,0.892,53,[],[],"[(1181, 875)]",[],[1],[33],[0.55],"[640.0, 512.0]",horizontal,"(890.0, 262.0)",[0.5833333333333334],[0.507],1,2266.572
2,False,63,0.515,30,[],[],"[(1148, 890)]",[],[1],[33],[0.55],"[640.0, 512.0]",vertical,"(390.0, 262.0)",[0.8166666666666667],[0.506],1,2270.536
2,False,64,0.711,42,[],[],"[(1166, 873)]",[],[1],[34],[0.5666666666666667],"[640.0, 512.0]",horizontal,"(390.0, 262.0)",[1.65],[0.525],1,2274.433
2,False,65,0.772,46,[],[],"[(1142, 878)]",[],[1],[32],[0.5333333333333333],"[640.0, 512.0]",horizontal,"(890.0, 262.0)",[1.45],[0.493],1,2279.248
2,False,66,0.966,57,[],[],"[(1151, 872)]",[],[1],[33],[0.55],"[640.0, 512.0]",vertical,"(390.0, 262.0)",[1.15],[0.504],1,2284.02
2,False,67,0.625,37,[],[],"[(1160, 859)]",[],[1],[44],[0.7333333333333333],"[640.0, 512.0]",vertical,"(890.0, 762.0)",[1.4],[0.686],1,2288.737
2,False,68,1.015,60,[],[],"[(1160, 871)]",[],[1],[38],[0.6333333333333333],"[640.0, 512.0]",vertical,"(390.0, 262.0)",[1.6333333333333333],[0.596],1,2293.471
2,False,69,0.918,55,[],[],"[(1178, 880)]",[],[1],[51],[0.85],"[640.0, 512.0]",vertical,"(890.0, 762.0)",[1.1666666666666667],[0.808],0,2298.72
2,False,70,0.505,30,[],[],"[(1182, 870)]",[],[1],[37],[0.6166666666666667],"[640.0, 512.0]",vertical,"(390.0, 762.0)",[0.9833333333333333],[0.576],1,2303.665
2,False,71,0.698,41,[],[],"[(1113, 870)]",[],[1],[33],[0.55],"[640.0, 512.0]",vertical,"(390.0, 762.0)",[1.0333333333333332],[0.511],1,2307.708
2,False,72,1.065,63,[],[],"[(1184, 868)]",[],[1],[37],[0.6166666666666667],"[640.0, 512.0]",vertical,"(890.0, 762.0)",[1.35],[0.572],1,2311.889
2,False,73,1.15,69,[],[],"[(1178, 870)]",[],[1],[34],[0.5666666666666667],"[640.0, 512.0]",horizontal,"(390.0, 762.0)",[1.2333333333333334],[0.532],1,2316.877
2,False,74,0.995,59,[],[],"[(1182, 874)]",[],[1],[50],[0.8333333333333334],"[640.0, 512.0]",vertical,"(890.0, 262.0)",[1.0],[0.786],1,2321.874
2,False,75,1.056,63,[],[],"[(1179, 871)]",[],[1],[39],[0.65],"[640.0, 512.0]",horizontal,"(890.0, 762.0)",[1.2333333333333334],[0.606],1,2326.565
2,False,76,0.843,50,[],[],"[(1184, 860)]",[],[1],[33],[0.55],"[640.0, 512.0]",vertical,"(890.0, 762.0)",[0.65],[0.511],1,2331.389
2,False,77,0.921,55,[],[],"[(1150, 847)]",[],[1],[35],[0.5833333333333334],"[640.0, 512.0]",horizontal,"(390.0, 762.0)",[0.9],[0.538],1,2335.447
2,False,78,0.642,38,[],[],"[(1156, 876)]",[],[1],[35],[0.5833333333333334],"[640.0, 512.0]",vertical,"(390.0, 762.0)",[1.0666666666666667],[0.538],1,2339.896
2,False,79,0.669,40,[],[],"[(1151, 860)]",[],[1],[34],[0.5666666666666667],"[640.0, 512.0]",horizontal,"(390.0, 262.0)",[0.85],[0.532],1,2344.017
2,False,80,1.138,68,[],[],"[(1183, 859)]",[],[1],[32],[0.5333333333333333],"[640.0, 512.0]",vertical,"(890.0, 762.0)",[0.9666666666666667],[0.491],1,2348.168
2,False,81,0.623,37,[],[],"[(1231, 875), (1196, 868)]",[],"[0, 1]",[31],[0.5166666666666666],"[640.0, 512.0]",horizontal,"(390.0, 262.0)",[1.5166666666666666],[0.473],1,2352.77
2,False,82,1.07,64,[],[],"[(1149, 864)]",[],[1],[36],[0.6],"[640.0, 512.0]",vertical,"(390.0, 762.0)",[1.2333333333333334],[0.565],1,2358.837
2,False,83,1.196,71,[],[],"[(1169, 861)]",[],[1],[32],[0.5333333333333333],"[640.0, 512.0]",horizontal,"(890.0, 762.0)",[0.6333333333333333],[0.493],1,2363.838
2,False,84,0.787,47,[],[],"[(1178, 855)]",[],[1],[35],[0.5833333333333334],"[640.0, 512.0]",vertical,"(890.0, 762.0)",[1.5166666666666666],[0.544],1,2368.269
2,False,85,1.134,68,[],[],"[(1184, 868)]",[],[1],[33],[0.55],"[640.0, 512.0]",horizontal,"(890.0, 262.0)",[0.5],[0.51],1,2373.132
2,False,86,0.941,56,[],[],"[(1190, 875)]",[],[1],[35],[0.5833333333333334],"[640.0, 512.0]",vertical,"(390.0, 762.0)",[1.3833333333333333],[0.542],1,2377.296
2,False,87,0.759,45,[],[],"[(1188, 868)]",[],[1],[39],[0.65],"[640.0, 512.0]",vertical,"(390.0, 262.0)",[1.1833333333333333],[0.607],1,2382.22
2,False,88,0.619,37,[],[],"[(1196, 884)]",[],[1],[42],[0.7],"[640.0, 512.0]",vertical,"(390.0, 262.0)",[0.55],[0.655],1,2386.752
2,False,89,1.198,71,[],[],"[(1151, 888)]",[],[1],[33],[0.55],"[640.0, 512.0]",horizontal,"(390.0, 262.0)",[0.6666666666666666],[0.509],1,2390.503
2,False,90,1.168,70,[],[],"[(1190, 865)]",[],[1],[33],[0.55],"[640.0, 512.0]",vertical,"(390.0, 762.0)",[1.6],[0.51],1,2394.872
2,False,91,0.784,47,[],[],"[(1185, 865)]",[],[1],[33],[0.55],"[640.0, 512.0]",horizontal,"(890.0, 762.0)",[0.6833333333333333],[0.51],1,2400.183
2,False,92,0.942,56,[],[],"[(1181, 855)]",[],[1],[33],[0.55],"[640.0, 512.0]",vertical,"(390.0, 262.0)",[1.0166666666666666],[0.507],1,2404.184
2,False,93,0.761,45,[],[],"[(1153, 849)]",[],[1],[34],[0.5666666666666667],"[640.0, 512.0]",horizontal,"(890.0, 262.0)",[1.1333333333333333],[0.528],1,2408.655
2,False,94,0.934,56,[],[],"[(1196, 882)]",[],[1],[31],[0.5166666666666666],"[640.0, 512.0]",vertical,"(390.0, 762.0)",[1.2166666666666666],[0.481],1,2414.276
2,False,95,0.624,37,[],[],"[(1156, 866)]",[],[1],[40],[0.6666666666666666],"[640.0, 512.0]",vertical,"(890.0, 762.0)",[1.2833333333333332],[0.62],1,2419.002
2,False,96,0.796,47,[],[],"[(1143, 852)]",[],[1],[51],[0.85],"[640.0, 512.0]",horizontal,"(390.0, 262.0)",[1.2166666666666666],[0.8],0,2423.587
2,False,97,0.764,45,[],[],"[(1177, 868)]",[],[1],[32],[0.5333333333333333],"[640.0, 512.0]",horizontal,"(390.0, 262.0)",[1.6166666666666667],[0.49],1,2430.064
2,False,98,0.905,54,[],[],"[(1160, 882)]",[],[1],[37],[0.6166666666666667],"[640.0, 512.0]",horizontal,"(390.0, 262.0)",[0.6666666666666666],[0.573],1,2435.101
2,False,99,0.863,51,[],[],"[(1113, 859)]",[],[1],[32],[0.5333333333333333],"[640.0, 512.0]",vertical,"(890.0, 762.0)",[1.5],[0.492],1,2439.121
2,False,100,0.719,43,[],[],"[(1184, 847)]",[],[1],[32],[0.5333333333333333],"[640.0, 512.0]",vertical,"(890.0, 762.0)",[0.7666666666666666],[0.492],1,2444.436
2,False,101,1.055,63,[],[],"[(1160, 846)]",[],[1],[35],[0.5833333333333334],"[640.0, 512.0]",horizontal,"(890.0, 762.0)",[0.9666666666666667],[0.537],1,2448.331
2,False,102,1.167,70,[],[],"[(1152, 879)]",[],[1],[33],[0.55],"[640.0, 512.0]",horizontal,"(390.0, 262.0)",[1.2666666666666666],[0.513],1,2452.802
2,False,103,0.812,48,[],[],"[(1196, 858)]",[],[1],[32],[0.5333333333333333],"[640.0, 512.0]",horizontal,"(890.0, 262.0)",[0.6],[0.49],1,2457.782
2,False,104,1.197,71,[],[],"[(1194, 869)]",[],[1],[32],[0.5333333333333333],"[640.0, 512.0]",horizontal,"(890.0, 762.0)",[0.5166666666666666],[0.495],1,2461.834
2,False,105,0.805,48,[],[],"[(1199, 893)]",[],[1],[35],[0.5833333333333334],"[640.0, 512.0]",horizontal,"(390.0, 762.0)",[1.6333333333333333],[0.54],1,2466.022
2,False,106,1.196,71,[],[],"[(1185, 872)]",[],[1],[42],[0.7],"[640.0, 512.0]",horizontal,"(890.0, 262.0)",[0.6],[0.659],1,2471.037
2,False,107,1.191,71,[],[],"[(1161, 883)]",[],[1],[35],[0.5833333333333334],"[640.0, 512.0]",vertical,"(390.0, 762.0)",[0.9],[0.544],1,2475.428
2,False,108,0.599,35,[],[],"[(1203, 867)]",[],[1],[34],[0.5666666666666667],"[640.0, 512.0]",horizontal,"(890.0, 762.0)",[0.75],[0.524],1,2480.048
2,False,109,1.055,63,[],[],"[(1190, 871)]",[],[1],[38],[0.6333333333333333],"[640.0, 512.0]",vertical,"(890.0, 762.0)",[1.5666666666666667],[0.589],1,2484.003
2,False,110,0.578,34,[],[],"[(1116, 859)]",[],[1],[37],[0.6166666666666667],"[640.0, 512.0]",vertical,"(390.0, 762.0)",[1.3333333333333333],[0.572],1,2489.23
2,False,111,0.995,59,[],[],"[(1192, 855)]",[],[1],[36],[0.6],"[640.0, 512.0]",horizontal,"(390.0, 762.0)",[1.4833333333333334],[0.554],1,2495.78
2,False,112,1.121,67,[],[],"[(1166, 862)]",[],[1],[40],[0.6666666666666666],"[640.0, 512.0]",vertical,"(390.0, 262.0)",[1.2],[0.625],1,2500.843
2,False,113,0.948,56,[],[],"[(1117, 843)]",[],[1],[36],[0.6],"[640.0, 512.0]",vertical,"(390.0, 762.0)",[1.5],[0.558],1,2505.831
2,False,114,1.067,64,[],[],"[(1188, 878)]",[],[1],[35],[0.5833333333333334],"[640.0, 512.0]",vertical,"(890.0, 762.0)",[1.0166666666666666],[0.54],1,2510.799
2,False,115,1.025,61,[],[],"[(1184, 851)]",[],[1],[33],[0.55],"[640.0, 512.0]",vertical,"(390.0, 762.0)",[1.6666666666666667],[0.509],1,2515.512
2,False,116,0.879,52,[],[],"[(1138, 877)]",[],[1],[36],[0.6],"[640.0, 512.0]",horizontal,"(890.0, 762.0)",[1.05],[0.564],1,2520.643
2,False,117,1.081,64,[],[],"[(1182, 865)]",[],[1],[32],[0.5333333333333333],"[640.0, 512.0]",vertical,"(390.0, 262.0)",[1.3333333333333333],[0.493],1,2525.585
2,False,118,0.923,55,[],[],"[(1153, 886)]",[],[1],[36],[0.6],"[640.0, 512.0]",vertical,"(390.0, 762.0)",[0.5166666666666666],[0.56],1,2530.421
2,False,119,0.794,47,[],[],"[(1166, 868)]",[],[1],[36],[0.6],"[640.0, 512.0]",horizontal,"(390.0, 762.0)",[0.85],[0.563],1,2534.321
2,False,120,0.911,54,[],[],"[(1105, 863)]",[],[1],[39],[0.65],"[640.0, 512.0]",vertical,"(390.0, 262.0)",[1.0833333333333333],[0.609],1,2538.646
3,False,121,1.079,64,[],[],"[(1198, 879)]",[],[1],[38],[0.6333333333333333],"[640.0, 512.0]",horizontal,"(890.0, 262.0)",[0.9],[0.589],1,2543.277
3,False,122,0.859,51,[],[],"[(1151, 878)]",[],[1],[33],[0.55],"[640.0, 512.0]",vertical,"(390.0, 262.0)",[1.2166666666666666],[0.511],1,2547.905
3,False,123,0.753,45,[],[],"[(1188, 875)]",[],[1],[35],[0.5833333333333334],"[640.0, 512.0]",horizontal,"(890.0, 762.0)",[1.5166666666666666],[0.543],1,2552.503
3,False,124,1.04,62,[],[],"[(1154, 839)]",[],[1],[34],[0.5666666666666667],"[640.0, 512.0]",vertical,"(890.0, 762.0)",[0.6],[0.523],1,2557.236
3,False,125,0.626,37,[],[],"[(1154, 870)]",[],[1],[29],[0.48333333333333334],"[640.0, 512.0]",vertical,"(390.0, 262.0)",[1.4833333333333334],[0.448],1,2561.472
3,False,126,0.621,37,[],[],"[(1196, 870)]",[],[1],[31],[0.5166666666666666],"[640.0, 512.0]",vertical,"(390.0, 262.0)",[1.0166666666666666],[0.482],1,2566.156
3,False,127,0.664,39,[],[],"[(1170, 870)]",[],[1],[34],[0.5666666666666667],"[640.0, 512.0]",horizontal,"(390.0, 762.0)",[1.1],[0.525],1,2570.336
3,False,128,0.722,43,[],[],"[(1192, 850)]",[],[1],[35],[0.5833333333333334],"[640.0, 512.0]",vertical,"(890.0, 762.0)",[1.05],[0.546],1,2574.636
3,False,129,0.523,31,[],[],"[(1153, 878)]",[],[1],[33],[0.55],"[640.0, 512.0]",vertical,"(890.0, 262.0)",[1.1],[0.51],1,2579.021
3,False,130,0.733,43,[],[],"[(1153, 865)]",[],[1],[35],[0.5833333333333334],"[640.0, 512.0]",vertical,"(890.0, 262.0)",[0.9],[0.543],1,2583.125
3,False,131,0.895,53,[],[],"[(1142, 879)]",[],[1],[39],[0.65],"[640.0, 512.0]",horizontal,"(890.0, 262.0)",[1.55],[0.603],1,2587.396
3,False,132,0.62,37,[],[],"[(1111, 873)]",[],[1],[35],[0.5833333333333334],"[640.0, 512.0]",horizontal,"(390.0, 262.0)",[1.2333333333333334],[0.54],1,2592.519
3,False,133,0.912,54,[],[],"[(1154, 878)]",[],[1],[35],[0.5833333333333334],"[640.0, 512.0]",horizontal,"(890.0, 762.0)",[1.3],[0.55],1,2596.979
3,False,134,0.525,31,[],[],"[(1179, 855)]",[],[1],[40],[0.6666666666666666],"[640.0, 512.0]",vertical,"(390.0, 762.0)",[1.4833333333333334],[0.631],1,2601.651
3,False,135,0.979,58,[],[],"[(1154, 884)]",[],[1],[35],[0.5833333333333334],"[640.0, 512.0]",horizontal,"(390.0, 762.0)",[1.2833333333333332],[0.547],1,2606.42
3,False,136,0.812,48,[],[],"[(1192, 850)]",[],[1],[34],[0.5666666666666667],"[640.0, 512.0]",horizontal,"(390.0, 762.0)",[1.1333333333333333],[0.531],1,2611.267
3,False,137,0.606,36,[],[],"[(1160, 881)]",[],[1],[39],[0.65],"[640.0, 512.0]",horizontal,"(390.0, 762.0)",[0.8833333333333333],[0.604],1,2615.73
3,False,138,0.914,54,[],[],"[(1160, 868)]",[],[1],[35],[0.5833333333333334],"[640.0, 512.0]",vertical,"(890.0, 762.0)",[0.55],[0.543],1,2619.885
3,False,139,1.009,60,[],[],"[(1153, 868)]",[],[1],[34],[0.5666666666666667],"[640.0, 512.0]",horizontal,"(390.0, 762.0)",[1.5166666666666666],[0.53],1,2623.955
3,False,140,0.75,45,[],[],"[(1117, 861)]",[],[1],[37],[0.6166666666666667],"[640.0, 512.0]",horizontal,"(890.0, 762.0)",[0.7666666666666666],[0.581],1,2628.965
3,False,141,0.968,58,[],[],"[(1184, 854)]",[],[1],[35],[0.5833333333333334],"[640.0, 512.0]",vertical,"(390.0, 262.0)",[0.95],[0.535],1,2633.121
3,False,142,1.191,71,[],[],"[(1167, 870)]",[],[1],[32],[0.5333333333333333],"[640.0, 512.0]",horizontal,"(890.0, 262.0)",[1.0333333333333332],[0.489],1,2637.537
3,False,143,0.958,57,[],[],"[(1153, 870)]",[],[1],[40],[0.6666666666666666],"[640.0, 512.0]",vertical,"(890.0, 762.0)",[0.6166666666666667],[0.621],1,2642.289
3,False,144,1.082,64,[],[],"[(1157, 869)]",[],[1],[33],[0.55],"[640.0, 512.0]",vertical,"(890.0, 262.0)",[1.5833333333333333],[0.515],1,2646.484
3,False,145,0.753,45,[],[],"[(1152, 862)]",[],[1],[34],[0.5666666666666667],"[640.0, 512.0]",horizontal,"(390.0, 262.0)",[0.5333333333333333],[0.53],1,2651.703
3,False,146,1.175,70,[],[],"[(1190, 869)]",[],[1],[33],[0.55],"[640.0, 512.0]",vertical,"(890.0, 262.0)",[1.4333333333333333],[0.508],1,2655.705
3,False,147,0.717,43,[],[],"[(1160, 864)]",[],[1],[37],[0.6166666666666667],"[640.0, 512.0]",vertical,"(390.0, 262.0)",[1.5666666666666667],[0.575],1,2660.767
3,False,148,0.656,39,[],[],"[(1153, 865)]",[],[1],[33],[0.55],"[640.0, 512.0]",vertical,"(890.0, 262.0)",[0.95],[0.508],1,2665.586
3,False,149,1.135,68,[],[],"[(1155, 850)]",[],[1],[36],[0.6],"[640.0, 512.0]",horizontal,"(890.0, 762.0)",[0.9833333333333333],[0.568],1,2669.763
3,False,150,0.512,30,[],[],"[(1189, 855)]",[],[1],[34],[0.5666666666666667],"[640.0, 512.0]",vertical,"(390.0, 262.0)",[1.1166666666666667],[0.529],1,2674.452
3,False,151,1.066,63,[],[],"[(1178, 870)]",[],[1],[33],[0.55],"[640.0, 512.0]",vertical,"(890.0, 262.0)",[0.7],[0.506],1,2678.702
3,False,152,1.022,61,[],[],"[(1111, 853)]",[],[1],[41],[0.6833333333333333],"[640.0, 512.0]",horizontal,"(890.0, 262.0)",[1.45],[0.64],1,2683.022
3,False,153,0.743,44,[],[],"[(1146, 846)]",[],[1],[40],[0.6666666666666666],"[640.0, 512.0]",horizontal,"(890.0, 262.0)",[0.65],[0.635],1,2688.981
3,False,154,1.146,68,[],[],"[(1074, 860)]",[],[1],[34],[0.5666666666666667],"[640.0, 512.0]",horizontal,"(890.0, 762.0)",[1.4166666666666667],[0.528],1,2692.978
3,False,155,0.688,41,[],[],"[(1143, 862)]",[],[1],[51],[0.85],"[640.0, 512.0]",vertical,"(390.0, 262.0)",[0.5],[0.795],0,2698.284
3,False,156,0.697,41,[],[],"[(1141, 897)]",[],[1],[51],[0.85],"[640.0, 512.0]",vertical,"(890.0, 262.0)",[1.65],[0.804],0,2702.352
3,False,157,1.161,69,[],[],"[(1125, 898)]",[],[1],[51],[0.85],"[640.0, 512.0]",vertical,"(890.0, 762.0)",[1.45],[0.8],0,2888.605
3,False,158,0.531,31,[],[],"[(1044, 899)]",[],[1],[],[],"[640.0, 512.0]",horizontal,"(390.0, 762.0)",[],[0],0,2900.965
3,False,159,0.784,47,[],[],"[(1215, 869)]",[],[1],[39],[0.65],"[640.0, 512.0]",horizontal,"(390.0, 762.0)",[1.0],[0.608],1,2914.405
3,False,160,1.014,60,[],[],"[(1172, 876)]",[],[1],[],[],"[640.0, 512.0]",horizontal,"(890.0, 762.0)",[],[0],0,2918.797
3,False,161,0.798,47,[],[],"[(1190, 867)]",[],[1],[51],[0.85],"[640.0, 512.0]",vertical,"(890.0, 762.0)",[0.5166666666666666],[0.8],0,2920.741
3,False,162,0.567,34,[],[2941366],"[(1245, 884), (1177, 884)]","[(1160, 901)]","[0, 1]",[25],[0.4166666666666667],"[640.0, 512.0]",horizontal,"(890.0, 762.0)",[],[0],0,2924.922
3,False,163,0.999,59,[],[],"[(1138, 865)]",[],[1],[],[],"[640.0, 512.0]",horizontal,"(890.0, 762.0)",[],[0],0,2928.873
3,False,164,0.556,33,[],[2945826],"[(1202, 880)]","[(1188, 897)]",[1],[22],[0.36666666666666664],"[640.0, 512.0]",horizontal,"(390.0, 262.0)",[],[0],0,2930.964
3,False,165,1.027,61,[],[],"[(1190, 855)]",[],[1],[34],[0.5666666666666667],"[640.0, 512.0]",vertical,"(390.0, 262.0)",[0.9833333333333333],[0.521],1,2933.339
3,False,166,0.761,45,[],[],"[(1221, 850)]",[],[1],[36],[0.6],"[640.0, 512.0]",horizontal,"(390.0, 262.0)",[1.3833333333333333],[0.55],1,2937.816
3,False,167,1.119,67,[],[],"[(1198, 869)]",[],[1],[38],[0.6333333333333333],"[640.0, 512.0]",horizontal,"(390.0, 762.0)",[0.9833333333333333],[0.595],1,2942.525
3,False,168,1.047,62,[],[],"[(1206, 866)]",[],[1],[36],[0.6],"[640.0, 512.0]",horizontal,"(890.0, 262.0)",[0.7166666666666667],[0.557],1,2947.11
3,False,169,1.164,69,[],[],"[(1177, 893)]",[],[1],[51],[0.85],"[640.0, 512.0]",vertical,"(390.0, 262.0)",[0.75],[0.803],0,2951.506
3,False,170,0.512,30,[],[],"[(1136, 866)]",[],[1],[39],[0.65],"[640.0, 512.0]",vertical,"(390.0, 762.0)",[1.3166666666666667],[0.605],1,2956.204
3,False,171,0.97,58,[],[],"[(1180, 860)]",[],[1],[28],[0.4666666666666667],"[640.0, 512.0]",horizontal,"(390.0, 262.0)",[0.7],[0.43],1,2960.733
3,False,172,0.898,53,[],[],"[(1158, 860)]",[],[1],[29],[0.48333333333333334],"[640.0, 512.0]",vertical,"(390.0, 262.0)",[1.15],[0.446],1,2964.992
3,False,173,0.871,52,[],[],"[(1208, 873)]",[],[1],[41],[0.6833333333333333],"[640.0, 512.0]",vertical,"(390.0, 762.0)",[0.5666666666666667],[0.637],1,2969.58
3,False,174,0.883,52,[],[],"[(1178, 879)]",[],[1],[36],[0.6],"[640.0, 512.0]",horizontal,"(890.0, 262.0)",[1.6],[0.55],1,2973.676
3,False,175,0.901,54,[],[],"[(1172, 878)]",[],[1],[33],[0.55],"[640.0, 512.0]",horizontal,"(890.0, 262.0)",[1.1],[0.503],1,2978.62
3,False,176,0.749,44,[],[],"[(1180, 869)]",[],[1],[33],[0.55],"[640.0, 512.0]",vertical,"(390.0, 262.0)",[1.5666666666666667],[0.512],1,2983.125
3,False,177,1.016,60,[],[],"[(1190, 881)]",[],[1],[30],[0.5],"[640.0, 512.0]",vertical,"(390.0, 262.0)",[1.4166666666666667],[0.461],1,2988.005
3,False,178,1.194,71,[],[],"[(1190, 881)]",[],[1],[33],[0.55],"[640.0, 512.0]",vertical,"(890.0, 262.0)",[0.5],[0.508],1,2992.841
3,False,179,1.077,64,[],[],"[(1196, 864)]",[],[1],[37],[0.6166666666666667],"[640.0, 512.0]",vertical,"(890.0, 762.0)",[0.5333333333333333],[0.58],1,2996.953
3,False,180,0.897,53,[],[],"[(1190, 879)]",[],[1],[41],[0.6833333333333333],"[640.0, 512.0]",horizontal,"(390.0, 762.0)",[0.5333333333333333],[0.64],1,3001.163
4,False,181,0.766,45,[],[],"[(1178, 860)]",[],[1],[31],[0.5166666666666666],"[640.0, 512.0]",horizontal,"(890.0, 262.0)",[1.6333333333333333],[0.477],1,3005.173
4,False,182,0.843,50,[],[],"[(1191, 872)]",[],[1],[31],[0.5166666666666666],"[640.0, 512.0]",vertical,"(890.0, 262.0)",[1.55],[0.478],1,3009.968
4,False,183,1.179,70,[],[],"[(1180, 848)]",[],[1],[37],[0.6166666666666667],"[640.0, 512.0]",vertical,"(390.0, 762.0)",[1.5333333333333332],[0.578],1,3014.922
4,False,184,1.109,66,[],[],"[(1158, 871)]",[],[1],[33],[0.55],"[640.0, 512.0]",horizontal,"(890.0, 762.0)",[0.8333333333333334],[0.506],1,3020.123
4,False,185,1.118,67,[],[],"[(1186, 855)]",[],[1],[35],[0.5833333333333334],"[640.0, 512.0]",vertical,"(390.0, 762.0)",[1.35],[0.544],1,3024.564
4,False,186,0.961,57,[],[],"[(1145, 852)]",[],[1],[32],[0.5333333333333333],"[640.0, 512.0]",vertical,"(390.0, 262.0)",[0.7833333333333333],[0.494],1,3029.602
4,False,187,0.88,52,[],[],"[(1190, 877)]",[],[1],[30],[0.5],"[640.0, 512.0]",vertical,"(890.0, 262.0)",[0.8166666666666667],[0.46],1,3034.496
4,False,188,0.574,34,[],[],"[(1190, 867)]",[],[1],[30],[0.5],"[640.0, 512.0]",horizontal,"(390.0, 262.0)",[1.55],[0.464],1,3038.587
4,False,189,0.655,39,[],[],"[(1196, 877)]",[],[1],[40],[0.6666666666666666],"[640.0, 512.0]",horizontal,"(390.0, 762.0)",[1.15],[0.617],1,3043.185
4,False,190,0.985,59,[],[],"[(1172, 873)]",[],[1],[31],[0.5166666666666666],"[640.0, 512.0]",vertical,"(890.0, 262.0)",[1.6833333333333333],[0.474],1,3047.59
4,False,191,0.76,45,[],[],"[(1196, 856)]",[],[1],[33],[0.55],"[640.0, 512.0]",horizontal,"(390.0, 262.0)",[0.75],[0.511],1,3052.609
4,False,192,0.589,35,[],[],"[(1178, 860)]",[],[1],[29],[0.48333333333333334],"[640.0, 512.0]",horizontal,"(390.0, 262.0)",[1.45],[0.452],1,3056.734
4,False,193,0.882,52,[],[],"[(1190, 864)]",[],[1],[],[],"[640.0, 512.0]",horizontal,"(390.0, 762.0)",[],[0],0,3061.368
4,False,194,1.198,71,[],[],"[(1183, 864)]",[],[1],[33],[0.55],"[640.0, 512.0]",vertical,"(390.0, 762.0)",[1.4833333333333334],[0.506],1,3065.003
4,False,195,0.762,45,[],[],"[(1176, 853)]",[],[1],[35],[0.5833333333333334],"[640.0, 512.0]",horizontal,"(390.0, 762.0)",[0.5333333333333333],[0.539],1,3070.155
4,False,196,0.552,33,[],[],"[(1171, 847)]",[],[1],[30],[0.5],"[640.0, 512.0]",horizontal,"(890.0, 262.0)",[1.4],[0.461],1,3073.919
4,False,197,0.962,57,[],[],"[(1178, 851)]",[],[1],[30],[0.5],"[640.0, 512.0]",horizontal,"(890.0, 262.0)",[1.2166666666666666],[0.464],1,3078.24
4,False,198,0.895,53,[],[],"[(1184, 860)]",[],[1],[33],[0.55],"[640.0, 512.0]",vertical,"(390.0, 262.0)",[0.75],[0.509],1,3082.941
4,False,199,0.781,46,[],[],"[(1174, 845)]",[],[1],[36],[0.6],"[640.0, 512.0]",vertical,"(890.0, 762.0)",[1.1833333333333333],[0.561],1,3087.119
4,False,200,1.123,67,[],[],"[(1172, 853)]",[],[1],[36],[0.6],"[640.0, 512.0]",vertical,"(390.0, 762.0)",[1.6666666666666667],[0.552],1,3091.684
4,False,201,0.889,53,[],[],"[(1180, 858)]",[],[1],[35],[0.5833333333333334],"[640.0, 512.0]",horizontal,"(890.0, 762.0)",[1.0],[0.543],1,3097.123
4,False,202,0.856,51,[],[],"[(1192, 865)]",[],[1],[33],[0.55],"[640.0, 512.0]",vertical,"(390.0, 762.0)",[1.2],[0.51],1,3101.486
4,False,203,0.669,40,[],[],"[(1166, 855)]",[],[1],[34],[0.5666666666666667],"[640.0, 512.0]",horizontal,"(390.0, 762.0)",[0.6166666666666667],[0.524],1,3106.102
4,False,204,1.192,71,[],[],"[(1196, 864)]",[],[1],[34],[0.5666666666666667],"[640.0, 512.0]",horizontal,"(890.0, 262.0)",[1.4666666666666666],[0.528],1,3109.868
4,False,205,0.761,45,[],[],"[(1184, 855)]",[],[1],[32],[0.5333333333333333],"[640.0, 512.0]",vertical,"(390.0, 262.0)",[0.7],[0.489],1,3114.989
4,False,206,0.59,35,[],[],"[(1184, 862)]",[],[1],[30],[0.5],"[640.0, 512.0]",horizontal,"(890.0, 262.0)",[0.5166666666666666],[0.464],1,3119.067
4,False,207,0.919,55,[],[],"[(1180, 864)]",[],[1],[37],[0.6166666666666667],"[640.0, 512.0]",horizontal,"(890.0, 762.0)",[0.9666666666666667],[0.577],1,3122.681
4,False,208,0.986,59,[],[],"[(1166, 871)]",[],[1],[34],[0.5666666666666667],"[640.0, 512.0]",horizontal,"(890.0, 762.0)",[0.5166666666666666],[0.523],1,3127.203
4,False,209,0.919,55,[],[],"[(1184, 861)]",[],[1],[34],[0.5666666666666667],"[640.0, 512.0]",vertical,"(390.0, 262.0)",[1.2333333333333334],[0.519],1,3131.321
4,False,210,0.558,33,[],[],"[(1209, 859)]",[],[1],[35],[0.5833333333333334],"[640.0, 512.0]",vertical,"(890.0, 762.0)",[1.4833333333333334],[0.537],1,3135.905
4,False,211,0.962,57,[],[],"[(1182, 841)]",[],[1],[35],[0.5833333333333334],"[640.0, 512.0]",vertical,"(890.0, 762.0)",[1.4333333333333333],[0.541],1,3140.598
4,False,212,0.634,38,[],[],"[(1194, 865)]",[],[1],[33],[0.55],"[640.0, 512.0]",vertical,"(890.0, 262.0)",[1.3333333333333333],[0.506],1,3145.552
4,False,213,1.198,71,[],[],"[(1177, 863)]",[],[1],[33],[0.55],"[640.0, 512.0]",horizontal,"(890.0, 762.0)",[0.9333333333333333],[0.506],1,3150.103
4,False,214,0.54,32,[],[],"[(1190, 850)]",[],[1],[38],[0.6333333333333333],"[640.0, 512.0]",vertical,"(890.0, 262.0)",[0.5666666666666667],[0.589],1,3154.816
4,False,215,1.093,65,[],[],"[(1178, 855)]",[],[1],[51],[0.85],"[640.0, 512.0]",vertical,"(390.0, 762.0)",[1.6],[0.8],0,3158.47
4,False,216,1.037,62,[],[],"[(1111, 839)]",[],[1],[35],[0.5833333333333334],"[640.0, 512.0]",vertical,"(890.0, 262.0)",[0.5833333333333334],[0.538],1,3164.104
4,False,217,0.693,41,[],[],"[(1177, 819)]",[],[1],[32],[0.5333333333333333],"[640.0, 512.0]",vertical,"(390.0, 262.0)",[0.6166666666666667],[0.495],1,3169.78
4,False,218,0.94,56,[],[],"[(1178, 846)]",[],[1],[36],[0.6],"[640.0, 512.0]",horizontal,"(390.0, 762.0)",[1.5666666666666667],[0.558],1,3173.664
4,False,219,0.804,48,[],[],"[(1181, 860)]",[],[1],[36],[0.6],"[640.0, 512.0]",vertical,"(390.0, 762.0)",[1.15],[0.559],1,3178.767
4,False,220,0.884,53,[],[],"[(1178, 846)]",[],[1],[36],[0.6],"[640.0, 512.0]",vertical,"(390.0, 762.0)",[0.6],[0.557],1,3183.254
4,False,221,0.527,31,[],[],"[(1166, 865)]",[],[1],[34],[0.5666666666666667],"[640.0, 512.0]",vertical,"(390.0, 762.0)",[1.15],[0.527],1,3187.291
4,False,222,0.618,37,[],[],"[(1184, 841)]",[],[1],[33],[0.55],"[640.0, 512.0]",horizontal,"(390.0, 262.0)",[0.8166666666666667],[0.505],1,3191.506
4,False,223,1.196,71,[],[],"[(1166, 848)]",[],[1],[35],[0.5833333333333334],"[640.0, 512.0]",vertical,"(890.0, 262.0)",[1.3833333333333333],[0.54],1,3195.441
4,False,224,0.665,39,[],[],"[(1181, 840)]",[],[1],[35],[0.5833333333333334],"[640.0, 512.0]",vertical,"(390.0, 762.0)",[1.5166666666666666],[0.541],1,3200.618
4,False,225,0.878,52,[],[],"[(1173, 842)]",[],[1],[32],[0.5333333333333333],"[640.0, 512.0]",horizontal,"(890.0, 262.0)",[1.05],[0.493],1,3205.498
4,False,226,1.024,61,[],[],"[(1190, 842)]",[],[1],[32],[0.5333333333333333],"[640.0, 512.0]",horizontal,"(890.0, 262.0)",[1.65],[0.493],1,3209.872
4,False,227,0.506,30,[],[],"[(1190, 836)]",[],[1],[34],[0.5666666666666667],"[640.0, 512.0]",vertical,"(890.0, 262.0)",[0.75],[0.535],1,3215.738
4,False,228,0.578,34,[],[],"[(1177, 848)]",[],[1],[35],[0.5833333333333334],"[640.0, 512.0]",horizontal,"(390.0, 762.0)",[0.7],[0.54],1,3219.425
4,False,229,1.126,67,[],[],"[(1178, 846)]",[],[1],[],[],"[640.0, 512.0]",horizontal,"(890.0, 262.0)",[],[0],0,3223.224
4,False,230,0.913,54,[],[],"[(1124, 893)]",[],[1],[51],[0.85],"[640.0, 512.0]",vertical,"(890.0, 762.0)",[0.6166666666666667],[0.803],0,3227.556
4,False,231,1.147,68,[],[],"[(653, 612), (1197, 889)]",[],"[0, 1]",[29],[0.48333333333333334],"[640.0, 512.0]",horizontal,"(390.0, 262.0)",[0.6833333333333333],[0.444],1,3397.108
4,False,232,0.697,41,[],[],"[(1188, 842)]",[],[1],[33],[0.55],"[640.0, 512.0]",vertical,"(890.0, 262.0)",[0.6666666666666666],[0.513],1,3448.318
4,False,233,0.855,51,[],[],"[(1187, 875)]",[],[1],[33],[0.55],"[640.0, 512.0]",horizontal,"(390.0, 762.0)",[0.5166666666666666],[0.513],1,3452.306
4,False,234,1.151,69,[],[],"[(1190, 889)]",[],[1],[33],[0.55],"[640.0, 512.0]",vertical,"(890.0, 762.0)",[0.6666666666666666],[0.513],1,3456.203
4,False,235,1.087,65,[],[],"[(1187, 889)]",[],[1],[33],[0.55],"[640.0, 512.0]",vertical,"(390.0, 262.0)",[0.8666666666666667],[0.509],1,3460.723
4,False,236,0.513,30,[],[],"[(1155, 847)]",[],[1],[33],[0.55],"[640.0, 512.0]",horizontal,"(390.0, 262.0)",[1.0333333333333332],[0.514],1,3465.138
4,False,237,1.159,69,[],[],"[(1214, 860)]",[],[1],[33],[0.55],"[640.0, 512.0]",vertical,"(390.0, 762.0)",[1.0166666666666666],[0.507],1,3470.088
4,False,238,1.12,67,[],[],"[(1177, 868)]",[],[1],[34],[0.5666666666666667],"[640.0, 512.0]",vertical,"(390.0, 762.0)",[0.95],[0.535],1,3474.819
4,False,239,0.952,57,[],[],"[(1183, 859)]",[],[1],[37],[0.6166666666666667],"[640.0, 512.0]",vertical,"(890.0, 762.0)",[0.8833333333333333],[0.575],1,3479.593
4,False,240,0.769,46,[],[],"[(1170, 879)]",[],[1],[30],[0.5],"[640.0, 512.0]",vertical,"(890.0, 262.0)",[1.6833333333333333],[0.471],1,3483.951
5,False,241,0.856,51,[],[],"[(1184, 847)]",[],[1],[34],[0.5666666666666667],"[640.0, 512.0]",horizontal,"(390.0, 762.0)",[1.05],[0.525],1,3561.839
5,False,242,0.697,41,[],[],"[(1190, 870)]",[],[1],[35],[0.5833333333333334],"[640.0, 512.0]",horizontal,"(890.0, 762.0)",[1.5666666666666667],[0.546],1,3566.224
5,False,243,0.518,31,[],[],"[(1194, 860)]",[],[1],[31],[0.5166666666666666],"[640.0, 512.0]",horizontal,"(890.0, 262.0)",[1.1666666666666667],[0.476],1,3570.955
5,False,244,0.658,39,[],[],"[(1192, 870)]",[],[1],[40],[0.6666666666666666],"[640.0, 512.0]",vertical,"(390.0, 762.0)",[1.2666666666666666],[0.622],1,3575.037
5,False,245,0.691,41,[],[],"[(1198, 877)]",[],[1],[36],[0.6],"[640.0, 512.0]",horizontal,"(890.0, 262.0)",[0.5833333333333334],[0.558],1,3579.621
5,False,246,0.891,53,[],[],"[(1190, 857)]",[],[1],[35],[0.5833333333333334],"[640.0, 512.0]",horizontal,"(890.0, 262.0)",[1.3666666666666667],[0.536],1,3583.504
5,False,247,0.725,43,[],[],"[(1186, 866)]",[],[1],[34],[0.5666666666666667],"[640.0, 512.0]",vertical,"(890.0, 762.0)",[0.5],[0.523],1,3588.458
5,False,248,1.186,71,[],[],"[(1190, 864)]",[],[1],[35],[0.5833333333333334],"[640.0, 512.0]",horizontal,"(390.0, 762.0)",[1.4166666666666667],[0.541],1,3592.257
5,False,249,0.826,49,[],[],"[(1184, 855)]",[],[1],[33],[0.55],"[640.0, 512.0]",horizontal,"(890.0, 262.0)",[0.7333333333333333],[0.508],1,3597.524
5,False,250,0.665,39,[],[],"[(1188, 873)]",[],[1],[33],[0.55],"[640.0, 512.0]",horizontal,"(390.0, 762.0)",[1.3833333333333333],[0.509],1,3601.591
5,False,251,0.665,39,[],[],"[(1157, 884)]",[],[1],[30],[0.5],"[640.0, 512.0]",horizontal,"(890.0, 262.0)",[1.4833333333333334],[0.456],1,3606.175
5,False,252,1.183,70,[],[],"[(1184, 859)]",[],[1],[51],[0.85],"[640.0, 512.0]",vertical,"(390.0, 762.0)",[1.05],[0.806],0,3611.27
5,False,253,0.861,51,[],[],"[(1200, 869)]",[],[1],[37],[0.6166666666666667],"[640.0, 512.0]",horizontal,"(890.0, 762.0)",[0.7166666666666667],[0.576],1,3616.369
5,False,254,0.52,31,[],[],"[(1226, 860)]",[],[1],[33],[0.55],"[640.0, 512.0]",horizontal,"(390.0, 262.0)",[1.5333333333333332],[0.512],1,3620.613
5,False,255,0.781,46,[],[],"[(1183, 875)]",[],[1],[43],[0.7166666666666667],"[640.0, 512.0]",vertical,"(890.0, 262.0)",[0.75],[0.675],1,3625.2
5,False,256,1.101,66,[],[],"[(1226, 871)]",[],[1],[51],[0.85],"[640.0, 512.0]",vertical,"(390.0, 262.0)",[1.3833333333333333],[0.798],0,3629.492
5,False,257,0.707,42,[],[],"[(1125, 835)]",[],[1],[34],[0.5666666666666667],"[640.0, 512.0]",vertical,"(890.0, 762.0)",[0.9666666666666667],[0.527],1,3634.854
5,False,258,1.135,68,[],[],"[(1188, 851)]",[],[1],[36],[0.6],"[640.0, 512.0]",vertical,"(390.0, 762.0)",[1.5333333333333332],[0.565],1,3639.641
5,False,259,1.02,61,[],[],"[(1129, 841)]",[],[1],[51],[0.85],"[640.0, 512.0]",horizontal,"(390.0, 262.0)",[0.95],[0.798],0,3644.857
5,False,260,1.054,63,[],[],"[(1153, 842)]",[],[1],[35],[0.5833333333333334],"[640.0, 512.0]",vertical,"(890.0, 762.0)",[1.1166666666666667],[0.543],1,3649.61
5,False,261,0.65,39,[],[],"[(1215, 839)]",[],[1],[32],[0.5333333333333333],"[640.0, 512.0]",horizontal,"(890.0, 262.0)",[1.3],[0.494],1,3656.956
5,False,262,0.552,33,[],[],"[(1174, 875)]",[],[1],[34],[0.5666666666666667],"[640.0, 512.0]",vertical,"(390.0, 762.0)",[1.2],[0.525],1,3661.503
5,False,263,0.714,42,[],[],"[(1215, 865)]",[],[1],[41],[0.6833333333333333],"[640.0, 512.0]",horizontal,"(390.0, 762.0)",[0.9166666666666666],[0.64],1,3666.044
5,False,264,0.556,33,[],[],"[(1203, 850)]",[],[1],[33],[0.55],"[640.0, 512.0]",horizontal,"(890.0, 262.0)",[0.6333333333333333],[0.508],1,3670.342
5,False,265,1.049,62,[],[],"[(1190, 860)]",[],[1],[33],[0.55],"[640.0, 512.0]",horizontal,"(890.0, 262.0)",[1.65],[0.506],1,3674.09
5,False,266,1.196,71,[],[],"[(1193, 855)]",[],[1],[34],[0.5666666666666667],"[640.0, 512.0]",horizontal,"(890.0, 762.0)",[0.8],[0.53],1,3679.379
5,False,267,0.667,40,[],[],"[(1134, 882)]",[],[1],[32],[0.5333333333333333],"[640.0, 512.0]",vertical,"(390.0, 262.0)",[0.85],[0.491],1,3684.037
5,False,268,0.823,49,[],[],"[(1183, 865)]",[],[1],[31],[0.5166666666666666],"[640.0, 512.0]",vertical,"(890.0, 262.0)",[1.4333333333333333],[0.478],1,3688.323
5,False,269,0.52,31,[],[],"[(1160, 860)]",[],[1],[34],[0.5666666666666667],"[640.0, 512.0]",vertical,"(890.0, 262.0)",[0.5833333333333334],[0.526],1,3693.009
5,False,270,0.648,38,[],[],"[(1210, 876)]",[],[1],[33],[0.55],"[640.0, 512.0]",horizontal,"(390.0, 762.0)",[0.6166666666666667],[0.509],1,3696.722
5,False,271,1.065,63,[],[],"[(1168, 854)]",[],[1],[38],[0.6333333333333333],"[640.0, 512.0]",horizontal,"(390.0, 262.0)",[0.7666666666666666],[0.584],1,3700.39
5,False,272,1.153,69,[],[],"[(1213, 850)]",[],[1],[33],[0.55],"[640.0, 512.0]",horizontal,"(890.0, 762.0)",[0.5666666666666667],[0.506],1,3704.784
5,False,273,1.154,69,[],[],"[(1207, 838)]",[],[1],[34],[0.5666666666666667],"[640.0, 512.0]",horizontal,"(390.0, 262.0)",[0.6333333333333333],[0.523],1,3709.007
5,False,274,0.673,40,[],[],"[(1101, 879)]",[],[1],[32],[0.5333333333333333],"[640.0, 512.0]",vertical,"(390.0, 762.0)",[1.6333333333333333],[0.489],1,3713.305
5,False,275,0.722,43,[],[],"[(1192, 864)]",[],[1],[33],[0.55],"[640.0, 512.0]",vertical,"(390.0, 262.0)",[1.5666666666666667],[0.501],1,3718.892
5,False,276,0.68,40,[],[],"[(1219, 850)]",[],[1],[34],[0.5666666666666667],"[640.0, 512.0]",vertical,"(390.0, 262.0)",[1.5666666666666667],[0.522],1,3723.908
5,False,277,0.924,55,[],[],"[(1190, 862)]",[],[1],[32],[0.5333333333333333],"[640.0, 512.0]",vertical,"(890.0, 262.0)",[0.6333333333333333],[0.494],1,3728.743
5,False,278,1.124,67,[],[],"[(1200, 850)]",[],[1],[36],[0.6],"[640.0, 512.0]",horizontal,"(390.0, 762.0)",[0.5166666666666666],[0.556],1,3732.789
5,False,279,0.911,54,[],[],"[(1192, 860)]",[],[1],[35],[0.5833333333333334],"[640.0, 512.0]",vertical,"(390.0, 262.0)",[0.5666666666666667],[0.546],1,3736.907
5,False,280,0.939,56,[],[],"[(1192, 851)]",[],[1],[37],[0.6166666666666667],"[640.0, 512.0]",horizontal,"(390.0, 762.0)",[0.8],[0.576],1,3740.938
5,False,281,1.002,60,[],[],"[(1160, 879)]",[],[1],[44],[0.7333333333333333],"[640.0, 512.0]",horizontal,"(890.0, 762.0)",[0.7166666666666667],[0.685],1,3745.305
5,False,282,0.549,32,[],[],"[(1166, 846)]",[],[1],[36],[0.6],"[640.0, 512.0]",horizontal,"(890.0, 262.0)",[0.8],[0.557],1,3751.8
5,False,283,1.177,70,[],[],"[(1166, 869)]",[],[1],[37],[0.6166666666666667],"[640.0, 512.0]",vertical,"(390.0, 762.0)",[1.4333333333333333],[0.573],1,3757.932
5,False,284,0.798,47,[],[],"[(1150, 843)]",[],[1],[35],[0.5833333333333334],"[640.0, 512.0]",horizontal,"(390.0, 762.0)",[0.95],[0.541],1,3763.05
5,False,285,0.954,57,[],[],"[(1166, 877)]",[],[1],[31],[0.5166666666666666],"[640.0, 512.0]",horizontal,"(890.0, 262.0)",[0.5666666666666667],[0.475],1,3767.324
5,False,286,1.055,63,[],[],"[(1200, 858)]",[],[1],[34],[0.5666666666666667],"[640.0, 512.0]",vertical,"(390.0, 762.0)",[1.55],[0.528],1,3771.279
5,False,287,0.678,40,[],[],"[(1188, 860)]",[],[1],[35],[0.5833333333333334],"[640.0, 512.0]",vertical,"(390.0, 762.0)",[1.0833333333333333],[0.537],1,3776.301
5,False,288,1.171,70,[],[],"[(1206, 841)]",[],[1],[46],[0.7666666666666666],"[640.0, 512.0]",vertical,"(390.0, 762.0)",[0.7666666666666666],[0.718],1,3780.782
5,False,289,1.061,63,[],[],"[(1189, 846)]",[],[1],[37],[0.6166666666666667],"[640.0, 512.0]",horizontal,"(890.0, 262.0)",[0.6],[0.568],1,3785.453
5,False,290,0.862,51,[],[],"[(1220, 846)]",[],[1],[35],[0.5833333333333334],"[640.0, 512.0]",vertical,"(390.0, 762.0)",[0.9833333333333333],[0.539],1,3789.865
5,False,291,0.687,41,[],[],"[(1190, 846)]",[],[1],[32],[0.5333333333333333],"[640.0, 512.0]",horizontal,"(390.0, 262.0)",[0.8833333333333333],[0.491],1,3794.283
5,False,292,0.576,34,[],[],"[(1188, 841)]",[],[1],[35],[0.5833333333333334],"[640.0, 512.0]",vertical,"(390.0, 262.0)",[0.5666666666666667],[0.557],1,3798.409
5,False,293,0.737,44,[],[],"[(1233, 839), (1196, 854)]",[],"[0, 1]",[32],[0.5333333333333333],"[640.0, 512.0]",vertical,"(890.0, 262.0)",[0.9166666666666666],[0.493],1,3802.359
5,False,294,0.745,44,[],[],"[(1196, 858)]",[],[1],[32],[0.5333333333333333],"[640.0, 512.0]",vertical,"(390.0, 762.0)",[0.85],[0.495],1,3808.072
5,False,295,0.865,51,[],[],"[(1201, 844)]",[],[1],[35],[0.5833333333333334],"[640.0, 512.0]",vertical,"(890.0, 262.0)",[0.7166666666666667],[0.538],1,3812.118
5,False,296,1.071,64,[],[],"[(1215, 850)]",[],[1],[38],[0.6333333333333333],"[640.0, 512.0]",vertical,"(390.0, 262.0)",[1.2833333333333332],[0.592],1,3816.302
5,False,297,0.593,35,[],[],"[(1207, 860)]",[],[1],[35],[0.5833333333333334],"[640.0, 512.0]",horizontal,"(890.0, 762.0)",[1.4166666666666667],[0.538],1,3821.212
5,False,298,0.824,49,[],[],"[(1166, 860)]",[],[1],[32],[0.5333333333333333],"[640.0, 512.0]",horizontal,"(890.0, 262.0)",[1.3666666666666667],[0.493],1,3825.687
5,False,299,0.864,51,[],[],"[(1188, 857)]",[],[1],[38],[0.6333333333333333],"[640.0, 512.0]",vertical,"(390.0, 262.0)",[1.1666666666666667],[0.589],1,3830.363
5,False,300,1.009,60,[],[],"[(1239, 846), (1190, 850)]",[],"[0, 1]",[34],[0.5666666666666667],"[640.0, 512.0]",horizontal,"(890.0, 762.0)",[0.5166666666666666],[0.525],1,3834.875
6,False,301,1.02,61,[],[],"[(1196, 870)]",[],[1],[40],[0.6666666666666666],"[640.0, 512.0]",horizontal,"(890.0, 262.0)",[1.6333333333333333],[0.624],1,3840.49
6,False,302,0.823,49,[],[],"[(1190, 850)]",[],[1],[35],[0.5833333333333334],"[640.0, 512.0]",vertical,"(390.0, 762.0)",[0.5166666666666666],[0.542],1,3845.871
6,False,303,1.113,66,[],[],"[(1153, 831)]",[],[1],[17],[0.2833333333333333],"[640.0, 512.0]",vertical,"(890.0, 262.0)",[1.05],[0.247],1,3849.731
6,False,304,0.709,42,[],[],"[(1206, 837)]",[],[1],[34],[0.5666666666666667],"[640.0, 512.0]",horizontal,"(390.0, 762.0)",[1.6],[0.52],1,3854.118
6,False,305,1.099,65,[],[],"[(1178, 863)]",[],[1],[],[],"[640.0, 512.0]",horizontal,"(390.0, 262.0)",[],[0],0,3858.943
6,False,306,1.065,63,[],[],"[(1157, 817)]",[],[1],[33],[0.55],"[640.0, 512.0]",vertical,"(890.0, 262.0)",[1.2],[0.509],1,3863.544
6,False,307,1.061,63,[],[],"[(1196, 855)]",[],[1],[43],[0.7166666666666667],"[640.0, 512.0]",horizontal,"(890.0, 262.0)",[0.8166666666666667],[0.672],1,3868.743
6,False,308,1.065,63,[],[],"[(1196, 852)]",[],[1],[38],[0.6333333333333333],"[640.0, 512.0]",horizontal,"(890.0, 762.0)",[0.95],[0.59],1,3873.296
6,False,309,0.972,58,[],[],"[(1221, 849)]",[],[1],[39],[0.65],"[640.0, 512.0]",vertical,"(890.0, 262.0)",[0.6833333333333333],[0.612],1,3877.826
6,False,310,1.153,69,[],[],"[(1188, 865)]",[],[1],[36],[0.6],"[640.0, 512.0]",horizontal,"(390.0, 262.0)",[0.8166666666666667],[0.549],1,3882.102
6,False,311,0.521,31,[],[],"[(1196, 844)]",[],[1],[36],[0.6],"[640.0, 512.0]",vertical,"(390.0, 762.0)",[0.8333333333333334],[0.554],1,3886.503
6,False,312,0.859,51,[],[],"[(1221, 863)]",[],[1],[37],[0.6166666666666667],"[640.0, 512.0]",vertical,"(890.0, 762.0)",[0.8],[0.576],1,3890.589
6,False,313,1.2,72,[],[],"[(1166, 850)]",[],[1],[32],[0.5333333333333333],"[640.0, 512.0]",horizontal,"(390.0, 262.0)",[0.9],[0.49],1,3894.939
6,False,314,0.795,47,[],[],"[(1190, 848)]",[],[1],[38],[0.6333333333333333],"[640.0, 512.0]",vertical,"(890.0, 262.0)",[1.3666666666666667],[0.59],1,3899.641
6,False,315,0.971,58,[],[],"[(1196, 875)]",[],[1],[42],[0.7],"[640.0, 512.0]",horizontal,"(390.0, 762.0)",[1.4],[0.651],1,3904.312
6,False,316,0.973,58,[],[],"[(1166, 855)]",[],[1],[33],[0.55],"[640.0, 512.0]",horizontal,"(890.0, 262.0)",[0.65],[0.512],1,3909.387
6,False,317,1.004,60,[],[],"[(1208, 858)]",[],[1],[36],[0.6],"[640.0, 512.0]",horizontal,"(890.0, 262.0)",[1.15],[0.558],1,3913.61
6,False,318,0.587,35,[],[],"[(1221, 879)]",[],[1],[34],[0.5666666666666667],"[640.0, 512.0]",vertical,"(890.0, 262.0)",[0.8666666666666667],[0.536],1,3918.359
6,False,319,1.16,69,[],[],"[(1178, 853)]",[],[1],[35],[0.5833333333333334],"[640.0, 512.0]",horizontal,"(390.0, 762.0)",[0.6666666666666666],[0.536],1,3922.385
6,False,320,1.179,70,[],[],"[(1184, 869)]",[],[1],[37],[0.6166666666666667],"[640.0, 512.0]",vertical,"(390.0, 762.0)",[0.8333333333333334],[0.573],1,3926.675
6,False,321,0.934,56,[],[],"[(1172, 837)]",[],[1],[35],[0.5833333333333334],"[640.0, 512.0]",horizontal,"(890.0, 762.0)",[1.2333333333333334],[0.542],1,3931.229
6,False,322,0.837,50,[],[],"[(1135, 841)]",[],[1],[34],[0.5666666666666667],"[640.0, 512.0]",horizontal,"(890.0, 762.0)",[1.6333333333333333],[0.525],1,3935.912
6,False,323,0.832,49,[],[],"[(1156, 860)]",[],[1],[37],[0.6166666666666667],"[640.0, 512.0]",horizontal,"(890.0, 762.0)",[1.1],[0.572],1,3940.974
6,False,324,1.121,67,[],[],"[(1187, 850)]",[],[1],[37],[0.6166666666666667],"[640.0, 512.0]",horizontal,"(890.0, 762.0)",[1.1666666666666667],[0.573],1,3945.462
6,False,325,0.706,42,[],[],"[(1196, 852)]",[],[1],[36],[0.6],"[640.0, 512.0]",horizontal,"(890.0, 762.0)",[1.6333333333333333],[0.561],1,3950.326
6,False,326,0.705,42,[],[],"[(1196, 847)]",[],[1],[33],[0.55],"[640.0, 512.0]",vertical,"(390.0, 262.0)",[0.8666666666666667],[0.509],1,3955.357
6,False,327,0.608,36,[],[],"[(1188, 860)]",[],[1],[33],[0.55],"[640.0, 512.0]",horizontal,"(390.0, 762.0)",[0.7833333333333333],[0.512],1,3959.423
6,False,328,0.692,41,[],[],"[(1190, 874)]",[],[1],[34],[0.5666666666666667],"[640.0, 512.0]",horizontal,"(390.0, 762.0)",[0.55],[0.523],1,3963.213
6,False,329,0.623,37,[],[],"[(1173, 858)]",[],[1],[34],[0.5666666666666667],"[640.0, 512.0]",horizontal,"(390.0, 262.0)",[1.1833333333333333],[0.526],1,3967.059
6,False,330,1.054,63,[],[],"[(1175, 863)]",[],[1],[35],[0.5833333333333334],"[640.0, 512.0]",vertical,"(890.0, 262.0)",[0.5],[0.541],1,3971.535
6,False,331,0.79,47,[],[],"[(1172, 863)]",[],[1],[35],[0.5833333333333334],"[640.0, 512.0]",vertical,"(390.0, 762.0)",[1.1333333333333333],[0.542],1,3975.674
6,False,332,0.962,57,[],[],"[(1184, 850)]",[],[1],[33],[0.55],"[640.0, 512.0]",vertical,"(390.0, 262.0)",[1.6666666666666667],[0.508],1,3980.092
6,False,333,0.567,34,[],[],"[(1166, 861)]",[],[1],[42],[0.7],"[640.0, 512.0]",vertical,"(890.0, 262.0)",[1.4166666666666667],[0.655],1,3985.287
6,False,334,0.65,39,[],[],"[(1187, 846)]",[],[1],[32],[0.5333333333333333],"[640.0, 512.0]",vertical,"(890.0, 262.0)",[1.5666666666666667],[0.489],1,3989.893
6,False,335,1.132,67,[],[],"[(1162, 849)]",[],[1],[34],[0.5666666666666667],"[640.0, 512.0]",horizontal,"(890.0, 762.0)",[1.0833333333333333],[0.524],1,3994.705
6,False,336,0.508,30,[],[],"[(1196, 872)]",[],[1],[32],[0.5333333333333333],"[640.0, 512.0]",horizontal,"(890.0, 262.0)",[1.1833333333333333],[0.492],1,3999.409
6,False,337,0.581,34,[],[],"[(1190, 859)]",[],[1],[35],[0.5833333333333334],"[640.0, 512.0]",vertical,"(390.0, 262.0)",[1.0666666666666667],[0.539],1,4003.57
6,False,338,0.636,38,[],[],"[(1223, 843)]",[],[1],[34],[0.5666666666666667],"[640.0, 512.0]",vertical,"(390.0, 262.0)",[0.7166666666666667],[0.527],1,4007.653
6,False,339,0.67,40,[],[],"[(1216, 863)]",[],[1],[33],[0.55],"[640.0, 512.0]",vertical,"(390.0, 762.0)",[1.6666666666666667],[0.508],1,4011.651
6,False,340,0.537,32,[],[],"[(1136, 865)]",[],[1],[41],[0.6833333333333333],"[640.0, 512.0]",horizontal,"(890.0, 262.0)",[1.2666666666666666],[0.633],1,4016.609
6,False,341,0.691,41,[],[],"[(1196, 844)]",[],[1],[38],[0.6333333333333333],"[640.0, 512.0]",vertical,"(390.0, 262.0)",[1.4166666666666667],[0.585],1,4078.094
6,False,342,0.783,46,[],[],"[(1192, 855)]",[],[1],[37],[0.6166666666666667],"[640.0, 512.0]",vertical,"(890.0, 262.0)",[1.2333333333333334],[0.571],1,4082.83
6,False,343,0.715,42,[],[],"[(1195, 865)]",[],[1],[35],[0.5833333333333334],"[640.0, 512.0]",horizontal,"(890.0, 262.0)",[0.5833333333333334],[0.542],1,4087.409
6,False,344,0.52,31,[],[],"[(1160, 871)]",[],[1],[34],[0.5666666666666667],"[640.0, 512.0]",vertical,"(890.0, 262.0)",[1.45],[0.523],1,4091.206
6,False,345,1.114,66,[],[],"[(1148, 870)]",[],[1],[36],[0.6],"[640.0, 512.0]",vertical,"(890.0, 762.0)",[1.6666666666666667],[0.561],1,4095.594
6,False,346,0.838,50,[],[],"[(1221, 855)]",[],[1],[33],[0.55],"[640.0, 512.0]",horizontal,"(390.0, 262.0)",[1.1],[0.508],1,4100.85
6,False,347,0.731,43,[],[],"[(1121, 880)]",[],[1],[37],[0.6166666666666667],"[640.0, 512.0]",vertical,"(390.0, 262.0)",[0.8666666666666667],[0.578],1,4105.273
6,False,348,0.871,52,[],[],"[(1174, 870)]",[],[1],[34],[0.5666666666666667],"[640.0, 512.0]",vertical,"(390.0, 262.0)",[1.65],[0.527],1,4109.396
6,False,349,0.716,42,[],[],"[(1157, 857)]",[],[1],[38],[0.6333333333333333],"[640.0, 512.0]",vertical,"(390.0, 262.0)",[1.4166666666666667],[0.592],1,4114.324
6,False,350,1.045,62,[],[],"[(1166, 865)]",[],[1],[46],[0.7666666666666666],"[640.0, 512.0]",horizontal,"(390.0, 262.0)",[0.7],[0.726],1,4119.107
6,False,351,1.127,67,[],[],"[(1198, 859)]",[],[1],[33],[0.55],"[640.0, 512.0]",vertical,"(890.0, 262.0)",[1.6166666666666667],[0.511],1,4123.771
6,False,352,1.035,62,[],[],"[(1181, 884)]",[],[1],[34],[0.5666666666666667],"[640.0, 512.0]",horizontal,"(890.0, 262.0)",[1.3666666666666667],[0.526],1,4129.1
6,False,353,0.621,37,[],[],"[(1196, 865)]",[],[1],[35],[0.5833333333333334],"[640.0, 512.0]",horizontal,"(890.0, 762.0)",[0.8166666666666667],[0.543],1,4134.059
6,False,354,0.713,42,[],[],"[(1221, 852)]",[],[1],[41],[0.6833333333333333],"[640.0, 512.0]",horizontal,"(390.0, 262.0)",[1.1666666666666667],[0.649],1,4137.989
6,False,355,0.58,34,[],[],"[(1215, 865)]",[],[1],[38],[0.6333333333333333],"[640.0, 512.0]",horizontal,"(890.0, 262.0)",[1.3],[0.596],1,4142.551
6,False,356,0.792,47,[],[],"[(1148, 860)]",[],[1],[32],[0.5333333333333333],"[640.0, 512.0]",vertical,"(890.0, 262.0)",[0.6333333333333333],[0.493],1,4147.047
6,False,357,0.91,54,[],[],"[(1208, 838)]",[],[1],[41],[0.6833333333333333],"[640.0, 512.0]",vertical,"(390.0, 762.0)",[1.0],[0.641],1,4150.861
6,False,358,1.187,71,[],[],"[(1161, 885)]",[],[1],[37],[0.6166666666666667],"[640.0, 512.0]",horizontal,"(890.0, 762.0)",[1.4333333333333333],[0.578],1,4155.372
6,False,359,1.148,68,[],[],"[(1196, 850)]",[],[1],[37],[0.6166666666666667],"[640.0, 512.0]",vertical,"(890.0, 762.0)",[1.1],[0.579],1,4160.62
6,False,360,0.844,50,[],[],"[(1196, 848)]",[],[1],[35],[0.5833333333333334],"[640.0, 512.0]",vertical,"(390.0, 762.0)",[1.3166666666666667],[0.543],1,4165.454
7,False,361,0.966,57,[],[],"[(852, 890), (1165, 901)]",[],"[0, 1]",[51],[0.85],"[640.0, 512.0]",vertical,"(390.0, 762.0)",[1.35],[0.806],0,4170.155
7,False,362,0.506,30,[],[],"[(1174, 867)]",[],[1],[19],[0.31666666666666665],"[640.0, 512.0]",horizontal,"(390.0, 762.0)",[0.9666666666666667],[0.282],1,7351.464
7,False,363,0.965,57,[],[],"[(208, 298), (519, 130), (403, 439), (911, 730), (934, 212), (343, 759), (1195, 892)]",[],"[0, 0, 0, 0, 0, 0, 1]",[35],[0.5833333333333334],"[640.0, 512.0]",horizontal,"(390.0, 762.0)",[0.8833333333333333],[0.544],1,8999.741
7,False,364,1.19,71,[],[],"[(1174, 863)]",[],[1],[32],[0.5333333333333333],"[640.0, 512.0]",horizontal,"(390.0, 262.0)",[1.6],[0.489],1,10672.375
7,False,365,0.556,33,[],[],"[(1196, 865)]",[],[1],[31],[0.5166666666666666],"[640.0, 512.0]",vertical,"(390.0, 262.0)",[1.6666666666666667],[0.477],1,10677.602
7,False,366,0.599,35,[],[],"[(1189, 847)]",[],[1],[34],[0.5666666666666667],"[640.0, 512.0]",horizontal,"(890.0, 262.0)",[1.0666666666666667],[0.527],1,10682.194
7,False,367,0.562,33,[],[],"[(1172, 875)]",[],[1],[43],[0.7166666666666667],"[640.0, 512.0]",vertical,"(890.0, 762.0)",[0.7],[0.671],1,10686.377
7,False,368,0.771,46,[],[],"[(1197, 859)]",[],[1],[33],[0.55],"[640.0, 512.0]",horizontal,"(390.0, 762.0)",[1.2166666666666666],[0.514],1,10690.11
7,False,369,1.132,67,[],[],"[(1177, 861)]",[],[1],[],[],"[640.0, 512.0]",vertical,"(390.0, 262.0)",[],[0],0,10694.522
7,False,370,0.809,48,[],[],"[(1160, 872)]",[],[1],[34],[0.5666666666666667],"[640.0, 512.0]",horizontal,"(890.0, 762.0)",[1.4333333333333333],[0.536],1,10698.353
7,False,371,1.017,61,[],[],"[(1203, 890)]",[],[1],[33],[0.55],"[640.0, 512.0]",vertical,"(390.0, 762.0)",[1.5666666666666667],[0.511],1,10703.205
7,False,372,0.916,54,[],[],"[(1208, 860)]",[],[1],[40],[0.6666666666666666],"[640.0, 512.0]",horizontal,"(390.0, 762.0)",[0.7666666666666666],[0.62],1,10708.231
7,False,373,0.824,49,[],[],"[(1194, 865)]",[],[1],[34],[0.5666666666666667],"[640.0, 512.0]",vertical,"(890.0, 762.0)",[1.1666666666666667],[0.524],1,10712.504
7,False,374,0.622,37,[],[],"[(1206, 877)]",[],[1],[31],[0.5166666666666666],"[640.0, 512.0]",vertical,"(890.0, 262.0)",[1.15],[0.475],1,10716.9
7,False,375,0.554,33,[],[],"[(1185, 865)]",[],[1],[32],[0.5333333333333333],"[640.0, 512.0]",vertical,"(890.0, 262.0)",[0.7],[0.492],1,10721.008
7,False,376,0.529,31,[],[],"[(1192, 869)]",[],[1],[41],[0.6833333333333333],"[640.0, 512.0]",vertical,"(890.0, 262.0)",[1.4666666666666666],[0.644],1,10724.658
7,False,377,1.082,64,[],[],"[(1167, 871)]",[],[1],[36],[0.6],"[640.0, 512.0]",vertical,"(390.0, 762.0)",[1.3833333333333333],[0.558],1,10729.304
7,False,378,0.809,48,[],[],"[(1111, 834)]",[],[1],[34],[0.5666666666666667],"[640.0, 512.0]",vertical,"(390.0, 762.0)",[0.9666666666666667],[0.528],1,10734.256
7,False,379,1.078,64,[],[],"[(1184, 858)]",[],[1],[33],[0.55],"[640.0, 512.0]",horizontal,"(390.0, 262.0)",[0.6833333333333333],[0.506],1,10738.845
7,False,380,0.504,30,[],[],"[(1192, 867)]",[],[1],[35],[0.5833333333333334],"[640.0, 512.0]",vertical,"(890.0, 262.0)",[1.1166666666666667],[0.546],1,10743.166
7,False,381,0.941,56,[],[],"[(1172, 871)]",[],[1],[37],[0.6166666666666667],"[640.0, 512.0]",horizontal,"(890.0, 762.0)",[1.5],[0.569],1,10747.269
7,False,382,0.984,59,[],[],"[(1201, 859)]",[],[1],[31],[0.5166666666666666],"[640.0, 512.0]",vertical,"(390.0, 762.0)",[1.0833333333333333],[0.479],1,10752.149
7,False,383,1.113,66,[],[],"[(1188, 879)]",[],[1],[31],[0.5166666666666666],"[640.0, 512.0]",horizontal,"(390.0, 262.0)",[1.5],[0.474],1,10756.612
7,False,384,0.971,58,[],[],"[(1190, 856)]",[],[1],[33],[0.55],"[640.0, 512.0]",horizontal,"(390.0, 762.0)",[1.0833333333333333],[0.512],1,10761.689
7,False,385,1.186,71,[],[],"[(1198, 841)]",[],[1],[32],[0.5333333333333333],"[640.0, 512.0]",vertical,"(890.0, 262.0)",[1.2333333333333334],[0.497],1,10766.211
7,False,386,0.962,57,[],[],"[(1185, 859)]",[],[1],[33],[0.55],"[640.0, 512.0]",horizontal,"(890.0, 762.0)",[1.6166666666666667],[0.503],1,10771.089
7,False,387,0.752,45,[],[],"[(1192, 865)]",[],[1],[41],[0.6833333333333333],"[640.0, 512.0]",horizontal,"(390.0, 262.0)",[0.5],[0.643],1,10776.118
7,False,388,0.587,35,[],[],"[(1191, 868)]",[],[1],[30],[0.5],"[640.0, 512.0]",horizontal,"(890.0, 262.0)",[1.55],[0.459],1,10780.021
7,False,389,1.108,66,[],[],"[(1178, 869)]",[],[1],[34],[0.5666666666666667],"[640.0, 512.0]",horizontal,"(890.0, 762.0)",[1.4666666666666666],[0.528],1,10784.508
7,False,390,0.609,36,[],[],"[(1194, 859)]",[],[1],[32],[0.5333333333333333],"[640.0, 512.0]",vertical,"(890.0, 262.0)",[0.9],[0.499],1,10789.489
7,False,391,0.976,58,[],[],"[(1191, 860)]",[],[1],[32],[0.5333333333333333],"[640.0, 512.0]",horizontal,"(890.0, 262.0)",[0.7833333333333333],[0.492],1,10793.643
7,False,392,1.053,63,[],[],"[(1213, 875)]",[],[1],[37],[0.6166666666666667],"[640.0, 512.0]",vertical,"(390.0, 762.0)",[0.75],[0.571],1,10797.963
7,False,393,0.71,42,[],[],"[(1192, 879)]",[],[1],[32],[0.5333333333333333],"[640.0, 512.0]",horizontal,"(890.0, 762.0)",[0.7833333333333333],[0.494],1,10802.322
7,False,394,1.092,65,[],[],"[(1184, 851)]",[],[1],"[51, 51]","[0.85, 0.85]","[640.0, 512.0]",horizontal,"(390.0, 762.0)",[1.65],"[0.805, 0.805]",0,10806.245
7,False,395,1.175,70,[],[],"[(1131, 841)]",[],[1],[35],[0.5833333333333334],"[640.0, 512.0]",horizontal,"(890.0, 762.0)",[1.3833333333333333],[0.537],1,10811.726
7,False,396,0.648,38,[],[],"[(1220, 879)]",[],[1],[32],[0.5333333333333333],"[640.0, 512.0]",vertical,"(890.0, 762.0)",[1.2],[0.495],1,10817.96
7,False,397,0.906,54,[],[],"[(1183, 851)]",[],[1],[33],[0.55],"[640.0, 512.0]",vertical,"(390.0, 762.0)",[0.6333333333333333],[0.508],1,10822.207
7,False,398,0.717,43,[],[],"[(1171, 879)]",[],[1],[44],[0.7333333333333333],"[640.0, 512.0]",vertical,"(390.0, 262.0)",[0.6166666666666667],[0.69],1,10826.156
7,False,399,1.039,62,[],[],"[(1195, 850)]",[],[1],[32],[0.5333333333333333],"[640.0, 512.0]",horizontal,"(890.0, 762.0)",[1.6833333333333333],[0.493],1,10830.186
7,False,400,0.814,48,[],[],"[(1206, 864)]",[],[1],[32],[0.5333333333333333],"[640.0, 512.0]",horizontal,"(390.0, 262.0)",[1.5666666666666667],[0.495],1,10835.516
7,False,401,0.87,52,[],[],"[(1188, 871)]",[],[1],[30],[0.5],"[640.0, 512.0]",horizontal,"(390.0, 262.0)",[1.5],[0.459],1,10840.275
7,False,402,0.971,58,[],[],"[(1142, 876)]",[],[1],[32],[0.5333333333333333],"[640.0, 512.0]",vertical,"(390.0, 762.0)",[1.3],[0.49],1,10844.995
7,False,403,0.985,59,[],[],"[(1160, 860)]",[],[1],[32],[0.5333333333333333],"[640.0, 512.0]",vertical,"(890.0, 262.0)",[0.8333333333333334],[0.493],1,10849.773
7,False,404,0.543,32,[],[],"[(1182, 853)]",[],[1],[42],[0.7],"[640.0, 512.0]",horizontal,"(390.0, 762.0)",[0.6],[0.656],1,10854.242
7,False,405,0.892,53,[],[],"[(1187, 856)]",[],[1],[35],[0.5833333333333334],"[640.0, 512.0]",horizontal,"(390.0, 762.0)",[0.6333333333333333],[0.544],1,10857.891
7,False,406,0.656,39,[],[],"[(1180, 850)]",[],[1],[31],[0.5166666666666666],"[640.0, 512.0]",horizontal,"(890.0, 262.0)",[0.9166666666666666],[0.477],1,10861.96
7,False,407,0.934,56,[],[],"[(1184, 850)]",[],[1],[33],[0.55],"[640.0, 512.0]",vertical,"(890.0, 262.0)",[1.0666666666666667],[0.507],1,10865.978
7,False,408,0.733,43,[],[],"[(1176, 855)]",[],[1],[32],[0.5333333333333333],"[640.0, 512.0]",horizontal,"(890.0, 262.0)",[1.1666666666666667],[0.493],1,10870.528
7,False,409,1.193,71,[],[],"[(1132, 865)]",[],[1],[32],[0.5333333333333333],"[640.0, 512.0]",vertical,"(390.0, 762.0)",[0.8166666666666667],[0.489],1,10874.828
7,False,410,0.901,54,[],[],"[(1129, 865)]",[],[1],[41],[0.6833333333333333],"[640.0, 512.0]",vertical,"(390.0, 262.0)",[1.4166666666666667],[0.646],1,11048.891
7,False,411,0.621,37,[],[],"[(1183, 860)]",[],[1],[32],[0.5333333333333333],"[640.0, 512.0]",horizontal,"(390.0, 262.0)",[1.3],[0.493],1,11053.872
7,False,412,0.634,38,[],[],"[(1177, 870)]",[],[1],[37],[0.6166666666666667],"[640.0, 512.0]",horizontal,"(390.0, 262.0)",[1.4833333333333334],[0.583],1,11058.109
7,False,413,0.951,57,[],[],"[(1172, 876)]",[],[1],[36],[0.6],"[640.0, 512.0]",vertical,"(890.0, 762.0)",[1.65],[0.556],1,11062.811
7,False,414,0.735,44,[],[],"[(1153, 881)]",[],[1],[32],[0.5333333333333333],"[640.0, 512.0]",vertical,"(890.0, 262.0)",[1.15],[0.493],1,11067.893
7,False,415,1.022,61,[],[],"[(1184, 855)]",[],[1],[34],[0.5666666666666667],"[640.0, 512.0]",horizontal,"(890.0, 762.0)",[0.55],[0.527],1,11072.595
7,False,416,1.037,62,[],[],"[(1207, 871)]",[],[1],[41],[0.6833333333333333],"[640.0, 512.0]",vertical,"(890.0, 262.0)",[1.0333333333333332],[0.642],1,11076.777
7,False,417,0.995,59,[],[],"[(1186, 873)]",[],[1],[32],[0.5333333333333333],"[640.0, 512.0]",vertical,"(890.0, 762.0)",[0.9],[0.5],1,11081.518
7,False,418,0.933,55,[],[],"[(1192, 879)]",[],[1],[11],[0.18333333333333332],"[640.0, 512.0]",horizontal,"(390.0, 262.0)",[1.0666666666666667],[0.147],1,11085.895
7,False,419,1.063,63,[],[],"[(1174, 859)]",[],[1],[37],[0.6166666666666667],"[640.0, 512.0]",horizontal,"(390.0, 762.0)",[1.0833333333333333],[0.578],1,11090.089
7,False,420,0.874,52,[],[],"[(1180, 855)]",[],[1],[39],[0.65],"[640.0, 512.0]",horizontal,"(890.0, 762.0)",[1.6666666666666667],[0.602],1,11094.913
8,False,421,0.662,39,[],[],"[(1178, 873)]",[],[1],[34],[0.5666666666666667],"[640.0, 512.0]",vertical,"(890.0, 762.0)",[0.55],[0.524],1,11100.09
8,False,422,1.048,62,[],[],"[(1192, 881)]",[],[1],[35],[0.5833333333333334],"[640.0, 512.0]",horizontal,"(890.0, 762.0)",[0.6666666666666666],[0.542],1,11103.916
8,False,423,0.933,55,[],[],"[(1193, 870)]",[],[1],[35],[0.5833333333333334],"[640.0, 512.0]",horizontal,"(390.0, 762.0)",[0.7833333333333333],[0.541],1,11108.286
8,False,424,1.104,66,[],[],"[(1191, 868)]",[],[1],[38],[0.6333333333333333],"[640.0, 512.0]",horizontal,"(390.0, 762.0)",[1.0833333333333333],[0.591],1,11112.717
8,False,425,0.999,59,[],[],"[(1199, 884)]",[],[1],[35],[0.5833333333333334],"[640.0, 512.0]",vertical,"(890.0, 762.0)",[0.7166666666666667],[0.544],1,11117.6
8,False,426,1.055,63,[],[],"[(1184, 869)]",[],[1],[37],[0.6166666666666667],"[640.0, 512.0]",horizontal,"(890.0, 262.0)",[0.5666666666666667],[0.579],1,11121.773
8,False,427,0.672,40,[],[],"[(1192, 855)]",[],[1],[],[],"[640.0, 512.0]",horizontal,"(390.0, 262.0)",[],[0],0,11126.078
8,False,428,1.193,71,[],[],"[(1180, 864)]",[],[1],[39],[0.65],"[640.0, 512.0]",horizontal,"(390.0, 762.0)",[1.55],[0.608],1,11130.006
8,False,429,0.736,44,[],[],"[(1187, 846)]",[],[1],[33],[0.55],"[640.0, 512.0]",vertical,"(890.0, 262.0)",[0.8166666666666667],[0.51],1,11135.742
8,False,430,0.976,58,[],[],"[(1182, 865)]",[],[1],[51],[0.85],"[640.0, 512.0]",horizontal,"(890.0, 762.0)",[0.6833333333333333],[0.803],0,11140.003
8,False,431,0.781,46,[],[],"[(1185, 873)]",[],[1],[],[],"[640.0, 512.0]",vertical,"(390.0, 262.0)",[],[0],0,11144.496
8,False,432,1.149,68,[],[],"[(1183, 850)]",[],[1],[33],[0.55],"[640.0, 512.0]",vertical,"(390.0, 762.0)",[1.4333333333333333],[0.51],1,11151.087
8,False,433,0.721,43,[],[],"[(1190, 868)]",[],[1],[35],[0.5833333333333334],"[640.0, 512.0]",horizontal,"(890.0, 762.0)",[0.85],[0.536],1,11156.214
8,False,434,0.899,53,[],[],"[(1174, 844)]",[],[1],[36],[0.6],"[640.0, 512.0]",vertical,"(390.0, 762.0)",[1.1666666666666667],[0.559],1,11160.185
8,False,435,0.673,40,[],[],"[(1194, 860)]",[],[1],[32],[0.5333333333333333],"[640.0, 512.0]",horizontal,"(390.0, 262.0)",[1.35],[0.498],1,11164.78
8,False,436,0.797,47,[],[],"[(1195, 860)]",[],[1],[34],[0.5666666666666667],"[640.0, 512.0]",vertical,"(890.0, 762.0)",[1.5833333333333333],[0.528],1,11169.341
8,False,437,0.857,51,[],[],"[(1182, 864)]",[],[1],[31],[0.5166666666666666],"[640.0, 512.0]",horizontal,"(390.0, 262.0)",[1.5166666666666666],[0.475],1,11174.127
8,False,438,0.969,58,[],[],"[(1180, 876)]",[],[1],[30],[0.5],"[640.0, 512.0]",horizontal,"(390.0, 762.0)",[1.05],[0.472],1,11178.963
8,False,439,1.131,67,[],[],"[(1143, 854)]",[],[1],[34],[0.5666666666666667],"[640.0, 512.0]",vertical,"(890.0, 762.0)",[0.5166666666666666],[0.524],1,11183.363
8,False,440,0.581,34,[],[],"[(1124, 862)]",[],[1],[35],[0.5833333333333334],"[640.0, 512.0]",horizontal,"(390.0, 762.0)",[0.5333333333333333],[0.551],1,11189.85
8,False,441,0.819,49,[],[],"[(1175, 860)]",[],[1],[31],[0.5166666666666666],"[640.0, 512.0]",horizontal,"(890.0, 762.0)",[0.5],[0.476],1,11193.624
8,False,442,0.511,30,[],[],"[(1177, 865)]",[],[1],[33],[0.55],"[640.0, 512.0]",vertical,"(890.0, 762.0)",[0.6166666666666667],[0.511],1,11197.279
8,False,443,0.843,50,[],[],"[(1197, 886)]",[],[1],[31],[0.5166666666666666],"[640.0, 512.0]",horizontal,"(890.0, 762.0)",[0.9],[0.475],1,11200.924
8,False,444,0.724,43,[],[],"[(1184, 881)]",[],[1],[37],[0.6166666666666667],"[640.0, 512.0]",vertical,"(390.0, 262.0)",[1.0833333333333333],[0.574],1,11205.163
8,False,445,0.694,41,[],[],"[(1180, 866)]",[],[1],[29],[0.48333333333333334],"[640.0, 512.0]",horizontal,"(890.0, 262.0)",[0.7833333333333333],[0.448],1,11209.949
8,False,446,0.762,45,[],[],"[(1190, 877)]",[],[1],[32],[0.5333333333333333],"[640.0, 512.0]",vertical,"(890.0, 262.0)",[1.0833333333333333],[0.489],1,11213.924
8,False,447,0.998,59,[],[],"[(1171, 870)]",[],[1],[44],[0.7333333333333333],"[640.0, 512.0]",horizontal,"(890.0, 262.0)",[0.9833333333333333],[0.697],1,11218.229
8,False,448,0.534,32,[],[],"[(1178, 868)]",[],[1],[29],[0.48333333333333334],"[640.0, 512.0]",vertical,"(390.0, 262.0)",[1.2],[0.449],1,11222.996
8,False,449,0.938,56,[],[],"[(1180, 870)]",[],[1],[35],[0.5833333333333334],"[640.0, 512.0]",horizontal,"(390.0, 262.0)",[1.5333333333333332],[0.539],1,11227.176
8,False,450,0.616,36,[],[],"[(1178, 879)]",[],[1],[34],[0.5666666666666667],"[640.0, 512.0]",horizontal,"(390.0, 762.0)",[1.3833333333333333],[0.527],1,11232.264
8,False,451,0.79,47,[],[],"[(1190, 866)]",[],[1],[41],[0.6833333333333333],"[640.0, 512.0]",vertical,"(390.0, 262.0)",[0.65],[0.64],1,11236.806
8,False,452,0.951,57,[],[],"[(1161, 867)]",[],[1],[30],[0.5],"[640.0, 512.0]",vertical,"(390.0, 262.0)",[1.1833333333333333],[0.465],1,11240.807
8,False,453,0.826,49,[],[],"[(1167, 884)]",[],[1],[17],[0.2833333333333333],"[640.0, 512.0]",vertical,"(890.0, 262.0)",[1.35],[0.248],1,11245.437
8,False,454,0.651,39,[],[],"[(1170, 871)]",[],[1],[34],[0.5666666666666667],"[640.0, 512.0]",horizontal,"(390.0, 762.0)",[0.7],[0.529],1,11250.012
8,False,455,0.922,55,[],[],"[(1168, 867)]",[],[1],[33],[0.55],"[640.0, 512.0]",horizontal,"(890.0, 762.0)",[0.8],[0.51],1,11254.092
8,False,456,1.14,68,[],[],"[(1199, 861)]",[],[1],[33],[0.55],"[640.0, 512.0]",horizontal,"(890.0, 262.0)",[0.75],[0.515],1,11258.297
8,False,457,0.972,58,[],[],"[(1196, 865)]",[],[1],[],[],"[640.0, 512.0]",horizontal,"(890.0, 262.0)",[],[0],0,11262.753
8,False,458,1.114,66,[],[],"[(1160, 855)]",[],[1],[35],[0.5833333333333334],"[640.0, 512.0]",vertical,"(390.0, 262.0)",[0.6166666666666667],[0.536],1,11266.39
8,False,459,0.769,46,[],[],"[(1172, 875)]",[],[1],[34],[0.5666666666666667],"[640.0, 512.0]",vertical,"(890.0, 262.0)",[1.4166666666666667],[0.527],1,11270.862
8,False,460,1.072,64,[],[],"[(1172, 849)]",[],[1],[42],[0.7],"[640.0, 512.0]",horizontal,"(390.0, 762.0)",[1.3666666666666667],[0.66],1,11275.653
8,False,461,0.784,47,[],[],"[(1220, 869)]",[],[1],[35],[0.5833333333333334],"[640.0, 512.0]",vertical,"(390.0, 762.0)",[0.8166666666666667],[0.545],1,11280.926
8,False,462,0.855,51,[],[],"[(1190, 866)]",[],[1],[33],[0.55],"[640.0, 512.0]",horizontal,"(890.0, 262.0)",[0.6333333333333333],[0.509],1,11285.327
8,False,463,0.598,35,[],[],"[(1177, 870)]",[],[1],[30],[0.5],"[640.0, 512.0]",vertical,"(390.0, 262.0)",[1.1333333333333333],[0.46],1,11289.3
8,False,464,0.862,51,[],[],"[(1176, 875)]",[],[1],[32],[0.5333333333333333],"[640.0, 512.0]",vertical,"(390.0, 762.0)",[0.5666666666666667],[0.497],1,11293.54
8,False,465,0.927,55,[],[],"[(1172, 875)]",[],[1],[32],[0.5333333333333333],"[640.0, 512.0]",horizontal,"(890.0, 262.0)",[0.8],[0.489],1,11297.527
8,False,466,0.604,36,[],[],"[(1134, 898)]",[],[1],[31],[0.5166666666666666],"[640.0, 512.0]",horizontal,"(890.0, 262.0)",[0.9833333333333333],[0.48],1,11301.848
8,False,467,1.059,63,[],[],"[(1175, 870)]",[],[1],[40],[0.6666666666666666],"[640.0, 512.0]",vertical,"(390.0, 762.0)",[0.9],[0.63],1,11306.06
8,False,468,1.173,70,[],[],"[(1170, 869)]",[],[1],[32],[0.5333333333333333],"[640.0, 512.0]",horizontal,"(390.0, 262.0)",[0.85],[0.497],1,11310.735
8,False,469,0.821,49,[],[],"[(1160, 860)]",[],[1],[35],[0.5833333333333334],"[640.0, 512.0]",vertical,"(890.0, 762.0)",[1.5],[0.54],1,11315.247
8,False,470,1.095,65,[],[],"[(1178, 866)]",[],[1],[36],[0.6],"[640.0, 512.0]",vertical,"(390.0, 262.0)",[0.7666666666666666],[0.558],1,11320.427
8,False,471,0.889,53,[],[],"[(1178, 873)]",[],[1],[36],[0.6],"[640.0, 512.0]",vertical,"(390.0, 762.0)",[0.85],[0.56],1,11325.022
8,False,472,0.608,36,[],[],"[(1176, 875)]",[],[1],[34],[0.5666666666666667],"[640.0, 512.0]",vertical,"(390.0, 762.0)",[1.5333333333333332],[0.532],1,11329.401
8,False,473,0.78,46,[],[],"[(1172, 872)]",[],[1],[34],[0.5666666666666667],"[640.0, 512.0]",horizontal,"(890.0, 762.0)",[0.8166666666666667],[0.522],1,11334.08
8,False,474,0.699,41,[],[],"[(1173, 879)]",[],[1],[37],[0.6166666666666667],"[640.0, 512.0]",vertical,"(890.0, 262.0)",[0.6833333333333333],[0.574],1,11338.333
8,False,475,0.91,54,[],[],"[(1177, 870)]",[],[1],[34],[0.5666666666666667],"[640.0, 512.0]",vertical,"(390.0, 762.0)",[0.8],[0.523],1,11342.341
8,False,476,0.516,30,[],[],"[(1172, 871)]",[],[1],[39],[0.65],"[640.0, 512.0]",vertical,"(390.0, 262.0)",[0.6833333333333333],[0.607],1,11346.624
8,False,477,0.877,52,[],[],"[(1117, 903)]",[],[1],[],[],"[640.0, 512.0]",vertical,"(890.0, 262.0)",[],[0],0,11350.645
8,False,478,1.185,71,[],[],"[(1160, 860)]",[],[1],[31],[0.5166666666666666],"[640.0, 512.0]",horizontal,"(890.0, 262.0)",[0.8],[0.473],1,11353.205
8,False,479,1.168,70,[],[],"[(1188, 875)]",[],[1],[33],[0.55],"[640.0, 512.0]",vertical,"(390.0, 762.0)",[1.55],[0.521],1,11357.643
8,False,480,1.045,62,[],[],"[(1196, 875)]",[],[1],[33],[0.55],"[640.0, 512.0]",vertical,"(390.0, 762.0)",[0.8],[0.508],1,11362.975
9,False,481,0.609,36,[],[],"[(1172, 884)]",[],[1],[37],[0.6166666666666667],"[640.0, 512.0]",horizontal,"(890.0, 762.0)",[0.6333333333333333],[0.578],1,11367.304
9,False,482,0.64,38,[],[],"[(1172, 879)]",[],[1],[35],[0.5833333333333334],"[640.0, 512.0]",vertical,"(390.0, 762.0)",[0.9333333333333333],[0.548],1,11371.051
9,False,483,0.722,43,[],[],"[(1167, 877)]",[],[1],[31],[0.5166666666666666],"[640.0, 512.0]",horizontal,"(390.0, 262.0)",[1.4833333333333334],[0.476],1,11375.256
9,False,484,0.697,41,[],[],"[(1143, 875)]",[],[1],[32],[0.5333333333333333],"[640.0, 512.0]",vertical,"(890.0, 762.0)",[1.1333333333333333],[0.499],1,11379.997
9,False,485,0.629,37,[],[],"[(1184, 872)]",[],[1],[34],[0.5666666666666667],"[640.0, 512.0]",vertical,"(390.0, 762.0)",[0.6],[0.527],1,11384.426
9,False,486,0.733,43,[],[],"[(1178, 862)]",[],[1],[17],[0.2833333333333333],"[640.0, 512.0]",horizontal,"(390.0, 262.0)",[1.5166666666666666],[0.25],1,11388.153
9,False,487,0.99,59,[],[],"[(1136, 880)]",[],[1],[32],[0.5333333333333333],"[640.0, 512.0]",vertical,"(390.0, 762.0)",[1.5666666666666667],[0.501],1,11392.658
9,False,488,0.993,59,[],[],"[(1166, 871)]",[],[1],[43],[0.7166666666666667],"[640.0, 512.0]",horizontal,"(390.0, 762.0)",[1.1166666666666667],[0.67],1,11397.827
9,False,489,0.664,39,[],[],"[(1187, 870)]",[],[1],[34],[0.5666666666666667],"[640.0, 512.0]",vertical,"(390.0, 262.0)",[0.6833333333333333],[0.523],1,11402.497
9,False,490,0.772,46,[],[],"[(1176, 879)]",[],[1],[34],[0.5666666666666667],"[640.0, 512.0]",vertical,"(390.0, 262.0)",[0.8166666666666667],[0.525],1,11406.352
9,False,491,1.2,72,[],[],"[(1183, 870)]",[],[1],[40],[0.6666666666666666],"[640.0, 512.0]",vertical,"(390.0, 262.0)",[1.1333333333333333],[0.623],1,11410.498
9,False,492,0.7,42,[],[],"[(1142, 890)]",[],[1],[35],[0.5833333333333334],"[640.0, 512.0]",vertical,"(890.0, 762.0)",[1.1],[0.54],1,11415.563
9,False,493,0.526,31,[],[],"[(1184, 884)]",[],[1],[33],[0.55],"[640.0, 512.0]",horizontal,"(390.0, 262.0)",[0.7833333333333333],[0.509],1,11420.122
9,False,494,0.734,44,[],[],"[(1130, 876)]",[],[1],[33],[0.55],"[640.0, 512.0]",vertical,"(890.0, 762.0)",[1.25],[0.506],1,11423.995
9,False,495,0.911,54,[],[],"[(1192, 878)]",[],[1],[33],[0.55],"[640.0, 512.0]",horizontal,"(890.0, 262.0)",[1.0833333333333333],[0.511],1,11428.392
9,False,496,0.542,32,[],[],"[(1183, 875)]",[],[1],[36],[0.6],"[640.0, 512.0]",vertical,"(390.0, 762.0)",[0.5833333333333334],[0.558],1,11432.974
9,False,497,1.151,69,[],[],"[(1154, 876)]",[],[1],[34],[0.5666666666666667],"[640.0, 512.0]",vertical,"(390.0, 762.0)",[0.85],[0.526],1,11436.726
9,False,498,1.008,60,[],[],"[(1183, 865)]",[],[1],[35],[0.5833333333333334],"[640.0, 512.0]",horizontal,"(390.0, 762.0)",[1.5333333333333332],[0.534],1,11441.32
9,False,499,0.718,43,[],[],"[(1180, 864)]",[],[1],[35],[0.5833333333333334],"[640.0, 512.0]",horizontal,"(390.0, 762.0)",[1.6333333333333333],[0.541],1,11446.311
9,False,500,0.758,45,[],[],"[(1172, 878)]",[],[1],[36],[0.6],"[640.0, 512.0]",vertical,"(890.0, 762.0)",[1.3166666666666667],[0.558],1,11451.229
9,False,501,1.173,70,[],[],"[(1184, 870)]",[],[1],[33],[0.55],"[640.0, 512.0]",horizontal,"(890.0, 762.0)",[0.9],[0.513],1,11455.844
9,False,502,0.547,32,[],[],"[(1154, 885)]",[],[1],[33],[0.55],"[640.0, 512.0]",horizontal,"(890.0, 262.0)",[1.3333333333333333],[0.511],1,11460.409
9,False,503,1.013,60,[],[],"[(1184, 875)]",[],[1],[35],[0.5833333333333334],"[640.0, 512.0]",vertical,"(890.0, 762.0)",[0.5],[0.54],1,11464.811
9,False,504,0.966,57,[],[],"[(1173, 883)]",[],[1],[40],[0.6666666666666666],"[640.0, 512.0]",horizontal,"(390.0, 762.0)",[1.3],[0.624],1,11468.834
9,False,505,0.581,34,[],[],"[(1238, 869), (1177, 867)]",[],"[0, 1]",[34],[0.5666666666666667],"[640.0, 512.0]",horizontal,"(890.0, 762.0)",[0.6166666666666667],[0.529],1,11473.573
9,False,506,1.132,67,[],[],"[(1172, 864)]",[],[1],[34],[0.5666666666666667],"[640.0, 512.0]",horizontal,"(390.0, 762.0)",[0.8],[0.527],1,11479.04
9,False,507,0.744,44,[],[],"[(1183, 875)]",[],[1],[32],[0.5333333333333333],"[640.0, 512.0]",horizontal,"(890.0, 262.0)",[1.6833333333333333],[0.487],1,11483.559
9,False,508,0.611,36,[],[],"[(1179, 874)]",[],[1],[33],[0.55],"[640.0, 512.0]",horizontal,"(390.0, 262.0)",[0.8],[0.51],1,11488.376
9,False,509,1.039,62,[],[],"[(1184, 878)]",[],[1],[38],[0.6333333333333333],"[640.0, 512.0]",vertical,"(390.0, 762.0)",[1.1666666666666667],[0.589],1,11492.391
9,False,510,0.629,37,[],[],"[(1190, 870)]",[],[1],[34],[0.5666666666666667],"[640.0, 512.0]",vertical,"(890.0, 262.0)",[0.7333333333333333],[0.524],1,11497.345
9,False,511,1.151,69,[],[],"[(1184, 884)]",[],[1],[25],[0.4166666666666667],"[640.0, 512.0]",horizontal,"(390.0, 262.0)",[1.5],[0.381],1,11501.243
9,False,512,0.879,52,[],[],"[(1142, 880)]",[],[1],[32],[0.5333333333333333],"[640.0, 512.0]",vertical,"(890.0, 262.0)",[1.1166666666666667],[0.49],1,11506.162
9,False,513,0.636,38,[],[],"[(1172, 872)]",[],[1],[35],[0.5833333333333334],"[640.0, 512.0]",vertical,"(890.0, 262.0)",[0.6166666666666667],[0.543],1,11510.674
9,False,514,0.688,41,[],[],"[(1166, 898)]",[],[1],[33],[0.55],"[640.0, 512.0]",horizontal,"(890.0, 262.0)",[1.0333333333333332],[0.509],1,11514.559
9,False,515,1.036,62,[],[],"[(1177, 889)]",[],[1],[35],[0.5833333333333334],"[640.0, 512.0]",horizontal,"(890.0, 762.0)",[1.5833333333333333],[0.541],1,11518.894
9,False,516,1.081,64,[],[],"[(1183, 870)]",[],[1],[35],[0.5833333333333334],"[640.0, 512.0]",horizontal,"(390.0, 762.0)",[1.6],[0.544],1,11523.947
9,False,517,1.034,62,[],[],"[(1181, 879)]",[],[1],[29],[0.48333333333333334],"[640.0, 512.0]",horizontal,"(890.0, 262.0)",[1.6333333333333333],[0.444],1,11529.325
9,False,518,1.03,61,[],[],"[(1167, 879)]",[],[1],[35],[0.5833333333333334],"[640.0, 512.0]",horizontal,"(390.0, 762.0)",[0.8666666666666667],[0.544],1,11534.489
9,False,519,0.665,39,[],[],"[(1190, 882)]",[],[1],[32],[0.5333333333333333],"[640.0, 512.0]",vertical,"(390.0, 762.0)",[1.2],[0.505],1,11538.897
9,False,520,0.905,54,[],[],"[(1188, 863)]",[],[1],[46],[0.7666666666666666],"[640.0, 512.0]",vertical,"(890.0, 762.0)",[0.95],[0.721],1,11543.277
9,False,521,0.593,35,[],[],"[(1177, 879)]",[],[1],[32],[0.5333333333333333],"[640.0, 512.0]",horizontal,"(390.0, 262.0)",[1.1833333333333333],[0.492],1,11547.739
9,False,522,1.189,71,[],[],"[(1176, 888)]",[],[1],[33],[0.55],"[640.0, 512.0]",vertical,"(890.0, 762.0)",[1.05],[0.511],1,11552.006
9,False,523,0.902,54,[],[],"[(1101, 889)]",[],[1],[34],[0.5666666666666667],"[640.0, 512.0]",vertical,"(390.0, 762.0)",[1.1166666666666667],[0.522],1,11559.139
9,False,524,0.84,50,[],[],"[(1110, 882)]",[],[1],[33],[0.55],"[640.0, 512.0]",vertical,"(890.0, 762.0)",[0.6833333333333333],[0.511],1,11563.708
9,False,525,1.028,61,[],[],"[(1172, 877)]",[],[1],[37],[0.6166666666666667],"[640.0, 512.0]",horizontal,"(390.0, 762.0)",[0.6333333333333333],[0.572],1,11567.821
9,False,526,1.1,66,[],[],"[(1183, 881)]",[],[1],[39],[0.65],"[640.0, 512.0]",vertical,"(390.0, 762.0)",[0.5],[0.604],1,11572.027
9,False,527,1.018,61,[],[],"[(1169, 882)]",[],[1],[35],[0.5833333333333334],"[640.0, 512.0]",vertical,"(890.0, 762.0)",[1.5166666666666666],[0.542],1,11576.311
9,False,528,0.833,49,[],[],"[(1160, 865)]",[],[1],[51],[0.85],"[640.0, 512.0]",horizontal,"(890.0, 762.0)",[1.2166666666666666],[0.801],0,11581.445
9,False,529,0.99,59,[],[],"[(1172, 878)]",[],[1],[35],[0.5833333333333334],"[640.0, 512.0]",vertical,"(390.0, 262.0)",[1.0],[0.544],1,11586.305
9,False,530,0.57,34,[],[],"[(1180, 882)]",[],[1],[34],[0.5666666666666667],"[640.0, 512.0]",vertical,"(890.0, 762.0)",[0.5666666666666667],[0.527],1,11591.156
9,False,531,0.663,39,[],[],"[(1172, 875)]",[],[1],[31],[0.5166666666666666],"[640.0, 512.0]",vertical,"(890.0, 262.0)",[1.2666666666666666],[0.476],1,11594.777
9,False,532,0.634,38,[],[],"[(1181, 879)]",[],[1],[33],[0.55],"[640.0, 512.0]",vertical,"(890.0, 762.0)",[0.7333333333333333],[0.522],1,11599.207
9,False,533,0.751,45,[],[],"[(1164, 879)]",[],[1],[33],[0.55],"[640.0, 512.0]",horizontal,"(390.0, 762.0)",[1.4166666666666667],[0.509],1,11602.985
9,False,534,0.626,37,[],[],"[(1190, 875)]",[],[1],[44],[0.7333333333333333],"[640.0, 512.0]",vertical,"(890.0, 262.0)",[0.65],[0.69],1,11607.681
9,False,535,0.536,32,[],[],"[(1173, 868)]",[],[1],[51],[0.85],"[640.0, 512.0]",horizontal,"(390.0, 262.0)",[1.2833333333333332],[0.798],0,11611.746
9,False,536,1.035,62,[],[],"[(1160, 865)]",[],[1],[34],[0.5666666666666667],"[640.0, 512.0]",horizontal,"(890.0, 262.0)",[0.5166666666666666],[0.527],1,11616.287
9,False,537,0.612,36,[],[],"[(1190, 869)]",[],[1],[36],[0.6],"[640.0, 512.0]",vertical,"(390.0, 262.0)",[0.75],[0.559],1,11621.304
9,False,538,0.754,45,[],[],"[(1190, 879)]",[],[1],[36],[0.6],"[640.0, 512.0]",horizontal,"(890.0, 762.0)",[1.1166666666666667],[0.557],1,11625.244
9,False,539,1.098,65,[],[],"[(1190, 874)]",[],[1],[33],[0.55],"[640.0, 512.0]",horizontal,"(390.0, 762.0)",[0.7],[0.511],1,11629.697
9,False,540,1.18,70,[],[],"[(1177, 884)]",[],[1],[34],[0.5666666666666667],"[640.0, 512.0]",horizontal,"(390.0, 762.0)",[0.6],[0.523],1,11634.012
10,False,541,0.869,52,[],[],"[(1190, 884)]",[],[1],[41],[0.6833333333333333],"[640.0, 512.0]",vertical,"(390.0, 262.0)",[1.0333333333333332],[0.637],1,11638.35
10,False,542,0.923,55,[],[],"[(1172, 884)]",[],[1],[35],[0.5833333333333334],"[640.0, 512.0]",vertical,"(390.0, 762.0)",[0.5166666666666666],[0.542],1,11642.824
10,False,543,0.823,49,[],[],"[(1181, 886)]",[],[1],[],[],"[640.0, 512.0]",horizontal,"(390.0, 262.0)",[],[0],0,11646.862
10,False,544,0.532,31,[],[],"[(1156, 855)]",[],[1],[31],[0.5166666666666666],"[640.0, 512.0]",horizontal,"(890.0, 262.0)",[1.6666666666666667],[0.48],1,11651.393
10,False,545,1.111,66,[],[],"[(1153, 875)]",[],[1],[33],[0.55],"[640.0, 512.0]",vertical,"(390.0, 262.0)",[0.8],[0.509],1,11656.321
10,False,546,1.176,70,[],[],"[(1188, 870)]",[],[1],[33],[0.55],"[640.0, 512.0]",horizontal,"(390.0, 762.0)",[1.3833333333333333],[0.505],1,11660.714
10,False,547,0.904,54,[],[],"[(1159, 870)]",[],[1],[35],[0.5833333333333334],"[640.0, 512.0]",horizontal,"(390.0, 762.0)",[0.5],[0.542],1,11665.757
10,False,548,0.687,41,[],[],"[(1178, 882)]",[],[1],[35],[0.5833333333333334],"[640.0, 512.0]",vertical,"(390.0, 762.0)",[1.4666666666666666],[0.541],1,11669.787
10,False,549,0.742,44,[],[],"[(1184, 865)]",[],[1],[39],[0.65],"[640.0, 512.0]",horizontal,"(390.0, 762.0)",[0.7333333333333333],[0.61],1,11674.387
10,False,550,0.714,42,[],[],"[(1136, 888)]",[],[1],[34],[0.5666666666666667],"[640.0, 512.0]",horizontal,"(890.0, 262.0)",[0.6333333333333333],[0.527],1,11678.505
10,False,551,0.88,52,[],[],"[(1160, 888)]",[],[1],[42],[0.7],"[640.0, 512.0]",horizontal,"(890.0, 762.0)",[1.4],[0.654],1,11684.367
10,False,552,1.075,64,[],[],"[(1160, 882)]",[],[1],[29],[0.48333333333333334],"[640.0, 512.0]",horizontal,"(890.0, 262.0)",[1.35],[0.444],1,11689.179
10,False,553,0.648,38,[],[],"[(1160, 875)]",[],[1],[40],[0.6666666666666666],"[640.0, 512.0]",horizontal,"(390.0, 762.0)",[0.55],[0.619],1,11693.91
10,False,554,0.655,39,[],[],"[(1148, 877)]",[],[1],[32],[0.5333333333333333],"[640.0, 512.0]",horizontal,"(890.0, 262.0)",[1.15],[0.494],1,11697.784
10,False,555,0.904,54,[],[],"[(1156, 870)]",[],[1],[35],[0.5833333333333334],"[640.0, 512.0]",horizontal,"(890.0, 762.0)",[1.1833333333333333],[0.54],1,11702.115
10,False,556,1.032,61,[],[],"[(1160, 880)]",[],[1],[37],[0.6166666666666667],"[640.0, 512.0]",vertical,"(890.0, 262.0)",[1.3166666666666667],[0.572],1,11706.629
10,False,557,0.664,39,[],[],"[(1169, 870)]",[],[1],[32],[0.5333333333333333],"[640.0, 512.0]",vertical,"(890.0, 262.0)",[1.2],[0.493],1,11711.414
10,False,558,0.891,53,[],[],"[(1166, 876)]",[],[1],[],[],"[640.0, 512.0]",horizontal,"(390.0, 762.0)",[],[0],0,11715.697
10,False,559,0.679,40,[],[],"[(1160, 870)]",[],[1],[33],[0.55],"[640.0, 512.0]",vertical,"(390.0, 762.0)",[0.9333333333333333],[0.51],1,11719.698
10,False,560,0.806,48,[],[],"[(1192, 866)]",[],[1],[33],[0.55],"[640.0, 512.0]",horizontal,"(390.0, 262.0)",[1.0],[0.51],1,11724.202
10,False,561,0.753,45,[],[],"[(1177, 870)]",[],[1],[42],[0.7],"[640.0, 512.0]",horizontal,"(390.0, 262.0)",[0.6],[0.658],1,11728.496
10,False,562,1.04,62,[],[],"[(1155, 875)]",[],[1],[19],[0.31666666666666665],"[640.0, 512.0]",vertical,"(390.0, 262.0)",[1.6333333333333333],[0.285],1,11732.43
10,False,563,0.915,54,[],[],"[(1153, 872)]",[],[1],[34],[0.5666666666666667],"[640.0, 512.0]",vertical,"(390.0, 262.0)",[0.8666666666666667],[0.527],1,11737.309
10,False,564,0.685,41,[],[],"[(1153, 866)]",[],[1],[32],[0.5333333333333333],"[640.0, 512.0]",vertical,"(890.0, 262.0)",[0.8],[0.493],1,11741.554
10,False,565,0.69,41,[],[],"[(1183, 855)]",[],[1],[35],[0.5833333333333334],"[640.0, 512.0]",horizontal,"(890.0, 762.0)",[1.5666666666666667],[0.543],1,11745.673
10,False,566,0.824,49,[],[],"[(1160, 879)]",[],[1],[39],[0.65],"[640.0, 512.0]",horizontal,"(390.0, 762.0)",[0.75],[0.607],1,11750.436
10,False,567,0.902,54,[],[],"[(1184, 877)]",[],[1],[36],[0.6],"[640.0, 512.0]",horizontal,"(390.0, 762.0)",[0.5166666666666666],[0.558],1,11754.513
10,False,568,1.124,67,[],[],"[(1177, 887)]",[],[1],[],[],"[640.0, 512.0]",vertical,"(390.0, 262.0)",[],[0],0,11758.497
10,False,569,1.177,70,[],[],"[(1172, 863)]",[],[1],[33],[0.55],"[640.0, 512.0]",horizontal,"(890.0, 262.0)",[0.8666666666666667],[0.505],1,11762.764
10,False,570,1.071,64,[],[],"[(1188, 875)]",[],[1],[36],[0.6],"[640.0, 512.0]",horizontal,"(890.0, 762.0)",[0.95],[0.557],1,11767.443
10,False,571,0.871,52,[],[],"[(1215, 905)]",[],[1],[35],[0.5833333333333334],"[640.0, 512.0]",horizontal,"(390.0, 762.0)",[1.2833333333333332],[0.537],1,11772.11
10,False,572,0.67,40,[],[],"[(1179, 876)]",[],[1],[42],[0.7],"[640.0, 512.0]",horizontal,"(890.0, 262.0)",[1.0666666666666667],[0.659],1,11776.864
10,False,573,0.698,41,[],[],"[(1190, 870)]",[],[1],[37],[0.6166666666666667],"[640.0, 512.0]",vertical,"(890.0, 262.0)",[0.9333333333333333],[0.576],1,11781.363
10,False,574,0.632,37,[],[],"[(1177, 878)]",[],[1],[34],[0.5666666666666667],"[640.0, 512.0]",horizontal,"(390.0, 762.0)",[1.15],[0.525],1,11785.58
10,False,575,0.886,53,[],[],"[(1178, 863)]",[],[1],[33],[0.55],"[640.0, 512.0]",vertical,"(890.0, 262.0)",[1.1666666666666667],[0.509],1,11789.932
10,False,576,0.579,34,[],[],"[(1186, 875)]",[],[1],[33],[0.55],"[640.0, 512.0]",horizontal,"(890.0, 762.0)",[1.3833333333333333],[0.511],1,11794.548
10,False,577,1.016,60,[],[],"[(1184, 879)]",[],[1],[38],[0.6333333333333333],"[640.0, 512.0]",vertical,"(890.0, 762.0)",[1.25],[0.593],1,11798.911
10,False,578,0.547,32,[],[],"[(1190, 879)]",[],[1],[41],[0.6833333333333333],"[640.0, 512.0]",vertical,"(890.0, 762.0)",[0.5166666666666666],[0.635],1,11803.819
10,False,579,0.59,35,[],[],"[(1178, 884)]",[],[1],[29],[0.48333333333333334],"[640.0, 512.0]",horizontal,"(890.0, 262.0)",[0.7833333333333333],[0.44],1,11807.48
10,False,580,1.151,69,[],[],"[(1177, 875)]",[],[1],[47],[0.7833333333333333],"[640.0, 512.0]",horizontal,"(390.0, 262.0)",[0.8666666666666667],[0.742],1,11811.262
10,False,581,0.606,36,[],[],"[(1185, 892)]",[],[1],[],[],"[640.0, 512.0]",vertical,"(390.0, 262.0)",[],[0],0,11816.094
10,False,582,0.524,31,[],[],"[(1153, 872)]",[],[1],[34],[0.5666666666666667],"[640.0, 512.0]",vertical,"(890.0, 762.0)",[1.6833333333333333],[0.525],1,11819.775
10,False,583,0.524,31,[],[],"[(1196, 877)]",[],[1],[33],[0.55],"[640.0, 512.0]",horizontal,"(890.0, 762.0)",[1.4666666666666666],[0.506],1,11824.658
10,False,584,0.835,50,[],[],"[(1177, 888)]",[],[1],[36],[0.6],"[640.0, 512.0]",vertical,"(390.0, 262.0)",[1.4],[0.559],1,11829.227
10,False,585,0.845,50,[],[],"[(1173, 855)]",[],[1],[39],[0.65],"[640.0, 512.0]",horizontal,"(390.0, 762.0)",[0.85],[0.612],1,11834.069
10,False,586,1.042,62,[],[],"[(1196, 863)]",[],[1],[35],[0.5833333333333334],"[640.0, 512.0]",vertical,"(390.0, 762.0)",[0.5],[0.559],1,11838.391
10,False,587,0.922,55,[],[],"[(1175, 849)]",[],[1],[33],[0.55],"[640.0, 512.0]",vertical,"(390.0, 262.0)",[1.3],[0.509],1,11842.618
10,False,588,0.549,32,[],[],"[(1162, 868)]",[],[1],[35],[0.5833333333333334],"[640.0, 512.0]",horizontal,"(390.0, 762.0)",[0.5666666666666667],[0.542],1,11847.231
10,False,589,0.508,30,[],[],"[(1195, 876)]",[],[1],[33],[0.55],"[640.0, 512.0]",vertical,"(390.0, 762.0)",[1.0166666666666666],[0.51],1,11850.927
10,False,590,1.101,66,[],[],"[(1190, 889)]",[],[1],[36],[0.6],"[640.0, 512.0]",horizontal,"(890.0, 762.0)",[1.2166666666666666],[0.558],1,11854.893
10,False,591,0.869,52,[],[],"[(1183, 889)]",[],[1],[51],[0.85],"[640.0, 512.0]",horizontal,"(890.0, 762.0)",[0.9333333333333333],[0.801],0,11859.663
10,False,592,0.539,32,[],[],"[(1166, 857)]",[],[1],[35],[0.5833333333333334],"[640.0, 512.0]",vertical,"(390.0, 762.0)",[1.1833333333333333],[0.551],1,11864.338
10,False,593,1.063,63,[],[],"[(1173, 862)]",[],[1],[34],[0.5666666666666667],"[640.0, 512.0]",vertical,"(390.0, 762.0)",[1.5],[0.526],1,11869.941
10,False,594,0.948,56,[],[],"[(1166, 874)]",[],[1],[43],[0.7166666666666667],"[640.0, 512.0]",vertical,"(390.0, 762.0)",[1.4333333333333333],[0.673],1,11874.951
10,False,595,0.675,40,[],[],"[(1139, 889)]",[],[1],[38],[0.6333333333333333],"[640.0, 512.0]",horizontal,"(890.0, 262.0)",[1.0833333333333333],[0.589],1,11880.048
10,False,596,1.142,68,[],[],"[(1190, 882)]",[],[1],[34],[0.5666666666666667],"[640.0, 512.0]",horizontal,"(890.0, 762.0)",[0.6166666666666667],[0.52],1,11884.551
10,False,597,0.987,59,[],[],"[(1189, 877)]",[],[1],[32],[0.5333333333333333],"[640.0, 512.0]",horizontal,"(890.0, 262.0)",[0.5166666666666666],[0.491],1,11888.925
10,False,598,0.659,39,[],[],"[(1166, 888)]",[],[1],[34],[0.5666666666666667],"[640.0, 512.0]",horizontal,"(890.0, 762.0)",[1.3166666666666667],[0.522],1,11892.856
10,False,599,1.195,71,[],[],"[(1197, 865)]",[],[1],[35],[0.5833333333333334],"[640.0, 512.0]",horizontal,"(390.0, 762.0)",[1.1333333333333333],[0.544],1,11897.415
10,False,600,0.911,54,[],[],"[(1170, 868)]",[],[1],[30],[0.5],"[640.0, 512.0]",horizontal,"(890.0, 262.0)",[0.5],[0.458],1,11902.259
11,False,601,1.041,62,[],[],"[(1183, 871)]",[],[1],[34],[0.5666666666666667],"[640.0, 512.0]",horizontal,"(390.0, 762.0)",[1.5833333333333333],[0.526],1,11906.166
11,False,602,0.778,46,[],[],"[(1170, 885)]",[],[1],[32],[0.5333333333333333],"[640.0, 512.0]",vertical,"(390.0, 762.0)",[1.3666666666666667],[0.495],1,11911.338
11,False,603,0.655,39,[],[],"[(1130, 876)]",[],[1],[35],[0.5833333333333334],"[640.0, 512.0]",vertical,"(390.0, 762.0)",[0.65],[0.543],1,11915.891
11,False,604,0.575,34,[],[],"[(1173, 870)]",[],[1],[23],[0.3833333333333333],"[640.0, 512.0]",vertical,"(390.0, 762.0)",[0.7666666666666666],[0.342],1,11919.778
11,False,605,0.989,59,[],[],"[(1162, 875)]",[],[1],[35],[0.5833333333333334],"[640.0, 512.0]",horizontal,"(390.0, 762.0)",[0.9666666666666667],[0.544],1,11923.353
11,False,606,0.789,47,[],[],"[(1160, 873)]",[],[1],[34],[0.5666666666666667],"[640.0, 512.0]",horizontal,"(390.0, 762.0)",[1.6166666666666667],[0.525],1,11927.729
11,False,607,1.174,70,[],[],"[(1179, 873)]",[],[1],[43],[0.7166666666666667],"[640.0, 512.0]",horizontal,"(890.0, 762.0)",[0.6],[0.674],1,11932.661
11,False,608,1.006,60,[],[],"[(1209, 865)]",[],[1],[31],[0.5166666666666666],"[640.0, 512.0]",horizontal,"(890.0, 262.0)",[0.9],[0.479],1,11937.162
11,False,609,1.019,61,[],[],"[(1160, 872)]",[],[1],[31],[0.5166666666666666],"[640.0, 512.0]",vertical,"(390.0, 262.0)",[0.6833333333333333],[0.478],1,11941.479
11,False,610,0.708,42,[],[],"[(1168, 876)]",[],[1],[33],[0.55],"[640.0, 512.0]",horizontal,"(890.0, 762.0)",[1.1166666666666667],[0.501],1,11945.749
11,False,611,0.837,50,[],[],"[(1176, 876)]",[],[1],[34],[0.5666666666666667],"[640.0, 512.0]",vertical,"(390.0, 762.0)",[1.3666666666666667],[0.524],1,11950.062
11,False,612,0.89,53,[],[],"[(1172, 865)]",[],[1],[36],[0.6],"[640.0, 512.0]",vertical,"(390.0, 762.0)",[1.25],[0.56],1,11954.754
11,False,613,0.892,53,[],[],"[(1172, 877)]",[],[1],[33],[0.55],"[640.0, 512.0]",horizontal,"(390.0, 262.0)",[0.5],[0.511],1,11961.025
11,False,614,0.588,35,[],[],"[(1180, 865)]",[],[1],[32],[0.5333333333333333],"[640.0, 512.0]",horizontal,"(890.0, 262.0)",[1.3333333333333333],[0.492],1,11964.946
11,False,615,0.969,58,[],[],"[(1178, 868)]",[],[1],[41],[0.6833333333333333],"[640.0, 512.0]",vertical,"(890.0, 762.0)",[0.7333333333333333],[0.646],1,11969.405
11,False,616,1.148,68,[],[],"[(1162, 884)]",[],[1],[34],[0.5666666666666667],"[640.0, 512.0]",horizontal,"(390.0, 262.0)",[0.7],[0.524],1,11973.761
11,False,617,0.504,30,[],[],"[(1157, 870)]",[],[1],[33],[0.55],"[640.0, 512.0]",vertical,"(390.0, 762.0)",[1.2333333333333334],[0.511],1,11978.223
11,False,618,0.502,30,[],[],"[(1170, 866)]",[],[1],[34],[0.5666666666666667],"[640.0, 512.0]",horizontal,"(390.0, 762.0)",[1.4166666666666667],[0.528],1,11982.513
11,False,619,1.056,63,[],[],"[(1168, 883)]",[],[1],[35],[0.5833333333333334],"[640.0, 512.0]",vertical,"(390.0, 262.0)",[1.0666666666666667],[0.547],1,11987.011
11,False,620,0.893,53,[],[],"[(1160, 879)]",[],[1],[15],[0.25],"[640.0, 512.0]",horizontal,"(390.0, 262.0)",[1.55],[0.216],1,11991.565
11,False,621,1.15,69,[],[],"[(1178, 879)]",[],[1],[33],[0.55],"[640.0, 512.0]",vertical,"(390.0, 262.0)",[0.6166666666666667],[0.505],1,11996.28
11,False,622,0.829,49,[],[],"[(1194, 883)]",[],[1],[33],[0.55],"[640.0, 512.0]",horizontal,"(890.0, 262.0)",[0.85],[0.508],1,12000.645
11,False,623,1.106,66,[],[],"[(1184, 860)]",[],[1],[43],[0.7166666666666667],"[640.0, 512.0]",horizontal,"(890.0, 762.0)",[0.85],[0.675],1,12004.963
11,False,624,0.93,55,[],[],"[(1193, 860)]",[],[1],[35],[0.5833333333333334],"[640.0, 512.0]",horizontal,"(390.0, 762.0)",[1.6333333333333333],[0.545],1,12017.478
11,False,625,1.035,62,[],[],"[(1173, 863)]",[],[1],[35],[0.5833333333333334],"[640.0, 512.0]",vertical,"(390.0, 762.0)",[1.3833333333333333],[0.544],1,12022.512
11,False,626,0.607,36,[],[],"[(1166, 865)]",[],[1],[33],[0.55],"[640.0, 512.0]",horizontal,"(890.0, 262.0)",[1.2166666666666666],[0.513],1,12027.443
11,False,627,0.847,50,[],[],"[(1172, 872)]",[],[1],[35],[0.5833333333333334],"[640.0, 512.0]",horizontal,"(890.0, 262.0)",[0.9166666666666666],[0.541],1,12031.659
11,False,628,1.13,67,[],[],"[(1178, 868)]",[],[1],[29],[0.48333333333333334],"[640.0, 512.0]",horizontal,"(390.0, 262.0)",[1.0],[0.446],1,12035.992
11,False,629,0.633,37,[],[],"[(1177, 865)]",[],[1],[36],[0.6],"[640.0, 512.0]",vertical,"(890.0, 262.0)",[0.5333333333333333],[0.557],1,12040.6
11,False,630,0.905,54,[],[],"[(1166, 882)]",[],[1],[36],[0.6],"[640.0, 512.0]",horizontal,"(390.0, 262.0)",[1.2333333333333334],[0.566],1,12044.408
11,False,631,1.172,70,[],[],"[(1184, 871)]",[],[1],[39],[0.65],"[640.0, 512.0]",vertical,"(890.0, 262.0)",[1.0666666666666667],[0.607],1,12048.993
11,False,632,0.902,54,[],[],"[(1162, 865)]",[],[1],[37],[0.6166666666666667],"[640.0, 512.0]",vertical,"(890.0, 762.0)",[1.6833333333333333],[0.574],1,12053.892
11,False,633,0.957,57,[],[],"[(1194, 882)]",[],[1],[34],[0.5666666666666667],"[640.0, 512.0]",horizontal,"(890.0, 262.0)",[1.2833333333333332],[0.529],1,12059.211
11,False,634,1.049,62,[],[],"[(1160, 878)]",[],[1],[34],[0.5666666666666667],"[640.0, 512.0]",vertical,"(890.0, 762.0)",[0.9166666666666666],[0.523],1,12063.963
11,False,635,0.871,52,[],[],"[(1163, 862)]",[],[1],[34],[0.5666666666666667],"[640.0, 512.0]",horizontal,"(890.0, 262.0)",[0.65],[0.522],1,12068.49
11,False,636,0.941,56,[],[],"[(1162, 869)]",[],[1],[35],[0.5833333333333334],"[640.0, 512.0]",horizontal,"(890.0, 762.0)",[1.3],[0.536],1,12072.615
11,False,637,1.151,69,[],[],"[(1150, 881)]",[],[1],[37],[0.6166666666666667],"[640.0, 512.0]",vertical,"(390.0, 262.0)",[0.7],[0.576],1,12077.417
11,False,638,0.937,56,[],[],"[(1153, 879)]",[],[1],[23],[0.3833333333333333],"[640.0, 512.0]",vertical,"(390.0, 262.0)",[1.4833333333333334],[0.346],1,12081.941
11,False,639,0.595,35,[],[],"[(1178, 867)]",[],[1],[30],[0.5],"[640.0, 512.0]",vertical,"(390.0, 262.0)",[1.6333333333333333],[0.459],1,12086.669
11,False,640,1.075,64,[],[],"[(1178, 879)]",[],[1],[33],[0.55],"[640.0, 512.0]",vertical,"(890.0, 262.0)",[0.6166666666666667],[0.506],1,12091.415
11,False,641,0.859,51,[],[],"[(1178, 869)]",[],[1],[42],[0.7],"[640.0, 512.0]",vertical,"(890.0, 762.0)",[0.6],[0.653],1,12095.726
11,False,642,1.113,66,[],[],"[(1166, 882)]",[],[1],[33],[0.55],"[640.0, 512.0]",vertical,"(390.0, 262.0)",[1.0833333333333333],[0.509],1,12099.746
11,False,643,0.906,54,[],[],"[(1176, 876)]",[],[1],[35],[0.5833333333333334],"[640.0, 512.0]",horizontal,"(390.0, 762.0)",[1.4333333333333333],[0.541],1,12104.424
11,False,644,0.565,33,[],[],"[(1193, 871)]",[],[1],[40],[0.6666666666666666],"[640.0, 512.0]",vertical,"(390.0, 762.0)",[0.6666666666666666],[0.623],1,12109.478
11,False,645,0.707,42,[],[],"[(1188, 879)]",[],[1],[39],[0.65],"[640.0, 512.0]",horizontal,"(390.0, 762.0)",[1.1166666666666667],[0.609],1,12113.346
11,False,646,1.055,63,[],[],"[(1153, 857)]",[],[1],[45],[0.75],"[640.0, 512.0]",horizontal,"(390.0, 762.0)",[1.5],[0.709],1,12117.71
11,False,647,0.86,51,[],[],"[(1159, 863)]",[],[1],[32],[0.5333333333333333],"[640.0, 512.0]",vertical,"(390.0, 262.0)",[1.6833333333333333],[0.494],1,12122.967
11,False,648,0.822,49,[],[],"[(1146, 883)]",[],[1],[33],[0.55],"[640.0, 512.0]",vertical,"(890.0, 762.0)",[1.6666666666666667],[0.507],1,12128.11
11,False,649,1.059,63,[],[],"[(1172, 872)]",[],[1],[35],[0.5833333333333334],"[640.0, 512.0]",vertical,"(390.0, 262.0)",[0.6333333333333333],[0.545],1,12133.115
11,False,650,0.95,57,[],[],"[(1129, 879)]",[],[1],[33],[0.55],"[640.0, 512.0]",horizontal,"(890.0, 762.0)",[0.7],[0.517],1,12137.399
11,False,651,0.869,52,[],[],"[(1172, 879)]",[],[1],[36],[0.6],"[640.0, 512.0]",horizontal,"(390.0, 262.0)",[1.3833333333333333],[0.557],1,12141.593
11,False,652,0.994,59,[],[],"[(1158, 867)]",[],[1],[32],[0.5333333333333333],"[640.0, 512.0]",vertical,"(390.0, 762.0)",[1.0166666666666666],[0.492],1,12146.297
11,False,653,0.899,53,[],[],"[(1148, 868)]",[],[1],[35],[0.5833333333333334],"[640.0, 512.0]",horizontal,"(390.0, 762.0)",[1.25],[0.547],1,12150.827
11,False,654,0.931,55,[],[],"[(1139, 868)]",[],[1],[35],[0.5833333333333334],"[640.0, 512.0]",horizontal,"(890.0, 762.0)",[0.85],[0.544],1,12155.46
11,False,655,1.135,68,[],[],"[(1157, 868)]",[],[1],[31],[0.5166666666666666],"[640.0, 512.0]",horizontal,"(390.0, 262.0)",[0.6833333333333333],[0.479],1,12159.946
11,False,656,0.578,34,[],[],"[(1142, 869)]",[],[1],[33],[0.55],"[640.0, 512.0]",horizontal,"(390.0, 762.0)",[1.5666666666666667],[0.51],1,12164.304
11,False,657,1.087,65,[],[],"[(1166, 875)]",[],[1],[34],[0.5666666666666667],"[640.0, 512.0]",vertical,"(890.0, 262.0)",[0.9166666666666666],[0.523],1,12169.075
11,False,658,1.002,60,[],[],"[(1190, 869)]",[],[1],[41],[0.6833333333333333],"[640.0, 512.0]",horizontal,"(390.0, 762.0)",[1.5666666666666667],[0.64],1,12173.605
11,False,659,1.128,67,[],[],"[(1164, 868)]",[],[1],[41],[0.6833333333333333],"[640.0, 512.0]",vertical,"(390.0, 762.0)",[0.85],[0.649],1,12178.883
11,False,660,0.605,36,[],[],"[(1130, 877)]",[],[1],[37],[0.6166666666666667],"[640.0, 512.0]",vertical,"(890.0, 762.0)",[0.7666666666666666],[0.572],1,12183.572
