block,trial,trial_type,taps_start_loc_during_fix,taps_end_loc_during_fix,taps_on_lever_during_fix,taps_on_lever_s_during_fix,bar_orientation,target_xy,cti,rt,acc,time,pulses,fa_rate_recent100,p_catch
0,1,target,"[(1017, 878)]",[],[1],[0.85],vertical,"(890.0, 262.0)",0.3833333333333333,nan,0,0.601,0,0.0,0.25
0,2,target,"[(1009, 863)]",[],[1],[0.85],horizontal,"(390.0, 262.0)",0.5166666666666666,nan,0,53.199,0,0.0,0.25
0,3,target,"[(1027, 836)]",[],[1],[0.65],vertical,"(390.0, 262.0)",0.4,0.604,1,57.741,1,0.0,0.25
0,4,catch,"[(1035, 820)]",[],[1],[],vertical,"(890.0, 262.0)",1.6,nan,1,62.805,1,0.0,0.25
0,5,catch,"[(1031, 825)]",[],[1],[],horizontal,"(390.0, 262.0)",1.6,nan,1,68.508,1,0.0,0.25
0,6,catch,"[(1037, 828)]",[],[1],[],vertical,"(890.0, 262.0)",1.6,nan,1,73.691,2,0.0,0.25
0,7,target,"[(1027, 776)]",[],[1],[0.65],vertical,"(390.0, 262.0)",0.8166666666666667,0.627,1,80.756,2,0.0,0.25
0,8,target,"[(1033, 774)]",[],[1],[0.65],horizontal,"(390.0, 262.0)",1.1333333333333333,0.627,1,86.216,2,0.0,0.25
0,9,target,"[(1001, 801), (1037, 793)]",[],"[0, 1]",[0.6],horizontal,"(890.0, 262.0)",1.3833333333333333,0.573,1,92.48,2,0.0,0.25
0,10,target,"[(1017, 777)]",[],[1],[0.5],horizontal,"(890.0, 262.0)",0.55,0.472,1,99.711,3,0.0,0.25
0,11,target,"[(1032, 770)]",[],[1],[0.85],vertical,"(390.0, 262.0)",0.8833333333333333,nan,0,104.939,0,0.0,0.25
0,12,target,"[(1033, 790)]",[],[1],[0.55],horizontal,"(890.0, 762.0)",0.9,0.524,1,109.58,1,0.0,0.25
0,13,target,"[(621, 815), (118, 860), (677, 855), (617, 855), (777, 959), (1016, 834)]",[],"[0, 0, 0, 0, 0, 1]",[0.5666666666666667],vertical,"(390.0, 262.0)",0.4,0.53,1,115.672,1,0.0,0.25
0,14,target,"[(1021, 791)]",[],[1],[0.85],vertical,"(390.0, 762.0)",0.95,nan,0,2277.55,0,0.0,0.25
0,15,catch,"[(1034, 796)]",[],[1],[],horizontal,"(890.0, 762.0)",1.6,nan,1,2482.938,1,0.0,0.25
0,16,target,"[(1033, 774)]",[],[1],[0.65],vertical,"(890.0, 262.0)",1.1666666666666667,0.623,1,2487.9,1,0.0,0.25
0,17,target,"[(1043, 803)]",[],[1],[0.55],vertical,"(890.0, 762.0)",0.8833333333333333,0.505,1,2492.985,1,0.0,0.25
0,18,target,"[(1033, 791)]",[],[1],[0.6833333333333333],horizontal,"(390.0, 762.0)",0.9,0.638,1,2497.715,2,0.0,0.25
0,19,target,"[(1023, 792)]",[],[1],[0.7],horizontal,"(890.0, 262.0)",0.55,0.659,1,2502.95,2,0.0,0.25
0,20,target,"[(1033, 789)]",[],[1],[0.5333333333333333],vertical,"(390.0, 762.0)",1.05,0.495,1,2507.95,2,0.0,0.25
0,21,catch,"[(1033, 776)]",[],[1],[],horizontal,"(890.0, 762.0)",1.6,nan,1,2513.426,2,0.0,0.25
0,22,target,"[(1040, 773)]",[],[1],[0.85],vertical,"(390.0, 762.0)",0.4,nan,0,2518.616,0,0.0,0.25
0,23,target,"[(1035, 793)]",[],[1],[0.6166666666666667],vertical,"(390.0, 762.0)",1.05,0.573,1,2523.2,1,0.0,0.25
0,24,target,"[(1048, 822)]",[],[1],[0.85],horizontal,"(890.0, 262.0)",0.5833333333333334,nan,0,2528.395,0,0.0,0.25
0,25,target,"[(997, 822), (476, 214), (1030, 833)]",[],"[0, 0, 1]",[0.6333333333333333],vertical,"(390.0, 762.0)",0.5,0.598,1,2948.284,1,0.0,0.25
0,26,target,"[(1037, 795)]",[],[1],[],horizontal,"(890.0, 262.0)",,"('cti', 1.157)",0,2990.084,0,0.038461538461538464,0.25
0,27,target,"[(1029, 802)]",[],[1],[0.48333333333333334],vertical,"(890.0, 262.0)",0.9833333333333333,0.438,1,2994.517,1,0.037037037037037035,0.25
0,28,target,"[(1021, 781)]",[],[1],[0.6],vertical,"(890.0, 262.0)",0.7666666666666666,0.557,1,3002.001,1,0.03571428571428571,0.25
0,29,target,"[(1041, 781)]",[],[1],[0.5],vertical,"(890.0, 762.0)",1.4666666666666666,0.454,1,3007.233,1,0.034482758620689655,0.25
0,30,target,"[(1023, 780)]",[],[1],[0.5166666666666666],horizontal,"(390.0, 262.0)",1.1166666666666667,0.483,1,3012.951,2,0.03333333333333333,0.25
0,31,target,"[(1020, 789)]",[],[1],[0.4666666666666667],horizontal,"(390.0, 762.0)",1.4666666666666666,0.432,1,3018.572,2,0.03225806451612903,0.25
0,32,target,"[(189, 942), (1038, 813)]",[],"[0, 1]",[0.85],vertical,"(890.0, 762.0)",1.3333333333333333,nan,0,3024.551,0,0.03125,0.25
0,33,target,"[(1054, 834)]",[],[1],[0.7],horizontal,"(390.0, 262.0)",0.4,0.657,1,3126.817,1,0.030303030303030304,0.25
0,34,target,"[(1032, 796)]",[],[1],[0.6333333333333333],vertical,"(890.0, 262.0)",1.1,0.587,1,3138.218,1,0.029411764705882353,0.25
0,35,target,"[(1035, 776)]",[],[1],[0.45],vertical,"(890.0, 262.0)",0.5833333333333334,0.412,1,3143.434,1,0.02857142857142857,0.25
0,36,target,"[(1056, 781)]",[],[1],[0.5666666666666667],horizontal,"(390.0, 262.0)",0.48333333333333334,0.539,1,3147.875,2,0.027777777777777776,0.25
0,37,target,"[(1037, 791)]",[],[1],[0.45],vertical,"(390.0, 262.0)",0.45,0.41,1,3153.029,2,0.02702702702702703,0.25
0,38,target,"[(1057, 786)]",[],[1],[0.35],vertical,"(890.0, 262.0)",0.9833333333333333,0.315,1,3157.867,2,0.02631578947368421,0.25
0,39,catch,"[(1037, 770)]",[],[1],[],horizontal,"(390.0, 762.0)",,"('cti', 1.534),nan",0,3163.236,0,0.05128205128205128,0.25
0,40,target,"[(1057, 806)]",[],[1],[0.5],horizontal,"(390.0, 262.0)",0.35,0.458,1,3167.922,1,0.05,0.25
0,41,target,"[(1057, 782)]",[],[1],[0.3333333333333333],horizontal,"(390.0, 262.0)",1.3166666666666667,0.298,1,3172.064,1,0.04878048780487805,0.25
0,42,target,"[(1037, 781)]",[],[1],[0.2833333333333333],horizontal,"(390.0, 762.0)",1.35,0.245,1,3177.484,1,0.047619047619047616,0.25
0,43,target,"[(1056, 776)]",[],[1],[0.48333333333333334],horizontal,"(390.0, 262.0)",1.2833333333333332,0.443,1,3182.484,2,0.046511627906976744,0.25
0,44,target,"[(1063, 794)]",[],[1],[0.26666666666666666],horizontal,"(390.0, 262.0)",1.1166666666666667,0.231,1,3188.435,2,0.045454545454545456,0.25
0,45,target,"[(1058, 786)]",[],[1],[0.45],horizontal,"(890.0, 262.0)",0.6666666666666666,0.411,1,3193.952,2,0.044444444444444446,0.25
0,46,target,"[(1041, 766)]",[],[1],[0.85],vertical,"(890.0, 762.0)",1.4,nan,0,3198.686,0,0.043478260869565216,0.25
0,47,target,"[(1055, 786)]",[],[1],[0.5666666666666667],vertical,"(890.0, 762.0)",1.2333333333333334,0.536,1,3203.969,1,0.0425531914893617,0.25
0,48,target,"[(1045, 770)]",[],[1],[0.43333333333333335],vertical,"(390.0, 262.0)",1.2166666666666666,0.393,1,3209.511,1,0.041666666666666664,0.25
0,49,target,"[(1053, 778)]",[],[1],[0.5],horizontal,"(890.0, 262.0)",1.2,0.46,1,3214.574,1,0.04081632653061224,0.25
0,50,target,"[(1037, 766)]",[],[1],[0.6833333333333333],vertical,"(390.0, 262.0)",1.25,0.639,1,3219.485,2,0.04,0.25
0,51,target,"[(1055, 785)]",[],[1],[0.5833333333333334],horizontal,"(890.0, 762.0)",0.4666666666666667,0.551,1,3225.101,2,0.04,0.25
0,52,target,"[(1053, 789)]",[],[1],[0.08333333333333333],vertical,"(890.0, 762.0)",1.5333333333333332,0.052,0,3229.618,0,0.04,0.25
0,53,target,"[(1041, 783)]",[],[1],[0.5333333333333333],horizontal,"(390.0, 262.0)",0.9,0.49,1,3234.506,1,0.04,0.25
0,54,target,"[(1058, 777)]",[],[1],[0.18333333333333332],vertical,"(390.0, 262.0)",0.8333333333333334,0.152,0,3239.152,0,0.04,0.25
0,55,catch,"[(1057, 779)]",[],[1],[],vertical,"(390.0, 762.0)",1.6,nan,1,3243.414,1,0.04,0.25
0,56,target,"[(1037, 784)]",[],[1],[0.4666666666666667],horizontal,"(390.0, 262.0)",0.7,0.436,1,3248.552,1,0.04,0.25
0,57,target,"[(1061, 788)]",[],[1],[0.8333333333333334],vertical,"(390.0, 762.0)",0.8666666666666667,0.79,1,3253.171,1,0.04,0.25
0,58,target,"[(1060, 781)]",[],[1],[0.65],horizontal,"(390.0, 762.0)",0.9666666666666667,0.619,1,3258.334,2,0.04,0.25
0,59,target,"[(1049, 771)]",[],[1],[0.4666666666666667],horizontal,"(390.0, 762.0)",1.5166666666666666,0.428,1,3264.096,2,0.04,0.25
0,60,target,"[(1049, 769)]",[],[1],[0.5333333333333333],horizontal,"(390.0, 262.0)",1.3333333333333333,0.494,1,3269.684,2,0.04,0.25
0,61,target,"[(1054, 781)]",[],[1],[0.5166666666666666],vertical,"(390.0, 262.0)",0.6666666666666666,0.477,1,3275.55,2,0.04,0.25
0,62,target,"[(1041, 786)]",[],[1],[0.5166666666666666],horizontal,"(890.0, 262.0)",0.6333333333333333,0.475,1,3280.29,3,0.04,0.25
0,63,catch,"[(1043, 775)]",[],[1],[],vertical,"(390.0, 262.0)",1.6,nan,1,3285.902,3,0.04,0.25
0,64,target,"[(1040, 755)]",[],[1],[0.4666666666666667],vertical,"(890.0, 262.0)",0.5,0.431,1,3291.477,3,0.04,0.25
0,65,target,"[(1041, 775)]",[],[1],[0.48333333333333334],vertical,"(890.0, 762.0)",0.4,0.443,1,3296.6,3,0.04,0.25
0,66,catch,"[(1058, 776)]",[],[1],[],horizontal,"(890.0, 762.0)",,"('cti', 1.448),nan",0,3301.804,0,0.06,0.25
0,67,target,"[(1017, 785)]",[],[1],[0.4166666666666667],vertical,"(890.0, 262.0)",1.0666666666666667,0.383,1,3306.12,1,0.06,0.25
0,68,target,"[(1061, 765)]","[(992, 837)]",[1],[0.4166666666666667],horizontal,"(890.0, 262.0)",,"('bar', 0.426)",0,3311.834,0,0.06,0.25
0,69,target,"[(1022, 817)]","[(1016, 888)]",[1],[0.16666666666666666],horizontal,"(390.0, 762.0)",,"('bar', 0.182)",0,3314.369,0,0.06,0.25
0,70,catch,"[(1035, 821)]",[],[1],[],vertical,"(890.0, 762.0)",1.6,nan,1,3409.234,1,0.06,0.25
0,71,catch,"[(1050, 834)]",[],[1],[],horizontal,"(390.0, 262.0)",1.6,nan,1,4158.65,1,0.06,0.25
0,72,target,"[(1058, 822)]",[],[1],[0.85],vertical,"(890.0, 262.0)",0.6833333333333333,nan,0,4164.799,0,0.06,0.25
0,73,target,"[(1044, 816)]",[],[1],[0.5666666666666667],horizontal,"(890.0, 762.0)",0.9166666666666666,0.525,1,4170.4,1,0.06,0.25
0,74,catch,"[(1037, 784)]",[],[1],[],horizontal,"(390.0, 762.0)",1.6,nan,1,4175.354,1,0.06,0.25
0,75,target,"[(1029, 785)]",[],[1],[0.85],vertical,"(890.0, 262.0)",1.0,nan,0,4180.387,0,0.06,0.25
0,76,target,"[(560, 440), (1049, 837)]",[],"[0, 1]",[0.4666666666666667],horizontal,"(390.0, 262.0)",1.3666666666666667,0.426,1,4184.962,1,0.04,0.25
0,77,target,"[(1078, 806)]",[],[1],[],vertical,"(390.0, 762.0)",,"('cti', 1.056)",0,4191.905,0,0.06,0.25
0,78,catch,"[(1021, 771)]",[],[1],[],vertical,"(390.0, 262.0)",1.6,nan,1,4196.142,1,0.06,0.25
0,79,target,"[(1077, 809)]",[],[1],[0.48333333333333334],horizontal,"(390.0, 262.0)",0.8833333333333333,0.446,1,4201.455,1,0.06,0.25
0,80,target,"[(1049, 773)]",[],[1],[0.85],vertical,"(890.0, 762.0)",0.36666666666666664,nan,0,4206.271,0,0.06,0.25
0,81,catch,"[(1005, 769)]",[],[1],[],horizontal,"(890.0, 262.0)",1.6,nan,1,4210.755,1,0.06,0.25
0,82,catch,"[(1062, 786)]",[],[1],[],horizontal,"(390.0, 262.0)",1.6,nan,1,4215.675,1,0.06,0.25
0,83,target,"[(1054, 766)]",[],[1],[0.5],vertical,"(890.0, 762.0)",1.4333333333333333,0.46,1,4220.966,1,0.06,0.25
0,84,target,"[(1060, 782)]",[],[1],[0.48333333333333334],vertical,"(390.0, 762.0)",1.3833333333333333,0.445,1,4226.219,2,0.06,0.25
0,85,target,"[(1057, 766)]",[],[1],[0.5333333333333333],horizontal,"(890.0, 762.0)",0.9166666666666666,0.491,1,4232.152,2,0.06,0.25
0,86,target,"[(1049, 759)]",[],[1],[0.7],vertical,"(390.0, 762.0)",0.8833333333333333,0.658,1,4237.42,2,0.06,0.25
0,87,target,"[(1038, 773)]",[],[1],[0.36666666666666664],horizontal,"(390.0, 762.0)",1.2166666666666666,0.331,1,4243.017,2,0.06,0.25
0,88,target,"[(1035, 790)]",[],[1],[0.15],horizontal,"(890.0, 262.0)",1.3333333333333333,0.116,0,4248.563,0,0.06,0.25
0,89,target,"[(1038, 776)]",[],[1],[0.5333333333333333],horizontal,"(390.0, 262.0)",0.4,0.489,1,4253.254,1,0.04,0.25
0,90,target,"[(1049, 764)]",[],[1],[0.4666666666666667],vertical,"(890.0, 262.0)",0.4666666666666667,0.431,1,4257.587,1,0.04,0.25
0,91,catch,"[(1045, 773)]",[],[1],[],vertical,"(390.0, 262.0)",1.6,nan,1,4261.637,1,0.04,0.25
0,92,catch,"[(1049, 786)]",[],[1],[],horizontal,"(390.0, 762.0)",1.6,nan,1,4266.62,2,0.04,0.25
0,93,catch,"[(1045, 769)]",[],[1],[],horizontal,"(890.0, 262.0)",1.6,nan,1,4271.938,2,0.04,0.25
0,94,target,"[(1057, 772)]",[],[1],[],horizontal,"(390.0, 762.0)",,"('cti', 0.951)",0,4277.755,0,0.06,0.25
0,95,target,"[(1057, 777)]",[],[1],[0.5333333333333333],vertical,"(390.0, 762.0)",0.85,0.494,1,4281.97,1,0.06,0.25
0,96,target,"[(1054, 765)]",[],[1],[0.85],horizontal,"(890.0, 762.0)",0.4,nan,0,4286.582,0,0.06,0.25
0,97,target,"[(1057, 830)]",[],[1],[0.5333333333333333],vertical,"(390.0, 262.0)",0.65,0.489,1,4290.899,1,0.06,0.25
0,98,catch,"[(1045, 774)]",[],[1],[],horizontal,"(390.0, 762.0)",1.6,nan,1,4299.621,1,0.06,0.25
0,99,target,"[(1046, 777)]",[],[1],[],horizontal,"(890.0, 262.0)",,"('cti', 1.054)",0,4304.504,0,0.08,0.25
0,100,target,"[(1049, 774)]",[],[1],[0.55],vertical,"(390.0, 762.0)",1.3833333333333333,0.514,1,4308.369,1,0.08,0.25
0,101,target,"[(1057, 776)]",[],[1],[0.85],horizontal,"(390.0, 762.0)",0.8833333333333333,nan,0,4313.921,0,0.08,0.25
0,102,target,"[(1035, 787)]",[],[1],[0.31666666666666665],vertical,"(890.0, 762.0)",1.4166666666666667,0.282,1,4318.421,1,0.08,0.25
0,103,target,"[(1038, 784)]",[],[1],[],horizontal,"(390.0, 262.0)",,"('cti', 1.367)",0,4323.437,0,0.1,0.25
0,104,target,"[(1033, 799)]",[],[1],[0.15],vertical,"(390.0, 262.0)",1.4333333333333333,0.115,0,4327.87,0,0.1,0.25
0,105,target,"[(1037, 795)]",[],[1],[0.6166666666666667],vertical,"(390.0, 762.0)",0.5,0.58,1,4333.071,1,0.1,0.25
0,106,target,"[(1036, 781)]",[],[1],[0.36666666666666664],horizontal,"(890.0, 762.0)",1.3,0.33,1,4337.623,1,0.1,0.25
0,107,target,"[(1052, 804)]",[],[1],[0.5333333333333333],horizontal,"(890.0, 262.0)",0.8833333333333333,0.49,1,4343.028,1,0.1,0.25
0,108,target,"[(1061, 790)]",[],[1],[0.2833333333333333],horizontal,"(390.0, 262.0)",1.5166666666666666,0.246,1,4348.038,2,0.1,0.25
0,109,target,"[(1060, 778)]",[],[1],[0.5166666666666666],vertical,"(390.0, 762.0)",1.1333333333333333,0.481,1,4353.737,2,0.1,0.25
0,110,target,"[(1057, 762)]",[],[1],[0.5166666666666666],horizontal,"(890.0, 762.0)",1.1833333333333333,0.479,1,4359.205,2,0.1,0.25
0,111,target,"[(1045, 772)]",[],[1],[0.2833333333333333],horizontal,"(390.0, 762.0)",1.2833333333333332,0.247,1,4364.486,2,0.1,0.25
0,112,catch,"[(1060, 790)]",[],[1],[],horizontal,"(890.0, 262.0)",1.6,nan,1,4370.234,3,0.1,0.25
0,113,target,"[(1058, 783)]",[],[1],[0.55],vertical,"(390.0, 762.0)",1.15,0.511,1,4376.664,3,0.1,0.25
0,114,target,"[(1045, 771)]",[],[1],[0.6333333333333333],vertical,"(890.0, 262.0)",0.9833333333333333,0.59,1,4382.477,3,0.1,0.25
0,115,target,"[(1033, 761)]",[],[1],[0.6666666666666666],horizontal,"(390.0, 262.0)",0.35,0.627,1,4388.221,3,0.1,0.25
0,116,target,"[(1037, 770)]",[],[1],[0.4666666666666667],horizontal,"(890.0, 262.0)",0.48333333333333334,0.425,1,4393.604,3,0.08,0.25
0,117,target,"[(1050, 772)]",[],[1],[0.65],horizontal,"(390.0, 762.0)",0.6166666666666667,0.607,1,4398.79,3,0.08,0.25
0,118,catch,"[(1055, 779)]",[],[1],[],horizontal,"(890.0, 262.0)",,"('cti', 1.382),nan",0,4404.664,0,0.1,0.25
0,119,catch,"[(998, 806), (1039, 789)]",[],"[0, 1]",[],vertical,"(390.0, 762.0)",1.6,nan,1,4408.989,1,0.1,0.25
0,120,target,"[(1045, 777)]",[],[1],[0.6166666666666667],vertical,"(390.0, 762.0)",1.0166666666666666,0.574,1,4416.737,1,0.1,0.25
0,121,catch,"[(1036, 775)]",[],[1],[],horizontal,"(390.0, 762.0)",1.6,nan,1,4422.022,1,0.1,0.25
0,122,target,"[(1058, 767)]",[],[1],[0.5],horizontal,"(890.0, 262.0)",1.2,0.467,1,4426.922,2,0.1,0.25
0,123,target,"[(1055, 761)]",[],[1],[0.21666666666666667],vertical,"(890.0, 762.0)",1.5166666666666666,0.183,0,4432.446,0,0.1,0.25
0,124,catch,"[(1053, 773)]",[],[1],[],horizontal,"(390.0, 762.0)",1.6,nan,1,4437.404,1,0.1,0.25
0,125,target,"[(1052, 782)]",[],[1],[0.55],vertical,"(390.0, 762.0)",0.48333333333333334,0.506,1,4442.606,1,0.1,0.25
0,126,target,"[(1041, 783)]",[],[1],[0.5333333333333333],vertical,"(890.0, 762.0)",0.8833333333333333,0.49,1,4446.888,1,0.1,0.25
0,127,target,"[(1053, 772)]",[],[1],[0.4666666666666667],horizontal,"(890.0, 262.0)",1.15,0.428,1,4451.956,2,0.08,0.25
0,128,target,"[(1054, 786)]",[],[1],[0.5],horizontal,"(890.0, 262.0)",0.43333333333333335,0.457,1,4457.621,2,0.08,0.25
0,129,catch,"[(1057, 772)]",[],[1],[],horizontal,"(390.0, 262.0)",,"('cti', 1.553),nan",0,4462.386,0,0.1,0.25
0,130,target,"[(1037, 776)]",[],[1],[0.4666666666666667],horizontal,"(390.0, 762.0)",1.2333333333333334,0.428,1,4466.772,1,0.1,0.25
0,131,catch,"[(1055, 789)]",[],[1],[],horizontal,"(390.0, 762.0)",1.6,nan,1,4471.805,1,0.1,0.25
0,132,target,"[(1052, 781)]",[],[1],[0.6],vertical,"(890.0, 262.0)",0.5666666666666667,0.559,1,4477.139,1,0.1,0.25
0,133,target,"[(1047, 770)]",[],[1],[0.6333333333333333],vertical,"(390.0, 762.0)",0.65,0.592,1,4481.872,2,0.1,0.25
0,134,target,"[(1052, 780)]",[],[1],[0.48333333333333334],horizontal,"(890.0, 762.0)",1.0166666666666666,0.446,1,4487.289,2,0.1,0.25
0,135,target,"[(1037, 778)]",[],[1],[0.5],horizontal,"(890.0, 262.0)",1.2666666666666666,0.461,1,4492.821,2,0.1,0.25
0,136,target,"[(1076, 786)]",[],[1],[0.43333333333333335],vertical,"(890.0, 762.0)",1.3833333333333333,0.395,1,4498.63,2,0.1,0.25
0,137,target,"[(1054, 789)]",[],[1],[0.16666666666666666],horizontal,"(890.0, 262.0)",1.4166666666666667,0.135,0,4504.305,0,0.1,0.25
0,138,target,"[(1048, 786)]",[],[1],[0.5333333333333333],vertical,"(390.0, 262.0)",0.7833333333333333,0.497,1,4509.089,1,0.1,0.25
0,139,target,"[(1052, 771)]",[],[1],[0.6833333333333333],horizontal,"(390.0, 762.0)",0.8333333333333334,0.641,1,4513.806,1,0.1,0.25
0,140,target,"[(1057, 785)]",[],[1],[0.36666666666666664],vertical,"(390.0, 262.0)",1.5,0.328,1,4518.972,1,0.1,0.25
0,141,target,"[(1056, 783)]",[],[1],[0.6666666666666666],horizontal,"(390.0, 262.0)",0.9,0.628,1,4524.441,2,0.1,0.25
0,142,catch,"[(1064, 777)]",[],[1],[],vertical,"(890.0, 262.0)",,"('cti', 1.573),nan",0,4529.996,0,0.12,0.25
0,143,catch,"[(1030, 773)]",[],[1],[],vertical,"(890.0, 762.0)",1.6,nan,1,4534.724,1,0.12,0.25
0,144,target,"[(1060, 766)]",[],[1],[0.48333333333333334],horizontal,"(890.0, 262.0)",0.5,0.443,1,4540.007,1,0.1,0.25
0,145,target,"[(1041, 782)]",[],[1],[0.5333333333333333],vertical,"(890.0, 762.0)",1.1166666666666667,0.491,1,4544.593,1,0.1,0.25
0,146,target,"[(1049, 774)]",[],[1],[0.5333333333333333],vertical,"(890.0, 762.0)",0.8666666666666667,0.496,1,4549.939,2,0.1,0.25
0,147,catch,"[(1029, 741), (1034, 803)]",[],"[0, 1]",[],horizontal,"(390.0, 762.0)",1.6,nan,1,4554.995,2,0.1,0.25
0,148,target,"[(1033, 783)]",[],[1],[0.11666666666666667],vertical,"(890.0, 762.0)",1.5,0.085,0,4562.481,0,0.1,0.25
0,149,catch,"[(1056, 787)]",[],[1],[],vertical,"(390.0, 262.0)",1.6,nan,1,4567.434,1,0.08,0.25
0,150,catch,"[(1057, 795)]",[],[1],[],horizontal,"(890.0, 262.0)",1.6,nan,1,4572.554,1,0.08,0.25
0,151,target,"[(1058, 779)]",[],[1],[0.5166666666666666],horizontal,"(390.0, 262.0)",0.6,0.475,1,4577.588,1,0.08,0.25
0,152,target,"[(1057, 780)]",[],[1],[0.55],vertical,"(890.0, 762.0)",0.3833333333333333,0.51,1,4582.171,2,0.08,0.25
0,153,target,"[(1061, 787)]",[],[1],[0.5166666666666666],horizontal,"(390.0, 262.0)",0.85,0.477,1,4586.72,2,0.06,0.25
0,154,catch,"[(1057, 757)]",[],[1],[],vertical,"(890.0, 262.0)",1.6,nan,1,4591.759,2,0.06,0.25
0,155,catch,"[(1057, 802)]",[],[1],[],vertical,"(390.0, 262.0)",1.6,nan,1,4597.634,2,0.06,0.25
0,156,catch,"[(1054, 785)]",[],[1],[],vertical,"(390.0, 762.0)",1.6,nan,1,4603.853,3,0.06,0.25
0,157,target,"[(1057, 764)]",[],[1],[0.45],horizontal,"(890.0, 262.0)",0.9666666666666667,0.412,1,4610.2,3,0.06,0.25
0,158,target,"[(1065, 779)]",[],[1],[0.5],vertical,"(390.0, 762.0)",0.7333333333333333,0.461,1,4615.706,3,0.06,0.25
0,159,target,"[(1059, 765)]",[],[1],[0.6333333333333333],vertical,"(890.0, 762.0)",0.95,0.586,1,4621.054,3,0.06,0.25
0,160,target,"[(1057, 773)]",[],[1],[0.35],vertical,"(390.0, 762.0)",1.4333333333333333,0.318,1,4626.689,3,0.06,0.25
0,161,target,"[(1061, 765)]",[],[1],[0.4666666666666667],horizontal,"(890.0, 262.0)",1.1666666666666667,0.427,1,4632.668,3,0.06,0.25
0,162,target,"[(1072, 775)]",[],[1],[0.85],horizontal,"(890.0, 762.0)",0.55,nan,0,4638.29,0,0.06,0.25
0,163,target,"[(1057, 766)]",[],[1],[0.3833333333333333],vertical,"(390.0, 262.0)",1.4833333333333334,0.344,1,4642.522,1,0.06,0.25
0,164,catch,"[(1057, 781)]",[],[1],[],horizontal,"(390.0, 762.0)",1.6,nan,1,4648.212,1,0.06,0.25
0,165,target,"[(1040, 783)]",[],[1],[0.6],horizontal,"(890.0, 762.0)",0.8833333333333333,0.563,1,4652.94,1,0.06,0.25
0,166,target,"[(1058, 782)]",[],[1],[0.48333333333333334],horizontal,"(390.0, 262.0)",0.7,0.444,1,4657.957,2,0.06,0.25
0,167,catch,"[(1057, 802)]",[],[1],[],horizontal,"(890.0, 762.0)",,"('cti', 1.558),nan",0,4662.729,0,0.08,0.25
0,168,target,"[(1057, 787)]",[],[1],[0.5833333333333334],horizontal,"(890.0, 262.0)",1.1666666666666667,0.539,1,4667.453,1,0.06,0.25
0,169,target,"[(1068, 801)]",[],[1],[0.5166666666666666],horizontal,"(890.0, 262.0)",0.7,0.476,1,4672.53,1,0.06,0.25
0,170,catch,"[(1040, 771)]",[],[1],[],vertical,"(390.0, 262.0)",1.6,nan,1,4677.15,1,0.06,0.25
0,171,target,"[(1065, 763)]",[],[1],[0.85],horizontal,"(890.0, 762.0)",0.9,nan,0,4682.151,0,0.06,0.25
0,172,target,"[(1025, 780)]",[],[1],[0.48333333333333334],vertical,"(390.0, 262.0)",0.8833333333333333,0.445,1,4686.447,1,0.06,0.25
0,173,target,"[(1077, 787)]",[],[1],[0.6666666666666666],horizontal,"(390.0, 262.0)",1.0666666666666667,0.63,1,4691.582,1,0.06,0.25
0,174,catch,"[(1069, 773)]",[],[1],[],vertical,"(890.0, 262.0)",1.6,nan,1,4696.911,1,0.06,0.25
0,175,target,"[(1076, 777)]",[],[1],[0.48333333333333334],horizontal,"(890.0, 262.0)",0.7833333333333333,0.444,1,4701.818,2,0.06,0.25
0,176,target,"[(1076, 778)]",[],[1],[0.4],horizontal,"(390.0, 762.0)",1.4166666666666667,0.37,1,4707.189,2,0.06,0.25
0,177,target,"[(1063, 767)]",[],[1],[0.6333333333333333],vertical,"(890.0, 262.0)",1.1333333333333333,0.591,1,4712.576,2,0.06,0.25
0,178,catch,"[(1053, 776)]",[],[1],[],horizontal,"(390.0, 262.0)",,"('cti', 1.55),nan",0,4718.205,0,0.08,0.25
0,179,target,"[(1057, 765)]",[],[1],[0.5166666666666666],vertical,"(890.0, 762.0)",1.0333333333333332,0.476,1,4722.854,1,0.06,0.25
0,180,catch,"[(1049, 772)]",[],[1],[],vertical,"(390.0, 262.0)",,"('cti', 1.176),nan",0,4728.307,0,0.08,0.25
0,181,target,"[(1033, 830)]",[],[1],[0.85],vertical,"(390.0, 762.0)",1.0833333333333333,nan,0,4732.79,0,0.08,0.25
0,182,target,"[(1049, 841)]",[],[1],[0.85],vertical,"(890.0, 262.0)",0.7333333333333333,nan,0,5841.803,0,0.08,0.25
0,183,target,"[(1058, 776)]",[],[1],[0.5166666666666666],vertical,"(390.0, 262.0)",0.7833333333333333,0.484,1,5846.37,1,0.08,0.25
0,184,catch,"[(1054, 766)]",[],[1],[],horizontal,"(890.0, 762.0)",1.6,nan,1,5856.126,1,0.08,0.25
0,185,target,"[(1045, 777)]",[],[1],[0.6833333333333333],vertical,"(890.0, 262.0)",1.0833333333333333,0.639,1,5861.611,1,0.08,0.25
0,186,target,"[(1042, 772)]",[],[1],[0.65],vertical,"(890.0, 262.0)",0.4,0.611,1,5866.6,2,0.08,0.25
0,187,target,"[(1032, 785)]",[],[1],[0.45],horizontal,"(890.0, 762.0)",1.4333333333333333,0.408,1,5871.533,2,0.08,0.25
0,188,target,"[(1037, 776)]",[],[1],[0.4666666666666667],horizontal,"(890.0, 762.0)",1.2833333333333332,0.42,1,5876.927,2,0.08,0.25
0,189,target,"[(1033, 782)]",[],[1],[0.5666666666666667],vertical,"(390.0, 262.0)",0.36666666666666664,0.534,1,5882.405,2,0.08,0.25
0,190,target,"[(1035, 770)]",[],[1],[0.4],horizontal,"(390.0, 262.0)",1.0666666666666667,0.367,1,5887.343,3,0.08,0.25
0,191,catch,"[(1069, 768)]",[],[1],[],horizontal,"(390.0, 762.0)",,"('cti', 1.514),nan",0,5892.993,0,0.1,0.25
0,192,catch,"[(1057, 796)]",[],[1],[],vertical,"(390.0, 762.0)",,"('cti', 1.582),nan",0,5897.542,0,0.1,0.25
0,193,target,"[(1061, 783)]",[],[1],[0.4],vertical,"(890.0, 762.0)",1.3166666666666667,0.368,1,5902.483,1,0.1,0.25
0,194,target,"[(1045, 770)]",[],[1],[0.5166666666666666],horizontal,"(390.0, 262.0)",1.2166666666666666,0.486,1,5907.698,1,0.1,0.25
0,195,target,"[(1033, 773)]",[],[1],[0.5333333333333333],vertical,"(390.0, 762.0)",1.0,0.496,1,5912.885,1,0.1,0.25
0,196,target,"[(1027, 801)]",[],[1],[0.4166666666666667],vertical,"(890.0, 762.0)",1.2833333333333332,0.386,1,5918.077,2,0.1,0.25
0,197,target,"[(1054, 784)]",[],[1],[0.5666666666666667],vertical,"(890.0, 762.0)",0.9333333333333333,0.534,1,5924.06,2,0.1,0.25
0,198,target,"[(1037, 771)]",[],[1],[0.6333333333333333],vertical,"(390.0, 262.0)",0.75,0.593,1,5929.775,2,0.1,0.25
0,199,target,"[(1037, 786)]",[],[1],[0.4],vertical,"(390.0, 762.0)",1.25,0.36,1,5934.943,2,0.1,0.25
0,200,target,"[(1052, 762)]",[],[1],[0.5833333333333334],horizontal,"(390.0, 762.0)",0.9666666666666667,0.544,1,5940.842,3,0.1,0.25
0,201,target,"[(1038, 767)]",[],[1],[0.31666666666666665],vertical,"(390.0, 262.0)",1.3833333333333333,0.284,1,5946.602,3,0.1,0.25
0,202,catch,"[(1035, 775)]",[],[1],[],vertical,"(390.0, 762.0)",1.6,nan,1,5952.477,3,0.1,0.25
0,203,target,"[(1041, 739), (1017, 794)]",[],"[0, 1]",[0.06666666666666667],horizontal,"(890.0, 762.0)",1.2666666666666666,0.037,0,5958.31,0,0.1,0.25
0,204,target,"[(1033, 762)]",[],[1],[0.36666666666666664],vertical,"(890.0, 762.0)",1.1333333333333333,0.325,1,5964.61,1,0.1,0.25
0,205,catch,"[(1033, 785)]",[],[1],[],vertical,"(890.0, 262.0)",1.6,nan,1,5970.042,1,0.1,0.25
0,206,target,"[(1051, 797)]",[],[1],[0.5],vertical,"(890.0, 262.0)",1.15,0.46,1,5975.281,1,0.1,0.25
0,207,catch,"[(1057, 763)]",[],[1],[],horizontal,"(890.0, 762.0)",1.6,nan,1,5980.593,2,0.1,0.25
0,208,target,"[(1057, 776)]",[],[1],[0.5],vertical,"(890.0, 262.0)",0.65,0.461,1,5985.894,2,0.1,0.25
0,209,target,"[(1060, 765)]",[],[1],[0.5833333333333334],horizontal,"(890.0, 762.0)",0.75,0.539,1,5990.693,2,0.1,0.25
0,210,catch,"[(1041, 768)]",[],[1],[],horizontal,"(390.0, 762.0)",,"('cti', 1.525),nan",0,5995.835,0,0.12,0.25
0,211,target,"[(1052, 769)]",[],[1],[0.5166666666666666],horizontal,"(890.0, 262.0)",1.05,0.478,1,6000.844,1,0.12,0.25
0,212,target,"[(1057, 784)]",[],[1],[0.55],vertical,"(890.0, 762.0)",1.0666666666666667,0.508,1,6006.264,1,0.12,0.25
0,213,target,"[(1043, 756)]",[],[1],[0.6833333333333333],vertical,"(390.0, 262.0)",0.43333333333333335,0.639,1,6011.361,1,0.12,0.25
0,214,target,"[(1037, 786)]",[],[1],[0.5166666666666666],vertical,"(890.0, 262.0)",0.9333333333333333,0.475,1,6016.141,2,0.12,0.25
0,215,target,"[(1038, 769)]",[],[1],[0.5166666666666666],vertical,"(890.0, 262.0)",1.2,0.48,1,6021.774,2,0.12,0.25
0,216,catch,"[(1045, 764)]",[],[1],[],vertical,"(890.0, 762.0)",1.6,nan,1,6027.145,2,0.12,0.25
0,217,catch,"[(1057, 768)]",[],[1],[],horizontal,"(390.0, 762.0)",1.6,nan,1,6032.344,2,0.1,0.25
0,218,target,"[(1021, 775)]",[],[1],[0.6166666666666667],vertical,"(890.0, 262.0)",1.05,0.576,1,6037.76,3,0.1,0.25
0,219,target,"[(1052, 771)]",[],[1],[0.5333333333333333],vertical,"(390.0, 762.0)",0.35,0.488,1,6044.226,3,0.1,0.25
0,220,catch,"[(1049, 761)]",[],[1],[],vertical,"(890.0, 762.0)",1.6,nan,1,6049.285,3,0.1,0.25
0,221,target,"[(1034, 760)]",[],[1],[0.85],horizontal,"(890.0, 262.0)",1.4333333333333333,nan,0,6054.793,0,0.1,0.25
0,222,target,"[(1035, 791)]",[],[1],[0.5166666666666666],vertical,"(390.0, 262.0)",0.3833333333333333,0.475,1,6060.436,1,0.1,0.25
0,223,target,"[(1019, 765)]",[],[1],[0.31666666666666665],horizontal,"(890.0, 762.0)",1.25,0.277,1,6065.977,1,0.1,0.25
0,224,catch,"[(1017, 775)]",[],[1],[0.03333333333333333],vertical,"(390.0, 762.0)",1.6,"0.019,nan",0,6070.877,0,0.12,0.25
0,225,target,"[(1037, 783)]",[],[1],[],vertical,"(890.0, 762.0)",,"('cti', 0.476)",0,6075.352,0,0.14,0.25
0,226,target,"[(1034, 780)]",[],[1],[0.3],vertical,"(890.0, 262.0)",1.5333333333333332,0.264,1,6079.293,1,0.14,0.25
0,227,target,"[(1045, 777)]",[],[1],[0.6],vertical,"(890.0, 262.0)",1.1333333333333333,0.556,1,6084.81,1,0.14,0.25
0,228,target,"[(1046, 753), (1037, 768)]",[],"[0, 1]",[0.5333333333333333],vertical,"(390.0, 262.0)",0.8,0.5,1,6090.109,1,0.12,0.25
0,229,target,"[(1051, 763)]",[],[1],[0.5333333333333333],vertical,"(390.0, 762.0)",0.85,0.488,1,6096.41,2,0.12,0.25
0,230,target,"[(1052, 780)]",[],[1],[0.3833333333333333],horizontal,"(890.0, 762.0)",1.3333333333333333,0.343,1,6101.41,2,0.1,0.25
0,231,target,"[(1052, 789)]",[],[1],[0.6],vertical,"(890.0, 262.0)",0.5,0.562,1,6107.027,2,0.1,0.25
0,232,target,"[(1053, 791)]",[],[1],[0.43333333333333335],vertical,"(890.0, 762.0)",1.1166666666666667,0.389,1,6112.173,2,0.1,0.25
0,233,catch,"[(1052, 786)]",[],[1],[],vertical,"(390.0, 762.0)",1.6,nan,1,6118.092,3,0.1,0.25
0,234,target,"[(1047, 788)]",[],[1],[0.5333333333333333],horizontal,"(390.0, 262.0)",0.8166666666666667,0.49,1,6123.928,3,0.1,0.25
0,235,target,"[(1052, 787)]",[],[1],[0.5],horizontal,"(390.0, 262.0)",0.6,0.462,1,6129.435,3,0.1,0.25
0,236,target,"[(1053, 769)]",[],[1],[0.6833333333333333],vertical,"(890.0, 762.0)",0.9333333333333333,0.64,1,6134.976,3,0.1,0.25
0,237,target,"[(1041, 792)]",[],[1],[0.45],horizontal,"(890.0, 762.0)",1.2666666666666666,0.407,1,6140.789,3,0.1,0.25
0,238,target,"[(1059, 772)]",[],[1],[0.6833333333333333],vertical,"(390.0, 762.0)",0.3833333333333333,0.645,1,6147.211,3,0.1,0.25
0,239,target,"[(1041, 775)]",[],[1],[0.6666666666666666],horizontal,"(390.0, 262.0)",0.8333333333333334,0.624,1,6152.765,3,0.1,0.25
0,240,catch,"[(1034, 764)]",[],[1],[],vertical,"(890.0, 262.0)",1.6,nan,1,6158.327,3,0.1,0.25
0,241,target,"[(764, 474), (1055, 811)]",[],"[0, 1]",[0.85],horizontal,"(390.0, 762.0)",1.0666666666666667,nan,0,6164.372,0,0.08,0.25
0,242,target,"[(1055, 805)]",[],[1],[0.5166666666666666],vertical,"(890.0, 762.0)",1.15,0.475,1,6570.971,1,0.06,0.25
0,243,target,"[(1052, 793)]",[],[1],[0.6166666666666667],vertical,"(890.0, 762.0)",0.5333333333333333,0.572,1,6590.911,1,0.06,0.25
0,244,target,"[(1035, 782)]",[],[1],[0.85],horizontal,"(390.0, 762.0)",1.0333333333333332,nan,0,6595.781,0,0.06,0.25
0,245,target,"[(1042, 814)]",[],[1],[0.5333333333333333],vertical,"(890.0, 262.0)",0.43333333333333335,0.493,1,6600.877,1,0.06,0.25
0,246,target,"[(1045, 801)]",[],[1],[0.45],vertical,"(890.0, 762.0)",0.8833333333333333,0.411,1,6605.228,1,0.06,0.25
0,247,target,"[(1053, 768)]",[],[1],[0.5333333333333333],horizontal,"(890.0, 262.0)",1.0,0.49,1,6610.364,1,0.06,0.25
0,248,target,"[(1057, 786)]",[],[1],[0.4666666666666667],horizontal,"(390.0, 762.0)",1.0666666666666667,0.43,1,6615.324,2,0.06,0.25
0,249,target,"[(1058, 825)]",[],[1],[0.45],horizontal,"(890.0, 262.0)",0.6,0.408,1,6620.728,2,0.06,0.25
0,250,target,"[(1033, 772)]",[],[1],[0.5],horizontal,"(890.0, 762.0)",0.9333333333333333,0.46,1,6625.628,2,0.06,0.25
0,251,catch,"[(1049, 799)]",[],[1],[],horizontal,"(890.0, 762.0)",1.6,nan,1,6630.577,2,0.06,0.25
0,252,target,"[(1052, 775)]",[],[1],[0.5166666666666666],horizontal,"(890.0, 762.0)",0.5833333333333334,0.475,1,6635.926,3,0.06,0.25
0,253,target,"[(1057, 771)]",[],[1],[0.5666666666666667],vertical,"(890.0, 262.0)",0.4,0.527,1,6641.429,3,0.06,0.25
0,254,target,"[(1054, 769)]",[],[1],[0.4666666666666667],horizontal,"(890.0, 762.0)",1.5166666666666666,0.431,1,6646.846,3,0.06,0.25
0,255,catch,"[(1041, 776)]",[],[1],[],vertical,"(890.0, 262.0)",1.6,nan,1,6652.562,3,0.06,0.25
0,256,target,"[(1069, 776)]",[],[1],[0.5333333333333333],vertical,"(390.0, 762.0)",1.1833333333333333,0.492,1,6658.344,3,0.06,0.25
0,257,target,"[(1059, 771)]",[],[1],[0.43333333333333335],horizontal,"(890.0, 262.0)",1.0333333333333332,0.402,1,6664.197,3,0.06,0.25
0,258,target,"[(1058, 782)]",[],[1],[0.5166666666666666],horizontal,"(390.0, 262.0)",0.7833333333333333,0.476,1,6670.05,3,0.06,0.25
0,259,catch,"[(1059, 781)]",[],[1],[],vertical,"(890.0, 762.0)",1.6,nan,1,6675.712,3,0.06,0.25
0,260,target,"[(1057, 789)]",[],[1],[0.85],horizontal,"(890.0, 762.0)",0.5166666666666666,nan,0,6681.862,0,0.04,0.25
0,261,target,"[(1057, 780)]",[],[1],[0.5],horizontal,"(390.0, 262.0)",0.7166666666666667,0.465,1,6685.976,1,0.04,0.25
0,262,target,"[(1057, 793)]",[],[1],[0.4166666666666667],horizontal,"(390.0, 262.0)",1.2666666666666666,0.377,1,6691.292,1,0.04,0.25
0,263,target,"[(1061, 773)]",[],[1],[0.85],vertical,"(390.0, 762.0)",0.65,nan,0,6696.989,0,0.04,0.25
0,264,target,"[(1037, 779)]",[],[1],[0.7],horizontal,"(390.0, 262.0)",1.2166666666666666,0.664,1,6701.291,1,0.04,0.25
0,265,catch,"[(1029, 830)]",[],[1],[],horizontal,"(390.0, 262.0)",1.6,nan,1,6707.007,1,0.04,0.25
0,266,target,"[(1050, 798)]",[],[1],[0.5166666666666666],horizontal,"(890.0, 262.0)",0.9166666666666666,0.473,1,7212.48,1,0.04,0.25
0,267,target,"[(1049, 792)]",[],[1],[0.6],vertical,"(390.0, 762.0)",1.0666666666666667,0.558,1,7217.63,2,0.04,0.25
0,268,target,"[(1054, 781)]",[],[1],[0.5166666666666666],vertical,"(390.0, 262.0)",0.5166666666666666,0.48,1,7223.096,2,0.04,0.25
0,269,target,"[(1052, 793)]",[],[1],[0.48333333333333334],horizontal,"(390.0, 762.0)",0.95,0.447,1,7228.229,2,0.04,0.25
0,270,catch,"[(1049, 775)]",[],[1],[],horizontal,"(890.0, 262.0)",1.6,nan,1,7233.759,2,0.04,0.25
0,271,target,"[(1057, 779)]",[],[1],[0.3333333333333333],horizontal,"(390.0, 762.0)",1.4333333333333333,0.3,1,7239.214,3,0.04,0.25
0,272,catch,"[(1048, 783)]",[],[1],[],horizontal,"(890.0, 762.0)",1.6,nan,1,7245.774,3,0.04,0.25
0,273,target,"[(1046, 762)]",[],[1],[0.85],horizontal,"(390.0, 262.0)",0.7,nan,0,7251.821,0,0.04,0.25
0,274,target,"[(1037, 781)]",[],[1],[0.5666666666666667],horizontal,"(390.0, 762.0)",0.6666666666666666,0.536,1,7256.184,1,0.02,0.25
0,275,target,"[(1046, 787)]",[],[1],[0.7166666666666667],horizontal,"(390.0, 762.0)",0.85,0.673,1,7260.696,1,0.0,0.25
0,276,target,"[(1037, 775)]","[(1023, 814)]",[1],[0.25],vertical,"(390.0, 262.0)",,"('bar', 0.262)",0,7266.128,0,0.0,0.25
0,277,catch,"[(1034, 807)]",[],[1],[],horizontal,"(890.0, 762.0)",1.6,nan,1,7268.776,1,0.0,0.25
0,278,catch,"[(1045, 762)]",[],[1],[],vertical,"(890.0, 262.0)",1.6,nan,1,7274.196,1,0.0,0.25
0,279,target,"[(1047, 768)]",[],[1],[0.7333333333333333],vertical,"(390.0, 762.0)",0.9833333333333333,0.694,1,7279.286,1,0.0,0.25
0,280,target,"[(1046, 775)]",[],[1],[0.6],horizontal,"(890.0, 262.0)",1.1666666666666667,0.564,1,7284.403,2,0.0,0.25
0,281,catch,"[(1037, 765)]",[],[1],[],vertical,"(890.0, 262.0)",1.6,nan,1,7289.709,2,0.0,0.25
0,282,target,"[(1036, 775)]",[],[1],[0.6333333333333333],horizontal,"(390.0, 762.0)",0.9666666666666667,0.595,1,7295.397,2,0.0,0.25
0,283,target,"[(1044, 774)]",[],[1],[0.5333333333333333],vertical,"(890.0, 762.0)",0.4,0.503,1,7300.797,2,0.0,0.25
0,284,target,"[(1045, 785)]",[],[1],[0.7],horizontal,"(890.0, 762.0)",0.5,0.661,1,7305.638,3,0.0,0.25
0,285,target,"[(1049, 781)]",[],[1],[0.48333333333333334],vertical,"(890.0, 262.0)",0.6166666666666667,0.443,1,7311.562,3,0.0,0.25
0,286,catch,"[(1043, 785)]",[],[1],[],horizontal,"(390.0, 262.0)",1.6,nan,1,7316.63,3,0.0,0.25
0,287,catch,"[(1049, 789)]",[],[1],[],vertical,"(890.0, 262.0)",,"('cti', 1.567),nan",0,7322.913,0,0.02,0.25
0,288,target,"[(1049, 787)]",[],[1],[0.85],vertical,"(390.0, 262.0)",0.6833333333333333,nan,0,7327.93,0,0.02,0.25
0,289,target,"[(1044, 806)]",[],[1],[0.45],horizontal,"(390.0, 262.0)",1.35,0.414,1,7332.452,1,0.02,0.25
0,290,catch,"[(1046, 779)]",[],[1],[],horizontal,"(890.0, 262.0)",1.6,nan,1,7342.684,1,0.02,0.25
0,291,target,"[(1058, 778)]",[],[1],[0.5833333333333334],horizontal,"(890.0, 762.0)",1.4833333333333334,0.551,1,7347.511,1,0.02,0.25
0,292,target,"[(1046, 797)]",[],[1],[0.5666666666666667],horizontal,"(390.0, 762.0)",0.6166666666666667,0.525,1,7353.057,2,0.02,0.25
0,293,catch,"[(1077, 808)]",[],[1],[],vertical,"(390.0, 262.0)",1.6,nan,1,7357.956,2,0.02,0.25
0,294,catch,"[(1046, 803)]",[],[1],[],vertical,"(390.0, 762.0)",1.6,nan,1,7363.122,2,0.02,0.25
0,295,target,"[(1046, 800)]",[],[1],[0.5333333333333333],horizontal,"(890.0, 262.0)",0.75,0.491,1,7368.396,2,0.02,0.25
0,296,target,"[(1045, 805)]",[],[1],[0.5166666666666666],horizontal,"(890.0, 762.0)",0.45,0.473,1,7374.112,3,0.02,0.25
0,297,target,"[(1044, 773)]",[],[1],[0.5166666666666666],horizontal,"(390.0, 262.0)",1.1833333333333333,0.471,1,7379.63,3,0.02,0.25
0,298,target,"[(1032, 776)]",[],[1],[0.4],vertical,"(390.0, 762.0)",1.2666666666666666,0.367,1,7385.331,3,0.02,0.25
0,299,target,"[(1055, 790)]",[],[1],[0.55],vertical,"(390.0, 762.0)",1.15,0.508,1,7391.364,3,0.02,0.25
0,300,target,"[(1051, 784)]",[],[1],[0.6],horizontal,"(390.0, 262.0)",1.1333333333333333,0.56,1,7397.443,3,0.02,0.25
0,301,target,"[(1050, 793)]",[],[1],[],horizontal,"(390.0, 262.0)",,"('cti', 1.093)",0,7403.364,0,0.04,0.25
0,302,catch,"[(1042, 805)]",[],[1],[],vertical,"(390.0, 762.0)",1.6,nan,1,7407.685,1,0.04,0.25
0,303,catch,"[(1051, 801)]",[],[1],[],vertical,"(390.0, 762.0)",1.6,nan,1,7415.077,1,0.04,0.25
0,304,target,"[(1052, 778)]",[],[1],[0.26666666666666666],vertical,"(390.0, 762.0)",1.5,0.227,1,7420.28,1,0.04,0.25
0,305,catch,"[(1054, 782)]",[],[1],[],horizontal,"(390.0, 762.0)",1.6,nan,1,7425.364,2,0.04,0.25
0,306,catch,"[(1053, 783)]",[],[1],[],vertical,"(390.0, 762.0)",1.6,nan,1,7430.831,2,0.04,0.25
0,307,target,"[(1047, 786)]",[],[1],[0.5166666666666666],vertical,"(390.0, 262.0)",0.6166666666666667,0.479,1,7436.414,2,0.04,0.25
0,308,target,"[(1065, 801)]",[],[1],[0.65],horizontal,"(890.0, 762.0)",0.95,0.61,1,7441.698,2,0.04,0.25
0,309,catch,"[(1072, 775)]",[],[1],[],vertical,"(390.0, 762.0)",1.6,nan,1,7447.364,3,0.04,0.25
0,310,target,"[(1058, 776)]",[],[1],[0.5],vertical,"(390.0, 762.0)",0.9166666666666666,0.457,1,7453.863,3,0.04,0.25
0,311,target,"[(1048, 771)]",[],[1],[0.5],vertical,"(890.0, 762.0)",0.7833333333333333,0.459,1,7459.468,3,0.04,0.25
0,312,target,"[(1058, 786)]",[],[1],[0.5],vertical,"(890.0, 762.0)",0.5166666666666666,0.458,1,7465.213,3,0.04,0.25
0,313,catch,"[(1058, 781)]",[],[1],[],horizontal,"(890.0, 762.0)",1.6,nan,1,7470.412,3,0.04,0.25
0,314,target,"[(1038, 790)]",[],[1],[0.6333333333333333],horizontal,"(390.0, 762.0)",0.65,0.591,1,7476.08,3,0.04,0.25
0,315,target,"[(1040, 785)]",[],[1],[0.6333333333333333],vertical,"(890.0, 762.0)",1.2,0.591,1,7481.364,3,0.04,0.25
0,316,catch,"[(1035, 791)]",[],[1],[],vertical,"(390.0, 762.0)",,"('cti', 1.536),nan",0,7487.389,0,0.06,0.25
0,317,target,"[(1054, 787)]",[],[1],[],horizontal,"(890.0, 262.0)",,"('cti', 0.507)",0,7492.139,0,0.08,0.25
0,318,target,"[(586, 584), (256, 699), (488, 898), (300, 624), (977, 627), (261, 657), (264, 578), (1037, 77), (490, 475), (912, 295), (991, 415), (1117, 667), (1049, 838)]",[],"[0, 0, 0, 0, 0, 0, 0, 0, 0, 0, 0, 0, 1]",[0.48333333333333334],horizontal,"(390.0, 262.0)",1.0166666666666666,0.445,1,7495.863,1,0.08,0.25
0,319,catch,"[(1042, 806)]",[],[1],[],vertical,"(890.0, 262.0)",1.6,nan,1,10817.074,1,0.08,0.25
0,320,target,"[(1050, 788)]",[],[1],[],horizontal,"(390.0, 262.0)",,"('cti', 1.293)",0,10822.225,0,0.1,0.25
0,321,target,"[(1033, 798)]",[],[1],[0.6],horizontal,"(890.0, 762.0)",0.6666666666666666,0.562,1,10827.108,1,0.1,0.25
0,322,target,"[(1033, 780)]",[],[1],[0.48333333333333334],horizontal,"(890.0, 262.0)",0.35,0.445,1,10831.658,1,0.1,0.25
0,323,target,"[(1033, 778)]",[],[1],[0.6],vertical,"(890.0, 762.0)",0.65,0.564,1,10835.742,1,0.1,0.25
0,324,target,"[(1041, 765)]",[],[1],[0.26666666666666666],vertical,"(390.0, 262.0)",1.3333333333333333,0.233,1,10840.237,2,0.1,0.25
0,325,target,"[(1060, 780)]",[],[1],[0.08333333333333333],horizontal,"(890.0, 762.0)",1.4666666666666666,0.053,0,10845.407,0,0.1,0.25
0,326,target,"[(1049, 773)]",[],[1],[0.48333333333333334],horizontal,"(890.0, 262.0)",1.3166666666666667,0.44,1,10850.139,1,0.1,0.25
0,327,target,"[(1021, 751), (1033, 782)]",[],"[0, 1]",[0.48333333333333334],vertical,"(890.0, 762.0)",1.4333333333333333,0.448,1,10855.691,1,0.1,0.25
0,328,target,"[(1049, 765)]",[],[1],[0.65],vertical,"(390.0, 762.0)",1.1666666666666667,0.617,1,10862.884,1,0.1,0.25
0,329,target,"[(1045, 769)]",[],[1],[0.6333333333333333],horizontal,"(890.0, 262.0)",0.5333333333333333,0.592,1,10868.323,2,0.1,0.25
0,330,target,"[(1052, 766)]",[],[1],[0.55],horizontal,"(890.0, 262.0)",0.6,0.512,1,10873.724,2,0.1,0.25
0,331,target,"[(1049, 766)]",[],[1],[0.75],horizontal,"(390.0, 262.0)",0.8,0.706,1,10878.924,2,0.1,0.25
0,332,target,"[(1069, 763)]",[],[1],[0.48333333333333334],horizontal,"(390.0, 762.0)",1.1166666666666667,0.444,1,10884.407,2,0.1,0.25
0,333,catch,"[(1033, 757)]",[],[1],[],vertical,"(390.0, 762.0)",1.6,nan,1,10889.925,3,0.1,0.25
0,334,catch,"[(1038, 758)]",[],[1],[],vertical,"(890.0, 762.0)",1.6,nan,1,10895.703,3,0.1,0.25
0,335,target,"[(1055, 761)]",[],[1],[0.6333333333333333],horizontal,"(390.0, 762.0)",0.6166666666666667,0.593,1,10901.392,3,0.1,0.25
0,336,target,"[(1047, 773)]",[],[1],[0.6333333333333333],horizontal,"(890.0, 762.0)",0.55,0.591,1,10906.452,3,0.1,0.25
0,337,target,"[(1037, 772)]",[],[1],[0.5],horizontal,"(890.0, 262.0)",0.6166666666666667,0.46,1,10911.974,3,0.08,0.25
0,338,target,"[(1036, 777)]",[],[1],[0.55],vertical,"(890.0, 762.0)",0.6833333333333333,0.507,1,10917.104,3,0.08,0.25
0,339,target,"[(1037, 761)]",[],[1],[0.7],horizontal,"(890.0, 762.0)",0.95,0.656,1,10922.756,3,0.08,0.25
0,340,target,"[(1061, 772)]",[],[1],[0.6166666666666667],vertical,"(390.0, 262.0)",0.4666666666666667,0.58,1,10928.375,3,0.08,0.25
0,341,catch,"[(1074, 786)]",[],[1],[],vertical,"(890.0, 262.0)",1.6,nan,1,10933.675,3,0.08,0.25
0,342,catch,"[(1048, 766)]",[],[1],[],vertical,"(390.0, 762.0)",1.6,nan,1,10939.242,3,0.08,0.25
0,343,target,"[(1038, 767)]",[],[1],[0.5833333333333334],vertical,"(890.0, 762.0)",0.8333333333333334,0.542,1,10945.242,3,0.08,0.25
0,344,target,"[(1051, 779)]",[],[1],[0.2833333333333333],vertical,"(890.0, 762.0)",1.5333333333333332,0.244,1,10951.066,3,0.08,0.25
0,345,target,"[(1049, 773)]",[],[1],[0.7166666666666667],horizontal,"(390.0, 762.0)",0.9666666666666667,0.676,1,10957.158,3,0.08,0.25
0,346,catch,"[(1053, 777)]",[],[1],[],vertical,"(390.0, 262.0)",1.6,nan,1,10962.903,3,0.08,0.25
0,347,target,"[(1049, 786)]",[],[1],[0.6666666666666666],horizontal,"(390.0, 262.0)",0.36666666666666664,0.626,1,10968.725,3,0.08,0.25
0,348,target,"[(1033, 776)]",[],[1],[0.6],vertical,"(390.0, 762.0)",0.48333333333333334,0.557,1,10973.825,3,0.08,0.25
0,349,target,"[(1038, 769)]",[],[1],[0.6166666666666667],vertical,"(390.0, 262.0)",0.9,0.577,1,10979.342,3,0.08,0.25
0,350,target,"[(1037, 765)]",[],[1],[0.48333333333333334],vertical,"(890.0, 762.0)",0.5166666666666666,0.439,1,10985.542,3,0.08,0.25
0,351,target,"[(1037, 768)]",[],[1],[0.5],horizontal,"(890.0, 762.0)",1.0833333333333333,0.46,1,10990.809,3,0.06,0.25
0,352,target,"[(1057, 782)]",[],[1],[0.6333333333333333],horizontal,"(890.0, 262.0)",0.7,0.589,1,10996.998,3,0.06,0.25
0,353,target,"[(1055, 769)]",[],[1],[0.5833333333333334],horizontal,"(890.0, 762.0)",0.75,0.541,1,11002.652,3,0.06,0.25
0,354,target,"[(1049, 774)]",[],[1],[0.6833333333333333],vertical,"(390.0, 262.0)",1.2666666666666666,0.648,1,11008.339,3,0.06,0.25
0,355,catch,"[(1017, 766)]",[],[1],[],vertical,"(390.0, 262.0)",,"('cti', 1.523),nan",0,11014.408,0,0.08,0.25
0,356,target,"[(1037, 792)]",[],[1],[0.31666666666666665],horizontal,"(890.0, 262.0)",0.9,0.28,1,11019.911,1,0.08,0.25
0,357,target,"[(1043, 799)]",[],[1],[0.36666666666666664],vertical,"(390.0, 762.0)",0.9,0.324,1,11024.752,1,0.08,0.25
0,358,catch,"[(1041, 786)]",[],[1],[],horizontal,"(390.0, 262.0)",1.6,nan,1,11030.019,1,0.08,0.25
0,359,catch,"[(1057, 781)]",[],[1],[],vertical,"(390.0, 762.0)",1.6,nan,1,11035.367,2,0.08,0.25
0,360,target,"[(1033, 791)]",[],[1],[0.26666666666666666],horizontal,"(390.0, 262.0)",1.4333333333333333,0.226,1,11041.074,2,0.08,0.25
0,361,target,"[(1060, 790)]",[],[1],[0.5333333333333333],horizontal,"(390.0, 262.0)",0.9,0.487,1,11046.948,2,0.08,0.25
0,362,target,"[(1057, 799)]",[],[1],[0.6166666666666667],horizontal,"(890.0, 762.0)",0.9,0.579,1,11052.334,2,0.08,0.25
0,363,target,"[(1052, 778)]",[],[1],[0.6333333333333333],vertical,"(390.0, 762.0)",0.5,0.589,1,11058.221,3,0.08,0.25
0,364,target,"[(1052, 773)]",[],[1],[0.48333333333333334],horizontal,"(890.0, 762.0)",1.05,0.44,1,11064.074,3,0.08,0.25
0,365,target,"[(1057, 765)]",[],[1],[0.6666666666666666],vertical,"(890.0, 762.0)",0.48333333333333334,0.618,1,11070.294,3,0.08,0.25
0,366,target,"[(1053, 790)]",[],[1],[0.6666666666666666],vertical,"(390.0, 762.0)",1.0833333333333333,0.624,1,11075.593,3,0.06,0.25
0,367,target,"[(1053, 763)]",[],[1],[0.6],vertical,"(890.0, 262.0)",0.6333333333333333,0.554,1,11081.499,3,0.04,0.25
0,368,catch,"[(1042, 767)]",[],[1],[],horizontal,"(390.0, 762.0)",1.6,nan,1,11087.091,3,0.04,0.25
0,369,target,"[(1053, 755)]",[],[1],[0.6666666666666666],vertical,"(890.0, 762.0)",0.8333333333333334,0.618,1,11093.008,3,0.04,0.25
0,370,target,"[(1057, 787)]",[],[1],[0.23333333333333334],vertical,"(890.0, 262.0)",1.4666666666666666,0.196,0,11098.625,0,0.02,0.25
0,371,target,"[(1025, 781)]",[],[1],[0.23333333333333334],vertical,"(390.0, 262.0)",1.0833333333333333,0.199,0,11103.663,0,0.02,0.25
0,372,catch,"[(1029, 773)]",[],[1],[],horizontal,"(890.0, 762.0)",1.6,nan,1,11108.209,1,0.02,0.25
0,373,catch,"[(1046, 778)]",[],[1],[],horizontal,"(390.0, 262.0)",,"('cti', 1.327),nan",0,11116.111,0,0.04,0.25
0,374,catch,"[(1053, 833)]",[],[1],[],vertical,"(390.0, 262.0)",1.6,nan,1,11120.542,1,0.04,0.25
0,375,target,"[(1035, 801)]",[],[1],[0.55],vertical,"(890.0, 262.0)",0.5166666666666666,0.509,1,11125.307,1,0.04,0.25
0,376,target,"[(1060, 772)]",[],[1],[0.5333333333333333],vertical,"(390.0, 262.0)",1.0166666666666666,0.488,1,11130.014,1,0.04,0.25
0,377,catch,"[(1024, 761)]",[],[1],[],horizontal,"(390.0, 762.0)",1.6,nan,1,11135.058,2,0.04,0.25
0,378,target,"[(1052, 770)]",[],[1],[0.5333333333333333],horizontal,"(390.0, 262.0)",1.4166666666666667,0.492,1,11140.964,2,0.04,0.25
0,379,target,"[(1055, 771)]",[],[1],[0.5],vertical,"(890.0, 262.0)",0.65,0.458,1,11146.694,2,0.04,0.25
0,380,target,"[(1049, 769)]",[],[1],[0.5666666666666667],horizontal,"(890.0, 762.0)",0.7333333333333333,0.522,1,11152.071,2,0.04,0.25
0,381,target,"[(1054, 790)]",[],[1],[0.5666666666666667],horizontal,"(390.0, 262.0)",1.2833333333333332,0.528,1,11157.292,3,0.04,0.25
0,382,catch,"[(1064, 792)]",[],[1],[0.03333333333333333],horizontal,"(390.0, 262.0)",1.6,"0.019,nan",0,11163.355,0,0.06,0.25
0,383,target,"[(1049, 803)]",[],[1],[0.5833333333333334],horizontal,"(890.0, 262.0)",0.45,0.538,1,11168.309,1,0.06,0.25
0,384,target,"[(1058, 781)]",[],[1],[0.2833333333333333],vertical,"(390.0, 762.0)",1.45,0.249,1,11172.653,1,0.06,0.25
0,385,catch,"[(1033, 798)]",[],[1],[],vertical,"(390.0, 762.0)",1.6,nan,1,11177.695,1,0.06,0.25
0,386,target,"[(1054, 787)]",[],[1],[0.35],vertical,"(390.0, 762.0)",1.4,0.314,1,11183.009,2,0.06,0.25
0,387,target,"[(1035, 772)]",[],[1],[0.5],horizontal,"(890.0, 762.0)",0.48333333333333334,0.457,1,11188.825,2,0.06,0.25
0,388,target,"[(1044, 777)]",[],[1],[0.6],vertical,"(890.0, 262.0)",0.5833333333333334,0.56,1,11194.126,2,0.06,0.25
0,389,target,"[(1036, 784)]",[],[1],[0.5666666666666667],horizontal,"(890.0, 262.0)",0.4166666666666667,0.523,1,11198.841,2,0.06,0.25
0,390,target,"[(1054, 775)]",[],[1],[0.6833333333333333],vertical,"(890.0, 262.0)",0.7833333333333333,0.643,1,11204.195,3,0.06,0.25
0,391,target,"[(1041, 803)]",[],[1],[0.4],horizontal,"(390.0, 262.0)",1.0333333333333332,0.356,1,11209.862,3,0.06,0.25
0,392,target,"[(1033, 770)]",[],[1],[0.65],vertical,"(890.0, 262.0)",1.0333333333333332,0.606,1,11215.956,3,0.06,0.25
0,393,target,"[(1051, 762)]",[],[1],[0.85],vertical,"(890.0, 762.0)",0.6,nan,0,11222.059,0,0.06,0.25
0,394,catch,"[(1033, 798)]",[],[1],[],vertical,"(890.0, 762.0)",1.6,nan,1,11226.441,1,0.06,0.25
0,395,target,"[(1047, 845)]",[],[1],[0.5333333333333333],vertical,"(390.0, 762.0)",1.0,0.488,1,11231.492,1,0.06,0.25
0,396,catch,"[(1055, 826)]",[],[1],[],vertical,"(890.0, 262.0)",1.6,nan,1,11459.66,1,0.06,0.25
0,397,catch,"[(1049, 794)]",[],[1],[],horizontal,"(390.0, 262.0)",,"('cti', 1.569),nan",0,11464.995,0,0.08,0.25
0,398,target,"[(1052, 830)]",[],[1],[0.6],vertical,"(890.0, 262.0)",1.1833333333333333,0.553,1,11470.042,1,0.08,0.25
0,399,catch,"[(1053, 757)]",[],[1],[],vertical,"(390.0, 762.0)",1.6,nan,1,11475.027,1,0.08,0.25
0,400,target,"[(1032, 761)]",[],[1],[0.6666666666666666],horizontal,"(390.0, 262.0)",0.7833333333333333,0.624,1,11480.061,1,0.08,0.25
0,401,catch,"[(1053, 769)]",[],[1],[],vertical,"(890.0, 762.0)",1.6,nan,1,11485.009,2,0.08,0.25
0,402,target,"[(1052, 766)]",[],[1],[0.85],horizontal,"(390.0, 262.0)",0.7166666666666667,nan,0,11490.361,0,0.08,0.25
0,403,target,"[(1029, 794)]",[],[1],[0.5333333333333333],vertical,"(390.0, 762.0)",1.4166666666666667,0.5,1,11494.976,1,0.08,0.25
0,404,catch,"[(1049, 756)]",[],[1],[],horizontal,"(390.0, 762.0)",1.6,nan,1,11500.844,1,0.08,0.25
0,405,target,"[(1050, 771)]",[],[1],[0.55],vertical,"(890.0, 262.0)",0.6666666666666666,0.51,1,11505.67,1,0.06,0.25
0,406,target,"[(1033, 766)]",[],[1],[0.7166666666666667],vertical,"(890.0, 262.0)",1.1833333333333333,0.673,1,11510.252,2,0.06,0.25
0,407,catch,"[(1029, 783)]",[],[1],[],horizontal,"(890.0, 762.0)",1.6,nan,1,11516.416,2,0.06,0.25
0,408,catch,"[(1055, 826)]",[],[1],[],horizontal,"(890.0, 262.0)",1.6,nan,1,11522.477,2,0.06,0.25
0,409,target,"[(1057, 766)]",[],[1],[0.65],horizontal,"(890.0, 262.0)",1.0333333333333332,0.613,1,11528.598,2,0.06,0.25
0,410,target,"[(1057, 766)]",[],[1],[0.5166666666666666],vertical,"(890.0, 262.0)",1.3166666666666667,0.471,1,11534.309,3,0.06,0.25
0,411,target,"[(1054, 780)]",[],[1],[0.5666666666666667],horizontal,"(390.0, 762.0)",0.6666666666666666,0.527,1,11540.855,3,0.06,0.25
0,412,target,"[(1046, 805)]",[],[1],[0.6333333333333333],horizontal,"(390.0, 262.0)",0.75,0.598,1,11546.11,3,0.06,0.25
0,413,target,"[(1057, 771)]",[],[1],[0.55],vertical,"(390.0, 262.0)",0.5,0.509,1,11551.758,3,0.06,0.25
0,414,catch,"[(1049, 774)]",[],[1],[],horizontal,"(390.0, 262.0)",1.6,nan,1,11556.981,3,0.06,0.25
0,415,target,"[(1047, 787)]",[],[1],[0.48333333333333334],vertical,"(890.0, 262.0)",1.2333333333333334,0.443,1,11562.688,3,0.06,0.25
0,416,target,"[(1057, 761)]",[],[1],[0.6833333333333333],vertical,"(390.0, 762.0)",0.3833333333333333,0.65,1,11569.108,3,0.06,0.25
0,417,target,"[(1047, 776)]",[],[1],[0.5833333333333334],vertical,"(390.0, 762.0)",0.85,0.544,1,11574.964,3,0.06,0.25
0,418,target,"[(1055, 772)]",[],[1],[0.48333333333333334],horizontal,"(890.0, 262.0)",0.7166666666666667,0.442,1,11580.901,3,0.06,0.25
0,419,catch,"[(1057, 770)]",[],[1],[],horizontal,"(390.0, 762.0)",,"('cti', 1.559),nan",0,11586.56,0,0.08,0.25
0,420,target,"[(1057, 793)]",[],[1],[0.55],horizontal,"(890.0, 762.0)",0.9,0.512,1,11591.411,1,0.08,0.25
0,421,target,"[(1049, 797)]",[],[1],[0.7833333333333333],horizontal,"(390.0, 262.0)",0.95,0.737,1,11596.403,1,0.08,0.25
0,422,target,"[(1053, 790)]",[],[1],[0.6],horizontal,"(890.0, 262.0)",0.4166666666666667,0.562,1,11602.355,1,0.08,0.25
0,423,target,"[(1039, 786)]",[],[1],[0.6666666666666666],horizontal,"(390.0, 762.0)",0.4,0.63,1,11607.193,2,0.06,0.25
0,424,catch,"[(1030, 805)]",[],[1],[],horizontal,"(390.0, 262.0)",1.6,nan,1,11612.667,2,0.06,0.25
0,425,catch,"[(1057, 791)]",[],[1],[],vertical,"(390.0, 762.0)",1.6,nan,1,11618.509,2,0.06,0.25
0,426,target,"[(1056, 776)]",[],[1],[0.55],horizontal,"(390.0, 762.0)",0.9,0.505,1,11624.105,2,0.06,0.25
0,427,target,"[(1049, 769)]",[],[1],[0.5833333333333334],vertical,"(390.0, 762.0)",0.4166666666666667,0.538,1,11629.756,3,0.06,0.25
0,428,target,"[(1056, 772)]",[],[1],[0.5333333333333333],horizontal,"(390.0, 262.0)",0.5666666666666667,0.491,1,11634.853,3,0.06,0.25
0,429,catch,"[(1057, 799)]",[],[1],[],horizontal,"(890.0, 262.0)",1.6,nan,1,11640.36,3,0.06,0.25
0,430,target,"[(1055, 778)]",[],[1],[0.6333333333333333],vertical,"(890.0, 762.0)",0.8166666666666667,0.586,1,11646.55,3,0.06,0.25
0,431,target,"[(1057, 786)]",[],[1],[0.35],horizontal,"(890.0, 762.0)",1.3666666666666667,0.316,1,11652.633,3,0.06,0.25
0,432,target,"[(1057, 781)]",[],[1],[0.5333333333333333],horizontal,"(890.0, 762.0)",1.3,0.491,1,11659.052,3,0.04,0.25
0,433,catch,"[(1038, 770)]",[],[1],[],vertical,"(390.0, 762.0)",1.6,nan,1,11664.885,3,0.04,0.25
0,434,target,"[(1057, 770)]",[],[1],[0.6],horizontal,"(890.0, 762.0)",1.1333333333333333,0.564,1,11671.224,3,0.04,0.25
0,435,target,"[(1057, 772)]",[],[1],[0.55],vertical,"(390.0, 262.0)",0.5333333333333333,0.511,1,11677.608,3,0.04,0.25
0,436,catch,"[(1029, 762)]",[],[1],[],vertical,"(390.0, 762.0)",1.6,nan,1,11683.001,3,0.04,0.25
0,437,catch,"[(1055, 770)]",[],[1],[],vertical,"(390.0, 262.0)",1.6,nan,1,11688.935,3,0.04,0.25
0,438,target,"[(1054, 782)]",[],[1],[0.36666666666666664],horizontal,"(890.0, 762.0)",1.4333333333333333,0.326,1,11695.165,3,0.04,0.25
0,439,target,"[(1052, 795)]",[],[1],[0.6666666666666666],vertical,"(890.0, 762.0)",1.4,0.619,1,11701.016,3,0.04,0.25
0,440,catch,"[(1055, 782)]",[],[1],[],vertical,"(390.0, 762.0)",1.6,nan,1,11707.169,3,0.04,0.25
0,441,target,"[(1035, 766)]",[],[1],[0.5333333333333333],vertical,"(390.0, 262.0)",0.5666666666666667,0.498,1,11713.36,3,0.04,0.25
0,442,catch,"[(1052, 784)]",[],[1],[],horizontal,"(890.0, 262.0)",,"('cti', 1.15),nan",0,11719.076,0,0.06,0.25
0,443,target,"[(1025, 803)]",[],[1],[0.85],vertical,"(890.0, 262.0)",0.75,nan,0,11723.608,0,0.06,0.25
0,444,target,"[(1033, 817)]",[],[1],[0.5666666666666667],horizontal,"(390.0, 762.0)",0.4166666666666667,0.524,1,11869.059,1,0.06,0.25
0,445,target,"[(1038, 786)]",[],[1],[0.26666666666666666],horizontal,"(890.0, 262.0)",1.3833333333333333,0.232,1,11874.06,1,0.06,0.25
0,446,target,"[(1030, 796)]",[],[1],[0.5833333333333334],horizontal,"(390.0, 762.0)",0.5166666666666666,0.539,1,11879.642,1,0.06,0.25
0,447,target,"[(1033, 789)]",[],[1],[0.36666666666666664],horizontal,"(390.0, 262.0)",1.3666666666666667,0.325,1,11884.194,2,0.04,0.25
0,448,target,"[(1049, 793)]",[],[1],[0.7166666666666667],horizontal,"(890.0, 762.0)",1.1166666666666667,0.674,1,11890.145,2,0.04,0.25
0,449,target,"[(1032, 791)]",[],[1],[0.85],vertical,"(390.0, 762.0)",0.65,nan,0,11895.79,0,0.04,0.25
0,450,target,"[(1040, 808)]",[],[1],[0.6],vertical,"(890.0, 762.0)",0.9,0.559,1,11899.951,1,0.04,0.25
0,451,catch,"[(1030, 795)]",[],[1],[],vertical,"(390.0, 262.0)",1.6,nan,1,11905.559,1,0.04,0.25
0,452,target,"[(1072, 773)]",[],[1],[0.55],horizontal,"(390.0, 262.0)",1.2,0.508,1,11910.978,1,0.04,0.25
0,453,target,"[(1048, 776)]",[],[1],[0.6],horizontal,"(390.0, 762.0)",1.2166666666666666,0.554,1,11916.443,2,0.04,0.25
0,454,target,"[(1085, 790)]",[],[1],[0.5833333333333334],horizontal,"(390.0, 262.0)",0.36666666666666664,0.541,1,11922.02,2,0.04,0.25
0,455,catch,"[(1045, 787)]",[],[1],[],horizontal,"(890.0, 262.0)",1.6,nan,1,11926.588,2,0.04,0.25
0,456,catch,"[(1038, 792)]",[],[1],[],vertical,"(390.0, 762.0)",1.6,nan,1,11932.232,2,0.04,0.25
0,457,target,"[(1036, 781)]",[],[1],[0.55],vertical,"(890.0, 262.0)",1.1333333333333333,0.515,1,11937.861,3,0.04,0.25
0,458,target,"[(1049, 782)]",[],[1],[0.6833333333333333],horizontal,"(890.0, 262.0)",0.35,0.64,1,11943.961,3,0.04,0.25
0,459,target,"[(1050, 801)]",[],[1],[0.7],horizontal,"(390.0, 762.0)",0.8833333333333333,0.668,1,11949.529,3,0.04,0.25
0,460,target,"[(1067, 790)]",[],[1],[0.5333333333333333],vertical,"(890.0, 262.0)",0.35,0.495,1,11955.493,3,0.04,0.25
0,461,target,"[(1052, 785)]",[],[1],[0.85],vertical,"(390.0, 762.0)",0.3833333333333333,nan,0,11961.153,0,0.04,0.25
0,462,catch,"[(1033, 779)]",[],[1],[],horizontal,"(390.0, 262.0)",1.6,nan,1,11965.895,1,0.04,0.25
0,463,catch,"[(1069, 793)]",[],[1],[],vertical,"(890.0, 262.0)",1.6,nan,1,11971.377,1,0.04,0.25
0,464,catch,"[(1051, 790)]",[],[1],[],horizontal,"(390.0, 262.0)",1.6,nan,1,11976.844,1,0.04,0.25
0,465,target,"[(1029, 785)]",[],[1],[0.55],horizontal,"(890.0, 762.0)",0.9,0.514,1,11982.181,2,0.04,0.25
0,466,target,"[(1052, 767)]",[],[1],[0.85],horizontal,"(890.0, 762.0)",0.6333333333333333,nan,0,11987.915,0,0.04,0.25
0,467,catch,"[(1027, 791)]",[],[1],[],horizontal,"(390.0, 262.0)",1.6,nan,1,11992.277,1,0.04,0.25
0,468,target,"[(1052, 768)]",[],[1],[0.6],horizontal,"(390.0, 262.0)",1.2666666666666666,0.559,1,11997.734,1,0.04,0.25
0,469,catch,"[(1057, 782)]",[],[1],[],vertical,"(390.0, 262.0)",1.6,nan,1,12003.26,1,0.02,0.25
0,470,target,"[(1062, 787)]",[],[1],[0.48333333333333334],horizontal,"(890.0, 262.0)",1.25,0.447,1,12008.522,2,0.02,0.25
0,471,target,"[(1049, 778)]",[],[1],[0.6833333333333333],vertical,"(890.0, 262.0)",0.4,0.647,1,12014.35,2,0.02,0.25
0,472,target,"[(1021, 793)]",[],[1],[0.26666666666666666],vertical,"(390.0, 262.0)",1.5,0.23,1,12019.828,2,0.02,0.25
0,473,target,"[(1054, 781)]",[],[1],[0.5166666666666666],horizontal,"(890.0, 762.0)",0.7666666666666666,0.475,1,12026.477,2,0.02,0.25
0,474,target,"[(1054, 781)]",[],[1],[0.6166666666666667],vertical,"(390.0, 262.0)",0.8833333333333333,0.574,1,12031.915,3,0.02,0.25
0,475,target,"[(1057, 749), (1033, 769)]",[],"[0, 1]",[0.6166666666666667],vertical,"(390.0, 262.0)",1.1333333333333333,0.577,1,12038.236,3,0.02,0.25
0,476,target,"[(1055, 793)]",[],[1],[0.5166666666666666],horizontal,"(390.0, 762.0)",1.0166666666666666,0.477,1,12046.062,3,0.02,0.25
0,477,target,"[(1034, 764)]",[],[1],[0.6666666666666666],horizontal,"(390.0, 262.0)",1.3333333333333333,0.626,1,12051.572,3,0.02,0.25
0,478,target,"[(1065, 782)]",[],[1],[0.5666666666666667],vertical,"(390.0, 762.0)",0.45,0.523,1,12057.729,3,0.02,0.25
0,479,target,"[(1034, 760)]",[],[1],[0.4666666666666667],horizontal,"(390.0, 262.0)",1.4,0.426,1,12062.979,3,0.02,0.25
0,480,catch,"[(1055, 790)]",[],[1],[],horizontal,"(890.0, 262.0)",1.6,nan,1,12068.977,3,0.02,0.25
0,481,target,"[(1052, 783)]",[],[1],[0.48333333333333334],horizontal,"(390.0, 262.0)",0.5833333333333334,0.443,1,12075.428,3,0.02,0.25
0,482,target,"[(1052, 782)]",[],[1],[0.5666666666666667],horizontal,"(890.0, 762.0)",0.9666666666666667,0.524,1,12081.055,3,0.02,0.25
0,483,target,"[(1029, 857)]",[],[1],[0.48333333333333334],vertical,"(890.0, 262.0)",1.05,0.443,1,12087.335,3,0.02,0.25
0,484,target,"[(1052, 776)]",[],[1],[0.7166666666666667],horizontal,"(390.0, 262.0)",0.7833333333333333,0.674,1,12096.094,3,0.02,0.25
0,485,target,"[(1031, 791)]",[],[1],[0.55],horizontal,"(890.0, 762.0)",1.0833333333333333,0.512,1,12101.895,3,0.02,0.25
0,486,target,"[(1054, 815)]",[],[1],[0.6],vertical,"(390.0, 262.0)",1.3,0.559,1,12108.178,3,0.02,0.25
0,487,catch,"[(1034, 789)]",[],[1],[],vertical,"(390.0, 262.0)",1.6,nan,1,12114.5,3,0.02,0.25
0,488,target,"[(1057, 775)]",[],[1],[0.85],vertical,"(890.0, 262.0)",0.43333333333333335,nan,0,12120.762,0,0.02,0.25
0,489,catch,"[(1030, 791)]",[],[1],[],vertical,"(890.0, 262.0)",1.6,nan,1,12125.512,1,0.02,0.25
0,490,target,"[(1033, 809)]",[],[1],[0.5166666666666666],vertical,"(390.0, 762.0)",0.7833333333333333,0.478,1,12130.862,1,0.02,0.25
0,491,target,"[(1045, 822)]",[],[1],[0.5833333333333334],horizontal,"(890.0, 762.0)",0.7333333333333333,0.545,1,12246.479,1,0.02,0.25
0,492,catch,"[(1055, 777)]",[],[1],[],vertical,"(390.0, 262.0)",1.6,nan,1,12251.862,2,0.0,0.25
0,493,target,"[(1061, 788)]",[],[1],[0.85],vertical,"(890.0, 262.0)",0.5333333333333333,nan,0,12257.364,0,0.0,0.25
0,494,target,"[(1037, 799)]",[],[1],[0.5833333333333334],vertical,"(890.0, 762.0)",0.8666666666666667,0.541,1,12261.75,1,0.0,0.25
0,495,catch,"[(1053, 789)]",[],[1],[],horizontal,"(890.0, 262.0)",1.6,nan,1,12267.195,1,0.0,0.25
0,496,target,"[(1069, 790)]",[],[1],[0.5166666666666666],horizontal,"(890.0, 262.0)",0.4,0.473,1,12271.979,1,0.0,0.25
0,497,target,"[(1053, 787)]",[],[1],[0.5666666666666667],horizontal,"(890.0, 762.0)",1.05,0.525,1,12276.895,2,0.0,0.25
0,498,target,"[(1052, 776)]",[],[1],[0.5166666666666666],vertical,"(390.0, 262.0)",0.9666666666666667,0.471,1,12282.854,2,0.0,0.25
0,499,target,"[(1053, 769)]",[],[1],[0.5833333333333334],vertical,"(390.0, 262.0)",0.5333333333333333,0.542,1,12287.929,2,0.0,0.25
0,500,target,"[(1036, 771)]",[],[1],[0.5166666666666666],vertical,"(890.0, 262.0)",0.5666666666666667,0.483,1,12293.085,2,0.0,0.25
0,501,target,"[(1052, 764)]",[],[1],[0.5166666666666666],vertical,"(890.0, 262.0)",0.7166666666666667,0.472,1,12298.317,3,0.0,0.25
0,502,target,"[(1052, 789)]",[],[1],[0.7333333333333333],horizontal,"(390.0, 762.0)",1.0166666666666666,0.692,1,12304.31,3,0.0,0.25
0,503,catch,"[(1038, 774)]",[],[1],[],vertical,"(890.0, 762.0)",1.6,nan,1,12310.157,3,0.0,0.25
0,504,catch,"[(1033, 765)]",[],[1],[],vertical,"(890.0, 762.0)",1.6,nan,1,12316.043,3,0.0,0.25
0,505,target,"[(1042, 786)]",[],[1],[0.85],vertical,"(890.0, 762.0)",0.6666666666666666,nan,0,12321.995,0,0.0,0.25
0,506,target,"[(1025, 754)]",[],[1],[0.5333333333333333],horizontal,"(390.0, 262.0)",0.8,0.492,1,12326.93,1,0.0,0.25
0,507,target,"[(1052, 783)]",[],[1],[0.5666666666666667],horizontal,"(890.0, 762.0)",1.3666666666666667,0.529,1,12332.004,1,0.0,0.25
0,508,target,"[(1045, 768)]",[],[1],[0.5833333333333334],horizontal,"(390.0, 262.0)",1.5333333333333332,0.541,1,12337.264,1,0.0,0.25
0,509,catch,"[(1041, 792)]",[],[1],[],horizontal,"(890.0, 262.0)",1.6,nan,1,12342.562,2,0.0,0.25
0,510,target,"[(1052, 769)]",[],[1],[0.65],horizontal,"(390.0, 762.0)",0.5,0.602,1,12348.142,2,0.0,0.25
0,511,target,"[(1072, 781)]",[],[1],[0.5166666666666666],horizontal,"(390.0, 762.0)",1.4,0.472,1,12353.146,2,0.0,0.25
0,512,target,"[(1055, 765)]",[],[1],[0.4166666666666667],horizontal,"(390.0, 762.0)",1.45,0.375,1,12358.756,2,0.0,0.25
0,513,catch,"[(1069, 805)]",[],[1],[],vertical,"(390.0, 762.0)",1.6,nan,1,12365.036,3,0.0,0.25
0,514,target,"[(1065, 786)]",[],[1],[0.5166666666666666],horizontal,"(390.0, 262.0)",1.4,0.475,1,12371.393,3,0.0,0.25
0,515,target,"[(1057, 778)]",[],[1],[0.55],horizontal,"(390.0, 762.0)",1.0,0.511,1,12377.773,3,0.0,0.25
0,516,target,"[(1060, 774)]",[],[1],[0.65],vertical,"(890.0, 762.0)",0.4,0.609,1,12383.565,3,0.0,0.25
0,517,catch,"[(1055, 792)]",[],[1],[],vertical,"(890.0, 262.0)",1.6,nan,1,12388.928,3,0.0,0.25
0,518,target,"[(1061, 768)]",[],[1],[0.3],vertical,"(390.0, 762.0)",1.5333333333333332,0.261,1,12395.061,3,0.0,0.25
0,519,target,"[(1050, 782)]",[],[1],[0.5333333333333333],vertical,"(890.0, 762.0)",1.35,0.492,1,12401.423,3,0.0,0.25
0,520,catch,"[(1022, 757)]",[],[1],[],horizontal,"(890.0, 262.0)",1.6,nan,1,12407.532,3,0.0,0.25
0,521,target,"[(1069, 799)]",[],[1],[0.5666666666666667],horizontal,"(390.0, 262.0)",0.6,0.525,1,12413.595,3,0.0,0.25
0,522,catch,"[(1072, 764)]",[],[1],[],horizontal,"(890.0, 762.0)",1.6,nan,1,12419.472,3,0.0,0.25
0,523,target,"[(1061, 766)]",[],[1],[0.5],horizontal,"(890.0, 262.0)",0.36666666666666664,0.461,1,12425.499,3,0.0,0.25
0,524,target,"[(1054, 778)]",[],[1],[0.85],vertical,"(890.0, 762.0)",0.9166666666666666,nan,0,12431.163,0,0.0,0.25
0,525,target,"[(1046, 830)]",[],[1],[0.6166666666666667],horizontal,"(390.0, 762.0)",0.45,0.573,1,12436.095,1,0.0,0.25
0,526,target,"[(1056, 788)]",[],[1],[0.6],horizontal,"(390.0, 762.0)",1.1,0.555,1,12451.769,1,0.0,0.25
0,527,target,"[(1029, 790)]",[],[1],[0.6333333333333333],vertical,"(890.0, 262.0)",0.45,0.586,1,12456.846,1,0.0,0.25
0,528,target,"[(1050, 794)]",[],[1],[0.5],horizontal,"(390.0, 262.0)",0.5833333333333334,0.463,1,12461.729,2,0.0,0.25
0,529,catch,"[(1033, 780)]",[],[1],[],vertical,"(890.0, 262.0)",1.6,nan,1,12466.683,2,0.0,0.25
0,530,target,"[(1061, 784)]",[],[1],[0.55],vertical,"(890.0, 262.0)",1.1166666666666667,0.505,1,12472.202,2,0.0,0.25
0,531,target,"[(1053, 768)]",[],[1],[0.31666666666666665],horizontal,"(890.0, 262.0)",1.4166666666666667,0.277,1,12478.195,2,0.0,0.25
0,532,catch,"[(1056, 786)]",[],[1],[],vertical,"(390.0, 262.0)",1.6,nan,1,12483.978,3,0.0,0.25
0,533,target,"[(1052, 766)]",[],[1],[0.7],vertical,"(890.0, 762.0)",0.45,0.653,1,12490.062,3,0.0,0.25
0,534,target,"[(1059, 788)]",[],[1],[0.48333333333333334],vertical,"(390.0, 762.0)",1.3333333333333333,0.446,1,12495.679,3,0.0,0.25
0,535,target,"[(1053, 782)]",[],[1],[0.5166666666666666],vertical,"(390.0, 262.0)",0.45,0.476,1,12501.897,3,0.0,0.25
0,536,catch,"[(1058, 790)]",[],[1],[],horizontal,"(390.0, 762.0)",,"('cti', 1.364),nan",0,12507.13,0,0.02,0.25
0,537,target,"[(1056, 791)]",[],[1],[0.6166666666666667],vertical,"(390.0, 262.0)",0.85,0.573,1,12511.913,1,0.02,0.25
0,538,target,"[(1033, 812)]",[],[1],[0.5833333333333334],horizontal,"(390.0, 762.0)",0.7666666666666666,0.541,1,12516.767,1,0.02,0.25
0,539,catch,"[(1057, 788)]",[],[1],[],horizontal,"(890.0, 762.0)",1.6,nan,1,12521.816,1,0.02,0.25
0,540,catch,"[(1044, 773)]",[],[1],[],vertical,"(890.0, 262.0)",1.6,nan,1,12527.297,2,0.02,0.25
0,541,target,"[(1061, 796)]",[],[1],[0.35],vertical,"(390.0, 762.0)",1.4166666666666667,0.312,1,12532.866,2,0.02,0.25
0,542,catch,"[(1053, 794)]",[],[1],[],horizontal,"(890.0, 262.0)",1.6,nan,1,12538.746,2,0.02,0.25
0,543,target,"[(1037, 771)]",[],[1],[0.5333333333333333],vertical,"(890.0, 762.0)",0.7166666666666667,0.49,1,12544.242,2,0.02,0.25
0,544,target,"[(1068, 798)]",[],[1],[0.6166666666666667],vertical,"(390.0, 262.0)",1.15,0.573,1,12549.796,3,0.02,0.25
0,545,target,"[(1032, 791)]",[],[1],[0.1],horizontal,"(390.0, 262.0)",1.3,0.066,0,12556.097,0,0.02,0.25
0,546,target,"[(1030, 793)]",[],[1],[0.85],vertical,"(890.0, 762.0)",0.3833333333333333,nan,0,12560.912,0,0.02,0.25
0,547,target,"[(1038, 803)]",[],[1],[0.5666666666666667],vertical,"(890.0, 762.0)",0.75,0.535,1,12568.891,1,0.02,0.25
0,548,target,"[(1029, 798)]",[],[1],[0.55],vertical,"(390.0, 262.0)",0.4666666666666667,0.51,1,12574.246,1,0.02,0.25
0,549,target,"[(1052, 795)]",[],[1],[0.6166666666666667],vertical,"(390.0, 762.0)",1.0,0.575,1,12578.978,1,0.02,0.25
0,550,target,"[(1069, 796)]",[],[1],[0.5333333333333333],vertical,"(390.0, 262.0)",0.95,0.496,1,12583.82,2,0.02,0.25
0,551,target,"[(1045, 788)]",[],[1],[0.6833333333333333],horizontal,"(890.0, 262.0)",0.5166666666666666,0.639,1,12589.403,2,0.02,0.25
0,552,target,"[(1057, 789)]",[],[1],[0.6833333333333333],vertical,"(390.0, 262.0)",0.8833333333333333,0.637,1,12594.696,2,0.02,0.25
0,553,target,"[(1052, 789)]",[],[1],[0.5],horizontal,"(890.0, 262.0)",0.9666666666666667,0.457,1,12600.03,2,0.02,0.25
0,554,target,"[(1049, 793)]",[],[1],[0.55],horizontal,"(390.0, 762.0)",0.6333333333333333,0.51,1,12605.389,3,0.02,0.25
0,555,target,"[(1037, 776)]",[],[1],[0.5166666666666666],horizontal,"(390.0, 762.0)",1.35,0.48,1,12611.163,3,0.02,0.25
0,556,target,"[(1056, 771)]",[],[1],[0.3833333333333333],vertical,"(390.0, 262.0)",1.4666666666666666,0.342,1,12617.512,3,0.02,0.25
0,557,target,"[(1052, 774)]",[],[1],[0.5333333333333333],horizontal,"(890.0, 262.0)",1.3166666666666667,0.492,1,12623.796,3,0.02,0.25
0,558,target,"[(1039, 774)]",[],[1],[0.35],horizontal,"(890.0, 762.0)",1.4666666666666666,0.312,1,12630.186,3,0.02,0.25
0,559,target,"[(1060, 786)]",[],[1],[0.5333333333333333],horizontal,"(390.0, 262.0)",0.45,0.494,1,12636.512,3,0.02,0.25
0,560,target,"[(1061, 771)]",[],[1],[0.5833333333333334],vertical,"(390.0, 762.0)",0.6833333333333333,0.542,1,12642.147,3,0.02,0.25
0,561,target,"[(1052, 798)]",[],[1],[0.65],horizontal,"(390.0, 762.0)",0.8,0.618,1,12648.029,3,0.02,0.25
0,562,catch,"[(1058, 796)]",[],[1],[],vertical,"(390.0, 262.0)",1.6,nan,1,12653.863,3,0.02,0.25
0,563,target,"[(1053, 780)]",[],[1],[0.7166666666666667],vertical,"(390.0, 762.0)",0.7,0.676,1,12659.411,3,0.02,0.25
0,564,target,"[(1031, 786)]",[],[1],[0.21666666666666667],horizontal,"(890.0, 262.0)",1.4833333333333334,0.18,0,12665.396,0,0.02,0.25
0,565,target,"[(1052, 792)]",[],[1],[0.4666666666666667],horizontal,"(890.0, 762.0)",1.35,0.426,1,12670.53,1,0.02,0.25
0,566,target,"[(1055, 761)]",[],[1],[0.5166666666666666],vertical,"(890.0, 262.0)",0.8166666666666667,0.482,1,12675.847,1,0.02,0.25
0,567,target,"[(1069, 796)]",[],[1],[0.5833333333333334],horizontal,"(390.0, 762.0)",0.9666666666666667,0.541,1,12680.962,1,0.02,0.25
0,568,target,"[(1052, 786)]",[],[1],[0.5666666666666667],vertical,"(890.0, 762.0)",0.95,0.516,1,12686.121,2,0.02,0.25
0,569,target,"[(1065, 786)]",[],[1],[0.55],horizontal,"(390.0, 762.0)",1.0,0.511,1,12691.523,2,0.02,0.25
0,570,target,"[(1045, 802)]",[],[1],[0.6166666666666667],vertical,"(890.0, 762.0)",1.15,0.577,1,12697.576,2,0.02,0.25
0,571,catch,"[(1051, 776)]",[],[1],[],vertical,"(390.0, 262.0)",1.6,nan,1,12703.63,2,0.02,0.25
0,572,target,"[(1044, 786)]",[],[1],[0.4666666666666667],horizontal,"(890.0, 762.0)",1.5,0.427,1,12709.397,3,0.02,0.25
0,573,target,"[(1043, 801)]",[],[1],[0.5833333333333334],vertical,"(390.0, 762.0)",0.43333333333333335,0.541,1,12715.647,3,0.02,0.25
0,574,target,"[(1065, 796)]",[],[1],[0.85],horizontal,"(890.0, 762.0)",0.6833333333333333,nan,0,12721.18,0,0.02,0.25
0,575,target,"[(1028, 761)]",[],[1],[0.6166666666666667],vertical,"(890.0, 762.0)",1.1166666666666667,0.578,1,12725.495,1,0.02,0.25
0,576,catch,"[(1050, 781)]",[],[1],[],vertical,"(890.0, 762.0)",1.6,nan,1,12731.023,1,0.02,0.25
0,577,target,"[(1041, 771)]",[],[1],[0.55],horizontal,"(390.0, 762.0)",0.9,0.512,1,12735.996,1,0.02,0.25
0,578,target,"[(1050, 803)]",[],[1],[0.5833333333333334],horizontal,"(390.0, 262.0)",0.6833333333333333,0.538,1,12740.747,2,0.02,0.25
0,579,target,"[(1071, 798)]",[],[1],[0.6333333333333333],vertical,"(890.0, 762.0)",0.5333333333333333,0.601,1,12746.137,2,0.02,0.25
0,580,target,"[(1044, 799)]",[],[1],[0.65],vertical,"(890.0, 762.0)",0.8,0.607,1,12751.33,2,0.02,0.25
0,581,target,"[(1029, 792)]",[],[1],[0.85],horizontal,"(890.0, 262.0)",0.75,nan,0,12756.813,0,0.02,0.25
0,582,target,"[(1022, 761)]",[],[1],[0.6],horizontal,"(390.0, 762.0)",0.4,0.567,1,12761.544,1,0.02,0.25
0,583,catch,"[(1044, 774)]",[],[1],[],horizontal,"(890.0, 262.0)",1.6,nan,1,12766.574,1,0.02,0.25
0,584,target,"[(1057, 799)]",[],[1],[0.85],horizontal,"(390.0, 262.0)",0.5666666666666667,nan,0,12771.689,0,0.02,0.25
0,585,target,"[(1047, 793)]",[],[1],[0.5666666666666667],vertical,"(890.0, 762.0)",0.6,0.53,1,12776.346,1,0.02,0.25
0,586,target,"[(1049, 789)]",[],[1],[0.6666666666666666],vertical,"(390.0, 762.0)",0.8333333333333334,0.625,1,12781.497,1,0.0,0.25
0,587,catch,"[(1072, 790)]",[],[1],[],vertical,"(890.0, 262.0)",1.6,nan,1,12786.255,1,0.0,0.25
0,588,target,"[(1048, 776)]",[],[1],[0.55],horizontal,"(390.0, 262.0)",1.2,0.511,1,12791.912,2,0.0,0.25
0,589,target,"[(1049, 777)]",[],[1],[0.55],horizontal,"(390.0, 262.0)",1.2666666666666666,0.508,1,12797.913,2,0.0,0.25
0,590,catch,"[(1052, 778)]",[],[1],[],horizontal,"(390.0, 262.0)",1.6,nan,1,12803.949,2,0.0,0.25
0,591,target,"[(1061, 798)]",[],[1],[0.2],horizontal,"(890.0, 762.0)",1.5,0.169,0,12809.472,0,0.0,0.25
0,592,catch,"[(1041, 789)]",[],[1],[],vertical,"(890.0, 762.0)",1.6,nan,1,12814.749,1,0.0,0.25
0,593,target,"[(1063, 768)]",[],[1],[0.5166666666666666],horizontal,"(890.0, 762.0)",0.95,0.477,1,12820.059,1,0.0,0.25
0,594,catch,"[(1039, 773)]",[],[1],[],vertical,"(390.0, 262.0)",1.6,nan,1,12825.162,1,0.0,0.25
0,595,target,"[(1056, 798)]",[],[1],[0.5],vertical,"(890.0, 262.0)",0.8666666666666667,0.467,1,12830.106,2,0.0,0.25
0,596,target,"[(1077, 799)]",[],[1],[0.43333333333333335],vertical,"(890.0, 762.0)",1.3,0.399,1,12835.814,2,0.0,0.25
0,597,target,"[(1047, 789)]",[],[1],[0.4166666666666667],vertical,"(890.0, 262.0)",1.3333333333333333,0.375,1,12841.963,2,0.0,0.25
0,598,target,"[(1071, 837)]",[],[1],[0.48333333333333334],horizontal,"(390.0, 262.0)",1.4166666666666667,0.448,1,12847.959,2,0.0,0.25
0,599,target,"[(1049, 790)]",[],[1],[0.3333333333333333],horizontal,"(890.0, 762.0)",1.2833333333333332,0.297,1,13173.852,3,0.0,0.25
0,600,target,"[(1068, 799)]",[],[1],[0.5333333333333333],horizontal,"(890.0, 262.0)",0.9833333333333333,0.49,1,13180.031,3,0.0,0.25
0,601,target,"[(1045, 779)]",[],[1],[0.5833333333333334],horizontal,"(890.0, 762.0)",1.4,0.539,1,13185.966,3,0.0,0.25
0,602,target,"[(1047, 781)]",[],[1],[0.31666666666666665],horizontal,"(890.0, 762.0)",1.5333333333333332,0.282,1,13192.304,3,0.0,0.25
0,603,catch,"[(1040, 811)]",[],[1],[],vertical,"(390.0, 262.0)",,"('cti', 1.475),nan",0,13198.848,0,0.02,0.25
0,604,catch,"[(1038, 830)]",[],[1],[],horizontal,"(890.0, 762.0)",1.6,nan,1,13203.781,1,0.02,0.25
0,605,target,"[(1045, 760)]",[],[1],[0.6666666666666666],vertical,"(390.0, 262.0)",0.7833333333333333,0.626,1,13211.101,1,0.02,0.25
0,606,target,"[(1045, 784)]",[],[1],[0.6166666666666667],horizontal,"(890.0, 762.0)",0.6,0.579,1,13216.015,1,0.02,0.25
0,607,target,"[(1049, 801)]",[],[1],[0.6],horizontal,"(390.0, 762.0)",0.35,0.555,1,13220.763,2,0.02,0.25
0,608,target,"[(1049, 793)]",[],[1],[0.45],vertical,"(390.0, 262.0)",1.3333333333333333,0.412,1,13225.965,2,0.02,0.25
0,609,target,"[(1078, 808)]",[],[1],[0.6333333333333333],vertical,"(390.0, 762.0)",0.7,0.596,1,13231.427,2,0.02,0.25
0,610,target,"[(1049, 784)]",[],[1],[0.65],horizontal,"(390.0, 762.0)",0.7333333333333333,0.607,1,13236.532,2,0.02,0.25
0,611,target,"[(1062, 802)]",[],[1],[0.6],horizontal,"(390.0, 762.0)",0.9833333333333333,0.559,1,13242.199,3,0.02,0.25
0,612,target,"[(1073, 781)]",[],[1],[0.5166666666666666],horizontal,"(890.0, 762.0)",1.0666666666666667,0.476,1,13248.865,3,0.02,0.25
0,613,target,"[(1065, 785)]",[],[1],[0.48333333333333334],vertical,"(890.0, 762.0)",1.0666666666666667,0.448,1,13254.714,3,0.02,0.25
0,614,target,"[(1068, 791)]",[],[1],[0.6],vertical,"(390.0, 262.0)",1.1833333333333333,0.559,1,13260.579,3,0.02,0.25
0,615,target,"[(1052, 796)]",[],[1],[0.5333333333333333],vertical,"(890.0, 262.0)",0.7666666666666666,0.492,1,13266.598,3,0.02,0.25
0,616,target,"[(1033, 785)]",[],[1],[0.65],vertical,"(890.0, 762.0)",0.3833333333333333,0.604,1,13272.432,3,0.02,0.25
0,617,target,"[(1052, 772)]",[],[1],[0.5],vertical,"(390.0, 762.0)",1.0166666666666666,0.463,1,13277.444,3,0.02,0.25
0,618,target,"[(1047, 805)]",[],[1],[0.6],vertical,"(390.0, 262.0)",0.43333333333333335,0.556,1,13283.332,3,0.02,0.25
0,619,target,"[(1052, 775)]",[],[1],[0.85],vertical,"(390.0, 262.0)",1.0,nan,0,13289.214,0,0.02,0.25
0,620,target,"[(1035, 798)]",[],[1],[0.5833333333333334],vertical,"(390.0, 762.0)",0.65,0.542,1,13293.9,1,0.02,0.25
0,621,target,"[(1047, 757)]",[],[1],[0.48333333333333334],vertical,"(890.0, 262.0)",1.2333333333333334,0.447,1,13299.098,1,0.02,0.25
0,622,target,"[(1040, 830)]",[],[1],[0.48333333333333334],vertical,"(890.0, 262.0)",0.4166666666666667,0.444,1,13304.432,1,0.02,0.25
0,623,target,"[(1052, 801)]",[],[1],[0.5333333333333333],vertical,"(390.0, 262.0)",0.75,0.493,1,13309.281,2,0.02,0.25
0,624,target,"[(1051, 782)]",[],[1],[0.85],vertical,"(390.0, 762.0)",0.7833333333333333,nan,0,13314.642,0,0.02,0.25
0,625,target,"[(1031, 774)]",[],[1],[0.6],horizontal,"(890.0, 762.0)",0.85,0.561,1,13319.187,1,0.02,0.25
0,626,catch,"[(1072, 777)]",[],[1],[],horizontal,"(890.0, 762.0)",1.6,nan,1,13324.331,1,0.02,0.25
0,627,target,"[(1033, 802)]",[],[1],[0.5333333333333333],vertical,"(890.0, 762.0)",0.6,0.495,1,13329.827,1,0.02,0.25
0,628,target,"[(1070, 802)]",[],[1],[0.45],vertical,"(390.0, 262.0)",1.1833333333333333,0.413,1,13335.082,2,0.02,0.25
0,629,target,"[(1043, 833)]",[],[1],[0.3],horizontal,"(890.0, 762.0)",1.4,0.267,1,13340.814,2,0.02,0.25
0,630,target,"[(1064, 803)]",[],[1],[0.4666666666666667],horizontal,"(890.0, 762.0)",1.4333333333333333,0.436,1,13346.981,2,0.02,0.25
0,631,target,"[(1065, 809)]",[],[1],[0.5],horizontal,"(390.0, 762.0)",0.7666666666666666,0.459,1,13352.919,2,0.02,0.25
0,632,catch,"[(1050, 790)]",[],[1],[],vertical,"(890.0, 762.0)",1.6,nan,1,13445.816,3,0.02,0.25
0,633,target,"[(1052, 791)]",[],[1],[0.6],vertical,"(390.0, 262.0)",1.15,0.56,1,13452.097,3,0.02,0.25
0,634,target,"[(1053, 778)]",[],[1],[0.85],horizontal,"(390.0, 762.0)",0.8333333333333334,nan,0,13458.349,0,0.02,0.25
0,635,target,"[(1052, 801)]",[],[1],[0.85],vertical,"(390.0, 762.0)",1.1,nan,0,13463.015,0,0.02,0.25
0,636,target,"[(1040, 795)]",[],[1],[0.7],horizontal,"(390.0, 762.0)",0.6,0.67,1,13468.116,1,0.02,0.25
0,637,target,"[(1052, 779)]",[],[1],[0.7166666666666667],horizontal,"(890.0, 262.0)",0.5,0.668,1,13473.066,1,0.02,0.25
0,638,target,"[(1062, 789)]",[],[1],[0.55],vertical,"(390.0, 762.0)",0.9666666666666667,0.505,1,13477.749,1,0.02,0.25
0,639,target,"[(1071, 778)]",[],[1],[0.6333333333333333],horizontal,"(390.0, 262.0)",0.9166666666666666,0.591,1,13482.65,2,0.02,0.25
0,640,target,"[(1071, 782)]",[],[1],[0.5333333333333333],horizontal,"(890.0, 762.0)",1.4,0.489,1,13488.065,2,0.02,0.25
0,641,target,"[(1053, 801)]",[],[1],[0.55],horizontal,"(890.0, 762.0)",0.35,0.502,1,13494.083,2,0.02,0.25
0,642,catch,"[(1051, 775)]",[],[1],[],horizontal,"(390.0, 262.0)",1.6,nan,1,13499.283,2,0.02,0.25
0,643,target,"[(1053, 790)]",[],[1],[0.43333333333333335],vertical,"(890.0, 262.0)",1.5166666666666666,0.396,1,13505.15,3,0.02,0.25
0,644,target,"[(1070, 767)]",[],[1],[0.65],horizontal,"(890.0, 762.0)",0.95,0.605,1,13511.349,3,0.02,0.25
0,645,target,"[(1052, 769)]",[],[1],[0.6166666666666667],horizontal,"(390.0, 262.0)",1.0166666666666666,0.578,1,13517.092,3,0.02,0.25
0,646,catch,"[(1053, 777)]",[],[1],[],vertical,"(890.0, 762.0)",1.6,nan,1,13522.923,3,0.02,0.25
0,647,target,"[(1047, 771)]",[],[1],[0.55],vertical,"(390.0, 762.0)",1.3333333333333333,0.51,1,13528.733,3,0.02,0.25
0,648,catch,"[(1072, 791)]",[],[1],[],horizontal,"(390.0, 262.0)",1.6,nan,1,13534.871,3,0.02,0.25
0,649,target,"[(1050, 833)]",[],[1],[0.5],horizontal,"(390.0, 262.0)",1.3833333333333333,0.459,1,13540.792,3,0.02,0.25
0,650,target,"[(1052, 765)]",[],[1],[0.5333333333333333],vertical,"(890.0, 762.0)",0.9166666666666666,0.494,1,13547.15,3,0.02,0.25
0,651,catch,"[(1050, 803)]",[],[1],[],vertical,"(890.0, 262.0)",1.6,nan,1,13552.737,3,0.02,0.25
0,652,catch,"[(1062, 765)]",[],[1],[],vertical,"(890.0, 762.0)",,"('cti', 1.049),nan",0,13558.7,0,0.04,0.25
0,653,target,"[(1033, 786)]",[],[1],[0.3833333333333333],vertical,"(390.0, 762.0)",0.9166666666666666,0.344,1,13563.017,1,0.02,0.25
0,654,target,"[(1065, 809)]",[],[1],[0.5166666666666666],vertical,"(390.0, 262.0)",1.0666666666666667,0.472,1,13567.711,1,0.02,0.25
0,655,target,"[(1053, 779)]",[],[1],[0.6333333333333333],horizontal,"(890.0, 762.0)",0.85,0.598,1,13843.095,1,0.02,0.25
0,656,catch,"[(1042, 776)]",[],[1],[],vertical,"(390.0, 262.0)",1.6,nan,1,13848.351,2,0.02,0.25
0,657,catch,"[(1052, 803)]",[],[1],[],vertical,"(390.0, 762.0)",1.6,nan,1,13853.649,2,0.02,0.25
0,658,target,"[(1052, 790)]",[],[1],[0.5166666666666666],horizontal,"(890.0, 262.0)",0.4666666666666667,0.478,1,13859.085,2,0.02,0.25
0,659,target,"[(1050, 846)]",[],[1],[0.85],horizontal,"(390.0, 762.0)",0.5666666666666667,nan,0,13864.01,0,0.02,0.25
0,660,target,"[(1034, 800)]",[],[1],[0.6333333333333333],vertical,"(390.0, 762.0)",0.48333333333333334,0.592,1,13882.866,1,0.02,0.25
0,661,target,"[(1051, 776)]",[],[1],[0.6166666666666667],horizontal,"(390.0, 262.0)",0.65,0.579,1,13887.578,1,0.02,0.25
0,662,target,"[(1053, 772)]",[],[1],[0.5666666666666667],horizontal,"(390.0, 762.0)",0.6666666666666666,0.523,1,13892.05,1,0.02,0.25
0,663,target,"[(1048, 781)]",[],[1],[0.6],horizontal,"(890.0, 262.0)",0.7,0.557,1,13896.666,2,0.02,0.25
0,664,target,"[(1031, 755)]",[],[1],[0.5],vertical,"(890.0, 762.0)",1.3833333333333333,0.458,1,13901.806,2,0.02,0.25
0,665,catch,"[(1033, 789)]",[],[1],[],vertical,"(390.0, 762.0)",1.6,nan,1,13907.949,2,0.02,0.25
0,666,catch,"[(1052, 781)]",[],[1],[],horizontal,"(890.0, 762.0)",1.6,nan,1,13913.733,2,0.02,0.25
0,667,target,"[(1056, 800)]",[],[1],[0.6166666666666667],vertical,"(890.0, 262.0)",1.0,0.579,1,13919.084,3,0.02,0.25
0,668,target,"[(1049, 765)]",[],[1],[0.85],horizontal,"(390.0, 262.0)",1.1333333333333333,nan,0,13924.853,0,0.02,0.25
0,669,target,"[(1037, 789)]",[],[1],[0.6],horizontal,"(890.0, 262.0)",0.7333333333333333,0.557,1,13929.633,1,0.02,0.25
0,670,catch,"[(1049, 786)]",[],[1],[],horizontal,"(390.0, 762.0)",1.6,nan,1,13934.75,1,0.02,0.25
0,671,target,"[(1032, 796)]",[],[1],[0.6833333333333333],horizontal,"(890.0, 262.0)",0.48333333333333334,0.639,1,13940.05,1,0.02,0.25
0,672,target,"[(1033, 765)]",[],[1],[0.48333333333333334],horizontal,"(890.0, 262.0)",0.8,0.441,1,13944.901,2,0.02,0.25
0,673,catch,"[(1059, 780)]",[],[1],[],vertical,"(890.0, 262.0)",1.6,nan,1,13950.133,2,0.02,0.25
0,674,target,"[(469, 722), (448, 735), (461, 747), (1049, 845)]",[],"[0, 0, 0, 1]",[0.7666666666666666],vertical,"(890.0, 762.0)",0.43333333333333335,0.727,1,13955.9,2,0.02,0.25
0,675,target,"[(1057, 782)]",[],[1],[0.21666666666666667],horizontal,"(390.0, 762.0)",1.3333333333333333,0.183,0,15882.956,0,0.02,0.25
0,676,target,"[(1052, 783)]",[],[1],[0.48333333333333334],horizontal,"(390.0, 262.0)",1.1666666666666667,0.443,1,15887.519,1,0.02,0.25
0,677,target,"[(1037, 743), (1062, 804)]",[],"[0, 1]",[0.55],vertical,"(890.0, 762.0)",0.7333333333333333,0.509,1,15892.857,1,0.02,0.25
0,678,target,"[(1033, 802)]",[],[1],[0.5833333333333334],horizontal,"(390.0, 762.0)",0.6333333333333333,0.543,1,15898.813,1,0.02,0.25
0,679,target,"[(1052, 757)]",[],[1],[0.5833333333333334],horizontal,"(390.0, 762.0)",0.8666666666666667,0.549,1,15903.974,2,0.02,0.25
0,680,target,"[(1046, 766)]",[],[1],[0.85],vertical,"(390.0, 762.0)",1.2666666666666666,nan,0,15909.406,0,0.02,0.25
0,681,target,"[(1033, 811)]",[],[1],[0.5166666666666666],vertical,"(390.0, 762.0)",0.8,0.475,1,15914.357,1,0.02,0.25
0,682,target,"[(1054, 777)]",[],[1],[0.5166666666666666],horizontal,"(390.0, 262.0)",0.7166666666666667,0.48,1,15919.307,1,0.02,0.25
0,683,target,"[(1052, 802)]",[],[1],[0.7333333333333333],horizontal,"(890.0, 762.0)",0.9166666666666666,0.69,1,15923.99,1,0.02,0.25
0,684,catch,"[(1073, 782)]",[],[1],[],horizontal,"(390.0, 762.0)",1.6,nan,1,15929.247,2,0.02,0.25
0,685,catch,"[(1046, 746), (1057, 795)]",[],"[0, 1]",[],horizontal,"(890.0, 262.0)",1.6,nan,1,15935.091,2,0.02,0.25
0,686,catch,"[(1053, 735), (1033, 850)]",[],"[0, 1]",[],horizontal,"(890.0, 762.0)",1.6,nan,1,15941.864,2,0.02,0.25
0,687,catch,"[(1052, 756)]",[],[1],[],vertical,"(390.0, 762.0)",1.6,nan,1,15948.452,2,0.02,0.25
0,688,target,"[(1057, 772)]",[],[1],[],vertical,"(890.0, 762.0)",,"('cti', 1.031)",0,15954.048,0,0.04,0.25
0,689,target,"[(1033, 786)]",[],[1],[0.6],horizontal,"(890.0, 262.0)",0.8833333333333333,0.558,1,15958.456,1,0.04,0.25
0,690,catch,"[(1040, 763)]",[],[1],[],horizontal,"(890.0, 762.0)",1.6,nan,1,15963.606,1,0.04,0.25
0,691,target,"[(1033, 746), (1035, 748), (1037, 830)]",[],"[0, 0, 1]",[0.5166666666666666],horizontal,"(890.0, 262.0)",1.3333333333333333,0.477,1,15968.545,1,0.04,0.25
0,692,target,"[(1047, 761)]",[],[1],[0.55],horizontal,"(890.0, 262.0)",1.0333333333333332,0.511,1,15975.724,2,0.04,0.25
0,693,target,"[(1030, 786)]",[],[1],[0.65],horizontal,"(390.0, 762.0)",0.9666666666666667,0.608,1,15981.423,2,0.04,0.25
0,694,catch,"[(1052, 771)]",[],[1],[],horizontal,"(890.0, 262.0)",1.6,nan,1,15987.072,2,0.04,0.25
0,695,target,"[(1051, 762)]",[],[1],[0.7333333333333333],horizontal,"(890.0, 762.0)",1.1,0.687,1,15992.504,2,0.04,0.25
0,696,catch,"[(1052, 768)]",[],[1],[],vertical,"(390.0, 262.0)",1.6,nan,1,15998.133,3,0.04,0.25
0,697,target,"[(1074, 768)]",[],[1],[0.5666666666666667],horizontal,"(890.0, 762.0)",1.1166666666666667,0.519,1,16004.151,3,0.04,0.25
0,698,target,"[(1069, 796)]",[],[1],[0.5],vertical,"(390.0, 262.0)",1.2166666666666666,0.463,1,16010.106,3,0.04,0.25
0,699,target,"[(1052, 777)]",[],[1],[0.5166666666666666],horizontal,"(390.0, 262.0)",0.7,0.477,1,16016.157,3,0.04,0.25
0,700,catch,"[(1052, 769)]",[],[1],[],horizontal,"(390.0, 762.0)",1.6,nan,1,16021.49,3,0.04,0.25
0,701,target,"[(1049, 761)]",[],[1],[0.7],horizontal,"(390.0, 262.0)",0.9,0.653,1,16027.35,3,0.04,0.25
0,702,target,"[(1089, 801)]",[],[1],[0.7],horizontal,"(390.0, 762.0)",1.0,0.654,1,16032.945,3,0.02,0.25
0,703,target,"[(1041, 768)]",[],[1],[0.55],horizontal,"(890.0, 262.0)",1.0833333333333333,0.509,1,16039.021,3,0.02,0.25
0,704,target,"[(1068, 761)]",[],[1],[0.5833333333333334],vertical,"(390.0, 762.0)",0.7166666666666667,0.541,1,16045.139,3,0.02,0.25
0,705,catch,"[(1051, 775)]",[],[1],[],vertical,"(890.0, 262.0)",1.6,nan,1,16050.594,3,0.02,0.25
0,706,target,"[(1035, 773)]",[],[1],[0.25],vertical,"(390.0, 762.0)",1.5166666666666666,0.213,1,16056.308,3,0.02,0.25
0,707,target,"[(1037, 756)]",[],[1],[0.5166666666666666],vertical,"(890.0, 762.0)",1.0333333333333332,0.474,1,16062.457,3,0.02,0.25
0,708,target,"[(1052, 777)]",[],[1],[0.48333333333333334],horizontal,"(390.0, 262.0)",0.6,0.45,1,16068.047,3,0.02,0.25
0,709,target,"[(1056, 763)]",[],[1],[0.55],horizontal,"(890.0, 762.0)",0.35,0.508,1,16073.46,3,0.02,0.25
0,710,target,"[(1038, 769)]",[],[1],[0.6],horizontal,"(390.0, 262.0)",0.7666666666666666,0.559,1,16078.706,3,0.02,0.25
0,711,target,"[(1035, 777)]",[],[1],[0.5166666666666666],horizontal,"(390.0, 762.0)",1.0333333333333332,0.476,1,16084.188,3,0.02,0.25
0,712,catch,"[(1038, 772)]",[],[1],[],horizontal,"(390.0, 262.0)",1.6,nan,1,16089.956,3,0.02,0.25
0,713,target,"[(1033, 764)]",[],[1],[0.6666666666666666],horizontal,"(390.0, 762.0)",0.9166666666666666,0.626,1,16095.708,3,0.02,0.25
0,714,target,"[(1035, 744), (1042, 782)]",[],"[0, 1]",[0.3333333333333333],vertical,"(890.0, 762.0)",1.2666666666666666,0.296,1,16101.885,3,0.02,0.25
0,715,target,"[(1041, 770)]",[],[1],[0.5333333333333333],vertical,"(390.0, 762.0)",1.2666666666666666,0.492,1,16109.423,3,0.02,0.25
0,716,target,"[(1053, 773)]",[],[1],[0.36666666666666664],vertical,"(890.0, 762.0)",1.45,0.329,1,16115.424,3,0.02,0.25
0,717,target,"[(1062, 771)]",[],[1],[0.5],vertical,"(390.0, 262.0)",1.5166666666666666,0.463,1,16121.695,3,0.02,0.25
0,718,catch,"[(1052, 763)]",[],[1],[],vertical,"(890.0, 762.0)",1.6,nan,1,16127.813,3,0.02,0.25
0,719,target,"[(1089, 773)]",[],[1],[0.6833333333333333],horizontal,"(890.0, 762.0)",1.0166666666666666,0.64,1,16133.74,3,0.02,0.25
0,720,catch,"[(1052, 779)]",[],[1],[],vertical,"(890.0, 762.0)",1.6,nan,1,16139.891,3,0.02,0.25
0,721,target,"[(1061, 781)]",[],[1],[0.5666666666666667],horizontal,"(890.0, 762.0)",1.3,0.521,1,16145.674,3,0.02,0.25
0,722,catch,"[(1049, 765)]",[],[1],[],horizontal,"(390.0, 762.0)",1.6,nan,1,16151.974,3,0.02,0.25
0,723,target,"[(1063, 788)]",[],[1],[0.5333333333333333],horizontal,"(390.0, 262.0)",1.3,0.49,1,16157.474,3,0.02,0.25
0,724,target,"[(1052, 762)]",[],[1],[0.55],vertical,"(390.0, 262.0)",0.5166666666666666,0.509,1,16163.499,3,0.02,0.25
0,725,target,"[(1053, 779)]",[],[1],[0.48333333333333334],vertical,"(390.0, 262.0)",1.1166666666666667,0.45,1,16168.559,3,0.02,0.25
0,726,target,"[(1055, 791)]",[],[1],[0.85],vertical,"(390.0, 762.0)",0.5166666666666666,nan,0,16174.239,0,0.02,0.25
0,727,target,"[(1035, 776)]",[],[1],[0.6333333333333333],vertical,"(390.0, 262.0)",1.2166666666666666,0.59,1,16178.874,1,0.02,0.25
0,728,target,"[(1055, 764)]",[],[1],[0.5333333333333333],vertical,"(890.0, 762.0)",0.4166666666666667,0.495,1,16184.607,1,0.02,0.25
0,729,target,"[(1053, 774)]",[],[1],[0.85],vertical,"(390.0, 762.0)",1.3333333333333333,nan,0,16189.269,0,0.02,0.25
0,730,catch,"[(1041, 791)]",[],[1],[],horizontal,"(890.0, 262.0)",1.6,nan,1,16194.218,1,0.02,0.25
0,731,catch,"[(1049, 747), (1038, 786)]",[],"[0, 1]",[],vertical,"(890.0, 262.0)",1.6,nan,1,16199.09,1,0.02,0.25
0,732,target,"[(1055, 786)]",[],[1],[0.55],vertical,"(390.0, 762.0)",0.9,0.508,1,16206.157,1,0.02,0.25
0,733,target,"[(1042, 785)]",[],[1],[0.5333333333333333],horizontal,"(890.0, 262.0)",0.8666666666666667,0.496,1,16210.94,2,0.02,0.25
0,734,catch,"[(1052, 781)]",[],[1],[],vertical,"(890.0, 262.0)",1.6,nan,1,16216.527,2,0.02,0.25
0,735,catch,"[(1035, 778)]",[],[1],[],horizontal,"(390.0, 762.0)",1.6,nan,1,16222.326,2,0.02,0.25
0,736,target,"[(1052, 795)]",[],[1],[0.6],vertical,"(390.0, 762.0)",1.25,0.563,1,16227.957,2,0.02,0.25
0,737,catch,"[(1054, 784)]",[],[1],[],horizontal,"(390.0, 762.0)",1.6,nan,1,16233.391,3,0.02,0.25
0,738,target,"[(1057, 772)]",[],[1],[0.6166666666666667],horizontal,"(390.0, 762.0)",0.36666666666666664,0.57,1,16239.174,3,0.0,0.25
0,739,target,"[(1053, 794)]",[],[1],[0.5666666666666667],vertical,"(890.0, 262.0)",1.25,0.521,1,16244.49,3,0.0,0.25
0,740,catch,"[(1072, 800)]",[],[1],[],horizontal,"(890.0, 762.0)",1.6,nan,1,16250.449,3,0.0,0.25
0,741,target,"[(1052, 769)]",[],[1],[0.55],horizontal,"(890.0, 762.0)",0.8333333333333334,0.504,1,16256.357,3,0.0,0.25
0,742,catch,"[(1058, 785)]",[],[1],[],horizontal,"(390.0, 262.0)",1.6,nan,1,16262.489,3,0.0,0.25
0,743,target,"[(1053, 755)]",[],[1],[0.5166666666666666],horizontal,"(390.0, 262.0)",0.55,0.471,1,16268.503,3,0.0,0.25
0,744,target,"[(1052, 769)]",[],[1],[0.5166666666666666],horizontal,"(890.0, 262.0)",0.55,0.478,1,16274.156,3,0.0,0.25
0,745,catch,"[(1057, 782)]",[],[1],[],vertical,"(390.0, 262.0)",1.6,nan,1,16279.483,3,0.0,0.25
0,746,target,"[(1053, 785)]",[],[1],[0.36666666666666664],vertical,"(390.0, 262.0)",1.2666666666666666,0.33,1,16284.983,3,0.0,0.25
0,747,target,"[(1057, 768)]",[],[1],[0.5166666666666666],horizontal,"(390.0, 762.0)",1.3,0.48,1,16291.302,3,0.0,0.25
0,748,catch,"[(1056, 754)]",[],[1],[],vertical,"(390.0, 762.0)",1.6,nan,1,16297.224,3,0.0,0.25
0,749,target,"[(1055, 787)]",[],[1],[0.6],horizontal,"(890.0, 262.0)",1.5333333333333332,0.559,1,16303.241,3,0.0,0.25
0,750,target,"[(1069, 786)]",[],[1],[0.5166666666666666],horizontal,"(390.0, 262.0)",1.1333333333333333,0.477,1,16309.886,3,0.0,0.25
0,751,target,"[(1050, 766)]",[],[1],[0.5333333333333333],vertical,"(890.0, 762.0)",1.2,0.489,1,16315.674,3,0.0,0.25
0,752,target,"[(1052, 786)]",[],[1],[0.5333333333333333],horizontal,"(890.0, 762.0)",1.1333333333333333,0.495,1,16321.689,3,0.0,0.25
0,753,catch,"[(1055, 782)]",[],[1],[],horizontal,"(890.0, 762.0)",1.6,nan,1,16327.608,3,0.0,0.25
0,754,target,"[(1048, 789)]",[],[1],[0.18333333333333332],vertical,"(390.0, 762.0)",1.4666666666666666,0.151,0,16333.241,0,0.0,0.25
0,755,target,"[(1054, 786)]",[],[1],[0.85],horizontal,"(890.0, 762.0)",0.6166666666666667,nan,0,16338.351,0,0.0,0.25
0,756,target,"[(1038, 773)]",[],[1],[0.5833333333333334],horizontal,"(890.0, 762.0)",0.8333333333333334,0.541,1,16342.441,1,0.0,0.25
0,757,target,"[(1049, 778)]","[(1016, 834)]",[1],[0.2833333333333333],horizontal,"(890.0, 762.0)",,"('bar', 0.293)",0,16347.751,0,0.0,0.25
0,758,target,"[(1038, 799)]",[],[1],[0.55],horizontal,"(390.0, 762.0)",1.1333333333333333,0.516,1,16350.634,1,0.0,0.25
0,759,target,"[(1052, 781)]",[],[1],[0.4666666666666667],horizontal,"(390.0, 262.0)",1.0833333333333333,0.423,1,16355.862,1,0.0,0.25
0,760,target,"[(1055, 769)]",[],[1],[0.05],horizontal,"(890.0, 762.0)",1.4333333333333333,0.02,0,16360.804,0,0.0,0.25
0,761,catch,"[(1043, 780)]",[],[1],[],horizontal,"(890.0, 762.0)",1.6,nan,1,16365.59,1,0.0,0.25
0,762,catch,"[(1037, 766)]",[],[1],[],horizontal,"(890.0, 262.0)",1.6,nan,1,16370.965,1,0.0,0.25
0,763,target,"[(1047, 766)]",[],[1],[0.5333333333333333],vertical,"(890.0, 762.0)",1.05,0.498,1,16376.235,1,0.0,0.25
0,764,target,"[(1040, 779)]",[],[1],[0.6666666666666666],horizontal,"(890.0, 262.0)",0.55,0.623,1,16381.61,2,0.0,0.25
0,765,target,"[(1045, 740), (1041, 838)]",[],"[0, 1]",[0.6833333333333333],horizontal,"(890.0, 762.0)",0.6166666666666667,0.642,1,16386.422,2,0.0,0.25
0,766,target,"[(1052, 798)]",[],[1],[0.5666666666666667],vertical,"(390.0, 762.0)",1.0833333333333333,0.528,1,16393.657,2,0.0,0.25
0,767,target,"[(1053, 761)]",[],[1],[0.65],horizontal,"(390.0, 762.0)",0.6833333333333333,0.601,1,16399.441,2,0.0,0.25
0,768,target,"[(1053, 776)]",[],[1],[0.45],horizontal,"(890.0, 762.0)",1.2333333333333334,0.412,1,16404.703,3,0.0,0.25
0,769,catch,"[(1052, 761)]",[],[1],[],horizontal,"(390.0, 762.0)",1.6,nan,1,16411.121,3,0.0,0.25
0,770,catch,"[(1053, 770)]",[],[1],[],vertical,"(390.0, 762.0)",1.6,nan,1,16416.869,3,0.0,0.25
0,771,catch,"[(1053, 766)]",[],[1],[0.03333333333333333],horizontal,"(390.0, 762.0)",1.6,"0.018,nan",0,16422.927,0,0.02,0.25
0,772,catch,"[(1053, 787)]",[],[1],[],horizontal,"(890.0, 262.0)",1.6,nan,1,16427.504,1,0.02,0.25
0,773,target,"[(1052, 765)]",[],[1],[0.55],vertical,"(890.0, 262.0)",0.8833333333333333,0.512,1,16432.707,1,0.02,0.25
0,774,target,"[(1053, 789)]",[],[1],[0.55],vertical,"(890.0, 762.0)",0.65,0.515,1,16437.237,1,0.02,0.25
0,775,target,"[(1052, 771)]",[],[1],[0.6333333333333333],vertical,"(890.0, 262.0)",0.7833333333333333,0.599,1,16442.375,2,0.02,0.25
0,776,target,"[(1054, 798)]",[],[1],[0.55],vertical,"(890.0, 762.0)",0.36666666666666664,0.511,1,16447.524,2,0.02,0.25
0,777,target,"[(1049, 742), (1039, 771)]",[],"[0, 1]",[0.5833333333333334],horizontal,"(390.0, 262.0)",1.0,0.542,1,16452.274,2,0.02,0.25
0,778,target,"[(1073, 778)]",[],[1],[0.55],vertical,"(390.0, 262.0)",0.35,0.505,1,16459.241,2,0.02,0.25
0,779,target,"[(1051, 776)]",[],[1],[0.6166666666666667],horizontal,"(890.0, 762.0)",0.8666666666666667,0.584,1,16464.301,3,0.02,0.25
0,780,target,"[(1041, 786)]",[],[1],[0.5],vertical,"(390.0, 762.0)",1.1666666666666667,0.46,1,16470.522,3,0.02,0.25
0,781,catch,"[(1047, 765)]",[],[1],[],horizontal,"(890.0, 762.0)",1.6,nan,1,16476.946,3,0.02,0.25
0,782,catch,"[(1049, 774)]",[],[1],[],horizontal,"(390.0, 762.0)",1.6,nan,1,16482.576,3,0.02,0.25
0,783,target,"[(1049, 762)]",[],[1],[0.65],vertical,"(890.0, 262.0)",0.9,0.62,1,16488.509,3,0.02,0.25
0,784,catch,"[(1052, 769)]",[],[1],[],horizontal,"(890.0, 262.0)",,"('fix', 0.602),nan",0,16494.41,0,0.04,0.25
0,785,target,"[(1033, 870)]",[],[1],[0.85],horizontal,"(390.0, 762.0)",0.6166666666666667,nan,0,16496.619,0,0.04,0.25
0,786,catch,"[(1045, 864)]",[],[1],[],horizontal,"(390.0, 762.0)",1.6,nan,1,18013.914,1,0.04,0.25
0,787,target,"[(1043, 815)]",[],[1],[0.5],vertical,"(890.0, 262.0)",0.8833333333333333,0.472,1,18023.809,1,0.04,0.25
0,788,target,"[(1055, 779)]",[],[1],[0.26666666666666666],vertical,"(390.0, 262.0)",1.4333333333333333,0.232,1,18033.101,1,0.04,0.25
0,789,target,"[(1055, 777)]",[],[1],[0.43333333333333335],vertical,"(890.0, 262.0)",1.5,0.401,1,18038.762,2,0.04,0.25
0,790,target,"[(1060, 783)]",[],[1],[0.5],vertical,"(390.0, 262.0)",1.0,0.462,1,18045.125,2,0.04,0.25
0,791,target,"[(1052, 769)]",[],[1],[0.6],horizontal,"(390.0, 762.0)",0.6333333333333333,0.566,1,18050.4,2,0.04,0.25
0,792,target,"[(1049, 794)]",[],[1],[0.6833333333333333],horizontal,"(890.0, 262.0)",0.6333333333333333,0.638,1,18055.563,2,0.04,0.25
0,793,target,"[(1056, 782)]",[],[1],[0.65],vertical,"(890.0, 262.0)",0.5666666666666667,0.61,1,18060.663,3,0.04,0.25
0,794,target,"[(1053, 782)]",[],[1],[0.55],vertical,"(390.0, 262.0)",0.8666666666666667,0.51,1,18066.255,3,0.04,0.25
0,795,target,"[(1054, 788)]",[],[1],[0.36666666666666664],horizontal,"(890.0, 762.0)",1.4666666666666666,0.335,1,18072.447,3,0.04,0.25
0,796,target,"[(1054, 788)]",[],[1],[0.65],vertical,"(390.0, 762.0)",0.7,0.608,1,18078.597,3,0.04,0.25
0,797,target,"[(1052, 779)]",[],[1],[0.6166666666666667],vertical,"(390.0, 262.0)",0.7,0.572,1,18084.43,3,0.04,0.25
0,798,target,"[(1054, 778)]",[],[1],[0.5666666666666667],horizontal,"(390.0, 762.0)",0.5166666666666666,0.534,1,18090.129,3,0.04,0.25
0,799,catch,"[(1025, 804)]",[],[1],[],horizontal,"(390.0, 762.0)",1.6,nan,1,18095.447,3,0.04,0.25
0,800,target,"[(1036, 785)]",[],[1],[0.5166666666666666],horizontal,"(890.0, 262.0)",0.55,0.478,1,18101.513,3,0.04,0.25
0,801,target,"[(1052, 787)]",[],[1],[0.5333333333333333],horizontal,"(890.0, 262.0)",1.45,0.492,1,18107.079,3,0.04,0.25
0,802,target,"[(1057, 781)]",[],[1],[0.4],horizontal,"(390.0, 762.0)",1.3,0.362,1,18113.078,3,0.04,0.25
0,803,target,"[(1052, 766)]",[],[1],[0.48333333333333334],horizontal,"(890.0, 262.0)",0.9666666666666667,0.447,1,18119.208,3,0.04,0.25
0,804,target,"[(1056, 779)]",[],[1],[0.3333333333333333],vertical,"(390.0, 262.0)",1.5,0.296,1,18125.012,3,0.04,0.25
0,805,catch,"[(1053, 754)]",[],[1],[],vertical,"(390.0, 762.0)",1.6,nan,1,18131.23,3,0.04,0.25
0,806,target,"[(1049, 813)]",[],[1],[0.85],horizontal,"(890.0, 262.0)",0.5,nan,0,18137.747,0,0.04,0.25
0,807,target,"[(1037, 760)]",[],[1],[0.55],horizontal,"(890.0, 262.0)",1.05,0.509,1,18142.168,1,0.04,0.25
0,808,target,"[(1057, 780)]",[],[1],[0.5333333333333333],vertical,"(390.0, 262.0)",0.55,0.489,1,18147.064,1,0.04,0.25
0,809,target,"[(1061, 777)]",[],[1],[0.85],vertical,"(890.0, 262.0)",0.55,nan,0,18151.557,0,0.04,0.25
0,810,catch,"[(1033, 769)]",[],[1],[],horizontal,"(390.0, 262.0)",1.6,nan,1,18156.314,1,0.04,0.25
0,811,target,"[(1052, 761)]",[],[1],[0.5166666666666666],vertical,"(390.0, 262.0)",1.5166666666666666,0.479,1,18161.412,1,0.04,0.25
0,812,target,"[(1061, 786)]",[],[1],[0.5166666666666666],vertical,"(890.0, 762.0)",1.4,0.478,1,18166.679,1,0.04,0.25
0,813,target,"[(1055, 763)]",[],[1],[],vertical,"(890.0, 262.0)",,"('fix', 0.068)",0,18172.365,0,0.04,0.25
0,814,target,"[(1049, 803)]",[],[1],[0.48333333333333334],horizontal,"(890.0, 262.0)",0.8,0.446,1,18173.879,1,0.04,0.25
0,815,target,"[(1050, 773)]",[],[1],[0.5166666666666666],vertical,"(390.0, 762.0)",0.9166666666666666,0.477,1,18178.664,1,0.04,0.25
0,816,target,"[(1045, 791)]",[],[1],[0.5166666666666666],vertical,"(890.0, 262.0)",0.6166666666666667,0.471,1,18183.498,1,0.04,0.25
0,817,target,"[(1057, 779)]",[],[1],[0.85],horizontal,"(390.0, 762.0)",0.5666666666666667,nan,0,18187.964,0,0.04,0.25
0,818,catch,"[(1049, 778)]",[],[1],[],vertical,"(390.0, 762.0)",1.6,nan,1,18192.69,1,0.04,0.25
0,819,target,"[(1056, 778)]",[],[1],[0.55],horizontal,"(390.0, 762.0)",0.8666666666666667,0.511,1,18197.896,1,0.04,0.25
0,820,target,"[(1049, 791)]",[],[1],[0.5166666666666666],horizontal,"(390.0, 262.0)",1.0166666666666666,0.474,1,18202.803,1,0.04,0.25
0,821,target,"[(1020, 798)]",[],[1],[0.7],horizontal,"(390.0, 262.0)",0.3833333333333333,0.662,1,18208.078,2,0.02,0.25
0,822,target,"[(1052, 794)]",[],[1],[0.7333333333333333],vertical,"(890.0, 262.0)",0.8833333333333333,0.693,1,18213.279,2,0.02,0.25
0,823,target,"[(1038, 766)]",[],[1],[0.25],horizontal,"(390.0, 262.0)",1.45,0.211,1,18218.747,2,0.02,0.25
0,824,target,"[(1020, 794)]",[],[1],[0.5666666666666667],horizontal,"(890.0, 762.0)",0.7666666666666666,0.529,1,18224.796,2,0.02,0.25
0,825,catch,"[(1055, 792)]",[],[1],[],horizontal,"(390.0, 262.0)",1.6,nan,1,18230.179,3,0.02,0.25
0,826,target,"[(1036, 762)]",[],[1],[0.5666666666666667],vertical,"(890.0, 262.0)",0.48333333333333334,0.523,1,18235.98,3,0.02,0.25
0,827,catch,"[(1058, 765)]",[],[1],[],horizontal,"(390.0, 762.0)",1.6,nan,1,18241.163,3,0.02,0.25
0,828,catch,"[(1069, 776)]",[],[1],[],horizontal,"(390.0, 262.0)",1.6,nan,1,18247.133,3,0.02,0.25
0,829,target,"[(1060, 759)]",[],[1],[0.3],vertical,"(890.0, 262.0)",1.5166666666666666,0.259,1,18253.114,3,0.02,0.25
0,830,target,"[(1055, 757)]",[],[1],[0.5166666666666666],horizontal,"(890.0, 262.0)",0.7833333333333333,0.476,1,18259.229,3,0.02,0.25
0,831,target,"[(1059, 768)]",[],[1],[0.5666666666666667],horizontal,"(390.0, 262.0)",1.0666666666666667,0.53,1,18264.798,3,0.02,0.25
0,832,target,"[(1044, 765)]",[],[1],[0.5333333333333333],horizontal,"(890.0, 762.0)",0.8833333333333333,0.493,1,18271.05,3,0.02,0.25
0,833,target,"[(1055, 764)]",[],[1],[0.85],horizontal,"(890.0, 262.0)",0.9833333333333333,"('cti', 0.982),nan",0,18276.681,0,0.04,0.25
0,834,target,"[(1052, 793)]",[],[1],[0.4166666666666667],vertical,"(890.0, 262.0)",1.5166666666666666,0.382,1,18281.77,1,0.02,0.25
0,835,target,"[(1037, 777)]",[],[1],[0.5666666666666667],vertical,"(890.0, 262.0)",0.6833333333333333,0.521,1,18287.48,1,0.02,0.25
0,836,catch,"[(1029, 788)]",[],[1],[],horizontal,"(390.0, 762.0)",1.6,nan,1,18292.395,1,0.02,0.25
0,837,catch,"[(1056, 771)]",[],[1],[],horizontal,"(390.0, 262.0)",1.6,nan,1,18301.496,2,0.02,0.25
0,838,target,"[(1057, 768)]",[],[1],[0.5333333333333333],horizontal,"(390.0, 762.0)",1.1833333333333333,0.494,1,18307.371,2,0.02,0.25
0,839,target,"[(1072, 774)]",[],[1],[0.4666666666666667],horizontal,"(390.0, 262.0)",1.3166666666666667,0.426,1,18312.797,2,0.02,0.25
0,840,target,"[(1055, 757)]",[],[1],[0.48333333333333334],vertical,"(390.0, 262.0)",0.5833333333333334,0.441,1,18318.581,2,0.02,0.25
0,841,target,"[(1053, 755)]",[],[1],[0.5166666666666666],vertical,"(390.0, 262.0)",0.48333333333333334,0.484,1,18323.581,3,0.02,0.25
0,842,target,"[(1056, 784)]",[],[1],[0.5],vertical,"(890.0, 262.0)",0.9333333333333333,0.46,1,18329.281,3,0.02,0.25
0,843,target,"[(1050, 766)]",[],[1],[0.5666666666666667],horizontal,"(390.0, 762.0)",0.4166666666666667,0.525,1,18334.89,3,0.02,0.25
0,844,target,"[(1058, 773)]",[],[1],[0.65],vertical,"(890.0, 262.0)",0.6666666666666666,0.608,1,18339.963,3,0.02,0.25
0,845,target,"[(1030, 793)]",[],[1],[0.65],vertical,"(390.0, 762.0)",0.48333333333333334,0.607,1,18345.68,3,0.02,0.25
0,846,target,"[(1047, 790)]",[],[1],[],horizontal,"(390.0, 262.0)",,"('cti', 1.482)",0,18352.247,0,0.04,0.25
0,847,target,"[(1025, 794)]",[],[1],[0.7],vertical,"(390.0, 762.0)",1.0833333333333333,0.657,1,18356.848,1,0.04,0.25
0,848,target,"[(1033, 787)]",[],[1],[0.5166666666666666],horizontal,"(390.0, 262.0)",0.6833333333333333,0.471,1,18361.846,1,0.04,0.25
0,849,target,"[(1033, 815)]",[],[1],[0.5333333333333333],horizontal,"(390.0, 262.0)",1.0666666666666667,0.488,1,18367.32,1,0.04,0.25
0,850,target,"[(1049, 776)]",[],[1],[0.5666666666666667],vertical,"(890.0, 762.0)",1.1166666666666667,0.527,1,18372.181,2,0.04,0.25
0,851,target,"[(1051, 769)]",[],[1],[0.5166666666666666],horizontal,"(390.0, 762.0)",0.45,0.479,1,18377.58,2,0.04,0.25
0,852,catch,"[(1052, 776)]",[],[1],[],horizontal,"(890.0, 762.0)",1.6,nan,1,18382.524,2,0.04,0.25
0,853,target,"[(1052, 820)]",[],[1],[0.6166666666666667],horizontal,"(390.0, 262.0)",1.0166666666666666,0.58,1,18387.93,2,0.04,0.25
