block,practice,trial,change_interval_s,change_interval_frames,taps_start_time_during_fix,taps_end_time_during_fix,taps_start_loc_during_fix,taps_end_loc_during_fix,taps_on_lever_during_fix,taps_on_lever_frame_during_fix,taps_on_lever_s_during_fix,fix_xy,bar_orientation,target_xy,rt,acc,time
1,True,1,0.556,33,[],[],"[(7, 290), (13, 152), (1278, 361), (13, 233), (17, 228), (17, 228), (1279, 930), (1246, 829), (1245, 877), (1215, 899)]",[],"[0, 0, 0, 0, 0, 0, 0, 0, 0, 1]",[73],[1.2166666666666666],"[640.0, 512.0]",vertical,"(390.0, 762.0)",[0.64],1,0.375
1,True,2,0.677,40,[],[],"[(1201, 886)]",[],[1],[82],[1.3666666666666667],"[640.0, 512.0]",vertical,"(890.0, 762.0)",[0.678],1,618.594
1,True,3,0.373,22,[],[],"[(1221, 888)]",[],[1],[49],[0.8166666666666667],"[640.0, 512.0]",horizontal,"(890.0, 762.0)",[0.424],1,621.661
1,True,4,1.122,67,[],[],"[(1186, 906)]",[],[1],[106],[1.7666666666666666],"[640.0, 512.0]",vertical,"(390.0, 762.0)",[0.628],1,624.843
1,False,1,1.489,89,[],[],"[(1234, 876), (1223, 908)]",[],"[0, 1]",[107],[1.7833333333333332],"[640.0, 512.0]",vertical,"(890.0, 262.0)",[0.279],1,632.061
1,False,2,0.757,45,[],[],"[(1214, 892)]",[],[1],[71],[1.1833333333333333],"[640.0, 512.0]",vertical,"(890.0, 262.0)",[0.415],1,648.578
1,False,3,1.338,80,[],[691382],"[(1247, 889), (1225, 902)]","[(1187, 919)]","[0, 1]",[58],[0.9666666666666667],"[640.0, 512.0]",horizontal,"(390.0, 262.0)",[0],0,651.298
1,False,4,0.327,19,[],[],"[(1216, 912)]",[],[1],[51],[0.85],"[640.0, 512.0]",vertical,"(890.0, 762.0)",[0.508],1,655.312
1,False,5,0.68,40,[],[],"[(1190, 911)]",[],[1],[63],[1.05],"[640.0, 512.0]",horizontal,"(890.0, 762.0)",[0.357],1,657.7
1,False,6,1.457,87,[],[699324],"[(1190, 899)]","[(1166, 902)]",[1],[83],[1.3833333333333333],"[640.0, 512.0]",vertical,"(890.0, 762.0)",[0],0,660.322
1,False,7,0.966,57,[],[],"[(1190, 910)]",[],[1],[82],[1.3666666666666667],"[640.0, 512.0]",vertical,"(390.0, 262.0)",[0.396],1,663.263
1,False,8,1.486,89,[],[705447],"[(1203, 917)]","[(1168, 922)]",[1],[74],[1.2333333333333334],"[640.0, 512.0]",horizontal,"(890.0, 762.0)",[0],0,666.236
1,False,9,0.667,40,[],[],"[(1245, 900), (1190, 895)]",[],"[0, 1]",[82],[1.3666666666666667],"[640.0, 512.0]",vertical,"(890.0, 762.0)",[0.672],1,669.387
1,False,10,0.779,46,[],[],"[(1209, 894)]",[],[1],[80],[1.3333333333333333],"[640.0, 512.0]",vertical,"(390.0, 762.0)",[0.539],1,674.695
1,False,11,1.211,72,[],[],"[(1209, 905)]",[],[1],[99],[1.65],"[640.0, 512.0]",vertical,"(890.0, 262.0)",[0.423],1,677.516
1,False,12,0.655,39,[],[],"[(1219, 888)]",[],[1],[70],[1.1666666666666667],"[640.0, 512.0]",vertical,"(390.0, 262.0)",[0.489],1,680.641
1,False,13,0.345,20,[],[],"[(1209, 897)]",[],[1],[53],[0.8833333333333333],"[640.0, 512.0]",horizontal,"(890.0, 762.0)",[0.522],1,683.245
1,False,14,0.785,47,[],[],"[(1196, 904)]",[],[1],[87],[1.45],"[640.0, 512.0]",horizontal,"(890.0, 762.0)",[0.642],1,685.606
1,False,15,1.182,70,[],[],"[(1196, 906)]",[],[1],[86],[1.4333333333333333],"[640.0, 512.0]",horizontal,"(390.0, 262.0)",[0.248],1,688.543
1,False,16,0.41,24,[],[],"[(1221, 897)]",[],[1],[56],[0.9333333333333333],"[640.0, 512.0]",horizontal,"(890.0, 262.0)",[0.508],1,691.462
1,False,17,0.357,21,[],[],"[(1232, 896), (1214, 909)]",[],"[0, 1]",[67],[1.1166666666666667],"[640.0, 512.0]",horizontal,"(390.0, 762.0)",[0.74],1,693.899
1,False,18,0.871,52,[],[],"[(1219, 911)]",[],[1],[89],[1.4833333333333334],"[640.0, 512.0]",vertical,"(890.0, 262.0)",[0.594],1,698.084
1,False,19,1.188,71,[],[739728],"[(1221, 899)]","[(1173, 912)]",[1],[65],[1.0833333333333333],"[640.0, 512.0]",horizontal,"(390.0, 262.0)",[0],0,701.049
1,False,20,0.409,24,[],[],"[(1226, 911)]",[],[1],[58],[0.9666666666666667],"[640.0, 512.0]",horizontal,"(890.0, 762.0)",[0.551],1,703.657
1,False,21,0.834,50,[],[],"[(1239, 893), (1198, 908)]",[],"[0, 1]",[64],[1.0666666666666667],"[640.0, 512.0]",horizontal,"(890.0, 762.0)",[0.217],1,706.238
1,False,22,1.012,60,[],[],"[(1184, 915)]",[],[1],[92],[1.5333333333333332],"[640.0, 512.0]",horizontal,"(890.0, 762.0)",[0.504],1,709.742
1,False,23,0.451,27,[],[],"[(1190, 894)]",[],[1],[56],[0.9333333333333333],"[640.0, 512.0]",vertical,"(890.0, 262.0)",[0.463],1,712.784
1,False,24,0.7,42,[],[],"[(1233, 896), (1190, 899)]",[],"[0, 1]",[69],[1.15],"[640.0, 512.0]",horizontal,"(390.0, 762.0)",[0.433],1,715.197
1,False,25,1.279,76,[],[],"[(1240, 889), (1223, 895)]",[],"[0, 1]",[80],[1.3333333333333333],"[640.0, 512.0]",horizontal,"(890.0, 262.0)",[0.048],1,722.617
1,False,26,1.406,84,[],[],"[(1227, 901)]",[],[1],[98],[1.6333333333333333],"[640.0, 512.0]",vertical,"(390.0, 262.0)",[0.212],1,727.217
1,False,27,1.193,71,[],[],"[(1196, 888)]",[],[1],[88],[1.4666666666666666],"[640.0, 512.0]",horizontal,"(390.0, 762.0)",[0.267],1,730.379
1,False,28,0.755,45,[],[],"[(1200, 888)]",[],[1],[74],[1.2333333333333334],"[640.0, 512.0]",horizontal,"(890.0, 762.0)",[0.461],1,733.346
1,False,29,1.366,81,[],[],"[(1190, 909)]",[],[1],[89],[1.4833333333333334],"[640.0, 512.0]",horizontal,"(890.0, 762.0)",[0.114],1,736.095
1,False,30,0.589,35,[],[],"[(1197, 900)]",[],[1],[69],[1.15],"[640.0, 512.0]",horizontal,"(890.0, 262.0)",[0.543],1,739.099
1,False,31,0.76,45,[],[],"[(1190, 901)]",[],[1],[72],[1.2],"[640.0, 512.0]",horizontal,"(890.0, 262.0)",[0.432],1,741.805
1,False,32,0.912,54,[],[],"[(1185, 899)]",[],[1],[99],[1.65],"[640.0, 512.0]",vertical,"(390.0, 762.0)",[0.718],1,744.517
1,False,33,0.734,44,[],[],"[(1226, 894)]",[],[1],[74],[1.2333333333333334],"[640.0, 512.0]",horizontal,"(890.0, 262.0)",[0.478],1,747.646
1,False,34,1.064,63,[],[],"[(1247, 886), (1224, 911)]",[],"[0, 1]",[96],[1.6],"[640.0, 512.0]",horizontal,"(390.0, 762.0)",[0.518],1,750.367
1,False,35,0.395,23,[],[],"[(1223, 903)]",[],[1],[61],[1.0166666666666666],"[640.0, 512.0]",horizontal,"(890.0, 762.0)",[0.627],1,759.876
1,False,36,1.011,60,[],[],"[(1227, 897)]",[],[1],[92],[1.5333333333333332],"[640.0, 512.0]",horizontal,"(390.0, 762.0)",[0.505],1,766.684
1,False,37,0.608,36,[],[],"[(1223, 887)]",[],[1],[68],[1.1333333333333333],"[640.0, 512.0]",horizontal,"(890.0, 762.0)",[0.507],1,769.734
1,False,38,0.668,40,[],[],"[(1197, 916)]",[],[1],[56],[0.9333333333333333],"[640.0, 512.0]",horizontal,"(890.0, 762.0)",[0.248],1,772.362
1,False,39,0.689,41,[],[],"[(1209, 898)]",[],[1],[69],[1.15],"[640.0, 512.0]",vertical,"(390.0, 762.0)",[0.446],1,837.012
1,False,40,1.312,78,[],[878366],"[(1226, 903)]","[(1176, 912)]",[1],[65],[1.0833333333333333],"[640.0, 512.0]",horizontal,"(890.0, 762.0)",[0],0,839.684
1,False,41,0.738,44,[],[],"[(1196, 886)]",[],[1],[77],[1.2833333333333332],"[640.0, 512.0]",horizontal,"(390.0, 262.0)",[0.519],1,842.311
1,False,42,0.786,47,[],[],"[(1245, 882), (1168, 902)]",[],"[0, 1]",[77],[1.2833333333333332],"[640.0, 512.0]",vertical,"(390.0, 262.0)",[0.473],1,845.114
1,False,43,0.927,55,[],[],"[(1215, 909)]",[],[1],[84],[1.4],"[640.0, 512.0]",vertical,"(890.0, 762.0)",[0.46],1,849.165
1,False,44,1.154,69,[],[],"[(1172, 904)]",[],[1],[108],[1.8],"[640.0, 512.0]",vertical,"(890.0, 262.0)",[0.631],1,852.026
1,False,45,0.409,24,[],[],"[(1227, 897)]",[],[1],[62],[1.0333333333333332],"[640.0, 512.0]",vertical,"(390.0, 262.0)",[0.597],1,858.598
1,False,46,0.313,18,[],[],"[(1196, 907)]",[],[1],[54],[0.9],"[640.0, 512.0]",horizontal,"(390.0, 262.0)",[0.568],1,861.052
1,False,47,0.52,31,[],[],"[(1211, 901)]",[],[1],[78],[1.3],"[640.0, 512.0]",horizontal,"(890.0, 762.0)",[0.757],1,863.466
1,False,48,0.833,49,[],[],"[(1190, 898)]",[],[1],[81],[1.35],"[640.0, 512.0]",vertical,"(890.0, 262.0)",[0.501],1,866.318
1,False,49,0.522,31,[],[],"[(1190, 909)]",[],[1],[60],[1.0],"[640.0, 512.0]",vertical,"(890.0, 262.0)",[0.466],1,869.152
1,False,50,0.608,36,[],[],"[(1198, 895)]",[],[1],[66],[1.1],"[640.0, 512.0]",horizontal,"(890.0, 262.0)",[0.477],1,872.433
1,False,51,1.011,60,[],[],"[(1199, 889)]",[],[1],[86],[1.4333333333333333],"[640.0, 512.0]",vertical,"(390.0, 262.0)",[0.408],1,875.035
1,False,52,1.413,84,[],[],"[(1196, 890)]",[],[1],[90],[1.5],"[640.0, 512.0]",horizontal,"(890.0, 762.0)",[0.084],1,877.996
1,False,53,0.478,28,[],[],"[(1196, 915)]",[],[1],[58],[0.9666666666666667],"[640.0, 512.0]",vertical,"(390.0, 762.0)",[0.477],1,880.981
1,False,54,0.757,45,[],[922299],"[(1231, 889), (1223, 888)]","[(1171, 915)]","[0, 1]",[24],[0.4],"[640.0, 512.0]",horizontal,"(890.0, 262.0)",[0],0,883.459
1,False,55,1.218,73,[],[924928],"[(1197, 884)]","[(1179, 904)]",[1],[65],[1.0833333333333333],"[640.0, 512.0]",horizontal,"(390.0, 262.0)",[0],0,886.248
1,False,56,0.496,29,[],[],"[(1202, 896)]",[],[1],[69],[1.15],"[640.0, 512.0]",horizontal,"(390.0, 762.0)",[0.635],1,888.869
1,False,57,0.307,18,[],[],"[(1243, 890), (1160, 890)]",[],"[0, 1]",[52],[0.8666666666666667],"[640.0, 512.0]",horizontal,"(890.0, 762.0)",[0.547],1,892.092
1,False,58,1.244,74,[],[],"[(1213, 889)]",[],[1],[84],[1.4],"[640.0, 512.0]",horizontal,"(890.0, 262.0)",[0.149],1,896.212
1,False,59,1.136,68,[],[],"[(1226, 889)]",[],[1],[101],[1.6833333333333333],"[640.0, 512.0]",vertical,"(890.0, 762.0)",[0.522],1,899.114
1,False,60,1.262,75,[],[],"[(1228, 886)]",[],[1],[78],[1.3],"[640.0, 512.0]",horizontal,"(890.0, 762.0)",[0.033],1,902.264
2,False,61,0.509,30,[],[],"[(1227, 889)]",[],[1],[61],[1.0166666666666666],"[640.0, 512.0]",vertical,"(390.0, 262.0)",[0.49],1,905.064
2,False,62,1.216,72,[],[],"[(1223, 900)]",[],[1],[101],[1.6833333333333333],"[640.0, 512.0]",vertical,"(390.0, 762.0)",[0.463],1,907.551
2,False,63,0.411,24,[],[],"[(1196, 885)]",[],[1],[63],[1.05],"[640.0, 512.0]",horizontal,"(890.0, 762.0)",[0.631],1,910.768
2,False,64,0.83,49,[],[],"[(1193, 892)]",[],[1],[81],[1.35],"[640.0, 512.0]",vertical,"(390.0, 762.0)",[0.508],1,913.295
2,False,65,0.914,54,[],[],"[(1192, 885)]",[],[1],[85],[1.4166666666666667],"[640.0, 512.0]",horizontal,"(390.0, 762.0)",[0.489],1,916.11
2,False,66,0.937,56,[],[],"[(1227, 869)]",[],[1],[87],[1.45],"[640.0, 512.0]",vertical,"(890.0, 262.0)",[0.497],1,919.032
2,False,67,1.325,79,[],[],"[(1224, 894)]",[],[1],[112],[1.8666666666666667],"[640.0, 512.0]",vertical,"(890.0, 262.0)",[0.525],1,921.924
2,False,68,0.308,18,[],[],"[(1221, 891)]",[],[1],[51],[0.85],"[640.0, 512.0]",vertical,"(390.0, 762.0)",[0.525],1,925.283
2,False,69,0.891,53,[],[],"[(1219, 904)]",[],[1],[84],[1.4],"[640.0, 512.0]",horizontal,"(390.0, 762.0)",[0.493],1,927.626
2,False,70,0.525,31,[],[],"[(1227, 903)]",[],[1],[61],[1.0166666666666666],"[640.0, 512.0]",vertical,"(890.0, 262.0)",[0.481],1,930.514
2,False,71,0.312,18,[],[],"[(1192, 889)]",[],[1],[59],[0.9833333333333333],"[640.0, 512.0]",vertical,"(890.0, 262.0)",[0.659],1,932.995
2,False,72,1.403,84,[],[],"[(1227, 911)]",[],[1],[96],[1.6],"[640.0, 512.0]",vertical,"(890.0, 262.0)",[0.184],1,935.47
2,False,73,1.254,75,[],[],"[(1196, 904)]",[],[1],[88],[1.4666666666666666],"[640.0, 512.0]",horizontal,"(390.0, 762.0)",[0.198],1,938.55
2,False,74,1.293,77,[],[],"[(1222, 896)]",[],[1],[103],[1.7166666666666666],"[640.0, 512.0]",vertical,"(390.0, 762.0)",[0.41],1,941.477
2,False,75,0.771,46,[],[],"[(1178, 911)]",[],[1],[84],[1.4],"[640.0, 512.0]",vertical,"(890.0, 762.0)",[0.609],1,944.696
2,False,76,1.49,89,[],[],"[(1203, 910)]",[],[1],[116],[1.9333333333333333],"[640.0, 512.0]",vertical,"(890.0, 262.0)",[0.426],1,947.77
2,False,77,1.205,72,[],[],"[(1229, 899)]",[],[1],[102],[1.7],"[640.0, 512.0]",vertical,"(890.0, 762.0)",[0.476],1,951.225
2,False,78,0.891,53,[],[],"[(1196, 899)]",[],[1],[83],[1.3833333333333333],"[640.0, 512.0]",horizontal,"(890.0, 262.0)",[0.472],1,954.458
2,False,79,0.364,21,[],[],"[(1227, 894)]",[],[1],[65],[1.0833333333333333],"[640.0, 512.0]",vertical,"(890.0, 262.0)",[0.713],1,957.311
2,False,80,1.44,86,[],[],"[(1196, 898)]",[],[1],[108],[1.8],"[640.0, 512.0]",horizontal,"(390.0, 262.0)",[0.346],1,959.943
2,False,81,1.026,61,[],[],"[(1224, 894)]",[],[1],[93],[1.55],"[640.0, 512.0]",vertical,"(890.0, 262.0)",[0.513],1,963.263
2,False,82,0.505,30,[],[],"[(1222, 892)]",[],[1],[62],[1.0333333333333332],"[640.0, 512.0]",horizontal,"(390.0, 262.0)",[0.502],1,966.311
2,False,83,1.291,77,[],[],"[(1221, 887)]",[],[1],[102],[1.7],"[640.0, 512.0]",vertical,"(890.0, 762.0)",[0.39],1,968.812
2,False,84,1.142,68,[],[],"[(1196, 890)]",[],[1],[80],[1.3333333333333333],"[640.0, 512.0]",vertical,"(390.0, 762.0)",[0.178],1,972.007
2,False,85,0.865,51,[],[],"[(1237, 894), (1233, 894), (1196, 892)]",[],"[0, 0, 1]",[80],[1.3333333333333333],"[640.0, 512.0]",vertical,"(890.0, 762.0)",[0.458],1,974.918
2,False,86,0.667,40,[],[],"[(1197, 892)]",[],[1],[77],[1.2833333333333332],"[640.0, 512.0]",vertical,"(390.0, 762.0)",[0.591],1,985.596
2,False,87,0.762,45,[],[],"[(1220, 893)]",[],[1],[78],[1.3],"[640.0, 512.0]",vertical,"(390.0, 262.0)",[0.529],1,989.175
2,False,88,0.711,42,[],[],"[(1238, 883), (1227, 904)]",[],"[0, 1]",[70],[1.1666666666666667],"[640.0, 512.0]",horizontal,"(390.0, 762.0)",[0.446],1,991.968
2,False,89,1.216,72,[],[],"[(1196, 894)]",[],[1],[87],[1.45],"[640.0, 512.0]",horizontal,"(890.0, 762.0)",[0.233],1,995.574
2,False,90,0.811,48,[],[],"[(1203, 890)]",[],[1],[91],[1.5166666666666666],"[640.0, 512.0]",vertical,"(390.0, 262.0)",[0.687],1,998.514
2,False,91,0.429,25,[],[],"[(1196, 909)]",[],[1],[58],[0.9666666666666667],"[640.0, 512.0]",vertical,"(390.0, 262.0)",[0.527],1,1001.498
2,False,92,0.505,30,[],[],"[(1196, 899)]",[],[1],[65],[1.0833333333333333],"[640.0, 512.0]",horizontal,"(890.0, 762.0)",[0.566],1,1004.016
2,False,93,1.14,68,[],[],"[(1202, 893)]",[],[1],[89],[1.4833333333333334],"[640.0, 512.0]",horizontal,"(390.0, 262.0)",[0.326],1,1006.614
2,False,94,0.856,51,[],[],"[(1190, 902)]",[],[1],[73],[1.2166666666666666],"[640.0, 512.0]",vertical,"(390.0, 762.0)",[0.347],1,1009.586
2,False,95,0.301,18,[],[],"[(1226, 885)]",[],[1],[54],[0.9],"[640.0, 512.0]",vertical,"(390.0, 262.0)",[0.569],1,1016.598
2,False,96,0.743,44,[],[],"[(1227, 904)]",[],[1],[82],[1.3666666666666667],"[640.0, 512.0]",horizontal,"(890.0, 262.0)",[0.604],1,1018.999
2,False,97,1.415,84,[],[],"[(1200, 894)]",[],[1],[104],[1.7333333333333334],"[640.0, 512.0]",horizontal,"(390.0, 262.0)",[0.316],1,1021.864
2,False,98,0.357,21,[],[],"[(1240, 892), (1219, 910)]",[],"[0, 1]",[55],[0.9166666666666666],"[640.0, 512.0]",horizontal,"(390.0, 762.0)",[0.536],1,1025.235
2,False,99,0.522,31,[],[],"[(1219, 894)]",[],[1],[61],[1.0166666666666666],"[640.0, 512.0]",vertical,"(890.0, 262.0)",[0.475],1,1028.608
2,False,100,0.961,57,[],[],"[(1219, 904)]",[],[1],[88],[1.4666666666666666],"[640.0, 512.0]",vertical,"(390.0, 262.0)",[0.492],1,1031.083
2,False,101,1.359,81,[],[],"[(1245, 897), (1227, 906)]",[],"[0, 1]",[83],[1.3833333333333333],"[640.0, 512.0]",vertical,"(390.0, 262.0)",[0.017],1,1034.031
2,False,102,1.342,80,[],[],"[(1203, 892)]",[],[1],[110],[1.8333333333333333],"[640.0, 512.0]",vertical,"(390.0, 262.0)",[0.475],1,1037.737
2,False,103,1.345,80,[],[],"[(1194, 893)]",[],[1],[96],[1.6],"[640.0, 512.0]",vertical,"(890.0, 262.0)",[0.247],1,1041.084
2,False,104,0.994,59,[],[],"[(1226, 890)]",[],[1],[91],[1.5166666666666666],"[640.0, 512.0]",horizontal,"(890.0, 762.0)",[0.508],1,1044.876
2,False,105,1.032,61,[],[],"[(1193, 891)]",[],[1],[90],[1.5],"[640.0, 512.0]",vertical,"(890.0, 262.0)",[0.457],1,1047.87
2,False,106,0.381,22,[],[],"[(1194, 891)]",[],[1],[57],[0.95],"[640.0, 512.0]",vertical,"(390.0, 262.0)",[0.553],1,1050.844
2,False,107,1.341,80,[],[],"[(1225, 886)]",[],[1],[94],[1.5666666666666667],"[640.0, 512.0]",horizontal,"(890.0, 762.0)",[0.216],1,1053.314
2,False,108,0.668,40,[],[],"[(1184, 905)]",[],[1],[73],[1.2166666666666666],"[640.0, 512.0]",vertical,"(390.0, 762.0)",[0.521],1,1056.402
2,False,109,0.616,36,[],[],"[(1172, 893)]",[],[1],[69],[1.15],"[640.0, 512.0]",horizontal,"(390.0, 762.0)",[0.52],1,1059.364
2,False,110,0.589,35,[],[],"[(1190, 898)]",[],[1],[69],[1.15],"[640.0, 512.0]",horizontal,"(390.0, 262.0)",[0.548],1,1062.982
2,False,111,0.987,59,[],[],"[(1193, 890)]",[],[1],[98],[1.6333333333333333],"[640.0, 512.0]",horizontal,"(890.0, 762.0)",[0.623],1,1065.648
2,False,112,1.224,73,[],[],"[(1180, 900)]",[],[1],[94],[1.5666666666666667],"[640.0, 512.0]",vertical,"(890.0, 262.0)",[0.326],1,1068.733
2,False,113,0.306,18,[],[],"[(1210, 889)]",[],[1],[51],[0.85],"[640.0, 512.0]",horizontal,"(890.0, 262.0)",[0.521],1,1071.819
2,False,114,1.314,78,[],[],"[(1226, 909)]",[],[1],[101],[1.6833333333333333],"[640.0, 512.0]",horizontal,"(890.0, 262.0)",[0.363],1,1074.166
2,False,115,1.333,79,[],[],"[(1184, 923)]",[],[1],[118],[1.9666666666666666],"[640.0, 512.0]",vertical,"(390.0, 262.0)",[0.615],1,1077.331
2,False,116,0.408,24,[],[],"[(1197, 899)]",[],[1],[61],[1.0166666666666666],"[640.0, 512.0]",horizontal,"(890.0, 262.0)",[0.592],1,1080.953
2,False,117,0.586,35,[],[],"[(1190, 910)]",[],[1],[69],[1.15],"[640.0, 512.0]",horizontal,"(390.0, 262.0)",[0.537],1,1083.485
2,False,118,1.403,84,[],[],"[(1178, 928)]",[],[1],[120],[2.0],"[640.0, 512.0]",vertical,"(890.0, 762.0)",[0.572],1,1086.15
2,False,119,0.417,25,[],[],"[(1184, 899)]",[],[1],[59],[0.9833333333333333],"[640.0, 512.0]",horizontal,"(890.0, 262.0)",[0.541],1,1089.666
2,False,120,0.442,26,[],[],"[(1198, 896)]",[],[1],[65],[1.0833333333333333],"[640.0, 512.0]",horizontal,"(890.0, 262.0)",[0.623],1,1092.163
3,False,121,1.214,72,[],[],"[(1223, 894)]",[],[1],[106],[1.7666666666666666],"[640.0, 512.0]",vertical,"(890.0, 262.0)",[0.546],1,1094.749
3,False,122,0.986,59,[],[],"[(1190, 890)]",[],[1],[81],[1.35],"[640.0, 512.0]",horizontal,"(890.0, 762.0)",[0.344],1,1098.033
3,False,123,0.707,42,[],[],"[(1190, 906)]",[],[1],[75],[1.25],"[640.0, 512.0]",vertical,"(390.0, 762.0)",[0.52],1,1100.885
3,False,124,1.152,69,[],[],"[(1190, 905)]",[],[1],[91],[1.5166666666666666],"[640.0, 512.0]",horizontal,"(390.0, 262.0)",[0.344],1,1103.637
3,False,125,0.81,48,[],[],"[(1220, 885)]",[],[1],[94],[1.5666666666666667],"[640.0, 512.0]",horizontal,"(390.0, 262.0)",[0.736],1,1106.701
3,False,126,1.457,87,[],[],"[(1194, 897)]",[],[1],[113],[1.8833333333333333],"[640.0, 512.0]",horizontal,"(390.0, 762.0)",[0.403],1,1109.722
3,False,127,1.436,86,[],[],"[(1196, 898)]",[],[1],[109],[1.8166666666666667],"[640.0, 512.0]",horizontal,"(890.0, 262.0)",[0.358],1,1113.088
3,False,128,1.131,67,[],[],"[(1196, 897)]",[],[1],[102],[1.7],"[640.0, 512.0]",horizontal,"(890.0, 762.0)",[0.558],1,1116.398
3,False,129,0.319,19,[],[],"[(1178, 897)]",[],[1],[54],[0.9],"[640.0, 512.0]",horizontal,"(390.0, 262.0)",[0.554],1,1119.596
3,False,130,0.436,26,[],[],"[(1202, 900)]",[],[1],[68],[1.1333333333333333],"[640.0, 512.0]",vertical,"(890.0, 762.0)",[0.673],1,1123.295
3,False,131,0.921,55,[],[],"[(1190, 908)]",[],[1],[88],[1.4666666666666666],"[640.0, 512.0]",vertical,"(390.0, 762.0)",[0.528],1,1125.951
3,False,132,1.361,81,[],[],"[(1223, 898)]",[],[1],[115],[1.9166666666666667],"[640.0, 512.0]",horizontal,"(390.0, 762.0)",[0.533],1,1128.894
3,False,133,0.483,28,[],[],"[(1166, 904)]",[],[1],[61],[1.0166666666666666],"[640.0, 512.0]",horizontal,"(390.0, 762.0)",[0.521],1,1132.286
3,False,134,1.172,70,[],[],"[(1178, 914)]",[],[1],[99],[1.65],"[640.0, 512.0]",horizontal,"(890.0, 262.0)",[0.46],1,1136.378
3,False,135,1.13,67,[],[],"[(1177, 897)]",[],[1],[99],[1.65],"[640.0, 512.0]",vertical,"(890.0, 262.0)",[0.51],1,1139.58
3,False,136,1.18,70,[],[],"[(1219, 891)]",[],[1],[84],[1.4],"[640.0, 512.0]",horizontal,"(390.0, 762.0)",[0.213],1,1142.796
3,False,137,0.5,30,[],[],"[(1194, 894)]",[],[1],[63],[1.05],"[640.0, 512.0]",horizontal,"(890.0, 262.0)",[0.526],1,1145.638
3,False,138,0.375,22,[],[],"[(1213, 897)]",[],[1],[58],[0.9666666666666667],"[640.0, 512.0]",vertical,"(390.0, 262.0)",[0.57],1,1148.197
3,False,139,1.451,87,[],[],"[(1217, 891)]",[],[1],[92],[1.5333333333333332],"[640.0, 512.0]",horizontal,"(390.0, 762.0)",[0.066],1,1150.665
3,False,140,0.781,46,[],[],"[(1196, 889)]",[],[1],[94],[1.5666666666666667],"[640.0, 512.0]",vertical,"(890.0, 762.0)",[0.77],1,1153.64
3,False,141,1.08,64,[],[],"[(1194, 906)]",[],[1],[90],[1.5],"[640.0, 512.0]",horizontal,"(390.0, 262.0)",[0.408],1,1156.674
3,False,142,0.911,54,[],[],"[(1227, 888)]",[],[1],[82],[1.3666666666666667],"[640.0, 512.0]",horizontal,"(890.0, 262.0)",[0.45],1,1159.691
3,False,143,0.937,56,[],[],"[(1219, 894)]",[],[1],[89],[1.4833333333333334],"[640.0, 512.0]",horizontal,"(890.0, 762.0)",[0.521],1,1162.521
3,False,144,0.671,40,[],[],"[(1223, 909)]",[],[1],[71],[1.1833333333333333],"[640.0, 512.0]",horizontal,"(390.0, 762.0)",[0.492],1,1165.479
3,False,145,0.952,57,[],[],"[(1214, 898)]",[],[1],[88],[1.4666666666666666],"[640.0, 512.0]",vertical,"(890.0, 262.0)",[0.491],1,1168.153
3,False,146,0.591,35,[],[],"[(1226, 905)]",[],[1],[68],[1.1333333333333333],"[640.0, 512.0]",horizontal,"(390.0, 262.0)",[0.524],1,1171.089
3,False,147,0.945,56,[],[],"[(1202, 912)]",[],[1],[87],[1.45],"[640.0, 512.0]",vertical,"(890.0, 762.0)",[0.488],1,1173.708
3,False,148,1.497,89,[],[],"[(1198, 893)]",[],[1],[120],[2.0],"[640.0, 512.0]",horizontal,"(390.0, 762.0)",[0.488],1,1176.648
3,False,149,1.294,77,[],[],"[(1223, 888)]",[],[1],[94],[1.5666666666666667],"[640.0, 512.0]",vertical,"(390.0, 762.0)",[0.264],1,1180.135
3,False,150,0.902,54,[],[],"[(1190, 894)]",[],[1],[86],[1.4333333333333333],"[640.0, 512.0]",vertical,"(390.0, 762.0)",[0.515],1,1183.151
3,False,151,1.223,73,[],[],"[(1217, 902)]",[],[1],[89],[1.4833333333333334],"[640.0, 512.0]",horizontal,"(890.0, 762.0)",[0.249],1,1186.119
3,False,152,1.497,89,[],[],"[(1227, 891)]",[],[1],[102],[1.7],"[640.0, 512.0]",vertical,"(890.0, 762.0)",[0.198],1,1189.101
3,False,153,1.5,90,[],[],"[(1227, 904)]",[],[1],[99],[1.65],"[640.0, 512.0]",vertical,"(890.0, 262.0)",[0.133],1,1192.24
3,False,154,1.422,85,[],[],"[(1227, 898)]",[],[1],[95],[1.5833333333333333],"[640.0, 512.0]",horizontal,"(890.0, 262.0)",[0.147],1,1195.371
3,False,155,0.836,50,[],[],"[(1227, 906)]",[],[1],[99],[1.65],"[640.0, 512.0]",vertical,"(390.0, 762.0)",[0.787],1,1198.43
3,False,156,0.743,44,[],[],"[(1178, 893)]",[],[1],[76],[1.2666666666666666],"[640.0, 512.0]",vertical,"(390.0, 262.0)",[0.503],1,1201.601
3,False,157,0.847,50,[],[],"[(1194, 898)]",[],[1],[84],[1.4],"[640.0, 512.0]",horizontal,"(890.0, 762.0)",[0.54],1,1204.411
3,False,158,0.333,19,[],[],"[(1198, 889)]",[],[1],[55],[0.9166666666666666],"[640.0, 512.0]",horizontal,"(390.0, 762.0)",[0.579],1,1207.316
3,False,159,0.39,23,[],[],"[(1195, 886)]",[],[1],[61],[1.0166666666666666],"[640.0, 512.0]",horizontal,"(390.0, 262.0)",[0.6],1,1209.747
3,False,160,1.406,84,[],[1257157],"[(1245, 897), (1185, 898)]","[(1157, 919)]","[0, 1]",[69],[1.15],"[640.0, 512.0]",horizontal,"(890.0, 262.0)",[0],0,1212.277
3,False,161,0.668,40,[],[],"[(1197, 876)]",[],[1],[71],[1.1833333333333333],"[640.0, 512.0]",vertical,"(390.0, 762.0)",[0.491],1,1221.089
3,False,162,0.633,37,[],[],"[(1231, 897), (1196, 880)]",[],"[0, 1]",[69],[1.15],"[640.0, 512.0]",horizontal,"(890.0, 262.0)",[0.508],1,1224.384
3,False,163,1.288,77,[],[],"[(1190, 884)]",[],[1],[99],[1.65],"[640.0, 512.0]",horizontal,"(890.0, 262.0)",[0.35],1,1229.743
3,False,164,0.85,51,[],[],"[(1221, 902)]",[],[1],[85],[1.4166666666666667],"[640.0, 512.0]",vertical,"(390.0, 262.0)",[0.544],1,1232.886
3,False,165,0.719,43,[],[],"[(1209, 890)]",[],[1],[78],[1.3],"[640.0, 512.0]",vertical,"(890.0, 262.0)",[0.56],1,1235.812
3,False,166,1.123,67,[],[],"[(1227, 892)]",[],[1],[88],[1.4666666666666666],"[640.0, 512.0]",vertical,"(890.0, 262.0)",[0.331],1,1238.598
3,False,167,0.732,43,[],[],"[(1224, 898)]",[],[1],[78],[1.3],"[640.0, 512.0]",horizontal,"(890.0, 762.0)",[0.559],1,1241.569
3,False,168,0.601,36,[],[],"[(1179, 905)]",[],[1],[69],[1.15],"[640.0, 512.0]",vertical,"(390.0, 762.0)",[0.535],1,1244.389
3,False,169,1.148,68,[],[],"[(1186, 912)]",[],[1],[89],[1.4833333333333334],"[640.0, 512.0]",horizontal,"(890.0, 262.0)",[0.332],1,1247.15
3,False,170,1.11,66,[],[],"[(1196, 894)]",[],[1],[91],[1.5166666666666666],"[640.0, 512.0]",vertical,"(390.0, 262.0)",[0.395],1,1250.986
3,False,171,0.532,31,[],[],"[(1214, 894)]",[],[1],[69],[1.15],"[640.0, 512.0]",horizontal,"(390.0, 262.0)",[0.607],1,1254.001
3,False,172,0.65,39,[],[],"[(1182, 929)]",[],[1],[70],[1.1666666666666667],"[640.0, 512.0]",horizontal,"(890.0, 262.0)",[0.492],1,1256.67
3,False,173,0.411,24,[],[],"[(1243, 899), (1237, 896), (1190, 907)]",[],"[0, 0, 1]",[63],[1.05],"[640.0, 512.0]",vertical,"(390.0, 262.0)",[0.617],1,1259.611
3,False,174,1.438,86,[],[],"[(1186, 894)]",[],[1],[131],[2.183333333333333],"[640.0, 512.0]",horizontal,"(890.0, 762.0)",[0.719],1,1267.27
3,False,175,1.14,68,[],[],"[(1190, 905)]",[],[1],[107],[1.7833333333333332],"[640.0, 512.0]",horizontal,"(890.0, 262.0)",[0.617],1,1272.465
3,False,176,0.375,22,[],[],"[(1223, 884)]",[],[1],[56],[0.9333333333333333],"[640.0, 512.0]",vertical,"(890.0, 762.0)",[0.539],1,1275.732
3,False,177,1.324,79,[],[1317028],"[(1196, 904)]","[(1163, 906)]",[1],[77],[1.2833333333333332],"[640.0, 512.0]",horizontal,"(390.0, 262.0)",[0],0,1278.163
3,False,178,1.07,64,[],[],"[(1190, 898)]",[],[1],[92],[1.5333333333333332],"[640.0, 512.0]",horizontal,"(890.0, 762.0)",[0.446],1,1280.958
3,False,179,1.027,61,[],[],"[(1196, 891)]",[],[1],[90],[1.5],"[640.0, 512.0]",horizontal,"(390.0, 762.0)",[0.454],1,1284.251
3,False,180,0.917,55,[],[],"[(1227, 887)]",[],[1],[94],[1.5666666666666667],"[640.0, 512.0]",vertical,"(890.0, 762.0)",[0.622],1,1287.27
4,False,181,0.753,45,[],[],"[(1203, 900)]",[],[1],[77],[1.2833333333333332],"[640.0, 512.0]",vertical,"(390.0, 762.0)",[0.508],1,1290.332
4,False,182,1.224,73,[],[],"[(1221, 899)]",[],[1],[105],[1.75],"[640.0, 512.0]",horizontal,"(390.0, 762.0)",[0.516],1,1293.578
4,False,183,0.342,20,[],[],"[(1220, 885)]",[],[1],[58],[0.9666666666666667],"[640.0, 512.0]",horizontal,"(390.0, 262.0)",[0.605],1,1296.849
4,False,184,1.132,67,[],[],"[(1221, 890)]",[],[1],[99],[1.65],"[640.0, 512.0]",vertical,"(890.0, 262.0)",[0.509],1,1299.305
4,False,185,0.883,52,[],[],"[(1188, 901)]",[],[1],[81],[1.35],"[640.0, 512.0]",horizontal,"(890.0, 262.0)",[0.464],1,1302.421
4,False,186,1.196,71,[],[],"[(1227, 903)]",[],[1],[99],[1.65],"[640.0, 512.0]",horizontal,"(390.0, 762.0)",[0.447],1,1305.28
4,False,187,0.763,45,[],[],"[(1194, 888)]",[],[1],[91],[1.5166666666666666],"[640.0, 512.0]",horizontal,"(390.0, 262.0)",[0.737],1,1308.419
4,False,188,1.149,68,[],[],"[(1190, 904)]",[],[1],[80],[1.3333333333333333],"[640.0, 512.0]",vertical,"(390.0, 262.0)",[0.179],1,1311.446
4,False,189,0.49,29,[],[],"[(1190, 893)]",[],[1],[60],[1.0],"[640.0, 512.0]",horizontal,"(890.0, 262.0)",[0.499],1,1314.485
4,False,190,0.784,47,[],[],"[(1203, 900)]",[],[1],[81],[1.35],"[640.0, 512.0]",vertical,"(890.0, 762.0)",[0.546],1,1317.002
4,False,191,0.96,57,[],[],"[(1202, 898)]",[],[1],[89],[1.4833333333333334],"[640.0, 512.0]",vertical,"(890.0, 762.0)",[0.504],1,1319.904
4,False,192,1.276,76,[],[],"[(1201, 898)]",[],[1],[93],[1.55],"[640.0, 512.0]",vertical,"(390.0, 262.0)",[0.264],1,1322.852
4,False,193,1.356,81,[],[],"[(1203, 901)]",[],[1],[93],[1.55],"[640.0, 512.0]",horizontal,"(390.0, 262.0)",[0.184],1,1325.876
4,False,194,0.437,26,[],[],"[(1196, 900)]",[],[1],[58],[0.9666666666666667],"[640.0, 512.0]",horizontal,"(390.0, 262.0)",[0.512],1,1328.93
4,False,195,0.986,59,[],[],"[(1193, 916)]",[],[1],[86],[1.4333333333333333],"[640.0, 512.0]",horizontal,"(390.0, 262.0)",[0.432],1,1331.42
4,False,196,1.233,73,[],[],"[(1223, 901)]",[],[1],[99],[1.65],"[640.0, 512.0]",vertical,"(390.0, 262.0)",[0.401],1,1334.414
4,False,197,0.352,21,[],[],"[(1199, 897)]",[],[1],[58],[0.9666666666666667],"[640.0, 512.0]",vertical,"(390.0, 262.0)",[0.583],1,1337.534
4,False,198,0.589,35,[],[],"[(1199, 899)]",[],[1],[68],[1.1333333333333333],"[640.0, 512.0]",horizontal,"(890.0, 762.0)",[0.527],1,1339.968
4,False,199,1.458,87,[],[],"[(1203, 889)]",[],[1],[100],[1.6666666666666667],"[640.0, 512.0]",horizontal,"(390.0, 262.0)",[0.197],1,1342.595
4,False,200,0.459,27,[],[],"[(1216, 890)]",[],[1],[59],[0.9833333333333333],"[640.0, 512.0]",horizontal,"(390.0, 262.0)",[0.503],1,1345.732
4,False,201,1.491,89,[],[1387280],"[(1196, 900)]","[(1172, 906)]",[1],[87],[1.45],"[640.0, 512.0]",horizontal,"(890.0, 762.0)",[0],0,1348.199
4,False,202,0.561,33,[],[],"[(1190, 894)]",[],[1],[64],[1.0666666666666667],"[640.0, 512.0]",vertical,"(890.0, 262.0)",[0.497],1,1351.221
4,False,203,1.427,85,[],[],"[(1186, 891)]",[],[1],[95],[1.5833333333333333],"[640.0, 512.0]",vertical,"(390.0, 262.0)",[0.149],1,1353.815
4,False,204,0.687,41,[],[],"[(1196, 894)]",[],[1],[72],[1.2],"[640.0, 512.0]",horizontal,"(890.0, 262.0)",[0.489],1,1356.934
4,False,205,1.438,86,[],[],"[(1185, 885)]",[],[1],[88],[1.4666666666666666],"[640.0, 512.0]",vertical,"(390.0, 762.0)",[0.019],1,1359.637
4,False,206,0.725,43,[],[],"[(1196, 896)]",[],[1],[75],[1.25],"[640.0, 512.0]",vertical,"(890.0, 262.0)",[0.51],1,1362.631
4,False,207,1.269,76,[],[],"[(1225, 886)]",[],[1],[85],[1.4166666666666667],"[640.0, 512.0]",horizontal,"(890.0, 262.0)",[0.137],1,1365.38
4,False,208,1.33,79,[],[],"[(1178, 890)]",[],[1],[91],[1.5166666666666666],"[640.0, 512.0]",vertical,"(390.0, 762.0)",[0.183],1,1368.32
4,False,209,1.056,63,[],[],"[(1196, 899)]",[],[1],[92],[1.5333333333333332],"[640.0, 512.0]",horizontal,"(890.0, 262.0)",[0.46],1,1371.364
4,False,210,0.714,42,[],[],"[(1226, 916)]",[],[1],[74],[1.2333333333333334],"[640.0, 512.0]",horizontal,"(390.0, 262.0)",[0.503],1,1374.398
4,False,211,0.508,30,[],[],"[(1223, 902)]",[],[1],[65],[1.0833333333333333],"[640.0, 512.0]",vertical,"(890.0, 262.0)",[0.55],1,1377.137
4,False,212,0.509,30,[],[],"[(1222, 907)]",[],[1],[63],[1.05],"[640.0, 512.0]",vertical,"(390.0, 262.0)",[0.521],1,1379.765
4,False,213,0.883,52,[],[],"[(1190, 915)]",[],[1],[83],[1.3833333333333333],"[640.0, 512.0]",vertical,"(890.0, 762.0)",[0.488],1,1382.299
4,False,214,0.322,19,[],[],"[(1196, 889)]",[],[1],[54],[0.9],"[640.0, 512.0]",horizontal,"(390.0, 262.0)",[0.556],1,1385.454
4,False,215,1.495,89,[],[1426849],"[(1182, 902)]","[(1192, 909)]",[1],[85],[1.4166666666666667],"[640.0, 512.0]",horizontal,"(890.0, 762.0)",[0],0,1387.803
4,False,216,1.404,84,[],[],"[(1185, 898)]",[],[1],[94],[1.5666666666666667],"[640.0, 512.0]",vertical,"(390.0, 262.0)",[0.148],1,1390.779
4,False,217,1.179,70,[],[],"[(1190, 887)]",[],[1],[103],[1.7166666666666666],"[640.0, 512.0]",vertical,"(390.0, 262.0)",[0.526],1,1394.094
4,False,218,1.167,70,[],[1443540],"[(1190, 905)]","[(1190, 905)]",[1],[67],[1.1166666666666667],"[640.0, 512.0]",vertical,"(890.0, 762.0)",[0],0,1403.643
4,False,219,0.968,58,[],[],"[(1227, 899)]",[],[1],[65],[1.0833333333333333],"[640.0, 512.0]",vertical,"(890.0, 262.0)",[0.101],1,1407.483
4,False,220,0.753,45,[],[],"[(1160, 890)]",[],[1],[74],[1.2333333333333334],"[640.0, 512.0]",vertical,"(890.0, 262.0)",[0.46],1,1410.346
4,False,221,0.821,49,[],[],"[(1166, 894)]",[],[1],[79],[1.3166666666666667],"[640.0, 512.0]",vertical,"(890.0, 262.0)",[0.479],1,1413.293
4,False,222,0.841,50,[],[],"[(1166, 896)]",[],[1],[63],[1.05],"[640.0, 512.0]",horizontal,"(390.0, 262.0)",[0.199],1,1416.103
4,False,223,0.98,58,[],[],"[(1184, 894)]",[],[1],[85],[1.4166666666666667],"[640.0, 512.0]",vertical,"(390.0, 262.0)",[0.422],1,1420.433
4,False,224,0.918,55,[],[],"[(1190, 894)]",[],[1],[73],[1.2166666666666666],"[640.0, 512.0]",horizontal,"(890.0, 762.0)",[0.283],1,1423.328
4,False,225,1.251,75,[],[],"[(1196, 901)]",[],[1],[89],[1.4833333333333334],"[640.0, 512.0]",horizontal,"(890.0, 262.0)",[0.215],1,1426.016
4,False,226,1.374,82,[],[],"[(1184, 897)]",[],[1],[90],[1.5],"[640.0, 512.0]",horizontal,"(890.0, 762.0)",[0.117],1,1429.021
4,False,227,0.857,51,[],[],"[(1190, 891)]",[],[1],[82],[1.3666666666666667],"[640.0, 512.0]",vertical,"(890.0, 262.0)",[0.482],1,1432.009
4,False,228,0.881,52,[],[],"[(1196, 899)]",[],[1],[78],[1.3],"[640.0, 512.0]",vertical,"(890.0, 762.0)",[0.41],1,1434.831
4,False,229,1.387,83,[],[1476512],"[(1190, 902)]","[(1175, 908)]",[1],[81],[1.35],"[640.0, 512.0]",horizontal,"(390.0, 262.0)",[0],0,1437.603
4,False,230,1.331,79,[],[],"[(1192, 890)]",[],[1],[95],[1.5833333333333333],"[640.0, 512.0]",horizontal,"(890.0, 762.0)",[0.251],1,1440.445
4,False,231,1.165,69,[],[],"[(1195, 898)]",[],[1],[93],[1.55],"[640.0, 512.0]",vertical,"(390.0, 262.0)",[0.379],1,1443.514
4,False,232,1.373,82,[],[],"[(1196, 904)]",[],[1],[84],[1.4],"[640.0, 512.0]",horizontal,"(890.0, 762.0)",[0.017],1,1446.557
4,False,233,0.998,59,[],[],"[(1190, 899)]",[],[1],[85],[1.4166666666666667],"[640.0, 512.0]",horizontal,"(390.0, 762.0)",[0.408],1,1449.46
4,False,234,1.177,70,[],[],"[(1192, 885)]",[],[1],[101],[1.6833333333333333],"[640.0, 512.0]",vertical,"(890.0, 762.0)",[0.491],1,1452.371
4,False,235,0.83,49,[],[],"[(1213, 892)]",[],[1],[70],[1.1666666666666667],"[640.0, 512.0]",vertical,"(890.0, 262.0)",[0.327],1,1455.566
4,False,236,0.74,44,[],[],"[(1165, 904)]",[],[1],[82],[1.3666666666666667],"[640.0, 512.0]",vertical,"(390.0, 262.0)",[0.605],1,1458.23
4,False,237,0.997,59,[],[],"[(1175, 890)]",[],[1],[81],[1.35],"[640.0, 512.0]",horizontal,"(890.0, 762.0)",[0.343],1,1461.687
4,False,238,1.378,82,[],[],"[(1190, 894)]",[],[1],[98],[1.6333333333333333],"[640.0, 512.0]",vertical,"(390.0, 762.0)",[0.244],1,1464.541
4,False,239,0.523,31,[],[],"[(1160, 892)]",[],[1],[62],[1.0333333333333332],"[640.0, 512.0]",vertical,"(890.0, 262.0)",[0.492],1,1467.67
4,False,240,1.175,70,[],[],"[(1195, 875)]",[],[1],[73],[1.2166666666666666],"[640.0, 512.0]",vertical,"(890.0, 762.0)",[0.033],1,1470.496
5,False,241,0.651,39,[],[],"[(1192, 896)]",[],[1],[68],[1.1333333333333333],"[640.0, 512.0]",horizontal,"(890.0, 262.0)",[0.454],1,1473.169
5,False,242,0.791,47,[],[],"[(1196, 892)]",[],[1],[83],[1.3833333333333333],"[640.0, 512.0]",horizontal,"(890.0, 762.0)",[0.57],1,1475.787
5,False,243,0.487,29,[],[],"[(1194, 896)]",[],[1],[63],[1.05],"[640.0, 512.0]",horizontal,"(890.0, 762.0)",[0.54],1,1478.642
5,False,244,1.444,86,[],[1519782],"[(1178, 898)]","[(1149, 900)]",[1],[60],[1.0],"[640.0, 512.0]",vertical,"(890.0, 262.0)",[0],0,1481.188
5,False,245,0.904,54,[],[],"[(1218, 885)]",[],[1],[78],[1.3],"[640.0, 512.0]",vertical,"(390.0, 762.0)",[0.384],1,1483.716
5,False,246,1.126,67,[],[],"[(1196, 891)]",[],[1],[79],[1.3166666666666667],"[640.0, 512.0]",vertical,"(390.0, 762.0)",[0.179],1,1486.508
5,False,247,1.357,81,[],[1528097],"[(1215, 905)]","[(1160, 909)]",[1],[72],[1.2],"[640.0, 512.0]",horizontal,"(890.0, 762.0)",[0],0,1489.32
5,False,248,0.404,24,[],[],"[(1197, 880)]",[],[1],[74],[1.2333333333333334],"[640.0, 512.0]",vertical,"(390.0, 262.0)",[0.8],0,1492.029
5,False,249,0.496,29,[],[],"[(1197, 873)]",[],[1],[62],[1.0333333333333332],"[640.0, 512.0]",horizontal,"(390.0, 262.0)",[0.527],1,1494.753
5,False,250,0.792,47,[],[],"[(1215, 896)]",[],[1],[80],[1.3333333333333333],"[640.0, 512.0]",vertical,"(890.0, 762.0)",[0.522],1,1497.752
5,False,251,1.085,65,[],[],"[(1191, 890)]",[],[1],[73],[1.2166666666666666],"[640.0, 512.0]",vertical,"(390.0, 762.0)",[0.113],1,1500.602
5,False,252,0.943,56,[],[],"[(1215, 886)]",[],[1],[86],[1.4333333333333333],"[640.0, 512.0]",vertical,"(890.0, 262.0)",[0.482],1,1503.329
5,False,253,0.43,25,[],[],"[(1190, 890)]",[],[1],[58],[0.9666666666666667],"[640.0, 512.0]",horizontal,"(890.0, 262.0)",[0.525],1,1506.248
5,False,254,1.002,60,[],[],"[(1199, 890)]",[],[1],[72],[1.2],"[640.0, 512.0]",horizontal,"(890.0, 762.0)",[0.183],1,1509.468
5,False,255,1.438,86,[],[],"[(1196, 891)]",[],[1],[92],[1.5333333333333332],"[640.0, 512.0]",vertical,"(890.0, 762.0)",[0.083],1,1512.18
5,False,256,1.065,63,[],[],"[(1201, 885)]",[],[1],[87],[1.45],"[640.0, 512.0]",horizontal,"(390.0, 762.0)",[0.374],1,1515.237
5,False,257,1.221,73,[],[],"[(1198, 885)]",[],[1],[84],[1.4],"[640.0, 512.0]",vertical,"(890.0, 762.0)",[0.166],1,1518.182
5,False,258,0.989,59,[],[],"[(1203, 888)]",[],[1],[79],[1.3166666666666667],"[640.0, 512.0]",horizontal,"(390.0, 762.0)",[0.309],1,1521.03
5,False,259,1.221,73,[],[],"[(1196, 900)]",[],[1],[84],[1.4],"[640.0, 512.0]",vertical,"(390.0, 262.0)",[0.164],1,1523.833
5,False,260,1.369,82,[],[1565632],"[(1196, 902)]","[(1148, 910)]",[1],[74],[1.2333333333333334],"[640.0, 512.0]",vertical,"(890.0, 262.0)",[0],0,1526.756
5,False,261,0.802,48,[],[],"[(1190, 886)]",[],[1],[80],[1.3333333333333333],"[640.0, 512.0]",vertical,"(890.0, 762.0)",[0.509],1,1529.577
5,False,262,1.42,85,[],[1571432],"[(1196, 891)]","[(1144, 900)]",[1],[84],[1.4],"[640.0, 512.0]",horizontal,"(890.0, 262.0)",[0],0,1532.433
5,False,263,1.386,83,[],[1575796],"[(1160, 868)]","[(1126, 884)]",[1],[78],[1.3],"[640.0, 512.0]",horizontal,"(890.0, 262.0)",[0],0,1535.362
5,False,264,0.508,30,[],[],"[(1182, 879)]",[],[1],[58],[0.9666666666666667],"[640.0, 512.0]",vertical,"(890.0, 262.0)",[0.442],1,1539.729
5,False,265,1.475,88,[],[1581414],"[(1179, 896)]","[(1145, 902)]",[1],[54],[0.9],"[640.0, 512.0]",horizontal,"(390.0, 762.0)",[0],0,1542.805
5,False,266,0.846,50,[],[],"[(1176, 905)]",[],[1],[74],[1.2333333333333334],"[640.0, 512.0]",vertical,"(390.0, 262.0)",[0.379],1,1545.348
5,False,267,1.467,88,[],[1587458],"[(1190, 886)]","[(1189, 891)]",[1],[64],[1.0666666666666667],"[640.0, 512.0]",horizontal,"(390.0, 762.0)",[0],0,1548.797
5,False,268,1.186,71,[],[],"[(1196, 893)]",[],[1],[84],[1.4],"[640.0, 512.0]",horizontal,"(890.0, 262.0)",[0.201],1,1551.401
5,False,269,0.769,46,[],[],"[(1184, 912)]",[],[1],[76],[1.2666666666666666],"[640.0, 512.0]",horizontal,"(890.0, 262.0)",[0.476],1,1554.322
5,False,270,1.163,69,[],[],"[(1194, 892)]",[],[1],[111],[1.8499999999999999],"[640.0, 512.0]",horizontal,"(890.0, 262.0)",[0.67],1,1557.167
5,False,271,1.081,64,[],[],"[(1212, 871)]",[],[1],[67],[1.1166666666666667],"[640.0, 512.0]",vertical,"(390.0, 762.0)",[0.034],1,1560.554
5,False,272,0.438,26,[],[],"[(1195, 897)]",[],[1],[58],[0.9666666666666667],"[640.0, 512.0]",horizontal,"(390.0, 262.0)",[0.507],1,1573.038
5,False,273,1.094,65,[],[],"[(1190, 898)]",[],[1],[82],[1.3666666666666667],"[640.0, 512.0]",vertical,"(390.0, 262.0)",[0.268],1,1575.539
5,False,274,1.166,69,[],[1617098],"[(1191, 898)]","[(1191, 898)]",[1],[64],[1.0666666666666667],"[640.0, 512.0]",horizontal,"(890.0, 262.0)",[0],0,1578.405
5,False,275,1.073,64,[],[],"[(1189, 891)]",[],[1],[87],[1.45],"[640.0, 512.0]",horizontal,"(390.0, 762.0)",[0.362],1,1581.041
5,False,276,1.013,60,[],[],"[(1194, 893)]",[],[1],[83],[1.3833333333333333],"[640.0, 512.0]",horizontal,"(890.0, 262.0)",[0.36],1,1584.216
5,False,277,0.587,35,[],[],"[(1188, 887)]",[],[1],[71],[1.1833333333333333],"[640.0, 512.0]",horizontal,"(390.0, 762.0)",[0.572],1,1587.088
5,False,278,1.482,88,[],[],"[(1190, 891)]",[],[1],[99],[1.65],"[640.0, 512.0]",vertical,"(390.0, 262.0)",[0.162],1,1589.765
5,False,279,1.216,72,[],[],"[(1184, 898)]",[],[1],[98],[1.6333333333333333],"[640.0, 512.0]",horizontal,"(890.0, 262.0)",[0.406],1,1592.902
5,False,280,0.705,42,[],[],"[(1179, 905)]",[],[1],[78],[1.3],"[640.0, 512.0]",vertical,"(390.0, 762.0)",[0.576],1,1596.215
5,False,281,0.377,22,[],[],"[(1168, 901)]",[],[1],[56],[0.9333333333333333],"[640.0, 512.0]",horizontal,"(390.0, 262.0)",[0.537],1,1599.209
5,False,282,1.122,67,[],[],"[(1214, 894)]",[],[1],[104],[1.7333333333333334],"[640.0, 512.0]",vertical,"(390.0, 262.0)",[0.587],1,1602.171
5,False,283,0.894,53,[],[],"[(1227, 879)]",[],[1],[83],[1.3833333333333333],"[640.0, 512.0]",horizontal,"(390.0, 262.0)",[0.477],1,1605.382
5,False,284,1.485,89,[],[],"[(1172, 894)]",[],[1],[96],[1.6],"[640.0, 512.0]",vertical,"(390.0, 762.0)",[0.099],1,1608.293
5,False,285,1.077,64,[],[],"[(1193, 911)]",[],[1],[84],[1.4],"[640.0, 512.0]",vertical,"(890.0, 262.0)",[0.308],1,1611.4
5,False,286,1.324,79,[],[],"[(1196, 899)]",[],[1],[93],[1.55],"[640.0, 512.0]",vertical,"(390.0, 762.0)",[0.214],1,1615.332
5,False,287,0.847,50,[],[],"[(1200, 891)]",[],[1],[91],[1.5166666666666666],"[640.0, 512.0]",vertical,"(390.0, 762.0)",[0.655],1,1618.4
5,False,288,1.268,76,[],[],"[(1215, 885)]",[],[1],[93],[1.55],"[640.0, 512.0]",horizontal,"(890.0, 262.0)",[0.261],1,1621.42
5,False,289,1.305,78,[],[1663365],"[(1198, 888)]","[(1197, 893)]",[1],"[78, 128]","[1.3, 2.1333333333333333]","[640.0, 512.0]",horizontal,"(390.0, 262.0)","[0, 0.803]",0,1624.445
5,False,290,1.135,68,[],[],"[(1227, 894)]",[],[1],[77],[1.2833333333333332],"[640.0, 512.0]",horizontal,"(890.0, 262.0)",[0.132],1,1628.088
5,False,291,1.464,87,[],[1669619],"[(1196, 904)]","[(1145, 912)]",[1],[68],[1.1333333333333333],"[640.0, 512.0]",horizontal,"(390.0, 262.0)",[0],0,1630.884
5,False,292,0.79,47,[],[],"[(1190, 889)]",[],[1],[78],[1.3],"[640.0, 512.0]",vertical,"(890.0, 262.0)",[0.495],1,1633.556
5,False,293,0.786,47,[],[],"[(1196, 876)]",[],[1],[65],[1.0833333333333333],"[640.0, 512.0]",horizontal,"(390.0, 762.0)",[0.281],1,1636.341
5,False,294,0.6,36,[],[],"[(1188, 886)]",[],[1],[67],[1.1166666666666667],"[640.0, 512.0]",horizontal,"(390.0, 262.0)",[0.491],1,1640.0
5,False,295,0.315,18,[],[],"[(1196, 890)]",[],[1],[51],[0.85],"[640.0, 512.0]",vertical,"(890.0, 762.0)",[0.517],1,1642.639
5,False,296,0.761,45,[],[],"[(1199, 897)]",[],[1],[71],[1.1833333333333333],"[640.0, 512.0]",vertical,"(390.0, 262.0)",[0.409],1,1644.971
5,False,297,1.427,85,[],[1686551],"[(1209, 894)]","[(1175, 905)]",[1],[77],[1.2833333333333332],"[640.0, 512.0]",horizontal,"(890.0, 762.0)",[0],0,1647.671
5,False,298,1.381,82,[],[],"[(1190, 911)]",[],[1],[94],[1.5666666666666667],"[640.0, 512.0]",vertical,"(390.0, 762.0)",[0.186],1,1650.488
5,False,299,0.78,46,[],[],"[(1190, 905)]",[],[1],[74],[1.2333333333333334],"[640.0, 512.0]",horizontal,"(890.0, 262.0)",[0.449],1,1654.364
5,False,300,0.799,47,[],[],"[(1192, 885)]",[],[1],[76],[1.2666666666666666],"[640.0, 512.0]",vertical,"(390.0, 262.0)",[0.464],1,1657.144
6,False,301,0.415,24,[],[],"[(1193, 892)]",[],[1],[65],[1.0833333333333333],"[640.0, 512.0]",horizontal,"(890.0, 262.0)",[0.661],1,1659.932
6,False,302,0.481,28,[],[],"[(1196, 877)]",[],[1],[68],[1.1333333333333333],"[640.0, 512.0]",vertical,"(390.0, 762.0)",[0.651],1,1662.582
6,False,303,1.03,61,[],[],"[(1190, 877)]",[],[1],[88],[1.4666666666666666],"[640.0, 512.0]",vertical,"(390.0, 762.0)",[0.426],1,1665.26
6,False,304,1.408,84,[],[1707113],"[(1196, 891)]","[(1155, 902)]",[1],[76],[1.2666666666666666],"[640.0, 512.0]",horizontal,"(390.0, 262.0)",[0],0,1668.246
6,False,305,1.122,67,[],[],"[(1183, 863)]",[],[1],[90],[1.5],"[640.0, 512.0]",horizontal,"(890.0, 262.0)",[0.357],1,1671.067
6,False,306,1.128,67,[],[],"[(1183, 882)]",[],[1],[79],[1.3166666666666667],"[640.0, 512.0]",vertical,"(890.0, 762.0)",[0.181],1,1675.035
6,False,307,0.748,44,[],[],"[(1161, 896)]",[],[1],[62],[1.0333333333333332],"[640.0, 512.0]",vertical,"(390.0, 762.0)",[0.28],1,1677.873
6,False,308,0.364,21,[],[],"[(1196, 889)]",[],[1],[55],[0.9166666666666666],"[640.0, 512.0]",horizontal,"(390.0, 762.0)",[0.534],1,1680.717
6,False,309,0.765,45,[],[],"[(1186, 893)]",[],[1],[75],[1.25],"[640.0, 512.0]",horizontal,"(390.0, 762.0)",[0.475],1,1683.128
6,False,310,0.929,55,[],[],"[(1190, 890)]",[],[1],[83],[1.3833333333333333],"[640.0, 512.0]",vertical,"(890.0, 762.0)",[0.442],1,1685.888
6,False,311,0.67,40,[],[],"[(1196, 901)]",[],[1],[70],[1.1666666666666667],"[640.0, 512.0]",vertical,"(390.0, 262.0)",[0.476],1,1688.754
6,False,312,0.823,49,[],[],"[(1190, 892)]",[],[1],[80],[1.3333333333333333],"[640.0, 512.0]",vertical,"(890.0, 262.0)",[0.487],1,1691.405
6,False,313,1.232,73,[],[],"[(1186, 909)]",[],[1],[96],[1.6],"[640.0, 512.0]",horizontal,"(890.0, 762.0)",[0.363],1,1694.216
6,False,314,0.851,51,[],[],"[(1186, 900)]",[],[1],[83],[1.3833333333333333],"[640.0, 512.0]",vertical,"(890.0, 762.0)",[0.507],1,1697.489
6,False,315,1.361,81,[],[],"[(1190, 899)]",[],[1],[102],[1.7],"[640.0, 512.0]",vertical,"(890.0, 262.0)",[0.332],1,1701.438
6,False,316,0.894,53,[],[1762746],"[(1133, 914)]","[(1133, 914)]",[1],[7],[0.11666666666666667],"[640.0, 512.0]",horizontal,"(890.0, 262.0)",[0],0,1704.736
6,False,317,0.816,48,[],[],"[(1123, 458), (1068, 491), (1099, 489), (1063, 514), (1050, 571), (1032, 589), (1086, 581), (1087, 586), (1178, 580), (995, 595), (989, 611), (1180, 573), (1115, 920)]",[],"[0, 0, 0, 0, 0, 0, 0, 0, 0, 0, 0, 0, 1]",[52],[0.8666666666666667],"[640.0, 512.0]",horizontal,"(890.0, 762.0)",[0.049],1,1726.687
6,False,318,0.794,47,[],[],"[(1, 595), (1172, 595), (1, 623), (1, 613), (433, 956), (470, 620), (1129, 588), (1074, 599), (972, 993), (1190, 897)]",[],"[0, 0, 0, 0, 0, 0, 0, 0, 0, 1]",[97],[1.6166666666666667],"[640.0, 512.0]",vertical,"(890.0, 262.0)",[0.806],0,1759.085
6,False,319,0.967,58,[],[1903866],"[(946, 735), (1239, 675), (1230, 771), (1185, 757), (1155, 595), (1056, 785)]","[(1056, 779)]","[0, 0, 0, 0, 0, 1]",[22],[0.36666666666666664],"[640.0, 512.0]",vertical,"(390.0, 762.0)",[0],0,1863.166
6,False,320,1.419,85,[],[1907957],"[(1243, 897), (1176, 892)]","[(1202, 903)]","[0, 1]",[28],[0.4666666666666667],"[640.0, 512.0]",vertical,"(890.0, 262.0)",[0],0,1867.805
6,False,321,0.88,52,[],[1909781],"[(1050, 790)]","[(1050, 790)]",[1],[7],[0.11666666666666667],"[640.0, 512.0]",vertical,"(390.0, 262.0)",[0],0,1871.906
6,False,322,1.197,71,[],[1912382],"[(1038, 751), (1172, 941)]","[(1172, 941)]","[0, 1]",[7],[0.11666666666666667],"[640.0, 512.0]",vertical,"(890.0, 262.0)",[0],0,1873.721
6,False,323,0.508,30,[],[],"[(1212, 923)]",[],[1],[72],[1.2],"[640.0, 512.0]",vertical,"(390.0, 262.0)",[0.672],1,1876.322
6,False,324,0.862,51,[],[],"[(1190, 817)]",[],[1],[64],[1.0666666666666667],"[640.0, 512.0]",horizontal,"(890.0, 762.0)",[0.199],1,1879.136
6,False,325,1.472,88,[],[1921518],"[(1178, 896)]","[(1278, 855)]",[1],[62],[1.0333333333333332],"[640.0, 512.0]",vertical,"(890.0, 262.0)",[0],0,1882.74
6,False,326,0.751,45,[],[],"[(586, 546), (1190, 898)]",[],"[0, 1]",[55],[0.9166666666666666],"[640.0, 512.0]",vertical,"(390.0, 262.0)",[0.148],1,1885.467
6,False,327,0.699,41,[],[],"[(1251, 912), (706, 704), (678, 468), (1252, 918), (1194, 893)]",[],"[0, 0, 0, 0, 1]",[59],[0.9833333333333333],"[640.0, 512.0]",vertical,"(390.0, 262.0)",[0.277],1,1891.332
6,False,328,0.395,23,[],[],"[(1168, 907)]",[],[1],[73],[1.2166666666666666],"[640.0, 512.0]",vertical,"(390.0, 262.0)",[0.793],0,1898.76
6,False,329,1.058,63,[],[],"[(1218, 907)]",[],[1],[97],[1.6166666666666667],"[640.0, 512.0]",horizontal,"(390.0, 262.0)",[0.544],1,1901.565
6,False,330,0.348,20,[],[],"[(1166, 926)]",[],[1],[70],[1.1666666666666667],"[640.0, 512.0]",vertical,"(890.0, 262.0)",[0.795],0,1904.616
6,False,331,1.066,63,[],[],"[(1190, 923)]",[],[1],[72],[1.2],"[640.0, 512.0]",vertical,"(390.0, 762.0)",[0.134],1,1908.31
6,False,332,0.648,38,[],[],"[(1168, 921)]",[],[1],[69],[1.15],"[640.0, 512.0]",vertical,"(390.0, 262.0)",[0.491],1,1911.007
6,False,333,0.535,32,[],[],"[(1168, 915)]",[],[1],[70],[1.1666666666666667],"[640.0, 512.0]",vertical,"(390.0, 262.0)",[0.61],1,1913.64
6,False,334,1.203,72,[],[],"[(1208, 915)]",[],[1],[102],[1.7],"[640.0, 512.0]",vertical,"(390.0, 762.0)",[0.473],1,1916.32
6,False,335,0.735,44,[],[],"[(1197, 910)]",[],[1],[71],[1.1833333333333333],"[640.0, 512.0]",vertical,"(890.0, 262.0)",[0.421],1,1919.469
6,False,336,1.38,82,[],[1961034],"[(1190, 919)]","[(1170, 915)]",[1],[75],[1.25],"[640.0, 512.0]",vertical,"(390.0, 762.0)",[0],0,1922.154
6,False,337,0.55,33,[],[],"[(1145, 920)]",[],[1],[70],[1.1666666666666667],"[640.0, 512.0]",vertical,"(890.0, 762.0)",[0.59],1,1924.967
6,False,338,0.468,28,[],[],"[(1166, 940)]",[],[1],[74],[1.2333333333333334],"[640.0, 512.0]",horizontal,"(890.0, 762.0)",[0.737],1,1928.113
6,False,339,0.45,27,[],[],"[(1169, 919)]",[],[1],[77],[1.2833333333333332],"[640.0, 512.0]",horizontal,"(390.0, 262.0)",[0.804],0,1930.854
6,False,340,1.479,88,[],[],"[(1112, 915)]",[],[1],[111],[1.8499999999999999],"[640.0, 512.0]",horizontal,"(390.0, 262.0)",[0.365],1,1933.64
6,False,341,0.698,41,[],[],"[(1142, 915)]",[],[1],[73],[1.2166666666666666],"[640.0, 512.0]",vertical,"(390.0, 262.0)",[0.507],1,1937.107
6,False,342,0.832,49,[],[],"[(1169, 916)]",[],[1],[99],[1.65],"[640.0, 512.0]",horizontal,"(890.0, 762.0)",[0.798],0,1939.872
6,False,343,1.279,76,[],[1981794],"[(1163, 928)]","[(1155, 928)]",[1],[68],[1.1333333333333333],"[640.0, 512.0]",vertical,"(390.0, 762.0)",[0],0,1943.011
6,False,344,1.185,71,[],[],"[(1151, 893)]",[],[1],[100],[1.6666666666666667],"[640.0, 512.0]",vertical,"(390.0, 762.0)",[0.457],1,1945.735
6,False,345,1.347,80,[],[],"[(1163, 908)]",[],[1],[130],[2.1666666666666665],"[640.0, 512.0]",vertical,"(390.0, 262.0)",[0.805],0,1948.902
6,False,346,1.141,68,[],[],"[(1154, 899)]",[],[1],[73],[1.2166666666666666],"[640.0, 512.0]",vertical,"(890.0, 762.0)",[0.065],1,1952.571
6,False,347,0.58,34,[],[],"[(1166, 911)]",[],[1],[67],[1.1166666666666667],"[640.0, 512.0]",horizontal,"(890.0, 262.0)",[0.52],1,1955.792
6,False,348,1.062,63,[],[],"[(1167, 912)]",[],[1],[109],[1.8166666666666667],"[640.0, 512.0]",horizontal,"(890.0, 262.0)",[0.74],1,1958.402
6,False,349,0.731,43,[],[],"[(1148, 923)]",[],[1],[93],[1.55],"[640.0, 512.0]",horizontal,"(390.0, 762.0)",[0.796],0,1961.687
6,False,350,1.327,79,[],[2008772],"[(1140, 903)]","[(1165, 931)]",[1],[62],[1.0333333333333332],"[640.0, 512.0]",horizontal,"(890.0, 262.0)",[0],0,1965.585
6,False,351,1.136,68,[],[],"[(1154, 894)]",[],[1],[78],[1.3],"[640.0, 512.0]",vertical,"(390.0, 262.0)",[0.149],1,1972.719
6,False,352,0.499,29,[],[],"[(1166, 928)]",[],[1],[64],[1.0666666666666667],"[640.0, 512.0]",horizontal,"(890.0, 762.0)",[0.554],1,1975.821
6,False,353,1.339,80,[],[],"[(1164, 911)]",[],[1],[84],[1.4],"[640.0, 512.0]",vertical,"(390.0, 762.0)",[0.05],1,1978.425
6,False,354,0.81,48,[],[],"[(1157, 933)]",[],[1],[81],[1.35],"[640.0, 512.0]",vertical,"(890.0, 762.0)",[0.521],1,1981.299
6,False,355,1.355,81,[],[2023023],"[(1188, 906)]","[(1169, 922)]",[1],[75],[1.25],"[640.0, 512.0]",vertical,"(390.0, 262.0)",[0],0,1984.171
6,False,356,1.345,80,[],[],"[(1190, 909)]",[],[1],[130],[2.1666666666666665],"[640.0, 512.0]",vertical,"(390.0, 262.0)",[0.802],0,1986.967
6,False,357,0.819,49,[],[],"[(1179, 911)]",[],[1],[64],[1.0666666666666667],"[640.0, 512.0]",vertical,"(890.0, 762.0)",[0.232],1,1990.822
6,False,358,1.461,87,[],[],"[(1177, 915)]",[],[1],[123],[2.05],"[640.0, 512.0]",vertical,"(890.0, 762.0)",[0.573],1,1993.409
6,False,359,0.928,55,[],[],"[(1220, 915)]",[],[1],[66],[1.1],"[640.0, 512.0]",vertical,"(390.0, 262.0)",[0.164],1,1996.935
6,False,360,1.07,64,[],[],"[(1211, 915)]",[],[1],[69],[1.15],"[640.0, 512.0]",horizontal,"(390.0, 262.0)",[0.065],1,2000.456
7,False,361,1.418,85,[],[],"[(1181, 919)]",[],[1],[106],[1.7666666666666666],"[640.0, 512.0]",vertical,"(890.0, 762.0)",[0.324],1,2003.132
7,False,362,0.394,23,[],[],"[(1266, 842), (1178, 906)]",[],"[0, 1]",[73],[1.2166666666666666],"[640.0, 512.0]",horizontal,"(890.0, 262.0)",[0.809],0,2006.403
7,False,363,1.402,84,[],[],"[(1178, 896)]",[],[1],[110],[1.8333333333333333],"[640.0, 512.0]",horizontal,"(890.0, 262.0)",[0.409],1,2011.788
7,False,364,0.988,59,[],[],"[(1170, 910)]",[],[1],[90],[1.5],"[640.0, 512.0]",vertical,"(890.0, 262.0)",[0.491],1,2015.119
7,False,365,0.436,26,[],[],"[(1182, 903)]",[],[1],[58],[0.9666666666666667],"[640.0, 512.0]",vertical,"(890.0, 762.0)",[0.509],1,2018.123
7,False,366,0.872,52,[],[],"[(1215, 893)]",[],[1],[102],[1.7],"[640.0, 512.0]",horizontal,"(390.0, 262.0)",[0.797],0,2020.59
7,False,367,0.793,47,[],[],"[(1190, 912)]",[],[1],[76],[1.2666666666666666],"[640.0, 512.0]",vertical,"(390.0, 262.0)",[0.468],1,2023.793
7,False,368,0.988,59,[],[],"[(1203, 904)]",[],[1],[109],[1.8166666666666667],"[640.0, 512.0]",vertical,"(890.0, 762.0)",[0.816],0,2026.799
7,False,369,0.569,34,[],[],"[(1203, 878)]",[],[1],[61],[1.0166666666666666],"[640.0, 512.0]",horizontal,"(390.0, 762.0)",[0.432],1,2030.133
7,False,370,1.169,70,[],[],"[(1168, 901)]",[],[1],[120],[2.0],"[640.0, 512.0]",vertical,"(890.0, 762.0)",[0.811],0,2037.364
7,False,371,0.698,41,[],[],"[(1172, 885)]",[],[1],[70],[1.1666666666666667],"[640.0, 512.0]",horizontal,"(390.0, 262.0)",[0.459],1,2040.883
7,False,372,1.406,84,[],[],"[(1178, 901)]",[],[1],[134],[2.2333333333333334],"[640.0, 512.0]",horizontal,"(890.0, 762.0)",[0.806],0,2043.935
7,False,373,0.313,18,[],[],"[(1208, 896)]",[],[1],[53],[0.8833333333333333],"[640.0, 512.0]",vertical,"(390.0, 762.0)",[0.553],1,2047.644
7,False,374,1.363,81,[],[],"[(1243, 888), (1193, 891)]",[],"[0, 1]",[131],[2.183333333333333],"[640.0, 512.0]",vertical,"(390.0, 262.0)",[0.806],0,2050.795
7,False,375,1.111,66,[],[],"[(1215, 885)]",[],[1],[83],[1.3833333333333333],"[640.0, 512.0]",horizontal,"(390.0, 762.0)",[0.266],1,2058.166
7,False,376,0.319,19,[],[],"[(1184, 893)]",[],[1],[65],[1.0833333333333333],"[640.0, 512.0]",vertical,"(390.0, 262.0)",[0.737],1,2061.02
7,False,377,0.741,44,[],[],"[(1190, 899)]",[],[1],[70],[1.1666666666666667],"[640.0, 512.0]",horizontal,"(390.0, 262.0)",[0.415],1,2063.623
7,False,378,1.087,65,[],[2107566],"[(772, 876), (1209, 893)]","[(1193, 909)]","[0, 1]","[65, 115]","[1.0833333333333333, 1.9166666666666667]","[640.0, 512.0]",horizontal,"(390.0, 262.0)","[0, 0.804]",0,2066.339
7,False,379,0.573,34,[],[],"[(1211, 893)]",[],[1],[72],[1.2],"[640.0, 512.0]",horizontal,"(890.0, 262.0)",[0.604],1,2072.287
7,False,380,1.433,85,[],[2114600],"[(1184, 897)]","[(1180, 913)]",[1],[78],[1.3],"[640.0, 512.0]",horizontal,"(890.0, 762.0)",[0],0,2075.592
7,False,381,0.772,46,[],[],"[(1179, 910)]",[],[1],[80],[1.3333333333333333],"[640.0, 512.0]",horizontal,"(890.0, 262.0)",[0.535],1,2078.538
7,False,382,0.828,49,[],[],"[(1191, 910)]",[],[1],[79],[1.3166666666666667],"[640.0, 512.0]",vertical,"(390.0, 262.0)",[0.478],1,2081.509
7,False,383,0.615,36,[],[],"[(1227, 893)]",[],[1],[66],[1.1],"[640.0, 512.0]",vertical,"(890.0, 262.0)",[0.478],1,2084.334
7,False,384,0.72,43,[],[],"[(1199, 893)]",[],[1],[93],[1.55],"[640.0, 512.0]",vertical,"(890.0, 762.0)",[0.802],0,2086.958
7,False,385,1.044,62,[],[],"[(1196, 909)]",[],[1],[112],[1.8666666666666667],"[640.0, 512.0]",vertical,"(390.0, 262.0)",[0.809],0,2089.982
7,False,386,0.973,58,[],[],"[(1172, 900)]",[],[1],[73],[1.2166666666666666],"[640.0, 512.0]",horizontal,"(390.0, 762.0)",[0.235],1,2096.882
7,False,387,1.115,66,[],[],"[(1168, 903)]",[],[1],[101],[1.6833333333333333],"[640.0, 512.0]",horizontal,"(390.0, 262.0)",[0.557],1,2099.823
7,False,388,0.581,34,[],[],"[(1224, 904)]",[],[1],[84],[1.4],"[640.0, 512.0]",vertical,"(890.0, 762.0)",[0.805],0,2103.044
7,False,389,0.621,37,[],[],"[(1196, 886)]",[],[1],[87],[1.45],"[640.0, 512.0]",vertical,"(890.0, 262.0)",[0.807],0,2105.957
7,False,390,1.148,68,[],[],"[(1203, 918)]",[],[1],[118],[1.9666666666666666],"[640.0, 512.0]",horizontal,"(390.0, 762.0)",[0.806],0,2108.964
7,False,391,1.375,82,[],[],"[(1203, 890)]",[],[1],[101],[1.6833333333333333],"[640.0, 512.0]",vertical,"(390.0, 262.0)",[0.295],1,2112.451
7,False,392,1.014,60,[],[],"[(1205, 896)]",[],[1],[65],[1.0833333333333333],"[640.0, 512.0]",vertical,"(890.0, 262.0)",[0.068],1,2115.684
7,False,393,1.207,72,[],[2159568],"[(1242, 895), (1233, 881), (1203, 875)]","[(1190, 898)]","[0, 0, 1]",[57],[0.95],"[640.0, 512.0]",horizontal,"(390.0, 762.0)",[0],0,2118.294
7,False,394,1.495,89,[],[2163317],"[(1247, 894), (1227, 875)]","[(1207, 890)]","[0, 1]",[67],[1.1166666666666667],"[640.0, 512.0]",vertical,"(390.0, 262.0)",[0],0,2123.506
7,False,395,0.879,52,[],[],"[(1190, 886)]",[],[1],[85],[1.4166666666666667],"[640.0, 512.0]",vertical,"(890.0, 262.0)",[0.524],1,2127.256
7,False,396,1.471,88,[],[],"[(1227, 895)]",[],[1],[138],[2.3],"[640.0, 512.0]",vertical,"(390.0, 262.0)",[0.801],0,2130.625
7,False,397,0.789,47,[],[],"[(1203, 895)]",[],[1],[80],[1.3333333333333333],"[640.0, 512.0]",vertical,"(390.0, 262.0)",[0.525],1,2134.52
7,False,398,0.385,23,[],[],"[(1221, 890)]",[],[1],[73],[1.2166666666666666],"[640.0, 512.0]",horizontal,"(390.0, 762.0)",[0.799],0,2137.369
7,False,399,1.36,81,[],[],"[(1226, 909)]",[],[1],[84],[1.4],"[640.0, 512.0]",horizontal,"(890.0, 262.0)",[0.032],1,2140.087
7,False,400,1.275,76,[],[],"[(1227, 906)]",[],[1],[85],[1.4166666666666667],"[640.0, 512.0]",horizontal,"(390.0, 762.0)",[0.134],1,2143.436
7,False,401,1.02,61,[],[],"[(1196, 881)]",[],[1],[67],[1.1166666666666667],"[640.0, 512.0]",vertical,"(890.0, 762.0)",[0.082],1,2146.404
7,False,402,0.674,40,[],[],"[(1209, 752), (1223, 893)]",[],"[0, 1]",[90],[1.5],"[640.0, 512.0]",vertical,"(390.0, 262.0)",[0.807],0,2154.179
7,False,403,0.627,37,[],[],"[(1227, 898)]",[],[1],[72],[1.2],"[640.0, 512.0]",horizontal,"(890.0, 762.0)",[0.555],1,2159.955
7,False,404,0.321,19,[],[],"[(1226, 894)]",[],[1],[58],[0.9666666666666667],"[640.0, 512.0]",horizontal,"(390.0, 262.0)",[0.623],1,2162.684
7,False,405,1.152,69,[],[2206516],"[(1245, 885), (1257, 906), (1203, 880)]","[(1183, 899)]","[0, 0, 1]",[65],[1.0833333333333333],"[640.0, 512.0]",vertical,"(890.0, 262.0)",[0],0,2165.135
7,False,406,1.365,81,[],[],"[(1227, 888)]",[],[1],[96],[1.6],"[640.0, 512.0]",horizontal,"(390.0, 762.0)",[0.229],1,2170.452
7,False,407,0.848,50,[],[],"[(1205, 899)]",[],[1],[84],[1.4],"[640.0, 512.0]",horizontal,"(890.0, 762.0)",[0.539],1,2173.61
7,False,408,1.04,62,[],[],"[(1245, 898), (1250, 896), (1209, 895)]",[],"[0, 0, 1]",[66],[1.1],"[640.0, 512.0]",vertical,"(390.0, 762.0)",[0.052],1,2176.489
7,False,409,0.537,32,[],[],"[(1215, 892)]",[],[1],[66],[1.1],"[640.0, 512.0]",horizontal,"(890.0, 762.0)",[0.539],1,2182.355
7,False,410,1.151,69,[],[],"[(1212, 884)]",[],[1],[73],[1.2166666666666666],"[640.0, 512.0]",horizontal,"(390.0, 262.0)",[0.049],1,2184.956
7,False,411,1.385,83,[],[],"[(1208, 879)]",[],[1],[94],[1.5666666666666667],"[640.0, 512.0]",vertical,"(390.0, 762.0)",[0.167],1,2187.698
7,False,412,0.956,57,[],[],"[(1214, 870)]",[],[1],[85],[1.4166666666666667],"[640.0, 512.0]",horizontal,"(390.0, 262.0)",[0.438],1,2190.754
7,False,413,0.743,44,[],[],"[(1208, 895)]",[],[1],[75],[1.25],"[640.0, 512.0]",horizontal,"(390.0, 762.0)",[0.49],1,2193.656
7,False,414,0.475,28,[],[],"[(1213, 892)]",[],[1],[61],[1.0166666666666666],"[640.0, 512.0]",vertical,"(890.0, 762.0)",[0.529],1,2196.401
7,False,415,1.037,62,[],[],"[(1203, 899)]",[],[1],[95],[1.5833333333333333],"[640.0, 512.0]",horizontal,"(390.0, 762.0)",[0.523],1,2198.942
7,False,416,1.443,86,[],[2260180],"[(1209, 659), (1134, 910)]","[(1152, 922)]","[0, 1]",[66],[1.1],"[640.0, 512.0]",horizontal,"(890.0, 262.0)",[0],0,2202.082
7,False,417,0.869,52,[],[],"[(1190, 888)]",[],[1],[67],[1.1166666666666667],"[640.0, 512.0]",horizontal,"(890.0, 262.0)",[0.232],1,2224.121
7,False,418,0.749,44,[],[],"[(1208, 897)]",[],[1],[94],[1.5666666666666667],"[640.0, 512.0]",vertical,"(890.0, 262.0)",[0.803],0,2226.839
7,False,419,0.446,26,[],[],"[(1192, 890)]",[],[1],[59],[0.9833333333333333],"[640.0, 512.0]",vertical,"(890.0, 262.0)",[0.528],1,2229.953
7,False,420,0.408,24,[],[],"[(1197, 902)]",[],[1],[60],[1.0],"[640.0, 512.0]",vertical,"(390.0, 262.0)",[0.574],1,2232.554
8,False,421,1.126,67,[],[],"[(1188, 903)]",[],[1],[103],[1.7166666666666666],"[640.0, 512.0]",horizontal,"(890.0, 262.0)",[0.574],1,2235.075
8,False,422,1.324,79,[],[2277240],"[(1188, 905)]","[(1162, 901)]",[1],[62],[1.0333333333333332],"[640.0, 512.0]",horizontal,"(890.0, 262.0)",[0],0,2238.3
8,False,423,1.014,60,[],[],"[(1193, 902)]",[],[1],[76],[1.2666666666666666],"[640.0, 512.0]",vertical,"(390.0, 762.0)",[0.248],1,2241.18
8,False,424,0.798,47,[],[],"[(1179, 909)]",[],[1],[75],[1.25],"[640.0, 512.0]",horizontal,"(390.0, 762.0)",[0.445],1,2244.14
8,False,425,0.337,20,[],[],"[(1208, 903)]",[],[1],[57],[0.95],"[640.0, 512.0]",horizontal,"(890.0, 762.0)",[0.596],1,2246.9
8,False,426,0.954,57,[],[],"[(1227, 898)]",[],[1],[84],[1.4],"[640.0, 512.0]",horizontal,"(890.0, 262.0)",[0.433],1,2249.372
8,False,427,0.302,18,[],[],"[(1208, 899)]",[],[1],[54],[0.9],"[640.0, 512.0]",vertical,"(390.0, 262.0)",[0.575],1,2252.291
8,False,428,1.448,86,[],[],"[(1191, 902)]",[],[1],[97],[1.6166666666666667],"[640.0, 512.0]",vertical,"(390.0, 262.0)",[0.164],1,2254.695
8,False,429,0.778,46,[],[],"[(1190, 904)]",[],[1],[76],[1.2666666666666666],"[640.0, 512.0]",vertical,"(890.0, 262.0)",[0.475],1,2257.816
8,False,430,0.385,23,[],[],"[(1221, 895)]",[],[1],[73],[1.2166666666666666],"[640.0, 512.0]",horizontal,"(890.0, 262.0)",[0.806],0,2260.592
8,False,431,1.157,69,[],[],"[(1193, 890)]",[],[1],[95],[1.5833333333333333],"[640.0, 512.0]",vertical,"(390.0, 762.0)",[0.423],1,2263.342
8,False,432,0.51,30,[],[],"[(1220, 896)]",[],[1],[64],[1.0666666666666667],"[640.0, 512.0]",vertical,"(390.0, 762.0)",[0.542],1,2266.487
8,False,433,0.958,57,[],[],"[(1190, 897)]",[],[1],[70],[1.1666666666666667],"[640.0, 512.0]",horizontal,"(390.0, 262.0)",[0.198],1,2269.045
8,False,434,0.42,25,[],[],"[(1189, 894)]",[],[1],[61],[1.0166666666666666],"[640.0, 512.0]",vertical,"(390.0, 762.0)",[0.57],1,2271.785
8,False,435,0.685,41,[],[],"[(1233, 894), (1232, 899), (1203, 899)]",[],"[0, 0, 1]",[64],[1.0666666666666667],"[640.0, 512.0]",horizontal,"(390.0, 262.0)",[0.366],1,2274.356
8,False,436,0.552,33,[],[],"[(1184, 904)]",[],[1],[64],[1.0666666666666667],"[640.0, 512.0]",vertical,"(390.0, 762.0)",[0.493],1,2289.371
8,False,437,0.434,26,[],[],"[(1186, 897)]",[],[1],[61],[1.0166666666666666],"[640.0, 512.0]",horizontal,"(390.0, 762.0)",[0.556],1,2291.982
8,False,438,0.477,28,[],[],"[(1190, 894)]",[],[1],[78],[1.3],"[640.0, 512.0]",vertical,"(390.0, 762.0)",[0.798],0,2294.442
8,False,439,1.48,88,[],[2343299],"[(1209, 893)]","[(1170, 893)]",[1],[49],[0.8166666666666667],"[640.0, 512.0]",horizontal,"(890.0, 762.0)",[0],0,2297.223
8,False,440,0.36,21,[],[],"[(1211, 888)]",[],[1],[67],[1.1166666666666667],"[640.0, 512.0]",horizontal,"(390.0, 762.0)",[0.744],1,2307.236
8,False,441,1.331,79,[],[2348557],"[(1208, 889)]","[(1171, 900)]",[1],[61],[1.0166666666666666],"[640.0, 512.0]",horizontal,"(390.0, 262.0)",[0],0,2309.904
8,False,442,0.618,37,[],[],"[(1202, 884)]",[],[1],[68],[1.1333333333333333],"[640.0, 512.0]",vertical,"(390.0, 262.0)",[0.488],1,2312.495
8,False,443,0.488,29,[],[],"[(1190, 896)]",[],[1],[79],[1.3166666666666667],"[640.0, 512.0]",vertical,"(890.0, 762.0)",[0.804],0,2315.158
8,False,444,1.009,60,[],[],"[(1197, 894)]",[],[1],[79],[1.3166666666666667],"[640.0, 512.0]",horizontal,"(890.0, 762.0)",[0.295],1,2317.99
8,False,445,1.217,73,[],[],"[(1200, 896)]",[],[1],[87],[1.45],"[640.0, 512.0]",vertical,"(390.0, 762.0)",[0.21],1,2320.811
8,False,446,0.444,26,[],[],"[(1215, 883)]",[],[1],[60],[1.0],"[640.0, 512.0]",horizontal,"(890.0, 762.0)",[0.545],1,2323.776
8,False,447,0.464,27,[],[],"[(1197, 902)]",[],[1],[60],[1.0],"[640.0, 512.0]",horizontal,"(390.0, 262.0)",[0.528],1,2326.309
8,False,448,0.928,55,[],[],"[(1189, 904)]",[],[1],[89],[1.4833333333333334],"[640.0, 512.0]",horizontal,"(890.0, 762.0)",[0.536],1,2328.803
8,False,449,0.999,59,[],[],"[(1178, 890)]",[],[1],[109],[1.8166666666666667],"[640.0, 512.0]",vertical,"(390.0, 762.0)",[0.798],0,2331.834
8,False,450,0.896,53,[],[],"[(1201, 892)]",[],[1],[61],[1.0166666666666666],"[640.0, 512.0]",vertical,"(890.0, 262.0)",[0.117],1,2335.175
8,False,451,0.933,55,[],[],"[(1221, 890)]",[],[1],[105],[1.75],"[640.0, 512.0]",vertical,"(390.0, 262.0)",[0.802],0,2343.876
8,False,452,1.166,69,[],[2385817],"[(1215, 893)]","[(1168, 898)]",[1],[61],[1.0166666666666666],"[640.0, 512.0]",horizontal,"(890.0, 262.0)",[0],0,2347.188
8,False,453,0.809,48,[],[],"[(1209, 704), (1203, 894)]",[],"[0, 1]",[98],[1.6333333333333333],"[640.0, 512.0]",horizontal,"(890.0, 762.0)",[0.798],0,2349.752
8,False,454,1.27,76,[],[],"[(1220, 881)]",[],[1],[126],[2.1],"[640.0, 512.0]",horizontal,"(390.0, 262.0)",[0.805],0,2352.939
8,False,455,0.663,39,[],[],"[(1220, 897)]",[],[1],[89],[1.4833333333333334],"[640.0, 512.0]",horizontal,"(890.0, 762.0)",[0.807],0,2356.539
8,False,456,0.589,35,[],[],"[(1209, 894)]",[],[1],[68],[1.1333333333333333],"[640.0, 512.0]",vertical,"(890.0, 762.0)",[0.525],1,2359.881
8,False,457,1.402,84,[],[],"[(1196, 903)]",[],[1],[134],[2.2333333333333334],"[640.0, 512.0]",horizontal,"(890.0, 262.0)",[0.799],0,2362.522
8,False,458,0.415,24,[],[],"[(1202, 899)]",[],[1],[57],[0.95],"[640.0, 512.0]",horizontal,"(890.0, 762.0)",[0.527],1,2366.259
8,False,459,1.212,72,[],[2407550],"[(1196, 890)]","[(1183, 906)]",[1],[70],[1.1666666666666667],"[640.0, 512.0]",vertical,"(390.0, 262.0)",[0],0,2368.772
8,False,460,0.941,56,[],[],"[(1188, 890)]",[],[1],[88],[1.4666666666666666],"[640.0, 512.0]",vertical,"(390.0, 262.0)",[0.513],1,2371.49
8,False,461,1.344,80,[],[],"[(1190, 890)]",[],[1],[87],[1.45],"[640.0, 512.0]",vertical,"(890.0, 762.0)",[0.1],1,2374.624
8,False,462,0.357,21,[],[],"[(721, 651), (1196, 876)]",[],"[0, 1]",[51],[0.85],"[640.0, 512.0]",vertical,"(890.0, 262.0)",[0.474],1,2377.609
8,False,463,1.251,75,[],[2421107],"[(1189, 890)]","[(1154, 900)]",[1],[61],[1.0166666666666666],"[640.0, 512.0]",horizontal,"(890.0, 262.0)",[0],0,2382.48
8,False,464,0.416,24,[],[],"[(1188, 885)]",[],[1],[60],[1.0],"[640.0, 512.0]",vertical,"(890.0, 762.0)",[0.572],1,2385.052
8,False,465,1.365,81,[],[2426517],"[(1212, 899)]","[(1157, 910)]",[1],[78],[1.3],"[640.0, 512.0]",horizontal,"(390.0, 262.0)",[0],0,2387.608
8,False,466,0.792,47,[],[],"[(1196, 880)]",[],[1],[97],[1.6166666666666667],"[640.0, 512.0]",vertical,"(890.0, 262.0)",[0.799],0,2390.451
8,False,467,1.44,86,[],[2432635],"[(1208, 881)]","[(1150, 894)]",[1],[83],[1.3833333333333333],"[640.0, 512.0]",vertical,"(390.0, 262.0)",[0],0,2393.679
8,False,468,0.791,47,[],[],"[(1186, 885)]",[],[1],[97],[1.6166666666666667],"[640.0, 512.0]",horizontal,"(890.0, 762.0)",[0.804],0,2396.575
8,False,469,0.583,34,[],[],"[(1218, 876)]",[],[1],[69],[1.15],"[640.0, 512.0]",horizontal,"(890.0, 762.0)",[0.555],1,2399.898
8,False,470,0.605,36,[],[],"[(1196, 893)]",[],[1],[63],[1.05],"[640.0, 512.0]",horizontal,"(890.0, 262.0)",[0.424],1,2402.53
8,False,471,0.987,59,[],[],"[(1196, 894)]",[],[1],[79],[1.3166666666666667],"[640.0, 512.0]",horizontal,"(390.0, 762.0)",[0.314],1,2405.096
8,False,472,1.403,84,[],[2446677],"[(1204, 894)]","[(1157, 901)]",[1],[70],[1.1666666666666667],"[640.0, 512.0]",horizontal,"(890.0, 262.0)",[0],0,2407.906
8,False,473,0.586,35,[],[],"[(1176, 888)]",[],[1],[64],[1.0666666666666667],"[640.0, 512.0]",vertical,"(890.0, 262.0)",[0.459],1,2410.611
8,False,474,1.364,81,[],[2451991],"[(1190, 890)]","[(1163, 902)]",[1],[67],[1.1166666666666667],"[640.0, 512.0]",horizontal,"(390.0, 262.0)",[0],0,2413.292
8,False,475,1.323,79,[],[],"[(1191, 897)]",[],[1],[101],[1.6833333333333333],"[640.0, 512.0]",horizontal,"(890.0, 762.0)",[0.345],1,2415.921
8,False,476,1.437,86,[],[2458400],"[(1185, 899)]","[(1163, 904)]",[1],[77],[1.2833333333333332],"[640.0, 512.0]",horizontal,"(890.0, 762.0)",[0],0,2419.502
8,False,477,1.484,89,[],[],"[(1172, 890)]",[],[1],[106],[1.7666666666666666],"[640.0, 512.0]",vertical,"(890.0, 262.0)",[0.266],1,2422.334
8,False,478,0.842,50,[],[],"[(1190, 899)]",[],[1],[79],[1.3166666666666667],"[640.0, 512.0]",vertical,"(890.0, 262.0)",[0.463],1,2425.885
8,False,479,0.857,51,[],[],"[(1215, 896)]",[],[1],[90],[1.5],"[640.0, 512.0]",horizontal,"(390.0, 262.0)",[0.621],1,2428.697
8,False,480,1.366,81,[],[],"[(1202, 904)]",[],[1],[91],[1.5166666666666666],"[640.0, 512.0]",vertical,"(390.0, 262.0)",[0.145],1,2431.667
9,False,481,0.865,51,[],[],"[(1202, 893)]",[],[1],[80],[1.3333333333333333],"[640.0, 512.0]",vertical,"(390.0, 262.0)",[0.461],1,2434.726
9,False,482,0.549,32,[],[],"[(1200, 894)]",[],[1],[62],[1.0333333333333332],"[640.0, 512.0]",vertical,"(890.0, 262.0)",[0.473],1,2437.564
9,False,483,0.387,23,[],[],"[(721, 594), (1190, 902)]",[],"[0, 1]",[62],[1.0333333333333332],"[640.0, 512.0]",vertical,"(390.0, 762.0)",[0.631],1,2440.091
9,False,484,0.995,59,[],[],"[(1198, 890)]",[],[1],[80],[1.3333333333333333],"[640.0, 512.0]",horizontal,"(890.0, 262.0)",[0.326],1,2446.392
9,False,485,0.549,32,[],[],"[(1209, 889)]",[],[1],[67],[1.1166666666666667],"[640.0, 512.0]",horizontal,"(390.0, 762.0)",[0.56],1,2449.237
9,False,486,0.891,53,[],[],"[(1192, 897)]",[],[1],[82],[1.3666666666666667],"[640.0, 512.0]",horizontal,"(390.0, 262.0)",[0.458],1,2451.838
9,False,487,0.418,25,[],[],"[(1196, 902)]",[],[1],[60],[1.0],"[640.0, 512.0]",horizontal,"(390.0, 262.0)",[0.559],1,2454.703
9,False,488,0.313,18,[],[],"[(1193, 904)]",[],[1],[61],[1.0166666666666666],"[640.0, 512.0]",vertical,"(890.0, 762.0)",[0.686],1,2457.209
9,False,489,0.79,47,[],[],"[(1187, 904)]",[],[1],[87],[1.45],"[640.0, 512.0]",horizontal,"(890.0, 762.0)",[0.636],1,2459.754
9,False,490,1.142,68,[],[],"[(1204, 911)]",[],[1],[99],[1.65],"[640.0, 512.0]",horizontal,"(890.0, 262.0)",[0.496],1,2462.724
9,False,491,0.596,35,[],[],"[(1172, 909)]",[],[1],[65],[1.0833333333333333],"[640.0, 512.0]",horizontal,"(890.0, 762.0)",[0.481],1,2465.886
9,False,492,0.516,30,[],[],"[(1172, 896)]",[],[1],[63],[1.05],"[640.0, 512.0]",horizontal,"(390.0, 762.0)",[0.528],1,2469.734
9,False,493,0.835,50,[],[],"[(1184, 907)]",[],[1],[73],[1.2166666666666666],"[640.0, 512.0]",horizontal,"(890.0, 762.0)",[0.357],1,2472.32
9,False,494,0.775,46,[],[],"[(1176, 909)]",[],[1],[84],[1.4],"[640.0, 512.0]",vertical,"(890.0, 762.0)",[0.612],1,2475.688
9,False,495,1.119,67,[],[],"[(1185, 892)]",[],[1],[100],[1.6666666666666667],"[640.0, 512.0]",vertical,"(890.0, 262.0)",[0.521],1,2478.788
9,False,496,1.085,65,[],[],"[(1173, 889)]",[],[1],[88],[1.4666666666666666],"[640.0, 512.0]",horizontal,"(890.0, 262.0)",[0.365],1,2481.953
9,False,497,1.037,62,[],[],"[(1202, 900)]",[],[1],[98],[1.6333333333333333],"[640.0, 512.0]",horizontal,"(890.0, 762.0)",[0.572],1,2484.952
9,False,498,1.059,63,[],[],"[(1164, 890)]",[],[1],[75],[1.25],"[640.0, 512.0]",vertical,"(890.0, 762.0)",[0.184],1,2488.088
9,False,499,1.084,65,[],[],"[(1196, 899)]",[],[1],[79],[1.3166666666666667],"[640.0, 512.0]",horizontal,"(890.0, 262.0)",[0.214],1,2492.255
9,False,500,0.793,47,[],[],"[(1196, 906)]",[],[1],[80],[1.3333333333333333],"[640.0, 512.0]",vertical,"(390.0, 762.0)",[0.53],1,2495.087
9,False,501,1.442,86,[],[],"[(1180, 898)]",[],[1],[93],[1.55],"[640.0, 512.0]",horizontal,"(390.0, 762.0)",[0.101],1,2497.91
9,False,502,1.087,65,[],[],"[(1152, 907)]",[],[1],[88],[1.4666666666666666],"[640.0, 512.0]",vertical,"(390.0, 262.0)",[0.366],1,2500.988
9,False,503,0.536,32,[],[],"[(1204, 900)]",[],[1],[63],[1.05],"[640.0, 512.0]",vertical,"(390.0, 262.0)",[0.505],1,2504.012
9,False,504,1.355,81,[],[],"[(1154, 907)]",[],[1],[103],[1.7166666666666666],"[640.0, 512.0]",vertical,"(890.0, 262.0)",[0.342],1,2506.638
9,False,505,1.196,71,[],[],"[(1190, 894)]",[],[1],[92],[1.5333333333333332],"[640.0, 512.0]",vertical,"(390.0, 262.0)",[0.323],1,2509.854
9,False,506,0.558,33,[],[],"[(1168, 889)]",[],[1],[64],[1.0666666666666667],"[640.0, 512.0]",vertical,"(890.0, 762.0)",[0.498],1,2512.874
9,False,507,1.286,77,[],[],"[(1173, 902)]",[],[1],[95],[1.5833333333333333],"[640.0, 512.0]",vertical,"(890.0, 262.0)",[0.284],1,2515.509
9,False,508,1.352,81,[],[],"[(1203, 901)]",[],[1],[104],[1.7333333333333334],"[640.0, 512.0]",vertical,"(890.0, 762.0)",[0.364],1,2518.674
9,False,509,0.467,28,[],[],"[(1215, 902)]",[],[1],[68],[1.1333333333333333],"[640.0, 512.0]",vertical,"(890.0, 262.0)",[0.637],1,2521.935
9,False,510,1.294,77,[],[],"[(1185, 890)]",[],[1],[79],[1.3166666666666667],"[640.0, 512.0]",vertical,"(390.0, 762.0)",[0.018],1,2524.594
9,False,511,1.492,89,[],[2566382],"[(1190, 894)]","[(1194, 897)]",[1],[80],[1.3333333333333333],"[640.0, 512.0]",horizontal,"(390.0, 262.0)",[0],0,2527.464
9,False,512,0.602,36,[],[],"[(1185, 898)]",[],[1],[65],[1.0833333333333333],"[640.0, 512.0]",horizontal,"(890.0, 262.0)",[0.463],1,2530.324
9,False,513,1.345,80,[],[2572854],"[(1166, 885)]","[(1132, 898)]",[1],[70],[1.1666666666666667],"[640.0, 512.0]",vertical,"(390.0, 262.0)",[0],0,2534.089
9,False,514,1.183,70,[],[],"[(1142, 901)]",[],[1],[97],[1.6166666666666667],"[640.0, 512.0]",vertical,"(390.0, 262.0)",[0.425],1,2536.79
9,False,515,1.421,85,[],[2578987],"[(1197, 898)]","[(1179, 902)]",[1],[72],[1.2],"[640.0, 512.0]",horizontal,"(890.0, 262.0)",[0],0,2540.202
9,False,516,1.096,65,[],[],"[(1178, 892)]",[],[1],[74],[1.2333333333333334],"[640.0, 512.0]",horizontal,"(890.0, 762.0)",[0.134],1,2542.93
9,False,517,1.169,70,[],[2584816],"[(1196, 909)]","[(1154, 910)]",[1],[60],[1.0],"[640.0, 512.0]",horizontal,"(390.0, 762.0)",[0],0,2546.206
9,False,518,0.487,29,[],[],"[(1190, 889)]",[],[1],[62],[1.0333333333333332],"[640.0, 512.0]",vertical,"(390.0, 762.0)",[0.524],1,2548.755
9,False,519,0.882,52,[],[],"[(1172, 887)]",[],[1],[80],[1.3333333333333333],"[640.0, 512.0]",vertical,"(890.0, 262.0)",[0.444],1,2551.421
9,False,520,1.277,76,[],[],"[(1207, 890)]",[],[1],[107],[1.7833333333333332],"[640.0, 512.0]",vertical,"(890.0, 762.0)",[0.49],1,2554.306
9,False,521,0.691,41,[],[],"[(1202, 898)]",[],[1],[73],[1.2166666666666666],"[640.0, 512.0]",horizontal,"(890.0, 762.0)",[0.509],1,2557.596
9,False,522,0.392,23,[],[],"[(1163, 918)]",[],[1],[64],[1.0666666666666667],"[640.0, 512.0]",vertical,"(390.0, 262.0)",[0.662],1,2560.356
9,False,523,0.323,19,[],[],"[(1167, 884)]",[],[1],[53],[0.8833333333333333],"[640.0, 512.0]",horizontal,"(890.0, 262.0)",[0.536],1,2562.986
9,False,524,0.42,25,[],[],"[(1173, 904)]",[],[1],[57],[0.95],"[640.0, 512.0]",horizontal,"(890.0, 262.0)",[0.513],1,2565.464
9,False,525,1.197,71,[],[],"[(1180, 890)]",[],[1],[99],[1.65],"[640.0, 512.0]",horizontal,"(390.0, 262.0)",[0.449],1,2568.073
9,False,526,1.049,62,[],[],"[(1178, 891)]",[],[1],[82],[1.3666666666666667],"[640.0, 512.0]",horizontal,"(890.0, 262.0)",[0.312],1,2571.503
9,False,527,0.563,33,[],[],"[(1190, 902)]",[],[1],[67],[1.1166666666666667],"[640.0, 512.0]",horizontal,"(890.0, 762.0)",[0.543],1,2574.405
9,False,528,1.222,73,[],[],"[(1200, 897)]",[],[1],[93],[1.55],"[640.0, 512.0]",vertical,"(890.0, 762.0)",[0.316],1,2577.041
9,False,529,1.236,74,[],[],"[(1203, 904)]",[],[1],[89],[1.4833333333333334],"[640.0, 512.0]",vertical,"(890.0, 262.0)",[0.235],1,2580.131
9,False,530,0.774,46,[],[],"[(1172, 894)]",[],[1],[77],[1.2833333333333332],"[640.0, 512.0]",horizontal,"(890.0, 762.0)",[0.491],1,2583.125
9,False,531,0.833,49,[],[],"[(1204, 915)]",[],[1],[74],[1.2333333333333334],"[640.0, 512.0]",vertical,"(390.0, 262.0)",[0.389],1,2585.939
9,False,532,1.496,89,[],[2627535],"[(1202, 901)]","[(1154, 905)]",[1],[72],[1.2],"[640.0, 512.0]",vertical,"(390.0, 762.0)",[0],0,2588.738
9,False,533,1.07,64,[],[],"[(1182, 904)]",[],[1],[77],[1.2833333333333332],"[640.0, 512.0]",horizontal,"(390.0, 262.0)",[0.2],1,2591.473
9,False,534,1.429,85,[],[],"[(1172, 909)]",[],[1],[91],[1.5166666666666666],"[640.0, 512.0]",vertical,"(390.0, 762.0)",[0.084],1,2595.104
9,False,535,1.204,72,[],[],"[(1209, 908)]",[],[1],[76],[1.2666666666666666],"[640.0, 512.0]",vertical,"(390.0, 262.0)",[0.05],1,2598.184
9,False,536,1.139,68,[],[],"[(1171, 904)]",[],[1],[91],[1.5166666666666666],"[640.0, 512.0]",vertical,"(890.0, 262.0)",[0.36],1,2600.989
9,False,537,0.711,42,[],[],"[(1168, 910)]",[],[1],[75],[1.25],"[640.0, 512.0]",vertical,"(390.0, 262.0)",[0.527],1,2604.071
9,False,538,0.611,36,[],[],"[(1169, 904)]",[],[1],[70],[1.1666666666666667],"[640.0, 512.0]",horizontal,"(890.0, 762.0)",[0.538],1,2606.822
9,False,539,1.129,67,[],[],"[(1171, 904)]",[],[1],[78],[1.3],"[640.0, 512.0]",vertical,"(390.0, 762.0)",[0.165],1,2609.496
9,False,540,1.16,69,[],[],"[(1185, 901)]",[],[1],[86],[1.4333333333333333],"[640.0, 512.0]",horizontal,"(390.0, 262.0)",[0.267],1,2612.334
10,False,541,0.714,42,[],[],"[(1174, 899)]",[],[1],[64],[1.0666666666666667],"[640.0, 512.0]",vertical,"(390.0, 262.0)",[0.342],1,2615.268
10,False,542,1.375,82,[],[],"[(1182, 892)]",[],[1],[102],[1.7],"[640.0, 512.0]",horizontal,"(390.0, 262.0)",[0.309],1,2617.86
10,False,543,0.753,45,[],[],"[(1177, 903)]",[],[1],[78],[1.3],"[640.0, 512.0]",vertical,"(390.0, 762.0)",[0.528],1,2621.11
10,False,544,1.277,76,[],[],"[(1188, 899)]",[],[1],[108],[1.8],"[640.0, 512.0]",vertical,"(890.0, 262.0)",[0.509],1,2623.921
10,False,545,0.774,46,[],[],"[(1200, 915)]",[],[1],[59],[0.9833333333333333],"[640.0, 512.0]",vertical,"(390.0, 762.0)",[0.199],1,2627.366
10,False,546,1.09,65,[],[],"[(1172, 900)]",[],[1],[91],[1.5166666666666666],"[640.0, 512.0]",vertical,"(390.0, 262.0)",[0.412],1,2629.998
10,False,547,0.75,45,[],[],"[(1204, 897)]",[],[1],[76],[1.2666666666666666],"[640.0, 512.0]",horizontal,"(390.0, 762.0)",[0.49],1,2633.007
10,False,548,0.434,26,[],[],"[(1196, 896)]",[],[1],[66],[1.1],"[640.0, 512.0]",horizontal,"(390.0, 262.0)",[0.636],1,2635.809
10,False,549,1.02,61,[],[],"[(1178, 898)]",[],[1],[94],[1.5666666666666667],"[640.0, 512.0]",horizontal,"(890.0, 762.0)",[0.522],1,2638.437
10,False,550,1.346,80,[],[2685837],"[(1172, 904)]","[(1150, 914)]",[1],[66],[1.1],"[640.0, 512.0]",vertical,"(890.0, 262.0)",[0],0,2641.568
10,False,551,0.866,51,[],[],"[(1172, 891)]",[],[1],[56],[0.9333333333333333],"[640.0, 512.0]",vertical,"(890.0, 262.0)",[0.068],1,2649.772
10,False,552,1.289,77,[],[2695718],"[(1190, 917)]","[(1144, 919)]",[1],[59],[0.9833333333333333],"[640.0, 512.0]",horizontal,"(890.0, 762.0)",[0],0,2657.152
10,False,553,0.832,49,[],[],"[(1160, 903)]",[],[1],[60],[1.0],"[640.0, 512.0]",vertical,"(890.0, 762.0)",[0.169],1,2659.652
10,False,554,0.348,20,[],[],"[(1173, 902)]",[],[1],[53],[0.8833333333333333],"[640.0, 512.0]",horizontal,"(390.0, 762.0)",[0.523],1,2662.485
10,False,555,1.401,84,[],[2703753],"[(1193, 904)]","[(1153, 912)]",[1],[75],[1.25],"[640.0, 512.0]",vertical,"(890.0, 262.0)",[0],0,2664.873
10,False,556,0.426,25,[],[],"[(1198, 915)]",[],[1],[61],[1.0166666666666666],"[640.0, 512.0]",horizontal,"(390.0, 762.0)",[0.579],1,2667.688
10,False,557,0.73,43,[],[],"[(1188, 918)]",[],[1],[77],[1.2833333333333332],"[640.0, 512.0]",vertical,"(390.0, 762.0)",[0.55],1,2670.265
10,False,558,1.217,73,[],[],"[(1142, 926)]",[],[1],[89],[1.4833333333333334],"[640.0, 512.0]",vertical,"(890.0, 262.0)",[0.252],1,2673.074
10,False,559,0.86,51,[],[],"[(1202, 899)]",[],[1],[75],[1.25],"[640.0, 512.0]",horizontal,"(890.0, 262.0)",[0.38],1,2676.652
10,False,560,1.216,72,[],[],"[(1203, 899)]",[],[1],[87],[1.45],"[640.0, 512.0]",vertical,"(890.0, 262.0)",[0.235],1,2679.492
10,False,561,0.568,34,[],[],"[(1202, 896)]",[],[1],[70],[1.1666666666666667],"[640.0, 512.0]",vertical,"(390.0, 762.0)",[0.574],1,2682.492
10,False,562,0.341,20,[],[],"[(1182, 905)]",[],[1],[66],[1.1],"[640.0, 512.0]",vertical,"(890.0, 262.0)",[0.747],1,2685.221
10,False,563,1.226,73,[],[],"[(1203, 925)]",[],[1],[100],[1.6666666666666667],"[640.0, 512.0]",horizontal,"(890.0, 262.0)",[0.42],1,2687.869
10,False,564,1.177,70,[],[],"[(1185, 900)]",[],[1],[90],[1.5],"[640.0, 512.0]",vertical,"(890.0, 262.0)",[0.312],1,2691.095
10,False,565,1.219,73,[],[],"[(1214, 907)]",[],[1],[98],[1.6333333333333333],"[640.0, 512.0]",horizontal,"(890.0, 262.0)",[0.392],1,2694.171
10,False,566,1.307,78,[],[],"[(1180, 904)]",[],[1],[80],[1.3333333333333333],"[640.0, 512.0]",horizontal,"(890.0, 762.0)",[0.018],1,2697.301
10,False,567,0.891,53,[],[],"[(1170, 900)]",[],[1],[85],[1.4166666666666667],"[640.0, 512.0]",horizontal,"(390.0, 262.0)",[0.509],1,2701.227
10,False,568,0.663,39,[],[],"[(1148, 912)]",[],[1],[68],[1.1333333333333333],"[640.0, 512.0]",vertical,"(890.0, 262.0)",[0.457],1,2704.182
10,False,569,0.672,40,[],[],"[(1192, 903)]",[],[1],[72],[1.2],"[640.0, 512.0]",horizontal,"(890.0, 262.0)",[0.507],1,2707.655
10,False,570,1.41,84,[],[2770342],"[(1200, 894)]","[(1154, 906)]",[1],[57],[0.95],"[640.0, 512.0]",horizontal,"(390.0, 762.0)",[0],0,2710.488
10,False,571,1.364,81,[],[2773085],"[(1178, 896)]","[(1149, 911)]",[1],[71],[1.1833333333333333],"[640.0, 512.0]",horizontal,"(890.0, 262.0)",[0],0,2734.275
10,False,572,0.392,23,[],[],"[(1192, 886)]",[],[1],[62],[1.0333333333333332],"[640.0, 512.0]",vertical,"(890.0, 762.0)",[0.624],1,2737.022
10,False,573,1.456,87,[],[2778357],"[(1172, 899)]","[(1166, 910)]",[1],[69],[1.15],"[640.0, 512.0]",horizontal,"(390.0, 762.0)",[0],0,2739.555
10,False,574,1.151,69,[],[],"[(1200, 888)]",[],[1],[77],[1.2833333333333332],"[640.0, 512.0]",horizontal,"(390.0, 262.0)",[0.112],1,2742.303
10,False,575,1.02,61,[],[],"[(1168, 896)]",[],[1],[74],[1.2333333333333334],"[640.0, 512.0]",vertical,"(890.0, 762.0)",[0.202],1,2745.085
10,False,576,0.612,36,[],[],"[(1173, 905)]",[],[1],[65],[1.0833333333333333],"[640.0, 512.0]",horizontal,"(390.0, 262.0)",[0.456],1,2747.842
10,False,577,0.562,33,[],[],"[(1172, 904)]",[],[1],[69],[1.15],"[640.0, 512.0]",vertical,"(890.0, 262.0)",[0.574],1,2750.454
10,False,578,0.69,41,[],[],"[(1203, 903)]",[],[1],[74],[1.2333333333333334],"[640.0, 512.0]",vertical,"(890.0, 762.0)",[0.526],1,2753.193
10,False,579,0.877,52,[],[],"[(1202, 918)]",[],[1],[96],[1.6],"[640.0, 512.0]",vertical,"(390.0, 262.0)",[0.706],1,2756.001
10,False,580,0.755,45,[],[],"[(1185, 899)]",[],[1],[83],[1.3833333333333333],"[640.0, 512.0]",vertical,"(390.0, 262.0)",[0.61],1,2759.171
10,False,581,0.923,55,[],[],"[(1202, 889)]",[],[1],[86],[1.4333333333333333],"[640.0, 512.0]",vertical,"(890.0, 762.0)",[0.491],1,2762.135
10,False,582,0.541,32,[],[],"[(1194, 894)]",[],[1],[68],[1.1333333333333333],"[640.0, 512.0]",horizontal,"(390.0, 762.0)",[0.582],1,2765.14
10,False,583,0.868,52,[],[],"[(1196, 899)]",[],[1],[82],[1.3666666666666667],"[640.0, 512.0]",vertical,"(890.0, 762.0)",[0.473],1,2767.79
10,False,584,0.666,39,[],[],"[(1221, 889)]",[],[1],[68],[1.1333333333333333],"[640.0, 512.0]",horizontal,"(890.0, 262.0)",[0.464],1,2770.653
10,False,585,0.627,37,[],[],"[(1183, 900)]",[],[1],[67],[1.1166666666666667],"[640.0, 512.0]",horizontal,"(390.0, 262.0)",[0.478],1,2773.239
10,False,586,0.35,21,[],[],"[(1178, 899)]",[],[1],[56],[0.9333333333333333],"[640.0, 512.0]",horizontal,"(390.0, 262.0)",[0.557],1,2775.868
10,False,587,0.356,21,[],[],"[(1185, 902)]",[],[1],[64],[1.0666666666666667],"[640.0, 512.0]",horizontal,"(390.0, 262.0)",[0.685],1,2778.358
10,False,588,0.384,23,[],[],"[(1202, 906)]",[],[1],[60],[1.0],"[640.0, 512.0]",vertical,"(890.0, 762.0)",[0.592],1,2780.927
10,False,589,0.308,18,[],[],"[(1172, 904)]",[],[1],[59],[0.9833333333333333],"[640.0, 512.0]",horizontal,"(890.0, 762.0)",[0.658],1,2783.448
10,False,590,0.591,35,[],[],"[(1196, 893)]",[],[1],[65],[1.0833333333333333],"[640.0, 512.0]",vertical,"(390.0, 762.0)",[0.48],1,2785.971
10,False,591,1.411,84,[],[],"[(1211, 893)]",[],[1],[92],[1.5333333333333332],"[640.0, 512.0]",horizontal,"(390.0, 762.0)",[0.118],1,2788.56
10,False,592,0.336,20,[],[],"[(1172, 899)]",[],[1],[56],[0.9333333333333333],"[640.0, 512.0]",vertical,"(390.0, 262.0)",[0.574],1,2791.622
10,False,593,1.407,84,[],[2833087],"[(1204, 896)]","[(1178, 908)]",[1],"[84, 134]","[1.4, 2.2333333333333334]","[640.0, 512.0]",horizontal,"(890.0, 762.0)","[0, 0.812]",0,2794.071
10,False,594,0.339,20,[],[],"[(1195, 899)]",[],[1],[56],[0.9333333333333333],"[640.0, 512.0]",vertical,"(390.0, 262.0)",[0.577],1,2797.837
10,False,595,0.984,59,[],[],"[(1152, 909)]",[],[1],[70],[1.1666666666666667],"[640.0, 512.0]",horizontal,"(890.0, 762.0)",[0.167],1,2800.375
10,False,596,0.498,29,[],[],"[(1202, 899)]",[],[1],[60],[1.0],"[640.0, 512.0]",horizontal,"(890.0, 262.0)",[0.494],1,2803.186
10,False,597,0.804,48,[],[],"[(1172, 905)]",[],[1],[87],[1.45],"[640.0, 512.0]",vertical,"(390.0, 762.0)",[0.621],1,2805.7
10,False,598,0.744,44,[],[],"[(1196, 900)]",[],[1],[75],[1.25],"[640.0, 512.0]",vertical,"(890.0, 262.0)",[0.488],1,2808.643
10,False,599,1.179,70,[],[],"[(1200, 905)]",[],[1],[83],[1.3833333333333333],"[640.0, 512.0]",vertical,"(890.0, 762.0)",[0.197],1,2811.393
10,False,600,1.477,88,[],[2852970],"[(1199, 903)]","[(1170, 911)]",[1],[62],[1.0333333333333332],"[640.0, 512.0]",vertical,"(390.0, 262.0)",[0],0,2814.276
11,False,601,0.342,20,[],[],"[(1181, 908)]",[],[1],[53],[0.8833333333333333],"[640.0, 512.0]",vertical,"(390.0, 762.0)",[0.52],1,2816.918
11,False,602,1.243,74,[],[],"[(1170, 899)]",[],[1],[98],[1.6333333333333333],"[640.0, 512.0]",horizontal,"(890.0, 762.0)",[0.378],1,2819.759
11,False,603,0.81,48,[],[],"[(1198, 909)]",[],[1],[77],[1.2833333333333332],"[640.0, 512.0]",vertical,"(890.0, 762.0)",[0.457],1,2822.924
11,False,604,0.873,52,[],[],"[(1193, 908)]",[],[1],[82],[1.3666666666666667],"[640.0, 512.0]",horizontal,"(390.0, 762.0)",[0.473],1,2825.711
11,False,605,1.086,65,[],[],"[(1193, 900)]",[],[1],[91],[1.5166666666666666],"[640.0, 512.0]",vertical,"(890.0, 262.0)",[0.409],1,2828.59
11,False,606,0.656,39,[],[],"[(1174, 915)]",[],[1],[68],[1.1333333333333333],"[640.0, 512.0]",horizontal,"(890.0, 262.0)",[0.454],1,2831.586
11,False,607,0.835,50,[],[],"[(1180, 896)]",[],[1],[80],[1.3333333333333333],"[640.0, 512.0]",horizontal,"(390.0, 262.0)",[0.481],1,2834.317
11,False,608,0.571,34,[],[],"[(1149, 894)]",[],[1],[66],[1.1],"[640.0, 512.0]",horizontal,"(890.0, 762.0)",[0.513],1,2837.177
11,False,609,1.241,74,[],[],"[(1179, 898)]",[],[1],[97],[1.6166666666666667],"[640.0, 512.0]",horizontal,"(890.0, 262.0)",[0.36],1,2839.844
11,False,610,1.193,71,[],[],"[(1172, 926)]",[],[1],[75],[1.25],"[640.0, 512.0]",vertical,"(890.0, 262.0)",[0.049],1,2842.942
11,False,611,1.18,70,[],[],"[(1186, 897)]",[],[1],[74],[1.2333333333333334],"[640.0, 512.0]",vertical,"(390.0, 262.0)",[0.05],1,2848.324
11,False,612,1.281,76,[],[2889909],"[(1201, 911)]","[(1152, 915)]",[1],[75],[1.25],"[640.0, 512.0]",vertical,"(390.0, 762.0)",[0],0,2851.063
11,False,613,0.401,24,[],[],"[(1166, 910)]",[],[1],[58],[0.9666666666666667],"[640.0, 512.0]",vertical,"(390.0, 262.0)",[0.536],1,2853.839
11,False,614,0.543,32,[],[],"[(1176, 911)]",[],[1],[66],[1.1],"[640.0, 512.0]",vertical,"(390.0, 762.0)",[0.536],1,2857.87
11,False,615,1.184,71,[],[],"[(1172, 891)]",[],[1],[92],[1.5333333333333332],"[640.0, 512.0]",horizontal,"(890.0, 762.0)",[0.331],1,2860.51
11,False,616,0.43,25,[],[],"[(1176, 904)]",[],[1],[65],[1.0833333333333333],"[640.0, 512.0]",horizontal,"(390.0, 262.0)",[0.636],1,2863.561
11,False,617,0.477,28,[],[],"[(1175, 906)]",[],[1],[61],[1.0166666666666666],"[640.0, 512.0]",horizontal,"(890.0, 762.0)",[0.525],1,2866.205
11,False,618,0.491,29,[],[],"[(1192, 896)]",[],[1],[63],[1.05],"[640.0, 512.0]",vertical,"(390.0, 762.0)",[0.544],1,2868.754
11,False,619,0.557,33,[],[],"[(1194, 909)]",[],[1],[77],[1.2833333333333332],"[640.0, 512.0]",vertical,"(890.0, 262.0)",[0.699],1,2871.35
11,False,620,0.966,57,[],[],"[(1178, 897)]",[],[1],[92],[1.5333333333333332],"[640.0, 512.0]",vertical,"(390.0, 762.0)",[0.556],1,2876.003
11,False,621,0.853,51,[],[],"[(1170, 905)]",[],[1],[82],[1.3666666666666667],"[640.0, 512.0]",vertical,"(890.0, 262.0)",[0.494],1,2879.06
11,False,622,0.596,35,[],[],"[(1198, 905)]",[],[1],[68],[1.1333333333333333],"[640.0, 512.0]",vertical,"(890.0, 762.0)",[0.522],1,2882.121
11,False,623,0.76,45,[],[],"[(1187, 897)]",[],[1],[76],[1.2666666666666666],"[640.0, 512.0]",horizontal,"(390.0, 262.0)",[0.488],1,2884.736
11,False,624,1.194,71,[],[],"[(1172, 891)]",[],[1],[92],[1.5333333333333332],"[640.0, 512.0]",horizontal,"(890.0, 262.0)",[0.329],1,2887.492
11,False,625,0.651,39,[],[],"[(1173, 890)]",[],[1],[73],[1.2166666666666666],"[640.0, 512.0]",vertical,"(390.0, 762.0)",[0.533],1,2890.559
11,False,626,1.301,78,[],[],"[(1200, 898)]",[],[1],[103],[1.7166666666666666],"[640.0, 512.0]",horizontal,"(890.0, 762.0)",[0.393],1,2893.321
11,False,627,0.753,45,[],[],"[(1195, 899)]",[],[1],[77],[1.2833333333333332],"[640.0, 512.0]",horizontal,"(890.0, 762.0)",[0.502],1,2896.605
11,False,628,0.516,30,[],[],"[(1142, 894)]",[],[1],[61],[1.0166666666666666],"[640.0, 512.0]",vertical,"(890.0, 762.0)",[0.495],1,2899.398
11,False,629,0.473,28,[],[],"[(1177, 903)]",[],[1],[67],[1.1166666666666667],"[640.0, 512.0]",vertical,"(390.0, 762.0)",[0.619],1,2908.335
11,False,630,0.712,42,[],[],"[(1152, 918)]",[],[1],[67],[1.1166666666666667],"[640.0, 512.0]",vertical,"(390.0, 262.0)",[0.396],1,2910.931
11,False,631,0.656,39,[],[],"[(1142, 911)]",[],[1],[69],[1.15],"[640.0, 512.0]",vertical,"(890.0, 262.0)",[0.477],1,2914.099
11,False,632,0.948,56,[],[],"[(1166, 907)]",[],[1],[77],[1.2833333333333332],"[640.0, 512.0]",horizontal,"(890.0, 762.0)",[0.324],1,2916.915
11,False,633,0.486,29,[],[],"[(1173, 896)]",[],[1],[65],[1.0833333333333333],"[640.0, 512.0]",vertical,"(890.0, 262.0)",[0.574],1,2919.739
11,False,634,0.505,30,[],[],"[(1154, 902)]",[],[1],[63],[1.05],"[640.0, 512.0]",vertical,"(890.0, 762.0)",[0.525],1,2922.328
11,False,635,1.056,63,[],[],"[(1176, 890)]",[],[1],[73],[1.2166666666666666],"[640.0, 512.0]",horizontal,"(390.0, 762.0)",[0.148],1,2924.991
11,False,636,0.789,47,[],[],"[(1209, 898)]",[],[1],[77],[1.2833333333333332],"[640.0, 512.0]",vertical,"(890.0, 762.0)",[0.476],1,2927.758
11,False,637,1.407,84,[],[2970095],"[(1173, 889)]","[(1186, 897)]",[1],[67],[1.1166666666666667],"[640.0, 512.0]",horizontal,"(890.0, 262.0)",[0],0,2930.539
11,False,638,1.477,88,[],[],"[(1200, 895)]",[],[1],[92],[1.5333333333333332],"[640.0, 512.0]",vertical,"(390.0, 262.0)",[0.049],1,2934.031
11,False,639,0.612,36,[],[],"[(1203, 893)]",[],[1],[68],[1.1333333333333333],"[640.0, 512.0]",horizontal,"(890.0, 762.0)",[0.507],1,2937.078
11,False,640,0.795,47,[],[],"[(1203, 898)]",[],[1],[74],[1.2333333333333334],"[640.0, 512.0]",vertical,"(890.0, 262.0)",[0.429],1,2939.702
11,False,641,0.868,52,[],[],"[(1200, 898)]",[],[1],[90],[1.5],"[640.0, 512.0]",vertical,"(890.0, 762.0)",[0.613],1,2942.463
11,False,642,0.587,35,[],[],"[(1173, 892)]",[],[1],[65],[1.0833333333333333],"[640.0, 512.0]",horizontal,"(890.0, 762.0)",[0.474],1,2945.457
11,False,643,1.463,87,[],[2986905],"[(1197, 891)]","[(1145, 902)]",[1],[72],[1.2],"[640.0, 512.0]",horizontal,"(390.0, 762.0)",[0],0,2948.099
11,False,644,0.536,32,[],[],"[(1212, 891)]",[],[1],[65],[1.0833333333333333],"[640.0, 512.0]",horizontal,"(890.0, 262.0)",[0.525],1,2950.844
11,False,645,1.336,80,[],[2992283],"[(1157, 900)]","[(1150, 903)]",[1],[71],[1.1833333333333333],"[640.0, 512.0]",horizontal,"(890.0, 262.0)",[0],0,2953.462
11,False,646,0.907,54,[],[],"[(1160, 896)]",[],[1],[83],[1.3833333333333333],"[640.0, 512.0]",horizontal,"(890.0, 262.0)",[0.459],1,2956.222
11,False,647,1.263,75,[],[],"[(1178, 913)]",[],[1],[81],[1.35],"[640.0, 512.0]",horizontal,"(890.0, 762.0)",[0.084],1,2959.408
11,False,648,0.825,49,[],[],"[(1174, 893)]",[],[1],[80],[1.3333333333333333],"[640.0, 512.0]",horizontal,"(390.0, 762.0)",[0.487],1,2962.275
11,False,649,0.802,48,[],[],"[(1145, 885)]",[],[1],[74],[1.2333333333333334],"[640.0, 512.0]",horizontal,"(390.0, 262.0)",[0.413],1,2965.125
11,False,650,1.273,76,[],[3006704],"[(1168, 896)]","[(1173, 901)]",[1],[71],[1.1833333333333333],"[640.0, 512.0]",horizontal,"(390.0, 762.0)",[0],0,2967.896
11,False,651,1.023,61,[],[],"[(1184, 901)]",[],[1],[90],[1.5],"[640.0, 512.0]",horizontal,"(890.0, 762.0)",[0.465],1,2970.644
11,False,652,1.005,60,[],[],"[(1165, 901)]",[],[1],[87],[1.45],"[640.0, 512.0]",vertical,"(890.0, 262.0)",[0.429],1,2973.694
11,False,653,0.377,22,[],[],"[(1190, 901)]",[],[1],[56],[0.9333333333333333],"[640.0, 512.0]",horizontal,"(890.0, 262.0)",[0.536],1,2976.774
11,False,654,0.622,37,[],[],"[(1196, 890)]",[],[1],[71],[1.1833333333333333],"[640.0, 512.0]",vertical,"(390.0, 762.0)",[0.537],1,2979.224
11,False,655,0.488,29,[],[],"[(1219, 901)]",[],[1],[63],[1.05],"[640.0, 512.0]",horizontal,"(890.0, 762.0)",[0.541],1,2981.904
11,False,656,0.971,58,[],[],"[(1172, 912)]",[],[1],[80],[1.3333333333333333],"[640.0, 512.0]",horizontal,"(890.0, 262.0)",[0.344],1,2984.437
11,False,657,0.888,53,[],[],"[(1196, 890)]",[],[1],[91],[1.5166666666666666],"[640.0, 512.0]",horizontal,"(890.0, 262.0)",[0.607],1,2987.349
11,False,658,0.634,38,[],[],"[(1172, 905)]",[],[1],[68],[1.1333333333333333],"[640.0, 512.0]",horizontal,"(890.0, 762.0)",[0.474],1,2990.345
11,False,659,1.322,79,[],[3031933],"[(1178, 890)]","[(1153, 902)]",[1],"[79, 129]","[1.3166666666666667, 2.15]","[640.0, 512.0]",vertical,"(390.0, 262.0)","[0, 0.801]",0,2993.01
11,False,660,0.961,57,[],[],"[(1190, 902)]",[],[1],[81],[1.35],"[640.0, 512.0]",vertical,"(390.0, 762.0)",[0.377],1,2996.66
12,False,661,0.515,30,[],[],"[(1178, 898)]",[],[1],[61],[1.0166666666666666],"[640.0, 512.0]",vertical,"(890.0, 762.0)",[0.486],1,2999.694
12,False,662,0.93,55,[],[],"[(1173, 889)]",[],[1],[85],[1.4166666666666667],"[640.0, 512.0]",vertical,"(890.0, 762.0)",[0.474],1,3002.224
12,False,663,1.1,66,[],[],"[(1169, 907)]",[],[1],[70],[1.1666666666666667],"[640.0, 512.0]",vertical,"(390.0, 262.0)",[0.051],1,3005.206
12,False,664,1.083,64,[],[],"[(1160, 907)]",[],[1],[67],[1.1166666666666667],"[640.0, 512.0]",horizontal,"(890.0, 262.0)",[0.034],1,3007.89
12,False,665,1.482,88,[],[],"[(1198, 899)]",[],[1],[90],[1.5],"[640.0, 512.0]",vertical,"(890.0, 762.0)",[0.017],1,3010.561
12,False,666,0.645,38,[],[],"[(1178, 893)]",[],[1],[68],[1.1333333333333333],"[640.0, 512.0]",vertical,"(890.0, 762.0)",[0.474],1,3013.594
12,False,667,1.193,71,[],[],"[(1180, 895)]",[],[1],[79],[1.3166666666666667],"[640.0, 512.0]",vertical,"(890.0, 262.0)",[0.118],1,3016.238
12,False,668,0.669,40,[],[],"[(1180, 894)]",[],[1],[67],[1.1166666666666667],"[640.0, 512.0]",vertical,"(390.0, 762.0)",[0.421],1,3019.094
12,False,669,1.357,81,[],[3060450],"[(1204, 904)]","[(1176, 912)]",[1],[67],[1.1166666666666667],"[640.0, 512.0]",horizontal,"(890.0, 762.0)",[0],0,3021.729
12,False,670,1.359,81,[],[],"[(1170, 890)]",[],[1],[89],[1.4833333333333334],"[640.0, 512.0]",horizontal,"(390.0, 262.0)",[0.116],1,3024.385
12,False,671,0.751,45,[],[],"[(1149, 900)]",[],[1],[77],[1.2833333333333332],"[640.0, 512.0]",horizontal,"(390.0, 262.0)",[0.513],1,3027.408
12,False,672,1.347,80,[],[3069136],"[(1172, 893)]","[(1145, 909)]",[1],[74],[1.2333333333333334],"[640.0, 512.0]",horizontal,"(390.0, 262.0)",[0],0,3030.211
12,False,673,1.079,64,[],[],"[(1150, 894)]",[],[1],[88],[1.4666666666666666],"[640.0, 512.0]",vertical,"(890.0, 762.0)",[0.374],1,3033.074
12,False,674,0.634,38,[],[],"[(1173, 901)]",[],[1],[63],[1.05],"[640.0, 512.0]",horizontal,"(890.0, 762.0)",[0.393],1,3036.524
12,False,675,0.444,26,[],[],"[(1196, 903)]",[],[1],[58],[0.9666666666666667],"[640.0, 512.0]",horizontal,"(390.0, 262.0)",[0.505],1,3039.083
12,False,676,1.306,78,[],[3080520],"[(1188, 898)]","[(1143, 914)]",[1],[77],[1.2833333333333332],"[640.0, 512.0]",horizontal,"(390.0, 762.0)",[0],0,3041.581
12,False,677,1.03,61,[],[],"[(1203, 891)]",[],[1],[85],[1.4166666666666667],"[640.0, 512.0]",horizontal,"(890.0, 762.0)",[0.386],1,3044.464
12,False,678,0.95,57,[],[],"[(1190, 901)]",[],[1],[78],[1.3],"[640.0, 512.0]",horizontal,"(390.0, 262.0)",[0.331],1,3047.401
12,False,679,0.427,25,[],[],"[(1196, 899)]",[],[1],[61],[1.0166666666666666],"[640.0, 512.0]",horizontal,"(390.0, 262.0)",[0.578],1,3050.205
12,False,680,1.276,76,[],[],"[(1146, 895)]",[],[1],[90],[1.5],"[640.0, 512.0]",vertical,"(390.0, 762.0)",[0.217],1,3052.745
12,False,681,0.821,49,[],[],"[(1178, 902)]",[],[1],[76],[1.2666666666666666],"[640.0, 512.0]",horizontal,"(390.0, 262.0)",[0.431],1,3055.828
12,False,682,0.456,27,[],[],"[(1203, 906)]",[],[1],[70],[1.1666666666666667],"[640.0, 512.0]",vertical,"(890.0, 262.0)",[0.68],1,3058.628
12,False,683,0.901,54,[],[],"[(1190, 901)]",[],[1],[76],[1.2666666666666666],"[640.0, 512.0]",vertical,"(390.0, 762.0)",[0.344],1,3061.316
12,False,684,1.213,72,[],[],"[(1172, 894)]",[],[1],[77],[1.2833333333333332],"[640.0, 512.0]",horizontal,"(390.0, 762.0)",[0.067],1,3064.106
12,False,685,1.033,61,[],[],"[(1188, 902)]",[],[1],[68],[1.1333333333333333],"[640.0, 512.0]",horizontal,"(890.0, 262.0)",[0.099],1,3066.922
12,False,686,1.387,83,[],[3108156],"[(1173, 904)]","[(1149, 914)]",[1],[58],[0.9666666666666667],"[640.0, 512.0]",vertical,"(390.0, 762.0)",[0],0,3069.593
12,False,687,0.921,55,[],[],"[(1166, 890)]",[],[1],[65],[1.0833333333333333],"[640.0, 512.0]",horizontal,"(890.0, 262.0)",[0.148],1,3072.094
12,False,688,0.72,43,[],[],"[(1215, 884)]",[],[1],[72],[1.2],"[640.0, 512.0]",vertical,"(390.0, 762.0)",[0.462],1,3074.74
12,False,689,1.493,89,[],[3116383],"[(1194, 895)]","[(1156, 911)]",[1],[77],[1.2833333333333332],"[640.0, 512.0]",vertical,"(890.0, 762.0)",[0],0,3077.49
12,False,690,0.661,39,[],[],"[(1196, 901)]",[],[1],[66],[1.1],"[640.0, 512.0]",horizontal,"(890.0, 262.0)",[0.425],1,3080.319
12,False,691,1.482,88,[],[3121689],"[(1201, 894)]","[(1157, 909)]",[1],[67],[1.1166666666666667],"[640.0, 512.0]",horizontal,"(390.0, 262.0)",[0],0,3083.006
12,False,692,1.294,77,[],[],"[(1169, 928)]",[],[1],[88],[1.4666666666666666],"[640.0, 512.0]",vertical,"(390.0, 762.0)",[0.166],1,3085.639
12,False,693,1.267,76,[],[3127505],"[(1174, 907)]","[(1143, 919)]",[1],[74],[1.2333333333333334],"[640.0, 512.0]",horizontal,"(390.0, 762.0)",[0],0,3088.66
12,False,694,0.952,57,[],[],"[(1152, 894)]",[],[1],[85],[1.4166666666666667],"[640.0, 512.0]",vertical,"(390.0, 262.0)",[0.442],1,3091.443
12,False,695,1.097,65,[],[],"[(1190, 905)]",[],[1],[74],[1.2333333333333334],"[640.0, 512.0]",horizontal,"(390.0, 762.0)",[0.129],1,3094.391
12,False,696,0.488,29,[],[],"[(1184, 903)]",[],[1],[62],[1.0333333333333332],"[640.0, 512.0]",vertical,"(390.0, 262.0)",[0.521],1,3097.172
12,False,697,1.018,61,[],[],"[(1172, 904)]",[],[1],[83],[1.3833333333333333],"[640.0, 512.0]",horizontal,"(890.0, 762.0)",[0.341],1,3099.724
12,False,698,1.44,86,[],[],"[(1190, 902)]",[],[1],[96],[1.6],"[640.0, 512.0]",horizontal,"(890.0, 762.0)",[0.152],1,3102.959
12,False,699,0.975,58,[],[],"[(1194, 893)]",[],[1],[82],[1.3666666666666667],"[640.0, 512.0]",horizontal,"(890.0, 262.0)",[0.381],1,3106.126
12,False,700,0.476,28,[],[],"[(1203, 893)]",[],[1],[62],[1.0333333333333332],"[640.0, 512.0]",horizontal,"(890.0, 762.0)",[0.544],1,3109.019
12,False,701,0.775,46,[],[],"[(1189, 890)]",[],[1],[78],[1.3],"[640.0, 512.0]",vertical,"(890.0, 262.0)",[0.508],1,3111.544
12,False,702,0.812,48,[],[],"[(1209, 889)]",[],[1],[75],[1.25],"[640.0, 512.0]",vertical,"(390.0, 262.0)",[0.422],1,3114.353
12,False,703,0.457,27,[],[],"[(1209, 889)]",[],[1],[64],[1.0666666666666667],"[640.0, 512.0]",horizontal,"(390.0, 762.0)",[0.585],1,3117.069
12,False,704,0.51,30,[],[],"[(1176, 893)]",[],[1],[67],[1.1166666666666667],"[640.0, 512.0]",horizontal,"(390.0, 262.0)",[0.585],1,3119.611
12,False,705,1.209,72,[],[],"[(1185, 884)]",[],[1],[85],[1.4166666666666667],"[640.0, 512.0]",vertical,"(890.0, 762.0)",[0.2],1,3122.257
12,False,706,0.344,20,[],[],"[(1216, 896)]",[],[1],[61],[1.0166666666666666],"[640.0, 512.0]",vertical,"(390.0, 262.0)",[0.659],1,3125.158
12,False,707,1.476,88,[],[3166555],"[(1190, 900)]","[(1150, 914)]",[1],[76],[1.2666666666666666],"[640.0, 512.0]",horizontal,"(390.0, 762.0)",[0],0,3127.695
12,False,708,1.362,81,[],[],"[(1170, 899)]",[],[1],[94],[1.5666666666666667],"[640.0, 512.0]",vertical,"(390.0, 762.0)",[0.194],1,3130.493
12,False,709,0.98,58,[],[],"[(1193, 897)]",[],[1],[77],[1.2833333333333332],"[640.0, 512.0]",vertical,"(890.0, 262.0)",[0.299],1,3133.595
12,False,710,1.45,87,[],[3175393],"[(1153, 903)]","[(1172, 909)]",[1],[82],[1.3666666666666667],"[640.0, 512.0]",vertical,"(890.0, 762.0)",[0],0,3136.376
12,False,711,0.816,48,[],[],"[(1196, 890)]",[],[1],[69],[1.15],"[640.0, 512.0]",vertical,"(390.0, 762.0)",[0.326],1,3139.323
12,False,712,0.813,48,[],[],"[(1168, 896)]",[],[1],[78],[1.3],"[640.0, 512.0]",vertical,"(390.0, 762.0)",[0.481],1,3141.965
12,False,713,0.937,56,[],[],"[(1194, 888)]",[],[1],[79],[1.3166666666666667],"[640.0, 512.0]",horizontal,"(390.0, 262.0)",[0.365],1,3144.799
12,False,714,0.871,52,[],[],"[(1175, 893)]",[],[1],[82],[1.3666666666666667],"[640.0, 512.0]",horizontal,"(390.0, 762.0)",[0.474],1,3147.584
12,False,715,1.063,63,[],[],"[(1186, 898)]",[],[1],[68],[1.1333333333333333],"[640.0, 512.0]",vertical,"(890.0, 762.0)",[0.067],1,3150.495
12,False,716,0.444,26,[],[],"[(1196, 901)]",[],[1],[57],[0.95],"[640.0, 512.0]",horizontal,"(390.0, 762.0)",[0.492],1,3153.146
12,False,717,0.516,30,[],[],"[(1186, 885)]",[],[1],[61],[1.0166666666666666],"[640.0, 512.0]",vertical,"(890.0, 762.0)",[0.495],1,3155.633
12,False,718,0.868,52,[],[],"[(1166, 927)]",[],[1],[81],[1.35],"[640.0, 512.0]",vertical,"(890.0, 762.0)",[0.457],1,3158.199
12,False,719,1.174,70,[],[],"[(1187, 898)]",[],[1],[93],[1.55],"[640.0, 512.0]",horizontal,"(890.0, 762.0)",[0.359],1,3161.104
